key_resp.keys,key_resp.corr,key_resp.rt,present_segment.thisRepN,present_segment.thisTrialN,present_segment.thisN,present_segment.thisIndex,present_segment.ran,pictures,answer,clock,segment,participant,key_resp_2.keys,key_resp_2.corr,key_resp_2.rt,compare_segment.thisRepN,compare_segment.thisTrialN,compare_segment.thisN,compare_segment.thisIndex,compare_segment.ran,item_a,item_b,clock_conditions.thisRepN,clock_conditions.thisTrialN,clock_conditions.thisN,clock_conditions.thisIndex,clock_conditions.ran,present,compare
0.0,1.0,0.9633,0.0,0.0,0.0,0.0,1.0,mirror_12s.jpg,0.0,Blue.png,1.0,99,,,,,,,,,,,,,,,,,
0.0,1.0,0.4763,0.0,1.0,1.0,1.0,1.0,polaroid_05s.jpg,0.0,Purple.png,1.0,99,,,,,,,,,,,,,,,,,
0.0,1.0,0.3933,0.0,2.0,2.0,2.0,1.0,polaroid_05s.jpg,0.0,Red.png,1.0,99,,,,,,,,,,,,,,,,,
0.0,1.0,0.2154,0.0,3.0,3.0,3.0,1.0,slingshot_07s.jpg,0.0,Orange.png,1.0,99,,,,,,,,,,,,,,,,,
0.0,0.0,1.7261,0.0,4.0,4.0,4.0,1.0,polaroid_05s.jpg,1.0,Yellow.png,1.0,99,,,,,,,,,,,,,,,,,
0.0,1.0,1.3227,0.0,5.0,5.0,5.0,1.0,kettle_08s.jpg,0.0,Green.png,1.0,99,,,,,,,,,,,,,,,,,
0.0,1.0,0.5309,0.0,6.0,6.0,6.0,1.0,crystal_ball_12s.jpg,0.0,Blue.png,2.0,99,,,,,,,,,,,,,,,,,
0.0,1.0,0.8241,0.0,7.0,7.0,7.0,1.0,iron_13s.jpg,0.0,Purple.png,2.0,99,,,,,,,,,,,,,,,,,
0.0,1.0,0.7844,0.0,8.0,8.0,8.0,1.0,saddle_06s.jpg,0.0,Red.png,2.0,99,,,,,,,,,,,,,,,,,
0.0,1.0,1.246,0.0,9.0,9.0,9.0,1.0,mango_09s.jpg,0.0,Orange.png,2.0,99,,,,,,,,,,,,,,,,,
0.0,1.0,1.1638,0.0,10.0,10.0,10.0,1.0,ostrich_06s.jpg,0.0,Yellow.png,2.0,99,,,,,,,,,,,,,,,,,
0.0,1.0,2.0937,0.0,11.0,11.0,11.0,1.0,iron_13s.jpg,0.0,Green.png,2.0,99,,,,,,,,,,,,,,,,,
0.0,1.0,0.8094,0.0,12.0,12.0,12.0,1.0,stethoscope_01b.jpg,0.0,Blue.png,3.0,99,,,,,,,,,,,,,,,,,
0.0,1.0,0.517,0.0,13.0,13.0,13.0,1.0,ruby_15s.jpg,0.0,Purple.png,3.0,99,,,,,,,,,,,,,,,,,
0.0,1.0,0.6489,0.0,14.0,14.0,14.0,1.0,mango_09s.jpg,0.0,Red.png,3.0,99,,,,,,,,,,,,,,,,,
0.0,1.0,0.4511,0.0,15.0,15.0,15.0,1.0,target_11s.jpg,0.0,Orange.png,3.0,99,,,,,,,,,,,,,,,,,
0.0,0.0,0.6144,0.0,16.0,16.0,16.0,1.0,mango_09s.jpg,1.0,Yellow.png,3.0,99,,,,,,,,,,,,,,,,,
0.0,1.0,0.6026,0.0,17.0,17.0,17.0,1.0,compass_10n.jpg,0.0,Green.png,3.0,99,,,,,,,,,,,,,,,,,
0.0,1.0,0.3642,0.0,18.0,18.0,18.0,1.0,meatball_13s.jpg,0.0,Blue.png,4.0,99,,,,,,,,,,,,,,,,,
0.0,1.0,0.3122,0.0,19.0,19.0,19.0,1.0,stapler_01b.jpg,0.0,Purple.png,4.0,99,,,,,,,,,,,,,,,,,
,0.0,,0.0,20.0,20.0,20.0,1.0,meatball_13s.jpg,1.0,Red.png,4.0,99,,,,,,,,,,,,,,,,,
0.0,1.0,0.7349,0.0,21.0,21.0,21.0,1.0,pump_11s.jpg,0.0,Orange.png,4.0,99,,,,,,,,,,,,,,,,,
0.0,1.0,0.3704,0.0,22.0,22.0,22.0,1.0,coral_08s.jpg,0.0,Yellow.png,4.0,99,,,,,,,,,,,,,,,,,
0.0,1.0,0.6928,0.0,23.0,23.0,23.0,1.0,meatball_13s.jpg,0.0,Green.png,4.0,99,,,,,,,,,,,,,,,,,
0.0,1.0,0.4987,0.0,24.0,24.0,24.0,1.0,peach_04s.jpg,0.0,Blue.png,5.0,99,,,,,,,,,,,,,,,,,
0.0,0.0,1.8509,0.0,25.0,25.0,25.0,1.0,meatball_13s.jpg,1.0,Purple.png,5.0,99,,,,,,,,,,,,,,,,,
0.0,1.0,0.7291,0.0,26.0,26.0,26.0,1.0,pie_08s.jpg,0.0,Red.png,5.0,99,,,,,,,,,,,,,,,,,
0.0,1.0,0.6959,0.0,27.0,27.0,27.0,1.0,rollerskate_03s.jpg,0.0,Orange.png,5.0,99,,,,,,,,,,,,,,,,,
0.0,1.0,0.6837,0.0,28.0,28.0,28.0,1.0,trampoline_13s.jpg,0.0,Yellow.png,5.0,99,,,,,,,,,,,,,,,,,
0.0,1.0,1.2943,0.0,29.0,29.0,29.0,1.0,undershirt_02s.jpg,0.0,Green.png,5.0,99,,,,,,,,,,,,,,,,,
0.0,1.0,0.5571,0.0,30.0,30.0,30.0,1.0,thread_08s.jpg,0.0,Blue.png,6.0,99,,,,,,,,,,,,,,,,,
0.0,1.0,0.5449,0.0,31.0,31.0,31.0,1.0,megaphone_03s.jpg,0.0,Purple.png,6.0,99,,,,,,,,,,,,,,,,,
0.0,1.0,0.544,0.0,32.0,32.0,32.0,1.0,plaster_cast_13s.jpg,0.0,Red.png,6.0,99,,,,,,,,,,,,,,,,,
0.0,1.0,0.4647,0.0,33.0,33.0,33.0,1.0,diving_board_07s.jpg,0.0,Orange.png,6.0,99,,,,,,,,,,,,,,,,,
0.0,1.0,0.5485,0.0,34.0,34.0,34.0,1.0,kayak_08s.jpg,0.0,Yellow.png,6.0,99,,,,,,,,,,,,,,,,,
0.0,0.0,0.6553,0.0,35.0,35.0,35.0,1.0,diving_board_07s.jpg,1.0,Green.png,6.0,99,,,,,,,,,,,,,,,,,
,,,,,,,,,1.0,,,99,1.0,1.0,0.5907,0.0,0.0,0.0,0.0,1.0,stapler_01b.jpg,coral_08s.jpg,,,,,,,
,,,,,,,,,1.0,,,99,1.0,1.0,1.4316,0.0,1.0,1.0,1.0,1.0,slingshot_07s.jpg,crystal_ball_12s.jpg,,,,,,,
,,,,,,,,,0.0,,,99,1.0,0.0,0.5516,0.0,2.0,2.0,2.0,1.0,saddle_06s.jpg,kettle_08s.jpg,,,,,,,
,,,,,,,,,1.0,,,99,1.0,1.0,0.4899,0.0,3.0,3.0,3.0,1.0,pie_08s.jpg,undershirt_02s.jpg,,,,,,,
,,,,,,,,,1.0,,,99,1.0,1.0,0.3145,0.0,4.0,4.0,4.0,1.0,stethoscope_01b.jpg,target_11s.jpg,,,,,,,
,,,,,,,,,1.0,,,99,1.0,1.0,0.2987,0.0,5.0,5.0,5.0,1.0,ostrich_06s.jpg,ruby_15s.jpg,,,,,,,
,,,,,,,,,,,,99,,,,,,,,,,,0.0,0.0,0.0,0.0,1.0,new2backpresent_1_4.xlsx,new2back_compare_task_1_4.xlsx
0.0,1.0,1.783,0.0,0.0,0.0,0.0,1.0,jetski_10s.jpg,0.0,Blue.png,1.0,99,,,,,,,,,,,,,,,,,
0.0,1.0,2.2624,0.0,1.0,1.0,1.0,1.0,tripod_01b.jpg,0.0,Purple.png,1.0,99,,,,,,,,,,,,,,,,,
0.0,1.0,2.3995,0.0,2.0,2.0,2.0,1.0,lab_coat_11s.jpg,0.0,Red.png,1.0,99,,,,,,,,,,,,,,,,,
0.0,1.0,0.4746,0.0,3.0,3.0,3.0,1.0,foam_03s.jpg,0.0,Orange.png,1.0,99,,,,,,,,,,,,,,,,,
0.0,1.0,0.8272,0.0,4.0,4.0,4.0,1.0,crate_05s.jpg,0.0,Yellow.png,1.0,99,,,,,,,,,,,,,,,,,
0.0,1.0,0.9484,0.0,5.0,5.0,5.0,1.0,margarita_03s.jpg,0.0,Green.png,1.0,99,,,,,,,,,,,,,,,,,
0.0,1.0,0.8933,0.0,6.0,6.0,6.0,1.0,joystick_01b.jpg,0.0,Blue.png,2.0,99,,,,,,,,,,,,,,,,,
,0.0,,0.0,7.0,7.0,7.0,1.0,giraffe_11s.jpg,0.0,Purple.png,2.0,99,,,,,,,,,,,,,,,,,
0.0,1.0,0.6663,0.0,8.0,8.0,8.0,1.0,quilt_03s.jpg,0.0,Red.png,2.0,99,,,,,,,,,,,,,,,,,
0.0,0.0,0.4455,0.0,9.0,9.0,9.0,1.0,giraffe_11s.jpg,1.0,Orange.png,2.0,99,,,,,,,,,,,,,,,,,
0.0,1.0,0.7274,0.0,10.0,10.0,10.0,1.0,pincushion_10s.jpg,0.0,Yellow.png,2.0,99,,,,,,,,,,,,,,,,,
0.0,0.0,0.5169,0.0,11.0,11.0,11.0,1.0,giraffe_11s.jpg,1.0,Green.png,2.0,99,,,,,,,,,,,,,,,,,
0.0,0.0,0.6625,0.0,12.0,12.0,12.0,1.0,pincushion_10s.jpg,1.0,Blue.png,3.0,99,,,,,,,,,,,,,,,,,
0.0,0.0,1.2349,0.0,13.0,13.0,13.0,1.0,giraffe_11s.jpg,1.0,Purple.png,3.0,99,,,,,,,,,,,,,,,,,
0.0,1.0,0.4939,0.0,14.0,14.0,14.0,1.0,rolling_pin_02s.jpg,0.0,Red.png,3.0,99,,,,,,,,,,,,,,,,,
0.0,1.0,0.6411,0.0,15.0,15.0,15.0,1.0,ticktacktoe_08s.jpg,0.0,Orange.png,3.0,99,,,,,,,,,,,,,,,,,
0.0,1.0,2.4148,0.0,16.0,16.0,16.0,1.0,giraffe_11s.jpg,0.0,Yellow.png,3.0,99,,,,,,,,,,,,,,,,,
0.0,0.0,1.2493,0.0,17.0,17.0,17.0,1.0,ticktacktoe_08s.jpg,1.0,Green.png,3.0,99,,,,,,,,,,,,,,,,,
0.0,1.0,1.0765,0.0,18.0,18.0,18.0,1.0,typewriter_11s.jpg,0.0,Blue.png,4.0,99,,,,,,,,,,,,,,,,,
0.0,1.0,2.4711,0.0,19.0,19.0,19.0,1.0,toothpaste_12s.jpg,0.0,Purple.png,4.0,99,,,,,,,,,,,,,,,,,
0.0,1.0,2.3589,0.0,20.0,20.0,20.0,1.0,hummingbird_05s.jpg,0.0,Red.png,4.0,99,,,,,,,,,,,,,,,,,
0.0,0.0,2.1604,0.0,21.0,21.0,21.0,1.0,toothpaste_12s.jpg,1.0,Orange.png,4.0,99,,,,,,,,,,,,,,,,,
0.0,1.0,2.4292,0.0,22.0,22.0,22.0,1.0,toothpaste_12s.jpg,0.0,Yellow.png,4.0,99,,,,,,,,,,,,,,,,,
0.0,1.0,2.0335,0.0,23.0,23.0,23.0,1.0,treadmill_06s.jpg,0.0,Green.png,4.0,99,,,,,,,,,,,,,,,,,
0.0,1.0,2.1425,0.0,24.0,24.0,24.0,1.0,typewriter_11s.jpg,0.0,Blue.png,5.0,99,,,,,,,,,,,,,,,,,
0.0,1.0,2.1784,0.0,25.0,25.0,25.0,1.0,penguin_16s.jpg,0.0,Purple.png,5.0,99,,,,,,,,,,,,,,,,,
0.0,1.0,2.2343,0.0,26.0,26.0,26.0,1.0,olive_05s.jpg,0.0,Red.png,5.0,99,,,,,,,,,,,,,,,,,
0.0,0.0,2.0449,0.0,27.0,27.0,27.0,1.0,penguin_16s.jpg,1.0,Orange.png,5.0,99,,,,,,,,,,,,,,,,,
0.0,1.0,2.1266,0.0,28.0,28.0,28.0,1.0,penguin_16s.jpg,0.0,Yellow.png,5.0,99,,,,,,,,,,,,,,,,,
0.0,1.0,2.4482,0.0,29.0,29.0,29.0,1.0,tab_09s.jpg,0.0,Green.png,5.0,99,,,,,,,,,,,,,,,,,
0.0,1.0,2.3252,0.0,30.0,30.0,30.0,1.0,frame_06s.jpg,0.0,Blue.png,6.0,99,,,,,,,,,,,,,,,,,
0.0,1.0,2.2402,0.0,31.0,31.0,31.0,1.0,mop_08s.jpg,0.0,Purple.png,6.0,99,,,,,,,,,,,,,,,,,
0.0,1.0,2.3651,0.0,32.0,32.0,32.0,1.0,memory_stick_11s.jpg,0.0,Red.png,6.0,99,,,,,,,,,,,,,,,,,
0.0,1.0,0.7003,0.0,33.0,33.0,33.0,1.0,olive_05s.jpg,0.0,Orange.png,6.0,99,,,,,,,,,,,,,,,,,
0.0,1.0,1.2831,0.0,34.0,34.0,34.0,1.0,ravioli_08s.jpg,0.0,Yellow.png,6.0,99,,,,,,,,,,,,,,,,,
0.0,1.0,0.4994,0.0,35.0,35.0,35.0,1.0,mousetrap_15n.jpg,0.0,Green.png,6.0,99,,,,,,,,,,,,,,,,,
,,,,,,,,,1.0,,,99,1.0,1.0,2.2053,0.0,0.0,0.0,0.0,1.0,hummingbird_05s.jpg,treadmill_06s.jpg,,,,,,,
,,,,,,,,,1.0,,,99,1.0,1.0,0.4134,0.0,1.0,1.0,1.0,1.0,margarita_03s.jpg,quilt_03s.jpg,,,,,,,
,,,,,,,,,0.0,,,99,1.0,0.0,0.2998,0.0,2.0,2.0,2.0,1.0,joystick_01b.jpg,foam_03s.jpg,,,,,,,
,,,,,,,,,0.0,,,99,1.0,0.0,0.2661,0.0,3.0,3.0,3.0,1.0,ravioli_08s.jpg,mop_08s.jpg,,,,,,,
,,,,,,,,,1.0,,,99,1.0,1.0,0.2201,0.0,4.0,4.0,4.0,1.0,tab_09s.jpg,memory_stick_11s.jpg,,,,,,,
,,,,,,,,,1.0,,,99,1.0,1.0,0.2814,0.0,5.0,5.0,5.0,1.0,tripod_01b.jpg,crate_05s.jpg,,,,,,,
,,,,,,,,,,,,99,,,,,,,,,,,0.0,1.0,1.0,1.0,1.0,new2backpresent_2_4.xlsx,new2back_compare_task_2_4.xlsx
0.0,1.0,2.426,0.0,0.0,0.0,0.0,1.0,safety_pin_02s.jpg,0.0,Blue.png,1.0,99,,,,,,,,,,,,,,,,,
0.0,1.0,2.4037,0.0,1.0,1.0,1.0,1.0,safety_pin_02s.jpg,0.0,Purple.png,1.0,99,,,,,,,,,,,,,,,,,
0.0,1.0,2.3112,0.0,2.0,2.0,2.0,1.0,cardinal_07s.jpg,0.0,Red.png,1.0,99,,,,,,,,,,,,,,,,,
0.0,0.0,1.3093,0.0,3.0,3.0,3.0,1.0,safety_pin_02s.jpg,1.0,Orange.png,1.0,99,,,,,,,,,,,,,,,,,
0.0,1.0,1.7151,0.0,4.0,4.0,4.0,1.0,potholder_02s.jpg,0.0,Yellow.png,1.0,99,,,,,,,,,,,,,,,,,
0.0,0.0,0.5363,0.0,5.0,5.0,5.0,1.0,safety_pin_02s.jpg,1.0,Green.png,1.0,99,,,,,,,,,,,,,,,,,
0.0,1.0,0.4937,0.0,6.0,6.0,6.0,1.0,cardinal_07s.jpg,0.0,Blue.png,2.0,99,,,,,,,,,,,,,,,,,
0.0,1.0,0.4698,0.0,7.0,7.0,7.0,1.0,lion_18s.jpg,0.0,Purple.png,2.0,99,,,,,,,,,,,,,,,,,
0.0,1.0,2.2825,0.0,8.0,8.0,8.0,1.0,comic_book_02s.jpg,0.0,Red.png,2.0,99,,,,,,,,,,,,,,,,,
0.0,1.0,0.7176,0.0,9.0,9.0,9.0,1.0,lizard_10n.jpg,0.0,Orange.png,2.0,99,,,,,,,,,,,,,,,,,
0.0,1.0,0.6432,0.0,10.0,10.0,10.0,1.0,rice_12s.jpg,0.0,Yellow.png,2.0,99,,,,,,,,,,,,,,,,,
0.0,1.0,1.1801,0.0,11.0,11.0,11.0,1.0,bagel_15s.jpg,0.0,Green.png,2.0,99,,,,,,,,,,,,,,,,,
0.0,1.0,1.4859,0.0,12.0,12.0,12.0,1.0,recliner_02s.jpg,0.0,Blue.png,3.0,99,,,,,,,,,,,,,,,,,
0.0,1.0,0.9494,0.0,13.0,13.0,13.0,1.0,recliner_02s.jpg,0.0,Purple.png,3.0,99,,,,,,,,,,,,,,,,,
0.0,1.0,0.4694,0.0,14.0,14.0,14.0,1.0,luggage_08s.jpg,0.0,Red.png,3.0,99,,,,,,,,,,,,,,,,,
0.0,0.0,0.3376,0.0,15.0,15.0,15.0,1.0,recliner_02s.jpg,1.0,Orange.png,3.0,99,,,,,,,,,,,,,,,,,
0.0,1.0,1.9393,0.0,16.0,16.0,16.0,1.0,onion_10s.jpg,0.0,Yellow.png,3.0,99,,,,,,,,,,,,,,,,,
0.0,1.0,0.4542,0.0,17.0,17.0,17.0,1.0,rosary_03s.jpg,0.0,Green.png,3.0,99,,,,,,,,,,,,,,,,,
0.0,1.0,2.4573,0.0,18.0,18.0,18.0,1.0,smokingpipe.jpg,0.0,Blue.png,4.0,99,,,,,,,,,,,,,,,,,
0.0,1.0,2.2428,0.0,19.0,19.0,19.0,1.0,roulette_wheel_04s.jpg,0.0,Purple.png,4.0,99,,,,,,,,,,,,,,,,,
0.0,0.0,0.2929,0.0,20.0,20.0,20.0,1.0,smokingpipe.jpg,1.0,Red.png,4.0,99,,,,,,,,,,,,,,,,,
0.0,1.0,0.6612,0.0,21.0,21.0,21.0,1.0,orchid_01b.jpg,0.0,Orange.png,4.0,99,,,,,,,,,,,,,,,,,
0.0,1.0,0.7019,0.0,22.0,22.0,22.0,1.0,buoy_04s.jpg,0.0,Yellow.png,4.0,99,,,,,,,,,,,,,,,,,
0.0,1.0,0.6196,0.0,23.0,23.0,23.0,1.0,stopwatch_04s.jpg,0.0,Green.png,4.0,99,,,,,,,,,,,,,,,,,
0.0,1.0,2.2095,0.0,24.0,24.0,24.0,1.0,knitting_needle_04s.jpg,0.0,Blue.png,5.0,99,,,,,,,,,,,,,,,,,
0.0,1.0,1.2724,0.0,25.0,25.0,25.0,1.0,prism_10s.jpg,0.0,Purple.png,5.0,99,,,,,,,,,,,,,,,,,
0.0,1.0,1.8296,0.0,26.0,26.0,26.0,1.0,teapot_03s.jpg,0.0,Red.png,5.0,99,,,,,,,,,,,,,,,,,
0.0,1.0,1.7005,0.0,27.0,27.0,27.0,1.0,fire_pit_10s.jpg,0.0,Orange.png,5.0,99,,,,,,,,,,,,,,,,,
0.0,1.0,1.0975,0.0,28.0,28.0,28.0,1.0,fire_pit_10s.jpg,0.0,Yellow.png,5.0,99,,,,,,,,,,,,,,,,,
0.0,0.0,0.5307,0.0,29.0,29.0,29.0,1.0,fire_pit_10s.jpg,1.0,Green.png,5.0,99,,,,,,,,,,,,,,,,,
0.0,1.0,0.5598,0.0,30.0,30.0,30.0,1.0,ironing_board_07s.jpg,0.0,Blue.png,6.0,99,,,,,,,,,,,,,,,,,
,0.0,,0.0,31.0,31.0,31.0,1.0,fire_pit_10s.jpg,1.0,Purple.png,6.0,99,,,,,,,,,,,,,,,,,
0.0,1.0,1.645,0.0,32.0,32.0,32.0,1.0,mattress_01s.jpg,0.0,Red.png,6.0,99,,,,,,,,,,,,,,,,,
0.0,0.0,0.6328,0.0,33.0,33.0,33.0,1.0,fire_pit_10s.jpg,1.0,Orange.png,6.0,99,,,,,,,,,,,,,,,,,
0.0,0.0,0.3847,0.0,34.0,34.0,34.0,1.0,mattress_01s.jpg,1.0,Yellow.png,6.0,99,,,,,,,,,,,,,,,,,
0.0,1.0,2.175,0.0,35.0,35.0,35.0,1.0,ice-cream_cone_06s.jpg,0.0,Green.png,6.0,99,,,,,,,,,,,,,,,,,
,,,,,,,,,1.0,,,99,1.0,1.0,1.2092,0.0,0.0,0.0,0.0,1.0,roulette_wheel_04s.jpg,buoy_04s.jpg,,,,,,,
,,,,,,,,,0.0,,,99,1.0,0.0,0.6632,0.0,1.0,1.0,1.0,1.0,lion_18s.jpg,potholder_02s.jpg,,,,,,,
,,,,,,,,,0.0,,,99,1.0,0.0,0.2838,0.0,2.0,2.0,2.0,1.0,bagel_15s.jpg,comic_book_02s.jpg,,,,,,,
,,,,,,,,,1.0,,,99,1.0,1.0,0.5571,0.0,3.0,3.0,3.0,1.0,stopwatch_04s.jpg,teapot_03s.jpg,,,,,,,
,,,,,,,,,1.0,,,99,0.0,0.0,3.282,0.0,4.0,4.0,4.0,1.0,luggage_08s.jpg,rosary_03s.jpg,,,,,,,
,,,,,,,,,1.0,,,99,1.0,1.0,1.6156,0.0,5.0,5.0,5.0,1.0,orchid_01b.jpg,knitting_needle_04s.jpg,,,,,,,
,,,,,,,,,,,,99,,,,,,,,,,,0.0,2.0,2.0,2.0,1.0,new2backpresent_3_4.xlsx,new2back_compare_task_3_4.xlsx
0.0,1.0,2.0371,0.0,0.0,0.0,0.0,1.0,smoothie_09s.jpg,0.0,Blue.png,1.0,99,,,,,,,,,,,,,,,,,
0.0,1.0,2.4639,0.0,1.0,1.0,1.0,1.0,raspberry_12s.jpg,0.0,Purple.png,1.0,99,,,,,,,,,,,,,,,,,
0.0,1.0,2.0081,0.0,2.0,2.0,2.0,1.0,raspberry_12s.jpg,0.0,Red.png,1.0,99,,,,,,,,,,,,,,,,,
0.0,1.0,2.084,0.0,3.0,3.0,3.0,1.0,lamb_chop_07s.jpg,0.0,Orange.png,1.0,99,,,,,,,,,,,,,,,,,
0.0,1.0,2.1595,0.0,4.0,4.0,4.0,1.0,smoothie_09s.jpg,0.0,Yellow.png,1.0,99,,,,,,,,,,,,,,,,,
0.0,1.0,2.2823,0.0,5.0,5.0,5.0,1.0,raspberry_12s.jpg,0.0,Green.png,1.0,99,,,,,,,,,,,,,,,,,
0.0,1.0,2.3455,0.0,6.0,6.0,6.0,1.0,lava_02s.jpg,0.0,Blue.png,2.0,99,,,,,,,,,,,,,,,,,
0.0,1.0,2.1147,0.0,7.0,7.0,7.0,1.0,trident_07s.jpg,0.0,Purple.png,2.0,99,,,,,,,,,,,,,,,,,
0.0,1.0,1.7925,0.0,8.0,8.0,8.0,1.0,trident_07s.jpg,0.0,Red.png,2.0,99,,,,,,,,,,,,,,,,,
0.0,0.0,2.1797,0.0,9.0,9.0,9.0,1.0,trident_07s.jpg,1.0,Orange.png,2.0,99,,,,,,,,,,,,,,,,,
0.0,1.0,1.9123,0.0,10.0,10.0,10.0,1.0,orangutan_03s.jpg,0.0,Yellow.png,2.0,99,,,,,,,,,,,,,,,,,
0.0,0.0,2.2705,0.0,11.0,11.0,11.0,1.0,trident_07s.jpg,1.0,Green.png,2.0,99,,,,,,,,,,,,,,,,,
0.0,1.0,2.2983,0.0,12.0,12.0,12.0,1.0,raspberry_12s.jpg,0.0,Blue.png,3.0,99,,,,,,,,,,,,,,,,,
0.0,0.0,2.4657,0.0,13.0,13.0,13.0,1.0,trident_07s.jpg,1.0,Purple.png,3.0,99,,,,,,,,,,,,,,,,,
0.0,1.0,2.3773,0.0,14.0,14.0,14.0,1.0,lavender_10s.jpg,0.0,Red.png,3.0,99,,,,,,,,,,,,,,,,,
0.0,1.0,2.1284,0.0,15.0,15.0,15.0,1.0,chip_04s.jpg,0.0,Orange.png,3.0,99,,,,,,,,,,,,,,,,,
0.0,1.0,1.8828,0.0,16.0,16.0,16.0,1.0,lamb_04s.jpg,0.0,Yellow.png,3.0,99,,,,,,,,,,,,,,,,,
0.0,1.0,2.2185,0.0,17.0,17.0,17.0,1.0,emerald_02s.jpg,0.0,Green.png,3.0,99,,,,,,,,,,,,,,,,,
0.0,1.0,1.9291,0.0,18.0,18.0,18.0,1.0,pineapple_12s.jpg,0.0,Blue.png,4.0,99,,,,,,,,,,,,,,,,,
0.0,1.0,2.1585,0.0,19.0,19.0,19.0,1.0,sundae_08s.jpg,0.0,Purple.png,4.0,99,,,,,,,,,,,,,,,,,
0.0,1.0,2.1862,0.0,20.0,20.0,20.0,1.0,sundae_08s.jpg,0.0,Red.png,4.0,99,,,,,,,,,,,,,,,,,
0.0,1.0,2.1821,0.0,21.0,21.0,21.0,1.0,squirrel_02s.jpg,0.0,Orange.png,4.0,99,,,,,,,,,,,,,,,,,
0.0,1.0,2.2311,0.0,22.0,22.0,22.0,1.0,roller_coaster_07s.jpg,0.0,Yellow.png,4.0,99,,,,,,,,,,,,,,,,,
0.0,1.0,2.2517,0.0,23.0,23.0,23.0,1.0,sundae_08s.jpg,0.0,Green.png,4.0,99,,,,,,,,,,,,,,,,,
0.0,1.0,2.2585,0.0,24.0,24.0,24.0,1.0,tweezers_03s.jpg,0.0,Blue.png,5.0,99,,,,,,,,,,,,,,,,,
0.0,0.0,2.0479,0.0,25.0,25.0,25.0,1.0,sundae_08s.jpg,1.0,Purple.png,5.0,99,,,,,,,,,,,,,,,,,
0.0,1.0,2.1115,0.0,26.0,26.0,26.0,1.0,rudder_02s.jpg,0.0,Red.png,5.0,99,,,,,,,,,,,,,,,,,
0.0,1.0,2.2502,0.0,27.0,27.0,27.0,1.0,rake_06s.jpg,0.0,Orange.png,5.0,99,,,,,,,,,,,,,,,,,
0.0,1.0,2.0595,0.0,28.0,28.0,28.0,1.0,rake_06s.jpg,0.0,Yellow.png,5.0,99,,,,,,,,,,,,,,,,,
0.0,0.0,2.0143,0.0,29.0,29.0,29.0,1.0,rake_06s.jpg,1.0,Green.png,5.0,99,,,,,,,,,,,,,,,,,
0.0,1.0,2.4577,0.0,30.0,30.0,30.0,1.0,cap_05s.jpg,0.0,Blue.png,6.0,99,,,,,,,,,,,,,,,,,
0.0,1.0,2.3813,0.0,31.0,31.0,31.0,1.0,paper_towel_03s.jpg,0.0,Purple.png,6.0,99,,,,,,,,,,,,,,,,,
0.0,1.0,2.2151,0.0,32.0,32.0,32.0,1.0,toaster_03s.jpg,0.0,Red.png,6.0,99,,,,,,,,,,,,,,,,,
0.0,1.0,2.2298,0.0,33.0,33.0,33.0,1.0,money_07s.jpg,0.0,Orange.png,6.0,99,,,,,,,,,,,,,,,,,
0.0,1.0,2.1985,0.0,34.0,34.0,34.0,1.0,pinwheel_06s.jpg,0.0,Yellow.png,6.0,99,,,,,,,,,,,,,,,,,
0.0,1.0,2.1321,0.0,35.0,35.0,35.0,1.0,lid_10s.jpg,0.0,Green.png,6.0,99,,,,,,,,,,,,,,,,,
,,,,,,,,,0.0,,,99,1.0,0.0,0.7278,0.0,0.0,0.0,0.0,1.0,tweezers_03s.jpg,squirrel_02s.jpg,,,,,,,
,,,,,,,,,1.0,,,99,1.0,1.0,0.2864,0.0,1.0,1.0,1.0,1.0,chip_04s.jpg,pineapple_12s.jpg,,,,,,,
,,,,,,,,,1.0,,,99,1.0,1.0,0.2349,0.0,2.0,2.0,2.0,1.0,lamb_chop_07s.jpg,lava_02s.jpg,,,,,,,
,,,,,,,,,0.0,,,99,1.0,0.0,0.1821,0.0,3.0,3.0,3.0,1.0,pinwheel_06s.jpg,paper_towel_03s.jpg,,,,,,,
,,,,,,,,,0.0,,,99,1.0,0.0,0.2495,0.0,4.0,4.0,4.0,1.0,emerald_02s.jpg,lavender_10s.jpg,,,,,,,
,,,,,,,,,0.0,,,99,1.0,0.0,0.2673,0.0,5.0,5.0,5.0,1.0,money_07s.jpg,cap_05s.jpg,,,,,,,
,,,,,,,,,,,,99,,,,,,,,,,,0.0,3.0,3.0,3.0,1.0,new2backpresent_4_4.xlsx,new2back_compare_task_4_4.xlsx
0.0,1.0,2.2591,0.0,0.0,0.0,0.0,1.0,fur_coat_11s.jpg,0.0,Blue.png,1.0,99,,,,,,,,,,,,,,,,,
0.0,1.0,2.3095,0.0,1.0,1.0,1.0,1.0,crayon_09s.jpg,0.0,Purple.png,1.0,99,,,,,,,,,,,,,,,,,
0.0,1.0,2.4101,0.0,2.0,2.0,2.0,1.0,cobra_05s.jpg,0.0,Red.png,1.0,99,,,,,,,,,,,,,,,,,
0.0,1.0,2.3968,0.0,3.0,3.0,3.0,1.0,raccoon_02s.jpg,0.0,Orange.png,1.0,99,,,,,,,,,,,,,,,,,
0.0,1.0,2.0265,0.0,4.0,4.0,4.0,1.0,soda_fountain_03s.jpg,0.0,Yellow.png,1.0,99,,,,,,,,,,,,,,,,,
0.0,0.0,2.2018,0.0,5.0,5.0,5.0,1.0,raccoon_02s.jpg,1.0,Green.png,1.0,99,,,,,,,,,,,,,,,,,
0.0,1.0,2.2498,0.0,6.0,6.0,6.0,1.0,feather02.jpg,0.0,Blue.png,2.0,99,,,,,,,,,,,,,,,,,
0.0,0.0,2.253,0.0,7.0,7.0,7.0,1.0,raccoon_02s.jpg,1.0,Purple.png,2.0,99,,,,,,,,,,,,,,,,,
0.0,0.0,2.4506,0.0,8.0,8.0,8.0,1.0,feather02.jpg,1.0,Red.png,2.0,99,,,,,,,,,,,,,,,,,
0.0,1.0,2.1997,0.0,9.0,9.0,9.0,1.0,rug_09s.jpg,0.0,Orange.png,2.0,99,,,,,,,,,,,,,,,,,
0.0,0.0,2.4493,0.0,10.0,10.0,10.0,1.0,feather02.jpg,1.0,Yellow.png,2.0,99,,,,,,,,,,,,,,,,,
0.0,1.0,2.2447,0.0,11.0,11.0,11.0,1.0,cushion_08s.jpg,0.0,Green.png,2.0,99,,,,,,,,,,,,,,,,,
0.0,0.0,2.3771,0.0,12.0,12.0,12.0,1.0,feather02.jpg,1.0,Blue.png,3.0,99,,,,,,,,,,,,,,,,,
0.0,1.0,2.2253,0.0,13.0,13.0,13.0,1.0,feather02.jpg,0.0,Purple.png,3.0,99,,,,,,,,,,,,,,,,,
0.0,1.0,1.8258,0.0,14.0,14.0,14.0,1.0,ice_pack_09s.jpg,0.0,Red.png,3.0,99,,,,,,,,,,,,,,,,,
0.0,1.0,2.4528,0.0,15.0,15.0,15.0,1.0,ice_pack_09s.jpg,0.0,Orange.png,3.0,99,,,,,,,,,,,,,,,,,
0.0,1.0,2.2948,0.0,16.0,16.0,16.0,1.0,loom_05s.jpg,0.0,Yellow.png,3.0,99,,,,,,,,,,,,,,,,,
0.0,0.0,2.2587,0.0,17.0,17.0,17.0,1.0,ice_pack_09s.jpg,1.0,Green.png,3.0,99,,,,,,,,,,,,,,,,,
0.0,1.0,2.2144,0.0,18.0,18.0,18.0,1.0,ice_pack_09s.jpg,0.0,Blue.png,4.0,99,,,,,,,,,,,,,,,,,
0.0,0.0,2.2995,0.0,19.0,19.0,19.0,1.0,ice_pack_09s.jpg,1.0,Purple.png,4.0,99,,,,,,,,,,,,,,,,,
0.0,0.0,2.0663,0.0,20.0,20.0,20.0,1.0,ice_pack_09s.jpg,1.0,Red.png,4.0,99,,,,,,,,,,,,,,,,,
0.0,1.0,2.4513,0.0,21.0,21.0,21.0,1.0,blazer_02s.jpg,0.0,Orange.png,4.0,99,,,,,,,,,,,,,,,,,
0.0,1.0,2.026,0.0,22.0,22.0,22.0,1.0,penlight_12s.jpg,0.0,Yellow.png,4.0,99,,,,,,,,,,,,,,,,,
0.0,1.0,1.9344,0.0,23.0,23.0,23.0,1.0,swan_11s.jpg,0.0,Green.png,4.0,99,,,,,,,,,,,,,,,,,
0.0,1.0,2.2756,0.0,24.0,24.0,24.0,1.0,plunger_08s.jpg,0.0,Blue.png,5.0,99,,,,,,,,,,,,,,,,,
0.0,1.0,2.1781,0.0,25.0,25.0,25.0,1.0,bottle_opener_11s.jpg,0.0,Purple.png,5.0,99,,,,,,,,,,,,,,,,,
0.0,1.0,2.4624,0.0,26.0,26.0,26.0,1.0,checkbook_11s.jpg,0.0,Red.png,5.0,99,,,,,,,,,,,,,,,,,
0.0,1.0,2.4121,0.0,27.0,27.0,27.0,1.0,ink_08s.jpg,0.0,Orange.png,5.0,99,,,,,,,,,,,,,,,,,
0.0,1.0,0.9401,0.0,28.0,28.0,28.0,1.0,plunger_08s.jpg,0.0,Yellow.png,5.0,99,,,,,,,,,,,,,,,,,
0.0,1.0,2.1606,0.0,29.0,29.0,29.0,1.0,pencil02a.jpg,0.0,Green.png,5.0,99,,,,,,,,,,,,,,,,,
0.0,1.0,2.3929,0.0,30.0,30.0,30.0,1.0,ginger_09s.jpg,0.0,Blue.png,6.0,99,,,,,,,,,,,,,,,,,
0.0,1.0,1.847,0.0,31.0,31.0,31.0,1.0,taxi_15s.jpg,0.0,Purple.png,6.0,99,,,,,,,,,,,,,,,,,
0.0,1.0,2.4186,0.0,32.0,32.0,32.0,1.0,toy_04s.jpg,0.0,Red.png,6.0,99,,,,,,,,,,,,,,,,,
0.0,1.0,2.3957,0.0,33.0,33.0,33.0,1.0,blowfish_03s.jpg,0.0,Orange.png,6.0,99,,,,,,,,,,,,,,,,,
0.0,1.0,2.3353,0.0,34.0,34.0,34.0,1.0,toilet_paper_12s.jpg,0.0,Yellow.png,6.0,99,,,,,,,,,,,,,,,,,
0.0,1.0,2.3111,0.0,35.0,35.0,35.0,1.0,puddle_02s.jpg,0.0,Green.png,6.0,99,,,,,,,,,,,,,,,,,
,,,,,,,,,1.0,,,99,1.0,1.0,2.3243,0.0,0.0,0.0,0.0,1.0,ink_08s.jpg,ginger_09s.jpg,,,,,,,
,,,,,,,,,0.0,,,99,1.0,0.0,0.4812,0.0,1.0,1.0,1.0,1.0,puddle_02s.jpg,toy_04s.jpg,,,,,,,
,,,,,,,,,0.0,,,99,1.0,0.0,0.5529,0.0,2.0,2.0,2.0,1.0,bottle_opener_11s.jpg,penlight_12s.jpg,,,,,,,
,,,,,,,,,0.0,,,99,1.0,0.0,0.5713,0.0,3.0,3.0,3.0,1.0,checkbook_11s.jpg,swan_11s.jpg,,,,,,,
,,,,,,,,,1.0,,,99,1.0,1.0,0.382,0.0,4.0,4.0,4.0,1.0,taxi_15s.jpg,toilet_paper_12s.jpg,,,,,,,
,,,,,,,,,1.0,,,99,1.0,1.0,0.3692,0.0,5.0,5.0,5.0,1.0,crayon_09s.jpg,soda_fountain_03s.jpg,,,,,,,
,,,,,,,,,,,,99,,,,,,,,,,,0.0,4.0,4.0,4.0,1.0,new2backpresent_5_4.xlsx,new2back_compare_task_5_4.xlsx
0.0,1.0,2.1645,0.0,0.0,0.0,0.0,1.0,flask_04s.jpg,0.0,Blue.png,1.0,99,,,,,,,,,,,,,,,,,
0.0,1.0,2.3028,0.0,1.0,1.0,1.0,1.0,kimono_13s.jpg,0.0,Purple.png,1.0,99,,,,,,,,,,,,,,,,,
0.0,1.0,2.4013,0.0,2.0,2.0,2.0,1.0,limousine_12s.jpg,0.0,Red.png,1.0,99,,,,,,,,,,,,,,,,,
0.0,1.0,2.3612,0.0,3.0,3.0,3.0,1.0,lectern_08s.jpg,0.0,Orange.png,1.0,99,,,,,,,,,,,,,,,,,
0.0,1.0,2.4488,0.0,4.0,4.0,4.0,1.0,kimono_13s.jpg,0.0,Yellow.png,1.0,99,,,,,,,,,,,,,,,,,
0.0,1.0,2.3783,0.0,5.0,5.0,5.0,1.0,doily_13s.jpg,0.0,Green.png,1.0,99,,,,,,,,,,,,,,,,,
0.0,0.0,2.2648,0.0,6.0,6.0,6.0,1.0,kimono_13s.jpg,1.0,Blue.png,2.0,99,,,,,,,,,,,,,,,,,
0.0,1.0,2.2528,0.0,7.0,7.0,7.0,1.0,razor_blade_01b.jpg,0.0,Purple.png,2.0,99,,,,,,,,,,,,,,,,,
0.0,1.0,2.3497,0.0,8.0,8.0,8.0,1.0,razor_blade_01b.jpg,0.0,Red.png,2.0,99,,,,,,,,,,,,,,,,,
0.0,1.0,2.1463,0.0,9.0,9.0,9.0,1.0,champagne_18s.jpg,0.0,Orange.png,2.0,99,,,,,,,,,,,,,,,,,
0.0,1.0,2.1664,0.0,10.0,10.0,10.0,1.0,stamp1_11s.jpg,0.0,Yellow.png,2.0,99,,,,,,,,,,,,,,,,,
0.0,0.0,2.2969,0.0,11.0,11.0,11.0,1.0,champagne_18s.jpg,1.0,Green.png,2.0,99,,,,,,,,,,,,,,,,,
0.0,1.0,2.1311,0.0,12.0,12.0,12.0,1.0,crossbow_10s.jpg,0.0,Blue.png,3.0,99,,,,,,,,,,,,,,,,,
0.0,1.0,2.404,0.0,13.0,13.0,13.0,1.0,briefcase_03s.jpg,0.0,Purple.png,3.0,99,,,,,,,,,,,,,,,,,
0.0,1.0,2.3618,0.0,14.0,14.0,14.0,1.0,jersey_02s.jpg,0.0,Red.png,3.0,99,,,,,,,,,,,,,,,,,
0.0,0.0,2.264,0.0,15.0,15.0,15.0,1.0,briefcase_03s.jpg,1.0,Orange.png,3.0,99,,,,,,,,,,,,,,,,,
0.0,1.0,2.184,0.0,16.0,16.0,16.0,1.0,oil_02s.jpg,0.0,Yellow.png,3.0,99,,,,,,,,,,,,,,,,,
0.0,1.0,2.3617,0.0,17.0,17.0,17.0,1.0,tinsel_12s.jpg,0.0,Green.png,3.0,99,,,,,,,,,,,,,,,,,
0.0,1.0,2.3431,0.0,18.0,18.0,18.0,1.0,flask_04s.jpg,0.0,Blue.png,4.0,99,,,,,,,,,,,,,,,,,
0.0,1.0,2.2977,0.0,19.0,19.0,19.0,1.0,fork_04s.jpg,0.0,Purple.png,4.0,99,,,,,,,,,,,,,,,,,
0.0,1.0,2.2433,0.0,20.0,20.0,20.0,1.0,purse_05s.jpg,0.0,Red.png,4.0,99,,,,,,,,,,,,,,,,,
0.0,1.0,2.3272,0.0,21.0,21.0,21.0,1.0,flask_04s.jpg,0.0,Orange.png,4.0,99,,,,,,,,,,,,,,,,,
0.0,1.0,2.3844,0.0,22.0,22.0,22.0,1.0,sledgehammer_03s.jpg,0.0,Yellow.png,4.0,99,,,,,,,,,,,,,,,,,
0.0,1.0,2.1789,0.0,23.0,23.0,23.0,1.0,turf_03s.jpg,0.0,Green.png,4.0,99,,,,,,,,,,,,,,,,,
0.0,1.0,2.2706,0.0,24.0,24.0,24.0,1.0,omelet_07s.jpg,0.0,Blue.png,5.0,99,,,,,,,,,,,,,,,,,
0.0,0.0,2.4591,0.0,25.0,25.0,25.0,1.0,turf_03s.jpg,1.0,Purple.png,5.0,99,,,,,,,,,,,,,,,,,
0.0,1.0,2.3488,0.0,26.0,26.0,26.0,1.0,clover_04s.jpg,0.0,Red.png,5.0,99,,,,,,,,,,,,,,,,,
0.0,1.0,2.444,0.0,27.0,27.0,27.0,1.0,lip_gloss_06s.jpg,0.0,Orange.png,5.0,99,,,,,,,,,,,,,,,,,
0.0,1.0,2.2095,0.0,28.0,28.0,28.0,1.0,amber_04s.jpg,0.0,Yellow.png,5.0,99,,,,,,,,,,,,,,,,,
0.0,1.0,2.3787,0.0,29.0,29.0,29.0,1.0,tortilla_06s.jpg,0.0,Green.png,5.0,99,,,,,,,,,,,,,,,,,
0.0,1.0,2.3897,0.0,30.0,30.0,30.0,1.0,razor_blade_01b.jpg,0.0,Blue.png,6.0,99,,,,,,,,,,,,,,,,,
0.0,1.0,2.2779,0.0,31.0,31.0,31.0,1.0,tape_measure_11s.jpg,0.0,Purple.png,6.0,99,,,,,,,,,,,,,,,,,
0.0,0.0,2.0167,0.0,32.0,32.0,32.0,1.0,razor_blade_01b.jpg,1.0,Red.png,6.0,99,,,,,,,,,,,,,,,,,
0.0,1.0,2.448,0.0,33.0,33.0,33.0,1.0,razor_blade_01b.jpg,0.0,Orange.png,6.0,99,,,,,,,,,,,,,,,,,
0.0,1.0,2.3167,0.0,34.0,34.0,34.0,1.0,stingray_02s.jpg,0.0,Yellow.png,6.0,99,,,,,,,,,,,,,,,,,
0.0,1.0,2.4324,0.0,35.0,35.0,35.0,1.0,harpoon.jpg,0.0,Green.png,6.0,99,,,,,,,,,,,,,,,,,
,,,,,,,,,1.0,,,99,1.0,1.0,0.6453,0.0,0.0,0.0,0.0,1.0,oil_02s.jpg,fork_04s.jpg,,,,,,,
,,,,,,,,,0.0,,,99,1.0,0.0,0.1354,0.0,1.0,1.0,1.0,1.0,doily_13s.jpg,limousine_12s.jpg,,,,,,,
,,,,,,,,,0.0,,,99,1.0,0.0,0.1318,0.0,2.0,2.0,2.0,1.0,lip_gloss_06s.jpg,omelet_07s.jpg,,,,,,,
,,,,,,,,,0.0,,,99,1.0,0.0,0.2008,0.0,3.0,3.0,3.0,1.0,tape_measure_11s.jpg,amber_04s.jpg,,,,,,,
,,,,,,,,,0.0,,,99,1.0,0.0,0.2044,0.0,4.0,4.0,4.0,1.0,tortilla_06s.jpg,clover_04s.jpg,,,,,,,
,,,,,,,,,0.0,,,99,1.0,0.0,0.1835,0.0,5.0,5.0,5.0,1.0,purse_05s.jpg,tinsel_12s.jpg,,,,,,,
,,,,,,,,,,,,99,,,,,,,,,,,0.0,5.0,5.0,5.0,1.0,new2backpresent_6_4.xlsx,new2back_compare_task_6_4.xlsx
,0.0,,0.0,0.0,0.0,0.0,1.0,butter_14s.jpg,0.0,Blue.png,1.0,99,,,,,,,,,,,,,,,,,
0.0,1.0,2.3893,0.0,1.0,1.0,1.0,1.0,butter_14s.jpg,0.0,Purple.png,1.0,99,,,,,,,,,,,,,,,,,
0.0,0.0,2.0132,0.0,2.0,2.0,2.0,1.0,butter_14s.jpg,1.0,Red.png,1.0,99,,,,,,,,,,,,,,,,,
0.0,1.0,2.4329,0.0,3.0,3.0,3.0,1.0,stamp2_08s.jpg,0.0,Orange.png,1.0,99,,,,,,,,,,,,,,,,,
0.0,1.0,2.4602,0.0,4.0,4.0,4.0,1.0,kangaroo_02s.jpg,0.0,Yellow.png,1.0,99,,,,,,,,,,,,,,,,,
0.0,1.0,2.2349,0.0,5.0,5.0,5.0,1.0,camcorder_10s.jpg,0.0,Green.png,1.0,99,,,,,,,,,,,,,,,,,
0.0,1.0,2.3695,0.0,6.0,6.0,6.0,1.0,bank_06s.jpg,0.0,Blue.png,2.0,99,,,,,,,,,,,,,,,,,
0.0,1.0,2.2972,0.0,7.0,7.0,7.0,1.0,gear_07s.jpg,0.0,Purple.png,2.0,99,,,,,,,,,,,,,,,,,
0.0,0.0,2.1615,0.0,8.0,8.0,8.0,1.0,bank_06s.jpg,1.0,Red.png,2.0,99,,,,,,,,,,,,,,,,,
0.0,1.0,2.3914,0.0,9.0,9.0,9.0,1.0,funnel_01b.jpg,0.0,Orange.png,2.0,99,,,,,,,,,,,,,,,,,
0.0,1.0,2.334,0.0,10.0,10.0,10.0,1.0,poinsettia_04s.jpg,0.0,Yellow.png,2.0,99,,,,,,,,,,,,,,,,,
0.0,0.0,2.162,0.0,11.0,11.0,11.0,1.0,funnel_01b.jpg,1.0,Green.png,2.0,99,,,,,,,,,,,,,,,,,
0.0,1.0,2.2461,0.0,12.0,12.0,12.0,1.0,rooster_03s.jpg,0.0,Blue.png,3.0,99,,,,,,,,,,,,,,,,,
0.0,1.0,2.2975,0.0,13.0,13.0,13.0,1.0,denture_03s.jpg,0.0,Purple.png,3.0,99,,,,,,,,,,,,,,,,,
0.0,1.0,2.0956,0.0,14.0,14.0,14.0,1.0,bean_06s.jpg,0.0,Red.png,3.0,99,,,,,,,,,,,,,,,,,
0.0,1.0,2.3384,0.0,15.0,15.0,15.0,1.0,mud_13s.jpg,0.0,Orange.png,3.0,99,,,,,,,,,,,,,,,,,
0.0,1.0,2.2666,0.0,16.0,16.0,16.0,1.0,keyhole_03s.jpg,0.0,Yellow.png,3.0,99,,,,,,,,,,,,,,,,,
0.0,1.0,2.2668,0.0,17.0,17.0,17.0,1.0,bean_06s.jpg,0.0,Green.png,3.0,99,,,,,,,,,,,,,,,,,
0.0,1.0,2.3452,0.0,18.0,18.0,18.0,1.0,bank_06s.jpg,0.0,Blue.png,4.0,99,,,,,,,,,,,,,,,,,
0.0,1.0,2.3123,0.0,19.0,19.0,19.0,1.0,pomegranate_04s.jpg,0.0,Purple.png,4.0,99,,,,,,,,,,,,,,,,,
0.0,1.0,2.3977,0.0,20.0,20.0,20.0,1.0,chopsticks_08s.jpg,0.0,Red.png,4.0,99,,,,,,,,,,,,,,,,,
0.0,1.0,2.3311,0.0,21.0,21.0,21.0,1.0,contact_lens_15s.jpg,0.0,Orange.png,4.0,99,,,,,,,,,,,,,,,,,
0.0,1.0,2.145,0.0,22.0,22.0,22.0,1.0,hydrant_10s.jpg,0.0,Yellow.png,4.0,99,,,,,,,,,,,,,,,,,
0.0,1.0,2.3959,0.0,23.0,23.0,23.0,1.0,gingerbread_man_03s.jpg,0.0,Green.png,4.0,99,,,,,,,,,,,,,,,,,
0.0,1.0,2.2939,0.0,24.0,24.0,24.0,1.0,camcorder_10s.jpg,0.0,Blue.png,5.0,99,,,,,,,,,,,,,,,,,
0.0,1.0,2.3992,0.0,25.0,25.0,25.0,1.0,teabag_12s.jpg,0.0,Purple.png,5.0,99,,,,,,,,,,,,,,,,,
0.0,1.0,2.2457,0.0,26.0,26.0,26.0,1.0,radiator_05s.jpg,0.0,Red.png,5.0,99,,,,,,,,,,,,,,,,,
0.0,1.0,2.2754,0.0,27.0,27.0,27.0,1.0,punch1_10s.jpg,0.0,Orange.png,5.0,99,,,,,,,,,,,,,,,,,
0.0,1.0,2.3762,0.0,28.0,28.0,28.0,1.0,mailbox_11s.jpg,0.0,Yellow.png,5.0,99,,,,,,,,,,,,,,,,,
0.0,1.0,1.2104,0.0,29.0,29.0,29.0,1.0,beaker_01b.jpg,0.0,Green.png,5.0,99,,,,,,,,,,,,,,,,,
0.0,0.0,2.4027,0.0,30.0,30.0,30.0,1.0,mailbox_11s.jpg,1.0,Blue.png,6.0,99,,,,,,,,,,,,,,,,,
0.0,1.0,2.2964,0.0,31.0,31.0,31.0,1.0,pipe1_10s.jpg,0.0,Purple.png,6.0,99,,,,,,,,,,,,,,,,,
0.0,0.0,2.3647,0.0,32.0,32.0,32.0,1.0,mailbox_11s.jpg,1.0,Red.png,6.0,99,,,,,,,,,,,,,,,,,
0.0,0.0,2.3116,0.0,33.0,33.0,33.0,1.0,pipe1_10s.jpg,1.0,Orange.png,6.0,99,,,,,,,,,,,,,,,,,
0.0,1.0,2.1805,0.0,34.0,34.0,34.0,1.0,eyedropper_12s.jpg,0.0,Yellow.png,6.0,99,,,,,,,,,,,,,,,,,
0.0,1.0,2.1787,0.0,35.0,35.0,35.0,1.0,rhubarb_03s.jpg,0.0,Green.png,6.0,99,,,,,,,,,,,,,,,,,
,,,,,,,,,0.0,,,99,1.0,0.0,1.3271,0.0,0.0,0.0,0.0,1.0,mud_13s.jpg,rooster_03s.jpg,,,,,,,
,,,,,,,,,1.0,,,99,1.0,1.0,0.6696,0.0,1.0,1.0,1.0,1.0,chopsticks_08s.jpg,gingerbread_man_03s.jpg,,,,,,,
,,,,,,,,,0.0,,,99,1.0,0.0,0.5311,0.0,2.0,2.0,2.0,1.0,beaker_01b.jpg,radiator_05s.jpg,,,,,,,
,,,,,,,,,0.0,,,99,1.0,0.0,0.5323,0.0,3.0,3.0,3.0,1.0,teabag_12s.jpg,hydrant_10s.jpg,,,,,,,
,,,,,,,,,0.0,,,99,1.0,0.0,0.5004,0.0,4.0,4.0,4.0,1.0,denture_03s.jpg,poinsettia_04s.jpg,,,,,,,
,,,,,,,,,1.0,,,99,1.0,1.0,0.3377,0.0,5.0,5.0,5.0,1.0,kangaroo_02s.jpg,gear_07s.jpg,,,,,,,
,,,,,,,,,,,,99,,,,,,,,,,,0.0,6.0,6.0,6.0,1.0,new2backpresent_7_4.xlsx,new2back_compare_task_7_4.xlsx
0.0,1.0,2.1917,0.0,0.0,0.0,0.0,1.0,lamppost_09s.jpg,0.0,Blue.png,1.0,99,,,,,,,,,,,,,,,,,
0.0,1.0,2.218,0.0,1.0,1.0,1.0,1.0,jewel_01b.jpg,0.0,Purple.png,1.0,99,,,,,,,,,,,,,,,,,
0.0,1.0,2.449,0.0,2.0,2.0,2.0,1.0,tuxedo_01b.jpg,0.0,Red.png,1.0,99,,,,,,,,,,,,,,,,,
0.0,1.0,2.1606,0.0,3.0,3.0,3.0,1.0,flip_flop_03s.jpg,0.0,Orange.png,1.0,99,,,,,,,,,,,,,,,,,
0.0,1.0,2.4136,0.0,4.0,4.0,4.0,1.0,medal_04s.jpg,0.0,Yellow.png,1.0,99,,,,,,,,,,,,,,,,,
0.0,0.0,2.2885,0.0,5.0,5.0,5.0,1.0,flip_flop_03s.jpg,1.0,Green.png,1.0,99,,,,,,,,,,,,,,,,,
0.0,1.0,1.7633,0.0,6.0,6.0,6.0,1.0,tuxedo_01b.jpg,0.0,Blue.png,2.0,99,,,,,,,,,,,,,,,,,
0.0,0.0,2.3465,0.0,7.0,7.0,7.0,1.0,flip_flop_03s.jpg,1.0,Purple.png,2.0,99,,,,,,,,,,,,,,,,,
0.0,1.0,2.3319,0.0,8.0,8.0,8.0,1.0,fireworks_18s.jpg,0.0,Red.png,2.0,99,,,,,,,,,,,,,,,,,
0.0,1.0,1.4964,0.0,9.0,9.0,9.0,1.0,squirt_gun_03s.jpg,0.0,Orange.png,2.0,99,,,,,,,,,,,,,,,,,
0.0,1.0,2.2687,0.0,10.0,10.0,10.0,1.0,flip_flop_03s.jpg,0.0,Yellow.png,2.0,99,,,,,,,,,,,,,,,,,
0.0,1.0,1.9462,0.0,11.0,11.0,11.0,1.0,puffin_19s.jpg,0.0,Green.png,2.0,99,,,,,,,,,,,,,,,,,
0.0,1.0,2.2157,0.0,12.0,12.0,12.0,1.0,tuxedo_01b.jpg,0.0,Blue.png,3.0,99,,,,,,,,,,,,,,,,,
0.0,1.0,2.1931,0.0,13.0,13.0,13.0,1.0,tuxedo_01b.jpg,0.0,Purple.png,3.0,99,,,,,,,,,,,,,,,,,
0.0,1.0,1.7988,0.0,14.0,14.0,14.0,1.0,snowman_02s.jpg,0.0,Red.png,3.0,99,,,,,,,,,,,,,,,,,
0.0,1.0,1.6977,0.0,15.0,15.0,15.0,1.0,cucumber_07s.jpg,0.0,Orange.png,3.0,99,,,,,,,,,,,,,,,,,
0.0,1.0,2.2623,0.0,16.0,16.0,16.0,1.0,plug_08s.jpg,0.0,Yellow.png,3.0,99,,,,,,,,,,,,,,,,,
0.0,0.0,2.078,0.0,17.0,17.0,17.0,1.0,cucumber_07s.jpg,1.0,Green.png,3.0,99,,,,,,,,,,,,,,,,,
0.0,1.0,2.0986,0.0,18.0,18.0,18.0,1.0,puffin_19s.jpg,0.0,Blue.png,4.0,99,,,,,,,,,,,,,,,,,
0.0,1.0,2.3747,0.0,19.0,19.0,19.0,1.0,fondue_07s.jpg,0.0,Purple.png,4.0,99,,,,,,,,,,,,,,,,,
0.0,1.0,2.2905,0.0,20.0,20.0,20.0,1.0,lasagna_06s.jpg,0.0,Red.png,4.0,99,,,,,,,,,,,,,,,,,
0.0,1.0,2.1269,0.0,21.0,21.0,21.0,1.0,eiffeltower.jpg,0.0,Orange.png,4.0,99,,,,,,,,,,,,,,,,,
0.0,1.0,2.2298,0.0,22.0,22.0,22.0,1.0,outlet_10s.jpg,0.0,Yellow.png,4.0,99,,,,,,,,,,,,,,,,,
0.0,1.0,1.3443,0.0,23.0,23.0,23.0,1.0,cape_11s.jpg,0.0,Green.png,4.0,99,,,,,,,,,,,,,,,,,
0.0,1.0,1.8644,0.0,24.0,24.0,24.0,1.0,marshmallow_08s.jpg,0.0,Blue.png,5.0,99,,,,,,,,,,,,,,,,,
0.0,1.0,0.0615,0.0,25.0,25.0,25.0,1.0,racehorse_03s.jpg,0.0,Purple.png,5.0,99,,,,,,,,,,,,,,,,,
0.0,1.0,0.7771,0.0,26.0,26.0,26.0,1.0,aluminum_foil_08s.jpg,0.0,Red.png,5.0,99,,,,,,,,,,,,,,,,,
0.0,1.0,0.7125,0.0,27.0,27.0,27.0,1.0,spoon02a.jpg,0.0,Orange.png,5.0,99,,,,,,,,,,,,,,,,,
0.0,1.0,0.7038,0.0,28.0,28.0,28.0,1.0,padlock_07s.jpg,0.0,Yellow.png,5.0,99,,,,,,,,,,,,,,,,,
0.0,1.0,1.7821,0.0,29.0,29.0,29.0,1.0,solar_panel_02s.jpg,0.0,Green.png,5.0,99,,,,,,,,,,,,,,,,,
0.0,1.0,1.5589,0.0,30.0,30.0,30.0,1.0,turtleneck_11s.jpg,0.0,Blue.png,6.0,99,,,,,,,,,,,,,,,,,
0.0,1.0,0.7917,0.0,31.0,31.0,31.0,1.0,pocketknife_12s.jpg,0.0,Purple.png,6.0,99,,,,,,,,,,,,,,,,,
0.0,1.0,2.0253,0.0,32.0,32.0,32.0,1.0,pocketknife_12s.jpg,0.0,Red.png,6.0,99,,,,,,,,,,,,,,,,,
0.0,1.0,2.26,0.0,33.0,33.0,33.0,1.0,quill_09s.jpg,0.0,Orange.png,6.0,99,,,,,,,,,,,,,,,,,
0.0,1.0,2.0752,0.0,34.0,34.0,34.0,1.0,quill_09s.jpg,0.0,Yellow.png,6.0,99,,,,,,,,,,,,,,,,,
0.0,1.0,2.2128,0.0,35.0,35.0,35.0,1.0,pocketknife_12s.jpg,0.0,Green.png,6.0,99,,,,,,,,,,,,,,,,,
,,,,,,,,,0.0,,,99,1.0,0.0,0.5826,0.0,0.0,0.0,0.0,1.0,cape_11s.jpg,lasagna_06s.jpg,,,,,,,
,,,,,,,,,0.0,,,99,1.0,0.0,0.2827,0.0,1.0,1.0,1.0,1.0,padlock_07s.jpg,racehorse_03s.jpg,,,,,,,
,,,,,,,,,1.0,,,99,1.0,1.0,0.3029,0.0,2.0,2.0,2.0,1.0,spoon02a.jpg,turtleneck_11s.jpg,,,,,,,
,,,,,,,,,0.0,,,99,1.0,0.0,0.2319,0.0,3.0,3.0,3.0,1.0,marshmallow_08s.jpg,eiffeltower.jpg,,,,,,,
,,,,,,,,,0.0,,,99,1.0,0.0,0.1486,0.0,4.0,4.0,4.0,1.0,medal_04s.jpg,jewel_01b.jpg,,,,,,,
,,,,,,,,,1.0,,,99,1.0,1.0,0.1152,0.0,5.0,5.0,5.0,1.0,plug_08s.jpg,fondue_07s.jpg,,,,,,,
,,,,,,,,,,,,99,,,,,,,,,,,0.0,7.0,7.0,7.0,1.0,new2backpresent_8_4.xlsx,new2back_compare_task_8_4.xlsx
,0.0,,0.0,0.0,0.0,0.0,1.0,footprint_11s.jpg,0.0,Blue.png,1.0,99,,,,,,,,,,,,,,,,,
0.0,1.0,2.1748,0.0,1.0,1.0,1.0,1.0,coffee_filter_10s.jpg,0.0,Purple.png,1.0,99,,,,,,,,,,,,,,,,,
0.0,1.0,2.4083,0.0,2.0,2.0,2.0,1.0,coffee_filter_10s.jpg,0.0,Red.png,1.0,99,,,,,,,,,,,,,,,,,
0.0,0.0,2.4008,0.0,3.0,3.0,3.0,1.0,coffee_filter_10s.jpg,1.0,Orange.png,1.0,99,,,,,,,,,,,,,,,,,
0.0,0.0,2.4128,0.0,4.0,4.0,4.0,1.0,coffee_filter_10s.jpg,1.0,Yellow.png,1.0,99,,,,,,,,,,,,,,,,,
0.0,1.0,2.3144,0.0,5.0,5.0,5.0,1.0,gargoyle_08s.jpg,0.0,Green.png,1.0,99,,,,,,,,,,,,,,,,,
0.0,1.0,2.231,0.0,6.0,6.0,6.0,1.0,candy_cane_06s.jpg,0.0,Blue.png,2.0,99,,,,,,,,,,,,,,,,,
0.0,1.0,2.2305,0.0,7.0,7.0,7.0,1.0,toad_09s.jpg,0.0,Purple.png,2.0,99,,,,,,,,,,,,,,,,,
0.0,0.0,2.0813,0.0,8.0,8.0,8.0,1.0,candy_cane_06s.jpg,1.0,Red.png,2.0,99,,,,,,,,,,,,,,,,,
0.0,1.0,2.1491,0.0,9.0,9.0,9.0,1.0,pumpkin_03s.jpg,0.0,Orange.png,2.0,99,,,,,,,,,,,,,,,,,
0.0,1.0,2.0666,0.0,10.0,10.0,10.0,1.0,dashboard_02s.jpg,0.0,Yellow.png,2.0,99,,,,,,,,,,,,,,,,,
0.0,1.0,2.2483,0.0,11.0,11.0,11.0,1.0,syringe_02s.jpg,0.0,Green.png,2.0,99,,,,,,,,,,,,,,,,,
0.0,1.0,2.4345,0.0,12.0,12.0,12.0,1.0,powder_07s.jpg,0.0,Blue.png,3.0,99,,,,,,,,,,,,,,,,,
0.0,1.0,2.3468,0.0,13.0,13.0,13.0,1.0,powder_07s.jpg,0.0,Purple.png,3.0,99,,,,,,,,,,,,,,,,,
0.0,0.0,2.2618,0.0,14.0,14.0,14.0,1.0,powder_07s.jpg,1.0,Red.png,3.0,99,,,,,,,,,,,,,,,,,
0.0,1.0,2.4119,0.0,15.0,15.0,15.0,1.0,sea_urchin_09s.jpg,0.0,Orange.png,3.0,99,,,,,,,,,,,,,,,,,
0.0,1.0,2.1512,0.0,16.0,16.0,16.0,1.0,throne_11s.jpg,0.0,Yellow.png,3.0,99,,,,,,,,,,,,,,,,,
0.0,1.0,2.4335,0.0,17.0,17.0,17.0,1.0,powder_07s.jpg,0.0,Green.png,3.0,99,,,,,,,,,,,,,,,,,
0.0,1.0,2.2725,0.0,18.0,18.0,18.0,1.0,chalice_10s.jpg,0.0,Blue.png,4.0,99,,,,,,,,,,,,,,,,,
0.0,1.0,2.131,0.0,19.0,19.0,19.0,1.0,air_pump_05s.jpg,0.0,Purple.png,4.0,99,,,,,,,,,,,,,,,,,
0.0,1.0,2.1769,0.0,20.0,20.0,20.0,1.0,microwave_02s.jpg,0.0,Red.png,4.0,99,,,,,,,,,,,,,,,,,
0.0,1.0,2.313,0.0,21.0,21.0,21.0,1.0,cereal_04s.jpg,0.0,Orange.png,4.0,99,,,,,,,,,,,,,,,,,
0.0,1.0,2.2692,0.0,22.0,22.0,22.0,1.0,mushroom_10n.jpg,0.0,Yellow.png,4.0,99,,,,,,,,,,,,,,,,,
0.0,1.0,2.1629,0.0,23.0,23.0,23.0,1.0,red_carpet_03s.jpg,0.0,Green.png,4.0,99,,,,,,,,,,,,,,,,,
0.0,1.0,2.2238,0.0,24.0,24.0,24.0,1.0,throne_11s.jpg,0.0,Blue.png,5.0,99,,,,,,,,,,,,,,,,,
0.0,1.0,2.2424,0.0,25.0,25.0,25.0,1.0,koala_13s.jpg,0.0,Purple.png,5.0,99,,,,,,,,,,,,,,,,,
0.0,0.0,2.4659,0.0,26.0,26.0,26.0,1.0,throne_11s.jpg,1.0,Red.png,5.0,99,,,,,,,,,,,,,,,,,
0.0,1.0,2.3797,0.0,27.0,27.0,27.0,1.0,rocket_02s.jpg,0.0,Orange.png,5.0,99,,,,,,,,,,,,,,,,,
0.0,1.0,2.3973,0.0,28.0,28.0,28.0,1.0,swordfish_05s.jpg,0.0,Yellow.png,5.0,99,,,,,,,,,,,,,,,,,
0.0,0.0,2.4323,0.0,29.0,29.0,29.0,1.0,rocket_02s.jpg,1.0,Green.png,5.0,99,,,,,,,,,,,,,,,,,
0.0,1.0,2.4176,0.0,30.0,30.0,30.0,1.0,icicle_04s.jpg,0.0,Blue.png,6.0,99,,,,,,,,,,,,,,,,,
0.0,1.0,2.1172,0.0,31.0,31.0,31.0,1.0,keyboard_05s.jpg,0.0,Purple.png,6.0,99,,,,,,,,,,,,,,,,,
0.0,1.0,2.3498,0.0,32.0,32.0,32.0,1.0,pocket_watch_16s.jpg,0.0,Red.png,6.0,99,,,,,,,,,,,,,,,,,
0.0,1.0,2.1787,0.0,33.0,33.0,33.0,1.0,tablet_04s.jpg,0.0,Orange.png,6.0,99,,,,,,,,,,,,,,,,,
0.0,1.0,2.3622,0.0,34.0,34.0,34.0,1.0,chocolate_01b.jpg,0.0,Yellow.png,6.0,99,,,,,,,,,,,,,,,,,
0.0,1.0,2.1762,0.0,35.0,35.0,35.0,1.0,light_switch_02s.jpg,0.0,Green.png,6.0,99,,,,,,,,,,,,,,,,,
,,,,,,,,,0.0,,,99,1.0,0.0,0.7129,0.0,0.0,0.0,0.0,1.0,chalice_10s.jpg,sea_urchin_09s.jpg,,,,,,,
,,,,,,,,,1.0,,,99,1.0,1.0,0.2401,0.0,1.0,1.0,1.0,1.0,swordfish_05s.jpg,keyboard_05s.jpg,,,,,,,
,,,,,,,,,0.0,,,99,1.0,0.0,0.2837,0.0,2.0,2.0,2.0,1.0,red_carpet_03s.jpg,microwave_02s.jpg,,,,,,,
,,,,,,,,,0.0,,,99,1.0,0.0,0.3508,0.0,3.0,3.0,3.0,1.0,dashboard_02s.jpg,toad_09s.jpg,,,,,,,
,,,,,,,,,0.0,,,99,1.0,0.0,0.0989,0.0,4.0,4.0,4.0,1.0,koala_13s.jpg,mushroom_10n.jpg,,,,,,,
,,,,,,,,,1.0,,,99,1.0,1.0,0.3669,0.0,5.0,5.0,5.0,1.0,icicle_04s.jpg,tablet_04s.jpg,,,,,,,
,,,,,,,,,,,,99,,,,,,,,,,,0.0,8.0,8.0,8.0,1.0,new2backpresent_9_4.xlsx,new2back_compare_task_9_4.xlsx
