key_resp.keys,key_resp.corr,key_resp.rt,present_segment.thisRepN,present_segment.thisTrialN,present_segment.thisN,present_segment.thisIndex,present_segment.ran,pictures,answer,clock,segment,participant,key_resp_2.keys,key_resp_2.corr,key_resp_2.rt,compare_segment.thisRepN,compare_segment.thisTrialN,compare_segment.thisN,compare_segment.thisIndex,compare_segment.ran,item_a,item_b,clock_conditions.thisRepN,clock_conditions.thisTrialN,clock_conditions.thisN,clock_conditions.thisIndex,clock_conditions.ran,present,compare
0.0,1.0,0.960545,0.0,0.0,0.0,0.0,1.0,insole_11s.jpg,0.0,Blue.png,1.0,1,,,,,,,,,,,,,,,,,
0.0,1.0,0.645605,0.0,1.0,1.0,1.0,1.0,tupperware_09s.jpg,0.0,Purple.png,1.0,1,,,,,,,,,,,,,,,,,
0.0,1.0,0.77103,0.0,2.0,2.0,2.0,1.0,tupperware_09s.jpg,0.0,Red.png,1.0,1,,,,,,,,,,,,,,,,,
0.0,1.0,0.62689,0.0,3.0,3.0,3.0,1.0,fox_13s.jpg,0.0,Orange.png,1.0,1,,,,,,,,,,,,,,,,,
1.0,1.0,0.651865,0.0,4.0,4.0,4.0,1.0,tupperware_09s.jpg,1.0,Yellow.png,1.0,1,,,,,,,,,,,,,,,,,
0.0,1.0,0.585725,0.0,5.0,5.0,5.0,1.0,lavender_10s.jpg,0.0,Green.png,1.0,1,,,,,,,,,,,,,,,,,
0.0,0.0,1.01029,0.0,6.0,6.0,6.0,1.0,tupperware_09s.jpg,1.0,Blue.png,2.0,1,,,,,,,,,,,,,,,,,
0.0,1.0,0.68525,0.0,7.0,7.0,7.0,1.0,poinsettia_04s.jpg,0.0,Purple.png,2.0,1,,,,,,,,,,,,,,,,,
0.0,1.0,0.552265,0.0,8.0,8.0,8.0,1.0,margarita_03s.jpg,0.0,Red.png,2.0,1,,,,,,,,,,,,,,,,,
0.0,1.0,0.620385,0.0,9.0,9.0,9.0,1.0,toothpaste_12s.jpg,0.0,Orange.png,2.0,1,,,,,,,,,,,,,,,,,
0.0,1.0,0.569905,0.0,10.0,10.0,10.0,1.0,ladder_15s.jpg,0.0,Yellow.png,2.0,1,,,,,,,,,,,,,,,,,
0.0,1.0,0.56445,0.0,11.0,11.0,11.0,1.0,pocketknife_12s.jpg,0.0,Green.png,2.0,1,,,,,,,,,,,,,,,,,
0.0,1.0,0.499565,0.0,12.0,12.0,12.0,1.0,spoon02a.jpg,0.0,Blue.png,3.0,1,,,,,,,,,,,,,,,,,
0.0,1.0,0.532675,0.0,13.0,13.0,13.0,1.0,mango_09s.jpg,0.0,Purple.png,3.0,1,,,,,,,,,,,,,,,,,
0.0,1.0,0.673905,0.0,14.0,14.0,14.0,1.0,chalice_10s.jpg,0.0,Red.png,3.0,1,,,,,,,,,,,,,,,,,
1.0,0.0,0.887475,0.0,15.0,15.0,15.0,1.0,pocketknife_12s.jpg,0.0,Orange.png,3.0,1,,,,,,,,,,,,,,,,,
0.0,1.0,0.558795,0.0,16.0,16.0,16.0,1.0,abacus_12s.jpg,0.0,Yellow.png,3.0,1,,,,,,,,,,,,,,,,,
0.0,1.0,0.78705,0.0,17.0,17.0,17.0,1.0,abacus_12s.jpg,0.0,Green.png,3.0,1,,,,,,,,,,,,,,,,,
1.0,1.0,0.8167,0.0,18.0,18.0,18.0,1.0,abacus_12s.jpg,1.0,Blue.png,4.0,1,,,,,,,,,,,,,,,,,
1.0,1.0,1.68258,0.0,19.0,19.0,19.0,1.0,abacus_12s.jpg,1.0,Purple.png,4.0,1,,,,,,,,,,,,,,,,,
0.0,1.0,0.64802,0.0,20.0,20.0,20.0,1.0,sushi_08s.jpg,0.0,Red.png,4.0,1,,,,,,,,,,,,,,,,,
0.0,1.0,0.531655,0.0,21.0,21.0,21.0,1.0,funnel_01b.jpg,0.0,Orange.png,4.0,1,,,,,,,,,,,,,,,,,
0.0,1.0,0.684785,0.0,22.0,22.0,22.0,1.0,rooster_03s.jpg,0.0,Yellow.png,4.0,1,,,,,,,,,,,,,,,,,
0.0,1.0,1.085345,0.0,23.0,23.0,23.0,1.0,ukulele_02s.jpg,0.0,Green.png,4.0,1,,,,,,,,,,,,,,,,,
0.0,1.0,0.854325,0.0,24.0,24.0,24.0,1.0,pocketknife_12s.jpg,0.0,Blue.png,5.0,1,,,,,,,,,,,,,,,,,
1.0,0.0,0.945185,0.0,25.0,25.0,25.0,1.0,pocketknife_12s.jpg,0.0,Purple.png,5.0,1,,,,,,,,,,,,,,,,,
0.0,0.0,1.49227,0.0,26.0,26.0,26.0,1.0,pocketknife_12s.jpg,1.0,Red.png,5.0,1,,,,,,,,,,,,,,,,,
0.0,1.0,0.58444,0.0,27.0,27.0,27.0,1.0,stapler_01b.jpg,0.0,Orange.png,5.0,1,,,,,,,,,,,,,,,,,
0.0,1.0,0.63697,0.0,28.0,28.0,28.0,1.0,birthday_cake_09s.jpg,0.0,Yellow.png,5.0,1,,,,,,,,,,,,,,,,,
0.0,1.0,0.52109,0.0,29.0,29.0,29.0,1.0,meatball_13s.jpg,0.0,Green.png,5.0,1,,,,,,,,,,,,,,,,,
0.0,1.0,0.62604,0.0,30.0,30.0,30.0,1.0,cape_11s.jpg,0.0,Blue.png,6.0,1,,,,,,,,,,,,,,,,,
0.0,1.0,0.72238,0.0,31.0,31.0,31.0,1.0,cape_11s.jpg,0.0,Purple.png,6.0,1,,,,,,,,,,,,,,,,,
0.0,1.0,0.64138,0.0,32.0,32.0,32.0,1.0,lizard_10n.jpg,0.0,Red.png,6.0,1,,,,,,,,,,,,,,,,,
0.0,1.0,0.664335,0.0,33.0,33.0,33.0,1.0,refrigerator_07s.jpg,0.0,Orange.png,6.0,1,,,,,,,,,,,,,,,,,
0.0,1.0,0.780985,0.0,34.0,34.0,34.0,1.0,refrigerator_07s.jpg,0.0,Yellow.png,6.0,1,,,,,,,,,,,,,,,,,
0.0,1.0,0.804375,0.0,35.0,35.0,35.0,1.0,touchpad_11s.jpg,0.0,Green.png,6.0,1,,,,,,,,,,,,,,,,,
,,,,,,,,,1.0,,,1,1.0,1.0,1.48223,0.0,0.0,0.0,0.0,1.0,lavender_10s.jpg,margarita_03s.jpg,,,,,,,
,,,,,,,,,1.0,,,1,1.0,1.0,2.14166,0.0,1.0,1.0,1.0,1.0,toothpaste_12s.jpg,spoon02a.jpg,,,,,,,
,,,,,,,,,1.0,,,1,0.0,0.0,2.469505,0.0,2.0,2.0,2.0,1.0,ladder_15s.jpg,mango_09s.jpg,,,,,,,
,,,,,,,,,0.0,,,1,0.0,1.0,1.644765,0.0,3.0,3.0,3.0,1.0,fox_13s.jpg,insole_11s.jpg,,,,,,,
,,,,,,,,,0.0,,,1,1.0,0.0,1.9482,0.0,4.0,4.0,4.0,1.0,ukulele_02s.jpg,sushi_08s.jpg,,,,,,,
,,,,,,,,,0.0,,,1,1.0,0.0,1.838005,0.0,5.0,5.0,5.0,1.0,touchpad_11s.jpg,lizard_10n.jpg,,,,,,,
,,,,,,,,,,,,1,,,,,,,,,,,0.0,0.0,0.0,0.0,1.0,new2backpresent_1_2.xlsx,new2back_compare_task_1_2.xlsx
0.0,1.0,1.233905,0.0,0.0,0.0,0.0,1.0,juicer2_06s.jpg,0.0,Blue.png,1.0,1,,,,,,,,,,,,,,,,,
0.0,1.0,0.73908,0.0,1.0,1.0,1.0,1.0,juicer2_06s.jpg,0.0,Purple.png,1.0,1,,,,,,,,,,,,,,,,,
0.0,1.0,1.03059,0.0,2.0,2.0,2.0,1.0,tambourine_06s.jpg,0.0,Red.png,1.0,1,,,,,,,,,,,,,,,,,
0.0,1.0,0.67199,0.0,3.0,3.0,3.0,1.0,luggage_08s.jpg,0.0,Orange.png,1.0,1,,,,,,,,,,,,,,,,,
1.0,1.0,1.11886,0.0,4.0,4.0,4.0,1.0,tambourine_06s.jpg,1.0,Yellow.png,1.0,1,,,,,,,,,,,,,,,,,
0.0,1.0,0.65878,0.0,5.0,5.0,5.0,1.0,towel_rack_04s.jpg,0.0,Green.png,1.0,1,,,,,,,,,,,,,,,,,
0.0,1.0,0.579515,0.0,6.0,6.0,6.0,1.0,crayon_09s.jpg,0.0,Blue.png,2.0,1,,,,,,,,,,,,,,,,,
0.0,1.0,0.901305,0.0,7.0,7.0,7.0,1.0,gargoyle_08s.jpg,0.0,Purple.png,2.0,1,,,,,,,,,,,,,,,,,
0.0,1.0,0.5707,0.0,8.0,8.0,8.0,1.0,boar_10s.jpg,0.0,Red.png,2.0,1,,,,,,,,,,,,,,,,,
1.0,1.0,0.518085,0.0,9.0,9.0,9.0,1.0,gargoyle_08s.jpg,1.0,Orange.png,2.0,1,,,,,,,,,,,,,,,,,
0.0,1.0,1.05835,0.0,10.0,10.0,10.0,1.0,limousine_12s.jpg,0.0,Yellow.png,2.0,1,,,,,,,,,,,,,,,,,
0.0,1.0,0.55122,0.0,11.0,11.0,11.0,1.0,outlet_10s.jpg,0.0,Green.png,2.0,1,,,,,,,,,,,,,,,,,
0.0,1.0,0.553355,0.0,12.0,12.0,12.0,1.0,comic_book_02s.jpg,0.0,Blue.png,3.0,1,,,,,,,,,,,,,,,,,
0.0,1.0,0.502565,0.0,13.0,13.0,13.0,1.0,mask_09s.jpg,0.0,Purple.png,3.0,1,,,,,,,,,,,,,,,,,
0.0,1.0,0.50902,0.0,14.0,14.0,14.0,1.0,lasagna_06s.jpg,0.0,Red.png,3.0,1,,,,,,,,,,,,,,,,,
0.0,1.0,0.49222,0.0,15.0,15.0,15.0,1.0,diving_board_07s.jpg,0.0,Orange.png,3.0,1,,,,,,,,,,,,,,,,,
0.0,1.0,0.85669,0.0,16.0,16.0,16.0,1.0,lion_18s.jpg,0.0,Yellow.png,3.0,1,,,,,,,,,,,,,,,,,
1.0,1.0,1.030845,0.0,17.0,17.0,17.0,1.0,diving_board_07s.jpg,1.0,Green.png,3.0,1,,,,,,,,,,,,,,,,,
1.0,1.0,0.74682,0.0,18.0,18.0,18.0,1.0,lion_18s.jpg,1.0,Blue.png,4.0,1,,,,,,,,,,,,,,,,,
0.0,1.0,1.13696,0.0,19.0,19.0,19.0,1.0,medal_04s.jpg,0.0,Purple.png,4.0,1,,,,,,,,,,,,,,,,,
0.0,1.0,0.61445,0.0,20.0,20.0,20.0,1.0,incense_02s.jpg,0.0,Red.png,4.0,1,,,,,,,,,,,,,,,,,
1.0,0.0,1.092115,0.0,21.0,21.0,21.0,1.0,tape_06s.jpg,0.0,Orange.png,4.0,1,,,,,,,,,,,,,,,,,
,0.0,,0.0,22.0,22.0,22.0,1.0,medal_04s.jpg,0.0,Yellow.png,4.0,1,,,,,,,,,,,,,,,,,
0.0,1.0,0.738045,0.0,23.0,23.0,23.0,1.0,buoy_04s.jpg,0.0,Green.png,4.0,1,,,,,,,,,,,,,,,,,
0.0,1.0,0.552975,0.0,24.0,24.0,24.0,1.0,limousine_12s.jpg,0.0,Blue.png,5.0,1,,,,,,,,,,,,,,,,,
0.0,1.0,0.51994,0.0,25.0,25.0,25.0,1.0,jewel_01b.jpg,0.0,Purple.png,5.0,1,,,,,,,,,,,,,,,,,
0.0,1.0,0.47435,0.0,26.0,26.0,26.0,1.0,parachute_03s.jpg,0.0,Red.png,5.0,1,,,,,,,,,,,,,,,,,
0.0,1.0,0.56693,0.0,27.0,27.0,27.0,1.0,mannequin_05s.jpg,0.0,Orange.png,5.0,1,,,,,,,,,,,,,,,,,
0.0,1.0,0.551635,0.0,28.0,28.0,28.0,1.0,snowman_02s.jpg,0.0,Yellow.png,5.0,1,,,,,,,,,,,,,,,,,
0.0,1.0,0.55154,0.0,29.0,29.0,29.0,1.0,fossil_06s.jpg,0.0,Green.png,5.0,1,,,,,,,,,,,,,,,,,
0.0,1.0,0.493855,0.0,30.0,30.0,30.0,1.0,perfume_06s.jpg,0.0,Blue.png,6.0,1,,,,,,,,,,,,,,,,,
1.0,1.0,0.7205,0.0,31.0,31.0,31.0,1.0,fossil_06s.jpg,1.0,Purple.png,6.0,1,,,,,,,,,,,,,,,,,
0.0,1.0,0.54193,0.0,32.0,32.0,32.0,1.0,pancake_12s.jpg,0.0,Red.png,6.0,1,,,,,,,,,,,,,,,,,
0.0,1.0,0.6886,0.0,33.0,33.0,33.0,1.0,tie_03s.jpg,0.0,Orange.png,6.0,1,,,,,,,,,,,,,,,,,
1.0,1.0,0.844365,0.0,34.0,34.0,34.0,1.0,pancake_12s.jpg,1.0,Yellow.png,6.0,1,,,,,,,,,,,,,,,,,
0.0,1.0,1.08132,0.0,35.0,35.0,35.0,1.0,padlock_07s.jpg,0.0,Green.png,6.0,1,,,,,,,,,,,,,,,,,
,,,,,,,,,0.0,,,1,1.0,0.0,1.63943,0.0,0.0,0.0,0.0,1.0,crayon_09s.jpg,luggage_08s.jpg,,,,,,,
,,,,,,,,,1.0,,,1,1.0,1.0,2.278485,0.0,1.0,1.0,1.0,1.0,towel_rack_04s.jpg,boar_10s.jpg,,,,,,,
,,,,,,,,,0.0,,,1,1.0,0.0,2.612945,0.0,2.0,2.0,2.0,1.0,lasagna_06s.jpg,outlet_10s.jpg,,,,,,,
,,,,,,,,,1.0,,,1,0.0,0.0,1.29584,0.0,3.0,3.0,3.0,1.0,jewel_01b.jpg,snowman_02s.jpg,,,,,,,
,,,,,,,,,0.0,,,1,0.0,1.0,2.403025,0.0,4.0,4.0,4.0,1.0,buoy_04s.jpg,incense_02s.jpg,,,,,,,
,,,,,,,,,0.0,,,1,1.0,0.0,1.353995,0.0,5.0,5.0,5.0,1.0,tie_03s.jpg,perfume_06s.jpg,,,,,,,
,,,,,,,,,,,,1,,,,,,,,,,,0.0,1.0,1.0,1.0,1.0,new2backpresent_2_2.xlsx,new2back_compare_task_2_2.xlsx
0.0,1.0,1.517765,0.0,0.0,0.0,0.0,1.0,surfboard_11s.jpg,0.0,Blue.png,1.0,1,,,,,,,,,,,,,,,,,
0.0,1.0,0.661125,0.0,1.0,1.0,1.0,1.0,surfboard_11s.jpg,0.0,Purple.png,1.0,1,,,,,,,,,,,,,,,,,
1.0,1.0,0.914945,0.0,2.0,2.0,2.0,1.0,surfboard_11s.jpg,1.0,Red.png,1.0,1,,,,,,,,,,,,,,,,,
0.0,1.0,1.61912,0.0,3.0,3.0,3.0,1.0,badge_03s.jpg,0.0,Orange.png,1.0,1,,,,,,,,,,,,,,,,,
1.0,1.0,0.55319,0.0,4.0,4.0,4.0,1.0,surfboard_11s.jpg,1.0,Yellow.png,1.0,1,,,,,,,,,,,,,,,,,
0.0,1.0,1.589305,0.0,5.0,5.0,5.0,1.0,surfboard_11s.jpg,0.0,Green.png,1.0,1,,,,,,,,,,,,,,,,,
1.0,1.0,0.71071,0.0,6.0,6.0,6.0,1.0,surfboard_11s.jpg,1.0,Blue.png,2.0,1,,,,,,,,,,,,,,,,,
0.0,1.0,0.61627,0.0,7.0,7.0,7.0,1.0,playpen_11s.jpg,0.0,Purple.png,2.0,1,,,,,,,,,,,,,,,,,
1.0,1.0,0.82213,0.0,8.0,8.0,8.0,1.0,surfboard_11s.jpg,1.0,Red.png,2.0,1,,,,,,,,,,,,,,,,,
0.0,1.0,0.622445,0.0,9.0,9.0,9.0,1.0,popcorn_09s.jpg,0.0,Orange.png,2.0,1,,,,,,,,,,,,,,,,,
1.0,1.0,0.50247,0.0,10.0,10.0,10.0,1.0,surfboard_11s.jpg,1.0,Yellow.png,2.0,1,,,,,,,,,,,,,,,,,
1.0,1.0,0.689125,0.0,11.0,11.0,11.0,1.0,popcorn_09s.jpg,1.0,Green.png,2.0,1,,,,,,,,,,,,,,,,,
0.0,1.0,0.586835,0.0,12.0,12.0,12.0,1.0,lollipop_08s.jpg,0.0,Blue.png,3.0,1,,,,,,,,,,,,,,,,,
1.0,1.0,0.536665,0.0,13.0,13.0,13.0,1.0,popcorn_09s.jpg,1.0,Purple.png,3.0,1,,,,,,,,,,,,,,,,,
0.0,1.0,0.91693,0.0,14.0,14.0,14.0,1.0,fire_pit_10s.jpg,0.0,Red.png,3.0,1,,,,,,,,,,,,,,,,,
0.0,1.0,0.70541,0.0,15.0,15.0,15.0,1.0,joystick_01b.jpg,0.0,Orange.png,3.0,1,,,,,,,,,,,,,,,,,
0.0,1.0,1.604895,0.0,16.0,16.0,16.0,1.0,panda_02s.jpg,0.0,Yellow.png,3.0,1,,,,,,,,,,,,,,,,,
0.0,1.0,0.562275,0.0,17.0,17.0,17.0,1.0,sundae_08s.jpg,0.0,Green.png,3.0,1,,,,,,,,,,,,,,,,,
0.0,1.0,0.63965,0.0,18.0,18.0,18.0,1.0,boomerang_06s.jpg,0.0,Blue.png,4.0,1,,,,,,,,,,,,,,,,,
0.0,1.0,0.548795,0.0,19.0,19.0,19.0,1.0,bagel_15s.jpg,0.0,Purple.png,4.0,1,,,,,,,,,,,,,,,,,
0.0,1.0,0.659825,0.0,20.0,20.0,20.0,1.0,powder_07s.jpg,0.0,Red.png,4.0,1,,,,,,,,,,,,,,,,,
0.0,1.0,0.57507,0.0,21.0,21.0,21.0,1.0,lipstick_02s.jpg,0.0,Orange.png,4.0,1,,,,,,,,,,,,,,,,,
1.0,0.0,1.284675,0.0,22.0,22.0,22.0,1.0,bagel_15s.jpg,0.0,Yellow.png,4.0,1,,,,,,,,,,,,,,,,,
0.0,1.0,0.699145,0.0,23.0,23.0,23.0,1.0,ladle_04s.jpg,0.0,Green.png,4.0,1,,,,,,,,,,,,,,,,,
0.0,1.0,0.545515,0.0,24.0,24.0,24.0,1.0,megaphone_03s.jpg,0.0,Blue.png,5.0,1,,,,,,,,,,,,,,,,,
0.0,1.0,0.668025,0.0,25.0,25.0,25.0,1.0,puck_06s.jpg,0.0,Purple.png,5.0,1,,,,,,,,,,,,,,,,,
0.0,1.0,0.541765,0.0,26.0,26.0,26.0,1.0,cardinal_07s.jpg,0.0,Red.png,5.0,1,,,,,,,,,,,,,,,,,
1.0,1.0,0.675525,0.0,27.0,27.0,27.0,1.0,puck_06s.jpg,1.0,Orange.png,5.0,1,,,,,,,,,,,,,,,,,
0.0,1.0,0.53303,0.0,28.0,28.0,28.0,1.0,bee_20s.jpg,0.0,Yellow.png,5.0,1,,,,,,,,,,,,,,,,,
0.0,1.0,0.664645,0.0,29.0,29.0,29.0,1.0,toilet_paper_12s.jpg,0.0,Green.png,5.0,1,,,,,,,,,,,,,,,,,
0.0,1.0,0.544005,0.0,30.0,30.0,30.0,1.0,mud_13s.jpg,0.0,Blue.png,6.0,1,,,,,,,,,,,,,,,,,
0.0,1.0,0.58634,0.0,31.0,31.0,31.0,1.0,measuring_cup_02s.jpg,0.0,Purple.png,6.0,1,,,,,,,,,,,,,,,,,
0.0,1.0,0.585195,0.0,32.0,32.0,32.0,1.0,ostrich_06s.jpg,0.0,Red.png,6.0,1,,,,,,,,,,,,,,,,,
0.0,1.0,0.681515,0.0,33.0,33.0,33.0,1.0,raspberry_12s.jpg,0.0,Orange.png,6.0,1,,,,,,,,,,,,,,,,,
0.0,1.0,0.853315,0.0,34.0,34.0,34.0,1.0,mud_13s.jpg,0.0,Yellow.png,6.0,1,,,,,,,,,,,,,,,,,
0.0,1.0,0.70458,0.0,35.0,35.0,35.0,1.0,radiator_05s.jpg,0.0,Green.png,6.0,1,,,,,,,,,,,,,,,,,
,,,,,,,,,0.0,,,1,1.0,0.0,1.911285,0.0,0.0,0.0,0.0,1.0,measuring_cup_02s.jpg,bee_20s.jpg,,,,,,,
,,,,,,,,,1.0,,,1,0.0,0.0,2.124425,0.0,1.0,1.0,1.0,1.0,lipstick_02s.jpg,megaphone_03s.jpg,,,,,,,
,,,,,,,,,0.0,,,1,0.0,1.0,1.665125,0.0,2.0,2.0,2.0,1.0,boomerang_06s.jpg,joystick_01b.jpg,,,,,,,
,,,,,,,,,0.0,,,1,1.0,0.0,1.279805,0.0,3.0,3.0,3.0,1.0,sundae_08s.jpg,fire_pit_10s.jpg,,,,,,,
,,,,,,,,,0.0,,,1,1.0,0.0,1.446325,0.0,4.0,4.0,4.0,1.0,radiator_05s.jpg,ostrich_06s.jpg,,,,,,,
,,,,,,,,,0.0,,,1,0.0,1.0,1.593245,0.0,5.0,5.0,5.0,1.0,ladle_04s.jpg,powder_07s.jpg,,,,,,,
,,,,,,,,,,,,1,,,,,,,,,,,0.0,2.0,2.0,2.0,1.0,new2backpresent_3_2.xlsx,new2back_compare_task_3_2.xlsx
0.0,1.0,1.35949,0.0,0.0,0.0,0.0,1.0,glasses01a.jpg,0.0,Blue.png,1.0,1,,,,,,,,,,,,,,,,,
0.0,1.0,0.64709,0.0,1.0,1.0,1.0,1.0,piano_13n.jpg,0.0,Purple.png,1.0,1,,,,,,,,,,,,,,,,,
0.0,1.0,0.662255,0.0,2.0,2.0,2.0,1.0,candy_cane_06s.jpg,0.0,Red.png,1.0,1,,,,,,,,,,,,,,,,,
0.0,1.0,0.751865,0.0,3.0,3.0,3.0,1.0,cushion_08s.jpg,0.0,Orange.png,1.0,1,,,,,,,,,,,,,,,,,
1.0,1.0,0.523385,0.0,4.0,4.0,4.0,1.0,candy_cane_06s.jpg,1.0,Yellow.png,1.0,1,,,,,,,,,,,,,,,,,
0.0,1.0,1.397005,0.0,5.0,5.0,5.0,1.0,candy_cane_06s.jpg,0.0,Green.png,1.0,1,,,,,,,,,,,,,,,,,
0.0,1.0,0.598195,0.0,6.0,6.0,6.0,1.0,rosary_03s.jpg,0.0,Blue.png,2.0,1,,,,,,,,,,,,,,,,,
0.0,1.0,0.697755,0.0,7.0,7.0,7.0,1.0,rosary_03s.jpg,0.0,Purple.png,2.0,1,,,,,,,,,,,,,,,,,
1.0,1.0,0.80842,0.0,8.0,8.0,8.0,1.0,rosary_03s.jpg,1.0,Red.png,2.0,1,,,,,,,,,,,,,,,,,
1.0,1.0,0.57217,0.0,9.0,9.0,9.0,1.0,rosary_03s.jpg,1.0,Orange.png,2.0,1,,,,,,,,,,,,,,,,,
0.0,1.0,0.625725,0.0,10.0,10.0,10.0,1.0,kangaroo_02s.jpg,0.0,Yellow.png,2.0,1,,,,,,,,,,,,,,,,,
0.0,1.0,0.674545,0.0,11.0,11.0,11.0,1.0,kangaroo_02s.jpg,0.0,Green.png,2.0,1,,,,,,,,,,,,,,,,,
1.0,1.0,0.451815,0.0,12.0,12.0,12.0,1.0,kangaroo_02s.jpg,1.0,Blue.png,3.0,1,,,,,,,,,,,,,,,,,
1.0,1.0,0.73998,0.0,13.0,13.0,13.0,1.0,kangaroo_02s.jpg,1.0,Purple.png,3.0,1,,,,,,,,,,,,,,,,,
0.0,1.0,0.56179,0.0,14.0,14.0,14.0,1.0,ironing_board_07s.jpg,0.0,Red.png,3.0,1,,,,,,,,,,,,,,,,,
1.0,1.0,0.45615,0.0,15.0,15.0,15.0,1.0,kangaroo_02s.jpg,1.0,Orange.png,3.0,1,,,,,,,,,,,,,,,,,
0.0,1.0,0.60192,0.0,16.0,16.0,16.0,1.0,punch2_09s.jpg,0.0,Yellow.png,3.0,1,,,,,,,,,,,,,,,,,
0.0,1.0,1.39357,0.0,17.0,17.0,17.0,1.0,ironing_board_07s.jpg,0.0,Green.png,3.0,1,,,,,,,,,,,,,,,,,
0.0,1.0,0.964235,0.0,18.0,18.0,18.0,1.0,owl_15s.jpg,0.0,Blue.png,4.0,1,,,,,,,,,,,,,,,,,
0.0,1.0,0.595245,0.0,19.0,19.0,19.0,1.0,teabag_12s.jpg,0.0,Purple.png,4.0,1,,,,,,,,,,,,,,,,,
1.0,1.0,0.751565,0.0,20.0,20.0,20.0,1.0,owl_15s.jpg,1.0,Red.png,4.0,1,,,,,,,,,,,,,,,,,
0.0,1.0,0.703055,0.0,21.0,21.0,21.0,1.0,otter_05s.jpg,0.0,Orange.png,4.0,1,,,,,,,,,,,,,,,,,
1.0,1.0,1.24311,0.0,22.0,22.0,22.0,1.0,owl_15s.jpg,1.0,Yellow.png,4.0,1,,,,,,,,,,,,,,,,,
0.0,1.0,0.551885,0.0,23.0,23.0,23.0,1.0,mold2_04s.jpg,0.0,Green.png,4.0,1,,,,,,,,,,,,,,,,,
0.0,1.0,0.589525,0.0,24.0,24.0,24.0,1.0,mattress_01s.jpg,0.0,Blue.png,5.0,1,,,,,,,,,,,,,,,,,
0.0,1.0,0.598345,0.0,25.0,25.0,25.0,1.0,police_car_01s.jpg,0.0,Purple.png,5.0,1,,,,,,,,,,,,,,,,,
0.0,1.0,0.67035,0.0,26.0,26.0,26.0,1.0,stethoscope_01b.jpg,0.0,Red.png,5.0,1,,,,,,,,,,,,,,,,,
1.0,1.0,0.54413,0.0,27.0,27.0,27.0,1.0,police_car_01s.jpg,1.0,Orange.png,5.0,1,,,,,,,,,,,,,,,,,
0.0,1.0,0.51699,0.0,28.0,28.0,28.0,1.0,sparkler_02s.jpg,0.0,Yellow.png,5.0,1,,,,,,,,,,,,,,,,,
0.0,1.0,0.539045,0.0,29.0,29.0,29.0,1.0,pacifier_09s.jpg,0.0,Green.png,5.0,1,,,,,,,,,,,,,,,,,
0.0,1.0,1.618125,0.0,30.0,30.0,30.0,1.0,machine_gun_09s.jpg,0.0,Blue.png,6.0,1,,,,,,,,,,,,,,,,,
0.0,1.0,0.77205,0.0,31.0,31.0,31.0,1.0,ram_05s.jpg,0.0,Purple.png,6.0,1,,,,,,,,,,,,,,,,,
0.0,1.0,0.634255,0.0,32.0,32.0,32.0,1.0,keyboard_05s.jpg,0.0,Red.png,6.0,1,,,,,,,,,,,,,,,,,
0.0,1.0,1.34306,0.0,33.0,33.0,33.0,1.0,leash_10s.jpg,0.0,Orange.png,6.0,1,,,,,,,,,,,,,,,,,
0.0,1.0,0.63997,0.0,34.0,34.0,34.0,1.0,pan_02s.jpg,0.0,Yellow.png,6.0,1,,,,,,,,,,,,,,,,,
0.0,1.0,0.49647,0.0,35.0,35.0,35.0,1.0,mixer_12s.jpg,0.0,Green.png,6.0,1,,,,,,,,,,,,,,,,,
,,,,,,,,,0.0,,,1,0.0,1.0,2.42607,0.0,0.0,0.0,0.0,1.0,teabag_12s.jpg,punch2_09s.jpg,,,,,,,
,,,,,,,,,0.0,,,1,1.0,0.0,1.35558,0.0,1.0,1.0,1.0,1.0,mattress_01s.jpg,otter_05s.jpg,,,,,,,
,,,,,,,,,0.0,,,1,0.0,1.0,1.515365,0.0,2.0,2.0,2.0,1.0,stethoscope_01b.jpg,mold2_04s.jpg,,,,,,,
,,,,,,,,,1.0,,,1,0.0,0.0,1.424295,0.0,3.0,3.0,3.0,1.0,glasses01a.jpg,cushion_08s.jpg,,,,,,,
,,,,,,,,,1.0,,,1,0.0,0.0,1.52162,0.0,4.0,4.0,4.0,1.0,machine_gun_09s.jpg,leash_10s.jpg,,,,,,,
,,,,,,,,,0.0,,,1,1.0,0.0,1.430825,0.0,5.0,5.0,5.0,1.0,pan_02s.jpg,ram_05s.jpg,,,,,,,
,,,,,,,,,,,,1,,,,,,,,,,,0.0,3.0,3.0,3.0,1.0,new2backpresent_4_2.xlsx,new2back_compare_task_4_2.xlsx
0.0,1.0,0.856905,0.0,0.0,0.0,0.0,1.0,golf_club_03s.jpg,0.0,Blue.png,1.0,1,,,,,,,,,,,,,,,,,
0.0,1.0,1.091755,0.0,1.0,1.0,1.0,1.0,golf_club_03s.jpg,0.0,Purple.png,1.0,1,,,,,,,,,,,,,,,,,
1.0,1.0,1.176265,0.0,2.0,2.0,2.0,1.0,golf_club_03s.jpg,1.0,Red.png,1.0,1,,,,,,,,,,,,,,,,,
0.0,1.0,1.91177,0.0,3.0,3.0,3.0,1.0,turnstile_08s.jpg,0.0,Orange.png,1.0,1,,,,,,,,,,,,,,,,,
1.0,1.0,0.43783,0.0,4.0,4.0,4.0,1.0,golf_club_03s.jpg,1.0,Yellow.png,1.0,1,,,,,,,,,,,,,,,,,
0.0,1.0,0.6055,0.0,5.0,5.0,5.0,1.0,milk_02s.jpg,0.0,Green.png,1.0,1,,,,,,,,,,,,,,,,,
0.0,1.0,0.51112,0.0,6.0,6.0,6.0,1.0,orange_12s.jpg,0.0,Blue.png,2.0,1,,,,,,,,,,,,,,,,,
1.0,1.0,0.78297,0.0,7.0,7.0,7.0,1.0,milk_02s.jpg,1.0,Purple.png,2.0,1,,,,,,,,,,,,,,,,,
0.0,1.0,0.58513,0.0,8.0,8.0,8.0,1.0,latch_15s.jpg,0.0,Red.png,2.0,1,,,,,,,,,,,,,,,,,
0.0,1.0,0.547045,0.0,9.0,9.0,9.0,1.0,bank_06s.jpg,0.0,Orange.png,2.0,1,,,,,,,,,,,,,,,,,
0.0,1.0,0.598715,0.0,10.0,10.0,10.0,1.0,milk_02s.jpg,0.0,Yellow.png,2.0,1,,,,,,,,,,,,,,,,,
0.0,1.0,0.48714,0.0,11.0,11.0,11.0,1.0,crab_16s.jpg,0.0,Green.png,2.0,1,,,,,,,,,,,,,,,,,
0.0,1.0,0.528455,0.0,12.0,12.0,12.0,1.0,birdcage_08s.jpg,0.0,Blue.png,3.0,1,,,,,,,,,,,,,,,,,
0.0,1.0,0.584675,0.0,13.0,13.0,13.0,1.0,spider_web_03s.jpg,0.0,Purple.png,3.0,1,,,,,,,,,,,,,,,,,
0.0,1.0,0.513195,0.0,14.0,14.0,14.0,1.0,knitting_needle_04s.jpg,0.0,Red.png,3.0,1,,,,,,,,,,,,,,,,,
0.0,1.0,0.87399,0.0,15.0,15.0,15.0,1.0,sugar_cube_11s.jpg,0.0,Orange.png,3.0,1,,,,,,,,,,,,,,,,,
0.0,1.0,0.662995,0.0,16.0,16.0,16.0,1.0,light_switch_02s.jpg,0.0,Yellow.png,3.0,1,,,,,,,,,,,,,,,,,
0.0,1.0,0.4334,0.0,17.0,17.0,17.0,1.0,gear_07s.jpg,0.0,Green.png,3.0,1,,,,,,,,,,,,,,,,,
0.0,1.0,0.50971,0.0,18.0,18.0,18.0,1.0,tongs_08s.jpg,0.0,Blue.png,4.0,1,,,,,,,,,,,,,,,,,
0.0,1.0,0.48746,0.0,19.0,19.0,19.0,1.0,recliner_02s.jpg,0.0,Purple.png,4.0,1,,,,,,,,,,,,,,,,,
0.0,1.0,0.551095,0.0,20.0,20.0,20.0,1.0,orangutan_03s.jpg,0.0,Red.png,4.0,1,,,,,,,,,,,,,,,,,
0.0,1.0,1.186345,0.0,21.0,21.0,21.0,1.0,golf_club_03s.jpg,0.0,Orange.png,4.0,1,,,,,,,,,,,,,,,,,
0.0,1.0,0.524415,0.0,22.0,22.0,22.0,1.0,lava_02s.jpg,0.0,Yellow.png,4.0,1,,,,,,,,,,,,,,,,,
0.0,1.0,0.5054,0.0,23.0,23.0,23.0,1.0,toilet_07s.jpg,0.0,Green.png,4.0,1,,,,,,,,,,,,,,,,,
0.0,1.0,0.504155,0.0,24.0,24.0,24.0,1.0,turnstile_08s.jpg,0.0,Blue.png,5.0,1,,,,,,,,,,,,,,,,,
0.0,1.0,0.633285,0.0,25.0,25.0,25.0,1.0,turnstile_08s.jpg,0.0,Purple.png,5.0,1,,,,,,,,,,,,,,,,,
0.0,1.0,0.98237,0.0,26.0,26.0,26.0,1.0,teacup_07s.jpg,0.0,Red.png,5.0,1,,,,,,,,,,,,,,,,,
1.0,1.0,0.5042,0.0,27.0,27.0,27.0,1.0,turnstile_08s.jpg,1.0,Orange.png,5.0,1,,,,,,,,,,,,,,,,,
0.0,1.0,1.56856,0.0,28.0,28.0,28.0,1.0,turnstile_08s.jpg,0.0,Yellow.png,5.0,1,,,,,,,,,,,,,,,,,
0.0,1.0,0.561945,0.0,29.0,29.0,29.0,1.0,antenna_01b.jpg,0.0,Green.png,5.0,1,,,,,,,,,,,,,,,,,
0.0,1.0,0.68577,0.0,30.0,30.0,30.0,1.0,keyhole_03s.jpg,0.0,Blue.png,6.0,1,,,,,,,,,,,,,,,,,
0.0,1.0,0.514025,0.0,31.0,31.0,31.0,1.0,air_pump_05s.jpg,0.0,Purple.png,6.0,1,,,,,,,,,,,,,,,,,
0.0,1.0,0.47829,0.0,32.0,32.0,32.0,1.0,eggshell_14s.jpg,0.0,Red.png,6.0,1,,,,,,,,,,,,,,,,,
0.0,1.0,0.889575,0.0,33.0,33.0,33.0,1.0,eyedropper_12s.jpg,0.0,Orange.png,6.0,1,,,,,,,,,,,,,,,,,
0.0,1.0,0.65799,0.0,34.0,34.0,34.0,1.0,machete_06s.jpg,0.0,Yellow.png,6.0,1,,,,,,,,,,,,,,,,,
1.0,1.0,0.96235,0.0,35.0,35.0,35.0,1.0,eyedropper_12s.jpg,1.0,Green.png,6.0,1,,,,,,,,,,,,,,,,,
,,,,,,,,,1.0,,,1,1.0,1.0,1.583805,0.0,0.0,0.0,0.0,1.0,sugar_cube_11s.jpg,tongs_08s.jpg,,,,,,,
,,,,,,,,,1.0,,,1,0.0,0.0,1.68556,0.0,1.0,1.0,1.0,1.0,antenna_01b.jpg,eggshell_14s.jpg,,,,,,,
,,,,,,,,,1.0,,,1,1.0,1.0,1.348975,0.0,2.0,2.0,2.0,1.0,bank_06s.jpg,birdcage_08s.jpg,,,,,,,
,,,,,,,,,1.0,,,1,1.0,1.0,1.639585,0.0,3.0,3.0,3.0,1.0,air_pump_05s.jpg,machete_06s.jpg,,,,,,,
,,,,,,,,,1.0,,,1,0.0,0.0,1.41444,0.0,4.0,4.0,4.0,1.0,latch_15s.jpg,crab_16s.jpg,,,,,,,
,,,,,,,,,1.0,,,1,1.0,1.0,1.31115,0.0,5.0,5.0,5.0,1.0,spider_web_03s.jpg,light_switch_02s.jpg,,,,,,,
,,,,,,,,,,,,1,,,,,,,,,,,0.0,4.0,4.0,4.0,1.0,new2backpresent_5_2.xlsx,new2back_compare_task_5_2.xlsx
0.0,1.0,1.92754,0.0,0.0,0.0,0.0,1.0,gazelle_10s.jpg,0.0,Blue.png,1.0,1,,,,,,,,,,,,,,,,,
0.0,1.0,0.75759,0.0,1.0,1.0,1.0,1.0,saddle_06s.jpg,0.0,Purple.png,1.0,1,,,,,,,,,,,,,,,,,
0.0,1.0,0.7203,0.0,2.0,2.0,2.0,1.0,saddle_06s.jpg,0.0,Red.png,1.0,1,,,,,,,,,,,,,,,,,
,0.0,,0.0,3.0,3.0,3.0,1.0,kimono_13s.jpg,0.0,Orange.png,1.0,1,,,,,,,,,,,,,,,,,
0.0,1.0,1.016135,0.0,4.0,4.0,4.0,1.0,timer_03s.jpg,0.0,Yellow.png,1.0,1,,,,,,,,,,,,,,,,,
0.0,1.0,0.6345,0.0,5.0,5.0,5.0,1.0,tulip_02s.jpg,0.0,Green.png,1.0,1,,,,,,,,,,,,,,,,,
0.0,1.0,0.641365,0.0,6.0,6.0,6.0,1.0,prism_10s.jpg,0.0,Blue.png,2.0,1,,,,,,,,,,,,,,,,,
0.0,1.0,0.76576,0.0,7.0,7.0,7.0,1.0,razor_12s.jpg,0.0,Purple.png,2.0,1,,,,,,,,,,,,,,,,,
0.0,1.0,0.602145,0.0,8.0,8.0,8.0,1.0,blazer_02s.jpg,0.0,Red.png,2.0,1,,,,,,,,,,,,,,,,,
1.0,1.0,1.40339,0.0,9.0,9.0,9.0,1.0,razor_12s.jpg,1.0,Orange.png,2.0,1,,,,,,,,,,,,,,,,,
0.0,1.0,0.82115,0.0,10.0,10.0,10.0,1.0,lamb_chop_07s.jpg,0.0,Yellow.png,2.0,1,,,,,,,,,,,,,,,,,
1.0,1.0,1.264205,0.0,11.0,11.0,11.0,1.0,razor_12s.jpg,1.0,Green.png,2.0,1,,,,,,,,,,,,,,,,,
1.0,1.0,0.91296,0.0,12.0,12.0,12.0,1.0,lamb_chop_07s.jpg,1.0,Blue.png,3.0,1,,,,,,,,,,,,,,,,,
0.0,1.0,1.25404,0.0,13.0,13.0,13.0,1.0,lamb_chop_07s.jpg,0.0,Purple.png,3.0,1,,,,,,,,,,,,,,,,,
0.0,1.0,1.468025,0.0,14.0,14.0,14.0,1.0,timer_03s.jpg,0.0,Red.png,3.0,1,,,,,,,,,,,,,,,,,
1.0,1.0,1.15523,0.0,15.0,15.0,15.0,1.0,lamb_chop_07s.jpg,1.0,Orange.png,3.0,1,,,,,,,,,,,,,,,,,
0.0,1.0,0.77126,0.0,16.0,16.0,16.0,1.0,glue_01s.jpg,0.0,Yellow.png,3.0,1,,,,,,,,,,,,,,,,,
0.0,1.0,0.81569,0.0,17.0,17.0,17.0,1.0,solar_panel_02s.jpg,0.0,Green.png,3.0,1,,,,,,,,,,,,,,,,,
0.0,1.0,0.621165,0.0,18.0,18.0,18.0,1.0,muffin_12n.jpg,0.0,Blue.png,4.0,1,,,,,,,,,,,,,,,,,
0.0,1.0,0.845535,0.0,19.0,19.0,19.0,1.0,pepper2_21s.jpg,0.0,Purple.png,4.0,1,,,,,,,,,,,,,,,,,
0.0,1.0,0.770125,0.0,20.0,20.0,20.0,1.0,marker_05s.jpg,0.0,Red.png,4.0,1,,,,,,,,,,,,,,,,,
0.0,1.0,0.603115,0.0,21.0,21.0,21.0,1.0,soccer_ball_12s.jpg,0.0,Orange.png,4.0,1,,,,,,,,,,,,,,,,,
0.0,1.0,0.5819,0.0,22.0,22.0,22.0,1.0,amber_04s.jpg,0.0,Yellow.png,4.0,1,,,,,,,,,,,,,,,,,
0.0,1.0,0.944815,0.0,23.0,23.0,23.0,1.0,stopwatch_04s.jpg,0.0,Green.png,4.0,1,,,,,,,,,,,,,,,,,
1.0,1.0,0.917335,0.0,24.0,24.0,24.0,1.0,amber_04s.jpg,1.0,Blue.png,5.0,1,,,,,,,,,,,,,,,,,
0.0,1.0,0.531645,0.0,25.0,25.0,25.0,1.0,racehorse_03s.jpg,0.0,Purple.png,5.0,1,,,,,,,,,,,,,,,,,
1.0,1.0,0.99705,0.0,26.0,26.0,26.0,1.0,amber_04s.jpg,1.0,Red.png,5.0,1,,,,,,,,,,,,,,,,,
0.0,1.0,0.74449,0.0,27.0,27.0,27.0,1.0,duck_01b.jpg,0.0,Orange.png,5.0,1,,,,,,,,,,,,,,,,,
1.0,1.0,0.92147,0.0,28.0,28.0,28.0,1.0,amber_04s.jpg,1.0,Yellow.png,5.0,1,,,,,,,,,,,,,,,,,
1.0,1.0,0.97627,0.0,29.0,29.0,29.0,1.0,duck_01b.jpg,1.0,Green.png,5.0,1,,,,,,,,,,,,,,,,,
0.0,1.0,1.285255,0.0,30.0,30.0,30.0,1.0,duck_01b.jpg,0.0,Blue.png,6.0,1,,,,,,,,,,,,,,,,,
1.0,1.0,1.18391,0.0,31.0,31.0,31.0,1.0,duck_01b.jpg,1.0,Purple.png,6.0,1,,,,,,,,,,,,,,,,,
0.0,1.0,0.68593,0.0,32.0,32.0,32.0,1.0,magnet_03s.jpg,0.0,Red.png,6.0,1,,,,,,,,,,,,,,,,,
1.0,1.0,0.8296,0.0,33.0,33.0,33.0,1.0,duck_01b.jpg,1.0,Orange.png,6.0,1,,,,,,,,,,,,,,,,,
0.0,1.0,0.645015,0.0,34.0,34.0,34.0,1.0,swimming_pool_17s.jpg,0.0,Yellow.png,6.0,1,,,,,,,,,,,,,,,,,
0.0,1.0,0.5891,0.0,35.0,35.0,35.0,1.0,roulette_wheel_04s.jpg,0.0,Green.png,6.0,1,,,,,,,,,,,,,,,,,
,,,,,,,,,0.0,,,1,1.0,0.0,1.876775,0.0,0.0,0.0,0.0,1.0,blazer_02s.jpg,tulip_02s.jpg,,,,,,,
,,,,,,,,,1.0,,,1,0.0,0.0,1.75996,0.0,1.0,1.0,1.0,1.0,glue_01s.jpg,pepper2_21s.jpg,,,,,,,
,,,,,,,,,1.0,,,1,1.0,1.0,1.42088,0.0,2.0,2.0,2.0,1.0,kimono_13s.jpg,prism_10s.jpg,,,,,,,
,,,,,,,,,0.0,,,1,1.0,0.0,1.636395,0.0,3.0,3.0,3.0,1.0,soccer_ball_12s.jpg,muffin_12n.jpg,,,,,,,
,,,,,,,,,1.0,,,1,1.0,1.0,1.30043,0.0,4.0,4.0,4.0,1.0,magnet_03s.jpg,roulette_wheel_04s.jpg,,,,,,,
,,,,,,,,,0.0,,,1,0.0,1.0,1.326395,0.0,5.0,5.0,5.0,1.0,stopwatch_04s.jpg,marker_05s.jpg,,,,,,,
,,,,,,,,,,,,1,,,,,,,,,,,0.0,5.0,5.0,5.0,1.0,new2backpresent_6_2.xlsx,new2back_compare_task_6_2.xlsx
0.0,1.0,1.06602,0.0,0.0,0.0,0.0,1.0,slingshot_07s.jpg,0.0,Blue.png,1.0,1,,,,,,,,,,,,,,,,,
0.0,1.0,0.623755,0.0,1.0,1.0,1.0,1.0,slingshot_07s.jpg,0.0,Purple.png,1.0,1,,,,,,,,,,,,,,,,,
0.0,1.0,1.06166,0.0,2.0,2.0,2.0,1.0,aluminum_foil_08s.jpg,0.0,Red.png,1.0,1,,,,,,,,,,,,,,,,,
0.0,1.0,0.74943,0.0,3.0,3.0,3.0,1.0,ink_08s.jpg,0.0,Orange.png,1.0,1,,,,,,,,,,,,,,,,,
1.0,1.0,1.17982,0.0,4.0,4.0,4.0,1.0,aluminum_foil_08s.jpg,1.0,Yellow.png,1.0,1,,,,,,,,,,,,,,,,,
0.0,1.0,0.77469,0.0,5.0,5.0,5.0,1.0,slingshot_07s.jpg,0.0,Green.png,1.0,1,,,,,,,,,,,,,,,,,
1.0,1.0,1.37673,0.0,6.0,6.0,6.0,1.0,aluminum_foil_08s.jpg,1.0,Blue.png,2.0,1,,,,,,,,,,,,,,,,,
0.0,1.0,0.71165,0.0,7.0,7.0,7.0,1.0,aluminum_foil_08s.jpg,0.0,Purple.png,2.0,1,,,,,,,,,,,,,,,,,
0.0,1.0,0.531045,0.0,8.0,8.0,8.0,1.0,ice-cream_cone_06s.jpg,0.0,Red.png,2.0,1,,,,,,,,,,,,,,,,,
0.0,1.0,0.547395,0.0,9.0,9.0,9.0,1.0,ink_08s.jpg,0.0,Orange.png,2.0,1,,,,,,,,,,,,,,,,,
0.0,1.0,0.95685,0.0,10.0,10.0,10.0,1.0,emerald_02s.jpg,0.0,Yellow.png,2.0,1,,,,,,,,,,,,,,,,,
0.0,1.0,0.691675,0.0,11.0,11.0,11.0,1.0,bathtub_23s.jpg,0.0,Green.png,2.0,1,,,,,,,,,,,,,,,,,
0.0,1.0,0.575745,0.0,12.0,12.0,12.0,1.0,bubble_01b.jpg,0.0,Blue.png,3.0,1,,,,,,,,,,,,,,,,,
0.0,1.0,0.97897,0.0,13.0,13.0,13.0,1.0,mirror_12s.jpg,0.0,Purple.png,3.0,1,,,,,,,,,,,,,,,,,
0.0,1.0,0.61443,0.0,14.0,14.0,14.0,1.0,swing_set_15s.jpg,0.0,Red.png,3.0,1,,,,,,,,,,,,,,,,,
0.0,1.0,0.65189,0.0,15.0,15.0,15.0,1.0,pinwheel_06s.jpg,0.0,Orange.png,3.0,1,,,,,,,,,,,,,,,,,
1.0,1.0,1.00179,0.0,16.0,16.0,16.0,1.0,swing_set_15s.jpg,1.0,Yellow.png,3.0,1,,,,,,,,,,,,,,,,,
1.0,1.0,0.82408,0.0,17.0,17.0,17.0,1.0,pinwheel_06s.jpg,1.0,Green.png,3.0,1,,,,,,,,,,,,,,,,,
0.0,1.0,0.934865,0.0,18.0,18.0,18.0,1.0,ink_08s.jpg,0.0,Blue.png,4.0,1,,,,,,,,,,,,,,,,,
0.0,1.0,0.574725,0.0,19.0,19.0,19.0,1.0,plunger_08s.jpg,0.0,Purple.png,4.0,1,,,,,,,,,,,,,,,,,
1.0,1.0,1.35068,0.0,20.0,20.0,20.0,1.0,ink_08s.jpg,1.0,Red.png,4.0,1,,,,,,,,,,,,,,,,,
0.0,1.0,0.71354,0.0,21.0,21.0,21.0,1.0,ink_08s.jpg,0.0,Orange.png,4.0,1,,,,,,,,,,,,,,,,,
0.0,1.0,0.753365,0.0,22.0,22.0,22.0,1.0,metronome_03s.jpg,0.0,Yellow.png,4.0,1,,,,,,,,,,,,,,,,,
0.0,1.0,0.61619,0.0,23.0,23.0,23.0,1.0,puppy_08s.jpg,0.0,Green.png,4.0,1,,,,,,,,,,,,,,,,,
0.0,1.0,0.586165,0.0,24.0,24.0,24.0,1.0,treasure_08s.jpg,0.0,Blue.png,5.0,1,,,,,,,,,,,,,,,,,
0.0,1.0,0.654325,0.0,25.0,25.0,25.0,1.0,penguin_16s.jpg,0.0,Purple.png,5.0,1,,,,,,,,,,,,,,,,,
0.0,1.0,0.53828,0.0,26.0,26.0,26.0,1.0,bacon_05s.jpg,0.0,Red.png,5.0,1,,,,,,,,,,,,,,,,,
0.0,1.0,0.95335,0.0,27.0,27.0,27.0,1.0,giraffe_11s.jpg,0.0,Orange.png,5.0,1,,,,,,,,,,,,,,,,,
0.0,1.0,0.64575,0.0,28.0,28.0,28.0,1.0,rug_09s.jpg,0.0,Yellow.png,5.0,1,,,,,,,,,,,,,,,,,
0.0,1.0,0.422605,0.0,29.0,29.0,29.0,1.0,lamp_08s.jpg,0.0,Green.png,5.0,1,,,,,,,,,,,,,,,,,
0.0,1.0,0.48434,0.0,30.0,30.0,30.0,1.0,metronome_03s.jpg,0.0,Blue.png,6.0,1,,,,,,,,,,,,,,,,,
0.0,1.0,1.068735,0.0,31.0,31.0,31.0,1.0,metronome_03s.jpg,0.0,Purple.png,6.0,1,,,,,,,,,,,,,,,,,
0.0,1.0,0.914645,0.0,32.0,32.0,32.0,1.0,lip_gloss_06s.jpg,0.0,Red.png,6.0,1,,,,,,,,,,,,,,,,,
1.0,1.0,0.936315,0.0,33.0,33.0,33.0,1.0,metronome_03s.jpg,1.0,Orange.png,6.0,1,,,,,,,,,,,,,,,,,
0.0,1.0,1.049865,0.0,34.0,34.0,34.0,1.0,laser_pointer_02s.jpg,0.0,Yellow.png,6.0,1,,,,,,,,,,,,,,,,,
1.0,1.0,1.38882,0.0,35.0,35.0,35.0,1.0,metronome_03s.jpg,1.0,Green.png,6.0,1,,,,,,,,,,,,,,,,,
,,,,,,,,,1.0,,,1,1.0,1.0,1.87239,0.0,0.0,0.0,0.0,1.0,emerald_02s.jpg,mirror_12s.jpg,,,,,,,
,,,,,,,,,1.0,,,1,1.0,1.0,1.59297,0.0,1.0,1.0,1.0,1.0,puppy_08s.jpg,bacon_05s.jpg,,,,,,,
,,,,,,,,,0.0,,,1,1.0,0.0,2.1689,0.0,2.0,2.0,2.0,1.0,lip_gloss_06s.jpg,lamp_08s.jpg,,,,,,,
,,,,,,,,,0.0,,,1,0.0,1.0,1.487435,0.0,3.0,3.0,3.0,1.0,bathtub_23s.jpg,ice-cream_cone_06s.jpg,,,,,,,
,,,,,,,,,0.0,,,1,1.0,0.0,1.502325,0.0,4.0,4.0,4.0,1.0,giraffe_11s.jpg,treasure_08s.jpg,,,,,,,
,,,,,,,,,0.0,,,1,1.0,0.0,1.45435,0.0,5.0,5.0,5.0,1.0,rug_09s.jpg,penguin_16s.jpg,,,,,,,
,,,,,,,,,,,,1,,,,,,,,,,,0.0,6.0,6.0,6.0,1.0,new2backpresent_7_2.xlsx,new2back_compare_task_7_2.xlsx
0.0,1.0,1.858665,0.0,0.0,0.0,0.0,1.0,ant_12s.jpg,0.0,Blue.png,1.0,1,,,,,,,,,,,,,,,,,
0.0,1.0,0.989265,0.0,1.0,1.0,1.0,1.0,ant_12s.jpg,0.0,Purple.png,1.0,1,,,,,,,,,,,,,,,,,
0.0,1.0,1.43685,0.0,2.0,2.0,2.0,1.0,ticktacktoe_08s.jpg,0.0,Red.png,1.0,1,,,,,,,,,,,,,,,,,
0.0,1.0,0.77027,0.0,3.0,3.0,3.0,1.0,frog_09s.jpg,0.0,Orange.png,1.0,1,,,,,,,,,,,,,,,,,
1.0,1.0,0.916995,0.0,4.0,4.0,4.0,1.0,ticktacktoe_08s.jpg,1.0,Yellow.png,1.0,1,,,,,,,,,,,,,,,,,
0.0,1.0,0.578945,0.0,5.0,5.0,5.0,1.0,feather02.jpg,0.0,Green.png,1.0,1,,,,,,,,,,,,,,,,,
0.0,1.0,0.63489,0.0,6.0,6.0,6.0,1.0,gas_mask_11s.jpg,0.0,Blue.png,2.0,1,,,,,,,,,,,,,,,,,
0.0,1.0,0.736725,0.0,7.0,7.0,7.0,1.0,gas_mask_11s.jpg,0.0,Purple.png,2.0,1,,,,,,,,,,,,,,,,,
0.0,1.0,0.961315,0.0,8.0,8.0,8.0,1.0,mop_08s.jpg,0.0,Red.png,2.0,1,,,,,,,,,,,,,,,,,
1.0,1.0,1.05238,0.0,9.0,9.0,9.0,1.0,gas_mask_11s.jpg,1.0,Orange.png,2.0,1,,,,,,,,,,,,,,,,,
0.0,1.0,0.56518,0.0,10.0,10.0,10.0,1.0,pea_11s.jpg,0.0,Yellow.png,2.0,1,,,,,,,,,,,,,,,,,
0.0,1.0,0.50881,0.0,11.0,11.0,11.0,1.0,bowler_hat_10s.jpg,0.0,Green.png,2.0,1,,,,,,,,,,,,,,,,,
0.0,1.0,0.7208,0.0,12.0,12.0,12.0,1.0,pencil_sharpener_09n.jpg,0.0,Blue.png,3.0,1,,,,,,,,,,,,,,,,,
0.0,1.0,0.617815,0.0,13.0,13.0,13.0,1.0,rice_12s.jpg,0.0,Purple.png,3.0,1,,,,,,,,,,,,,,,,,
0.0,1.0,0.70783,0.0,14.0,14.0,14.0,1.0,stamp1_11s.jpg,0.0,Red.png,3.0,1,,,,,,,,,,,,,,,,,
0.0,1.0,0.635215,0.0,15.0,15.0,15.0,1.0,jersey_02s.jpg,0.0,Orange.png,3.0,1,,,,,,,,,,,,,,,,,
0.0,1.0,0.53065,0.0,16.0,16.0,16.0,1.0,tiara_05s.jpg,0.0,Yellow.png,3.0,1,,,,,,,,,,,,,,,,,
0.0,1.0,0.478065,0.0,17.0,17.0,17.0,1.0,target_11s.jpg,0.0,Green.png,3.0,1,,,,,,,,,,,,,,,,,
0.0,1.0,0.44183,0.0,18.0,18.0,18.0,1.0,dirt_bike_11s.jpg,0.0,Blue.png,4.0,1,,,,,,,,,,,,,,,,,
0.0,1.0,0.47788,0.0,19.0,19.0,19.0,1.0,doily_13s.jpg,0.0,Purple.png,4.0,1,,,,,,,,,,,,,,,,,
0.0,1.0,0.48013,0.0,20.0,20.0,20.0,1.0,sunglasses_11s.jpg,0.0,Red.png,4.0,1,,,,,,,,,,,,,,,,,
0.0,1.0,0.826035,0.0,21.0,21.0,21.0,1.0,compass_10n.jpg,0.0,Orange.png,4.0,1,,,,,,,,,,,,,,,,,
1.0,1.0,1.107275,0.0,22.0,22.0,22.0,1.0,sunglasses_11s.jpg,1.0,Yellow.png,4.0,1,,,,,,,,,,,,,,,,,
0.0,1.0,1.07298,0.0,23.0,23.0,23.0,1.0,sunglasses_11s.jpg,0.0,Green.png,4.0,1,,,,,,,,,,,,,,,,,
0.0,1.0,0.598185,0.0,24.0,24.0,24.0,1.0,seagull_01b.jpg,0.0,Blue.png,5.0,1,,,,,,,,,,,,,,,,,
0.0,1.0,0.455,0.0,25.0,25.0,25.0,1.0,footprint_11s.jpg,0.0,Purple.png,5.0,1,,,,,,,,,,,,,,,,,
0.0,1.0,0.583345,0.0,26.0,26.0,26.0,1.0,projector_08s.jpg,0.0,Red.png,5.0,1,,,,,,,,,,,,,,,,,
0.0,1.0,1.067935,0.0,27.0,27.0,27.0,1.0,projector_08s.jpg,0.0,Orange.png,5.0,1,,,,,,,,,,,,,,,,,
0.0,1.0,0.568145,0.0,28.0,28.0,28.0,1.0,money_07s.jpg,0.0,Yellow.png,5.0,1,,,,,,,,,,,,,,,,,
0.0,1.0,0.615205,0.0,29.0,29.0,29.0,1.0,flip_flop_03s.jpg,0.0,Green.png,5.0,1,,,,,,,,,,,,,,,,,
0.0,1.0,1.46094,0.0,30.0,30.0,30.0,1.0,ring_03s.jpg,0.0,Blue.png,6.0,1,,,,,,,,,,,,,,,,,
0.0,0.0,1.152345,0.0,31.0,31.0,31.0,1.0,flip_flop_03s.jpg,1.0,Purple.png,6.0,1,,,,,,,,,,,,,,,,,
0.0,1.0,0.82587,0.0,32.0,32.0,32.0,1.0,flip_flop_03s.jpg,0.0,Red.png,6.0,1,,,,,,,,,,,,,,,,,
1.0,1.0,1.064475,0.0,33.0,33.0,33.0,1.0,flip_flop_03s.jpg,1.0,Orange.png,6.0,1,,,,,,,,,,,,,,,,,
0.0,1.0,0.853435,0.0,34.0,34.0,34.0,1.0,screwdriver02a.jpg,0.0,Yellow.png,6.0,1,,,,,,,,,,,,,,,,,
0.0,1.0,1.362005,0.0,35.0,35.0,35.0,1.0,screwdriver02a.jpg,0.0,Green.png,6.0,1,,,,,,,,,,,,,,,,,
,,,,,,,,,0.0,,,1,0.0,1.0,2.205435,0.0,0.0,0.0,0.0,1.0,mop_08s.jpg,feather02.jpg,,,,,,,
,,,,,,,,,1.0,,,1,1.0,1.0,1.542495,0.0,1.0,1.0,1.0,1.0,pea_11s.jpg,rice_12s.jpg,,,,,,,
,,,,,,,,,1.0,,,1,1.0,1.0,1.252015,0.0,2.0,2.0,2.0,1.0,tiara_05s.jpg,doily_13s.jpg,,,,,,,
,,,,,,,,,1.0,,,1,1.0,1.0,1.66111,0.0,3.0,3.0,3.0,1.0,footprint_11s.jpg,money_07s.jpg,,,,,,,
,,,,,,,,,1.0,,,1,1.0,1.0,1.602635,0.0,4.0,4.0,4.0,1.0,pencil_sharpener_09n.jpg,jersey_02s.jpg,,,,,,,
,,,,,,,,,1.0,,,1,0.0,0.0,1.687105,0.0,5.0,5.0,5.0,1.0,stamp1_11s.jpg,target_11s.jpg,,,,,,,
,,,,,,,,,,,,1,,,,,,,,,,,0.0,7.0,7.0,7.0,1.0,new2backpresent_8_2.xlsx,new2back_compare_task_8_2.xlsx
0.0,1.0,1.58246,0.0,0.0,0.0,0.0,1.0,quilt_03s.jpg,0.0,Blue.png,1.0,1,,,,,,,,,,,,,,,,,
0.0,1.0,1.12466,0.0,1.0,1.0,1.0,1.0,stingray_02s.jpg,0.0,Purple.png,1.0,1,,,,,,,,,,,,,,,,,
0.0,1.0,0.486235,0.0,2.0,2.0,2.0,1.0,mousetrap_15n.jpg,0.0,Red.png,1.0,1,,,,,,,,,,,,,,,,,
0.0,1.0,0.56085,0.0,3.0,3.0,3.0,1.0,dashboard_02s.jpg,0.0,Orange.png,1.0,1,,,,,,,,,,,,,,,,,
0.0,1.0,2.124725,0.0,4.0,4.0,4.0,1.0,quilt_03s.jpg,0.0,Yellow.png,1.0,1,,,,,,,,,,,,,,,,,
0.0,1.0,0.87391,0.0,5.0,5.0,5.0,1.0,quilt_03s.jpg,0.0,Green.png,1.0,1,,,,,,,,,,,,,,,,,
0.0,1.0,1.270015,0.0,6.0,6.0,6.0,1.0,thorn_13s.jpg,0.0,Blue.png,2.0,1,,,,,,,,,,,,,,,,,
0.0,1.0,0.473985,0.0,7.0,7.0,7.0,1.0,mitten_10s.jpg,0.0,Purple.png,2.0,1,,,,,,,,,,,,,,,,,
0.0,1.0,0.441425,0.0,8.0,8.0,8.0,1.0,fondue_07s.jpg,0.0,Red.png,2.0,1,,,,,,,,,,,,,,,,,
0.0,1.0,0.521635,0.0,9.0,9.0,9.0,1.0,peach_04s.jpg,0.0,Orange.png,2.0,1,,,,,,,,,,,,,,,,,
0.0,1.0,0.53058,0.0,10.0,10.0,10.0,1.0,stump_02s.jpg,0.0,Yellow.png,2.0,1,,,,,,,,,,,,,,,,,
0.0,1.0,0.46174,0.0,11.0,11.0,11.0,1.0,rabbit_03s.jpg,0.0,Green.png,2.0,1,,,,,,,,,,,,,,,,,
0.0,1.0,0.473525,0.0,12.0,12.0,12.0,1.0,champagne_18s.jpg,0.0,Blue.png,3.0,1,,,,,,,,,,,,,,,,,
1.0,1.0,0.807875,0.0,13.0,13.0,13.0,1.0,rabbit_03s.jpg,1.0,Purple.png,3.0,1,,,,,,,,,,,,,,,,,
0.0,1.0,0.51127,0.0,14.0,14.0,14.0,1.0,denture_03s.jpg,0.0,Red.png,3.0,1,,,,,,,,,,,,,,,,,
1.0,1.0,0.821425,0.0,15.0,15.0,15.0,1.0,rabbit_03s.jpg,1.0,Orange.png,3.0,1,,,,,,,,,,,,,,,,,
0.0,1.0,0.636485,0.0,16.0,16.0,16.0,1.0,turtleneck_11s.jpg,0.0,Yellow.png,3.0,1,,,,,,,,,,,,,,,,,
1.0,1.0,0.459055,0.0,17.0,17.0,17.0,1.0,rabbit_03s.jpg,1.0,Green.png,3.0,1,,,,,,,,,,,,,,,,,
0.0,1.0,0.542955,0.0,18.0,18.0,18.0,1.0,typewriter_11s.jpg,0.0,Blue.png,4.0,1,,,,,,,,,,,,,,,,,
0.0,1.0,0.506855,0.0,19.0,19.0,19.0,1.0,thread_08s.jpg,0.0,Purple.png,4.0,1,,,,,,,,,,,,,,,,,
0.0,1.0,0.537015,0.0,20.0,20.0,20.0,1.0,bean_06s.jpg,0.0,Red.png,4.0,1,,,,,,,,,,,,,,,,,
0.0,1.0,0.45571,0.0,21.0,21.0,21.0,1.0,rolling_pin_02s.jpg,0.0,Orange.png,4.0,1,,,,,,,,,,,,,,,,,
0.0,1.0,0.501845,0.0,22.0,22.0,22.0,1.0,tattoo_14s.jpg,0.0,Yellow.png,4.0,1,,,,,,,,,,,,,,,,,
0.0,1.0,0.854975,0.0,23.0,23.0,23.0,1.0,eiffeltower.jpg,0.0,Green.png,4.0,1,,,,,,,,,,,,,,,,,
0.0,1.0,0.829405,0.0,24.0,24.0,24.0,1.0,fondue_07s.jpg,0.0,Blue.png,5.0,1,,,,,,,,,,,,,,,,,
0.0,1.0,0.677405,0.0,25.0,25.0,25.0,1.0,fondue_07s.jpg,0.0,Purple.png,5.0,1,,,,,,,,,,,,,,,,,
0.0,1.0,1.031375,0.0,26.0,26.0,26.0,1.0,omelet_07s.jpg,0.0,Red.png,5.0,1,,,,,,,,,,,,,,,,,
1.0,1.0,0.944685,0.0,27.0,27.0,27.0,1.0,fondue_07s.jpg,1.0,Orange.png,5.0,1,,,,,,,,,,,,,,,,,
0.0,1.0,0.493535,0.0,28.0,28.0,28.0,1.0,radio_09s.jpg,0.0,Yellow.png,5.0,1,,,,,,,,,,,,,,,,,
1.0,1.0,0.820165,0.0,29.0,29.0,29.0,1.0,fondue_07s.jpg,1.0,Green.png,5.0,1,,,,,,,,,,,,,,,,,
0.0,1.0,0.676245,0.0,30.0,30.0,30.0,1.0,roller_coaster_07s.jpg,0.0,Blue.png,6.0,1,,,,,,,,,,,,,,,,,
0.0,1.0,0.52442,0.0,31.0,31.0,31.0,1.0,loveseat_08s.jpg,0.0,Purple.png,6.0,1,,,,,,,,,,,,,,,,,
1.0,1.0,0.728015,0.0,32.0,32.0,32.0,1.0,roller_coaster_07s.jpg,1.0,Red.png,6.0,1,,,,,,,,,,,,,,,,,
0.0,1.0,1.020205,0.0,33.0,33.0,33.0,1.0,roller_coaster_07s.jpg,0.0,Orange.png,6.0,1,,,,,,,,,,,,,,,,,
1.0,1.0,0.637625,0.0,34.0,34.0,34.0,1.0,roller_coaster_07s.jpg,1.0,Yellow.png,6.0,1,,,,,,,,,,,,,,,,,
1.0,1.0,0.62395,0.0,35.0,35.0,35.0,1.0,roller_coaster_07s.jpg,1.0,Green.png,6.0,1,,,,,,,,,,,,,,,,,
,,,,,,,,,0.0,,,1,1.0,0.0,1.75821,0.0,0.0,0.0,0.0,1.0,loveseat_08s.jpg,radio_09s.jpg,,,,,,,
,,,,,,,,,1.0,,,1,0.0,0.0,1.38599,0.0,1.0,1.0,1.0,1.0,dashboard_02s.jpg,thorn_13s.jpg,,,,,,,
,,,,,,,,,0.0,,,1,1.0,0.0,1.11034,0.0,2.0,2.0,2.0,1.0,champagne_18s.jpg,peach_04s.jpg,,,,,,,
,,,,,,,,,1.0,,,1,0.0,0.0,1.196665,0.0,3.0,3.0,3.0,1.0,mitten_10s.jpg,stump_02s.jpg,,,,,,,
,,,,,,,,,1.0,,,1,1.0,1.0,1.329715,0.0,4.0,4.0,4.0,1.0,typewriter_11s.jpg,rolling_pin_02s.jpg,,,,,,,
,,,,,,,,,1.0,,,1,1.0,1.0,1.258305,0.0,5.0,5.0,5.0,1.0,thread_08s.jpg,tattoo_14s.jpg,,,,,,,
,,,,,,,,,,,,1,,,,,,,,,,,0.0,8.0,8.0,8.0,1.0,new2backpresent_9_2.xlsx,new2back_compare_task_9_2.xlsx
