key_resp.keys,key_resp.corr,key_resp.rt,present_segment.thisRepN,present_segment.thisTrialN,present_segment.thisN,present_segment.thisIndex,present_segment.ran,pictures,answer,clock,segment,participant,key_resp_2.keys,key_resp_2.corr,key_resp_2.rt,compare_segment.thisRepN,compare_segment.thisTrialN,compare_segment.thisN,compare_segment.thisIndex,compare_segment.ran,item_a,item_b,clock_conditions.thisRepN,clock_conditions.thisTrialN,clock_conditions.thisN,clock_conditions.thisIndex,clock_conditions.ran,present,compare
0.0,1.0,1.374235,0.0,0.0,0.0,0.0,1.0,mirror_12s.jpg,0.0,Blue.png,1.0,49,,,,,,,,,,,,,,,,,
0.0,1.0,0.75353,0.0,1.0,1.0,1.0,1.0,polaroid_05s.jpg,0.0,Purple.png,1.0,49,,,,,,,,,,,,,,,,,
1.0,0.0,1.10989,0.0,2.0,2.0,2.0,1.0,polaroid_05s.jpg,0.0,Red.png,1.0,49,,,,,,,,,,,,,,,,,
0.0,1.0,0.54188,0.0,3.0,3.0,3.0,1.0,slingshot_07s.jpg,0.0,Orange.png,1.0,49,,,,,,,,,,,,,,,,,
1.0,1.0,1.01221,0.0,4.0,4.0,4.0,1.0,polaroid_05s.jpg,1.0,Yellow.png,1.0,49,,,,,,,,,,,,,,,,,
0.0,1.0,0.53797,0.0,5.0,5.0,5.0,1.0,kettle_08s.jpg,0.0,Green.png,1.0,49,,,,,,,,,,,,,,,,,
0.0,1.0,0.66078,0.0,6.0,6.0,6.0,1.0,crystal_ball_12s.jpg,0.0,Blue.png,2.0,49,,,,,,,,,,,,,,,,,
0.0,1.0,0.727,0.0,7.0,7.0,7.0,1.0,iron_13s.jpg,0.0,Purple.png,2.0,49,,,,,,,,,,,,,,,,,
0.0,1.0,0.458405,0.0,8.0,8.0,8.0,1.0,saddle_06s.jpg,0.0,Red.png,2.0,49,,,,,,,,,,,,,,,,,
0.0,1.0,0.462555,0.0,9.0,9.0,9.0,1.0,mango_09s.jpg,0.0,Orange.png,2.0,49,,,,,,,,,,,,,,,,,
0.0,1.0,0.61289,0.0,10.0,10.0,10.0,1.0,ostrich_06s.jpg,0.0,Yellow.png,2.0,49,,,,,,,,,,,,,,,,,
1.0,0.0,0.692075,0.0,11.0,11.0,11.0,1.0,iron_13s.jpg,0.0,Green.png,2.0,49,,,,,,,,,,,,,,,,,
0.0,1.0,0.73583,0.0,12.0,12.0,12.0,1.0,stethoscope_01b.jpg,0.0,Blue.png,3.0,49,,,,,,,,,,,,,,,,,
0.0,1.0,0.673425,0.0,13.0,13.0,13.0,1.0,ruby_15s.jpg,0.0,Purple.png,3.0,49,,,,,,,,,,,,,,,,,
1.0,0.0,0.97751,0.0,14.0,14.0,14.0,1.0,mango_09s.jpg,0.0,Red.png,3.0,49,,,,,,,,,,,,,,,,,
0.0,1.0,0.70985,0.0,15.0,15.0,15.0,1.0,target_11s.jpg,0.0,Orange.png,3.0,49,,,,,,,,,,,,,,,,,
1.0,1.0,1.009645,0.0,16.0,16.0,16.0,1.0,mango_09s.jpg,1.0,Yellow.png,3.0,49,,,,,,,,,,,,,,,,,
0.0,1.0,0.74222,0.0,17.0,17.0,17.0,1.0,compass_10n.jpg,0.0,Green.png,3.0,49,,,,,,,,,,,,,,,,,
0.0,1.0,0.54144,0.0,18.0,18.0,18.0,1.0,meatball_13s.jpg,0.0,Blue.png,4.0,49,,,,,,,,,,,,,,,,,
0.0,1.0,0.60493,0.0,19.0,19.0,19.0,1.0,stapler_01b.jpg,0.0,Purple.png,4.0,49,,,,,,,,,,,,,,,,,
1.0,1.0,1.16505,0.0,20.0,20.0,20.0,1.0,meatball_13s.jpg,1.0,Red.png,4.0,49,,,,,,,,,,,,,,,,,
0.0,1.0,0.53858,0.0,21.0,21.0,21.0,1.0,pump_11s.jpg,0.0,Orange.png,4.0,49,,,,,,,,,,,,,,,,,
0.0,1.0,0.602375,0.0,22.0,22.0,22.0,1.0,coral_08s.jpg,0.0,Yellow.png,4.0,49,,,,,,,,,,,,,,,,,
1.0,0.0,1.09344,0.0,23.0,23.0,23.0,1.0,meatball_13s.jpg,0.0,Green.png,4.0,49,,,,,,,,,,,,,,,,,
0.0,1.0,0.67293,0.0,24.0,24.0,24.0,1.0,peach_04s.jpg,0.0,Blue.png,5.0,49,,,,,,,,,,,,,,,,,
1.0,1.0,1.14393,0.0,25.0,25.0,25.0,1.0,meatball_13s.jpg,1.0,Purple.png,5.0,49,,,,,,,,,,,,,,,,,
0.0,1.0,0.515445,0.0,26.0,26.0,26.0,1.0,pie_08s.jpg,0.0,Red.png,5.0,49,,,,,,,,,,,,,,,,,
0.0,1.0,0.64502,0.0,27.0,27.0,27.0,1.0,rollerskate_03s.jpg,0.0,Orange.png,5.0,49,,,,,,,,,,,,,,,,,
0.0,1.0,0.607685,0.0,28.0,28.0,28.0,1.0,trampoline_13s.jpg,0.0,Yellow.png,5.0,49,,,,,,,,,,,,,,,,,
0.0,1.0,0.604375,0.0,29.0,29.0,29.0,1.0,undershirt_02s.jpg,0.0,Green.png,5.0,49,,,,,,,,,,,,,,,,,
0.0,1.0,0.47137,0.0,30.0,30.0,30.0,1.0,thread_08s.jpg,0.0,Blue.png,6.0,49,,,,,,,,,,,,,,,,,
0.0,1.0,0.52953,0.0,31.0,31.0,31.0,1.0,megaphone_03s.jpg,0.0,Purple.png,6.0,49,,,,,,,,,,,,,,,,,
0.0,1.0,0.539555,0.0,32.0,32.0,32.0,1.0,plaster_cast_13s.jpg,0.0,Red.png,6.0,49,,,,,,,,,,,,,,,,,
0.0,1.0,0.74006,0.0,33.0,33.0,33.0,1.0,diving_board_07s.jpg,0.0,Orange.png,6.0,49,,,,,,,,,,,,,,,,,
0.0,1.0,0.55449,0.0,34.0,34.0,34.0,1.0,kayak_08s.jpg,0.0,Yellow.png,6.0,49,,,,,,,,,,,,,,,,,
0.0,0.0,0.472185,0.0,35.0,35.0,35.0,1.0,diving_board_07s.jpg,1.0,Green.png,6.0,49,,,,,,,,,,,,,,,,,
,,,,,,,,,1.0,,,49,1.0,1.0,1.95729,0.0,0.0,0.0,0.0,1.0,stapler_01b.jpg,coral_08s.jpg,,,,,,,
,,,,,,,,,1.0,,,49,0.0,0.0,2.201795,0.0,1.0,1.0,1.0,1.0,slingshot_07s.jpg,crystal_ball_12s.jpg,,,,,,,
,,,,,,,,,0.0,,,49,0.0,1.0,2.1978,0.0,2.0,2.0,2.0,1.0,saddle_06s.jpg,kettle_08s.jpg,,,,,,,
,,,,,,,,,1.0,,,49,1.0,1.0,1.336835,0.0,3.0,3.0,3.0,1.0,pie_08s.jpg,undershirt_02s.jpg,,,,,,,
,,,,,,,,,1.0,,,49,0.0,0.0,2.538925,0.0,4.0,4.0,4.0,1.0,stethoscope_01b.jpg,target_11s.jpg,,,,,,,
,,,,,,,,,1.0,,,49,1.0,1.0,2.675325,0.0,5.0,5.0,5.0,1.0,ostrich_06s.jpg,ruby_15s.jpg,,,,,,,
,,,,,,,,,,,,49,,,,,,,,,,,0.0,0.0,0.0,0.0,1.0,new2backpresent_1_4.xlsx,new2back_compare_task_1_4.xlsx
0.0,1.0,0.81947,0.0,0.0,0.0,0.0,1.0,jetski_10s.jpg,0.0,Blue.png,1.0,49,,,,,,,,,,,,,,,,,
0.0,1.0,0.906805,0.0,1.0,1.0,1.0,1.0,tripod_01b.jpg,0.0,Purple.png,1.0,49,,,,,,,,,,,,,,,,,
0.0,1.0,0.78175,0.0,2.0,2.0,2.0,1.0,lab_coat_11s.jpg,0.0,Red.png,1.0,49,,,,,,,,,,,,,,,,,
0.0,1.0,0.599125,0.0,3.0,3.0,3.0,1.0,foam_03s.jpg,0.0,Orange.png,1.0,49,,,,,,,,,,,,,,,,,
0.0,1.0,0.607175,0.0,4.0,4.0,4.0,1.0,crate_05s.jpg,0.0,Yellow.png,1.0,49,,,,,,,,,,,,,,,,,
0.0,1.0,0.551765,0.0,5.0,5.0,5.0,1.0,margarita_03s.jpg,0.0,Green.png,1.0,49,,,,,,,,,,,,,,,,,
0.0,1.0,0.672105,0.0,6.0,6.0,6.0,1.0,joystick_01b.jpg,0.0,Blue.png,2.0,49,,,,,,,,,,,,,,,,,
0.0,1.0,0.60725,0.0,7.0,7.0,7.0,1.0,giraffe_11s.jpg,0.0,Purple.png,2.0,49,,,,,,,,,,,,,,,,,
0.0,1.0,0.54065,0.0,8.0,8.0,8.0,1.0,quilt_03s.jpg,0.0,Red.png,2.0,49,,,,,,,,,,,,,,,,,
1.0,1.0,0.87226,0.0,9.0,9.0,9.0,1.0,giraffe_11s.jpg,1.0,Orange.png,2.0,49,,,,,,,,,,,,,,,,,
0.0,1.0,0.7418,0.0,10.0,10.0,10.0,1.0,pincushion_10s.jpg,0.0,Yellow.png,2.0,49,,,,,,,,,,,,,,,,,
1.0,1.0,1.04134,0.0,11.0,11.0,11.0,1.0,giraffe_11s.jpg,1.0,Green.png,2.0,49,,,,,,,,,,,,,,,,,
1.0,1.0,1.078755,0.0,12.0,12.0,12.0,1.0,pincushion_10s.jpg,1.0,Blue.png,3.0,49,,,,,,,,,,,,,,,,,
1.0,1.0,0.816455,0.0,13.0,13.0,13.0,1.0,giraffe_11s.jpg,1.0,Purple.png,3.0,49,,,,,,,,,,,,,,,,,
0.0,1.0,0.741115,0.0,14.0,14.0,14.0,1.0,rolling_pin_02s.jpg,0.0,Red.png,3.0,49,,,,,,,,,,,,,,,,,
0.0,1.0,0.56506,0.0,15.0,15.0,15.0,1.0,ticktacktoe_08s.jpg,0.0,Orange.png,3.0,49,,,,,,,,,,,,,,,,,
1.0,0.0,1.132645,0.0,16.0,16.0,16.0,1.0,giraffe_11s.jpg,0.0,Yellow.png,3.0,49,,,,,,,,,,,,,,,,,
1.0,1.0,1.227445,0.0,17.0,17.0,17.0,1.0,ticktacktoe_08s.jpg,1.0,Green.png,3.0,49,,,,,,,,,,,,,,,,,
0.0,1.0,0.77604,0.0,18.0,18.0,18.0,1.0,typewriter_11s.jpg,0.0,Blue.png,4.0,49,,,,,,,,,,,,,,,,,
0.0,1.0,0.6084,0.0,19.0,19.0,19.0,1.0,toothpaste_12s.jpg,0.0,Purple.png,4.0,49,,,,,,,,,,,,,,,,,
0.0,1.0,0.606845,0.0,20.0,20.0,20.0,1.0,hummingbird_05s.jpg,0.0,Red.png,4.0,49,,,,,,,,,,,,,,,,,
1.0,1.0,1.27418,0.0,21.0,21.0,21.0,1.0,toothpaste_12s.jpg,1.0,Orange.png,4.0,49,,,,,,,,,,,,,,,,,
1.0,0.0,1.0012,0.0,22.0,22.0,22.0,1.0,toothpaste_12s.jpg,0.0,Yellow.png,4.0,49,,,,,,,,,,,,,,,,,
0.0,1.0,0.605295,0.0,23.0,23.0,23.0,1.0,treadmill_06s.jpg,0.0,Green.png,4.0,49,,,,,,,,,,,,,,,,,
0.0,1.0,1.410135,0.0,24.0,24.0,24.0,1.0,typewriter_11s.jpg,0.0,Blue.png,5.0,49,,,,,,,,,,,,,,,,,
0.0,1.0,0.54037,0.0,25.0,25.0,25.0,1.0,penguin_16s.jpg,0.0,Purple.png,5.0,49,,,,,,,,,,,,,,,,,
0.0,1.0,0.602705,0.0,26.0,26.0,26.0,1.0,olive_05s.jpg,0.0,Red.png,5.0,49,,,,,,,,,,,,,,,,,
1.0,1.0,1.14266,0.0,27.0,27.0,27.0,1.0,penguin_16s.jpg,1.0,Orange.png,5.0,49,,,,,,,,,,,,,,,,,
1.0,0.0,0.925715,0.0,28.0,28.0,28.0,1.0,penguin_16s.jpg,0.0,Yellow.png,5.0,49,,,,,,,,,,,,,,,,,
0.0,1.0,0.606975,0.0,29.0,29.0,29.0,1.0,tab_09s.jpg,0.0,Green.png,5.0,49,,,,,,,,,,,,,,,,,
0.0,1.0,0.546925,0.0,30.0,30.0,30.0,1.0,frame_06s.jpg,0.0,Blue.png,6.0,49,,,,,,,,,,,,,,,,,
0.0,1.0,0.607445,0.0,31.0,31.0,31.0,1.0,mop_08s.jpg,0.0,Purple.png,6.0,49,,,,,,,,,,,,,,,,,
0.0,1.0,0.605805,0.0,32.0,32.0,32.0,1.0,memory_stick_11s.jpg,0.0,Red.png,6.0,49,,,,,,,,,,,,,,,,,
1.0,0.0,1.14205,0.0,33.0,33.0,33.0,1.0,olive_05s.jpg,0.0,Orange.png,6.0,49,,,,,,,,,,,,,,,,,
0.0,1.0,0.61238,0.0,34.0,34.0,34.0,1.0,ravioli_08s.jpg,0.0,Yellow.png,6.0,49,,,,,,,,,,,,,,,,,
0.0,1.0,0.941285,0.0,35.0,35.0,35.0,1.0,mousetrap_15n.jpg,0.0,Green.png,6.0,49,,,,,,,,,,,,,,,,,
,,,,,,,,,1.0,,,49,0.0,0.0,1.94016,0.0,0.0,0.0,0.0,1.0,hummingbird_05s.jpg,treadmill_06s.jpg,,,,,,,
,,,,,,,,,1.0,,,49,1.0,1.0,1.58829,0.0,1.0,1.0,1.0,1.0,margarita_03s.jpg,quilt_03s.jpg,,,,,,,
,,,,,,,,,0.0,,,49,0.0,1.0,1.872365,0.0,2.0,2.0,2.0,1.0,joystick_01b.jpg,foam_03s.jpg,,,,,,,
,,,,,,,,,0.0,,,49,0.0,1.0,1.50423,0.0,3.0,3.0,3.0,1.0,ravioli_08s.jpg,mop_08s.jpg,,,,,,,
,,,,,,,,,1.0,,,49,0.0,0.0,1.657015,0.0,4.0,4.0,4.0,1.0,tab_09s.jpg,memory_stick_11s.jpg,,,,,,,
,,,,,,,,,1.0,,,49,0.0,0.0,1.18354,0.0,5.0,5.0,5.0,1.0,tripod_01b.jpg,crate_05s.jpg,,,,,,,
,,,,,,,,,,,,49,,,,,,,,,,,0.0,1.0,1.0,1.0,1.0,new2backpresent_2_4.xlsx,new2back_compare_task_2_4.xlsx
0.0,1.0,1.00894,0.0,0.0,0.0,0.0,1.0,safety_pin_02s.jpg,0.0,Blue.png,1.0,49,,,,,,,,,,,,,,,,,
1.0,0.0,1.27486,0.0,1.0,1.0,1.0,1.0,safety_pin_02s.jpg,0.0,Purple.png,1.0,49,,,,,,,,,,,,,,,,,
0.0,1.0,0.7058,0.0,2.0,2.0,2.0,1.0,cardinal_07s.jpg,0.0,Red.png,1.0,49,,,,,,,,,,,,,,,,,
1.0,1.0,0.67304,0.0,3.0,3.0,3.0,1.0,safety_pin_02s.jpg,1.0,Orange.png,1.0,49,,,,,,,,,,,,,,,,,
0.0,1.0,0.609085,0.0,4.0,4.0,4.0,1.0,potholder_02s.jpg,0.0,Yellow.png,1.0,49,,,,,,,,,,,,,,,,,
1.0,1.0,1.066885,0.0,5.0,5.0,5.0,1.0,safety_pin_02s.jpg,1.0,Green.png,1.0,49,,,,,,,,,,,,,,,,,
1.0,0.0,1.077985,0.0,6.0,6.0,6.0,1.0,cardinal_07s.jpg,0.0,Blue.png,2.0,49,,,,,,,,,,,,,,,,,
0.0,1.0,0.60557,0.0,7.0,7.0,7.0,1.0,lion_18s.jpg,0.0,Purple.png,2.0,49,,,,,,,,,,,,,,,,,
0.0,1.0,0.67223,0.0,8.0,8.0,8.0,1.0,comic_book_02s.jpg,0.0,Red.png,2.0,49,,,,,,,,,,,,,,,,,
0.0,1.0,0.67529,0.0,9.0,9.0,9.0,1.0,lizard_10n.jpg,0.0,Orange.png,2.0,49,,,,,,,,,,,,,,,,,
0.0,1.0,0.55836,0.0,10.0,10.0,10.0,1.0,rice_12s.jpg,0.0,Yellow.png,2.0,49,,,,,,,,,,,,,,,,,
0.0,1.0,0.544075,0.0,11.0,11.0,11.0,1.0,bagel_15s.jpg,0.0,Green.png,2.0,49,,,,,,,,,,,,,,,,,
0.0,1.0,0.54007,0.0,12.0,12.0,12.0,1.0,recliner_02s.jpg,0.0,Blue.png,3.0,49,,,,,,,,,,,,,,,,,
1.0,0.0,1.275755,0.0,13.0,13.0,13.0,1.0,recliner_02s.jpg,0.0,Purple.png,3.0,49,,,,,,,,,,,,,,,,,
0.0,1.0,0.528995,0.0,14.0,14.0,14.0,1.0,luggage_08s.jpg,0.0,Red.png,3.0,49,,,,,,,,,,,,,,,,,
1.0,1.0,1.13179,0.0,15.0,15.0,15.0,1.0,recliner_02s.jpg,1.0,Orange.png,3.0,49,,,,,,,,,,,,,,,,,
0.0,1.0,0.53029,0.0,16.0,16.0,16.0,1.0,onion_10s.jpg,0.0,Yellow.png,3.0,49,,,,,,,,,,,,,,,,,
0.0,1.0,0.53975,0.0,17.0,17.0,17.0,1.0,rosary_03s.jpg,0.0,Green.png,3.0,49,,,,,,,,,,,,,,,,,
0.0,1.0,0.565775,0.0,18.0,18.0,18.0,1.0,smokingpipe.jpg,0.0,Blue.png,4.0,49,,,,,,,,,,,,,,,,,
0.0,1.0,0.539495,0.0,19.0,19.0,19.0,1.0,roulette_wheel_04s.jpg,0.0,Purple.png,4.0,49,,,,,,,,,,,,,,,,,
1.0,1.0,1.27656,0.0,20.0,20.0,20.0,1.0,smokingpipe.jpg,1.0,Red.png,4.0,49,,,,,,,,,,,,,,,,,
0.0,1.0,0.605035,0.0,21.0,21.0,21.0,1.0,orchid_01b.jpg,0.0,Orange.png,4.0,49,,,,,,,,,,,,,,,,,
0.0,1.0,0.53996,0.0,22.0,22.0,22.0,1.0,buoy_04s.jpg,0.0,Yellow.png,4.0,49,,,,,,,,,,,,,,,,,
0.0,1.0,0.53735,0.0,23.0,23.0,23.0,1.0,stopwatch_04s.jpg,0.0,Green.png,4.0,49,,,,,,,,,,,,,,,,,
0.0,1.0,0.6084,0.0,24.0,24.0,24.0,1.0,knitting_needle_04s.jpg,0.0,Blue.png,5.0,49,,,,,,,,,,,,,,,,,
0.0,1.0,0.611935,0.0,25.0,25.0,25.0,1.0,prism_10s.jpg,0.0,Purple.png,5.0,49,,,,,,,,,,,,,,,,,
0.0,1.0,0.67386,0.0,26.0,26.0,26.0,1.0,teapot_03s.jpg,0.0,Red.png,5.0,49,,,,,,,,,,,,,,,,,
0.0,1.0,0.539565,0.0,27.0,27.0,27.0,1.0,fire_pit_10s.jpg,0.0,Orange.png,5.0,49,,,,,,,,,,,,,,,,,
1.0,0.0,1.452725,0.0,28.0,28.0,28.0,1.0,fire_pit_10s.jpg,0.0,Yellow.png,5.0,49,,,,,,,,,,,,,,,,,
1.0,1.0,1.058995,0.0,29.0,29.0,29.0,1.0,fire_pit_10s.jpg,1.0,Green.png,5.0,49,,,,,,,,,,,,,,,,,
0.0,1.0,0.476275,0.0,30.0,30.0,30.0,1.0,ironing_board_07s.jpg,0.0,Blue.png,6.0,49,,,,,,,,,,,,,,,,,
1.0,1.0,1.21189,0.0,31.0,31.0,31.0,1.0,fire_pit_10s.jpg,1.0,Purple.png,6.0,49,,,,,,,,,,,,,,,,,
0.0,1.0,0.676765,0.0,32.0,32.0,32.0,1.0,mattress_01s.jpg,0.0,Red.png,6.0,49,,,,,,,,,,,,,,,,,
1.0,1.0,1.20427,0.0,33.0,33.0,33.0,1.0,fire_pit_10s.jpg,1.0,Orange.png,6.0,49,,,,,,,,,,,,,,,,,
1.0,1.0,1.196155,0.0,34.0,34.0,34.0,1.0,mattress_01s.jpg,1.0,Yellow.png,6.0,49,,,,,,,,,,,,,,,,,
0.0,1.0,0.597225,0.0,35.0,35.0,35.0,1.0,ice-cream_cone_06s.jpg,0.0,Green.png,6.0,49,,,,,,,,,,,,,,,,,
,,,,,,,,,1.0,,,49,1.0,1.0,2.377565,0.0,0.0,0.0,0.0,1.0,roulette_wheel_04s.jpg,buoy_04s.jpg,,,,,,,
,,,,,,,,,0.0,,,49,0.0,1.0,1.60316,0.0,1.0,1.0,1.0,1.0,lion_18s.jpg,potholder_02s.jpg,,,,,,,
,,,,,,,,,0.0,,,49,1.0,0.0,2.006025,0.0,2.0,2.0,2.0,1.0,bagel_15s.jpg,comic_book_02s.jpg,,,,,,,
,,,,,,,,,1.0,,,49,0.0,0.0,1.942305,0.0,3.0,3.0,3.0,1.0,stopwatch_04s.jpg,teapot_03s.jpg,,,,,,,
,,,,,,,,,1.0,,,49,0.0,0.0,1.676955,0.0,4.0,4.0,4.0,1.0,luggage_08s.jpg,rosary_03s.jpg,,,,,,,
,,,,,,,,,1.0,,,49,1.0,1.0,1.936435,0.0,5.0,5.0,5.0,1.0,orchid_01b.jpg,knitting_needle_04s.jpg,,,,,,,
,,,,,,,,,,,,49,,,,,,,,,,,0.0,2.0,2.0,2.0,1.0,new2backpresent_3_4.xlsx,new2back_compare_task_3_4.xlsx
0.0,1.0,1.030895,0.0,0.0,0.0,0.0,1.0,smoothie_09s.jpg,0.0,Blue.png,1.0,49,,,,,,,,,,,,,,,,,
0.0,1.0,0.762385,0.0,1.0,1.0,1.0,1.0,raspberry_12s.jpg,0.0,Purple.png,1.0,49,,,,,,,,,,,,,,,,,
1.0,0.0,1.07895,0.0,2.0,2.0,2.0,1.0,raspberry_12s.jpg,0.0,Red.png,1.0,49,,,,,,,,,,,,,,,,,
0.0,1.0,0.538815,0.0,3.0,3.0,3.0,1.0,lamb_chop_07s.jpg,0.0,Orange.png,1.0,49,,,,,,,,,,,,,,,,,
1.0,0.0,1.141945,0.0,4.0,4.0,4.0,1.0,smoothie_09s.jpg,0.0,Yellow.png,1.0,49,,,,,,,,,,,,,,,,,
1.0,0.0,1.078065,0.0,5.0,5.0,5.0,1.0,raspberry_12s.jpg,0.0,Green.png,1.0,49,,,,,,,,,,,,,,,,,
0.0,1.0,0.53974,0.0,6.0,6.0,6.0,1.0,lava_02s.jpg,0.0,Blue.png,2.0,49,,,,,,,,,,,,,,,,,
0.0,1.0,0.74122,0.0,7.0,7.0,7.0,1.0,trident_07s.jpg,0.0,Purple.png,2.0,49,,,,,,,,,,,,,,,,,
1.0,0.0,1.27435,0.0,8.0,8.0,8.0,1.0,trident_07s.jpg,0.0,Red.png,2.0,49,,,,,,,,,,,,,,,,,
1.0,1.0,0.99615,0.0,9.0,9.0,9.0,1.0,trident_07s.jpg,1.0,Orange.png,2.0,49,,,,,,,,,,,,,,,,,
0.0,1.0,0.607055,0.0,10.0,10.0,10.0,1.0,orangutan_03s.jpg,0.0,Yellow.png,2.0,49,,,,,,,,,,,,,,,,,
1.0,1.0,1.11174,0.0,11.0,11.0,11.0,1.0,trident_07s.jpg,1.0,Green.png,2.0,49,,,,,,,,,,,,,,,,,
1.0,0.0,1.26253,0.0,12.0,12.0,12.0,1.0,raspberry_12s.jpg,0.0,Blue.png,3.0,49,,,,,,,,,,,,,,,,,
1.0,1.0,1.008365,0.0,13.0,13.0,13.0,1.0,trident_07s.jpg,1.0,Purple.png,3.0,49,,,,,,,,,,,,,,,,,
0.0,1.0,0.738095,0.0,14.0,14.0,14.0,1.0,lavender_10s.jpg,0.0,Red.png,3.0,49,,,,,,,,,,,,,,,,,
0.0,1.0,0.538995,0.0,15.0,15.0,15.0,1.0,chip_04s.jpg,0.0,Orange.png,3.0,49,,,,,,,,,,,,,,,,,
0.0,1.0,0.740785,0.0,16.0,16.0,16.0,1.0,lamb_04s.jpg,0.0,Yellow.png,3.0,49,,,,,,,,,,,,,,,,,
0.0,1.0,1.664725,0.0,17.0,17.0,17.0,1.0,emerald_02s.jpg,0.0,Green.png,3.0,49,,,,,,,,,,,,,,,,,
0.0,1.0,1.53031,0.0,18.0,18.0,18.0,1.0,pineapple_12s.jpg,0.0,Blue.png,4.0,49,,,,,,,,,,,,,,,,,
0.0,1.0,0.73909,0.0,19.0,19.0,19.0,1.0,sundae_08s.jpg,0.0,Purple.png,4.0,49,,,,,,,,,,,,,,,,,
1.0,0.0,1.21518,0.0,20.0,20.0,20.0,1.0,sundae_08s.jpg,0.0,Red.png,4.0,49,,,,,,,,,,,,,,,,,
0.0,1.0,0.56022,0.0,21.0,21.0,21.0,1.0,squirrel_02s.jpg,0.0,Orange.png,4.0,49,,,,,,,,,,,,,,,,,
0.0,1.0,0.540135,0.0,22.0,22.0,22.0,1.0,roller_coaster_07s.jpg,0.0,Yellow.png,4.0,49,,,,,,,,,,,,,,,,,
0.0,1.0,0.527825,0.0,23.0,23.0,23.0,1.0,sundae_08s.jpg,0.0,Green.png,4.0,49,,,,,,,,,,,,,,,,,
0.0,1.0,0.60351,0.0,24.0,24.0,24.0,1.0,tweezers_03s.jpg,0.0,Blue.png,5.0,49,,,,,,,,,,,,,,,,,
1.0,1.0,1.127395,0.0,25.0,25.0,25.0,1.0,sundae_08s.jpg,1.0,Purple.png,5.0,49,,,,,,,,,,,,,,,,,
0.0,1.0,0.675555,0.0,26.0,26.0,26.0,1.0,rudder_02s.jpg,0.0,Red.png,5.0,49,,,,,,,,,,,,,,,,,
0.0,1.0,0.74027,0.0,27.0,27.0,27.0,1.0,rake_06s.jpg,0.0,Orange.png,5.0,49,,,,,,,,,,,,,,,,,
1.0,0.0,1.204795,0.0,28.0,28.0,28.0,1.0,rake_06s.jpg,0.0,Yellow.png,5.0,49,,,,,,,,,,,,,,,,,
1.0,1.0,1.19553,0.0,29.0,29.0,29.0,1.0,rake_06s.jpg,1.0,Green.png,5.0,49,,,,,,,,,,,,,,,,,
0.0,1.0,0.59338,0.0,30.0,30.0,30.0,1.0,cap_05s.jpg,0.0,Blue.png,6.0,49,,,,,,,,,,,,,,,,,
0.0,1.0,0.55648,0.0,31.0,31.0,31.0,1.0,paper_towel_03s.jpg,0.0,Purple.png,6.0,49,,,,,,,,,,,,,,,,,
0.0,1.0,0.676815,0.0,32.0,32.0,32.0,1.0,toaster_03s.jpg,0.0,Red.png,6.0,49,,,,,,,,,,,,,,,,,
0.0,1.0,0.939365,0.0,33.0,33.0,33.0,1.0,money_07s.jpg,0.0,Orange.png,6.0,49,,,,,,,,,,,,,,,,,
0.0,1.0,0.74213,0.0,34.0,34.0,34.0,1.0,pinwheel_06s.jpg,0.0,Yellow.png,6.0,49,,,,,,,,,,,,,,,,,
0.0,1.0,0.67293,0.0,35.0,35.0,35.0,1.0,lid_10s.jpg,0.0,Green.png,6.0,49,,,,,,,,,,,,,,,,,
,,,,,,,,,0.0,,,49,1.0,0.0,3.33628,0.0,0.0,0.0,0.0,1.0,tweezers_03s.jpg,squirrel_02s.jpg,,,,,,,
,,,,,,,,,1.0,,,49,0.0,0.0,2.475125,0.0,1.0,1.0,1.0,1.0,chip_04s.jpg,pineapple_12s.jpg,,,,,,,
,,,,,,,,,1.0,,,49,1.0,1.0,1.60507,0.0,2.0,2.0,2.0,1.0,lamb_chop_07s.jpg,lava_02s.jpg,,,,,,,
,,,,,,,,,0.0,,,49,1.0,0.0,1.823295,0.0,3.0,3.0,3.0,1.0,pinwheel_06s.jpg,paper_towel_03s.jpg,,,,,,,
,,,,,,,,,0.0,,,49,0.0,1.0,1.537805,0.0,4.0,4.0,4.0,1.0,emerald_02s.jpg,lavender_10s.jpg,,,,,,,
,,,,,,,,,0.0,,,49,1.0,0.0,2.005555,0.0,5.0,5.0,5.0,1.0,money_07s.jpg,cap_05s.jpg,,,,,,,
,,,,,,,,,,,,49,,,,,,,,,,,0.0,3.0,3.0,3.0,1.0,new2backpresent_4_4.xlsx,new2back_compare_task_4_4.xlsx
0.0,1.0,1.475965,0.0,0.0,0.0,0.0,1.0,fur_coat_11s.jpg,0.0,Blue.png,1.0,49,,,,,,,,,,,,,,,,,
0.0,1.0,0.56359,0.0,1.0,1.0,1.0,1.0,crayon_09s.jpg,0.0,Purple.png,1.0,49,,,,,,,,,,,,,,,,,
0.0,1.0,0.539405,0.0,2.0,2.0,2.0,1.0,cobra_05s.jpg,0.0,Red.png,1.0,49,,,,,,,,,,,,,,,,,
0.0,1.0,0.54182,0.0,3.0,3.0,3.0,1.0,raccoon_02s.jpg,0.0,Orange.png,1.0,49,,,,,,,,,,,,,,,,,
0.0,1.0,0.607395,0.0,4.0,4.0,4.0,1.0,soda_fountain_03s.jpg,0.0,Yellow.png,1.0,49,,,,,,,,,,,,,,,,,
1.0,1.0,0.93808,0.0,5.0,5.0,5.0,1.0,raccoon_02s.jpg,1.0,Green.png,1.0,49,,,,,,,,,,,,,,,,,
0.0,1.0,0.552305,0.0,6.0,6.0,6.0,1.0,feather02.jpg,0.0,Blue.png,2.0,49,,,,,,,,,,,,,,,,,
1.0,1.0,1.07176,0.0,7.0,7.0,7.0,1.0,raccoon_02s.jpg,1.0,Purple.png,2.0,49,,,,,,,,,,,,,,,,,
1.0,1.0,1.14164,0.0,8.0,8.0,8.0,1.0,feather02.jpg,1.0,Red.png,2.0,49,,,,,,,,,,,,,,,,,
0.0,1.0,0.60518,0.0,9.0,9.0,9.0,1.0,rug_09s.jpg,0.0,Orange.png,2.0,49,,,,,,,,,,,,,,,,,
1.0,1.0,1.064035,0.0,10.0,10.0,10.0,1.0,feather02.jpg,1.0,Yellow.png,2.0,49,,,,,,,,,,,,,,,,,
0.0,1.0,0.59466,0.0,11.0,11.0,11.0,1.0,cushion_08s.jpg,0.0,Green.png,2.0,49,,,,,,,,,,,,,,,,,
1.0,1.0,0.941265,0.0,12.0,12.0,12.0,1.0,feather02.jpg,1.0,Blue.png,3.0,49,,,,,,,,,,,,,,,,,
1.0,0.0,1.03597,0.0,13.0,13.0,13.0,1.0,feather02.jpg,0.0,Purple.png,3.0,49,,,,,,,,,,,,,,,,,
0.0,1.0,0.550805,0.0,14.0,14.0,14.0,1.0,ice_pack_09s.jpg,0.0,Red.png,3.0,49,,,,,,,,,,,,,,,,,
1.0,0.0,1.14531,0.0,15.0,15.0,15.0,1.0,ice_pack_09s.jpg,0.0,Orange.png,3.0,49,,,,,,,,,,,,,,,,,
0.0,1.0,0.539545,0.0,16.0,16.0,16.0,1.0,loom_05s.jpg,0.0,Yellow.png,3.0,49,,,,,,,,,,,,,,,,,
1.0,1.0,1.03728,0.0,17.0,17.0,17.0,1.0,ice_pack_09s.jpg,1.0,Green.png,3.0,49,,,,,,,,,,,,,,,,,
1.0,0.0,0.91094,0.0,18.0,18.0,18.0,1.0,ice_pack_09s.jpg,0.0,Blue.png,4.0,49,,,,,,,,,,,,,,,,,
1.0,1.0,0.90727,0.0,19.0,19.0,19.0,1.0,ice_pack_09s.jpg,1.0,Purple.png,4.0,49,,,,,,,,,,,,,,,,,
1.0,1.0,0.87767,0.0,20.0,20.0,20.0,1.0,ice_pack_09s.jpg,1.0,Red.png,4.0,49,,,,,,,,,,,,,,,,,
0.0,1.0,1.008515,0.0,21.0,21.0,21.0,1.0,blazer_02s.jpg,0.0,Orange.png,4.0,49,,,,,,,,,,,,,,,,,
0.0,1.0,0.804115,0.0,22.0,22.0,22.0,1.0,penlight_12s.jpg,0.0,Yellow.png,4.0,49,,,,,,,,,,,,,,,,,
0.0,1.0,1.145475,0.0,23.0,23.0,23.0,1.0,swan_11s.jpg,0.0,Green.png,4.0,49,,,,,,,,,,,,,,,,,
0.0,1.0,0.54173,0.0,24.0,24.0,24.0,1.0,plunger_08s.jpg,0.0,Blue.png,5.0,49,,,,,,,,,,,,,,,,,
0.0,1.0,0.61924,0.0,25.0,25.0,25.0,1.0,bottle_opener_11s.jpg,0.0,Purple.png,5.0,49,,,,,,,,,,,,,,,,,
0.0,1.0,0.53726,0.0,26.0,26.0,26.0,1.0,checkbook_11s.jpg,0.0,Red.png,5.0,49,,,,,,,,,,,,,,,,,
0.0,1.0,0.538245,0.0,27.0,27.0,27.0,1.0,ink_08s.jpg,0.0,Orange.png,5.0,49,,,,,,,,,,,,,,,,,
1.0,0.0,1.076405,0.0,28.0,28.0,28.0,1.0,plunger_08s.jpg,0.0,Yellow.png,5.0,49,,,,,,,,,,,,,,,,,
0.0,1.0,0.60665,0.0,29.0,29.0,29.0,1.0,pencil02a.jpg,0.0,Green.png,5.0,49,,,,,,,,,,,,,,,,,
0.0,1.0,0.541825,0.0,30.0,30.0,30.0,1.0,ginger_09s.jpg,0.0,Blue.png,6.0,49,,,,,,,,,,,,,,,,,
0.0,1.0,0.534065,0.0,31.0,31.0,31.0,1.0,taxi_15s.jpg,0.0,Purple.png,6.0,49,,,,,,,,,,,,,,,,,
0.0,1.0,0.53977,0.0,32.0,32.0,32.0,1.0,toy_04s.jpg,0.0,Red.png,6.0,49,,,,,,,,,,,,,,,,,
0.0,1.0,0.550215,0.0,33.0,33.0,33.0,1.0,blowfish_03s.jpg,0.0,Orange.png,6.0,49,,,,,,,,,,,,,,,,,
0.0,1.0,0.501525,0.0,34.0,34.0,34.0,1.0,toilet_paper_12s.jpg,0.0,Yellow.png,6.0,49,,,,,,,,,,,,,,,,,
0.0,1.0,0.60902,0.0,35.0,35.0,35.0,1.0,puddle_02s.jpg,0.0,Green.png,6.0,49,,,,,,,,,,,,,,,,,
,,,,,,,,,1.0,,,49,0.0,0.0,2.071515,0.0,0.0,0.0,0.0,1.0,ink_08s.jpg,ginger_09s.jpg,,,,,,,
,,,,,,,,,0.0,,,49,1.0,0.0,1.95471,0.0,1.0,1.0,1.0,1.0,puddle_02s.jpg,toy_04s.jpg,,,,,,,
,,,,,,,,,0.0,,,49,0.0,1.0,2.146415,0.0,2.0,2.0,2.0,1.0,bottle_opener_11s.jpg,penlight_12s.jpg,,,,,,,
,,,,,,,,,0.0,,,49,0.0,1.0,2.295515,0.0,3.0,3.0,3.0,1.0,checkbook_11s.jpg,swan_11s.jpg,,,,,,,
,,,,,,,,,1.0,,,49,1.0,1.0,1.802495,0.0,4.0,4.0,4.0,1.0,taxi_15s.jpg,toilet_paper_12s.jpg,,,,,,,
,,,,,,,,,1.0,,,49,1.0,1.0,2.557345,0.0,5.0,5.0,5.0,1.0,crayon_09s.jpg,soda_fountain_03s.jpg,,,,,,,
,,,,,,,,,,,,49,,,,,,,,,,,0.0,4.0,4.0,4.0,1.0,new2backpresent_5_4.xlsx,new2back_compare_task_5_4.xlsx
0.0,1.0,1.007125,0.0,0.0,0.0,0.0,1.0,flask_04s.jpg,0.0,Blue.png,1.0,49,,,,,,,,,,,,,,,,,
0.0,1.0,0.76884,0.0,1.0,1.0,1.0,1.0,kimono_13s.jpg,0.0,Purple.png,1.0,49,,,,,,,,,,,,,,,,,
0.0,1.0,0.67297,0.0,2.0,2.0,2.0,1.0,limousine_12s.jpg,0.0,Red.png,1.0,49,,,,,,,,,,,,,,,,,
0.0,1.0,0.470185,0.0,3.0,3.0,3.0,1.0,lectern_08s.jpg,0.0,Orange.png,1.0,49,,,,,,,,,,,,,,,,,
1.0,0.0,1.19386,0.0,4.0,4.0,4.0,1.0,kimono_13s.jpg,0.0,Yellow.png,1.0,49,,,,,,,,,,,,,,,,,
0.0,1.0,0.46791,0.0,5.0,5.0,5.0,1.0,doily_13s.jpg,0.0,Green.png,1.0,49,,,,,,,,,,,,,,,,,
1.0,1.0,1.079315,0.0,6.0,6.0,6.0,1.0,kimono_13s.jpg,1.0,Blue.png,2.0,49,,,,,,,,,,,,,,,,,
0.0,1.0,0.72917,0.0,7.0,7.0,7.0,1.0,razor_blade_01b.jpg,0.0,Purple.png,2.0,49,,,,,,,,,,,,,,,,,
1.0,0.0,1.0909,0.0,8.0,8.0,8.0,1.0,razor_blade_01b.jpg,0.0,Red.png,2.0,49,,,,,,,,,,,,,,,,,
0.0,1.0,0.47066,0.0,9.0,9.0,9.0,1.0,champagne_18s.jpg,0.0,Orange.png,2.0,49,,,,,,,,,,,,,,,,,
0.0,1.0,0.60742,0.0,10.0,10.0,10.0,1.0,stamp1_11s.jpg,0.0,Yellow.png,2.0,49,,,,,,,,,,,,,,,,,
1.0,1.0,1.079995,0.0,11.0,11.0,11.0,1.0,champagne_18s.jpg,1.0,Green.png,2.0,49,,,,,,,,,,,,,,,,,
0.0,1.0,0.7077,0.0,12.0,12.0,12.0,1.0,crossbow_10s.jpg,0.0,Blue.png,3.0,49,,,,,,,,,,,,,,,,,
0.0,1.0,1.54082,0.0,13.0,13.0,13.0,1.0,briefcase_03s.jpg,0.0,Purple.png,3.0,49,,,,,,,,,,,,,,,,,
0.0,1.0,0.604325,0.0,14.0,14.0,14.0,1.0,jersey_02s.jpg,0.0,Red.png,3.0,49,,,,,,,,,,,,,,,,,
1.0,1.0,1.157655,0.0,15.0,15.0,15.0,1.0,briefcase_03s.jpg,1.0,Orange.png,3.0,49,,,,,,,,,,,,,,,,,
0.0,1.0,0.60742,0.0,16.0,16.0,16.0,1.0,oil_02s.jpg,0.0,Yellow.png,3.0,49,,,,,,,,,,,,,,,,,
0.0,1.0,0.858695,0.0,17.0,17.0,17.0,1.0,tinsel_12s.jpg,0.0,Green.png,3.0,49,,,,,,,,,,,,,,,,,
0.0,1.0,0.832575,0.0,18.0,18.0,18.0,1.0,flask_04s.jpg,0.0,Blue.png,4.0,49,,,,,,,,,,,,,,,,,
0.0,1.0,0.45983,0.0,19.0,19.0,19.0,1.0,fork_04s.jpg,0.0,Purple.png,4.0,49,,,,,,,,,,,,,,,,,
0.0,1.0,0.607185,0.0,20.0,20.0,20.0,1.0,purse_05s.jpg,0.0,Red.png,4.0,49,,,,,,,,,,,,,,,,,
1.0,0.0,1.27265,0.0,21.0,21.0,21.0,1.0,flask_04s.jpg,0.0,Orange.png,4.0,49,,,,,,,,,,,,,,,,,
0.0,1.0,0.707315,0.0,22.0,22.0,22.0,1.0,sledgehammer_03s.jpg,0.0,Yellow.png,4.0,49,,,,,,,,,,,,,,,,,
0.0,1.0,0.813655,0.0,23.0,23.0,23.0,1.0,turf_03s.jpg,0.0,Green.png,4.0,49,,,,,,,,,,,,,,,,,
0.0,1.0,0.494125,0.0,24.0,24.0,24.0,1.0,omelet_07s.jpg,0.0,Blue.png,5.0,49,,,,,,,,,,,,,,,,,
1.0,1.0,1.212785,0.0,25.0,25.0,25.0,1.0,turf_03s.jpg,1.0,Purple.png,5.0,49,,,,,,,,,,,,,,,,,
0.0,1.0,1.833365,0.0,26.0,26.0,26.0,1.0,clover_04s.jpg,0.0,Red.png,5.0,49,,,,,,,,,,,,,,,,,
0.0,1.0,0.60382,0.0,27.0,27.0,27.0,1.0,lip_gloss_06s.jpg,0.0,Orange.png,5.0,49,,,,,,,,,,,,,,,,,
0.0,1.0,0.457815,0.0,28.0,28.0,28.0,1.0,amber_04s.jpg,0.0,Yellow.png,5.0,49,,,,,,,,,,,,,,,,,
0.0,1.0,0.7289,0.0,29.0,29.0,29.0,1.0,tortilla_06s.jpg,0.0,Green.png,5.0,49,,,,,,,,,,,,,,,,,
1.0,0.0,1.19907,0.0,30.0,30.0,30.0,1.0,razor_blade_01b.jpg,0.0,Blue.png,6.0,49,,,,,,,,,,,,,,,,,
0.0,1.0,0.73791,0.0,31.0,31.0,31.0,1.0,tape_measure_11s.jpg,0.0,Purple.png,6.0,49,,,,,,,,,,,,,,,,,
1.0,1.0,1.18972,0.0,32.0,32.0,32.0,1.0,razor_blade_01b.jpg,1.0,Red.png,6.0,49,,,,,,,,,,,,,,,,,
1.0,0.0,1.35277,0.0,33.0,33.0,33.0,1.0,razor_blade_01b.jpg,0.0,Orange.png,6.0,49,,,,,,,,,,,,,,,,,
0.0,1.0,1.117765,0.0,34.0,34.0,34.0,1.0,stingray_02s.jpg,0.0,Yellow.png,6.0,49,,,,,,,,,,,,,,,,,
0.0,1.0,0.54033,0.0,35.0,35.0,35.0,1.0,harpoon.jpg,0.0,Green.png,6.0,49,,,,,,,,,,,,,,,,,
,,,,,,,,,1.0,,,49,0.0,0.0,2.19852,0.0,0.0,0.0,0.0,1.0,oil_02s.jpg,fork_04s.jpg,,,,,,,
,,,,,,,,,0.0,,,49,1.0,0.0,1.736345,0.0,1.0,1.0,1.0,1.0,doily_13s.jpg,limousine_12s.jpg,,,,,,,
,,,,,,,,,0.0,,,49,0.0,1.0,2.742335,0.0,2.0,2.0,2.0,1.0,lip_gloss_06s.jpg,omelet_07s.jpg,,,,,,,
,,,,,,,,,0.0,,,49,0.0,1.0,1.80623,0.0,3.0,3.0,3.0,1.0,tape_measure_11s.jpg,amber_04s.jpg,,,,,,,
,,,,,,,,,0.0,,,49,1.0,0.0,1.67279,0.0,4.0,4.0,4.0,1.0,tortilla_06s.jpg,clover_04s.jpg,,,,,,,
,,,,,,,,,0.0,,,49,1.0,0.0,2.07353,0.0,5.0,5.0,5.0,1.0,purse_05s.jpg,tinsel_12s.jpg,,,,,,,
,,,,,,,,,,,,49,,,,,,,,,,,0.0,5.0,5.0,5.0,1.0,new2backpresent_6_4.xlsx,new2back_compare_task_6_4.xlsx
0.0,1.0,0.99333,0.0,0.0,0.0,0.0,1.0,butter_14s.jpg,0.0,Blue.png,1.0,49,,,,,,,,,,,,,,,,,
1.0,0.0,1.14285,0.0,1.0,1.0,1.0,1.0,butter_14s.jpg,0.0,Purple.png,1.0,49,,,,,,,,,,,,,,,,,
1.0,1.0,0.993035,0.0,2.0,2.0,2.0,1.0,butter_14s.jpg,1.0,Red.png,1.0,49,,,,,,,,,,,,,,,,,
0.0,1.0,1.008475,0.0,3.0,3.0,3.0,1.0,stamp2_08s.jpg,0.0,Orange.png,1.0,49,,,,,,,,,,,,,,,,,
0.0,1.0,0.47253,0.0,4.0,4.0,4.0,1.0,kangaroo_02s.jpg,0.0,Yellow.png,1.0,49,,,,,,,,,,,,,,,,,
0.0,1.0,0.459665,0.0,5.0,5.0,5.0,1.0,camcorder_10s.jpg,0.0,Green.png,1.0,49,,,,,,,,,,,,,,,,,
0.0,1.0,0.53937,0.0,6.0,6.0,6.0,1.0,bank_06s.jpg,0.0,Blue.png,2.0,49,,,,,,,,,,,,,,,,,
0.0,1.0,0.53964,0.0,7.0,7.0,7.0,1.0,gear_07s.jpg,0.0,Purple.png,2.0,49,,,,,,,,,,,,,,,,,
1.0,1.0,1.06838,0.0,8.0,8.0,8.0,1.0,bank_06s.jpg,1.0,Red.png,2.0,49,,,,,,,,,,,,,,,,,
0.0,1.0,0.538795,0.0,9.0,9.0,9.0,1.0,funnel_01b.jpg,0.0,Orange.png,2.0,49,,,,,,,,,,,,,,,,,
0.0,1.0,0.60248,0.0,10.0,10.0,10.0,1.0,poinsettia_04s.jpg,0.0,Yellow.png,2.0,49,,,,,,,,,,,,,,,,,
1.0,1.0,1.00634,0.0,11.0,11.0,11.0,1.0,funnel_01b.jpg,1.0,Green.png,2.0,49,,,,,,,,,,,,,,,,,
0.0,1.0,0.544745,0.0,12.0,12.0,12.0,1.0,rooster_03s.jpg,0.0,Blue.png,3.0,49,,,,,,,,,,,,,,,,,
0.0,1.0,0.558035,0.0,13.0,13.0,13.0,1.0,denture_03s.jpg,0.0,Purple.png,3.0,49,,,,,,,,,,,,,,,,,
0.0,1.0,0.56165,0.0,14.0,14.0,14.0,1.0,bean_06s.jpg,0.0,Red.png,3.0,49,,,,,,,,,,,,,,,,,
0.0,1.0,0.97056,0.0,15.0,15.0,15.0,1.0,mud_13s.jpg,0.0,Orange.png,3.0,49,,,,,,,,,,,,,,,,,
0.0,1.0,0.607995,0.0,16.0,16.0,16.0,1.0,keyhole_03s.jpg,0.0,Yellow.png,3.0,49,,,,,,,,,,,,,,,,,
1.0,0.0,1.77579,0.0,17.0,17.0,17.0,1.0,bean_06s.jpg,0.0,Green.png,3.0,49,,,,,,,,,,,,,,,,,
1.0,0.0,1.745295,0.0,18.0,18.0,18.0,1.0,bank_06s.jpg,0.0,Blue.png,4.0,49,,,,,,,,,,,,,,,,,
0.0,1.0,1.676005,0.0,19.0,19.0,19.0,1.0,pomegranate_04s.jpg,0.0,Purple.png,4.0,49,,,,,,,,,,,,,,,,,
0.0,1.0,1.47372,0.0,20.0,20.0,20.0,1.0,chopsticks_08s.jpg,0.0,Red.png,4.0,49,,,,,,,,,,,,,,,,,
0.0,1.0,1.209835,0.0,21.0,21.0,21.0,1.0,contact_lens_15s.jpg,0.0,Orange.png,4.0,49,,,,,,,,,,,,,,,,,
0.0,1.0,1.142335,0.0,22.0,22.0,22.0,1.0,hydrant_10s.jpg,0.0,Yellow.png,4.0,49,,,,,,,,,,,,,,,,,
0.0,1.0,0.47414,0.0,23.0,23.0,23.0,1.0,gingerbread_man_03s.jpg,0.0,Green.png,4.0,49,,,,,,,,,,,,,,,,,
0.0,1.0,1.6787,0.0,24.0,24.0,24.0,1.0,camcorder_10s.jpg,0.0,Blue.png,5.0,49,,,,,,,,,,,,,,,,,
0.0,1.0,0.672805,0.0,25.0,25.0,25.0,1.0,teabag_12s.jpg,0.0,Purple.png,5.0,49,,,,,,,,,,,,,,,,,
0.0,1.0,1.607385,0.0,26.0,26.0,26.0,1.0,radiator_05s.jpg,0.0,Red.png,5.0,49,,,,,,,,,,,,,,,,,
0.0,1.0,1.255275,0.0,27.0,27.0,27.0,1.0,punch1_10s.jpg,0.0,Orange.png,5.0,49,,,,,,,,,,,,,,,,,
0.0,1.0,1.073635,0.0,28.0,28.0,28.0,1.0,mailbox_11s.jpg,0.0,Yellow.png,5.0,49,,,,,,,,,,,,,,,,,
0.0,1.0,1.039415,0.0,29.0,29.0,29.0,1.0,beaker_01b.jpg,0.0,Green.png,5.0,49,,,,,,,,,,,,,,,,,
1.0,1.0,1.342205,0.0,30.0,30.0,30.0,1.0,mailbox_11s.jpg,1.0,Blue.png,6.0,49,,,,,,,,,,,,,,,,,
0.0,1.0,1.200525,0.0,31.0,31.0,31.0,1.0,pipe1_10s.jpg,0.0,Purple.png,6.0,49,,,,,,,,,,,,,,,,,
1.0,1.0,1.2774,0.0,32.0,32.0,32.0,1.0,mailbox_11s.jpg,1.0,Red.png,6.0,49,,,,,,,,,,,,,,,,,
1.0,1.0,1.542795,0.0,33.0,33.0,33.0,1.0,pipe1_10s.jpg,1.0,Orange.png,6.0,49,,,,,,,,,,,,,,,,,
0.0,1.0,1.34351,0.0,34.0,34.0,34.0,1.0,eyedropper_12s.jpg,0.0,Yellow.png,6.0,49,,,,,,,,,,,,,,,,,
0.0,1.0,1.272345,0.0,35.0,35.0,35.0,1.0,rhubarb_03s.jpg,0.0,Green.png,6.0,49,,,,,,,,,,,,,,,,,
,,,,,,,,,0.0,,,49,0.0,1.0,1.48382,0.0,0.0,0.0,0.0,1.0,mud_13s.jpg,rooster_03s.jpg,,,,,,,
,,,,,,,,,1.0,,,49,1.0,1.0,1.870375,0.0,1.0,1.0,1.0,1.0,chopsticks_08s.jpg,gingerbread_man_03s.jpg,,,,,,,
,,,,,,,,,0.0,,,49,1.0,0.0,2.60232,0.0,2.0,2.0,2.0,1.0,beaker_01b.jpg,radiator_05s.jpg,,,,,,,
,,,,,,,,,0.0,,,49,0.0,1.0,2.41711,0.0,3.0,3.0,3.0,1.0,teabag_12s.jpg,hydrant_10s.jpg,,,,,,,
,,,,,,,,,0.0,,,49,0.0,1.0,2.092885,0.0,4.0,4.0,4.0,1.0,denture_03s.jpg,poinsettia_04s.jpg,,,,,,,
,,,,,,,,,1.0,,,49,0.0,0.0,1.89964,0.0,5.0,5.0,5.0,1.0,kangaroo_02s.jpg,gear_07s.jpg,,,,,,,
,,,,,,,,,,,,49,,,,,,,,,,,0.0,6.0,6.0,6.0,1.0,new2backpresent_7_4.xlsx,new2back_compare_task_7_4.xlsx
0.0,1.0,1.627175,0.0,0.0,0.0,0.0,1.0,lamppost_09s.jpg,0.0,Blue.png,1.0,49,,,,,,,,,,,,,,,,,
0.0,1.0,0.93494,0.0,1.0,1.0,1.0,1.0,jewel_01b.jpg,0.0,Purple.png,1.0,49,,,,,,,,,,,,,,,,,
0.0,1.0,0.53223,0.0,2.0,2.0,2.0,1.0,tuxedo_01b.jpg,0.0,Red.png,1.0,49,,,,,,,,,,,,,,,,,
0.0,1.0,0.84842,0.0,3.0,3.0,3.0,1.0,flip_flop_03s.jpg,0.0,Orange.png,1.0,49,,,,,,,,,,,,,,,,,
0.0,1.0,0.67113,0.0,4.0,4.0,4.0,1.0,medal_04s.jpg,0.0,Yellow.png,1.0,49,,,,,,,,,,,,,,,,,
1.0,1.0,1.27445,0.0,5.0,5.0,5.0,1.0,flip_flop_03s.jpg,1.0,Green.png,1.0,49,,,,,,,,,,,,,,,,,
1.0,0.0,0.97145,0.0,6.0,6.0,6.0,1.0,tuxedo_01b.jpg,0.0,Blue.png,2.0,49,,,,,,,,,,,,,,,,,
1.0,1.0,1.200345,0.0,7.0,7.0,7.0,1.0,flip_flop_03s.jpg,1.0,Purple.png,2.0,49,,,,,,,,,,,,,,,,,
0.0,1.0,1.155505,0.0,8.0,8.0,8.0,1.0,fireworks_18s.jpg,0.0,Red.png,2.0,49,,,,,,,,,,,,,,,,,
0.0,1.0,1.210875,0.0,9.0,9.0,9.0,1.0,squirt_gun_03s.jpg,0.0,Orange.png,2.0,49,,,,,,,,,,,,,,,,,
1.0,0.0,1.065995,0.0,10.0,10.0,10.0,1.0,flip_flop_03s.jpg,0.0,Yellow.png,2.0,49,,,,,,,,,,,,,,,,,
0.0,1.0,0.55455,0.0,11.0,11.0,11.0,1.0,puffin_19s.jpg,0.0,Green.png,2.0,49,,,,,,,,,,,,,,,,,
1.0,0.0,1.932755,0.0,12.0,12.0,12.0,1.0,tuxedo_01b.jpg,0.0,Blue.png,3.0,49,,,,,,,,,,,,,,,,,
1.0,0.0,1.33213,0.0,13.0,13.0,13.0,1.0,tuxedo_01b.jpg,0.0,Purple.png,3.0,49,,,,,,,,,,,,,,,,,
0.0,1.0,1.346705,0.0,14.0,14.0,14.0,1.0,snowman_02s.jpg,0.0,Red.png,3.0,49,,,,,,,,,,,,,,,,,
0.0,1.0,1.20867,0.0,15.0,15.0,15.0,1.0,cucumber_07s.jpg,0.0,Orange.png,3.0,49,,,,,,,,,,,,,,,,,
0.0,1.0,1.477175,0.0,16.0,16.0,16.0,1.0,plug_08s.jpg,0.0,Yellow.png,3.0,49,,,,,,,,,,,,,,,,,
1.0,1.0,1.074555,0.0,17.0,17.0,17.0,1.0,cucumber_07s.jpg,1.0,Green.png,3.0,49,,,,,,,,,,,,,,,,,
1.0,0.0,1.14024,0.0,18.0,18.0,18.0,1.0,puffin_19s.jpg,0.0,Blue.png,4.0,49,,,,,,,,,,,,,,,,,
0.0,1.0,0.539925,0.0,19.0,19.0,19.0,1.0,fondue_07s.jpg,0.0,Purple.png,4.0,49,,,,,,,,,,,,,,,,,
0.0,1.0,0.947925,0.0,20.0,20.0,20.0,1.0,lasagna_06s.jpg,0.0,Red.png,4.0,49,,,,,,,,,,,,,,,,,
0.0,1.0,1.60599,0.0,21.0,21.0,21.0,1.0,eiffeltower.jpg,0.0,Orange.png,4.0,49,,,,,,,,,,,,,,,,,
0.0,1.0,1.112695,0.0,22.0,22.0,22.0,1.0,outlet_10s.jpg,0.0,Yellow.png,4.0,49,,,,,,,,,,,,,,,,,
0.0,1.0,1.09904,0.0,23.0,23.0,23.0,1.0,cape_11s.jpg,0.0,Green.png,4.0,49,,,,,,,,,,,,,,,,,
0.0,1.0,1.65781,0.0,24.0,24.0,24.0,1.0,marshmallow_08s.jpg,0.0,Blue.png,5.0,49,,,,,,,,,,,,,,,,,
0.0,1.0,1.20807,0.0,25.0,25.0,25.0,1.0,racehorse_03s.jpg,0.0,Purple.png,5.0,49,,,,,,,,,,,,,,,,,
0.0,1.0,0.6087,0.0,26.0,26.0,26.0,1.0,aluminum_foil_08s.jpg,0.0,Red.png,5.0,49,,,,,,,,,,,,,,,,,
0.0,1.0,1.60982,0.0,27.0,27.0,27.0,1.0,spoon02a.jpg,0.0,Orange.png,5.0,49,,,,,,,,,,,,,,,,,
0.0,1.0,0.607965,0.0,28.0,28.0,28.0,1.0,padlock_07s.jpg,0.0,Yellow.png,5.0,49,,,,,,,,,,,,,,,,,
0.0,1.0,0.60695,0.0,29.0,29.0,29.0,1.0,solar_panel_02s.jpg,0.0,Green.png,5.0,49,,,,,,,,,,,,,,,,,
0.0,1.0,0.80789,0.0,30.0,30.0,30.0,1.0,turtleneck_11s.jpg,0.0,Blue.png,6.0,49,,,,,,,,,,,,,,,,,
0.0,1.0,0.607545,0.0,31.0,31.0,31.0,1.0,pocketknife_12s.jpg,0.0,Purple.png,6.0,49,,,,,,,,,,,,,,,,,
1.0,0.0,1.07085,0.0,32.0,32.0,32.0,1.0,pocketknife_12s.jpg,0.0,Red.png,6.0,49,,,,,,,,,,,,,,,,,
0.0,1.0,0.545355,0.0,33.0,33.0,33.0,1.0,quill_09s.jpg,0.0,Orange.png,6.0,49,,,,,,,,,,,,,,,,,
0.0,1.0,0.5373,0.0,34.0,34.0,34.0,1.0,quill_09s.jpg,0.0,Yellow.png,6.0,49,,,,,,,,,,,,,,,,,
1.0,0.0,0.97587,0.0,35.0,35.0,35.0,1.0,pocketknife_12s.jpg,0.0,Green.png,6.0,49,,,,,,,,,,,,,,,,,
,,,,,,,,,0.0,,,49,0.0,1.0,2.55426,0.0,0.0,0.0,0.0,1.0,cape_11s.jpg,lasagna_06s.jpg,,,,,,,
,,,,,,,,,0.0,,,49,0.0,1.0,2.00514,0.0,1.0,1.0,1.0,1.0,padlock_07s.jpg,racehorse_03s.jpg,,,,,,,
,,,,,,,,,1.0,,,49,1.0,1.0,1.80842,0.0,2.0,2.0,2.0,1.0,spoon02a.jpg,turtleneck_11s.jpg,,,,,,,
,,,,,,,,,0.0,,,49,1.0,0.0,1.870625,0.0,3.0,3.0,3.0,1.0,marshmallow_08s.jpg,eiffeltower.jpg,,,,,,,
,,,,,,,,,0.0,,,49,0.0,1.0,1.33771,0.0,4.0,4.0,4.0,1.0,medal_04s.jpg,jewel_01b.jpg,,,,,,,
,,,,,,,,,1.0,,,49,0.0,0.0,1.80623,0.0,5.0,5.0,5.0,1.0,plug_08s.jpg,fondue_07s.jpg,,,,,,,
,,,,,,,,,,,,49,,,,,,,,,,,0.0,7.0,7.0,7.0,1.0,new2backpresent_8_4.xlsx,new2back_compare_task_8_4.xlsx
0.0,1.0,1.00754,0.0,0.0,0.0,0.0,1.0,footprint_11s.jpg,0.0,Blue.png,1.0,49,,,,,,,,,,,,,,,,,
0.0,1.0,0.60457,0.0,1.0,1.0,1.0,1.0,coffee_filter_10s.jpg,0.0,Purple.png,1.0,49,,,,,,,,,,,,,,,,,
1.0,0.0,1.00822,0.0,2.0,2.0,2.0,1.0,coffee_filter_10s.jpg,0.0,Red.png,1.0,49,,,,,,,,,,,,,,,,,
1.0,1.0,0.994535,0.0,3.0,3.0,3.0,1.0,coffee_filter_10s.jpg,1.0,Orange.png,1.0,49,,,,,,,,,,,,,,,,,
1.0,1.0,1.00523,0.0,4.0,4.0,4.0,1.0,coffee_filter_10s.jpg,1.0,Yellow.png,1.0,49,,,,,,,,,,,,,,,,,
0.0,1.0,0.54231,0.0,5.0,5.0,5.0,1.0,gargoyle_08s.jpg,0.0,Green.png,1.0,49,,,,,,,,,,,,,,,,,
0.0,1.0,0.59882,0.0,6.0,6.0,6.0,1.0,candy_cane_06s.jpg,0.0,Blue.png,2.0,49,,,,,,,,,,,,,,,,,
0.0,1.0,0.541395,0.0,7.0,7.0,7.0,1.0,toad_09s.jpg,0.0,Purple.png,2.0,49,,,,,,,,,,,,,,,,,
,0.0,,0.0,8.0,8.0,8.0,1.0,candy_cane_06s.jpg,1.0,Red.png,2.0,49,,,,,,,,,,,,,,,,,
0.0,1.0,0.538785,0.0,9.0,9.0,9.0,1.0,pumpkin_03s.jpg,0.0,Orange.png,2.0,49,,,,,,,,,,,,,,,,,
0.0,1.0,0.54033,0.0,10.0,10.0,10.0,1.0,dashboard_02s.jpg,0.0,Yellow.png,2.0,49,,,,,,,,,,,,,,,,,
0.0,1.0,1.40865,0.0,11.0,11.0,11.0,1.0,syringe_02s.jpg,0.0,Green.png,2.0,49,,,,,,,,,,,,,,,,,
0.0,1.0,0.99423,0.0,12.0,12.0,12.0,1.0,powder_07s.jpg,0.0,Blue.png,3.0,49,,,,,,,,,,,,,,,,,
1.0,0.0,0.95723,0.0,13.0,13.0,13.0,1.0,powder_07s.jpg,0.0,Purple.png,3.0,49,,,,,,,,,,,,,,,,,
1.0,1.0,0.994965,0.0,14.0,14.0,14.0,1.0,powder_07s.jpg,1.0,Red.png,3.0,49,,,,,,,,,,,,,,,,,
0.0,1.0,0.61124,0.0,15.0,15.0,15.0,1.0,sea_urchin_09s.jpg,0.0,Orange.png,3.0,49,,,,,,,,,,,,,,,,,
0.0,1.0,0.54304,0.0,16.0,16.0,16.0,1.0,throne_11s.jpg,0.0,Yellow.png,3.0,49,,,,,,,,,,,,,,,,,
1.0,0.0,1.007975,0.0,17.0,17.0,17.0,1.0,powder_07s.jpg,0.0,Green.png,3.0,49,,,,,,,,,,,,,,,,,
0.0,1.0,0.60688,0.0,18.0,18.0,18.0,1.0,chalice_10s.jpg,0.0,Blue.png,4.0,49,,,,,,,,,,,,,,,,,
0.0,1.0,0.67182,0.0,19.0,19.0,19.0,1.0,air_pump_05s.jpg,0.0,Purple.png,4.0,49,,,,,,,,,,,,,,,,,
0.0,1.0,0.60699,0.0,20.0,20.0,20.0,1.0,microwave_02s.jpg,0.0,Red.png,4.0,49,,,,,,,,,,,,,,,,,
0.0,1.0,0.60548,0.0,21.0,21.0,21.0,1.0,cereal_04s.jpg,0.0,Orange.png,4.0,49,,,,,,,,,,,,,,,,,
0.0,1.0,0.46758,0.0,22.0,22.0,22.0,1.0,mushroom_10n.jpg,0.0,Yellow.png,4.0,49,,,,,,,,,,,,,,,,,
0.0,1.0,0.523445,0.0,23.0,23.0,23.0,1.0,red_carpet_03s.jpg,0.0,Green.png,4.0,49,,,,,,,,,,,,,,,,,
1.0,0.0,1.073035,0.0,24.0,24.0,24.0,1.0,throne_11s.jpg,0.0,Blue.png,5.0,49,,,,,,,,,,,,,,,,,
0.0,1.0,0.53067,0.0,25.0,25.0,25.0,1.0,koala_13s.jpg,0.0,Purple.png,5.0,49,,,,,,,,,,,,,,,,,
1.0,1.0,1.342495,0.0,26.0,26.0,26.0,1.0,throne_11s.jpg,1.0,Red.png,5.0,49,,,,,,,,,,,,,,,,,
0.0,1.0,0.740325,0.0,27.0,27.0,27.0,1.0,rocket_02s.jpg,0.0,Orange.png,5.0,49,,,,,,,,,,,,,,,,,
0.0,1.0,0.66411,0.0,28.0,28.0,28.0,1.0,swordfish_05s.jpg,0.0,Yellow.png,5.0,49,,,,,,,,,,,,,,,,,
0.0,0.0,0.53987,0.0,29.0,29.0,29.0,1.0,rocket_02s.jpg,1.0,Green.png,5.0,49,,,,,,,,,,,,,,,,,
0.0,1.0,0.53909,0.0,30.0,30.0,30.0,1.0,icicle_04s.jpg,0.0,Blue.png,6.0,49,,,,,,,,,,,,,,,,,
0.0,1.0,0.53861,0.0,31.0,31.0,31.0,1.0,keyboard_05s.jpg,0.0,Purple.png,6.0,49,,,,,,,,,,,,,,,,,
0.0,1.0,0.61345,0.0,32.0,32.0,32.0,1.0,pocket_watch_16s.jpg,0.0,Red.png,6.0,49,,,,,,,,,,,,,,,,,
0.0,1.0,0.773255,0.0,33.0,33.0,33.0,1.0,tablet_04s.jpg,0.0,Orange.png,6.0,49,,,,,,,,,,,,,,,,,
0.0,1.0,0.50399,0.0,34.0,34.0,34.0,1.0,chocolate_01b.jpg,0.0,Yellow.png,6.0,49,,,,,,,,,,,,,,,,,
0.0,1.0,0.60598,0.0,35.0,35.0,35.0,1.0,light_switch_02s.jpg,0.0,Green.png,6.0,49,,,,,,,,,,,,,,,,,
,,,,,,,,,0.0,,,49,1.0,0.0,2.865455,0.0,0.0,0.0,0.0,1.0,chalice_10s.jpg,sea_urchin_09s.jpg,,,,,,,
,,,,,,,,,1.0,,,49,0.0,0.0,2.40722,0.0,1.0,1.0,1.0,1.0,swordfish_05s.jpg,keyboard_05s.jpg,,,,,,,
,,,,,,,,,0.0,,,49,1.0,0.0,1.709405,0.0,2.0,2.0,2.0,1.0,red_carpet_03s.jpg,microwave_02s.jpg,,,,,,,
,,,,,,,,,0.0,,,49,1.0,0.0,2.12852,0.0,3.0,3.0,3.0,1.0,dashboard_02s.jpg,toad_09s.jpg,,,,,,,
,,,,,,,,,0.0,,,49,1.0,0.0,2.141955,0.0,4.0,4.0,4.0,1.0,koala_13s.jpg,mushroom_10n.jpg,,,,,,,
,,,,,,,,,1.0,,,49,1.0,1.0,1.66869,0.0,5.0,5.0,5.0,1.0,icicle_04s.jpg,tablet_04s.jpg,,,,,,,
,,,,,,,,,,,,49,,,,,,,,,,,0.0,8.0,8.0,8.0,1.0,new2backpresent_9_4.xlsx,new2back_compare_task_9_4.xlsx
