key_resp.keys,key_resp.corr,key_resp.rt,present_segment.thisRepN,present_segment.thisTrialN,present_segment.thisN,present_segment.thisIndex,present_segment.ran,pictures,answer,clock,segment,participant,key_resp_2.keys,key_resp_2.corr,key_resp_2.rt,compare_segment.thisRepN,compare_segment.thisTrialN,compare_segment.thisN,compare_segment.thisIndex,compare_segment.ran,item_a,item_b,clock_conditions.thisRepN,clock_conditions.thisTrialN,clock_conditions.thisN,clock_conditions.thisIndex,clock_conditions.ran,present,compare
0.0,1.0,1.046865,0.0,0.0,0.0,0.0,1.0,mirror_12s.jpg,0.0,Blue.png,1.0,38,,,,,,,,,,,,,,,,,
0.0,1.0,0.724715,0.0,1.0,1.0,1.0,1.0,polaroid_05s.jpg,0.0,Purple.png,1.0,38,,,,,,,,,,,,,,,,,
1.0,0.0,0.70708,0.0,2.0,2.0,2.0,1.0,polaroid_05s.jpg,0.0,Red.png,1.0,38,,,,,,,,,,,,,,,,,
0.0,1.0,0.49801,0.0,3.0,3.0,3.0,1.0,slingshot_07s.jpg,0.0,Orange.png,1.0,38,,,,,,,,,,,,,,,,,
1.0,1.0,0.497895,0.0,4.0,4.0,4.0,1.0,polaroid_05s.jpg,1.0,Yellow.png,1.0,38,,,,,,,,,,,,,,,,,
0.0,1.0,0.549075,0.0,5.0,5.0,5.0,1.0,kettle_08s.jpg,0.0,Green.png,1.0,38,,,,,,,,,,,,,,,,,
0.0,1.0,0.70272,0.0,6.0,6.0,6.0,1.0,crystal_ball_12s.jpg,0.0,Blue.png,2.0,38,,,,,,,,,,,,,,,,,
0.0,1.0,0.5469,0.0,7.0,7.0,7.0,1.0,iron_13s.jpg,0.0,Purple.png,2.0,38,,,,,,,,,,,,,,,,,
0.0,1.0,0.529535,0.0,8.0,8.0,8.0,1.0,saddle_06s.jpg,0.0,Red.png,2.0,38,,,,,,,,,,,,,,,,,
0.0,1.0,0.65653,0.0,9.0,9.0,9.0,1.0,mango_09s.jpg,0.0,Orange.png,2.0,38,,,,,,,,,,,,,,,,,
0.0,1.0,0.497975,0.0,10.0,10.0,10.0,1.0,ostrich_06s.jpg,0.0,Yellow.png,2.0,38,,,,,,,,,,,,,,,,,
0.0,1.0,0.507295,0.0,11.0,11.0,11.0,1.0,iron_13s.jpg,0.0,Green.png,2.0,38,,,,,,,,,,,,,,,,,
0.0,1.0,1.45106,0.0,12.0,12.0,12.0,1.0,stethoscope_01b.jpg,0.0,Blue.png,3.0,38,,,,,,,,,,,,,,,,,
0.0,1.0,0.62816,0.0,13.0,13.0,13.0,1.0,ruby_15s.jpg,0.0,Purple.png,3.0,38,,,,,,,,,,,,,,,,,
0.0,1.0,0.823625,0.0,14.0,14.0,14.0,1.0,mango_09s.jpg,0.0,Red.png,3.0,38,,,,,,,,,,,,,,,,,
0.0,1.0,1.009095,0.0,15.0,15.0,15.0,1.0,target_11s.jpg,0.0,Orange.png,3.0,38,,,,,,,,,,,,,,,,,
1.0,1.0,1.05966,0.0,16.0,16.0,16.0,1.0,mango_09s.jpg,1.0,Yellow.png,3.0,38,,,,,,,,,,,,,,,,,
0.0,1.0,0.675455,0.0,17.0,17.0,17.0,1.0,compass_10n.jpg,0.0,Green.png,3.0,38,,,,,,,,,,,,,,,,,
0.0,1.0,0.55757,0.0,18.0,18.0,18.0,1.0,meatball_13s.jpg,0.0,Blue.png,4.0,38,,,,,,,,,,,,,,,,,
0.0,1.0,0.607535,0.0,19.0,19.0,19.0,1.0,stapler_01b.jpg,0.0,Purple.png,4.0,38,,,,,,,,,,,,,,,,,
1.0,1.0,0.87387,0.0,20.0,20.0,20.0,1.0,meatball_13s.jpg,1.0,Red.png,4.0,38,,,,,,,,,,,,,,,,,
0.0,1.0,0.531855,0.0,21.0,21.0,21.0,1.0,pump_11s.jpg,0.0,Orange.png,4.0,38,,,,,,,,,,,,,,,,,
0.0,1.0,0.49888,0.0,22.0,22.0,22.0,1.0,coral_08s.jpg,0.0,Yellow.png,4.0,38,,,,,,,,,,,,,,,,,
0.0,1.0,0.709575,0.0,23.0,23.0,23.0,1.0,meatball_13s.jpg,0.0,Green.png,4.0,38,,,,,,,,,,,,,,,,,
0.0,1.0,0.773415,0.0,24.0,24.0,24.0,1.0,peach_04s.jpg,0.0,Blue.png,5.0,38,,,,,,,,,,,,,,,,,
1.0,1.0,0.54119,0.0,25.0,25.0,25.0,1.0,meatball_13s.jpg,1.0,Purple.png,5.0,38,,,,,,,,,,,,,,,,,
0.0,1.0,0.47633,0.0,26.0,26.0,26.0,1.0,pie_08s.jpg,0.0,Red.png,5.0,38,,,,,,,,,,,,,,,,,
0.0,1.0,0.690055,0.0,27.0,27.0,27.0,1.0,rollerskate_03s.jpg,0.0,Orange.png,5.0,38,,,,,,,,,,,,,,,,,
0.0,1.0,0.657045,0.0,28.0,28.0,28.0,1.0,trampoline_13s.jpg,0.0,Yellow.png,5.0,38,,,,,,,,,,,,,,,,,
0.0,1.0,0.52722,0.0,29.0,29.0,29.0,1.0,undershirt_02s.jpg,0.0,Green.png,5.0,38,,,,,,,,,,,,,,,,,
0.0,1.0,0.41204,0.0,30.0,30.0,30.0,1.0,thread_08s.jpg,0.0,Blue.png,6.0,38,,,,,,,,,,,,,,,,,
0.0,1.0,0.45468,0.0,31.0,31.0,31.0,1.0,megaphone_03s.jpg,0.0,Purple.png,6.0,38,,,,,,,,,,,,,,,,,
0.0,1.0,0.63925,0.0,32.0,32.0,32.0,1.0,plaster_cast_13s.jpg,0.0,Red.png,6.0,38,,,,,,,,,,,,,,,,,
0.0,1.0,0.444825,0.0,33.0,33.0,33.0,1.0,diving_board_07s.jpg,0.0,Orange.png,6.0,38,,,,,,,,,,,,,,,,,
0.0,1.0,0.5402,0.0,34.0,34.0,34.0,1.0,kayak_08s.jpg,0.0,Yellow.png,6.0,38,,,,,,,,,,,,,,,,,
0.0,0.0,0.46031,0.0,35.0,35.0,35.0,1.0,diving_board_07s.jpg,1.0,Green.png,6.0,38,,,,,,,,,,,,,,,,,
,,,,,,,,,1.0,,,38,1.0,1.0,2.448115,0.0,0.0,0.0,0.0,1.0,stapler_01b.jpg,coral_08s.jpg,,,,,,,
,,,,,,,,,1.0,,,38,1.0,1.0,1.52916,0.0,1.0,1.0,1.0,1.0,slingshot_07s.jpg,crystal_ball_12s.jpg,,,,,,,
,,,,,,,,,0.0,,,38,1.0,0.0,1.97875,0.0,2.0,2.0,2.0,1.0,saddle_06s.jpg,kettle_08s.jpg,,,,,,,
,,,,,,,,,1.0,,,38,1.0,1.0,1.009505,0.0,3.0,3.0,3.0,1.0,pie_08s.jpg,undershirt_02s.jpg,,,,,,,
,,,,,,,,,1.0,,,38,1.0,1.0,1.494765,0.0,4.0,4.0,4.0,1.0,stethoscope_01b.jpg,target_11s.jpg,,,,,,,
,,,,,,,,,1.0,,,38,1.0,1.0,1.614755,0.0,5.0,5.0,5.0,1.0,ostrich_06s.jpg,ruby_15s.jpg,,,,,,,
,,,,,,,,,,,,38,,,,,,,,,,,0.0,0.0,0.0,0.0,1.0,new2backpresent_1_4.xlsx,new2back_compare_task_1_4.xlsx
0.0,1.0,1.616395,0.0,0.0,0.0,0.0,1.0,jetski_10s.jpg,0.0,Blue.png,1.0,38,,,,,,,,,,,,,,,,,
0.0,1.0,1.54764,0.0,1.0,1.0,1.0,1.0,tripod_01b.jpg,0.0,Purple.png,1.0,38,,,,,,,,,,,,,,,,,
0.0,1.0,0.60815,0.0,2.0,2.0,2.0,1.0,lab_coat_11s.jpg,0.0,Red.png,1.0,38,,,,,,,,,,,,,,,,,
0.0,1.0,0.99699,0.0,3.0,3.0,3.0,1.0,foam_03s.jpg,0.0,Orange.png,1.0,38,,,,,,,,,,,,,,,,,
0.0,1.0,1.04103,0.0,4.0,4.0,4.0,1.0,crate_05s.jpg,0.0,Yellow.png,1.0,38,,,,,,,,,,,,,,,,,
0.0,1.0,0.69366,0.0,5.0,5.0,5.0,1.0,margarita_03s.jpg,0.0,Green.png,1.0,38,,,,,,,,,,,,,,,,,
0.0,1.0,0.56727,0.0,6.0,6.0,6.0,1.0,joystick_01b.jpg,0.0,Blue.png,2.0,38,,,,,,,,,,,,,,,,,
0.0,1.0,0.62538,0.0,7.0,7.0,7.0,1.0,giraffe_11s.jpg,0.0,Purple.png,2.0,38,,,,,,,,,,,,,,,,,
0.0,1.0,0.65658,0.0,8.0,8.0,8.0,1.0,quilt_03s.jpg,0.0,Red.png,2.0,38,,,,,,,,,,,,,,,,,
1.0,1.0,0.89973,0.0,9.0,9.0,9.0,1.0,giraffe_11s.jpg,1.0,Orange.png,2.0,38,,,,,,,,,,,,,,,,,
0.0,1.0,0.606565,0.0,10.0,10.0,10.0,1.0,pincushion_10s.jpg,0.0,Yellow.png,2.0,38,,,,,,,,,,,,,,,,,
1.0,1.0,1.02529,0.0,11.0,11.0,11.0,1.0,giraffe_11s.jpg,1.0,Green.png,2.0,38,,,,,,,,,,,,,,,,,
1.0,1.0,0.93432,0.0,12.0,12.0,12.0,1.0,pincushion_10s.jpg,1.0,Blue.png,3.0,38,,,,,,,,,,,,,,,,,
1.0,1.0,0.57873,0.0,13.0,13.0,13.0,1.0,giraffe_11s.jpg,1.0,Purple.png,3.0,38,,,,,,,,,,,,,,,,,
0.0,1.0,0.674365,0.0,14.0,14.0,14.0,1.0,rolling_pin_02s.jpg,0.0,Red.png,3.0,38,,,,,,,,,,,,,,,,,
0.0,1.0,1.157955,0.0,15.0,15.0,15.0,1.0,ticktacktoe_08s.jpg,0.0,Orange.png,3.0,38,,,,,,,,,,,,,,,,,
0.0,1.0,1.01245,0.0,16.0,16.0,16.0,1.0,giraffe_11s.jpg,0.0,Yellow.png,3.0,38,,,,,,,,,,,,,,,,,
0.0,0.0,1.61571,0.0,17.0,17.0,17.0,1.0,ticktacktoe_08s.jpg,1.0,Green.png,3.0,38,,,,,,,,,,,,,,,,,
0.0,1.0,0.65623,0.0,18.0,18.0,18.0,1.0,typewriter_11s.jpg,0.0,Blue.png,4.0,38,,,,,,,,,,,,,,,,,
0.0,1.0,1.305955,0.0,19.0,19.0,19.0,1.0,toothpaste_12s.jpg,0.0,Purple.png,4.0,38,,,,,,,,,,,,,,,,,
0.0,1.0,0.89285,0.0,20.0,20.0,20.0,1.0,hummingbird_05s.jpg,0.0,Red.png,4.0,38,,,,,,,,,,,,,,,,,
1.0,1.0,0.843465,0.0,21.0,21.0,21.0,1.0,toothpaste_12s.jpg,1.0,Orange.png,4.0,38,,,,,,,,,,,,,,,,,
0.0,1.0,1.250715,0.0,22.0,22.0,22.0,1.0,toothpaste_12s.jpg,0.0,Yellow.png,4.0,38,,,,,,,,,,,,,,,,,
0.0,1.0,0.811115,0.0,23.0,23.0,23.0,1.0,treadmill_06s.jpg,0.0,Green.png,4.0,38,,,,,,,,,,,,,,,,,
0.0,1.0,1.44733,0.0,24.0,24.0,24.0,1.0,typewriter_11s.jpg,0.0,Blue.png,5.0,38,,,,,,,,,,,,,,,,,
0.0,1.0,0.892205,0.0,25.0,25.0,25.0,1.0,penguin_16s.jpg,0.0,Purple.png,5.0,38,,,,,,,,,,,,,,,,,
0.0,1.0,0.908215,0.0,26.0,26.0,26.0,1.0,olive_05s.jpg,0.0,Red.png,5.0,38,,,,,,,,,,,,,,,,,
1.0,1.0,0.953295,0.0,27.0,27.0,27.0,1.0,penguin_16s.jpg,1.0,Orange.png,5.0,38,,,,,,,,,,,,,,,,,
0.0,1.0,2.067175,0.0,28.0,28.0,28.0,1.0,penguin_16s.jpg,0.0,Yellow.png,5.0,38,,,,,,,,,,,,,,,,,
0.0,1.0,1.05858,0.0,29.0,29.0,29.0,1.0,tab_09s.jpg,0.0,Green.png,5.0,38,,,,,,,,,,,,,,,,,
0.0,1.0,0.72335,0.0,30.0,30.0,30.0,1.0,frame_06s.jpg,0.0,Blue.png,6.0,38,,,,,,,,,,,,,,,,,
0.0,1.0,1.498675,0.0,31.0,31.0,31.0,1.0,mop_08s.jpg,0.0,Purple.png,6.0,38,,,,,,,,,,,,,,,,,
0.0,1.0,0.743855,0.0,32.0,32.0,32.0,1.0,memory_stick_11s.jpg,0.0,Red.png,6.0,38,,,,,,,,,,,,,,,,,
0.0,1.0,0.78261,0.0,33.0,33.0,33.0,1.0,olive_05s.jpg,0.0,Orange.png,6.0,38,,,,,,,,,,,,,,,,,
0.0,1.0,0.79969,0.0,34.0,34.0,34.0,1.0,ravioli_08s.jpg,0.0,Yellow.png,6.0,38,,,,,,,,,,,,,,,,,
0.0,1.0,0.87831,0.0,35.0,35.0,35.0,1.0,mousetrap_15n.jpg,0.0,Green.png,6.0,38,,,,,,,,,,,,,,,,,
,,,,,,,,,1.0,,,38,1.0,1.0,2.22334,0.0,0.0,0.0,0.0,1.0,hummingbird_05s.jpg,treadmill_06s.jpg,,,,,,,
,,,,,,,,,1.0,,,38,1.0,1.0,1.891025,0.0,1.0,1.0,1.0,1.0,margarita_03s.jpg,quilt_03s.jpg,,,,,,,
,,,,,,,,,0.0,,,38,1.0,0.0,1.976505,0.0,2.0,2.0,2.0,1.0,joystick_01b.jpg,foam_03s.jpg,,,,,,,
,,,,,,,,,0.0,,,38,1.0,0.0,1.350455,0.0,3.0,3.0,3.0,1.0,ravioli_08s.jpg,mop_08s.jpg,,,,,,,
,,,,,,,,,1.0,,,38,1.0,1.0,1.235285,0.0,4.0,4.0,4.0,1.0,tab_09s.jpg,memory_stick_11s.jpg,,,,,,,
,,,,,,,,,1.0,,,38,1.0,1.0,1.490665,0.0,5.0,5.0,5.0,1.0,tripod_01b.jpg,crate_05s.jpg,,,,,,,
,,,,,,,,,,,,38,,,,,,,,,,,0.0,1.0,1.0,1.0,1.0,new2backpresent_2_4.xlsx,new2back_compare_task_2_4.xlsx
0.0,1.0,1.401135,0.0,0.0,0.0,0.0,1.0,safety_pin_02s.jpg,0.0,Blue.png,1.0,38,,,,,,,,,,,,,,,,,
0.0,1.0,1.312505,0.0,1.0,1.0,1.0,1.0,safety_pin_02s.jpg,0.0,Purple.png,1.0,38,,,,,,,,,,,,,,,,,
0.0,1.0,1.394425,0.0,2.0,2.0,2.0,1.0,cardinal_07s.jpg,0.0,Red.png,1.0,38,,,,,,,,,,,,,,,,,
1.0,1.0,0.835075,0.0,3.0,3.0,3.0,1.0,safety_pin_02s.jpg,1.0,Orange.png,1.0,38,,,,,,,,,,,,,,,,,
0.0,1.0,1.98873,0.0,4.0,4.0,4.0,1.0,potholder_02s.jpg,0.0,Yellow.png,1.0,38,,,,,,,,,,,,,,,,,
1.0,1.0,0.751685,0.0,5.0,5.0,5.0,1.0,safety_pin_02s.jpg,1.0,Green.png,1.0,38,,,,,,,,,,,,,,,,,
0.0,1.0,1.048205,0.0,6.0,6.0,6.0,1.0,cardinal_07s.jpg,0.0,Blue.png,2.0,38,,,,,,,,,,,,,,,,,
0.0,1.0,0.957255,0.0,7.0,7.0,7.0,1.0,lion_18s.jpg,0.0,Purple.png,2.0,38,,,,,,,,,,,,,,,,,
0.0,1.0,0.590135,0.0,8.0,8.0,8.0,1.0,comic_book_02s.jpg,0.0,Red.png,2.0,38,,,,,,,,,,,,,,,,,
0.0,1.0,0.566435,0.0,9.0,9.0,9.0,1.0,lizard_10n.jpg,0.0,Orange.png,2.0,38,,,,,,,,,,,,,,,,,
0.0,1.0,0.947085,0.0,10.0,10.0,10.0,1.0,rice_12s.jpg,0.0,Yellow.png,2.0,38,,,,,,,,,,,,,,,,,
0.0,1.0,0.53292,0.0,11.0,11.0,11.0,1.0,bagel_15s.jpg,0.0,Green.png,2.0,38,,,,,,,,,,,,,,,,,
0.0,1.0,0.548255,0.0,12.0,12.0,12.0,1.0,recliner_02s.jpg,0.0,Blue.png,3.0,38,,,,,,,,,,,,,,,,,
0.0,1.0,0.927825,0.0,13.0,13.0,13.0,1.0,recliner_02s.jpg,0.0,Purple.png,3.0,38,,,,,,,,,,,,,,,,,
0.0,1.0,0.6649,0.0,14.0,14.0,14.0,1.0,luggage_08s.jpg,0.0,Red.png,3.0,38,,,,,,,,,,,,,,,,,
1.0,1.0,0.45558,0.0,15.0,15.0,15.0,1.0,recliner_02s.jpg,1.0,Orange.png,3.0,38,,,,,,,,,,,,,,,,,
0.0,1.0,0.523625,0.0,16.0,16.0,16.0,1.0,onion_10s.jpg,0.0,Yellow.png,3.0,38,,,,,,,,,,,,,,,,,
0.0,1.0,0.68551,0.0,17.0,17.0,17.0,1.0,rosary_03s.jpg,0.0,Green.png,3.0,38,,,,,,,,,,,,,,,,,
0.0,1.0,0.62931,0.0,18.0,18.0,18.0,1.0,smokingpipe.jpg,0.0,Blue.png,4.0,38,,,,,,,,,,,,,,,,,
0.0,1.0,0.598065,0.0,19.0,19.0,19.0,1.0,roulette_wheel_04s.jpg,0.0,Purple.png,4.0,38,,,,,,,,,,,,,,,,,
1.0,1.0,1.14783,0.0,20.0,20.0,20.0,1.0,smokingpipe.jpg,1.0,Red.png,4.0,38,,,,,,,,,,,,,,,,,
0.0,1.0,0.43091,0.0,21.0,21.0,21.0,1.0,orchid_01b.jpg,0.0,Orange.png,4.0,38,,,,,,,,,,,,,,,,,
0.0,1.0,0.60784,0.0,22.0,22.0,22.0,1.0,buoy_04s.jpg,0.0,Yellow.png,4.0,38,,,,,,,,,,,,,,,,,
0.0,1.0,0.486325,0.0,23.0,23.0,23.0,1.0,stopwatch_04s.jpg,0.0,Green.png,4.0,38,,,,,,,,,,,,,,,,,
0.0,1.0,1.72946,0.0,24.0,24.0,24.0,1.0,knitting_needle_04s.jpg,0.0,Blue.png,5.0,38,,,,,,,,,,,,,,,,,
0.0,1.0,0.791635,0.0,25.0,25.0,25.0,1.0,prism_10s.jpg,0.0,Purple.png,5.0,38,,,,,,,,,,,,,,,,,
0.0,1.0,0.498285,0.0,26.0,26.0,26.0,1.0,teapot_03s.jpg,0.0,Red.png,5.0,38,,,,,,,,,,,,,,,,,
0.0,1.0,0.59681,0.0,27.0,27.0,27.0,1.0,fire_pit_10s.jpg,0.0,Orange.png,5.0,38,,,,,,,,,,,,,,,,,
0.0,1.0,0.77515,0.0,28.0,28.0,28.0,1.0,fire_pit_10s.jpg,0.0,Yellow.png,5.0,38,,,,,,,,,,,,,,,,,
1.0,1.0,0.951035,0.0,29.0,29.0,29.0,1.0,fire_pit_10s.jpg,1.0,Green.png,5.0,38,,,,,,,,,,,,,,,,,
0.0,1.0,0.615645,0.0,30.0,30.0,30.0,1.0,ironing_board_07s.jpg,0.0,Blue.png,6.0,38,,,,,,,,,,,,,,,,,
1.0,1.0,0.9192,0.0,31.0,31.0,31.0,1.0,fire_pit_10s.jpg,1.0,Purple.png,6.0,38,,,,,,,,,,,,,,,,,
0.0,1.0,0.648615,0.0,32.0,32.0,32.0,1.0,mattress_01s.jpg,0.0,Red.png,6.0,38,,,,,,,,,,,,,,,,,
1.0,1.0,0.466375,0.0,33.0,33.0,33.0,1.0,fire_pit_10s.jpg,1.0,Orange.png,6.0,38,,,,,,,,,,,,,,,,,
1.0,1.0,0.42851,0.0,34.0,34.0,34.0,1.0,mattress_01s.jpg,1.0,Yellow.png,6.0,38,,,,,,,,,,,,,,,,,
0.0,1.0,0.759925,0.0,35.0,35.0,35.0,1.0,ice-cream_cone_06s.jpg,0.0,Green.png,6.0,38,,,,,,,,,,,,,,,,,
,,,,,,,,,1.0,,,38,1.0,1.0,2.247865,0.0,0.0,0.0,0.0,1.0,roulette_wheel_04s.jpg,buoy_04s.jpg,,,,,,,
,,,,,,,,,0.0,,,38,1.0,0.0,1.10343,0.0,1.0,1.0,1.0,1.0,lion_18s.jpg,potholder_02s.jpg,,,,,,,
,,,,,,,,,0.0,,,38,1.0,0.0,1.9166,0.0,2.0,2.0,2.0,1.0,bagel_15s.jpg,comic_book_02s.jpg,,,,,,,
,,,,,,,,,1.0,,,38,0.0,0.0,1.168145,0.0,3.0,3.0,3.0,1.0,stopwatch_04s.jpg,teapot_03s.jpg,,,,,,,
,,,,,,,,,1.0,,,38,1.0,1.0,2.00102,0.0,4.0,4.0,4.0,1.0,luggage_08s.jpg,rosary_03s.jpg,,,,,,,
,,,,,,,,,1.0,,,38,1.0,1.0,1.050705,0.0,5.0,5.0,5.0,1.0,orchid_01b.jpg,knitting_needle_04s.jpg,,,,,,,
,,,,,,,,,,,,38,,,,,,,,,,,0.0,2.0,2.0,2.0,1.0,new2backpresent_3_4.xlsx,new2back_compare_task_3_4.xlsx
0.0,1.0,1.05167,0.0,0.0,0.0,0.0,1.0,smoothie_09s.jpg,0.0,Blue.png,1.0,38,,,,,,,,,,,,,,,,,
0.0,1.0,0.49017,0.0,1.0,1.0,1.0,1.0,raspberry_12s.jpg,0.0,Purple.png,1.0,38,,,,,,,,,,,,,,,,,
0.0,1.0,1.513825,0.0,2.0,2.0,2.0,1.0,raspberry_12s.jpg,0.0,Red.png,1.0,38,,,,,,,,,,,,,,,,,
0.0,1.0,1.35036,0.0,3.0,3.0,3.0,1.0,lamb_chop_07s.jpg,0.0,Orange.png,1.0,38,,,,,,,,,,,,,,,,,
0.0,1.0,0.94708,0.0,4.0,4.0,4.0,1.0,smoothie_09s.jpg,0.0,Yellow.png,1.0,38,,,,,,,,,,,,,,,,,
0.0,1.0,1.432705,0.0,5.0,5.0,5.0,1.0,raspberry_12s.jpg,0.0,Green.png,1.0,38,,,,,,,,,,,,,,,,,
0.0,1.0,0.68273,0.0,6.0,6.0,6.0,1.0,lava_02s.jpg,0.0,Blue.png,2.0,38,,,,,,,,,,,,,,,,,
0.0,1.0,1.61553,0.0,7.0,7.0,7.0,1.0,trident_07s.jpg,0.0,Purple.png,2.0,38,,,,,,,,,,,,,,,,,
0.0,1.0,0.798915,0.0,8.0,8.0,8.0,1.0,trident_07s.jpg,0.0,Red.png,2.0,38,,,,,,,,,,,,,,,,,
1.0,1.0,1.16604,0.0,9.0,9.0,9.0,1.0,trident_07s.jpg,1.0,Orange.png,2.0,38,,,,,,,,,,,,,,,,,
0.0,1.0,0.99929,0.0,10.0,10.0,10.0,1.0,orangutan_03s.jpg,0.0,Yellow.png,2.0,38,,,,,,,,,,,,,,,,,
1.0,1.0,0.84951,0.0,11.0,11.0,11.0,1.0,trident_07s.jpg,1.0,Green.png,2.0,38,,,,,,,,,,,,,,,,,
0.0,1.0,0.93185,0.0,12.0,12.0,12.0,1.0,raspberry_12s.jpg,0.0,Blue.png,3.0,38,,,,,,,,,,,,,,,,,
1.0,1.0,0.532915,0.0,13.0,13.0,13.0,1.0,trident_07s.jpg,1.0,Purple.png,3.0,38,,,,,,,,,,,,,,,,,
0.0,1.0,0.682215,0.0,14.0,14.0,14.0,1.0,lavender_10s.jpg,0.0,Red.png,3.0,38,,,,,,,,,,,,,,,,,
0.0,1.0,0.613845,0.0,15.0,15.0,15.0,1.0,chip_04s.jpg,0.0,Orange.png,3.0,38,,,,,,,,,,,,,,,,,
0.0,1.0,0.66672,0.0,16.0,16.0,16.0,1.0,lamb_04s.jpg,0.0,Yellow.png,3.0,38,,,,,,,,,,,,,,,,,
0.0,1.0,0.630475,0.0,17.0,17.0,17.0,1.0,emerald_02s.jpg,0.0,Green.png,3.0,38,,,,,,,,,,,,,,,,,
0.0,1.0,0.832925,0.0,18.0,18.0,18.0,1.0,pineapple_12s.jpg,0.0,Blue.png,4.0,38,,,,,,,,,,,,,,,,,
0.0,1.0,0.497445,0.0,19.0,19.0,19.0,1.0,sundae_08s.jpg,0.0,Purple.png,4.0,38,,,,,,,,,,,,,,,,,
1.0,0.0,1.01534,0.0,20.0,20.0,20.0,1.0,sundae_08s.jpg,0.0,Red.png,4.0,38,,,,,,,,,,,,,,,,,
0.0,1.0,0.63241,0.0,21.0,21.0,21.0,1.0,squirrel_02s.jpg,0.0,Orange.png,4.0,38,,,,,,,,,,,,,,,,,
0.0,1.0,0.93208,0.0,22.0,22.0,22.0,1.0,roller_coaster_07s.jpg,0.0,Yellow.png,4.0,38,,,,,,,,,,,,,,,,,
0.0,1.0,1.39963,0.0,23.0,23.0,23.0,1.0,sundae_08s.jpg,0.0,Green.png,4.0,38,,,,,,,,,,,,,,,,,
0.0,1.0,0.66611,0.0,24.0,24.0,24.0,1.0,tweezers_03s.jpg,0.0,Blue.png,5.0,38,,,,,,,,,,,,,,,,,
1.0,1.0,1.583135,0.0,25.0,25.0,25.0,1.0,sundae_08s.jpg,1.0,Purple.png,5.0,38,,,,,,,,,,,,,,,,,
0.0,1.0,0.67611,0.0,26.0,26.0,26.0,1.0,rudder_02s.jpg,0.0,Red.png,5.0,38,,,,,,,,,,,,,,,,,
0.0,1.0,0.68107,0.0,27.0,27.0,27.0,1.0,rake_06s.jpg,0.0,Orange.png,5.0,38,,,,,,,,,,,,,,,,,
0.0,1.0,1.448665,0.0,28.0,28.0,28.0,1.0,rake_06s.jpg,0.0,Yellow.png,5.0,38,,,,,,,,,,,,,,,,,
1.0,1.0,0.732455,0.0,29.0,29.0,29.0,1.0,rake_06s.jpg,1.0,Green.png,5.0,38,,,,,,,,,,,,,,,,,
0.0,1.0,2.048645,0.0,30.0,30.0,30.0,1.0,cap_05s.jpg,0.0,Blue.png,6.0,38,,,,,,,,,,,,,,,,,
0.0,1.0,1.03264,0.0,31.0,31.0,31.0,1.0,paper_towel_03s.jpg,0.0,Purple.png,6.0,38,,,,,,,,,,,,,,,,,
0.0,1.0,0.949265,0.0,32.0,32.0,32.0,1.0,toaster_03s.jpg,0.0,Red.png,6.0,38,,,,,,,,,,,,,,,,,
0.0,1.0,0.59886,0.0,33.0,33.0,33.0,1.0,money_07s.jpg,0.0,Orange.png,6.0,38,,,,,,,,,,,,,,,,,
0.0,1.0,0.733035,0.0,34.0,34.0,34.0,1.0,pinwheel_06s.jpg,0.0,Yellow.png,6.0,38,,,,,,,,,,,,,,,,,
0.0,1.0,0.666045,0.0,35.0,35.0,35.0,1.0,lid_10s.jpg,0.0,Green.png,6.0,38,,,,,,,,,,,,,,,,,
,,,,,,,,,0.0,,,38,0.0,1.0,2.62267,0.0,0.0,0.0,0.0,1.0,tweezers_03s.jpg,squirrel_02s.jpg,,,,,,,
,,,,,,,,,1.0,,,38,1.0,1.0,1.31733,0.0,1.0,1.0,1.0,1.0,chip_04s.jpg,pineapple_12s.jpg,,,,,,,
,,,,,,,,,1.0,,,38,1.0,1.0,1.76766,0.0,2.0,2.0,2.0,1.0,lamb_chop_07s.jpg,lava_02s.jpg,,,,,,,
,,,,,,,,,0.0,,,38,0.0,1.0,1.73454,0.0,3.0,3.0,3.0,1.0,pinwheel_06s.jpg,paper_towel_03s.jpg,,,,,,,
,,,,,,,,,0.0,,,38,0.0,1.0,1.034045,0.0,4.0,4.0,4.0,1.0,emerald_02s.jpg,lavender_10s.jpg,,,,,,,
,,,,,,,,,0.0,,,38,1.0,0.0,0.867335,0.0,5.0,5.0,5.0,1.0,money_07s.jpg,cap_05s.jpg,,,,,,,
,,,,,,,,,,,,38,,,,,,,,,,,0.0,3.0,3.0,3.0,1.0,new2backpresent_4_4.xlsx,new2back_compare_task_4_4.xlsx
0.0,1.0,0.88588,0.0,0.0,0.0,0.0,1.0,fur_coat_11s.jpg,0.0,Blue.png,1.0,38,,,,,,,,,,,,,,,,,
0.0,1.0,0.517665,0.0,1.0,1.0,1.0,1.0,crayon_09s.jpg,0.0,Purple.png,1.0,38,,,,,,,,,,,,,,,,,
0.0,1.0,0.616105,0.0,2.0,2.0,2.0,1.0,cobra_05s.jpg,0.0,Red.png,1.0,38,,,,,,,,,,,,,,,,,
0.0,1.0,0.8491,0.0,3.0,3.0,3.0,1.0,raccoon_02s.jpg,0.0,Orange.png,1.0,38,,,,,,,,,,,,,,,,,
0.0,1.0,0.515905,0.0,4.0,4.0,4.0,1.0,soda_fountain_03s.jpg,0.0,Yellow.png,1.0,38,,,,,,,,,,,,,,,,,
1.0,1.0,1.215495,0.0,5.0,5.0,5.0,1.0,raccoon_02s.jpg,1.0,Green.png,1.0,38,,,,,,,,,,,,,,,,,
0.0,1.0,0.71567,0.0,6.0,6.0,6.0,1.0,feather02.jpg,0.0,Blue.png,2.0,38,,,,,,,,,,,,,,,,,
1.0,1.0,1.049515,0.0,7.0,7.0,7.0,1.0,raccoon_02s.jpg,1.0,Purple.png,2.0,38,,,,,,,,,,,,,,,,,
1.0,1.0,0.9803,0.0,8.0,8.0,8.0,1.0,feather02.jpg,1.0,Red.png,2.0,38,,,,,,,,,,,,,,,,,
0.0,1.0,0.649485,0.0,9.0,9.0,9.0,1.0,rug_09s.jpg,0.0,Orange.png,2.0,38,,,,,,,,,,,,,,,,,
1.0,1.0,0.665405,0.0,10.0,10.0,10.0,1.0,feather02.jpg,1.0,Yellow.png,2.0,38,,,,,,,,,,,,,,,,,
0.0,1.0,0.66577,0.0,11.0,11.0,11.0,1.0,cushion_08s.jpg,0.0,Green.png,2.0,38,,,,,,,,,,,,,,,,,
1.0,1.0,0.71328,0.0,12.0,12.0,12.0,1.0,feather02.jpg,1.0,Blue.png,3.0,38,,,,,,,,,,,,,,,,,
0.0,1.0,1.284015,0.0,13.0,13.0,13.0,1.0,feather02.jpg,0.0,Purple.png,3.0,38,,,,,,,,,,,,,,,,,
0.0,1.0,0.75681,0.0,14.0,14.0,14.0,1.0,ice_pack_09s.jpg,0.0,Red.png,3.0,38,,,,,,,,,,,,,,,,,
0.0,1.0,1.5879,0.0,15.0,15.0,15.0,1.0,ice_pack_09s.jpg,0.0,Orange.png,3.0,38,,,,,,,,,,,,,,,,,
0.0,1.0,0.817485,0.0,16.0,16.0,16.0,1.0,loom_05s.jpg,0.0,Yellow.png,3.0,38,,,,,,,,,,,,,,,,,
1.0,1.0,0.849295,0.0,17.0,17.0,17.0,1.0,ice_pack_09s.jpg,1.0,Green.png,3.0,38,,,,,,,,,,,,,,,,,
0.0,1.0,1.349155,0.0,18.0,18.0,18.0,1.0,ice_pack_09s.jpg,0.0,Blue.png,4.0,38,,,,,,,,,,,,,,,,,
1.0,1.0,0.849825,0.0,19.0,19.0,19.0,1.0,ice_pack_09s.jpg,1.0,Purple.png,4.0,38,,,,,,,,,,,,,,,,,
1.0,1.0,0.582745,0.0,20.0,20.0,20.0,1.0,ice_pack_09s.jpg,1.0,Red.png,4.0,38,,,,,,,,,,,,,,,,,
0.0,1.0,0.549775,0.0,21.0,21.0,21.0,1.0,blazer_02s.jpg,0.0,Orange.png,4.0,38,,,,,,,,,,,,,,,,,
0.0,1.0,0.965715,0.0,22.0,22.0,22.0,1.0,penlight_12s.jpg,0.0,Yellow.png,4.0,38,,,,,,,,,,,,,,,,,
0.0,1.0,0.699625,0.0,23.0,23.0,23.0,1.0,swan_11s.jpg,0.0,Green.png,4.0,38,,,,,,,,,,,,,,,,,
0.0,1.0,0.81798,0.0,24.0,24.0,24.0,1.0,plunger_08s.jpg,0.0,Blue.png,5.0,38,,,,,,,,,,,,,,,,,
0.0,1.0,0.56307,0.0,25.0,25.0,25.0,1.0,bottle_opener_11s.jpg,0.0,Purple.png,5.0,38,,,,,,,,,,,,,,,,,
0.0,1.0,0.865815,0.0,26.0,26.0,26.0,1.0,checkbook_11s.jpg,0.0,Red.png,5.0,38,,,,,,,,,,,,,,,,,
0.0,1.0,0.66588,0.0,27.0,27.0,27.0,1.0,ink_08s.jpg,0.0,Orange.png,5.0,38,,,,,,,,,,,,,,,,,
0.0,1.0,0.53271,0.0,28.0,28.0,28.0,1.0,plunger_08s.jpg,0.0,Yellow.png,5.0,38,,,,,,,,,,,,,,,,,
0.0,1.0,0.61447,0.0,29.0,29.0,29.0,1.0,pencil02a.jpg,0.0,Green.png,5.0,38,,,,,,,,,,,,,,,,,
0.0,1.0,0.51428,0.0,30.0,30.0,30.0,1.0,ginger_09s.jpg,0.0,Blue.png,6.0,38,,,,,,,,,,,,,,,,,
0.0,1.0,0.513455,0.0,31.0,31.0,31.0,1.0,taxi_15s.jpg,0.0,Purple.png,6.0,38,,,,,,,,,,,,,,,,,
0.0,1.0,0.48057,0.0,32.0,32.0,32.0,1.0,toy_04s.jpg,0.0,Red.png,6.0,38,,,,,,,,,,,,,,,,,
0.0,1.0,0.532645,0.0,33.0,33.0,33.0,1.0,blowfish_03s.jpg,0.0,Orange.png,6.0,38,,,,,,,,,,,,,,,,,
0.0,1.0,0.52976,0.0,34.0,34.0,34.0,1.0,toilet_paper_12s.jpg,0.0,Yellow.png,6.0,38,,,,,,,,,,,,,,,,,
0.0,1.0,0.413855,0.0,35.0,35.0,35.0,1.0,puddle_02s.jpg,0.0,Green.png,6.0,38,,,,,,,,,,,,,,,,,
,,,,,,,,,1.0,,,38,0.0,0.0,3.51012,0.0,0.0,0.0,0.0,1.0,ink_08s.jpg,ginger_09s.jpg,,,,,,,
,,,,,,,,,0.0,,,38,0.0,1.0,1.267,0.0,1.0,1.0,1.0,1.0,puddle_02s.jpg,toy_04s.jpg,,,,,,,
,,,,,,,,,0.0,,,38,1.0,0.0,2.30141,0.0,2.0,2.0,2.0,1.0,bottle_opener_11s.jpg,penlight_12s.jpg,,,,,,,
,,,,,,,,,0.0,,,38,1.0,0.0,2.75133,0.0,3.0,3.0,3.0,1.0,checkbook_11s.jpg,swan_11s.jpg,,,,,,,
,,,,,,,,,1.0,,,38,0.0,0.0,3.017115,0.0,4.0,4.0,4.0,1.0,taxi_15s.jpg,toilet_paper_12s.jpg,,,,,,,
,,,,,,,,,1.0,,,38,1.0,1.0,1.352435,0.0,5.0,5.0,5.0,1.0,crayon_09s.jpg,soda_fountain_03s.jpg,,,,,,,
,,,,,,,,,,,,38,,,,,,,,,,,0.0,4.0,4.0,4.0,1.0,new2backpresent_5_4.xlsx,new2back_compare_task_5_4.xlsx
0.0,1.0,0.78623,0.0,0.0,0.0,0.0,1.0,flask_04s.jpg,0.0,Blue.png,1.0,38,,,,,,,,,,,,,,,,,
0.0,1.0,0.7155,0.0,1.0,1.0,1.0,1.0,kimono_13s.jpg,0.0,Purple.png,1.0,38,,,,,,,,,,,,,,,,,
0.0,1.0,0.51671,0.0,2.0,2.0,2.0,1.0,limousine_12s.jpg,0.0,Red.png,1.0,38,,,,,,,,,,,,,,,,,
0.0,1.0,0.616275,0.0,3.0,3.0,3.0,1.0,lectern_08s.jpg,0.0,Orange.png,1.0,38,,,,,,,,,,,,,,,,,
0.0,1.0,0.780915,0.0,4.0,4.0,4.0,1.0,kimono_13s.jpg,0.0,Yellow.png,1.0,38,,,,,,,,,,,,,,,,,
0.0,1.0,0.51586,0.0,5.0,5.0,5.0,1.0,doily_13s.jpg,0.0,Green.png,1.0,38,,,,,,,,,,,,,,,,,
1.0,1.0,0.542125,0.0,6.0,6.0,6.0,1.0,kimono_13s.jpg,1.0,Blue.png,2.0,38,,,,,,,,,,,,,,,,,
0.0,1.0,0.68107,0.0,7.0,7.0,7.0,1.0,razor_blade_01b.jpg,0.0,Purple.png,2.0,38,,,,,,,,,,,,,,,,,
0.0,1.0,1.01353,0.0,8.0,8.0,8.0,1.0,razor_blade_01b.jpg,0.0,Red.png,2.0,38,,,,,,,,,,,,,,,,,
0.0,1.0,1.241115,0.0,9.0,9.0,9.0,1.0,champagne_18s.jpg,0.0,Orange.png,2.0,38,,,,,,,,,,,,,,,,,
0.0,1.0,0.866575,0.0,10.0,10.0,10.0,1.0,stamp1_11s.jpg,0.0,Yellow.png,2.0,38,,,,,,,,,,,,,,,,,
1.0,1.0,0.81578,0.0,11.0,11.0,11.0,1.0,champagne_18s.jpg,1.0,Green.png,2.0,38,,,,,,,,,,,,,,,,,
0.0,1.0,0.681135,0.0,12.0,12.0,12.0,1.0,crossbow_10s.jpg,0.0,Blue.png,3.0,38,,,,,,,,,,,,,,,,,
0.0,1.0,1.848775,0.0,13.0,13.0,13.0,1.0,briefcase_03s.jpg,0.0,Purple.png,3.0,38,,,,,,,,,,,,,,,,,
0.0,1.0,0.46333,0.0,14.0,14.0,14.0,1.0,jersey_02s.jpg,0.0,Red.png,3.0,38,,,,,,,,,,,,,,,,,
1.0,1.0,0.645735,0.0,15.0,15.0,15.0,1.0,briefcase_03s.jpg,1.0,Orange.png,3.0,38,,,,,,,,,,,,,,,,,
0.0,1.0,0.54872,0.0,16.0,16.0,16.0,1.0,oil_02s.jpg,0.0,Yellow.png,3.0,38,,,,,,,,,,,,,,,,,
0.0,1.0,0.664075,0.0,17.0,17.0,17.0,1.0,tinsel_12s.jpg,0.0,Green.png,3.0,38,,,,,,,,,,,,,,,,,
0.0,1.0,1.19939,0.0,18.0,18.0,18.0,1.0,flask_04s.jpg,0.0,Blue.png,4.0,38,,,,,,,,,,,,,,,,,
0.0,1.0,0.60893,0.0,19.0,19.0,19.0,1.0,fork_04s.jpg,0.0,Purple.png,4.0,38,,,,,,,,,,,,,,,,,
0.0,1.0,0.669625,0.0,20.0,20.0,20.0,1.0,purse_05s.jpg,0.0,Red.png,4.0,38,,,,,,,,,,,,,,,,,
0.0,1.0,0.982215,0.0,21.0,21.0,21.0,1.0,flask_04s.jpg,0.0,Orange.png,4.0,38,,,,,,,,,,,,,,,,,
0.0,1.0,0.498165,0.0,22.0,22.0,22.0,1.0,sledgehammer_03s.jpg,0.0,Yellow.png,4.0,38,,,,,,,,,,,,,,,,,
0.0,1.0,0.914895,0.0,23.0,23.0,23.0,1.0,turf_03s.jpg,0.0,Green.png,4.0,38,,,,,,,,,,,,,,,,,
0.0,1.0,0.538865,0.0,24.0,24.0,24.0,1.0,omelet_07s.jpg,0.0,Blue.png,5.0,38,,,,,,,,,,,,,,,,,
1.0,1.0,1.17637,0.0,25.0,25.0,25.0,1.0,turf_03s.jpg,1.0,Purple.png,5.0,38,,,,,,,,,,,,,,,,,
0.0,1.0,0.584955,0.0,26.0,26.0,26.0,1.0,clover_04s.jpg,0.0,Red.png,5.0,38,,,,,,,,,,,,,,,,,
0.0,1.0,0.76867,0.0,27.0,27.0,27.0,1.0,lip_gloss_06s.jpg,0.0,Orange.png,5.0,38,,,,,,,,,,,,,,,,,
0.0,1.0,0.647355,0.0,28.0,28.0,28.0,1.0,amber_04s.jpg,0.0,Yellow.png,5.0,38,,,,,,,,,,,,,,,,,
0.0,1.0,0.44632,0.0,29.0,29.0,29.0,1.0,tortilla_06s.jpg,0.0,Green.png,5.0,38,,,,,,,,,,,,,,,,,
0.0,1.0,0.77882,0.0,30.0,30.0,30.0,1.0,razor_blade_01b.jpg,0.0,Blue.png,6.0,38,,,,,,,,,,,,,,,,,
0.0,1.0,0.615335,0.0,31.0,31.0,31.0,1.0,tape_measure_11s.jpg,0.0,Purple.png,6.0,38,,,,,,,,,,,,,,,,,
1.0,1.0,0.84573,0.0,32.0,32.0,32.0,1.0,razor_blade_01b.jpg,1.0,Red.png,6.0,38,,,,,,,,,,,,,,,,,
0.0,1.0,1.362715,0.0,33.0,33.0,33.0,1.0,razor_blade_01b.jpg,0.0,Orange.png,6.0,38,,,,,,,,,,,,,,,,,
0.0,1.0,0.69843,0.0,34.0,34.0,34.0,1.0,stingray_02s.jpg,0.0,Yellow.png,6.0,38,,,,,,,,,,,,,,,,,
0.0,1.0,0.66448,0.0,35.0,35.0,35.0,1.0,harpoon.jpg,0.0,Green.png,6.0,38,,,,,,,,,,,,,,,,,
,,,,,,,,,1.0,,,38,1.0,1.0,2.32119,0.0,0.0,0.0,0.0,1.0,oil_02s.jpg,fork_04s.jpg,,,,,,,
,,,,,,,,,0.0,,,38,0.0,1.0,3.79035,0.0,1.0,1.0,1.0,1.0,doily_13s.jpg,limousine_12s.jpg,,,,,,,
,,,,,,,,,0.0,,,38,0.0,1.0,1.13883,0.0,2.0,2.0,2.0,1.0,lip_gloss_06s.jpg,omelet_07s.jpg,,,,,,,
,,,,,,,,,0.0,,,38,0.0,1.0,1.634745,0.0,3.0,3.0,3.0,1.0,tape_measure_11s.jpg,amber_04s.jpg,,,,,,,
,,,,,,,,,0.0,,,38,0.0,1.0,1.44152,0.0,4.0,4.0,4.0,1.0,tortilla_06s.jpg,clover_04s.jpg,,,,,,,
,,,,,,,,,0.0,,,38,1.0,0.0,1.266315,0.0,5.0,5.0,5.0,1.0,purse_05s.jpg,tinsel_12s.jpg,,,,,,,
,,,,,,,,,,,,38,,,,,,,,,,,0.0,5.0,5.0,5.0,1.0,new2backpresent_6_4.xlsx,new2back_compare_task_6_4.xlsx
0.0,1.0,0.860195,0.0,0.0,0.0,0.0,1.0,butter_14s.jpg,0.0,Blue.png,1.0,38,,,,,,,,,,,,,,,,,
0.0,1.0,0.481045,0.0,1.0,1.0,1.0,1.0,butter_14s.jpg,0.0,Purple.png,1.0,38,,,,,,,,,,,,,,,,,
1.0,1.0,0.65043,0.0,2.0,2.0,2.0,1.0,butter_14s.jpg,1.0,Red.png,1.0,38,,,,,,,,,,,,,,,,,
0.0,1.0,0.5009,0.0,3.0,3.0,3.0,1.0,stamp2_08s.jpg,0.0,Orange.png,1.0,38,,,,,,,,,,,,,,,,,
0.0,1.0,0.518955,0.0,4.0,4.0,4.0,1.0,kangaroo_02s.jpg,0.0,Yellow.png,1.0,38,,,,,,,,,,,,,,,,,
0.0,1.0,0.62431,0.0,5.0,5.0,5.0,1.0,camcorder_10s.jpg,0.0,Green.png,1.0,38,,,,,,,,,,,,,,,,,
0.0,1.0,0.46317,0.0,6.0,6.0,6.0,1.0,bank_06s.jpg,0.0,Blue.png,2.0,38,,,,,,,,,,,,,,,,,
0.0,1.0,0.64433,0.0,7.0,7.0,7.0,1.0,gear_07s.jpg,0.0,Purple.png,2.0,38,,,,,,,,,,,,,,,,,
1.0,1.0,0.7975,0.0,8.0,8.0,8.0,1.0,bank_06s.jpg,1.0,Red.png,2.0,38,,,,,,,,,,,,,,,,,
0.0,1.0,0.66273,0.0,9.0,9.0,9.0,1.0,funnel_01b.jpg,0.0,Orange.png,2.0,38,,,,,,,,,,,,,,,,,
0.0,1.0,0.64943,0.0,10.0,10.0,10.0,1.0,poinsettia_04s.jpg,0.0,Yellow.png,2.0,38,,,,,,,,,,,,,,,,,
1.0,1.0,0.93129,0.0,11.0,11.0,11.0,1.0,funnel_01b.jpg,1.0,Green.png,2.0,38,,,,,,,,,,,,,,,,,
0.0,1.0,0.47958,0.0,12.0,12.0,12.0,1.0,rooster_03s.jpg,0.0,Blue.png,3.0,38,,,,,,,,,,,,,,,,,
0.0,1.0,0.72373,0.0,13.0,13.0,13.0,1.0,denture_03s.jpg,0.0,Purple.png,3.0,38,,,,,,,,,,,,,,,,,
0.0,1.0,0.56928,0.0,14.0,14.0,14.0,1.0,bean_06s.jpg,0.0,Red.png,3.0,38,,,,,,,,,,,,,,,,,
0.0,1.0,0.51551,0.0,15.0,15.0,15.0,1.0,mud_13s.jpg,0.0,Orange.png,3.0,38,,,,,,,,,,,,,,,,,
0.0,1.0,0.575495,0.0,16.0,16.0,16.0,1.0,keyhole_03s.jpg,0.0,Yellow.png,3.0,38,,,,,,,,,,,,,,,,,
0.0,1.0,0.49816,0.0,17.0,17.0,17.0,1.0,bean_06s.jpg,0.0,Green.png,3.0,38,,,,,,,,,,,,,,,,,
0.0,1.0,0.748925,0.0,18.0,18.0,18.0,1.0,bank_06s.jpg,0.0,Blue.png,4.0,38,,,,,,,,,,,,,,,,,
0.0,1.0,0.715465,0.0,19.0,19.0,19.0,1.0,pomegranate_04s.jpg,0.0,Purple.png,4.0,38,,,,,,,,,,,,,,,,,
,0.0,,0.0,20.0,20.0,20.0,1.0,chopsticks_08s.jpg,0.0,Red.png,4.0,38,,,,,,,,,,,,,,,,,
0.0,1.0,0.601445,0.0,21.0,21.0,21.0,1.0,contact_lens_15s.jpg,0.0,Orange.png,4.0,38,,,,,,,,,,,,,,,,,
0.0,1.0,0.59825,0.0,22.0,22.0,22.0,1.0,hydrant_10s.jpg,0.0,Yellow.png,4.0,38,,,,,,,,,,,,,,,,,
0.0,1.0,0.514835,0.0,23.0,23.0,23.0,1.0,gingerbread_man_03s.jpg,0.0,Green.png,4.0,38,,,,,,,,,,,,,,,,,
0.0,1.0,0.503585,0.0,24.0,24.0,24.0,1.0,camcorder_10s.jpg,0.0,Blue.png,5.0,38,,,,,,,,,,,,,,,,,
0.0,1.0,0.768585,0.0,25.0,25.0,25.0,1.0,teabag_12s.jpg,0.0,Purple.png,5.0,38,,,,,,,,,,,,,,,,,
0.0,1.0,0.59924,0.0,26.0,26.0,26.0,1.0,radiator_05s.jpg,0.0,Red.png,5.0,38,,,,,,,,,,,,,,,,,
0.0,1.0,0.513085,0.0,27.0,27.0,27.0,1.0,punch1_10s.jpg,0.0,Orange.png,5.0,38,,,,,,,,,,,,,,,,,
0.0,1.0,0.47651,0.0,28.0,28.0,28.0,1.0,mailbox_11s.jpg,0.0,Yellow.png,5.0,38,,,,,,,,,,,,,,,,,
0.0,1.0,0.789565,0.0,29.0,29.0,29.0,1.0,beaker_01b.jpg,0.0,Green.png,5.0,38,,,,,,,,,,,,,,,,,
1.0,1.0,1.11493,0.0,30.0,30.0,30.0,1.0,mailbox_11s.jpg,1.0,Blue.png,6.0,38,,,,,,,,,,,,,,,,,
0.0,1.0,0.63168,0.0,31.0,31.0,31.0,1.0,pipe1_10s.jpg,0.0,Purple.png,6.0,38,,,,,,,,,,,,,,,,,
1.0,1.0,0.739295,0.0,32.0,32.0,32.0,1.0,mailbox_11s.jpg,1.0,Red.png,6.0,38,,,,,,,,,,,,,,,,,
1.0,1.0,2.330445,0.0,33.0,33.0,33.0,1.0,pipe1_10s.jpg,1.0,Orange.png,6.0,38,,,,,,,,,,,,,,,,,
0.0,1.0,0.63081,0.0,34.0,34.0,34.0,1.0,eyedropper_12s.jpg,0.0,Yellow.png,6.0,38,,,,,,,,,,,,,,,,,
0.0,1.0,0.73153,0.0,35.0,35.0,35.0,1.0,rhubarb_03s.jpg,0.0,Green.png,6.0,38,,,,,,,,,,,,,,,,,
,,,,,,,,,0.0,,,38,1.0,0.0,2.317245,0.0,0.0,0.0,0.0,1.0,mud_13s.jpg,rooster_03s.jpg,,,,,,,
,,,,,,,,,1.0,,,38,1.0,1.0,1.68881,0.0,1.0,1.0,1.0,1.0,chopsticks_08s.jpg,gingerbread_man_03s.jpg,,,,,,,
,,,,,,,,,0.0,,,38,0.0,1.0,1.20094,0.0,2.0,2.0,2.0,1.0,beaker_01b.jpg,radiator_05s.jpg,,,,,,,
,,,,,,,,,0.0,,,38,1.0,0.0,0.93157,0.0,3.0,3.0,3.0,1.0,teabag_12s.jpg,hydrant_10s.jpg,,,,,,,
,,,,,,,,,0.0,,,38,1.0,0.0,1.01634,0.0,4.0,4.0,4.0,1.0,denture_03s.jpg,poinsettia_04s.jpg,,,,,,,
,,,,,,,,,1.0,,,38,1.0,1.0,1.48954,0.0,5.0,5.0,5.0,1.0,kangaroo_02s.jpg,gear_07s.jpg,,,,,,,
,,,,,,,,,,,,38,,,,,,,,,,,0.0,6.0,6.0,6.0,1.0,new2backpresent_7_4.xlsx,new2back_compare_task_7_4.xlsx
0.0,1.0,0.77988,0.0,0.0,0.0,0.0,1.0,lamppost_09s.jpg,0.0,Blue.png,1.0,38,,,,,,,,,,,,,,,,,
0.0,1.0,0.671565,0.0,1.0,1.0,1.0,1.0,jewel_01b.jpg,0.0,Purple.png,1.0,38,,,,,,,,,,,,,,,,,
0.0,1.0,0.67611,0.0,2.0,2.0,2.0,1.0,tuxedo_01b.jpg,0.0,Red.png,1.0,38,,,,,,,,,,,,,,,,,
0.0,1.0,0.756835,0.0,3.0,3.0,3.0,1.0,flip_flop_03s.jpg,0.0,Orange.png,1.0,38,,,,,,,,,,,,,,,,,
0.0,1.0,0.722635,0.0,4.0,4.0,4.0,1.0,medal_04s.jpg,0.0,Yellow.png,1.0,38,,,,,,,,,,,,,,,,,
1.0,1.0,0.77399,0.0,5.0,5.0,5.0,1.0,flip_flop_03s.jpg,1.0,Green.png,1.0,38,,,,,,,,,,,,,,,,,
0.0,1.0,0.821995,0.0,6.0,6.0,6.0,1.0,tuxedo_01b.jpg,0.0,Blue.png,2.0,38,,,,,,,,,,,,,,,,,
1.0,1.0,0.46474,0.0,7.0,7.0,7.0,1.0,flip_flop_03s.jpg,1.0,Purple.png,2.0,38,,,,,,,,,,,,,,,,,
0.0,1.0,0.615185,0.0,8.0,8.0,8.0,1.0,fireworks_18s.jpg,0.0,Red.png,2.0,38,,,,,,,,,,,,,,,,,
0.0,1.0,0.65639,0.0,9.0,9.0,9.0,1.0,squirt_gun_03s.jpg,0.0,Orange.png,2.0,38,,,,,,,,,,,,,,,,,
0.0,1.0,0.5159,0.0,10.0,10.0,10.0,1.0,flip_flop_03s.jpg,0.0,Yellow.png,2.0,38,,,,,,,,,,,,,,,,,
0.0,1.0,0.53996,0.0,11.0,11.0,11.0,1.0,puffin_19s.jpg,0.0,Green.png,2.0,38,,,,,,,,,,,,,,,,,
0.0,1.0,0.68266,0.0,12.0,12.0,12.0,1.0,tuxedo_01b.jpg,0.0,Blue.png,3.0,38,,,,,,,,,,,,,,,,,
0.0,1.0,1.729315,0.0,13.0,13.0,13.0,1.0,tuxedo_01b.jpg,0.0,Purple.png,3.0,38,,,,,,,,,,,,,,,,,
0.0,1.0,0.684245,0.0,14.0,14.0,14.0,1.0,snowman_02s.jpg,0.0,Red.png,3.0,38,,,,,,,,,,,,,,,,,
0.0,1.0,0.794645,0.0,15.0,15.0,15.0,1.0,cucumber_07s.jpg,0.0,Orange.png,3.0,38,,,,,,,,,,,,,,,,,
0.0,1.0,0.479645,0.0,16.0,16.0,16.0,1.0,plug_08s.jpg,0.0,Yellow.png,3.0,38,,,,,,,,,,,,,,,,,
1.0,1.0,0.898125,0.0,17.0,17.0,17.0,1.0,cucumber_07s.jpg,1.0,Green.png,3.0,38,,,,,,,,,,,,,,,,,
0.0,1.0,0.578055,0.0,18.0,18.0,18.0,1.0,puffin_19s.jpg,0.0,Blue.png,4.0,38,,,,,,,,,,,,,,,,,
0.0,1.0,0.682355,0.0,19.0,19.0,19.0,1.0,fondue_07s.jpg,0.0,Purple.png,4.0,38,,,,,,,,,,,,,,,,,
,0.0,,0.0,20.0,20.0,20.0,1.0,lasagna_06s.jpg,0.0,Red.png,4.0,38,,,,,,,,,,,,,,,,,
1.0,0.0,2.26558,0.0,21.0,21.0,21.0,1.0,eiffeltower.jpg,0.0,Orange.png,4.0,38,,,,,,,,,,,,,,,,,
0.0,1.0,0.648775,0.0,22.0,22.0,22.0,1.0,outlet_10s.jpg,0.0,Yellow.png,4.0,38,,,,,,,,,,,,,,,,,
0.0,1.0,0.71602,0.0,23.0,23.0,23.0,1.0,cape_11s.jpg,0.0,Green.png,4.0,38,,,,,,,,,,,,,,,,,
0.0,1.0,0.563805,0.0,24.0,24.0,24.0,1.0,marshmallow_08s.jpg,0.0,Blue.png,5.0,38,,,,,,,,,,,,,,,,,
0.0,1.0,0.71694,0.0,25.0,25.0,25.0,1.0,racehorse_03s.jpg,0.0,Purple.png,5.0,38,,,,,,,,,,,,,,,,,
0.0,1.0,1.39833,0.0,26.0,26.0,26.0,1.0,aluminum_foil_08s.jpg,0.0,Red.png,5.0,38,,,,,,,,,,,,,,,,,
0.0,1.0,0.682555,0.0,27.0,27.0,27.0,1.0,spoon02a.jpg,0.0,Orange.png,5.0,38,,,,,,,,,,,,,,,,,
0.0,1.0,0.54907,0.0,28.0,28.0,28.0,1.0,padlock_07s.jpg,0.0,Yellow.png,5.0,38,,,,,,,,,,,,,,,,,
0.0,1.0,0.682515,0.0,29.0,29.0,29.0,1.0,solar_panel_02s.jpg,0.0,Green.png,5.0,38,,,,,,,,,,,,,,,,,
0.0,1.0,0.59958,0.0,30.0,30.0,30.0,1.0,turtleneck_11s.jpg,0.0,Blue.png,6.0,38,,,,,,,,,,,,,,,,,
0.0,1.0,0.91608,0.0,31.0,31.0,31.0,1.0,pocketknife_12s.jpg,0.0,Purple.png,6.0,38,,,,,,,,,,,,,,,,,
,0.0,,0.0,32.0,32.0,32.0,1.0,pocketknife_12s.jpg,0.0,Red.png,6.0,38,,,,,,,,,,,,,,,,,
0.0,1.0,1.41472,0.0,33.0,33.0,33.0,1.0,quill_09s.jpg,0.0,Orange.png,6.0,38,,,,,,,,,,,,,,,,,
0.0,1.0,1.09665,0.0,34.0,34.0,34.0,1.0,quill_09s.jpg,0.0,Yellow.png,6.0,38,,,,,,,,,,,,,,,,,
0.0,1.0,0.96586,0.0,35.0,35.0,35.0,1.0,pocketknife_12s.jpg,0.0,Green.png,6.0,38,,,,,,,,,,,,,,,,,
,,,,,,,,,0.0,,,38,1.0,0.0,1.519705,0.0,0.0,0.0,0.0,1.0,cape_11s.jpg,lasagna_06s.jpg,,,,,,,
,,,,,,,,,0.0,,,38,0.0,1.0,1.22937,0.0,1.0,1.0,1.0,1.0,padlock_07s.jpg,racehorse_03s.jpg,,,,,,,
,,,,,,,,,1.0,,,38,0.0,0.0,1.55097,0.0,2.0,2.0,2.0,1.0,spoon02a.jpg,turtleneck_11s.jpg,,,,,,,
,,,,,,,,,0.0,,,38,0.0,1.0,1.617155,0.0,3.0,3.0,3.0,1.0,marshmallow_08s.jpg,eiffeltower.jpg,,,,,,,
,,,,,,,,,0.0,,,38,0.0,1.0,1.600655,0.0,4.0,4.0,4.0,1.0,medal_04s.jpg,jewel_01b.jpg,,,,,,,
,,,,,,,,,1.0,,,38,1.0,1.0,1.684665,0.0,5.0,5.0,5.0,1.0,plug_08s.jpg,fondue_07s.jpg,,,,,,,
,,,,,,,,,,,,38,,,,,,,,,,,0.0,7.0,7.0,7.0,1.0,new2backpresent_8_4.xlsx,new2back_compare_task_8_4.xlsx
0.0,1.0,0.985905,0.0,0.0,0.0,0.0,1.0,footprint_11s.jpg,0.0,Blue.png,1.0,38,,,,,,,,,,,,,,,,,
1.0,0.0,0.641355,0.0,1.0,1.0,1.0,1.0,coffee_filter_10s.jpg,0.0,Purple.png,1.0,38,,,,,,,,,,,,,,,,,
0.0,1.0,1.06546,0.0,2.0,2.0,2.0,1.0,coffee_filter_10s.jpg,0.0,Red.png,1.0,38,,,,,,,,,,,,,,,,,
1.0,1.0,0.600365,0.0,3.0,3.0,3.0,1.0,coffee_filter_10s.jpg,1.0,Orange.png,1.0,38,,,,,,,,,,,,,,,,,
1.0,1.0,0.483035,0.0,4.0,4.0,4.0,1.0,coffee_filter_10s.jpg,1.0,Yellow.png,1.0,38,,,,,,,,,,,,,,,,,
0.0,1.0,1.965415,0.0,5.0,5.0,5.0,1.0,gargoyle_08s.jpg,0.0,Green.png,1.0,38,,,,,,,,,,,,,,,,,
0.0,1.0,1.533845,0.0,6.0,6.0,6.0,1.0,candy_cane_06s.jpg,0.0,Blue.png,2.0,38,,,,,,,,,,,,,,,,,
0.0,1.0,1.06368,0.0,7.0,7.0,7.0,1.0,toad_09s.jpg,0.0,Purple.png,2.0,38,,,,,,,,,,,,,,,,,
,0.0,,0.0,8.0,8.0,8.0,1.0,candy_cane_06s.jpg,1.0,Red.png,2.0,38,,,,,,,,,,,,,,,,,
0.0,1.0,0.782695,0.0,9.0,9.0,9.0,1.0,pumpkin_03s.jpg,0.0,Orange.png,2.0,38,,,,,,,,,,,,,,,,,
0.0,1.0,0.64935,0.0,10.0,10.0,10.0,1.0,dashboard_02s.jpg,0.0,Yellow.png,2.0,38,,,,,,,,,,,,,,,,,
0.0,1.0,1.18087,0.0,11.0,11.0,11.0,1.0,syringe_02s.jpg,0.0,Green.png,2.0,38,,,,,,,,,,,,,,,,,
0.0,1.0,0.69781,0.0,12.0,12.0,12.0,1.0,powder_07s.jpg,0.0,Blue.png,3.0,38,,,,,,,,,,,,,,,,,
0.0,1.0,1.582895,0.0,13.0,13.0,13.0,1.0,powder_07s.jpg,0.0,Purple.png,3.0,38,,,,,,,,,,,,,,,,,
1.0,1.0,0.68292,0.0,14.0,14.0,14.0,1.0,powder_07s.jpg,1.0,Red.png,3.0,38,,,,,,,,,,,,,,,,,
0.0,1.0,0.78065,0.0,15.0,15.0,15.0,1.0,sea_urchin_09s.jpg,0.0,Orange.png,3.0,38,,,,,,,,,,,,,,,,,
0.0,1.0,0.61622,0.0,16.0,16.0,16.0,1.0,throne_11s.jpg,0.0,Yellow.png,3.0,38,,,,,,,,,,,,,,,,,
0.0,1.0,0.932225,0.0,17.0,17.0,17.0,1.0,powder_07s.jpg,0.0,Green.png,3.0,38,,,,,,,,,,,,,,,,,
0.0,1.0,0.616865,0.0,18.0,18.0,18.0,1.0,chalice_10s.jpg,0.0,Blue.png,4.0,38,,,,,,,,,,,,,,,,,
0.0,1.0,0.585175,0.0,19.0,19.0,19.0,1.0,air_pump_05s.jpg,0.0,Purple.png,4.0,38,,,,,,,,,,,,,,,,,
0.0,1.0,0.48315,0.0,20.0,20.0,20.0,1.0,microwave_02s.jpg,0.0,Red.png,4.0,38,,,,,,,,,,,,,,,,,
0.0,1.0,0.580115,0.0,21.0,21.0,21.0,1.0,cereal_04s.jpg,0.0,Orange.png,4.0,38,,,,,,,,,,,,,,,,,
0.0,1.0,0.56539,0.0,22.0,22.0,22.0,1.0,mushroom_10n.jpg,0.0,Yellow.png,4.0,38,,,,,,,,,,,,,,,,,
0.0,1.0,0.482335,0.0,23.0,23.0,23.0,1.0,red_carpet_03s.jpg,0.0,Green.png,4.0,38,,,,,,,,,,,,,,,,,
0.0,1.0,0.77203,0.0,24.0,24.0,24.0,1.0,throne_11s.jpg,0.0,Blue.png,5.0,38,,,,,,,,,,,,,,,,,
0.0,1.0,0.60799,0.0,25.0,25.0,25.0,1.0,koala_13s.jpg,0.0,Purple.png,5.0,38,,,,,,,,,,,,,,,,,
0.0,0.0,0.549555,0.0,26.0,26.0,26.0,1.0,throne_11s.jpg,1.0,Red.png,5.0,38,,,,,,,,,,,,,,,,,
0.0,1.0,0.46572,0.0,27.0,27.0,27.0,1.0,rocket_02s.jpg,0.0,Orange.png,5.0,38,,,,,,,,,,,,,,,,,
0.0,1.0,0.59925,0.0,28.0,28.0,28.0,1.0,swordfish_05s.jpg,0.0,Yellow.png,5.0,38,,,,,,,,,,,,,,,,,
1.0,1.0,0.86529,0.0,29.0,29.0,29.0,1.0,rocket_02s.jpg,1.0,Green.png,5.0,38,,,,,,,,,,,,,,,,,
0.0,1.0,0.515765,0.0,30.0,30.0,30.0,1.0,icicle_04s.jpg,0.0,Blue.png,6.0,38,,,,,,,,,,,,,,,,,
0.0,1.0,0.56359,0.0,31.0,31.0,31.0,1.0,keyboard_05s.jpg,0.0,Purple.png,6.0,38,,,,,,,,,,,,,,,,,
0.0,1.0,0.665325,0.0,32.0,32.0,32.0,1.0,pocket_watch_16s.jpg,0.0,Red.png,6.0,38,,,,,,,,,,,,,,,,,
0.0,1.0,0.815985,0.0,33.0,33.0,33.0,1.0,tablet_04s.jpg,0.0,Orange.png,6.0,38,,,,,,,,,,,,,,,,,
0.0,1.0,0.58191,0.0,34.0,34.0,34.0,1.0,chocolate_01b.jpg,0.0,Yellow.png,6.0,38,,,,,,,,,,,,,,,,,
0.0,1.0,0.615425,0.0,35.0,35.0,35.0,1.0,light_switch_02s.jpg,0.0,Green.png,6.0,38,,,,,,,,,,,,,,,,,
,,,,,,,,,0.0,,,38,0.0,1.0,2.514145,0.0,0.0,0.0,0.0,1.0,chalice_10s.jpg,sea_urchin_09s.jpg,,,,,,,
,,,,,,,,,1.0,,,38,1.0,1.0,1.42683,0.0,1.0,1.0,1.0,1.0,swordfish_05s.jpg,keyboard_05s.jpg,,,,,,,
,,,,,,,,,0.0,,,38,1.0,0.0,1.6339,0.0,2.0,2.0,2.0,1.0,red_carpet_03s.jpg,microwave_02s.jpg,,,,,,,
,,,,,,,,,0.0,,,38,0.0,1.0,2.952645,0.0,3.0,3.0,3.0,1.0,dashboard_02s.jpg,toad_09s.jpg,,,,,,,
,,,,,,,,,0.0,,,38,1.0,0.0,2.01696,0.0,4.0,4.0,4.0,1.0,koala_13s.jpg,mushroom_10n.jpg,,,,,,,
,,,,,,,,,1.0,,,38,1.0,1.0,1.30104,0.0,5.0,5.0,5.0,1.0,icicle_04s.jpg,tablet_04s.jpg,,,,,,,
,,,,,,,,,,,,38,,,,,,,,,,,0.0,8.0,8.0,8.0,1.0,new2backpresent_9_4.xlsx,new2back_compare_task_9_4.xlsx
