key_resp.keys,key_resp.corr,key_resp.rt,present_segment.thisRepN,present_segment.thisTrialN,present_segment.thisN,present_segment.thisIndex,present_segment.ran,pictures,answer,clock,segment,participant,key_resp_2.keys,key_resp_2.corr,key_resp_2.rt,compare_segment.thisRepN,compare_segment.thisTrialN,compare_segment.thisN,compare_segment.thisIndex,compare_segment.ran,item_a,item_b,clock_conditions.thisRepN,clock_conditions.thisTrialN,clock_conditions.thisN,clock_conditions.thisIndex,clock_conditions.ran,present,compare
0.0,1.0,1.59734,0.0,0.0,0.0,0.0,1.0,insole_11s.jpg,0.0,Blue.png,1.0,52,,,,,,,,,,,,,,,,,
0.0,1.0,2.414835,0.0,1.0,1.0,1.0,1.0,tupperware_09s.jpg,0.0,Purple.png,1.0,52,,,,,,,,,,,,,,,,,
1.0,1.0,1.275075,0.0,2.0,2.0,2.0,1.0,tupperware_09s.jpg,1.0,Red.png,1.0,52,,,,,,,,,,,,,,,,,
0.0,1.0,1.378285,0.0,3.0,3.0,3.0,1.0,fox_13s.jpg,0.0,Orange.png,1.0,52,,,,,,,,,,,,,,,,,
1.0,1.0,1.2774,0.0,4.0,4.0,4.0,1.0,tupperware_09s.jpg,1.0,Yellow.png,1.0,52,,,,,,,,,,,,,,,,,
0.0,1.0,0.865645,0.0,5.0,5.0,5.0,1.0,lavender_10s.jpg,0.0,Green.png,1.0,52,,,,,,,,,,,,,,,,,
0.0,1.0,1.504485,0.0,6.0,6.0,6.0,1.0,tupperware_09s.jpg,0.0,Blue.png,2.0,52,,,,,,,,,,,,,,,,,
0.0,1.0,1.112125,0.0,7.0,7.0,7.0,1.0,poinsettia_04s.jpg,0.0,Purple.png,2.0,52,,,,,,,,,,,,,,,,,
0.0,1.0,1.520125,0.0,8.0,8.0,8.0,1.0,margarita_03s.jpg,0.0,Red.png,2.0,52,,,,,,,,,,,,,,,,,
0.0,1.0,1.49711,0.0,9.0,9.0,9.0,1.0,toothpaste_12s.jpg,0.0,Orange.png,2.0,52,,,,,,,,,,,,,,,,,
0.0,1.0,1.184475,0.0,10.0,10.0,10.0,1.0,ladder_15s.jpg,0.0,Yellow.png,2.0,52,,,,,,,,,,,,,,,,,
0.0,1.0,1.56788,0.0,11.0,11.0,11.0,1.0,pocketknife_12s.jpg,0.0,Green.png,2.0,52,,,,,,,,,,,,,,,,,
0.0,1.0,1.355395,0.0,12.0,12.0,12.0,1.0,spoon02a.jpg,0.0,Blue.png,3.0,52,,,,,,,,,,,,,,,,,
0.0,1.0,1.2342,0.0,13.0,13.0,13.0,1.0,mango_09s.jpg,0.0,Purple.png,3.0,52,,,,,,,,,,,,,,,,,
0.0,1.0,1.338915,0.0,14.0,14.0,14.0,1.0,chalice_10s.jpg,0.0,Red.png,3.0,52,,,,,,,,,,,,,,,,,
1.0,0.0,1.000615,0.0,15.0,15.0,15.0,1.0,pocketknife_12s.jpg,0.0,Orange.png,3.0,52,,,,,,,,,,,,,,,,,
0.0,1.0,1.130335,0.0,16.0,16.0,16.0,1.0,abacus_12s.jpg,0.0,Yellow.png,3.0,52,,,,,,,,,,,,,,,,,
1.0,1.0,1.732135,0.0,17.0,17.0,17.0,1.0,abacus_12s.jpg,1.0,Green.png,3.0,52,,,,,,,,,,,,,,,,,
0.0,1.0,1.49954,0.0,18.0,18.0,18.0,1.0,abacus_12s.jpg,0.0,Blue.png,4.0,52,,,,,,,,,,,,,,,,,
,0.0,,0.0,19.0,19.0,19.0,1.0,abacus_12s.jpg,1.0,Purple.png,4.0,52,,,,,,,,,,,,,,,,,
0.0,1.0,0.890225,0.0,20.0,20.0,20.0,1.0,sushi_08s.jpg,0.0,Red.png,4.0,52,,,,,,,,,,,,,,,,,
0.0,1.0,1.00251,0.0,21.0,21.0,21.0,1.0,funnel_01b.jpg,0.0,Orange.png,4.0,52,,,,,,,,,,,,,,,,,
0.0,1.0,0.8792,0.0,22.0,22.0,22.0,1.0,rooster_03s.jpg,0.0,Yellow.png,4.0,52,,,,,,,,,,,,,,,,,
0.0,1.0,0.928625,0.0,23.0,23.0,23.0,1.0,ukulele_02s.jpg,0.0,Green.png,4.0,52,,,,,,,,,,,,,,,,,
0.0,1.0,1.02892,0.0,24.0,24.0,24.0,1.0,pocketknife_12s.jpg,0.0,Blue.png,5.0,52,,,,,,,,,,,,,,,,,
1.0,1.0,1.06714,0.0,25.0,25.0,25.0,1.0,pocketknife_12s.jpg,1.0,Purple.png,5.0,52,,,,,,,,,,,,,,,,,
1.0,1.0,0.78714,0.0,26.0,26.0,26.0,1.0,pocketknife_12s.jpg,1.0,Red.png,5.0,52,,,,,,,,,,,,,,,,,
0.0,1.0,2.012045,0.0,27.0,27.0,27.0,1.0,stapler_01b.jpg,0.0,Orange.png,5.0,52,,,,,,,,,,,,,,,,,
0.0,1.0,1.018955,0.0,28.0,28.0,28.0,1.0,birthday_cake_09s.jpg,0.0,Yellow.png,5.0,52,,,,,,,,,,,,,,,,,
0.0,1.0,0.844225,0.0,29.0,29.0,29.0,1.0,meatball_13s.jpg,0.0,Green.png,5.0,52,,,,,,,,,,,,,,,,,
0.0,1.0,1.10731,0.0,30.0,30.0,30.0,1.0,cape_11s.jpg,0.0,Blue.png,6.0,52,,,,,,,,,,,,,,,,,
0.0,0.0,0.93922,0.0,31.0,31.0,31.0,1.0,cape_11s.jpg,1.0,Purple.png,6.0,52,,,,,,,,,,,,,,,,,
0.0,1.0,0.7959,0.0,32.0,32.0,32.0,1.0,lizard_10n.jpg,0.0,Red.png,6.0,52,,,,,,,,,,,,,,,,,
0.0,1.0,0.78712,0.0,33.0,33.0,33.0,1.0,refrigerator_07s.jpg,0.0,Orange.png,6.0,52,,,,,,,,,,,,,,,,,
1.0,1.0,1.27952,0.0,34.0,34.0,34.0,1.0,refrigerator_07s.jpg,1.0,Yellow.png,6.0,52,,,,,,,,,,,,,,,,,
0.0,1.0,0.93225,0.0,35.0,35.0,35.0,1.0,touchpad_11s.jpg,0.0,Green.png,6.0,52,,,,,,,,,,,,,,,,,
,,,,,,,,,1.0,,,52,0.0,0.0,1.810285,0.0,0.0,0.0,0.0,1.0,lavender_10s.jpg,margarita_03s.jpg,,,,,,,
,,,,,,,,,1.0,,,52,1.0,1.0,1.200395,0.0,1.0,1.0,1.0,1.0,toothpaste_12s.jpg,spoon02a.jpg,,,,,,,
,,,,,,,,,1.0,,,52,0.0,0.0,1.333295,0.0,2.0,2.0,2.0,1.0,ladder_15s.jpg,mango_09s.jpg,,,,,,,
,,,,,,,,,0.0,,,52,1.0,0.0,1.574695,0.0,3.0,3.0,3.0,1.0,fox_13s.jpg,insole_11s.jpg,,,,,,,
,,,,,,,,,0.0,,,52,0.0,1.0,0.972235,0.0,4.0,4.0,4.0,1.0,ukulele_02s.jpg,sushi_08s.jpg,,,,,,,
,,,,,,,,,0.0,,,52,1.0,0.0,1.80225,0.0,5.0,5.0,5.0,1.0,touchpad_11s.jpg,lizard_10n.jpg,,,,,,,
,,,,,,,,,,,,52,,,,,,,,,,,0.0,0.0,0.0,0.0,1.0,newclockpresent_1_2.xlsx,newclock_compare_task_1_2.xlsx
0.0,1.0,1.387935,0.0,0.0,0.0,0.0,1.0,juicer2_06s.jpg,0.0,Blue.png,1.0,52,,,,,,,,,,,,,,,,,
1.0,1.0,0.928535,0.0,1.0,1.0,1.0,1.0,juicer2_06s.jpg,1.0,Purple.png,1.0,52,,,,,,,,,,,,,,,,,
0.0,1.0,1.183,0.0,2.0,2.0,2.0,1.0,tambourine_06s.jpg,0.0,Red.png,1.0,52,,,,,,,,,,,,,,,,,
0.0,1.0,0.962845,0.0,3.0,3.0,3.0,1.0,luggage_08s.jpg,0.0,Orange.png,1.0,52,,,,,,,,,,,,,,,,,
1.0,1.0,0.903205,0.0,4.0,4.0,4.0,1.0,tambourine_06s.jpg,1.0,Yellow.png,1.0,52,,,,,,,,,,,,,,,,,
0.0,1.0,0.83092,0.0,5.0,5.0,5.0,1.0,towel_rack_04s.jpg,0.0,Green.png,1.0,52,,,,,,,,,,,,,,,,,
0.0,1.0,1.36723,0.0,6.0,6.0,6.0,1.0,crayon_09s.jpg,0.0,Blue.png,2.0,52,,,,,,,,,,,,,,,,,
0.0,1.0,1.238655,0.0,7.0,7.0,7.0,1.0,gargoyle_08s.jpg,0.0,Purple.png,2.0,52,,,,,,,,,,,,,,,,,
0.0,1.0,1.145795,0.0,8.0,8.0,8.0,1.0,boar_10s.jpg,0.0,Red.png,2.0,52,,,,,,,,,,,,,,,,,
1.0,1.0,1.14719,0.0,9.0,9.0,9.0,1.0,gargoyle_08s.jpg,1.0,Orange.png,2.0,52,,,,,,,,,,,,,,,,,
0.0,1.0,1.07053,0.0,10.0,10.0,10.0,1.0,limousine_12s.jpg,0.0,Yellow.png,2.0,52,,,,,,,,,,,,,,,,,
0.0,1.0,1.20706,0.0,11.0,11.0,11.0,1.0,outlet_10s.jpg,0.0,Green.png,2.0,52,,,,,,,,,,,,,,,,,
0.0,1.0,1.14902,0.0,12.0,12.0,12.0,1.0,comic_book_02s.jpg,0.0,Blue.png,3.0,52,,,,,,,,,,,,,,,,,
0.0,1.0,1.14409,0.0,13.0,13.0,13.0,1.0,mask_09s.jpg,0.0,Purple.png,3.0,52,,,,,,,,,,,,,,,,,
0.0,1.0,0.880585,0.0,14.0,14.0,14.0,1.0,lasagna_06s.jpg,0.0,Red.png,3.0,52,,,,,,,,,,,,,,,,,
0.0,1.0,1.534305,0.0,15.0,15.0,15.0,1.0,diving_board_07s.jpg,0.0,Orange.png,3.0,52,,,,,,,,,,,,,,,,,
0.0,1.0,0.679105,0.0,16.0,16.0,16.0,1.0,lion_18s.jpg,0.0,Yellow.png,3.0,52,,,,,,,,,,,,,,,,,
1.0,1.0,0.918915,0.0,17.0,17.0,17.0,1.0,diving_board_07s.jpg,1.0,Green.png,3.0,52,,,,,,,,,,,,,,,,,
0.0,1.0,0.990925,0.0,18.0,18.0,18.0,1.0,lion_18s.jpg,0.0,Blue.png,4.0,52,,,,,,,,,,,,,,,,,
0.0,1.0,1.071055,0.0,19.0,19.0,19.0,1.0,medal_04s.jpg,0.0,Purple.png,4.0,52,,,,,,,,,,,,,,,,,
0.0,1.0,1.13448,0.0,20.0,20.0,20.0,1.0,incense_02s.jpg,0.0,Red.png,4.0,52,,,,,,,,,,,,,,,,,
0.0,1.0,1.078825,0.0,21.0,21.0,21.0,1.0,tape_06s.jpg,0.0,Orange.png,4.0,52,,,,,,,,,,,,,,,,,
1.0,1.0,0.918705,0.0,22.0,22.0,22.0,1.0,medal_04s.jpg,1.0,Yellow.png,4.0,52,,,,,,,,,,,,,,,,,
0.0,1.0,0.96481,0.0,23.0,23.0,23.0,1.0,buoy_04s.jpg,0.0,Green.png,4.0,52,,,,,,,,,,,,,,,,,
0.0,1.0,0.89474,0.0,24.0,24.0,24.0,1.0,limousine_12s.jpg,0.0,Blue.png,5.0,52,,,,,,,,,,,,,,,,,
0.0,1.0,1.42298,0.0,25.0,25.0,25.0,1.0,jewel_01b.jpg,0.0,Purple.png,5.0,52,,,,,,,,,,,,,,,,,
0.0,1.0,1.145495,0.0,26.0,26.0,26.0,1.0,parachute_03s.jpg,0.0,Red.png,5.0,52,,,,,,,,,,,,,,,,,
0.0,1.0,1.312715,0.0,27.0,27.0,27.0,1.0,mannequin_05s.jpg,0.0,Orange.png,5.0,52,,,,,,,,,,,,,,,,,
0.0,1.0,0.75069,0.0,28.0,28.0,28.0,1.0,snowman_02s.jpg,0.0,Yellow.png,5.0,52,,,,,,,,,,,,,,,,,
0.0,1.0,1.20017,0.0,29.0,29.0,29.0,1.0,fossil_06s.jpg,0.0,Green.png,5.0,52,,,,,,,,,,,,,,,,,
0.0,1.0,1.07819,0.0,30.0,30.0,30.0,1.0,perfume_06s.jpg,0.0,Blue.png,6.0,52,,,,,,,,,,,,,,,,,
0.0,1.0,1.438525,0.0,31.0,31.0,31.0,1.0,fossil_06s.jpg,0.0,Purple.png,6.0,52,,,,,,,,,,,,,,,,,
0.0,1.0,1.766645,0.0,32.0,32.0,32.0,1.0,pancake_12s.jpg,0.0,Red.png,6.0,52,,,,,,,,,,,,,,,,,
0.0,1.0,1.04608,0.0,33.0,33.0,33.0,1.0,tie_03s.jpg,0.0,Orange.png,6.0,52,,,,,,,,,,,,,,,,,
1.0,1.0,1.840285,0.0,34.0,34.0,34.0,1.0,pancake_12s.jpg,1.0,Yellow.png,6.0,52,,,,,,,,,,,,,,,,,
0.0,1.0,0.789535,0.0,35.0,35.0,35.0,1.0,padlock_07s.jpg,0.0,Green.png,6.0,52,,,,,,,,,,,,,,,,,
,,,,,,,,,0.0,,,52,1.0,0.0,1.777165,0.0,0.0,0.0,0.0,1.0,crayon_09s.jpg,luggage_08s.jpg,,,,,,,
,,,,,,,,,1.0,,,52,1.0,1.0,1.359445,0.0,1.0,1.0,1.0,1.0,towel_rack_04s.jpg,boar_10s.jpg,,,,,,,
,,,,,,,,,0.0,,,52,0.0,1.0,0.925785,0.0,2.0,2.0,2.0,1.0,lasagna_06s.jpg,outlet_10s.jpg,,,,,,,
,,,,,,,,,1.0,,,52,1.0,1.0,1.05258,0.0,3.0,3.0,3.0,1.0,jewel_01b.jpg,snowman_02s.jpg,,,,,,,
,,,,,,,,,0.0,,,52,1.0,0.0,1.869245,0.0,4.0,4.0,4.0,1.0,buoy_04s.jpg,incense_02s.jpg,,,,,,,
,,,,,,,,,0.0,,,52,1.0,0.0,1.437975,0.0,5.0,5.0,5.0,1.0,tie_03s.jpg,perfume_06s.jpg,,,,,,,
,,,,,,,,,,,,52,,,,,,,,,,,0.0,1.0,1.0,1.0,1.0,newclockpresent_2_2.xlsx,newclock_compare_task_2_2.xlsx
0.0,1.0,1.083245,0.0,0.0,0.0,0.0,1.0,surfboard_11s.jpg,0.0,Blue.png,1.0,52,,,,,,,,,,,,,,,,,
1.0,1.0,1.201925,0.0,1.0,1.0,1.0,1.0,surfboard_11s.jpg,1.0,Purple.png,1.0,52,,,,,,,,,,,,,,,,,
1.0,1.0,0.955445,0.0,2.0,2.0,2.0,1.0,surfboard_11s.jpg,1.0,Red.png,1.0,52,,,,,,,,,,,,,,,,,
0.0,1.0,1.33802,0.0,3.0,3.0,3.0,1.0,badge_03s.jpg,0.0,Orange.png,1.0,52,,,,,,,,,,,,,,,,,
1.0,1.0,0.94868,0.0,4.0,4.0,4.0,1.0,surfboard_11s.jpg,1.0,Yellow.png,1.0,52,,,,,,,,,,,,,,,,,
1.0,1.0,0.745825,0.0,5.0,5.0,5.0,1.0,surfboard_11s.jpg,1.0,Green.png,1.0,52,,,,,,,,,,,,,,,,,
0.0,1.0,2.41249,0.0,6.0,6.0,6.0,1.0,surfboard_11s.jpg,0.0,Blue.png,2.0,52,,,,,,,,,,,,,,,,,
0.0,1.0,1.29747,0.0,7.0,7.0,7.0,1.0,playpen_11s.jpg,0.0,Purple.png,2.0,52,,,,,,,,,,,,,,,,,
1.0,1.0,2.186635,0.0,8.0,8.0,8.0,1.0,surfboard_11s.jpg,1.0,Red.png,2.0,52,,,,,,,,,,,,,,,,,
0.0,1.0,1.4116,0.0,9.0,9.0,9.0,1.0,popcorn_09s.jpg,0.0,Orange.png,2.0,52,,,,,,,,,,,,,,,,,
1.0,1.0,2.046265,0.0,10.0,10.0,10.0,1.0,surfboard_11s.jpg,1.0,Yellow.png,2.0,52,,,,,,,,,,,,,,,,,
0.0,0.0,2.1296,0.0,11.0,11.0,11.0,1.0,popcorn_09s.jpg,1.0,Green.png,2.0,52,,,,,,,,,,,,,,,,,
0.0,1.0,1.21239,0.0,12.0,12.0,12.0,1.0,lollipop_08s.jpg,0.0,Blue.png,3.0,52,,,,,,,,,,,,,,,,,
0.0,1.0,1.74911,0.0,13.0,13.0,13.0,1.0,popcorn_09s.jpg,0.0,Purple.png,3.0,52,,,,,,,,,,,,,,,,,
0.0,1.0,1.00181,0.0,14.0,14.0,14.0,1.0,fire_pit_10s.jpg,0.0,Red.png,3.0,52,,,,,,,,,,,,,,,,,
0.0,1.0,0.76301,0.0,15.0,15.0,15.0,1.0,joystick_01b.jpg,0.0,Orange.png,3.0,52,,,,,,,,,,,,,,,,,
0.0,1.0,0.827695,0.0,16.0,16.0,16.0,1.0,panda_02s.jpg,0.0,Yellow.png,3.0,52,,,,,,,,,,,,,,,,,
0.0,1.0,1.11465,0.0,17.0,17.0,17.0,1.0,sundae_08s.jpg,0.0,Green.png,3.0,52,,,,,,,,,,,,,,,,,
0.0,1.0,1.019905,0.0,18.0,18.0,18.0,1.0,boomerang_06s.jpg,0.0,Blue.png,4.0,52,,,,,,,,,,,,,,,,,
0.0,1.0,0.881945,0.0,19.0,19.0,19.0,1.0,bagel_15s.jpg,0.0,Purple.png,4.0,52,,,,,,,,,,,,,,,,,
0.0,1.0,1.018005,0.0,20.0,20.0,20.0,1.0,powder_07s.jpg,0.0,Red.png,4.0,52,,,,,,,,,,,,,,,,,
0.0,1.0,1.029955,0.0,21.0,21.0,21.0,1.0,lipstick_02s.jpg,0.0,Orange.png,4.0,52,,,,,,,,,,,,,,,,,
1.0,1.0,0.846565,0.0,22.0,22.0,22.0,1.0,bagel_15s.jpg,1.0,Yellow.png,4.0,52,,,,,,,,,,,,,,,,,
0.0,1.0,0.778425,0.0,23.0,23.0,23.0,1.0,ladle_04s.jpg,0.0,Green.png,4.0,52,,,,,,,,,,,,,,,,,
0.0,1.0,0.913555,0.0,24.0,24.0,24.0,1.0,megaphone_03s.jpg,0.0,Blue.png,5.0,52,,,,,,,,,,,,,,,,,
0.0,1.0,1.445675,0.0,25.0,25.0,25.0,1.0,puck_06s.jpg,0.0,Purple.png,5.0,52,,,,,,,,,,,,,,,,,
0.0,1.0,0.93927,0.0,26.0,26.0,26.0,1.0,cardinal_07s.jpg,0.0,Red.png,5.0,52,,,,,,,,,,,,,,,,,
0.0,0.0,1.417105,0.0,27.0,27.0,27.0,1.0,puck_06s.jpg,1.0,Orange.png,5.0,52,,,,,,,,,,,,,,,,,
0.0,1.0,1.044545,0.0,28.0,28.0,28.0,1.0,bee_20s.jpg,0.0,Yellow.png,5.0,52,,,,,,,,,,,,,,,,,
0.0,1.0,1.505325,0.0,29.0,29.0,29.0,1.0,toilet_paper_12s.jpg,0.0,Green.png,5.0,52,,,,,,,,,,,,,,,,,
0.0,1.0,0.91397,0.0,30.0,30.0,30.0,1.0,mud_13s.jpg,0.0,Blue.png,6.0,52,,,,,,,,,,,,,,,,,
0.0,1.0,0.827835,0.0,31.0,31.0,31.0,1.0,measuring_cup_02s.jpg,0.0,Purple.png,6.0,52,,,,,,,,,,,,,,,,,
0.0,1.0,0.6896,0.0,32.0,32.0,32.0,1.0,ostrich_06s.jpg,0.0,Red.png,6.0,52,,,,,,,,,,,,,,,,,
0.0,1.0,0.75467,0.0,33.0,33.0,33.0,1.0,raspberry_12s.jpg,0.0,Orange.png,6.0,52,,,,,,,,,,,,,,,,,
1.0,1.0,1.355125,0.0,34.0,34.0,34.0,1.0,mud_13s.jpg,1.0,Yellow.png,6.0,52,,,,,,,,,,,,,,,,,
0.0,1.0,1.121315,0.0,35.0,35.0,35.0,1.0,radiator_05s.jpg,0.0,Green.png,6.0,52,,,,,,,,,,,,,,,,,
,,,,,,,,,0.0,,,52,0.0,1.0,1.777595,0.0,0.0,0.0,0.0,1.0,measuring_cup_02s.jpg,bee_20s.jpg,,,,,,,
,,,,,,,,,1.0,,,52,0.0,0.0,1.674855,0.0,1.0,1.0,1.0,1.0,lipstick_02s.jpg,megaphone_03s.jpg,,,,,,,
,,,,,,,,,0.0,,,52,0.0,1.0,1.81613,0.0,2.0,2.0,2.0,1.0,boomerang_06s.jpg,joystick_01b.jpg,,,,,,,
,,,,,,,,,0.0,,,52,0.0,1.0,1.527605,0.0,3.0,3.0,3.0,1.0,sundae_08s.jpg,fire_pit_10s.jpg,,,,,,,
,,,,,,,,,0.0,,,52,1.0,0.0,1.23324,0.0,4.0,4.0,4.0,1.0,radiator_05s.jpg,ostrich_06s.jpg,,,,,,,
,,,,,,,,,0.0,,,52,0.0,1.0,1.50485,0.0,5.0,5.0,5.0,1.0,ladle_04s.jpg,powder_07s.jpg,,,,,,,
,,,,,,,,,,,,52,,,,,,,,,,,0.0,2.0,2.0,2.0,1.0,newclockpresent_3_2.xlsx,newclock_compare_task_3_2.xlsx
0.0,1.0,0.806015,0.0,0.0,0.0,0.0,1.0,glasses01a.jpg,0.0,Blue.png,1.0,52,,,,,,,,,,,,,,,,,
0.0,1.0,0.96157,0.0,1.0,1.0,1.0,1.0,piano_13n.jpg,0.0,Purple.png,1.0,52,,,,,,,,,,,,,,,,,
0.0,1.0,0.70559,0.0,2.0,2.0,2.0,1.0,candy_cane_06s.jpg,0.0,Red.png,1.0,52,,,,,,,,,,,,,,,,,
0.0,1.0,0.817315,0.0,3.0,3.0,3.0,1.0,cushion_08s.jpg,0.0,Orange.png,1.0,52,,,,,,,,,,,,,,,,,
1.0,1.0,0.8114,0.0,4.0,4.0,4.0,1.0,candy_cane_06s.jpg,1.0,Yellow.png,1.0,52,,,,,,,,,,,,,,,,,
1.0,1.0,1.0735,0.0,5.0,5.0,5.0,1.0,candy_cane_06s.jpg,1.0,Green.png,1.0,52,,,,,,,,,,,,,,,,,
0.0,1.0,1.154865,0.0,6.0,6.0,6.0,1.0,rosary_03s.jpg,0.0,Blue.png,2.0,52,,,,,,,,,,,,,,,,,
1.0,1.0,1.273525,0.0,7.0,7.0,7.0,1.0,rosary_03s.jpg,1.0,Purple.png,2.0,52,,,,,,,,,,,,,,,,,
1.0,1.0,0.79681,0.0,8.0,8.0,8.0,1.0,rosary_03s.jpg,1.0,Red.png,2.0,52,,,,,,,,,,,,,,,,,
1.0,1.0,0.895985,0.0,9.0,9.0,9.0,1.0,rosary_03s.jpg,1.0,Orange.png,2.0,52,,,,,,,,,,,,,,,,,
0.0,1.0,0.9219,0.0,10.0,10.0,10.0,1.0,kangaroo_02s.jpg,0.0,Yellow.png,2.0,52,,,,,,,,,,,,,,,,,
1.0,1.0,1.698755,0.0,11.0,11.0,11.0,1.0,kangaroo_02s.jpg,1.0,Green.png,2.0,52,,,,,,,,,,,,,,,,,
0.0,1.0,1.379505,0.0,12.0,12.0,12.0,1.0,kangaroo_02s.jpg,0.0,Blue.png,3.0,52,,,,,,,,,,,,,,,,,
1.0,1.0,1.137165,0.0,13.0,13.0,13.0,1.0,kangaroo_02s.jpg,1.0,Purple.png,3.0,52,,,,,,,,,,,,,,,,,
0.0,1.0,0.86504,0.0,14.0,14.0,14.0,1.0,ironing_board_07s.jpg,0.0,Red.png,3.0,52,,,,,,,,,,,,,,,,,
1.0,1.0,2.386545,0.0,15.0,15.0,15.0,1.0,kangaroo_02s.jpg,1.0,Orange.png,3.0,52,,,,,,,,,,,,,,,,,
0.0,1.0,1.554705,0.0,16.0,16.0,16.0,1.0,punch2_09s.jpg,0.0,Yellow.png,3.0,52,,,,,,,,,,,,,,,,,
1.0,1.0,0.937795,0.0,17.0,17.0,17.0,1.0,ironing_board_07s.jpg,1.0,Green.png,3.0,52,,,,,,,,,,,,,,,,,
0.0,1.0,1.08254,0.0,18.0,18.0,18.0,1.0,owl_15s.jpg,0.0,Blue.png,4.0,52,,,,,,,,,,,,,,,,,
0.0,1.0,1.267025,0.0,19.0,19.0,19.0,1.0,teabag_12s.jpg,0.0,Purple.png,4.0,52,,,,,,,,,,,,,,,,,
0.0,0.0,1.89851,0.0,20.0,20.0,20.0,1.0,owl_15s.jpg,1.0,Red.png,4.0,52,,,,,,,,,,,,,,,,,
0.0,1.0,1.130695,0.0,21.0,21.0,21.0,1.0,otter_05s.jpg,0.0,Orange.png,4.0,52,,,,,,,,,,,,,,,,,
1.0,1.0,0.93124,0.0,22.0,22.0,22.0,1.0,owl_15s.jpg,1.0,Yellow.png,4.0,52,,,,,,,,,,,,,,,,,
0.0,1.0,1.713285,0.0,23.0,23.0,23.0,1.0,mold2_04s.jpg,0.0,Green.png,4.0,52,,,,,,,,,,,,,,,,,
0.0,1.0,0.938925,0.0,24.0,24.0,24.0,1.0,mattress_01s.jpg,0.0,Blue.png,5.0,52,,,,,,,,,,,,,,,,,
0.0,1.0,1.163425,0.0,25.0,25.0,25.0,1.0,police_car_01s.jpg,0.0,Purple.png,5.0,52,,,,,,,,,,,,,,,,,
0.0,1.0,2.305865,0.0,26.0,26.0,26.0,1.0,stethoscope_01b.jpg,0.0,Red.png,5.0,52,,,,,,,,,,,,,,,,,
1.0,1.0,0.833165,0.0,27.0,27.0,27.0,1.0,police_car_01s.jpg,1.0,Orange.png,5.0,52,,,,,,,,,,,,,,,,,
0.0,1.0,0.77928,0.0,28.0,28.0,28.0,1.0,sparkler_02s.jpg,0.0,Yellow.png,5.0,52,,,,,,,,,,,,,,,,,
0.0,1.0,1.046905,0.0,29.0,29.0,29.0,1.0,pacifier_09s.jpg,0.0,Green.png,5.0,52,,,,,,,,,,,,,,,,,
0.0,1.0,0.883475,0.0,30.0,30.0,30.0,1.0,machine_gun_09s.jpg,0.0,Blue.png,6.0,52,,,,,,,,,,,,,,,,,
0.0,1.0,1.185835,0.0,31.0,31.0,31.0,1.0,ram_05s.jpg,0.0,Purple.png,6.0,52,,,,,,,,,,,,,,,,,
0.0,1.0,1.074095,0.0,32.0,32.0,32.0,1.0,keyboard_05s.jpg,0.0,Red.png,6.0,52,,,,,,,,,,,,,,,,,
0.0,1.0,1.33151,0.0,33.0,33.0,33.0,1.0,leash_10s.jpg,0.0,Orange.png,6.0,52,,,,,,,,,,,,,,,,,
0.0,1.0,0.76214,0.0,34.0,34.0,34.0,1.0,pan_02s.jpg,0.0,Yellow.png,6.0,52,,,,,,,,,,,,,,,,,
0.0,1.0,2.273975,0.0,35.0,35.0,35.0,1.0,mixer_12s.jpg,0.0,Green.png,6.0,52,,,,,,,,,,,,,,,,,
,,,,,,,,,0.0,,,52,0.0,1.0,2.111475,0.0,0.0,0.0,0.0,1.0,teabag_12s.jpg,punch2_09s.jpg,,,,,,,
,,,,,,,,,0.0,,,52,0.0,1.0,2.074195,0.0,1.0,1.0,1.0,1.0,mattress_01s.jpg,otter_05s.jpg,,,,,,,
,,,,,,,,,0.0,,,52,1.0,0.0,1.70669,0.0,2.0,2.0,2.0,1.0,stethoscope_01b.jpg,mold2_04s.jpg,,,,,,,
,,,,,,,,,1.0,,,52,0.0,0.0,1.402165,0.0,3.0,3.0,3.0,1.0,glasses01a.jpg,cushion_08s.jpg,,,,,,,
,,,,,,,,,1.0,,,52,1.0,1.0,1.583655,0.0,4.0,4.0,4.0,1.0,machine_gun_09s.jpg,leash_10s.jpg,,,,,,,
,,,,,,,,,0.0,,,52,1.0,0.0,1.47356,0.0,5.0,5.0,5.0,1.0,pan_02s.jpg,ram_05s.jpg,,,,,,,
,,,,,,,,,,,,52,,,,,,,,,,,0.0,3.0,3.0,3.0,1.0,newclockpresent_4_2.xlsx,newclock_compare_task_4_2.xlsx
0.0,1.0,1.16795,0.0,0.0,0.0,0.0,1.0,golf_club_03s.jpg,0.0,Blue.png,1.0,52,,,,,,,,,,,,,,,,,
1.0,1.0,0.845175,0.0,1.0,1.0,1.0,1.0,golf_club_03s.jpg,1.0,Purple.png,1.0,52,,,,,,,,,,,,,,,,,
1.0,1.0,0.771595,0.0,2.0,2.0,2.0,1.0,golf_club_03s.jpg,1.0,Red.png,1.0,52,,,,,,,,,,,,,,,,,
0.0,1.0,0.65381,0.0,3.0,3.0,3.0,1.0,turnstile_08s.jpg,0.0,Orange.png,1.0,52,,,,,,,,,,,,,,,,,
1.0,1.0,0.86314,0.0,4.0,4.0,4.0,1.0,golf_club_03s.jpg,1.0,Yellow.png,1.0,52,,,,,,,,,,,,,,,,,
0.0,1.0,0.94055,0.0,5.0,5.0,5.0,1.0,milk_02s.jpg,0.0,Green.png,1.0,52,,,,,,,,,,,,,,,,,
0.0,1.0,0.85345,0.0,6.0,6.0,6.0,1.0,orange_12s.jpg,0.0,Blue.png,2.0,52,,,,,,,,,,,,,,,,,
0.0,1.0,2.436805,0.0,7.0,7.0,7.0,1.0,milk_02s.jpg,0.0,Purple.png,2.0,52,,,,,,,,,,,,,,,,,
0.0,1.0,1.452875,0.0,8.0,8.0,8.0,1.0,latch_15s.jpg,0.0,Red.png,2.0,52,,,,,,,,,,,,,,,,,
0.0,1.0,1.34094,0.0,9.0,9.0,9.0,1.0,bank_06s.jpg,0.0,Orange.png,2.0,52,,,,,,,,,,,,,,,,,
1.0,1.0,0.97315,0.0,10.0,10.0,10.0,1.0,milk_02s.jpg,1.0,Yellow.png,2.0,52,,,,,,,,,,,,,,,,,
0.0,1.0,1.77303,0.0,11.0,11.0,11.0,1.0,crab_16s.jpg,0.0,Green.png,2.0,52,,,,,,,,,,,,,,,,,
0.0,1.0,2.285435,0.0,12.0,12.0,12.0,1.0,birdcage_08s.jpg,0.0,Blue.png,3.0,52,,,,,,,,,,,,,,,,,
0.0,1.0,1.07739,0.0,13.0,13.0,13.0,1.0,spider_web_03s.jpg,0.0,Purple.png,3.0,52,,,,,,,,,,,,,,,,,
0.0,1.0,1.08478,0.0,14.0,14.0,14.0,1.0,knitting_needle_04s.jpg,0.0,Red.png,3.0,52,,,,,,,,,,,,,,,,,
0.0,1.0,1.17343,0.0,15.0,15.0,15.0,1.0,sugar_cube_11s.jpg,0.0,Orange.png,3.0,52,,,,,,,,,,,,,,,,,
0.0,1.0,0.76332,0.0,16.0,16.0,16.0,1.0,light_switch_02s.jpg,0.0,Yellow.png,3.0,52,,,,,,,,,,,,,,,,,
0.0,1.0,1.33327,0.0,17.0,17.0,17.0,1.0,gear_07s.jpg,0.0,Green.png,3.0,52,,,,,,,,,,,,,,,,,
0.0,1.0,0.76487,0.0,18.0,18.0,18.0,1.0,tongs_08s.jpg,0.0,Blue.png,4.0,52,,,,,,,,,,,,,,,,,
0.0,1.0,0.948185,0.0,19.0,19.0,19.0,1.0,recliner_02s.jpg,0.0,Purple.png,4.0,52,,,,,,,,,,,,,,,,,
0.0,1.0,1.902815,0.0,20.0,20.0,20.0,1.0,orangutan_03s.jpg,0.0,Red.png,4.0,52,,,,,,,,,,,,,,,,,
0.0,1.0,1.324565,0.0,21.0,21.0,21.0,1.0,golf_club_03s.jpg,0.0,Orange.png,4.0,52,,,,,,,,,,,,,,,,,
0.0,1.0,0.60358,0.0,22.0,22.0,22.0,1.0,lava_02s.jpg,0.0,Yellow.png,4.0,52,,,,,,,,,,,,,,,,,
0.0,1.0,0.6133,0.0,23.0,23.0,23.0,1.0,toilet_07s.jpg,0.0,Green.png,4.0,52,,,,,,,,,,,,,,,,,
0.0,1.0,0.61953,0.0,24.0,24.0,24.0,1.0,turnstile_08s.jpg,0.0,Blue.png,5.0,52,,,,,,,,,,,,,,,,,
0.0,0.0,0.63788,0.0,25.0,25.0,25.0,1.0,turnstile_08s.jpg,1.0,Purple.png,5.0,52,,,,,,,,,,,,,,,,,
0.0,1.0,0.635575,0.0,26.0,26.0,26.0,1.0,teacup_07s.jpg,0.0,Red.png,5.0,52,,,,,,,,,,,,,,,,,
1.0,1.0,1.695125,0.0,27.0,27.0,27.0,1.0,turnstile_08s.jpg,1.0,Orange.png,5.0,52,,,,,,,,,,,,,,,,,
1.0,1.0,1.66865,0.0,28.0,28.0,28.0,1.0,turnstile_08s.jpg,1.0,Yellow.png,5.0,52,,,,,,,,,,,,,,,,,
0.0,1.0,0.82913,0.0,29.0,29.0,29.0,1.0,antenna_01b.jpg,0.0,Green.png,5.0,52,,,,,,,,,,,,,,,,,
0.0,1.0,1.341695,0.0,30.0,30.0,30.0,1.0,keyhole_03s.jpg,0.0,Blue.png,6.0,52,,,,,,,,,,,,,,,,,
0.0,1.0,1.61992,0.0,31.0,31.0,31.0,1.0,air_pump_05s.jpg,0.0,Purple.png,6.0,52,,,,,,,,,,,,,,,,,
0.0,1.0,1.766165,0.0,32.0,32.0,32.0,1.0,eggshell_14s.jpg,0.0,Red.png,6.0,52,,,,,,,,,,,,,,,,,
0.0,1.0,0.636935,0.0,33.0,33.0,33.0,1.0,eyedropper_12s.jpg,0.0,Orange.png,6.0,52,,,,,,,,,,,,,,,,,
0.0,1.0,0.86836,0.0,34.0,34.0,34.0,1.0,machete_06s.jpg,0.0,Yellow.png,6.0,52,,,,,,,,,,,,,,,,,
1.0,1.0,1.884615,0.0,35.0,35.0,35.0,1.0,eyedropper_12s.jpg,1.0,Green.png,6.0,52,,,,,,,,,,,,,,,,,
,,,,,,,,,1.0,,,52,1.0,1.0,1.594305,0.0,0.0,0.0,0.0,1.0,sugar_cube_11s.jpg,tongs_08s.jpg,,,,,,,
,,,,,,,,,1.0,,,52,1.0,1.0,1.37617,0.0,1.0,1.0,1.0,1.0,antenna_01b.jpg,eggshell_14s.jpg,,,,,,,
,,,,,,,,,1.0,,,52,0.0,0.0,1.03754,0.0,2.0,2.0,2.0,1.0,bank_06s.jpg,birdcage_08s.jpg,,,,,,,
,,,,,,,,,1.0,,,52,0.0,0.0,1.056735,0.0,3.0,3.0,3.0,1.0,air_pump_05s.jpg,machete_06s.jpg,,,,,,,
,,,,,,,,,1.0,,,52,0.0,0.0,1.300215,0.0,4.0,4.0,4.0,1.0,latch_15s.jpg,crab_16s.jpg,,,,,,,
,,,,,,,,,1.0,,,52,0.0,0.0,1.343485,0.0,5.0,5.0,5.0,1.0,spider_web_03s.jpg,light_switch_02s.jpg,,,,,,,
,,,,,,,,,,,,52,,,,,,,,,,,0.0,4.0,4.0,4.0,1.0,newclockpresent_5_2.xlsx,newclock_compare_task_5_2.xlsx
0.0,1.0,1.077865,0.0,0.0,0.0,0.0,1.0,gazelle_10s.jpg,0.0,Blue.png,1.0,52,,,,,,,,,,,,,,,,,
0.0,1.0,0.67815,0.0,1.0,1.0,1.0,1.0,saddle_06s.jpg,0.0,Purple.png,1.0,52,,,,,,,,,,,,,,,,,
1.0,1.0,1.53,0.0,2.0,2.0,2.0,1.0,saddle_06s.jpg,1.0,Red.png,1.0,52,,,,,,,,,,,,,,,,,
0.0,1.0,0.91733,0.0,3.0,3.0,3.0,1.0,kimono_13s.jpg,0.0,Orange.png,1.0,52,,,,,,,,,,,,,,,,,
0.0,1.0,0.58177,0.0,4.0,4.0,4.0,1.0,timer_03s.jpg,0.0,Yellow.png,1.0,52,,,,,,,,,,,,,,,,,
0.0,1.0,0.80513,0.0,5.0,5.0,5.0,1.0,tulip_02s.jpg,0.0,Green.png,1.0,52,,,,,,,,,,,,,,,,,
0.0,1.0,1.053225,0.0,6.0,6.0,6.0,1.0,prism_10s.jpg,0.0,Blue.png,2.0,52,,,,,,,,,,,,,,,,,
0.0,1.0,1.14923,0.0,7.0,7.0,7.0,1.0,razor_12s.jpg,0.0,Purple.png,2.0,52,,,,,,,,,,,,,,,,,
0.0,1.0,0.901175,0.0,8.0,8.0,8.0,1.0,blazer_02s.jpg,0.0,Red.png,2.0,52,,,,,,,,,,,,,,,,,
0.0,0.0,1.89681,0.0,9.0,9.0,9.0,1.0,razor_12s.jpg,1.0,Orange.png,2.0,52,,,,,,,,,,,,,,,,,
0.0,1.0,2.403315,0.0,10.0,10.0,10.0,1.0,lamb_chop_07s.jpg,0.0,Yellow.png,2.0,52,,,,,,,,,,,,,,,,,
1.0,1.0,1.928215,0.0,11.0,11.0,11.0,1.0,razor_12s.jpg,1.0,Green.png,2.0,52,,,,,,,,,,,,,,,,,
0.0,1.0,1.83004,0.0,12.0,12.0,12.0,1.0,lamb_chop_07s.jpg,0.0,Blue.png,3.0,52,,,,,,,,,,,,,,,,,
1.0,1.0,1.897075,0.0,13.0,13.0,13.0,1.0,lamb_chop_07s.jpg,1.0,Purple.png,3.0,52,,,,,,,,,,,,,,,,,
,0.0,,0.0,14.0,14.0,14.0,1.0,timer_03s.jpg,0.0,Red.png,3.0,52,,,,,,,,,,,,,,,,,
1.0,1.0,2.12857,0.0,15.0,15.0,15.0,1.0,lamb_chop_07s.jpg,1.0,Orange.png,3.0,52,,,,,,,,,,,,,,,,,
0.0,1.0,1.982865,0.0,16.0,16.0,16.0,1.0,glue_01s.jpg,0.0,Yellow.png,3.0,52,,,,,,,,,,,,,,,,,
0.0,1.0,1.47947,0.0,17.0,17.0,17.0,1.0,solar_panel_02s.jpg,0.0,Green.png,3.0,52,,,,,,,,,,,,,,,,,
0.0,1.0,1.47803,0.0,18.0,18.0,18.0,1.0,muffin_12n.jpg,0.0,Blue.png,4.0,52,,,,,,,,,,,,,,,,,
0.0,1.0,1.285985,0.0,19.0,19.0,19.0,1.0,pepper2_21s.jpg,0.0,Purple.png,4.0,52,,,,,,,,,,,,,,,,,
0.0,1.0,2.259515,0.0,20.0,20.0,20.0,1.0,marker_05s.jpg,0.0,Red.png,4.0,52,,,,,,,,,,,,,,,,,
0.0,1.0,0.69603,0.0,21.0,21.0,21.0,1.0,soccer_ball_12s.jpg,0.0,Orange.png,4.0,52,,,,,,,,,,,,,,,,,
0.0,1.0,0.766195,0.0,22.0,22.0,22.0,1.0,amber_04s.jpg,0.0,Yellow.png,4.0,52,,,,,,,,,,,,,,,,,
0.0,1.0,0.82185,0.0,23.0,23.0,23.0,1.0,stopwatch_04s.jpg,0.0,Green.png,4.0,52,,,,,,,,,,,,,,,,,
0.0,1.0,1.037675,0.0,24.0,24.0,24.0,1.0,amber_04s.jpg,0.0,Blue.png,5.0,52,,,,,,,,,,,,,,,,,
0.0,1.0,1.67779,0.0,25.0,25.0,25.0,1.0,racehorse_03s.jpg,0.0,Purple.png,5.0,52,,,,,,,,,,,,,,,,,
1.0,1.0,1.574975,0.0,26.0,26.0,26.0,1.0,amber_04s.jpg,1.0,Red.png,5.0,52,,,,,,,,,,,,,,,,,
0.0,1.0,0.989095,0.0,27.0,27.0,27.0,1.0,duck_01b.jpg,0.0,Orange.png,5.0,52,,,,,,,,,,,,,,,,,
1.0,1.0,0.99818,0.0,28.0,28.0,28.0,1.0,amber_04s.jpg,1.0,Yellow.png,5.0,52,,,,,,,,,,,,,,,,,
0.0,0.0,1.718735,0.0,29.0,29.0,29.0,1.0,duck_01b.jpg,1.0,Green.png,5.0,52,,,,,,,,,,,,,,,,,
0.0,1.0,1.162015,0.0,30.0,30.0,30.0,1.0,duck_01b.jpg,0.0,Blue.png,6.0,52,,,,,,,,,,,,,,,,,
1.0,1.0,0.789115,0.0,31.0,31.0,31.0,1.0,duck_01b.jpg,1.0,Purple.png,6.0,52,,,,,,,,,,,,,,,,,
0.0,1.0,1.094855,0.0,32.0,32.0,32.0,1.0,magnet_03s.jpg,0.0,Red.png,6.0,52,,,,,,,,,,,,,,,,,
1.0,1.0,1.03122,0.0,33.0,33.0,33.0,1.0,duck_01b.jpg,1.0,Orange.png,6.0,52,,,,,,,,,,,,,,,,,
0.0,1.0,1.46981,0.0,34.0,34.0,34.0,1.0,swimming_pool_17s.jpg,0.0,Yellow.png,6.0,52,,,,,,,,,,,,,,,,,
0.0,1.0,0.97973,0.0,35.0,35.0,35.0,1.0,roulette_wheel_04s.jpg,0.0,Green.png,6.0,52,,,,,,,,,,,,,,,,,
,,,,,,,,,0.0,,,52,0.0,1.0,1.24962,0.0,0.0,0.0,0.0,1.0,blazer_02s.jpg,tulip_02s.jpg,,,,,,,
,,,,,,,,,1.0,,,52,1.0,1.0,1.07516,0.0,1.0,1.0,1.0,1.0,glue_01s.jpg,pepper2_21s.jpg,,,,,,,
,,,,,,,,,1.0,,,52,1.0,1.0,1.5227,0.0,2.0,2.0,2.0,1.0,kimono_13s.jpg,prism_10s.jpg,,,,,,,
,,,,,,,,,0.0,,,52,1.0,0.0,1.19354,0.0,3.0,3.0,3.0,1.0,soccer_ball_12s.jpg,muffin_12n.jpg,,,,,,,
,,,,,,,,,1.0,,,52,1.0,1.0,0.93519,0.0,4.0,4.0,4.0,1.0,magnet_03s.jpg,roulette_wheel_04s.jpg,,,,,,,
,,,,,,,,,0.0,,,52,1.0,0.0,1.084295,0.0,5.0,5.0,5.0,1.0,stopwatch_04s.jpg,marker_05s.jpg,,,,,,,
,,,,,,,,,,,,52,,,,,,,,,,,0.0,5.0,5.0,5.0,1.0,newclockpresent_6_2.xlsx,newclock_compare_task_6_2.xlsx
0.0,1.0,1.23322,0.0,0.0,0.0,0.0,1.0,slingshot_07s.jpg,0.0,Blue.png,1.0,52,,,,,,,,,,,,,,,,,
1.0,1.0,0.79652,0.0,1.0,1.0,1.0,1.0,slingshot_07s.jpg,1.0,Purple.png,1.0,52,,,,,,,,,,,,,,,,,
0.0,1.0,0.605885,0.0,2.0,2.0,2.0,1.0,aluminum_foil_08s.jpg,0.0,Red.png,1.0,52,,,,,,,,,,,,,,,,,
0.0,1.0,0.76678,0.0,3.0,3.0,3.0,1.0,ink_08s.jpg,0.0,Orange.png,1.0,52,,,,,,,,,,,,,,,,,
0.0,0.0,1.062425,0.0,4.0,4.0,4.0,1.0,aluminum_foil_08s.jpg,1.0,Yellow.png,1.0,52,,,,,,,,,,,,,,,,,
1.0,1.0,0.854005,0.0,5.0,5.0,5.0,1.0,slingshot_07s.jpg,1.0,Green.png,1.0,52,,,,,,,,,,,,,,,,,
0.0,1.0,1.174995,0.0,6.0,6.0,6.0,1.0,aluminum_foil_08s.jpg,0.0,Blue.png,2.0,52,,,,,,,,,,,,,,,,,
0.0,0.0,2.431835,0.0,7.0,7.0,7.0,1.0,aluminum_foil_08s.jpg,1.0,Purple.png,2.0,52,,,,,,,,,,,,,,,,,
0.0,1.0,1.037485,0.0,8.0,8.0,8.0,1.0,ice-cream_cone_06s.jpg,0.0,Red.png,2.0,52,,,,,,,,,,,,,,,,,
1.0,0.0,1.964145,0.0,9.0,9.0,9.0,1.0,ink_08s.jpg,0.0,Orange.png,2.0,52,,,,,,,,,,,,,,,,,
0.0,1.0,0.989915,0.0,10.0,10.0,10.0,1.0,emerald_02s.jpg,0.0,Yellow.png,2.0,52,,,,,,,,,,,,,,,,,
0.0,1.0,2.135085,0.0,11.0,11.0,11.0,1.0,bathtub_23s.jpg,0.0,Green.png,2.0,52,,,,,,,,,,,,,,,,,
0.0,1.0,0.852275,0.0,12.0,12.0,12.0,1.0,bubble_01b.jpg,0.0,Blue.png,3.0,52,,,,,,,,,,,,,,,,,
0.0,1.0,0.86979,0.0,13.0,13.0,13.0,1.0,mirror_12s.jpg,0.0,Purple.png,3.0,52,,,,,,,,,,,,,,,,,
0.0,1.0,2.21557,0.0,14.0,14.0,14.0,1.0,swing_set_15s.jpg,0.0,Red.png,3.0,52,,,,,,,,,,,,,,,,,
0.0,1.0,1.630635,0.0,15.0,15.0,15.0,1.0,pinwheel_06s.jpg,0.0,Orange.png,3.0,52,,,,,,,,,,,,,,,,,
1.0,1.0,0.83732,0.0,16.0,16.0,16.0,1.0,swing_set_15s.jpg,1.0,Yellow.png,3.0,52,,,,,,,,,,,,,,,,,
1.0,1.0,0.84756,0.0,17.0,17.0,17.0,1.0,pinwheel_06s.jpg,1.0,Green.png,3.0,52,,,,,,,,,,,,,,,,,
0.0,1.0,1.470235,0.0,18.0,18.0,18.0,1.0,ink_08s.jpg,0.0,Blue.png,4.0,52,,,,,,,,,,,,,,,,,
0.0,1.0,1.312145,0.0,19.0,19.0,19.0,1.0,plunger_08s.jpg,0.0,Purple.png,4.0,52,,,,,,,,,,,,,,,,,
1.0,1.0,1.014765,0.0,20.0,20.0,20.0,1.0,ink_08s.jpg,1.0,Red.png,4.0,52,,,,,,,,,,,,,,,,,
1.0,1.0,1.319235,0.0,21.0,21.0,21.0,1.0,ink_08s.jpg,1.0,Orange.png,4.0,52,,,,,,,,,,,,,,,,,
0.0,1.0,0.78973,0.0,22.0,22.0,22.0,1.0,metronome_03s.jpg,0.0,Yellow.png,4.0,52,,,,,,,,,,,,,,,,,
0.0,1.0,1.08007,0.0,23.0,23.0,23.0,1.0,puppy_08s.jpg,0.0,Green.png,4.0,52,,,,,,,,,,,,,,,,,
0.0,1.0,0.88722,0.0,24.0,24.0,24.0,1.0,treasure_08s.jpg,0.0,Blue.png,5.0,52,,,,,,,,,,,,,,,,,
0.0,1.0,1.8534,0.0,25.0,25.0,25.0,1.0,penguin_16s.jpg,0.0,Purple.png,5.0,52,,,,,,,,,,,,,,,,,
0.0,1.0,0.828805,0.0,26.0,26.0,26.0,1.0,bacon_05s.jpg,0.0,Red.png,5.0,52,,,,,,,,,,,,,,,,,
0.0,1.0,1.51176,0.0,27.0,27.0,27.0,1.0,giraffe_11s.jpg,0.0,Orange.png,5.0,52,,,,,,,,,,,,,,,,,
0.0,1.0,1.436945,0.0,28.0,28.0,28.0,1.0,rug_09s.jpg,0.0,Yellow.png,5.0,52,,,,,,,,,,,,,,,,,
0.0,1.0,0.94585,0.0,29.0,29.0,29.0,1.0,lamp_08s.jpg,0.0,Green.png,5.0,52,,,,,,,,,,,,,,,,,
0.0,1.0,0.7477,0.0,30.0,30.0,30.0,1.0,metronome_03s.jpg,0.0,Blue.png,6.0,52,,,,,,,,,,,,,,,,,
1.0,1.0,1.362105,0.0,31.0,31.0,31.0,1.0,metronome_03s.jpg,1.0,Purple.png,6.0,52,,,,,,,,,,,,,,,,,
0.0,1.0,0.62194,0.0,32.0,32.0,32.0,1.0,lip_gloss_06s.jpg,0.0,Red.png,6.0,52,,,,,,,,,,,,,,,,,
1.0,1.0,1.13601,0.0,33.0,33.0,33.0,1.0,metronome_03s.jpg,1.0,Orange.png,6.0,52,,,,,,,,,,,,,,,,,
0.0,1.0,1.286475,0.0,34.0,34.0,34.0,1.0,laser_pointer_02s.jpg,0.0,Yellow.png,6.0,52,,,,,,,,,,,,,,,,,
1.0,1.0,1.263775,0.0,35.0,35.0,35.0,1.0,metronome_03s.jpg,1.0,Green.png,6.0,52,,,,,,,,,,,,,,,,,
,,,,,,,,,1.0,,,52,1.0,1.0,1.22767,0.0,0.0,0.0,0.0,1.0,emerald_02s.jpg,mirror_12s.jpg,,,,,,,
,,,,,,,,,1.0,,,52,0.0,0.0,2.182895,0.0,1.0,1.0,1.0,1.0,puppy_08s.jpg,bacon_05s.jpg,,,,,,,
,,,,,,,,,0.0,,,52,1.0,0.0,1.36599,0.0,2.0,2.0,2.0,1.0,lip_gloss_06s.jpg,lamp_08s.jpg,,,,,,,
,,,,,,,,,0.0,,,52,0.0,1.0,1.207465,0.0,3.0,3.0,3.0,1.0,bathtub_23s.jpg,ice-cream_cone_06s.jpg,,,,,,,
,,,,,,,,,0.0,,,52,1.0,0.0,2.117175,0.0,4.0,4.0,4.0,1.0,giraffe_11s.jpg,treasure_08s.jpg,,,,,,,
,,,,,,,,,0.0,,,52,0.0,1.0,0.88326,0.0,5.0,5.0,5.0,1.0,rug_09s.jpg,penguin_16s.jpg,,,,,,,
,,,,,,,,,,,,52,,,,,,,,,,,0.0,6.0,6.0,6.0,1.0,newclockpresent_7_2.xlsx,newclock_compare_task_7_2.xlsx
0.0,1.0,1.000575,0.0,0.0,0.0,0.0,1.0,ant_12s.jpg,0.0,Blue.png,1.0,52,,,,,,,,,,,,,,,,,
1.0,1.0,0.790085,0.0,1.0,1.0,1.0,1.0,ant_12s.jpg,1.0,Purple.png,1.0,52,,,,,,,,,,,,,,,,,
0.0,1.0,0.73619,0.0,2.0,2.0,2.0,1.0,ticktacktoe_08s.jpg,0.0,Red.png,1.0,52,,,,,,,,,,,,,,,,,
0.0,1.0,1.054985,0.0,3.0,3.0,3.0,1.0,frog_09s.jpg,0.0,Orange.png,1.0,52,,,,,,,,,,,,,,,,,
1.0,1.0,1.151315,0.0,4.0,4.0,4.0,1.0,ticktacktoe_08s.jpg,1.0,Yellow.png,1.0,52,,,,,,,,,,,,,,,,,
0.0,1.0,0.69653,0.0,5.0,5.0,5.0,1.0,feather02.jpg,0.0,Green.png,1.0,52,,,,,,,,,,,,,,,,,
0.0,1.0,0.87891,0.0,6.0,6.0,6.0,1.0,gas_mask_11s.jpg,0.0,Blue.png,2.0,52,,,,,,,,,,,,,,,,,
1.0,1.0,1.440245,0.0,7.0,7.0,7.0,1.0,gas_mask_11s.jpg,1.0,Purple.png,2.0,52,,,,,,,,,,,,,,,,,
0.0,1.0,1.36291,0.0,8.0,8.0,8.0,1.0,mop_08s.jpg,0.0,Red.png,2.0,52,,,,,,,,,,,,,,,,,
1.0,1.0,1.20781,0.0,9.0,9.0,9.0,1.0,gas_mask_11s.jpg,1.0,Orange.png,2.0,52,,,,,,,,,,,,,,,,,
0.0,1.0,1.40598,0.0,10.0,10.0,10.0,1.0,pea_11s.jpg,0.0,Yellow.png,2.0,52,,,,,,,,,,,,,,,,,
0.0,1.0,1.918325,0.0,11.0,11.0,11.0,1.0,bowler_hat_10s.jpg,0.0,Green.png,2.0,52,,,,,,,,,,,,,,,,,
0.0,1.0,0.904005,0.0,12.0,12.0,12.0,1.0,pencil_sharpener_09n.jpg,0.0,Blue.png,3.0,52,,,,,,,,,,,,,,,,,
0.0,1.0,0.903515,0.0,13.0,13.0,13.0,1.0,rice_12s.jpg,0.0,Purple.png,3.0,52,,,,,,,,,,,,,,,,,
0.0,1.0,0.778555,0.0,14.0,14.0,14.0,1.0,stamp1_11s.jpg,0.0,Red.png,3.0,52,,,,,,,,,,,,,,,,,
0.0,1.0,0.71914,0.0,15.0,15.0,15.0,1.0,jersey_02s.jpg,0.0,Orange.png,3.0,52,,,,,,,,,,,,,,,,,
0.0,1.0,0.578225,0.0,16.0,16.0,16.0,1.0,tiara_05s.jpg,0.0,Yellow.png,3.0,52,,,,,,,,,,,,,,,,,
0.0,1.0,0.94511,0.0,17.0,17.0,17.0,1.0,target_11s.jpg,0.0,Green.png,3.0,52,,,,,,,,,,,,,,,,,
0.0,1.0,0.768105,0.0,18.0,18.0,18.0,1.0,dirt_bike_11s.jpg,0.0,Blue.png,4.0,52,,,,,,,,,,,,,,,,,
0.0,1.0,0.613845,0.0,19.0,19.0,19.0,1.0,doily_13s.jpg,0.0,Purple.png,4.0,52,,,,,,,,,,,,,,,,,
0.0,1.0,0.86327,0.0,20.0,20.0,20.0,1.0,sunglasses_11s.jpg,0.0,Red.png,4.0,52,,,,,,,,,,,,,,,,,
0.0,1.0,1.16742,0.0,21.0,21.0,21.0,1.0,compass_10n.jpg,0.0,Orange.png,4.0,52,,,,,,,,,,,,,,,,,
0.0,0.0,1.993965,0.0,22.0,22.0,22.0,1.0,sunglasses_11s.jpg,1.0,Yellow.png,4.0,52,,,,,,,,,,,,,,,,,
1.0,1.0,1.00616,0.0,23.0,23.0,23.0,1.0,sunglasses_11s.jpg,1.0,Green.png,4.0,52,,,,,,,,,,,,,,,,,
0.0,1.0,0.782155,0.0,24.0,24.0,24.0,1.0,seagull_01b.jpg,0.0,Blue.png,5.0,52,,,,,,,,,,,,,,,,,
0.0,1.0,0.8311,0.0,25.0,25.0,25.0,1.0,footprint_11s.jpg,0.0,Purple.png,5.0,52,,,,,,,,,,,,,,,,,
0.0,1.0,0.66331,0.0,26.0,26.0,26.0,1.0,projector_08s.jpg,0.0,Red.png,5.0,52,,,,,,,,,,,,,,,,,
1.0,1.0,0.96769,0.0,27.0,27.0,27.0,1.0,projector_08s.jpg,1.0,Orange.png,5.0,52,,,,,,,,,,,,,,,,,
0.0,1.0,0.967755,0.0,28.0,28.0,28.0,1.0,money_07s.jpg,0.0,Yellow.png,5.0,52,,,,,,,,,,,,,,,,,
0.0,1.0,0.830825,0.0,29.0,29.0,29.0,1.0,flip_flop_03s.jpg,0.0,Green.png,5.0,52,,,,,,,,,,,,,,,,,
0.0,1.0,0.767185,0.0,30.0,30.0,30.0,1.0,ring_03s.jpg,0.0,Blue.png,6.0,52,,,,,,,,,,,,,,,,,
1.0,0.0,0.979355,0.0,31.0,31.0,31.0,1.0,flip_flop_03s.jpg,0.0,Purple.png,6.0,52,,,,,,,,,,,,,,,,,
1.0,1.0,0.963395,0.0,32.0,32.0,32.0,1.0,flip_flop_03s.jpg,1.0,Red.png,6.0,52,,,,,,,,,,,,,,,,,
1.0,1.0,0.599795,0.0,33.0,33.0,33.0,1.0,flip_flop_03s.jpg,1.0,Orange.png,6.0,52,,,,,,,,,,,,,,,,,
0.0,1.0,0.88647,0.0,34.0,34.0,34.0,1.0,screwdriver02a.jpg,0.0,Yellow.png,6.0,52,,,,,,,,,,,,,,,,,
0.0,0.0,1.127865,0.0,35.0,35.0,35.0,1.0,screwdriver02a.jpg,1.0,Green.png,6.0,52,,,,,,,,,,,,,,,,,
,,,,,,,,,0.0,,,52,1.0,0.0,1.580615,0.0,0.0,0.0,0.0,1.0,mop_08s.jpg,feather02.jpg,,,,,,,
,,,,,,,,,1.0,,,52,1.0,1.0,1.10028,0.0,1.0,1.0,1.0,1.0,pea_11s.jpg,rice_12s.jpg,,,,,,,
,,,,,,,,,1.0,,,52,0.0,0.0,1.450255,0.0,2.0,2.0,2.0,1.0,tiara_05s.jpg,doily_13s.jpg,,,,,,,
,,,,,,,,,1.0,,,52,1.0,1.0,1.50393,0.0,3.0,3.0,3.0,1.0,footprint_11s.jpg,money_07s.jpg,,,,,,,
,,,,,,,,,1.0,,,52,1.0,1.0,1.38419,0.0,4.0,4.0,4.0,1.0,pencil_sharpener_09n.jpg,jersey_02s.jpg,,,,,,,
,,,,,,,,,1.0,,,52,0.0,0.0,1.211785,0.0,5.0,5.0,5.0,1.0,stamp1_11s.jpg,target_11s.jpg,,,,,,,
,,,,,,,,,,,,52,,,,,,,,,,,0.0,7.0,7.0,7.0,1.0,newclockpresent_8_2.xlsx,newclock_compare_task_8_2.xlsx
0.0,1.0,0.772945,0.0,0.0,0.0,0.0,1.0,quilt_03s.jpg,0.0,Blue.png,1.0,52,,,,,,,,,,,,,,,,,
0.0,1.0,0.61232,0.0,1.0,1.0,1.0,1.0,stingray_02s.jpg,0.0,Purple.png,1.0,52,,,,,,,,,,,,,,,,,
0.0,1.0,0.67823,0.0,2.0,2.0,2.0,1.0,mousetrap_15n.jpg,0.0,Red.png,1.0,52,,,,,,,,,,,,,,,,,
0.0,1.0,1.035085,0.0,3.0,3.0,3.0,1.0,dashboard_02s.jpg,0.0,Orange.png,1.0,52,,,,,,,,,,,,,,,,,
1.0,1.0,1.127065,0.0,4.0,4.0,4.0,1.0,quilt_03s.jpg,1.0,Yellow.png,1.0,52,,,,,,,,,,,,,,,,,
1.0,1.0,2.22882,0.0,5.0,5.0,5.0,1.0,quilt_03s.jpg,1.0,Green.png,1.0,52,,,,,,,,,,,,,,,,,
0.0,1.0,0.939235,0.0,6.0,6.0,6.0,1.0,thorn_13s.jpg,0.0,Blue.png,2.0,52,,,,,,,,,,,,,,,,,
0.0,1.0,0.63611,0.0,7.0,7.0,7.0,1.0,mitten_10s.jpg,0.0,Purple.png,2.0,52,,,,,,,,,,,,,,,,,
0.0,1.0,0.596685,0.0,8.0,8.0,8.0,1.0,fondue_07s.jpg,0.0,Red.png,2.0,52,,,,,,,,,,,,,,,,,
0.0,1.0,0.571425,0.0,9.0,9.0,9.0,1.0,peach_04s.jpg,0.0,Orange.png,2.0,52,,,,,,,,,,,,,,,,,
0.0,1.0,0.748155,0.0,10.0,10.0,10.0,1.0,stump_02s.jpg,0.0,Yellow.png,2.0,52,,,,,,,,,,,,,,,,,
0.0,1.0,0.637235,0.0,11.0,11.0,11.0,1.0,rabbit_03s.jpg,0.0,Green.png,2.0,52,,,,,,,,,,,,,,,,,
0.0,1.0,0.69464,0.0,12.0,12.0,12.0,1.0,champagne_18s.jpg,0.0,Blue.png,3.0,52,,,,,,,,,,,,,,,,,
0.0,1.0,1.772285,0.0,13.0,13.0,13.0,1.0,rabbit_03s.jpg,0.0,Purple.png,3.0,52,,,,,,,,,,,,,,,,,
0.0,1.0,0.72314,0.0,14.0,14.0,14.0,1.0,denture_03s.jpg,0.0,Red.png,3.0,52,,,,,,,,,,,,,,,,,
1.0,1.0,1.045125,0.0,15.0,15.0,15.0,1.0,rabbit_03s.jpg,1.0,Orange.png,3.0,52,,,,,,,,,,,,,,,,,
0.0,1.0,0.99613,0.0,16.0,16.0,16.0,1.0,turtleneck_11s.jpg,0.0,Yellow.png,3.0,52,,,,,,,,,,,,,,,,,
1.0,1.0,1.125455,0.0,17.0,17.0,17.0,1.0,rabbit_03s.jpg,1.0,Green.png,3.0,52,,,,,,,,,,,,,,,,,
0.0,1.0,0.94666,0.0,18.0,18.0,18.0,1.0,typewriter_11s.jpg,0.0,Blue.png,4.0,52,,,,,,,,,,,,,,,,,
0.0,1.0,0.548755,0.0,19.0,19.0,19.0,1.0,thread_08s.jpg,0.0,Purple.png,4.0,52,,,,,,,,,,,,,,,,,
0.0,1.0,0.556825,0.0,20.0,20.0,20.0,1.0,bean_06s.jpg,0.0,Red.png,4.0,52,,,,,,,,,,,,,,,,,
0.0,1.0,0.883345,0.0,21.0,21.0,21.0,1.0,rolling_pin_02s.jpg,0.0,Orange.png,4.0,52,,,,,,,,,,,,,,,,,
0.0,1.0,1.139335,0.0,22.0,22.0,22.0,1.0,tattoo_14s.jpg,0.0,Yellow.png,4.0,52,,,,,,,,,,,,,,,,,
0.0,1.0,0.724505,0.0,23.0,23.0,23.0,1.0,eiffeltower.jpg,0.0,Green.png,4.0,52,,,,,,,,,,,,,,,,,
0.0,1.0,0.852315,0.0,24.0,24.0,24.0,1.0,fondue_07s.jpg,0.0,Blue.png,5.0,52,,,,,,,,,,,,,,,,,
0.0,0.0,1.46766,0.0,25.0,25.0,25.0,1.0,fondue_07s.jpg,1.0,Purple.png,5.0,52,,,,,,,,,,,,,,,,,
0.0,1.0,0.66719,0.0,26.0,26.0,26.0,1.0,omelet_07s.jpg,0.0,Red.png,5.0,52,,,,,,,,,,,,,,,,,
1.0,1.0,1.173375,0.0,27.0,27.0,27.0,1.0,fondue_07s.jpg,1.0,Orange.png,5.0,52,,,,,,,,,,,,,,,,,
0.0,1.0,0.877555,0.0,28.0,28.0,28.0,1.0,radio_09s.jpg,0.0,Yellow.png,5.0,52,,,,,,,,,,,,,,,,,
1.0,1.0,1.204985,0.0,29.0,29.0,29.0,1.0,fondue_07s.jpg,1.0,Green.png,5.0,52,,,,,,,,,,,,,,,,,
0.0,1.0,1.163205,0.0,30.0,30.0,30.0,1.0,roller_coaster_07s.jpg,0.0,Blue.png,6.0,52,,,,,,,,,,,,,,,,,
0.0,1.0,0.577955,0.0,31.0,31.0,31.0,1.0,loveseat_08s.jpg,0.0,Purple.png,6.0,52,,,,,,,,,,,,,,,,,
1.0,1.0,1.511595,0.0,32.0,32.0,32.0,1.0,roller_coaster_07s.jpg,1.0,Red.png,6.0,52,,,,,,,,,,,,,,,,,
1.0,1.0,1.00378,0.0,33.0,33.0,33.0,1.0,roller_coaster_07s.jpg,1.0,Orange.png,6.0,52,,,,,,,,,,,,,,,,,
1.0,1.0,1.035905,0.0,34.0,34.0,34.0,1.0,roller_coaster_07s.jpg,1.0,Yellow.png,6.0,52,,,,,,,,,,,,,,,,,
1.0,1.0,0.94882,0.0,35.0,35.0,35.0,1.0,roller_coaster_07s.jpg,1.0,Green.png,6.0,52,,,,,,,,,,,,,,,,,
,,,,,,,,,0.0,,,52,0.0,1.0,1.51637,0.0,0.0,0.0,0.0,1.0,loveseat_08s.jpg,radio_09s.jpg,,,,,,,
,,,,,,,,,1.0,,,52,1.0,1.0,2.04968,0.0,1.0,1.0,1.0,1.0,dashboard_02s.jpg,thorn_13s.jpg,,,,,,,
,,,,,,,,,0.0,,,52,0.0,1.0,1.466015,0.0,2.0,2.0,2.0,1.0,champagne_18s.jpg,peach_04s.jpg,,,,,,,
,,,,,,,,,1.0,,,52,1.0,1.0,1.39536,0.0,3.0,3.0,3.0,1.0,mitten_10s.jpg,stump_02s.jpg,,,,,,,
,,,,,,,,,1.0,,,52,1.0,1.0,1.96735,0.0,4.0,4.0,4.0,1.0,typewriter_11s.jpg,rolling_pin_02s.jpg,,,,,,,
,,,,,,,,,1.0,,,52,1.0,1.0,1.80308,0.0,5.0,5.0,5.0,1.0,thread_08s.jpg,tattoo_14s.jpg,,,,,,,
,,,,,,,,,,,,52,,,,,,,,,,,0.0,8.0,8.0,8.0,1.0,newclockpresent_9_2.xlsx,newclock_compare_task_9_2.xlsx
