key_resp.keys,key_resp.corr,key_resp.rt,present_segment.thisRepN,present_segment.thisTrialN,present_segment.thisN,present_segment.thisIndex,present_segment.ran,pictures,answer,clock,segment,participant,key_resp_2.keys,key_resp_2.corr,key_resp_2.rt,compare_segment.thisRepN,compare_segment.thisTrialN,compare_segment.thisN,compare_segment.thisIndex,compare_segment.ran,item_a,item_b,clock_conditions.thisRepN,clock_conditions.thisTrialN,clock_conditions.thisN,clock_conditions.thisIndex,clock_conditions.ran,present,compare
0.0,1.0,1.14115,0.0,0.0,0.0,0.0,1.0,insole_11s.jpg,0.0,Blue.png,1.0,28,,,,,,,,,,,,,,,,,
0.0,1.0,0.978685,0.0,1.0,1.0,1.0,1.0,tupperware_09s.jpg,0.0,Purple.png,1.0,28,,,,,,,,,,,,,,,,,
1.0,1.0,0.833265,0.0,2.0,2.0,2.0,1.0,tupperware_09s.jpg,1.0,Red.png,1.0,28,,,,,,,,,,,,,,,,,
0.0,1.0,0.8031,0.0,3.0,3.0,3.0,1.0,fox_13s.jpg,0.0,Orange.png,1.0,28,,,,,,,,,,,,,,,,,
1.0,1.0,0.653295,0.0,4.0,4.0,4.0,1.0,tupperware_09s.jpg,1.0,Yellow.png,1.0,28,,,,,,,,,,,,,,,,,
0.0,1.0,2.293075,0.0,5.0,5.0,5.0,1.0,lavender_10s.jpg,0.0,Green.png,1.0,28,,,,,,,,,,,,,,,,,
1.0,0.0,0.689325,0.0,6.0,6.0,6.0,1.0,tupperware_09s.jpg,0.0,Blue.png,2.0,28,,,,,,,,,,,,,,,,,
0.0,1.0,0.99375,0.0,7.0,7.0,7.0,1.0,poinsettia_04s.jpg,0.0,Purple.png,2.0,28,,,,,,,,,,,,,,,,,
0.0,1.0,0.756075,0.0,8.0,8.0,8.0,1.0,margarita_03s.jpg,0.0,Red.png,2.0,28,,,,,,,,,,,,,,,,,
0.0,1.0,0.57963,0.0,9.0,9.0,9.0,1.0,toothpaste_12s.jpg,0.0,Orange.png,2.0,28,,,,,,,,,,,,,,,,,
0.0,1.0,0.571215,0.0,10.0,10.0,10.0,1.0,ladder_15s.jpg,0.0,Yellow.png,2.0,28,,,,,,,,,,,,,,,,,
0.0,1.0,0.63924,0.0,11.0,11.0,11.0,1.0,pocketknife_12s.jpg,0.0,Green.png,2.0,28,,,,,,,,,,,,,,,,,
0.0,1.0,0.522915,0.0,12.0,12.0,12.0,1.0,spoon02a.jpg,0.0,Blue.png,3.0,28,,,,,,,,,,,,,,,,,
0.0,1.0,2.16654,0.0,13.0,13.0,13.0,1.0,mango_09s.jpg,0.0,Purple.png,3.0,28,,,,,,,,,,,,,,,,,
0.0,1.0,0.64911,0.0,14.0,14.0,14.0,1.0,chalice_10s.jpg,0.0,Red.png,3.0,28,,,,,,,,,,,,,,,,,
1.0,0.0,0.77913,0.0,15.0,15.0,15.0,1.0,pocketknife_12s.jpg,0.0,Orange.png,3.0,28,,,,,,,,,,,,,,,,,
0.0,1.0,0.736195,0.0,16.0,16.0,16.0,1.0,abacus_12s.jpg,0.0,Yellow.png,3.0,28,,,,,,,,,,,,,,,,,
1.0,1.0,1.276795,0.0,17.0,17.0,17.0,1.0,abacus_12s.jpg,1.0,Green.png,3.0,28,,,,,,,,,,,,,,,,,
1.0,0.0,2.00014,0.0,18.0,18.0,18.0,1.0,abacus_12s.jpg,0.0,Blue.png,4.0,28,,,,,,,,,,,,,,,,,
1.0,1.0,0.545185,0.0,19.0,19.0,19.0,1.0,abacus_12s.jpg,1.0,Purple.png,4.0,28,,,,,,,,,,,,,,,,,
0.0,1.0,0.415285,0.0,20.0,20.0,20.0,1.0,sushi_08s.jpg,0.0,Red.png,4.0,28,,,,,,,,,,,,,,,,,
0.0,1.0,0.856975,0.0,21.0,21.0,21.0,1.0,funnel_01b.jpg,0.0,Orange.png,4.0,28,,,,,,,,,,,,,,,,,
0.0,1.0,0.550555,0.0,22.0,22.0,22.0,1.0,rooster_03s.jpg,0.0,Yellow.png,4.0,28,,,,,,,,,,,,,,,,,
0.0,1.0,0.584035,0.0,23.0,23.0,23.0,1.0,ukulele_02s.jpg,0.0,Green.png,4.0,28,,,,,,,,,,,,,,,,,
1.0,0.0,0.701225,0.0,24.0,24.0,24.0,1.0,pocketknife_12s.jpg,0.0,Blue.png,5.0,28,,,,,,,,,,,,,,,,,
1.0,1.0,1.07046,0.0,25.0,25.0,25.0,1.0,pocketknife_12s.jpg,1.0,Purple.png,5.0,28,,,,,,,,,,,,,,,,,
1.0,1.0,0.60585,0.0,26.0,26.0,26.0,1.0,pocketknife_12s.jpg,1.0,Red.png,5.0,28,,,,,,,,,,,,,,,,,
0.0,1.0,0.66922,0.0,27.0,27.0,27.0,1.0,stapler_01b.jpg,0.0,Orange.png,5.0,28,,,,,,,,,,,,,,,,,
0.0,1.0,0.935495,0.0,28.0,28.0,28.0,1.0,birthday_cake_09s.jpg,0.0,Yellow.png,5.0,28,,,,,,,,,,,,,,,,,
0.0,1.0,0.62794,0.0,29.0,29.0,29.0,1.0,meatball_13s.jpg,0.0,Green.png,5.0,28,,,,,,,,,,,,,,,,,
0.0,1.0,1.098035,0.0,30.0,30.0,30.0,1.0,cape_11s.jpg,0.0,Blue.png,6.0,28,,,,,,,,,,,,,,,,,
1.0,1.0,0.766505,0.0,31.0,31.0,31.0,1.0,cape_11s.jpg,1.0,Purple.png,6.0,28,,,,,,,,,,,,,,,,,
0.0,1.0,0.632235,0.0,32.0,32.0,32.0,1.0,lizard_10n.jpg,0.0,Red.png,6.0,28,,,,,,,,,,,,,,,,,
0.0,1.0,0.66567,0.0,33.0,33.0,33.0,1.0,refrigerator_07s.jpg,0.0,Orange.png,6.0,28,,,,,,,,,,,,,,,,,
1.0,1.0,1.20301,0.0,34.0,34.0,34.0,1.0,refrigerator_07s.jpg,1.0,Yellow.png,6.0,28,,,,,,,,,,,,,,,,,
0.0,1.0,0.80486,0.0,35.0,35.0,35.0,1.0,touchpad_11s.jpg,0.0,Green.png,6.0,28,,,,,,,,,,,,,,,,,
,,,,,,,,,1.0,,,28,1.0,1.0,3.25297,0.0,0.0,0.0,0.0,1.0,lavender_10s.jpg,margarita_03s.jpg,,,,,,,
,,,,,,,,,1.0,,,28,0.0,0.0,0.728515,0.0,1.0,1.0,1.0,1.0,toothpaste_12s.jpg,spoon02a.jpg,,,,,,,
,,,,,,,,,1.0,,,28,0.0,0.0,1.621405,0.0,2.0,2.0,2.0,1.0,ladder_15s.jpg,mango_09s.jpg,,,,,,,
,,,,,,,,,0.0,,,28,1.0,0.0,0.865215,0.0,3.0,3.0,3.0,1.0,fox_13s.jpg,insole_11s.jpg,,,,,,,
,,,,,,,,,0.0,,,28,1.0,0.0,0.881055,0.0,4.0,4.0,4.0,1.0,ukulele_02s.jpg,sushi_08s.jpg,,,,,,,
,,,,,,,,,0.0,,,28,1.0,0.0,1.374055,0.0,5.0,5.0,5.0,1.0,touchpad_11s.jpg,lizard_10n.jpg,,,,,,,
,,,,,,,,,,,,28,,,,,,,,,,,0.0,0.0,0.0,0.0,1.0,newclockpresent_1_2.xlsx,newclock_compare_task_1_2.xlsx
0.0,1.0,0.865725,0.0,0.0,0.0,0.0,1.0,juicer2_06s.jpg,0.0,Blue.png,1.0,28,,,,,,,,,,,,,,,,,
1.0,1.0,0.783225,0.0,1.0,1.0,1.0,1.0,juicer2_06s.jpg,1.0,Purple.png,1.0,28,,,,,,,,,,,,,,,,,
0.0,1.0,0.609365,0.0,2.0,2.0,2.0,1.0,tambourine_06s.jpg,0.0,Red.png,1.0,28,,,,,,,,,,,,,,,,,
0.0,1.0,0.78264,0.0,3.0,3.0,3.0,1.0,luggage_08s.jpg,0.0,Orange.png,1.0,28,,,,,,,,,,,,,,,,,
1.0,1.0,0.91544,0.0,4.0,4.0,4.0,1.0,tambourine_06s.jpg,1.0,Yellow.png,1.0,28,,,,,,,,,,,,,,,,,
0.0,1.0,0.80307,0.0,5.0,5.0,5.0,1.0,towel_rack_04s.jpg,0.0,Green.png,1.0,28,,,,,,,,,,,,,,,,,
0.0,1.0,0.84453,0.0,6.0,6.0,6.0,1.0,crayon_09s.jpg,0.0,Blue.png,2.0,28,,,,,,,,,,,,,,,,,
0.0,1.0,0.912295,0.0,7.0,7.0,7.0,1.0,gargoyle_08s.jpg,0.0,Purple.png,2.0,28,,,,,,,,,,,,,,,,,
0.0,1.0,0.59338,0.0,8.0,8.0,8.0,1.0,boar_10s.jpg,0.0,Red.png,2.0,28,,,,,,,,,,,,,,,,,
1.0,1.0,0.93503,0.0,9.0,9.0,9.0,1.0,gargoyle_08s.jpg,1.0,Orange.png,2.0,28,,,,,,,,,,,,,,,,,
0.0,1.0,0.901845,0.0,10.0,10.0,10.0,1.0,limousine_12s.jpg,0.0,Yellow.png,2.0,28,,,,,,,,,,,,,,,,,
0.0,1.0,0.917995,0.0,11.0,11.0,11.0,1.0,outlet_10s.jpg,0.0,Green.png,2.0,28,,,,,,,,,,,,,,,,,
0.0,1.0,0.678895,0.0,12.0,12.0,12.0,1.0,comic_book_02s.jpg,0.0,Blue.png,3.0,28,,,,,,,,,,,,,,,,,
0.0,1.0,1.06626,0.0,13.0,13.0,13.0,1.0,mask_09s.jpg,0.0,Purple.png,3.0,28,,,,,,,,,,,,,,,,,
0.0,1.0,0.568175,0.0,14.0,14.0,14.0,1.0,lasagna_06s.jpg,0.0,Red.png,3.0,28,,,,,,,,,,,,,,,,,
0.0,1.0,0.740445,0.0,15.0,15.0,15.0,1.0,diving_board_07s.jpg,0.0,Orange.png,3.0,28,,,,,,,,,,,,,,,,,
0.0,1.0,0.550775,0.0,16.0,16.0,16.0,1.0,lion_18s.jpg,0.0,Yellow.png,3.0,28,,,,,,,,,,,,,,,,,
1.0,1.0,1.80723,0.0,17.0,17.0,17.0,1.0,diving_board_07s.jpg,1.0,Green.png,3.0,28,,,,,,,,,,,,,,,,,
1.0,0.0,1.35099,0.0,18.0,18.0,18.0,1.0,lion_18s.jpg,0.0,Blue.png,4.0,28,,,,,,,,,,,,,,,,,
0.0,1.0,0.92033,0.0,19.0,19.0,19.0,1.0,medal_04s.jpg,0.0,Purple.png,4.0,28,,,,,,,,,,,,,,,,,
0.0,1.0,0.83815,0.0,20.0,20.0,20.0,1.0,incense_02s.jpg,0.0,Red.png,4.0,28,,,,,,,,,,,,,,,,,
0.0,1.0,0.61543,0.0,21.0,21.0,21.0,1.0,tape_06s.jpg,0.0,Orange.png,4.0,28,,,,,,,,,,,,,,,,,
1.0,1.0,1.283995,0.0,22.0,22.0,22.0,1.0,medal_04s.jpg,1.0,Yellow.png,4.0,28,,,,,,,,,,,,,,,,,
0.0,1.0,0.59488,0.0,23.0,23.0,23.0,1.0,buoy_04s.jpg,0.0,Green.png,4.0,28,,,,,,,,,,,,,,,,,
1.0,0.0,0.669355,0.0,24.0,24.0,24.0,1.0,limousine_12s.jpg,0.0,Blue.png,5.0,28,,,,,,,,,,,,,,,,,
0.0,1.0,1.18382,0.0,25.0,25.0,25.0,1.0,jewel_01b.jpg,0.0,Purple.png,5.0,28,,,,,,,,,,,,,,,,,
0.0,1.0,0.62437,0.0,26.0,26.0,26.0,1.0,parachute_03s.jpg,0.0,Red.png,5.0,28,,,,,,,,,,,,,,,,,
0.0,1.0,1.100015,0.0,27.0,27.0,27.0,1.0,mannequin_05s.jpg,0.0,Orange.png,5.0,28,,,,,,,,,,,,,,,,,
0.0,1.0,1.01116,0.0,28.0,28.0,28.0,1.0,snowman_02s.jpg,0.0,Yellow.png,5.0,28,,,,,,,,,,,,,,,,,
0.0,1.0,0.815145,0.0,29.0,29.0,29.0,1.0,fossil_06s.jpg,0.0,Green.png,5.0,28,,,,,,,,,,,,,,,,,
0.0,1.0,0.5756,0.0,30.0,30.0,30.0,1.0,perfume_06s.jpg,0.0,Blue.png,6.0,28,,,,,,,,,,,,,,,,,
1.0,0.0,1.14788,0.0,31.0,31.0,31.0,1.0,fossil_06s.jpg,0.0,Purple.png,6.0,28,,,,,,,,,,,,,,,,,
0.0,1.0,0.715425,0.0,32.0,32.0,32.0,1.0,pancake_12s.jpg,0.0,Red.png,6.0,28,,,,,,,,,,,,,,,,,
0.0,1.0,0.64334,0.0,33.0,33.0,33.0,1.0,tie_03s.jpg,0.0,Orange.png,6.0,28,,,,,,,,,,,,,,,,,
1.0,1.0,0.69877,0.0,34.0,34.0,34.0,1.0,pancake_12s.jpg,1.0,Yellow.png,6.0,28,,,,,,,,,,,,,,,,,
0.0,1.0,0.51724,0.0,35.0,35.0,35.0,1.0,padlock_07s.jpg,0.0,Green.png,6.0,28,,,,,,,,,,,,,,,,,
,,,,,,,,,0.0,,,28,0.0,1.0,1.46406,0.0,0.0,0.0,0.0,1.0,crayon_09s.jpg,luggage_08s.jpg,,,,,,,
,,,,,,,,,1.0,,,28,1.0,1.0,1.485205,0.0,1.0,1.0,1.0,1.0,towel_rack_04s.jpg,boar_10s.jpg,,,,,,,
,,,,,,,,,0.0,,,28,1.0,0.0,1.40408,0.0,2.0,2.0,2.0,1.0,lasagna_06s.jpg,outlet_10s.jpg,,,,,,,
,,,,,,,,,1.0,,,28,1.0,1.0,2.68461,0.0,3.0,3.0,3.0,1.0,jewel_01b.jpg,snowman_02s.jpg,,,,,,,
,,,,,,,,,0.0,,,28,0.0,1.0,1.651855,0.0,4.0,4.0,4.0,1.0,buoy_04s.jpg,incense_02s.jpg,,,,,,,
,,,,,,,,,0.0,,,28,1.0,0.0,1.094635,0.0,5.0,5.0,5.0,1.0,tie_03s.jpg,perfume_06s.jpg,,,,,,,
,,,,,,,,,,,,28,,,,,,,,,,,0.0,1.0,1.0,1.0,1.0,newclockpresent_2_2.xlsx,newclock_compare_task_2_2.xlsx
0.0,1.0,1.93141,0.0,0.0,0.0,0.0,1.0,surfboard_11s.jpg,0.0,Blue.png,1.0,28,,,,,,,,,,,,,,,,,
1.0,1.0,0.705925,0.0,1.0,1.0,1.0,1.0,surfboard_11s.jpg,1.0,Purple.png,1.0,28,,,,,,,,,,,,,,,,,
1.0,1.0,0.72191,0.0,2.0,2.0,2.0,1.0,surfboard_11s.jpg,1.0,Red.png,1.0,28,,,,,,,,,,,,,,,,,
0.0,1.0,2.16702,0.0,3.0,3.0,3.0,1.0,badge_03s.jpg,0.0,Orange.png,1.0,28,,,,,,,,,,,,,,,,,
1.0,1.0,0.63787,0.0,4.0,4.0,4.0,1.0,surfboard_11s.jpg,1.0,Yellow.png,1.0,28,,,,,,,,,,,,,,,,,
1.0,1.0,0.626745,0.0,5.0,5.0,5.0,1.0,surfboard_11s.jpg,1.0,Green.png,1.0,28,,,,,,,,,,,,,,,,,
1.0,0.0,0.533305,0.0,6.0,6.0,6.0,1.0,surfboard_11s.jpg,0.0,Blue.png,2.0,28,,,,,,,,,,,,,,,,,
0.0,1.0,0.68743,0.0,7.0,7.0,7.0,1.0,playpen_11s.jpg,0.0,Purple.png,2.0,28,,,,,,,,,,,,,,,,,
1.0,1.0,0.62457,0.0,8.0,8.0,8.0,1.0,surfboard_11s.jpg,1.0,Red.png,2.0,28,,,,,,,,,,,,,,,,,
0.0,1.0,0.83227,0.0,9.0,9.0,9.0,1.0,popcorn_09s.jpg,0.0,Orange.png,2.0,28,,,,,,,,,,,,,,,,,
1.0,1.0,0.525965,0.0,10.0,10.0,10.0,1.0,surfboard_11s.jpg,1.0,Yellow.png,2.0,28,,,,,,,,,,,,,,,,,
1.0,1.0,1.42258,0.0,11.0,11.0,11.0,1.0,popcorn_09s.jpg,1.0,Green.png,2.0,28,,,,,,,,,,,,,,,,,
0.0,1.0,0.89148,0.0,12.0,12.0,12.0,1.0,lollipop_08s.jpg,0.0,Blue.png,3.0,28,,,,,,,,,,,,,,,,,
1.0,0.0,0.96901,0.0,13.0,13.0,13.0,1.0,popcorn_09s.jpg,0.0,Purple.png,3.0,28,,,,,,,,,,,,,,,,,
0.0,1.0,0.851085,0.0,14.0,14.0,14.0,1.0,fire_pit_10s.jpg,0.0,Red.png,3.0,28,,,,,,,,,,,,,,,,,
0.0,1.0,1.535045,0.0,15.0,15.0,15.0,1.0,joystick_01b.jpg,0.0,Orange.png,3.0,28,,,,,,,,,,,,,,,,,
0.0,1.0,1.308935,0.0,16.0,16.0,16.0,1.0,panda_02s.jpg,0.0,Yellow.png,3.0,28,,,,,,,,,,,,,,,,,
0.0,1.0,1.13045,0.0,17.0,17.0,17.0,1.0,sundae_08s.jpg,0.0,Green.png,3.0,28,,,,,,,,,,,,,,,,,
0.0,1.0,0.644715,0.0,18.0,18.0,18.0,1.0,boomerang_06s.jpg,0.0,Blue.png,4.0,28,,,,,,,,,,,,,,,,,
0.0,1.0,0.849865,0.0,19.0,19.0,19.0,1.0,bagel_15s.jpg,0.0,Purple.png,4.0,28,,,,,,,,,,,,,,,,,
0.0,1.0,0.71733,0.0,20.0,20.0,20.0,1.0,powder_07s.jpg,0.0,Red.png,4.0,28,,,,,,,,,,,,,,,,,
0.0,1.0,0.879735,0.0,21.0,21.0,21.0,1.0,lipstick_02s.jpg,0.0,Orange.png,4.0,28,,,,,,,,,,,,,,,,,
1.0,1.0,0.96317,0.0,22.0,22.0,22.0,1.0,bagel_15s.jpg,1.0,Yellow.png,4.0,28,,,,,,,,,,,,,,,,,
0.0,1.0,1.366215,0.0,23.0,23.0,23.0,1.0,ladle_04s.jpg,0.0,Green.png,4.0,28,,,,,,,,,,,,,,,,,
0.0,1.0,0.79826,0.0,24.0,24.0,24.0,1.0,megaphone_03s.jpg,0.0,Blue.png,5.0,28,,,,,,,,,,,,,,,,,
0.0,1.0,0.52049,0.0,25.0,25.0,25.0,1.0,puck_06s.jpg,0.0,Purple.png,5.0,28,,,,,,,,,,,,,,,,,
0.0,1.0,0.542525,0.0,26.0,26.0,26.0,1.0,cardinal_07s.jpg,0.0,Red.png,5.0,28,,,,,,,,,,,,,,,,,
1.0,1.0,1.832335,0.0,27.0,27.0,27.0,1.0,puck_06s.jpg,1.0,Orange.png,5.0,28,,,,,,,,,,,,,,,,,
0.0,1.0,0.84827,0.0,28.0,28.0,28.0,1.0,bee_20s.jpg,0.0,Yellow.png,5.0,28,,,,,,,,,,,,,,,,,
0.0,1.0,1.022165,0.0,29.0,29.0,29.0,1.0,toilet_paper_12s.jpg,0.0,Green.png,5.0,28,,,,,,,,,,,,,,,,,
0.0,1.0,0.88277,0.0,30.0,30.0,30.0,1.0,mud_13s.jpg,0.0,Blue.png,6.0,28,,,,,,,,,,,,,,,,,
0.0,1.0,1.126855,0.0,31.0,31.0,31.0,1.0,measuring_cup_02s.jpg,0.0,Purple.png,6.0,28,,,,,,,,,,,,,,,,,
0.0,1.0,0.92304,0.0,32.0,32.0,32.0,1.0,ostrich_06s.jpg,0.0,Red.png,6.0,28,,,,,,,,,,,,,,,,,
0.0,1.0,0.85928,0.0,33.0,33.0,33.0,1.0,raspberry_12s.jpg,0.0,Orange.png,6.0,28,,,,,,,,,,,,,,,,,
1.0,1.0,1.479485,0.0,34.0,34.0,34.0,1.0,mud_13s.jpg,1.0,Yellow.png,6.0,28,,,,,,,,,,,,,,,,,
0.0,1.0,0.86797,0.0,35.0,35.0,35.0,1.0,radiator_05s.jpg,0.0,Green.png,6.0,28,,,,,,,,,,,,,,,,,
,,,,,,,,,0.0,,,28,1.0,0.0,2.22813,0.0,0.0,0.0,0.0,1.0,measuring_cup_02s.jpg,bee_20s.jpg,,,,,,,
,,,,,,,,,1.0,,,28,1.0,1.0,2.098865,0.0,1.0,1.0,1.0,1.0,lipstick_02s.jpg,megaphone_03s.jpg,,,,,,,
,,,,,,,,,0.0,,,28,1.0,0.0,1.259235,0.0,2.0,2.0,2.0,1.0,boomerang_06s.jpg,joystick_01b.jpg,,,,,,,
,,,,,,,,,0.0,,,28,0.0,1.0,1.32266,0.0,3.0,3.0,3.0,1.0,sundae_08s.jpg,fire_pit_10s.jpg,,,,,,,
,,,,,,,,,0.0,,,28,1.0,0.0,1.19884,0.0,4.0,4.0,4.0,1.0,radiator_05s.jpg,ostrich_06s.jpg,,,,,,,
,,,,,,,,,0.0,,,28,1.0,0.0,1.017515,0.0,5.0,5.0,5.0,1.0,ladle_04s.jpg,powder_07s.jpg,,,,,,,
,,,,,,,,,,,,28,,,,,,,,,,,0.0,2.0,2.0,2.0,1.0,newclockpresent_3_2.xlsx,newclock_compare_task_3_2.xlsx
0.0,1.0,0.69279,0.0,0.0,0.0,0.0,1.0,glasses01a.jpg,0.0,Blue.png,1.0,28,,,,,,,,,,,,,,,,,
,0.0,,0.0,1.0,1.0,1.0,1.0,piano_13n.jpg,0.0,Purple.png,1.0,28,,,,,,,,,,,,,,,,,
1.0,0.0,1.515925,0.0,2.0,2.0,2.0,1.0,candy_cane_06s.jpg,0.0,Red.png,1.0,28,,,,,,,,,,,,,,,,,
0.0,1.0,1.43526,0.0,3.0,3.0,3.0,1.0,cushion_08s.jpg,0.0,Orange.png,1.0,28,,,,,,,,,,,,,,,,,
1.0,1.0,1.04579,0.0,4.0,4.0,4.0,1.0,candy_cane_06s.jpg,1.0,Yellow.png,1.0,28,,,,,,,,,,,,,,,,,
1.0,1.0,0.87859,0.0,5.0,5.0,5.0,1.0,candy_cane_06s.jpg,1.0,Green.png,1.0,28,,,,,,,,,,,,,,,,,
0.0,1.0,1.429855,0.0,6.0,6.0,6.0,1.0,rosary_03s.jpg,0.0,Blue.png,2.0,28,,,,,,,,,,,,,,,,,
1.0,1.0,1.158685,0.0,7.0,7.0,7.0,1.0,rosary_03s.jpg,1.0,Purple.png,2.0,28,,,,,,,,,,,,,,,,,
1.0,1.0,0.95583,0.0,8.0,8.0,8.0,1.0,rosary_03s.jpg,1.0,Red.png,2.0,28,,,,,,,,,,,,,,,,,
1.0,1.0,1.01049,0.0,9.0,9.0,9.0,1.0,rosary_03s.jpg,1.0,Orange.png,2.0,28,,,,,,,,,,,,,,,,,
0.0,1.0,0.540265,0.0,10.0,10.0,10.0,1.0,kangaroo_02s.jpg,0.0,Yellow.png,2.0,28,,,,,,,,,,,,,,,,,
1.0,1.0,1.04258,0.0,11.0,11.0,11.0,1.0,kangaroo_02s.jpg,1.0,Green.png,2.0,28,,,,,,,,,,,,,,,,,
1.0,0.0,0.81536,0.0,12.0,12.0,12.0,1.0,kangaroo_02s.jpg,0.0,Blue.png,3.0,28,,,,,,,,,,,,,,,,,
1.0,1.0,0.634755,0.0,13.0,13.0,13.0,1.0,kangaroo_02s.jpg,1.0,Purple.png,3.0,28,,,,,,,,,,,,,,,,,
0.0,1.0,0.45718,0.0,14.0,14.0,14.0,1.0,ironing_board_07s.jpg,0.0,Red.png,3.0,28,,,,,,,,,,,,,,,,,
1.0,1.0,1.059005,0.0,15.0,15.0,15.0,1.0,kangaroo_02s.jpg,1.0,Orange.png,3.0,28,,,,,,,,,,,,,,,,,
0.0,1.0,0.84919,0.0,16.0,16.0,16.0,1.0,punch2_09s.jpg,0.0,Yellow.png,3.0,28,,,,,,,,,,,,,,,,,
1.0,1.0,2.019165,0.0,17.0,17.0,17.0,1.0,ironing_board_07s.jpg,1.0,Green.png,3.0,28,,,,,,,,,,,,,,,,,
0.0,1.0,0.6055,0.0,18.0,18.0,18.0,1.0,owl_15s.jpg,0.0,Blue.png,4.0,28,,,,,,,,,,,,,,,,,
0.0,1.0,0.722905,0.0,19.0,19.0,19.0,1.0,teabag_12s.jpg,0.0,Purple.png,4.0,28,,,,,,,,,,,,,,,,,
1.0,1.0,1.172445,0.0,20.0,20.0,20.0,1.0,owl_15s.jpg,1.0,Red.png,4.0,28,,,,,,,,,,,,,,,,,
0.0,1.0,0.711065,0.0,21.0,21.0,21.0,1.0,otter_05s.jpg,0.0,Orange.png,4.0,28,,,,,,,,,,,,,,,,,
1.0,1.0,1.008925,0.0,22.0,22.0,22.0,1.0,owl_15s.jpg,1.0,Yellow.png,4.0,28,,,,,,,,,,,,,,,,,
0.0,1.0,0.683085,0.0,23.0,23.0,23.0,1.0,mold2_04s.jpg,0.0,Green.png,4.0,28,,,,,,,,,,,,,,,,,
0.0,1.0,0.904435,0.0,24.0,24.0,24.0,1.0,mattress_01s.jpg,0.0,Blue.png,5.0,28,,,,,,,,,,,,,,,,,
0.0,1.0,1.001375,0.0,25.0,25.0,25.0,1.0,police_car_01s.jpg,0.0,Purple.png,5.0,28,,,,,,,,,,,,,,,,,
0.0,1.0,0.813,0.0,26.0,26.0,26.0,1.0,stethoscope_01b.jpg,0.0,Red.png,5.0,28,,,,,,,,,,,,,,,,,
1.0,1.0,1.74735,0.0,27.0,27.0,27.0,1.0,police_car_01s.jpg,1.0,Orange.png,5.0,28,,,,,,,,,,,,,,,,,
0.0,1.0,1.5798,0.0,28.0,28.0,28.0,1.0,sparkler_02s.jpg,0.0,Yellow.png,5.0,28,,,,,,,,,,,,,,,,,
0.0,1.0,0.956355,0.0,29.0,29.0,29.0,1.0,pacifier_09s.jpg,0.0,Green.png,5.0,28,,,,,,,,,,,,,,,,,
0.0,1.0,1.025005,0.0,30.0,30.0,30.0,1.0,machine_gun_09s.jpg,0.0,Blue.png,6.0,28,,,,,,,,,,,,,,,,,
0.0,1.0,0.779565,0.0,31.0,31.0,31.0,1.0,ram_05s.jpg,0.0,Purple.png,6.0,28,,,,,,,,,,,,,,,,,
0.0,1.0,0.601695,0.0,32.0,32.0,32.0,1.0,keyboard_05s.jpg,0.0,Red.png,6.0,28,,,,,,,,,,,,,,,,,
0.0,1.0,0.682625,0.0,33.0,33.0,33.0,1.0,leash_10s.jpg,0.0,Orange.png,6.0,28,,,,,,,,,,,,,,,,,
0.0,1.0,0.28407,0.0,34.0,34.0,34.0,1.0,pan_02s.jpg,0.0,Yellow.png,6.0,28,,,,,,,,,,,,,,,,,
0.0,1.0,0.57077,0.0,35.0,35.0,35.0,1.0,mixer_12s.jpg,0.0,Green.png,6.0,28,,,,,,,,,,,,,,,,,
,,,,,,,,,0.0,,,28,0.0,1.0,1.26774,0.0,0.0,0.0,0.0,1.0,teabag_12s.jpg,punch2_09s.jpg,,,,,,,
,,,,,,,,,0.0,,,28,0.0,1.0,2.020485,0.0,1.0,1.0,1.0,1.0,mattress_01s.jpg,otter_05s.jpg,,,,,,,
,,,,,,,,,0.0,,,28,1.0,0.0,1.481775,0.0,2.0,2.0,2.0,1.0,stethoscope_01b.jpg,mold2_04s.jpg,,,,,,,
,,,,,,,,,1.0,,,28,1.0,1.0,1.132445,0.0,3.0,3.0,3.0,1.0,glasses01a.jpg,cushion_08s.jpg,,,,,,,
,,,,,,,,,1.0,,,28,1.0,1.0,2.109435,0.0,4.0,4.0,4.0,1.0,machine_gun_09s.jpg,leash_10s.jpg,,,,,,,
,,,,,,,,,0.0,,,28,1.0,0.0,1.10099,0.0,5.0,5.0,5.0,1.0,pan_02s.jpg,ram_05s.jpg,,,,,,,
,,,,,,,,,,,,28,,,,,,,,,,,0.0,3.0,3.0,3.0,1.0,newclockpresent_4_2.xlsx,newclock_compare_task_4_2.xlsx
,0.0,,0.0,0.0,0.0,0.0,1.0,golf_club_03s.jpg,0.0,Blue.png,1.0,28,,,,,,,,,,,,,,,,,
,0.0,,0.0,1.0,1.0,1.0,1.0,golf_club_03s.jpg,1.0,Purple.png,1.0,28,,,,,,,,,,,,,,,,,
,0.0,,0.0,2.0,2.0,2.0,1.0,golf_club_03s.jpg,1.0,Red.png,1.0,28,,,,,,,,,,,,,,,,,
,0.0,,0.0,3.0,3.0,3.0,1.0,turnstile_08s.jpg,0.0,Orange.png,1.0,28,,,,,,,,,,,,,,,,,
,0.0,,0.0,4.0,4.0,4.0,1.0,golf_club_03s.jpg,1.0,Yellow.png,1.0,28,,,,,,,,,,,,,,,,,
0.0,1.0,1.8565,0.0,5.0,5.0,5.0,1.0,milk_02s.jpg,0.0,Green.png,1.0,28,,,,,,,,,,,,,,,,,
0.0,1.0,1.41983,0.0,6.0,6.0,6.0,1.0,orange_12s.jpg,0.0,Blue.png,2.0,28,,,,,,,,,,,,,,,,,
1.0,0.0,2.044465,0.0,7.0,7.0,7.0,1.0,milk_02s.jpg,0.0,Purple.png,2.0,28,,,,,,,,,,,,,,,,,
0.0,1.0,1.61598,0.0,8.0,8.0,8.0,1.0,latch_15s.jpg,0.0,Red.png,2.0,28,,,,,,,,,,,,,,,,,
0.0,1.0,0.93875,0.0,9.0,9.0,9.0,1.0,bank_06s.jpg,0.0,Orange.png,2.0,28,,,,,,,,,,,,,,,,,
1.0,1.0,0.637355,0.0,10.0,10.0,10.0,1.0,milk_02s.jpg,1.0,Yellow.png,2.0,28,,,,,,,,,,,,,,,,,
0.0,1.0,0.82468,0.0,11.0,11.0,11.0,1.0,crab_16s.jpg,0.0,Green.png,2.0,28,,,,,,,,,,,,,,,,,
0.0,1.0,0.922315,0.0,12.0,12.0,12.0,1.0,birdcage_08s.jpg,0.0,Blue.png,3.0,28,,,,,,,,,,,,,,,,,
0.0,1.0,0.667215,0.0,13.0,13.0,13.0,1.0,spider_web_03s.jpg,0.0,Purple.png,3.0,28,,,,,,,,,,,,,,,,,
0.0,1.0,0.8562,0.0,14.0,14.0,14.0,1.0,knitting_needle_04s.jpg,0.0,Red.png,3.0,28,,,,,,,,,,,,,,,,,
0.0,1.0,0.562,0.0,15.0,15.0,15.0,1.0,sugar_cube_11s.jpg,0.0,Orange.png,3.0,28,,,,,,,,,,,,,,,,,
0.0,1.0,0.620435,0.0,16.0,16.0,16.0,1.0,light_switch_02s.jpg,0.0,Yellow.png,3.0,28,,,,,,,,,,,,,,,,,
0.0,1.0,0.499895,0.0,17.0,17.0,17.0,1.0,gear_07s.jpg,0.0,Green.png,3.0,28,,,,,,,,,,,,,,,,,
0.0,1.0,1.15974,0.0,18.0,18.0,18.0,1.0,tongs_08s.jpg,0.0,Blue.png,4.0,28,,,,,,,,,,,,,,,,,
0.0,1.0,1.62514,0.0,19.0,19.0,19.0,1.0,recliner_02s.jpg,0.0,Purple.png,4.0,28,,,,,,,,,,,,,,,,,
0.0,1.0,2.26473,0.0,20.0,20.0,20.0,1.0,orangutan_03s.jpg,0.0,Red.png,4.0,28,,,,,,,,,,,,,,,,,
0.0,1.0,2.011265,0.0,21.0,21.0,21.0,1.0,golf_club_03s.jpg,0.0,Orange.png,4.0,28,,,,,,,,,,,,,,,,,
0.0,1.0,1.480575,0.0,22.0,22.0,22.0,1.0,lava_02s.jpg,0.0,Yellow.png,4.0,28,,,,,,,,,,,,,,,,,
0.0,1.0,0.683175,0.0,23.0,23.0,23.0,1.0,toilet_07s.jpg,0.0,Green.png,4.0,28,,,,,,,,,,,,,,,,,
0.0,1.0,1.77066,0.0,24.0,24.0,24.0,1.0,turnstile_08s.jpg,0.0,Blue.png,5.0,28,,,,,,,,,,,,,,,,,
1.0,1.0,1.625535,0.0,25.0,25.0,25.0,1.0,turnstile_08s.jpg,1.0,Purple.png,5.0,28,,,,,,,,,,,,,,,,,
0.0,1.0,1.256755,0.0,26.0,26.0,26.0,1.0,teacup_07s.jpg,0.0,Red.png,5.0,28,,,,,,,,,,,,,,,,,
1.0,1.0,0.69829,0.0,27.0,27.0,27.0,1.0,turnstile_08s.jpg,1.0,Orange.png,5.0,28,,,,,,,,,,,,,,,,,
1.0,1.0,0.807035,0.0,28.0,28.0,28.0,1.0,turnstile_08s.jpg,1.0,Yellow.png,5.0,28,,,,,,,,,,,,,,,,,
0.0,1.0,0.71343,0.0,29.0,29.0,29.0,1.0,antenna_01b.jpg,0.0,Green.png,5.0,28,,,,,,,,,,,,,,,,,
0.0,1.0,0.82574,0.0,30.0,30.0,30.0,1.0,keyhole_03s.jpg,0.0,Blue.png,6.0,28,,,,,,,,,,,,,,,,,
0.0,1.0,1.322655,0.0,31.0,31.0,31.0,1.0,air_pump_05s.jpg,0.0,Purple.png,6.0,28,,,,,,,,,,,,,,,,,
0.0,1.0,0.8012,0.0,32.0,32.0,32.0,1.0,eggshell_14s.jpg,0.0,Red.png,6.0,28,,,,,,,,,,,,,,,,,
0.0,1.0,0.94248,0.0,33.0,33.0,33.0,1.0,eyedropper_12s.jpg,0.0,Orange.png,6.0,28,,,,,,,,,,,,,,,,,
0.0,1.0,1.10546,0.0,34.0,34.0,34.0,1.0,machete_06s.jpg,0.0,Yellow.png,6.0,28,,,,,,,,,,,,,,,,,
1.0,1.0,0.8546,0.0,35.0,35.0,35.0,1.0,eyedropper_12s.jpg,1.0,Green.png,6.0,28,,,,,,,,,,,,,,,,,
,,,,,,,,,1.0,,,28,1.0,1.0,2.856955,0.0,0.0,0.0,0.0,1.0,sugar_cube_11s.jpg,tongs_08s.jpg,,,,,,,
,,,,,,,,,1.0,,,28,1.0,1.0,1.59615,0.0,1.0,1.0,1.0,1.0,antenna_01b.jpg,eggshell_14s.jpg,,,,,,,
,,,,,,,,,1.0,,,28,1.0,1.0,1.445055,0.0,2.0,2.0,2.0,1.0,bank_06s.jpg,birdcage_08s.jpg,,,,,,,
,,,,,,,,,1.0,,,28,0.0,0.0,1.19761,0.0,3.0,3.0,3.0,1.0,air_pump_05s.jpg,machete_06s.jpg,,,,,,,
,,,,,,,,,1.0,,,28,0.0,0.0,1.737895,0.0,4.0,4.0,4.0,1.0,latch_15s.jpg,crab_16s.jpg,,,,,,,
,,,,,,,,,1.0,,,28,1.0,1.0,3.449165,0.0,5.0,5.0,5.0,1.0,spider_web_03s.jpg,light_switch_02s.jpg,,,,,,,
,,,,,,,,,,,,28,,,,,,,,,,,0.0,4.0,4.0,4.0,1.0,newclockpresent_5_2.xlsx,newclock_compare_task_5_2.xlsx
0.0,1.0,1.46194,0.0,0.0,0.0,0.0,1.0,gazelle_10s.jpg,0.0,Blue.png,1.0,28,,,,,,,,,,,,,,,,,
0.0,1.0,1.781455,0.0,1.0,1.0,1.0,1.0,saddle_06s.jpg,0.0,Purple.png,1.0,28,,,,,,,,,,,,,,,,,
0.0,0.0,0.61126,0.0,2.0,2.0,2.0,1.0,saddle_06s.jpg,1.0,Red.png,1.0,28,,,,,,,,,,,,,,,,,
0.0,1.0,1.25387,0.0,3.0,3.0,3.0,1.0,kimono_13s.jpg,0.0,Orange.png,1.0,28,,,,,,,,,,,,,,,,,
0.0,1.0,1.66526,0.0,4.0,4.0,4.0,1.0,timer_03s.jpg,0.0,Yellow.png,1.0,28,,,,,,,,,,,,,,,,,
0.0,1.0,0.77969,0.0,5.0,5.0,5.0,1.0,tulip_02s.jpg,0.0,Green.png,1.0,28,,,,,,,,,,,,,,,,,
0.0,1.0,1.084125,0.0,6.0,6.0,6.0,1.0,prism_10s.jpg,0.0,Blue.png,2.0,28,,,,,,,,,,,,,,,,,
0.0,1.0,0.89376,0.0,7.0,7.0,7.0,1.0,razor_12s.jpg,0.0,Purple.png,2.0,28,,,,,,,,,,,,,,,,,
0.0,1.0,1.077295,0.0,8.0,8.0,8.0,1.0,blazer_02s.jpg,0.0,Red.png,2.0,28,,,,,,,,,,,,,,,,,
1.0,1.0,0.82755,0.0,9.0,9.0,9.0,1.0,razor_12s.jpg,1.0,Orange.png,2.0,28,,,,,,,,,,,,,,,,,
0.0,1.0,0.940505,0.0,10.0,10.0,10.0,1.0,lamb_chop_07s.jpg,0.0,Yellow.png,2.0,28,,,,,,,,,,,,,,,,,
1.0,1.0,0.673865,0.0,11.0,11.0,11.0,1.0,razor_12s.jpg,1.0,Green.png,2.0,28,,,,,,,,,,,,,,,,,
1.0,0.0,0.813855,0.0,12.0,12.0,12.0,1.0,lamb_chop_07s.jpg,0.0,Blue.png,3.0,28,,,,,,,,,,,,,,,,,
1.0,1.0,0.75105,0.0,13.0,13.0,13.0,1.0,lamb_chop_07s.jpg,1.0,Purple.png,3.0,28,,,,,,,,,,,,,,,,,
1.0,0.0,0.82943,0.0,14.0,14.0,14.0,1.0,timer_03s.jpg,0.0,Red.png,3.0,28,,,,,,,,,,,,,,,,,
1.0,1.0,0.91919,0.0,15.0,15.0,15.0,1.0,lamb_chop_07s.jpg,1.0,Orange.png,3.0,28,,,,,,,,,,,,,,,,,
0.0,1.0,0.76656,0.0,16.0,16.0,16.0,1.0,glue_01s.jpg,0.0,Yellow.png,3.0,28,,,,,,,,,,,,,,,,,
0.0,1.0,1.139335,0.0,17.0,17.0,17.0,1.0,solar_panel_02s.jpg,0.0,Green.png,3.0,28,,,,,,,,,,,,,,,,,
0.0,1.0,0.79364,0.0,18.0,18.0,18.0,1.0,muffin_12n.jpg,0.0,Blue.png,4.0,28,,,,,,,,,,,,,,,,,
0.0,1.0,0.931355,0.0,19.0,19.0,19.0,1.0,pepper2_21s.jpg,0.0,Purple.png,4.0,28,,,,,,,,,,,,,,,,,
0.0,1.0,1.419,0.0,20.0,20.0,20.0,1.0,marker_05s.jpg,0.0,Red.png,4.0,28,,,,,,,,,,,,,,,,,
0.0,1.0,0.84915,0.0,21.0,21.0,21.0,1.0,soccer_ball_12s.jpg,0.0,Orange.png,4.0,28,,,,,,,,,,,,,,,,,
0.0,1.0,1.157875,0.0,22.0,22.0,22.0,1.0,amber_04s.jpg,0.0,Yellow.png,4.0,28,,,,,,,,,,,,,,,,,
0.0,1.0,0.82557,0.0,23.0,23.0,23.0,1.0,stopwatch_04s.jpg,0.0,Green.png,4.0,28,,,,,,,,,,,,,,,,,
1.0,0.0,0.852925,0.0,24.0,24.0,24.0,1.0,amber_04s.jpg,0.0,Blue.png,5.0,28,,,,,,,,,,,,,,,,,
0.0,1.0,0.803475,0.0,25.0,25.0,25.0,1.0,racehorse_03s.jpg,0.0,Purple.png,5.0,28,,,,,,,,,,,,,,,,,
1.0,1.0,0.79229,0.0,26.0,26.0,26.0,1.0,amber_04s.jpg,1.0,Red.png,5.0,28,,,,,,,,,,,,,,,,,
0.0,1.0,0.714525,0.0,27.0,27.0,27.0,1.0,duck_01b.jpg,0.0,Orange.png,5.0,28,,,,,,,,,,,,,,,,,
1.0,1.0,0.78692,0.0,28.0,28.0,28.0,1.0,amber_04s.jpg,1.0,Yellow.png,5.0,28,,,,,,,,,,,,,,,,,
1.0,1.0,1.087915,0.0,29.0,29.0,29.0,1.0,duck_01b.jpg,1.0,Green.png,5.0,28,,,,,,,,,,,,,,,,,
1.0,0.0,0.813425,0.0,30.0,30.0,30.0,1.0,duck_01b.jpg,0.0,Blue.png,6.0,28,,,,,,,,,,,,,,,,,
1.0,1.0,0.889785,0.0,31.0,31.0,31.0,1.0,duck_01b.jpg,1.0,Purple.png,6.0,28,,,,,,,,,,,,,,,,,
0.0,1.0,0.667445,0.0,32.0,32.0,32.0,1.0,magnet_03s.jpg,0.0,Red.png,6.0,28,,,,,,,,,,,,,,,,,
1.0,1.0,1.04071,0.0,33.0,33.0,33.0,1.0,duck_01b.jpg,1.0,Orange.png,6.0,28,,,,,,,,,,,,,,,,,
0.0,1.0,1.374515,0.0,34.0,34.0,34.0,1.0,swimming_pool_17s.jpg,0.0,Yellow.png,6.0,28,,,,,,,,,,,,,,,,,
0.0,1.0,2.17398,0.0,35.0,35.0,35.0,1.0,roulette_wheel_04s.jpg,0.0,Green.png,6.0,28,,,,,,,,,,,,,,,,,
,,,,,,,,,0.0,,,28,0.0,1.0,3.25312,0.0,0.0,0.0,0.0,1.0,blazer_02s.jpg,tulip_02s.jpg,,,,,,,
,,,,,,,,,1.0,,,28,1.0,1.0,1.852605,0.0,1.0,1.0,1.0,1.0,glue_01s.jpg,pepper2_21s.jpg,,,,,,,
,,,,,,,,,1.0,,,28,1.0,1.0,1.62516,0.0,2.0,2.0,2.0,1.0,kimono_13s.jpg,prism_10s.jpg,,,,,,,
,,,,,,,,,0.0,,,28,0.0,1.0,1.980815,0.0,3.0,3.0,3.0,1.0,soccer_ball_12s.jpg,muffin_12n.jpg,,,,,,,
,,,,,,,,,1.0,,,28,0.0,0.0,1.841095,0.0,4.0,4.0,4.0,1.0,magnet_03s.jpg,roulette_wheel_04s.jpg,,,,,,,
,,,,,,,,,0.0,,,28,1.0,0.0,1.372465,0.0,5.0,5.0,5.0,1.0,stopwatch_04s.jpg,marker_05s.jpg,,,,,,,
,,,,,,,,,,,,28,,,,,,,,,,,0.0,5.0,5.0,5.0,1.0,newclockpresent_6_2.xlsx,newclock_compare_task_6_2.xlsx
,0.0,,0.0,0.0,0.0,0.0,1.0,slingshot_07s.jpg,0.0,Blue.png,1.0,28,,,,,,,,,,,,,,,,,
1.0,1.0,0.95768,0.0,1.0,1.0,1.0,1.0,slingshot_07s.jpg,1.0,Purple.png,1.0,28,,,,,,,,,,,,,,,,,
0.0,1.0,1.50267,0.0,2.0,2.0,2.0,1.0,aluminum_foil_08s.jpg,0.0,Red.png,1.0,28,,,,,,,,,,,,,,,,,
0.0,1.0,1.03391,0.0,3.0,3.0,3.0,1.0,ink_08s.jpg,0.0,Orange.png,1.0,28,,,,,,,,,,,,,,,,,
1.0,1.0,1.84558,0.0,4.0,4.0,4.0,1.0,aluminum_foil_08s.jpg,1.0,Yellow.png,1.0,28,,,,,,,,,,,,,,,,,
1.0,1.0,0.944695,0.0,5.0,5.0,5.0,1.0,slingshot_07s.jpg,1.0,Green.png,1.0,28,,,,,,,,,,,,,,,,,
1.0,0.0,0.85543,0.0,6.0,6.0,6.0,1.0,aluminum_foil_08s.jpg,0.0,Blue.png,2.0,28,,,,,,,,,,,,,,,,,
1.0,1.0,0.567285,0.0,7.0,7.0,7.0,1.0,aluminum_foil_08s.jpg,1.0,Purple.png,2.0,28,,,,,,,,,,,,,,,,,
0.0,1.0,0.698395,0.0,8.0,8.0,8.0,1.0,ice-cream_cone_06s.jpg,0.0,Red.png,2.0,28,,,,,,,,,,,,,,,,,
1.0,0.0,1.209155,0.0,9.0,9.0,9.0,1.0,ink_08s.jpg,0.0,Orange.png,2.0,28,,,,,,,,,,,,,,,,,
0.0,1.0,2.213685,0.0,10.0,10.0,10.0,1.0,emerald_02s.jpg,0.0,Yellow.png,2.0,28,,,,,,,,,,,,,,,,,
0.0,1.0,0.836115,0.0,11.0,11.0,11.0,1.0,bathtub_23s.jpg,0.0,Green.png,2.0,28,,,,,,,,,,,,,,,,,
0.0,1.0,0.710835,0.0,12.0,12.0,12.0,1.0,bubble_01b.jpg,0.0,Blue.png,3.0,28,,,,,,,,,,,,,,,,,
0.0,1.0,0.71518,0.0,13.0,13.0,13.0,1.0,mirror_12s.jpg,0.0,Purple.png,3.0,28,,,,,,,,,,,,,,,,,
0.0,1.0,0.755345,0.0,14.0,14.0,14.0,1.0,swing_set_15s.jpg,0.0,Red.png,3.0,28,,,,,,,,,,,,,,,,,
0.0,1.0,0.71442,0.0,15.0,15.0,15.0,1.0,pinwheel_06s.jpg,0.0,Orange.png,3.0,28,,,,,,,,,,,,,,,,,
1.0,1.0,0.86607,0.0,16.0,16.0,16.0,1.0,swing_set_15s.jpg,1.0,Yellow.png,3.0,28,,,,,,,,,,,,,,,,,
1.0,1.0,0.44234,0.0,17.0,17.0,17.0,1.0,pinwheel_06s.jpg,1.0,Green.png,3.0,28,,,,,,,,,,,,,,,,,
1.0,0.0,0.93717,0.0,18.0,18.0,18.0,1.0,ink_08s.jpg,0.0,Blue.png,4.0,28,,,,,,,,,,,,,,,,,
0.0,1.0,0.839515,0.0,19.0,19.0,19.0,1.0,plunger_08s.jpg,0.0,Purple.png,4.0,28,,,,,,,,,,,,,,,,,
1.0,1.0,0.736985,0.0,20.0,20.0,20.0,1.0,ink_08s.jpg,1.0,Red.png,4.0,28,,,,,,,,,,,,,,,,,
1.0,1.0,0.678815,0.0,21.0,21.0,21.0,1.0,ink_08s.jpg,1.0,Orange.png,4.0,28,,,,,,,,,,,,,,,,,
,0.0,,0.0,22.0,22.0,22.0,1.0,metronome_03s.jpg,0.0,Yellow.png,4.0,28,,,,,,,,,,,,,,,,,
0.0,1.0,0.80036,0.0,23.0,23.0,23.0,1.0,puppy_08s.jpg,0.0,Green.png,4.0,28,,,,,,,,,,,,,,,,,
,0.0,,0.0,24.0,24.0,24.0,1.0,treasure_08s.jpg,0.0,Blue.png,5.0,28,,,,,,,,,,,,,,,,,
0.0,1.0,1.22292,0.0,25.0,25.0,25.0,1.0,penguin_16s.jpg,0.0,Purple.png,5.0,28,,,,,,,,,,,,,,,,,
0.0,1.0,0.733465,0.0,26.0,26.0,26.0,1.0,bacon_05s.jpg,0.0,Red.png,5.0,28,,,,,,,,,,,,,,,,,
0.0,1.0,0.82187,0.0,27.0,27.0,27.0,1.0,giraffe_11s.jpg,0.0,Orange.png,5.0,28,,,,,,,,,,,,,,,,,
0.0,1.0,0.875485,0.0,28.0,28.0,28.0,1.0,rug_09s.jpg,0.0,Yellow.png,5.0,28,,,,,,,,,,,,,,,,,
0.0,1.0,1.2789,0.0,29.0,29.0,29.0,1.0,lamp_08s.jpg,0.0,Green.png,5.0,28,,,,,,,,,,,,,,,,,
1.0,0.0,0.71439,0.0,30.0,30.0,30.0,1.0,metronome_03s.jpg,0.0,Blue.png,6.0,28,,,,,,,,,,,,,,,,,
1.0,1.0,1.732145,0.0,31.0,31.0,31.0,1.0,metronome_03s.jpg,1.0,Purple.png,6.0,28,,,,,,,,,,,,,,,,,
0.0,1.0,1.93154,0.0,32.0,32.0,32.0,1.0,lip_gloss_06s.jpg,0.0,Red.png,6.0,28,,,,,,,,,,,,,,,,,
1.0,1.0,0.97816,0.0,33.0,33.0,33.0,1.0,metronome_03s.jpg,1.0,Orange.png,6.0,28,,,,,,,,,,,,,,,,,
0.0,1.0,1.272835,0.0,34.0,34.0,34.0,1.0,laser_pointer_02s.jpg,0.0,Yellow.png,6.0,28,,,,,,,,,,,,,,,,,
1.0,1.0,0.889115,0.0,35.0,35.0,35.0,1.0,metronome_03s.jpg,1.0,Green.png,6.0,28,,,,,,,,,,,,,,,,,
,,,,,,,,,1.0,,,28,1.0,1.0,1.97542,0.0,0.0,0.0,0.0,1.0,emerald_02s.jpg,mirror_12s.jpg,,,,,,,
,,,,,,,,,1.0,,,28,1.0,1.0,2.33879,0.0,1.0,1.0,1.0,1.0,puppy_08s.jpg,bacon_05s.jpg,,,,,,,
,,,,,,,,,0.0,,,28,0.0,1.0,1.386,0.0,2.0,2.0,2.0,1.0,lip_gloss_06s.jpg,lamp_08s.jpg,,,,,,,
,,,,,,,,,0.0,,,28,1.0,0.0,1.96241,0.0,3.0,3.0,3.0,1.0,bathtub_23s.jpg,ice-cream_cone_06s.jpg,,,,,,,
,,,,,,,,,0.0,,,28,1.0,0.0,1.386215,0.0,4.0,4.0,4.0,1.0,giraffe_11s.jpg,treasure_08s.jpg,,,,,,,
,,,,,,,,,0.0,,,28,0.0,1.0,1.76637,0.0,5.0,5.0,5.0,1.0,rug_09s.jpg,penguin_16s.jpg,,,,,,,
,,,,,,,,,,,,28,,,,,,,,,,,0.0,6.0,6.0,6.0,1.0,newclockpresent_7_2.xlsx,newclock_compare_task_7_2.xlsx
0.0,1.0,0.94709,0.0,0.0,0.0,0.0,1.0,ant_12s.jpg,0.0,Blue.png,1.0,28,,,,,,,,,,,,,,,,,
0.0,0.0,0.438395,0.0,1.0,1.0,1.0,1.0,ant_12s.jpg,1.0,Purple.png,1.0,28,,,,,,,,,,,,,,,,,
0.0,1.0,1.2145,0.0,2.0,2.0,2.0,1.0,ticktacktoe_08s.jpg,0.0,Red.png,1.0,28,,,,,,,,,,,,,,,,,
0.0,1.0,1.681485,0.0,3.0,3.0,3.0,1.0,frog_09s.jpg,0.0,Orange.png,1.0,28,,,,,,,,,,,,,,,,,
1.0,1.0,0.91978,0.0,4.0,4.0,4.0,1.0,ticktacktoe_08s.jpg,1.0,Yellow.png,1.0,28,,,,,,,,,,,,,,,,,
0.0,1.0,0.682315,0.0,5.0,5.0,5.0,1.0,feather02.jpg,0.0,Green.png,1.0,28,,,,,,,,,,,,,,,,,
0.0,1.0,1.06405,0.0,6.0,6.0,6.0,1.0,gas_mask_11s.jpg,0.0,Blue.png,2.0,28,,,,,,,,,,,,,,,,,
0.0,0.0,0.9875,0.0,7.0,7.0,7.0,1.0,gas_mask_11s.jpg,1.0,Purple.png,2.0,28,,,,,,,,,,,,,,,,,
0.0,1.0,1.0007,0.0,8.0,8.0,8.0,1.0,mop_08s.jpg,0.0,Red.png,2.0,28,,,,,,,,,,,,,,,,,
1.0,1.0,0.72901,0.0,9.0,9.0,9.0,1.0,gas_mask_11s.jpg,1.0,Orange.png,2.0,28,,,,,,,,,,,,,,,,,
0.0,1.0,0.67514,0.0,10.0,10.0,10.0,1.0,pea_11s.jpg,0.0,Yellow.png,2.0,28,,,,,,,,,,,,,,,,,
0.0,1.0,0.85347,0.0,11.0,11.0,11.0,1.0,bowler_hat_10s.jpg,0.0,Green.png,2.0,28,,,,,,,,,,,,,,,,,
0.0,1.0,0.85384,0.0,12.0,12.0,12.0,1.0,pencil_sharpener_09n.jpg,0.0,Blue.png,3.0,28,,,,,,,,,,,,,,,,,
0.0,1.0,1.17288,0.0,13.0,13.0,13.0,1.0,rice_12s.jpg,0.0,Purple.png,3.0,28,,,,,,,,,,,,,,,,,
0.0,1.0,1.80041,0.0,14.0,14.0,14.0,1.0,stamp1_11s.jpg,0.0,Red.png,3.0,28,,,,,,,,,,,,,,,,,
0.0,1.0,0.9148,0.0,15.0,15.0,15.0,1.0,jersey_02s.jpg,0.0,Orange.png,3.0,28,,,,,,,,,,,,,,,,,
0.0,1.0,1.24651,0.0,16.0,16.0,16.0,1.0,tiara_05s.jpg,0.0,Yellow.png,3.0,28,,,,,,,,,,,,,,,,,
0.0,1.0,1.17476,0.0,17.0,17.0,17.0,1.0,target_11s.jpg,0.0,Green.png,3.0,28,,,,,,,,,,,,,,,,,
0.0,1.0,0.754125,0.0,18.0,18.0,18.0,1.0,dirt_bike_11s.jpg,0.0,Blue.png,4.0,28,,,,,,,,,,,,,,,,,
0.0,1.0,0.734045,0.0,19.0,19.0,19.0,1.0,doily_13s.jpg,0.0,Purple.png,4.0,28,,,,,,,,,,,,,,,,,
0.0,1.0,0.975315,0.0,20.0,20.0,20.0,1.0,sunglasses_11s.jpg,0.0,Red.png,4.0,28,,,,,,,,,,,,,,,,,
0.0,1.0,0.77011,0.0,21.0,21.0,21.0,1.0,compass_10n.jpg,0.0,Orange.png,4.0,28,,,,,,,,,,,,,,,,,
1.0,1.0,0.85871,0.0,22.0,22.0,22.0,1.0,sunglasses_11s.jpg,1.0,Yellow.png,4.0,28,,,,,,,,,,,,,,,,,
1.0,1.0,0.77007,0.0,23.0,23.0,23.0,1.0,sunglasses_11s.jpg,1.0,Green.png,4.0,28,,,,,,,,,,,,,,,,,
1.0,0.0,2.014165,0.0,24.0,24.0,24.0,1.0,seagull_01b.jpg,0.0,Blue.png,5.0,28,,,,,,,,,,,,,,,,,
0.0,1.0,0.90811,0.0,25.0,25.0,25.0,1.0,footprint_11s.jpg,0.0,Purple.png,5.0,28,,,,,,,,,,,,,,,,,
0.0,1.0,0.688885,0.0,26.0,26.0,26.0,1.0,projector_08s.jpg,0.0,Red.png,5.0,28,,,,,,,,,,,,,,,,,
1.0,1.0,1.476315,0.0,27.0,27.0,27.0,1.0,projector_08s.jpg,1.0,Orange.png,5.0,28,,,,,,,,,,,,,,,,,
0.0,1.0,1.32281,0.0,28.0,28.0,28.0,1.0,money_07s.jpg,0.0,Yellow.png,5.0,28,,,,,,,,,,,,,,,,,
0.0,1.0,0.67436,0.0,29.0,29.0,29.0,1.0,flip_flop_03s.jpg,0.0,Green.png,5.0,28,,,,,,,,,,,,,,,,,
0.0,1.0,2.0871,0.0,30.0,30.0,30.0,1.0,ring_03s.jpg,0.0,Blue.png,6.0,28,,,,,,,,,,,,,,,,,
1.0,0.0,0.8894,0.0,31.0,31.0,31.0,1.0,flip_flop_03s.jpg,0.0,Purple.png,6.0,28,,,,,,,,,,,,,,,,,
1.0,1.0,0.50492,0.0,32.0,32.0,32.0,1.0,flip_flop_03s.jpg,1.0,Red.png,6.0,28,,,,,,,,,,,,,,,,,
1.0,1.0,0.71185,0.0,33.0,33.0,33.0,1.0,flip_flop_03s.jpg,1.0,Orange.png,6.0,28,,,,,,,,,,,,,,,,,
0.0,1.0,1.02217,0.0,34.0,34.0,34.0,1.0,screwdriver02a.jpg,0.0,Yellow.png,6.0,28,,,,,,,,,,,,,,,,,
1.0,1.0,0.805865,0.0,35.0,35.0,35.0,1.0,screwdriver02a.jpg,1.0,Green.png,6.0,28,,,,,,,,,,,,,,,,,
,,,,,,,,,0.0,,,28,1.0,0.0,1.76954,0.0,0.0,0.0,0.0,1.0,mop_08s.jpg,feather02.jpg,,,,,,,
,,,,,,,,,1.0,,,28,1.0,1.0,1.674,0.0,1.0,1.0,1.0,1.0,pea_11s.jpg,rice_12s.jpg,,,,,,,
,,,,,,,,,1.0,,,28,1.0,1.0,1.685065,0.0,2.0,2.0,2.0,1.0,tiara_05s.jpg,doily_13s.jpg,,,,,,,
,,,,,,,,,1.0,,,28,0.0,0.0,1.494305,0.0,3.0,3.0,3.0,1.0,footprint_11s.jpg,money_07s.jpg,,,,,,,
,,,,,,,,,1.0,,,28,1.0,1.0,1.054175,0.0,4.0,4.0,4.0,1.0,pencil_sharpener_09n.jpg,jersey_02s.jpg,,,,,,,
,,,,,,,,,1.0,,,28,1.0,1.0,2.37168,0.0,5.0,5.0,5.0,1.0,stamp1_11s.jpg,target_11s.jpg,,,,,,,
,,,,,,,,,,,,28,,,,,,,,,,,0.0,7.0,7.0,7.0,1.0,newclockpresent_8_2.xlsx,newclock_compare_task_8_2.xlsx
0.0,1.0,2.188925,0.0,0.0,0.0,0.0,1.0,quilt_03s.jpg,0.0,Blue.png,1.0,28,,,,,,,,,,,,,,,,,
0.0,1.0,0.634605,0.0,1.0,1.0,1.0,1.0,stingray_02s.jpg,0.0,Purple.png,1.0,28,,,,,,,,,,,,,,,,,
0.0,1.0,0.64435,0.0,2.0,2.0,2.0,1.0,mousetrap_15n.jpg,0.0,Red.png,1.0,28,,,,,,,,,,,,,,,,,
0.0,1.0,0.95355,0.0,3.0,3.0,3.0,1.0,dashboard_02s.jpg,0.0,Orange.png,1.0,28,,,,,,,,,,,,,,,,,
1.0,1.0,0.686395,0.0,4.0,4.0,4.0,1.0,quilt_03s.jpg,1.0,Yellow.png,1.0,28,,,,,,,,,,,,,,,,,
1.0,1.0,0.51862,0.0,5.0,5.0,5.0,1.0,quilt_03s.jpg,1.0,Green.png,1.0,28,,,,,,,,,,,,,,,,,
0.0,1.0,0.73639,0.0,6.0,6.0,6.0,1.0,thorn_13s.jpg,0.0,Blue.png,2.0,28,,,,,,,,,,,,,,,,,
1.0,0.0,0.911725,0.0,7.0,7.0,7.0,1.0,mitten_10s.jpg,0.0,Purple.png,2.0,28,,,,,,,,,,,,,,,,,
0.0,1.0,1.713565,0.0,8.0,8.0,8.0,1.0,fondue_07s.jpg,0.0,Red.png,2.0,28,,,,,,,,,,,,,,,,,
0.0,1.0,0.770795,0.0,9.0,9.0,9.0,1.0,peach_04s.jpg,0.0,Orange.png,2.0,28,,,,,,,,,,,,,,,,,
0.0,1.0,0.793275,0.0,10.0,10.0,10.0,1.0,stump_02s.jpg,0.0,Yellow.png,2.0,28,,,,,,,,,,,,,,,,,
0.0,1.0,0.81603,0.0,11.0,11.0,11.0,1.0,rabbit_03s.jpg,0.0,Green.png,2.0,28,,,,,,,,,,,,,,,,,
0.0,1.0,0.89948,0.0,12.0,12.0,12.0,1.0,champagne_18s.jpg,0.0,Blue.png,3.0,28,,,,,,,,,,,,,,,,,
1.0,0.0,1.573715,0.0,13.0,13.0,13.0,1.0,rabbit_03s.jpg,0.0,Purple.png,3.0,28,,,,,,,,,,,,,,,,,
0.0,1.0,0.8255,0.0,14.0,14.0,14.0,1.0,denture_03s.jpg,0.0,Red.png,3.0,28,,,,,,,,,,,,,,,,,
1.0,1.0,0.666125,0.0,15.0,15.0,15.0,1.0,rabbit_03s.jpg,1.0,Orange.png,3.0,28,,,,,,,,,,,,,,,,,
0.0,1.0,1.228985,0.0,16.0,16.0,16.0,1.0,turtleneck_11s.jpg,0.0,Yellow.png,3.0,28,,,,,,,,,,,,,,,,,
1.0,1.0,0.749165,0.0,17.0,17.0,17.0,1.0,rabbit_03s.jpg,1.0,Green.png,3.0,28,,,,,,,,,,,,,,,,,
0.0,1.0,0.634605,0.0,18.0,18.0,18.0,1.0,typewriter_11s.jpg,0.0,Blue.png,4.0,28,,,,,,,,,,,,,,,,,
,0.0,,0.0,19.0,19.0,19.0,1.0,thread_08s.jpg,0.0,Purple.png,4.0,28,,,,,,,,,,,,,,,,,
0.0,1.0,0.838955,0.0,20.0,20.0,20.0,1.0,bean_06s.jpg,0.0,Red.png,4.0,28,,,,,,,,,,,,,,,,,
0.0,1.0,0.79533,0.0,21.0,21.0,21.0,1.0,rolling_pin_02s.jpg,0.0,Orange.png,4.0,28,,,,,,,,,,,,,,,,,
0.0,1.0,2.091195,0.0,22.0,22.0,22.0,1.0,tattoo_14s.jpg,0.0,Yellow.png,4.0,28,,,,,,,,,,,,,,,,,
,0.0,,0.0,23.0,23.0,23.0,1.0,eiffeltower.jpg,0.0,Green.png,4.0,28,,,,,,,,,,,,,,,,,
0.0,1.0,0.931085,0.0,24.0,24.0,24.0,1.0,fondue_07s.jpg,0.0,Blue.png,5.0,28,,,,,,,,,,,,,,,,,
1.0,1.0,0.96631,0.0,25.0,25.0,25.0,1.0,fondue_07s.jpg,1.0,Purple.png,5.0,28,,,,,,,,,,,,,,,,,
0.0,1.0,1.1073,0.0,26.0,26.0,26.0,1.0,omelet_07s.jpg,0.0,Red.png,5.0,28,,,,,,,,,,,,,,,,,
1.0,1.0,1.60878,0.0,27.0,27.0,27.0,1.0,fondue_07s.jpg,1.0,Orange.png,5.0,28,,,,,,,,,,,,,,,,,
0.0,1.0,1.02511,0.0,28.0,28.0,28.0,1.0,radio_09s.jpg,0.0,Yellow.png,5.0,28,,,,,,,,,,,,,,,,,
0.0,0.0,0.955645,0.0,29.0,29.0,29.0,1.0,fondue_07s.jpg,1.0,Green.png,5.0,28,,,,,,,,,,,,,,,,,
0.0,1.0,1.601375,0.0,30.0,30.0,30.0,1.0,roller_coaster_07s.jpg,0.0,Blue.png,6.0,28,,,,,,,,,,,,,,,,,
0.0,1.0,0.85972,0.0,31.0,31.0,31.0,1.0,loveseat_08s.jpg,0.0,Purple.png,6.0,28,,,,,,,,,,,,,,,,,
1.0,1.0,0.844275,0.0,32.0,32.0,32.0,1.0,roller_coaster_07s.jpg,1.0,Red.png,6.0,28,,,,,,,,,,,,,,,,,
1.0,1.0,0.892045,0.0,33.0,33.0,33.0,1.0,roller_coaster_07s.jpg,1.0,Orange.png,6.0,28,,,,,,,,,,,,,,,,,
1.0,1.0,0.67138,0.0,34.0,34.0,34.0,1.0,roller_coaster_07s.jpg,1.0,Yellow.png,6.0,28,,,,,,,,,,,,,,,,,
1.0,1.0,0.48887,0.0,35.0,35.0,35.0,1.0,roller_coaster_07s.jpg,1.0,Green.png,6.0,28,,,,,,,,,,,,,,,,,
,,,,,,,,,0.0,,,28,0.0,1.0,1.24567,0.0,0.0,0.0,0.0,1.0,loveseat_08s.jpg,radio_09s.jpg,,,,,,,
,,,,,,,,,1.0,,,28,1.0,1.0,1.07746,0.0,1.0,1.0,1.0,1.0,dashboard_02s.jpg,thorn_13s.jpg,,,,,,,
,,,,,,,,,0.0,,,28,1.0,0.0,1.85379,0.0,2.0,2.0,2.0,1.0,champagne_18s.jpg,peach_04s.jpg,,,,,,,
,,,,,,,,,1.0,,,28,1.0,1.0,1.34235,0.0,3.0,3.0,3.0,1.0,mitten_10s.jpg,stump_02s.jpg,,,,,,,
,,,,,,,,,1.0,,,28,0.0,0.0,1.644725,0.0,4.0,4.0,4.0,1.0,typewriter_11s.jpg,rolling_pin_02s.jpg,,,,,,,
,,,,,,,,,1.0,,,28,1.0,1.0,1.40048,0.0,5.0,5.0,5.0,1.0,thread_08s.jpg,tattoo_14s.jpg,,,,,,,
,,,,,,,,,,,,28,,,,,,,,,,,0.0,8.0,8.0,8.0,1.0,newclockpresent_9_2.xlsx,newclock_compare_task_9_2.xlsx
