key_resp.keys,key_resp.corr,key_resp.rt,present_segment.thisRepN,present_segment.thisTrialN,present_segment.thisN,present_segment.thisIndex,present_segment.ran,pictures,answer,clock,segment,participant,key_resp_2.keys,key_resp_2.corr,key_resp_2.rt,compare_segment.thisRepN,compare_segment.thisTrialN,compare_segment.thisN,compare_segment.thisIndex,compare_segment.ran,item_a,item_b,clock_conditions.thisRepN,clock_conditions.thisTrialN,clock_conditions.thisN,clock_conditions.thisIndex,clock_conditions.ran,present,compare
0.0,1.0,1.121635,0.0,0.0,0.0,0.0,1.0,insole_11s.jpg,0.0,Blue.png,1.0,134,,,,,,,,,,,,,,,,,
0.0,1.0,0.57361,0.0,1.0,1.0,1.0,1.0,tupperware_09s.jpg,0.0,Purple.png,1.0,134,,,,,,,,,,,,,,,,,
1.0,0.0,0.733575,0.0,2.0,2.0,2.0,1.0,tupperware_09s.jpg,0.0,Red.png,1.0,134,,,,,,,,,,,,,,,,,
0.0,1.0,0.740465,0.0,3.0,3.0,3.0,1.0,fox_13s.jpg,0.0,Orange.png,1.0,134,,,,,,,,,,,,,,,,,
1.0,1.0,0.87012,0.0,4.0,4.0,4.0,1.0,tupperware_09s.jpg,1.0,Yellow.png,1.0,134,,,,,,,,,,,,,,,,,
0.0,1.0,0.647805,0.0,5.0,5.0,5.0,1.0,lavender_10s.jpg,0.0,Green.png,1.0,134,,,,,,,,,,,,,,,,,
1.0,1.0,0.719445,0.0,6.0,6.0,6.0,1.0,tupperware_09s.jpg,1.0,Blue.png,2.0,134,,,,,,,,,,,,,,,,,
0.0,1.0,0.98087,0.0,7.0,7.0,7.0,1.0,poinsettia_04s.jpg,0.0,Purple.png,2.0,134,,,,,,,,,,,,,,,,,
0.0,1.0,0.73317,0.0,8.0,8.0,8.0,1.0,margarita_03s.jpg,0.0,Red.png,2.0,134,,,,,,,,,,,,,,,,,
0.0,1.0,1.125245,0.0,9.0,9.0,9.0,1.0,toothpaste_12s.jpg,0.0,Orange.png,2.0,134,,,,,,,,,,,,,,,,,
0.0,1.0,1.13158,0.0,10.0,10.0,10.0,1.0,ladder_15s.jpg,0.0,Yellow.png,2.0,134,,,,,,,,,,,,,,,,,
0.0,1.0,1.2109,0.0,11.0,11.0,11.0,1.0,pocketknife_12s.jpg,0.0,Green.png,2.0,134,,,,,,,,,,,,,,,,,
0.0,1.0,0.9054,0.0,12.0,12.0,12.0,1.0,spoon02a.jpg,0.0,Blue.png,3.0,134,,,,,,,,,,,,,,,,,
0.0,1.0,1.15738,0.0,13.0,13.0,13.0,1.0,mango_09s.jpg,0.0,Purple.png,3.0,134,,,,,,,,,,,,,,,,,
0.0,1.0,1.181915,0.0,14.0,14.0,14.0,1.0,chalice_10s.jpg,0.0,Red.png,3.0,134,,,,,,,,,,,,,,,,,
1.0,0.0,1.38968,0.0,15.0,15.0,15.0,1.0,pocketknife_12s.jpg,0.0,Orange.png,3.0,134,,,,,,,,,,,,,,,,,
0.0,1.0,1.236285,0.0,16.0,16.0,16.0,1.0,abacus_12s.jpg,0.0,Yellow.png,3.0,134,,,,,,,,,,,,,,,,,
1.0,0.0,1.10413,0.0,17.0,17.0,17.0,1.0,abacus_12s.jpg,0.0,Green.png,3.0,134,,,,,,,,,,,,,,,,,
1.0,1.0,1.135465,0.0,18.0,18.0,18.0,1.0,abacus_12s.jpg,1.0,Blue.png,4.0,134,,,,,,,,,,,,,,,,,
1.0,1.0,1.39227,0.0,19.0,19.0,19.0,1.0,abacus_12s.jpg,1.0,Purple.png,4.0,134,,,,,,,,,,,,,,,,,
0.0,1.0,0.805685,0.0,20.0,20.0,20.0,1.0,sushi_08s.jpg,0.0,Red.png,4.0,134,,,,,,,,,,,,,,,,,
0.0,1.0,0.64975,0.0,21.0,21.0,21.0,1.0,funnel_01b.jpg,0.0,Orange.png,4.0,134,,,,,,,,,,,,,,,,,
0.0,1.0,0.876755,0.0,22.0,22.0,22.0,1.0,rooster_03s.jpg,0.0,Yellow.png,4.0,134,,,,,,,,,,,,,,,,,
0.0,1.0,0.599845,0.0,23.0,23.0,23.0,1.0,ukulele_02s.jpg,0.0,Green.png,4.0,134,,,,,,,,,,,,,,,,,
1.0,0.0,1.84855,0.0,24.0,24.0,24.0,1.0,pocketknife_12s.jpg,0.0,Blue.png,5.0,134,,,,,,,,,,,,,,,,,
1.0,0.0,0.970745,0.0,25.0,25.0,25.0,1.0,pocketknife_12s.jpg,0.0,Purple.png,5.0,134,,,,,,,,,,,,,,,,,
1.0,1.0,0.535355,0.0,26.0,26.0,26.0,1.0,pocketknife_12s.jpg,1.0,Red.png,5.0,134,,,,,,,,,,,,,,,,,
0.0,1.0,0.833155,0.0,27.0,27.0,27.0,1.0,stapler_01b.jpg,0.0,Orange.png,5.0,134,,,,,,,,,,,,,,,,,
0.0,1.0,0.771935,0.0,28.0,28.0,28.0,1.0,birthday_cake_09s.jpg,0.0,Yellow.png,5.0,134,,,,,,,,,,,,,,,,,
0.0,1.0,0.97402,0.0,29.0,29.0,29.0,1.0,meatball_13s.jpg,0.0,Green.png,5.0,134,,,,,,,,,,,,,,,,,
0.0,1.0,0.61789,0.0,30.0,30.0,30.0,1.0,cape_11s.jpg,0.0,Blue.png,6.0,134,,,,,,,,,,,,,,,,,
1.0,0.0,1.27265,0.0,31.0,31.0,31.0,1.0,cape_11s.jpg,0.0,Purple.png,6.0,134,,,,,,,,,,,,,,,,,
0.0,1.0,1.87507,0.0,32.0,32.0,32.0,1.0,lizard_10n.jpg,0.0,Red.png,6.0,134,,,,,,,,,,,,,,,,,
0.0,1.0,0.61238,0.0,33.0,33.0,33.0,1.0,refrigerator_07s.jpg,0.0,Orange.png,6.0,134,,,,,,,,,,,,,,,,,
1.0,0.0,1.213465,0.0,34.0,34.0,34.0,1.0,refrigerator_07s.jpg,0.0,Yellow.png,6.0,134,,,,,,,,,,,,,,,,,
0.0,1.0,0.708695,0.0,35.0,35.0,35.0,1.0,touchpad_11s.jpg,0.0,Green.png,6.0,134,,,,,,,,,,,,,,,,,
,,,,,,,,,1.0,,,134,1.0,1.0,2.65211,0.0,0.0,0.0,0.0,1.0,lavender_10s.jpg,margarita_03s.jpg,,,,,,,
,,,,,,,,,1.0,,,134,1.0,1.0,2.35068,0.0,1.0,1.0,1.0,1.0,toothpaste_12s.jpg,spoon02a.jpg,,,,,,,
,,,,,,,,,1.0,,,134,0.0,0.0,2.912715,0.0,2.0,2.0,2.0,1.0,ladder_15s.jpg,mango_09s.jpg,,,,,,,
,,,,,,,,,0.0,,,134,0.0,1.0,1.207535,0.0,3.0,3.0,3.0,1.0,fox_13s.jpg,insole_11s.jpg,,,,,,,
,,,,,,,,,0.0,,,134,1.0,0.0,2.50703,0.0,4.0,4.0,4.0,1.0,ukulele_02s.jpg,sushi_08s.jpg,,,,,,,
,,,,,,,,,0.0,,,134,0.0,1.0,0.96036,0.0,5.0,5.0,5.0,1.0,touchpad_11s.jpg,lizard_10n.jpg,,,,,,,
,,,,,,,,,,,,134,,,,,,,,,,,0.0,0.0,0.0,0.0,1.0,new2backpresent_1_2.xlsx,new2back_compare_task_1_2.xlsx
0.0,1.0,1.34485,0.0,0.0,0.0,0.0,1.0,juicer2_06s.jpg,0.0,Blue.png,1.0,134,,,,,,,,,,,,,,,,,
1.0,0.0,1.42171,0.0,1.0,1.0,1.0,1.0,juicer2_06s.jpg,0.0,Purple.png,1.0,134,,,,,,,,,,,,,,,,,
0.0,1.0,0.803515,0.0,2.0,2.0,2.0,1.0,tambourine_06s.jpg,0.0,Red.png,1.0,134,,,,,,,,,,,,,,,,,
0.0,1.0,0.78902,0.0,3.0,3.0,3.0,1.0,luggage_08s.jpg,0.0,Orange.png,1.0,134,,,,,,,,,,,,,,,,,
1.0,1.0,0.824285,0.0,4.0,4.0,4.0,1.0,tambourine_06s.jpg,1.0,Yellow.png,1.0,134,,,,,,,,,,,,,,,,,
0.0,1.0,0.751185,0.0,5.0,5.0,5.0,1.0,towel_rack_04s.jpg,0.0,Green.png,1.0,134,,,,,,,,,,,,,,,,,
,0.0,,0.0,6.0,6.0,6.0,1.0,crayon_09s.jpg,0.0,Blue.png,2.0,134,,,,,,,,,,,,,,,,,
0.0,1.0,1.077155,0.0,7.0,7.0,7.0,1.0,gargoyle_08s.jpg,0.0,Purple.png,2.0,134,,,,,,,,,,,,,,,,,
0.0,1.0,0.828415,0.0,8.0,8.0,8.0,1.0,boar_10s.jpg,0.0,Red.png,2.0,134,,,,,,,,,,,,,,,,,
1.0,1.0,0.972025,0.0,9.0,9.0,9.0,1.0,gargoyle_08s.jpg,1.0,Orange.png,2.0,134,,,,,,,,,,,,,,,,,
0.0,1.0,1.38557,0.0,10.0,10.0,10.0,1.0,limousine_12s.jpg,0.0,Yellow.png,2.0,134,,,,,,,,,,,,,,,,,
0.0,1.0,1.40571,0.0,11.0,11.0,11.0,1.0,outlet_10s.jpg,0.0,Green.png,2.0,134,,,,,,,,,,,,,,,,,
0.0,1.0,1.049955,0.0,12.0,12.0,12.0,1.0,comic_book_02s.jpg,0.0,Blue.png,3.0,134,,,,,,,,,,,,,,,,,
0.0,1.0,0.70675,0.0,13.0,13.0,13.0,1.0,mask_09s.jpg,0.0,Purple.png,3.0,134,,,,,,,,,,,,,,,,,
0.0,1.0,1.05222,0.0,14.0,14.0,14.0,1.0,lasagna_06s.jpg,0.0,Red.png,3.0,134,,,,,,,,,,,,,,,,,
0.0,1.0,0.61831,0.0,15.0,15.0,15.0,1.0,diving_board_07s.jpg,0.0,Orange.png,3.0,134,,,,,,,,,,,,,,,,,
0.0,1.0,0.62235,0.0,16.0,16.0,16.0,1.0,lion_18s.jpg,0.0,Yellow.png,3.0,134,,,,,,,,,,,,,,,,,
1.0,1.0,0.684825,0.0,17.0,17.0,17.0,1.0,diving_board_07s.jpg,1.0,Green.png,3.0,134,,,,,,,,,,,,,,,,,
1.0,1.0,1.29546,0.0,18.0,18.0,18.0,1.0,lion_18s.jpg,1.0,Blue.png,4.0,134,,,,,,,,,,,,,,,,,
0.0,1.0,1.55065,0.0,19.0,19.0,19.0,1.0,medal_04s.jpg,0.0,Purple.png,4.0,134,,,,,,,,,,,,,,,,,
0.0,1.0,0.90276,0.0,20.0,20.0,20.0,1.0,incense_02s.jpg,0.0,Red.png,4.0,134,,,,,,,,,,,,,,,,,
0.0,1.0,0.68721,0.0,21.0,21.0,21.0,1.0,tape_06s.jpg,0.0,Orange.png,4.0,134,,,,,,,,,,,,,,,,,
1.0,0.0,1.12952,0.0,22.0,22.0,22.0,1.0,medal_04s.jpg,0.0,Yellow.png,4.0,134,,,,,,,,,,,,,,,,,
0.0,1.0,1.432485,0.0,23.0,23.0,23.0,1.0,buoy_04s.jpg,0.0,Green.png,4.0,134,,,,,,,,,,,,,,,,,
1.0,0.0,1.03356,0.0,24.0,24.0,24.0,1.0,limousine_12s.jpg,0.0,Blue.png,5.0,134,,,,,,,,,,,,,,,,,
0.0,1.0,0.66234,0.0,25.0,25.0,25.0,1.0,jewel_01b.jpg,0.0,Purple.png,5.0,134,,,,,,,,,,,,,,,,,
0.0,1.0,0.81856,0.0,26.0,26.0,26.0,1.0,parachute_03s.jpg,0.0,Red.png,5.0,134,,,,,,,,,,,,,,,,,
0.0,1.0,0.708085,0.0,27.0,27.0,27.0,1.0,mannequin_05s.jpg,0.0,Orange.png,5.0,134,,,,,,,,,,,,,,,,,
0.0,1.0,1.001025,0.0,28.0,28.0,28.0,1.0,snowman_02s.jpg,0.0,Yellow.png,5.0,134,,,,,,,,,,,,,,,,,
0.0,1.0,0.84493,0.0,29.0,29.0,29.0,1.0,fossil_06s.jpg,0.0,Green.png,5.0,134,,,,,,,,,,,,,,,,,
0.0,1.0,1.20686,0.0,30.0,30.0,30.0,1.0,perfume_06s.jpg,0.0,Blue.png,6.0,134,,,,,,,,,,,,,,,,,
1.0,1.0,0.695485,0.0,31.0,31.0,31.0,1.0,fossil_06s.jpg,1.0,Purple.png,6.0,134,,,,,,,,,,,,,,,,,
0.0,1.0,0.74233,0.0,32.0,32.0,32.0,1.0,pancake_12s.jpg,0.0,Red.png,6.0,134,,,,,,,,,,,,,,,,,
0.0,1.0,0.980125,0.0,33.0,33.0,33.0,1.0,tie_03s.jpg,0.0,Orange.png,6.0,134,,,,,,,,,,,,,,,,,
1.0,1.0,0.71583,0.0,34.0,34.0,34.0,1.0,pancake_12s.jpg,1.0,Yellow.png,6.0,134,,,,,,,,,,,,,,,,,
0.0,1.0,0.74458,0.0,35.0,35.0,35.0,1.0,padlock_07s.jpg,0.0,Green.png,6.0,134,,,,,,,,,,,,,,,,,
,,,,,,,,,0.0,,,134,0.0,1.0,1.96645,0.0,0.0,0.0,0.0,1.0,crayon_09s.jpg,luggage_08s.jpg,,,,,,,
,,,,,,,,,1.0,,,134,1.0,1.0,1.576535,0.0,1.0,1.0,1.0,1.0,towel_rack_04s.jpg,boar_10s.jpg,,,,,,,
,,,,,,,,,0.0,,,134,1.0,0.0,2.065945,0.0,2.0,2.0,2.0,1.0,lasagna_06s.jpg,outlet_10s.jpg,,,,,,,
,,,,,,,,,1.0,,,134,0.0,0.0,1.02835,0.0,3.0,3.0,3.0,1.0,jewel_01b.jpg,snowman_02s.jpg,,,,,,,
,,,,,,,,,0.0,,,134,1.0,0.0,1.18715,0.0,4.0,4.0,4.0,1.0,buoy_04s.jpg,incense_02s.jpg,,,,,,,
,,,,,,,,,0.0,,,134,1.0,0.0,1.055835,0.0,5.0,5.0,5.0,1.0,tie_03s.jpg,perfume_06s.jpg,,,,,,,
,,,,,,,,,,,,134,,,,,,,,,,,0.0,1.0,1.0,1.0,1.0,new2backpresent_2_2.xlsx,new2back_compare_task_2_2.xlsx
0.0,1.0,0.99587,0.0,0.0,0.0,0.0,1.0,surfboard_11s.jpg,0.0,Blue.png,1.0,134,,,,,,,,,,,,,,,,,
1.0,0.0,0.75192,0.0,1.0,1.0,1.0,1.0,surfboard_11s.jpg,0.0,Purple.png,1.0,134,,,,,,,,,,,,,,,,,
1.0,1.0,0.82258,0.0,2.0,2.0,2.0,1.0,surfboard_11s.jpg,1.0,Red.png,1.0,134,,,,,,,,,,,,,,,,,
0.0,1.0,1.023495,0.0,3.0,3.0,3.0,1.0,badge_03s.jpg,0.0,Orange.png,1.0,134,,,,,,,,,,,,,,,,,
1.0,1.0,0.969385,0.0,4.0,4.0,4.0,1.0,surfboard_11s.jpg,1.0,Yellow.png,1.0,134,,,,,,,,,,,,,,,,,
1.0,0.0,0.72192,0.0,5.0,5.0,5.0,1.0,surfboard_11s.jpg,0.0,Green.png,1.0,134,,,,,,,,,,,,,,,,,
1.0,1.0,0.56676,0.0,6.0,6.0,6.0,1.0,surfboard_11s.jpg,1.0,Blue.png,2.0,134,,,,,,,,,,,,,,,,,
0.0,1.0,0.762815,0.0,7.0,7.0,7.0,1.0,playpen_11s.jpg,0.0,Purple.png,2.0,134,,,,,,,,,,,,,,,,,
1.0,1.0,0.73854,0.0,8.0,8.0,8.0,1.0,surfboard_11s.jpg,1.0,Red.png,2.0,134,,,,,,,,,,,,,,,,,
0.0,1.0,0.678265,0.0,9.0,9.0,9.0,1.0,popcorn_09s.jpg,0.0,Orange.png,2.0,134,,,,,,,,,,,,,,,,,
1.0,1.0,0.53724,0.0,10.0,10.0,10.0,1.0,surfboard_11s.jpg,1.0,Yellow.png,2.0,134,,,,,,,,,,,,,,,,,
1.0,1.0,1.9955,0.0,11.0,11.0,11.0,1.0,popcorn_09s.jpg,1.0,Green.png,2.0,134,,,,,,,,,,,,,,,,,
0.0,1.0,1.534295,0.0,12.0,12.0,12.0,1.0,lollipop_08s.jpg,0.0,Blue.png,3.0,134,,,,,,,,,,,,,,,,,
1.0,1.0,1.233335,0.0,13.0,13.0,13.0,1.0,popcorn_09s.jpg,1.0,Purple.png,3.0,134,,,,,,,,,,,,,,,,,
0.0,1.0,0.757385,0.0,14.0,14.0,14.0,1.0,fire_pit_10s.jpg,0.0,Red.png,3.0,134,,,,,,,,,,,,,,,,,
0.0,1.0,0.758565,0.0,15.0,15.0,15.0,1.0,joystick_01b.jpg,0.0,Orange.png,3.0,134,,,,,,,,,,,,,,,,,
0.0,1.0,1.529175,0.0,16.0,16.0,16.0,1.0,panda_02s.jpg,0.0,Yellow.png,3.0,134,,,,,,,,,,,,,,,,,
0.0,1.0,1.474645,0.0,17.0,17.0,17.0,1.0,sundae_08s.jpg,0.0,Green.png,3.0,134,,,,,,,,,,,,,,,,,
0.0,1.0,0.629715,0.0,18.0,18.0,18.0,1.0,boomerang_06s.jpg,0.0,Blue.png,4.0,134,,,,,,,,,,,,,,,,,
0.0,1.0,0.68833,0.0,19.0,19.0,19.0,1.0,bagel_15s.jpg,0.0,Purple.png,4.0,134,,,,,,,,,,,,,,,,,
0.0,1.0,0.821845,0.0,20.0,20.0,20.0,1.0,powder_07s.jpg,0.0,Red.png,4.0,134,,,,,,,,,,,,,,,,,
0.0,1.0,0.63845,0.0,21.0,21.0,21.0,1.0,lipstick_02s.jpg,0.0,Orange.png,4.0,134,,,,,,,,,,,,,,,,,
0.0,1.0,0.63294,0.0,22.0,22.0,22.0,1.0,bagel_15s.jpg,0.0,Yellow.png,4.0,134,,,,,,,,,,,,,,,,,
0.0,1.0,0.6485,0.0,23.0,23.0,23.0,1.0,ladle_04s.jpg,0.0,Green.png,4.0,134,,,,,,,,,,,,,,,,,
0.0,1.0,0.99388,0.0,24.0,24.0,24.0,1.0,megaphone_03s.jpg,0.0,Blue.png,5.0,134,,,,,,,,,,,,,,,,,
0.0,1.0,1.002455,0.0,25.0,25.0,25.0,1.0,puck_06s.jpg,0.0,Purple.png,5.0,134,,,,,,,,,,,,,,,,,
0.0,1.0,1.004885,0.0,26.0,26.0,26.0,1.0,cardinal_07s.jpg,0.0,Red.png,5.0,134,,,,,,,,,,,,,,,,,
1.0,1.0,0.940255,0.0,27.0,27.0,27.0,1.0,puck_06s.jpg,1.0,Orange.png,5.0,134,,,,,,,,,,,,,,,,,
0.0,1.0,0.96387,0.0,28.0,28.0,28.0,1.0,bee_20s.jpg,0.0,Yellow.png,5.0,134,,,,,,,,,,,,,,,,,
0.0,1.0,1.245835,0.0,29.0,29.0,29.0,1.0,toilet_paper_12s.jpg,0.0,Green.png,5.0,134,,,,,,,,,,,,,,,,,
0.0,1.0,1.10205,0.0,30.0,30.0,30.0,1.0,mud_13s.jpg,0.0,Blue.png,6.0,134,,,,,,,,,,,,,,,,,
0.0,1.0,0.72199,0.0,31.0,31.0,31.0,1.0,measuring_cup_02s.jpg,0.0,Purple.png,6.0,134,,,,,,,,,,,,,,,,,
0.0,1.0,1.594735,0.0,32.0,32.0,32.0,1.0,ostrich_06s.jpg,0.0,Red.png,6.0,134,,,,,,,,,,,,,,,,,
0.0,1.0,0.60461,0.0,33.0,33.0,33.0,1.0,raspberry_12s.jpg,0.0,Orange.png,6.0,134,,,,,,,,,,,,,,,,,
1.0,0.0,0.835695,0.0,34.0,34.0,34.0,1.0,mud_13s.jpg,0.0,Yellow.png,6.0,134,,,,,,,,,,,,,,,,,
0.0,1.0,0.648295,0.0,35.0,35.0,35.0,1.0,radiator_05s.jpg,0.0,Green.png,6.0,134,,,,,,,,,,,,,,,,,
,,,,,,,,,0.0,,,134,0.0,1.0,2.189025,0.0,0.0,0.0,0.0,1.0,measuring_cup_02s.jpg,bee_20s.jpg,,,,,,,
,,,,,,,,,1.0,,,134,1.0,1.0,1.9846,0.0,1.0,1.0,1.0,1.0,lipstick_02s.jpg,megaphone_03s.jpg,,,,,,,
,,,,,,,,,0.0,,,134,1.0,0.0,1.619755,0.0,2.0,2.0,2.0,1.0,boomerang_06s.jpg,joystick_01b.jpg,,,,,,,
,,,,,,,,,0.0,,,134,1.0,0.0,1.055835,0.0,3.0,3.0,3.0,1.0,sundae_08s.jpg,fire_pit_10s.jpg,,,,,,,
,,,,,,,,,0.0,,,134,0.0,1.0,0.872395,0.0,4.0,4.0,4.0,1.0,radiator_05s.jpg,ostrich_06s.jpg,,,,,,,
,,,,,,,,,0.0,,,134,1.0,0.0,1.88976,0.0,5.0,5.0,5.0,1.0,ladle_04s.jpg,powder_07s.jpg,,,,,,,
,,,,,,,,,,,,134,,,,,,,,,,,0.0,2.0,2.0,2.0,1.0,new2backpresent_3_2.xlsx,new2back_compare_task_3_2.xlsx
0.0,1.0,0.871985,0.0,0.0,0.0,0.0,1.0,glasses01a.jpg,0.0,Blue.png,1.0,134,,,,,,,,,,,,,,,,,
0.0,1.0,0.712075,0.0,1.0,1.0,1.0,1.0,piano_13n.jpg,0.0,Purple.png,1.0,134,,,,,,,,,,,,,,,,,
0.0,1.0,0.63463,0.0,2.0,2.0,2.0,1.0,candy_cane_06s.jpg,0.0,Red.png,1.0,134,,,,,,,,,,,,,,,,,
0.0,1.0,1.021205,0.0,3.0,3.0,3.0,1.0,cushion_08s.jpg,0.0,Orange.png,1.0,134,,,,,,,,,,,,,,,,,
1.0,1.0,1.57377,0.0,4.0,4.0,4.0,1.0,candy_cane_06s.jpg,1.0,Yellow.png,1.0,134,,,,,,,,,,,,,,,,,
1.0,0.0,0.787485,0.0,5.0,5.0,5.0,1.0,candy_cane_06s.jpg,0.0,Green.png,1.0,134,,,,,,,,,,,,,,,,,
0.0,1.0,1.01055,0.0,6.0,6.0,6.0,1.0,rosary_03s.jpg,0.0,Blue.png,2.0,134,,,,,,,,,,,,,,,,,
1.0,0.0,0.89444,0.0,7.0,7.0,7.0,1.0,rosary_03s.jpg,0.0,Purple.png,2.0,134,,,,,,,,,,,,,,,,,
1.0,1.0,0.648435,0.0,8.0,8.0,8.0,1.0,rosary_03s.jpg,1.0,Red.png,2.0,134,,,,,,,,,,,,,,,,,
1.0,1.0,0.63367,0.0,9.0,9.0,9.0,1.0,rosary_03s.jpg,1.0,Orange.png,2.0,134,,,,,,,,,,,,,,,,,
0.0,1.0,0.76117,0.0,10.0,10.0,10.0,1.0,kangaroo_02s.jpg,0.0,Yellow.png,2.0,134,,,,,,,,,,,,,,,,,
1.0,0.0,1.08572,0.0,11.0,11.0,11.0,1.0,kangaroo_02s.jpg,0.0,Green.png,2.0,134,,,,,,,,,,,,,,,,,
1.0,1.0,0.873865,0.0,12.0,12.0,12.0,1.0,kangaroo_02s.jpg,1.0,Blue.png,3.0,134,,,,,,,,,,,,,,,,,
1.0,1.0,0.941775,0.0,13.0,13.0,13.0,1.0,kangaroo_02s.jpg,1.0,Purple.png,3.0,134,,,,,,,,,,,,,,,,,
0.0,1.0,1.40194,0.0,14.0,14.0,14.0,1.0,ironing_board_07s.jpg,0.0,Red.png,3.0,134,,,,,,,,,,,,,,,,,
1.0,1.0,1.265735,0.0,15.0,15.0,15.0,1.0,kangaroo_02s.jpg,1.0,Orange.png,3.0,134,,,,,,,,,,,,,,,,,
0.0,1.0,1.091895,0.0,16.0,16.0,16.0,1.0,punch2_09s.jpg,0.0,Yellow.png,3.0,134,,,,,,,,,,,,,,,,,
1.0,0.0,0.8314,0.0,17.0,17.0,17.0,1.0,ironing_board_07s.jpg,0.0,Green.png,3.0,134,,,,,,,,,,,,,,,,,
0.0,1.0,1.0963,0.0,18.0,18.0,18.0,1.0,owl_15s.jpg,0.0,Blue.png,4.0,134,,,,,,,,,,,,,,,,,
0.0,1.0,1.793235,0.0,19.0,19.0,19.0,1.0,teabag_12s.jpg,0.0,Purple.png,4.0,134,,,,,,,,,,,,,,,,,
1.0,1.0,0.784795,0.0,20.0,20.0,20.0,1.0,owl_15s.jpg,1.0,Red.png,4.0,134,,,,,,,,,,,,,,,,,
0.0,1.0,1.077355,0.0,21.0,21.0,21.0,1.0,otter_05s.jpg,0.0,Orange.png,4.0,134,,,,,,,,,,,,,,,,,
1.0,1.0,0.764875,0.0,22.0,22.0,22.0,1.0,owl_15s.jpg,1.0,Yellow.png,4.0,134,,,,,,,,,,,,,,,,,
0.0,1.0,2.058735,0.0,23.0,23.0,23.0,1.0,mold2_04s.jpg,0.0,Green.png,4.0,134,,,,,,,,,,,,,,,,,
,0.0,,0.0,24.0,24.0,24.0,1.0,mattress_01s.jpg,0.0,Blue.png,5.0,134,,,,,,,,,,,,,,,,,
,0.0,,0.0,25.0,25.0,25.0,1.0,police_car_01s.jpg,0.0,Purple.png,5.0,134,,,,,,,,,,,,,,,,,
0.0,1.0,1.037435,0.0,26.0,26.0,26.0,1.0,stethoscope_01b.jpg,0.0,Red.png,5.0,134,,,,,,,,,,,,,,,,,
0.0,0.0,1.142225,0.0,27.0,27.0,27.0,1.0,police_car_01s.jpg,1.0,Orange.png,5.0,134,,,,,,,,,,,,,,,,,
0.0,1.0,1.00621,0.0,28.0,28.0,28.0,1.0,sparkler_02s.jpg,0.0,Yellow.png,5.0,134,,,,,,,,,,,,,,,,,
0.0,1.0,0.634965,0.0,29.0,29.0,29.0,1.0,pacifier_09s.jpg,0.0,Green.png,5.0,134,,,,,,,,,,,,,,,,,
0.0,1.0,1.04334,0.0,30.0,30.0,30.0,1.0,machine_gun_09s.jpg,0.0,Blue.png,6.0,134,,,,,,,,,,,,,,,,,
0.0,1.0,0.69394,0.0,31.0,31.0,31.0,1.0,ram_05s.jpg,0.0,Purple.png,6.0,134,,,,,,,,,,,,,,,,,
0.0,1.0,0.72892,0.0,32.0,32.0,32.0,1.0,keyboard_05s.jpg,0.0,Red.png,6.0,134,,,,,,,,,,,,,,,,,
0.0,1.0,1.020225,0.0,33.0,33.0,33.0,1.0,leash_10s.jpg,0.0,Orange.png,6.0,134,,,,,,,,,,,,,,,,,
0.0,1.0,0.65584,0.0,34.0,34.0,34.0,1.0,pan_02s.jpg,0.0,Yellow.png,6.0,134,,,,,,,,,,,,,,,,,
0.0,1.0,0.64009,0.0,35.0,35.0,35.0,1.0,mixer_12s.jpg,0.0,Green.png,6.0,134,,,,,,,,,,,,,,,,,
,,,,,,,,,0.0,,,134,1.0,0.0,3.291845,0.0,0.0,0.0,0.0,1.0,teabag_12s.jpg,punch2_09s.jpg,,,,,,,
,,,,,,,,,0.0,,,134,0.0,1.0,1.3161,0.0,1.0,1.0,1.0,1.0,mattress_01s.jpg,otter_05s.jpg,,,,,,,
,,,,,,,,,0.0,,,134,1.0,0.0,1.102295,0.0,2.0,2.0,2.0,1.0,stethoscope_01b.jpg,mold2_04s.jpg,,,,,,,
,,,,,,,,,1.0,,,134,1.0,1.0,0.77103,0.0,3.0,3.0,3.0,1.0,glasses01a.jpg,cushion_08s.jpg,,,,,,,
,,,,,,,,,1.0,,,134,0.0,0.0,0.854395,0.0,4.0,4.0,4.0,1.0,machine_gun_09s.jpg,leash_10s.jpg,,,,,,,
,,,,,,,,,0.0,,,134,1.0,0.0,2.63356,0.0,5.0,5.0,5.0,1.0,pan_02s.jpg,ram_05s.jpg,,,,,,,
,,,,,,,,,,,,134,,,,,,,,,,,0.0,3.0,3.0,3.0,1.0,new2backpresent_4_2.xlsx,new2back_compare_task_4_2.xlsx
0.0,1.0,1.163615,0.0,0.0,0.0,0.0,1.0,golf_club_03s.jpg,0.0,Blue.png,1.0,134,,,,,,,,,,,,,,,,,
1.0,0.0,0.800985,0.0,1.0,1.0,1.0,1.0,golf_club_03s.jpg,0.0,Purple.png,1.0,134,,,,,,,,,,,,,,,,,
1.0,1.0,0.89538,0.0,2.0,2.0,2.0,1.0,golf_club_03s.jpg,1.0,Red.png,1.0,134,,,,,,,,,,,,,,,,,
0.0,1.0,0.675725,0.0,3.0,3.0,3.0,1.0,turnstile_08s.jpg,0.0,Orange.png,1.0,134,,,,,,,,,,,,,,,,,
1.0,1.0,0.66436,0.0,4.0,4.0,4.0,1.0,golf_club_03s.jpg,1.0,Yellow.png,1.0,134,,,,,,,,,,,,,,,,,
0.0,1.0,0.73585,0.0,5.0,5.0,5.0,1.0,milk_02s.jpg,0.0,Green.png,1.0,134,,,,,,,,,,,,,,,,,
0.0,1.0,0.69372,0.0,6.0,6.0,6.0,1.0,orange_12s.jpg,0.0,Blue.png,2.0,134,,,,,,,,,,,,,,,,,
1.0,1.0,1.23544,0.0,7.0,7.0,7.0,1.0,milk_02s.jpg,1.0,Purple.png,2.0,134,,,,,,,,,,,,,,,,,
0.0,1.0,1.466115,0.0,8.0,8.0,8.0,1.0,latch_15s.jpg,0.0,Red.png,2.0,134,,,,,,,,,,,,,,,,,
0.0,1.0,1.31422,0.0,9.0,9.0,9.0,1.0,bank_06s.jpg,0.0,Orange.png,2.0,134,,,,,,,,,,,,,,,,,
1.0,0.0,0.70327,0.0,10.0,10.0,10.0,1.0,milk_02s.jpg,0.0,Yellow.png,2.0,134,,,,,,,,,,,,,,,,,
0.0,1.0,0.628295,0.0,11.0,11.0,11.0,1.0,crab_16s.jpg,0.0,Green.png,2.0,134,,,,,,,,,,,,,,,,,
0.0,1.0,0.69701,0.0,12.0,12.0,12.0,1.0,birdcage_08s.jpg,0.0,Blue.png,3.0,134,,,,,,,,,,,,,,,,,
0.0,1.0,0.776455,0.0,13.0,13.0,13.0,1.0,spider_web_03s.jpg,0.0,Purple.png,3.0,134,,,,,,,,,,,,,,,,,
0.0,1.0,0.68291,0.0,14.0,14.0,14.0,1.0,knitting_needle_04s.jpg,0.0,Red.png,3.0,134,,,,,,,,,,,,,,,,,
0.0,1.0,0.668395,0.0,15.0,15.0,15.0,1.0,sugar_cube_11s.jpg,0.0,Orange.png,3.0,134,,,,,,,,,,,,,,,,,
0.0,1.0,0.61429,0.0,16.0,16.0,16.0,1.0,light_switch_02s.jpg,0.0,Yellow.png,3.0,134,,,,,,,,,,,,,,,,,
0.0,1.0,1.142645,0.0,17.0,17.0,17.0,1.0,gear_07s.jpg,0.0,Green.png,3.0,134,,,,,,,,,,,,,,,,,
0.0,1.0,1.042715,0.0,18.0,18.0,18.0,1.0,tongs_08s.jpg,0.0,Blue.png,4.0,134,,,,,,,,,,,,,,,,,
0.0,1.0,0.619695,0.0,19.0,19.0,19.0,1.0,recliner_02s.jpg,0.0,Purple.png,4.0,134,,,,,,,,,,,,,,,,,
0.0,1.0,0.593595,0.0,20.0,20.0,20.0,1.0,orangutan_03s.jpg,0.0,Red.png,4.0,134,,,,,,,,,,,,,,,,,
1.0,0.0,0.8284,0.0,21.0,21.0,21.0,1.0,golf_club_03s.jpg,0.0,Orange.png,4.0,134,,,,,,,,,,,,,,,,,
0.0,1.0,0.71667,0.0,22.0,22.0,22.0,1.0,lava_02s.jpg,0.0,Yellow.png,4.0,134,,,,,,,,,,,,,,,,,
0.0,1.0,0.61914,0.0,23.0,23.0,23.0,1.0,toilet_07s.jpg,0.0,Green.png,4.0,134,,,,,,,,,,,,,,,,,
1.0,0.0,1.83715,0.0,24.0,24.0,24.0,1.0,turnstile_08s.jpg,0.0,Blue.png,5.0,134,,,,,,,,,,,,,,,,,
,0.0,,0.0,25.0,25.0,25.0,1.0,turnstile_08s.jpg,0.0,Purple.png,5.0,134,,,,,,,,,,,,,,,,,
0.0,1.0,0.612955,0.0,26.0,26.0,26.0,1.0,teacup_07s.jpg,0.0,Red.png,5.0,134,,,,,,,,,,,,,,,,,
1.0,1.0,0.996745,0.0,27.0,27.0,27.0,1.0,turnstile_08s.jpg,1.0,Orange.png,5.0,134,,,,,,,,,,,,,,,,,
1.0,0.0,0.694275,0.0,28.0,28.0,28.0,1.0,turnstile_08s.jpg,0.0,Yellow.png,5.0,134,,,,,,,,,,,,,,,,,
0.0,1.0,0.71215,0.0,29.0,29.0,29.0,1.0,antenna_01b.jpg,0.0,Green.png,5.0,134,,,,,,,,,,,,,,,,,
0.0,1.0,0.68021,0.0,30.0,30.0,30.0,1.0,keyhole_03s.jpg,0.0,Blue.png,6.0,134,,,,,,,,,,,,,,,,,
0.0,1.0,1.568825,0.0,31.0,31.0,31.0,1.0,air_pump_05s.jpg,0.0,Purple.png,6.0,134,,,,,,,,,,,,,,,,,
0.0,1.0,0.897995,0.0,32.0,32.0,32.0,1.0,eggshell_14s.jpg,0.0,Red.png,6.0,134,,,,,,,,,,,,,,,,,
0.0,1.0,1.06509,0.0,33.0,33.0,33.0,1.0,eyedropper_12s.jpg,0.0,Orange.png,6.0,134,,,,,,,,,,,,,,,,,
0.0,1.0,0.64526,0.0,34.0,34.0,34.0,1.0,machete_06s.jpg,0.0,Yellow.png,6.0,134,,,,,,,,,,,,,,,,,
1.0,1.0,0.67411,0.0,35.0,35.0,35.0,1.0,eyedropper_12s.jpg,1.0,Green.png,6.0,134,,,,,,,,,,,,,,,,,
,,,,,,,,,1.0,,,134,1.0,1.0,2.264225,0.0,0.0,0.0,0.0,1.0,sugar_cube_11s.jpg,tongs_08s.jpg,,,,,,,
,,,,,,,,,1.0,,,134,0.0,0.0,2.679355,0.0,1.0,1.0,1.0,1.0,antenna_01b.jpg,eggshell_14s.jpg,,,,,,,
,,,,,,,,,1.0,,,134,1.0,1.0,0.874305,0.0,2.0,2.0,2.0,1.0,bank_06s.jpg,birdcage_08s.jpg,,,,,,,
,,,,,,,,,1.0,,,134,0.0,0.0,1.207705,0.0,3.0,3.0,3.0,1.0,air_pump_05s.jpg,machete_06s.jpg,,,,,,,
,,,,,,,,,1.0,,,134,1.0,1.0,2.295845,0.0,4.0,4.0,4.0,1.0,latch_15s.jpg,crab_16s.jpg,,,,,,,
,,,,,,,,,1.0,,,134,1.0,1.0,1.089545,0.0,5.0,5.0,5.0,1.0,spider_web_03s.jpg,light_switch_02s.jpg,,,,,,,
,,,,,,,,,,,,134,,,,,,,,,,,0.0,4.0,4.0,4.0,1.0,new2backpresent_5_2.xlsx,new2back_compare_task_5_2.xlsx
0.0,1.0,1.10031,0.0,0.0,0.0,0.0,1.0,gazelle_10s.jpg,0.0,Blue.png,1.0,134,,,,,,,,,,,,,,,,,
0.0,1.0,0.75941,0.0,1.0,1.0,1.0,1.0,saddle_06s.jpg,0.0,Purple.png,1.0,134,,,,,,,,,,,,,,,,,
1.0,0.0,0.861665,0.0,2.0,2.0,2.0,1.0,saddle_06s.jpg,0.0,Red.png,1.0,134,,,,,,,,,,,,,,,,,
0.0,1.0,1.005655,0.0,3.0,3.0,3.0,1.0,kimono_13s.jpg,0.0,Orange.png,1.0,134,,,,,,,,,,,,,,,,,
0.0,1.0,0.57123,0.0,4.0,4.0,4.0,1.0,timer_03s.jpg,0.0,Yellow.png,1.0,134,,,,,,,,,,,,,,,,,
0.0,1.0,0.570995,0.0,5.0,5.0,5.0,1.0,tulip_02s.jpg,0.0,Green.png,1.0,134,,,,,,,,,,,,,,,,,
0.0,1.0,1.11892,0.0,6.0,6.0,6.0,1.0,prism_10s.jpg,0.0,Blue.png,2.0,134,,,,,,,,,,,,,,,,,
0.0,1.0,0.6174,0.0,7.0,7.0,7.0,1.0,razor_12s.jpg,0.0,Purple.png,2.0,134,,,,,,,,,,,,,,,,,
0.0,1.0,0.471795,0.0,8.0,8.0,8.0,1.0,blazer_02s.jpg,0.0,Red.png,2.0,134,,,,,,,,,,,,,,,,,
1.0,1.0,0.816855,0.0,9.0,9.0,9.0,1.0,razor_12s.jpg,1.0,Orange.png,2.0,134,,,,,,,,,,,,,,,,,
0.0,1.0,0.688475,0.0,10.0,10.0,10.0,1.0,lamb_chop_07s.jpg,0.0,Yellow.png,2.0,134,,,,,,,,,,,,,,,,,
1.0,1.0,0.703875,0.0,11.0,11.0,11.0,1.0,razor_12s.jpg,1.0,Green.png,2.0,134,,,,,,,,,,,,,,,,,
1.0,1.0,1.505445,0.0,12.0,12.0,12.0,1.0,lamb_chop_07s.jpg,1.0,Blue.png,3.0,134,,,,,,,,,,,,,,,,,
1.0,0.0,0.499485,0.0,13.0,13.0,13.0,1.0,lamb_chop_07s.jpg,0.0,Purple.png,3.0,134,,,,,,,,,,,,,,,,,
0.0,1.0,1.297195,0.0,14.0,14.0,14.0,1.0,timer_03s.jpg,0.0,Red.png,3.0,134,,,,,,,,,,,,,,,,,
1.0,1.0,0.57111,0.0,15.0,15.0,15.0,1.0,lamb_chop_07s.jpg,1.0,Orange.png,3.0,134,,,,,,,,,,,,,,,,,
0.0,1.0,0.67371,0.0,16.0,16.0,16.0,1.0,glue_01s.jpg,0.0,Yellow.png,3.0,134,,,,,,,,,,,,,,,,,
0.0,1.0,0.80697,0.0,17.0,17.0,17.0,1.0,solar_panel_02s.jpg,0.0,Green.png,3.0,134,,,,,,,,,,,,,,,,,
0.0,1.0,1.622045,0.0,18.0,18.0,18.0,1.0,muffin_12n.jpg,0.0,Blue.png,4.0,134,,,,,,,,,,,,,,,,,
0.0,1.0,1.038595,0.0,19.0,19.0,19.0,1.0,pepper2_21s.jpg,0.0,Purple.png,4.0,134,,,,,,,,,,,,,,,,,
0.0,1.0,0.56181,0.0,20.0,20.0,20.0,1.0,marker_05s.jpg,0.0,Red.png,4.0,134,,,,,,,,,,,,,,,,,
0.0,1.0,0.65303,0.0,21.0,21.0,21.0,1.0,soccer_ball_12s.jpg,0.0,Orange.png,4.0,134,,,,,,,,,,,,,,,,,
0.0,1.0,0.7026,0.0,22.0,22.0,22.0,1.0,amber_04s.jpg,0.0,Yellow.png,4.0,134,,,,,,,,,,,,,,,,,
0.0,1.0,0.69876,0.0,23.0,23.0,23.0,1.0,stopwatch_04s.jpg,0.0,Green.png,4.0,134,,,,,,,,,,,,,,,,,
1.0,1.0,0.893875,0.0,24.0,24.0,24.0,1.0,amber_04s.jpg,1.0,Blue.png,5.0,134,,,,,,,,,,,,,,,,,
0.0,1.0,0.642935,0.0,25.0,25.0,25.0,1.0,racehorse_03s.jpg,0.0,Purple.png,5.0,134,,,,,,,,,,,,,,,,,
1.0,1.0,0.63128,0.0,26.0,26.0,26.0,1.0,amber_04s.jpg,1.0,Red.png,5.0,134,,,,,,,,,,,,,,,,,
0.0,1.0,0.63451,0.0,27.0,27.0,27.0,1.0,duck_01b.jpg,0.0,Orange.png,5.0,134,,,,,,,,,,,,,,,,,
1.0,1.0,1.58923,0.0,28.0,28.0,28.0,1.0,amber_04s.jpg,1.0,Yellow.png,5.0,134,,,,,,,,,,,,,,,,,
1.0,1.0,0.930115,0.0,29.0,29.0,29.0,1.0,duck_01b.jpg,1.0,Green.png,5.0,134,,,,,,,,,,,,,,,,,
1.0,0.0,1.03523,0.0,30.0,30.0,30.0,1.0,duck_01b.jpg,0.0,Blue.png,6.0,134,,,,,,,,,,,,,,,,,
1.0,1.0,0.52663,0.0,31.0,31.0,31.0,1.0,duck_01b.jpg,1.0,Purple.png,6.0,134,,,,,,,,,,,,,,,,,
0.0,1.0,0.720915,0.0,32.0,32.0,32.0,1.0,magnet_03s.jpg,0.0,Red.png,6.0,134,,,,,,,,,,,,,,,,,
1.0,1.0,0.69557,0.0,33.0,33.0,33.0,1.0,duck_01b.jpg,1.0,Orange.png,6.0,134,,,,,,,,,,,,,,,,,
0.0,1.0,0.78253,0.0,34.0,34.0,34.0,1.0,swimming_pool_17s.jpg,0.0,Yellow.png,6.0,134,,,,,,,,,,,,,,,,,
0.0,1.0,0.675885,0.0,35.0,35.0,35.0,1.0,roulette_wheel_04s.jpg,0.0,Green.png,6.0,134,,,,,,,,,,,,,,,,,
,,,,,,,,,0.0,,,134,1.0,0.0,1.274105,0.0,0.0,0.0,0.0,1.0,blazer_02s.jpg,tulip_02s.jpg,,,,,,,
,,,,,,,,,1.0,,,134,1.0,1.0,1.52885,0.0,1.0,1.0,1.0,1.0,glue_01s.jpg,pepper2_21s.jpg,,,,,,,
,,,,,,,,,1.0,,,134,0.0,0.0,1.34414,0.0,2.0,2.0,2.0,1.0,kimono_13s.jpg,prism_10s.jpg,,,,,,,
,,,,,,,,,0.0,,,134,0.0,1.0,1.593755,0.0,3.0,3.0,3.0,1.0,soccer_ball_12s.jpg,muffin_12n.jpg,,,,,,,
,,,,,,,,,1.0,,,134,1.0,1.0,1.576045,0.0,4.0,4.0,4.0,1.0,magnet_03s.jpg,roulette_wheel_04s.jpg,,,,,,,
,,,,,,,,,0.0,,,134,1.0,0.0,1.254225,0.0,5.0,5.0,5.0,1.0,stopwatch_04s.jpg,marker_05s.jpg,,,,,,,
,,,,,,,,,,,,134,,,,,,,,,,,0.0,5.0,5.0,5.0,1.0,new2backpresent_6_2.xlsx,new2back_compare_task_6_2.xlsx
0.0,1.0,0.79248,0.0,0.0,0.0,0.0,1.0,slingshot_07s.jpg,0.0,Blue.png,1.0,134,,,,,,,,,,,,,,,,,
1.0,0.0,0.785675,0.0,1.0,1.0,1.0,1.0,slingshot_07s.jpg,0.0,Purple.png,1.0,134,,,,,,,,,,,,,,,,,
0.0,1.0,0.705875,0.0,2.0,2.0,2.0,1.0,aluminum_foil_08s.jpg,0.0,Red.png,1.0,134,,,,,,,,,,,,,,,,,
0.0,1.0,1.22286,0.0,3.0,3.0,3.0,1.0,ink_08s.jpg,0.0,Orange.png,1.0,134,,,,,,,,,,,,,,,,,
1.0,1.0,0.699665,0.0,4.0,4.0,4.0,1.0,aluminum_foil_08s.jpg,1.0,Yellow.png,1.0,134,,,,,,,,,,,,,,,,,
1.0,0.0,0.89571,0.0,5.0,5.0,5.0,1.0,slingshot_07s.jpg,0.0,Green.png,1.0,134,,,,,,,,,,,,,,,,,
1.0,1.0,0.68362,0.0,6.0,6.0,6.0,1.0,aluminum_foil_08s.jpg,1.0,Blue.png,2.0,134,,,,,,,,,,,,,,,,,
1.0,0.0,0.582975,0.0,7.0,7.0,7.0,1.0,aluminum_foil_08s.jpg,0.0,Purple.png,2.0,134,,,,,,,,,,,,,,,,,
0.0,1.0,0.76139,0.0,8.0,8.0,8.0,1.0,ice-cream_cone_06s.jpg,0.0,Red.png,2.0,134,,,,,,,,,,,,,,,,,
1.0,0.0,1.626805,0.0,9.0,9.0,9.0,1.0,ink_08s.jpg,0.0,Orange.png,2.0,134,,,,,,,,,,,,,,,,,
0.0,1.0,0.869275,0.0,10.0,10.0,10.0,1.0,emerald_02s.jpg,0.0,Yellow.png,2.0,134,,,,,,,,,,,,,,,,,
0.0,1.0,1.384845,0.0,11.0,11.0,11.0,1.0,bathtub_23s.jpg,0.0,Green.png,2.0,134,,,,,,,,,,,,,,,,,
0.0,1.0,0.7486,0.0,12.0,12.0,12.0,1.0,bubble_01b.jpg,0.0,Blue.png,3.0,134,,,,,,,,,,,,,,,,,
0.0,1.0,0.90975,0.0,13.0,13.0,13.0,1.0,mirror_12s.jpg,0.0,Purple.png,3.0,134,,,,,,,,,,,,,,,,,
0.0,1.0,0.64689,0.0,14.0,14.0,14.0,1.0,swing_set_15s.jpg,0.0,Red.png,3.0,134,,,,,,,,,,,,,,,,,
0.0,1.0,0.653105,0.0,15.0,15.0,15.0,1.0,pinwheel_06s.jpg,0.0,Orange.png,3.0,134,,,,,,,,,,,,,,,,,
1.0,1.0,0.777205,0.0,16.0,16.0,16.0,1.0,swing_set_15s.jpg,1.0,Yellow.png,3.0,134,,,,,,,,,,,,,,,,,
1.0,1.0,1.331215,0.0,17.0,17.0,17.0,1.0,pinwheel_06s.jpg,1.0,Green.png,3.0,134,,,,,,,,,,,,,,,,,
1.0,0.0,1.659615,0.0,18.0,18.0,18.0,1.0,ink_08s.jpg,0.0,Blue.png,4.0,134,,,,,,,,,,,,,,,,,
0.0,1.0,0.71208,0.0,19.0,19.0,19.0,1.0,plunger_08s.jpg,0.0,Purple.png,4.0,134,,,,,,,,,,,,,,,,,
1.0,1.0,0.646735,0.0,20.0,20.0,20.0,1.0,ink_08s.jpg,1.0,Red.png,4.0,134,,,,,,,,,,,,,,,,,
1.0,0.0,0.5863,0.0,21.0,21.0,21.0,1.0,ink_08s.jpg,0.0,Orange.png,4.0,134,,,,,,,,,,,,,,,,,
0.0,1.0,0.72968,0.0,22.0,22.0,22.0,1.0,metronome_03s.jpg,0.0,Yellow.png,4.0,134,,,,,,,,,,,,,,,,,
0.0,1.0,0.496505,0.0,23.0,23.0,23.0,1.0,puppy_08s.jpg,0.0,Green.png,4.0,134,,,,,,,,,,,,,,,,,
0.0,1.0,0.586405,0.0,24.0,24.0,24.0,1.0,treasure_08s.jpg,0.0,Blue.png,5.0,134,,,,,,,,,,,,,,,,,
0.0,1.0,0.515825,0.0,25.0,25.0,25.0,1.0,penguin_16s.jpg,0.0,Purple.png,5.0,134,,,,,,,,,,,,,,,,,
0.0,1.0,0.649535,0.0,26.0,26.0,26.0,1.0,bacon_05s.jpg,0.0,Red.png,5.0,134,,,,,,,,,,,,,,,,,
0.0,1.0,0.746655,0.0,27.0,27.0,27.0,1.0,giraffe_11s.jpg,0.0,Orange.png,5.0,134,,,,,,,,,,,,,,,,,
0.0,1.0,0.5605,0.0,28.0,28.0,28.0,1.0,rug_09s.jpg,0.0,Yellow.png,5.0,134,,,,,,,,,,,,,,,,,
0.0,1.0,1.601335,0.0,29.0,29.0,29.0,1.0,lamp_08s.jpg,0.0,Green.png,5.0,134,,,,,,,,,,,,,,,,,
1.0,0.0,1.17471,0.0,30.0,30.0,30.0,1.0,metronome_03s.jpg,0.0,Blue.png,6.0,134,,,,,,,,,,,,,,,,,
1.0,0.0,0.55563,0.0,31.0,31.0,31.0,1.0,metronome_03s.jpg,0.0,Purple.png,6.0,134,,,,,,,,,,,,,,,,,
0.0,1.0,0.71614,0.0,32.0,32.0,32.0,1.0,lip_gloss_06s.jpg,0.0,Red.png,6.0,134,,,,,,,,,,,,,,,,,
1.0,1.0,0.647705,0.0,33.0,33.0,33.0,1.0,metronome_03s.jpg,1.0,Orange.png,6.0,134,,,,,,,,,,,,,,,,,
0.0,1.0,0.74173,0.0,34.0,34.0,34.0,1.0,laser_pointer_02s.jpg,0.0,Yellow.png,6.0,134,,,,,,,,,,,,,,,,,
1.0,1.0,0.91477,0.0,35.0,35.0,35.0,1.0,metronome_03s.jpg,1.0,Green.png,6.0,134,,,,,,,,,,,,,,,,,
,,,,,,,,,1.0,,,134,0.0,0.0,2.63164,0.0,0.0,0.0,0.0,1.0,emerald_02s.jpg,mirror_12s.jpg,,,,,,,
,,,,,,,,,1.0,,,134,1.0,1.0,1.87919,0.0,1.0,1.0,1.0,1.0,puppy_08s.jpg,bacon_05s.jpg,,,,,,,
,,,,,,,,,0.0,,,134,0.0,1.0,1.72591,0.0,2.0,2.0,2.0,1.0,lip_gloss_06s.jpg,lamp_08s.jpg,,,,,,,
,,,,,,,,,0.0,,,134,1.0,0.0,2.16013,0.0,3.0,3.0,3.0,1.0,bathtub_23s.jpg,ice-cream_cone_06s.jpg,,,,,,,
,,,,,,,,,0.0,,,134,1.0,0.0,1.49638,0.0,4.0,4.0,4.0,1.0,giraffe_11s.jpg,treasure_08s.jpg,,,,,,,
,,,,,,,,,0.0,,,134,1.0,0.0,1.734415,0.0,5.0,5.0,5.0,1.0,rug_09s.jpg,penguin_16s.jpg,,,,,,,
,,,,,,,,,,,,134,,,,,,,,,,,0.0,6.0,6.0,6.0,1.0,new2backpresent_7_2.xlsx,new2back_compare_task_7_2.xlsx
0.0,1.0,1.24042,0.0,0.0,0.0,0.0,1.0,ant_12s.jpg,0.0,Blue.png,1.0,134,,,,,,,,,,,,,,,,,
1.0,0.0,0.865875,0.0,1.0,1.0,1.0,1.0,ant_12s.jpg,0.0,Purple.png,1.0,134,,,,,,,,,,,,,,,,,
0.0,1.0,1.90462,0.0,2.0,2.0,2.0,1.0,ticktacktoe_08s.jpg,0.0,Red.png,1.0,134,,,,,,,,,,,,,,,,,
0.0,1.0,0.76999,0.0,3.0,3.0,3.0,1.0,frog_09s.jpg,0.0,Orange.png,1.0,134,,,,,,,,,,,,,,,,,
1.0,1.0,1.02983,0.0,4.0,4.0,4.0,1.0,ticktacktoe_08s.jpg,1.0,Yellow.png,1.0,134,,,,,,,,,,,,,,,,,
0.0,1.0,0.643635,0.0,5.0,5.0,5.0,1.0,feather02.jpg,0.0,Green.png,1.0,134,,,,,,,,,,,,,,,,,
0.0,1.0,0.640845,0.0,6.0,6.0,6.0,1.0,gas_mask_11s.jpg,0.0,Blue.png,2.0,134,,,,,,,,,,,,,,,,,
1.0,0.0,1.13407,0.0,7.0,7.0,7.0,1.0,gas_mask_11s.jpg,0.0,Purple.png,2.0,134,,,,,,,,,,,,,,,,,
0.0,1.0,0.595175,0.0,8.0,8.0,8.0,1.0,mop_08s.jpg,0.0,Red.png,2.0,134,,,,,,,,,,,,,,,,,
1.0,1.0,0.88271,0.0,9.0,9.0,9.0,1.0,gas_mask_11s.jpg,1.0,Orange.png,2.0,134,,,,,,,,,,,,,,,,,
0.0,1.0,1.233915,0.0,10.0,10.0,10.0,1.0,pea_11s.jpg,0.0,Yellow.png,2.0,134,,,,,,,,,,,,,,,,,
0.0,1.0,0.95441,0.0,11.0,11.0,11.0,1.0,bowler_hat_10s.jpg,0.0,Green.png,2.0,134,,,,,,,,,,,,,,,,,
0.0,1.0,0.698855,0.0,12.0,12.0,12.0,1.0,pencil_sharpener_09n.jpg,0.0,Blue.png,3.0,134,,,,,,,,,,,,,,,,,
0.0,1.0,0.806695,0.0,13.0,13.0,13.0,1.0,rice_12s.jpg,0.0,Purple.png,3.0,134,,,,,,,,,,,,,,,,,
0.0,1.0,1.188975,0.0,14.0,14.0,14.0,1.0,stamp1_11s.jpg,0.0,Red.png,3.0,134,,,,,,,,,,,,,,,,,
0.0,1.0,0.833735,0.0,15.0,15.0,15.0,1.0,jersey_02s.jpg,0.0,Orange.png,3.0,134,,,,,,,,,,,,,,,,,
0.0,1.0,0.732055,0.0,16.0,16.0,16.0,1.0,tiara_05s.jpg,0.0,Yellow.png,3.0,134,,,,,,,,,,,,,,,,,
0.0,1.0,0.617465,0.0,17.0,17.0,17.0,1.0,target_11s.jpg,0.0,Green.png,3.0,134,,,,,,,,,,,,,,,,,
0.0,1.0,0.547945,0.0,18.0,18.0,18.0,1.0,dirt_bike_11s.jpg,0.0,Blue.png,4.0,134,,,,,,,,,,,,,,,,,
0.0,1.0,1.080725,0.0,19.0,19.0,19.0,1.0,doily_13s.jpg,0.0,Purple.png,4.0,134,,,,,,,,,,,,,,,,,
0.0,1.0,0.781955,0.0,20.0,20.0,20.0,1.0,sunglasses_11s.jpg,0.0,Red.png,4.0,134,,,,,,,,,,,,,,,,,
0.0,1.0,0.638505,0.0,21.0,21.0,21.0,1.0,compass_10n.jpg,0.0,Orange.png,4.0,134,,,,,,,,,,,,,,,,,
1.0,1.0,0.70901,0.0,22.0,22.0,22.0,1.0,sunglasses_11s.jpg,1.0,Yellow.png,4.0,134,,,,,,,,,,,,,,,,,
1.0,0.0,0.57537,0.0,23.0,23.0,23.0,1.0,sunglasses_11s.jpg,0.0,Green.png,4.0,134,,,,,,,,,,,,,,,,,
0.0,1.0,0.570295,0.0,24.0,24.0,24.0,1.0,seagull_01b.jpg,0.0,Blue.png,5.0,134,,,,,,,,,,,,,,,,,
0.0,1.0,1.387145,0.0,25.0,25.0,25.0,1.0,footprint_11s.jpg,0.0,Purple.png,5.0,134,,,,,,,,,,,,,,,,,
0.0,1.0,0.914355,0.0,26.0,26.0,26.0,1.0,projector_08s.jpg,0.0,Red.png,5.0,134,,,,,,,,,,,,,,,,,
1.0,0.0,1.73586,0.0,27.0,27.0,27.0,1.0,projector_08s.jpg,0.0,Orange.png,5.0,134,,,,,,,,,,,,,,,,,
0.0,1.0,1.35792,0.0,28.0,28.0,28.0,1.0,money_07s.jpg,0.0,Yellow.png,5.0,134,,,,,,,,,,,,,,,,,
0.0,1.0,1.116665,0.0,29.0,29.0,29.0,1.0,flip_flop_03s.jpg,0.0,Green.png,5.0,134,,,,,,,,,,,,,,,,,
,0.0,,0.0,30.0,30.0,30.0,1.0,ring_03s.jpg,0.0,Blue.png,6.0,134,,,,,,,,,,,,,,,,,
,0.0,,0.0,31.0,31.0,31.0,1.0,flip_flop_03s.jpg,1.0,Purple.png,6.0,134,,,,,,,,,,,,,,,,,
1.0,0.0,0.57636,0.0,32.0,32.0,32.0,1.0,flip_flop_03s.jpg,0.0,Red.png,6.0,134,,,,,,,,,,,,,,,,,
,0.0,,0.0,33.0,33.0,33.0,1.0,flip_flop_03s.jpg,1.0,Orange.png,6.0,134,,,,,,,,,,,,,,,,,
0.0,1.0,1.247495,0.0,34.0,34.0,34.0,1.0,screwdriver02a.jpg,0.0,Yellow.png,6.0,134,,,,,,,,,,,,,,,,,
1.0,0.0,0.706135,0.0,35.0,35.0,35.0,1.0,screwdriver02a.jpg,0.0,Green.png,6.0,134,,,,,,,,,,,,,,,,,
,,,,,,,,,0.0,,,134,0.0,1.0,1.43825,0.0,0.0,0.0,0.0,1.0,mop_08s.jpg,feather02.jpg,,,,,,,
,,,,,,,,,1.0,,,134,0.0,0.0,2.032885,0.0,1.0,1.0,1.0,1.0,pea_11s.jpg,rice_12s.jpg,,,,,,,
,,,,,,,,,1.0,,,134,1.0,1.0,1.516555,0.0,2.0,2.0,2.0,1.0,tiara_05s.jpg,doily_13s.jpg,,,,,,,
,,,,,,,,,1.0,,,134,1.0,1.0,1.790525,0.0,3.0,3.0,3.0,1.0,footprint_11s.jpg,money_07s.jpg,,,,,,,
,,,,,,,,,1.0,,,134,1.0,1.0,0.88636,0.0,4.0,4.0,4.0,1.0,pencil_sharpener_09n.jpg,jersey_02s.jpg,,,,,,,
,,,,,,,,,1.0,,,134,1.0,1.0,1.289615,0.0,5.0,5.0,5.0,1.0,stamp1_11s.jpg,target_11s.jpg,,,,,,,
,,,,,,,,,,,,134,,,,,,,,,,,0.0,7.0,7.0,7.0,1.0,new2backpresent_8_2.xlsx,new2back_compare_task_8_2.xlsx
0.0,1.0,0.867395,0.0,0.0,0.0,0.0,1.0,quilt_03s.jpg,0.0,Blue.png,1.0,134,,,,,,,,,,,,,,,,,
0.0,1.0,0.67662,0.0,1.0,1.0,1.0,1.0,stingray_02s.jpg,0.0,Purple.png,1.0,134,,,,,,,,,,,,,,,,,
0.0,1.0,0.679035,0.0,2.0,2.0,2.0,1.0,mousetrap_15n.jpg,0.0,Red.png,1.0,134,,,,,,,,,,,,,,,,,
0.0,1.0,0.64016,0.0,3.0,3.0,3.0,1.0,dashboard_02s.jpg,0.0,Orange.png,1.0,134,,,,,,,,,,,,,,,,,
1.0,0.0,0.81293,0.0,4.0,4.0,4.0,1.0,quilt_03s.jpg,0.0,Yellow.png,1.0,134,,,,,,,,,,,,,,,,,
1.0,0.0,2.311275,0.0,5.0,5.0,5.0,1.0,quilt_03s.jpg,0.0,Green.png,1.0,134,,,,,,,,,,,,,,,,,
0.0,1.0,1.018155,0.0,6.0,6.0,6.0,1.0,thorn_13s.jpg,0.0,Blue.png,2.0,134,,,,,,,,,,,,,,,,,
0.0,1.0,1.153825,0.0,7.0,7.0,7.0,1.0,mitten_10s.jpg,0.0,Purple.png,2.0,134,,,,,,,,,,,,,,,,,
0.0,1.0,0.64133,0.0,8.0,8.0,8.0,1.0,fondue_07s.jpg,0.0,Red.png,2.0,134,,,,,,,,,,,,,,,,,
0.0,1.0,0.92428,0.0,9.0,9.0,9.0,1.0,peach_04s.jpg,0.0,Orange.png,2.0,134,,,,,,,,,,,,,,,,,
0.0,1.0,0.633185,0.0,10.0,10.0,10.0,1.0,stump_02s.jpg,0.0,Yellow.png,2.0,134,,,,,,,,,,,,,,,,,
0.0,1.0,0.51726,0.0,11.0,11.0,11.0,1.0,rabbit_03s.jpg,0.0,Green.png,2.0,134,,,,,,,,,,,,,,,,,
0.0,1.0,0.52582,0.0,12.0,12.0,12.0,1.0,champagne_18s.jpg,0.0,Blue.png,3.0,134,,,,,,,,,,,,,,,,,
1.0,1.0,1.770645,0.0,13.0,13.0,13.0,1.0,rabbit_03s.jpg,1.0,Purple.png,3.0,134,,,,,,,,,,,,,,,,,
0.0,1.0,1.292475,0.0,14.0,14.0,14.0,1.0,denture_03s.jpg,0.0,Red.png,3.0,134,,,,,,,,,,,,,,,,,
1.0,1.0,0.580355,0.0,15.0,15.0,15.0,1.0,rabbit_03s.jpg,1.0,Orange.png,3.0,134,,,,,,,,,,,,,,,,,
0.0,1.0,1.23953,0.0,16.0,16.0,16.0,1.0,turtleneck_11s.jpg,0.0,Yellow.png,3.0,134,,,,,,,,,,,,,,,,,
1.0,1.0,1.533915,0.0,17.0,17.0,17.0,1.0,rabbit_03s.jpg,1.0,Green.png,3.0,134,,,,,,,,,,,,,,,,,
0.0,1.0,1.52047,0.0,18.0,18.0,18.0,1.0,typewriter_11s.jpg,0.0,Blue.png,4.0,134,,,,,,,,,,,,,,,,,
0.0,1.0,0.663465,0.0,19.0,19.0,19.0,1.0,thread_08s.jpg,0.0,Purple.png,4.0,134,,,,,,,,,,,,,,,,,
0.0,1.0,0.6152,0.0,20.0,20.0,20.0,1.0,bean_06s.jpg,0.0,Red.png,4.0,134,,,,,,,,,,,,,,,,,
0.0,1.0,1.928165,0.0,21.0,21.0,21.0,1.0,rolling_pin_02s.jpg,0.0,Orange.png,4.0,134,,,,,,,,,,,,,,,,,
0.0,1.0,0.877485,0.0,22.0,22.0,22.0,1.0,tattoo_14s.jpg,0.0,Yellow.png,4.0,134,,,,,,,,,,,,,,,,,
0.0,1.0,0.620005,0.0,23.0,23.0,23.0,1.0,eiffeltower.jpg,0.0,Green.png,4.0,134,,,,,,,,,,,,,,,,,
1.0,0.0,1.003235,0.0,24.0,24.0,24.0,1.0,fondue_07s.jpg,0.0,Blue.png,5.0,134,,,,,,,,,,,,,,,,,
1.0,0.0,1.206005,0.0,25.0,25.0,25.0,1.0,fondue_07s.jpg,0.0,Purple.png,5.0,134,,,,,,,,,,,,,,,,,
0.0,1.0,0.8702,0.0,26.0,26.0,26.0,1.0,omelet_07s.jpg,0.0,Red.png,5.0,134,,,,,,,,,,,,,,,,,
1.0,1.0,0.64446,0.0,27.0,27.0,27.0,1.0,fondue_07s.jpg,1.0,Orange.png,5.0,134,,,,,,,,,,,,,,,,,
0.0,1.0,1.033275,0.0,28.0,28.0,28.0,1.0,radio_09s.jpg,0.0,Yellow.png,5.0,134,,,,,,,,,,,,,,,,,
1.0,1.0,0.651325,0.0,29.0,29.0,29.0,1.0,fondue_07s.jpg,1.0,Green.png,5.0,134,,,,,,,,,,,,,,,,,
0.0,1.0,0.74684,0.0,30.0,30.0,30.0,1.0,roller_coaster_07s.jpg,0.0,Blue.png,6.0,134,,,,,,,,,,,,,,,,,
0.0,1.0,0.66052,0.0,31.0,31.0,31.0,1.0,loveseat_08s.jpg,0.0,Purple.png,6.0,134,,,,,,,,,,,,,,,,,
1.0,1.0,1.1127,0.0,32.0,32.0,32.0,1.0,roller_coaster_07s.jpg,1.0,Red.png,6.0,134,,,,,,,,,,,,,,,,,
1.0,0.0,0.780085,0.0,33.0,33.0,33.0,1.0,roller_coaster_07s.jpg,0.0,Orange.png,6.0,134,,,,,,,,,,,,,,,,,
1.0,1.0,0.62896,0.0,34.0,34.0,34.0,1.0,roller_coaster_07s.jpg,1.0,Yellow.png,6.0,134,,,,,,,,,,,,,,,,,
1.0,1.0,0.55334,0.0,35.0,35.0,35.0,1.0,roller_coaster_07s.jpg,1.0,Green.png,6.0,134,,,,,,,,,,,,,,,,,
,,,,,,,,,0.0,,,134,1.0,0.0,1.62835,0.0,0.0,0.0,0.0,1.0,loveseat_08s.jpg,radio_09s.jpg,,,,,,,
,,,,,,,,,1.0,,,134,0.0,0.0,2.35313,0.0,1.0,1.0,1.0,1.0,dashboard_02s.jpg,thorn_13s.jpg,,,,,,,
,,,,,,,,,0.0,,,134,1.0,0.0,0.914785,0.0,2.0,2.0,2.0,1.0,champagne_18s.jpg,peach_04s.jpg,,,,,,,
,,,,,,,,,1.0,,,134,1.0,1.0,0.846185,0.0,3.0,3.0,3.0,1.0,mitten_10s.jpg,stump_02s.jpg,,,,,,,
,,,,,,,,,1.0,,,134,1.0,1.0,1.24864,0.0,4.0,4.0,4.0,1.0,typewriter_11s.jpg,rolling_pin_02s.jpg,,,,,,,
,,,,,,,,,1.0,,,134,1.0,1.0,1.14595,0.0,5.0,5.0,5.0,1.0,thread_08s.jpg,tattoo_14s.jpg,,,,,,,
,,,,,,,,,,,,134,,,,,,,,,,,0.0,8.0,8.0,8.0,1.0,new2backpresent_9_2.xlsx,new2back_compare_task_9_2.xlsx
