key_resp.keys,key_resp.corr,key_resp.rt,present_segment.thisRepN,present_segment.thisTrialN,present_segment.thisN,present_segment.thisIndex,present_segment.ran,pictures,answer,clock,segment,participant,key_resp_2.keys,key_resp_2.corr,key_resp_2.rt,compare_segment.thisRepN,compare_segment.thisTrialN,compare_segment.thisN,compare_segment.thisIndex,compare_segment.ran,item_a,item_b,clock_conditions.thisRepN,clock_conditions.thisTrialN,clock_conditions.thisN,clock_conditions.thisIndex,clock_conditions.ran,present,compare
0.0,1.0,1.223065,0.0,0.0,0.0,0.0,1.0,mirror_12s.jpg,0.0,Blue.png,1.0,109,,,,,,,,,,,,,,,,,
0.0,1.0,0.874445,0.0,1.0,1.0,1.0,1.0,polaroid_05s.jpg,0.0,Purple.png,1.0,109,,,,,,,,,,,,,,,,,
0.0,1.0,1.427395,0.0,2.0,2.0,2.0,1.0,polaroid_05s.jpg,0.0,Red.png,1.0,109,,,,,,,,,,,,,,,,,
0.0,1.0,1.014505,0.0,3.0,3.0,3.0,1.0,slingshot_07s.jpg,0.0,Orange.png,1.0,109,,,,,,,,,,,,,,,,,
1.0,1.0,1.382535,0.0,4.0,4.0,4.0,1.0,polaroid_05s.jpg,1.0,Yellow.png,1.0,109,,,,,,,,,,,,,,,,,
0.0,1.0,0.912095,0.0,5.0,5.0,5.0,1.0,kettle_08s.jpg,0.0,Green.png,1.0,109,,,,,,,,,,,,,,,,,
0.0,1.0,0.750935,0.0,6.0,6.0,6.0,1.0,crystal_ball_12s.jpg,0.0,Blue.png,2.0,109,,,,,,,,,,,,,,,,,
0.0,1.0,0.76692,0.0,7.0,7.0,7.0,1.0,iron_13s.jpg,0.0,Purple.png,2.0,109,,,,,,,,,,,,,,,,,
0.0,1.0,0.776165,0.0,8.0,8.0,8.0,1.0,saddle_06s.jpg,0.0,Red.png,2.0,109,,,,,,,,,,,,,,,,,
0.0,1.0,0.709085,0.0,9.0,9.0,9.0,1.0,mango_09s.jpg,0.0,Orange.png,2.0,109,,,,,,,,,,,,,,,,,
0.0,1.0,0.79254,0.0,10.0,10.0,10.0,1.0,ostrich_06s.jpg,0.0,Yellow.png,2.0,109,,,,,,,,,,,,,,,,,
1.0,0.0,1.845375,0.0,11.0,11.0,11.0,1.0,iron_13s.jpg,0.0,Green.png,2.0,109,,,,,,,,,,,,,,,,,
0.0,1.0,0.748775,0.0,12.0,12.0,12.0,1.0,stethoscope_01b.jpg,0.0,Blue.png,3.0,109,,,,,,,,,,,,,,,,,
0.0,1.0,0.62568,0.0,13.0,13.0,13.0,1.0,ruby_15s.jpg,0.0,Purple.png,3.0,109,,,,,,,,,,,,,,,,,
1.0,0.0,0.99675,0.0,14.0,14.0,14.0,1.0,mango_09s.jpg,0.0,Red.png,3.0,109,,,,,,,,,,,,,,,,,
0.0,1.0,0.867475,0.0,15.0,15.0,15.0,1.0,target_11s.jpg,0.0,Orange.png,3.0,109,,,,,,,,,,,,,,,,,
1.0,1.0,1.81737,0.0,16.0,16.0,16.0,1.0,mango_09s.jpg,1.0,Yellow.png,3.0,109,,,,,,,,,,,,,,,,,
0.0,1.0,1.166835,0.0,17.0,17.0,17.0,1.0,compass_10n.jpg,0.0,Green.png,3.0,109,,,,,,,,,,,,,,,,,
0.0,1.0,0.825615,0.0,18.0,18.0,18.0,1.0,meatball_13s.jpg,0.0,Blue.png,4.0,109,,,,,,,,,,,,,,,,,
0.0,1.0,0.63406,0.0,19.0,19.0,19.0,1.0,stapler_01b.jpg,0.0,Purple.png,4.0,109,,,,,,,,,,,,,,,,,
1.0,1.0,0.913425,0.0,20.0,20.0,20.0,1.0,meatball_13s.jpg,1.0,Red.png,4.0,109,,,,,,,,,,,,,,,,,
0.0,1.0,0.731465,0.0,21.0,21.0,21.0,1.0,pump_11s.jpg,0.0,Orange.png,4.0,109,,,,,,,,,,,,,,,,,
0.0,1.0,0.779895,0.0,22.0,22.0,22.0,1.0,coral_08s.jpg,0.0,Yellow.png,4.0,109,,,,,,,,,,,,,,,,,
1.0,0.0,0.85225,0.0,23.0,23.0,23.0,1.0,meatball_13s.jpg,0.0,Green.png,4.0,109,,,,,,,,,,,,,,,,,
0.0,1.0,0.727915,0.0,24.0,24.0,24.0,1.0,peach_04s.jpg,0.0,Blue.png,5.0,109,,,,,,,,,,,,,,,,,
1.0,1.0,1.466465,0.0,25.0,25.0,25.0,1.0,meatball_13s.jpg,1.0,Purple.png,5.0,109,,,,,,,,,,,,,,,,,
0.0,1.0,0.779615,0.0,26.0,26.0,26.0,1.0,pie_08s.jpg,0.0,Red.png,5.0,109,,,,,,,,,,,,,,,,,
0.0,1.0,0.61555,0.0,27.0,27.0,27.0,1.0,rollerskate_03s.jpg,0.0,Orange.png,5.0,109,,,,,,,,,,,,,,,,,
0.0,1.0,0.61843,0.0,28.0,28.0,28.0,1.0,trampoline_13s.jpg,0.0,Yellow.png,5.0,109,,,,,,,,,,,,,,,,,
0.0,1.0,0.72824,0.0,29.0,29.0,29.0,1.0,undershirt_02s.jpg,0.0,Green.png,5.0,109,,,,,,,,,,,,,,,,,
0.0,1.0,0.67558,0.0,30.0,30.0,30.0,1.0,thread_08s.jpg,0.0,Blue.png,6.0,109,,,,,,,,,,,,,,,,,
0.0,1.0,0.726435,0.0,31.0,31.0,31.0,1.0,megaphone_03s.jpg,0.0,Purple.png,6.0,109,,,,,,,,,,,,,,,,,
0.0,1.0,0.746915,0.0,32.0,32.0,32.0,1.0,plaster_cast_13s.jpg,0.0,Red.png,6.0,109,,,,,,,,,,,,,,,,,
0.0,1.0,0.576525,0.0,33.0,33.0,33.0,1.0,diving_board_07s.jpg,0.0,Orange.png,6.0,109,,,,,,,,,,,,,,,,,
0.0,1.0,0.67738,0.0,34.0,34.0,34.0,1.0,kayak_08s.jpg,0.0,Yellow.png,6.0,109,,,,,,,,,,,,,,,,,
0.0,0.0,1.70208,0.0,35.0,35.0,35.0,1.0,diving_board_07s.jpg,1.0,Green.png,6.0,109,,,,,,,,,,,,,,,,,
,,,,,,,,,1.0,,,109,1.0,1.0,1.54823,0.0,0.0,0.0,0.0,1.0,stapler_01b.jpg,coral_08s.jpg,,,,,,,
,,,,,,,,,1.0,,,109,1.0,1.0,1.87253,0.0,1.0,1.0,1.0,1.0,slingshot_07s.jpg,crystal_ball_12s.jpg,,,,,,,
,,,,,,,,,0.0,,,109,0.0,1.0,1.86751,0.0,2.0,2.0,2.0,1.0,saddle_06s.jpg,kettle_08s.jpg,,,,,,,
,,,,,,,,,1.0,,,109,1.0,1.0,1.529815,0.0,3.0,3.0,3.0,1.0,pie_08s.jpg,undershirt_02s.jpg,,,,,,,
,,,,,,,,,1.0,,,109,1.0,1.0,1.80637,0.0,4.0,4.0,4.0,1.0,stethoscope_01b.jpg,target_11s.jpg,,,,,,,
,,,,,,,,,1.0,,,109,0.0,0.0,1.331145,0.0,5.0,5.0,5.0,1.0,ostrich_06s.jpg,ruby_15s.jpg,,,,,,,
,,,,,,,,,,,,109,,,,,,,,,,,0.0,0.0,0.0,0.0,1.0,new2backpresent_1_4.xlsx,new2back_compare_task_1_4.xlsx
0.0,1.0,1.43797,0.0,0.0,0.0,0.0,1.0,jetski_10s.jpg,0.0,Blue.png,1.0,109,,,,,,,,,,,,,,,,,
0.0,1.0,0.803935,0.0,1.0,1.0,1.0,1.0,tripod_01b.jpg,0.0,Purple.png,1.0,109,,,,,,,,,,,,,,,,,
0.0,1.0,0.697625,0.0,2.0,2.0,2.0,1.0,lab_coat_11s.jpg,0.0,Red.png,1.0,109,,,,,,,,,,,,,,,,,
0.0,1.0,0.730545,0.0,3.0,3.0,3.0,1.0,foam_03s.jpg,0.0,Orange.png,1.0,109,,,,,,,,,,,,,,,,,
0.0,1.0,0.77834,0.0,4.0,4.0,4.0,1.0,crate_05s.jpg,0.0,Yellow.png,1.0,109,,,,,,,,,,,,,,,,,
0.0,1.0,0.7456,0.0,5.0,5.0,5.0,1.0,margarita_03s.jpg,0.0,Green.png,1.0,109,,,,,,,,,,,,,,,,,
0.0,1.0,0.751245,0.0,6.0,6.0,6.0,1.0,joystick_01b.jpg,0.0,Blue.png,2.0,109,,,,,,,,,,,,,,,,,
0.0,1.0,0.755895,0.0,7.0,7.0,7.0,1.0,giraffe_11s.jpg,0.0,Purple.png,2.0,109,,,,,,,,,,,,,,,,,
0.0,1.0,0.60474,0.0,8.0,8.0,8.0,1.0,quilt_03s.jpg,0.0,Red.png,2.0,109,,,,,,,,,,,,,,,,,
1.0,1.0,0.69274,0.0,9.0,9.0,9.0,1.0,giraffe_11s.jpg,1.0,Orange.png,2.0,109,,,,,,,,,,,,,,,,,
0.0,1.0,0.74677,0.0,10.0,10.0,10.0,1.0,pincushion_10s.jpg,0.0,Yellow.png,2.0,109,,,,,,,,,,,,,,,,,
1.0,1.0,1.859575,0.0,11.0,11.0,11.0,1.0,giraffe_11s.jpg,1.0,Green.png,2.0,109,,,,,,,,,,,,,,,,,
1.0,1.0,1.162355,0.0,12.0,12.0,12.0,1.0,pincushion_10s.jpg,1.0,Blue.png,3.0,109,,,,,,,,,,,,,,,,,
1.0,1.0,1.185035,0.0,13.0,13.0,13.0,1.0,giraffe_11s.jpg,1.0,Purple.png,3.0,109,,,,,,,,,,,,,,,,,
0.0,1.0,0.86659,0.0,14.0,14.0,14.0,1.0,rolling_pin_02s.jpg,0.0,Red.png,3.0,109,,,,,,,,,,,,,,,,,
0.0,1.0,0.88114,0.0,15.0,15.0,15.0,1.0,ticktacktoe_08s.jpg,0.0,Orange.png,3.0,109,,,,,,,,,,,,,,,,,
0.0,1.0,1.37141,0.0,16.0,16.0,16.0,1.0,giraffe_11s.jpg,0.0,Yellow.png,3.0,109,,,,,,,,,,,,,,,,,
1.0,1.0,0.9126,0.0,17.0,17.0,17.0,1.0,ticktacktoe_08s.jpg,1.0,Green.png,3.0,109,,,,,,,,,,,,,,,,,
0.0,1.0,0.77638,0.0,18.0,18.0,18.0,1.0,typewriter_11s.jpg,0.0,Blue.png,4.0,109,,,,,,,,,,,,,,,,,
0.0,1.0,0.847955,0.0,19.0,19.0,19.0,1.0,toothpaste_12s.jpg,0.0,Purple.png,4.0,109,,,,,,,,,,,,,,,,,
0.0,1.0,0.93472,0.0,20.0,20.0,20.0,1.0,hummingbird_05s.jpg,0.0,Red.png,4.0,109,,,,,,,,,,,,,,,,,
1.0,1.0,0.40303,0.0,21.0,21.0,21.0,1.0,toothpaste_12s.jpg,1.0,Orange.png,4.0,109,,,,,,,,,,,,,,,,,
0.0,1.0,1.470345,0.0,22.0,22.0,22.0,1.0,toothpaste_12s.jpg,0.0,Yellow.png,4.0,109,,,,,,,,,,,,,,,,,
0.0,1.0,1.0671,0.0,23.0,23.0,23.0,1.0,treadmill_06s.jpg,0.0,Green.png,4.0,109,,,,,,,,,,,,,,,,,
0.0,1.0,1.71385,0.0,24.0,24.0,24.0,1.0,typewriter_11s.jpg,0.0,Blue.png,5.0,109,,,,,,,,,,,,,,,,,
0.0,1.0,1.0708,0.0,25.0,25.0,25.0,1.0,penguin_16s.jpg,0.0,Purple.png,5.0,109,,,,,,,,,,,,,,,,,
0.0,1.0,0.669735,0.0,26.0,26.0,26.0,1.0,olive_05s.jpg,0.0,Red.png,5.0,109,,,,,,,,,,,,,,,,,
1.0,1.0,0.869775,0.0,27.0,27.0,27.0,1.0,penguin_16s.jpg,1.0,Orange.png,5.0,109,,,,,,,,,,,,,,,,,
0.0,1.0,1.38432,0.0,28.0,28.0,28.0,1.0,penguin_16s.jpg,0.0,Yellow.png,5.0,109,,,,,,,,,,,,,,,,,
0.0,1.0,0.718075,0.0,29.0,29.0,29.0,1.0,tab_09s.jpg,0.0,Green.png,5.0,109,,,,,,,,,,,,,,,,,
0.0,1.0,1.202325,0.0,30.0,30.0,30.0,1.0,frame_06s.jpg,0.0,Blue.png,6.0,109,,,,,,,,,,,,,,,,,
0.0,1.0,0.607335,0.0,31.0,31.0,31.0,1.0,mop_08s.jpg,0.0,Purple.png,6.0,109,,,,,,,,,,,,,,,,,
0.0,1.0,1.254915,0.0,32.0,32.0,32.0,1.0,memory_stick_11s.jpg,0.0,Red.png,6.0,109,,,,,,,,,,,,,,,,,
1.0,0.0,1.58851,0.0,33.0,33.0,33.0,1.0,olive_05s.jpg,0.0,Orange.png,6.0,109,,,,,,,,,,,,,,,,,
0.0,1.0,0.866625,0.0,34.0,34.0,34.0,1.0,ravioli_08s.jpg,0.0,Yellow.png,6.0,109,,,,,,,,,,,,,,,,,
0.0,1.0,0.559455,0.0,35.0,35.0,35.0,1.0,mousetrap_15n.jpg,0.0,Green.png,6.0,109,,,,,,,,,,,,,,,,,
,,,,,,,,,1.0,,,109,1.0,1.0,1.32328,0.0,0.0,0.0,0.0,1.0,hummingbird_05s.jpg,treadmill_06s.jpg,,,,,,,
,,,,,,,,,1.0,,,109,1.0,1.0,1.836645,0.0,1.0,1.0,1.0,1.0,margarita_03s.jpg,quilt_03s.jpg,,,,,,,
,,,,,,,,,0.0,,,109,0.0,1.0,1.28384,0.0,2.0,2.0,2.0,1.0,joystick_01b.jpg,foam_03s.jpg,,,,,,,
,,,,,,,,,0.0,,,109,1.0,0.0,1.56713,0.0,3.0,3.0,3.0,1.0,ravioli_08s.jpg,mop_08s.jpg,,,,,,,
,,,,,,,,,1.0,,,109,0.0,0.0,1.611505,0.0,4.0,4.0,4.0,1.0,tab_09s.jpg,memory_stick_11s.jpg,,,,,,,
,,,,,,,,,1.0,,,109,0.0,0.0,1.427075,0.0,5.0,5.0,5.0,1.0,tripod_01b.jpg,crate_05s.jpg,,,,,,,
,,,,,,,,,,,,109,,,,,,,,,,,0.0,1.0,1.0,1.0,1.0,new2backpresent_2_4.xlsx,new2back_compare_task_2_4.xlsx
0.0,1.0,1.196475,0.0,0.0,0.0,0.0,1.0,safety_pin_02s.jpg,0.0,Blue.png,1.0,109,,,,,,,,,,,,,,,,,
0.0,1.0,0.936885,0.0,1.0,1.0,1.0,1.0,safety_pin_02s.jpg,0.0,Purple.png,1.0,109,,,,,,,,,,,,,,,,,
0.0,1.0,0.730405,0.0,2.0,2.0,2.0,1.0,cardinal_07s.jpg,0.0,Red.png,1.0,109,,,,,,,,,,,,,,,,,
1.0,1.0,0.62239,0.0,3.0,3.0,3.0,1.0,safety_pin_02s.jpg,1.0,Orange.png,1.0,109,,,,,,,,,,,,,,,,,
0.0,1.0,0.71955,0.0,4.0,4.0,4.0,1.0,potholder_02s.jpg,0.0,Yellow.png,1.0,109,,,,,,,,,,,,,,,,,
1.0,1.0,0.642695,0.0,5.0,5.0,5.0,1.0,safety_pin_02s.jpg,1.0,Green.png,1.0,109,,,,,,,,,,,,,,,,,
0.0,1.0,1.14005,0.0,6.0,6.0,6.0,1.0,cardinal_07s.jpg,0.0,Blue.png,2.0,109,,,,,,,,,,,,,,,,,
0.0,1.0,0.766165,0.0,7.0,7.0,7.0,1.0,lion_18s.jpg,0.0,Purple.png,2.0,109,,,,,,,,,,,,,,,,,
0.0,1.0,0.80997,0.0,8.0,8.0,8.0,1.0,comic_book_02s.jpg,0.0,Red.png,2.0,109,,,,,,,,,,,,,,,,,
0.0,1.0,0.67837,0.0,9.0,9.0,9.0,1.0,lizard_10n.jpg,0.0,Orange.png,2.0,109,,,,,,,,,,,,,,,,,
0.0,1.0,0.49957,0.0,10.0,10.0,10.0,1.0,rice_12s.jpg,0.0,Yellow.png,2.0,109,,,,,,,,,,,,,,,,,
0.0,1.0,0.6939,0.0,11.0,11.0,11.0,1.0,bagel_15s.jpg,0.0,Green.png,2.0,109,,,,,,,,,,,,,,,,,
0.0,1.0,0.653435,0.0,12.0,12.0,12.0,1.0,recliner_02s.jpg,0.0,Blue.png,3.0,109,,,,,,,,,,,,,,,,,
0.0,1.0,0.91224,0.0,13.0,13.0,13.0,1.0,recliner_02s.jpg,0.0,Purple.png,3.0,109,,,,,,,,,,,,,,,,,
0.0,1.0,1.13755,0.0,14.0,14.0,14.0,1.0,luggage_08s.jpg,0.0,Red.png,3.0,109,,,,,,,,,,,,,,,,,
0.0,0.0,1.386015,0.0,15.0,15.0,15.0,1.0,recliner_02s.jpg,1.0,Orange.png,3.0,109,,,,,,,,,,,,,,,,,
0.0,1.0,0.74631,0.0,16.0,16.0,16.0,1.0,onion_10s.jpg,0.0,Yellow.png,3.0,109,,,,,,,,,,,,,,,,,
0.0,1.0,0.469145,0.0,17.0,17.0,17.0,1.0,rosary_03s.jpg,0.0,Green.png,3.0,109,,,,,,,,,,,,,,,,,
0.0,1.0,0.74853,0.0,18.0,18.0,18.0,1.0,smokingpipe.jpg,0.0,Blue.png,4.0,109,,,,,,,,,,,,,,,,,
0.0,1.0,0.802945,0.0,19.0,19.0,19.0,1.0,roulette_wheel_04s.jpg,0.0,Purple.png,4.0,109,,,,,,,,,,,,,,,,,
0.0,0.0,0.628525,0.0,20.0,20.0,20.0,1.0,smokingpipe.jpg,1.0,Red.png,4.0,109,,,,,,,,,,,,,,,,,
0.0,1.0,0.72235,0.0,21.0,21.0,21.0,1.0,orchid_01b.jpg,0.0,Orange.png,4.0,109,,,,,,,,,,,,,,,,,
0.0,1.0,0.69866,0.0,22.0,22.0,22.0,1.0,buoy_04s.jpg,0.0,Yellow.png,4.0,109,,,,,,,,,,,,,,,,,
0.0,1.0,0.59799,0.0,23.0,23.0,23.0,1.0,stopwatch_04s.jpg,0.0,Green.png,4.0,109,,,,,,,,,,,,,,,,,
0.0,1.0,0.81059,0.0,24.0,24.0,24.0,1.0,knitting_needle_04s.jpg,0.0,Blue.png,5.0,109,,,,,,,,,,,,,,,,,
0.0,1.0,1.310855,0.0,25.0,25.0,25.0,1.0,prism_10s.jpg,0.0,Purple.png,5.0,109,,,,,,,,,,,,,,,,,
0.0,1.0,0.70873,0.0,26.0,26.0,26.0,1.0,teapot_03s.jpg,0.0,Red.png,5.0,109,,,,,,,,,,,,,,,,,
0.0,1.0,0.764925,0.0,27.0,27.0,27.0,1.0,fire_pit_10s.jpg,0.0,Orange.png,5.0,109,,,,,,,,,,,,,,,,,
0.0,1.0,0.87373,0.0,28.0,28.0,28.0,1.0,fire_pit_10s.jpg,0.0,Yellow.png,5.0,109,,,,,,,,,,,,,,,,,
1.0,1.0,0.7711,0.0,29.0,29.0,29.0,1.0,fire_pit_10s.jpg,1.0,Green.png,5.0,109,,,,,,,,,,,,,,,,,
0.0,1.0,0.86299,0.0,30.0,30.0,30.0,1.0,ironing_board_07s.jpg,0.0,Blue.png,6.0,109,,,,,,,,,,,,,,,,,
1.0,1.0,0.816385,0.0,31.0,31.0,31.0,1.0,fire_pit_10s.jpg,1.0,Purple.png,6.0,109,,,,,,,,,,,,,,,,,
0.0,1.0,0.932025,0.0,32.0,32.0,32.0,1.0,mattress_01s.jpg,0.0,Red.png,6.0,109,,,,,,,,,,,,,,,,,
1.0,1.0,0.635955,0.0,33.0,33.0,33.0,1.0,fire_pit_10s.jpg,1.0,Orange.png,6.0,109,,,,,,,,,,,,,,,,,
1.0,1.0,1.05349,0.0,34.0,34.0,34.0,1.0,mattress_01s.jpg,1.0,Yellow.png,6.0,109,,,,,,,,,,,,,,,,,
0.0,1.0,0.98161,0.0,35.0,35.0,35.0,1.0,ice-cream_cone_06s.jpg,0.0,Green.png,6.0,109,,,,,,,,,,,,,,,,,
,,,,,,,,,1.0,,,109,1.0,1.0,2.583185,0.0,0.0,0.0,0.0,1.0,roulette_wheel_04s.jpg,buoy_04s.jpg,,,,,,,
,,,,,,,,,0.0,,,109,1.0,0.0,1.87563,0.0,1.0,1.0,1.0,1.0,lion_18s.jpg,potholder_02s.jpg,,,,,,,
,,,,,,,,,0.0,,,109,0.0,1.0,1.5214,0.0,2.0,2.0,2.0,1.0,bagel_15s.jpg,comic_book_02s.jpg,,,,,,,
,,,,,,,,,1.0,,,109,0.0,0.0,1.84383,0.0,3.0,3.0,3.0,1.0,stopwatch_04s.jpg,teapot_03s.jpg,,,,,,,
,,,,,,,,,1.0,,,109,1.0,1.0,1.56753,0.0,4.0,4.0,4.0,1.0,luggage_08s.jpg,rosary_03s.jpg,,,,,,,
,,,,,,,,,1.0,,,109,1.0,1.0,1.592355,0.0,5.0,5.0,5.0,1.0,orchid_01b.jpg,knitting_needle_04s.jpg,,,,,,,
,,,,,,,,,,,,109,,,,,,,,,,,0.0,2.0,2.0,2.0,1.0,new2backpresent_3_4.xlsx,new2back_compare_task_3_4.xlsx
0.0,1.0,0.99195,0.0,0.0,0.0,0.0,1.0,smoothie_09s.jpg,0.0,Blue.png,1.0,109,,,,,,,,,,,,,,,,,
0.0,1.0,0.797015,0.0,1.0,1.0,1.0,1.0,raspberry_12s.jpg,0.0,Purple.png,1.0,109,,,,,,,,,,,,,,,,,
0.0,1.0,1.420295,0.0,2.0,2.0,2.0,1.0,raspberry_12s.jpg,0.0,Red.png,1.0,109,,,,,,,,,,,,,,,,,
0.0,1.0,0.771055,0.0,3.0,3.0,3.0,1.0,lamb_chop_07s.jpg,0.0,Orange.png,1.0,109,,,,,,,,,,,,,,,,,
0.0,1.0,1.45748,0.0,4.0,4.0,4.0,1.0,smoothie_09s.jpg,0.0,Yellow.png,1.0,109,,,,,,,,,,,,,,,,,
1.0,0.0,1.09237,0.0,5.0,5.0,5.0,1.0,raspberry_12s.jpg,0.0,Green.png,1.0,109,,,,,,,,,,,,,,,,,
0.0,1.0,0.65627,0.0,6.0,6.0,6.0,1.0,lava_02s.jpg,0.0,Blue.png,2.0,109,,,,,,,,,,,,,,,,,
0.0,1.0,0.816205,0.0,7.0,7.0,7.0,1.0,trident_07s.jpg,0.0,Purple.png,2.0,109,,,,,,,,,,,,,,,,,
0.0,1.0,0.95729,0.0,8.0,8.0,8.0,1.0,trident_07s.jpg,0.0,Red.png,2.0,109,,,,,,,,,,,,,,,,,
1.0,1.0,0.78069,0.0,9.0,9.0,9.0,1.0,trident_07s.jpg,1.0,Orange.png,2.0,109,,,,,,,,,,,,,,,,,
0.0,1.0,0.82465,0.0,10.0,10.0,10.0,1.0,orangutan_03s.jpg,0.0,Yellow.png,2.0,109,,,,,,,,,,,,,,,,,
1.0,1.0,0.52266,0.0,11.0,11.0,11.0,1.0,trident_07s.jpg,1.0,Green.png,2.0,109,,,,,,,,,,,,,,,,,
0.0,1.0,0.89993,0.0,12.0,12.0,12.0,1.0,raspberry_12s.jpg,0.0,Blue.png,3.0,109,,,,,,,,,,,,,,,,,
1.0,1.0,0.435975,0.0,13.0,13.0,13.0,1.0,trident_07s.jpg,1.0,Purple.png,3.0,109,,,,,,,,,,,,,,,,,
0.0,1.0,0.55507,0.0,14.0,14.0,14.0,1.0,lavender_10s.jpg,0.0,Red.png,3.0,109,,,,,,,,,,,,,,,,,
0.0,1.0,1.006,0.0,15.0,15.0,15.0,1.0,chip_04s.jpg,0.0,Orange.png,3.0,109,,,,,,,,,,,,,,,,,
0.0,1.0,0.57941,0.0,16.0,16.0,16.0,1.0,lamb_04s.jpg,0.0,Yellow.png,3.0,109,,,,,,,,,,,,,,,,,
0.0,1.0,0.751065,0.0,17.0,17.0,17.0,1.0,emerald_02s.jpg,0.0,Green.png,3.0,109,,,,,,,,,,,,,,,,,
0.0,1.0,0.94913,0.0,18.0,18.0,18.0,1.0,pineapple_12s.jpg,0.0,Blue.png,4.0,109,,,,,,,,,,,,,,,,,
0.0,1.0,0.71473,0.0,19.0,19.0,19.0,1.0,sundae_08s.jpg,0.0,Purple.png,4.0,109,,,,,,,,,,,,,,,,,
0.0,1.0,1.220735,0.0,20.0,20.0,20.0,1.0,sundae_08s.jpg,0.0,Red.png,4.0,109,,,,,,,,,,,,,,,,,
0.0,1.0,0.83872,0.0,21.0,21.0,21.0,1.0,squirrel_02s.jpg,0.0,Orange.png,4.0,109,,,,,,,,,,,,,,,,,
0.0,1.0,0.662195,0.0,22.0,22.0,22.0,1.0,roller_coaster_07s.jpg,0.0,Yellow.png,4.0,109,,,,,,,,,,,,,,,,,
1.0,0.0,1.8748,0.0,23.0,23.0,23.0,1.0,sundae_08s.jpg,0.0,Green.png,4.0,109,,,,,,,,,,,,,,,,,
0.0,1.0,0.575285,0.0,24.0,24.0,24.0,1.0,tweezers_03s.jpg,0.0,Blue.png,5.0,109,,,,,,,,,,,,,,,,,
1.0,1.0,1.57389,0.0,25.0,25.0,25.0,1.0,sundae_08s.jpg,1.0,Purple.png,5.0,109,,,,,,,,,,,,,,,,,
0.0,1.0,1.185765,0.0,26.0,26.0,26.0,1.0,rudder_02s.jpg,0.0,Red.png,5.0,109,,,,,,,,,,,,,,,,,
0.0,1.0,1.21291,0.0,27.0,27.0,27.0,1.0,rake_06s.jpg,0.0,Orange.png,5.0,109,,,,,,,,,,,,,,,,,
0.0,1.0,1.183605,0.0,28.0,28.0,28.0,1.0,rake_06s.jpg,0.0,Yellow.png,5.0,109,,,,,,,,,,,,,,,,,
1.0,1.0,0.81425,0.0,29.0,29.0,29.0,1.0,rake_06s.jpg,1.0,Green.png,5.0,109,,,,,,,,,,,,,,,,,
0.0,1.0,0.86185,0.0,30.0,30.0,30.0,1.0,cap_05s.jpg,0.0,Blue.png,6.0,109,,,,,,,,,,,,,,,,,
0.0,1.0,0.68251,0.0,31.0,31.0,31.0,1.0,paper_towel_03s.jpg,0.0,Purple.png,6.0,109,,,,,,,,,,,,,,,,,
0.0,1.0,1.28668,0.0,32.0,32.0,32.0,1.0,toaster_03s.jpg,0.0,Red.png,6.0,109,,,,,,,,,,,,,,,,,
0.0,1.0,1.183955,0.0,33.0,33.0,33.0,1.0,money_07s.jpg,0.0,Orange.png,6.0,109,,,,,,,,,,,,,,,,,
0.0,1.0,0.680425,0.0,34.0,34.0,34.0,1.0,pinwheel_06s.jpg,0.0,Yellow.png,6.0,109,,,,,,,,,,,,,,,,,
0.0,1.0,0.89931,0.0,35.0,35.0,35.0,1.0,lid_10s.jpg,0.0,Green.png,6.0,109,,,,,,,,,,,,,,,,,
,,,,,,,,,0.0,,,109,0.0,1.0,1.27395,0.0,0.0,0.0,0.0,1.0,tweezers_03s.jpg,squirrel_02s.jpg,,,,,,,
,,,,,,,,,1.0,,,109,0.0,0.0,1.76435,0.0,1.0,1.0,1.0,1.0,chip_04s.jpg,pineapple_12s.jpg,,,,,,,
,,,,,,,,,1.0,,,109,1.0,1.0,2.181955,0.0,2.0,2.0,2.0,1.0,lamb_chop_07s.jpg,lava_02s.jpg,,,,,,,
,,,,,,,,,0.0,,,109,1.0,0.0,1.543045,0.0,3.0,3.0,3.0,1.0,pinwheel_06s.jpg,paper_towel_03s.jpg,,,,,,,
,,,,,,,,,0.0,,,109,0.0,1.0,1.846065,0.0,4.0,4.0,4.0,1.0,emerald_02s.jpg,lavender_10s.jpg,,,,,,,
,,,,,,,,,0.0,,,109,1.0,0.0,1.864095,0.0,5.0,5.0,5.0,1.0,money_07s.jpg,cap_05s.jpg,,,,,,,
,,,,,,,,,,,,109,,,,,,,,,,,0.0,3.0,3.0,3.0,1.0,new2backpresent_4_4.xlsx,new2back_compare_task_4_4.xlsx
0.0,1.0,0.7866,0.0,0.0,0.0,0.0,1.0,fur_coat_11s.jpg,0.0,Blue.png,1.0,109,,,,,,,,,,,,,,,,,
0.0,1.0,0.464285,0.0,1.0,1.0,1.0,1.0,crayon_09s.jpg,0.0,Purple.png,1.0,109,,,,,,,,,,,,,,,,,
0.0,1.0,0.84971,0.0,2.0,2.0,2.0,1.0,cobra_05s.jpg,0.0,Red.png,1.0,109,,,,,,,,,,,,,,,,,
0.0,1.0,0.612995,0.0,3.0,3.0,3.0,1.0,raccoon_02s.jpg,0.0,Orange.png,1.0,109,,,,,,,,,,,,,,,,,
0.0,1.0,0.537005,0.0,4.0,4.0,4.0,1.0,soda_fountain_03s.jpg,0.0,Yellow.png,1.0,109,,,,,,,,,,,,,,,,,
1.0,1.0,0.850065,0.0,5.0,5.0,5.0,1.0,raccoon_02s.jpg,1.0,Green.png,1.0,109,,,,,,,,,,,,,,,,,
0.0,1.0,1.02951,0.0,6.0,6.0,6.0,1.0,feather02.jpg,0.0,Blue.png,2.0,109,,,,,,,,,,,,,,,,,
1.0,1.0,1.35106,0.0,7.0,7.0,7.0,1.0,raccoon_02s.jpg,1.0,Purple.png,2.0,109,,,,,,,,,,,,,,,,,
1.0,1.0,1.06634,0.0,8.0,8.0,8.0,1.0,feather02.jpg,1.0,Red.png,2.0,109,,,,,,,,,,,,,,,,,
0.0,1.0,0.82889,0.0,9.0,9.0,9.0,1.0,rug_09s.jpg,0.0,Orange.png,2.0,109,,,,,,,,,,,,,,,,,
1.0,1.0,1.44254,0.0,10.0,10.0,10.0,1.0,feather02.jpg,1.0,Yellow.png,2.0,109,,,,,,,,,,,,,,,,,
0.0,1.0,0.67093,0.0,11.0,11.0,11.0,1.0,cushion_08s.jpg,0.0,Green.png,2.0,109,,,,,,,,,,,,,,,,,
0.0,0.0,1.09125,0.0,12.0,12.0,12.0,1.0,feather02.jpg,1.0,Blue.png,3.0,109,,,,,,,,,,,,,,,,,
0.0,1.0,1.31509,0.0,13.0,13.0,13.0,1.0,feather02.jpg,0.0,Purple.png,3.0,109,,,,,,,,,,,,,,,,,
0.0,1.0,0.754935,0.0,14.0,14.0,14.0,1.0,ice_pack_09s.jpg,0.0,Red.png,3.0,109,,,,,,,,,,,,,,,,,
0.0,1.0,0.714805,0.0,15.0,15.0,15.0,1.0,ice_pack_09s.jpg,0.0,Orange.png,3.0,109,,,,,,,,,,,,,,,,,
0.0,1.0,0.670935,0.0,16.0,16.0,16.0,1.0,loom_05s.jpg,0.0,Yellow.png,3.0,109,,,,,,,,,,,,,,,,,
1.0,1.0,0.401225,0.0,17.0,17.0,17.0,1.0,ice_pack_09s.jpg,1.0,Green.png,3.0,109,,,,,,,,,,,,,,,,,
0.0,1.0,1.696925,0.0,18.0,18.0,18.0,1.0,ice_pack_09s.jpg,0.0,Blue.png,4.0,109,,,,,,,,,,,,,,,,,
1.0,1.0,0.58327,0.0,19.0,19.0,19.0,1.0,ice_pack_09s.jpg,1.0,Purple.png,4.0,109,,,,,,,,,,,,,,,,,
1.0,1.0,0.821625,0.0,20.0,20.0,20.0,1.0,ice_pack_09s.jpg,1.0,Red.png,4.0,109,,,,,,,,,,,,,,,,,
0.0,1.0,0.61573,0.0,21.0,21.0,21.0,1.0,blazer_02s.jpg,0.0,Orange.png,4.0,109,,,,,,,,,,,,,,,,,
0.0,1.0,0.579975,0.0,22.0,22.0,22.0,1.0,penlight_12s.jpg,0.0,Yellow.png,4.0,109,,,,,,,,,,,,,,,,,
0.0,1.0,0.515495,0.0,23.0,23.0,23.0,1.0,swan_11s.jpg,0.0,Green.png,4.0,109,,,,,,,,,,,,,,,,,
0.0,1.0,1.122255,0.0,24.0,24.0,24.0,1.0,plunger_08s.jpg,0.0,Blue.png,5.0,109,,,,,,,,,,,,,,,,,
0.0,1.0,0.86369,0.0,25.0,25.0,25.0,1.0,bottle_opener_11s.jpg,0.0,Purple.png,5.0,109,,,,,,,,,,,,,,,,,
0.0,1.0,0.790355,0.0,26.0,26.0,26.0,1.0,checkbook_11s.jpg,0.0,Red.png,5.0,109,,,,,,,,,,,,,,,,,
0.0,1.0,1.158185,0.0,27.0,27.0,27.0,1.0,ink_08s.jpg,0.0,Orange.png,5.0,109,,,,,,,,,,,,,,,,,
0.0,1.0,1.403215,0.0,28.0,28.0,28.0,1.0,plunger_08s.jpg,0.0,Yellow.png,5.0,109,,,,,,,,,,,,,,,,,
0.0,1.0,1.37222,0.0,29.0,29.0,29.0,1.0,pencil02a.jpg,0.0,Green.png,5.0,109,,,,,,,,,,,,,,,,,
0.0,1.0,1.29807,0.0,30.0,30.0,30.0,1.0,ginger_09s.jpg,0.0,Blue.png,6.0,109,,,,,,,,,,,,,,,,,
0.0,1.0,1.10215,0.0,31.0,31.0,31.0,1.0,taxi_15s.jpg,0.0,Purple.png,6.0,109,,,,,,,,,,,,,,,,,
0.0,1.0,0.996605,0.0,32.0,32.0,32.0,1.0,toy_04s.jpg,0.0,Red.png,6.0,109,,,,,,,,,,,,,,,,,
0.0,1.0,0.92711,0.0,33.0,33.0,33.0,1.0,blowfish_03s.jpg,0.0,Orange.png,6.0,109,,,,,,,,,,,,,,,,,
0.0,1.0,1.00359,0.0,34.0,34.0,34.0,1.0,toilet_paper_12s.jpg,0.0,Yellow.png,6.0,109,,,,,,,,,,,,,,,,,
0.0,1.0,0.83817,0.0,35.0,35.0,35.0,1.0,puddle_02s.jpg,0.0,Green.png,6.0,109,,,,,,,,,,,,,,,,,
,,,,,,,,,1.0,,,109,1.0,1.0,0.07278,0.0,0.0,0.0,0.0,1.0,ink_08s.jpg,ginger_09s.jpg,,,,,,,
,,,,,,,,,0.0,,,109,0.0,1.0,1.715475,0.0,1.0,1.0,1.0,1.0,puddle_02s.jpg,toy_04s.jpg,,,,,,,
,,,,,,,,,0.0,,,109,1.0,0.0,1.595255,0.0,2.0,2.0,2.0,1.0,bottle_opener_11s.jpg,penlight_12s.jpg,,,,,,,
,,,,,,,,,0.0,,,109,0.0,1.0,1.643655,0.0,3.0,3.0,3.0,1.0,checkbook_11s.jpg,swan_11s.jpg,,,,,,,
,,,,,,,,,1.0,,,109,1.0,1.0,1.97403,0.0,4.0,4.0,4.0,1.0,taxi_15s.jpg,toilet_paper_12s.jpg,,,,,,,
,,,,,,,,,1.0,,,109,0.0,0.0,1.441805,0.0,5.0,5.0,5.0,1.0,crayon_09s.jpg,soda_fountain_03s.jpg,,,,,,,
,,,,,,,,,,,,109,,,,,,,,,,,0.0,4.0,4.0,4.0,1.0,new2backpresent_5_4.xlsx,new2back_compare_task_5_4.xlsx
0.0,1.0,1.394875,0.0,0.0,0.0,0.0,1.0,flask_04s.jpg,0.0,Blue.png,1.0,109,,,,,,,,,,,,,,,,,
0.0,1.0,0.635845,0.0,1.0,1.0,1.0,1.0,kimono_13s.jpg,0.0,Purple.png,1.0,109,,,,,,,,,,,,,,,,,
0.0,1.0,0.723485,0.0,2.0,2.0,2.0,1.0,limousine_12s.jpg,0.0,Red.png,1.0,109,,,,,,,,,,,,,,,,,
0.0,1.0,0.498905,0.0,3.0,3.0,3.0,1.0,lectern_08s.jpg,0.0,Orange.png,1.0,109,,,,,,,,,,,,,,,,,
0.0,1.0,0.468495,0.0,4.0,4.0,4.0,1.0,kimono_13s.jpg,0.0,Yellow.png,1.0,109,,,,,,,,,,,,,,,,,
0.0,1.0,0.615885,0.0,5.0,5.0,5.0,1.0,doily_13s.jpg,0.0,Green.png,1.0,109,,,,,,,,,,,,,,,,,
1.0,1.0,0.81837,0.0,6.0,6.0,6.0,1.0,kimono_13s.jpg,1.0,Blue.png,2.0,109,,,,,,,,,,,,,,,,,
0.0,1.0,0.873375,0.0,7.0,7.0,7.0,1.0,razor_blade_01b.jpg,0.0,Purple.png,2.0,109,,,,,,,,,,,,,,,,,
0.0,1.0,1.082165,0.0,8.0,8.0,8.0,1.0,razor_blade_01b.jpg,0.0,Red.png,2.0,109,,,,,,,,,,,,,,,,,
0.0,1.0,1.066935,0.0,9.0,9.0,9.0,1.0,champagne_18s.jpg,0.0,Orange.png,2.0,109,,,,,,,,,,,,,,,,,
0.0,1.0,0.49172,0.0,10.0,10.0,10.0,1.0,stamp1_11s.jpg,0.0,Yellow.png,2.0,109,,,,,,,,,,,,,,,,,
1.0,1.0,1.092595,0.0,11.0,11.0,11.0,1.0,champagne_18s.jpg,1.0,Green.png,2.0,109,,,,,,,,,,,,,,,,,
0.0,1.0,0.999835,0.0,12.0,12.0,12.0,1.0,crossbow_10s.jpg,0.0,Blue.png,3.0,109,,,,,,,,,,,,,,,,,
0.0,1.0,0.747065,0.0,13.0,13.0,13.0,1.0,briefcase_03s.jpg,0.0,Purple.png,3.0,109,,,,,,,,,,,,,,,,,
0.0,1.0,1.002095,0.0,14.0,14.0,14.0,1.0,jersey_02s.jpg,0.0,Red.png,3.0,109,,,,,,,,,,,,,,,,,
1.0,1.0,1.44038,0.0,15.0,15.0,15.0,1.0,briefcase_03s.jpg,1.0,Orange.png,3.0,109,,,,,,,,,,,,,,,,,
0.0,1.0,0.92695,0.0,16.0,16.0,16.0,1.0,oil_02s.jpg,0.0,Yellow.png,3.0,109,,,,,,,,,,,,,,,,,
0.0,1.0,1.11252,0.0,17.0,17.0,17.0,1.0,tinsel_12s.jpg,0.0,Green.png,3.0,109,,,,,,,,,,,,,,,,,
0.0,1.0,1.597705,0.0,18.0,18.0,18.0,1.0,flask_04s.jpg,0.0,Blue.png,4.0,109,,,,,,,,,,,,,,,,,
0.0,1.0,0.89837,0.0,19.0,19.0,19.0,1.0,fork_04s.jpg,0.0,Purple.png,4.0,109,,,,,,,,,,,,,,,,,
0.0,1.0,0.80378,0.0,20.0,20.0,20.0,1.0,purse_05s.jpg,0.0,Red.png,4.0,109,,,,,,,,,,,,,,,,,
1.0,0.0,0.73023,0.0,21.0,21.0,21.0,1.0,flask_04s.jpg,0.0,Orange.png,4.0,109,,,,,,,,,,,,,,,,,
0.0,1.0,0.558535,0.0,22.0,22.0,22.0,1.0,sledgehammer_03s.jpg,0.0,Yellow.png,4.0,109,,,,,,,,,,,,,,,,,
0.0,1.0,0.657615,0.0,23.0,23.0,23.0,1.0,turf_03s.jpg,0.0,Green.png,4.0,109,,,,,,,,,,,,,,,,,
0.0,1.0,0.647395,0.0,24.0,24.0,24.0,1.0,omelet_07s.jpg,0.0,Blue.png,5.0,109,,,,,,,,,,,,,,,,,
1.0,1.0,0.966745,0.0,25.0,25.0,25.0,1.0,turf_03s.jpg,1.0,Purple.png,5.0,109,,,,,,,,,,,,,,,,,
0.0,1.0,0.768585,0.0,26.0,26.0,26.0,1.0,clover_04s.jpg,0.0,Red.png,5.0,109,,,,,,,,,,,,,,,,,
0.0,1.0,1.135995,0.0,27.0,27.0,27.0,1.0,lip_gloss_06s.jpg,0.0,Orange.png,5.0,109,,,,,,,,,,,,,,,,,
0.0,1.0,1.401535,0.0,28.0,28.0,28.0,1.0,amber_04s.jpg,0.0,Yellow.png,5.0,109,,,,,,,,,,,,,,,,,
0.0,1.0,1.54996,0.0,29.0,29.0,29.0,1.0,tortilla_06s.jpg,0.0,Green.png,5.0,109,,,,,,,,,,,,,,,,,
0.0,1.0,1.65003,0.0,30.0,30.0,30.0,1.0,razor_blade_01b.jpg,0.0,Blue.png,6.0,109,,,,,,,,,,,,,,,,,
0.0,1.0,0.95412,0.0,31.0,31.0,31.0,1.0,tape_measure_11s.jpg,0.0,Purple.png,6.0,109,,,,,,,,,,,,,,,,,
1.0,1.0,1.054385,0.0,32.0,32.0,32.0,1.0,razor_blade_01b.jpg,1.0,Red.png,6.0,109,,,,,,,,,,,,,,,,,
0.0,1.0,1.294105,0.0,33.0,33.0,33.0,1.0,razor_blade_01b.jpg,0.0,Orange.png,6.0,109,,,,,,,,,,,,,,,,,
0.0,1.0,0.701945,0.0,34.0,34.0,34.0,1.0,stingray_02s.jpg,0.0,Yellow.png,6.0,109,,,,,,,,,,,,,,,,,
0.0,1.0,1.272915,0.0,35.0,35.0,35.0,1.0,harpoon.jpg,0.0,Green.png,6.0,109,,,,,,,,,,,,,,,,,
,,,,,,,,,1.0,,,109,1.0,1.0,1.904755,0.0,0.0,0.0,0.0,1.0,oil_02s.jpg,fork_04s.jpg,,,,,,,
,,,,,,,,,0.0,,,109,1.0,0.0,1.557745,0.0,1.0,1.0,1.0,1.0,doily_13s.jpg,limousine_12s.jpg,,,,,,,
,,,,,,,,,0.0,,,109,1.0,0.0,1.650645,0.0,2.0,2.0,2.0,1.0,lip_gloss_06s.jpg,omelet_07s.jpg,,,,,,,
,,,,,,,,,0.0,,,109,0.0,1.0,1.194405,0.0,3.0,3.0,3.0,1.0,tape_measure_11s.jpg,amber_04s.jpg,,,,,,,
,,,,,,,,,0.0,,,109,1.0,0.0,1.673635,0.0,4.0,4.0,4.0,1.0,tortilla_06s.jpg,clover_04s.jpg,,,,,,,
,,,,,,,,,0.0,,,109,0.0,1.0,1.520505,0.0,5.0,5.0,5.0,1.0,purse_05s.jpg,tinsel_12s.jpg,,,,,,,
,,,,,,,,,,,,109,,,,,,,,,,,0.0,5.0,5.0,5.0,1.0,new2backpresent_6_4.xlsx,new2back_compare_task_6_4.xlsx
0.0,1.0,1.032275,0.0,0.0,0.0,0.0,1.0,butter_14s.jpg,0.0,Blue.png,1.0,109,,,,,,,,,,,,,,,,,
0.0,1.0,0.76238,0.0,1.0,1.0,1.0,1.0,butter_14s.jpg,0.0,Purple.png,1.0,109,,,,,,,,,,,,,,,,,
1.0,1.0,0.524185,0.0,2.0,2.0,2.0,1.0,butter_14s.jpg,1.0,Red.png,1.0,109,,,,,,,,,,,,,,,,,
0.0,1.0,0.712685,0.0,3.0,3.0,3.0,1.0,stamp2_08s.jpg,0.0,Orange.png,1.0,109,,,,,,,,,,,,,,,,,
0.0,1.0,0.66475,0.0,4.0,4.0,4.0,1.0,kangaroo_02s.jpg,0.0,Yellow.png,1.0,109,,,,,,,,,,,,,,,,,
0.0,1.0,0.96768,0.0,5.0,5.0,5.0,1.0,camcorder_10s.jpg,0.0,Green.png,1.0,109,,,,,,,,,,,,,,,,,
0.0,1.0,1.164345,0.0,6.0,6.0,6.0,1.0,bank_06s.jpg,0.0,Blue.png,2.0,109,,,,,,,,,,,,,,,,,
0.0,1.0,1.03678,0.0,7.0,7.0,7.0,1.0,gear_07s.jpg,0.0,Purple.png,2.0,109,,,,,,,,,,,,,,,,,
1.0,1.0,1.15695,0.0,8.0,8.0,8.0,1.0,bank_06s.jpg,1.0,Red.png,2.0,109,,,,,,,,,,,,,,,,,
0.0,1.0,0.670205,0.0,9.0,9.0,9.0,1.0,funnel_01b.jpg,0.0,Orange.png,2.0,109,,,,,,,,,,,,,,,,,
0.0,1.0,0.585815,0.0,10.0,10.0,10.0,1.0,poinsettia_04s.jpg,0.0,Yellow.png,2.0,109,,,,,,,,,,,,,,,,,
0.0,0.0,1.37052,0.0,11.0,11.0,11.0,1.0,funnel_01b.jpg,1.0,Green.png,2.0,109,,,,,,,,,,,,,,,,,
0.0,1.0,0.729485,0.0,12.0,12.0,12.0,1.0,rooster_03s.jpg,0.0,Blue.png,3.0,109,,,,,,,,,,,,,,,,,
0.0,1.0,1.11351,0.0,13.0,13.0,13.0,1.0,denture_03s.jpg,0.0,Purple.png,3.0,109,,,,,,,,,,,,,,,,,
0.0,1.0,0.668485,0.0,14.0,14.0,14.0,1.0,bean_06s.jpg,0.0,Red.png,3.0,109,,,,,,,,,,,,,,,,,
0.0,1.0,1.2082,0.0,15.0,15.0,15.0,1.0,mud_13s.jpg,0.0,Orange.png,3.0,109,,,,,,,,,,,,,,,,,
0.0,1.0,1.030375,0.0,16.0,16.0,16.0,1.0,keyhole_03s.jpg,0.0,Yellow.png,3.0,109,,,,,,,,,,,,,,,,,
0.0,1.0,1.441575,0.0,17.0,17.0,17.0,1.0,bean_06s.jpg,0.0,Green.png,3.0,109,,,,,,,,,,,,,,,,,
1.0,0.0,1.45255,0.0,18.0,18.0,18.0,1.0,bank_06s.jpg,0.0,Blue.png,4.0,109,,,,,,,,,,,,,,,,,
0.0,1.0,1.01825,0.0,19.0,19.0,19.0,1.0,pomegranate_04s.jpg,0.0,Purple.png,4.0,109,,,,,,,,,,,,,,,,,
0.0,1.0,0.80786,0.0,20.0,20.0,20.0,1.0,chopsticks_08s.jpg,0.0,Red.png,4.0,109,,,,,,,,,,,,,,,,,
0.0,1.0,0.65748,0.0,21.0,21.0,21.0,1.0,contact_lens_15s.jpg,0.0,Orange.png,4.0,109,,,,,,,,,,,,,,,,,
1.0,0.0,1.113135,0.0,22.0,22.0,22.0,1.0,hydrant_10s.jpg,0.0,Yellow.png,4.0,109,,,,,,,,,,,,,,,,,
0.0,1.0,0.88736,0.0,23.0,23.0,23.0,1.0,gingerbread_man_03s.jpg,0.0,Green.png,4.0,109,,,,,,,,,,,,,,,,,
0.0,1.0,1.171635,0.0,24.0,24.0,24.0,1.0,camcorder_10s.jpg,0.0,Blue.png,5.0,109,,,,,,,,,,,,,,,,,
0.0,1.0,0.831385,0.0,25.0,25.0,25.0,1.0,teabag_12s.jpg,0.0,Purple.png,5.0,109,,,,,,,,,,,,,,,,,
0.0,1.0,0.66656,0.0,26.0,26.0,26.0,1.0,radiator_05s.jpg,0.0,Red.png,5.0,109,,,,,,,,,,,,,,,,,
0.0,1.0,0.970835,0.0,27.0,27.0,27.0,1.0,punch1_10s.jpg,0.0,Orange.png,5.0,109,,,,,,,,,,,,,,,,,
0.0,1.0,0.83665,0.0,28.0,28.0,28.0,1.0,mailbox_11s.jpg,0.0,Yellow.png,5.0,109,,,,,,,,,,,,,,,,,
0.0,1.0,1.69785,0.0,29.0,29.0,29.0,1.0,beaker_01b.jpg,0.0,Green.png,5.0,109,,,,,,,,,,,,,,,,,
1.0,1.0,1.06807,0.0,30.0,30.0,30.0,1.0,mailbox_11s.jpg,1.0,Blue.png,6.0,109,,,,,,,,,,,,,,,,,
0.0,1.0,1.239975,0.0,31.0,31.0,31.0,1.0,pipe1_10s.jpg,0.0,Purple.png,6.0,109,,,,,,,,,,,,,,,,,
1.0,1.0,1.021285,0.0,32.0,32.0,32.0,1.0,mailbox_11s.jpg,1.0,Red.png,6.0,109,,,,,,,,,,,,,,,,,
1.0,1.0,1.561735,0.0,33.0,33.0,33.0,1.0,pipe1_10s.jpg,1.0,Orange.png,6.0,109,,,,,,,,,,,,,,,,,
0.0,1.0,0.811395,0.0,34.0,34.0,34.0,1.0,eyedropper_12s.jpg,0.0,Yellow.png,6.0,109,,,,,,,,,,,,,,,,,
0.0,1.0,1.152,0.0,35.0,35.0,35.0,1.0,rhubarb_03s.jpg,0.0,Green.png,6.0,109,,,,,,,,,,,,,,,,,
,,,,,,,,,0.0,,,109,0.0,1.0,2.07653,0.0,0.0,0.0,0.0,1.0,mud_13s.jpg,rooster_03s.jpg,,,,,,,
,,,,,,,,,1.0,,,109,1.0,1.0,1.179475,0.0,1.0,1.0,1.0,1.0,chopsticks_08s.jpg,gingerbread_man_03s.jpg,,,,,,,
,,,,,,,,,0.0,,,109,0.0,1.0,1.373035,0.0,2.0,2.0,2.0,1.0,beaker_01b.jpg,radiator_05s.jpg,,,,,,,
,,,,,,,,,0.0,,,109,1.0,0.0,1.14219,0.0,3.0,3.0,3.0,1.0,teabag_12s.jpg,hydrant_10s.jpg,,,,,,,
,,,,,,,,,0.0,,,109,0.0,1.0,0.640195,0.0,4.0,4.0,4.0,1.0,denture_03s.jpg,poinsettia_04s.jpg,,,,,,,
,,,,,,,,,1.0,,,109,1.0,1.0,1.04331,0.0,5.0,5.0,5.0,1.0,kangaroo_02s.jpg,gear_07s.jpg,,,,,,,
,,,,,,,,,,,,109,,,,,,,,,,,0.0,6.0,6.0,6.0,1.0,new2backpresent_7_4.xlsx,new2back_compare_task_7_4.xlsx
0.0,1.0,0.72601,0.0,0.0,0.0,0.0,1.0,lamppost_09s.jpg,0.0,Blue.png,1.0,109,,,,,,,,,,,,,,,,,
0.0,1.0,0.79155,0.0,1.0,1.0,1.0,1.0,jewel_01b.jpg,0.0,Purple.png,1.0,109,,,,,,,,,,,,,,,,,
0.0,1.0,0.839935,0.0,2.0,2.0,2.0,1.0,tuxedo_01b.jpg,0.0,Red.png,1.0,109,,,,,,,,,,,,,,,,,
0.0,1.0,0.67646,0.0,3.0,3.0,3.0,1.0,flip_flop_03s.jpg,0.0,Orange.png,1.0,109,,,,,,,,,,,,,,,,,
0.0,1.0,0.546195,0.0,4.0,4.0,4.0,1.0,medal_04s.jpg,0.0,Yellow.png,1.0,109,,,,,,,,,,,,,,,,,
1.0,1.0,0.708265,0.0,5.0,5.0,5.0,1.0,flip_flop_03s.jpg,1.0,Green.png,1.0,109,,,,,,,,,,,,,,,,,
0.0,1.0,1.428485,0.0,6.0,6.0,6.0,1.0,tuxedo_01b.jpg,0.0,Blue.png,2.0,109,,,,,,,,,,,,,,,,,
1.0,1.0,1.807575,0.0,7.0,7.0,7.0,1.0,flip_flop_03s.jpg,1.0,Purple.png,2.0,109,,,,,,,,,,,,,,,,,
0.0,1.0,1.42418,0.0,8.0,8.0,8.0,1.0,fireworks_18s.jpg,0.0,Red.png,2.0,109,,,,,,,,,,,,,,,,,
0.0,1.0,1.543365,0.0,9.0,9.0,9.0,1.0,squirt_gun_03s.jpg,0.0,Orange.png,2.0,109,,,,,,,,,,,,,,,,,
1.0,0.0,2.283165,0.0,10.0,10.0,10.0,1.0,flip_flop_03s.jpg,0.0,Yellow.png,2.0,109,,,,,,,,,,,,,,,,,
0.0,1.0,0.91494,0.0,11.0,11.0,11.0,1.0,puffin_19s.jpg,0.0,Green.png,2.0,109,,,,,,,,,,,,,,,,,
0.0,1.0,1.32658,0.0,12.0,12.0,12.0,1.0,tuxedo_01b.jpg,0.0,Blue.png,3.0,109,,,,,,,,,,,,,,,,,
0.0,1.0,1.23893,0.0,13.0,13.0,13.0,1.0,tuxedo_01b.jpg,0.0,Purple.png,3.0,109,,,,,,,,,,,,,,,,,
0.0,1.0,0.863065,0.0,14.0,14.0,14.0,1.0,snowman_02s.jpg,0.0,Red.png,3.0,109,,,,,,,,,,,,,,,,,
0.0,1.0,0.839225,0.0,15.0,15.0,15.0,1.0,cucumber_07s.jpg,0.0,Orange.png,3.0,109,,,,,,,,,,,,,,,,,
0.0,1.0,0.617325,0.0,16.0,16.0,16.0,1.0,plug_08s.jpg,0.0,Yellow.png,3.0,109,,,,,,,,,,,,,,,,,
0.0,0.0,1.09466,0.0,17.0,17.0,17.0,1.0,cucumber_07s.jpg,1.0,Green.png,3.0,109,,,,,,,,,,,,,,,,,
1.0,0.0,0.86368,0.0,18.0,18.0,18.0,1.0,puffin_19s.jpg,0.0,Blue.png,4.0,109,,,,,,,,,,,,,,,,,
0.0,1.0,0.612545,0.0,19.0,19.0,19.0,1.0,fondue_07s.jpg,0.0,Purple.png,4.0,109,,,,,,,,,,,,,,,,,
0.0,1.0,0.65777,0.0,20.0,20.0,20.0,1.0,lasagna_06s.jpg,0.0,Red.png,4.0,109,,,,,,,,,,,,,,,,,
0.0,1.0,0.540325,0.0,21.0,21.0,21.0,1.0,eiffeltower.jpg,0.0,Orange.png,4.0,109,,,,,,,,,,,,,,,,,
0.0,1.0,0.48632,0.0,22.0,22.0,22.0,1.0,outlet_10s.jpg,0.0,Yellow.png,4.0,109,,,,,,,,,,,,,,,,,
0.0,1.0,0.864985,0.0,23.0,23.0,23.0,1.0,cape_11s.jpg,0.0,Green.png,4.0,109,,,,,,,,,,,,,,,,,
0.0,1.0,1.957075,0.0,24.0,24.0,24.0,1.0,marshmallow_08s.jpg,0.0,Blue.png,5.0,109,,,,,,,,,,,,,,,,,
0.0,1.0,1.146375,0.0,25.0,25.0,25.0,1.0,racehorse_03s.jpg,0.0,Purple.png,5.0,109,,,,,,,,,,,,,,,,,
0.0,1.0,1.284985,0.0,26.0,26.0,26.0,1.0,aluminum_foil_08s.jpg,0.0,Red.png,5.0,109,,,,,,,,,,,,,,,,,
0.0,1.0,0.61432,0.0,27.0,27.0,27.0,1.0,spoon02a.jpg,0.0,Orange.png,5.0,109,,,,,,,,,,,,,,,,,
0.0,1.0,0.611915,0.0,28.0,28.0,28.0,1.0,padlock_07s.jpg,0.0,Yellow.png,5.0,109,,,,,,,,,,,,,,,,,
0.0,1.0,0.613145,0.0,29.0,29.0,29.0,1.0,solar_panel_02s.jpg,0.0,Green.png,5.0,109,,,,,,,,,,,,,,,,,
0.0,1.0,0.63587,0.0,30.0,30.0,30.0,1.0,turtleneck_11s.jpg,0.0,Blue.png,6.0,109,,,,,,,,,,,,,,,,,
0.0,1.0,1.21703,0.0,31.0,31.0,31.0,1.0,pocketknife_12s.jpg,0.0,Purple.png,6.0,109,,,,,,,,,,,,,,,,,
0.0,1.0,2.35728,0.0,32.0,32.0,32.0,1.0,pocketknife_12s.jpg,0.0,Red.png,6.0,109,,,,,,,,,,,,,,,,,
0.0,1.0,1.32279,0.0,33.0,33.0,33.0,1.0,quill_09s.jpg,0.0,Orange.png,6.0,109,,,,,,,,,,,,,,,,,
0.0,1.0,0.548605,0.0,34.0,34.0,34.0,1.0,quill_09s.jpg,0.0,Yellow.png,6.0,109,,,,,,,,,,,,,,,,,
0.0,1.0,1.66621,0.0,35.0,35.0,35.0,1.0,pocketknife_12s.jpg,0.0,Green.png,6.0,109,,,,,,,,,,,,,,,,,
,,,,,,,,,0.0,,,109,1.0,0.0,1.503215,0.0,0.0,0.0,0.0,1.0,cape_11s.jpg,lasagna_06s.jpg,,,,,,,
,,,,,,,,,0.0,,,109,1.0,0.0,1.473875,0.0,1.0,1.0,1.0,1.0,padlock_07s.jpg,racehorse_03s.jpg,,,,,,,
,,,,,,,,,1.0,,,109,1.0,1.0,1.544465,0.0,2.0,2.0,2.0,1.0,spoon02a.jpg,turtleneck_11s.jpg,,,,,,,
,,,,,,,,,0.0,,,109,1.0,0.0,1.27842,0.0,3.0,3.0,3.0,1.0,marshmallow_08s.jpg,eiffeltower.jpg,,,,,,,
,,,,,,,,,0.0,,,109,0.0,1.0,1.5568,0.0,4.0,4.0,4.0,1.0,medal_04s.jpg,jewel_01b.jpg,,,,,,,
,,,,,,,,,1.0,,,109,1.0,1.0,1.413535,0.0,5.0,5.0,5.0,1.0,plug_08s.jpg,fondue_07s.jpg,,,,,,,
,,,,,,,,,,,,109,,,,,,,,,,,0.0,7.0,7.0,7.0,1.0,new2backpresent_8_4.xlsx,new2back_compare_task_8_4.xlsx
0.0,1.0,1.432855,0.0,0.0,0.0,0.0,1.0,footprint_11s.jpg,0.0,Blue.png,1.0,109,,,,,,,,,,,,,,,,,
0.0,1.0,0.69856,0.0,1.0,1.0,1.0,1.0,coffee_filter_10s.jpg,0.0,Purple.png,1.0,109,,,,,,,,,,,,,,,,,
0.0,1.0,1.60048,0.0,2.0,2.0,2.0,1.0,coffee_filter_10s.jpg,0.0,Red.png,1.0,109,,,,,,,,,,,,,,,,,
1.0,1.0,0.935635,0.0,3.0,3.0,3.0,1.0,coffee_filter_10s.jpg,1.0,Orange.png,1.0,109,,,,,,,,,,,,,,,,,
1.0,1.0,1.3084,0.0,4.0,4.0,4.0,1.0,coffee_filter_10s.jpg,1.0,Yellow.png,1.0,109,,,,,,,,,,,,,,,,,
0.0,1.0,0.608555,0.0,5.0,5.0,5.0,1.0,gargoyle_08s.jpg,0.0,Green.png,1.0,109,,,,,,,,,,,,,,,,,
0.0,1.0,1.5639,0.0,6.0,6.0,6.0,1.0,candy_cane_06s.jpg,0.0,Blue.png,2.0,109,,,,,,,,,,,,,,,,,
0.0,1.0,0.732985,0.0,7.0,7.0,7.0,1.0,toad_09s.jpg,0.0,Purple.png,2.0,109,,,,,,,,,,,,,,,,,
1.0,1.0,1.15839,0.0,8.0,8.0,8.0,1.0,candy_cane_06s.jpg,1.0,Red.png,2.0,109,,,,,,,,,,,,,,,,,
0.0,1.0,0.71728,0.0,9.0,9.0,9.0,1.0,pumpkin_03s.jpg,0.0,Orange.png,2.0,109,,,,,,,,,,,,,,,,,
0.0,1.0,0.753335,0.0,10.0,10.0,10.0,1.0,dashboard_02s.jpg,0.0,Yellow.png,2.0,109,,,,,,,,,,,,,,,,,
0.0,1.0,0.58994,0.0,11.0,11.0,11.0,1.0,syringe_02s.jpg,0.0,Green.png,2.0,109,,,,,,,,,,,,,,,,,
0.0,1.0,0.48036,0.0,12.0,12.0,12.0,1.0,powder_07s.jpg,0.0,Blue.png,3.0,109,,,,,,,,,,,,,,,,,
0.0,1.0,1.272025,0.0,13.0,13.0,13.0,1.0,powder_07s.jpg,0.0,Purple.png,3.0,109,,,,,,,,,,,,,,,,,
1.0,1.0,0.56898,0.0,14.0,14.0,14.0,1.0,powder_07s.jpg,1.0,Red.png,3.0,109,,,,,,,,,,,,,,,,,
0.0,1.0,0.75769,0.0,15.0,15.0,15.0,1.0,sea_urchin_09s.jpg,0.0,Orange.png,3.0,109,,,,,,,,,,,,,,,,,
0.0,1.0,0.54474,0.0,16.0,16.0,16.0,1.0,throne_11s.jpg,0.0,Yellow.png,3.0,109,,,,,,,,,,,,,,,,,
0.0,1.0,1.643455,0.0,17.0,17.0,17.0,1.0,powder_07s.jpg,0.0,Green.png,3.0,109,,,,,,,,,,,,,,,,,
0.0,1.0,0.999805,0.0,18.0,18.0,18.0,1.0,chalice_10s.jpg,0.0,Blue.png,4.0,109,,,,,,,,,,,,,,,,,
0.0,1.0,1.803085,0.0,19.0,19.0,19.0,1.0,air_pump_05s.jpg,0.0,Purple.png,4.0,109,,,,,,,,,,,,,,,,,
0.0,1.0,1.585885,0.0,20.0,20.0,20.0,1.0,microwave_02s.jpg,0.0,Red.png,4.0,109,,,,,,,,,,,,,,,,,
0.0,1.0,2.309535,0.0,21.0,21.0,21.0,1.0,cereal_04s.jpg,0.0,Orange.png,4.0,109,,,,,,,,,,,,,,,,,
0.0,1.0,1.81453,0.0,22.0,22.0,22.0,1.0,mushroom_10n.jpg,0.0,Yellow.png,4.0,109,,,,,,,,,,,,,,,,,
0.0,1.0,1.070335,0.0,23.0,23.0,23.0,1.0,red_carpet_03s.jpg,0.0,Green.png,4.0,109,,,,,,,,,,,,,,,,,
0.0,1.0,1.27206,0.0,24.0,24.0,24.0,1.0,throne_11s.jpg,0.0,Blue.png,5.0,109,,,,,,,,,,,,,,,,,
0.0,1.0,1.44288,0.0,25.0,25.0,25.0,1.0,koala_13s.jpg,0.0,Purple.png,5.0,109,,,,,,,,,,,,,,,,,
1.0,1.0,0.57913,0.0,26.0,26.0,26.0,1.0,throne_11s.jpg,1.0,Red.png,5.0,109,,,,,,,,,,,,,,,,,
0.0,1.0,1.234325,0.0,27.0,27.0,27.0,1.0,rocket_02s.jpg,0.0,Orange.png,5.0,109,,,,,,,,,,,,,,,,,
0.0,1.0,1.01865,0.0,28.0,28.0,28.0,1.0,swordfish_05s.jpg,0.0,Yellow.png,5.0,109,,,,,,,,,,,,,,,,,
0.0,0.0,1.63591,0.0,29.0,29.0,29.0,1.0,rocket_02s.jpg,1.0,Green.png,5.0,109,,,,,,,,,,,,,,,,,
0.0,1.0,0.867135,0.0,30.0,30.0,30.0,1.0,icicle_04s.jpg,0.0,Blue.png,6.0,109,,,,,,,,,,,,,,,,,
0.0,1.0,1.21321,0.0,31.0,31.0,31.0,1.0,keyboard_05s.jpg,0.0,Purple.png,6.0,109,,,,,,,,,,,,,,,,,
0.0,1.0,1.517095,0.0,32.0,32.0,32.0,1.0,pocket_watch_16s.jpg,0.0,Red.png,6.0,109,,,,,,,,,,,,,,,,,
0.0,1.0,1.71895,0.0,33.0,33.0,33.0,1.0,tablet_04s.jpg,0.0,Orange.png,6.0,109,,,,,,,,,,,,,,,,,
0.0,1.0,1.024545,0.0,34.0,34.0,34.0,1.0,chocolate_01b.jpg,0.0,Yellow.png,6.0,109,,,,,,,,,,,,,,,,,
0.0,1.0,0.62407,0.0,35.0,35.0,35.0,1.0,light_switch_02s.jpg,0.0,Green.png,6.0,109,,,,,,,,,,,,,,,,,
,,,,,,,,,0.0,,,109,1.0,0.0,1.09885,0.0,0.0,0.0,0.0,1.0,chalice_10s.jpg,sea_urchin_09s.jpg,,,,,,,
,,,,,,,,,1.0,,,109,1.0,1.0,1.18968,0.0,1.0,1.0,1.0,1.0,swordfish_05s.jpg,keyboard_05s.jpg,,,,,,,
,,,,,,,,,0.0,,,109,0.0,1.0,1.59368,0.0,2.0,2.0,2.0,1.0,red_carpet_03s.jpg,microwave_02s.jpg,,,,,,,
,,,,,,,,,0.0,,,109,1.0,0.0,0.505405,0.0,3.0,3.0,3.0,1.0,dashboard_02s.jpg,toad_09s.jpg,,,,,,,
,,,,,,,,,0.0,,,109,1.0,0.0,1.008365,0.0,4.0,4.0,4.0,1.0,koala_13s.jpg,mushroom_10n.jpg,,,,,,,
,,,,,,,,,1.0,,,109,0.0,0.0,0.909015,0.0,5.0,5.0,5.0,1.0,icicle_04s.jpg,tablet_04s.jpg,,,,,,,
,,,,,,,,,,,,109,,,,,,,,,,,0.0,8.0,8.0,8.0,1.0,new2backpresent_9_4.xlsx,new2back_compare_task_9_4.xlsx
