key_resp.keys,key_resp.corr,key_resp.rt,present_segment.thisRepN,present_segment.thisTrialN,present_segment.thisN,present_segment.thisIndex,present_segment.ran,pictures,answer,clock,segment,participant,key_resp_2.keys,key_resp_2.corr,key_resp_2.rt,compare_segment.thisRepN,compare_segment.thisTrialN,compare_segment.thisN,compare_segment.thisIndex,compare_segment.ran,item_a,item_b,clock_conditions.thisRepN,clock_conditions.thisTrialN,clock_conditions.thisN,clock_conditions.thisIndex,clock_conditions.ran,present,compare
0.0,1.0,1.9589,0.0,0.0,0.0,0.0,1.0,insole_11s.jpg,0.0,Blue.png,1.0,100,,,,,,,,,,,,,,,,,
0.0,1.0,1.2818,0.0,1.0,1.0,1.0,1.0,tupperware_09s.jpg,0.0,Purple.png,1.0,100,,,,,,,,,,,,,,,,,
1.0,1.0,0.9166,0.0,2.0,2.0,2.0,1.0,tupperware_09s.jpg,1.0,Red.png,1.0,100,,,,,,,,,,,,,,,,,
0.0,1.0,1.584,0.0,3.0,3.0,3.0,1.0,fox_13s.jpg,0.0,Orange.png,1.0,100,,,,,,,,,,,,,,,,,
1.0,1.0,2.4425,0.0,4.0,4.0,4.0,1.0,tupperware_09s.jpg,1.0,Yellow.png,1.0,100,,,,,,,,,,,,,,,,,
,0.0,,0.0,5.0,5.0,5.0,1.0,lavender_10s.jpg,0.0,Green.png,1.0,100,,,,,,,,,,,,,,,,,
0.0,1.0,2.2355,0.0,6.0,6.0,6.0,1.0,tupperware_09s.jpg,0.0,Blue.png,2.0,100,,,,,,,,,,,,,,,,,
0.0,1.0,0.8805,0.0,7.0,7.0,7.0,1.0,poinsettia_04s.jpg,0.0,Purple.png,2.0,100,,,,,,,,,,,,,,,,,
0.0,1.0,0.855,0.0,8.0,8.0,8.0,1.0,margarita_03s.jpg,0.0,Red.png,2.0,100,,,,,,,,,,,,,,,,,
0.0,1.0,1.2064,0.0,9.0,9.0,9.0,1.0,toothpaste_12s.jpg,0.0,Orange.png,2.0,100,,,,,,,,,,,,,,,,,
0.0,1.0,2.2394,0.0,10.0,10.0,10.0,1.0,ladder_15s.jpg,0.0,Yellow.png,2.0,100,,,,,,,,,,,,,,,,,
0.0,1.0,1.2418,0.0,11.0,11.0,11.0,1.0,pocketknife_12s.jpg,0.0,Green.png,2.0,100,,,,,,,,,,,,,,,,,
0.0,1.0,0.6774,0.0,12.0,12.0,12.0,1.0,spoon02a.jpg,0.0,Blue.png,3.0,100,,,,,,,,,,,,,,,,,
0.0,1.0,1.4157,0.0,13.0,13.0,13.0,1.0,mango_09s.jpg,0.0,Purple.png,3.0,100,,,,,,,,,,,,,,,,,
0.0,1.0,1.1146,0.0,14.0,14.0,14.0,1.0,chalice_10s.jpg,0.0,Red.png,3.0,100,,,,,,,,,,,,,,,,,
0.0,1.0,1.1416,0.0,15.0,15.0,15.0,1.0,pocketknife_12s.jpg,0.0,Orange.png,3.0,100,,,,,,,,,,,,,,,,,
0.0,1.0,0.914,0.0,16.0,16.0,16.0,1.0,abacus_12s.jpg,0.0,Yellow.png,3.0,100,,,,,,,,,,,,,,,,,
1.0,1.0,1.5364,0.0,17.0,17.0,17.0,1.0,abacus_12s.jpg,1.0,Green.png,3.0,100,,,,,,,,,,,,,,,,,
0.0,1.0,0.8768,0.0,18.0,18.0,18.0,1.0,abacus_12s.jpg,0.0,Blue.png,4.0,100,,,,,,,,,,,,,,,,,
1.0,1.0,1.2801,0.0,19.0,19.0,19.0,1.0,abacus_12s.jpg,1.0,Purple.png,4.0,100,,,,,,,,,,,,,,,,,
0.0,1.0,0.9047,0.0,20.0,20.0,20.0,1.0,sushi_08s.jpg,0.0,Red.png,4.0,100,,,,,,,,,,,,,,,,,
0.0,1.0,0.9902,0.0,21.0,21.0,21.0,1.0,funnel_01b.jpg,0.0,Orange.png,4.0,100,,,,,,,,,,,,,,,,,
0.0,1.0,0.9715,0.0,22.0,22.0,22.0,1.0,rooster_03s.jpg,0.0,Yellow.png,4.0,100,,,,,,,,,,,,,,,,,
0.0,1.0,0.9377,0.0,23.0,23.0,23.0,1.0,ukulele_02s.jpg,0.0,Green.png,4.0,100,,,,,,,,,,,,,,,,,
0.0,1.0,1.7031,0.0,24.0,24.0,24.0,1.0,pocketknife_12s.jpg,0.0,Blue.png,5.0,100,,,,,,,,,,,,,,,,,
1.0,1.0,0.8331,0.0,25.0,25.0,25.0,1.0,pocketknife_12s.jpg,1.0,Purple.png,5.0,100,,,,,,,,,,,,,,,,,
1.0,1.0,1.9975,0.0,26.0,26.0,26.0,1.0,pocketknife_12s.jpg,1.0,Red.png,5.0,100,,,,,,,,,,,,,,,,,
0.0,1.0,0.7549,0.0,27.0,27.0,27.0,1.0,stapler_01b.jpg,0.0,Orange.png,5.0,100,,,,,,,,,,,,,,,,,
0.0,1.0,1.2806,0.0,28.0,28.0,28.0,1.0,birthday_cake_09s.jpg,0.0,Yellow.png,5.0,100,,,,,,,,,,,,,,,,,
0.0,1.0,0.7628,0.0,29.0,29.0,29.0,1.0,meatball_13s.jpg,0.0,Green.png,5.0,100,,,,,,,,,,,,,,,,,
0.0,1.0,0.8718,0.0,30.0,30.0,30.0,1.0,cape_11s.jpg,0.0,Blue.png,6.0,100,,,,,,,,,,,,,,,,,
1.0,1.0,0.7784,0.0,31.0,31.0,31.0,1.0,cape_11s.jpg,1.0,Purple.png,6.0,100,,,,,,,,,,,,,,,,,
0.0,1.0,1.4451,0.0,32.0,32.0,32.0,1.0,lizard_10n.jpg,0.0,Red.png,6.0,100,,,,,,,,,,,,,,,,,
0.0,1.0,1.4563,0.0,33.0,33.0,33.0,1.0,refrigerator_07s.jpg,0.0,Orange.png,6.0,100,,,,,,,,,,,,,,,,,
1.0,1.0,1.1084,0.0,34.0,34.0,34.0,1.0,refrigerator_07s.jpg,1.0,Yellow.png,6.0,100,,,,,,,,,,,,,,,,,
0.0,1.0,0.8748,0.0,35.0,35.0,35.0,1.0,touchpad_11s.jpg,0.0,Green.png,6.0,100,,,,,,,,,,,,,,,,,
,,,,,,,,,1.0,,,100,1.0,1.0,2.3458,0.0,0.0,0.0,0.0,1.0,lavender_10s.jpg,margarita_03s.jpg,,,,,,,
,,,,,,,,,1.0,,,100,0.0,0.0,3.2589,0.0,1.0,1.0,1.0,1.0,toothpaste_12s.jpg,spoon02a.jpg,,,,,,,
,,,,,,,,,1.0,,,100,0.0,0.0,1.8782,0.0,2.0,2.0,2.0,1.0,ladder_15s.jpg,mango_09s.jpg,,,,,,,
,,,,,,,,,0.0,,,100,1.0,0.0,2.5571,0.0,3.0,3.0,3.0,1.0,fox_13s.jpg,insole_11s.jpg,,,,,,,
,,,,,,,,,0.0,,,100,0.0,1.0,1.9659,0.0,4.0,4.0,4.0,1.0,ukulele_02s.jpg,sushi_08s.jpg,,,,,,,
,,,,,,,,,0.0,,,100,1.0,0.0,2.2486,0.0,5.0,5.0,5.0,1.0,touchpad_11s.jpg,lizard_10n.jpg,,,,,,,
,,,,,,,,,,,,100,,,,,,,,,,,0.0,0.0,0.0,0.0,1.0,newclockpresent_1_2.xlsx,newclock_compare_task_1_2.xlsx
0.0,1.0,2.1626,0.0,0.0,0.0,0.0,1.0,juicer2_06s.jpg,0.0,Blue.png,1.0,100,,,,,,,,,,,,,,,,,
1.0,1.0,0.8485,0.0,1.0,1.0,1.0,1.0,juicer2_06s.jpg,1.0,Purple.png,1.0,100,,,,,,,,,,,,,,,,,
0.0,1.0,1.4104,0.0,2.0,2.0,2.0,1.0,tambourine_06s.jpg,0.0,Red.png,1.0,100,,,,,,,,,,,,,,,,,
0.0,1.0,0.8238,0.0,3.0,3.0,3.0,1.0,luggage_08s.jpg,0.0,Orange.png,1.0,100,,,,,,,,,,,,,,,,,
1.0,1.0,1.2548,0.0,4.0,4.0,4.0,1.0,tambourine_06s.jpg,1.0,Yellow.png,1.0,100,,,,,,,,,,,,,,,,,
0.0,1.0,1.4114,0.0,5.0,5.0,5.0,1.0,towel_rack_04s.jpg,0.0,Green.png,1.0,100,,,,,,,,,,,,,,,,,
0.0,1.0,1.1054,0.0,6.0,6.0,6.0,1.0,crayon_09s.jpg,0.0,Blue.png,2.0,100,,,,,,,,,,,,,,,,,
0.0,1.0,1.4643,0.0,7.0,7.0,7.0,1.0,gargoyle_08s.jpg,0.0,Purple.png,2.0,100,,,,,,,,,,,,,,,,,
0.0,1.0,1.608,0.0,8.0,8.0,8.0,1.0,boar_10s.jpg,0.0,Red.png,2.0,100,,,,,,,,,,,,,,,,,
1.0,1.0,1.7703,0.0,9.0,9.0,9.0,1.0,gargoyle_08s.jpg,1.0,Orange.png,2.0,100,,,,,,,,,,,,,,,,,
0.0,1.0,0.8325,0.0,10.0,10.0,10.0,1.0,limousine_12s.jpg,0.0,Yellow.png,2.0,100,,,,,,,,,,,,,,,,,
0.0,1.0,0.9048,0.0,11.0,11.0,11.0,1.0,outlet_10s.jpg,0.0,Green.png,2.0,100,,,,,,,,,,,,,,,,,
0.0,1.0,1.316,0.0,12.0,12.0,12.0,1.0,comic_book_02s.jpg,0.0,Blue.png,3.0,100,,,,,,,,,,,,,,,,,
0.0,1.0,0.729,0.0,13.0,13.0,13.0,1.0,mask_09s.jpg,0.0,Purple.png,3.0,100,,,,,,,,,,,,,,,,,
0.0,1.0,1.0393,0.0,14.0,14.0,14.0,1.0,lasagna_06s.jpg,0.0,Red.png,3.0,100,,,,,,,,,,,,,,,,,
0.0,1.0,0.8885,0.0,15.0,15.0,15.0,1.0,diving_board_07s.jpg,0.0,Orange.png,3.0,100,,,,,,,,,,,,,,,,,
0.0,1.0,1.1571,0.0,16.0,16.0,16.0,1.0,lion_18s.jpg,0.0,Yellow.png,3.0,100,,,,,,,,,,,,,,,,,
,0.0,,0.0,17.0,17.0,17.0,1.0,diving_board_07s.jpg,1.0,Green.png,3.0,100,,,,,,,,,,,,,,,,,
1.0,0.0,1.0914,0.0,18.0,18.0,18.0,1.0,lion_18s.jpg,0.0,Blue.png,4.0,100,,,,,,,,,,,,,,,,,
0.0,1.0,0.661,0.0,19.0,19.0,19.0,1.0,medal_04s.jpg,0.0,Purple.png,4.0,100,,,,,,,,,,,,,,,,,
0.0,1.0,0.8413,0.0,20.0,20.0,20.0,1.0,incense_02s.jpg,0.0,Red.png,4.0,100,,,,,,,,,,,,,,,,,
0.0,1.0,0.7487,0.0,21.0,21.0,21.0,1.0,tape_06s.jpg,0.0,Orange.png,4.0,100,,,,,,,,,,,,,,,,,
1.0,1.0,1.0805,0.0,22.0,22.0,22.0,1.0,medal_04s.jpg,1.0,Yellow.png,4.0,100,,,,,,,,,,,,,,,,,
0.0,1.0,1.1081,0.0,23.0,23.0,23.0,1.0,buoy_04s.jpg,0.0,Green.png,4.0,100,,,,,,,,,,,,,,,,,
,0.0,,0.0,24.0,24.0,24.0,1.0,limousine_12s.jpg,0.0,Blue.png,5.0,100,,,,,,,,,,,,,,,,,
0.0,1.0,0.5918,0.0,25.0,25.0,25.0,1.0,jewel_01b.jpg,0.0,Purple.png,5.0,100,,,,,,,,,,,,,,,,,
0.0,1.0,0.6286,0.0,26.0,26.0,26.0,1.0,parachute_03s.jpg,0.0,Red.png,5.0,100,,,,,,,,,,,,,,,,,
0.0,1.0,1.42,0.0,27.0,27.0,27.0,1.0,mannequin_05s.jpg,0.0,Orange.png,5.0,100,,,,,,,,,,,,,,,,,
0.0,1.0,1.6863,0.0,28.0,28.0,28.0,1.0,snowman_02s.jpg,0.0,Yellow.png,5.0,100,,,,,,,,,,,,,,,,,
0.0,1.0,0.5725,0.0,29.0,29.0,29.0,1.0,fossil_06s.jpg,0.0,Green.png,5.0,100,,,,,,,,,,,,,,,,,
0.0,1.0,1.5713,0.0,30.0,30.0,30.0,1.0,perfume_06s.jpg,0.0,Blue.png,6.0,100,,,,,,,,,,,,,,,,,
0.0,1.0,0.8395,0.0,31.0,31.0,31.0,1.0,fossil_06s.jpg,0.0,Purple.png,6.0,100,,,,,,,,,,,,,,,,,
0.0,1.0,0.6954,0.0,32.0,32.0,32.0,1.0,pancake_12s.jpg,0.0,Red.png,6.0,100,,,,,,,,,,,,,,,,,
0.0,1.0,1.0819,0.0,33.0,33.0,33.0,1.0,tie_03s.jpg,0.0,Orange.png,6.0,100,,,,,,,,,,,,,,,,,
1.0,1.0,1.0209,0.0,34.0,34.0,34.0,1.0,pancake_12s.jpg,1.0,Yellow.png,6.0,100,,,,,,,,,,,,,,,,,
0.0,1.0,0.6928,0.0,35.0,35.0,35.0,1.0,padlock_07s.jpg,0.0,Green.png,6.0,100,,,,,,,,,,,,,,,,,
,,,,,,,,,0.0,,,100,1.0,0.0,1.3133,0.0,0.0,0.0,0.0,1.0,crayon_09s.jpg,luggage_08s.jpg,,,,,,,
,,,,,,,,,1.0,,,100,1.0,1.0,1.8552,0.0,1.0,1.0,1.0,1.0,towel_rack_04s.jpg,boar_10s.jpg,,,,,,,
,,,,,,,,,0.0,,,100,0.0,1.0,1.5119,0.0,2.0,2.0,2.0,1.0,lasagna_06s.jpg,outlet_10s.jpg,,,,,,,
,,,,,,,,,1.0,,,100,0.0,0.0,2.0976,0.0,3.0,3.0,3.0,1.0,jewel_01b.jpg,snowman_02s.jpg,,,,,,,
,,,,,,,,,0.0,,,100,1.0,0.0,2.6785,0.0,4.0,4.0,4.0,1.0,buoy_04s.jpg,incense_02s.jpg,,,,,,,
,,,,,,,,,0.0,,,100,0.0,1.0,1.5499,0.0,5.0,5.0,5.0,1.0,tie_03s.jpg,perfume_06s.jpg,,,,,,,
,,,,,,,,,,,,100,,,,,,,,,,,0.0,1.0,1.0,1.0,1.0,newclockpresent_2_2.xlsx,newclock_compare_task_2_2.xlsx
0.0,1.0,1.6433,0.0,0.0,0.0,0.0,1.0,surfboard_11s.jpg,0.0,Blue.png,1.0,100,,,,,,,,,,,,,,,,,
1.0,1.0,1.5902,0.0,1.0,1.0,1.0,1.0,surfboard_11s.jpg,1.0,Purple.png,1.0,100,,,,,,,,,,,,,,,,,
1.0,1.0,0.8235,0.0,2.0,2.0,2.0,1.0,surfboard_11s.jpg,1.0,Red.png,1.0,100,,,,,,,,,,,,,,,,,
0.0,1.0,1.1873,0.0,3.0,3.0,3.0,1.0,badge_03s.jpg,0.0,Orange.png,1.0,100,,,,,,,,,,,,,,,,,
1.0,1.0,0.8311,0.0,4.0,4.0,4.0,1.0,surfboard_11s.jpg,1.0,Yellow.png,1.0,100,,,,,,,,,,,,,,,,,
1.0,1.0,0.8772,0.0,5.0,5.0,5.0,1.0,surfboard_11s.jpg,1.0,Green.png,1.0,100,,,,,,,,,,,,,,,,,
0.0,1.0,2.0285,0.0,6.0,6.0,6.0,1.0,surfboard_11s.jpg,0.0,Blue.png,2.0,100,,,,,,,,,,,,,,,,,
0.0,1.0,2.1687,0.0,7.0,7.0,7.0,1.0,playpen_11s.jpg,0.0,Purple.png,2.0,100,,,,,,,,,,,,,,,,,
1.0,1.0,1.0088,0.0,8.0,8.0,8.0,1.0,surfboard_11s.jpg,1.0,Red.png,2.0,100,,,,,,,,,,,,,,,,,
0.0,1.0,0.9375,0.0,9.0,9.0,9.0,1.0,popcorn_09s.jpg,0.0,Orange.png,2.0,100,,,,,,,,,,,,,,,,,
1.0,1.0,2.0569,0.0,10.0,10.0,10.0,1.0,surfboard_11s.jpg,1.0,Yellow.png,2.0,100,,,,,,,,,,,,,,,,,
,0.0,,0.0,11.0,11.0,11.0,1.0,popcorn_09s.jpg,1.0,Green.png,2.0,100,,,,,,,,,,,,,,,,,
0.0,1.0,0.9091,0.0,12.0,12.0,12.0,1.0,lollipop_08s.jpg,0.0,Blue.png,3.0,100,,,,,,,,,,,,,,,,,
0.0,1.0,1.5233,0.0,13.0,13.0,13.0,1.0,popcorn_09s.jpg,0.0,Purple.png,3.0,100,,,,,,,,,,,,,,,,,
0.0,1.0,2.1037,0.0,14.0,14.0,14.0,1.0,fire_pit_10s.jpg,0.0,Red.png,3.0,100,,,,,,,,,,,,,,,,,
0.0,1.0,1.0214,0.0,15.0,15.0,15.0,1.0,joystick_01b.jpg,0.0,Orange.png,3.0,100,,,,,,,,,,,,,,,,,
0.0,1.0,0.9238,0.0,16.0,16.0,16.0,1.0,panda_02s.jpg,0.0,Yellow.png,3.0,100,,,,,,,,,,,,,,,,,
0.0,1.0,1.5579,0.0,17.0,17.0,17.0,1.0,sundae_08s.jpg,0.0,Green.png,3.0,100,,,,,,,,,,,,,,,,,
0.0,1.0,1.515,0.0,18.0,18.0,18.0,1.0,boomerang_06s.jpg,0.0,Blue.png,4.0,100,,,,,,,,,,,,,,,,,
0.0,1.0,1.7456,0.0,19.0,19.0,19.0,1.0,bagel_15s.jpg,0.0,Purple.png,4.0,100,,,,,,,,,,,,,,,,,
0.0,1.0,1.1214,0.0,20.0,20.0,20.0,1.0,powder_07s.jpg,0.0,Red.png,4.0,100,,,,,,,,,,,,,,,,,
0.0,1.0,1.0222,0.0,21.0,21.0,21.0,1.0,lipstick_02s.jpg,0.0,Orange.png,4.0,100,,,,,,,,,,,,,,,,,
1.0,1.0,1.5225,0.0,22.0,22.0,22.0,1.0,bagel_15s.jpg,1.0,Yellow.png,4.0,100,,,,,,,,,,,,,,,,,
0.0,1.0,1.2369,0.0,23.0,23.0,23.0,1.0,ladle_04s.jpg,0.0,Green.png,4.0,100,,,,,,,,,,,,,,,,,
0.0,1.0,1.6411,0.0,24.0,24.0,24.0,1.0,megaphone_03s.jpg,0.0,Blue.png,5.0,100,,,,,,,,,,,,,,,,,
0.0,1.0,0.99,0.0,25.0,25.0,25.0,1.0,puck_06s.jpg,0.0,Purple.png,5.0,100,,,,,,,,,,,,,,,,,
0.0,1.0,2.2184,0.0,26.0,26.0,26.0,1.0,cardinal_07s.jpg,0.0,Red.png,5.0,100,,,,,,,,,,,,,,,,,
1.0,1.0,1.579,0.0,27.0,27.0,27.0,1.0,puck_06s.jpg,1.0,Orange.png,5.0,100,,,,,,,,,,,,,,,,,
0.0,1.0,0.7382,0.0,28.0,28.0,28.0,1.0,bee_20s.jpg,0.0,Yellow.png,5.0,100,,,,,,,,,,,,,,,,,
0.0,1.0,1.7903,0.0,29.0,29.0,29.0,1.0,toilet_paper_12s.jpg,0.0,Green.png,5.0,100,,,,,,,,,,,,,,,,,
0.0,1.0,0.8817,0.0,30.0,30.0,30.0,1.0,mud_13s.jpg,0.0,Blue.png,6.0,100,,,,,,,,,,,,,,,,,
0.0,1.0,1.3726,0.0,31.0,31.0,31.0,1.0,measuring_cup_02s.jpg,0.0,Purple.png,6.0,100,,,,,,,,,,,,,,,,,
0.0,1.0,2.2946,0.0,32.0,32.0,32.0,1.0,ostrich_06s.jpg,0.0,Red.png,6.0,100,,,,,,,,,,,,,,,,,
,0.0,,0.0,33.0,33.0,33.0,1.0,raspberry_12s.jpg,0.0,Orange.png,6.0,100,,,,,,,,,,,,,,,,,
0.0,0.0,1.7267,0.0,34.0,34.0,34.0,1.0,mud_13s.jpg,1.0,Yellow.png,6.0,100,,,,,,,,,,,,,,,,,
0.0,1.0,0.6839,0.0,35.0,35.0,35.0,1.0,radiator_05s.jpg,0.0,Green.png,6.0,100,,,,,,,,,,,,,,,,,
,,,,,,,,,0.0,,,100,0.0,1.0,2.638,0.0,0.0,0.0,0.0,1.0,measuring_cup_02s.jpg,bee_20s.jpg,,,,,,,
,,,,,,,,,1.0,,,100,0.0,0.0,2.4285,0.0,1.0,1.0,1.0,1.0,lipstick_02s.jpg,megaphone_03s.jpg,,,,,,,
,,,,,,,,,0.0,,,100,1.0,0.0,2.7107,0.0,2.0,2.0,2.0,1.0,boomerang_06s.jpg,joystick_01b.jpg,,,,,,,
,,,,,,,,,0.0,,,100,1.0,0.0,1.4356,0.0,3.0,3.0,3.0,1.0,sundae_08s.jpg,fire_pit_10s.jpg,,,,,,,
,,,,,,,,,0.0,,,100,1.0,0.0,2.9786,0.0,4.0,4.0,4.0,1.0,radiator_05s.jpg,ostrich_06s.jpg,,,,,,,
,,,,,,,,,0.0,,,100,0.0,1.0,2.3265,0.0,5.0,5.0,5.0,1.0,ladle_04s.jpg,powder_07s.jpg,,,,,,,
,,,,,,,,,,,,100,,,,,,,,,,,0.0,2.0,2.0,2.0,1.0,newclockpresent_3_2.xlsx,newclock_compare_task_3_2.xlsx
0.0,1.0,1.2691,0.0,0.0,0.0,0.0,1.0,glasses01a.jpg,0.0,Blue.png,1.0,100,,,,,,,,,,,,,,,,,
0.0,1.0,2.0204,0.0,1.0,1.0,1.0,1.0,piano_13n.jpg,0.0,Purple.png,1.0,100,,,,,,,,,,,,,,,,,
0.0,1.0,1.038,0.0,2.0,2.0,2.0,1.0,candy_cane_06s.jpg,0.0,Red.png,1.0,100,,,,,,,,,,,,,,,,,
0.0,1.0,0.6733,0.0,3.0,3.0,3.0,1.0,cushion_08s.jpg,0.0,Orange.png,1.0,100,,,,,,,,,,,,,,,,,
1.0,1.0,1.3635,0.0,4.0,4.0,4.0,1.0,candy_cane_06s.jpg,1.0,Yellow.png,1.0,100,,,,,,,,,,,,,,,,,
1.0,1.0,0.9576,0.0,5.0,5.0,5.0,1.0,candy_cane_06s.jpg,1.0,Green.png,1.0,100,,,,,,,,,,,,,,,,,
0.0,1.0,0.8808,0.0,6.0,6.0,6.0,1.0,rosary_03s.jpg,0.0,Blue.png,2.0,100,,,,,,,,,,,,,,,,,
1.0,1.0,1.9096,0.0,7.0,7.0,7.0,1.0,rosary_03s.jpg,1.0,Purple.png,2.0,100,,,,,,,,,,,,,,,,,
1.0,1.0,0.8749,0.0,8.0,8.0,8.0,1.0,rosary_03s.jpg,1.0,Red.png,2.0,100,,,,,,,,,,,,,,,,,
1.0,1.0,0.6082,0.0,9.0,9.0,9.0,1.0,rosary_03s.jpg,1.0,Orange.png,2.0,100,,,,,,,,,,,,,,,,,
0.0,1.0,1.4055,0.0,10.0,10.0,10.0,1.0,kangaroo_02s.jpg,0.0,Yellow.png,2.0,100,,,,,,,,,,,,,,,,,
,0.0,,0.0,11.0,11.0,11.0,1.0,kangaroo_02s.jpg,1.0,Green.png,2.0,100,,,,,,,,,,,,,,,,,
0.0,1.0,1.2923,0.0,12.0,12.0,12.0,1.0,kangaroo_02s.jpg,0.0,Blue.png,3.0,100,,,,,,,,,,,,,,,,,
1.0,1.0,0.9316,0.0,13.0,13.0,13.0,1.0,kangaroo_02s.jpg,1.0,Purple.png,3.0,100,,,,,,,,,,,,,,,,,
0.0,1.0,1.1537,0.0,14.0,14.0,14.0,1.0,ironing_board_07s.jpg,0.0,Red.png,3.0,100,,,,,,,,,,,,,,,,,
1.0,1.0,1.5116,0.0,15.0,15.0,15.0,1.0,kangaroo_02s.jpg,1.0,Orange.png,3.0,100,,,,,,,,,,,,,,,,,
0.0,1.0,0.8139,0.0,16.0,16.0,16.0,1.0,punch2_09s.jpg,0.0,Yellow.png,3.0,100,,,,,,,,,,,,,,,,,
1.0,1.0,2.0386,0.0,17.0,17.0,17.0,1.0,ironing_board_07s.jpg,1.0,Green.png,3.0,100,,,,,,,,,,,,,,,,,
0.0,1.0,1.1469,0.0,18.0,18.0,18.0,1.0,owl_15s.jpg,0.0,Blue.png,4.0,100,,,,,,,,,,,,,,,,,
0.0,1.0,0.6719,0.0,19.0,19.0,19.0,1.0,teabag_12s.jpg,0.0,Purple.png,4.0,100,,,,,,,,,,,,,,,,,
1.0,1.0,0.8655,0.0,20.0,20.0,20.0,1.0,owl_15s.jpg,1.0,Red.png,4.0,100,,,,,,,,,,,,,,,,,
0.0,1.0,1.986,0.0,21.0,21.0,21.0,1.0,otter_05s.jpg,0.0,Orange.png,4.0,100,,,,,,,,,,,,,,,,,
1.0,1.0,2.1857,0.0,22.0,22.0,22.0,1.0,owl_15s.jpg,1.0,Yellow.png,4.0,100,,,,,,,,,,,,,,,,,
,0.0,,0.0,23.0,23.0,23.0,1.0,mold2_04s.jpg,0.0,Green.png,4.0,100,,,,,,,,,,,,,,,,,
0.0,1.0,1.5366,0.0,24.0,24.0,24.0,1.0,mattress_01s.jpg,0.0,Blue.png,5.0,100,,,,,,,,,,,,,,,,,
0.0,1.0,0.8409,0.0,25.0,25.0,25.0,1.0,police_car_01s.jpg,0.0,Purple.png,5.0,100,,,,,,,,,,,,,,,,,
0.0,1.0,0.7273,0.0,26.0,26.0,26.0,1.0,stethoscope_01b.jpg,0.0,Red.png,5.0,100,,,,,,,,,,,,,,,,,
1.0,1.0,1.9589,0.0,27.0,27.0,27.0,1.0,police_car_01s.jpg,1.0,Orange.png,5.0,100,,,,,,,,,,,,,,,,,
0.0,1.0,0.9711,0.0,28.0,28.0,28.0,1.0,sparkler_02s.jpg,0.0,Yellow.png,5.0,100,,,,,,,,,,,,,,,,,
0.0,1.0,1.0408,0.0,29.0,29.0,29.0,1.0,pacifier_09s.jpg,0.0,Green.png,5.0,100,,,,,,,,,,,,,,,,,
0.0,1.0,0.7442,0.0,30.0,30.0,30.0,1.0,machine_gun_09s.jpg,0.0,Blue.png,6.0,100,,,,,,,,,,,,,,,,,
,0.0,,0.0,31.0,31.0,31.0,1.0,ram_05s.jpg,0.0,Purple.png,6.0,100,,,,,,,,,,,,,,,,,
0.0,1.0,0.9488,0.0,32.0,32.0,32.0,1.0,keyboard_05s.jpg,0.0,Red.png,6.0,100,,,,,,,,,,,,,,,,,
0.0,1.0,1.6087,0.0,33.0,33.0,33.0,1.0,leash_10s.jpg,0.0,Orange.png,6.0,100,,,,,,,,,,,,,,,,,
0.0,1.0,2.4394,0.0,34.0,34.0,34.0,1.0,pan_02s.jpg,0.0,Yellow.png,6.0,100,,,,,,,,,,,,,,,,,
0.0,1.0,2.3058,0.0,35.0,35.0,35.0,1.0,mixer_12s.jpg,0.0,Green.png,6.0,100,,,,,,,,,,,,,,,,,
,,,,,,,,,0.0,,,100,1.0,0.0,2.5771,0.0,0.0,0.0,0.0,1.0,teabag_12s.jpg,punch2_09s.jpg,,,,,,,
,,,,,,,,,0.0,,,100,1.0,0.0,2.7154,0.0,1.0,1.0,1.0,1.0,mattress_01s.jpg,otter_05s.jpg,,,,,,,
,,,,,,,,,0.0,,,100,1.0,0.0,1.5793,0.0,2.0,2.0,2.0,1.0,stethoscope_01b.jpg,mold2_04s.jpg,,,,,,,
,,,,,,,,,1.0,,,100,0.0,0.0,1.6521,0.0,3.0,3.0,3.0,1.0,glasses01a.jpg,cushion_08s.jpg,,,,,,,
,,,,,,,,,1.0,,,100,1.0,1.0,1.7782,0.0,4.0,4.0,4.0,1.0,machine_gun_09s.jpg,leash_10s.jpg,,,,,,,
,,,,,,,,,0.0,,,100,0.0,1.0,1.8761,0.0,5.0,5.0,5.0,1.0,pan_02s.jpg,ram_05s.jpg,,,,,,,
,,,,,,,,,,,,100,,,,,,,,,,,0.0,3.0,3.0,3.0,1.0,newclockpresent_4_2.xlsx,newclock_compare_task_4_2.xlsx
0.0,1.0,1.4934,0.0,0.0,0.0,0.0,1.0,golf_club_03s.jpg,0.0,Blue.png,1.0,100,,,,,,,,,,,,,,,,,
1.0,1.0,1.7003,0.0,1.0,1.0,1.0,1.0,golf_club_03s.jpg,1.0,Purple.png,1.0,100,,,,,,,,,,,,,,,,,
1.0,1.0,0.7092,0.0,2.0,2.0,2.0,1.0,golf_club_03s.jpg,1.0,Red.png,1.0,100,,,,,,,,,,,,,,,,,
0.0,1.0,0.9382,0.0,3.0,3.0,3.0,1.0,turnstile_08s.jpg,0.0,Orange.png,1.0,100,,,,,,,,,,,,,,,,,
1.0,1.0,0.9987,0.0,4.0,4.0,4.0,1.0,golf_club_03s.jpg,1.0,Yellow.png,1.0,100,,,,,,,,,,,,,,,,,
0.0,1.0,1.6016,0.0,5.0,5.0,5.0,1.0,milk_02s.jpg,0.0,Green.png,1.0,100,,,,,,,,,,,,,,,,,
0.0,1.0,1.6571,0.0,6.0,6.0,6.0,1.0,orange_12s.jpg,0.0,Blue.png,2.0,100,,,,,,,,,,,,,,,,,
0.0,1.0,2.1047,0.0,7.0,7.0,7.0,1.0,milk_02s.jpg,0.0,Purple.png,2.0,100,,,,,,,,,,,,,,,,,
,0.0,,0.0,8.0,8.0,8.0,1.0,latch_15s.jpg,0.0,Red.png,2.0,100,,,,,,,,,,,,,,,,,
0.0,1.0,0.99,0.0,9.0,9.0,9.0,1.0,bank_06s.jpg,0.0,Orange.png,2.0,100,,,,,,,,,,,,,,,,,
1.0,1.0,1.4553,0.0,10.0,10.0,10.0,1.0,milk_02s.jpg,1.0,Yellow.png,2.0,100,,,,,,,,,,,,,,,,,
0.0,1.0,1.7195,0.0,11.0,11.0,11.0,1.0,crab_16s.jpg,0.0,Green.png,2.0,100,,,,,,,,,,,,,,,,,
0.0,1.0,1.6791,0.0,12.0,12.0,12.0,1.0,birdcage_08s.jpg,0.0,Blue.png,3.0,100,,,,,,,,,,,,,,,,,
0.0,1.0,1.6032,0.0,13.0,13.0,13.0,1.0,spider_web_03s.jpg,0.0,Purple.png,3.0,100,,,,,,,,,,,,,,,,,
0.0,1.0,1.3887,0.0,14.0,14.0,14.0,1.0,knitting_needle_04s.jpg,0.0,Red.png,3.0,100,,,,,,,,,,,,,,,,,
0.0,1.0,1.2626,0.0,15.0,15.0,15.0,1.0,sugar_cube_11s.jpg,0.0,Orange.png,3.0,100,,,,,,,,,,,,,,,,,
0.0,1.0,1.812,0.0,16.0,16.0,16.0,1.0,light_switch_02s.jpg,0.0,Yellow.png,3.0,100,,,,,,,,,,,,,,,,,
,0.0,,0.0,17.0,17.0,17.0,1.0,gear_07s.jpg,0.0,Green.png,3.0,100,,,,,,,,,,,,,,,,,
0.0,1.0,1.054,0.0,18.0,18.0,18.0,1.0,tongs_08s.jpg,0.0,Blue.png,4.0,100,,,,,,,,,,,,,,,,,
0.0,1.0,1.211,0.0,19.0,19.0,19.0,1.0,recliner_02s.jpg,0.0,Purple.png,4.0,100,,,,,,,,,,,,,,,,,
0.0,1.0,1.1926,0.0,20.0,20.0,20.0,1.0,orangutan_03s.jpg,0.0,Red.png,4.0,100,,,,,,,,,,,,,,,,,
1.0,0.0,2.356,0.0,21.0,21.0,21.0,1.0,golf_club_03s.jpg,0.0,Orange.png,4.0,100,,,,,,,,,,,,,,,,,
0.0,1.0,0.9121,0.0,22.0,22.0,22.0,1.0,lava_02s.jpg,0.0,Yellow.png,4.0,100,,,,,,,,,,,,,,,,,
0.0,1.0,1.6293,0.0,23.0,23.0,23.0,1.0,toilet_07s.jpg,0.0,Green.png,4.0,100,,,,,,,,,,,,,,,,,
0.0,1.0,1.7197,0.0,24.0,24.0,24.0,1.0,turnstile_08s.jpg,0.0,Blue.png,5.0,100,,,,,,,,,,,,,,,,,
1.0,1.0,1.6369,0.0,25.0,25.0,25.0,1.0,turnstile_08s.jpg,1.0,Purple.png,5.0,100,,,,,,,,,,,,,,,,,
0.0,1.0,2.0087,0.0,26.0,26.0,26.0,1.0,teacup_07s.jpg,0.0,Red.png,5.0,100,,,,,,,,,,,,,,,,,
,0.0,,0.0,27.0,27.0,27.0,1.0,turnstile_08s.jpg,1.0,Orange.png,5.0,100,,,,,,,,,,,,,,,,,
1.0,1.0,1.3362,0.0,28.0,28.0,28.0,1.0,turnstile_08s.jpg,1.0,Yellow.png,5.0,100,,,,,,,,,,,,,,,,,
0.0,1.0,1.2274,0.0,29.0,29.0,29.0,1.0,antenna_01b.jpg,0.0,Green.png,5.0,100,,,,,,,,,,,,,,,,,
0.0,1.0,1.3553,0.0,30.0,30.0,30.0,1.0,keyhole_03s.jpg,0.0,Blue.png,6.0,100,,,,,,,,,,,,,,,,,
,0.0,,0.0,31.0,31.0,31.0,1.0,air_pump_05s.jpg,0.0,Purple.png,6.0,100,,,,,,,,,,,,,,,,,
,0.0,,0.0,32.0,32.0,32.0,1.0,eggshell_14s.jpg,0.0,Red.png,6.0,100,,,,,,,,,,,,,,,,,
0.0,1.0,0.8941,0.0,33.0,33.0,33.0,1.0,eyedropper_12s.jpg,0.0,Orange.png,6.0,100,,,,,,,,,,,,,,,,,
0.0,1.0,2.2283,0.0,34.0,34.0,34.0,1.0,machete_06s.jpg,0.0,Yellow.png,6.0,100,,,,,,,,,,,,,,,,,
1.0,1.0,1.62,0.0,35.0,35.0,35.0,1.0,eyedropper_12s.jpg,1.0,Green.png,6.0,100,,,,,,,,,,,,,,,,,
,,,,,,,,,1.0,,,100,0.0,0.0,2.6675,0.0,0.0,0.0,0.0,1.0,sugar_cube_11s.jpg,tongs_08s.jpg,,,,,,,
,,,,,,,,,1.0,,,100,1.0,1.0,1.5687,0.0,1.0,1.0,1.0,1.0,antenna_01b.jpg,eggshell_14s.jpg,,,,,,,
,,,,,,,,,1.0,,,100,0.0,0.0,1.7634,0.0,2.0,2.0,2.0,1.0,bank_06s.jpg,birdcage_08s.jpg,,,,,,,
,,,,,,,,,1.0,,,100,0.0,0.0,2.0283,0.0,3.0,3.0,3.0,1.0,air_pump_05s.jpg,machete_06s.jpg,,,,,,,
,,,,,,,,,1.0,,,100,0.0,0.0,1.9175,0.0,4.0,4.0,4.0,1.0,latch_15s.jpg,crab_16s.jpg,,,,,,,
,,,,,,,,,1.0,,,100,0.0,0.0,2.793,0.0,5.0,5.0,5.0,1.0,spider_web_03s.jpg,light_switch_02s.jpg,,,,,,,
,,,,,,,,,,,,100,,,,,,,,,,,0.0,4.0,4.0,4.0,1.0,newclockpresent_5_2.xlsx,newclock_compare_task_5_2.xlsx
0.0,1.0,1.0452,0.0,0.0,0.0,0.0,1.0,gazelle_10s.jpg,0.0,Blue.png,1.0,100,,,,,,,,,,,,,,,,,
0.0,1.0,0.8353,0.0,1.0,1.0,1.0,1.0,saddle_06s.jpg,0.0,Purple.png,1.0,100,,,,,,,,,,,,,,,,,
1.0,1.0,0.9241,0.0,2.0,2.0,2.0,1.0,saddle_06s.jpg,1.0,Red.png,1.0,100,,,,,,,,,,,,,,,,,
0.0,1.0,0.9068,0.0,3.0,3.0,3.0,1.0,kimono_13s.jpg,0.0,Orange.png,1.0,100,,,,,,,,,,,,,,,,,
0.0,1.0,0.8863,0.0,4.0,4.0,4.0,1.0,timer_03s.jpg,0.0,Yellow.png,1.0,100,,,,,,,,,,,,,,,,,
0.0,1.0,0.7862,0.0,5.0,5.0,5.0,1.0,tulip_02s.jpg,0.0,Green.png,1.0,100,,,,,,,,,,,,,,,,,
0.0,1.0,1.1565,0.0,6.0,6.0,6.0,1.0,prism_10s.jpg,0.0,Blue.png,2.0,100,,,,,,,,,,,,,,,,,
0.0,1.0,0.9104,0.0,7.0,7.0,7.0,1.0,razor_12s.jpg,0.0,Purple.png,2.0,100,,,,,,,,,,,,,,,,,
0.0,1.0,1.6621,0.0,8.0,8.0,8.0,1.0,blazer_02s.jpg,0.0,Red.png,2.0,100,,,,,,,,,,,,,,,,,
,0.0,,0.0,9.0,9.0,9.0,1.0,razor_12s.jpg,1.0,Orange.png,2.0,100,,,,,,,,,,,,,,,,,
0.0,1.0,1.2443,0.0,10.0,10.0,10.0,1.0,lamb_chop_07s.jpg,0.0,Yellow.png,2.0,100,,,,,,,,,,,,,,,,,
1.0,1.0,2.1932,0.0,11.0,11.0,11.0,1.0,razor_12s.jpg,1.0,Green.png,2.0,100,,,,,,,,,,,,,,,,,
,0.0,,0.0,12.0,12.0,12.0,1.0,lamb_chop_07s.jpg,0.0,Blue.png,3.0,100,,,,,,,,,,,,,,,,,
,0.0,,0.0,13.0,13.0,13.0,1.0,lamb_chop_07s.jpg,1.0,Purple.png,3.0,100,,,,,,,,,,,,,,,,,
0.0,1.0,0.9293,0.0,14.0,14.0,14.0,1.0,timer_03s.jpg,0.0,Red.png,3.0,100,,,,,,,,,,,,,,,,,
1.0,1.0,1.1491,0.0,15.0,15.0,15.0,1.0,lamb_chop_07s.jpg,1.0,Orange.png,3.0,100,,,,,,,,,,,,,,,,,
0.0,1.0,0.7449,0.0,16.0,16.0,16.0,1.0,glue_01s.jpg,0.0,Yellow.png,3.0,100,,,,,,,,,,,,,,,,,
0.0,1.0,0.8757,0.0,17.0,17.0,17.0,1.0,solar_panel_02s.jpg,0.0,Green.png,3.0,100,,,,,,,,,,,,,,,,,
0.0,1.0,1.0544,0.0,18.0,18.0,18.0,1.0,muffin_12n.jpg,0.0,Blue.png,4.0,100,,,,,,,,,,,,,,,,,
0.0,1.0,0.8495,0.0,19.0,19.0,19.0,1.0,pepper2_21s.jpg,0.0,Purple.png,4.0,100,,,,,,,,,,,,,,,,,
0.0,1.0,1.913,0.0,20.0,20.0,20.0,1.0,marker_05s.jpg,0.0,Red.png,4.0,100,,,,,,,,,,,,,,,,,
0.0,1.0,2.2208,0.0,21.0,21.0,21.0,1.0,soccer_ball_12s.jpg,0.0,Orange.png,4.0,100,,,,,,,,,,,,,,,,,
0.0,1.0,1.8571,0.0,22.0,22.0,22.0,1.0,amber_04s.jpg,0.0,Yellow.png,4.0,100,,,,,,,,,,,,,,,,,
0.0,1.0,0.9498,0.0,23.0,23.0,23.0,1.0,stopwatch_04s.jpg,0.0,Green.png,4.0,100,,,,,,,,,,,,,,,,,
,0.0,,0.0,24.0,24.0,24.0,1.0,amber_04s.jpg,0.0,Blue.png,5.0,100,,,,,,,,,,,,,,,,,
0.0,1.0,0.6788,0.0,25.0,25.0,25.0,1.0,racehorse_03s.jpg,0.0,Purple.png,5.0,100,,,,,,,,,,,,,,,,,
1.0,1.0,0.908,0.0,26.0,26.0,26.0,1.0,amber_04s.jpg,1.0,Red.png,5.0,100,,,,,,,,,,,,,,,,,
0.0,1.0,1.006,0.0,27.0,27.0,27.0,1.0,duck_01b.jpg,0.0,Orange.png,5.0,100,,,,,,,,,,,,,,,,,
1.0,1.0,0.9934,0.0,28.0,28.0,28.0,1.0,amber_04s.jpg,1.0,Yellow.png,5.0,100,,,,,,,,,,,,,,,,,
1.0,1.0,1.0125,0.0,29.0,29.0,29.0,1.0,duck_01b.jpg,1.0,Green.png,5.0,100,,,,,,,,,,,,,,,,,
0.0,1.0,0.5225,0.0,30.0,30.0,30.0,1.0,duck_01b.jpg,0.0,Blue.png,6.0,100,,,,,,,,,,,,,,,,,
1.0,1.0,0.6397,0.0,31.0,31.0,31.0,1.0,duck_01b.jpg,1.0,Purple.png,6.0,100,,,,,,,,,,,,,,,,,
0.0,1.0,0.7796,0.0,32.0,32.0,32.0,1.0,magnet_03s.jpg,0.0,Red.png,6.0,100,,,,,,,,,,,,,,,,,
1.0,1.0,0.8987,0.0,33.0,33.0,33.0,1.0,duck_01b.jpg,1.0,Orange.png,6.0,100,,,,,,,,,,,,,,,,,
0.0,1.0,1.0656,0.0,34.0,34.0,34.0,1.0,swimming_pool_17s.jpg,0.0,Yellow.png,6.0,100,,,,,,,,,,,,,,,,,
0.0,1.0,1.8223,0.0,35.0,35.0,35.0,1.0,roulette_wheel_04s.jpg,0.0,Green.png,6.0,100,,,,,,,,,,,,,,,,,
,,,,,,,,,0.0,,,100,1.0,0.0,2.4186,0.0,0.0,0.0,0.0,1.0,blazer_02s.jpg,tulip_02s.jpg,,,,,,,
,,,,,,,,,1.0,,,100,0.0,0.0,1.6495,0.0,1.0,1.0,1.0,1.0,glue_01s.jpg,pepper2_21s.jpg,,,,,,,
,,,,,,,,,1.0,,,100,0.0,0.0,1.777,0.0,2.0,2.0,2.0,1.0,kimono_13s.jpg,prism_10s.jpg,,,,,,,
,,,,,,,,,0.0,,,100,0.0,1.0,1.7534,0.0,3.0,3.0,3.0,1.0,soccer_ball_12s.jpg,muffin_12n.jpg,,,,,,,
,,,,,,,,,1.0,,,100,0.0,0.0,1.6609,0.0,4.0,4.0,4.0,1.0,magnet_03s.jpg,roulette_wheel_04s.jpg,,,,,,,
,,,,,,,,,0.0,,,100,1.0,0.0,2.1542,0.0,5.0,5.0,5.0,1.0,stopwatch_04s.jpg,marker_05s.jpg,,,,,,,
,,,,,,,,,,,,100,,,,,,,,,,,0.0,5.0,5.0,5.0,1.0,newclockpresent_6_2.xlsx,newclock_compare_task_6_2.xlsx
0.0,1.0,1.3785,0.0,0.0,0.0,0.0,1.0,slingshot_07s.jpg,0.0,Blue.png,1.0,100,,,,,,,,,,,,,,,,,
1.0,1.0,1.3763,0.0,1.0,1.0,1.0,1.0,slingshot_07s.jpg,1.0,Purple.png,1.0,100,,,,,,,,,,,,,,,,,
0.0,1.0,0.7383,0.0,2.0,2.0,2.0,1.0,aluminum_foil_08s.jpg,0.0,Red.png,1.0,100,,,,,,,,,,,,,,,,,
0.0,1.0,0.8432,0.0,3.0,3.0,3.0,1.0,ink_08s.jpg,0.0,Orange.png,1.0,100,,,,,,,,,,,,,,,,,
1.0,1.0,1.1945,0.0,4.0,4.0,4.0,1.0,aluminum_foil_08s.jpg,1.0,Yellow.png,1.0,100,,,,,,,,,,,,,,,,,
1.0,1.0,1.3144,0.0,5.0,5.0,5.0,1.0,slingshot_07s.jpg,1.0,Green.png,1.0,100,,,,,,,,,,,,,,,,,
0.0,1.0,0.7935,0.0,6.0,6.0,6.0,1.0,aluminum_foil_08s.jpg,0.0,Blue.png,2.0,100,,,,,,,,,,,,,,,,,
1.0,1.0,0.7474,0.0,7.0,7.0,7.0,1.0,aluminum_foil_08s.jpg,1.0,Purple.png,2.0,100,,,,,,,,,,,,,,,,,
0.0,1.0,1.0595,0.0,8.0,8.0,8.0,1.0,ice-cream_cone_06s.jpg,0.0,Red.png,2.0,100,,,,,,,,,,,,,,,,,
0.0,1.0,0.9711,0.0,9.0,9.0,9.0,1.0,ink_08s.jpg,0.0,Orange.png,2.0,100,,,,,,,,,,,,,,,,,
0.0,1.0,0.9426,0.0,10.0,10.0,10.0,1.0,emerald_02s.jpg,0.0,Yellow.png,2.0,100,,,,,,,,,,,,,,,,,
0.0,1.0,1.143,0.0,11.0,11.0,11.0,1.0,bathtub_23s.jpg,0.0,Green.png,2.0,100,,,,,,,,,,,,,,,,,
0.0,1.0,0.9718,0.0,12.0,12.0,12.0,1.0,bubble_01b.jpg,0.0,Blue.png,3.0,100,,,,,,,,,,,,,,,,,
0.0,1.0,1.2235,0.0,13.0,13.0,13.0,1.0,mirror_12s.jpg,0.0,Purple.png,3.0,100,,,,,,,,,,,,,,,,,
0.0,1.0,0.7971,0.0,14.0,14.0,14.0,1.0,swing_set_15s.jpg,0.0,Red.png,3.0,100,,,,,,,,,,,,,,,,,
,0.0,,0.0,15.0,15.0,15.0,1.0,pinwheel_06s.jpg,0.0,Orange.png,3.0,100,,,,,,,,,,,,,,,,,
1.0,1.0,2.2402,0.0,16.0,16.0,16.0,1.0,swing_set_15s.jpg,1.0,Yellow.png,3.0,100,,,,,,,,,,,,,,,,,
0.0,0.0,0.7887,0.0,17.0,17.0,17.0,1.0,pinwheel_06s.jpg,1.0,Green.png,3.0,100,,,,,,,,,,,,,,,,,
0.0,1.0,1.8695,0.0,18.0,18.0,18.0,1.0,ink_08s.jpg,0.0,Blue.png,4.0,100,,,,,,,,,,,,,,,,,
0.0,1.0,0.7906,0.0,19.0,19.0,19.0,1.0,plunger_08s.jpg,0.0,Purple.png,4.0,100,,,,,,,,,,,,,,,,,
1.0,1.0,1.8567,0.0,20.0,20.0,20.0,1.0,ink_08s.jpg,1.0,Red.png,4.0,100,,,,,,,,,,,,,,,,,
,0.0,,0.0,21.0,21.0,21.0,1.0,ink_08s.jpg,1.0,Orange.png,4.0,100,,,,,,,,,,,,,,,,,
0.0,1.0,1.2205,0.0,22.0,22.0,22.0,1.0,metronome_03s.jpg,0.0,Yellow.png,4.0,100,,,,,,,,,,,,,,,,,
0.0,1.0,2.1593,0.0,23.0,23.0,23.0,1.0,puppy_08s.jpg,0.0,Green.png,4.0,100,,,,,,,,,,,,,,,,,
0.0,1.0,1.1397,0.0,24.0,24.0,24.0,1.0,treasure_08s.jpg,0.0,Blue.png,5.0,100,,,,,,,,,,,,,,,,,
0.0,1.0,0.7783,0.0,25.0,25.0,25.0,1.0,penguin_16s.jpg,0.0,Purple.png,5.0,100,,,,,,,,,,,,,,,,,
0.0,1.0,0.4322,0.0,26.0,26.0,26.0,1.0,bacon_05s.jpg,0.0,Red.png,5.0,100,,,,,,,,,,,,,,,,,
0.0,1.0,0.7787,0.0,27.0,27.0,27.0,1.0,giraffe_11s.jpg,0.0,Orange.png,5.0,100,,,,,,,,,,,,,,,,,
0.0,1.0,1.7446,0.0,28.0,28.0,28.0,1.0,rug_09s.jpg,0.0,Yellow.png,5.0,100,,,,,,,,,,,,,,,,,
0.0,1.0,0.9713,0.0,29.0,29.0,29.0,1.0,lamp_08s.jpg,0.0,Green.png,5.0,100,,,,,,,,,,,,,,,,,
0.0,1.0,1.7891,0.0,30.0,30.0,30.0,1.0,metronome_03s.jpg,0.0,Blue.png,6.0,100,,,,,,,,,,,,,,,,,
1.0,1.0,0.7058,0.0,31.0,31.0,31.0,1.0,metronome_03s.jpg,1.0,Purple.png,6.0,100,,,,,,,,,,,,,,,,,
0.0,1.0,0.8741,0.0,32.0,32.0,32.0,1.0,lip_gloss_06s.jpg,0.0,Red.png,6.0,100,,,,,,,,,,,,,,,,,
,0.0,,0.0,33.0,33.0,33.0,1.0,metronome_03s.jpg,1.0,Orange.png,6.0,100,,,,,,,,,,,,,,,,,
0.0,1.0,0.6433,0.0,34.0,34.0,34.0,1.0,laser_pointer_02s.jpg,0.0,Yellow.png,6.0,100,,,,,,,,,,,,,,,,,
1.0,1.0,1.1432,0.0,35.0,35.0,35.0,1.0,metronome_03s.jpg,1.0,Green.png,6.0,100,,,,,,,,,,,,,,,,,
,,,,,,,,,1.0,,,100,1.0,1.0,1.6063,0.0,0.0,0.0,0.0,1.0,emerald_02s.jpg,mirror_12s.jpg,,,,,,,
,,,,,,,,,1.0,,,100,0.0,0.0,1.3614,0.0,1.0,1.0,1.0,1.0,puppy_08s.jpg,bacon_05s.jpg,,,,,,,
,,,,,,,,,0.0,,,100,1.0,0.0,1.4804,0.0,2.0,2.0,2.0,1.0,lip_gloss_06s.jpg,lamp_08s.jpg,,,,,,,
,,,,,,,,,0.0,,,100,0.0,1.0,1.4619,0.0,3.0,3.0,3.0,1.0,bathtub_23s.jpg,ice-cream_cone_06s.jpg,,,,,,,
,,,,,,,,,0.0,,,100,0.0,1.0,2.3198,0.0,4.0,4.0,4.0,1.0,giraffe_11s.jpg,treasure_08s.jpg,,,,,,,
,,,,,,,,,0.0,,,100,1.0,0.0,1.2059,0.0,5.0,5.0,5.0,1.0,rug_09s.jpg,penguin_16s.jpg,,,,,,,
,,,,,,,,,,,,100,,,,,,,,,,,0.0,6.0,6.0,6.0,1.0,newclockpresent_7_2.xlsx,newclock_compare_task_7_2.xlsx
0.0,1.0,1.0646,0.0,0.0,0.0,0.0,1.0,ant_12s.jpg,0.0,Blue.png,1.0,100,,,,,,,,,,,,,,,,,
1.0,1.0,1.5082,0.0,1.0,1.0,1.0,1.0,ant_12s.jpg,1.0,Purple.png,1.0,100,,,,,,,,,,,,,,,,,
0.0,1.0,1.121,0.0,2.0,2.0,2.0,1.0,ticktacktoe_08s.jpg,0.0,Red.png,1.0,100,,,,,,,,,,,,,,,,,
0.0,1.0,1.4971,0.0,3.0,3.0,3.0,1.0,frog_09s.jpg,0.0,Orange.png,1.0,100,,,,,,,,,,,,,,,,,
1.0,1.0,0.9407,0.0,4.0,4.0,4.0,1.0,ticktacktoe_08s.jpg,1.0,Yellow.png,1.0,100,,,,,,,,,,,,,,,,,
0.0,1.0,0.8818,0.0,5.0,5.0,5.0,1.0,feather02.jpg,0.0,Green.png,1.0,100,,,,,,,,,,,,,,,,,
0.0,1.0,2.3851,0.0,6.0,6.0,6.0,1.0,gas_mask_11s.jpg,0.0,Blue.png,2.0,100,,,,,,,,,,,,,,,,,
1.0,1.0,0.8248,0.0,7.0,7.0,7.0,1.0,gas_mask_11s.jpg,1.0,Purple.png,2.0,100,,,,,,,,,,,,,,,,,
0.0,1.0,0.7007,0.0,8.0,8.0,8.0,1.0,mop_08s.jpg,0.0,Red.png,2.0,100,,,,,,,,,,,,,,,,,
1.0,1.0,1.2968,0.0,9.0,9.0,9.0,1.0,gas_mask_11s.jpg,1.0,Orange.png,2.0,100,,,,,,,,,,,,,,,,,
0.0,1.0,0.7999,0.0,10.0,10.0,10.0,1.0,pea_11s.jpg,0.0,Yellow.png,2.0,100,,,,,,,,,,,,,,,,,
0.0,1.0,0.8913,0.0,11.0,11.0,11.0,1.0,bowler_hat_10s.jpg,0.0,Green.png,2.0,100,,,,,,,,,,,,,,,,,
0.0,1.0,1.0742,0.0,12.0,12.0,12.0,1.0,pencil_sharpener_09n.jpg,0.0,Blue.png,3.0,100,,,,,,,,,,,,,,,,,
0.0,1.0,1.3373,0.0,13.0,13.0,13.0,1.0,rice_12s.jpg,0.0,Purple.png,3.0,100,,,,,,,,,,,,,,,,,
0.0,1.0,1.3735,0.0,14.0,14.0,14.0,1.0,stamp1_11s.jpg,0.0,Red.png,3.0,100,,,,,,,,,,,,,,,,,
0.0,1.0,2.3873,0.0,15.0,15.0,15.0,1.0,jersey_02s.jpg,0.0,Orange.png,3.0,100,,,,,,,,,,,,,,,,,
0.0,1.0,1.0303,0.0,16.0,16.0,16.0,1.0,tiara_05s.jpg,0.0,Yellow.png,3.0,100,,,,,,,,,,,,,,,,,
0.0,1.0,0.9139,0.0,17.0,17.0,17.0,1.0,target_11s.jpg,0.0,Green.png,3.0,100,,,,,,,,,,,,,,,,,
0.0,1.0,0.8571,0.0,18.0,18.0,18.0,1.0,dirt_bike_11s.jpg,0.0,Blue.png,4.0,100,,,,,,,,,,,,,,,,,
0.0,1.0,0.7746,0.0,19.0,19.0,19.0,1.0,doily_13s.jpg,0.0,Purple.png,4.0,100,,,,,,,,,,,,,,,,,
0.0,1.0,1.635,0.0,20.0,20.0,20.0,1.0,sunglasses_11s.jpg,0.0,Red.png,4.0,100,,,,,,,,,,,,,,,,,
0.0,1.0,0.9995,0.0,21.0,21.0,21.0,1.0,compass_10n.jpg,0.0,Orange.png,4.0,100,,,,,,,,,,,,,,,,,
1.0,1.0,0.9398,0.0,22.0,22.0,22.0,1.0,sunglasses_11s.jpg,1.0,Yellow.png,4.0,100,,,,,,,,,,,,,,,,,
1.0,1.0,1.3043,0.0,23.0,23.0,23.0,1.0,sunglasses_11s.jpg,1.0,Green.png,4.0,100,,,,,,,,,,,,,,,,,
0.0,1.0,0.94,0.0,24.0,24.0,24.0,1.0,seagull_01b.jpg,0.0,Blue.png,5.0,100,,,,,,,,,,,,,,,,,
,0.0,,0.0,25.0,25.0,25.0,1.0,footprint_11s.jpg,0.0,Purple.png,5.0,100,,,,,,,,,,,,,,,,,
,0.0,,0.0,26.0,26.0,26.0,1.0,projector_08s.jpg,0.0,Red.png,5.0,100,,,,,,,,,,,,,,,,,
0.0,0.0,0.9258,0.0,27.0,27.0,27.0,1.0,projector_08s.jpg,1.0,Orange.png,5.0,100,,,,,,,,,,,,,,,,,
,0.0,,0.0,28.0,28.0,28.0,1.0,money_07s.jpg,0.0,Yellow.png,5.0,100,,,,,,,,,,,,,,,,,
0.0,1.0,1.9742,0.0,29.0,29.0,29.0,1.0,flip_flop_03s.jpg,0.0,Green.png,5.0,100,,,,,,,,,,,,,,,,,
0.0,1.0,0.6652,0.0,30.0,30.0,30.0,1.0,ring_03s.jpg,0.0,Blue.png,6.0,100,,,,,,,,,,,,,,,,,
0.0,1.0,1.0107,0.0,31.0,31.0,31.0,1.0,flip_flop_03s.jpg,0.0,Purple.png,6.0,100,,,,,,,,,,,,,,,,,
1.0,1.0,0.6385,0.0,32.0,32.0,32.0,1.0,flip_flop_03s.jpg,1.0,Red.png,6.0,100,,,,,,,,,,,,,,,,,
1.0,1.0,1.9113,0.0,33.0,33.0,33.0,1.0,flip_flop_03s.jpg,1.0,Orange.png,6.0,100,,,,,,,,,,,,,,,,,
0.0,1.0,0.6745,0.0,34.0,34.0,34.0,1.0,screwdriver02a.jpg,0.0,Yellow.png,6.0,100,,,,,,,,,,,,,,,,,
1.0,1.0,1.6057,0.0,35.0,35.0,35.0,1.0,screwdriver02a.jpg,1.0,Green.png,6.0,100,,,,,,,,,,,,,,,,,
,,,,,,,,,0.0,,,100,0.0,1.0,2.4022,0.0,0.0,0.0,0.0,1.0,mop_08s.jpg,feather02.jpg,,,,,,,
,,,,,,,,,1.0,,,100,1.0,1.0,2.0778,0.0,1.0,1.0,1.0,1.0,pea_11s.jpg,rice_12s.jpg,,,,,,,
,,,,,,,,,1.0,,,100,1.0,1.0,1.4161,0.0,2.0,2.0,2.0,1.0,tiara_05s.jpg,doily_13s.jpg,,,,,,,
,,,,,,,,,1.0,,,100,1.0,1.0,1.8326,0.0,3.0,3.0,3.0,1.0,footprint_11s.jpg,money_07s.jpg,,,,,,,
,,,,,,,,,1.0,,,100,0.0,0.0,1.8484,0.0,4.0,4.0,4.0,1.0,pencil_sharpener_09n.jpg,jersey_02s.jpg,,,,,,,
,,,,,,,,,1.0,,,100,0.0,0.0,1.4631,0.0,5.0,5.0,5.0,1.0,stamp1_11s.jpg,target_11s.jpg,,,,,,,
,,,,,,,,,,,,100,,,,,,,,,,,0.0,7.0,7.0,7.0,1.0,newclockpresent_8_2.xlsx,newclock_compare_task_8_2.xlsx
0.0,1.0,1.3726,0.0,0.0,0.0,0.0,1.0,quilt_03s.jpg,0.0,Blue.png,1.0,100,,,,,,,,,,,,,,,,,
0.0,1.0,0.7129,0.0,1.0,1.0,1.0,1.0,stingray_02s.jpg,0.0,Purple.png,1.0,100,,,,,,,,,,,,,,,,,
0.0,1.0,0.6549,0.0,2.0,2.0,2.0,1.0,mousetrap_15n.jpg,0.0,Red.png,1.0,100,,,,,,,,,,,,,,,,,
0.0,1.0,0.7731,0.0,3.0,3.0,3.0,1.0,dashboard_02s.jpg,0.0,Orange.png,1.0,100,,,,,,,,,,,,,,,,,
1.0,1.0,1.9641,0.0,4.0,4.0,4.0,1.0,quilt_03s.jpg,1.0,Yellow.png,1.0,100,,,,,,,,,,,,,,,,,
1.0,1.0,1.2895,0.0,5.0,5.0,5.0,1.0,quilt_03s.jpg,1.0,Green.png,1.0,100,,,,,,,,,,,,,,,,,
0.0,1.0,0.541,0.0,6.0,6.0,6.0,1.0,thorn_13s.jpg,0.0,Blue.png,2.0,100,,,,,,,,,,,,,,,,,
0.0,1.0,0.7767,0.0,7.0,7.0,7.0,1.0,mitten_10s.jpg,0.0,Purple.png,2.0,100,,,,,,,,,,,,,,,,,
0.0,1.0,0.8127,0.0,8.0,8.0,8.0,1.0,fondue_07s.jpg,0.0,Red.png,2.0,100,,,,,,,,,,,,,,,,,
0.0,1.0,2.268,0.0,9.0,9.0,9.0,1.0,peach_04s.jpg,0.0,Orange.png,2.0,100,,,,,,,,,,,,,,,,,
0.0,1.0,2.0071,0.0,10.0,10.0,10.0,1.0,stump_02s.jpg,0.0,Yellow.png,2.0,100,,,,,,,,,,,,,,,,,
0.0,1.0,0.6661,0.0,11.0,11.0,11.0,1.0,rabbit_03s.jpg,0.0,Green.png,2.0,100,,,,,,,,,,,,,,,,,
0.0,1.0,1.3717,0.0,12.0,12.0,12.0,1.0,champagne_18s.jpg,0.0,Blue.png,3.0,100,,,,,,,,,,,,,,,,,
0.0,1.0,1.1984,0.0,13.0,13.0,13.0,1.0,rabbit_03s.jpg,0.0,Purple.png,3.0,100,,,,,,,,,,,,,,,,,
0.0,1.0,0.8718,0.0,14.0,14.0,14.0,1.0,denture_03s.jpg,0.0,Red.png,3.0,100,,,,,,,,,,,,,,,,,
1.0,1.0,1.0303,0.0,15.0,15.0,15.0,1.0,rabbit_03s.jpg,1.0,Orange.png,3.0,100,,,,,,,,,,,,,,,,,
0.0,1.0,1.1704,0.0,16.0,16.0,16.0,1.0,turtleneck_11s.jpg,0.0,Yellow.png,3.0,100,,,,,,,,,,,,,,,,,
1.0,1.0,1.8023,0.0,17.0,17.0,17.0,1.0,rabbit_03s.jpg,1.0,Green.png,3.0,100,,,,,,,,,,,,,,,,,
0.0,1.0,0.5909,0.0,18.0,18.0,18.0,1.0,typewriter_11s.jpg,0.0,Blue.png,4.0,100,,,,,,,,,,,,,,,,,
0.0,1.0,1.2204,0.0,19.0,19.0,19.0,1.0,thread_08s.jpg,0.0,Purple.png,4.0,100,,,,,,,,,,,,,,,,,
0.0,1.0,0.7279,0.0,20.0,20.0,20.0,1.0,bean_06s.jpg,0.0,Red.png,4.0,100,,,,,,,,,,,,,,,,,
0.0,1.0,1.2205,0.0,21.0,21.0,21.0,1.0,rolling_pin_02s.jpg,0.0,Orange.png,4.0,100,,,,,,,,,,,,,,,,,
,0.0,,0.0,22.0,22.0,22.0,1.0,tattoo_14s.jpg,0.0,Yellow.png,4.0,100,,,,,,,,,,,,,,,,,
0.0,1.0,1.5726,0.0,23.0,23.0,23.0,1.0,eiffeltower.jpg,0.0,Green.png,4.0,100,,,,,,,,,,,,,,,,,
,0.0,,0.0,24.0,24.0,24.0,1.0,fondue_07s.jpg,0.0,Blue.png,5.0,100,,,,,,,,,,,,,,,,,
1.0,1.0,1.9863,0.0,25.0,25.0,25.0,1.0,fondue_07s.jpg,1.0,Purple.png,5.0,100,,,,,,,,,,,,,,,,,
0.0,1.0,1.2288,0.0,26.0,26.0,26.0,1.0,omelet_07s.jpg,0.0,Red.png,5.0,100,,,,,,,,,,,,,,,,,
1.0,1.0,1.4417,0.0,27.0,27.0,27.0,1.0,fondue_07s.jpg,1.0,Orange.png,5.0,100,,,,,,,,,,,,,,,,,
0.0,1.0,1.4537,0.0,28.0,28.0,28.0,1.0,radio_09s.jpg,0.0,Yellow.png,5.0,100,,,,,,,,,,,,,,,,,
1.0,1.0,1.773,0.0,29.0,29.0,29.0,1.0,fondue_07s.jpg,1.0,Green.png,5.0,100,,,,,,,,,,,,,,,,,
0.0,1.0,1.1598,0.0,30.0,30.0,30.0,1.0,roller_coaster_07s.jpg,0.0,Blue.png,6.0,100,,,,,,,,,,,,,,,,,
0.0,1.0,1.1938,0.0,31.0,31.0,31.0,1.0,loveseat_08s.jpg,0.0,Purple.png,6.0,100,,,,,,,,,,,,,,,,,
1.0,1.0,1.7704,0.0,32.0,32.0,32.0,1.0,roller_coaster_07s.jpg,1.0,Red.png,6.0,100,,,,,,,,,,,,,,,,,
1.0,1.0,0.7069,0.0,33.0,33.0,33.0,1.0,roller_coaster_07s.jpg,1.0,Orange.png,6.0,100,,,,,,,,,,,,,,,,,
1.0,1.0,1.2036,0.0,34.0,34.0,34.0,1.0,roller_coaster_07s.jpg,1.0,Yellow.png,6.0,100,,,,,,,,,,,,,,,,,
1.0,1.0,1.3151,0.0,35.0,35.0,35.0,1.0,roller_coaster_07s.jpg,1.0,Green.png,6.0,100,,,,,,,,,,,,,,,,,
,,,,,,,,,0.0,,,100,1.0,0.0,2.7619,0.0,0.0,0.0,0.0,1.0,loveseat_08s.jpg,radio_09s.jpg,,,,,,,
,,,,,,,,,1.0,,,100,0.0,0.0,2.2951,0.0,1.0,1.0,1.0,1.0,dashboard_02s.jpg,thorn_13s.jpg,,,,,,,
,,,,,,,,,0.0,,,100,1.0,0.0,1.3972,0.0,2.0,2.0,2.0,1.0,champagne_18s.jpg,peach_04s.jpg,,,,,,,
,,,,,,,,,1.0,,,100,1.0,1.0,1.4851,0.0,3.0,3.0,3.0,1.0,mitten_10s.jpg,stump_02s.jpg,,,,,,,
,,,,,,,,,1.0,,,100,1.0,1.0,1.6344,0.0,4.0,4.0,4.0,1.0,typewriter_11s.jpg,rolling_pin_02s.jpg,,,,,,,
,,,,,,,,,1.0,,,100,1.0,1.0,1.3844,0.0,5.0,5.0,5.0,1.0,thread_08s.jpg,tattoo_14s.jpg,,,,,,,
,,,,,,,,,,,,100,,,,,,,,,,,0.0,8.0,8.0,8.0,1.0,newclockpresent_9_2.xlsx,newclock_compare_task_9_2.xlsx
