key_resp.keys,key_resp.corr,key_resp.rt,present_segment.thisRepN,present_segment.thisTrialN,present_segment.thisN,present_segment.thisIndex,present_segment.ran,pictures,answer,clock,segment,participant,key_resp_2.keys,key_resp_2.corr,key_resp_2.rt,compare_segment.thisRepN,compare_segment.thisTrialN,compare_segment.thisN,compare_segment.thisIndex,compare_segment.ran,item_a,item_b,clock_conditions.thisRepN,clock_conditions.thisTrialN,clock_conditions.thisN,clock_conditions.thisIndex,clock_conditions.ran,present,compare
0.0,1.0,1.600785,0.0,0.0,0.0,0.0,1.0,insole_11s.jpg,0.0,Blue.png,1.0,57,,,,,,,,,,,,,,,,,
0.0,1.0,0.71745,0.0,1.0,1.0,1.0,1.0,tupperware_09s.jpg,0.0,Purple.png,1.0,57,,,,,,,,,,,,,,,,,
0.0,1.0,0.98848,0.0,2.0,2.0,2.0,1.0,tupperware_09s.jpg,0.0,Red.png,1.0,57,,,,,,,,,,,,,,,,,
0.0,1.0,0.62506,0.0,3.0,3.0,3.0,1.0,fox_13s.jpg,0.0,Orange.png,1.0,57,,,,,,,,,,,,,,,,,
1.0,1.0,0.608595,0.0,4.0,4.0,4.0,1.0,tupperware_09s.jpg,1.0,Yellow.png,1.0,57,,,,,,,,,,,,,,,,,
0.0,1.0,0.755575,0.0,5.0,5.0,5.0,1.0,lavender_10s.jpg,0.0,Green.png,1.0,57,,,,,,,,,,,,,,,,,
0.0,0.0,1.15305,0.0,6.0,6.0,6.0,1.0,tupperware_09s.jpg,1.0,Blue.png,2.0,57,,,,,,,,,,,,,,,,,
0.0,1.0,0.72271,0.0,7.0,7.0,7.0,1.0,poinsettia_04s.jpg,0.0,Purple.png,2.0,57,,,,,,,,,,,,,,,,,
0.0,1.0,0.6853,0.0,8.0,8.0,8.0,1.0,margarita_03s.jpg,0.0,Red.png,2.0,57,,,,,,,,,,,,,,,,,
0.0,1.0,0.72214,0.0,9.0,9.0,9.0,1.0,toothpaste_12s.jpg,0.0,Orange.png,2.0,57,,,,,,,,,,,,,,,,,
0.0,1.0,0.69612,0.0,10.0,10.0,10.0,1.0,ladder_15s.jpg,0.0,Yellow.png,2.0,57,,,,,,,,,,,,,,,,,
0.0,1.0,0.76514,0.0,11.0,11.0,11.0,1.0,pocketknife_12s.jpg,0.0,Green.png,2.0,57,,,,,,,,,,,,,,,,,
0.0,1.0,0.593505,0.0,12.0,12.0,12.0,1.0,spoon02a.jpg,0.0,Blue.png,3.0,57,,,,,,,,,,,,,,,,,
0.0,1.0,0.646925,0.0,13.0,13.0,13.0,1.0,mango_09s.jpg,0.0,Purple.png,3.0,57,,,,,,,,,,,,,,,,,
0.0,1.0,0.63713,0.0,14.0,14.0,14.0,1.0,chalice_10s.jpg,0.0,Red.png,3.0,57,,,,,,,,,,,,,,,,,
0.0,1.0,1.077015,0.0,15.0,15.0,15.0,1.0,pocketknife_12s.jpg,0.0,Orange.png,3.0,57,,,,,,,,,,,,,,,,,
0.0,1.0,0.872425,0.0,16.0,16.0,16.0,1.0,abacus_12s.jpg,0.0,Yellow.png,3.0,57,,,,,,,,,,,,,,,,,
0.0,1.0,1.973895,0.0,17.0,17.0,17.0,1.0,abacus_12s.jpg,0.0,Green.png,3.0,57,,,,,,,,,,,,,,,,,
1.0,1.0,1.31343,0.0,18.0,18.0,18.0,1.0,abacus_12s.jpg,1.0,Blue.png,4.0,57,,,,,,,,,,,,,,,,,
1.0,1.0,1.087245,0.0,19.0,19.0,19.0,1.0,abacus_12s.jpg,1.0,Purple.png,4.0,57,,,,,,,,,,,,,,,,,
0.0,1.0,0.70345,0.0,20.0,20.0,20.0,1.0,sushi_08s.jpg,0.0,Red.png,4.0,57,,,,,,,,,,,,,,,,,
0.0,1.0,0.60668,0.0,21.0,21.0,21.0,1.0,funnel_01b.jpg,0.0,Orange.png,4.0,57,,,,,,,,,,,,,,,,,
0.0,1.0,0.75708,0.0,22.0,22.0,22.0,1.0,rooster_03s.jpg,0.0,Yellow.png,4.0,57,,,,,,,,,,,,,,,,,
0.0,1.0,0.87008,0.0,23.0,23.0,23.0,1.0,ukulele_02s.jpg,0.0,Green.png,4.0,57,,,,,,,,,,,,,,,,,
0.0,1.0,1.133605,0.0,24.0,24.0,24.0,1.0,pocketknife_12s.jpg,0.0,Blue.png,5.0,57,,,,,,,,,,,,,,,,,
0.0,1.0,1.283335,0.0,25.0,25.0,25.0,1.0,pocketknife_12s.jpg,0.0,Purple.png,5.0,57,,,,,,,,,,,,,,,,,
1.0,1.0,1.12326,0.0,26.0,26.0,26.0,1.0,pocketknife_12s.jpg,1.0,Red.png,5.0,57,,,,,,,,,,,,,,,,,
0.0,1.0,0.95663,0.0,27.0,27.0,27.0,1.0,stapler_01b.jpg,0.0,Orange.png,5.0,57,,,,,,,,,,,,,,,,,
0.0,1.0,1.03346,0.0,28.0,28.0,28.0,1.0,birthday_cake_09s.jpg,0.0,Yellow.png,5.0,57,,,,,,,,,,,,,,,,,
0.0,1.0,1.010385,0.0,29.0,29.0,29.0,1.0,meatball_13s.jpg,0.0,Green.png,5.0,57,,,,,,,,,,,,,,,,,
0.0,1.0,0.97358,0.0,30.0,30.0,30.0,1.0,cape_11s.jpg,0.0,Blue.png,6.0,57,,,,,,,,,,,,,,,,,
0.0,1.0,2.316885,0.0,31.0,31.0,31.0,1.0,cape_11s.jpg,0.0,Purple.png,6.0,57,,,,,,,,,,,,,,,,,
0.0,1.0,1.10673,0.0,32.0,32.0,32.0,1.0,lizard_10n.jpg,0.0,Red.png,6.0,57,,,,,,,,,,,,,,,,,
0.0,1.0,1.01373,0.0,33.0,33.0,33.0,1.0,refrigerator_07s.jpg,0.0,Orange.png,6.0,57,,,,,,,,,,,,,,,,,
0.0,1.0,1.336965,0.0,34.0,34.0,34.0,1.0,refrigerator_07s.jpg,0.0,Yellow.png,6.0,57,,,,,,,,,,,,,,,,,
0.0,1.0,1.03008,0.0,35.0,35.0,35.0,1.0,touchpad_11s.jpg,0.0,Green.png,6.0,57,,,,,,,,,,,,,,,,,
,,,,,,,,,1.0,,,57,1.0,1.0,1.770405,0.0,0.0,0.0,0.0,1.0,lavender_10s.jpg,margarita_03s.jpg,,,,,,,
,,,,,,,,,1.0,,,57,0.0,0.0,2.176775,0.0,1.0,1.0,1.0,1.0,toothpaste_12s.jpg,spoon02a.jpg,,,,,,,
,,,,,,,,,1.0,,,57,1.0,1.0,1.7099,0.0,2.0,2.0,2.0,1.0,ladder_15s.jpg,mango_09s.jpg,,,,,,,
,,,,,,,,,0.0,,,57,0.0,1.0,1.976975,0.0,3.0,3.0,3.0,1.0,fox_13s.jpg,insole_11s.jpg,,,,,,,
,,,,,,,,,0.0,,,57,1.0,0.0,2.110205,0.0,4.0,4.0,4.0,1.0,ukulele_02s.jpg,sushi_08s.jpg,,,,,,,
,,,,,,,,,0.0,,,57,0.0,1.0,1.807115,0.0,5.0,5.0,5.0,1.0,touchpad_11s.jpg,lizard_10n.jpg,,,,,,,
,,,,,,,,,,,,57,,,,,,,,,,,0.0,0.0,0.0,0.0,1.0,new2backpresent_1_2.xlsx,new2back_compare_task_1_2.xlsx
0.0,1.0,2.474375,0.0,0.0,0.0,0.0,1.0,juicer2_06s.jpg,0.0,Blue.png,1.0,57,,,,,,,,,,,,,,,,,
0.0,1.0,1.50752,0.0,1.0,1.0,1.0,1.0,juicer2_06s.jpg,0.0,Purple.png,1.0,57,,,,,,,,,,,,,,,,,
0.0,1.0,1.27671,0.0,2.0,2.0,2.0,1.0,tambourine_06s.jpg,0.0,Red.png,1.0,57,,,,,,,,,,,,,,,,,
0.0,1.0,0.59054,0.0,3.0,3.0,3.0,1.0,luggage_08s.jpg,0.0,Orange.png,1.0,57,,,,,,,,,,,,,,,,,
1.0,1.0,0.993345,0.0,4.0,4.0,4.0,1.0,tambourine_06s.jpg,1.0,Yellow.png,1.0,57,,,,,,,,,,,,,,,,,
0.0,1.0,1.096665,0.0,5.0,5.0,5.0,1.0,towel_rack_04s.jpg,0.0,Green.png,1.0,57,,,,,,,,,,,,,,,,,
0.0,1.0,0.863585,0.0,6.0,6.0,6.0,1.0,crayon_09s.jpg,0.0,Blue.png,2.0,57,,,,,,,,,,,,,,,,,
0.0,1.0,0.95055,0.0,7.0,7.0,7.0,1.0,gargoyle_08s.jpg,0.0,Purple.png,2.0,57,,,,,,,,,,,,,,,,,
0.0,1.0,1.123485,0.0,8.0,8.0,8.0,1.0,boar_10s.jpg,0.0,Red.png,2.0,57,,,,,,,,,,,,,,,,,
1.0,1.0,1.056865,0.0,9.0,9.0,9.0,1.0,gargoyle_08s.jpg,1.0,Orange.png,2.0,57,,,,,,,,,,,,,,,,,
0.0,1.0,0.896895,0.0,10.0,10.0,10.0,1.0,limousine_12s.jpg,0.0,Yellow.png,2.0,57,,,,,,,,,,,,,,,,,
0.0,1.0,0.84362,0.0,11.0,11.0,11.0,1.0,outlet_10s.jpg,0.0,Green.png,2.0,57,,,,,,,,,,,,,,,,,
0.0,1.0,0.89993,0.0,12.0,12.0,12.0,1.0,comic_book_02s.jpg,0.0,Blue.png,3.0,57,,,,,,,,,,,,,,,,,
0.0,1.0,1.010355,0.0,13.0,13.0,13.0,1.0,mask_09s.jpg,0.0,Purple.png,3.0,57,,,,,,,,,,,,,,,,,
0.0,1.0,1.070175,0.0,14.0,14.0,14.0,1.0,lasagna_06s.jpg,0.0,Red.png,3.0,57,,,,,,,,,,,,,,,,,
0.0,1.0,1.0433,0.0,15.0,15.0,15.0,1.0,diving_board_07s.jpg,0.0,Orange.png,3.0,57,,,,,,,,,,,,,,,,,
0.0,1.0,1.000525,0.0,16.0,16.0,16.0,1.0,lion_18s.jpg,0.0,Yellow.png,3.0,57,,,,,,,,,,,,,,,,,
0.0,0.0,1.903315,0.0,17.0,17.0,17.0,1.0,diving_board_07s.jpg,1.0,Green.png,3.0,57,,,,,,,,,,,,,,,,,
1.0,1.0,0.99364,0.0,18.0,18.0,18.0,1.0,lion_18s.jpg,1.0,Blue.png,4.0,57,,,,,,,,,,,,,,,,,
0.0,1.0,0.9568,0.0,19.0,19.0,19.0,1.0,medal_04s.jpg,0.0,Purple.png,4.0,57,,,,,,,,,,,,,,,,,
0.0,1.0,0.96322,0.0,20.0,20.0,20.0,1.0,incense_02s.jpg,0.0,Red.png,4.0,57,,,,,,,,,,,,,,,,,
0.0,1.0,0.89679,0.0,21.0,21.0,21.0,1.0,tape_06s.jpg,0.0,Orange.png,4.0,57,,,,,,,,,,,,,,,,,
0.0,1.0,1.253435,0.0,22.0,22.0,22.0,1.0,medal_04s.jpg,0.0,Yellow.png,4.0,57,,,,,,,,,,,,,,,,,
0.0,1.0,1.1067,0.0,23.0,23.0,23.0,1.0,buoy_04s.jpg,0.0,Green.png,4.0,57,,,,,,,,,,,,,,,,,
0.0,1.0,1.383405,0.0,24.0,24.0,24.0,1.0,limousine_12s.jpg,0.0,Blue.png,5.0,57,,,,,,,,,,,,,,,,,
0.0,1.0,1.456595,0.0,25.0,25.0,25.0,1.0,jewel_01b.jpg,0.0,Purple.png,5.0,57,,,,,,,,,,,,,,,,,
0.0,1.0,1.193685,0.0,26.0,26.0,26.0,1.0,parachute_03s.jpg,0.0,Red.png,5.0,57,,,,,,,,,,,,,,,,,
0.0,1.0,1.247015,0.0,27.0,27.0,27.0,1.0,mannequin_05s.jpg,0.0,Orange.png,5.0,57,,,,,,,,,,,,,,,,,
0.0,1.0,1.04319,0.0,28.0,28.0,28.0,1.0,snowman_02s.jpg,0.0,Yellow.png,5.0,57,,,,,,,,,,,,,,,,,
0.0,1.0,1.67992,0.0,29.0,29.0,29.0,1.0,fossil_06s.jpg,0.0,Green.png,5.0,57,,,,,,,,,,,,,,,,,
0.0,1.0,1.023525,0.0,30.0,30.0,30.0,1.0,perfume_06s.jpg,0.0,Blue.png,6.0,57,,,,,,,,,,,,,,,,,
0.0,0.0,1.90015,0.0,31.0,31.0,31.0,1.0,fossil_06s.jpg,1.0,Purple.png,6.0,57,,,,,,,,,,,,,,,,,
0.0,1.0,1.236785,0.0,32.0,32.0,32.0,1.0,pancake_12s.jpg,0.0,Red.png,6.0,57,,,,,,,,,,,,,,,,,
0.0,1.0,1.56348,0.0,33.0,33.0,33.0,1.0,tie_03s.jpg,0.0,Orange.png,6.0,57,,,,,,,,,,,,,,,,,
1.0,1.0,1.29338,0.0,34.0,34.0,34.0,1.0,pancake_12s.jpg,1.0,Yellow.png,6.0,57,,,,,,,,,,,,,,,,,
0.0,1.0,1.200355,0.0,35.0,35.0,35.0,1.0,padlock_07s.jpg,0.0,Green.png,6.0,57,,,,,,,,,,,,,,,,,
,,,,,,,,,0.0,,,57,0.0,1.0,2.10295,0.0,0.0,0.0,0.0,1.0,crayon_09s.jpg,luggage_08s.jpg,,,,,,,
,,,,,,,,,1.0,,,57,1.0,1.0,2.262535,0.0,1.0,1.0,1.0,1.0,towel_rack_04s.jpg,boar_10s.jpg,,,,,,,
,,,,,,,,,0.0,,,57,1.0,0.0,2.289285,0.0,2.0,2.0,2.0,1.0,lasagna_06s.jpg,outlet_10s.jpg,,,,,,,
,,,,,,,,,1.0,,,57,0.0,0.0,2.0539,0.0,3.0,3.0,3.0,1.0,jewel_01b.jpg,snowman_02s.jpg,,,,,,,
,,,,,,,,,0.0,,,57,0.0,1.0,1.91348,0.0,4.0,4.0,4.0,1.0,buoy_04s.jpg,incense_02s.jpg,,,,,,,
,,,,,,,,,0.0,,,57,0.0,1.0,1.597475,0.0,5.0,5.0,5.0,1.0,tie_03s.jpg,perfume_06s.jpg,,,,,,,
,,,,,,,,,,,,57,,,,,,,,,,,0.0,1.0,1.0,1.0,1.0,new2backpresent_2_2.xlsx,new2back_compare_task_2_2.xlsx
0.0,1.0,1.39924,0.0,0.0,0.0,0.0,1.0,surfboard_11s.jpg,0.0,Blue.png,1.0,57,,,,,,,,,,,,,,,,,
0.0,1.0,0.86665,0.0,1.0,1.0,1.0,1.0,surfboard_11s.jpg,0.0,Purple.png,1.0,57,,,,,,,,,,,,,,,,,
1.0,1.0,0.903215,0.0,2.0,2.0,2.0,1.0,surfboard_11s.jpg,1.0,Red.png,1.0,57,,,,,,,,,,,,,,,,,
0.0,1.0,0.906515,0.0,3.0,3.0,3.0,1.0,badge_03s.jpg,0.0,Orange.png,1.0,57,,,,,,,,,,,,,,,,,
1.0,1.0,0.900155,0.0,4.0,4.0,4.0,1.0,surfboard_11s.jpg,1.0,Yellow.png,1.0,57,,,,,,,,,,,,,,,,,
0.0,1.0,1.523705,0.0,5.0,5.0,5.0,1.0,surfboard_11s.jpg,0.0,Green.png,1.0,57,,,,,,,,,,,,,,,,,
1.0,1.0,1.18065,0.0,6.0,6.0,6.0,1.0,surfboard_11s.jpg,1.0,Blue.png,2.0,57,,,,,,,,,,,,,,,,,
0.0,1.0,0.8641,0.0,7.0,7.0,7.0,1.0,playpen_11s.jpg,0.0,Purple.png,2.0,57,,,,,,,,,,,,,,,,,
1.0,1.0,1.06371,0.0,8.0,8.0,8.0,1.0,surfboard_11s.jpg,1.0,Red.png,2.0,57,,,,,,,,,,,,,,,,,
0.0,1.0,0.9833,0.0,9.0,9.0,9.0,1.0,popcorn_09s.jpg,0.0,Orange.png,2.0,57,,,,,,,,,,,,,,,,,
1.0,1.0,1.063345,0.0,10.0,10.0,10.0,1.0,surfboard_11s.jpg,1.0,Yellow.png,2.0,57,,,,,,,,,,,,,,,,,
1.0,1.0,1.370455,0.0,11.0,11.0,11.0,1.0,popcorn_09s.jpg,1.0,Green.png,2.0,57,,,,,,,,,,,,,,,,,
0.0,1.0,1.507425,0.0,12.0,12.0,12.0,1.0,lollipop_08s.jpg,0.0,Blue.png,3.0,57,,,,,,,,,,,,,,,,,
1.0,1.0,1.567155,0.0,13.0,13.0,13.0,1.0,popcorn_09s.jpg,1.0,Purple.png,3.0,57,,,,,,,,,,,,,,,,,
0.0,1.0,1.009805,0.0,14.0,14.0,14.0,1.0,fire_pit_10s.jpg,0.0,Red.png,3.0,57,,,,,,,,,,,,,,,,,
0.0,1.0,1.516945,0.0,15.0,15.0,15.0,1.0,joystick_01b.jpg,0.0,Orange.png,3.0,57,,,,,,,,,,,,,,,,,
0.0,1.0,0.92044,0.0,16.0,16.0,16.0,1.0,panda_02s.jpg,0.0,Yellow.png,3.0,57,,,,,,,,,,,,,,,,,
0.0,1.0,1.2169,0.0,17.0,17.0,17.0,1.0,sundae_08s.jpg,0.0,Green.png,3.0,57,,,,,,,,,,,,,,,,,
0.0,1.0,1.133505,0.0,18.0,18.0,18.0,1.0,boomerang_06s.jpg,0.0,Blue.png,4.0,57,,,,,,,,,,,,,,,,,
0.0,1.0,1.03665,0.0,19.0,19.0,19.0,1.0,bagel_15s.jpg,0.0,Purple.png,4.0,57,,,,,,,,,,,,,,,,,
0.0,1.0,1.246805,0.0,20.0,20.0,20.0,1.0,powder_07s.jpg,0.0,Red.png,4.0,57,,,,,,,,,,,,,,,,,
0.0,1.0,1.36623,0.0,21.0,21.0,21.0,1.0,lipstick_02s.jpg,0.0,Orange.png,4.0,57,,,,,,,,,,,,,,,,,
0.0,1.0,1.139755,0.0,22.0,22.0,22.0,1.0,bagel_15s.jpg,0.0,Yellow.png,4.0,57,,,,,,,,,,,,,,,,,
0.0,1.0,1.522975,0.0,23.0,23.0,23.0,1.0,ladle_04s.jpg,0.0,Green.png,4.0,57,,,,,,,,,,,,,,,,,
0.0,1.0,1.23648,0.0,24.0,24.0,24.0,1.0,megaphone_03s.jpg,0.0,Blue.png,5.0,57,,,,,,,,,,,,,,,,,
0.0,1.0,1.90685,0.0,25.0,25.0,25.0,1.0,puck_06s.jpg,0.0,Purple.png,5.0,57,,,,,,,,,,,,,,,,,
0.0,1.0,0.9136,0.0,26.0,26.0,26.0,1.0,cardinal_07s.jpg,0.0,Red.png,5.0,57,,,,,,,,,,,,,,,,,
1.0,1.0,1.21016,0.0,27.0,27.0,27.0,1.0,puck_06s.jpg,1.0,Orange.png,5.0,57,,,,,,,,,,,,,,,,,
0.0,1.0,0.973525,0.0,28.0,28.0,28.0,1.0,bee_20s.jpg,0.0,Yellow.png,5.0,57,,,,,,,,,,,,,,,,,
0.0,1.0,1.116915,0.0,29.0,29.0,29.0,1.0,toilet_paper_12s.jpg,0.0,Green.png,5.0,57,,,,,,,,,,,,,,,,,
0.0,1.0,1.310135,0.0,30.0,30.0,30.0,1.0,mud_13s.jpg,0.0,Blue.png,6.0,57,,,,,,,,,,,,,,,,,
0.0,1.0,1.063585,0.0,31.0,31.0,31.0,1.0,measuring_cup_02s.jpg,0.0,Purple.png,6.0,57,,,,,,,,,,,,,,,,,
0.0,1.0,0.97674,0.0,32.0,32.0,32.0,1.0,ostrich_06s.jpg,0.0,Red.png,6.0,57,,,,,,,,,,,,,,,,,
0.0,1.0,1.283345,0.0,33.0,33.0,33.0,1.0,raspberry_12s.jpg,0.0,Orange.png,6.0,57,,,,,,,,,,,,,,,,,
0.0,1.0,1.243465,0.0,34.0,34.0,34.0,1.0,mud_13s.jpg,0.0,Yellow.png,6.0,57,,,,,,,,,,,,,,,,,
0.0,1.0,1.22659,0.0,35.0,35.0,35.0,1.0,radiator_05s.jpg,0.0,Green.png,6.0,57,,,,,,,,,,,,,,,,,
,,,,,,,,,0.0,,,57,0.0,1.0,2.72858,0.0,0.0,0.0,0.0,1.0,measuring_cup_02s.jpg,bee_20s.jpg,,,,,,,
,,,,,,,,,1.0,,,57,0.0,0.0,2.670305,0.0,1.0,1.0,1.0,1.0,lipstick_02s.jpg,megaphone_03s.jpg,,,,,,,
,,,,,,,,,0.0,,,57,0.0,1.0,1.553275,0.0,2.0,2.0,2.0,1.0,boomerang_06s.jpg,joystick_01b.jpg,,,,,,,
,,,,,,,,,0.0,,,57,1.0,0.0,1.570145,0.0,3.0,3.0,3.0,1.0,sundae_08s.jpg,fire_pit_10s.jpg,,,,,,,
,,,,,,,,,0.0,,,57,0.0,1.0,1.153165,0.0,4.0,4.0,4.0,1.0,radiator_05s.jpg,ostrich_06s.jpg,,,,,,,
,,,,,,,,,0.0,,,57,0.0,1.0,1.879845,0.0,5.0,5.0,5.0,1.0,ladle_04s.jpg,powder_07s.jpg,,,,,,,
,,,,,,,,,,,,57,,,,,,,,,,,0.0,2.0,2.0,2.0,1.0,new2backpresent_3_2.xlsx,new2back_compare_task_3_2.xlsx
0.0,1.0,1.86897,0.0,0.0,0.0,0.0,1.0,glasses01a.jpg,0.0,Blue.png,1.0,57,,,,,,,,,,,,,,,,,
0.0,1.0,0.915935,0.0,1.0,1.0,1.0,1.0,piano_13n.jpg,0.0,Purple.png,1.0,57,,,,,,,,,,,,,,,,,
0.0,1.0,0.976715,0.0,2.0,2.0,2.0,1.0,candy_cane_06s.jpg,0.0,Red.png,1.0,57,,,,,,,,,,,,,,,,,
0.0,1.0,0.85324,0.0,3.0,3.0,3.0,1.0,cushion_08s.jpg,0.0,Orange.png,1.0,57,,,,,,,,,,,,,,,,,
1.0,1.0,0.933495,0.0,4.0,4.0,4.0,1.0,candy_cane_06s.jpg,1.0,Yellow.png,1.0,57,,,,,,,,,,,,,,,,,
0.0,1.0,1.606835,0.0,5.0,5.0,5.0,1.0,candy_cane_06s.jpg,0.0,Green.png,1.0,57,,,,,,,,,,,,,,,,,
0.0,1.0,0.990035,0.0,6.0,6.0,6.0,1.0,rosary_03s.jpg,0.0,Blue.png,2.0,57,,,,,,,,,,,,,,,,,
0.0,1.0,1.386285,0.0,7.0,7.0,7.0,1.0,rosary_03s.jpg,0.0,Purple.png,2.0,57,,,,,,,,,,,,,,,,,
1.0,1.0,1.05324,0.0,8.0,8.0,8.0,1.0,rosary_03s.jpg,1.0,Red.png,2.0,57,,,,,,,,,,,,,,,,,
1.0,1.0,1.170095,0.0,9.0,9.0,9.0,1.0,rosary_03s.jpg,1.0,Orange.png,2.0,57,,,,,,,,,,,,,,,,,
0.0,1.0,0.916665,0.0,10.0,10.0,10.0,1.0,kangaroo_02s.jpg,0.0,Yellow.png,2.0,57,,,,,,,,,,,,,,,,,
0.0,1.0,1.35729,0.0,11.0,11.0,11.0,1.0,kangaroo_02s.jpg,0.0,Green.png,2.0,57,,,,,,,,,,,,,,,,,
1.0,1.0,0.953435,0.0,12.0,12.0,12.0,1.0,kangaroo_02s.jpg,1.0,Blue.png,3.0,57,,,,,,,,,,,,,,,,,
1.0,1.0,0.987225,0.0,13.0,13.0,13.0,1.0,kangaroo_02s.jpg,1.0,Purple.png,3.0,57,,,,,,,,,,,,,,,,,
0.0,1.0,1.260235,0.0,14.0,14.0,14.0,1.0,ironing_board_07s.jpg,0.0,Red.png,3.0,57,,,,,,,,,,,,,,,,,
1.0,1.0,1.063595,0.0,15.0,15.0,15.0,1.0,kangaroo_02s.jpg,1.0,Orange.png,3.0,57,,,,,,,,,,,,,,,,,
0.0,1.0,1.630055,0.0,16.0,16.0,16.0,1.0,punch2_09s.jpg,0.0,Yellow.png,3.0,57,,,,,,,,,,,,,,,,,
0.0,1.0,1.196625,0.0,17.0,17.0,17.0,1.0,ironing_board_07s.jpg,0.0,Green.png,3.0,57,,,,,,,,,,,,,,,,,
0.0,1.0,1.18432,0.0,18.0,18.0,18.0,1.0,owl_15s.jpg,0.0,Blue.png,4.0,57,,,,,,,,,,,,,,,,,
0.0,1.0,1.353335,0.0,19.0,19.0,19.0,1.0,teabag_12s.jpg,0.0,Purple.png,4.0,57,,,,,,,,,,,,,,,,,
1.0,1.0,1.256615,0.0,20.0,20.0,20.0,1.0,owl_15s.jpg,1.0,Red.png,4.0,57,,,,,,,,,,,,,,,,,
0.0,1.0,1.557425,0.0,21.0,21.0,21.0,1.0,otter_05s.jpg,0.0,Orange.png,4.0,57,,,,,,,,,,,,,,,,,
1.0,1.0,1.056415,0.0,22.0,22.0,22.0,1.0,owl_15s.jpg,1.0,Yellow.png,4.0,57,,,,,,,,,,,,,,,,,
0.0,1.0,1.436455,0.0,23.0,23.0,23.0,1.0,mold2_04s.jpg,0.0,Green.png,4.0,57,,,,,,,,,,,,,,,,,
0.0,1.0,1.36705,0.0,24.0,24.0,24.0,1.0,mattress_01s.jpg,0.0,Blue.png,5.0,57,,,,,,,,,,,,,,,,,
0.0,1.0,1.12997,0.0,25.0,25.0,25.0,1.0,police_car_01s.jpg,0.0,Purple.png,5.0,57,,,,,,,,,,,,,,,,,
0.0,1.0,1.49671,0.0,26.0,26.0,26.0,1.0,stethoscope_01b.jpg,0.0,Red.png,5.0,57,,,,,,,,,,,,,,,,,
1.0,1.0,1.073805,0.0,27.0,27.0,27.0,1.0,police_car_01s.jpg,1.0,Orange.png,5.0,57,,,,,,,,,,,,,,,,,
0.0,1.0,1.60008,0.0,28.0,28.0,28.0,1.0,sparkler_02s.jpg,0.0,Yellow.png,5.0,57,,,,,,,,,,,,,,,,,
0.0,1.0,1.226975,0.0,29.0,29.0,29.0,1.0,pacifier_09s.jpg,0.0,Green.png,5.0,57,,,,,,,,,,,,,,,,,
0.0,1.0,1.346875,0.0,30.0,30.0,30.0,1.0,machine_gun_09s.jpg,0.0,Blue.png,6.0,57,,,,,,,,,,,,,,,,,
0.0,1.0,1.56402,0.0,31.0,31.0,31.0,1.0,ram_05s.jpg,0.0,Purple.png,6.0,57,,,,,,,,,,,,,,,,,
0.0,1.0,1.18683,0.0,32.0,32.0,32.0,1.0,keyboard_05s.jpg,0.0,Red.png,6.0,57,,,,,,,,,,,,,,,,,
0.0,1.0,1.270315,0.0,33.0,33.0,33.0,1.0,leash_10s.jpg,0.0,Orange.png,6.0,57,,,,,,,,,,,,,,,,,
0.0,1.0,1.217345,0.0,34.0,34.0,34.0,1.0,pan_02s.jpg,0.0,Yellow.png,6.0,57,,,,,,,,,,,,,,,,,
0.0,1.0,1.103495,0.0,35.0,35.0,35.0,1.0,mixer_12s.jpg,0.0,Green.png,6.0,57,,,,,,,,,,,,,,,,,
,,,,,,,,,0.0,,,57,1.0,0.0,2.048135,0.0,0.0,0.0,0.0,1.0,teabag_12s.jpg,punch2_09s.jpg,,,,,,,
,,,,,,,,,0.0,,,57,0.0,1.0,1.77083,0.0,1.0,1.0,1.0,1.0,mattress_01s.jpg,otter_05s.jpg,,,,,,,
,,,,,,,,,0.0,,,57,1.0,0.0,1.833615,0.0,2.0,2.0,2.0,1.0,stethoscope_01b.jpg,mold2_04s.jpg,,,,,,,
,,,,,,,,,1.0,,,57,1.0,1.0,1.2604,0.0,3.0,3.0,3.0,1.0,glasses01a.jpg,cushion_08s.jpg,,,,,,,
,,,,,,,,,1.0,,,57,1.0,1.0,1.986655,0.0,4.0,4.0,4.0,1.0,machine_gun_09s.jpg,leash_10s.jpg,,,,,,,
,,,,,,,,,0.0,,,57,0.0,1.0,2.253395,0.0,5.0,5.0,5.0,1.0,pan_02s.jpg,ram_05s.jpg,,,,,,,
,,,,,,,,,,,,57,,,,,,,,,,,0.0,3.0,3.0,3.0,1.0,new2backpresent_4_2.xlsx,new2back_compare_task_4_2.xlsx
0.0,1.0,1.19935,0.0,0.0,0.0,0.0,1.0,golf_club_03s.jpg,0.0,Blue.png,1.0,57,,,,,,,,,,,,,,,,,
0.0,1.0,0.933985,0.0,1.0,1.0,1.0,1.0,golf_club_03s.jpg,0.0,Purple.png,1.0,57,,,,,,,,,,,,,,,,,
1.0,1.0,0.917075,0.0,2.0,2.0,2.0,1.0,golf_club_03s.jpg,1.0,Red.png,1.0,57,,,,,,,,,,,,,,,,,
0.0,1.0,1.15409,0.0,3.0,3.0,3.0,1.0,turnstile_08s.jpg,0.0,Orange.png,1.0,57,,,,,,,,,,,,,,,,,
1.0,1.0,1.786655,0.0,4.0,4.0,4.0,1.0,golf_club_03s.jpg,1.0,Yellow.png,1.0,57,,,,,,,,,,,,,,,,,
0.0,1.0,1.503535,0.0,5.0,5.0,5.0,1.0,milk_02s.jpg,0.0,Green.png,1.0,57,,,,,,,,,,,,,,,,,
0.0,1.0,0.96043,0.0,6.0,6.0,6.0,1.0,orange_12s.jpg,0.0,Blue.png,2.0,57,,,,,,,,,,,,,,,,,
1.0,1.0,0.88672,0.0,7.0,7.0,7.0,1.0,milk_02s.jpg,1.0,Purple.png,2.0,57,,,,,,,,,,,,,,,,,
0.0,1.0,1.53035,0.0,8.0,8.0,8.0,1.0,latch_15s.jpg,0.0,Red.png,2.0,57,,,,,,,,,,,,,,,,,
0.0,1.0,1.23411,0.0,9.0,9.0,9.0,1.0,bank_06s.jpg,0.0,Orange.png,2.0,57,,,,,,,,,,,,,,,,,
0.0,1.0,0.910155,0.0,10.0,10.0,10.0,1.0,milk_02s.jpg,0.0,Yellow.png,2.0,57,,,,,,,,,,,,,,,,,
0.0,1.0,1.007075,0.0,11.0,11.0,11.0,1.0,crab_16s.jpg,0.0,Green.png,2.0,57,,,,,,,,,,,,,,,,,
0.0,1.0,0.74311,0.0,12.0,12.0,12.0,1.0,birdcage_08s.jpg,0.0,Blue.png,3.0,57,,,,,,,,,,,,,,,,,
0.0,1.0,0.927295,0.0,13.0,13.0,13.0,1.0,spider_web_03s.jpg,0.0,Purple.png,3.0,57,,,,,,,,,,,,,,,,,
0.0,1.0,1.71703,0.0,14.0,14.0,14.0,1.0,knitting_needle_04s.jpg,0.0,Red.png,3.0,57,,,,,,,,,,,,,,,,,
0.0,1.0,1.61006,0.0,15.0,15.0,15.0,1.0,sugar_cube_11s.jpg,0.0,Orange.png,3.0,57,,,,,,,,,,,,,,,,,
0.0,1.0,0.86006,0.0,16.0,16.0,16.0,1.0,light_switch_02s.jpg,0.0,Yellow.png,3.0,57,,,,,,,,,,,,,,,,,
0.0,1.0,1.056905,0.0,17.0,17.0,17.0,1.0,gear_07s.jpg,0.0,Green.png,3.0,57,,,,,,,,,,,,,,,,,
0.0,1.0,1.242915,0.0,18.0,18.0,18.0,1.0,tongs_08s.jpg,0.0,Blue.png,4.0,57,,,,,,,,,,,,,,,,,
0.0,1.0,1.22328,0.0,19.0,19.0,19.0,1.0,recliner_02s.jpg,0.0,Purple.png,4.0,57,,,,,,,,,,,,,,,,,
0.0,1.0,0.61372,0.0,20.0,20.0,20.0,1.0,orangutan_03s.jpg,0.0,Red.png,4.0,57,,,,,,,,,,,,,,,,,
0.0,1.0,1.43029,0.0,21.0,21.0,21.0,1.0,golf_club_03s.jpg,0.0,Orange.png,4.0,57,,,,,,,,,,,,,,,,,
0.0,1.0,1.30386,0.0,22.0,22.0,22.0,1.0,lava_02s.jpg,0.0,Yellow.png,4.0,57,,,,,,,,,,,,,,,,,
0.0,1.0,1.03723,0.0,23.0,23.0,23.0,1.0,toilet_07s.jpg,0.0,Green.png,4.0,57,,,,,,,,,,,,,,,,,
0.0,1.0,1.09336,0.0,24.0,24.0,24.0,1.0,turnstile_08s.jpg,0.0,Blue.png,5.0,57,,,,,,,,,,,,,,,,,
0.0,1.0,1.373235,0.0,25.0,25.0,25.0,1.0,turnstile_08s.jpg,0.0,Purple.png,5.0,57,,,,,,,,,,,,,,,,,
0.0,1.0,1.157065,0.0,26.0,26.0,26.0,1.0,teacup_07s.jpg,0.0,Red.png,5.0,57,,,,,,,,,,,,,,,,,
1.0,1.0,0.95697,0.0,27.0,27.0,27.0,1.0,turnstile_08s.jpg,1.0,Orange.png,5.0,57,,,,,,,,,,,,,,,,,
0.0,1.0,2.260075,0.0,28.0,28.0,28.0,1.0,turnstile_08s.jpg,0.0,Yellow.png,5.0,57,,,,,,,,,,,,,,,,,
0.0,1.0,1.393195,0.0,29.0,29.0,29.0,1.0,antenna_01b.jpg,0.0,Green.png,5.0,57,,,,,,,,,,,,,,,,,
0.0,1.0,1.29059,0.0,30.0,30.0,30.0,1.0,keyhole_03s.jpg,0.0,Blue.png,6.0,57,,,,,,,,,,,,,,,,,
0.0,1.0,1.707195,0.0,31.0,31.0,31.0,1.0,air_pump_05s.jpg,0.0,Purple.png,6.0,57,,,,,,,,,,,,,,,,,
0.0,1.0,1.566395,0.0,32.0,32.0,32.0,1.0,eggshell_14s.jpg,0.0,Red.png,6.0,57,,,,,,,,,,,,,,,,,
0.0,1.0,1.226745,0.0,33.0,33.0,33.0,1.0,eyedropper_12s.jpg,0.0,Orange.png,6.0,57,,,,,,,,,,,,,,,,,
0.0,1.0,1.15013,0.0,34.0,34.0,34.0,1.0,machete_06s.jpg,0.0,Yellow.png,6.0,57,,,,,,,,,,,,,,,,,
1.0,1.0,1.17694,0.0,35.0,35.0,35.0,1.0,eyedropper_12s.jpg,1.0,Green.png,6.0,57,,,,,,,,,,,,,,,,,
,,,,,,,,,1.0,,,57,0.0,0.0,2.001135,0.0,0.0,0.0,0.0,1.0,sugar_cube_11s.jpg,tongs_08s.jpg,,,,,,,
,,,,,,,,,1.0,,,57,1.0,1.0,2.013745,0.0,1.0,1.0,1.0,1.0,antenna_01b.jpg,eggshell_14s.jpg,,,,,,,
,,,,,,,,,1.0,,,57,0.0,0.0,2.186955,0.0,2.0,2.0,2.0,1.0,bank_06s.jpg,birdcage_08s.jpg,,,,,,,
,,,,,,,,,1.0,,,57,1.0,1.0,1.60039,0.0,3.0,3.0,3.0,1.0,air_pump_05s.jpg,machete_06s.jpg,,,,,,,
,,,,,,,,,1.0,,,57,0.0,0.0,1.57009,0.0,4.0,4.0,4.0,1.0,latch_15s.jpg,crab_16s.jpg,,,,,,,
,,,,,,,,,1.0,,,57,1.0,1.0,1.7304,0.0,5.0,5.0,5.0,1.0,spider_web_03s.jpg,light_switch_02s.jpg,,,,,,,
,,,,,,,,,,,,57,,,,,,,,,,,0.0,4.0,4.0,4.0,1.0,new2backpresent_5_2.xlsx,new2back_compare_task_5_2.xlsx
0.0,1.0,1.42194,0.0,0.0,0.0,0.0,1.0,gazelle_10s.jpg,0.0,Blue.png,1.0,57,,,,,,,,,,,,,,,,,
0.0,1.0,1.697035,0.0,1.0,1.0,1.0,1.0,saddle_06s.jpg,0.0,Purple.png,1.0,57,,,,,,,,,,,,,,,,,
0.0,1.0,1.713745,0.0,2.0,2.0,2.0,1.0,saddle_06s.jpg,0.0,Red.png,1.0,57,,,,,,,,,,,,,,,,,
0.0,1.0,1.26707,0.0,3.0,3.0,3.0,1.0,kimono_13s.jpg,0.0,Orange.png,1.0,57,,,,,,,,,,,,,,,,,
0.0,1.0,1.023645,0.0,4.0,4.0,4.0,1.0,timer_03s.jpg,0.0,Yellow.png,1.0,57,,,,,,,,,,,,,,,,,
0.0,1.0,0.97006,0.0,5.0,5.0,5.0,1.0,tulip_02s.jpg,0.0,Green.png,1.0,57,,,,,,,,,,,,,,,,,
0.0,1.0,0.920115,0.0,6.0,6.0,6.0,1.0,prism_10s.jpg,0.0,Blue.png,2.0,57,,,,,,,,,,,,,,,,,
0.0,1.0,1.186845,0.0,7.0,7.0,7.0,1.0,razor_12s.jpg,0.0,Purple.png,2.0,57,,,,,,,,,,,,,,,,,
0.0,1.0,1.333985,0.0,8.0,8.0,8.0,1.0,blazer_02s.jpg,0.0,Red.png,2.0,57,,,,,,,,,,,,,,,,,
1.0,1.0,1.726915,0.0,9.0,9.0,9.0,1.0,razor_12s.jpg,1.0,Orange.png,2.0,57,,,,,,,,,,,,,,,,,
0.0,1.0,1.31335,0.0,10.0,10.0,10.0,1.0,lamb_chop_07s.jpg,0.0,Yellow.png,2.0,57,,,,,,,,,,,,,,,,,
1.0,1.0,1.047015,0.0,11.0,11.0,11.0,1.0,razor_12s.jpg,1.0,Green.png,2.0,57,,,,,,,,,,,,,,,,,
1.0,1.0,1.31357,0.0,12.0,12.0,12.0,1.0,lamb_chop_07s.jpg,1.0,Blue.png,3.0,57,,,,,,,,,,,,,,,,,
0.0,1.0,2.066385,0.0,13.0,13.0,13.0,1.0,lamb_chop_07s.jpg,0.0,Purple.png,3.0,57,,,,,,,,,,,,,,,,,
0.0,1.0,1.040155,0.0,14.0,14.0,14.0,1.0,timer_03s.jpg,0.0,Red.png,3.0,57,,,,,,,,,,,,,,,,,
1.0,1.0,1.176415,0.0,15.0,15.0,15.0,1.0,lamb_chop_07s.jpg,1.0,Orange.png,3.0,57,,,,,,,,,,,,,,,,,
0.0,1.0,1.250565,0.0,16.0,16.0,16.0,1.0,glue_01s.jpg,0.0,Yellow.png,3.0,57,,,,,,,,,,,,,,,,,
0.0,1.0,1.253445,0.0,17.0,17.0,17.0,1.0,solar_panel_02s.jpg,0.0,Green.png,3.0,57,,,,,,,,,,,,,,,,,
0.0,1.0,1.34676,0.0,18.0,18.0,18.0,1.0,muffin_12n.jpg,0.0,Blue.png,4.0,57,,,,,,,,,,,,,,,,,
0.0,1.0,1.926725,0.0,19.0,19.0,19.0,1.0,pepper2_21s.jpg,0.0,Purple.png,4.0,57,,,,,,,,,,,,,,,,,
0.0,1.0,1.24318,0.0,20.0,20.0,20.0,1.0,marker_05s.jpg,0.0,Red.png,4.0,57,,,,,,,,,,,,,,,,,
0.0,1.0,1.180755,0.0,21.0,21.0,21.0,1.0,soccer_ball_12s.jpg,0.0,Orange.png,4.0,57,,,,,,,,,,,,,,,,,
0.0,1.0,1.080745,0.0,22.0,22.0,22.0,1.0,amber_04s.jpg,0.0,Yellow.png,4.0,57,,,,,,,,,,,,,,,,,
0.0,1.0,1.286485,0.0,23.0,23.0,23.0,1.0,stopwatch_04s.jpg,0.0,Green.png,4.0,57,,,,,,,,,,,,,,,,,
1.0,1.0,1.336685,0.0,24.0,24.0,24.0,1.0,amber_04s.jpg,1.0,Blue.png,5.0,57,,,,,,,,,,,,,,,,,
0.0,1.0,1.56663,0.0,25.0,25.0,25.0,1.0,racehorse_03s.jpg,0.0,Purple.png,5.0,57,,,,,,,,,,,,,,,,,
1.0,1.0,1.04984,0.0,26.0,26.0,26.0,1.0,amber_04s.jpg,1.0,Red.png,5.0,57,,,,,,,,,,,,,,,,,
0.0,1.0,1.163395,0.0,27.0,27.0,27.0,1.0,duck_01b.jpg,0.0,Orange.png,5.0,57,,,,,,,,,,,,,,,,,
1.0,1.0,1.43643,0.0,28.0,28.0,28.0,1.0,amber_04s.jpg,1.0,Yellow.png,5.0,57,,,,,,,,,,,,,,,,,
1.0,1.0,1.21998,0.0,29.0,29.0,29.0,1.0,duck_01b.jpg,1.0,Green.png,5.0,57,,,,,,,,,,,,,,,,,
0.0,1.0,1.40668,0.0,30.0,30.0,30.0,1.0,duck_01b.jpg,0.0,Blue.png,6.0,57,,,,,,,,,,,,,,,,,
1.0,1.0,1.026865,0.0,31.0,31.0,31.0,1.0,duck_01b.jpg,1.0,Purple.png,6.0,57,,,,,,,,,,,,,,,,,
0.0,1.0,1.08011,0.0,32.0,32.0,32.0,1.0,magnet_03s.jpg,0.0,Red.png,6.0,57,,,,,,,,,,,,,,,,,
1.0,1.0,1.256605,0.0,33.0,33.0,33.0,1.0,duck_01b.jpg,1.0,Orange.png,6.0,57,,,,,,,,,,,,,,,,,
0.0,1.0,1.34316,0.0,34.0,34.0,34.0,1.0,swimming_pool_17s.jpg,0.0,Yellow.png,6.0,57,,,,,,,,,,,,,,,,,
0.0,1.0,1.050115,0.0,35.0,35.0,35.0,1.0,roulette_wheel_04s.jpg,0.0,Green.png,6.0,57,,,,,,,,,,,,,,,,,
,,,,,,,,,0.0,,,57,1.0,0.0,2.6435,0.0,0.0,0.0,0.0,1.0,blazer_02s.jpg,tulip_02s.jpg,,,,,,,
,,,,,,,,,1.0,,,57,0.0,0.0,1.443565,0.0,1.0,1.0,1.0,1.0,glue_01s.jpg,pepper2_21s.jpg,,,,,,,
,,,,,,,,,1.0,,,57,1.0,1.0,1.77015,0.0,2.0,2.0,2.0,1.0,kimono_13s.jpg,prism_10s.jpg,,,,,,,
,,,,,,,,,0.0,,,57,0.0,1.0,1.44355,0.0,3.0,3.0,3.0,1.0,soccer_ball_12s.jpg,muffin_12n.jpg,,,,,,,
,,,,,,,,,1.0,,,57,1.0,1.0,1.420105,0.0,4.0,4.0,4.0,1.0,magnet_03s.jpg,roulette_wheel_04s.jpg,,,,,,,
,,,,,,,,,0.0,,,57,0.0,1.0,1.54331,0.0,5.0,5.0,5.0,1.0,stopwatch_04s.jpg,marker_05s.jpg,,,,,,,
,,,,,,,,,,,,57,,,,,,,,,,,0.0,5.0,5.0,5.0,1.0,new2backpresent_6_2.xlsx,new2back_compare_task_6_2.xlsx
0.0,1.0,1.589315,0.0,0.0,0.0,0.0,1.0,slingshot_07s.jpg,0.0,Blue.png,1.0,57,,,,,,,,,,,,,,,,,
0.0,1.0,2.106455,0.0,1.0,1.0,1.0,1.0,slingshot_07s.jpg,0.0,Purple.png,1.0,57,,,,,,,,,,,,,,,,,
0.0,1.0,1.23328,0.0,2.0,2.0,2.0,1.0,aluminum_foil_08s.jpg,0.0,Red.png,1.0,57,,,,,,,,,,,,,,,,,
0.0,1.0,1.90313,0.0,3.0,3.0,3.0,1.0,ink_08s.jpg,0.0,Orange.png,1.0,57,,,,,,,,,,,,,,,,,
1.0,1.0,1.33678,0.0,4.0,4.0,4.0,1.0,aluminum_foil_08s.jpg,1.0,Yellow.png,1.0,57,,,,,,,,,,,,,,,,,
0.0,1.0,1.13637,0.0,5.0,5.0,5.0,1.0,slingshot_07s.jpg,0.0,Green.png,1.0,57,,,,,,,,,,,,,,,,,
1.0,1.0,0.976425,0.0,6.0,6.0,6.0,1.0,aluminum_foil_08s.jpg,1.0,Blue.png,2.0,57,,,,,,,,,,,,,,,,,
0.0,1.0,1.246775,0.0,7.0,7.0,7.0,1.0,aluminum_foil_08s.jpg,0.0,Purple.png,2.0,57,,,,,,,,,,,,,,,,,
0.0,1.0,1.28423,0.0,8.0,8.0,8.0,1.0,ice-cream_cone_06s.jpg,0.0,Red.png,2.0,57,,,,,,,,,,,,,,,,,
0.0,1.0,1.17687,0.0,9.0,9.0,9.0,1.0,ink_08s.jpg,0.0,Orange.png,2.0,57,,,,,,,,,,,,,,,,,
0.0,1.0,1.616755,0.0,10.0,10.0,10.0,1.0,emerald_02s.jpg,0.0,Yellow.png,2.0,57,,,,,,,,,,,,,,,,,
0.0,1.0,1.126945,0.0,11.0,11.0,11.0,1.0,bathtub_23s.jpg,0.0,Green.png,2.0,57,,,,,,,,,,,,,,,,,
0.0,1.0,1.257125,0.0,12.0,12.0,12.0,1.0,bubble_01b.jpg,0.0,Blue.png,3.0,57,,,,,,,,,,,,,,,,,
0.0,1.0,1.186955,0.0,13.0,13.0,13.0,1.0,mirror_12s.jpg,0.0,Purple.png,3.0,57,,,,,,,,,,,,,,,,,
0.0,1.0,1.203785,0.0,14.0,14.0,14.0,1.0,swing_set_15s.jpg,0.0,Red.png,3.0,57,,,,,,,,,,,,,,,,,
0.0,1.0,1.306725,0.0,15.0,15.0,15.0,1.0,pinwheel_06s.jpg,0.0,Orange.png,3.0,57,,,,,,,,,,,,,,,,,
1.0,1.0,1.043135,0.0,16.0,16.0,16.0,1.0,swing_set_15s.jpg,1.0,Yellow.png,3.0,57,,,,,,,,,,,,,,,,,
1.0,1.0,1.626685,0.0,17.0,17.0,17.0,1.0,pinwheel_06s.jpg,1.0,Green.png,3.0,57,,,,,,,,,,,,,,,,,
0.0,1.0,1.283435,0.0,18.0,18.0,18.0,1.0,ink_08s.jpg,0.0,Blue.png,4.0,57,,,,,,,,,,,,,,,,,
0.0,1.0,1.06019,0.0,19.0,19.0,19.0,1.0,plunger_08s.jpg,0.0,Purple.png,4.0,57,,,,,,,,,,,,,,,,,
1.0,1.0,0.98067,0.0,20.0,20.0,20.0,1.0,ink_08s.jpg,1.0,Red.png,4.0,57,,,,,,,,,,,,,,,,,
0.0,1.0,1.266685,0.0,21.0,21.0,21.0,1.0,ink_08s.jpg,0.0,Orange.png,4.0,57,,,,,,,,,,,,,,,,,
0.0,1.0,1.33026,0.0,22.0,22.0,22.0,1.0,metronome_03s.jpg,0.0,Yellow.png,4.0,57,,,,,,,,,,,,,,,,,
0.0,1.0,1.05028,0.0,23.0,23.0,23.0,1.0,puppy_08s.jpg,0.0,Green.png,4.0,57,,,,,,,,,,,,,,,,,
0.0,1.0,1.160205,0.0,24.0,24.0,24.0,1.0,treasure_08s.jpg,0.0,Blue.png,5.0,57,,,,,,,,,,,,,,,,,
0.0,1.0,0.88673,0.0,25.0,25.0,25.0,1.0,penguin_16s.jpg,0.0,Purple.png,5.0,57,,,,,,,,,,,,,,,,,
0.0,1.0,1.063375,0.0,26.0,26.0,26.0,1.0,bacon_05s.jpg,0.0,Red.png,5.0,57,,,,,,,,,,,,,,,,,
0.0,1.0,1.10733,0.0,27.0,27.0,27.0,1.0,giraffe_11s.jpg,0.0,Orange.png,5.0,57,,,,,,,,,,,,,,,,,
0.0,1.0,1.07682,0.0,28.0,28.0,28.0,1.0,rug_09s.jpg,0.0,Yellow.png,5.0,57,,,,,,,,,,,,,,,,,
0.0,1.0,1.201205,0.0,29.0,29.0,29.0,1.0,lamp_08s.jpg,0.0,Green.png,5.0,57,,,,,,,,,,,,,,,,,
0.0,1.0,1.09991,0.0,30.0,30.0,30.0,1.0,metronome_03s.jpg,0.0,Blue.png,6.0,57,,,,,,,,,,,,,,,,,
0.0,1.0,0.976705,0.0,31.0,31.0,31.0,1.0,metronome_03s.jpg,0.0,Purple.png,6.0,57,,,,,,,,,,,,,,,,,
0.0,1.0,1.250295,0.0,32.0,32.0,32.0,1.0,lip_gloss_06s.jpg,0.0,Red.png,6.0,57,,,,,,,,,,,,,,,,,
1.0,1.0,1.26667,0.0,33.0,33.0,33.0,1.0,metronome_03s.jpg,1.0,Orange.png,6.0,57,,,,,,,,,,,,,,,,,
0.0,1.0,1.640325,0.0,34.0,34.0,34.0,1.0,laser_pointer_02s.jpg,0.0,Yellow.png,6.0,57,,,,,,,,,,,,,,,,,
1.0,1.0,1.286845,0.0,35.0,35.0,35.0,1.0,metronome_03s.jpg,1.0,Green.png,6.0,57,,,,,,,,,,,,,,,,,
,,,,,,,,,1.0,,,57,1.0,1.0,2.08277,0.0,0.0,0.0,0.0,1.0,emerald_02s.jpg,mirror_12s.jpg,,,,,,,
,,,,,,,,,1.0,,,57,1.0,1.0,2.19002,0.0,1.0,1.0,1.0,1.0,puppy_08s.jpg,bacon_05s.jpg,,,,,,,
,,,,,,,,,0.0,,,57,0.0,1.0,1.673725,0.0,2.0,2.0,2.0,1.0,lip_gloss_06s.jpg,lamp_08s.jpg,,,,,,,
,,,,,,,,,0.0,,,57,1.0,0.0,2.200285,0.0,3.0,3.0,3.0,1.0,bathtub_23s.jpg,ice-cream_cone_06s.jpg,,,,,,,
,,,,,,,,,0.0,,,57,0.0,1.0,2.254185,0.0,4.0,4.0,4.0,1.0,giraffe_11s.jpg,treasure_08s.jpg,,,,,,,
,,,,,,,,,0.0,,,57,1.0,0.0,1.816825,0.0,5.0,5.0,5.0,1.0,rug_09s.jpg,penguin_16s.jpg,,,,,,,
,,,,,,,,,,,,57,,,,,,,,,,,0.0,6.0,6.0,6.0,1.0,new2backpresent_7_2.xlsx,new2back_compare_task_7_2.xlsx
0.0,1.0,1.30798,0.0,0.0,0.0,0.0,1.0,ant_12s.jpg,0.0,Blue.png,1.0,57,,,,,,,,,,,,,,,,,
0.0,1.0,0.64076,0.0,1.0,1.0,1.0,1.0,ant_12s.jpg,0.0,Purple.png,1.0,57,,,,,,,,,,,,,,,,,
0.0,1.0,0.95004,0.0,2.0,2.0,2.0,1.0,ticktacktoe_08s.jpg,0.0,Red.png,1.0,57,,,,,,,,,,,,,,,,,
0.0,1.0,1.433865,0.0,3.0,3.0,3.0,1.0,frog_09s.jpg,0.0,Orange.png,1.0,57,,,,,,,,,,,,,,,,,
1.0,1.0,1.28675,0.0,4.0,4.0,4.0,1.0,ticktacktoe_08s.jpg,1.0,Yellow.png,1.0,57,,,,,,,,,,,,,,,,,
0.0,1.0,1.166725,0.0,5.0,5.0,5.0,1.0,feather02.jpg,0.0,Green.png,1.0,57,,,,,,,,,,,,,,,,,
0.0,1.0,1.320475,0.0,6.0,6.0,6.0,1.0,gas_mask_11s.jpg,0.0,Blue.png,2.0,57,,,,,,,,,,,,,,,,,
0.0,1.0,1.199925,0.0,7.0,7.0,7.0,1.0,gas_mask_11s.jpg,0.0,Purple.png,2.0,57,,,,,,,,,,,,,,,,,
0.0,1.0,1.073405,0.0,8.0,8.0,8.0,1.0,mop_08s.jpg,0.0,Red.png,2.0,57,,,,,,,,,,,,,,,,,
1.0,1.0,1.03681,0.0,9.0,9.0,9.0,1.0,gas_mask_11s.jpg,1.0,Orange.png,2.0,57,,,,,,,,,,,,,,,,,
0.0,1.0,1.1503,0.0,10.0,10.0,10.0,1.0,pea_11s.jpg,0.0,Yellow.png,2.0,57,,,,,,,,,,,,,,,,,
0.0,1.0,1.180015,0.0,11.0,11.0,11.0,1.0,bowler_hat_10s.jpg,0.0,Green.png,2.0,57,,,,,,,,,,,,,,,,,
0.0,1.0,1.343475,0.0,12.0,12.0,12.0,1.0,pencil_sharpener_09n.jpg,0.0,Blue.png,3.0,57,,,,,,,,,,,,,,,,,
0.0,1.0,1.37024,0.0,13.0,13.0,13.0,1.0,rice_12s.jpg,0.0,Purple.png,3.0,57,,,,,,,,,,,,,,,,,
0.0,1.0,1.11673,0.0,14.0,14.0,14.0,1.0,stamp1_11s.jpg,0.0,Red.png,3.0,57,,,,,,,,,,,,,,,,,
0.0,1.0,1.166545,0.0,15.0,15.0,15.0,1.0,jersey_02s.jpg,0.0,Orange.png,3.0,57,,,,,,,,,,,,,,,,,
0.0,1.0,1.323675,0.0,16.0,16.0,16.0,1.0,tiara_05s.jpg,0.0,Yellow.png,3.0,57,,,,,,,,,,,,,,,,,
0.0,1.0,1.080435,0.0,17.0,17.0,17.0,1.0,target_11s.jpg,0.0,Green.png,3.0,57,,,,,,,,,,,,,,,,,
0.0,1.0,1.206645,0.0,18.0,18.0,18.0,1.0,dirt_bike_11s.jpg,0.0,Blue.png,4.0,57,,,,,,,,,,,,,,,,,
0.0,1.0,1.536385,0.0,19.0,19.0,19.0,1.0,doily_13s.jpg,0.0,Purple.png,4.0,57,,,,,,,,,,,,,,,,,
0.0,1.0,1.283935,0.0,20.0,20.0,20.0,1.0,sunglasses_11s.jpg,0.0,Red.png,4.0,57,,,,,,,,,,,,,,,,,
0.0,1.0,1.12009,0.0,21.0,21.0,21.0,1.0,compass_10n.jpg,0.0,Orange.png,4.0,57,,,,,,,,,,,,,,,,,
1.0,1.0,0.960655,0.0,22.0,22.0,22.0,1.0,sunglasses_11s.jpg,1.0,Yellow.png,4.0,57,,,,,,,,,,,,,,,,,
0.0,1.0,1.334215,0.0,23.0,23.0,23.0,1.0,sunglasses_11s.jpg,0.0,Green.png,4.0,57,,,,,,,,,,,,,,,,,
0.0,1.0,1.11972,0.0,24.0,24.0,24.0,1.0,seagull_01b.jpg,0.0,Blue.png,5.0,57,,,,,,,,,,,,,,,,,
0.0,1.0,1.056705,0.0,25.0,25.0,25.0,1.0,footprint_11s.jpg,0.0,Purple.png,5.0,57,,,,,,,,,,,,,,,,,
0.0,1.0,1.43373,0.0,26.0,26.0,26.0,1.0,projector_08s.jpg,0.0,Red.png,5.0,57,,,,,,,,,,,,,,,,,
0.0,1.0,1.250335,0.0,27.0,27.0,27.0,1.0,projector_08s.jpg,0.0,Orange.png,5.0,57,,,,,,,,,,,,,,,,,
0.0,1.0,1.09037,0.0,28.0,28.0,28.0,1.0,money_07s.jpg,0.0,Yellow.png,5.0,57,,,,,,,,,,,,,,,,,
0.0,1.0,1.103335,0.0,29.0,29.0,29.0,1.0,flip_flop_03s.jpg,0.0,Green.png,5.0,57,,,,,,,,,,,,,,,,,
0.0,1.0,2.103225,0.0,30.0,30.0,30.0,1.0,ring_03s.jpg,0.0,Blue.png,6.0,57,,,,,,,,,,,,,,,,,
1.0,1.0,0.98447,0.0,31.0,31.0,31.0,1.0,flip_flop_03s.jpg,1.0,Purple.png,6.0,57,,,,,,,,,,,,,,,,,
0.0,1.0,1.656865,0.0,32.0,32.0,32.0,1.0,flip_flop_03s.jpg,0.0,Red.png,6.0,57,,,,,,,,,,,,,,,,,
1.0,1.0,0.910235,0.0,33.0,33.0,33.0,1.0,flip_flop_03s.jpg,1.0,Orange.png,6.0,57,,,,,,,,,,,,,,,,,
0.0,1.0,1.113205,0.0,34.0,34.0,34.0,1.0,screwdriver02a.jpg,0.0,Yellow.png,6.0,57,,,,,,,,,,,,,,,,,
0.0,1.0,1.18331,0.0,35.0,35.0,35.0,1.0,screwdriver02a.jpg,0.0,Green.png,6.0,57,,,,,,,,,,,,,,,,,
,,,,,,,,,0.0,,,57,1.0,0.0,3.13895,0.0,0.0,0.0,0.0,1.0,mop_08s.jpg,feather02.jpg,,,,,,,
,,,,,,,,,1.0,,,57,0.0,0.0,1.376925,0.0,1.0,1.0,1.0,1.0,pea_11s.jpg,rice_12s.jpg,,,,,,,
,,,,,,,,,1.0,,,57,1.0,1.0,1.4901,0.0,2.0,2.0,2.0,1.0,tiara_05s.jpg,doily_13s.jpg,,,,,,,
,,,,,,,,,1.0,,,57,1.0,1.0,1.506955,0.0,3.0,3.0,3.0,1.0,footprint_11s.jpg,money_07s.jpg,,,,,,,
,,,,,,,,,1.0,,,57,1.0,1.0,1.650045,0.0,4.0,4.0,4.0,1.0,pencil_sharpener_09n.jpg,jersey_02s.jpg,,,,,,,
,,,,,,,,,1.0,,,57,0.0,0.0,1.87383,0.0,5.0,5.0,5.0,1.0,stamp1_11s.jpg,target_11s.jpg,,,,,,,
,,,,,,,,,,,,57,,,,,,,,,,,0.0,7.0,7.0,7.0,1.0,new2backpresent_8_2.xlsx,new2back_compare_task_8_2.xlsx
0.0,1.0,1.36943,0.0,0.0,0.0,0.0,1.0,quilt_03s.jpg,0.0,Blue.png,1.0,57,,,,,,,,,,,,,,,,,
0.0,1.0,0.966775,0.0,1.0,1.0,1.0,1.0,stingray_02s.jpg,0.0,Purple.png,1.0,57,,,,,,,,,,,,,,,,,
0.0,1.0,0.73321,0.0,2.0,2.0,2.0,1.0,mousetrap_15n.jpg,0.0,Red.png,1.0,57,,,,,,,,,,,,,,,,,
0.0,1.0,0.58714,0.0,3.0,3.0,3.0,1.0,dashboard_02s.jpg,0.0,Orange.png,1.0,57,,,,,,,,,,,,,,,,,
0.0,1.0,0.769955,0.0,4.0,4.0,4.0,1.0,quilt_03s.jpg,0.0,Yellow.png,1.0,57,,,,,,,,,,,,,,,,,
0.0,1.0,0.633395,0.0,5.0,5.0,5.0,1.0,quilt_03s.jpg,0.0,Green.png,1.0,57,,,,,,,,,,,,,,,,,
0.0,1.0,0.73657,0.0,6.0,6.0,6.0,1.0,thorn_13s.jpg,0.0,Blue.png,2.0,57,,,,,,,,,,,,,,,,,
0.0,1.0,1.11011,0.0,7.0,7.0,7.0,1.0,mitten_10s.jpg,0.0,Purple.png,2.0,57,,,,,,,,,,,,,,,,,
0.0,1.0,1.03018,0.0,8.0,8.0,8.0,1.0,fondue_07s.jpg,0.0,Red.png,2.0,57,,,,,,,,,,,,,,,,,
0.0,1.0,1.259625,0.0,9.0,9.0,9.0,1.0,peach_04s.jpg,0.0,Orange.png,2.0,57,,,,,,,,,,,,,,,,,
0.0,1.0,0.90077,0.0,10.0,10.0,10.0,1.0,stump_02s.jpg,0.0,Yellow.png,2.0,57,,,,,,,,,,,,,,,,,
0.0,1.0,0.736745,0.0,11.0,11.0,11.0,1.0,rabbit_03s.jpg,0.0,Green.png,2.0,57,,,,,,,,,,,,,,,,,
0.0,1.0,0.66078,0.0,12.0,12.0,12.0,1.0,champagne_18s.jpg,0.0,Blue.png,3.0,57,,,,,,,,,,,,,,,,,
1.0,1.0,1.1897,0.0,13.0,13.0,13.0,1.0,rabbit_03s.jpg,1.0,Purple.png,3.0,57,,,,,,,,,,,,,,,,,
0.0,1.0,1.236565,0.0,14.0,14.0,14.0,1.0,denture_03s.jpg,0.0,Red.png,3.0,57,,,,,,,,,,,,,,,,,
1.0,1.0,1.866825,0.0,15.0,15.0,15.0,1.0,rabbit_03s.jpg,1.0,Orange.png,3.0,57,,,,,,,,,,,,,,,,,
0.0,1.0,1.24373,0.0,16.0,16.0,16.0,1.0,turtleneck_11s.jpg,0.0,Yellow.png,3.0,57,,,,,,,,,,,,,,,,,
1.0,1.0,1.22245,0.0,17.0,17.0,17.0,1.0,rabbit_03s.jpg,1.0,Green.png,3.0,57,,,,,,,,,,,,,,,,,
0.0,1.0,1.4466,0.0,18.0,18.0,18.0,1.0,typewriter_11s.jpg,0.0,Blue.png,4.0,57,,,,,,,,,,,,,,,,,
0.0,1.0,1.33368,0.0,19.0,19.0,19.0,1.0,thread_08s.jpg,0.0,Purple.png,4.0,57,,,,,,,,,,,,,,,,,
0.0,1.0,1.206795,0.0,20.0,20.0,20.0,1.0,bean_06s.jpg,0.0,Red.png,4.0,57,,,,,,,,,,,,,,,,,
0.0,1.0,1.07341,0.0,21.0,21.0,21.0,1.0,rolling_pin_02s.jpg,0.0,Orange.png,4.0,57,,,,,,,,,,,,,,,,,
0.0,1.0,1.2002,0.0,22.0,22.0,22.0,1.0,tattoo_14s.jpg,0.0,Yellow.png,4.0,57,,,,,,,,,,,,,,,,,
0.0,1.0,1.02682,0.0,23.0,23.0,23.0,1.0,eiffeltower.jpg,0.0,Green.png,4.0,57,,,,,,,,,,,,,,,,,
0.0,1.0,1.04668,0.0,24.0,24.0,24.0,1.0,fondue_07s.jpg,0.0,Blue.png,5.0,57,,,,,,,,,,,,,,,,,
0.0,1.0,1.340085,0.0,25.0,25.0,25.0,1.0,fondue_07s.jpg,0.0,Purple.png,5.0,57,,,,,,,,,,,,,,,,,
0.0,1.0,1.166735,0.0,26.0,26.0,26.0,1.0,omelet_07s.jpg,0.0,Red.png,5.0,57,,,,,,,,,,,,,,,,,
1.0,1.0,1.26022,0.0,27.0,27.0,27.0,1.0,fondue_07s.jpg,1.0,Orange.png,5.0,57,,,,,,,,,,,,,,,,,
0.0,1.0,1.1465,0.0,28.0,28.0,28.0,1.0,radio_09s.jpg,0.0,Yellow.png,5.0,57,,,,,,,,,,,,,,,,,
1.0,1.0,1.073665,0.0,29.0,29.0,29.0,1.0,fondue_07s.jpg,1.0,Green.png,5.0,57,,,,,,,,,,,,,,,,,
0.0,1.0,1.289765,0.0,30.0,30.0,30.0,1.0,roller_coaster_07s.jpg,0.0,Blue.png,6.0,57,,,,,,,,,,,,,,,,,
0.0,1.0,1.144865,0.0,31.0,31.0,31.0,1.0,loveseat_08s.jpg,0.0,Purple.png,6.0,57,,,,,,,,,,,,,,,,,
1.0,1.0,0.911225,0.0,32.0,32.0,32.0,1.0,roller_coaster_07s.jpg,1.0,Red.png,6.0,57,,,,,,,,,,,,,,,,,
0.0,1.0,1.180245,0.0,33.0,33.0,33.0,1.0,roller_coaster_07s.jpg,0.0,Orange.png,6.0,57,,,,,,,,,,,,,,,,,
,0.0,,0.0,34.0,34.0,34.0,1.0,roller_coaster_07s.jpg,1.0,Yellow.png,6.0,57,,,,,,,,,,,,,,,,,
1.0,1.0,0.83694,0.0,35.0,35.0,35.0,1.0,roller_coaster_07s.jpg,1.0,Green.png,6.0,57,,,,,,,,,,,,,,,,,
,,,,,,,,,0.0,,,57,0.0,1.0,2.14193,0.0,0.0,0.0,0.0,1.0,loveseat_08s.jpg,radio_09s.jpg,,,,,,,
,,,,,,,,,1.0,,,57,0.0,0.0,1.686705,0.0,1.0,1.0,1.0,1.0,dashboard_02s.jpg,thorn_13s.jpg,,,,,,,
,,,,,,,,,0.0,,,57,1.0,0.0,1.81024,0.0,2.0,2.0,2.0,1.0,champagne_18s.jpg,peach_04s.jpg,,,,,,,
,,,,,,,,,1.0,,,57,1.0,1.0,1.71701,0.0,3.0,3.0,3.0,1.0,mitten_10s.jpg,stump_02s.jpg,,,,,,,
,,,,,,,,,1.0,,,57,0.0,0.0,1.916735,0.0,4.0,4.0,4.0,1.0,typewriter_11s.jpg,rolling_pin_02s.jpg,,,,,,,
,,,,,,,,,1.0,,,57,0.0,0.0,1.823585,0.0,5.0,5.0,5.0,1.0,thread_08s.jpg,tattoo_14s.jpg,,,,,,,
,,,,,,,,,,,,57,,,,,,,,,,,0.0,8.0,8.0,8.0,1.0,new2backpresent_9_2.xlsx,new2back_compare_task_9_2.xlsx
