key_resp.keys,key_resp.corr,key_resp.rt,present_segment.thisRepN,present_segment.thisTrialN,present_segment.thisN,present_segment.thisIndex,present_segment.ran,pictures,answer,clock,segment,participant,key_resp_2.keys,key_resp_2.corr,key_resp_2.rt,compare_segment.thisRepN,compare_segment.thisTrialN,compare_segment.thisN,compare_segment.thisIndex,compare_segment.ran,item_a,item_b,clock_conditions.thisRepN,clock_conditions.thisTrialN,clock_conditions.thisN,clock_conditions.thisIndex,clock_conditions.ran,present,compare
0.0,1.0,1.334085,0.0,0.0,0.0,0.0,1.0,mirror_12s.jpg,0.0,Blue.png,1.0,70,,,,,,,,,,,,,,,,,
0.0,1.0,0.76899,0.0,1.0,1.0,1.0,1.0,polaroid_05s.jpg,0.0,Purple.png,1.0,70,,,,,,,,,,,,,,,,,
1.0,0.0,1.047515,0.0,2.0,2.0,2.0,1.0,polaroid_05s.jpg,0.0,Red.png,1.0,70,,,,,,,,,,,,,,,,,
0.0,1.0,0.280385,0.0,3.0,3.0,3.0,1.0,slingshot_07s.jpg,0.0,Orange.png,1.0,70,,,,,,,,,,,,,,,,,
0.0,0.0,0.42684,0.0,4.0,4.0,4.0,1.0,polaroid_05s.jpg,1.0,Yellow.png,1.0,70,,,,,,,,,,,,,,,,,
0.0,1.0,0.507645,0.0,5.0,5.0,5.0,1.0,kettle_08s.jpg,0.0,Green.png,1.0,70,,,,,,,,,,,,,,,,,
0.0,1.0,0.55829,0.0,6.0,6.0,6.0,1.0,crystal_ball_12s.jpg,0.0,Blue.png,2.0,70,,,,,,,,,,,,,,,,,
0.0,1.0,0.5418,0.0,7.0,7.0,7.0,1.0,iron_13s.jpg,0.0,Purple.png,2.0,70,,,,,,,,,,,,,,,,,
0.0,1.0,0.49545,0.0,8.0,8.0,8.0,1.0,saddle_06s.jpg,0.0,Red.png,2.0,70,,,,,,,,,,,,,,,,,
0.0,1.0,0.52677,0.0,9.0,9.0,9.0,1.0,mango_09s.jpg,0.0,Orange.png,2.0,70,,,,,,,,,,,,,,,,,
0.0,1.0,0.47231,0.0,10.0,10.0,10.0,1.0,ostrich_06s.jpg,0.0,Yellow.png,2.0,70,,,,,,,,,,,,,,,,,
0.0,1.0,0.297525,0.0,11.0,11.0,11.0,1.0,iron_13s.jpg,0.0,Green.png,2.0,70,,,,,,,,,,,,,,,,,
0.0,1.0,0.46939,0.0,12.0,12.0,12.0,1.0,stethoscope_01b.jpg,0.0,Blue.png,3.0,70,,,,,,,,,,,,,,,,,
0.0,1.0,0.54377,0.0,13.0,13.0,13.0,1.0,ruby_15s.jpg,0.0,Purple.png,3.0,70,,,,,,,,,,,,,,,,,
0.0,1.0,0.37598,0.0,14.0,14.0,14.0,1.0,mango_09s.jpg,0.0,Red.png,3.0,70,,,,,,,,,,,,,,,,,
0.0,1.0,0.57791,0.0,15.0,15.0,15.0,1.0,target_11s.jpg,0.0,Orange.png,3.0,70,,,,,,,,,,,,,,,,,
0.0,0.0,0.476845,0.0,16.0,16.0,16.0,1.0,mango_09s.jpg,1.0,Yellow.png,3.0,70,,,,,,,,,,,,,,,,,
0.0,1.0,0.538015,0.0,17.0,17.0,17.0,1.0,compass_10n.jpg,0.0,Green.png,3.0,70,,,,,,,,,,,,,,,,,
0.0,1.0,1.145485,0.0,18.0,18.0,18.0,1.0,meatball_13s.jpg,0.0,Blue.png,4.0,70,,,,,,,,,,,,,,,,,
0.0,1.0,2.45714,0.0,19.0,19.0,19.0,1.0,stapler_01b.jpg,0.0,Purple.png,4.0,70,,,,,,,,,,,,,,,,,
1.0,1.0,1.10904,0.0,20.0,20.0,20.0,1.0,meatball_13s.jpg,1.0,Red.png,4.0,70,,,,,,,,,,,,,,,,,
0.0,1.0,2.132925,0.0,21.0,21.0,21.0,1.0,pump_11s.jpg,0.0,Orange.png,4.0,70,,,,,,,,,,,,,,,,,
0.0,1.0,1.861115,0.0,22.0,22.0,22.0,1.0,coral_08s.jpg,0.0,Yellow.png,4.0,70,,,,,,,,,,,,,,,,,
0.0,1.0,2.33082,0.0,23.0,23.0,23.0,1.0,meatball_13s.jpg,0.0,Green.png,4.0,70,,,,,,,,,,,,,,,,,
0.0,1.0,0.45074,0.0,24.0,24.0,24.0,1.0,peach_04s.jpg,0.0,Blue.png,5.0,70,,,,,,,,,,,,,,,,,
0.0,0.0,0.81504,0.0,25.0,25.0,25.0,1.0,meatball_13s.jpg,1.0,Purple.png,5.0,70,,,,,,,,,,,,,,,,,
0.0,1.0,1.159965,0.0,26.0,26.0,26.0,1.0,pie_08s.jpg,0.0,Red.png,5.0,70,,,,,,,,,,,,,,,,,
0.0,1.0,0.531465,0.0,27.0,27.0,27.0,1.0,rollerskate_03s.jpg,0.0,Orange.png,5.0,70,,,,,,,,,,,,,,,,,
0.0,1.0,0.408835,0.0,28.0,28.0,28.0,1.0,trampoline_13s.jpg,0.0,Yellow.png,5.0,70,,,,,,,,,,,,,,,,,
0.0,1.0,1.663815,0.0,29.0,29.0,29.0,1.0,undershirt_02s.jpg,0.0,Green.png,5.0,70,,,,,,,,,,,,,,,,,
0.0,1.0,2.1025,0.0,30.0,30.0,30.0,1.0,thread_08s.jpg,0.0,Blue.png,6.0,70,,,,,,,,,,,,,,,,,
0.0,1.0,0.657545,0.0,31.0,31.0,31.0,1.0,megaphone_03s.jpg,0.0,Purple.png,6.0,70,,,,,,,,,,,,,,,,,
0.0,1.0,1.863025,0.0,32.0,32.0,32.0,1.0,plaster_cast_13s.jpg,0.0,Red.png,6.0,70,,,,,,,,,,,,,,,,,
0.0,1.0,0.84582,0.0,33.0,33.0,33.0,1.0,diving_board_07s.jpg,0.0,Orange.png,6.0,70,,,,,,,,,,,,,,,,,
0.0,1.0,0.32788,0.0,34.0,34.0,34.0,1.0,kayak_08s.jpg,0.0,Yellow.png,6.0,70,,,,,,,,,,,,,,,,,
0.0,0.0,0.366275,0.0,35.0,35.0,35.0,1.0,diving_board_07s.jpg,1.0,Green.png,6.0,70,,,,,,,,,,,,,,,,,
,,,,,,,,,1.0,,,70,0.0,0.0,0.427425,0.0,0.0,0.0,0.0,1.0,stapler_01b.jpg,coral_08s.jpg,,,,,,,
,,,,,,,,,1.0,,,70,1.0,1.0,0.10495,0.0,1.0,1.0,1.0,1.0,slingshot_07s.jpg,crystal_ball_12s.jpg,,,,,,,
,,,,,,,,,0.0,,,70,1.0,0.0,0.048985,0.0,2.0,2.0,2.0,1.0,saddle_06s.jpg,kettle_08s.jpg,,,,,,,
,,,,,,,,,1.0,,,70,1.0,1.0,0.02903,0.0,3.0,3.0,3.0,1.0,pie_08s.jpg,undershirt_02s.jpg,,,,,,,
,,,,,,,,,1.0,,,70,1.0,1.0,0.106575,0.0,4.0,4.0,4.0,1.0,stethoscope_01b.jpg,target_11s.jpg,,,,,,,
,,,,,,,,,1.0,,,70,0.0,0.0,0.001615,0.0,5.0,5.0,5.0,1.0,ostrich_06s.jpg,ruby_15s.jpg,,,,,,,
,,,,,,,,,,,,70,,,,,,,,,,,0.0,0.0,0.0,0.0,1.0,new2backpresent_1_4.xlsx,new2back_compare_task_1_4.xlsx
0.0,1.0,1.709345,0.0,0.0,0.0,0.0,1.0,jetski_10s.jpg,0.0,Blue.png,1.0,70,,,,,,,,,,,,,,,,,
0.0,1.0,2.038645,0.0,1.0,1.0,1.0,1.0,tripod_01b.jpg,0.0,Purple.png,1.0,70,,,,,,,,,,,,,,,,,
0.0,1.0,2.28299,0.0,2.0,2.0,2.0,1.0,lab_coat_11s.jpg,0.0,Red.png,1.0,70,,,,,,,,,,,,,,,,,
0.0,1.0,2.219465,0.0,3.0,3.0,3.0,1.0,foam_03s.jpg,0.0,Orange.png,1.0,70,,,,,,,,,,,,,,,,,
1.0,0.0,2.46676,0.0,4.0,4.0,4.0,1.0,crate_05s.jpg,0.0,Yellow.png,1.0,70,,,,,,,,,,,,,,,,,
0.0,1.0,2.393205,0.0,5.0,5.0,5.0,1.0,margarita_03s.jpg,0.0,Green.png,1.0,70,,,,,,,,,,,,,,,,,
0.0,1.0,2.38418,0.0,6.0,6.0,6.0,1.0,joystick_01b.jpg,0.0,Blue.png,2.0,70,,,,,,,,,,,,,,,,,
0.0,1.0,2.45727,0.0,7.0,7.0,7.0,1.0,giraffe_11s.jpg,0.0,Purple.png,2.0,70,,,,,,,,,,,,,,,,,
0.0,1.0,2.38081,0.0,8.0,8.0,8.0,1.0,quilt_03s.jpg,0.0,Red.png,2.0,70,,,,,,,,,,,,,,,,,
0.0,0.0,2.315715,0.0,9.0,9.0,9.0,1.0,giraffe_11s.jpg,1.0,Orange.png,2.0,70,,,,,,,,,,,,,,,,,
0.0,1.0,2.29688,0.0,10.0,10.0,10.0,1.0,pincushion_10s.jpg,0.0,Yellow.png,2.0,70,,,,,,,,,,,,,,,,,
0.0,0.0,2.42154,0.0,11.0,11.0,11.0,1.0,giraffe_11s.jpg,1.0,Green.png,2.0,70,,,,,,,,,,,,,,,,,
1.0,1.0,2.431745,0.0,12.0,12.0,12.0,1.0,pincushion_10s.jpg,1.0,Blue.png,3.0,70,,,,,,,,,,,,,,,,,
0.0,0.0,2.36451,0.0,13.0,13.0,13.0,1.0,giraffe_11s.jpg,1.0,Purple.png,3.0,70,,,,,,,,,,,,,,,,,
0.0,1.0,2.388345,0.0,14.0,14.0,14.0,1.0,rolling_pin_02s.jpg,0.0,Red.png,3.0,70,,,,,,,,,,,,,,,,,
0.0,1.0,2.24813,0.0,15.0,15.0,15.0,1.0,ticktacktoe_08s.jpg,0.0,Orange.png,3.0,70,,,,,,,,,,,,,,,,,
0.0,1.0,2.14399,0.0,16.0,16.0,16.0,1.0,giraffe_11s.jpg,0.0,Yellow.png,3.0,70,,,,,,,,,,,,,,,,,
1.0,1.0,1.718125,0.0,17.0,17.0,17.0,1.0,ticktacktoe_08s.jpg,1.0,Green.png,3.0,70,,,,,,,,,,,,,,,,,
0.0,1.0,2.11556,0.0,18.0,18.0,18.0,1.0,typewriter_11s.jpg,0.0,Blue.png,4.0,70,,,,,,,,,,,,,,,,,
0.0,1.0,2.467975,0.0,19.0,19.0,19.0,1.0,toothpaste_12s.jpg,0.0,Purple.png,4.0,70,,,,,,,,,,,,,,,,,
0.0,1.0,2.33029,0.0,20.0,20.0,20.0,1.0,hummingbird_05s.jpg,0.0,Red.png,4.0,70,,,,,,,,,,,,,,,,,
1.0,1.0,2.16817,0.0,21.0,21.0,21.0,1.0,toothpaste_12s.jpg,1.0,Orange.png,4.0,70,,,,,,,,,,,,,,,,,
0.0,1.0,2.32714,0.0,22.0,22.0,22.0,1.0,toothpaste_12s.jpg,0.0,Yellow.png,4.0,70,,,,,,,,,,,,,,,,,
0.0,1.0,2.396165,0.0,23.0,23.0,23.0,1.0,treadmill_06s.jpg,0.0,Green.png,4.0,70,,,,,,,,,,,,,,,,,
1.0,0.0,2.13564,0.0,24.0,24.0,24.0,1.0,typewriter_11s.jpg,0.0,Blue.png,5.0,70,,,,,,,,,,,,,,,,,
1.0,0.0,2.214,0.0,25.0,25.0,25.0,1.0,penguin_16s.jpg,0.0,Purple.png,5.0,70,,,,,,,,,,,,,,,,,
0.0,1.0,2.309725,0.0,26.0,26.0,26.0,1.0,olive_05s.jpg,0.0,Red.png,5.0,70,,,,,,,,,,,,,,,,,
0.0,0.0,2.346385,0.0,27.0,27.0,27.0,1.0,penguin_16s.jpg,1.0,Orange.png,5.0,70,,,,,,,,,,,,,,,,,
0.0,1.0,2.30337,0.0,28.0,28.0,28.0,1.0,penguin_16s.jpg,0.0,Yellow.png,5.0,70,,,,,,,,,,,,,,,,,
0.0,1.0,2.425815,0.0,29.0,29.0,29.0,1.0,tab_09s.jpg,0.0,Green.png,5.0,70,,,,,,,,,,,,,,,,,
1.0,0.0,2.47072,0.0,30.0,30.0,30.0,1.0,frame_06s.jpg,0.0,Blue.png,6.0,70,,,,,,,,,,,,,,,,,
0.0,1.0,2.37565,0.0,31.0,31.0,31.0,1.0,mop_08s.jpg,0.0,Purple.png,6.0,70,,,,,,,,,,,,,,,,,
1.0,0.0,2.42549,0.0,32.0,32.0,32.0,1.0,memory_stick_11s.jpg,0.0,Red.png,6.0,70,,,,,,,,,,,,,,,,,
0.0,1.0,2.46034,0.0,33.0,33.0,33.0,1.0,olive_05s.jpg,0.0,Orange.png,6.0,70,,,,,,,,,,,,,,,,,
1.0,0.0,2.34983,0.0,34.0,34.0,34.0,1.0,ravioli_08s.jpg,0.0,Yellow.png,6.0,70,,,,,,,,,,,,,,,,,
0.0,1.0,2.19597,0.0,35.0,35.0,35.0,1.0,mousetrap_15n.jpg,0.0,Green.png,6.0,70,,,,,,,,,,,,,,,,,
,,,,,,,,,1.0,,,70,0.0,0.0,0.3619,0.0,0.0,0.0,0.0,1.0,hummingbird_05s.jpg,treadmill_06s.jpg,,,,,,,
,,,,,,,,,1.0,,,70,1.0,1.0,0.055605,0.0,1.0,1.0,1.0,1.0,margarita_03s.jpg,quilt_03s.jpg,,,,,,,
,,,,,,,,,0.0,,,70,1.0,0.0,0.00512,0.0,2.0,2.0,2.0,1.0,joystick_01b.jpg,foam_03s.jpg,,,,,,,
,,,,,,,,,0.0,,,70,0.0,1.0,0.052555,0.0,3.0,3.0,3.0,1.0,ravioli_08s.jpg,mop_08s.jpg,,,,,,,
,,,,,,,,,1.0,,,70,1.0,1.0,0.004635,0.0,4.0,4.0,4.0,1.0,tab_09s.jpg,memory_stick_11s.jpg,,,,,,,
,,,,,,,,,1.0,,,70,0.0,0.0,0.00473,0.0,5.0,5.0,5.0,1.0,tripod_01b.jpg,crate_05s.jpg,,,,,,,
,,,,,,,,,,,,70,,,,,,,,,,,0.0,1.0,1.0,1.0,1.0,new2backpresent_2_4.xlsx,new2back_compare_task_2_4.xlsx
0.0,1.0,1.93289,0.0,0.0,0.0,0.0,1.0,safety_pin_02s.jpg,0.0,Blue.png,1.0,70,,,,,,,,,,,,,,,,,
0.0,1.0,2.467455,0.0,1.0,1.0,1.0,1.0,safety_pin_02s.jpg,0.0,Purple.png,1.0,70,,,,,,,,,,,,,,,,,
1.0,0.0,2.466345,0.0,2.0,2.0,2.0,1.0,cardinal_07s.jpg,0.0,Red.png,1.0,70,,,,,,,,,,,,,,,,,
0.0,0.0,2.216195,0.0,3.0,3.0,3.0,1.0,safety_pin_02s.jpg,1.0,Orange.png,1.0,70,,,,,,,,,,,,,,,,,
0.0,1.0,2.17595,0.0,4.0,4.0,4.0,1.0,potholder_02s.jpg,0.0,Yellow.png,1.0,70,,,,,,,,,,,,,,,,,
0.0,0.0,2.232085,0.0,5.0,5.0,5.0,1.0,safety_pin_02s.jpg,1.0,Green.png,1.0,70,,,,,,,,,,,,,,,,,
1.0,0.0,2.27911,0.0,6.0,6.0,6.0,1.0,cardinal_07s.jpg,0.0,Blue.png,2.0,70,,,,,,,,,,,,,,,,,
0.0,1.0,1.66115,0.0,7.0,7.0,7.0,1.0,lion_18s.jpg,0.0,Purple.png,2.0,70,,,,,,,,,,,,,,,,,
0.0,1.0,2.23193,0.0,8.0,8.0,8.0,1.0,comic_book_02s.jpg,0.0,Red.png,2.0,70,,,,,,,,,,,,,,,,,
1.0,0.0,2.32167,0.0,9.0,9.0,9.0,1.0,lizard_10n.jpg,0.0,Orange.png,2.0,70,,,,,,,,,,,,,,,,,
1.0,0.0,2.464465,0.0,10.0,10.0,10.0,1.0,rice_12s.jpg,0.0,Yellow.png,2.0,70,,,,,,,,,,,,,,,,,
1.0,0.0,2.150815,0.0,11.0,11.0,11.0,1.0,bagel_15s.jpg,0.0,Green.png,2.0,70,,,,,,,,,,,,,,,,,
1.0,0.0,2.27083,0.0,12.0,12.0,12.0,1.0,recliner_02s.jpg,0.0,Blue.png,3.0,70,,,,,,,,,,,,,,,,,
0.0,1.0,2.37208,0.0,13.0,13.0,13.0,1.0,recliner_02s.jpg,0.0,Purple.png,3.0,70,,,,,,,,,,,,,,,,,
0.0,1.0,2.252835,0.0,14.0,14.0,14.0,1.0,luggage_08s.jpg,0.0,Red.png,3.0,70,,,,,,,,,,,,,,,,,
0.0,0.0,2.318665,0.0,15.0,15.0,15.0,1.0,recliner_02s.jpg,1.0,Orange.png,3.0,70,,,,,,,,,,,,,,,,,
0.0,1.0,2.242915,0.0,16.0,16.0,16.0,1.0,onion_10s.jpg,0.0,Yellow.png,3.0,70,,,,,,,,,,,,,,,,,
0.0,1.0,2.15968,0.0,17.0,17.0,17.0,1.0,rosary_03s.jpg,0.0,Green.png,3.0,70,,,,,,,,,,,,,,,,,
0.0,1.0,2.1859,0.0,18.0,18.0,18.0,1.0,smokingpipe.jpg,0.0,Blue.png,4.0,70,,,,,,,,,,,,,,,,,
1.0,0.0,2.354725,0.0,19.0,19.0,19.0,1.0,roulette_wheel_04s.jpg,0.0,Purple.png,4.0,70,,,,,,,,,,,,,,,,,
1.0,1.0,2.209575,0.0,20.0,20.0,20.0,1.0,smokingpipe.jpg,1.0,Red.png,4.0,70,,,,,,,,,,,,,,,,,
1.0,0.0,2.296165,0.0,21.0,21.0,21.0,1.0,orchid_01b.jpg,0.0,Orange.png,4.0,70,,,,,,,,,,,,,,,,,
0.0,1.0,1.83608,0.0,22.0,22.0,22.0,1.0,buoy_04s.jpg,0.0,Yellow.png,4.0,70,,,,,,,,,,,,,,,,,
0.0,1.0,2.35947,0.0,23.0,23.0,23.0,1.0,stopwatch_04s.jpg,0.0,Green.png,4.0,70,,,,,,,,,,,,,,,,,
1.0,0.0,2.351975,0.0,24.0,24.0,24.0,1.0,knitting_needle_04s.jpg,0.0,Blue.png,5.0,70,,,,,,,,,,,,,,,,,
0.0,1.0,2.233585,0.0,25.0,25.0,25.0,1.0,prism_10s.jpg,0.0,Purple.png,5.0,70,,,,,,,,,,,,,,,,,
0.0,1.0,2.426585,0.0,26.0,26.0,26.0,1.0,teapot_03s.jpg,0.0,Red.png,5.0,70,,,,,,,,,,,,,,,,,
0.0,1.0,2.366225,0.0,27.0,27.0,27.0,1.0,fire_pit_10s.jpg,0.0,Orange.png,5.0,70,,,,,,,,,,,,,,,,,
1.0,0.0,2.31609,0.0,28.0,28.0,28.0,1.0,fire_pit_10s.jpg,0.0,Yellow.png,5.0,70,,,,,,,,,,,,,,,,,
1.0,1.0,2.43,0.0,29.0,29.0,29.0,1.0,fire_pit_10s.jpg,1.0,Green.png,5.0,70,,,,,,,,,,,,,,,,,
1.0,0.0,2.42287,0.0,30.0,30.0,30.0,1.0,ironing_board_07s.jpg,0.0,Blue.png,6.0,70,,,,,,,,,,,,,,,,,
0.0,0.0,2.22582,0.0,31.0,31.0,31.0,1.0,fire_pit_10s.jpg,1.0,Purple.png,6.0,70,,,,,,,,,,,,,,,,,
0.0,1.0,2.340505,0.0,32.0,32.0,32.0,1.0,mattress_01s.jpg,0.0,Red.png,6.0,70,,,,,,,,,,,,,,,,,
0.0,0.0,2.40818,0.0,33.0,33.0,33.0,1.0,fire_pit_10s.jpg,1.0,Orange.png,6.0,70,,,,,,,,,,,,,,,,,
0.0,0.0,2.465735,0.0,34.0,34.0,34.0,1.0,mattress_01s.jpg,1.0,Yellow.png,6.0,70,,,,,,,,,,,,,,,,,
1.0,0.0,2.326465,0.0,35.0,35.0,35.0,1.0,ice-cream_cone_06s.jpg,0.0,Green.png,6.0,70,,,,,,,,,,,,,,,,,
,,,,,,,,,1.0,,,70,0.0,0.0,0.15666,0.0,0.0,0.0,0.0,1.0,roulette_wheel_04s.jpg,buoy_04s.jpg,,,,,,,
,,,,,,,,,0.0,,,70,1.0,0.0,0.204985,0.0,1.0,1.0,1.0,1.0,lion_18s.jpg,potholder_02s.jpg,,,,,,,
,,,,,,,,,0.0,,,70,0.0,1.0,0.103585,0.0,2.0,2.0,2.0,1.0,bagel_15s.jpg,comic_book_02s.jpg,,,,,,,
,,,,,,,,,1.0,,,70,0.0,0.0,0.054415,0.0,3.0,3.0,3.0,1.0,stopwatch_04s.jpg,teapot_03s.jpg,,,,,,,
,,,,,,,,,1.0,,,70,1.0,1.0,0.065025,0.0,4.0,4.0,4.0,1.0,luggage_08s.jpg,rosary_03s.jpg,,,,,,,
,,,,,,,,,1.0,,,70,0.0,0.0,0.01916,0.0,5.0,5.0,5.0,1.0,orchid_01b.jpg,knitting_needle_04s.jpg,,,,,,,
,,,,,,,,,,,,70,,,,,,,,,,,0.0,2.0,2.0,2.0,1.0,new2backpresent_3_4.xlsx,new2back_compare_task_3_4.xlsx
0.0,1.0,2.15307,0.0,0.0,0.0,0.0,1.0,smoothie_09s.jpg,0.0,Blue.png,1.0,70,,,,,,,,,,,,,,,,,
0.0,1.0,2.24787,0.0,1.0,1.0,1.0,1.0,raspberry_12s.jpg,0.0,Purple.png,1.0,70,,,,,,,,,,,,,,,,,
0.0,1.0,1.983365,0.0,2.0,2.0,2.0,1.0,raspberry_12s.jpg,0.0,Red.png,1.0,70,,,,,,,,,,,,,,,,,
0.0,1.0,2.382645,0.0,3.0,3.0,3.0,1.0,lamb_chop_07s.jpg,0.0,Orange.png,1.0,70,,,,,,,,,,,,,,,,,
0.0,1.0,2.442095,0.0,4.0,4.0,4.0,1.0,smoothie_09s.jpg,0.0,Yellow.png,1.0,70,,,,,,,,,,,,,,,,,
0.0,1.0,1.588635,0.0,5.0,5.0,5.0,1.0,raspberry_12s.jpg,0.0,Green.png,1.0,70,,,,,,,,,,,,,,,,,
0.0,1.0,1.535565,0.0,6.0,6.0,6.0,1.0,lava_02s.jpg,0.0,Blue.png,2.0,70,,,,,,,,,,,,,,,,,
0.0,1.0,0.468365,0.0,7.0,7.0,7.0,1.0,trident_07s.jpg,0.0,Purple.png,2.0,70,,,,,,,,,,,,,,,,,
0.0,1.0,1.002275,0.0,8.0,8.0,8.0,1.0,trident_07s.jpg,0.0,Red.png,2.0,70,,,,,,,,,,,,,,,,,
0.0,0.0,0.83432,0.0,9.0,9.0,9.0,1.0,trident_07s.jpg,1.0,Orange.png,2.0,70,,,,,,,,,,,,,,,,,
0.0,1.0,0.643315,0.0,10.0,10.0,10.0,1.0,orangutan_03s.jpg,0.0,Yellow.png,2.0,70,,,,,,,,,,,,,,,,,
0.0,0.0,0.910355,0.0,11.0,11.0,11.0,1.0,trident_07s.jpg,1.0,Green.png,2.0,70,,,,,,,,,,,,,,,,,
0.0,1.0,0.842835,0.0,12.0,12.0,12.0,1.0,raspberry_12s.jpg,0.0,Blue.png,3.0,70,,,,,,,,,,,,,,,,,
1.0,1.0,0.92927,0.0,13.0,13.0,13.0,1.0,trident_07s.jpg,1.0,Purple.png,3.0,70,,,,,,,,,,,,,,,,,
0.0,1.0,0.557425,0.0,14.0,14.0,14.0,1.0,lavender_10s.jpg,0.0,Red.png,3.0,70,,,,,,,,,,,,,,,,,
0.0,1.0,0.40952,0.0,15.0,15.0,15.0,1.0,chip_04s.jpg,0.0,Orange.png,3.0,70,,,,,,,,,,,,,,,,,
0.0,1.0,0.817305,0.0,16.0,16.0,16.0,1.0,lamb_04s.jpg,0.0,Yellow.png,3.0,70,,,,,,,,,,,,,,,,,
0.0,1.0,0.554955,0.0,17.0,17.0,17.0,1.0,emerald_02s.jpg,0.0,Green.png,3.0,70,,,,,,,,,,,,,,,,,
0.0,1.0,0.53846,0.0,18.0,18.0,18.0,1.0,pineapple_12s.jpg,0.0,Blue.png,4.0,70,,,,,,,,,,,,,,,,,
0.0,1.0,0.59082,0.0,19.0,19.0,19.0,1.0,sundae_08s.jpg,0.0,Purple.png,4.0,70,,,,,,,,,,,,,,,,,
0.0,1.0,1.242645,0.0,20.0,20.0,20.0,1.0,sundae_08s.jpg,0.0,Red.png,4.0,70,,,,,,,,,,,,,,,,,
,0.0,,0.0,21.0,21.0,21.0,1.0,squirrel_02s.jpg,0.0,Orange.png,4.0,70,,,,,,,,,,,,,,,,,
0.0,1.0,0.838285,0.0,22.0,22.0,22.0,1.0,roller_coaster_07s.jpg,0.0,Yellow.png,4.0,70,,,,,,,,,,,,,,,,,
0.0,1.0,0.684015,0.0,23.0,23.0,23.0,1.0,sundae_08s.jpg,0.0,Green.png,4.0,70,,,,,,,,,,,,,,,,,
0.0,1.0,1.07675,0.0,24.0,24.0,24.0,1.0,tweezers_03s.jpg,0.0,Blue.png,5.0,70,,,,,,,,,,,,,,,,,
0.0,0.0,2.055805,0.0,25.0,25.0,25.0,1.0,sundae_08s.jpg,1.0,Purple.png,5.0,70,,,,,,,,,,,,,,,,,
1.0,0.0,2.33657,0.0,26.0,26.0,26.0,1.0,rudder_02s.jpg,0.0,Red.png,5.0,70,,,,,,,,,,,,,,,,,
0.0,1.0,2.00019,0.0,27.0,27.0,27.0,1.0,rake_06s.jpg,0.0,Orange.png,5.0,70,,,,,,,,,,,,,,,,,
0.0,1.0,1.897045,0.0,28.0,28.0,28.0,1.0,rake_06s.jpg,0.0,Yellow.png,5.0,70,,,,,,,,,,,,,,,,,
0.0,0.0,2.015805,0.0,29.0,29.0,29.0,1.0,rake_06s.jpg,1.0,Green.png,5.0,70,,,,,,,,,,,,,,,,,
0.0,1.0,1.8994,0.0,30.0,30.0,30.0,1.0,cap_05s.jpg,0.0,Blue.png,6.0,70,,,,,,,,,,,,,,,,,
0.0,1.0,2.34306,0.0,31.0,31.0,31.0,1.0,paper_towel_03s.jpg,0.0,Purple.png,6.0,70,,,,,,,,,,,,,,,,,
0.0,1.0,1.51875,0.0,32.0,32.0,32.0,1.0,toaster_03s.jpg,0.0,Red.png,6.0,70,,,,,,,,,,,,,,,,,
0.0,1.0,2.45401,0.0,33.0,33.0,33.0,1.0,money_07s.jpg,0.0,Orange.png,6.0,70,,,,,,,,,,,,,,,,,
0.0,1.0,2.396375,0.0,34.0,34.0,34.0,1.0,pinwheel_06s.jpg,0.0,Yellow.png,6.0,70,,,,,,,,,,,,,,,,,
0.0,1.0,2.309985,0.0,35.0,35.0,35.0,1.0,lid_10s.jpg,0.0,Green.png,6.0,70,,,,,,,,,,,,,,,,,
,,,,,,,,,0.0,,,70,0.0,1.0,0.498865,0.0,0.0,0.0,0.0,1.0,tweezers_03s.jpg,squirrel_02s.jpg,,,,,,,
,,,,,,,,,1.0,,,70,1.0,1.0,0.030845,0.0,1.0,1.0,1.0,1.0,chip_04s.jpg,pineapple_12s.jpg,,,,,,,
,,,,,,,,,1.0,,,70,0.0,0.0,0.158795,0.0,2.0,2.0,2.0,1.0,lamb_chop_07s.jpg,lava_02s.jpg,,,,,,,
,,,,,,,,,0.0,,,70,0.0,1.0,0.072205,0.0,3.0,3.0,3.0,1.0,pinwheel_06s.jpg,paper_towel_03s.jpg,,,,,,,
,,,,,,,,,0.0,,,70,1.0,0.0,0.05375,0.0,4.0,4.0,4.0,1.0,emerald_02s.jpg,lavender_10s.jpg,,,,,,,
,,,,,,,,,0.0,,,70,0.0,1.0,0.098785,0.0,5.0,5.0,5.0,1.0,money_07s.jpg,cap_05s.jpg,,,,,,,
,,,,,,,,,,,,70,,,,,,,,,,,0.0,3.0,3.0,3.0,1.0,new2backpresent_4_4.xlsx,new2back_compare_task_4_4.xlsx
0.0,1.0,2.443625,0.0,0.0,0.0,0.0,1.0,fur_coat_11s.jpg,0.0,Blue.png,1.0,70,,,,,,,,,,,,,,,,,
0.0,1.0,2.35506,0.0,1.0,1.0,1.0,1.0,crayon_09s.jpg,0.0,Purple.png,1.0,70,,,,,,,,,,,,,,,,,
1.0,0.0,2.260355,0.0,2.0,2.0,2.0,1.0,cobra_05s.jpg,0.0,Red.png,1.0,70,,,,,,,,,,,,,,,,,
0.0,1.0,2.047115,0.0,3.0,3.0,3.0,1.0,raccoon_02s.jpg,0.0,Orange.png,1.0,70,,,,,,,,,,,,,,,,,
0.0,1.0,2.36944,0.0,4.0,4.0,4.0,1.0,soda_fountain_03s.jpg,0.0,Yellow.png,1.0,70,,,,,,,,,,,,,,,,,
0.0,0.0,2.293105,0.0,5.0,5.0,5.0,1.0,raccoon_02s.jpg,1.0,Green.png,1.0,70,,,,,,,,,,,,,,,,,
0.0,1.0,1.534885,0.0,6.0,6.0,6.0,1.0,feather02.jpg,0.0,Blue.png,2.0,70,,,,,,,,,,,,,,,,,
0.0,0.0,2.174185,0.0,7.0,7.0,7.0,1.0,raccoon_02s.jpg,1.0,Purple.png,2.0,70,,,,,,,,,,,,,,,,,
1.0,1.0,2.277575,0.0,8.0,8.0,8.0,1.0,feather02.jpg,1.0,Red.png,2.0,70,,,,,,,,,,,,,,,,,
0.0,1.0,2.305215,0.0,9.0,9.0,9.0,1.0,rug_09s.jpg,0.0,Orange.png,2.0,70,,,,,,,,,,,,,,,,,
0.0,0.0,2.45219,0.0,10.0,10.0,10.0,1.0,feather02.jpg,1.0,Yellow.png,2.0,70,,,,,,,,,,,,,,,,,
0.0,1.0,2.228455,0.0,11.0,11.0,11.0,1.0,cushion_08s.jpg,0.0,Green.png,2.0,70,,,,,,,,,,,,,,,,,
1.0,1.0,2.29379,0.0,12.0,12.0,12.0,1.0,feather02.jpg,1.0,Blue.png,3.0,70,,,,,,,,,,,,,,,,,
1.0,0.0,2.267645,0.0,13.0,13.0,13.0,1.0,feather02.jpg,0.0,Purple.png,3.0,70,,,,,,,,,,,,,,,,,
0.0,1.0,2.32587,0.0,14.0,14.0,14.0,1.0,ice_pack_09s.jpg,0.0,Red.png,3.0,70,,,,,,,,,,,,,,,,,
1.0,0.0,2.398225,0.0,15.0,15.0,15.0,1.0,ice_pack_09s.jpg,0.0,Orange.png,3.0,70,,,,,,,,,,,,,,,,,
1.0,0.0,2.45009,0.0,16.0,16.0,16.0,1.0,loom_05s.jpg,0.0,Yellow.png,3.0,70,,,,,,,,,,,,,,,,,
0.0,0.0,2.30631,0.0,17.0,17.0,17.0,1.0,ice_pack_09s.jpg,1.0,Green.png,3.0,70,,,,,,,,,,,,,,,,,
0.0,1.0,2.35343,0.0,18.0,18.0,18.0,1.0,ice_pack_09s.jpg,0.0,Blue.png,4.0,70,,,,,,,,,,,,,,,,,
1.0,1.0,2.364975,0.0,19.0,19.0,19.0,1.0,ice_pack_09s.jpg,1.0,Purple.png,4.0,70,,,,,,,,,,,,,,,,,
1.0,1.0,2.28279,0.0,20.0,20.0,20.0,1.0,ice_pack_09s.jpg,1.0,Red.png,4.0,70,,,,,,,,,,,,,,,,,
0.0,1.0,2.34465,0.0,21.0,21.0,21.0,1.0,blazer_02s.jpg,0.0,Orange.png,4.0,70,,,,,,,,,,,,,,,,,
0.0,1.0,2.39926,0.0,22.0,22.0,22.0,1.0,penlight_12s.jpg,0.0,Yellow.png,4.0,70,,,,,,,,,,,,,,,,,
0.0,1.0,2.45895,0.0,23.0,23.0,23.0,1.0,swan_11s.jpg,0.0,Green.png,4.0,70,,,,,,,,,,,,,,,,,
0.0,1.0,1.849515,0.0,24.0,24.0,24.0,1.0,plunger_08s.jpg,0.0,Blue.png,5.0,70,,,,,,,,,,,,,,,,,
1.0,0.0,2.39644,0.0,25.0,25.0,25.0,1.0,bottle_opener_11s.jpg,0.0,Purple.png,5.0,70,,,,,,,,,,,,,,,,,
0.0,1.0,2.384405,0.0,26.0,26.0,26.0,1.0,checkbook_11s.jpg,0.0,Red.png,5.0,70,,,,,,,,,,,,,,,,,
1.0,0.0,2.31586,0.0,27.0,27.0,27.0,1.0,ink_08s.jpg,0.0,Orange.png,5.0,70,,,,,,,,,,,,,,,,,
0.0,1.0,1.381285,0.0,28.0,28.0,28.0,1.0,plunger_08s.jpg,0.0,Yellow.png,5.0,70,,,,,,,,,,,,,,,,,
1.0,0.0,2.092215,0.0,29.0,29.0,29.0,1.0,pencil02a.jpg,0.0,Green.png,5.0,70,,,,,,,,,,,,,,,,,
0.0,1.0,2.218715,0.0,30.0,30.0,30.0,1.0,ginger_09s.jpg,0.0,Blue.png,6.0,70,,,,,,,,,,,,,,,,,
1.0,0.0,2.342445,0.0,31.0,31.0,31.0,1.0,taxi_15s.jpg,0.0,Purple.png,6.0,70,,,,,,,,,,,,,,,,,
0.0,1.0,2.320605,0.0,32.0,32.0,32.0,1.0,toy_04s.jpg,0.0,Red.png,6.0,70,,,,,,,,,,,,,,,,,
0.0,1.0,2.204815,0.0,33.0,33.0,33.0,1.0,blowfish_03s.jpg,0.0,Orange.png,6.0,70,,,,,,,,,,,,,,,,,
1.0,0.0,2.048655,0.0,34.0,34.0,34.0,1.0,toilet_paper_12s.jpg,0.0,Yellow.png,6.0,70,,,,,,,,,,,,,,,,,
0.0,1.0,0.744395,0.0,35.0,35.0,35.0,1.0,puddle_02s.jpg,0.0,Green.png,6.0,70,,,,,,,,,,,,,,,,,
,,,,,,,,,1.0,,,70,1.0,1.0,2.636755,0.0,0.0,0.0,0.0,1.0,ink_08s.jpg,ginger_09s.jpg,,,,,,,
,,,,,,,,,0.0,,,70,0.0,1.0,0.001845,0.0,1.0,1.0,1.0,1.0,puddle_02s.jpg,toy_04s.jpg,,,,,,,
,,,,,,,,,0.0,,,70,0.0,1.0,0.033955,0.0,2.0,2.0,2.0,1.0,bottle_opener_11s.jpg,penlight_12s.jpg,,,,,,,
,,,,,,,,,0.0,,,70,0.0,1.0,0.06386,0.0,3.0,3.0,3.0,1.0,checkbook_11s.jpg,swan_11s.jpg,,,,,,,
,,,,,,,,,1.0,,,70,0.0,0.0,0.03622,0.0,4.0,4.0,4.0,1.0,taxi_15s.jpg,toilet_paper_12s.jpg,,,,,,,
,,,,,,,,,1.0,,,70,1.0,1.0,0.00057,0.0,5.0,5.0,5.0,1.0,crayon_09s.jpg,soda_fountain_03s.jpg,,,,,,,
,,,,,,,,,,,,70,,,,,,,,,,,0.0,4.0,4.0,4.0,1.0,new2backpresent_5_4.xlsx,new2back_compare_task_5_4.xlsx
0.0,1.0,2.008635,0.0,0.0,0.0,0.0,1.0,flask_04s.jpg,0.0,Blue.png,1.0,70,,,,,,,,,,,,,,,,,
1.0,0.0,2.39656,0.0,1.0,1.0,1.0,1.0,kimono_13s.jpg,0.0,Purple.png,1.0,70,,,,,,,,,,,,,,,,,
0.0,1.0,2.31242,0.0,2.0,2.0,2.0,1.0,limousine_12s.jpg,0.0,Red.png,1.0,70,,,,,,,,,,,,,,,,,
0.0,1.0,2.395245,0.0,3.0,3.0,3.0,1.0,lectern_08s.jpg,0.0,Orange.png,1.0,70,,,,,,,,,,,,,,,,,
1.0,0.0,0.305165,0.0,4.0,4.0,4.0,1.0,kimono_13s.jpg,0.0,Yellow.png,1.0,70,,,,,,,,,,,,,,,,,
,0.0,,0.0,5.0,5.0,5.0,1.0,doily_13s.jpg,0.0,Green.png,1.0,70,,,,,,,,,,,,,,,,,
,0.0,,0.0,6.0,6.0,6.0,1.0,kimono_13s.jpg,1.0,Blue.png,2.0,70,,,,,,,,,,,,,,,,,
0.0,1.0,2.4651,0.0,7.0,7.0,7.0,1.0,razor_blade_01b.jpg,0.0,Purple.png,2.0,70,,,,,,,,,,,,,,,,,
0.0,1.0,2.325535,0.0,8.0,8.0,8.0,1.0,razor_blade_01b.jpg,0.0,Red.png,2.0,70,,,,,,,,,,,,,,,,,
1.0,0.0,2.425525,0.0,9.0,9.0,9.0,1.0,champagne_18s.jpg,0.0,Orange.png,2.0,70,,,,,,,,,,,,,,,,,
1.0,0.0,2.30104,0.0,10.0,10.0,10.0,1.0,stamp1_11s.jpg,0.0,Yellow.png,2.0,70,,,,,,,,,,,,,,,,,
0.0,0.0,2.203585,0.0,11.0,11.0,11.0,1.0,champagne_18s.jpg,1.0,Green.png,2.0,70,,,,,,,,,,,,,,,,,
0.0,1.0,0.425435,0.0,12.0,12.0,12.0,1.0,crossbow_10s.jpg,0.0,Blue.png,3.0,70,,,,,,,,,,,,,,,,,
,0.0,,0.0,13.0,13.0,13.0,1.0,briefcase_03s.jpg,0.0,Purple.png,3.0,70,,,,,,,,,,,,,,,,,
,0.0,,0.0,14.0,14.0,14.0,1.0,jersey_02s.jpg,0.0,Red.png,3.0,70,,,,,,,,,,,,,,,,,
,0.0,,0.0,15.0,15.0,15.0,1.0,briefcase_03s.jpg,1.0,Orange.png,3.0,70,,,,,,,,,,,,,,,,,
,0.0,,0.0,16.0,16.0,16.0,1.0,oil_02s.jpg,0.0,Yellow.png,3.0,70,,,,,,,,,,,,,,,,,
,0.0,,0.0,17.0,17.0,17.0,1.0,tinsel_12s.jpg,0.0,Green.png,3.0,70,,,,,,,,,,,,,,,,,
,0.0,,0.0,18.0,18.0,18.0,1.0,flask_04s.jpg,0.0,Blue.png,4.0,70,,,,,,,,,,,,,,,,,
,0.0,,0.0,19.0,19.0,19.0,1.0,fork_04s.jpg,0.0,Purple.png,4.0,70,,,,,,,,,,,,,,,,,
,0.0,,0.0,20.0,20.0,20.0,1.0,purse_05s.jpg,0.0,Red.png,4.0,70,,,,,,,,,,,,,,,,,
,0.0,,0.0,21.0,21.0,21.0,1.0,flask_04s.jpg,0.0,Orange.png,4.0,70,,,,,,,,,,,,,,,,,
,0.0,,0.0,22.0,22.0,22.0,1.0,sledgehammer_03s.jpg,0.0,Yellow.png,4.0,70,,,,,,,,,,,,,,,,,
,0.0,,0.0,23.0,23.0,23.0,1.0,turf_03s.jpg,0.0,Green.png,4.0,70,,,,,,,,,,,,,,,,,
,0.0,,0.0,24.0,24.0,24.0,1.0,omelet_07s.jpg,0.0,Blue.png,5.0,70,,,,,,,,,,,,,,,,,
,0.0,,0.0,25.0,25.0,25.0,1.0,turf_03s.jpg,1.0,Purple.png,5.0,70,,,,,,,,,,,,,,,,,
,0.0,,0.0,26.0,26.0,26.0,1.0,clover_04s.jpg,0.0,Red.png,5.0,70,,,,,,,,,,,,,,,,,
,0.0,,0.0,27.0,27.0,27.0,1.0,lip_gloss_06s.jpg,0.0,Orange.png,5.0,70,,,,,,,,,,,,,,,,,
,0.0,,0.0,28.0,28.0,28.0,1.0,amber_04s.jpg,0.0,Yellow.png,5.0,70,,,,,,,,,,,,,,,,,
,0.0,,0.0,29.0,29.0,29.0,1.0,tortilla_06s.jpg,0.0,Green.png,5.0,70,,,,,,,,,,,,,,,,,
0.0,1.0,2.40575,0.0,30.0,30.0,30.0,1.0,razor_blade_01b.jpg,0.0,Blue.png,6.0,70,,,,,,,,,,,,,,,,,
0.0,1.0,2.35187,0.0,31.0,31.0,31.0,1.0,tape_measure_11s.jpg,0.0,Purple.png,6.0,70,,,,,,,,,,,,,,,,,
0.0,0.0,2.26938,0.0,32.0,32.0,32.0,1.0,razor_blade_01b.jpg,1.0,Red.png,6.0,70,,,,,,,,,,,,,,,,,
1.0,0.0,2.20618,0.0,33.0,33.0,33.0,1.0,razor_blade_01b.jpg,0.0,Orange.png,6.0,70,,,,,,,,,,,,,,,,,
,0.0,,0.0,34.0,34.0,34.0,1.0,stingray_02s.jpg,0.0,Yellow.png,6.0,70,,,,,,,,,,,,,,,,,
0.0,1.0,2.39055,0.0,35.0,35.0,35.0,1.0,harpoon.jpg,0.0,Green.png,6.0,70,,,,,,,,,,,,,,,,,
,,,,,,,,,1.0,,,70,0.0,0.0,0.356075,0.0,0.0,0.0,0.0,1.0,oil_02s.jpg,fork_04s.jpg,,,,,,,
,,,,,,,,,0.0,,,70,0.0,1.0,0.03522,0.0,1.0,1.0,1.0,1.0,doily_13s.jpg,limousine_12s.jpg,,,,,,,
,,,,,,,,,0.0,,,70,0.0,1.0,0.00891,0.0,2.0,2.0,2.0,1.0,lip_gloss_06s.jpg,omelet_07s.jpg,,,,,,,
,,,,,,,,,0.0,,,70,0.0,1.0,0.02732,0.0,3.0,3.0,3.0,1.0,tape_measure_11s.jpg,amber_04s.jpg,,,,,,,
,,,,,,,,,0.0,,,70,0.0,1.0,0.0763,0.0,4.0,4.0,4.0,1.0,tortilla_06s.jpg,clover_04s.jpg,,,,,,,
,,,,,,,,,0.0,,,70,0.0,1.0,0.012675,0.0,5.0,5.0,5.0,1.0,purse_05s.jpg,tinsel_12s.jpg,,,,,,,
,,,,,,,,,,,,70,,,,,,,,,,,0.0,5.0,5.0,5.0,1.0,new2backpresent_6_4.xlsx,new2back_compare_task_6_4.xlsx
1.0,0.0,1.26078,0.0,0.0,0.0,0.0,1.0,butter_14s.jpg,0.0,Blue.png,1.0,70,,,,,,,,,,,,,,,,,
0.0,1.0,2.42849,0.0,1.0,1.0,1.0,1.0,butter_14s.jpg,0.0,Purple.png,1.0,70,,,,,,,,,,,,,,,,,
1.0,1.0,2.440185,0.0,2.0,2.0,2.0,1.0,butter_14s.jpg,1.0,Red.png,1.0,70,,,,,,,,,,,,,,,,,
0.0,1.0,0.956555,0.0,3.0,3.0,3.0,1.0,stamp2_08s.jpg,0.0,Orange.png,1.0,70,,,,,,,,,,,,,,,,,
0.0,1.0,1.99257,0.0,4.0,4.0,4.0,1.0,kangaroo_02s.jpg,0.0,Yellow.png,1.0,70,,,,,,,,,,,,,,,,,
0.0,1.0,1.88746,0.0,5.0,5.0,5.0,1.0,camcorder_10s.jpg,0.0,Green.png,1.0,70,,,,,,,,,,,,,,,,,
0.0,1.0,2.42989,0.0,6.0,6.0,6.0,1.0,bank_06s.jpg,0.0,Blue.png,2.0,70,,,,,,,,,,,,,,,,,
0.0,1.0,2.27624,0.0,7.0,7.0,7.0,1.0,gear_07s.jpg,0.0,Purple.png,2.0,70,,,,,,,,,,,,,,,,,
0.0,0.0,2.12885,0.0,8.0,8.0,8.0,1.0,bank_06s.jpg,1.0,Red.png,2.0,70,,,,,,,,,,,,,,,,,
0.0,1.0,2.275805,0.0,9.0,9.0,9.0,1.0,funnel_01b.jpg,0.0,Orange.png,2.0,70,,,,,,,,,,,,,,,,,
0.0,1.0,2.15594,0.0,10.0,10.0,10.0,1.0,poinsettia_04s.jpg,0.0,Yellow.png,2.0,70,,,,,,,,,,,,,,,,,
0.0,0.0,2.139565,0.0,11.0,11.0,11.0,1.0,funnel_01b.jpg,1.0,Green.png,2.0,70,,,,,,,,,,,,,,,,,
0.0,1.0,0.7753,0.0,12.0,12.0,12.0,1.0,rooster_03s.jpg,0.0,Blue.png,3.0,70,,,,,,,,,,,,,,,,,
0.0,1.0,2.262495,0.0,13.0,13.0,13.0,1.0,denture_03s.jpg,0.0,Purple.png,3.0,70,,,,,,,,,,,,,,,,,
0.0,1.0,2.34351,0.0,14.0,14.0,14.0,1.0,bean_06s.jpg,0.0,Red.png,3.0,70,,,,,,,,,,,,,,,,,
0.0,1.0,1.557835,0.0,15.0,15.0,15.0,1.0,mud_13s.jpg,0.0,Orange.png,3.0,70,,,,,,,,,,,,,,,,,
0.0,1.0,2.22045,0.0,16.0,16.0,16.0,1.0,keyhole_03s.jpg,0.0,Yellow.png,3.0,70,,,,,,,,,,,,,,,,,
0.0,1.0,2.188605,0.0,17.0,17.0,17.0,1.0,bean_06s.jpg,0.0,Green.png,3.0,70,,,,,,,,,,,,,,,,,
0.0,1.0,2.22437,0.0,18.0,18.0,18.0,1.0,bank_06s.jpg,0.0,Blue.png,4.0,70,,,,,,,,,,,,,,,,,
0.0,1.0,2.08697,0.0,19.0,19.0,19.0,1.0,pomegranate_04s.jpg,0.0,Purple.png,4.0,70,,,,,,,,,,,,,,,,,
0.0,1.0,2.189475,0.0,20.0,20.0,20.0,1.0,chopsticks_08s.jpg,0.0,Red.png,4.0,70,,,,,,,,,,,,,,,,,
0.0,1.0,2.249315,0.0,21.0,21.0,21.0,1.0,contact_lens_15s.jpg,0.0,Orange.png,4.0,70,,,,,,,,,,,,,,,,,
0.0,1.0,2.2899,0.0,22.0,22.0,22.0,1.0,hydrant_10s.jpg,0.0,Yellow.png,4.0,70,,,,,,,,,,,,,,,,,
0.0,1.0,2.14242,0.0,23.0,23.0,23.0,1.0,gingerbread_man_03s.jpg,0.0,Green.png,4.0,70,,,,,,,,,,,,,,,,,
0.0,1.0,2.276435,0.0,24.0,24.0,24.0,1.0,camcorder_10s.jpg,0.0,Blue.png,5.0,70,,,,,,,,,,,,,,,,,
0.0,1.0,2.192905,0.0,25.0,25.0,25.0,1.0,teabag_12s.jpg,0.0,Purple.png,5.0,70,,,,,,,,,,,,,,,,,
0.0,1.0,2.410505,0.0,26.0,26.0,26.0,1.0,radiator_05s.jpg,0.0,Red.png,5.0,70,,,,,,,,,,,,,,,,,
0.0,1.0,2.16646,0.0,27.0,27.0,27.0,1.0,punch1_10s.jpg,0.0,Orange.png,5.0,70,,,,,,,,,,,,,,,,,
0.0,1.0,1.024675,0.0,28.0,28.0,28.0,1.0,mailbox_11s.jpg,0.0,Yellow.png,5.0,70,,,,,,,,,,,,,,,,,
0.0,1.0,1.96304,0.0,29.0,29.0,29.0,1.0,beaker_01b.jpg,0.0,Green.png,5.0,70,,,,,,,,,,,,,,,,,
0.0,0.0,2.119335,0.0,30.0,30.0,30.0,1.0,mailbox_11s.jpg,1.0,Blue.png,6.0,70,,,,,,,,,,,,,,,,,
0.0,1.0,2.238875,0.0,31.0,31.0,31.0,1.0,pipe1_10s.jpg,0.0,Purple.png,6.0,70,,,,,,,,,,,,,,,,,
0.0,0.0,2.19008,0.0,32.0,32.0,32.0,1.0,mailbox_11s.jpg,1.0,Red.png,6.0,70,,,,,,,,,,,,,,,,,
0.0,0.0,2.19118,0.0,33.0,33.0,33.0,1.0,pipe1_10s.jpg,1.0,Orange.png,6.0,70,,,,,,,,,,,,,,,,,
0.0,1.0,2.425575,0.0,34.0,34.0,34.0,1.0,eyedropper_12s.jpg,0.0,Yellow.png,6.0,70,,,,,,,,,,,,,,,,,
0.0,1.0,2.282865,0.0,35.0,35.0,35.0,1.0,rhubarb_03s.jpg,0.0,Green.png,6.0,70,,,,,,,,,,,,,,,,,
,,,,,,,,,0.0,,,70,1.0,0.0,1.51876,0.0,0.0,0.0,0.0,1.0,mud_13s.jpg,rooster_03s.jpg,,,,,,,
,,,,,,,,,1.0,,,70,1.0,1.0,0.052155,0.0,1.0,1.0,1.0,1.0,chopsticks_08s.jpg,gingerbread_man_03s.jpg,,,,,,,
,,,,,,,,,0.0,,,70,1.0,0.0,0.00126,0.0,2.0,2.0,2.0,1.0,beaker_01b.jpg,radiator_05s.jpg,,,,,,,
,,,,,,,,,0.0,,,70,0.0,1.0,0.092435,0.0,3.0,3.0,3.0,1.0,teabag_12s.jpg,hydrant_10s.jpg,,,,,,,
,,,,,,,,,0.0,,,70,0.0,1.0,0.01517,0.0,4.0,4.0,4.0,1.0,denture_03s.jpg,poinsettia_04s.jpg,,,,,,,
,,,,,,,,,1.0,,,70,0.0,0.0,0.048195,0.0,5.0,5.0,5.0,1.0,kangaroo_02s.jpg,gear_07s.jpg,,,,,,,
,,,,,,,,,,,,70,,,,,,,,,,,0.0,6.0,6.0,6.0,1.0,new2backpresent_7_4.xlsx,new2back_compare_task_7_4.xlsx
0.0,1.0,1.47117,0.0,0.0,0.0,0.0,1.0,lamppost_09s.jpg,0.0,Blue.png,1.0,70,,,,,,,,,,,,,,,,,
0.0,1.0,2.195195,0.0,1.0,1.0,1.0,1.0,jewel_01b.jpg,0.0,Purple.png,1.0,70,,,,,,,,,,,,,,,,,
0.0,1.0,1.87248,0.0,2.0,2.0,2.0,1.0,tuxedo_01b.jpg,0.0,Red.png,1.0,70,,,,,,,,,,,,,,,,,
0.0,1.0,2.167875,0.0,3.0,3.0,3.0,1.0,flip_flop_03s.jpg,0.0,Orange.png,1.0,70,,,,,,,,,,,,,,,,,
0.0,1.0,2.07978,0.0,4.0,4.0,4.0,1.0,medal_04s.jpg,0.0,Yellow.png,1.0,70,,,,,,,,,,,,,,,,,
0.0,0.0,1.2144,0.0,5.0,5.0,5.0,1.0,flip_flop_03s.jpg,1.0,Green.png,1.0,70,,,,,,,,,,,,,,,,,
0.0,1.0,2.124755,0.0,6.0,6.0,6.0,1.0,tuxedo_01b.jpg,0.0,Blue.png,2.0,70,,,,,,,,,,,,,,,,,
0.0,0.0,2.02896,0.0,7.0,7.0,7.0,1.0,flip_flop_03s.jpg,1.0,Purple.png,2.0,70,,,,,,,,,,,,,,,,,
0.0,1.0,2.141485,0.0,8.0,8.0,8.0,1.0,fireworks_18s.jpg,0.0,Red.png,2.0,70,,,,,,,,,,,,,,,,,
0.0,1.0,2.441735,0.0,9.0,9.0,9.0,1.0,squirt_gun_03s.jpg,0.0,Orange.png,2.0,70,,,,,,,,,,,,,,,,,
0.0,1.0,2.34198,0.0,10.0,10.0,10.0,1.0,flip_flop_03s.jpg,0.0,Yellow.png,2.0,70,,,,,,,,,,,,,,,,,
0.0,1.0,2.35781,0.0,11.0,11.0,11.0,1.0,puffin_19s.jpg,0.0,Green.png,2.0,70,,,,,,,,,,,,,,,,,
0.0,1.0,2.420235,0.0,12.0,12.0,12.0,1.0,tuxedo_01b.jpg,0.0,Blue.png,3.0,70,,,,,,,,,,,,,,,,,
0.0,1.0,2.2956,0.0,13.0,13.0,13.0,1.0,tuxedo_01b.jpg,0.0,Purple.png,3.0,70,,,,,,,,,,,,,,,,,
0.0,1.0,2.30296,0.0,14.0,14.0,14.0,1.0,snowman_02s.jpg,0.0,Red.png,3.0,70,,,,,,,,,,,,,,,,,
0.0,1.0,2.410625,0.0,15.0,15.0,15.0,1.0,cucumber_07s.jpg,0.0,Orange.png,3.0,70,,,,,,,,,,,,,,,,,
0.0,1.0,2.15542,0.0,16.0,16.0,16.0,1.0,plug_08s.jpg,0.0,Yellow.png,3.0,70,,,,,,,,,,,,,,,,,
0.0,0.0,2.379105,0.0,17.0,17.0,17.0,1.0,cucumber_07s.jpg,1.0,Green.png,3.0,70,,,,,,,,,,,,,,,,,
0.0,1.0,2.41145,0.0,18.0,18.0,18.0,1.0,puffin_19s.jpg,0.0,Blue.png,4.0,70,,,,,,,,,,,,,,,,,
0.0,1.0,2.34149,0.0,19.0,19.0,19.0,1.0,fondue_07s.jpg,0.0,Purple.png,4.0,70,,,,,,,,,,,,,,,,,
0.0,1.0,2.333655,0.0,20.0,20.0,20.0,1.0,lasagna_06s.jpg,0.0,Red.png,4.0,70,,,,,,,,,,,,,,,,,
0.0,1.0,2.210005,0.0,21.0,21.0,21.0,1.0,eiffeltower.jpg,0.0,Orange.png,4.0,70,,,,,,,,,,,,,,,,,
0.0,1.0,2.395715,0.0,22.0,22.0,22.0,1.0,outlet_10s.jpg,0.0,Yellow.png,4.0,70,,,,,,,,,,,,,,,,,
0.0,1.0,2.25861,0.0,23.0,23.0,23.0,1.0,cape_11s.jpg,0.0,Green.png,4.0,70,,,,,,,,,,,,,,,,,
0.0,1.0,2.30789,0.0,24.0,24.0,24.0,1.0,marshmallow_08s.jpg,0.0,Blue.png,5.0,70,,,,,,,,,,,,,,,,,
0.0,1.0,2.323195,0.0,25.0,25.0,25.0,1.0,racehorse_03s.jpg,0.0,Purple.png,5.0,70,,,,,,,,,,,,,,,,,
0.0,1.0,2.129195,0.0,26.0,26.0,26.0,1.0,aluminum_foil_08s.jpg,0.0,Red.png,5.0,70,,,,,,,,,,,,,,,,,
0.0,1.0,2.138195,0.0,27.0,27.0,27.0,1.0,spoon02a.jpg,0.0,Orange.png,5.0,70,,,,,,,,,,,,,,,,,
0.0,1.0,2.04714,0.0,28.0,28.0,28.0,1.0,padlock_07s.jpg,0.0,Yellow.png,5.0,70,,,,,,,,,,,,,,,,,
0.0,1.0,2.327905,0.0,29.0,29.0,29.0,1.0,solar_panel_02s.jpg,0.0,Green.png,5.0,70,,,,,,,,,,,,,,,,,
1.0,0.0,2.061005,0.0,30.0,30.0,30.0,1.0,turtleneck_11s.jpg,0.0,Blue.png,6.0,70,,,,,,,,,,,,,,,,,
1.0,0.0,2.275085,0.0,31.0,31.0,31.0,1.0,pocketknife_12s.jpg,0.0,Purple.png,6.0,70,,,,,,,,,,,,,,,,,
0.0,1.0,2.07304,0.0,32.0,32.0,32.0,1.0,pocketknife_12s.jpg,0.0,Red.png,6.0,70,,,,,,,,,,,,,,,,,
1.0,0.0,1.6075,0.0,33.0,33.0,33.0,1.0,quill_09s.jpg,0.0,Orange.png,6.0,70,,,,,,,,,,,,,,,,,
0.0,1.0,2.27286,0.0,34.0,34.0,34.0,1.0,quill_09s.jpg,0.0,Yellow.png,6.0,70,,,,,,,,,,,,,,,,,
1.0,0.0,2.28147,0.0,35.0,35.0,35.0,1.0,pocketknife_12s.jpg,0.0,Green.png,6.0,70,,,,,,,,,,,,,,,,,
,,,,,,,,,0.0,,,70,1.0,0.0,3.65154,0.0,0.0,0.0,0.0,1.0,cape_11s.jpg,lasagna_06s.jpg,,,,,,,
,,,,,,,,,0.0,,,70,1.0,0.0,0.018125,0.0,1.0,1.0,1.0,1.0,padlock_07s.jpg,racehorse_03s.jpg,,,,,,,
,,,,,,,,,1.0,,,70,0.0,0.0,0.08602,0.0,2.0,2.0,2.0,1.0,spoon02a.jpg,turtleneck_11s.jpg,,,,,,,
,,,,,,,,,0.0,,,70,0.0,1.0,0.09204,0.0,3.0,3.0,3.0,1.0,marshmallow_08s.jpg,eiffeltower.jpg,,,,,,,
,,,,,,,,,0.0,,,70,0.0,1.0,0.108975,0.0,4.0,4.0,4.0,1.0,medal_04s.jpg,jewel_01b.jpg,,,,,,,
,,,,,,,,,1.0,,,70,0.0,0.0,0.15672,0.0,5.0,5.0,5.0,1.0,plug_08s.jpg,fondue_07s.jpg,,,,,,,
,,,,,,,,,,,,70,,,,,,,,,,,0.0,7.0,7.0,7.0,1.0,new2backpresent_8_4.xlsx,new2back_compare_task_8_4.xlsx
,0.0,,0.0,0.0,0.0,0.0,1.0,footprint_11s.jpg,0.0,Blue.png,1.0,70,,,,,,,,,,,,,,,,,
0.0,1.0,2.341965,0.0,1.0,1.0,1.0,1.0,coffee_filter_10s.jpg,0.0,Purple.png,1.0,70,,,,,,,,,,,,,,,,,
0.0,1.0,2.1304,0.0,2.0,2.0,2.0,1.0,coffee_filter_10s.jpg,0.0,Red.png,1.0,70,,,,,,,,,,,,,,,,,
0.0,0.0,2.06348,0.0,3.0,3.0,3.0,1.0,coffee_filter_10s.jpg,1.0,Orange.png,1.0,70,,,,,,,,,,,,,,,,,
0.0,0.0,2.27392,0.0,4.0,4.0,4.0,1.0,coffee_filter_10s.jpg,1.0,Yellow.png,1.0,70,,,,,,,,,,,,,,,,,
1.0,0.0,2.209325,0.0,5.0,5.0,5.0,1.0,gargoyle_08s.jpg,0.0,Green.png,1.0,70,,,,,,,,,,,,,,,,,
0.0,1.0,2.180625,0.0,6.0,6.0,6.0,1.0,candy_cane_06s.jpg,0.0,Blue.png,2.0,70,,,,,,,,,,,,,,,,,
1.0,0.0,2.29588,0.0,7.0,7.0,7.0,1.0,toad_09s.jpg,0.0,Purple.png,2.0,70,,,,,,,,,,,,,,,,,
0.0,0.0,2.20945,0.0,8.0,8.0,8.0,1.0,candy_cane_06s.jpg,1.0,Red.png,2.0,70,,,,,,,,,,,,,,,,,
0.0,1.0,2.421295,0.0,9.0,9.0,9.0,1.0,pumpkin_03s.jpg,0.0,Orange.png,2.0,70,,,,,,,,,,,,,,,,,
0.0,1.0,1.275615,0.0,10.0,10.0,10.0,1.0,dashboard_02s.jpg,0.0,Yellow.png,2.0,70,,,,,,,,,,,,,,,,,
0.0,1.0,2.193545,0.0,11.0,11.0,11.0,1.0,syringe_02s.jpg,0.0,Green.png,2.0,70,,,,,,,,,,,,,,,,,
0.0,1.0,2.392575,0.0,12.0,12.0,12.0,1.0,powder_07s.jpg,0.0,Blue.png,3.0,70,,,,,,,,,,,,,,,,,
0.0,1.0,2.013755,0.0,13.0,13.0,13.0,1.0,powder_07s.jpg,0.0,Purple.png,3.0,70,,,,,,,,,,,,,,,,,
0.0,0.0,2.243525,0.0,14.0,14.0,14.0,1.0,powder_07s.jpg,1.0,Red.png,3.0,70,,,,,,,,,,,,,,,,,
0.0,1.0,2.44774,0.0,15.0,15.0,15.0,1.0,sea_urchin_09s.jpg,0.0,Orange.png,3.0,70,,,,,,,,,,,,,,,,,
0.0,1.0,1.36394,0.0,16.0,16.0,16.0,1.0,throne_11s.jpg,0.0,Yellow.png,3.0,70,,,,,,,,,,,,,,,,,
0.0,1.0,2.414345,0.0,17.0,17.0,17.0,1.0,powder_07s.jpg,0.0,Green.png,3.0,70,,,,,,,,,,,,,,,,,
0.0,1.0,2.144395,0.0,18.0,18.0,18.0,1.0,chalice_10s.jpg,0.0,Blue.png,4.0,70,,,,,,,,,,,,,,,,,
0.0,1.0,2.423965,0.0,19.0,19.0,19.0,1.0,air_pump_05s.jpg,0.0,Purple.png,4.0,70,,,,,,,,,,,,,,,,,
0.0,1.0,2.17376,0.0,20.0,20.0,20.0,1.0,microwave_02s.jpg,0.0,Red.png,4.0,70,,,,,,,,,,,,,,,,,
0.0,1.0,2.36912,0.0,21.0,21.0,21.0,1.0,cereal_04s.jpg,0.0,Orange.png,4.0,70,,,,,,,,,,,,,,,,,
0.0,1.0,2.3757,0.0,22.0,22.0,22.0,1.0,mushroom_10n.jpg,0.0,Yellow.png,4.0,70,,,,,,,,,,,,,,,,,
0.0,1.0,2.264325,0.0,23.0,23.0,23.0,1.0,red_carpet_03s.jpg,0.0,Green.png,4.0,70,,,,,,,,,,,,,,,,,
0.0,1.0,2.320875,0.0,24.0,24.0,24.0,1.0,throne_11s.jpg,0.0,Blue.png,5.0,70,,,,,,,,,,,,,,,,,
0.0,1.0,2.22226,0.0,25.0,25.0,25.0,1.0,koala_13s.jpg,0.0,Purple.png,5.0,70,,,,,,,,,,,,,,,,,
0.0,0.0,2.09005,0.0,26.0,26.0,26.0,1.0,throne_11s.jpg,1.0,Red.png,5.0,70,,,,,,,,,,,,,,,,,
0.0,1.0,2.255925,0.0,27.0,27.0,27.0,1.0,rocket_02s.jpg,0.0,Orange.png,5.0,70,,,,,,,,,,,,,,,,,
0.0,1.0,2.3466,0.0,28.0,28.0,28.0,1.0,swordfish_05s.jpg,0.0,Yellow.png,5.0,70,,,,,,,,,,,,,,,,,
0.0,0.0,2.29556,0.0,29.0,29.0,29.0,1.0,rocket_02s.jpg,1.0,Green.png,5.0,70,,,,,,,,,,,,,,,,,
0.0,1.0,2.464225,0.0,30.0,30.0,30.0,1.0,icicle_04s.jpg,0.0,Blue.png,6.0,70,,,,,,,,,,,,,,,,,
1.0,0.0,2.25685,0.0,31.0,31.0,31.0,1.0,keyboard_05s.jpg,0.0,Purple.png,6.0,70,,,,,,,,,,,,,,,,,
0.0,1.0,1.993095,0.0,32.0,32.0,32.0,1.0,pocket_watch_16s.jpg,0.0,Red.png,6.0,70,,,,,,,,,,,,,,,,,
0.0,1.0,2.293345,0.0,33.0,33.0,33.0,1.0,tablet_04s.jpg,0.0,Orange.png,6.0,70,,,,,,,,,,,,,,,,,
0.0,1.0,2.301445,0.0,34.0,34.0,34.0,1.0,chocolate_01b.jpg,0.0,Yellow.png,6.0,70,,,,,,,,,,,,,,,,,
0.0,1.0,1.76976,0.0,35.0,35.0,35.0,1.0,light_switch_02s.jpg,0.0,Green.png,6.0,70,,,,,,,,,,,,,,,,,
,,,,,,,,,0.0,,,70,1.0,0.0,2.655345,0.0,0.0,0.0,0.0,1.0,chalice_10s.jpg,sea_urchin_09s.jpg,,,,,,,
,,,,,,,,,1.0,,,70,0.0,0.0,0.03864,0.0,1.0,1.0,1.0,1.0,swordfish_05s.jpg,keyboard_05s.jpg,,,,,,,
,,,,,,,,,0.0,,,70,1.0,0.0,0.011435,0.0,2.0,2.0,2.0,1.0,red_carpet_03s.jpg,microwave_02s.jpg,,,,,,,
,,,,,,,,,0.0,,,70,0.0,1.0,0.087695,0.0,3.0,3.0,3.0,1.0,dashboard_02s.jpg,toad_09s.jpg,,,,,,,
,,,,,,,,,0.0,,,70,1.0,0.0,0.03145,0.0,4.0,4.0,4.0,1.0,koala_13s.jpg,mushroom_10n.jpg,,,,,,,
,,,,,,,,,1.0,,,70,0.0,0.0,0.032705,0.0,5.0,5.0,5.0,1.0,icicle_04s.jpg,tablet_04s.jpg,,,,,,,
,,,,,,,,,,,,70,,,,,,,,,,,0.0,8.0,8.0,8.0,1.0,new2backpresent_9_4.xlsx,new2back_compare_task_9_4.xlsx
