key_resp.keys,key_resp.corr,key_resp.rt,present_segment.thisRepN,present_segment.thisTrialN,present_segment.thisN,present_segment.thisIndex,present_segment.ran,pictures,answer,clock,segment,participant,key_resp_2.keys,key_resp_2.corr,key_resp_2.rt,compare_segment.thisRepN,compare_segment.thisTrialN,compare_segment.thisN,compare_segment.thisIndex,compare_segment.ran,item_a,item_b,clock_conditions.thisRepN,clock_conditions.thisTrialN,clock_conditions.thisN,clock_conditions.thisIndex,clock_conditions.ran,present,compare
0.0,1.0,1.017845,0.0,0.0,0.0,0.0,1.0,mirror_12s.jpg,0.0,Blue.png,1.0,81,,,,,,,,,,,,,,,,,
0.0,1.0,0.728615,0.0,1.0,1.0,1.0,1.0,polaroid_05s.jpg,0.0,Purple.png,1.0,81,,,,,,,,,,,,,,,,,
1.0,1.0,0.633175,0.0,2.0,2.0,2.0,1.0,polaroid_05s.jpg,1.0,Red.png,1.0,81,,,,,,,,,,,,,,,,,
0.0,1.0,0.465115,0.0,3.0,3.0,3.0,1.0,slingshot_07s.jpg,0.0,Orange.png,1.0,81,,,,,,,,,,,,,,,,,
1.0,1.0,1.23445,0.0,4.0,4.0,4.0,1.0,polaroid_05s.jpg,1.0,Yellow.png,1.0,81,,,,,,,,,,,,,,,,,
0.0,1.0,0.61804,0.0,5.0,5.0,5.0,1.0,kettle_08s.jpg,0.0,Green.png,1.0,81,,,,,,,,,,,,,,,,,
0.0,1.0,0.48908,0.0,6.0,6.0,6.0,1.0,crystal_ball_12s.jpg,0.0,Blue.png,2.0,81,,,,,,,,,,,,,,,,,
1.0,0.0,0.65883,0.0,7.0,7.0,7.0,1.0,iron_13s.jpg,0.0,Purple.png,2.0,81,,,,,,,,,,,,,,,,,
0.0,1.0,0.70675,0.0,8.0,8.0,8.0,1.0,saddle_06s.jpg,0.0,Red.png,2.0,81,,,,,,,,,,,,,,,,,
0.0,1.0,0.76223,0.0,9.0,9.0,9.0,1.0,mango_09s.jpg,0.0,Orange.png,2.0,81,,,,,,,,,,,,,,,,,
0.0,1.0,1.74345,0.0,10.0,10.0,10.0,1.0,ostrich_06s.jpg,0.0,Yellow.png,2.0,81,,,,,,,,,,,,,,,,,
1.0,1.0,0.85703,0.0,11.0,11.0,11.0,1.0,iron_13s.jpg,1.0,Green.png,2.0,81,,,,,,,,,,,,,,,,,
0.0,1.0,0.61549,0.0,12.0,12.0,12.0,1.0,stethoscope_01b.jpg,0.0,Blue.png,3.0,81,,,,,,,,,,,,,,,,,
0.0,1.0,0.482665,0.0,13.0,13.0,13.0,1.0,ruby_15s.jpg,0.0,Purple.png,3.0,81,,,,,,,,,,,,,,,,,
1.0,0.0,0.99846,0.0,14.0,14.0,14.0,1.0,mango_09s.jpg,0.0,Red.png,3.0,81,,,,,,,,,,,,,,,,,
0.0,1.0,0.907155,0.0,15.0,15.0,15.0,1.0,target_11s.jpg,0.0,Orange.png,3.0,81,,,,,,,,,,,,,,,,,
1.0,1.0,0.751365,0.0,16.0,16.0,16.0,1.0,mango_09s.jpg,1.0,Yellow.png,3.0,81,,,,,,,,,,,,,,,,,
0.0,1.0,0.610285,0.0,17.0,17.0,17.0,1.0,compass_10n.jpg,0.0,Green.png,3.0,81,,,,,,,,,,,,,,,,,
0.0,1.0,0.59663,0.0,18.0,18.0,18.0,1.0,meatball_13s.jpg,0.0,Blue.png,4.0,81,,,,,,,,,,,,,,,,,
0.0,1.0,0.6796,0.0,19.0,19.0,19.0,1.0,stapler_01b.jpg,0.0,Purple.png,4.0,81,,,,,,,,,,,,,,,,,
1.0,1.0,1.20124,0.0,20.0,20.0,20.0,1.0,meatball_13s.jpg,1.0,Red.png,4.0,81,,,,,,,,,,,,,,,,,
0.0,1.0,0.695465,0.0,21.0,21.0,21.0,1.0,pump_11s.jpg,0.0,Orange.png,4.0,81,,,,,,,,,,,,,,,,,
0.0,1.0,0.896015,0.0,22.0,22.0,22.0,1.0,coral_08s.jpg,0.0,Yellow.png,4.0,81,,,,,,,,,,,,,,,,,
1.0,1.0,0.66628,0.0,23.0,23.0,23.0,1.0,meatball_13s.jpg,1.0,Green.png,4.0,81,,,,,,,,,,,,,,,,,
0.0,1.0,0.61424,0.0,24.0,24.0,24.0,1.0,peach_04s.jpg,0.0,Blue.png,5.0,81,,,,,,,,,,,,,,,,,
1.0,0.0,0.618085,0.0,25.0,25.0,25.0,1.0,meatball_13s.jpg,0.0,Purple.png,5.0,81,,,,,,,,,,,,,,,,,
0.0,1.0,0.580365,0.0,26.0,26.0,26.0,1.0,pie_08s.jpg,0.0,Red.png,5.0,81,,,,,,,,,,,,,,,,,
0.0,1.0,0.80154,0.0,27.0,27.0,27.0,1.0,rollerskate_03s.jpg,0.0,Orange.png,5.0,81,,,,,,,,,,,,,,,,,
0.0,1.0,0.73094,0.0,28.0,28.0,28.0,1.0,trampoline_13s.jpg,0.0,Yellow.png,5.0,81,,,,,,,,,,,,,,,,,
0.0,1.0,0.58178,0.0,29.0,29.0,29.0,1.0,undershirt_02s.jpg,0.0,Green.png,5.0,81,,,,,,,,,,,,,,,,,
0.0,1.0,0.73582,0.0,30.0,30.0,30.0,1.0,thread_08s.jpg,0.0,Blue.png,6.0,81,,,,,,,,,,,,,,,,,
0.0,1.0,0.59743,0.0,31.0,31.0,31.0,1.0,megaphone_03s.jpg,0.0,Purple.png,6.0,81,,,,,,,,,,,,,,,,,
0.0,1.0,0.828485,0.0,32.0,32.0,32.0,1.0,plaster_cast_13s.jpg,0.0,Red.png,6.0,81,,,,,,,,,,,,,,,,,
0.0,1.0,0.696905,0.0,33.0,33.0,33.0,1.0,diving_board_07s.jpg,0.0,Orange.png,6.0,81,,,,,,,,,,,,,,,,,
0.0,1.0,0.59882,0.0,34.0,34.0,34.0,1.0,kayak_08s.jpg,0.0,Yellow.png,6.0,81,,,,,,,,,,,,,,,,,
1.0,1.0,0.850205,0.0,35.0,35.0,35.0,1.0,diving_board_07s.jpg,1.0,Green.png,6.0,81,,,,,,,,,,,,,,,,,
,,,,,,,,,1.0,,,81,1.0,1.0,2.36616,0.0,0.0,0.0,0.0,1.0,stapler_01b.jpg,coral_08s.jpg,,,,,,,
,,,,,,,,,1.0,,,81,0.0,0.0,1.079435,0.0,1.0,1.0,1.0,1.0,slingshot_07s.jpg,crystal_ball_12s.jpg,,,,,,,
,,,,,,,,,0.0,,,81,1.0,0.0,1.24137,0.0,2.0,2.0,2.0,1.0,saddle_06s.jpg,kettle_08s.jpg,,,,,,,
,,,,,,,,,1.0,,,81,1.0,1.0,2.01412,0.0,3.0,3.0,3.0,1.0,pie_08s.jpg,undershirt_02s.jpg,,,,,,,
,,,,,,,,,1.0,,,81,0.0,0.0,1.82996,0.0,4.0,4.0,4.0,1.0,stethoscope_01b.jpg,target_11s.jpg,,,,,,,
,,,,,,,,,1.0,,,81,1.0,1.0,1.524725,0.0,5.0,5.0,5.0,1.0,ostrich_06s.jpg,ruby_15s.jpg,,,,,,,
,,,,,,,,,,,,81,,,,,,,,,,,0.0,0.0,0.0,0.0,1.0,newclockpresent_1_4.xlsx,newclock_compare_task_1_4.xlsx
0.0,1.0,1.008325,0.0,0.0,0.0,0.0,1.0,jetski_10s.jpg,0.0,Blue.png,1.0,81,,,,,,,,,,,,,,,,,
0.0,1.0,0.681695,0.0,1.0,1.0,1.0,1.0,tripod_01b.jpg,0.0,Purple.png,1.0,81,,,,,,,,,,,,,,,,,
0.0,1.0,0.76275,0.0,2.0,2.0,2.0,1.0,lab_coat_11s.jpg,0.0,Red.png,1.0,81,,,,,,,,,,,,,,,,,
0.0,1.0,0.597845,0.0,3.0,3.0,3.0,1.0,foam_03s.jpg,0.0,Orange.png,1.0,81,,,,,,,,,,,,,,,,,
0.0,1.0,0.578375,0.0,4.0,4.0,4.0,1.0,crate_05s.jpg,0.0,Yellow.png,1.0,81,,,,,,,,,,,,,,,,,
0.0,1.0,0.529255,0.0,5.0,5.0,5.0,1.0,margarita_03s.jpg,0.0,Green.png,1.0,81,,,,,,,,,,,,,,,,,
0.0,1.0,0.563165,0.0,6.0,6.0,6.0,1.0,joystick_01b.jpg,0.0,Blue.png,2.0,81,,,,,,,,,,,,,,,,,
0.0,1.0,0.89657,0.0,7.0,7.0,7.0,1.0,giraffe_11s.jpg,0.0,Purple.png,2.0,81,,,,,,,,,,,,,,,,,
0.0,1.0,0.52892,0.0,8.0,8.0,8.0,1.0,quilt_03s.jpg,0.0,Red.png,2.0,81,,,,,,,,,,,,,,,,,
1.0,1.0,1.150345,0.0,9.0,9.0,9.0,1.0,giraffe_11s.jpg,1.0,Orange.png,2.0,81,,,,,,,,,,,,,,,,,
0.0,1.0,0.58391,0.0,10.0,10.0,10.0,1.0,pincushion_10s.jpg,0.0,Yellow.png,2.0,81,,,,,,,,,,,,,,,,,
1.0,1.0,0.695515,0.0,11.0,11.0,11.0,1.0,giraffe_11s.jpg,1.0,Green.png,2.0,81,,,,,,,,,,,,,,,,,
1.0,0.0,1.01373,0.0,12.0,12.0,12.0,1.0,pincushion_10s.jpg,0.0,Blue.png,3.0,81,,,,,,,,,,,,,,,,,
1.0,0.0,0.6712,0.0,13.0,13.0,13.0,1.0,giraffe_11s.jpg,0.0,Purple.png,3.0,81,,,,,,,,,,,,,,,,,
0.0,1.0,0.99938,0.0,14.0,14.0,14.0,1.0,rolling_pin_02s.jpg,0.0,Red.png,3.0,81,,,,,,,,,,,,,,,,,
0.0,1.0,0.601275,0.0,15.0,15.0,15.0,1.0,ticktacktoe_08s.jpg,0.0,Orange.png,3.0,81,,,,,,,,,,,,,,,,,
1.0,1.0,0.528655,0.0,16.0,16.0,16.0,1.0,giraffe_11s.jpg,1.0,Yellow.png,3.0,81,,,,,,,,,,,,,,,,,
1.0,1.0,1.84684,0.0,17.0,17.0,17.0,1.0,ticktacktoe_08s.jpg,1.0,Green.png,3.0,81,,,,,,,,,,,,,,,,,
0.0,1.0,0.97999,0.0,18.0,18.0,18.0,1.0,typewriter_11s.jpg,0.0,Blue.png,4.0,81,,,,,,,,,,,,,,,,,
0.0,1.0,0.86364,0.0,19.0,19.0,19.0,1.0,toothpaste_12s.jpg,0.0,Purple.png,4.0,81,,,,,,,,,,,,,,,,,
0.0,1.0,2.166455,0.0,20.0,20.0,20.0,1.0,hummingbird_05s.jpg,0.0,Red.png,4.0,81,,,,,,,,,,,,,,,,,
1.0,1.0,0.83323,0.0,21.0,21.0,21.0,1.0,toothpaste_12s.jpg,1.0,Orange.png,4.0,81,,,,,,,,,,,,,,,,,
1.0,1.0,1.13046,0.0,22.0,22.0,22.0,1.0,toothpaste_12s.jpg,1.0,Yellow.png,4.0,81,,,,,,,,,,,,,,,,,
0.0,1.0,1.748865,0.0,23.0,23.0,23.0,1.0,treadmill_06s.jpg,0.0,Green.png,4.0,81,,,,,,,,,,,,,,,,,
1.0,0.0,1.506,0.0,24.0,24.0,24.0,1.0,typewriter_11s.jpg,0.0,Blue.png,5.0,81,,,,,,,,,,,,,,,,,
0.0,1.0,1.69712,0.0,25.0,25.0,25.0,1.0,penguin_16s.jpg,0.0,Purple.png,5.0,81,,,,,,,,,,,,,,,,,
0.0,1.0,0.68157,0.0,26.0,26.0,26.0,1.0,olive_05s.jpg,0.0,Red.png,5.0,81,,,,,,,,,,,,,,,,,
1.0,1.0,1.545815,0.0,27.0,27.0,27.0,1.0,penguin_16s.jpg,1.0,Orange.png,5.0,81,,,,,,,,,,,,,,,,,
1.0,1.0,0.86414,0.0,28.0,28.0,28.0,1.0,penguin_16s.jpg,1.0,Yellow.png,5.0,81,,,,,,,,,,,,,,,,,
0.0,1.0,0.812565,0.0,29.0,29.0,29.0,1.0,tab_09s.jpg,0.0,Green.png,5.0,81,,,,,,,,,,,,,,,,,
0.0,1.0,0.863195,0.0,30.0,30.0,30.0,1.0,frame_06s.jpg,0.0,Blue.png,6.0,81,,,,,,,,,,,,,,,,,
0.0,1.0,0.767575,0.0,31.0,31.0,31.0,1.0,mop_08s.jpg,0.0,Purple.png,6.0,81,,,,,,,,,,,,,,,,,
0.0,1.0,0.86674,0.0,32.0,32.0,32.0,1.0,memory_stick_11s.jpg,0.0,Red.png,6.0,81,,,,,,,,,,,,,,,,,
1.0,0.0,1.1151,0.0,33.0,33.0,33.0,1.0,olive_05s.jpg,0.0,Orange.png,6.0,81,,,,,,,,,,,,,,,,,
0.0,1.0,0.850955,0.0,34.0,34.0,34.0,1.0,ravioli_08s.jpg,0.0,Yellow.png,6.0,81,,,,,,,,,,,,,,,,,
0.0,1.0,0.797805,0.0,35.0,35.0,35.0,1.0,mousetrap_15n.jpg,0.0,Green.png,6.0,81,,,,,,,,,,,,,,,,,
,,,,,,,,,1.0,,,81,1.0,1.0,1.94056,0.0,0.0,0.0,0.0,1.0,hummingbird_05s.jpg,treadmill_06s.jpg,,,,,,,
,,,,,,,,,1.0,,,81,1.0,1.0,1.38004,0.0,1.0,1.0,1.0,1.0,margarita_03s.jpg,quilt_03s.jpg,,,,,,,
,,,,,,,,,0.0,,,81,0.0,1.0,1.3445,0.0,2.0,2.0,2.0,1.0,joystick_01b.jpg,foam_03s.jpg,,,,,,,
,,,,,,,,,0.0,,,81,1.0,0.0,1.51206,0.0,3.0,3.0,3.0,1.0,ravioli_08s.jpg,mop_08s.jpg,,,,,,,
,,,,,,,,,1.0,,,81,1.0,1.0,1.407605,0.0,4.0,4.0,4.0,1.0,tab_09s.jpg,memory_stick_11s.jpg,,,,,,,
,,,,,,,,,1.0,,,81,0.0,0.0,1.2469,0.0,5.0,5.0,5.0,1.0,tripod_01b.jpg,crate_05s.jpg,,,,,,,
,,,,,,,,,,,,81,,,,,,,,,,,0.0,1.0,1.0,1.0,1.0,newclockpresent_2_4.xlsx,newclock_compare_task_2_4.xlsx
0.0,1.0,1.11268,0.0,0.0,0.0,0.0,1.0,safety_pin_02s.jpg,0.0,Blue.png,1.0,81,,,,,,,,,,,,,,,,,
1.0,1.0,0.7474,0.0,1.0,1.0,1.0,1.0,safety_pin_02s.jpg,1.0,Purple.png,1.0,81,,,,,,,,,,,,,,,,,
0.0,1.0,1.099885,0.0,2.0,2.0,2.0,1.0,cardinal_07s.jpg,0.0,Red.png,1.0,81,,,,,,,,,,,,,,,,,
1.0,1.0,0.486035,0.0,3.0,3.0,3.0,1.0,safety_pin_02s.jpg,1.0,Orange.png,1.0,81,,,,,,,,,,,,,,,,,
0.0,1.0,0.68356,0.0,4.0,4.0,4.0,1.0,potholder_02s.jpg,0.0,Yellow.png,1.0,81,,,,,,,,,,,,,,,,,
1.0,1.0,0.647325,0.0,5.0,5.0,5.0,1.0,safety_pin_02s.jpg,1.0,Green.png,1.0,81,,,,,,,,,,,,,,,,,
1.0,0.0,1.15109,0.0,6.0,6.0,6.0,1.0,cardinal_07s.jpg,0.0,Blue.png,2.0,81,,,,,,,,,,,,,,,,,
0.0,1.0,0.74912,0.0,7.0,7.0,7.0,1.0,lion_18s.jpg,0.0,Purple.png,2.0,81,,,,,,,,,,,,,,,,,
0.0,1.0,0.843635,0.0,8.0,8.0,8.0,1.0,comic_book_02s.jpg,0.0,Red.png,2.0,81,,,,,,,,,,,,,,,,,
0.0,1.0,0.730745,0.0,9.0,9.0,9.0,1.0,lizard_10n.jpg,0.0,Orange.png,2.0,81,,,,,,,,,,,,,,,,,
0.0,1.0,0.623495,0.0,10.0,10.0,10.0,1.0,rice_12s.jpg,0.0,Yellow.png,2.0,81,,,,,,,,,,,,,,,,,
,0.0,,0.0,11.0,11.0,11.0,1.0,bagel_15s.jpg,0.0,Green.png,2.0,81,,,,,,,,,,,,,,,,,
0.0,1.0,0.6639,0.0,12.0,12.0,12.0,1.0,recliner_02s.jpg,0.0,Blue.png,3.0,81,,,,,,,,,,,,,,,,,
1.0,1.0,1.29785,0.0,13.0,13.0,13.0,1.0,recliner_02s.jpg,1.0,Purple.png,3.0,81,,,,,,,,,,,,,,,,,
0.0,1.0,1.213585,0.0,14.0,14.0,14.0,1.0,luggage_08s.jpg,0.0,Red.png,3.0,81,,,,,,,,,,,,,,,,,
1.0,1.0,1.1002,0.0,15.0,15.0,15.0,1.0,recliner_02s.jpg,1.0,Orange.png,3.0,81,,,,,,,,,,,,,,,,,
0.0,1.0,0.78109,0.0,16.0,16.0,16.0,1.0,onion_10s.jpg,0.0,Yellow.png,3.0,81,,,,,,,,,,,,,,,,,
0.0,1.0,0.78876,0.0,17.0,17.0,17.0,1.0,rosary_03s.jpg,0.0,Green.png,3.0,81,,,,,,,,,,,,,,,,,
0.0,1.0,0.744515,0.0,18.0,18.0,18.0,1.0,smokingpipe.jpg,0.0,Blue.png,4.0,81,,,,,,,,,,,,,,,,,
0.0,1.0,0.84616,0.0,19.0,19.0,19.0,1.0,roulette_wheel_04s.jpg,0.0,Purple.png,4.0,81,,,,,,,,,,,,,,,,,
1.0,1.0,1.163575,0.0,20.0,20.0,20.0,1.0,smokingpipe.jpg,1.0,Red.png,4.0,81,,,,,,,,,,,,,,,,,
0.0,1.0,0.936885,0.0,21.0,21.0,21.0,1.0,orchid_01b.jpg,0.0,Orange.png,4.0,81,,,,,,,,,,,,,,,,,
0.0,1.0,0.96183,0.0,22.0,22.0,22.0,1.0,buoy_04s.jpg,0.0,Yellow.png,4.0,81,,,,,,,,,,,,,,,,,
0.0,1.0,0.835905,0.0,23.0,23.0,23.0,1.0,stopwatch_04s.jpg,0.0,Green.png,4.0,81,,,,,,,,,,,,,,,,,
0.0,1.0,0.81368,0.0,24.0,24.0,24.0,1.0,knitting_needle_04s.jpg,0.0,Blue.png,5.0,81,,,,,,,,,,,,,,,,,
0.0,1.0,1.083225,0.0,25.0,25.0,25.0,1.0,prism_10s.jpg,0.0,Purple.png,5.0,81,,,,,,,,,,,,,,,,,
0.0,1.0,0.712165,0.0,26.0,26.0,26.0,1.0,teapot_03s.jpg,0.0,Red.png,5.0,81,,,,,,,,,,,,,,,,,
0.0,1.0,0.796445,0.0,27.0,27.0,27.0,1.0,fire_pit_10s.jpg,0.0,Orange.png,5.0,81,,,,,,,,,,,,,,,,,
1.0,1.0,1.202615,0.0,28.0,28.0,28.0,1.0,fire_pit_10s.jpg,1.0,Yellow.png,5.0,81,,,,,,,,,,,,,,,,,
1.0,1.0,1.386935,0.0,29.0,29.0,29.0,1.0,fire_pit_10s.jpg,1.0,Green.png,5.0,81,,,,,,,,,,,,,,,,,
0.0,1.0,0.667385,0.0,30.0,30.0,30.0,1.0,ironing_board_07s.jpg,0.0,Blue.png,6.0,81,,,,,,,,,,,,,,,,,
1.0,0.0,1.051285,0.0,31.0,31.0,31.0,1.0,fire_pit_10s.jpg,0.0,Purple.png,6.0,81,,,,,,,,,,,,,,,,,
0.0,1.0,1.222385,0.0,32.0,32.0,32.0,1.0,mattress_01s.jpg,0.0,Red.png,6.0,81,,,,,,,,,,,,,,,,,
1.0,1.0,1.1353,0.0,33.0,33.0,33.0,1.0,fire_pit_10s.jpg,1.0,Orange.png,6.0,81,,,,,,,,,,,,,,,,,
1.0,1.0,1.329125,0.0,34.0,34.0,34.0,1.0,mattress_01s.jpg,1.0,Yellow.png,6.0,81,,,,,,,,,,,,,,,,,
0.0,1.0,1.44807,0.0,35.0,35.0,35.0,1.0,ice-cream_cone_06s.jpg,0.0,Green.png,6.0,81,,,,,,,,,,,,,,,,,
,,,,,,,,,1.0,,,81,0.0,0.0,2.937895,0.0,0.0,0.0,0.0,1.0,roulette_wheel_04s.jpg,buoy_04s.jpg,,,,,,,
,,,,,,,,,0.0,,,81,1.0,0.0,1.12438,0.0,1.0,1.0,1.0,1.0,lion_18s.jpg,potholder_02s.jpg,,,,,,,
,,,,,,,,,0.0,,,81,1.0,0.0,2.27494,0.0,2.0,2.0,2.0,1.0,bagel_15s.jpg,comic_book_02s.jpg,,,,,,,
,,,,,,,,,1.0,,,81,1.0,1.0,1.37761,0.0,3.0,3.0,3.0,1.0,stopwatch_04s.jpg,teapot_03s.jpg,,,,,,,
,,,,,,,,,1.0,,,81,1.0,1.0,1.06434,0.0,4.0,4.0,4.0,1.0,luggage_08s.jpg,rosary_03s.jpg,,,,,,,
,,,,,,,,,1.0,,,81,0.0,0.0,1.52353,0.0,5.0,5.0,5.0,1.0,orchid_01b.jpg,knitting_needle_04s.jpg,,,,,,,
,,,,,,,,,,,,81,,,,,,,,,,,0.0,2.0,2.0,2.0,1.0,newclockpresent_3_4.xlsx,newclock_compare_task_3_4.xlsx
0.0,1.0,1.64117,0.0,0.0,0.0,0.0,1.0,smoothie_09s.jpg,0.0,Blue.png,1.0,81,,,,,,,,,,,,,,,,,
0.0,1.0,0.781085,0.0,1.0,1.0,1.0,1.0,raspberry_12s.jpg,0.0,Purple.png,1.0,81,,,,,,,,,,,,,,,,,
1.0,1.0,1.098355,0.0,2.0,2.0,2.0,1.0,raspberry_12s.jpg,1.0,Red.png,1.0,81,,,,,,,,,,,,,,,,,
0.0,1.0,0.660905,0.0,3.0,3.0,3.0,1.0,lamb_chop_07s.jpg,0.0,Orange.png,1.0,81,,,,,,,,,,,,,,,,,
1.0,1.0,0.964905,0.0,4.0,4.0,4.0,1.0,smoothie_09s.jpg,1.0,Yellow.png,1.0,81,,,,,,,,,,,,,,,,,
1.0,1.0,0.879705,0.0,5.0,5.0,5.0,1.0,raspberry_12s.jpg,1.0,Green.png,1.0,81,,,,,,,,,,,,,,,,,
0.0,1.0,0.72915,0.0,6.0,6.0,6.0,1.0,lava_02s.jpg,0.0,Blue.png,2.0,81,,,,,,,,,,,,,,,,,
0.0,1.0,1.501225,0.0,7.0,7.0,7.0,1.0,trident_07s.jpg,0.0,Purple.png,2.0,81,,,,,,,,,,,,,,,,,
1.0,1.0,1.48144,0.0,8.0,8.0,8.0,1.0,trident_07s.jpg,1.0,Red.png,2.0,81,,,,,,,,,,,,,,,,,
1.0,1.0,1.384935,0.0,9.0,9.0,9.0,1.0,trident_07s.jpg,1.0,Orange.png,2.0,81,,,,,,,,,,,,,,,,,
0.0,1.0,1.130935,0.0,10.0,10.0,10.0,1.0,orangutan_03s.jpg,0.0,Yellow.png,2.0,81,,,,,,,,,,,,,,,,,
1.0,1.0,1.03128,0.0,11.0,11.0,11.0,1.0,trident_07s.jpg,1.0,Green.png,2.0,81,,,,,,,,,,,,,,,,,
1.0,0.0,1.13148,0.0,12.0,12.0,12.0,1.0,raspberry_12s.jpg,0.0,Blue.png,3.0,81,,,,,,,,,,,,,,,,,
1.0,0.0,0.647535,0.0,13.0,13.0,13.0,1.0,trident_07s.jpg,0.0,Purple.png,3.0,81,,,,,,,,,,,,,,,,,
0.0,1.0,0.88182,0.0,14.0,14.0,14.0,1.0,lavender_10s.jpg,0.0,Red.png,3.0,81,,,,,,,,,,,,,,,,,
0.0,1.0,1.083855,0.0,15.0,15.0,15.0,1.0,chip_04s.jpg,0.0,Orange.png,3.0,81,,,,,,,,,,,,,,,,,
0.0,1.0,0.680315,0.0,16.0,16.0,16.0,1.0,lamb_04s.jpg,0.0,Yellow.png,3.0,81,,,,,,,,,,,,,,,,,
0.0,1.0,0.5849,0.0,17.0,17.0,17.0,1.0,emerald_02s.jpg,0.0,Green.png,3.0,81,,,,,,,,,,,,,,,,,
0.0,1.0,0.917165,0.0,18.0,18.0,18.0,1.0,pineapple_12s.jpg,0.0,Blue.png,4.0,81,,,,,,,,,,,,,,,,,
0.0,1.0,0.977055,0.0,19.0,19.0,19.0,1.0,sundae_08s.jpg,0.0,Purple.png,4.0,81,,,,,,,,,,,,,,,,,
1.0,1.0,1.02402,0.0,20.0,20.0,20.0,1.0,sundae_08s.jpg,1.0,Red.png,4.0,81,,,,,,,,,,,,,,,,,
0.0,1.0,0.916845,0.0,21.0,21.0,21.0,1.0,squirrel_02s.jpg,0.0,Orange.png,4.0,81,,,,,,,,,,,,,,,,,
0.0,1.0,0.98329,0.0,22.0,22.0,22.0,1.0,roller_coaster_07s.jpg,0.0,Yellow.png,4.0,81,,,,,,,,,,,,,,,,,
1.0,1.0,1.26691,0.0,23.0,23.0,23.0,1.0,sundae_08s.jpg,1.0,Green.png,4.0,81,,,,,,,,,,,,,,,,,
0.0,1.0,0.83846,0.0,24.0,24.0,24.0,1.0,tweezers_03s.jpg,0.0,Blue.png,5.0,81,,,,,,,,,,,,,,,,,
1.0,0.0,1.19711,0.0,25.0,25.0,25.0,1.0,sundae_08s.jpg,0.0,Purple.png,5.0,81,,,,,,,,,,,,,,,,,
0.0,1.0,0.88039,0.0,26.0,26.0,26.0,1.0,rudder_02s.jpg,0.0,Red.png,5.0,81,,,,,,,,,,,,,,,,,
0.0,1.0,0.86126,0.0,27.0,27.0,27.0,1.0,rake_06s.jpg,0.0,Orange.png,5.0,81,,,,,,,,,,,,,,,,,
1.0,1.0,1.112075,0.0,28.0,28.0,28.0,1.0,rake_06s.jpg,1.0,Yellow.png,5.0,81,,,,,,,,,,,,,,,,,
1.0,1.0,1.59649,0.0,29.0,29.0,29.0,1.0,rake_06s.jpg,1.0,Green.png,5.0,81,,,,,,,,,,,,,,,,,
0.0,1.0,1.11185,0.0,30.0,30.0,30.0,1.0,cap_05s.jpg,0.0,Blue.png,6.0,81,,,,,,,,,,,,,,,,,
0.0,1.0,0.914825,0.0,31.0,31.0,31.0,1.0,paper_towel_03s.jpg,0.0,Purple.png,6.0,81,,,,,,,,,,,,,,,,,
0.0,1.0,0.678225,0.0,32.0,32.0,32.0,1.0,toaster_03s.jpg,0.0,Red.png,6.0,81,,,,,,,,,,,,,,,,,
0.0,1.0,0.54729,0.0,33.0,33.0,33.0,1.0,money_07s.jpg,0.0,Orange.png,6.0,81,,,,,,,,,,,,,,,,,
0.0,1.0,0.728185,0.0,34.0,34.0,34.0,1.0,pinwheel_06s.jpg,0.0,Yellow.png,6.0,81,,,,,,,,,,,,,,,,,
0.0,1.0,0.68314,0.0,35.0,35.0,35.0,1.0,lid_10s.jpg,0.0,Green.png,6.0,81,,,,,,,,,,,,,,,,,
,,,,,,,,,0.0,,,81,1.0,0.0,2.64005,0.0,0.0,0.0,0.0,1.0,tweezers_03s.jpg,squirrel_02s.jpg,,,,,,,
,,,,,,,,,1.0,,,81,1.0,1.0,1.42412,0.0,1.0,1.0,1.0,1.0,chip_04s.jpg,pineapple_12s.jpg,,,,,,,
,,,,,,,,,1.0,,,81,1.0,1.0,1.24218,0.0,2.0,2.0,2.0,1.0,lamb_chop_07s.jpg,lava_02s.jpg,,,,,,,
,,,,,,,,,0.0,,,81,0.0,1.0,1.92765,0.0,3.0,3.0,3.0,1.0,pinwheel_06s.jpg,paper_towel_03s.jpg,,,,,,,
,,,,,,,,,0.0,,,81,1.0,0.0,1.116205,0.0,4.0,4.0,4.0,1.0,emerald_02s.jpg,lavender_10s.jpg,,,,,,,
,,,,,,,,,0.0,,,81,1.0,0.0,1.294785,0.0,5.0,5.0,5.0,1.0,money_07s.jpg,cap_05s.jpg,,,,,,,
,,,,,,,,,,,,81,,,,,,,,,,,0.0,3.0,3.0,3.0,1.0,newclockpresent_4_4.xlsx,newclock_compare_task_4_4.xlsx
0.0,1.0,1.176305,0.0,0.0,0.0,0.0,1.0,fur_coat_11s.jpg,0.0,Blue.png,1.0,81,,,,,,,,,,,,,,,,,
0.0,1.0,1.213825,0.0,1.0,1.0,1.0,1.0,crayon_09s.jpg,0.0,Purple.png,1.0,81,,,,,,,,,,,,,,,,,
0.0,1.0,0.49668,0.0,2.0,2.0,2.0,1.0,cobra_05s.jpg,0.0,Red.png,1.0,81,,,,,,,,,,,,,,,,,
0.0,1.0,0.479825,0.0,3.0,3.0,3.0,1.0,raccoon_02s.jpg,0.0,Orange.png,1.0,81,,,,,,,,,,,,,,,,,
0.0,1.0,0.61871,0.0,4.0,4.0,4.0,1.0,soda_fountain_03s.jpg,0.0,Yellow.png,1.0,81,,,,,,,,,,,,,,,,,
1.0,1.0,2.21459,0.0,5.0,5.0,5.0,1.0,raccoon_02s.jpg,1.0,Green.png,1.0,81,,,,,,,,,,,,,,,,,
0.0,1.0,0.545955,0.0,6.0,6.0,6.0,1.0,feather02.jpg,0.0,Blue.png,2.0,81,,,,,,,,,,,,,,,,,
1.0,0.0,0.92254,0.0,7.0,7.0,7.0,1.0,raccoon_02s.jpg,0.0,Purple.png,2.0,81,,,,,,,,,,,,,,,,,
1.0,1.0,0.898295,0.0,8.0,8.0,8.0,1.0,feather02.jpg,1.0,Red.png,2.0,81,,,,,,,,,,,,,,,,,
0.0,1.0,0.714785,0.0,9.0,9.0,9.0,1.0,rug_09s.jpg,0.0,Orange.png,2.0,81,,,,,,,,,,,,,,,,,
1.0,1.0,0.847645,0.0,10.0,10.0,10.0,1.0,feather02.jpg,1.0,Yellow.png,2.0,81,,,,,,,,,,,,,,,,,
0.0,1.0,0.81255,0.0,11.0,11.0,11.0,1.0,cushion_08s.jpg,0.0,Green.png,2.0,81,,,,,,,,,,,,,,,,,
1.0,0.0,0.697065,0.0,12.0,12.0,12.0,1.0,feather02.jpg,0.0,Blue.png,3.0,81,,,,,,,,,,,,,,,,,
1.0,1.0,0.766545,0.0,13.0,13.0,13.0,1.0,feather02.jpg,1.0,Purple.png,3.0,81,,,,,,,,,,,,,,,,,
0.0,1.0,0.816335,0.0,14.0,14.0,14.0,1.0,ice_pack_09s.jpg,0.0,Red.png,3.0,81,,,,,,,,,,,,,,,,,
1.0,1.0,1.38522,0.0,15.0,15.0,15.0,1.0,ice_pack_09s.jpg,1.0,Orange.png,3.0,81,,,,,,,,,,,,,,,,,
0.0,1.0,0.9979,0.0,16.0,16.0,16.0,1.0,loom_05s.jpg,0.0,Yellow.png,3.0,81,,,,,,,,,,,,,,,,,
1.0,1.0,0.68095,0.0,17.0,17.0,17.0,1.0,ice_pack_09s.jpg,1.0,Green.png,3.0,81,,,,,,,,,,,,,,,,,
1.0,0.0,0.74725,0.0,18.0,18.0,18.0,1.0,ice_pack_09s.jpg,0.0,Blue.png,4.0,81,,,,,,,,,,,,,,,,,
1.0,1.0,0.58141,0.0,19.0,19.0,19.0,1.0,ice_pack_09s.jpg,1.0,Purple.png,4.0,81,,,,,,,,,,,,,,,,,
1.0,1.0,0.65069,0.0,20.0,20.0,20.0,1.0,ice_pack_09s.jpg,1.0,Red.png,4.0,81,,,,,,,,,,,,,,,,,
,0.0,,0.0,21.0,21.0,21.0,1.0,blazer_02s.jpg,0.0,Orange.png,4.0,81,,,,,,,,,,,,,,,,,
0.0,1.0,0.779005,0.0,22.0,22.0,22.0,1.0,penlight_12s.jpg,0.0,Yellow.png,4.0,81,,,,,,,,,,,,,,,,,
0.0,1.0,1.02191,0.0,23.0,23.0,23.0,1.0,swan_11s.jpg,0.0,Green.png,4.0,81,,,,,,,,,,,,,,,,,
0.0,1.0,1.24694,0.0,24.0,24.0,24.0,1.0,plunger_08s.jpg,0.0,Blue.png,5.0,81,,,,,,,,,,,,,,,,,
0.0,1.0,0.71286,0.0,25.0,25.0,25.0,1.0,bottle_opener_11s.jpg,0.0,Purple.png,5.0,81,,,,,,,,,,,,,,,,,
0.0,1.0,0.545205,0.0,26.0,26.0,26.0,1.0,checkbook_11s.jpg,0.0,Red.png,5.0,81,,,,,,,,,,,,,,,,,
0.0,1.0,0.77883,0.0,27.0,27.0,27.0,1.0,ink_08s.jpg,0.0,Orange.png,5.0,81,,,,,,,,,,,,,,,,,
1.0,1.0,1.16227,0.0,28.0,28.0,28.0,1.0,plunger_08s.jpg,1.0,Yellow.png,5.0,81,,,,,,,,,,,,,,,,,
0.0,1.0,0.913635,0.0,29.0,29.0,29.0,1.0,pencil02a.jpg,0.0,Green.png,5.0,81,,,,,,,,,,,,,,,,,
0.0,1.0,0.61822,0.0,30.0,30.0,30.0,1.0,ginger_09s.jpg,0.0,Blue.png,6.0,81,,,,,,,,,,,,,,,,,
0.0,1.0,0.61101,0.0,31.0,31.0,31.0,1.0,taxi_15s.jpg,0.0,Purple.png,6.0,81,,,,,,,,,,,,,,,,,
0.0,1.0,0.582295,0.0,32.0,32.0,32.0,1.0,toy_04s.jpg,0.0,Red.png,6.0,81,,,,,,,,,,,,,,,,,
0.0,1.0,0.70311,0.0,33.0,33.0,33.0,1.0,blowfish_03s.jpg,0.0,Orange.png,6.0,81,,,,,,,,,,,,,,,,,
0.0,1.0,0.595875,0.0,34.0,34.0,34.0,1.0,toilet_paper_12s.jpg,0.0,Yellow.png,6.0,81,,,,,,,,,,,,,,,,,
0.0,1.0,1.265505,0.0,35.0,35.0,35.0,1.0,puddle_02s.jpg,0.0,Green.png,6.0,81,,,,,,,,,,,,,,,,,
,,,,,,,,,1.0,,,81,1.0,1.0,2.29509,0.0,0.0,0.0,0.0,1.0,ink_08s.jpg,ginger_09s.jpg,,,,,,,
,,,,,,,,,0.0,,,81,0.0,1.0,2.018355,0.0,1.0,1.0,1.0,1.0,puddle_02s.jpg,toy_04s.jpg,,,,,,,
,,,,,,,,,0.0,,,81,1.0,0.0,1.06827,0.0,2.0,2.0,2.0,1.0,bottle_opener_11s.jpg,penlight_12s.jpg,,,,,,,
,,,,,,,,,0.0,,,81,1.0,0.0,1.285415,0.0,3.0,3.0,3.0,1.0,checkbook_11s.jpg,swan_11s.jpg,,,,,,,
,,,,,,,,,1.0,,,81,1.0,1.0,2.073065,0.0,4.0,4.0,4.0,1.0,taxi_15s.jpg,toilet_paper_12s.jpg,,,,,,,
,,,,,,,,,1.0,,,81,1.0,1.0,1.068495,0.0,5.0,5.0,5.0,1.0,crayon_09s.jpg,soda_fountain_03s.jpg,,,,,,,
,,,,,,,,,,,,81,,,,,,,,,,,0.0,4.0,4.0,4.0,1.0,newclockpresent_5_4.xlsx,newclock_compare_task_5_4.xlsx
0.0,1.0,0.740465,0.0,0.0,0.0,0.0,1.0,flask_04s.jpg,0.0,Blue.png,1.0,81,,,,,,,,,,,,,,,,,
0.0,1.0,1.46325,0.0,1.0,1.0,1.0,1.0,kimono_13s.jpg,0.0,Purple.png,1.0,81,,,,,,,,,,,,,,,,,
0.0,1.0,0.48248,0.0,2.0,2.0,2.0,1.0,limousine_12s.jpg,0.0,Red.png,1.0,81,,,,,,,,,,,,,,,,,
0.0,1.0,0.533075,0.0,3.0,3.0,3.0,1.0,lectern_08s.jpg,0.0,Orange.png,1.0,81,,,,,,,,,,,,,,,,,
1.0,1.0,1.36282,0.0,4.0,4.0,4.0,1.0,kimono_13s.jpg,1.0,Yellow.png,1.0,81,,,,,,,,,,,,,,,,,
0.0,1.0,0.66136,0.0,5.0,5.0,5.0,1.0,doily_13s.jpg,0.0,Green.png,1.0,81,,,,,,,,,,,,,,,,,
1.0,0.0,0.913205,0.0,6.0,6.0,6.0,1.0,kimono_13s.jpg,0.0,Blue.png,2.0,81,,,,,,,,,,,,,,,,,
0.0,1.0,0.74328,0.0,7.0,7.0,7.0,1.0,razor_blade_01b.jpg,0.0,Purple.png,2.0,81,,,,,,,,,,,,,,,,,
1.0,1.0,1.14101,0.0,8.0,8.0,8.0,1.0,razor_blade_01b.jpg,1.0,Red.png,2.0,81,,,,,,,,,,,,,,,,,
0.0,1.0,0.64914,0.0,9.0,9.0,9.0,1.0,champagne_18s.jpg,0.0,Orange.png,2.0,81,,,,,,,,,,,,,,,,,
0.0,1.0,0.64991,0.0,10.0,10.0,10.0,1.0,stamp1_11s.jpg,0.0,Yellow.png,2.0,81,,,,,,,,,,,,,,,,,
1.0,1.0,1.25244,0.0,11.0,11.0,11.0,1.0,champagne_18s.jpg,1.0,Green.png,2.0,81,,,,,,,,,,,,,,,,,
0.0,1.0,0.864155,0.0,12.0,12.0,12.0,1.0,crossbow_10s.jpg,0.0,Blue.png,3.0,81,,,,,,,,,,,,,,,,,
0.0,1.0,0.946855,0.0,13.0,13.0,13.0,1.0,briefcase_03s.jpg,0.0,Purple.png,3.0,81,,,,,,,,,,,,,,,,,
0.0,1.0,0.99613,0.0,14.0,14.0,14.0,1.0,jersey_02s.jpg,0.0,Red.png,3.0,81,,,,,,,,,,,,,,,,,
1.0,1.0,1.385255,0.0,15.0,15.0,15.0,1.0,briefcase_03s.jpg,1.0,Orange.png,3.0,81,,,,,,,,,,,,,,,,,
0.0,1.0,0.89938,0.0,16.0,16.0,16.0,1.0,oil_02s.jpg,0.0,Yellow.png,3.0,81,,,,,,,,,,,,,,,,,
0.0,1.0,0.89755,0.0,17.0,17.0,17.0,1.0,tinsel_12s.jpg,0.0,Green.png,3.0,81,,,,,,,,,,,,,,,,,
1.0,0.0,1.329425,0.0,18.0,18.0,18.0,1.0,flask_04s.jpg,0.0,Blue.png,4.0,81,,,,,,,,,,,,,,,,,
0.0,1.0,0.94889,0.0,19.0,19.0,19.0,1.0,fork_04s.jpg,0.0,Purple.png,4.0,81,,,,,,,,,,,,,,,,,
0.0,1.0,1.098385,0.0,20.0,20.0,20.0,1.0,purse_05s.jpg,0.0,Red.png,4.0,81,,,,,,,,,,,,,,,,,
1.0,1.0,1.89668,0.0,21.0,21.0,21.0,1.0,flask_04s.jpg,1.0,Orange.png,4.0,81,,,,,,,,,,,,,,,,,
0.0,1.0,1.74461,0.0,22.0,22.0,22.0,1.0,sledgehammer_03s.jpg,0.0,Yellow.png,4.0,81,,,,,,,,,,,,,,,,,
0.0,1.0,2.19428,0.0,23.0,23.0,23.0,1.0,turf_03s.jpg,0.0,Green.png,4.0,81,,,,,,,,,,,,,,,,,
0.0,1.0,1.06202,0.0,24.0,24.0,24.0,1.0,omelet_07s.jpg,0.0,Blue.png,5.0,81,,,,,,,,,,,,,,,,,
1.0,0.0,1.787465,0.0,25.0,25.0,25.0,1.0,turf_03s.jpg,0.0,Purple.png,5.0,81,,,,,,,,,,,,,,,,,
0.0,1.0,1.09364,0.0,26.0,26.0,26.0,1.0,clover_04s.jpg,0.0,Red.png,5.0,81,,,,,,,,,,,,,,,,,
0.0,1.0,1.16297,0.0,27.0,27.0,27.0,1.0,lip_gloss_06s.jpg,0.0,Orange.png,5.0,81,,,,,,,,,,,,,,,,,
0.0,1.0,0.69667,0.0,28.0,28.0,28.0,1.0,amber_04s.jpg,0.0,Yellow.png,5.0,81,,,,,,,,,,,,,,,,,
0.0,1.0,0.918705,0.0,29.0,29.0,29.0,1.0,tortilla_06s.jpg,0.0,Green.png,5.0,81,,,,,,,,,,,,,,,,,
1.0,0.0,1.36026,0.0,30.0,30.0,30.0,1.0,razor_blade_01b.jpg,0.0,Blue.png,6.0,81,,,,,,,,,,,,,,,,,
0.0,1.0,0.980565,0.0,31.0,31.0,31.0,1.0,tape_measure_11s.jpg,0.0,Purple.png,6.0,81,,,,,,,,,,,,,,,,,
1.0,1.0,1.177205,0.0,32.0,32.0,32.0,1.0,razor_blade_01b.jpg,1.0,Red.png,6.0,81,,,,,,,,,,,,,,,,,
1.0,1.0,0.92943,0.0,33.0,33.0,33.0,1.0,razor_blade_01b.jpg,1.0,Orange.png,6.0,81,,,,,,,,,,,,,,,,,
0.0,1.0,0.979005,0.0,34.0,34.0,34.0,1.0,stingray_02s.jpg,0.0,Yellow.png,6.0,81,,,,,,,,,,,,,,,,,
0.0,1.0,0.846055,0.0,35.0,35.0,35.0,1.0,harpoon.jpg,0.0,Green.png,6.0,81,,,,,,,,,,,,,,,,,
,,,,,,,,,1.0,,,81,1.0,1.0,1.389235,0.0,0.0,0.0,0.0,1.0,oil_02s.jpg,fork_04s.jpg,,,,,,,
,,,,,,,,,0.0,,,81,0.0,1.0,1.5791,0.0,1.0,1.0,1.0,1.0,doily_13s.jpg,limousine_12s.jpg,,,,,,,
,,,,,,,,,0.0,,,81,0.0,1.0,1.89545,0.0,2.0,2.0,2.0,1.0,lip_gloss_06s.jpg,omelet_07s.jpg,,,,,,,
,,,,,,,,,0.0,,,81,1.0,0.0,1.795305,0.0,3.0,3.0,3.0,1.0,tape_measure_11s.jpg,amber_04s.jpg,,,,,,,
,,,,,,,,,0.0,,,81,0.0,1.0,2.5737,0.0,4.0,4.0,4.0,1.0,tortilla_06s.jpg,clover_04s.jpg,,,,,,,
,,,,,,,,,0.0,,,81,0.0,1.0,1.255825,0.0,5.0,5.0,5.0,1.0,purse_05s.jpg,tinsel_12s.jpg,,,,,,,
,,,,,,,,,,,,81,,,,,,,,,,,0.0,5.0,5.0,5.0,1.0,newclockpresent_6_4.xlsx,newclock_compare_task_6_4.xlsx
0.0,1.0,0.9354,0.0,0.0,0.0,0.0,1.0,butter_14s.jpg,0.0,Blue.png,1.0,81,,,,,,,,,,,,,,,,,
1.0,1.0,1.581535,0.0,1.0,1.0,1.0,1.0,butter_14s.jpg,1.0,Purple.png,1.0,81,,,,,,,,,,,,,,,,,
1.0,1.0,0.99907,0.0,2.0,2.0,2.0,1.0,butter_14s.jpg,1.0,Red.png,1.0,81,,,,,,,,,,,,,,,,,
0.0,1.0,0.79928,0.0,3.0,3.0,3.0,1.0,stamp2_08s.jpg,0.0,Orange.png,1.0,81,,,,,,,,,,,,,,,,,
0.0,1.0,1.478965,0.0,4.0,4.0,4.0,1.0,kangaroo_02s.jpg,0.0,Yellow.png,1.0,81,,,,,,,,,,,,,,,,,
0.0,1.0,1.784255,0.0,5.0,5.0,5.0,1.0,camcorder_10s.jpg,0.0,Green.png,1.0,81,,,,,,,,,,,,,,,,,
0.0,1.0,1.4491,0.0,6.0,6.0,6.0,1.0,bank_06s.jpg,0.0,Blue.png,2.0,81,,,,,,,,,,,,,,,,,
0.0,1.0,1.627715,0.0,7.0,7.0,7.0,1.0,gear_07s.jpg,0.0,Purple.png,2.0,81,,,,,,,,,,,,,,,,,
1.0,1.0,1.227495,0.0,8.0,8.0,8.0,1.0,bank_06s.jpg,1.0,Red.png,2.0,81,,,,,,,,,,,,,,,,,
0.0,1.0,1.19363,0.0,9.0,9.0,9.0,1.0,funnel_01b.jpg,0.0,Orange.png,2.0,81,,,,,,,,,,,,,,,,,
0.0,1.0,0.996905,0.0,10.0,10.0,10.0,1.0,poinsettia_04s.jpg,0.0,Yellow.png,2.0,81,,,,,,,,,,,,,,,,,
1.0,1.0,1.47905,0.0,11.0,11.0,11.0,1.0,funnel_01b.jpg,1.0,Green.png,2.0,81,,,,,,,,,,,,,,,,,
0.0,1.0,0.72948,0.0,12.0,12.0,12.0,1.0,rooster_03s.jpg,0.0,Blue.png,3.0,81,,,,,,,,,,,,,,,,,
0.0,1.0,0.8301,0.0,13.0,13.0,13.0,1.0,denture_03s.jpg,0.0,Purple.png,3.0,81,,,,,,,,,,,,,,,,,
0.0,1.0,1.18172,0.0,14.0,14.0,14.0,1.0,bean_06s.jpg,0.0,Red.png,3.0,81,,,,,,,,,,,,,,,,,
0.0,1.0,0.72902,0.0,15.0,15.0,15.0,1.0,mud_13s.jpg,0.0,Orange.png,3.0,81,,,,,,,,,,,,,,,,,
0.0,1.0,0.811605,0.0,16.0,16.0,16.0,1.0,keyhole_03s.jpg,0.0,Yellow.png,3.0,81,,,,,,,,,,,,,,,,,
1.0,1.0,0.80502,0.0,17.0,17.0,17.0,1.0,bean_06s.jpg,1.0,Green.png,3.0,81,,,,,,,,,,,,,,,,,
1.0,0.0,0.695605,0.0,18.0,18.0,18.0,1.0,bank_06s.jpg,0.0,Blue.png,4.0,81,,,,,,,,,,,,,,,,,
0.0,1.0,1.04543,0.0,19.0,19.0,19.0,1.0,pomegranate_04s.jpg,0.0,Purple.png,4.0,81,,,,,,,,,,,,,,,,,
0.0,1.0,1.444355,0.0,20.0,20.0,20.0,1.0,chopsticks_08s.jpg,0.0,Red.png,4.0,81,,,,,,,,,,,,,,,,,
0.0,1.0,1.90217,0.0,21.0,21.0,21.0,1.0,contact_lens_15s.jpg,0.0,Orange.png,4.0,81,,,,,,,,,,,,,,,,,
0.0,1.0,0.948545,0.0,22.0,22.0,22.0,1.0,hydrant_10s.jpg,0.0,Yellow.png,4.0,81,,,,,,,,,,,,,,,,,
0.0,1.0,0.68051,0.0,23.0,23.0,23.0,1.0,gingerbread_man_03s.jpg,0.0,Green.png,4.0,81,,,,,,,,,,,,,,,,,
1.0,0.0,0.78342,0.0,24.0,24.0,24.0,1.0,camcorder_10s.jpg,0.0,Blue.png,5.0,81,,,,,,,,,,,,,,,,,
0.0,1.0,0.645155,0.0,25.0,25.0,25.0,1.0,teabag_12s.jpg,0.0,Purple.png,5.0,81,,,,,,,,,,,,,,,,,
0.0,1.0,0.79451,0.0,26.0,26.0,26.0,1.0,radiator_05s.jpg,0.0,Red.png,5.0,81,,,,,,,,,,,,,,,,,
0.0,1.0,1.195345,0.0,27.0,27.0,27.0,1.0,punch1_10s.jpg,0.0,Orange.png,5.0,81,,,,,,,,,,,,,,,,,
0.0,1.0,1.462965,0.0,28.0,28.0,28.0,1.0,mailbox_11s.jpg,0.0,Yellow.png,5.0,81,,,,,,,,,,,,,,,,,
0.0,1.0,1.37877,0.0,29.0,29.0,29.0,1.0,beaker_01b.jpg,0.0,Green.png,5.0,81,,,,,,,,,,,,,,,,,
1.0,0.0,2.029825,0.0,30.0,30.0,30.0,1.0,mailbox_11s.jpg,0.0,Blue.png,6.0,81,,,,,,,,,,,,,,,,,
0.0,1.0,2.146575,0.0,31.0,31.0,31.0,1.0,pipe1_10s.jpg,0.0,Purple.png,6.0,81,,,,,,,,,,,,,,,,,
1.0,1.0,1.14614,0.0,32.0,32.0,32.0,1.0,mailbox_11s.jpg,1.0,Red.png,6.0,81,,,,,,,,,,,,,,,,,
1.0,1.0,0.71243,0.0,33.0,33.0,33.0,1.0,pipe1_10s.jpg,1.0,Orange.png,6.0,81,,,,,,,,,,,,,,,,,
0.0,1.0,0.894545,0.0,34.0,34.0,34.0,1.0,eyedropper_12s.jpg,0.0,Yellow.png,6.0,81,,,,,,,,,,,,,,,,,
0.0,1.0,1.01433,0.0,35.0,35.0,35.0,1.0,rhubarb_03s.jpg,0.0,Green.png,6.0,81,,,,,,,,,,,,,,,,,
,,,,,,,,,0.0,,,81,0.0,1.0,1.7944,0.0,0.0,0.0,0.0,1.0,mud_13s.jpg,rooster_03s.jpg,,,,,,,
,,,,,,,,,1.0,,,81,0.0,0.0,1.7575,0.0,1.0,1.0,1.0,1.0,chopsticks_08s.jpg,gingerbread_man_03s.jpg,,,,,,,
,,,,,,,,,0.0,,,81,0.0,1.0,2.193605,0.0,2.0,2.0,2.0,1.0,beaker_01b.jpg,radiator_05s.jpg,,,,,,,
,,,,,,,,,0.0,,,81,1.0,0.0,1.6626,0.0,3.0,3.0,3.0,1.0,teabag_12s.jpg,hydrant_10s.jpg,,,,,,,
,,,,,,,,,0.0,,,81,1.0,0.0,0.998255,0.0,4.0,4.0,4.0,1.0,denture_03s.jpg,poinsettia_04s.jpg,,,,,,,
,,,,,,,,,1.0,,,81,0.0,0.0,1.41111,0.0,5.0,5.0,5.0,1.0,kangaroo_02s.jpg,gear_07s.jpg,,,,,,,
,,,,,,,,,,,,81,,,,,,,,,,,0.0,6.0,6.0,6.0,1.0,newclockpresent_7_4.xlsx,newclock_compare_task_7_4.xlsx
0.0,1.0,1.828645,0.0,0.0,0.0,0.0,1.0,lamppost_09s.jpg,0.0,Blue.png,1.0,81,,,,,,,,,,,,,,,,,
0.0,1.0,0.72966,0.0,1.0,1.0,1.0,1.0,jewel_01b.jpg,0.0,Purple.png,1.0,81,,,,,,,,,,,,,,,,,
0.0,1.0,0.882495,0.0,2.0,2.0,2.0,1.0,tuxedo_01b.jpg,0.0,Red.png,1.0,81,,,,,,,,,,,,,,,,,
0.0,1.0,0.71888,0.0,3.0,3.0,3.0,1.0,flip_flop_03s.jpg,0.0,Orange.png,1.0,81,,,,,,,,,,,,,,,,,
0.0,1.0,0.599195,0.0,4.0,4.0,4.0,1.0,medal_04s.jpg,0.0,Yellow.png,1.0,81,,,,,,,,,,,,,,,,,
1.0,1.0,0.795475,0.0,5.0,5.0,5.0,1.0,flip_flop_03s.jpg,1.0,Green.png,1.0,81,,,,,,,,,,,,,,,,,
1.0,0.0,2.22764,0.0,6.0,6.0,6.0,1.0,tuxedo_01b.jpg,0.0,Blue.png,2.0,81,,,,,,,,,,,,,,,,,
1.0,0.0,0.72043,0.0,7.0,7.0,7.0,1.0,flip_flop_03s.jpg,0.0,Purple.png,2.0,81,,,,,,,,,,,,,,,,,
0.0,1.0,0.588605,0.0,8.0,8.0,8.0,1.0,fireworks_18s.jpg,0.0,Red.png,2.0,81,,,,,,,,,,,,,,,,,
0.0,1.0,0.696,0.0,9.0,9.0,9.0,1.0,squirt_gun_03s.jpg,0.0,Orange.png,2.0,81,,,,,,,,,,,,,,,,,
1.0,1.0,0.7348,0.0,10.0,10.0,10.0,1.0,flip_flop_03s.jpg,1.0,Yellow.png,2.0,81,,,,,,,,,,,,,,,,,
0.0,1.0,0.63201,0.0,11.0,11.0,11.0,1.0,puffin_19s.jpg,0.0,Green.png,2.0,81,,,,,,,,,,,,,,,,,
1.0,0.0,0.675975,0.0,12.0,12.0,12.0,1.0,tuxedo_01b.jpg,0.0,Blue.png,3.0,81,,,,,,,,,,,,,,,,,
1.0,1.0,0.55986,0.0,13.0,13.0,13.0,1.0,tuxedo_01b.jpg,1.0,Purple.png,3.0,81,,,,,,,,,,,,,,,,,
0.0,1.0,0.59513,0.0,14.0,14.0,14.0,1.0,snowman_02s.jpg,0.0,Red.png,3.0,81,,,,,,,,,,,,,,,,,
0.0,1.0,0.56369,0.0,15.0,15.0,15.0,1.0,cucumber_07s.jpg,0.0,Orange.png,3.0,81,,,,,,,,,,,,,,,,,
0.0,1.0,0.64815,0.0,16.0,16.0,16.0,1.0,plug_08s.jpg,0.0,Yellow.png,3.0,81,,,,,,,,,,,,,,,,,
1.0,1.0,1.012675,0.0,17.0,17.0,17.0,1.0,cucumber_07s.jpg,1.0,Green.png,3.0,81,,,,,,,,,,,,,,,,,
1.0,0.0,0.637255,0.0,18.0,18.0,18.0,1.0,puffin_19s.jpg,0.0,Blue.png,4.0,81,,,,,,,,,,,,,,,,,
0.0,1.0,0.718055,0.0,19.0,19.0,19.0,1.0,fondue_07s.jpg,0.0,Purple.png,4.0,81,,,,,,,,,,,,,,,,,
0.0,1.0,0.85975,0.0,20.0,20.0,20.0,1.0,lasagna_06s.jpg,0.0,Red.png,4.0,81,,,,,,,,,,,,,,,,,
0.0,1.0,0.614475,0.0,21.0,21.0,21.0,1.0,eiffeltower.jpg,0.0,Orange.png,4.0,81,,,,,,,,,,,,,,,,,
0.0,1.0,0.696065,0.0,22.0,22.0,22.0,1.0,outlet_10s.jpg,0.0,Yellow.png,4.0,81,,,,,,,,,,,,,,,,,
0.0,1.0,1.02908,0.0,23.0,23.0,23.0,1.0,cape_11s.jpg,0.0,Green.png,4.0,81,,,,,,,,,,,,,,,,,
0.0,1.0,1.643915,0.0,24.0,24.0,24.0,1.0,marshmallow_08s.jpg,0.0,Blue.png,5.0,81,,,,,,,,,,,,,,,,,
0.0,1.0,0.57911,0.0,25.0,25.0,25.0,1.0,racehorse_03s.jpg,0.0,Purple.png,5.0,81,,,,,,,,,,,,,,,,,
0.0,1.0,0.745015,0.0,26.0,26.0,26.0,1.0,aluminum_foil_08s.jpg,0.0,Red.png,5.0,81,,,,,,,,,,,,,,,,,
0.0,1.0,0.78581,0.0,27.0,27.0,27.0,1.0,spoon02a.jpg,0.0,Orange.png,5.0,81,,,,,,,,,,,,,,,,,
0.0,1.0,0.748435,0.0,28.0,28.0,28.0,1.0,padlock_07s.jpg,0.0,Yellow.png,5.0,81,,,,,,,,,,,,,,,,,
0.0,1.0,0.774185,0.0,29.0,29.0,29.0,1.0,solar_panel_02s.jpg,0.0,Green.png,5.0,81,,,,,,,,,,,,,,,,,
0.0,1.0,0.863075,0.0,30.0,30.0,30.0,1.0,turtleneck_11s.jpg,0.0,Blue.png,6.0,81,,,,,,,,,,,,,,,,,
0.0,1.0,1.03205,0.0,31.0,31.0,31.0,1.0,pocketknife_12s.jpg,0.0,Purple.png,6.0,81,,,,,,,,,,,,,,,,,
1.0,1.0,1.385195,0.0,32.0,32.0,32.0,1.0,pocketknife_12s.jpg,1.0,Red.png,6.0,81,,,,,,,,,,,,,,,,,
0.0,1.0,0.595335,0.0,33.0,33.0,33.0,1.0,quill_09s.jpg,0.0,Orange.png,6.0,81,,,,,,,,,,,,,,,,,
1.0,1.0,0.644975,0.0,34.0,34.0,34.0,1.0,quill_09s.jpg,1.0,Yellow.png,6.0,81,,,,,,,,,,,,,,,,,
1.0,1.0,0.63519,0.0,35.0,35.0,35.0,1.0,pocketknife_12s.jpg,1.0,Green.png,6.0,81,,,,,,,,,,,,,,,,,
,,,,,,,,,0.0,,,81,0.0,1.0,2.24579,0.0,0.0,0.0,0.0,1.0,cape_11s.jpg,lasagna_06s.jpg,,,,,,,
,,,,,,,,,0.0,,,81,1.0,0.0,2.318365,0.0,1.0,1.0,1.0,1.0,padlock_07s.jpg,racehorse_03s.jpg,,,,,,,
,,,,,,,,,1.0,,,81,0.0,0.0,1.969045,0.0,2.0,2.0,2.0,1.0,spoon02a.jpg,turtleneck_11s.jpg,,,,,,,
,,,,,,,,,0.0,,,81,1.0,0.0,1.80629,0.0,3.0,3.0,3.0,1.0,marshmallow_08s.jpg,eiffeltower.jpg,,,,,,,
,,,,,,,,,0.0,,,81,0.0,1.0,2.35749,0.0,4.0,4.0,4.0,1.0,medal_04s.jpg,jewel_01b.jpg,,,,,,,
,,,,,,,,,1.0,,,81,1.0,1.0,1.342445,0.0,5.0,5.0,5.0,1.0,plug_08s.jpg,fondue_07s.jpg,,,,,,,
,,,,,,,,,,,,81,,,,,,,,,,,0.0,7.0,7.0,7.0,1.0,newclockpresent_8_4.xlsx,newclock_compare_task_8_4.xlsx
0.0,1.0,1.255645,0.0,0.0,0.0,0.0,1.0,footprint_11s.jpg,0.0,Blue.png,1.0,81,,,,,,,,,,,,,,,,,
0.0,1.0,0.830305,0.0,1.0,1.0,1.0,1.0,coffee_filter_10s.jpg,0.0,Purple.png,1.0,81,,,,,,,,,,,,,,,,,
1.0,1.0,1.14756,0.0,2.0,2.0,2.0,1.0,coffee_filter_10s.jpg,1.0,Red.png,1.0,81,,,,,,,,,,,,,,,,,
1.0,1.0,0.683245,0.0,3.0,3.0,3.0,1.0,coffee_filter_10s.jpg,1.0,Orange.png,1.0,81,,,,,,,,,,,,,,,,,
1.0,1.0,0.864085,0.0,4.0,4.0,4.0,1.0,coffee_filter_10s.jpg,1.0,Yellow.png,1.0,81,,,,,,,,,,,,,,,,,
0.0,1.0,0.943135,0.0,5.0,5.0,5.0,1.0,gargoyle_08s.jpg,0.0,Green.png,1.0,81,,,,,,,,,,,,,,,,,
0.0,1.0,1.547975,0.0,6.0,6.0,6.0,1.0,candy_cane_06s.jpg,0.0,Blue.png,2.0,81,,,,,,,,,,,,,,,,,
0.0,1.0,0.864025,0.0,7.0,7.0,7.0,1.0,toad_09s.jpg,0.0,Purple.png,2.0,81,,,,,,,,,,,,,,,,,
1.0,1.0,0.7952,0.0,8.0,8.0,8.0,1.0,candy_cane_06s.jpg,1.0,Red.png,2.0,81,,,,,,,,,,,,,,,,,
0.0,1.0,0.918955,0.0,9.0,9.0,9.0,1.0,pumpkin_03s.jpg,0.0,Orange.png,2.0,81,,,,,,,,,,,,,,,,,
0.0,1.0,0.73079,0.0,10.0,10.0,10.0,1.0,dashboard_02s.jpg,0.0,Yellow.png,2.0,81,,,,,,,,,,,,,,,,,
0.0,1.0,0.567265,0.0,11.0,11.0,11.0,1.0,syringe_02s.jpg,0.0,Green.png,2.0,81,,,,,,,,,,,,,,,,,
0.0,1.0,0.79405,0.0,12.0,12.0,12.0,1.0,powder_07s.jpg,0.0,Blue.png,3.0,81,,,,,,,,,,,,,,,,,
1.0,1.0,1.412085,0.0,13.0,13.0,13.0,1.0,powder_07s.jpg,1.0,Purple.png,3.0,81,,,,,,,,,,,,,,,,,
1.0,1.0,1.209855,0.0,14.0,14.0,14.0,1.0,powder_07s.jpg,1.0,Red.png,3.0,81,,,,,,,,,,,,,,,,,
0.0,1.0,0.796705,0.0,15.0,15.0,15.0,1.0,sea_urchin_09s.jpg,0.0,Orange.png,3.0,81,,,,,,,,,,,,,,,,,
0.0,1.0,0.6019,0.0,16.0,16.0,16.0,1.0,throne_11s.jpg,0.0,Yellow.png,3.0,81,,,,,,,,,,,,,,,,,
,0.0,,0.0,17.0,17.0,17.0,1.0,powder_07s.jpg,1.0,Green.png,3.0,81,,,,,,,,,,,,,,,,,
0.0,1.0,0.73231,0.0,18.0,18.0,18.0,1.0,chalice_10s.jpg,0.0,Blue.png,4.0,81,,,,,,,,,,,,,,,,,
0.0,1.0,0.62849,0.0,19.0,19.0,19.0,1.0,air_pump_05s.jpg,0.0,Purple.png,4.0,81,,,,,,,,,,,,,,,,,
0.0,1.0,0.594205,0.0,20.0,20.0,20.0,1.0,microwave_02s.jpg,0.0,Red.png,4.0,81,,,,,,,,,,,,,,,,,
0.0,1.0,0.65038,0.0,21.0,21.0,21.0,1.0,cereal_04s.jpg,0.0,Orange.png,4.0,81,,,,,,,,,,,,,,,,,
0.0,1.0,0.79332,0.0,22.0,22.0,22.0,1.0,mushroom_10n.jpg,0.0,Yellow.png,4.0,81,,,,,,,,,,,,,,,,,
0.0,1.0,0.810405,0.0,23.0,23.0,23.0,1.0,red_carpet_03s.jpg,0.0,Green.png,4.0,81,,,,,,,,,,,,,,,,,
1.0,0.0,1.348895,0.0,24.0,24.0,24.0,1.0,throne_11s.jpg,0.0,Blue.png,5.0,81,,,,,,,,,,,,,,,,,
0.0,1.0,0.945615,0.0,25.0,25.0,25.0,1.0,koala_13s.jpg,0.0,Purple.png,5.0,81,,,,,,,,,,,,,,,,,
1.0,1.0,1.048025,0.0,26.0,26.0,26.0,1.0,throne_11s.jpg,1.0,Red.png,5.0,81,,,,,,,,,,,,,,,,,
0.0,1.0,0.695815,0.0,27.0,27.0,27.0,1.0,rocket_02s.jpg,0.0,Orange.png,5.0,81,,,,,,,,,,,,,,,,,
0.0,1.0,0.59473,0.0,28.0,28.0,28.0,1.0,swordfish_05s.jpg,0.0,Yellow.png,5.0,81,,,,,,,,,,,,,,,,,
1.0,1.0,1.24636,0.0,29.0,29.0,29.0,1.0,rocket_02s.jpg,1.0,Green.png,5.0,81,,,,,,,,,,,,,,,,,
0.0,1.0,1.131575,0.0,30.0,30.0,30.0,1.0,icicle_04s.jpg,0.0,Blue.png,6.0,81,,,,,,,,,,,,,,,,,
0.0,1.0,0.71061,0.0,31.0,31.0,31.0,1.0,keyboard_05s.jpg,0.0,Purple.png,6.0,81,,,,,,,,,,,,,,,,,
0.0,1.0,0.59582,0.0,32.0,32.0,32.0,1.0,pocket_watch_16s.jpg,0.0,Red.png,6.0,81,,,,,,,,,,,,,,,,,
0.0,1.0,0.726855,0.0,33.0,33.0,33.0,1.0,tablet_04s.jpg,0.0,Orange.png,6.0,81,,,,,,,,,,,,,,,,,
0.0,1.0,0.92858,0.0,34.0,34.0,34.0,1.0,chocolate_01b.jpg,0.0,Yellow.png,6.0,81,,,,,,,,,,,,,,,,,
0.0,1.0,0.79655,0.0,35.0,35.0,35.0,1.0,light_switch_02s.jpg,0.0,Green.png,6.0,81,,,,,,,,,,,,,,,,,
,,,,,,,,,0.0,,,81,0.0,1.0,1.7785,0.0,0.0,0.0,0.0,1.0,chalice_10s.jpg,sea_urchin_09s.jpg,,,,,,,
,,,,,,,,,1.0,,,81,0.0,0.0,2.00197,0.0,1.0,1.0,1.0,1.0,swordfish_05s.jpg,keyboard_05s.jpg,,,,,,,
,,,,,,,,,0.0,,,81,1.0,0.0,1.185575,0.0,2.0,2.0,2.0,1.0,red_carpet_03s.jpg,microwave_02s.jpg,,,,,,,
,,,,,,,,,0.0,,,81,0.0,1.0,1.035615,0.0,3.0,3.0,3.0,1.0,dashboard_02s.jpg,toad_09s.jpg,,,,,,,
,,,,,,,,,0.0,,,81,0.0,1.0,1.918565,0.0,4.0,4.0,4.0,1.0,koala_13s.jpg,mushroom_10n.jpg,,,,,,,
,,,,,,,,,1.0,,,81,1.0,1.0,1.342985,0.0,5.0,5.0,5.0,1.0,icicle_04s.jpg,tablet_04s.jpg,,,,,,,
,,,,,,,,,,,,81,,,,,,,,,,,0.0,8.0,8.0,8.0,1.0,newclockpresent_9_4.xlsx,newclock_compare_task_9_4.xlsx
