key_resp.keys,key_resp.corr,present_segment.thisRepN,present_segment.thisTrialN,present_segment.thisN,present_segment.thisIndex,present_segment.ran,pictures,answer,clock,segment,participant,key_resp.rt,key_resp_2.keys,key_resp_2.corr,key_resp_2.rt,compare_segment.thisRepN,compare_segment.thisTrialN,compare_segment.thisN,compare_segment.thisIndex,compare_segment.ran,item_a,item_b,clock_conditions.thisRepN,clock_conditions.thisTrialN,clock_conditions.thisN,clock_conditions.thisIndex,clock_conditions.ran,present,compare
,0.0,0.0,0.0,0.0,0.0,1.0,insole_11s.jpg,0.0,Blue.png,1.0,62,,,,,,,,,,,,,,,,,,
,0.0,0.0,1.0,1.0,1.0,1.0,tupperware_09s.jpg,0.0,Purple.png,1.0,62,,,,,,,,,,,,,,,,,,
0.0,1.0,0.0,2.0,2.0,2.0,1.0,tupperware_09s.jpg,0.0,Red.png,1.0,62,1.364,,,,,,,,,,,,,,,,,
0.0,1.0,0.0,3.0,3.0,3.0,1.0,fox_13s.jpg,0.0,Orange.png,1.0,62,0.663,,,,,,,,,,,,,,,,,
1.0,1.0,0.0,4.0,4.0,4.0,1.0,tupperware_09s.jpg,1.0,Yellow.png,1.0,62,1.144,,,,,,,,,,,,,,,,,
0.0,1.0,0.0,5.0,5.0,5.0,1.0,lavender_10s.jpg,0.0,Green.png,1.0,62,1.141,,,,,,,,,,,,,,,,,
1.0,1.0,0.0,6.0,6.0,6.0,1.0,tupperware_09s.jpg,1.0,Blue.png,2.0,62,1.465,,,,,,,,,,,,,,,,,
0.0,1.0,0.0,7.0,7.0,7.0,1.0,poinsettia_04s.jpg,0.0,Purple.png,2.0,62,0.989,,,,,,,,,,,,,,,,,
0.0,1.0,0.0,8.0,8.0,8.0,1.0,margarita_03s.jpg,0.0,Red.png,2.0,62,0.616,,,,,,,,,,,,,,,,,
0.0,1.0,0.0,9.0,9.0,9.0,1.0,toothpaste_12s.jpg,0.0,Orange.png,2.0,62,0.577,,,,,,,,,,,,,,,,,
0.0,1.0,0.0,10.0,10.0,10.0,1.0,ladder_15s.jpg,0.0,Yellow.png,2.0,62,0.684,,,,,,,,,,,,,,,,,
0.0,1.0,0.0,11.0,11.0,11.0,1.0,pocketknife_12s.jpg,0.0,Green.png,2.0,62,0.816,,,,,,,,,,,,,,,,,
0.0,1.0,0.0,12.0,12.0,12.0,1.0,spoon02a.jpg,0.0,Blue.png,3.0,62,0.597,,,,,,,,,,,,,,,,,
0.0,1.0,0.0,13.0,13.0,13.0,1.0,mango_09s.jpg,0.0,Purple.png,3.0,62,0.619,,,,,,,,,,,,,,,,,
0.0,1.0,0.0,14.0,14.0,14.0,1.0,chalice_10s.jpg,0.0,Red.png,3.0,62,0.698,,,,,,,,,,,,,,,,,
0.0,1.0,0.0,15.0,15.0,15.0,1.0,pocketknife_12s.jpg,0.0,Orange.png,3.0,62,0.75,,,,,,,,,,,,,,,,,
0.0,1.0,0.0,16.0,16.0,16.0,1.0,abacus_12s.jpg,0.0,Yellow.png,3.0,62,0.579,,,,,,,,,,,,,,,,,
0.0,1.0,0.0,17.0,17.0,17.0,1.0,abacus_12s.jpg,0.0,Green.png,3.0,62,0.847,,,,,,,,,,,,,,,,,
1.0,1.0,0.0,18.0,18.0,18.0,1.0,abacus_12s.jpg,1.0,Blue.png,4.0,62,1.288,,,,,,,,,,,,,,,,,
1.0,1.0,0.0,19.0,19.0,19.0,1.0,abacus_12s.jpg,1.0,Purple.png,4.0,62,0.972,,,,,,,,,,,,,,,,,
0.0,1.0,0.0,20.0,20.0,20.0,1.0,sushi_08s.jpg,0.0,Red.png,4.0,62,1.135,,,,,,,,,,,,,,,,,
0.0,1.0,0.0,21.0,21.0,21.0,1.0,funnel_01b.jpg,0.0,Orange.png,4.0,62,0.608,,,,,,,,,,,,,,,,,
0.0,1.0,0.0,22.0,22.0,22.0,1.0,rooster_03s.jpg,0.0,Yellow.png,4.0,62,0.663,,,,,,,,,,,,,,,,,
0.0,1.0,0.0,23.0,23.0,23.0,1.0,ukulele_02s.jpg,0.0,Green.png,4.0,62,0.673,,,,,,,,,,,,,,,,,
0.0,1.0,0.0,24.0,24.0,24.0,1.0,pocketknife_12s.jpg,0.0,Blue.png,5.0,62,0.703,,,,,,,,,,,,,,,,,
0.0,1.0,0.0,25.0,25.0,25.0,1.0,pocketknife_12s.jpg,0.0,Purple.png,5.0,62,0.601,,,,,,,,,,,,,,,,,
1.0,1.0,0.0,26.0,26.0,26.0,1.0,pocketknife_12s.jpg,1.0,Red.png,5.0,62,1.43,,,,,,,,,,,,,,,,,
0.0,1.0,0.0,27.0,27.0,27.0,1.0,stapler_01b.jpg,0.0,Orange.png,5.0,62,1.29,,,,,,,,,,,,,,,,,
0.0,1.0,0.0,28.0,28.0,28.0,1.0,birthday_cake_09s.jpg,0.0,Yellow.png,5.0,62,0.609,,,,,,,,,,,,,,,,,
0.0,1.0,0.0,29.0,29.0,29.0,1.0,meatball_13s.jpg,0.0,Green.png,5.0,62,0.699,,,,,,,,,,,,,,,,,
0.0,1.0,0.0,30.0,30.0,30.0,1.0,cape_11s.jpg,0.0,Blue.png,6.0,62,0.68,,,,,,,,,,,,,,,,,
0.0,1.0,0.0,31.0,31.0,31.0,1.0,cape_11s.jpg,0.0,Purple.png,6.0,62,1.064,,,,,,,,,,,,,,,,,
0.0,1.0,0.0,32.0,32.0,32.0,1.0,lizard_10n.jpg,0.0,Red.png,6.0,62,0.972,,,,,,,,,,,,,,,,,
0.0,1.0,0.0,33.0,33.0,33.0,1.0,refrigerator_07s.jpg,0.0,Orange.png,6.0,62,0.613,,,,,,,,,,,,,,,,,
0.0,1.0,0.0,34.0,34.0,34.0,1.0,refrigerator_07s.jpg,0.0,Yellow.png,6.0,62,0.756,,,,,,,,,,,,,,,,,
0.0,1.0,0.0,35.0,35.0,35.0,1.0,touchpad_11s.jpg,0.0,Green.png,6.0,62,0.701,,,,,,,,,,,,,,,,,
,,,,,,,,1.0,,,62,,0.0,0.0,3.183,0.0,0.0,0.0,0.0,1.0,lavender_10s.jpg,margarita_03s.jpg,,,,,,,
,,,,,,,,1.0,,,62,,0.0,0.0,1.87,0.0,1.0,1.0,1.0,1.0,toothpaste_12s.jpg,spoon02a.jpg,,,,,,,
,,,,,,,,1.0,,,62,,1.0,1.0,2.502,0.0,2.0,2.0,2.0,1.0,ladder_15s.jpg,mango_09s.jpg,,,,,,,
,,,,,,,,0.0,,,62,,0.0,1.0,2.166,0.0,3.0,3.0,3.0,1.0,fox_13s.jpg,insole_11s.jpg,,,,,,,
,,,,,,,,0.0,,,62,,1.0,0.0,2.086,0.0,4.0,4.0,4.0,1.0,ukulele_02s.jpg,sushi_08s.jpg,,,,,,,
,,,,,,,,0.0,,,62,,0.0,1.0,2.866,0.0,5.0,5.0,5.0,1.0,touchpad_11s.jpg,lizard_10n.jpg,,,,,,,
,,,,,,,,,,,62,,,,,,,,,,,,0.0,0.0,0.0,0.0,1.0,new2backpresent_1_2.xlsx,new2back_compare_task_1_2.xlsx
,0.0,0.0,0.0,0.0,0.0,1.0,juicer2_06s.jpg,0.0,Blue.png,1.0,62,,,,,,,,,,,,,,,,,,
,0.0,0.0,1.0,1.0,1.0,1.0,juicer2_06s.jpg,0.0,Purple.png,1.0,62,,,,,,,,,,,,,,,,,,
0.0,1.0,0.0,2.0,2.0,2.0,1.0,tambourine_06s.jpg,0.0,Red.png,1.0,62,1.712,,,,,,,,,,,,,,,,,
0.0,1.0,0.0,3.0,3.0,3.0,1.0,luggage_08s.jpg,0.0,Orange.png,1.0,62,0.776,,,,,,,,,,,,,,,,,
0.0,0.0,0.0,4.0,4.0,4.0,1.0,tambourine_06s.jpg,1.0,Yellow.png,1.0,62,1.862,,,,,,,,,,,,,,,,,
0.0,1.0,0.0,5.0,5.0,5.0,1.0,towel_rack_04s.jpg,0.0,Green.png,1.0,62,0.691,,,,,,,,,,,,,,,,,
0.0,1.0,0.0,6.0,6.0,6.0,1.0,crayon_09s.jpg,0.0,Blue.png,2.0,62,0.602,,,,,,,,,,,,,,,,,
0.0,1.0,0.0,7.0,7.0,7.0,1.0,gargoyle_08s.jpg,0.0,Purple.png,2.0,62,0.61,,,,,,,,,,,,,,,,,
0.0,1.0,0.0,8.0,8.0,8.0,1.0,boar_10s.jpg,0.0,Red.png,2.0,62,0.589,,,,,,,,,,,,,,,,,
1.0,1.0,0.0,9.0,9.0,9.0,1.0,gargoyle_08s.jpg,1.0,Orange.png,2.0,62,1.464,,,,,,,,,,,,,,,,,
0.0,1.0,0.0,10.0,10.0,10.0,1.0,limousine_12s.jpg,0.0,Yellow.png,2.0,62,1.193,,,,,,,,,,,,,,,,,
0.0,1.0,0.0,11.0,11.0,11.0,1.0,outlet_10s.jpg,0.0,Green.png,2.0,62,0.7,,,,,,,,,,,,,,,,,
0.0,1.0,0.0,12.0,12.0,12.0,1.0,comic_book_02s.jpg,0.0,Blue.png,3.0,62,0.669,,,,,,,,,,,,,,,,,
0.0,1.0,0.0,13.0,13.0,13.0,1.0,mask_09s.jpg,0.0,Purple.png,3.0,62,0.622,,,,,,,,,,,,,,,,,
0.0,1.0,0.0,14.0,14.0,14.0,1.0,lasagna_06s.jpg,0.0,Red.png,3.0,62,0.702,,,,,,,,,,,,,,,,,
0.0,1.0,0.0,15.0,15.0,15.0,1.0,diving_board_07s.jpg,0.0,Orange.png,3.0,62,0.645,,,,,,,,,,,,,,,,,
0.0,1.0,0.0,16.0,16.0,16.0,1.0,lion_18s.jpg,0.0,Yellow.png,3.0,62,0.585,,,,,,,,,,,,,,,,,
1.0,1.0,0.0,17.0,17.0,17.0,1.0,diving_board_07s.jpg,1.0,Green.png,3.0,62,1.359,,,,,,,,,,,,,,,,,
1.0,1.0,0.0,18.0,18.0,18.0,1.0,lion_18s.jpg,1.0,Blue.png,4.0,62,0.609,,,,,,,,,,,,,,,,,
0.0,1.0,0.0,19.0,19.0,19.0,1.0,medal_04s.jpg,0.0,Purple.png,4.0,62,1.936,,,,,,,,,,,,,,,,,
0.0,1.0,0.0,20.0,20.0,20.0,1.0,incense_02s.jpg,0.0,Red.png,4.0,62,0.671,,,,,,,,,,,,,,,,,
0.0,1.0,0.0,21.0,21.0,21.0,1.0,tape_06s.jpg,0.0,Orange.png,4.0,62,0.787,,,,,,,,,,,,,,,,,
1.0,0.0,0.0,22.0,22.0,22.0,1.0,medal_04s.jpg,0.0,Yellow.png,4.0,62,1.423,,,,,,,,,,,,,,,,,
0.0,1.0,0.0,23.0,23.0,23.0,1.0,buoy_04s.jpg,0.0,Green.png,4.0,62,1.266,,,,,,,,,,,,,,,,,
1.0,0.0,0.0,24.0,24.0,24.0,1.0,limousine_12s.jpg,0.0,Blue.png,5.0,62,1.342,,,,,,,,,,,,,,,,,
0.0,1.0,0.0,25.0,25.0,25.0,1.0,jewel_01b.jpg,0.0,Purple.png,5.0,62,1.167,,,,,,,,,,,,,,,,,
0.0,1.0,0.0,26.0,26.0,26.0,1.0,parachute_03s.jpg,0.0,Red.png,5.0,62,0.611,,,,,,,,,,,,,,,,,
0.0,1.0,0.0,27.0,27.0,27.0,1.0,mannequin_05s.jpg,0.0,Orange.png,5.0,62,0.692,,,,,,,,,,,,,,,,,
0.0,1.0,0.0,28.0,28.0,28.0,1.0,snowman_02s.jpg,0.0,Yellow.png,5.0,62,0.583,,,,,,,,,,,,,,,,,
0.0,1.0,0.0,29.0,29.0,29.0,1.0,fossil_06s.jpg,0.0,Green.png,5.0,62,0.636,,,,,,,,,,,,,,,,,
0.0,1.0,0.0,30.0,30.0,30.0,1.0,perfume_06s.jpg,0.0,Blue.png,6.0,62,0.681,,,,,,,,,,,,,,,,,
1.0,1.0,0.0,31.0,31.0,31.0,1.0,fossil_06s.jpg,1.0,Purple.png,6.0,62,1.576,,,,,,,,,,,,,,,,,
0.0,1.0,0.0,32.0,32.0,32.0,1.0,pancake_12s.jpg,0.0,Red.png,6.0,62,1.123,,,,,,,,,,,,,,,,,
0.0,1.0,0.0,33.0,33.0,33.0,1.0,tie_03s.jpg,0.0,Orange.png,6.0,62,0.609,,,,,,,,,,,,,,,,,
1.0,1.0,0.0,34.0,34.0,34.0,1.0,pancake_12s.jpg,1.0,Yellow.png,6.0,62,1.362,,,,,,,,,,,,,,,,,
0.0,1.0,0.0,35.0,35.0,35.0,1.0,padlock_07s.jpg,0.0,Green.png,6.0,62,1.158,,,,,,,,,,,,,,,,,
,,,,,,,,0.0,,,62,,1.0,0.0,1.588,0.0,0.0,0.0,0.0,1.0,crayon_09s.jpg,luggage_08s.jpg,,,,,,,
,,,,,,,,1.0,,,62,,1.0,1.0,1.281,0.0,1.0,1.0,1.0,1.0,towel_rack_04s.jpg,boar_10s.jpg,,,,,,,
,,,,,,,,0.0,,,62,,1.0,0.0,2.803,0.0,2.0,2.0,2.0,1.0,lasagna_06s.jpg,outlet_10s.jpg,,,,,,,
,,,,,,,,1.0,,,62,,0.0,0.0,1.576,0.0,3.0,3.0,3.0,1.0,jewel_01b.jpg,snowman_02s.jpg,,,,,,,
,,,,,,,,0.0,,,62,,0.0,1.0,1.918,0.0,4.0,4.0,4.0,1.0,buoy_04s.jpg,incense_02s.jpg,,,,,,,
,,,,,,,,0.0,,,62,,0.0,1.0,1.414,0.0,5.0,5.0,5.0,1.0,tie_03s.jpg,perfume_06s.jpg,,,,,,,
,,,,,,,,,,,62,,,,,,,,,,,,0.0,1.0,1.0,1.0,1.0,new2backpresent_2_2.xlsx,new2back_compare_task_2_2.xlsx
0.0,1.0,0.0,0.0,0.0,0.0,1.0,surfboard_11s.jpg,0.0,Blue.png,1.0,62,1.366,,,,,,,,,,,,,,,,,
1.0,0.0,0.0,1.0,1.0,1.0,1.0,surfboard_11s.jpg,0.0,Purple.png,1.0,62,1.558,,,,,,,,,,,,,,,,,
1.0,1.0,0.0,2.0,2.0,2.0,1.0,surfboard_11s.jpg,1.0,Red.png,1.0,62,1.267,,,,,,,,,,,,,,,,,
0.0,1.0,0.0,3.0,3.0,3.0,1.0,badge_03s.jpg,0.0,Orange.png,1.0,62,1.149,,,,,,,,,,,,,,,,,
1.0,1.0,0.0,4.0,4.0,4.0,1.0,surfboard_11s.jpg,1.0,Yellow.png,1.0,62,1.143,,,,,,,,,,,,,,,,,
1.0,0.0,0.0,5.0,5.0,5.0,1.0,surfboard_11s.jpg,0.0,Green.png,1.0,62,1.117,,,,,,,,,,,,,,,,,
1.0,1.0,0.0,6.0,6.0,6.0,1.0,surfboard_11s.jpg,1.0,Blue.png,2.0,62,1.197,,,,,,,,,,,,,,,,,
0.0,1.0,0.0,7.0,7.0,7.0,1.0,playpen_11s.jpg,0.0,Purple.png,2.0,62,1.15,,,,,,,,,,,,,,,,,
1.0,1.0,0.0,8.0,8.0,8.0,1.0,surfboard_11s.jpg,1.0,Red.png,2.0,62,1.138,,,,,,,,,,,,,,,,,
0.0,1.0,0.0,9.0,9.0,9.0,1.0,popcorn_09s.jpg,0.0,Orange.png,2.0,62,0.693,,,,,,,,,,,,,,,,,
1.0,1.0,0.0,10.0,10.0,10.0,1.0,surfboard_11s.jpg,1.0,Yellow.png,2.0,62,1.388,,,,,,,,,,,,,,,,,
1.0,1.0,0.0,11.0,11.0,11.0,1.0,popcorn_09s.jpg,1.0,Green.png,2.0,62,1.675,,,,,,,,,,,,,,,,,
0.0,1.0,0.0,12.0,12.0,12.0,1.0,lollipop_08s.jpg,0.0,Blue.png,3.0,62,1.131,,,,,,,,,,,,,,,,,
1.0,1.0,0.0,13.0,13.0,13.0,1.0,popcorn_09s.jpg,1.0,Purple.png,3.0,62,1.282,,,,,,,,,,,,,,,,,
0.0,1.0,0.0,14.0,14.0,14.0,1.0,fire_pit_10s.jpg,0.0,Red.png,3.0,62,1.136,,,,,,,,,,,,,,,,,
0.0,1.0,0.0,15.0,15.0,15.0,1.0,joystick_01b.jpg,0.0,Orange.png,3.0,62,0.69,,,,,,,,,,,,,,,,,
0.0,1.0,0.0,16.0,16.0,16.0,1.0,panda_02s.jpg,0.0,Yellow.png,3.0,62,0.575,,,,,,,,,,,,,,,,,
0.0,1.0,0.0,17.0,17.0,17.0,1.0,sundae_08s.jpg,0.0,Green.png,3.0,62,0.674,,,,,,,,,,,,,,,,,
0.0,1.0,0.0,18.0,18.0,18.0,1.0,boomerang_06s.jpg,0.0,Blue.png,4.0,62,0.601,,,,,,,,,,,,,,,,,
0.0,1.0,0.0,19.0,19.0,19.0,1.0,bagel_15s.jpg,0.0,Purple.png,4.0,62,0.578,,,,,,,,,,,,,,,,,
0.0,1.0,0.0,20.0,20.0,20.0,1.0,powder_07s.jpg,0.0,Red.png,4.0,62,0.602,,,,,,,,,,,,,,,,,
0.0,1.0,0.0,21.0,21.0,21.0,1.0,lipstick_02s.jpg,0.0,Orange.png,4.0,62,0.593,,,,,,,,,,,,,,,,,
1.0,0.0,0.0,22.0,22.0,22.0,1.0,bagel_15s.jpg,0.0,Yellow.png,4.0,62,1.428,,,,,,,,,,,,,,,,,
0.0,1.0,0.0,23.0,23.0,23.0,1.0,ladle_04s.jpg,0.0,Green.png,4.0,62,1.312,,,,,,,,,,,,,,,,,
0.0,1.0,0.0,24.0,24.0,24.0,1.0,megaphone_03s.jpg,0.0,Blue.png,5.0,62,0.608,,,,,,,,,,,,,,,,,
0.0,1.0,0.0,25.0,25.0,25.0,1.0,puck_06s.jpg,0.0,Purple.png,5.0,62,0.64,,,,,,,,,,,,,,,,,
0.0,1.0,0.0,26.0,26.0,26.0,1.0,cardinal_07s.jpg,0.0,Red.png,5.0,62,0.61,,,,,,,,,,,,,,,,,
1.0,1.0,0.0,27.0,27.0,27.0,1.0,puck_06s.jpg,1.0,Orange.png,5.0,62,1.484,,,,,,,,,,,,,,,,,
0.0,1.0,0.0,28.0,28.0,28.0,1.0,bee_20s.jpg,0.0,Yellow.png,5.0,62,1.2,,,,,,,,,,,,,,,,,
0.0,1.0,0.0,29.0,29.0,29.0,1.0,toilet_paper_12s.jpg,0.0,Green.png,5.0,62,0.69,,,,,,,,,,,,,,,,,
0.0,1.0,0.0,30.0,30.0,30.0,1.0,mud_13s.jpg,0.0,Blue.png,6.0,62,0.619,,,,,,,,,,,,,,,,,
0.0,1.0,0.0,31.0,31.0,31.0,1.0,measuring_cup_02s.jpg,0.0,Purple.png,6.0,62,0.608,,,,,,,,,,,,,,,,,
0.0,1.0,0.0,32.0,32.0,32.0,1.0,ostrich_06s.jpg,0.0,Red.png,6.0,62,0.663,,,,,,,,,,,,,,,,,
0.0,1.0,0.0,33.0,33.0,33.0,1.0,raspberry_12s.jpg,0.0,Orange.png,6.0,62,0.689,,,,,,,,,,,,,,,,,
1.0,0.0,0.0,34.0,34.0,34.0,1.0,mud_13s.jpg,0.0,Yellow.png,6.0,62,1.282,,,,,,,,,,,,,,,,,
0.0,1.0,0.0,35.0,35.0,35.0,1.0,radiator_05s.jpg,0.0,Green.png,6.0,62,1.163,,,,,,,,,,,,,,,,,
,,,,,,,,0.0,,,62,,1.0,0.0,1.837,0.0,0.0,0.0,0.0,1.0,measuring_cup_02s.jpg,bee_20s.jpg,,,,,,,
,,,,,,,,1.0,,,62,,0.0,0.0,1.89,0.0,1.0,1.0,1.0,1.0,lipstick_02s.jpg,megaphone_03s.jpg,,,,,,,
,,,,,,,,0.0,,,62,,0.0,1.0,1.991,0.0,2.0,2.0,2.0,1.0,boomerang_06s.jpg,joystick_01b.jpg,,,,,,,
,,,,,,,,0.0,,,62,,1.0,0.0,2.173,0.0,3.0,3.0,3.0,1.0,sundae_08s.jpg,fire_pit_10s.jpg,,,,,,,
,,,,,,,,0.0,,,62,,0.0,1.0,1.641,0.0,4.0,4.0,4.0,1.0,radiator_05s.jpg,ostrich_06s.jpg,,,,,,,
,,,,,,,,0.0,,,62,,1.0,0.0,2.046,0.0,5.0,5.0,5.0,1.0,ladle_04s.jpg,powder_07s.jpg,,,,,,,
,,,,,,,,,,,62,,,,,,,,,,,,0.0,2.0,2.0,2.0,1.0,new2backpresent_3_2.xlsx,new2back_compare_task_3_2.xlsx
0.0,1.0,0.0,0.0,0.0,0.0,1.0,glasses01a.jpg,0.0,Blue.png,1.0,62,1.734,,,,,,,,,,,,,,,,,
0.0,1.0,0.0,1.0,1.0,1.0,1.0,piano_13n.jpg,0.0,Purple.png,1.0,62,0.669,,,,,,,,,,,,,,,,,
0.0,1.0,0.0,2.0,2.0,2.0,1.0,candy_cane_06s.jpg,0.0,Red.png,1.0,62,0.509,,,,,,,,,,,,,,,,,
0.0,1.0,0.0,3.0,3.0,3.0,1.0,cushion_08s.jpg,0.0,Orange.png,1.0,62,0.555,,,,,,,,,,,,,,,,,
1.0,1.0,0.0,4.0,4.0,4.0,1.0,candy_cane_06s.jpg,1.0,Yellow.png,1.0,62,1.283,,,,,,,,,,,,,,,,,
1.0,0.0,0.0,5.0,5.0,5.0,1.0,candy_cane_06s.jpg,0.0,Green.png,1.0,62,1.176,,,,,,,,,,,,,,,,,
0.0,1.0,0.0,6.0,6.0,6.0,1.0,rosary_03s.jpg,0.0,Blue.png,2.0,62,0.705,,,,,,,,,,,,,,,,,
1.0,0.0,0.0,7.0,7.0,7.0,1.0,rosary_03s.jpg,0.0,Purple.png,2.0,62,1.37,,,,,,,,,,,,,,,,,
1.0,1.0,0.0,8.0,8.0,8.0,1.0,rosary_03s.jpg,1.0,Red.png,2.0,62,1.113,,,,,,,,,,,,,,,,,
1.0,1.0,0.0,9.0,9.0,9.0,1.0,rosary_03s.jpg,1.0,Orange.png,2.0,62,1.145,,,,,,,,,,,,,,,,,
0.0,1.0,0.0,10.0,10.0,10.0,1.0,kangaroo_02s.jpg,0.0,Yellow.png,2.0,62,1.263,,,,,,,,,,,,,,,,,
1.0,0.0,0.0,11.0,11.0,11.0,1.0,kangaroo_02s.jpg,0.0,Green.png,2.0,62,1.172,,,,,,,,,,,,,,,,,
1.0,1.0,0.0,12.0,12.0,12.0,1.0,kangaroo_02s.jpg,1.0,Blue.png,3.0,62,1.358,,,,,,,,,,,,,,,,,
1.0,1.0,0.0,13.0,13.0,13.0,1.0,kangaroo_02s.jpg,1.0,Purple.png,3.0,62,1.039,,,,,,,,,,,,,,,,,
0.0,1.0,0.0,14.0,14.0,14.0,1.0,ironing_board_07s.jpg,0.0,Red.png,3.0,62,0.723,,,,,,,,,,,,,,,,,
1.0,1.0,0.0,15.0,15.0,15.0,1.0,kangaroo_02s.jpg,1.0,Orange.png,3.0,62,0.834,,,,,,,,,,,,,,,,,
0.0,1.0,0.0,16.0,16.0,16.0,1.0,punch2_09s.jpg,0.0,Yellow.png,3.0,62,0.751,,,,,,,,,,,,,,,,,
1.0,0.0,0.0,17.0,17.0,17.0,1.0,ironing_board_07s.jpg,0.0,Green.png,3.0,62,0.748,,,,,,,,,,,,,,,,,
0.0,1.0,0.0,18.0,18.0,18.0,1.0,owl_15s.jpg,0.0,Blue.png,4.0,62,0.739,,,,,,,,,,,,,,,,,
0.0,1.0,0.0,19.0,19.0,19.0,1.0,teabag_12s.jpg,0.0,Purple.png,4.0,62,0.69,,,,,,,,,,,,,,,,,
1.0,1.0,0.0,20.0,20.0,20.0,1.0,owl_15s.jpg,1.0,Red.png,4.0,62,0.624,,,,,,,,,,,,,,,,,
0.0,1.0,0.0,21.0,21.0,21.0,1.0,otter_05s.jpg,0.0,Orange.png,4.0,62,0.758,,,,,,,,,,,,,,,,,
1.0,1.0,0.0,22.0,22.0,22.0,1.0,owl_15s.jpg,1.0,Yellow.png,4.0,62,0.671,,,,,,,,,,,,,,,,,
0.0,1.0,0.0,23.0,23.0,23.0,1.0,mold2_04s.jpg,0.0,Green.png,4.0,62,0.791,,,,,,,,,,,,,,,,,
0.0,1.0,0.0,24.0,24.0,24.0,1.0,mattress_01s.jpg,0.0,Blue.png,5.0,62,0.907,,,,,,,,,,,,,,,,,
0.0,1.0,0.0,25.0,25.0,25.0,1.0,police_car_01s.jpg,0.0,Purple.png,5.0,62,0.754,,,,,,,,,,,,,,,,,
0.0,1.0,0.0,26.0,26.0,26.0,1.0,stethoscope_01b.jpg,0.0,Red.png,5.0,62,0.767,,,,,,,,,,,,,,,,,
1.0,1.0,0.0,27.0,27.0,27.0,1.0,police_car_01s.jpg,1.0,Orange.png,5.0,62,0.986,,,,,,,,,,,,,,,,,
0.0,1.0,0.0,28.0,28.0,28.0,1.0,sparkler_02s.jpg,0.0,Yellow.png,5.0,62,0.753,,,,,,,,,,,,,,,,,
0.0,1.0,0.0,29.0,29.0,29.0,1.0,pacifier_09s.jpg,0.0,Green.png,5.0,62,0.776,,,,,,,,,,,,,,,,,
0.0,1.0,0.0,30.0,30.0,30.0,1.0,machine_gun_09s.jpg,0.0,Blue.png,6.0,62,0.765,,,,,,,,,,,,,,,,,
0.0,1.0,0.0,31.0,31.0,31.0,1.0,ram_05s.jpg,0.0,Purple.png,6.0,62,0.752,,,,,,,,,,,,,,,,,
0.0,1.0,0.0,32.0,32.0,32.0,1.0,keyboard_05s.jpg,0.0,Red.png,6.0,62,0.583,,,,,,,,,,,,,,,,,
0.0,1.0,0.0,33.0,33.0,33.0,1.0,leash_10s.jpg,0.0,Orange.png,6.0,62,0.668,,,,,,,,,,,,,,,,,
0.0,1.0,0.0,34.0,34.0,34.0,1.0,pan_02s.jpg,0.0,Yellow.png,6.0,62,0.833,,,,,,,,,,,,,,,,,
0.0,1.0,0.0,35.0,35.0,35.0,1.0,mixer_12s.jpg,0.0,Green.png,6.0,62,0.769,,,,,,,,,,,,,,,,,
,,,,,,,,0.0,,,62,,1.0,0.0,3.074,0.0,0.0,0.0,0.0,1.0,teabag_12s.jpg,punch2_09s.jpg,,,,,,,
,,,,,,,,0.0,,,62,,1.0,0.0,1.435,0.0,1.0,1.0,1.0,1.0,mattress_01s.jpg,otter_05s.jpg,,,,,,,
,,,,,,,,0.0,,,62,,1.0,0.0,1.86,0.0,2.0,2.0,2.0,1.0,stethoscope_01b.jpg,mold2_04s.jpg,,,,,,,
,,,,,,,,1.0,,,62,,1.0,1.0,1.11,0.0,3.0,3.0,3.0,1.0,glasses01a.jpg,cushion_08s.jpg,,,,,,,
,,,,,,,,1.0,,,62,,1.0,1.0,1.471,0.0,4.0,4.0,4.0,1.0,machine_gun_09s.jpg,leash_10s.jpg,,,,,,,
,,,,,,,,0.0,,,62,,0.0,1.0,2.077,0.0,5.0,5.0,5.0,1.0,pan_02s.jpg,ram_05s.jpg,,,,,,,
,,,,,,,,,,,62,,,,,,,,,,,,0.0,3.0,3.0,3.0,1.0,new2backpresent_4_2.xlsx,new2back_compare_task_4_2.xlsx
0.0,1.0,0.0,0.0,0.0,0.0,1.0,golf_club_03s.jpg,0.0,Blue.png,1.0,62,1.458,,,,,,,,,,,,,,,,,
1.0,0.0,0.0,1.0,1.0,1.0,1.0,golf_club_03s.jpg,0.0,Purple.png,1.0,62,1.649,,,,,,,,,,,,,,,,,
1.0,1.0,0.0,2.0,2.0,2.0,1.0,golf_club_03s.jpg,1.0,Red.png,1.0,62,1.528,,,,,,,,,,,,,,,,,
0.0,1.0,0.0,3.0,3.0,3.0,1.0,turnstile_08s.jpg,0.0,Orange.png,1.0,62,1.231,,,,,,,,,,,,,,,,,
1.0,1.0,0.0,4.0,4.0,4.0,1.0,golf_club_03s.jpg,1.0,Yellow.png,1.0,62,1.398,,,,,,,,,,,,,,,,,
0.0,1.0,0.0,5.0,5.0,5.0,1.0,milk_02s.jpg,0.0,Green.png,1.0,62,1.662,,,,,,,,,,,,,,,,,
0.0,1.0,0.0,6.0,6.0,6.0,1.0,orange_12s.jpg,0.0,Blue.png,2.0,62,0.663,,,,,,,,,,,,,,,,,
1.0,1.0,0.0,7.0,7.0,7.0,1.0,milk_02s.jpg,1.0,Purple.png,2.0,62,1.414,,,,,,,,,,,,,,,,,
0.0,1.0,0.0,8.0,8.0,8.0,1.0,latch_15s.jpg,0.0,Red.png,2.0,62,1.218,,,,,,,,,,,,,,,,,
0.0,1.0,0.0,9.0,9.0,9.0,1.0,bank_06s.jpg,0.0,Orange.png,2.0,62,0.831,,,,,,,,,,,,,,,,,
1.0,0.0,0.0,10.0,10.0,10.0,1.0,milk_02s.jpg,0.0,Yellow.png,2.0,62,1.347,,,,,,,,,,,,,,,,,
0.0,1.0,0.0,11.0,11.0,11.0,1.0,crab_16s.jpg,0.0,Green.png,2.0,62,1.806,,,,,,,,,,,,,,,,,
0.0,1.0,0.0,12.0,12.0,12.0,1.0,birdcage_08s.jpg,0.0,Blue.png,3.0,62,0.68,,,,,,,,,,,,,,,,,
0.0,1.0,0.0,13.0,13.0,13.0,1.0,spider_web_03s.jpg,0.0,Purple.png,3.0,62,1.404,,,,,,,,,,,,,,,,,
0.0,1.0,0.0,14.0,14.0,14.0,1.0,knitting_needle_04s.jpg,0.0,Red.png,3.0,62,0.809,,,,,,,,,,,,,,,,,
0.0,1.0,0.0,15.0,15.0,15.0,1.0,sugar_cube_11s.jpg,0.0,Orange.png,3.0,62,1.052,,,,,,,,,,,,,,,,,
0.0,1.0,0.0,16.0,16.0,16.0,1.0,light_switch_02s.jpg,0.0,Yellow.png,3.0,62,1.007,,,,,,,,,,,,,,,,,
0.0,1.0,0.0,17.0,17.0,17.0,1.0,gear_07s.jpg,0.0,Green.png,3.0,62,1.15,,,,,,,,,,,,,,,,,
0.0,1.0,0.0,18.0,18.0,18.0,1.0,tongs_08s.jpg,0.0,Blue.png,4.0,62,0.725,,,,,,,,,,,,,,,,,
0.0,1.0,0.0,19.0,19.0,19.0,1.0,recliner_02s.jpg,0.0,Purple.png,4.0,62,0.708,,,,,,,,,,,,,,,,,
0.0,1.0,0.0,20.0,20.0,20.0,1.0,orangutan_03s.jpg,0.0,Red.png,4.0,62,0.629,,,,,,,,,,,,,,,,,
1.0,0.0,0.0,21.0,21.0,21.0,1.0,golf_club_03s.jpg,0.0,Orange.png,4.0,62,1.588,,,,,,,,,,,,,,,,,
0.0,1.0,0.0,22.0,22.0,22.0,1.0,lava_02s.jpg,0.0,Yellow.png,4.0,62,0.781,,,,,,,,,,,,,,,,,
0.0,1.0,0.0,23.0,23.0,23.0,1.0,toilet_07s.jpg,0.0,Green.png,4.0,62,0.685,,,,,,,,,,,,,,,,,
0.0,1.0,0.0,24.0,24.0,24.0,1.0,turnstile_08s.jpg,0.0,Blue.png,5.0,62,0.71,,,,,,,,,,,,,,,,,
1.0,0.0,0.0,25.0,25.0,25.0,1.0,turnstile_08s.jpg,0.0,Purple.png,5.0,62,1.381,,,,,,,,,,,,,,,,,
0.0,1.0,0.0,26.0,26.0,26.0,1.0,teacup_07s.jpg,0.0,Red.png,5.0,62,0.651,,,,,,,,,,,,,,,,,
1.0,1.0,0.0,27.0,27.0,27.0,1.0,turnstile_08s.jpg,1.0,Orange.png,5.0,62,1.532,,,,,,,,,,,,,,,,,
1.0,0.0,0.0,28.0,28.0,28.0,1.0,turnstile_08s.jpg,0.0,Yellow.png,5.0,62,1.292,,,,,,,,,,,,,,,,,
0.0,1.0,0.0,29.0,29.0,29.0,1.0,antenna_01b.jpg,0.0,Green.png,5.0,62,0.725,,,,,,,,,,,,,,,,,
0.0,1.0,0.0,30.0,30.0,30.0,1.0,keyhole_03s.jpg,0.0,Blue.png,6.0,62,0.61,,,,,,,,,,,,,,,,,
0.0,1.0,0.0,31.0,31.0,31.0,1.0,air_pump_05s.jpg,0.0,Purple.png,6.0,62,0.733,,,,,,,,,,,,,,,,,
0.0,1.0,0.0,32.0,32.0,32.0,1.0,eggshell_14s.jpg,0.0,Red.png,6.0,62,0.713,,,,,,,,,,,,,,,,,
0.0,1.0,0.0,33.0,33.0,33.0,1.0,eyedropper_12s.jpg,0.0,Orange.png,6.0,62,0.676,,,,,,,,,,,,,,,,,
0.0,1.0,0.0,34.0,34.0,34.0,1.0,machete_06s.jpg,0.0,Yellow.png,6.0,62,0.686,,,,,,,,,,,,,,,,,
1.0,1.0,0.0,35.0,35.0,35.0,1.0,eyedropper_12s.jpg,1.0,Green.png,6.0,62,1.579,,,,,,,,,,,,,,,,,
,,,,,,,,1.0,,,62,,0.0,0.0,2.276,0.0,0.0,0.0,0.0,1.0,sugar_cube_11s.jpg,tongs_08s.jpg,,,,,,,
,,,,,,,,1.0,,,62,,1.0,1.0,2.376,0.0,1.0,1.0,1.0,1.0,antenna_01b.jpg,eggshell_14s.jpg,,,,,,,
,,,,,,,,1.0,,,62,,0.0,0.0,2.669,0.0,2.0,2.0,2.0,1.0,bank_06s.jpg,birdcage_08s.jpg,,,,,,,
,,,,,,,,1.0,,,62,,0.0,0.0,1.697,0.0,3.0,3.0,3.0,1.0,air_pump_05s.jpg,machete_06s.jpg,,,,,,,
,,,,,,,,1.0,,,62,,0.0,0.0,1.607,0.0,4.0,4.0,4.0,1.0,latch_15s.jpg,crab_16s.jpg,,,,,,,
,,,,,,,,1.0,,,62,,1.0,1.0,2.091,0.0,5.0,5.0,5.0,1.0,spider_web_03s.jpg,light_switch_02s.jpg,,,,,,,
,,,,,,,,,,,62,,,,,,,,,,,,0.0,4.0,4.0,4.0,1.0,new2backpresent_5_2.xlsx,new2back_compare_task_5_2.xlsx
,0.0,0.0,0.0,0.0,0.0,1.0,gazelle_10s.jpg,0.0,Blue.png,1.0,62,,,,,,,,,,,,,,,,,,
,0.0,0.0,1.0,1.0,1.0,1.0,saddle_06s.jpg,0.0,Purple.png,1.0,62,,,,,,,,,,,,,,,,,,
,0.0,0.0,2.0,2.0,2.0,1.0,saddle_06s.jpg,0.0,Red.png,1.0,62,,,,,,,,,,,,,,,,,,
0.0,1.0,0.0,3.0,3.0,3.0,1.0,kimono_13s.jpg,0.0,Orange.png,1.0,62,0.538,,,,,,,,,,,,,,,,,
0.0,1.0,0.0,4.0,4.0,4.0,1.0,timer_03s.jpg,0.0,Yellow.png,1.0,62,0.494,,,,,,,,,,,,,,,,,
0.0,1.0,0.0,5.0,5.0,5.0,1.0,tulip_02s.jpg,0.0,Green.png,1.0,62,0.516,,,,,,,,,,,,,,,,,
0.0,1.0,0.0,6.0,6.0,6.0,1.0,prism_10s.jpg,0.0,Blue.png,2.0,62,0.569,,,,,,,,,,,,,,,,,
0.0,1.0,0.0,7.0,7.0,7.0,1.0,razor_12s.jpg,0.0,Purple.png,2.0,62,0.629,,,,,,,,,,,,,,,,,
0.0,1.0,0.0,8.0,8.0,8.0,1.0,blazer_02s.jpg,0.0,Red.png,2.0,62,0.704,,,,,,,,,,,,,,,,,
1.0,1.0,0.0,9.0,9.0,9.0,1.0,razor_12s.jpg,1.0,Orange.png,2.0,62,1.665,,,,,,,,,,,,,,,,,
0.0,1.0,0.0,10.0,10.0,10.0,1.0,lamb_chop_07s.jpg,0.0,Yellow.png,2.0,62,1.224,,,,,,,,,,,,,,,,,
1.0,1.0,0.0,11.0,11.0,11.0,1.0,razor_12s.jpg,1.0,Green.png,2.0,62,1.305,,,,,,,,,,,,,,,,,
1.0,1.0,0.0,12.0,12.0,12.0,1.0,lamb_chop_07s.jpg,1.0,Blue.png,3.0,62,1.253,,,,,,,,,,,,,,,,,
1.0,0.0,0.0,13.0,13.0,13.0,1.0,lamb_chop_07s.jpg,0.0,Purple.png,3.0,62,1.284,,,,,,,,,,,,,,,,,
1.0,0.0,0.0,14.0,14.0,14.0,1.0,timer_03s.jpg,0.0,Red.png,3.0,62,1.306,,,,,,,,,,,,,,,,,
1.0,1.0,0.0,15.0,15.0,15.0,1.0,lamb_chop_07s.jpg,1.0,Orange.png,3.0,62,1.135,,,,,,,,,,,,,,,,,
0.0,1.0,0.0,16.0,16.0,16.0,1.0,glue_01s.jpg,0.0,Yellow.png,3.0,62,0.756,,,,,,,,,,,,,,,,,
0.0,1.0,0.0,17.0,17.0,17.0,1.0,solar_panel_02s.jpg,0.0,Green.png,3.0,62,0.684,,,,,,,,,,,,,,,,,
0.0,1.0,0.0,18.0,18.0,18.0,1.0,muffin_12n.jpg,0.0,Blue.png,4.0,62,0.682,,,,,,,,,,,,,,,,,
0.0,1.0,0.0,19.0,19.0,19.0,1.0,pepper2_21s.jpg,0.0,Purple.png,4.0,62,0.546,,,,,,,,,,,,,,,,,
0.0,1.0,0.0,20.0,20.0,20.0,1.0,marker_05s.jpg,0.0,Red.png,4.0,62,0.556,,,,,,,,,,,,,,,,,
0.0,1.0,0.0,21.0,21.0,21.0,1.0,soccer_ball_12s.jpg,0.0,Orange.png,4.0,62,0.682,,,,,,,,,,,,,,,,,
0.0,1.0,0.0,22.0,22.0,22.0,1.0,amber_04s.jpg,0.0,Yellow.png,4.0,62,0.627,,,,,,,,,,,,,,,,,
0.0,1.0,0.0,23.0,23.0,23.0,1.0,stopwatch_04s.jpg,0.0,Green.png,4.0,62,0.484,,,,,,,,,,,,,,,,,
1.0,1.0,0.0,24.0,24.0,24.0,1.0,amber_04s.jpg,1.0,Blue.png,5.0,62,1.445,,,,,,,,,,,,,,,,,
0.0,1.0,0.0,25.0,25.0,25.0,1.0,racehorse_03s.jpg,0.0,Purple.png,5.0,62,1.624,,,,,,,,,,,,,,,,,
1.0,1.0,0.0,26.0,26.0,26.0,1.0,amber_04s.jpg,1.0,Red.png,5.0,62,1.606,,,,,,,,,,,,,,,,,
0.0,1.0,0.0,27.0,27.0,27.0,1.0,duck_01b.jpg,0.0,Orange.png,5.0,62,1.286,,,,,,,,,,,,,,,,,
1.0,1.0,0.0,28.0,28.0,28.0,1.0,amber_04s.jpg,1.0,Yellow.png,5.0,62,1.274,,,,,,,,,,,,,,,,,
1.0,1.0,0.0,29.0,29.0,29.0,1.0,duck_01b.jpg,1.0,Green.png,5.0,62,1.139,,,,,,,,,,,,,,,,,
1.0,0.0,0.0,30.0,30.0,30.0,1.0,duck_01b.jpg,0.0,Blue.png,6.0,62,1.062,,,,,,,,,,,,,,,,,
1.0,1.0,0.0,31.0,31.0,31.0,1.0,duck_01b.jpg,1.0,Purple.png,6.0,62,1.097,,,,,,,,,,,,,,,,,
0.0,1.0,0.0,32.0,32.0,32.0,1.0,magnet_03s.jpg,0.0,Red.png,6.0,62,1.673,,,,,,,,,,,,,,,,,
1.0,1.0,0.0,33.0,33.0,33.0,1.0,duck_01b.jpg,1.0,Orange.png,6.0,62,1.253,,,,,,,,,,,,,,,,,
0.0,1.0,0.0,34.0,34.0,34.0,1.0,swimming_pool_17s.jpg,0.0,Yellow.png,6.0,62,1.175,,,,,,,,,,,,,,,,,
0.0,1.0,0.0,35.0,35.0,35.0,1.0,roulette_wheel_04s.jpg,0.0,Green.png,6.0,62,0.688,,,,,,,,,,,,,,,,,
,,,,,,,,0.0,,,62,,0.0,1.0,1.667,0.0,0.0,0.0,0.0,1.0,blazer_02s.jpg,tulip_02s.jpg,,,,,,,
,,,,,,,,1.0,,,62,,1.0,1.0,2.569,0.0,1.0,1.0,1.0,1.0,glue_01s.jpg,pepper2_21s.jpg,,,,,,,
,,,,,,,,1.0,,,62,,1.0,1.0,1.195,0.0,2.0,2.0,2.0,1.0,kimono_13s.jpg,prism_10s.jpg,,,,,,,
,,,,,,,,0.0,,,62,,1.0,0.0,1.413,0.0,3.0,3.0,3.0,1.0,soccer_ball_12s.jpg,muffin_12n.jpg,,,,,,,
,,,,,,,,1.0,,,62,,0.0,0.0,1.104,0.0,4.0,4.0,4.0,1.0,magnet_03s.jpg,roulette_wheel_04s.jpg,,,,,,,
,,,,,,,,0.0,,,62,,1.0,0.0,1.365,0.0,5.0,5.0,5.0,1.0,stopwatch_04s.jpg,marker_05s.jpg,,,,,,,
,,,,,,,,,,,62,,,,,,,,,,,,0.0,5.0,5.0,5.0,1.0,new2backpresent_6_2.xlsx,new2back_compare_task_6_2.xlsx
0.0,1.0,0.0,0.0,0.0,0.0,1.0,slingshot_07s.jpg,0.0,Blue.png,1.0,62,1.054,,,,,,,,,,,,,,,,,
1.0,0.0,0.0,1.0,1.0,1.0,1.0,slingshot_07s.jpg,0.0,Purple.png,1.0,62,1.407,,,,,,,,,,,,,,,,,
0.0,1.0,0.0,2.0,2.0,2.0,1.0,aluminum_foil_08s.jpg,0.0,Red.png,1.0,62,0.54,,,,,,,,,,,,,,,,,
0.0,1.0,0.0,3.0,3.0,3.0,1.0,ink_08s.jpg,0.0,Orange.png,1.0,62,0.62,,,,,,,,,,,,,,,,,
1.0,1.0,0.0,4.0,4.0,4.0,1.0,aluminum_foil_08s.jpg,1.0,Yellow.png,1.0,62,0.754,,,,,,,,,,,,,,,,,
1.0,0.0,0.0,5.0,5.0,5.0,1.0,slingshot_07s.jpg,0.0,Green.png,1.0,62,0.905,,,,,,,,,,,,,,,,,
1.0,1.0,0.0,6.0,6.0,6.0,1.0,aluminum_foil_08s.jpg,1.0,Blue.png,2.0,62,0.527,,,,,,,,,,,,,,,,,
1.0,0.0,0.0,7.0,7.0,7.0,1.0,aluminum_foil_08s.jpg,0.0,Purple.png,2.0,62,0.868,,,,,,,,,,,,,,,,,
0.0,1.0,0.0,8.0,8.0,8.0,1.0,ice-cream_cone_06s.jpg,0.0,Red.png,2.0,62,0.674,,,,,,,,,,,,,,,,,
1.0,0.0,0.0,9.0,9.0,9.0,1.0,ink_08s.jpg,0.0,Orange.png,2.0,62,0.669,,,,,,,,,,,,,,,,,
0.0,1.0,0.0,10.0,10.0,10.0,1.0,emerald_02s.jpg,0.0,Yellow.png,2.0,62,0.692,,,,,,,,,,,,,,,,,
0.0,1.0,0.0,11.0,11.0,11.0,1.0,bathtub_23s.jpg,0.0,Green.png,2.0,62,0.728,,,,,,,,,,,,,,,,,
0.0,1.0,0.0,12.0,12.0,12.0,1.0,bubble_01b.jpg,0.0,Blue.png,3.0,62,0.677,,,,,,,,,,,,,,,,,
0.0,1.0,0.0,13.0,13.0,13.0,1.0,mirror_12s.jpg,0.0,Purple.png,3.0,62,0.658,,,,,,,,,,,,,,,,,
0.0,1.0,0.0,14.0,14.0,14.0,1.0,swing_set_15s.jpg,0.0,Red.png,3.0,62,0.685,,,,,,,,,,,,,,,,,
0.0,1.0,0.0,15.0,15.0,15.0,1.0,pinwheel_06s.jpg,0.0,Orange.png,3.0,62,0.627,,,,,,,,,,,,,,,,,
1.0,1.0,0.0,16.0,16.0,16.0,1.0,swing_set_15s.jpg,1.0,Yellow.png,3.0,62,0.675,,,,,,,,,,,,,,,,,
1.0,1.0,0.0,17.0,17.0,17.0,1.0,pinwheel_06s.jpg,1.0,Green.png,3.0,62,0.639,,,,,,,,,,,,,,,,,
1.0,0.0,0.0,18.0,18.0,18.0,1.0,ink_08s.jpg,0.0,Blue.png,4.0,62,0.789,,,,,,,,,,,,,,,,,
0.0,1.0,0.0,19.0,19.0,19.0,1.0,plunger_08s.jpg,0.0,Purple.png,4.0,62,0.62,,,,,,,,,,,,,,,,,
1.0,1.0,0.0,20.0,20.0,20.0,1.0,ink_08s.jpg,1.0,Red.png,4.0,62,0.701,,,,,,,,,,,,,,,,,
1.0,0.0,0.0,21.0,21.0,21.0,1.0,ink_08s.jpg,0.0,Orange.png,4.0,62,0.684,,,,,,,,,,,,,,,,,
0.0,1.0,0.0,22.0,22.0,22.0,1.0,metronome_03s.jpg,0.0,Yellow.png,4.0,62,0.762,,,,,,,,,,,,,,,,,
0.0,1.0,0.0,23.0,23.0,23.0,1.0,puppy_08s.jpg,0.0,Green.png,4.0,62,0.783,,,,,,,,,,,,,,,,,
0.0,1.0,0.0,24.0,24.0,24.0,1.0,treasure_08s.jpg,0.0,Blue.png,5.0,62,0.843,,,,,,,,,,,,,,,,,
0.0,1.0,0.0,25.0,25.0,25.0,1.0,penguin_16s.jpg,0.0,Purple.png,5.0,62,0.715,,,,,,,,,,,,,,,,,
0.0,1.0,0.0,26.0,26.0,26.0,1.0,bacon_05s.jpg,0.0,Red.png,5.0,62,0.621,,,,,,,,,,,,,,,,,
0.0,1.0,0.0,27.0,27.0,27.0,1.0,giraffe_11s.jpg,0.0,Orange.png,5.0,62,0.699,,,,,,,,,,,,,,,,,
0.0,1.0,0.0,28.0,28.0,28.0,1.0,rug_09s.jpg,0.0,Yellow.png,5.0,62,0.692,,,,,,,,,,,,,,,,,
0.0,1.0,0.0,29.0,29.0,29.0,1.0,lamp_08s.jpg,0.0,Green.png,5.0,62,0.679,,,,,,,,,,,,,,,,,
1.0,0.0,0.0,30.0,30.0,30.0,1.0,metronome_03s.jpg,0.0,Blue.png,6.0,62,0.7,,,,,,,,,,,,,,,,,
1.0,0.0,0.0,31.0,31.0,31.0,1.0,metronome_03s.jpg,0.0,Purple.png,6.0,62,0.612,,,,,,,,,,,,,,,,,
0.0,1.0,0.0,32.0,32.0,32.0,1.0,lip_gloss_06s.jpg,0.0,Red.png,6.0,62,0.756,,,,,,,,,,,,,,,,,
1.0,1.0,0.0,33.0,33.0,33.0,1.0,metronome_03s.jpg,1.0,Orange.png,6.0,62,0.595,,,,,,,,,,,,,,,,,
0.0,1.0,0.0,34.0,34.0,34.0,1.0,laser_pointer_02s.jpg,0.0,Yellow.png,6.0,62,0.835,,,,,,,,,,,,,,,,,
1.0,1.0,0.0,35.0,35.0,35.0,1.0,metronome_03s.jpg,1.0,Green.png,6.0,62,0.694,,,,,,,,,,,,,,,,,
,,,,,,,,1.0,,,62,,1.0,1.0,2.121,0.0,0.0,0.0,0.0,1.0,emerald_02s.jpg,mirror_12s.jpg,,,,,,,
,,,,,,,,1.0,,,62,,0.0,0.0,1.185,0.0,1.0,1.0,1.0,1.0,puppy_08s.jpg,bacon_05s.jpg,,,,,,,
,,,,,,,,0.0,,,62,,1.0,0.0,1.203,0.0,2.0,2.0,2.0,1.0,lip_gloss_06s.jpg,lamp_08s.jpg,,,,,,,
,,,,,,,,0.0,,,62,,1.0,0.0,1.246,0.0,3.0,3.0,3.0,1.0,bathtub_23s.jpg,ice-cream_cone_06s.jpg,,,,,,,
,,,,,,,,0.0,,,62,,1.0,0.0,1.141,0.0,4.0,4.0,4.0,1.0,giraffe_11s.jpg,treasure_08s.jpg,,,,,,,
,,,,,,,,0.0,,,62,,0.0,1.0,1.259,0.0,5.0,5.0,5.0,1.0,rug_09s.jpg,penguin_16s.jpg,,,,,,,
,,,,,,,,,,,62,,,,,,,,,,,,0.0,6.0,6.0,6.0,1.0,new2backpresent_7_2.xlsx,new2back_compare_task_7_2.xlsx
0.0,1.0,0.0,0.0,0.0,0.0,1.0,ant_12s.jpg,0.0,Blue.png,1.0,62,1.245,,,,,,,,,,,,,,,,,
1.0,0.0,0.0,1.0,1.0,1.0,1.0,ant_12s.jpg,0.0,Purple.png,1.0,62,0.866,,,,,,,,,,,,,,,,,
0.0,1.0,0.0,2.0,2.0,2.0,1.0,ticktacktoe_08s.jpg,0.0,Red.png,1.0,62,0.599,,,,,,,,,,,,,,,,,
0.0,1.0,0.0,3.0,3.0,3.0,1.0,frog_09s.jpg,0.0,Orange.png,1.0,62,0.86,,,,,,,,,,,,,,,,,
1.0,1.0,0.0,4.0,4.0,4.0,1.0,ticktacktoe_08s.jpg,1.0,Yellow.png,1.0,62,0.774,,,,,,,,,,,,,,,,,
0.0,1.0,0.0,5.0,5.0,5.0,1.0,feather02.jpg,0.0,Green.png,1.0,62,0.821,,,,,,,,,,,,,,,,,
0.0,1.0,0.0,6.0,6.0,6.0,1.0,gas_mask_11s.jpg,0.0,Blue.png,2.0,62,0.67,,,,,,,,,,,,,,,,,
1.0,0.0,0.0,7.0,7.0,7.0,1.0,gas_mask_11s.jpg,0.0,Purple.png,2.0,62,0.88,,,,,,,,,,,,,,,,,
0.0,1.0,0.0,8.0,8.0,8.0,1.0,mop_08s.jpg,0.0,Red.png,2.0,62,1.368,,,,,,,,,,,,,,,,,
1.0,1.0,0.0,9.0,9.0,9.0,1.0,gas_mask_11s.jpg,1.0,Orange.png,2.0,62,0.682,,,,,,,,,,,,,,,,,
0.0,1.0,0.0,10.0,10.0,10.0,1.0,pea_11s.jpg,0.0,Yellow.png,2.0,62,0.762,,,,,,,,,,,,,,,,,
0.0,1.0,0.0,11.0,11.0,11.0,1.0,bowler_hat_10s.jpg,0.0,Green.png,2.0,62,0.866,,,,,,,,,,,,,,,,,
0.0,1.0,0.0,12.0,12.0,12.0,1.0,pencil_sharpener_09n.jpg,0.0,Blue.png,3.0,62,0.727,,,,,,,,,,,,,,,,,
0.0,1.0,0.0,13.0,13.0,13.0,1.0,rice_12s.jpg,0.0,Purple.png,3.0,62,0.708,,,,,,,,,,,,,,,,,
0.0,1.0,0.0,14.0,14.0,14.0,1.0,stamp1_11s.jpg,0.0,Red.png,3.0,62,0.844,,,,,,,,,,,,,,,,,
0.0,1.0,0.0,15.0,15.0,15.0,1.0,jersey_02s.jpg,0.0,Orange.png,3.0,62,0.671,,,,,,,,,,,,,,,,,
1.0,0.0,0.0,16.0,16.0,16.0,1.0,tiara_05s.jpg,0.0,Yellow.png,3.0,62,0.841,,,,,,,,,,,,,,,,,
0.0,1.0,0.0,17.0,17.0,17.0,1.0,target_11s.jpg,0.0,Green.png,3.0,62,0.586,,,,,,,,,,,,,,,,,
0.0,1.0,0.0,18.0,18.0,18.0,1.0,dirt_bike_11s.jpg,0.0,Blue.png,4.0,62,1.093,,,,,,,,,,,,,,,,,
0.0,1.0,0.0,19.0,19.0,19.0,1.0,doily_13s.jpg,0.0,Purple.png,4.0,62,1.094,,,,,,,,,,,,,,,,,
0.0,1.0,0.0,20.0,20.0,20.0,1.0,sunglasses_11s.jpg,0.0,Red.png,4.0,62,0.778,,,,,,,,,,,,,,,,,
0.0,1.0,0.0,21.0,21.0,21.0,1.0,compass_10n.jpg,0.0,Orange.png,4.0,62,0.664,,,,,,,,,,,,,,,,,
1.0,1.0,0.0,22.0,22.0,22.0,1.0,sunglasses_11s.jpg,1.0,Yellow.png,4.0,62,0.703,,,,,,,,,,,,,,,,,
1.0,0.0,0.0,23.0,23.0,23.0,1.0,sunglasses_11s.jpg,0.0,Green.png,4.0,62,0.978,,,,,,,,,,,,,,,,,
0.0,1.0,0.0,24.0,24.0,24.0,1.0,seagull_01b.jpg,0.0,Blue.png,5.0,62,0.672,,,,,,,,,,,,,,,,,
0.0,1.0,0.0,25.0,25.0,25.0,1.0,footprint_11s.jpg,0.0,Purple.png,5.0,62,0.679,,,,,,,,,,,,,,,,,
0.0,1.0,0.0,26.0,26.0,26.0,1.0,projector_08s.jpg,0.0,Red.png,5.0,62,0.683,,,,,,,,,,,,,,,,,
1.0,0.0,0.0,27.0,27.0,27.0,1.0,projector_08s.jpg,0.0,Orange.png,5.0,62,0.92,,,,,,,,,,,,,,,,,
0.0,1.0,0.0,28.0,28.0,28.0,1.0,money_07s.jpg,0.0,Yellow.png,5.0,62,0.926,,,,,,,,,,,,,,,,,
0.0,1.0,0.0,29.0,29.0,29.0,1.0,flip_flop_03s.jpg,0.0,Green.png,5.0,62,1.382,,,,,,,,,,,,,,,,,
0.0,1.0,0.0,30.0,30.0,30.0,1.0,ring_03s.jpg,0.0,Blue.png,6.0,62,0.702,,,,,,,,,,,,,,,,,
1.0,1.0,0.0,31.0,31.0,31.0,1.0,flip_flop_03s.jpg,1.0,Purple.png,6.0,62,0.821,,,,,,,,,,,,,,,,,
1.0,0.0,0.0,32.0,32.0,32.0,1.0,flip_flop_03s.jpg,0.0,Red.png,6.0,62,0.898,,,,,,,,,,,,,,,,,
1.0,1.0,0.0,33.0,33.0,33.0,1.0,flip_flop_03s.jpg,1.0,Orange.png,6.0,62,0.696,,,,,,,,,,,,,,,,,
0.0,1.0,0.0,34.0,34.0,34.0,1.0,screwdriver02a.jpg,0.0,Yellow.png,6.0,62,0.688,,,,,,,,,,,,,,,,,
1.0,0.0,0.0,35.0,35.0,35.0,1.0,screwdriver02a.jpg,0.0,Green.png,6.0,62,0.845,,,,,,,,,,,,,,,,,
,,,,,,,,0.0,,,62,,0.0,1.0,1.62,0.0,0.0,0.0,0.0,1.0,mop_08s.jpg,feather02.jpg,,,,,,,
,,,,,,,,1.0,,,62,,1.0,1.0,1.518,0.0,1.0,1.0,1.0,1.0,pea_11s.jpg,rice_12s.jpg,,,,,,,
,,,,,,,,1.0,,,62,,1.0,1.0,1.505,0.0,2.0,2.0,2.0,1.0,tiara_05s.jpg,doily_13s.jpg,,,,,,,
,,,,,,,,1.0,,,62,,0.0,0.0,1.52,0.0,3.0,3.0,3.0,1.0,footprint_11s.jpg,money_07s.jpg,,,,,,,
,,,,,,,,1.0,,,62,,1.0,1.0,1.718,0.0,4.0,4.0,4.0,1.0,pencil_sharpener_09n.jpg,jersey_02s.jpg,,,,,,,
,,,,,,,,1.0,,,62,,0.0,0.0,1.678,0.0,5.0,5.0,5.0,1.0,stamp1_11s.jpg,target_11s.jpg,,,,,,,
,,,,,,,,,,,62,,,,,,,,,,,,0.0,7.0,7.0,7.0,1.0,new2backpresent_8_2.xlsx,new2back_compare_task_8_2.xlsx
0.0,1.0,0.0,0.0,0.0,0.0,1.0,quilt_03s.jpg,0.0,Blue.png,1.0,62,1.77,,,,,,,,,,,,,,,,,
0.0,1.0,0.0,1.0,1.0,1.0,1.0,stingray_02s.jpg,0.0,Purple.png,1.0,62,0.726,,,,,,,,,,,,,,,,,
0.0,1.0,0.0,2.0,2.0,2.0,1.0,mousetrap_15n.jpg,0.0,Red.png,1.0,62,0.795,,,,,,,,,,,,,,,,,
0.0,1.0,0.0,3.0,3.0,3.0,1.0,dashboard_02s.jpg,0.0,Orange.png,1.0,62,1.068,,,,,,,,,,,,,,,,,
1.0,0.0,0.0,4.0,4.0,4.0,1.0,quilt_03s.jpg,0.0,Yellow.png,1.0,62,1.262,,,,,,,,,,,,,,,,,
1.0,0.0,0.0,5.0,5.0,5.0,1.0,quilt_03s.jpg,0.0,Green.png,1.0,62,1.231,,,,,,,,,,,,,,,,,
0.0,1.0,0.0,6.0,6.0,6.0,1.0,thorn_13s.jpg,0.0,Blue.png,2.0,62,0.701,,,,,,,,,,,,,,,,,
0.0,1.0,0.0,7.0,7.0,7.0,1.0,mitten_10s.jpg,0.0,Purple.png,2.0,62,1.601,,,,,,,,,,,,,,,,,
0.0,1.0,0.0,8.0,8.0,8.0,1.0,fondue_07s.jpg,0.0,Red.png,2.0,62,0.616,,,,,,,,,,,,,,,,,
0.0,1.0,0.0,9.0,9.0,9.0,1.0,peach_04s.jpg,0.0,Orange.png,2.0,62,0.599,,,,,,,,,,,,,,,,,
0.0,1.0,0.0,10.0,10.0,10.0,1.0,stump_02s.jpg,0.0,Yellow.png,2.0,62,0.596,,,,,,,,,,,,,,,,,
0.0,1.0,0.0,11.0,11.0,11.0,1.0,rabbit_03s.jpg,0.0,Green.png,2.0,62,0.569,,,,,,,,,,,,,,,,,
0.0,1.0,0.0,12.0,12.0,12.0,1.0,champagne_18s.jpg,0.0,Blue.png,3.0,62,0.638,,,,,,,,,,,,,,,,,
1.0,1.0,0.0,13.0,13.0,13.0,1.0,rabbit_03s.jpg,1.0,Purple.png,3.0,62,0.605,,,,,,,,,,,,,,,,,
0.0,1.0,0.0,14.0,14.0,14.0,1.0,denture_03s.jpg,0.0,Red.png,3.0,62,0.69,,,,,,,,,,,,,,,,,
1.0,1.0,0.0,15.0,15.0,15.0,1.0,rabbit_03s.jpg,1.0,Orange.png,3.0,62,0.528,,,,,,,,,,,,,,,,,
0.0,1.0,0.0,16.0,16.0,16.0,1.0,turtleneck_11s.jpg,0.0,Yellow.png,3.0,62,0.692,,,,,,,,,,,,,,,,,
1.0,1.0,0.0,17.0,17.0,17.0,1.0,rabbit_03s.jpg,1.0,Green.png,3.0,62,0.667,,,,,,,,,,,,,,,,,
0.0,1.0,0.0,18.0,18.0,18.0,1.0,typewriter_11s.jpg,0.0,Blue.png,4.0,62,0.669,,,,,,,,,,,,,,,,,
0.0,1.0,0.0,19.0,19.0,19.0,1.0,thread_08s.jpg,0.0,Purple.png,4.0,62,0.89,,,,,,,,,,,,,,,,,
0.0,1.0,0.0,20.0,20.0,20.0,1.0,bean_06s.jpg,0.0,Red.png,4.0,62,0.609,,,,,,,,,,,,,,,,,
0.0,1.0,0.0,21.0,21.0,21.0,1.0,rolling_pin_02s.jpg,0.0,Orange.png,4.0,62,0.911,,,,,,,,,,,,,,,,,
0.0,1.0,0.0,22.0,22.0,22.0,1.0,tattoo_14s.jpg,0.0,Yellow.png,4.0,62,0.675,,,,,,,,,,,,,,,,,
0.0,1.0,0.0,23.0,23.0,23.0,1.0,eiffeltower.jpg,0.0,Green.png,4.0,62,0.694,,,,,,,,,,,,,,,,,
1.0,0.0,0.0,24.0,24.0,24.0,1.0,fondue_07s.jpg,0.0,Blue.png,5.0,62,0.901,,,,,,,,,,,,,,,,,
1.0,0.0,0.0,25.0,25.0,25.0,1.0,fondue_07s.jpg,0.0,Purple.png,5.0,62,0.553,,,,,,,,,,,,,,,,,
0.0,1.0,0.0,26.0,26.0,26.0,1.0,omelet_07s.jpg,0.0,Red.png,5.0,62,0.812,,,,,,,,,,,,,,,,,
1.0,1.0,0.0,27.0,27.0,27.0,1.0,fondue_07s.jpg,1.0,Orange.png,5.0,62,0.718,,,,,,,,,,,,,,,,,
0.0,1.0,0.0,28.0,28.0,28.0,1.0,radio_09s.jpg,0.0,Yellow.png,5.0,62,0.603,,,,,,,,,,,,,,,,,
1.0,1.0,0.0,29.0,29.0,29.0,1.0,fondue_07s.jpg,1.0,Green.png,5.0,62,0.683,,,,,,,,,,,,,,,,,
0.0,1.0,0.0,30.0,30.0,30.0,1.0,roller_coaster_07s.jpg,0.0,Blue.png,6.0,62,0.861,,,,,,,,,,,,,,,,,
0.0,1.0,0.0,31.0,31.0,31.0,1.0,loveseat_08s.jpg,0.0,Purple.png,6.0,62,0.622,,,,,,,,,,,,,,,,,
1.0,1.0,0.0,32.0,32.0,32.0,1.0,roller_coaster_07s.jpg,1.0,Red.png,6.0,62,0.779,,,,,,,,,,,,,,,,,
1.0,0.0,0.0,33.0,33.0,33.0,1.0,roller_coaster_07s.jpg,0.0,Orange.png,6.0,62,0.815,,,,,,,,,,,,,,,,,
1.0,1.0,0.0,34.0,34.0,34.0,1.0,roller_coaster_07s.jpg,1.0,Yellow.png,6.0,62,1.168,,,,,,,,,,,,,,,,,
1.0,1.0,0.0,35.0,35.0,35.0,1.0,roller_coaster_07s.jpg,1.0,Green.png,6.0,62,1.14,,,,,,,,,,,,,,,,,
,,,,,,,,0.0,,,62,,1.0,0.0,1.819,0.0,0.0,0.0,0.0,1.0,loveseat_08s.jpg,radio_09s.jpg,,,,,,,
,,,,,,,,1.0,,,62,,1.0,1.0,0.98,0.0,1.0,1.0,1.0,1.0,dashboard_02s.jpg,thorn_13s.jpg,,,,,,,
,,,,,,,,0.0,,,62,,0.0,1.0,1.719,0.0,2.0,2.0,2.0,1.0,champagne_18s.jpg,peach_04s.jpg,,,,,,,
,,,,,,,,1.0,,,62,,1.0,1.0,2.166,0.0,3.0,3.0,3.0,1.0,mitten_10s.jpg,stump_02s.jpg,,,,,,,
,,,,,,,,1.0,,,62,,1.0,1.0,1.397,0.0,4.0,4.0,4.0,1.0,typewriter_11s.jpg,rolling_pin_02s.jpg,,,,,,,
,,,,,,,,1.0,,,62,,1.0,1.0,1.531,0.0,5.0,5.0,5.0,1.0,thread_08s.jpg,tattoo_14s.jpg,,,,,,,
,,,,,,,,,,,62,,,,,,,,,,,,0.0,8.0,8.0,8.0,1.0,new2backpresent_9_2.xlsx,new2back_compare_task_9_2.xlsx
