key_resp.keys,key_resp.corr,key_resp.rt,present_segment.thisRepN,present_segment.thisTrialN,present_segment.thisN,present_segment.thisIndex,present_segment.ran,pictures,answer,clock,segment,participant,key_resp_2.keys,key_resp_2.corr,key_resp_2.rt,compare_segment.thisRepN,compare_segment.thisTrialN,compare_segment.thisN,compare_segment.thisIndex,compare_segment.ran,item_a,item_b,clock_conditions.thisRepN,clock_conditions.thisTrialN,clock_conditions.thisN,clock_conditions.thisIndex,clock_conditions.ran,present,compare
0.0,1.0,1.021,0.0,0.0,0.0,0.0,1.0,mirror_12s.jpg,0.0,Blue.png,1.0,31,,,,,,,,,,,,,,,,,
0.0,1.0,1.034,0.0,1.0,1.0,1.0,1.0,polaroid_05s.jpg,0.0,Purple.png,1.0,31,,,,,,,,,,,,,,,,,
1.0,0.0,1.158,0.0,2.0,2.0,2.0,1.0,polaroid_05s.jpg,0.0,Red.png,1.0,31,,,,,,,,,,,,,,,,,
0.0,1.0,1.532,0.0,3.0,3.0,3.0,1.0,slingshot_07s.jpg,0.0,Orange.png,1.0,31,,,,,,,,,,,,,,,,,
1.0,1.0,1.359,0.0,4.0,4.0,4.0,1.0,polaroid_05s.jpg,1.0,Yellow.png,1.0,31,,,,,,,,,,,,,,,,,
0.0,1.0,1.293,0.0,5.0,5.0,5.0,1.0,kettle_08s.jpg,0.0,Green.png,1.0,31,,,,,,,,,,,,,,,,,
0.0,1.0,1.169,0.0,6.0,6.0,6.0,1.0,crystal_ball_12s.jpg,0.0,Blue.png,2.0,31,,,,,,,,,,,,,,,,,
0.0,1.0,1.101,0.0,7.0,7.0,7.0,1.0,iron_13s.jpg,0.0,Purple.png,2.0,31,,,,,,,,,,,,,,,,,
0.0,1.0,1.11,0.0,8.0,8.0,8.0,1.0,saddle_06s.jpg,0.0,Red.png,2.0,31,,,,,,,,,,,,,,,,,
0.0,1.0,0.944,0.0,9.0,9.0,9.0,1.0,mango_09s.jpg,0.0,Orange.png,2.0,31,,,,,,,,,,,,,,,,,
0.0,1.0,0.801,0.0,10.0,10.0,10.0,1.0,ostrich_06s.jpg,0.0,Yellow.png,2.0,31,,,,,,,,,,,,,,,,,
1.0,0.0,1.05,0.0,11.0,11.0,11.0,1.0,iron_13s.jpg,0.0,Green.png,2.0,31,,,,,,,,,,,,,,,,,
0.0,1.0,1.015,0.0,12.0,12.0,12.0,1.0,stethoscope_01b.jpg,0.0,Blue.png,3.0,31,,,,,,,,,,,,,,,,,
0.0,1.0,0.994,0.0,13.0,13.0,13.0,1.0,ruby_15s.jpg,0.0,Purple.png,3.0,31,,,,,,,,,,,,,,,,,
1.0,0.0,2.085,0.0,14.0,14.0,14.0,1.0,mango_09s.jpg,0.0,Red.png,3.0,31,,,,,,,,,,,,,,,,,
0.0,1.0,1.18,0.0,15.0,15.0,15.0,1.0,target_11s.jpg,0.0,Orange.png,3.0,31,,,,,,,,,,,,,,,,,
1.0,1.0,1.434,0.0,16.0,16.0,16.0,1.0,mango_09s.jpg,1.0,Yellow.png,3.0,31,,,,,,,,,,,,,,,,,
0.0,1.0,1.215,0.0,17.0,17.0,17.0,1.0,compass_10n.jpg,0.0,Green.png,3.0,31,,,,,,,,,,,,,,,,,
0.0,1.0,1.093,0.0,18.0,18.0,18.0,1.0,meatball_13s.jpg,0.0,Blue.png,4.0,31,,,,,,,,,,,,,,,,,
0.0,1.0,1.051,0.0,19.0,19.0,19.0,1.0,stapler_01b.jpg,0.0,Purple.png,4.0,31,,,,,,,,,,,,,,,,,
1.0,1.0,0.863,0.0,20.0,20.0,20.0,1.0,meatball_13s.jpg,1.0,Red.png,4.0,31,,,,,,,,,,,,,,,,,
0.0,1.0,1.196,0.0,21.0,21.0,21.0,1.0,pump_11s.jpg,0.0,Orange.png,4.0,31,,,,,,,,,,,,,,,,,
0.0,1.0,1.111,0.0,22.0,22.0,22.0,1.0,coral_08s.jpg,0.0,Yellow.png,4.0,31,,,,,,,,,,,,,,,,,
1.0,0.0,1.096,0.0,23.0,23.0,23.0,1.0,meatball_13s.jpg,0.0,Green.png,4.0,31,,,,,,,,,,,,,,,,,
0.0,1.0,1.121,0.0,24.0,24.0,24.0,1.0,peach_04s.jpg,0.0,Blue.png,5.0,31,,,,,,,,,,,,,,,,,
1.0,1.0,1.37,0.0,25.0,25.0,25.0,1.0,meatball_13s.jpg,1.0,Purple.png,5.0,31,,,,,,,,,,,,,,,,,
0.0,1.0,1.194,0.0,26.0,26.0,26.0,1.0,pie_08s.jpg,0.0,Red.png,5.0,31,,,,,,,,,,,,,,,,,
0.0,1.0,0.855,0.0,27.0,27.0,27.0,1.0,rollerskate_03s.jpg,0.0,Orange.png,5.0,31,,,,,,,,,,,,,,,,,
0.0,1.0,0.812,0.0,28.0,28.0,28.0,1.0,trampoline_13s.jpg,0.0,Yellow.png,5.0,31,,,,,,,,,,,,,,,,,
0.0,1.0,0.87,0.0,29.0,29.0,29.0,1.0,undershirt_02s.jpg,0.0,Green.png,5.0,31,,,,,,,,,,,,,,,,,
0.0,1.0,0.752,0.0,30.0,30.0,30.0,1.0,thread_08s.jpg,0.0,Blue.png,6.0,31,,,,,,,,,,,,,,,,,
0.0,1.0,1.405,0.0,31.0,31.0,31.0,1.0,megaphone_03s.jpg,0.0,Purple.png,6.0,31,,,,,,,,,,,,,,,,,
0.0,1.0,0.972,0.0,32.0,32.0,32.0,1.0,plaster_cast_13s.jpg,0.0,Red.png,6.0,31,,,,,,,,,,,,,,,,,
0.0,1.0,0.919,0.0,33.0,33.0,33.0,1.0,diving_board_07s.jpg,0.0,Orange.png,6.0,31,,,,,,,,,,,,,,,,,
0.0,1.0,0.932,0.0,34.0,34.0,34.0,1.0,kayak_08s.jpg,0.0,Yellow.png,6.0,31,,,,,,,,,,,,,,,,,
1.0,1.0,0.939,0.0,35.0,35.0,35.0,1.0,diving_board_07s.jpg,1.0,Green.png,6.0,31,,,,,,,,,,,,,,,,,
,,,,,,,,,1.0,,,31,1.0,1.0,2.152,0.0,0.0,0.0,0.0,1.0,stapler_01b.jpg,coral_08s.jpg,,,,,,,
,,,,,,,,,1.0,,,31,1.0,1.0,1.812,0.0,1.0,1.0,1.0,1.0,slingshot_07s.jpg,crystal_ball_12s.jpg,,,,,,,
,,,,,,,,,0.0,,,31,0.0,1.0,2.854,0.0,2.0,2.0,2.0,1.0,saddle_06s.jpg,kettle_08s.jpg,,,,,,,
,,,,,,,,,1.0,,,31,1.0,1.0,2.178,0.0,3.0,3.0,3.0,1.0,pie_08s.jpg,undershirt_02s.jpg,,,,,,,
,,,,,,,,,1.0,,,31,1.0,1.0,1.886,0.0,4.0,4.0,4.0,1.0,stethoscope_01b.jpg,target_11s.jpg,,,,,,,
,,,,,,,,,1.0,,,31,0.0,0.0,1.988,0.0,5.0,5.0,5.0,1.0,ostrich_06s.jpg,ruby_15s.jpg,,,,,,,
,,,,,,,,,,,,31,,,,,,,,,,,0.0,0.0,0.0,0.0,1.0,new2backpresent_1_4.xlsx,new2back_compare_task_1_4.xlsx
0.0,1.0,1.215,0.0,0.0,0.0,0.0,1.0,jetski_10s.jpg,0.0,Blue.png,1.0,31,,,,,,,,,,,,,,,,,
0.0,1.0,0.765,0.0,1.0,1.0,1.0,1.0,tripod_01b.jpg,0.0,Purple.png,1.0,31,,,,,,,,,,,,,,,,,
0.0,1.0,1.071,0.0,2.0,2.0,2.0,1.0,lab_coat_11s.jpg,0.0,Red.png,1.0,31,,,,,,,,,,,,,,,,,
0.0,1.0,1.176,0.0,3.0,3.0,3.0,1.0,foam_03s.jpg,0.0,Orange.png,1.0,31,,,,,,,,,,,,,,,,,
0.0,1.0,1.02,0.0,4.0,4.0,4.0,1.0,crate_05s.jpg,0.0,Yellow.png,1.0,31,,,,,,,,,,,,,,,,,
0.0,1.0,1.92,0.0,5.0,5.0,5.0,1.0,margarita_03s.jpg,0.0,Green.png,1.0,31,,,,,,,,,,,,,,,,,
0.0,1.0,1.0,0.0,6.0,6.0,6.0,1.0,joystick_01b.jpg,0.0,Blue.png,2.0,31,,,,,,,,,,,,,,,,,
0.0,1.0,1.132,0.0,7.0,7.0,7.0,1.0,giraffe_11s.jpg,0.0,Purple.png,2.0,31,,,,,,,,,,,,,,,,,
0.0,1.0,1.485,0.0,8.0,8.0,8.0,1.0,quilt_03s.jpg,0.0,Red.png,2.0,31,,,,,,,,,,,,,,,,,
1.0,1.0,1.223,0.0,9.0,9.0,9.0,1.0,giraffe_11s.jpg,1.0,Orange.png,2.0,31,,,,,,,,,,,,,,,,,
0.0,1.0,1.103,0.0,10.0,10.0,10.0,1.0,pincushion_10s.jpg,0.0,Yellow.png,2.0,31,,,,,,,,,,,,,,,,,
1.0,1.0,0.957,0.0,11.0,11.0,11.0,1.0,giraffe_11s.jpg,1.0,Green.png,2.0,31,,,,,,,,,,,,,,,,,
1.0,1.0,1.201,0.0,12.0,12.0,12.0,1.0,pincushion_10s.jpg,1.0,Blue.png,3.0,31,,,,,,,,,,,,,,,,,
1.0,1.0,1.221,0.0,13.0,13.0,13.0,1.0,giraffe_11s.jpg,1.0,Purple.png,3.0,31,,,,,,,,,,,,,,,,,
0.0,1.0,1.086,0.0,14.0,14.0,14.0,1.0,rolling_pin_02s.jpg,0.0,Red.png,3.0,31,,,,,,,,,,,,,,,,,
0.0,1.0,1.013,0.0,15.0,15.0,15.0,1.0,ticktacktoe_08s.jpg,0.0,Orange.png,3.0,31,,,,,,,,,,,,,,,,,
1.0,0.0,1.464,0.0,16.0,16.0,16.0,1.0,giraffe_11s.jpg,0.0,Yellow.png,3.0,31,,,,,,,,,,,,,,,,,
1.0,1.0,1.11,0.0,17.0,17.0,17.0,1.0,ticktacktoe_08s.jpg,1.0,Green.png,3.0,31,,,,,,,,,,,,,,,,,
0.0,1.0,1.0,0.0,18.0,18.0,18.0,1.0,typewriter_11s.jpg,0.0,Blue.png,4.0,31,,,,,,,,,,,,,,,,,
0.0,1.0,1.6,0.0,19.0,19.0,19.0,1.0,toothpaste_12s.jpg,0.0,Purple.png,4.0,31,,,,,,,,,,,,,,,,,
0.0,1.0,0.832,0.0,20.0,20.0,20.0,1.0,hummingbird_05s.jpg,0.0,Red.png,4.0,31,,,,,,,,,,,,,,,,,
1.0,1.0,0.956,0.0,21.0,21.0,21.0,1.0,toothpaste_12s.jpg,1.0,Orange.png,4.0,31,,,,,,,,,,,,,,,,,
1.0,0.0,0.968,0.0,22.0,22.0,22.0,1.0,toothpaste_12s.jpg,0.0,Yellow.png,4.0,31,,,,,,,,,,,,,,,,,
0.0,1.0,1.04,0.0,23.0,23.0,23.0,1.0,treadmill_06s.jpg,0.0,Green.png,4.0,31,,,,,,,,,,,,,,,,,
0.0,1.0,1.834,0.0,24.0,24.0,24.0,1.0,typewriter_11s.jpg,0.0,Blue.png,5.0,31,,,,,,,,,,,,,,,,,
0.0,1.0,2.094,0.0,25.0,25.0,25.0,1.0,penguin_16s.jpg,0.0,Purple.png,5.0,31,,,,,,,,,,,,,,,,,
0.0,1.0,1.182,0.0,26.0,26.0,26.0,1.0,olive_05s.jpg,0.0,Red.png,5.0,31,,,,,,,,,,,,,,,,,
1.0,1.0,0.859,0.0,27.0,27.0,27.0,1.0,penguin_16s.jpg,1.0,Orange.png,5.0,31,,,,,,,,,,,,,,,,,
1.0,0.0,0.997,0.0,28.0,28.0,28.0,1.0,penguin_16s.jpg,0.0,Yellow.png,5.0,31,,,,,,,,,,,,,,,,,
0.0,1.0,0.929,0.0,29.0,29.0,29.0,1.0,tab_09s.jpg,0.0,Green.png,5.0,31,,,,,,,,,,,,,,,,,
0.0,1.0,0.801,0.0,30.0,30.0,30.0,1.0,frame_06s.jpg,0.0,Blue.png,6.0,31,,,,,,,,,,,,,,,,,
0.0,1.0,0.973,0.0,31.0,31.0,31.0,1.0,mop_08s.jpg,0.0,Purple.png,6.0,31,,,,,,,,,,,,,,,,,
0.0,1.0,0.951,0.0,32.0,32.0,32.0,1.0,memory_stick_11s.jpg,0.0,Red.png,6.0,31,,,,,,,,,,,,,,,,,
0.0,1.0,1.38,0.0,33.0,33.0,33.0,1.0,olive_05s.jpg,0.0,Orange.png,6.0,31,,,,,,,,,,,,,,,,,
0.0,1.0,1.247,0.0,34.0,34.0,34.0,1.0,ravioli_08s.jpg,0.0,Yellow.png,6.0,31,,,,,,,,,,,,,,,,,
0.0,1.0,0.833,0.0,35.0,35.0,35.0,1.0,mousetrap_15n.jpg,0.0,Green.png,6.0,31,,,,,,,,,,,,,,,,,
,,,,,,,,,1.0,,,31,0.0,0.0,3.238,0.0,0.0,0.0,0.0,1.0,hummingbird_05s.jpg,treadmill_06s.jpg,,,,,,,
,,,,,,,,,1.0,,,31,0.0,0.0,2.519,0.0,1.0,1.0,1.0,1.0,margarita_03s.jpg,quilt_03s.jpg,,,,,,,
,,,,,,,,,0.0,,,31,0.0,1.0,2.274,0.0,2.0,2.0,2.0,1.0,joystick_01b.jpg,foam_03s.jpg,,,,,,,
,,,,,,,,,0.0,,,31,1.0,0.0,1.519,0.0,3.0,3.0,3.0,1.0,ravioli_08s.jpg,mop_08s.jpg,,,,,,,
,,,,,,,,,1.0,,,31,1.0,1.0,1.504,0.0,4.0,4.0,4.0,1.0,tab_09s.jpg,memory_stick_11s.jpg,,,,,,,
,,,,,,,,,1.0,,,31,1.0,1.0,1.235,0.0,5.0,5.0,5.0,1.0,tripod_01b.jpg,crate_05s.jpg,,,,,,,
,,,,,,,,,,,,31,,,,,,,,,,,0.0,1.0,1.0,1.0,1.0,new2backpresent_2_4.xlsx,new2back_compare_task_2_4.xlsx
0.0,1.0,1.031,0.0,0.0,0.0,0.0,1.0,safety_pin_02s.jpg,0.0,Blue.png,1.0,31,,,,,,,,,,,,,,,,,
1.0,0.0,0.847,0.0,1.0,1.0,1.0,1.0,safety_pin_02s.jpg,0.0,Purple.png,1.0,31,,,,,,,,,,,,,,,,,
0.0,1.0,1.193,0.0,2.0,2.0,2.0,1.0,cardinal_07s.jpg,0.0,Red.png,1.0,31,,,,,,,,,,,,,,,,,
1.0,1.0,1.087,0.0,3.0,3.0,3.0,1.0,safety_pin_02s.jpg,1.0,Orange.png,1.0,31,,,,,,,,,,,,,,,,,
0.0,1.0,0.845,0.0,4.0,4.0,4.0,1.0,potholder_02s.jpg,0.0,Yellow.png,1.0,31,,,,,,,,,,,,,,,,,
1.0,1.0,1.129,0.0,5.0,5.0,5.0,1.0,safety_pin_02s.jpg,1.0,Green.png,1.0,31,,,,,,,,,,,,,,,,,
1.0,0.0,1.218,0.0,6.0,6.0,6.0,1.0,cardinal_07s.jpg,0.0,Blue.png,2.0,31,,,,,,,,,,,,,,,,,
0.0,1.0,0.683,0.0,7.0,7.0,7.0,1.0,lion_18s.jpg,0.0,Purple.png,2.0,31,,,,,,,,,,,,,,,,,
0.0,1.0,0.702,0.0,8.0,8.0,8.0,1.0,comic_book_02s.jpg,0.0,Red.png,2.0,31,,,,,,,,,,,,,,,,,
0.0,1.0,0.854,0.0,9.0,9.0,9.0,1.0,lizard_10n.jpg,0.0,Orange.png,2.0,31,,,,,,,,,,,,,,,,,
0.0,1.0,1.035,0.0,10.0,10.0,10.0,1.0,rice_12s.jpg,0.0,Yellow.png,2.0,31,,,,,,,,,,,,,,,,,
0.0,1.0,1.075,0.0,11.0,11.0,11.0,1.0,bagel_15s.jpg,0.0,Green.png,2.0,31,,,,,,,,,,,,,,,,,
0.0,1.0,0.901,0.0,12.0,12.0,12.0,1.0,recliner_02s.jpg,0.0,Blue.png,3.0,31,,,,,,,,,,,,,,,,,
1.0,0.0,0.867,0.0,13.0,13.0,13.0,1.0,recliner_02s.jpg,0.0,Purple.png,3.0,31,,,,,,,,,,,,,,,,,
0.0,1.0,0.701,0.0,14.0,14.0,14.0,1.0,luggage_08s.jpg,0.0,Red.png,3.0,31,,,,,,,,,,,,,,,,,
1.0,1.0,0.952,0.0,15.0,15.0,15.0,1.0,recliner_02s.jpg,1.0,Orange.png,3.0,31,,,,,,,,,,,,,,,,,
0.0,1.0,0.735,0.0,16.0,16.0,16.0,1.0,onion_10s.jpg,0.0,Yellow.png,3.0,31,,,,,,,,,,,,,,,,,
0.0,1.0,0.571,0.0,17.0,17.0,17.0,1.0,rosary_03s.jpg,0.0,Green.png,3.0,31,,,,,,,,,,,,,,,,,
0.0,1.0,1.012,0.0,18.0,18.0,18.0,1.0,smokingpipe.jpg,0.0,Blue.png,4.0,31,,,,,,,,,,,,,,,,,
0.0,1.0,0.781,0.0,19.0,19.0,19.0,1.0,roulette_wheel_04s.jpg,0.0,Purple.png,4.0,31,,,,,,,,,,,,,,,,,
1.0,1.0,0.871,0.0,20.0,20.0,20.0,1.0,smokingpipe.jpg,1.0,Red.png,4.0,31,,,,,,,,,,,,,,,,,
0.0,1.0,0.802,0.0,21.0,21.0,21.0,1.0,orchid_01b.jpg,0.0,Orange.png,4.0,31,,,,,,,,,,,,,,,,,
0.0,1.0,0.985,0.0,22.0,22.0,22.0,1.0,buoy_04s.jpg,0.0,Yellow.png,4.0,31,,,,,,,,,,,,,,,,,
0.0,1.0,0.901,0.0,23.0,23.0,23.0,1.0,stopwatch_04s.jpg,0.0,Green.png,4.0,31,,,,,,,,,,,,,,,,,
0.0,1.0,0.974,0.0,24.0,24.0,24.0,1.0,knitting_needle_04s.jpg,0.0,Blue.png,5.0,31,,,,,,,,,,,,,,,,,
0.0,1.0,0.669,0.0,25.0,25.0,25.0,1.0,prism_10s.jpg,0.0,Purple.png,5.0,31,,,,,,,,,,,,,,,,,
0.0,1.0,0.758,0.0,26.0,26.0,26.0,1.0,teapot_03s.jpg,0.0,Red.png,5.0,31,,,,,,,,,,,,,,,,,
0.0,1.0,0.651,0.0,27.0,27.0,27.0,1.0,fire_pit_10s.jpg,0.0,Orange.png,5.0,31,,,,,,,,,,,,,,,,,
1.0,0.0,0.745,0.0,28.0,28.0,28.0,1.0,fire_pit_10s.jpg,0.0,Yellow.png,5.0,31,,,,,,,,,,,,,,,,,
1.0,1.0,0.617,0.0,29.0,29.0,29.0,1.0,fire_pit_10s.jpg,1.0,Green.png,5.0,31,,,,,,,,,,,,,,,,,
0.0,1.0,0.718,0.0,30.0,30.0,30.0,1.0,ironing_board_07s.jpg,0.0,Blue.png,6.0,31,,,,,,,,,,,,,,,,,
1.0,1.0,1.067,0.0,31.0,31.0,31.0,1.0,fire_pit_10s.jpg,1.0,Purple.png,6.0,31,,,,,,,,,,,,,,,,,
0.0,1.0,0.713,0.0,32.0,32.0,32.0,1.0,mattress_01s.jpg,0.0,Red.png,6.0,31,,,,,,,,,,,,,,,,,
0.0,0.0,2.132,0.0,33.0,33.0,33.0,1.0,fire_pit_10s.jpg,1.0,Orange.png,6.0,31,,,,,,,,,,,,,,,,,
1.0,1.0,1.052,0.0,34.0,34.0,34.0,1.0,mattress_01s.jpg,1.0,Yellow.png,6.0,31,,,,,,,,,,,,,,,,,
0.0,1.0,0.884,0.0,35.0,35.0,35.0,1.0,ice-cream_cone_06s.jpg,0.0,Green.png,6.0,31,,,,,,,,,,,,,,,,,
,,,,,,,,,1.0,,,31,1.0,1.0,2.683,0.0,0.0,0.0,0.0,1.0,roulette_wheel_04s.jpg,buoy_04s.jpg,,,,,,,
,,,,,,,,,0.0,,,31,0.0,1.0,1.485,0.0,1.0,1.0,1.0,1.0,lion_18s.jpg,potholder_02s.jpg,,,,,,,
,,,,,,,,,0.0,,,31,0.0,1.0,2.437,0.0,2.0,2.0,2.0,1.0,bagel_15s.jpg,comic_book_02s.jpg,,,,,,,
,,,,,,,,,1.0,,,31,0.0,0.0,1.905,0.0,3.0,3.0,3.0,1.0,stopwatch_04s.jpg,teapot_03s.jpg,,,,,,,
,,,,,,,,,1.0,,,31,1.0,1.0,1.832,0.0,4.0,4.0,4.0,1.0,luggage_08s.jpg,rosary_03s.jpg,,,,,,,
,,,,,,,,,1.0,,,31,1.0,1.0,1.566,0.0,5.0,5.0,5.0,1.0,orchid_01b.jpg,knitting_needle_04s.jpg,,,,,,,
,,,,,,,,,,,,31,,,,,,,,,,,0.0,2.0,2.0,2.0,1.0,new2backpresent_3_4.xlsx,new2back_compare_task_3_4.xlsx
0.0,1.0,1.393,0.0,0.0,0.0,0.0,1.0,smoothie_09s.jpg,0.0,Blue.png,1.0,31,,,,,,,,,,,,,,,,,
0.0,1.0,0.764,0.0,1.0,1.0,1.0,1.0,raspberry_12s.jpg,0.0,Purple.png,1.0,31,,,,,,,,,,,,,,,,,
1.0,0.0,0.81,0.0,2.0,2.0,2.0,1.0,raspberry_12s.jpg,0.0,Red.png,1.0,31,,,,,,,,,,,,,,,,,
0.0,1.0,0.694,0.0,3.0,3.0,3.0,1.0,lamb_chop_07s.jpg,0.0,Orange.png,1.0,31,,,,,,,,,,,,,,,,,
1.0,0.0,0.919,0.0,4.0,4.0,4.0,1.0,smoothie_09s.jpg,0.0,Yellow.png,1.0,31,,,,,,,,,,,,,,,,,
1.0,0.0,1.079,0.0,5.0,5.0,5.0,1.0,raspberry_12s.jpg,0.0,Green.png,1.0,31,,,,,,,,,,,,,,,,,
0.0,1.0,0.721,0.0,6.0,6.0,6.0,1.0,lava_02s.jpg,0.0,Blue.png,2.0,31,,,,,,,,,,,,,,,,,
0.0,1.0,1.431,0.0,7.0,7.0,7.0,1.0,trident_07s.jpg,0.0,Purple.png,2.0,31,,,,,,,,,,,,,,,,,
1.0,0.0,0.811,0.0,8.0,8.0,8.0,1.0,trident_07s.jpg,0.0,Red.png,2.0,31,,,,,,,,,,,,,,,,,
1.0,1.0,1.103,0.0,9.0,9.0,9.0,1.0,trident_07s.jpg,1.0,Orange.png,2.0,31,,,,,,,,,,,,,,,,,
0.0,1.0,0.705,0.0,10.0,10.0,10.0,1.0,orangutan_03s.jpg,0.0,Yellow.png,2.0,31,,,,,,,,,,,,,,,,,
1.0,1.0,1.051,0.0,11.0,11.0,11.0,1.0,trident_07s.jpg,1.0,Green.png,2.0,31,,,,,,,,,,,,,,,,,
0.0,1.0,1.562,0.0,12.0,12.0,12.0,1.0,raspberry_12s.jpg,0.0,Blue.png,3.0,31,,,,,,,,,,,,,,,,,
1.0,1.0,2.05,0.0,13.0,13.0,13.0,1.0,trident_07s.jpg,1.0,Purple.png,3.0,31,,,,,,,,,,,,,,,,,
0.0,1.0,0.967,0.0,14.0,14.0,14.0,1.0,lavender_10s.jpg,0.0,Red.png,3.0,31,,,,,,,,,,,,,,,,,
0.0,1.0,0.744,0.0,15.0,15.0,15.0,1.0,chip_04s.jpg,0.0,Orange.png,3.0,31,,,,,,,,,,,,,,,,,
0.0,1.0,0.778,0.0,16.0,16.0,16.0,1.0,lamb_04s.jpg,0.0,Yellow.png,3.0,31,,,,,,,,,,,,,,,,,
0.0,1.0,0.644,0.0,17.0,17.0,17.0,1.0,emerald_02s.jpg,0.0,Green.png,3.0,31,,,,,,,,,,,,,,,,,
0.0,1.0,0.923,0.0,18.0,18.0,18.0,1.0,pineapple_12s.jpg,0.0,Blue.png,4.0,31,,,,,,,,,,,,,,,,,
0.0,1.0,0.681,0.0,19.0,19.0,19.0,1.0,sundae_08s.jpg,0.0,Purple.png,4.0,31,,,,,,,,,,,,,,,,,
1.0,0.0,1.034,0.0,20.0,20.0,20.0,1.0,sundae_08s.jpg,0.0,Red.png,4.0,31,,,,,,,,,,,,,,,,,
0.0,1.0,1.296,0.0,21.0,21.0,21.0,1.0,squirrel_02s.jpg,0.0,Orange.png,4.0,31,,,,,,,,,,,,,,,,,
0.0,1.0,0.601,0.0,22.0,22.0,22.0,1.0,roller_coaster_07s.jpg,0.0,Yellow.png,4.0,31,,,,,,,,,,,,,,,,,
1.0,0.0,1.234,0.0,23.0,23.0,23.0,1.0,sundae_08s.jpg,0.0,Green.png,4.0,31,,,,,,,,,,,,,,,,,
0.0,1.0,0.9,0.0,24.0,24.0,24.0,1.0,tweezers_03s.jpg,0.0,Blue.png,5.0,31,,,,,,,,,,,,,,,,,
1.0,1.0,0.995,0.0,25.0,25.0,25.0,1.0,sundae_08s.jpg,1.0,Purple.png,5.0,31,,,,,,,,,,,,,,,,,
0.0,1.0,0.72,0.0,26.0,26.0,26.0,1.0,rudder_02s.jpg,0.0,Red.png,5.0,31,,,,,,,,,,,,,,,,,
0.0,1.0,0.816,0.0,27.0,27.0,27.0,1.0,rake_06s.jpg,0.0,Orange.png,5.0,31,,,,,,,,,,,,,,,,,
1.0,0.0,0.818,0.0,28.0,28.0,28.0,1.0,rake_06s.jpg,0.0,Yellow.png,5.0,31,,,,,,,,,,,,,,,,,
1.0,1.0,1.084,0.0,29.0,29.0,29.0,1.0,rake_06s.jpg,1.0,Green.png,5.0,31,,,,,,,,,,,,,,,,,
0.0,1.0,0.772,0.0,30.0,30.0,30.0,1.0,cap_05s.jpg,0.0,Blue.png,6.0,31,,,,,,,,,,,,,,,,,
0.0,1.0,0.851,0.0,31.0,31.0,31.0,1.0,paper_towel_03s.jpg,0.0,Purple.png,6.0,31,,,,,,,,,,,,,,,,,
0.0,1.0,0.695,0.0,32.0,32.0,32.0,1.0,toaster_03s.jpg,0.0,Red.png,6.0,31,,,,,,,,,,,,,,,,,
0.0,1.0,0.851,0.0,33.0,33.0,33.0,1.0,money_07s.jpg,0.0,Orange.png,6.0,31,,,,,,,,,,,,,,,,,
0.0,1.0,1.012,0.0,34.0,34.0,34.0,1.0,pinwheel_06s.jpg,0.0,Yellow.png,6.0,31,,,,,,,,,,,,,,,,,
0.0,1.0,1.101,0.0,35.0,35.0,35.0,1.0,lid_10s.jpg,0.0,Green.png,6.0,31,,,,,,,,,,,,,,,,,
,,,,,,,,,0.0,,,31,0.0,1.0,2.204,0.0,0.0,0.0,0.0,1.0,tweezers_03s.jpg,squirrel_02s.jpg,,,,,,,
,,,,,,,,,1.0,,,31,1.0,1.0,2.264,0.0,1.0,1.0,1.0,1.0,chip_04s.jpg,pineapple_12s.jpg,,,,,,,
,,,,,,,,,1.0,,,31,1.0,1.0,1.431,0.0,2.0,2.0,2.0,1.0,lamb_chop_07s.jpg,lava_02s.jpg,,,,,,,
,,,,,,,,,0.0,,,31,0.0,1.0,1.554,0.0,3.0,3.0,3.0,1.0,pinwheel_06s.jpg,paper_towel_03s.jpg,,,,,,,
,,,,,,,,,0.0,,,31,1.0,0.0,1.753,0.0,4.0,4.0,4.0,1.0,emerald_02s.jpg,lavender_10s.jpg,,,,,,,
,,,,,,,,,0.0,,,31,1.0,0.0,1.767,0.0,5.0,5.0,5.0,1.0,money_07s.jpg,cap_05s.jpg,,,,,,,
,,,,,,,,,,,,31,,,,,,,,,,,0.0,3.0,3.0,3.0,1.0,new2backpresent_4_4.xlsx,new2back_compare_task_4_4.xlsx
0.0,1.0,1.251,0.0,0.0,0.0,0.0,1.0,fur_coat_11s.jpg,0.0,Blue.png,1.0,31,,,,,,,,,,,,,,,,,
0.0,1.0,1.04,0.0,1.0,1.0,1.0,1.0,crayon_09s.jpg,0.0,Purple.png,1.0,31,,,,,,,,,,,,,,,,,
0.0,1.0,0.984,0.0,2.0,2.0,2.0,1.0,cobra_05s.jpg,0.0,Red.png,1.0,31,,,,,,,,,,,,,,,,,
0.0,1.0,0.735,0.0,3.0,3.0,3.0,1.0,raccoon_02s.jpg,0.0,Orange.png,1.0,31,,,,,,,,,,,,,,,,,
0.0,1.0,0.912,0.0,4.0,4.0,4.0,1.0,soda_fountain_03s.jpg,0.0,Yellow.png,1.0,31,,,,,,,,,,,,,,,,,
1.0,1.0,0.85,0.0,5.0,5.0,5.0,1.0,raccoon_02s.jpg,1.0,Green.png,1.0,31,,,,,,,,,,,,,,,,,
0.0,1.0,0.801,0.0,6.0,6.0,6.0,1.0,feather02.jpg,0.0,Blue.png,2.0,31,,,,,,,,,,,,,,,,,
1.0,1.0,1.184,0.0,7.0,7.0,7.0,1.0,raccoon_02s.jpg,1.0,Purple.png,2.0,31,,,,,,,,,,,,,,,,,
1.0,1.0,1.382,0.0,8.0,8.0,8.0,1.0,feather02.jpg,1.0,Red.png,2.0,31,,,,,,,,,,,,,,,,,
0.0,1.0,1.152,0.0,9.0,9.0,9.0,1.0,rug_09s.jpg,0.0,Orange.png,2.0,31,,,,,,,,,,,,,,,,,
1.0,1.0,1.158,0.0,10.0,10.0,10.0,1.0,feather02.jpg,1.0,Yellow.png,2.0,31,,,,,,,,,,,,,,,,,
0.0,1.0,0.668,0.0,11.0,11.0,11.0,1.0,cushion_08s.jpg,0.0,Green.png,2.0,31,,,,,,,,,,,,,,,,,
1.0,1.0,2.253,0.0,12.0,12.0,12.0,1.0,feather02.jpg,1.0,Blue.png,3.0,31,,,,,,,,,,,,,,,,,
1.0,0.0,0.884,0.0,13.0,13.0,13.0,1.0,feather02.jpg,0.0,Purple.png,3.0,31,,,,,,,,,,,,,,,,,
0.0,1.0,1.045,0.0,14.0,14.0,14.0,1.0,ice_pack_09s.jpg,0.0,Red.png,3.0,31,,,,,,,,,,,,,,,,,
1.0,0.0,0.879,0.0,15.0,15.0,15.0,1.0,ice_pack_09s.jpg,0.0,Orange.png,3.0,31,,,,,,,,,,,,,,,,,
0.0,1.0,1.569,0.0,16.0,16.0,16.0,1.0,loom_05s.jpg,0.0,Yellow.png,3.0,31,,,,,,,,,,,,,,,,,
1.0,1.0,1.168,0.0,17.0,17.0,17.0,1.0,ice_pack_09s.jpg,1.0,Green.png,3.0,31,,,,,,,,,,,,,,,,,
1.0,0.0,1.212,0.0,18.0,18.0,18.0,1.0,ice_pack_09s.jpg,0.0,Blue.png,4.0,31,,,,,,,,,,,,,,,,,
1.0,1.0,1.311,0.0,19.0,19.0,19.0,1.0,ice_pack_09s.jpg,1.0,Purple.png,4.0,31,,,,,,,,,,,,,,,,,
1.0,1.0,0.848,0.0,20.0,20.0,20.0,1.0,ice_pack_09s.jpg,1.0,Red.png,4.0,31,,,,,,,,,,,,,,,,,
0.0,1.0,0.79,0.0,21.0,21.0,21.0,1.0,blazer_02s.jpg,0.0,Orange.png,4.0,31,,,,,,,,,,,,,,,,,
0.0,1.0,1.335,0.0,22.0,22.0,22.0,1.0,penlight_12s.jpg,0.0,Yellow.png,4.0,31,,,,,,,,,,,,,,,,,
0.0,1.0,0.699,0.0,23.0,23.0,23.0,1.0,swan_11s.jpg,0.0,Green.png,4.0,31,,,,,,,,,,,,,,,,,
0.0,1.0,0.864,0.0,24.0,24.0,24.0,1.0,plunger_08s.jpg,0.0,Blue.png,5.0,31,,,,,,,,,,,,,,,,,
0.0,1.0,1.217,0.0,25.0,25.0,25.0,1.0,bottle_opener_11s.jpg,0.0,Purple.png,5.0,31,,,,,,,,,,,,,,,,,
0.0,1.0,1.484,0.0,26.0,26.0,26.0,1.0,checkbook_11s.jpg,0.0,Red.png,5.0,31,,,,,,,,,,,,,,,,,
0.0,1.0,0.677,0.0,27.0,27.0,27.0,1.0,ink_08s.jpg,0.0,Orange.png,5.0,31,,,,,,,,,,,,,,,,,
1.0,0.0,1.636,0.0,28.0,28.0,28.0,1.0,plunger_08s.jpg,0.0,Yellow.png,5.0,31,,,,,,,,,,,,,,,,,
0.0,1.0,0.981,0.0,29.0,29.0,29.0,1.0,pencil02a.jpg,0.0,Green.png,5.0,31,,,,,,,,,,,,,,,,,
0.0,1.0,0.85,0.0,30.0,30.0,30.0,1.0,ginger_09s.jpg,0.0,Blue.png,6.0,31,,,,,,,,,,,,,,,,,
0.0,1.0,0.816,0.0,31.0,31.0,31.0,1.0,taxi_15s.jpg,0.0,Purple.png,6.0,31,,,,,,,,,,,,,,,,,
0.0,1.0,0.881,0.0,32.0,32.0,32.0,1.0,toy_04s.jpg,0.0,Red.png,6.0,31,,,,,,,,,,,,,,,,,
0.0,1.0,0.962,0.0,33.0,33.0,33.0,1.0,blowfish_03s.jpg,0.0,Orange.png,6.0,31,,,,,,,,,,,,,,,,,
0.0,1.0,0.751,0.0,34.0,34.0,34.0,1.0,toilet_paper_12s.jpg,0.0,Yellow.png,6.0,31,,,,,,,,,,,,,,,,,
0.0,1.0,0.814,0.0,35.0,35.0,35.0,1.0,puddle_02s.jpg,0.0,Green.png,6.0,31,,,,,,,,,,,,,,,,,
,,,,,,,,,1.0,,,31,0.0,0.0,2.203,0.0,0.0,0.0,0.0,1.0,ink_08s.jpg,ginger_09s.jpg,,,,,,,
,,,,,,,,,0.0,,,31,1.0,0.0,1.929,0.0,1.0,1.0,1.0,1.0,puddle_02s.jpg,toy_04s.jpg,,,,,,,
,,,,,,,,,0.0,,,31,1.0,0.0,1.401,0.0,2.0,2.0,2.0,1.0,bottle_opener_11s.jpg,penlight_12s.jpg,,,,,,,
,,,,,,,,,0.0,,,31,1.0,0.0,1.952,0.0,3.0,3.0,3.0,1.0,checkbook_11s.jpg,swan_11s.jpg,,,,,,,
,,,,,,,,,1.0,,,31,1.0,1.0,1.968,0.0,4.0,4.0,4.0,1.0,taxi_15s.jpg,toilet_paper_12s.jpg,,,,,,,
,,,,,,,,,1.0,,,31,1.0,1.0,1.035,0.0,5.0,5.0,5.0,1.0,crayon_09s.jpg,soda_fountain_03s.jpg,,,,,,,
,,,,,,,,,,,,31,,,,,,,,,,,0.0,4.0,4.0,4.0,1.0,new2backpresent_5_4.xlsx,new2back_compare_task_5_4.xlsx
0.0,1.0,1.998,0.0,0.0,0.0,0.0,1.0,flask_04s.jpg,0.0,Blue.png,1.0,31,,,,,,,,,,,,,,,,,
0.0,1.0,0.895,0.0,1.0,1.0,1.0,1.0,kimono_13s.jpg,0.0,Purple.png,1.0,31,,,,,,,,,,,,,,,,,
0.0,1.0,0.78,0.0,2.0,2.0,2.0,1.0,limousine_12s.jpg,0.0,Red.png,1.0,31,,,,,,,,,,,,,,,,,
0.0,1.0,0.668,0.0,3.0,3.0,3.0,1.0,lectern_08s.jpg,0.0,Orange.png,1.0,31,,,,,,,,,,,,,,,,,
1.0,0.0,0.949,0.0,4.0,4.0,4.0,1.0,kimono_13s.jpg,0.0,Yellow.png,1.0,31,,,,,,,,,,,,,,,,,
0.0,1.0,0.683,0.0,5.0,5.0,5.0,1.0,doily_13s.jpg,0.0,Green.png,1.0,31,,,,,,,,,,,,,,,,,
1.0,1.0,0.981,0.0,6.0,6.0,6.0,1.0,kimono_13s.jpg,1.0,Blue.png,2.0,31,,,,,,,,,,,,,,,,,
0.0,1.0,0.894,0.0,7.0,7.0,7.0,1.0,razor_blade_01b.jpg,0.0,Purple.png,2.0,31,,,,,,,,,,,,,,,,,
1.0,0.0,0.852,0.0,8.0,8.0,8.0,1.0,razor_blade_01b.jpg,0.0,Red.png,2.0,31,,,,,,,,,,,,,,,,,
0.0,1.0,0.71,0.0,9.0,9.0,9.0,1.0,champagne_18s.jpg,0.0,Orange.png,2.0,31,,,,,,,,,,,,,,,,,
0.0,1.0,0.985,0.0,10.0,10.0,10.0,1.0,stamp1_11s.jpg,0.0,Yellow.png,2.0,31,,,,,,,,,,,,,,,,,
1.0,1.0,1.016,0.0,11.0,11.0,11.0,1.0,champagne_18s.jpg,1.0,Green.png,2.0,31,,,,,,,,,,,,,,,,,
0.0,1.0,0.835,0.0,12.0,12.0,12.0,1.0,crossbow_10s.jpg,0.0,Blue.png,3.0,31,,,,,,,,,,,,,,,,,
0.0,1.0,1.435,0.0,13.0,13.0,13.0,1.0,briefcase_03s.jpg,0.0,Purple.png,3.0,31,,,,,,,,,,,,,,,,,
0.0,1.0,1.094,0.0,14.0,14.0,14.0,1.0,jersey_02s.jpg,0.0,Red.png,3.0,31,,,,,,,,,,,,,,,,,
1.0,1.0,1.153,0.0,15.0,15.0,15.0,1.0,briefcase_03s.jpg,1.0,Orange.png,3.0,31,,,,,,,,,,,,,,,,,
0.0,1.0,0.764,0.0,16.0,16.0,16.0,1.0,oil_02s.jpg,0.0,Yellow.png,3.0,31,,,,,,,,,,,,,,,,,
0.0,1.0,0.83,0.0,17.0,17.0,17.0,1.0,tinsel_12s.jpg,0.0,Green.png,3.0,31,,,,,,,,,,,,,,,,,
1.0,0.0,0.885,0.0,18.0,18.0,18.0,1.0,flask_04s.jpg,0.0,Blue.png,4.0,31,,,,,,,,,,,,,,,,,
0.0,1.0,0.733,0.0,19.0,19.0,19.0,1.0,fork_04s.jpg,0.0,Purple.png,4.0,31,,,,,,,,,,,,,,,,,
0.0,1.0,0.748,0.0,20.0,20.0,20.0,1.0,purse_05s.jpg,0.0,Red.png,4.0,31,,,,,,,,,,,,,,,,,
1.0,0.0,1.551,0.0,21.0,21.0,21.0,1.0,flask_04s.jpg,0.0,Orange.png,4.0,31,,,,,,,,,,,,,,,,,
0.0,1.0,1.051,0.0,22.0,22.0,22.0,1.0,sledgehammer_03s.jpg,0.0,Yellow.png,4.0,31,,,,,,,,,,,,,,,,,
0.0,1.0,1.147,0.0,23.0,23.0,23.0,1.0,turf_03s.jpg,0.0,Green.png,4.0,31,,,,,,,,,,,,,,,,,
0.0,1.0,0.944,0.0,24.0,24.0,24.0,1.0,omelet_07s.jpg,0.0,Blue.png,5.0,31,,,,,,,,,,,,,,,,,
1.0,1.0,0.978,0.0,25.0,25.0,25.0,1.0,turf_03s.jpg,1.0,Purple.png,5.0,31,,,,,,,,,,,,,,,,,
0.0,1.0,0.885,0.0,26.0,26.0,26.0,1.0,clover_04s.jpg,0.0,Red.png,5.0,31,,,,,,,,,,,,,,,,,
0.0,1.0,1.233,0.0,27.0,27.0,27.0,1.0,lip_gloss_06s.jpg,0.0,Orange.png,5.0,31,,,,,,,,,,,,,,,,,
0.0,1.0,0.918,0.0,28.0,28.0,28.0,1.0,amber_04s.jpg,0.0,Yellow.png,5.0,31,,,,,,,,,,,,,,,,,
0.0,1.0,1.066,0.0,29.0,29.0,29.0,1.0,tortilla_06s.jpg,0.0,Green.png,5.0,31,,,,,,,,,,,,,,,,,
0.0,1.0,1.418,0.0,30.0,30.0,30.0,1.0,razor_blade_01b.jpg,0.0,Blue.png,6.0,31,,,,,,,,,,,,,,,,,
0.0,1.0,0.884,0.0,31.0,31.0,31.0,1.0,tape_measure_11s.jpg,0.0,Purple.png,6.0,31,,,,,,,,,,,,,,,,,
1.0,1.0,1.051,0.0,32.0,32.0,32.0,1.0,razor_blade_01b.jpg,1.0,Red.png,6.0,31,,,,,,,,,,,,,,,,,
1.0,0.0,1.015,0.0,33.0,33.0,33.0,1.0,razor_blade_01b.jpg,0.0,Orange.png,6.0,31,,,,,,,,,,,,,,,,,
0.0,1.0,1.551,0.0,34.0,34.0,34.0,1.0,stingray_02s.jpg,0.0,Yellow.png,6.0,31,,,,,,,,,,,,,,,,,
0.0,1.0,1.936,0.0,35.0,35.0,35.0,1.0,harpoon.jpg,0.0,Green.png,6.0,31,,,,,,,,,,,,,,,,,
,,,,,,,,,1.0,,,31,1.0,1.0,2.487,0.0,0.0,0.0,0.0,1.0,oil_02s.jpg,fork_04s.jpg,,,,,,,
,,,,,,,,,0.0,,,31,1.0,0.0,1.436,0.0,1.0,1.0,1.0,1.0,doily_13s.jpg,limousine_12s.jpg,,,,,,,
,,,,,,,,,0.0,,,31,0.0,1.0,1.602,0.0,2.0,2.0,2.0,1.0,lip_gloss_06s.jpg,omelet_07s.jpg,,,,,,,
,,,,,,,,,0.0,,,31,1.0,0.0,1.469,0.0,3.0,3.0,3.0,1.0,tape_measure_11s.jpg,amber_04s.jpg,,,,,,,
,,,,,,,,,0.0,,,31,1.0,0.0,3.22,0.0,4.0,4.0,4.0,1.0,tortilla_06s.jpg,clover_04s.jpg,,,,,,,
,,,,,,,,,0.0,,,31,0.0,1.0,1.351,0.0,5.0,5.0,5.0,1.0,purse_05s.jpg,tinsel_12s.jpg,,,,,,,
,,,,,,,,,,,,31,,,,,,,,,,,0.0,5.0,5.0,5.0,1.0,new2backpresent_6_4.xlsx,new2back_compare_task_6_4.xlsx
0.0,1.0,1.484,0.0,0.0,0.0,0.0,1.0,butter_14s.jpg,0.0,Blue.png,1.0,31,,,,,,,,,,,,,,,,,
1.0,0.0,1.514,0.0,1.0,1.0,1.0,1.0,butter_14s.jpg,0.0,Purple.png,1.0,31,,,,,,,,,,,,,,,,,
1.0,1.0,1.425,0.0,2.0,2.0,2.0,1.0,butter_14s.jpg,1.0,Red.png,1.0,31,,,,,,,,,,,,,,,,,
0.0,1.0,1.219,0.0,3.0,3.0,3.0,1.0,stamp2_08s.jpg,0.0,Orange.png,1.0,31,,,,,,,,,,,,,,,,,
0.0,1.0,0.895,0.0,4.0,4.0,4.0,1.0,kangaroo_02s.jpg,0.0,Yellow.png,1.0,31,,,,,,,,,,,,,,,,,
0.0,1.0,1.668,0.0,5.0,5.0,5.0,1.0,camcorder_10s.jpg,0.0,Green.png,1.0,31,,,,,,,,,,,,,,,,,
0.0,1.0,0.818,0.0,6.0,6.0,6.0,1.0,bank_06s.jpg,0.0,Blue.png,2.0,31,,,,,,,,,,,,,,,,,
0.0,1.0,1.119,0.0,7.0,7.0,7.0,1.0,gear_07s.jpg,0.0,Purple.png,2.0,31,,,,,,,,,,,,,,,,,
1.0,1.0,1.118,0.0,8.0,8.0,8.0,1.0,bank_06s.jpg,1.0,Red.png,2.0,31,,,,,,,,,,,,,,,,,
0.0,1.0,0.747,0.0,9.0,9.0,9.0,1.0,funnel_01b.jpg,0.0,Orange.png,2.0,31,,,,,,,,,,,,,,,,,
0.0,1.0,1.151,0.0,10.0,10.0,10.0,1.0,poinsettia_04s.jpg,0.0,Yellow.png,2.0,31,,,,,,,,,,,,,,,,,
1.0,1.0,0.884,0.0,11.0,11.0,11.0,1.0,funnel_01b.jpg,1.0,Green.png,2.0,31,,,,,,,,,,,,,,,,,
0.0,1.0,0.711,0.0,12.0,12.0,12.0,1.0,rooster_03s.jpg,0.0,Blue.png,3.0,31,,,,,,,,,,,,,,,,,
0.0,1.0,1.346,0.0,13.0,13.0,13.0,1.0,denture_03s.jpg,0.0,Purple.png,3.0,31,,,,,,,,,,,,,,,,,
0.0,1.0,1.135,0.0,14.0,14.0,14.0,1.0,bean_06s.jpg,0.0,Red.png,3.0,31,,,,,,,,,,,,,,,,,
0.0,1.0,1.27,0.0,15.0,15.0,15.0,1.0,mud_13s.jpg,0.0,Orange.png,3.0,31,,,,,,,,,,,,,,,,,
0.0,1.0,1.177,0.0,16.0,16.0,16.0,1.0,keyhole_03s.jpg,0.0,Yellow.png,3.0,31,,,,,,,,,,,,,,,,,
1.0,0.0,1.15,0.0,17.0,17.0,17.0,1.0,bean_06s.jpg,0.0,Green.png,3.0,31,,,,,,,,,,,,,,,,,
0.0,1.0,1.62,0.0,18.0,18.0,18.0,1.0,bank_06s.jpg,0.0,Blue.png,4.0,31,,,,,,,,,,,,,,,,,
0.0,1.0,1.002,0.0,19.0,19.0,19.0,1.0,pomegranate_04s.jpg,0.0,Purple.png,4.0,31,,,,,,,,,,,,,,,,,
0.0,1.0,0.928,0.0,20.0,20.0,20.0,1.0,chopsticks_08s.jpg,0.0,Red.png,4.0,31,,,,,,,,,,,,,,,,,
0.0,1.0,0.861,0.0,21.0,21.0,21.0,1.0,contact_lens_15s.jpg,0.0,Orange.png,4.0,31,,,,,,,,,,,,,,,,,
0.0,1.0,0.965,0.0,22.0,22.0,22.0,1.0,hydrant_10s.jpg,0.0,Yellow.png,4.0,31,,,,,,,,,,,,,,,,,
0.0,1.0,0.85,0.0,23.0,23.0,23.0,1.0,gingerbread_man_03s.jpg,0.0,Green.png,4.0,31,,,,,,,,,,,,,,,,,
0.0,1.0,1.316,0.0,24.0,24.0,24.0,1.0,camcorder_10s.jpg,0.0,Blue.png,5.0,31,,,,,,,,,,,,,,,,,
0.0,1.0,0.85,0.0,25.0,25.0,25.0,1.0,teabag_12s.jpg,0.0,Purple.png,5.0,31,,,,,,,,,,,,,,,,,
0.0,1.0,0.717,0.0,26.0,26.0,26.0,1.0,radiator_05s.jpg,0.0,Red.png,5.0,31,,,,,,,,,,,,,,,,,
0.0,1.0,0.717,0.0,27.0,27.0,27.0,1.0,punch1_10s.jpg,0.0,Orange.png,5.0,31,,,,,,,,,,,,,,,,,
0.0,1.0,0.666,0.0,28.0,28.0,28.0,1.0,mailbox_11s.jpg,0.0,Yellow.png,5.0,31,,,,,,,,,,,,,,,,,
0.0,1.0,0.758,0.0,29.0,29.0,29.0,1.0,beaker_01b.jpg,0.0,Green.png,5.0,31,,,,,,,,,,,,,,,,,
1.0,1.0,0.933,0.0,30.0,30.0,30.0,1.0,mailbox_11s.jpg,1.0,Blue.png,6.0,31,,,,,,,,,,,,,,,,,
0.0,1.0,1.117,0.0,31.0,31.0,31.0,1.0,pipe1_10s.jpg,0.0,Purple.png,6.0,31,,,,,,,,,,,,,,,,,
1.0,1.0,1.088,0.0,32.0,32.0,32.0,1.0,mailbox_11s.jpg,1.0,Red.png,6.0,31,,,,,,,,,,,,,,,,,
1.0,1.0,1.05,0.0,33.0,33.0,33.0,1.0,pipe1_10s.jpg,1.0,Orange.png,6.0,31,,,,,,,,,,,,,,,,,
0.0,1.0,1.032,0.0,34.0,34.0,34.0,1.0,eyedropper_12s.jpg,0.0,Yellow.png,6.0,31,,,,,,,,,,,,,,,,,
0.0,1.0,0.9,0.0,35.0,35.0,35.0,1.0,rhubarb_03s.jpg,0.0,Green.png,6.0,31,,,,,,,,,,,,,,,,,
,,,,,,,,,0.0,,,31,1.0,0.0,2.675,0.0,0.0,0.0,0.0,1.0,mud_13s.jpg,rooster_03s.jpg,,,,,,,
,,,,,,,,,1.0,,,31,0.0,0.0,2.619,0.0,1.0,1.0,1.0,1.0,chopsticks_08s.jpg,gingerbread_man_03s.jpg,,,,,,,
,,,,,,,,,0.0,,,31,0.0,1.0,2.147,0.0,2.0,2.0,2.0,1.0,beaker_01b.jpg,radiator_05s.jpg,,,,,,,
,,,,,,,,,0.0,,,31,1.0,0.0,2.152,0.0,3.0,3.0,3.0,1.0,teabag_12s.jpg,hydrant_10s.jpg,,,,,,,
,,,,,,,,,0.0,,,31,1.0,0.0,2.437,0.0,4.0,4.0,4.0,1.0,denture_03s.jpg,poinsettia_04s.jpg,,,,,,,
,,,,,,,,,1.0,,,31,1.0,1.0,1.819,0.0,5.0,5.0,5.0,1.0,kangaroo_02s.jpg,gear_07s.jpg,,,,,,,
,,,,,,,,,,,,31,,,,,,,,,,,0.0,6.0,6.0,6.0,1.0,new2backpresent_7_4.xlsx,new2back_compare_task_7_4.xlsx
0.0,1.0,1.207,0.0,0.0,0.0,0.0,1.0,lamppost_09s.jpg,0.0,Blue.png,1.0,31,,,,,,,,,,,,,,,,,
0.0,1.0,1.379,0.0,1.0,1.0,1.0,1.0,jewel_01b.jpg,0.0,Purple.png,1.0,31,,,,,,,,,,,,,,,,,
0.0,1.0,0.766,0.0,2.0,2.0,2.0,1.0,tuxedo_01b.jpg,0.0,Red.png,1.0,31,,,,,,,,,,,,,,,,,
0.0,1.0,0.867,0.0,3.0,3.0,3.0,1.0,flip_flop_03s.jpg,0.0,Orange.png,1.0,31,,,,,,,,,,,,,,,,,
0.0,1.0,1.261,0.0,4.0,4.0,4.0,1.0,medal_04s.jpg,0.0,Yellow.png,1.0,31,,,,,,,,,,,,,,,,,
1.0,1.0,1.013,0.0,5.0,5.0,5.0,1.0,flip_flop_03s.jpg,1.0,Green.png,1.0,31,,,,,,,,,,,,,,,,,
1.0,0.0,2.078,0.0,6.0,6.0,6.0,1.0,tuxedo_01b.jpg,0.0,Blue.png,2.0,31,,,,,,,,,,,,,,,,,
1.0,1.0,1.006,0.0,7.0,7.0,7.0,1.0,flip_flop_03s.jpg,1.0,Purple.png,2.0,31,,,,,,,,,,,,,,,,,
0.0,1.0,0.924,0.0,8.0,8.0,8.0,1.0,fireworks_18s.jpg,0.0,Red.png,2.0,31,,,,,,,,,,,,,,,,,
0.0,1.0,0.855,0.0,9.0,9.0,9.0,1.0,squirt_gun_03s.jpg,0.0,Orange.png,2.0,31,,,,,,,,,,,,,,,,,
1.0,0.0,0.91,0.0,10.0,10.0,10.0,1.0,flip_flop_03s.jpg,0.0,Yellow.png,2.0,31,,,,,,,,,,,,,,,,,
0.0,1.0,0.968,0.0,11.0,11.0,11.0,1.0,puffin_19s.jpg,0.0,Green.png,2.0,31,,,,,,,,,,,,,,,,,
0.0,1.0,1.55,0.0,12.0,12.0,12.0,1.0,tuxedo_01b.jpg,0.0,Blue.png,3.0,31,,,,,,,,,,,,,,,,,
1.0,0.0,0.809,0.0,13.0,13.0,13.0,1.0,tuxedo_01b.jpg,0.0,Purple.png,3.0,31,,,,,,,,,,,,,,,,,
0.0,1.0,0.951,0.0,14.0,14.0,14.0,1.0,snowman_02s.jpg,0.0,Red.png,3.0,31,,,,,,,,,,,,,,,,,
0.0,1.0,0.866,0.0,15.0,15.0,15.0,1.0,cucumber_07s.jpg,0.0,Orange.png,3.0,31,,,,,,,,,,,,,,,,,
0.0,1.0,0.694,0.0,16.0,16.0,16.0,1.0,plug_08s.jpg,0.0,Yellow.png,3.0,31,,,,,,,,,,,,,,,,,
1.0,1.0,0.98,0.0,17.0,17.0,17.0,1.0,cucumber_07s.jpg,1.0,Green.png,3.0,31,,,,,,,,,,,,,,,,,
1.0,0.0,1.663,0.0,18.0,18.0,18.0,1.0,puffin_19s.jpg,0.0,Blue.png,4.0,31,,,,,,,,,,,,,,,,,
0.0,1.0,0.8,0.0,19.0,19.0,19.0,1.0,fondue_07s.jpg,0.0,Purple.png,4.0,31,,,,,,,,,,,,,,,,,
0.0,1.0,0.884,0.0,20.0,20.0,20.0,1.0,lasagna_06s.jpg,0.0,Red.png,4.0,31,,,,,,,,,,,,,,,,,
0.0,1.0,0.661,0.0,21.0,21.0,21.0,1.0,eiffeltower.jpg,0.0,Orange.png,4.0,31,,,,,,,,,,,,,,,,,
0.0,1.0,0.972,0.0,22.0,22.0,22.0,1.0,outlet_10s.jpg,0.0,Yellow.png,4.0,31,,,,,,,,,,,,,,,,,
0.0,1.0,1.401,0.0,23.0,23.0,23.0,1.0,cape_11s.jpg,0.0,Green.png,4.0,31,,,,,,,,,,,,,,,,,
0.0,1.0,0.768,0.0,24.0,24.0,24.0,1.0,marshmallow_08s.jpg,0.0,Blue.png,5.0,31,,,,,,,,,,,,,,,,,
0.0,1.0,0.817,0.0,25.0,25.0,25.0,1.0,racehorse_03s.jpg,0.0,Purple.png,5.0,31,,,,,,,,,,,,,,,,,
0.0,1.0,1.651,0.0,26.0,26.0,26.0,1.0,aluminum_foil_08s.jpg,0.0,Red.png,5.0,31,,,,,,,,,,,,,,,,,
0.0,1.0,0.689,0.0,27.0,27.0,27.0,1.0,spoon02a.jpg,0.0,Orange.png,5.0,31,,,,,,,,,,,,,,,,,
0.0,1.0,0.778,0.0,28.0,28.0,28.0,1.0,padlock_07s.jpg,0.0,Yellow.png,5.0,31,,,,,,,,,,,,,,,,,
0.0,1.0,0.894,0.0,29.0,29.0,29.0,1.0,solar_panel_02s.jpg,0.0,Green.png,5.0,31,,,,,,,,,,,,,,,,,
0.0,1.0,0.715,0.0,30.0,30.0,30.0,1.0,turtleneck_11s.jpg,0.0,Blue.png,6.0,31,,,,,,,,,,,,,,,,,
0.0,1.0,1.684,0.0,31.0,31.0,31.0,1.0,pocketknife_12s.jpg,0.0,Purple.png,6.0,31,,,,,,,,,,,,,,,,,
1.0,0.0,0.964,0.0,32.0,32.0,32.0,1.0,pocketknife_12s.jpg,0.0,Red.png,6.0,31,,,,,,,,,,,,,,,,,
0.0,1.0,0.951,0.0,33.0,33.0,33.0,1.0,quill_09s.jpg,0.0,Orange.png,6.0,31,,,,,,,,,,,,,,,,,
1.0,0.0,0.9,0.0,34.0,34.0,34.0,1.0,quill_09s.jpg,0.0,Yellow.png,6.0,31,,,,,,,,,,,,,,,,,
1.0,0.0,1.1,0.0,35.0,35.0,35.0,1.0,pocketknife_12s.jpg,0.0,Green.png,6.0,31,,,,,,,,,,,,,,,,,
,,,,,,,,,0.0,,,31,1.0,0.0,2.113,0.0,0.0,0.0,0.0,1.0,cape_11s.jpg,lasagna_06s.jpg,,,,,,,
,,,,,,,,,0.0,,,31,1.0,0.0,2.164,0.0,1.0,1.0,1.0,1.0,padlock_07s.jpg,racehorse_03s.jpg,,,,,,,
,,,,,,,,,1.0,,,31,0.0,0.0,2.362,0.0,2.0,2.0,2.0,1.0,spoon02a.jpg,turtleneck_11s.jpg,,,,,,,
,,,,,,,,,0.0,,,31,1.0,0.0,1.696,0.0,3.0,3.0,3.0,1.0,marshmallow_08s.jpg,eiffeltower.jpg,,,,,,,
,,,,,,,,,0.0,,,31,0.0,1.0,2.453,0.0,4.0,4.0,4.0,1.0,medal_04s.jpg,jewel_01b.jpg,,,,,,,
,,,,,,,,,1.0,,,31,1.0,1.0,1.569,0.0,5.0,5.0,5.0,1.0,plug_08s.jpg,fondue_07s.jpg,,,,,,,
,,,,,,,,,,,,31,,,,,,,,,,,0.0,7.0,7.0,7.0,1.0,new2backpresent_8_4.xlsx,new2back_compare_task_8_4.xlsx
0.0,1.0,1.609,0.0,0.0,0.0,0.0,1.0,footprint_11s.jpg,0.0,Blue.png,1.0,31,,,,,,,,,,,,,,,,,
0.0,1.0,1.134,0.0,1.0,1.0,1.0,1.0,coffee_filter_10s.jpg,0.0,Purple.png,1.0,31,,,,,,,,,,,,,,,,,
1.0,0.0,0.799,0.0,2.0,2.0,2.0,1.0,coffee_filter_10s.jpg,0.0,Red.png,1.0,31,,,,,,,,,,,,,,,,,
1.0,1.0,0.912,0.0,3.0,3.0,3.0,1.0,coffee_filter_10s.jpg,1.0,Orange.png,1.0,31,,,,,,,,,,,,,,,,,
1.0,1.0,0.927,0.0,4.0,4.0,4.0,1.0,coffee_filter_10s.jpg,1.0,Yellow.png,1.0,31,,,,,,,,,,,,,,,,,
0.0,1.0,0.804,0.0,5.0,5.0,5.0,1.0,gargoyle_08s.jpg,0.0,Green.png,1.0,31,,,,,,,,,,,,,,,,,
0.0,1.0,1.434,0.0,6.0,6.0,6.0,1.0,candy_cane_06s.jpg,0.0,Blue.png,2.0,31,,,,,,,,,,,,,,,,,
0.0,1.0,0.919,0.0,7.0,7.0,7.0,1.0,toad_09s.jpg,0.0,Purple.png,2.0,31,,,,,,,,,,,,,,,,,
1.0,1.0,0.918,0.0,8.0,8.0,8.0,1.0,candy_cane_06s.jpg,1.0,Red.png,2.0,31,,,,,,,,,,,,,,,,,
0.0,1.0,0.79,0.0,9.0,9.0,9.0,1.0,pumpkin_03s.jpg,0.0,Orange.png,2.0,31,,,,,,,,,,,,,,,,,
0.0,1.0,1.137,0.0,10.0,10.0,10.0,1.0,dashboard_02s.jpg,0.0,Yellow.png,2.0,31,,,,,,,,,,,,,,,,,
0.0,1.0,0.762,0.0,11.0,11.0,11.0,1.0,syringe_02s.jpg,0.0,Green.png,2.0,31,,,,,,,,,,,,,,,,,
0.0,1.0,0.707,0.0,12.0,12.0,12.0,1.0,powder_07s.jpg,0.0,Blue.png,3.0,31,,,,,,,,,,,,,,,,,
1.0,0.0,0.878,0.0,13.0,13.0,13.0,1.0,powder_07s.jpg,0.0,Purple.png,3.0,31,,,,,,,,,,,,,,,,,
1.0,1.0,0.817,0.0,14.0,14.0,14.0,1.0,powder_07s.jpg,1.0,Red.png,3.0,31,,,,,,,,,,,,,,,,,
0.0,1.0,0.709,0.0,15.0,15.0,15.0,1.0,sea_urchin_09s.jpg,0.0,Orange.png,3.0,31,,,,,,,,,,,,,,,,,
0.0,1.0,1.246,0.0,16.0,16.0,16.0,1.0,throne_11s.jpg,0.0,Yellow.png,3.0,31,,,,,,,,,,,,,,,,,
1.0,0.0,0.995,0.0,17.0,17.0,17.0,1.0,powder_07s.jpg,0.0,Green.png,3.0,31,,,,,,,,,,,,,,,,,
0.0,1.0,1.203,0.0,18.0,18.0,18.0,1.0,chalice_10s.jpg,0.0,Blue.png,4.0,31,,,,,,,,,,,,,,,,,
0.0,1.0,0.833,0.0,19.0,19.0,19.0,1.0,air_pump_05s.jpg,0.0,Purple.png,4.0,31,,,,,,,,,,,,,,,,,
0.0,1.0,1.281,0.0,20.0,20.0,20.0,1.0,microwave_02s.jpg,0.0,Red.png,4.0,31,,,,,,,,,,,,,,,,,
0.0,1.0,0.861,0.0,21.0,21.0,21.0,1.0,cereal_04s.jpg,0.0,Orange.png,4.0,31,,,,,,,,,,,,,,,,,
0.0,1.0,0.623,0.0,22.0,22.0,22.0,1.0,mushroom_10n.jpg,0.0,Yellow.png,4.0,31,,,,,,,,,,,,,,,,,
0.0,1.0,1.062,0.0,23.0,23.0,23.0,1.0,red_carpet_03s.jpg,0.0,Green.png,4.0,31,,,,,,,,,,,,,,,,,
1.0,0.0,1.457,0.0,24.0,24.0,24.0,1.0,throne_11s.jpg,0.0,Blue.png,5.0,31,,,,,,,,,,,,,,,,,
0.0,1.0,0.718,0.0,25.0,25.0,25.0,1.0,koala_13s.jpg,0.0,Purple.png,5.0,31,,,,,,,,,,,,,,,,,
1.0,1.0,1.102,0.0,26.0,26.0,26.0,1.0,throne_11s.jpg,1.0,Red.png,5.0,31,,,,,,,,,,,,,,,,,
0.0,1.0,0.685,0.0,27.0,27.0,27.0,1.0,rocket_02s.jpg,0.0,Orange.png,5.0,31,,,,,,,,,,,,,,,,,
0.0,1.0,0.651,0.0,28.0,28.0,28.0,1.0,swordfish_05s.jpg,0.0,Yellow.png,5.0,31,,,,,,,,,,,,,,,,,
1.0,1.0,0.91,0.0,29.0,29.0,29.0,1.0,rocket_02s.jpg,1.0,Green.png,5.0,31,,,,,,,,,,,,,,,,,
0.0,1.0,1.2,0.0,30.0,30.0,30.0,1.0,icicle_04s.jpg,0.0,Blue.png,6.0,31,,,,,,,,,,,,,,,,,
0.0,1.0,0.895,0.0,31.0,31.0,31.0,1.0,keyboard_05s.jpg,0.0,Purple.png,6.0,31,,,,,,,,,,,,,,,,,
0.0,1.0,1.045,0.0,32.0,32.0,32.0,1.0,pocket_watch_16s.jpg,0.0,Red.png,6.0,31,,,,,,,,,,,,,,,,,
0.0,1.0,0.828,0.0,33.0,33.0,33.0,1.0,tablet_04s.jpg,0.0,Orange.png,6.0,31,,,,,,,,,,,,,,,,,
0.0,1.0,1.094,0.0,34.0,34.0,34.0,1.0,chocolate_01b.jpg,0.0,Yellow.png,6.0,31,,,,,,,,,,,,,,,,,
0.0,1.0,0.851,0.0,35.0,35.0,35.0,1.0,light_switch_02s.jpg,0.0,Green.png,6.0,31,,,,,,,,,,,,,,,,,
,,,,,,,,,0.0,,,31,0.0,1.0,6.723,0.0,0.0,0.0,0.0,1.0,chalice_10s.jpg,sea_urchin_09s.jpg,,,,,,,
,,,,,,,,,1.0,,,31,1.0,1.0,2.353,0.0,1.0,1.0,1.0,1.0,swordfish_05s.jpg,keyboard_05s.jpg,,,,,,,
,,,,,,,,,0.0,,,31,0.0,1.0,2.971,0.0,2.0,2.0,2.0,1.0,red_carpet_03s.jpg,microwave_02s.jpg,,,,,,,
,,,,,,,,,0.0,,,31,0.0,1.0,1.936,0.0,3.0,3.0,3.0,1.0,dashboard_02s.jpg,toad_09s.jpg,,,,,,,
,,,,,,,,,0.0,,,31,0.0,1.0,4.004,0.0,4.0,4.0,4.0,1.0,koala_13s.jpg,mushroom_10n.jpg,,,,,,,
,,,,,,,,,1.0,,,31,1.0,1.0,3.303,0.0,5.0,5.0,5.0,1.0,icicle_04s.jpg,tablet_04s.jpg,,,,,,,
,,,,,,,,,,,,31,,,,,,,,,,,0.0,8.0,8.0,8.0,1.0,new2backpresent_9_4.xlsx,new2back_compare_task_9_4.xlsx
