key_resp.keys,key_resp.corr,key_resp.rt,present_segment.thisRepN,present_segment.thisTrialN,present_segment.thisN,present_segment.thisIndex,present_segment.ran,pictures,answer,clock,segment,participant,key_resp_2.keys,key_resp_2.corr,key_resp_2.rt,compare_segment.thisRepN,compare_segment.thisTrialN,compare_segment.thisN,compare_segment.thisIndex,compare_segment.ran,item_a,item_b,clock_conditions.thisRepN,clock_conditions.thisTrialN,clock_conditions.thisN,clock_conditions.thisIndex,clock_conditions.ran,present,compare
0.0,1.0,0.764,0.0,0.0,0.0,0.0,1.0,mirror_12s.jpg,0.0,Blue.png,1.0,72,,,,,,,,,,,,,,,,,
0.0,1.0,0.983,0.0,1.0,1.0,1.0,1.0,polaroid_05s.jpg,0.0,Purple.png,1.0,72,,,,,,,,,,,,,,,,,
,0.0,,0.0,2.0,2.0,2.0,1.0,polaroid_05s.jpg,1.0,Red.png,1.0,72,,,,,,,,,,,,,,,,,
0.0,1.0,0.751,0.0,3.0,3.0,3.0,1.0,slingshot_07s.jpg,0.0,Orange.png,1.0,72,,,,,,,,,,,,,,,,,
1.0,1.0,1.505,0.0,4.0,4.0,4.0,1.0,polaroid_05s.jpg,1.0,Yellow.png,1.0,72,,,,,,,,,,,,,,,,,
0.0,1.0,0.717,0.0,5.0,5.0,5.0,1.0,kettle_08s.jpg,0.0,Green.png,1.0,72,,,,,,,,,,,,,,,,,
0.0,1.0,0.772,0.0,6.0,6.0,6.0,1.0,crystal_ball_12s.jpg,0.0,Blue.png,2.0,72,,,,,,,,,,,,,,,,,
0.0,1.0,0.81,0.0,7.0,7.0,7.0,1.0,iron_13s.jpg,0.0,Purple.png,2.0,72,,,,,,,,,,,,,,,,,
0.0,1.0,0.822,0.0,8.0,8.0,8.0,1.0,saddle_06s.jpg,0.0,Red.png,2.0,72,,,,,,,,,,,,,,,,,
0.0,1.0,1.312,0.0,9.0,9.0,9.0,1.0,mango_09s.jpg,0.0,Orange.png,2.0,72,,,,,,,,,,,,,,,,,
0.0,1.0,0.789,0.0,10.0,10.0,10.0,1.0,ostrich_06s.jpg,0.0,Yellow.png,2.0,72,,,,,,,,,,,,,,,,,
1.0,1.0,1.752,0.0,11.0,11.0,11.0,1.0,iron_13s.jpg,1.0,Green.png,2.0,72,,,,,,,,,,,,,,,,,
0.0,1.0,0.92,0.0,12.0,12.0,12.0,1.0,stethoscope_01b.jpg,0.0,Blue.png,3.0,72,,,,,,,,,,,,,,,,,
0.0,1.0,0.69,0.0,13.0,13.0,13.0,1.0,ruby_15s.jpg,0.0,Purple.png,3.0,72,,,,,,,,,,,,,,,,,
1.0,0.0,1.702,0.0,14.0,14.0,14.0,1.0,mango_09s.jpg,0.0,Red.png,3.0,72,,,,,,,,,,,,,,,,,
0.0,1.0,0.808,0.0,15.0,15.0,15.0,1.0,target_11s.jpg,0.0,Orange.png,3.0,72,,,,,,,,,,,,,,,,,
1.0,1.0,1.558,0.0,16.0,16.0,16.0,1.0,mango_09s.jpg,1.0,Yellow.png,3.0,72,,,,,,,,,,,,,,,,,
0.0,1.0,0.976,0.0,17.0,17.0,17.0,1.0,compass_10n.jpg,0.0,Green.png,3.0,72,,,,,,,,,,,,,,,,,
0.0,1.0,0.836,0.0,18.0,18.0,18.0,1.0,meatball_13s.jpg,0.0,Blue.png,4.0,72,,,,,,,,,,,,,,,,,
0.0,1.0,0.733,0.0,19.0,19.0,19.0,1.0,stapler_01b.jpg,0.0,Purple.png,4.0,72,,,,,,,,,,,,,,,,,
1.0,1.0,1.619,0.0,20.0,20.0,20.0,1.0,meatball_13s.jpg,1.0,Red.png,4.0,72,,,,,,,,,,,,,,,,,
0.0,1.0,0.624,0.0,21.0,21.0,21.0,1.0,pump_11s.jpg,0.0,Orange.png,4.0,72,,,,,,,,,,,,,,,,,
0.0,1.0,0.624,0.0,22.0,22.0,22.0,1.0,coral_08s.jpg,0.0,Yellow.png,4.0,72,,,,,,,,,,,,,,,,,
1.0,1.0,2.138,0.0,23.0,23.0,23.0,1.0,meatball_13s.jpg,1.0,Green.png,4.0,72,,,,,,,,,,,,,,,,,
0.0,1.0,0.873,0.0,24.0,24.0,24.0,1.0,peach_04s.jpg,0.0,Blue.png,5.0,72,,,,,,,,,,,,,,,,,
1.0,0.0,1.633,0.0,25.0,25.0,25.0,1.0,meatball_13s.jpg,0.0,Purple.png,5.0,72,,,,,,,,,,,,,,,,,
0.0,1.0,1.306,0.0,26.0,26.0,26.0,1.0,pie_08s.jpg,0.0,Red.png,5.0,72,,,,,,,,,,,,,,,,,
0.0,1.0,1.001,0.0,27.0,27.0,27.0,1.0,rollerskate_03s.jpg,0.0,Orange.png,5.0,72,,,,,,,,,,,,,,,,,
0.0,1.0,0.685,0.0,28.0,28.0,28.0,1.0,trampoline_13s.jpg,0.0,Yellow.png,5.0,72,,,,,,,,,,,,,,,,,
0.0,1.0,0.689,0.0,29.0,29.0,29.0,1.0,undershirt_02s.jpg,0.0,Green.png,5.0,72,,,,,,,,,,,,,,,,,
0.0,1.0,0.868,0.0,30.0,30.0,30.0,1.0,thread_08s.jpg,0.0,Blue.png,6.0,72,,,,,,,,,,,,,,,,,
0.0,1.0,0.77,0.0,31.0,31.0,31.0,1.0,megaphone_03s.jpg,0.0,Purple.png,6.0,72,,,,,,,,,,,,,,,,,
0.0,1.0,0.736,0.0,32.0,32.0,32.0,1.0,plaster_cast_13s.jpg,0.0,Red.png,6.0,72,,,,,,,,,,,,,,,,,
0.0,1.0,0.689,0.0,33.0,33.0,33.0,1.0,diving_board_07s.jpg,0.0,Orange.png,6.0,72,,,,,,,,,,,,,,,,,
0.0,1.0,0.688,0.0,34.0,34.0,34.0,1.0,kayak_08s.jpg,0.0,Yellow.png,6.0,72,,,,,,,,,,,,,,,,,
1.0,1.0,1.626,0.0,35.0,35.0,35.0,1.0,diving_board_07s.jpg,1.0,Green.png,6.0,72,,,,,,,,,,,,,,,,,
,,,,,,,,,1.0,,,72,0.0,0.0,2.495,0.0,0.0,0.0,0.0,1.0,stapler_01b.jpg,coral_08s.jpg,,,,,,,
,,,,,,,,,1.0,,,72,0.0,0.0,2.308,0.0,1.0,1.0,1.0,1.0,slingshot_07s.jpg,crystal_ball_12s.jpg,,,,,,,
,,,,,,,,,0.0,,,72,1.0,0.0,2.696,0.0,2.0,2.0,2.0,1.0,saddle_06s.jpg,kettle_08s.jpg,,,,,,,
,,,,,,,,,1.0,,,72,1.0,1.0,1.332,0.0,3.0,3.0,3.0,1.0,pie_08s.jpg,undershirt_02s.jpg,,,,,,,
,,,,,,,,,1.0,,,72,0.0,0.0,1.612,0.0,4.0,4.0,4.0,1.0,stethoscope_01b.jpg,target_11s.jpg,,,,,,,
,,,,,,,,,1.0,,,72,1.0,1.0,2.076,0.0,5.0,5.0,5.0,1.0,ostrich_06s.jpg,ruby_15s.jpg,,,,,,,
,,,,,,,,,,,,72,,,,,,,,,,,0.0,0.0,0.0,0.0,1.0,newclockpresent_1_4.xlsx,newclock_compare_task_1_4.xlsx
0.0,1.0,1.142,0.0,0.0,0.0,0.0,1.0,jetski_10s.jpg,0.0,Blue.png,1.0,72,,,,,,,,,,,,,,,,,
0.0,1.0,0.741,0.0,1.0,1.0,1.0,1.0,tripod_01b.jpg,0.0,Purple.png,1.0,72,,,,,,,,,,,,,,,,,
0.0,1.0,0.692,0.0,2.0,2.0,2.0,1.0,lab_coat_11s.jpg,0.0,Red.png,1.0,72,,,,,,,,,,,,,,,,,
0.0,1.0,0.693,0.0,3.0,3.0,3.0,1.0,foam_03s.jpg,0.0,Orange.png,1.0,72,,,,,,,,,,,,,,,,,
0.0,1.0,0.753,0.0,4.0,4.0,4.0,1.0,crate_05s.jpg,0.0,Yellow.png,1.0,72,,,,,,,,,,,,,,,,,
0.0,1.0,0.709,0.0,5.0,5.0,5.0,1.0,margarita_03s.jpg,0.0,Green.png,1.0,72,,,,,,,,,,,,,,,,,
0.0,1.0,0.777,0.0,6.0,6.0,6.0,1.0,joystick_01b.jpg,0.0,Blue.png,2.0,72,,,,,,,,,,,,,,,,,
0.0,1.0,0.723,0.0,7.0,7.0,7.0,1.0,giraffe_11s.jpg,0.0,Purple.png,2.0,72,,,,,,,,,,,,,,,,,
0.0,1.0,0.604,0.0,8.0,8.0,8.0,1.0,quilt_03s.jpg,0.0,Red.png,2.0,72,,,,,,,,,,,,,,,,,
1.0,1.0,1.727,0.0,9.0,9.0,9.0,1.0,giraffe_11s.jpg,1.0,Orange.png,2.0,72,,,,,,,,,,,,,,,,,
0.0,1.0,1.043,0.0,10.0,10.0,10.0,1.0,pincushion_10s.jpg,0.0,Yellow.png,2.0,72,,,,,,,,,,,,,,,,,
1.0,1.0,1.556,0.0,11.0,11.0,11.0,1.0,giraffe_11s.jpg,1.0,Green.png,2.0,72,,,,,,,,,,,,,,,,,
1.0,0.0,1.654,0.0,12.0,12.0,12.0,1.0,pincushion_10s.jpg,0.0,Blue.png,3.0,72,,,,,,,,,,,,,,,,,
1.0,0.0,1.448,0.0,13.0,13.0,13.0,1.0,giraffe_11s.jpg,0.0,Purple.png,3.0,72,,,,,,,,,,,,,,,,,
0.0,1.0,0.793,0.0,14.0,14.0,14.0,1.0,rolling_pin_02s.jpg,0.0,Red.png,3.0,72,,,,,,,,,,,,,,,,,
0.0,1.0,0.718,0.0,15.0,15.0,15.0,1.0,ticktacktoe_08s.jpg,0.0,Orange.png,3.0,72,,,,,,,,,,,,,,,,,
1.0,1.0,1.484,0.0,16.0,16.0,16.0,1.0,giraffe_11s.jpg,1.0,Yellow.png,3.0,72,,,,,,,,,,,,,,,,,
1.0,1.0,1.605,0.0,17.0,17.0,17.0,1.0,ticktacktoe_08s.jpg,1.0,Green.png,3.0,72,,,,,,,,,,,,,,,,,
0.0,1.0,0.732,0.0,18.0,18.0,18.0,1.0,typewriter_11s.jpg,0.0,Blue.png,4.0,72,,,,,,,,,,,,,,,,,
0.0,1.0,0.733,0.0,19.0,19.0,19.0,1.0,toothpaste_12s.jpg,0.0,Purple.png,4.0,72,,,,,,,,,,,,,,,,,
0.0,1.0,0.731,0.0,20.0,20.0,20.0,1.0,hummingbird_05s.jpg,0.0,Red.png,4.0,72,,,,,,,,,,,,,,,,,
1.0,1.0,1.637,0.0,21.0,21.0,21.0,1.0,toothpaste_12s.jpg,1.0,Orange.png,4.0,72,,,,,,,,,,,,,,,,,
1.0,1.0,1.335,0.0,22.0,22.0,22.0,1.0,toothpaste_12s.jpg,1.0,Yellow.png,4.0,72,,,,,,,,,,,,,,,,,
0.0,1.0,0.753,0.0,23.0,23.0,23.0,1.0,treadmill_06s.jpg,0.0,Green.png,4.0,72,,,,,,,,,,,,,,,,,
0.0,1.0,1.222,0.0,24.0,24.0,24.0,1.0,typewriter_11s.jpg,0.0,Blue.png,5.0,72,,,,,,,,,,,,,,,,,
0.0,1.0,0.685,0.0,25.0,25.0,25.0,1.0,penguin_16s.jpg,0.0,Purple.png,5.0,72,,,,,,,,,,,,,,,,,
0.0,1.0,0.922,0.0,26.0,26.0,26.0,1.0,olive_05s.jpg,0.0,Red.png,5.0,72,,,,,,,,,,,,,,,,,
1.0,1.0,1.588,0.0,27.0,27.0,27.0,1.0,penguin_16s.jpg,1.0,Orange.png,5.0,72,,,,,,,,,,,,,,,,,
1.0,1.0,1.457,0.0,28.0,28.0,28.0,1.0,penguin_16s.jpg,1.0,Yellow.png,5.0,72,,,,,,,,,,,,,,,,,
0.0,1.0,0.71,0.0,29.0,29.0,29.0,1.0,tab_09s.jpg,0.0,Green.png,5.0,72,,,,,,,,,,,,,,,,,
0.0,1.0,0.671,0.0,30.0,30.0,30.0,1.0,frame_06s.jpg,0.0,Blue.png,6.0,72,,,,,,,,,,,,,,,,,
0.0,1.0,0.659,0.0,31.0,31.0,31.0,1.0,mop_08s.jpg,0.0,Purple.png,6.0,72,,,,,,,,,,,,,,,,,
0.0,1.0,0.683,0.0,32.0,32.0,32.0,1.0,memory_stick_11s.jpg,0.0,Red.png,6.0,72,,,,,,,,,,,,,,,,,
0.0,1.0,1.325,0.0,33.0,33.0,33.0,1.0,olive_05s.jpg,0.0,Orange.png,6.0,72,,,,,,,,,,,,,,,,,
0.0,1.0,0.8,0.0,34.0,34.0,34.0,1.0,ravioli_08s.jpg,0.0,Yellow.png,6.0,72,,,,,,,,,,,,,,,,,
0.0,1.0,1.448,0.0,35.0,35.0,35.0,1.0,mousetrap_15n.jpg,0.0,Green.png,6.0,72,,,,,,,,,,,,,,,,,
,,,,,,,,,1.0,,,72,1.0,1.0,2.145,0.0,0.0,0.0,0.0,1.0,hummingbird_05s.jpg,treadmill_06s.jpg,,,,,,,
,,,,,,,,,1.0,,,72,1.0,1.0,1.774,0.0,1.0,1.0,1.0,1.0,margarita_03s.jpg,quilt_03s.jpg,,,,,,,
,,,,,,,,,0.0,,,72,0.0,1.0,1.497,0.0,2.0,2.0,2.0,1.0,joystick_01b.jpg,foam_03s.jpg,,,,,,,
,,,,,,,,,0.0,,,72,1.0,0.0,1.684,0.0,3.0,3.0,3.0,1.0,ravioli_08s.jpg,mop_08s.jpg,,,,,,,
,,,,,,,,,1.0,,,72,1.0,1.0,2.023,0.0,4.0,4.0,4.0,1.0,tab_09s.jpg,memory_stick_11s.jpg,,,,,,,
,,,,,,,,,1.0,,,72,0.0,0.0,1.609,0.0,5.0,5.0,5.0,1.0,tripod_01b.jpg,crate_05s.jpg,,,,,,,
,,,,,,,,,,,,72,,,,,,,,,,,0.0,1.0,1.0,1.0,1.0,newclockpresent_2_4.xlsx,newclock_compare_task_2_4.xlsx
0.0,1.0,0.861,0.0,0.0,0.0,0.0,1.0,safety_pin_02s.jpg,0.0,Blue.png,1.0,72,,,,,,,,,,,,,,,,,
1.0,1.0,2.008,0.0,1.0,1.0,1.0,1.0,safety_pin_02s.jpg,1.0,Purple.png,1.0,72,,,,,,,,,,,,,,,,,
0.0,1.0,0.589,0.0,2.0,2.0,2.0,1.0,cardinal_07s.jpg,0.0,Red.png,1.0,72,,,,,,,,,,,,,,,,,
1.0,1.0,1.752,0.0,3.0,3.0,3.0,1.0,safety_pin_02s.jpg,1.0,Orange.png,1.0,72,,,,,,,,,,,,,,,,,
0.0,1.0,0.672,0.0,4.0,4.0,4.0,1.0,potholder_02s.jpg,0.0,Yellow.png,1.0,72,,,,,,,,,,,,,,,,,
1.0,1.0,1.919,0.0,5.0,5.0,5.0,1.0,safety_pin_02s.jpg,1.0,Green.png,1.0,72,,,,,,,,,,,,,,,,,
1.0,0.0,1.603,0.0,6.0,6.0,6.0,1.0,cardinal_07s.jpg,0.0,Blue.png,2.0,72,,,,,,,,,,,,,,,,,
0.0,1.0,1.072,0.0,7.0,7.0,7.0,1.0,lion_18s.jpg,0.0,Purple.png,2.0,72,,,,,,,,,,,,,,,,,
0.0,1.0,0.774,0.0,8.0,8.0,8.0,1.0,comic_book_02s.jpg,0.0,Red.png,2.0,72,,,,,,,,,,,,,,,,,
0.0,1.0,0.807,0.0,9.0,9.0,9.0,1.0,lizard_10n.jpg,0.0,Orange.png,2.0,72,,,,,,,,,,,,,,,,,
0.0,1.0,0.694,0.0,10.0,10.0,10.0,1.0,rice_12s.jpg,0.0,Yellow.png,2.0,72,,,,,,,,,,,,,,,,,
0.0,1.0,0.627,0.0,11.0,11.0,11.0,1.0,bagel_15s.jpg,0.0,Green.png,2.0,72,,,,,,,,,,,,,,,,,
0.0,1.0,0.572,0.0,12.0,12.0,12.0,1.0,recliner_02s.jpg,0.0,Blue.png,3.0,72,,,,,,,,,,,,,,,,,
1.0,1.0,1.79,0.0,13.0,13.0,13.0,1.0,recliner_02s.jpg,1.0,Purple.png,3.0,72,,,,,,,,,,,,,,,,,
0.0,1.0,0.785,0.0,14.0,14.0,14.0,1.0,luggage_08s.jpg,0.0,Red.png,3.0,72,,,,,,,,,,,,,,,,,
1.0,1.0,1.821,0.0,15.0,15.0,15.0,1.0,recliner_02s.jpg,1.0,Orange.png,3.0,72,,,,,,,,,,,,,,,,,
0.0,1.0,0.762,0.0,16.0,16.0,16.0,1.0,onion_10s.jpg,0.0,Yellow.png,3.0,72,,,,,,,,,,,,,,,,,
0.0,1.0,0.842,0.0,17.0,17.0,17.0,1.0,rosary_03s.jpg,0.0,Green.png,3.0,72,,,,,,,,,,,,,,,,,
0.0,1.0,0.623,0.0,18.0,18.0,18.0,1.0,smokingpipe.jpg,0.0,Blue.png,4.0,72,,,,,,,,,,,,,,,,,
0.0,1.0,2.087,0.0,19.0,19.0,19.0,1.0,roulette_wheel_04s.jpg,0.0,Purple.png,4.0,72,,,,,,,,,,,,,,,,,
1.0,1.0,1.69,0.0,20.0,20.0,20.0,1.0,smokingpipe.jpg,1.0,Red.png,4.0,72,,,,,,,,,,,,,,,,,
0.0,1.0,0.672,0.0,21.0,21.0,21.0,1.0,orchid_01b.jpg,0.0,Orange.png,4.0,72,,,,,,,,,,,,,,,,,
0.0,1.0,0.927,0.0,22.0,22.0,22.0,1.0,buoy_04s.jpg,0.0,Yellow.png,4.0,72,,,,,,,,,,,,,,,,,
0.0,1.0,0.978,0.0,23.0,23.0,23.0,1.0,stopwatch_04s.jpg,0.0,Green.png,4.0,72,,,,,,,,,,,,,,,,,
0.0,1.0,0.777,0.0,24.0,24.0,24.0,1.0,knitting_needle_04s.jpg,0.0,Blue.png,5.0,72,,,,,,,,,,,,,,,,,
0.0,1.0,0.756,0.0,25.0,25.0,25.0,1.0,prism_10s.jpg,0.0,Purple.png,5.0,72,,,,,,,,,,,,,,,,,
0.0,1.0,0.657,0.0,26.0,26.0,26.0,1.0,teapot_03s.jpg,0.0,Red.png,5.0,72,,,,,,,,,,,,,,,,,
0.0,1.0,0.608,0.0,27.0,27.0,27.0,1.0,fire_pit_10s.jpg,0.0,Orange.png,5.0,72,,,,,,,,,,,,,,,,,
1.0,1.0,1.693,0.0,28.0,28.0,28.0,1.0,fire_pit_10s.jpg,1.0,Yellow.png,5.0,72,,,,,,,,,,,,,,,,,
1.0,1.0,1.59,0.0,29.0,29.0,29.0,1.0,fire_pit_10s.jpg,1.0,Green.png,5.0,72,,,,,,,,,,,,,,,,,
0.0,1.0,0.821,0.0,30.0,30.0,30.0,1.0,ironing_board_07s.jpg,0.0,Blue.png,6.0,72,,,,,,,,,,,,,,,,,
1.0,0.0,1.662,0.0,31.0,31.0,31.0,1.0,fire_pit_10s.jpg,0.0,Purple.png,6.0,72,,,,,,,,,,,,,,,,,
0.0,1.0,0.933,0.0,32.0,32.0,32.0,1.0,mattress_01s.jpg,0.0,Red.png,6.0,72,,,,,,,,,,,,,,,,,
1.0,1.0,1.613,0.0,33.0,33.0,33.0,1.0,fire_pit_10s.jpg,1.0,Orange.png,6.0,72,,,,,,,,,,,,,,,,,
1.0,1.0,1.689,0.0,34.0,34.0,34.0,1.0,mattress_01s.jpg,1.0,Yellow.png,6.0,72,,,,,,,,,,,,,,,,,
0.0,1.0,0.841,0.0,35.0,35.0,35.0,1.0,ice-cream_cone_06s.jpg,0.0,Green.png,6.0,72,,,,,,,,,,,,,,,,,
,,,,,,,,,1.0,,,72,0.0,0.0,2.036,0.0,0.0,0.0,0.0,1.0,roulette_wheel_04s.jpg,buoy_04s.jpg,,,,,,,
,,,,,,,,,0.0,,,72,0.0,1.0,2.193,0.0,1.0,1.0,1.0,1.0,lion_18s.jpg,potholder_02s.jpg,,,,,,,
,,,,,,,,,0.0,,,72,1.0,0.0,1.796,0.0,2.0,2.0,2.0,1.0,bagel_15s.jpg,comic_book_02s.jpg,,,,,,,
,,,,,,,,,1.0,,,72,1.0,1.0,1.643,0.0,3.0,3.0,3.0,1.0,stopwatch_04s.jpg,teapot_03s.jpg,,,,,,,
,,,,,,,,,1.0,,,72,0.0,0.0,1.36,0.0,4.0,4.0,4.0,1.0,luggage_08s.jpg,rosary_03s.jpg,,,,,,,
,,,,,,,,,1.0,,,72,1.0,1.0,1.893,0.0,5.0,5.0,5.0,1.0,orchid_01b.jpg,knitting_needle_04s.jpg,,,,,,,
,,,,,,,,,,,,72,,,,,,,,,,,0.0,2.0,2.0,2.0,1.0,newclockpresent_3_4.xlsx,newclock_compare_task_3_4.xlsx
0.0,1.0,1.146,0.0,0.0,0.0,0.0,1.0,smoothie_09s.jpg,0.0,Blue.png,1.0,72,,,,,,,,,,,,,,,,,
0.0,1.0,0.737,0.0,1.0,1.0,1.0,1.0,raspberry_12s.jpg,0.0,Purple.png,1.0,72,,,,,,,,,,,,,,,,,
1.0,1.0,1.635,0.0,2.0,2.0,2.0,1.0,raspberry_12s.jpg,1.0,Red.png,1.0,72,,,,,,,,,,,,,,,,,
0.0,1.0,0.724,0.0,3.0,3.0,3.0,1.0,lamb_chop_07s.jpg,0.0,Orange.png,1.0,72,,,,,,,,,,,,,,,,,
1.0,1.0,1.522,0.0,4.0,4.0,4.0,1.0,smoothie_09s.jpg,1.0,Yellow.png,1.0,72,,,,,,,,,,,,,,,,,
1.0,1.0,1.54,0.0,5.0,5.0,5.0,1.0,raspberry_12s.jpg,1.0,Green.png,1.0,72,,,,,,,,,,,,,,,,,
0.0,1.0,0.968,0.0,6.0,6.0,6.0,1.0,lava_02s.jpg,0.0,Blue.png,2.0,72,,,,,,,,,,,,,,,,,
0.0,1.0,0.859,0.0,7.0,7.0,7.0,1.0,trident_07s.jpg,0.0,Purple.png,2.0,72,,,,,,,,,,,,,,,,,
1.0,1.0,1.687,0.0,8.0,8.0,8.0,1.0,trident_07s.jpg,1.0,Red.png,2.0,72,,,,,,,,,,,,,,,,,
1.0,1.0,1.522,0.0,9.0,9.0,9.0,1.0,trident_07s.jpg,1.0,Orange.png,2.0,72,,,,,,,,,,,,,,,,,
0.0,1.0,0.803,0.0,10.0,10.0,10.0,1.0,orangutan_03s.jpg,0.0,Yellow.png,2.0,72,,,,,,,,,,,,,,,,,
1.0,1.0,1.438,0.0,11.0,11.0,11.0,1.0,trident_07s.jpg,1.0,Green.png,2.0,72,,,,,,,,,,,,,,,,,
0.0,1.0,1.071,0.0,12.0,12.0,12.0,1.0,raspberry_12s.jpg,0.0,Blue.png,3.0,72,,,,,,,,,,,,,,,,,
1.0,0.0,1.554,0.0,13.0,13.0,13.0,1.0,trident_07s.jpg,0.0,Purple.png,3.0,72,,,,,,,,,,,,,,,,,
0.0,1.0,0.802,0.0,14.0,14.0,14.0,1.0,lavender_10s.jpg,0.0,Red.png,3.0,72,,,,,,,,,,,,,,,,,
0.0,1.0,0.855,0.0,15.0,15.0,15.0,1.0,chip_04s.jpg,0.0,Orange.png,3.0,72,,,,,,,,,,,,,,,,,
0.0,1.0,0.805,0.0,16.0,16.0,16.0,1.0,lamb_04s.jpg,0.0,Yellow.png,3.0,72,,,,,,,,,,,,,,,,,
0.0,1.0,0.821,0.0,17.0,17.0,17.0,1.0,emerald_02s.jpg,0.0,Green.png,3.0,72,,,,,,,,,,,,,,,,,
0.0,1.0,0.786,0.0,18.0,18.0,18.0,1.0,pineapple_12s.jpg,0.0,Blue.png,4.0,72,,,,,,,,,,,,,,,,,
0.0,1.0,0.955,0.0,19.0,19.0,19.0,1.0,sundae_08s.jpg,0.0,Purple.png,4.0,72,,,,,,,,,,,,,,,,,
1.0,1.0,1.755,0.0,20.0,20.0,20.0,1.0,sundae_08s.jpg,1.0,Red.png,4.0,72,,,,,,,,,,,,,,,,,
0.0,1.0,0.625,0.0,21.0,21.0,21.0,1.0,squirrel_02s.jpg,0.0,Orange.png,4.0,72,,,,,,,,,,,,,,,,,
0.0,1.0,0.723,0.0,22.0,22.0,22.0,1.0,roller_coaster_07s.jpg,0.0,Yellow.png,4.0,72,,,,,,,,,,,,,,,,,
0.0,0.0,1.041,0.0,23.0,23.0,23.0,1.0,sundae_08s.jpg,1.0,Green.png,4.0,72,,,,,,,,,,,,,,,,,
0.0,1.0,0.714,0.0,24.0,24.0,24.0,1.0,tweezers_03s.jpg,0.0,Blue.png,5.0,72,,,,,,,,,,,,,,,,,
0.0,1.0,1.473,0.0,25.0,25.0,25.0,1.0,sundae_08s.jpg,0.0,Purple.png,5.0,72,,,,,,,,,,,,,,,,,
0.0,1.0,0.837,0.0,26.0,26.0,26.0,1.0,rudder_02s.jpg,0.0,Red.png,5.0,72,,,,,,,,,,,,,,,,,
0.0,1.0,0.706,0.0,27.0,27.0,27.0,1.0,rake_06s.jpg,0.0,Orange.png,5.0,72,,,,,,,,,,,,,,,,,
1.0,1.0,1.642,0.0,28.0,28.0,28.0,1.0,rake_06s.jpg,1.0,Yellow.png,5.0,72,,,,,,,,,,,,,,,,,
1.0,1.0,1.604,0.0,29.0,29.0,29.0,1.0,rake_06s.jpg,1.0,Green.png,5.0,72,,,,,,,,,,,,,,,,,
0.0,1.0,0.667,0.0,30.0,30.0,30.0,1.0,cap_05s.jpg,0.0,Blue.png,6.0,72,,,,,,,,,,,,,,,,,
0.0,1.0,0.741,0.0,31.0,31.0,31.0,1.0,paper_towel_03s.jpg,0.0,Purple.png,6.0,72,,,,,,,,,,,,,,,,,
0.0,1.0,0.658,0.0,32.0,32.0,32.0,1.0,toaster_03s.jpg,0.0,Red.png,6.0,72,,,,,,,,,,,,,,,,,
0.0,1.0,0.652,0.0,33.0,33.0,33.0,1.0,money_07s.jpg,0.0,Orange.png,6.0,72,,,,,,,,,,,,,,,,,
0.0,1.0,0.722,0.0,34.0,34.0,34.0,1.0,pinwheel_06s.jpg,0.0,Yellow.png,6.0,72,,,,,,,,,,,,,,,,,
0.0,1.0,0.838,0.0,35.0,35.0,35.0,1.0,lid_10s.jpg,0.0,Green.png,6.0,72,,,,,,,,,,,,,,,,,
,,,,,,,,,0.0,,,72,1.0,0.0,1.704,0.0,0.0,0.0,0.0,1.0,tweezers_03s.jpg,squirrel_02s.jpg,,,,,,,
,,,,,,,,,1.0,,,72,1.0,1.0,1.544,0.0,1.0,1.0,1.0,1.0,chip_04s.jpg,pineapple_12s.jpg,,,,,,,
,,,,,,,,,1.0,,,72,1.0,1.0,1.011,0.0,2.0,2.0,2.0,1.0,lamb_chop_07s.jpg,lava_02s.jpg,,,,,,,
,,,,,,,,,0.0,,,72,1.0,0.0,1.544,0.0,3.0,3.0,3.0,1.0,pinwheel_06s.jpg,paper_towel_03s.jpg,,,,,,,
,,,,,,,,,0.0,,,72,1.0,0.0,1.559,0.0,4.0,4.0,4.0,1.0,emerald_02s.jpg,lavender_10s.jpg,,,,,,,
,,,,,,,,,0.0,,,72,0.0,1.0,1.694,0.0,5.0,5.0,5.0,1.0,money_07s.jpg,cap_05s.jpg,,,,,,,
,,,,,,,,,,,,72,,,,,,,,,,,0.0,3.0,3.0,3.0,1.0,newclockpresent_4_4.xlsx,newclock_compare_task_4_4.xlsx
0.0,1.0,0.868,0.0,0.0,0.0,0.0,1.0,fur_coat_11s.jpg,0.0,Blue.png,1.0,72,,,,,,,,,,,,,,,,,
0.0,1.0,0.758,0.0,1.0,1.0,1.0,1.0,crayon_09s.jpg,0.0,Purple.png,1.0,72,,,,,,,,,,,,,,,,,
0.0,1.0,1.032,0.0,2.0,2.0,2.0,1.0,cobra_05s.jpg,0.0,Red.png,1.0,72,,,,,,,,,,,,,,,,,
0.0,1.0,0.774,0.0,3.0,3.0,3.0,1.0,raccoon_02s.jpg,0.0,Orange.png,1.0,72,,,,,,,,,,,,,,,,,
0.0,1.0,0.608,0.0,4.0,4.0,4.0,1.0,soda_fountain_03s.jpg,0.0,Yellow.png,1.0,72,,,,,,,,,,,,,,,,,
1.0,1.0,1.879,0.0,5.0,5.0,5.0,1.0,raccoon_02s.jpg,1.0,Green.png,1.0,72,,,,,,,,,,,,,,,,,
0.0,1.0,0.656,0.0,6.0,6.0,6.0,1.0,feather02.jpg,0.0,Blue.png,2.0,72,,,,,,,,,,,,,,,,,
1.0,0.0,1.522,0.0,7.0,7.0,7.0,1.0,raccoon_02s.jpg,0.0,Purple.png,2.0,72,,,,,,,,,,,,,,,,,
0.0,0.0,1.657,0.0,8.0,8.0,8.0,1.0,feather02.jpg,1.0,Red.png,2.0,72,,,,,,,,,,,,,,,,,
0.0,1.0,0.757,0.0,9.0,9.0,9.0,1.0,rug_09s.jpg,0.0,Orange.png,2.0,72,,,,,,,,,,,,,,,,,
1.0,1.0,1.765,0.0,10.0,10.0,10.0,1.0,feather02.jpg,1.0,Yellow.png,2.0,72,,,,,,,,,,,,,,,,,
0.0,1.0,0.692,0.0,11.0,11.0,11.0,1.0,cushion_08s.jpg,0.0,Green.png,2.0,72,,,,,,,,,,,,,,,,,
1.0,0.0,1.885,0.0,12.0,12.0,12.0,1.0,feather02.jpg,0.0,Blue.png,3.0,72,,,,,,,,,,,,,,,,,
1.0,1.0,1.855,0.0,13.0,13.0,13.0,1.0,feather02.jpg,1.0,Purple.png,3.0,72,,,,,,,,,,,,,,,,,
0.0,1.0,0.583,0.0,14.0,14.0,14.0,1.0,ice_pack_09s.jpg,0.0,Red.png,3.0,72,,,,,,,,,,,,,,,,,
1.0,1.0,1.968,0.0,15.0,15.0,15.0,1.0,ice_pack_09s.jpg,1.0,Orange.png,3.0,72,,,,,,,,,,,,,,,,,
0.0,1.0,0.841,0.0,16.0,16.0,16.0,1.0,loom_05s.jpg,0.0,Yellow.png,3.0,72,,,,,,,,,,,,,,,,,
1.0,1.0,1.865,0.0,17.0,17.0,17.0,1.0,ice_pack_09s.jpg,1.0,Green.png,3.0,72,,,,,,,,,,,,,,,,,
1.0,0.0,2.068,0.0,18.0,18.0,18.0,1.0,ice_pack_09s.jpg,0.0,Blue.png,4.0,72,,,,,,,,,,,,,,,,,
1.0,1.0,1.566,0.0,19.0,19.0,19.0,1.0,ice_pack_09s.jpg,1.0,Purple.png,4.0,72,,,,,,,,,,,,,,,,,
1.0,1.0,1.527,0.0,20.0,20.0,20.0,1.0,ice_pack_09s.jpg,1.0,Red.png,4.0,72,,,,,,,,,,,,,,,,,
0.0,1.0,0.788,0.0,21.0,21.0,21.0,1.0,blazer_02s.jpg,0.0,Orange.png,4.0,72,,,,,,,,,,,,,,,,,
0.0,1.0,0.72,0.0,22.0,22.0,22.0,1.0,penlight_12s.jpg,0.0,Yellow.png,4.0,72,,,,,,,,,,,,,,,,,
0.0,1.0,0.688,0.0,23.0,23.0,23.0,1.0,swan_11s.jpg,0.0,Green.png,4.0,72,,,,,,,,,,,,,,,,,
0.0,1.0,0.755,0.0,24.0,24.0,24.0,1.0,plunger_08s.jpg,0.0,Blue.png,5.0,72,,,,,,,,,,,,,,,,,
0.0,1.0,0.833,0.0,25.0,25.0,25.0,1.0,bottle_opener_11s.jpg,0.0,Purple.png,5.0,72,,,,,,,,,,,,,,,,,
0.0,1.0,0.958,0.0,26.0,26.0,26.0,1.0,checkbook_11s.jpg,0.0,Red.png,5.0,72,,,,,,,,,,,,,,,,,
0.0,1.0,0.639,0.0,27.0,27.0,27.0,1.0,ink_08s.jpg,0.0,Orange.png,5.0,72,,,,,,,,,,,,,,,,,
0.0,0.0,1.303,0.0,28.0,28.0,28.0,1.0,plunger_08s.jpg,1.0,Yellow.png,5.0,72,,,,,,,,,,,,,,,,,
0.0,1.0,0.603,0.0,29.0,29.0,29.0,1.0,pencil02a.jpg,0.0,Green.png,5.0,72,,,,,,,,,,,,,,,,,
0.0,1.0,0.911,0.0,30.0,30.0,30.0,1.0,ginger_09s.jpg,0.0,Blue.png,6.0,72,,,,,,,,,,,,,,,,,
0.0,1.0,0.642,0.0,31.0,31.0,31.0,1.0,taxi_15s.jpg,0.0,Purple.png,6.0,72,,,,,,,,,,,,,,,,,
0.0,1.0,0.752,0.0,32.0,32.0,32.0,1.0,toy_04s.jpg,0.0,Red.png,6.0,72,,,,,,,,,,,,,,,,,
0.0,1.0,0.67,0.0,33.0,33.0,33.0,1.0,blowfish_03s.jpg,0.0,Orange.png,6.0,72,,,,,,,,,,,,,,,,,
0.0,1.0,0.69,0.0,34.0,34.0,34.0,1.0,toilet_paper_12s.jpg,0.0,Yellow.png,6.0,72,,,,,,,,,,,,,,,,,
0.0,1.0,0.937,0.0,35.0,35.0,35.0,1.0,puddle_02s.jpg,0.0,Green.png,6.0,72,,,,,,,,,,,,,,,,,
,,,,,,,,,1.0,,,72,1.0,1.0,2.293,0.0,0.0,0.0,0.0,1.0,ink_08s.jpg,ginger_09s.jpg,,,,,,,
,,,,,,,,,0.0,,,72,0.0,1.0,4.174,0.0,1.0,1.0,1.0,1.0,puddle_02s.jpg,toy_04s.jpg,,,,,,,
,,,,,,,,,0.0,,,72,0.0,1.0,3.508,0.0,2.0,2.0,2.0,1.0,bottle_opener_11s.jpg,penlight_12s.jpg,,,,,,,
,,,,,,,,,0.0,,,72,1.0,0.0,4.308,0.0,3.0,3.0,3.0,1.0,checkbook_11s.jpg,swan_11s.jpg,,,,,,,
,,,,,,,,,1.0,,,72,1.0,1.0,3.193,0.0,4.0,4.0,4.0,1.0,taxi_15s.jpg,toilet_paper_12s.jpg,,,,,,,
,,,,,,,,,1.0,,,72,1.0,1.0,4.441,0.0,5.0,5.0,5.0,1.0,crayon_09s.jpg,soda_fountain_03s.jpg,,,,,,,
,,,,,,,,,,,,72,,,,,,,,,,,0.0,4.0,4.0,4.0,1.0,newclockpresent_5_4.xlsx,newclock_compare_task_5_4.xlsx
,0.0,,0.0,0.0,0.0,0.0,1.0,flask_04s.jpg,0.0,Blue.png,1.0,72,,,,,,,,,,,,,,,,,
0.0,1.0,0.693,0.0,1.0,1.0,1.0,1.0,kimono_13s.jpg,0.0,Purple.png,1.0,72,,,,,,,,,,,,,,,,,
0.0,1.0,0.636,0.0,2.0,2.0,2.0,1.0,limousine_12s.jpg,0.0,Red.png,1.0,72,,,,,,,,,,,,,,,,,
0.0,1.0,0.599,0.0,3.0,3.0,3.0,1.0,lectern_08s.jpg,0.0,Orange.png,1.0,72,,,,,,,,,,,,,,,,,
1.0,1.0,2.086,0.0,4.0,4.0,4.0,1.0,kimono_13s.jpg,1.0,Yellow.png,1.0,72,,,,,,,,,,,,,,,,,
0.0,1.0,0.685,0.0,5.0,5.0,5.0,1.0,doily_13s.jpg,0.0,Green.png,1.0,72,,,,,,,,,,,,,,,,,
1.0,0.0,1.774,0.0,6.0,6.0,6.0,1.0,kimono_13s.jpg,0.0,Blue.png,2.0,72,,,,,,,,,,,,,,,,,
0.0,1.0,0.72,0.0,7.0,7.0,7.0,1.0,razor_blade_01b.jpg,0.0,Purple.png,2.0,72,,,,,,,,,,,,,,,,,
1.0,1.0,1.571,0.0,8.0,8.0,8.0,1.0,razor_blade_01b.jpg,1.0,Red.png,2.0,72,,,,,,,,,,,,,,,,,
0.0,1.0,1.003,0.0,9.0,9.0,9.0,1.0,champagne_18s.jpg,0.0,Orange.png,2.0,72,,,,,,,,,,,,,,,,,
0.0,1.0,0.761,0.0,10.0,10.0,10.0,1.0,stamp1_11s.jpg,0.0,Yellow.png,2.0,72,,,,,,,,,,,,,,,,,
1.0,1.0,1.773,0.0,11.0,11.0,11.0,1.0,champagne_18s.jpg,1.0,Green.png,2.0,72,,,,,,,,,,,,,,,,,
0.0,1.0,0.62,0.0,12.0,12.0,12.0,1.0,crossbow_10s.jpg,0.0,Blue.png,3.0,72,,,,,,,,,,,,,,,,,
0.0,1.0,0.761,0.0,13.0,13.0,13.0,1.0,briefcase_03s.jpg,0.0,Purple.png,3.0,72,,,,,,,,,,,,,,,,,
0.0,1.0,0.566,0.0,14.0,14.0,14.0,1.0,jersey_02s.jpg,0.0,Red.png,3.0,72,,,,,,,,,,,,,,,,,
1.0,1.0,1.455,0.0,15.0,15.0,15.0,1.0,briefcase_03s.jpg,1.0,Orange.png,3.0,72,,,,,,,,,,,,,,,,,
0.0,1.0,0.612,0.0,16.0,16.0,16.0,1.0,oil_02s.jpg,0.0,Yellow.png,3.0,72,,,,,,,,,,,,,,,,,
0.0,1.0,0.697,0.0,17.0,17.0,17.0,1.0,tinsel_12s.jpg,0.0,Green.png,3.0,72,,,,,,,,,,,,,,,,,
0.0,1.0,1.045,0.0,18.0,18.0,18.0,1.0,flask_04s.jpg,0.0,Blue.png,4.0,72,,,,,,,,,,,,,,,,,
0.0,1.0,0.674,0.0,19.0,19.0,19.0,1.0,fork_04s.jpg,0.0,Purple.png,4.0,72,,,,,,,,,,,,,,,,,
0.0,1.0,0.826,0.0,20.0,20.0,20.0,1.0,purse_05s.jpg,0.0,Red.png,4.0,72,,,,,,,,,,,,,,,,,
0.0,0.0,1.476,0.0,21.0,21.0,21.0,1.0,flask_04s.jpg,1.0,Orange.png,4.0,72,,,,,,,,,,,,,,,,,
0.0,1.0,0.71,0.0,22.0,22.0,22.0,1.0,sledgehammer_03s.jpg,0.0,Yellow.png,4.0,72,,,,,,,,,,,,,,,,,
0.0,1.0,0.848,0.0,23.0,23.0,23.0,1.0,turf_03s.jpg,0.0,Green.png,4.0,72,,,,,,,,,,,,,,,,,
0.0,1.0,0.722,0.0,24.0,24.0,24.0,1.0,omelet_07s.jpg,0.0,Blue.png,5.0,72,,,,,,,,,,,,,,,,,
1.0,0.0,1.675,0.0,25.0,25.0,25.0,1.0,turf_03s.jpg,0.0,Purple.png,5.0,72,,,,,,,,,,,,,,,,,
0.0,1.0,1.102,0.0,26.0,26.0,26.0,1.0,clover_04s.jpg,0.0,Red.png,5.0,72,,,,,,,,,,,,,,,,,
0.0,1.0,0.847,0.0,27.0,27.0,27.0,1.0,lip_gloss_06s.jpg,0.0,Orange.png,5.0,72,,,,,,,,,,,,,,,,,
0.0,1.0,0.806,0.0,28.0,28.0,28.0,1.0,amber_04s.jpg,0.0,Yellow.png,5.0,72,,,,,,,,,,,,,,,,,
0.0,1.0,0.879,0.0,29.0,29.0,29.0,1.0,tortilla_06s.jpg,0.0,Green.png,5.0,72,,,,,,,,,,,,,,,,,
0.0,1.0,0.979,0.0,30.0,30.0,30.0,1.0,razor_blade_01b.jpg,0.0,Blue.png,6.0,72,,,,,,,,,,,,,,,,,
0.0,1.0,0.661,0.0,31.0,31.0,31.0,1.0,tape_measure_11s.jpg,0.0,Purple.png,6.0,72,,,,,,,,,,,,,,,,,
1.0,1.0,2.056,0.0,32.0,32.0,32.0,1.0,razor_blade_01b.jpg,1.0,Red.png,6.0,72,,,,,,,,,,,,,,,,,
1.0,1.0,1.53,0.0,33.0,33.0,33.0,1.0,razor_blade_01b.jpg,1.0,Orange.png,6.0,72,,,,,,,,,,,,,,,,,
0.0,1.0,1.062,0.0,34.0,34.0,34.0,1.0,stingray_02s.jpg,0.0,Yellow.png,6.0,72,,,,,,,,,,,,,,,,,
0.0,1.0,0.85,0.0,35.0,35.0,35.0,1.0,harpoon.jpg,0.0,Green.png,6.0,72,,,,,,,,,,,,,,,,,
,,,,,,,,,1.0,,,72,1.0,1.0,2.814,0.0,0.0,0.0,0.0,1.0,oil_02s.jpg,fork_04s.jpg,,,,,,,
,,,,,,,,,0.0,,,72,0.0,1.0,1.59,0.0,1.0,1.0,1.0,1.0,doily_13s.jpg,limousine_12s.jpg,,,,,,,
,,,,,,,,,0.0,,,72,1.0,0.0,2.631,0.0,2.0,2.0,2.0,1.0,lip_gloss_06s.jpg,omelet_07s.jpg,,,,,,,
,,,,,,,,,0.0,,,72,0.0,1.0,1.699,0.0,3.0,3.0,3.0,1.0,tape_measure_11s.jpg,amber_04s.jpg,,,,,,,
,,,,,,,,,0.0,,,72,0.0,1.0,1.396,0.0,4.0,4.0,4.0,1.0,tortilla_06s.jpg,clover_04s.jpg,,,,,,,
,,,,,,,,,0.0,,,72,1.0,0.0,2.227,0.0,5.0,5.0,5.0,1.0,purse_05s.jpg,tinsel_12s.jpg,,,,,,,
,,,,,,,,,,,,72,,,,,,,,,,,0.0,5.0,5.0,5.0,1.0,newclockpresent_6_4.xlsx,newclock_compare_task_6_4.xlsx
0.0,1.0,0.879,0.0,0.0,0.0,0.0,1.0,butter_14s.jpg,0.0,Blue.png,1.0,72,,,,,,,,,,,,,,,,,
1.0,1.0,1.703,0.0,1.0,1.0,1.0,1.0,butter_14s.jpg,1.0,Purple.png,1.0,72,,,,,,,,,,,,,,,,,
1.0,1.0,1.683,0.0,2.0,2.0,2.0,1.0,butter_14s.jpg,1.0,Red.png,1.0,72,,,,,,,,,,,,,,,,,
0.0,1.0,0.618,0.0,3.0,3.0,3.0,1.0,stamp2_08s.jpg,0.0,Orange.png,1.0,72,,,,,,,,,,,,,,,,,
0.0,1.0,0.651,0.0,4.0,4.0,4.0,1.0,kangaroo_02s.jpg,0.0,Yellow.png,1.0,72,,,,,,,,,,,,,,,,,
0.0,1.0,0.604,0.0,5.0,5.0,5.0,1.0,camcorder_10s.jpg,0.0,Green.png,1.0,72,,,,,,,,,,,,,,,,,
0.0,1.0,0.676,0.0,6.0,6.0,6.0,1.0,bank_06s.jpg,0.0,Blue.png,2.0,72,,,,,,,,,,,,,,,,,
0.0,1.0,0.756,0.0,7.0,7.0,7.0,1.0,gear_07s.jpg,0.0,Purple.png,2.0,72,,,,,,,,,,,,,,,,,
1.0,1.0,1.877,0.0,8.0,8.0,8.0,1.0,bank_06s.jpg,1.0,Red.png,2.0,72,,,,,,,,,,,,,,,,,
0.0,1.0,0.882,0.0,9.0,9.0,9.0,1.0,funnel_01b.jpg,0.0,Orange.png,2.0,72,,,,,,,,,,,,,,,,,
0.0,1.0,0.656,0.0,10.0,10.0,10.0,1.0,poinsettia_04s.jpg,0.0,Yellow.png,2.0,72,,,,,,,,,,,,,,,,,
1.0,1.0,1.873,0.0,11.0,11.0,11.0,1.0,funnel_01b.jpg,1.0,Green.png,2.0,72,,,,,,,,,,,,,,,,,
0.0,1.0,0.701,0.0,12.0,12.0,12.0,1.0,rooster_03s.jpg,0.0,Blue.png,3.0,72,,,,,,,,,,,,,,,,,
0.0,1.0,0.719,0.0,13.0,13.0,13.0,1.0,denture_03s.jpg,0.0,Purple.png,3.0,72,,,,,,,,,,,,,,,,,
0.0,1.0,0.717,0.0,14.0,14.0,14.0,1.0,bean_06s.jpg,0.0,Red.png,3.0,72,,,,,,,,,,,,,,,,,
0.0,1.0,0.69,0.0,15.0,15.0,15.0,1.0,mud_13s.jpg,0.0,Orange.png,3.0,72,,,,,,,,,,,,,,,,,
0.0,1.0,0.907,0.0,16.0,16.0,16.0,1.0,keyhole_03s.jpg,0.0,Yellow.png,3.0,72,,,,,,,,,,,,,,,,,
1.0,1.0,1.985,0.0,17.0,17.0,17.0,1.0,bean_06s.jpg,1.0,Green.png,3.0,72,,,,,,,,,,,,,,,,,
0.0,1.0,1.083,0.0,18.0,18.0,18.0,1.0,bank_06s.jpg,0.0,Blue.png,4.0,72,,,,,,,,,,,,,,,,,
0.0,1.0,0.725,0.0,19.0,19.0,19.0,1.0,pomegranate_04s.jpg,0.0,Purple.png,4.0,72,,,,,,,,,,,,,,,,,
0.0,1.0,0.704,0.0,20.0,20.0,20.0,1.0,chopsticks_08s.jpg,0.0,Red.png,4.0,72,,,,,,,,,,,,,,,,,
0.0,1.0,0.793,0.0,21.0,21.0,21.0,1.0,contact_lens_15s.jpg,0.0,Orange.png,4.0,72,,,,,,,,,,,,,,,,,
0.0,1.0,0.685,0.0,22.0,22.0,22.0,1.0,hydrant_10s.jpg,0.0,Yellow.png,4.0,72,,,,,,,,,,,,,,,,,
0.0,1.0,0.638,0.0,23.0,23.0,23.0,1.0,gingerbread_man_03s.jpg,0.0,Green.png,4.0,72,,,,,,,,,,,,,,,,,
0.0,1.0,0.886,0.0,24.0,24.0,24.0,1.0,camcorder_10s.jpg,0.0,Blue.png,5.0,72,,,,,,,,,,,,,,,,,
0.0,1.0,0.654,0.0,25.0,25.0,25.0,1.0,teabag_12s.jpg,0.0,Purple.png,5.0,72,,,,,,,,,,,,,,,,,
0.0,1.0,0.762,0.0,26.0,26.0,26.0,1.0,radiator_05s.jpg,0.0,Red.png,5.0,72,,,,,,,,,,,,,,,,,
0.0,1.0,0.907,0.0,27.0,27.0,27.0,1.0,punch1_10s.jpg,0.0,Orange.png,5.0,72,,,,,,,,,,,,,,,,,
0.0,1.0,0.686,0.0,28.0,28.0,28.0,1.0,mailbox_11s.jpg,0.0,Yellow.png,5.0,72,,,,,,,,,,,,,,,,,
0.0,1.0,1.242,0.0,29.0,29.0,29.0,1.0,beaker_01b.jpg,0.0,Green.png,5.0,72,,,,,,,,,,,,,,,,,
1.0,0.0,2.338,0.0,30.0,30.0,30.0,1.0,mailbox_11s.jpg,0.0,Blue.png,6.0,72,,,,,,,,,,,,,,,,,
0.0,1.0,0.791,0.0,31.0,31.0,31.0,1.0,pipe1_10s.jpg,0.0,Purple.png,6.0,72,,,,,,,,,,,,,,,,,
1.0,1.0,1.588,0.0,32.0,32.0,32.0,1.0,mailbox_11s.jpg,1.0,Red.png,6.0,72,,,,,,,,,,,,,,,,,
1.0,1.0,1.792,0.0,33.0,33.0,33.0,1.0,pipe1_10s.jpg,1.0,Orange.png,6.0,72,,,,,,,,,,,,,,,,,
0.0,1.0,0.744,0.0,34.0,34.0,34.0,1.0,eyedropper_12s.jpg,0.0,Yellow.png,6.0,72,,,,,,,,,,,,,,,,,
0.0,1.0,0.623,0.0,35.0,35.0,35.0,1.0,rhubarb_03s.jpg,0.0,Green.png,6.0,72,,,,,,,,,,,,,,,,,
,,,,,,,,,0.0,,,72,1.0,0.0,3.7,0.0,0.0,0.0,0.0,1.0,mud_13s.jpg,rooster_03s.jpg,,,,,,,
,,,,,,,,,1.0,,,72,1.0,1.0,3.011,0.0,1.0,1.0,1.0,1.0,chopsticks_08s.jpg,gingerbread_man_03s.jpg,,,,,,,
,,,,,,,,,0.0,,,72,0.0,1.0,2.126,0.0,2.0,2.0,2.0,1.0,beaker_01b.jpg,radiator_05s.jpg,,,,,,,
,,,,,,,,,0.0,,,72,0.0,1.0,2.208,0.0,3.0,3.0,3.0,1.0,teabag_12s.jpg,hydrant_10s.jpg,,,,,,,
,,,,,,,,,0.0,,,72,1.0,0.0,2.193,0.0,4.0,4.0,4.0,1.0,denture_03s.jpg,poinsettia_04s.jpg,,,,,,,
,,,,,,,,,1.0,,,72,1.0,1.0,1.127,0.0,5.0,5.0,5.0,1.0,kangaroo_02s.jpg,gear_07s.jpg,,,,,,,
,,,,,,,,,,,,72,,,,,,,,,,,0.0,6.0,6.0,6.0,1.0,newclockpresent_7_4.xlsx,newclock_compare_task_7_4.xlsx
0.0,1.0,1.714,0.0,0.0,0.0,0.0,1.0,lamppost_09s.jpg,0.0,Blue.png,1.0,72,,,,,,,,,,,,,,,,,
0.0,1.0,0.607,0.0,1.0,1.0,1.0,1.0,jewel_01b.jpg,0.0,Purple.png,1.0,72,,,,,,,,,,,,,,,,,
0.0,1.0,0.559,0.0,2.0,2.0,2.0,1.0,tuxedo_01b.jpg,0.0,Red.png,1.0,72,,,,,,,,,,,,,,,,,
0.0,1.0,0.512,0.0,3.0,3.0,3.0,1.0,flip_flop_03s.jpg,0.0,Orange.png,1.0,72,,,,,,,,,,,,,,,,,
0.0,1.0,0.613,0.0,4.0,4.0,4.0,1.0,medal_04s.jpg,0.0,Yellow.png,1.0,72,,,,,,,,,,,,,,,,,
1.0,1.0,1.642,0.0,5.0,5.0,5.0,1.0,flip_flop_03s.jpg,1.0,Green.png,1.0,72,,,,,,,,,,,,,,,,,
1.0,0.0,1.458,0.0,6.0,6.0,6.0,1.0,tuxedo_01b.jpg,0.0,Blue.png,2.0,72,,,,,,,,,,,,,,,,,
1.0,0.0,1.756,0.0,7.0,7.0,7.0,1.0,flip_flop_03s.jpg,0.0,Purple.png,2.0,72,,,,,,,,,,,,,,,,,
0.0,1.0,0.663,0.0,8.0,8.0,8.0,1.0,fireworks_18s.jpg,0.0,Red.png,2.0,72,,,,,,,,,,,,,,,,,
0.0,1.0,0.61,0.0,9.0,9.0,9.0,1.0,squirt_gun_03s.jpg,0.0,Orange.png,2.0,72,,,,,,,,,,,,,,,,,
1.0,1.0,1.55,0.0,10.0,10.0,10.0,1.0,flip_flop_03s.jpg,1.0,Yellow.png,2.0,72,,,,,,,,,,,,,,,,,
0.0,1.0,0.659,0.0,11.0,11.0,11.0,1.0,puffin_19s.jpg,0.0,Green.png,2.0,72,,,,,,,,,,,,,,,,,
0.0,1.0,1.64,0.0,12.0,12.0,12.0,1.0,tuxedo_01b.jpg,0.0,Blue.png,3.0,72,,,,,,,,,,,,,,,,,
1.0,1.0,1.304,0.0,13.0,13.0,13.0,1.0,tuxedo_01b.jpg,1.0,Purple.png,3.0,72,,,,,,,,,,,,,,,,,
0.0,1.0,0.721,0.0,14.0,14.0,14.0,1.0,snowman_02s.jpg,0.0,Red.png,3.0,72,,,,,,,,,,,,,,,,,
0.0,1.0,0.571,0.0,15.0,15.0,15.0,1.0,cucumber_07s.jpg,0.0,Orange.png,3.0,72,,,,,,,,,,,,,,,,,
0.0,1.0,0.645,0.0,16.0,16.0,16.0,1.0,plug_08s.jpg,0.0,Yellow.png,3.0,72,,,,,,,,,,,,,,,,,
0.0,0.0,1.404,0.0,17.0,17.0,17.0,1.0,cucumber_07s.jpg,1.0,Green.png,3.0,72,,,,,,,,,,,,,,,,,
1.0,0.0,1.821,0.0,18.0,18.0,18.0,1.0,puffin_19s.jpg,0.0,Blue.png,4.0,72,,,,,,,,,,,,,,,,,
0.0,1.0,0.688,0.0,19.0,19.0,19.0,1.0,fondue_07s.jpg,0.0,Purple.png,4.0,72,,,,,,,,,,,,,,,,,
0.0,1.0,0.787,0.0,20.0,20.0,20.0,1.0,lasagna_06s.jpg,0.0,Red.png,4.0,72,,,,,,,,,,,,,,,,,
0.0,1.0,0.59,0.0,21.0,21.0,21.0,1.0,eiffeltower.jpg,0.0,Orange.png,4.0,72,,,,,,,,,,,,,,,,,
0.0,1.0,0.546,0.0,22.0,22.0,22.0,1.0,outlet_10s.jpg,0.0,Yellow.png,4.0,72,,,,,,,,,,,,,,,,,
0.0,1.0,0.552,0.0,23.0,23.0,23.0,1.0,cape_11s.jpg,0.0,Green.png,4.0,72,,,,,,,,,,,,,,,,,
0.0,1.0,0.588,0.0,24.0,24.0,24.0,1.0,marshmallow_08s.jpg,0.0,Blue.png,5.0,72,,,,,,,,,,,,,,,,,
0.0,1.0,0.573,0.0,25.0,25.0,25.0,1.0,racehorse_03s.jpg,0.0,Purple.png,5.0,72,,,,,,,,,,,,,,,,,
0.0,1.0,0.492,0.0,26.0,26.0,26.0,1.0,aluminum_foil_08s.jpg,0.0,Red.png,5.0,72,,,,,,,,,,,,,,,,,
0.0,1.0,0.563,0.0,27.0,27.0,27.0,1.0,spoon02a.jpg,0.0,Orange.png,5.0,72,,,,,,,,,,,,,,,,,
0.0,1.0,0.574,0.0,28.0,28.0,28.0,1.0,padlock_07s.jpg,0.0,Yellow.png,5.0,72,,,,,,,,,,,,,,,,,
0.0,1.0,0.592,0.0,29.0,29.0,29.0,1.0,solar_panel_02s.jpg,0.0,Green.png,5.0,72,,,,,,,,,,,,,,,,,
0.0,1.0,0.485,0.0,30.0,30.0,30.0,1.0,turtleneck_11s.jpg,0.0,Blue.png,6.0,72,,,,,,,,,,,,,,,,,
0.0,1.0,0.5,0.0,31.0,31.0,31.0,1.0,pocketknife_12s.jpg,0.0,Purple.png,6.0,72,,,,,,,,,,,,,,,,,
1.0,1.0,1.754,0.0,32.0,32.0,32.0,1.0,pocketknife_12s.jpg,1.0,Red.png,6.0,72,,,,,,,,,,,,,,,,,
0.0,1.0,0.692,0.0,33.0,33.0,33.0,1.0,quill_09s.jpg,0.0,Orange.png,6.0,72,,,,,,,,,,,,,,,,,
1.0,1.0,1.539,0.0,34.0,34.0,34.0,1.0,quill_09s.jpg,1.0,Yellow.png,6.0,72,,,,,,,,,,,,,,,,,
1.0,1.0,1.795,0.0,35.0,35.0,35.0,1.0,pocketknife_12s.jpg,1.0,Green.png,6.0,72,,,,,,,,,,,,,,,,,
,,,,,,,,,0.0,,,72,0.0,1.0,2.563,0.0,0.0,0.0,0.0,1.0,cape_11s.jpg,lasagna_06s.jpg,,,,,,,
,,,,,,,,,0.0,,,72,0.0,1.0,1.897,0.0,1.0,1.0,1.0,1.0,padlock_07s.jpg,racehorse_03s.jpg,,,,,,,
,,,,,,,,,1.0,,,72,0.0,0.0,1.613,0.0,2.0,2.0,2.0,1.0,spoon02a.jpg,turtleneck_11s.jpg,,,,,,,
,,,,,,,,,0.0,,,72,1.0,0.0,1.392,0.0,3.0,3.0,3.0,1.0,marshmallow_08s.jpg,eiffeltower.jpg,,,,,,,
,,,,,,,,,0.0,,,72,0.0,1.0,1.058,0.0,4.0,4.0,4.0,1.0,medal_04s.jpg,jewel_01b.jpg,,,,,,,
,,,,,,,,,1.0,,,72,1.0,1.0,1.74,0.0,5.0,5.0,5.0,1.0,plug_08s.jpg,fondue_07s.jpg,,,,,,,
,,,,,,,,,,,,72,,,,,,,,,,,0.0,7.0,7.0,7.0,1.0,newclockpresent_8_4.xlsx,newclock_compare_task_8_4.xlsx
0.0,1.0,0.705,0.0,0.0,0.0,0.0,1.0,footprint_11s.jpg,0.0,Blue.png,1.0,72,,,,,,,,,,,,,,,,,
0.0,1.0,0.687,0.0,1.0,1.0,1.0,1.0,coffee_filter_10s.jpg,0.0,Purple.png,1.0,72,,,,,,,,,,,,,,,,,
1.0,1.0,2.22,0.0,2.0,2.0,2.0,1.0,coffee_filter_10s.jpg,1.0,Red.png,1.0,72,,,,,,,,,,,,,,,,,
1.0,1.0,1.425,0.0,3.0,3.0,3.0,1.0,coffee_filter_10s.jpg,1.0,Orange.png,1.0,72,,,,,,,,,,,,,,,,,
1.0,1.0,1.401,0.0,4.0,4.0,4.0,1.0,coffee_filter_10s.jpg,1.0,Yellow.png,1.0,72,,,,,,,,,,,,,,,,,
0.0,1.0,0.668,0.0,5.0,5.0,5.0,1.0,gargoyle_08s.jpg,0.0,Green.png,1.0,72,,,,,,,,,,,,,,,,,
0.0,1.0,0.673,0.0,6.0,6.0,6.0,1.0,candy_cane_06s.jpg,0.0,Blue.png,2.0,72,,,,,,,,,,,,,,,,,
0.0,1.0,0.722,0.0,7.0,7.0,7.0,1.0,toad_09s.jpg,0.0,Purple.png,2.0,72,,,,,,,,,,,,,,,,,
1.0,1.0,1.739,0.0,8.0,8.0,8.0,1.0,candy_cane_06s.jpg,1.0,Red.png,2.0,72,,,,,,,,,,,,,,,,,
0.0,1.0,0.657,0.0,9.0,9.0,9.0,1.0,pumpkin_03s.jpg,0.0,Orange.png,2.0,72,,,,,,,,,,,,,,,,,
0.0,1.0,0.738,0.0,10.0,10.0,10.0,1.0,dashboard_02s.jpg,0.0,Yellow.png,2.0,72,,,,,,,,,,,,,,,,,
0.0,1.0,0.708,0.0,11.0,11.0,11.0,1.0,syringe_02s.jpg,0.0,Green.png,2.0,72,,,,,,,,,,,,,,,,,
0.0,1.0,0.7,0.0,12.0,12.0,12.0,1.0,powder_07s.jpg,0.0,Blue.png,3.0,72,,,,,,,,,,,,,,,,,
1.0,1.0,1.693,0.0,13.0,13.0,13.0,1.0,powder_07s.jpg,1.0,Purple.png,3.0,72,,,,,,,,,,,,,,,,,
1.0,1.0,1.436,0.0,14.0,14.0,14.0,1.0,powder_07s.jpg,1.0,Red.png,3.0,72,,,,,,,,,,,,,,,,,
0.0,1.0,0.788,0.0,15.0,15.0,15.0,1.0,sea_urchin_09s.jpg,0.0,Orange.png,3.0,72,,,,,,,,,,,,,,,,,
0.0,1.0,0.735,0.0,16.0,16.0,16.0,1.0,throne_11s.jpg,0.0,Yellow.png,3.0,72,,,,,,,,,,,,,,,,,
1.0,1.0,1.633,0.0,17.0,17.0,17.0,1.0,powder_07s.jpg,1.0,Green.png,3.0,72,,,,,,,,,,,,,,,,,
0.0,1.0,0.723,0.0,18.0,18.0,18.0,1.0,chalice_10s.jpg,0.0,Blue.png,4.0,72,,,,,,,,,,,,,,,,,
0.0,1.0,1.158,0.0,19.0,19.0,19.0,1.0,air_pump_05s.jpg,0.0,Purple.png,4.0,72,,,,,,,,,,,,,,,,,
0.0,1.0,0.614,0.0,20.0,20.0,20.0,1.0,microwave_02s.jpg,0.0,Red.png,4.0,72,,,,,,,,,,,,,,,,,
0.0,1.0,1.494,0.0,21.0,21.0,21.0,1.0,cereal_04s.jpg,0.0,Orange.png,4.0,72,,,,,,,,,,,,,,,,,
0.0,1.0,0.618,0.0,22.0,22.0,22.0,1.0,mushroom_10n.jpg,0.0,Yellow.png,4.0,72,,,,,,,,,,,,,,,,,
0.0,1.0,0.868,0.0,23.0,23.0,23.0,1.0,red_carpet_03s.jpg,0.0,Green.png,4.0,72,,,,,,,,,,,,,,,,,
0.0,1.0,1.27,0.0,24.0,24.0,24.0,1.0,throne_11s.jpg,0.0,Blue.png,5.0,72,,,,,,,,,,,,,,,,,
0.0,1.0,0.821,0.0,25.0,25.0,25.0,1.0,koala_13s.jpg,0.0,Purple.png,5.0,72,,,,,,,,,,,,,,,,,
1.0,1.0,1.449,0.0,26.0,26.0,26.0,1.0,throne_11s.jpg,1.0,Red.png,5.0,72,,,,,,,,,,,,,,,,,
0.0,1.0,0.802,0.0,27.0,27.0,27.0,1.0,rocket_02s.jpg,0.0,Orange.png,5.0,72,,,,,,,,,,,,,,,,,
0.0,1.0,0.787,0.0,28.0,28.0,28.0,1.0,swordfish_05s.jpg,0.0,Yellow.png,5.0,72,,,,,,,,,,,,,,,,,
1.0,1.0,1.575,0.0,29.0,29.0,29.0,1.0,rocket_02s.jpg,1.0,Green.png,5.0,72,,,,,,,,,,,,,,,,,
0.0,1.0,0.698,0.0,30.0,30.0,30.0,1.0,icicle_04s.jpg,0.0,Blue.png,6.0,72,,,,,,,,,,,,,,,,,
0.0,1.0,0.855,0.0,31.0,31.0,31.0,1.0,keyboard_05s.jpg,0.0,Purple.png,6.0,72,,,,,,,,,,,,,,,,,
0.0,1.0,0.622,0.0,32.0,32.0,32.0,1.0,pocket_watch_16s.jpg,0.0,Red.png,6.0,72,,,,,,,,,,,,,,,,,
0.0,1.0,0.689,0.0,33.0,33.0,33.0,1.0,tablet_04s.jpg,0.0,Orange.png,6.0,72,,,,,,,,,,,,,,,,,
0.0,1.0,0.74,0.0,34.0,34.0,34.0,1.0,chocolate_01b.jpg,0.0,Yellow.png,6.0,72,,,,,,,,,,,,,,,,,
0.0,1.0,0.753,0.0,35.0,35.0,35.0,1.0,light_switch_02s.jpg,0.0,Green.png,6.0,72,,,,,,,,,,,,,,,,,
,,,,,,,,,0.0,,,72,0.0,1.0,7.101,0.0,0.0,0.0,0.0,1.0,chalice_10s.jpg,sea_urchin_09s.jpg,,,,,,,
,,,,,,,,,1.0,,,72,1.0,1.0,2.255,0.0,1.0,1.0,1.0,1.0,swordfish_05s.jpg,keyboard_05s.jpg,,,,,,,
,,,,,,,,,0.0,,,72,1.0,0.0,2.745,0.0,2.0,2.0,2.0,1.0,red_carpet_03s.jpg,microwave_02s.jpg,,,,,,,
,,,,,,,,,0.0,,,72,0.0,1.0,3.226,0.0,3.0,3.0,3.0,1.0,dashboard_02s.jpg,toad_09s.jpg,,,,,,,
,,,,,,,,,0.0,,,72,0.0,1.0,1.91,0.0,4.0,4.0,4.0,1.0,koala_13s.jpg,mushroom_10n.jpg,,,,,,,
,,,,,,,,,1.0,,,72,1.0,1.0,1.458,0.0,5.0,5.0,5.0,1.0,icicle_04s.jpg,tablet_04s.jpg,,,,,,,
,,,,,,,,,,,,72,,,,,,,,,,,0.0,8.0,8.0,8.0,1.0,newclockpresent_9_4.xlsx,newclock_compare_task_9_4.xlsx
