key_resp.keys,key_resp.corr,key_resp.rt,present_segment.thisRepN,present_segment.thisTrialN,present_segment.thisN,present_segment.thisIndex,present_segment.ran,pictures,answer,clock,segment,participant,key_resp_2.keys,key_resp_2.corr,key_resp_2.rt,compare_segment.thisRepN,compare_segment.thisTrialN,compare_segment.thisN,compare_segment.thisIndex,compare_segment.ran,item_a,item_b,clock_conditions.thisRepN,clock_conditions.thisTrialN,clock_conditions.thisN,clock_conditions.thisIndex,clock_conditions.ran,present,compare
0.0,1.0,0.985325,0.0,0.0,0.0,0.0,1.0,mirror_12s.jpg,0.0,Blue.png,1.0,112,,,,,,,,,,,,,,,,,
0.0,1.0,0.68163,0.0,1.0,1.0,1.0,1.0,polaroid_05s.jpg,0.0,Purple.png,1.0,112,,,,,,,,,,,,,,,,,
1.0,1.0,0.70354,0.0,2.0,2.0,2.0,1.0,polaroid_05s.jpg,1.0,Red.png,1.0,112,,,,,,,,,,,,,,,,,
0.0,1.0,0.61273,0.0,3.0,3.0,3.0,1.0,slingshot_07s.jpg,0.0,Orange.png,1.0,112,,,,,,,,,,,,,,,,,
1.0,1.0,0.85037,0.0,4.0,4.0,4.0,1.0,polaroid_05s.jpg,1.0,Yellow.png,1.0,112,,,,,,,,,,,,,,,,,
0.0,1.0,1.100435,0.0,5.0,5.0,5.0,1.0,kettle_08s.jpg,0.0,Green.png,1.0,112,,,,,,,,,,,,,,,,,
0.0,1.0,0.780405,0.0,6.0,6.0,6.0,1.0,crystal_ball_12s.jpg,0.0,Blue.png,2.0,112,,,,,,,,,,,,,,,,,
0.0,1.0,0.801845,0.0,7.0,7.0,7.0,1.0,iron_13s.jpg,0.0,Purple.png,2.0,112,,,,,,,,,,,,,,,,,
0.0,1.0,0.9139,0.0,8.0,8.0,8.0,1.0,saddle_06s.jpg,0.0,Red.png,2.0,112,,,,,,,,,,,,,,,,,
0.0,1.0,0.817575,0.0,9.0,9.0,9.0,1.0,mango_09s.jpg,0.0,Orange.png,2.0,112,,,,,,,,,,,,,,,,,
0.0,1.0,0.85783,0.0,10.0,10.0,10.0,1.0,ostrich_06s.jpg,0.0,Yellow.png,2.0,112,,,,,,,,,,,,,,,,,
1.0,1.0,1.024605,0.0,11.0,11.0,11.0,1.0,iron_13s.jpg,1.0,Green.png,2.0,112,,,,,,,,,,,,,,,,,
0.0,1.0,1.284735,0.0,12.0,12.0,12.0,1.0,stethoscope_01b.jpg,0.0,Blue.png,3.0,112,,,,,,,,,,,,,,,,,
0.0,1.0,1.12788,0.0,13.0,13.0,13.0,1.0,ruby_15s.jpg,0.0,Purple.png,3.0,112,,,,,,,,,,,,,,,,,
0.0,1.0,1.421875,0.0,14.0,14.0,14.0,1.0,mango_09s.jpg,0.0,Red.png,3.0,112,,,,,,,,,,,,,,,,,
0.0,1.0,1.014165,0.0,15.0,15.0,15.0,1.0,target_11s.jpg,0.0,Orange.png,3.0,112,,,,,,,,,,,,,,,,,
1.0,1.0,1.032495,0.0,16.0,16.0,16.0,1.0,mango_09s.jpg,1.0,Yellow.png,3.0,112,,,,,,,,,,,,,,,,,
0.0,1.0,0.935195,0.0,17.0,17.0,17.0,1.0,compass_10n.jpg,0.0,Green.png,3.0,112,,,,,,,,,,,,,,,,,
0.0,1.0,1.071605,0.0,18.0,18.0,18.0,1.0,meatball_13s.jpg,0.0,Blue.png,4.0,112,,,,,,,,,,,,,,,,,
0.0,1.0,1.202945,0.0,19.0,19.0,19.0,1.0,stapler_01b.jpg,0.0,Purple.png,4.0,112,,,,,,,,,,,,,,,,,
1.0,1.0,1.080885,0.0,20.0,20.0,20.0,1.0,meatball_13s.jpg,1.0,Red.png,4.0,112,,,,,,,,,,,,,,,,,
0.0,1.0,0.932875,0.0,21.0,21.0,21.0,1.0,pump_11s.jpg,0.0,Orange.png,4.0,112,,,,,,,,,,,,,,,,,
0.0,1.0,1.02542,0.0,22.0,22.0,22.0,1.0,coral_08s.jpg,0.0,Yellow.png,4.0,112,,,,,,,,,,,,,,,,,
1.0,1.0,0.836555,0.0,23.0,23.0,23.0,1.0,meatball_13s.jpg,1.0,Green.png,4.0,112,,,,,,,,,,,,,,,,,
0.0,1.0,0.90988,0.0,24.0,24.0,24.0,1.0,peach_04s.jpg,0.0,Blue.png,5.0,112,,,,,,,,,,,,,,,,,
0.0,1.0,1.12474,0.0,25.0,25.0,25.0,1.0,meatball_13s.jpg,0.0,Purple.png,5.0,112,,,,,,,,,,,,,,,,,
0.0,1.0,0.767245,0.0,26.0,26.0,26.0,1.0,pie_08s.jpg,0.0,Red.png,5.0,112,,,,,,,,,,,,,,,,,
0.0,1.0,0.765515,0.0,27.0,27.0,27.0,1.0,rollerskate_03s.jpg,0.0,Orange.png,5.0,112,,,,,,,,,,,,,,,,,
0.0,1.0,0.680685,0.0,28.0,28.0,28.0,1.0,trampoline_13s.jpg,0.0,Yellow.png,5.0,112,,,,,,,,,,,,,,,,,
0.0,1.0,1.079965,0.0,29.0,29.0,29.0,1.0,undershirt_02s.jpg,0.0,Green.png,5.0,112,,,,,,,,,,,,,,,,,
0.0,1.0,1.19707,0.0,30.0,30.0,30.0,1.0,thread_08s.jpg,0.0,Blue.png,6.0,112,,,,,,,,,,,,,,,,,
0.0,1.0,0.82793,0.0,31.0,31.0,31.0,1.0,megaphone_03s.jpg,0.0,Purple.png,6.0,112,,,,,,,,,,,,,,,,,
0.0,1.0,1.143885,0.0,32.0,32.0,32.0,1.0,plaster_cast_13s.jpg,0.0,Red.png,6.0,112,,,,,,,,,,,,,,,,,
0.0,1.0,0.96451,0.0,33.0,33.0,33.0,1.0,diving_board_07s.jpg,0.0,Orange.png,6.0,112,,,,,,,,,,,,,,,,,
0.0,1.0,0.796505,0.0,34.0,34.0,34.0,1.0,kayak_08s.jpg,0.0,Yellow.png,6.0,112,,,,,,,,,,,,,,,,,
1.0,1.0,0.84613,0.0,35.0,35.0,35.0,1.0,diving_board_07s.jpg,1.0,Green.png,6.0,112,,,,,,,,,,,,,,,,,
,,,,,,,,,1.0,,,112,1.0,1.0,1.914855,0.0,0.0,0.0,0.0,1.0,stapler_01b.jpg,coral_08s.jpg,,,,,,,
,,,,,,,,,1.0,,,112,1.0,1.0,1.6454,0.0,1.0,1.0,1.0,1.0,slingshot_07s.jpg,crystal_ball_12s.jpg,,,,,,,
,,,,,,,,,0.0,,,112,1.0,0.0,1.24658,0.0,2.0,2.0,2.0,1.0,saddle_06s.jpg,kettle_08s.jpg,,,,,,,
,,,,,,,,,1.0,,,112,1.0,1.0,1.231835,0.0,3.0,3.0,3.0,1.0,pie_08s.jpg,undershirt_02s.jpg,,,,,,,
,,,,,,,,,1.0,,,112,0.0,0.0,3.769395,0.0,4.0,4.0,4.0,1.0,stethoscope_01b.jpg,target_11s.jpg,,,,,,,
,,,,,,,,,1.0,,,112,1.0,1.0,1.7317,0.0,5.0,5.0,5.0,1.0,ostrich_06s.jpg,ruby_15s.jpg,,,,,,,
,,,,,,,,,,,,112,,,,,,,,,,,0.0,0.0,0.0,0.0,1.0,newclockpresent_1_4.xlsx,newclock_compare_task_1_4.xlsx
0.0,1.0,1.215595,0.0,0.0,0.0,0.0,1.0,jetski_10s.jpg,0.0,Blue.png,1.0,112,,,,,,,,,,,,,,,,,
0.0,1.0,0.591445,0.0,1.0,1.0,1.0,1.0,tripod_01b.jpg,0.0,Purple.png,1.0,112,,,,,,,,,,,,,,,,,
0.0,1.0,0.950105,0.0,2.0,2.0,2.0,1.0,lab_coat_11s.jpg,0.0,Red.png,1.0,112,,,,,,,,,,,,,,,,,
0.0,1.0,0.848755,0.0,3.0,3.0,3.0,1.0,foam_03s.jpg,0.0,Orange.png,1.0,112,,,,,,,,,,,,,,,,,
0.0,1.0,1.081575,0.0,4.0,4.0,4.0,1.0,crate_05s.jpg,0.0,Yellow.png,1.0,112,,,,,,,,,,,,,,,,,
0.0,1.0,0.79945,0.0,5.0,5.0,5.0,1.0,margarita_03s.jpg,0.0,Green.png,1.0,112,,,,,,,,,,,,,,,,,
0.0,1.0,1.230835,0.0,6.0,6.0,6.0,1.0,joystick_01b.jpg,0.0,Blue.png,2.0,112,,,,,,,,,,,,,,,,,
0.0,1.0,0.782885,0.0,7.0,7.0,7.0,1.0,giraffe_11s.jpg,0.0,Purple.png,2.0,112,,,,,,,,,,,,,,,,,
0.0,1.0,1.15463,0.0,8.0,8.0,8.0,1.0,quilt_03s.jpg,0.0,Red.png,2.0,112,,,,,,,,,,,,,,,,,
1.0,1.0,1.00715,0.0,9.0,9.0,9.0,1.0,giraffe_11s.jpg,1.0,Orange.png,2.0,112,,,,,,,,,,,,,,,,,
0.0,1.0,1.1544,0.0,10.0,10.0,10.0,1.0,pincushion_10s.jpg,0.0,Yellow.png,2.0,112,,,,,,,,,,,,,,,,,
1.0,1.0,0.951395,0.0,11.0,11.0,11.0,1.0,giraffe_11s.jpg,1.0,Green.png,2.0,112,,,,,,,,,,,,,,,,,
0.0,1.0,0.891965,0.0,12.0,12.0,12.0,1.0,pincushion_10s.jpg,0.0,Blue.png,3.0,112,,,,,,,,,,,,,,,,,
0.0,1.0,1.220005,0.0,13.0,13.0,13.0,1.0,giraffe_11s.jpg,0.0,Purple.png,3.0,112,,,,,,,,,,,,,,,,,
0.0,1.0,1.27708,0.0,14.0,14.0,14.0,1.0,rolling_pin_02s.jpg,0.0,Red.png,3.0,112,,,,,,,,,,,,,,,,,
0.0,1.0,1.04376,0.0,15.0,15.0,15.0,1.0,ticktacktoe_08s.jpg,0.0,Orange.png,3.0,112,,,,,,,,,,,,,,,,,
1.0,1.0,0.945045,0.0,16.0,16.0,16.0,1.0,giraffe_11s.jpg,1.0,Yellow.png,3.0,112,,,,,,,,,,,,,,,,,
1.0,1.0,0.89538,0.0,17.0,17.0,17.0,1.0,ticktacktoe_08s.jpg,1.0,Green.png,3.0,112,,,,,,,,,,,,,,,,,
0.0,1.0,1.248165,0.0,18.0,18.0,18.0,1.0,typewriter_11s.jpg,0.0,Blue.png,4.0,112,,,,,,,,,,,,,,,,,
0.0,1.0,0.94016,0.0,19.0,19.0,19.0,1.0,toothpaste_12s.jpg,0.0,Purple.png,4.0,112,,,,,,,,,,,,,,,,,
0.0,1.0,0.695195,0.0,20.0,20.0,20.0,1.0,hummingbird_05s.jpg,0.0,Red.png,4.0,112,,,,,,,,,,,,,,,,,
1.0,1.0,0.99306,0.0,21.0,21.0,21.0,1.0,toothpaste_12s.jpg,1.0,Orange.png,4.0,112,,,,,,,,,,,,,,,,,
1.0,1.0,0.84294,0.0,22.0,22.0,22.0,1.0,toothpaste_12s.jpg,1.0,Yellow.png,4.0,112,,,,,,,,,,,,,,,,,
0.0,1.0,0.97931,0.0,23.0,23.0,23.0,1.0,treadmill_06s.jpg,0.0,Green.png,4.0,112,,,,,,,,,,,,,,,,,
0.0,1.0,1.70386,0.0,24.0,24.0,24.0,1.0,typewriter_11s.jpg,0.0,Blue.png,5.0,112,,,,,,,,,,,,,,,,,
0.0,1.0,1.137475,0.0,25.0,25.0,25.0,1.0,penguin_16s.jpg,0.0,Purple.png,5.0,112,,,,,,,,,,,,,,,,,
0.0,1.0,1.95966,0.0,26.0,26.0,26.0,1.0,olive_05s.jpg,0.0,Red.png,5.0,112,,,,,,,,,,,,,,,,,
1.0,1.0,0.838725,0.0,27.0,27.0,27.0,1.0,penguin_16s.jpg,1.0,Orange.png,5.0,112,,,,,,,,,,,,,,,,,
1.0,1.0,0.757905,0.0,28.0,28.0,28.0,1.0,penguin_16s.jpg,1.0,Yellow.png,5.0,112,,,,,,,,,,,,,,,,,
0.0,1.0,0.922255,0.0,29.0,29.0,29.0,1.0,tab_09s.jpg,0.0,Green.png,5.0,112,,,,,,,,,,,,,,,,,
0.0,1.0,1.296665,0.0,30.0,30.0,30.0,1.0,frame_06s.jpg,0.0,Blue.png,6.0,112,,,,,,,,,,,,,,,,,
0.0,1.0,1.61621,0.0,31.0,31.0,31.0,1.0,mop_08s.jpg,0.0,Purple.png,6.0,112,,,,,,,,,,,,,,,,,
0.0,1.0,0.7044,0.0,32.0,32.0,32.0,1.0,memory_stick_11s.jpg,0.0,Red.png,6.0,112,,,,,,,,,,,,,,,,,
0.0,1.0,0.98218,0.0,33.0,33.0,33.0,1.0,olive_05s.jpg,0.0,Orange.png,6.0,112,,,,,,,,,,,,,,,,,
0.0,1.0,0.67535,0.0,34.0,34.0,34.0,1.0,ravioli_08s.jpg,0.0,Yellow.png,6.0,112,,,,,,,,,,,,,,,,,
0.0,1.0,0.702275,0.0,35.0,35.0,35.0,1.0,mousetrap_15n.jpg,0.0,Green.png,6.0,112,,,,,,,,,,,,,,,,,
,,,,,,,,,1.0,,,112,1.0,1.0,1.61946,0.0,0.0,0.0,0.0,1.0,hummingbird_05s.jpg,treadmill_06s.jpg,,,,,,,
,,,,,,,,,1.0,,,112,0.0,0.0,1.35808,0.0,1.0,1.0,1.0,1.0,margarita_03s.jpg,quilt_03s.jpg,,,,,,,
,,,,,,,,,0.0,,,112,0.0,1.0,1.194905,0.0,2.0,2.0,2.0,1.0,joystick_01b.jpg,foam_03s.jpg,,,,,,,
,,,,,,,,,0.0,,,112,0.0,1.0,1.576855,0.0,3.0,3.0,3.0,1.0,ravioli_08s.jpg,mop_08s.jpg,,,,,,,
,,,,,,,,,1.0,,,112,1.0,1.0,2.89282,0.0,4.0,4.0,4.0,1.0,tab_09s.jpg,memory_stick_11s.jpg,,,,,,,
,,,,,,,,,1.0,,,112,1.0,1.0,1.75976,0.0,5.0,5.0,5.0,1.0,tripod_01b.jpg,crate_05s.jpg,,,,,,,
,,,,,,,,,,,,112,,,,,,,,,,,0.0,1.0,1.0,1.0,1.0,newclockpresent_2_4.xlsx,newclock_compare_task_2_4.xlsx
0.0,1.0,1.068145,0.0,0.0,0.0,0.0,1.0,safety_pin_02s.jpg,0.0,Blue.png,1.0,112,,,,,,,,,,,,,,,,,
1.0,1.0,0.59142,0.0,1.0,1.0,1.0,1.0,safety_pin_02s.jpg,1.0,Purple.png,1.0,112,,,,,,,,,,,,,,,,,
0.0,1.0,0.72836,0.0,2.0,2.0,2.0,1.0,cardinal_07s.jpg,0.0,Red.png,1.0,112,,,,,,,,,,,,,,,,,
1.0,1.0,1.133625,0.0,3.0,3.0,3.0,1.0,safety_pin_02s.jpg,1.0,Orange.png,1.0,112,,,,,,,,,,,,,,,,,
0.0,1.0,0.8369,0.0,4.0,4.0,4.0,1.0,potholder_02s.jpg,0.0,Yellow.png,1.0,112,,,,,,,,,,,,,,,,,
1.0,1.0,0.750375,0.0,5.0,5.0,5.0,1.0,safety_pin_02s.jpg,1.0,Green.png,1.0,112,,,,,,,,,,,,,,,,,
0.0,1.0,0.76539,0.0,6.0,6.0,6.0,1.0,cardinal_07s.jpg,0.0,Blue.png,2.0,112,,,,,,,,,,,,,,,,,
0.0,1.0,1.255875,0.0,7.0,7.0,7.0,1.0,lion_18s.jpg,0.0,Purple.png,2.0,112,,,,,,,,,,,,,,,,,
0.0,1.0,0.99379,0.0,8.0,8.0,8.0,1.0,comic_book_02s.jpg,0.0,Red.png,2.0,112,,,,,,,,,,,,,,,,,
0.0,1.0,0.905685,0.0,9.0,9.0,9.0,1.0,lizard_10n.jpg,0.0,Orange.png,2.0,112,,,,,,,,,,,,,,,,,
0.0,1.0,0.826725,0.0,10.0,10.0,10.0,1.0,rice_12s.jpg,0.0,Yellow.png,2.0,112,,,,,,,,,,,,,,,,,
0.0,1.0,0.921245,0.0,11.0,11.0,11.0,1.0,bagel_15s.jpg,0.0,Green.png,2.0,112,,,,,,,,,,,,,,,,,
0.0,1.0,1.455915,0.0,12.0,12.0,12.0,1.0,recliner_02s.jpg,0.0,Blue.png,3.0,112,,,,,,,,,,,,,,,,,
1.0,1.0,0.918825,0.0,13.0,13.0,13.0,1.0,recliner_02s.jpg,1.0,Purple.png,3.0,112,,,,,,,,,,,,,,,,,
0.0,1.0,1.3478,0.0,14.0,14.0,14.0,1.0,luggage_08s.jpg,0.0,Red.png,3.0,112,,,,,,,,,,,,,,,,,
1.0,1.0,0.853195,0.0,15.0,15.0,15.0,1.0,recliner_02s.jpg,1.0,Orange.png,3.0,112,,,,,,,,,,,,,,,,,
0.0,1.0,0.785235,0.0,16.0,16.0,16.0,1.0,onion_10s.jpg,0.0,Yellow.png,3.0,112,,,,,,,,,,,,,,,,,
0.0,1.0,0.75211,0.0,17.0,17.0,17.0,1.0,rosary_03s.jpg,0.0,Green.png,3.0,112,,,,,,,,,,,,,,,,,
0.0,1.0,1.222285,0.0,18.0,18.0,18.0,1.0,smokingpipe.jpg,0.0,Blue.png,4.0,112,,,,,,,,,,,,,,,,,
0.0,1.0,1.415695,0.0,19.0,19.0,19.0,1.0,roulette_wheel_04s.jpg,0.0,Purple.png,4.0,112,,,,,,,,,,,,,,,,,
1.0,1.0,0.952485,0.0,20.0,20.0,20.0,1.0,smokingpipe.jpg,1.0,Red.png,4.0,112,,,,,,,,,,,,,,,,,
0.0,1.0,0.83214,0.0,21.0,21.0,21.0,1.0,orchid_01b.jpg,0.0,Orange.png,4.0,112,,,,,,,,,,,,,,,,,
0.0,1.0,1.03385,0.0,22.0,22.0,22.0,1.0,buoy_04s.jpg,0.0,Yellow.png,4.0,112,,,,,,,,,,,,,,,,,
0.0,1.0,0.91614,0.0,23.0,23.0,23.0,1.0,stopwatch_04s.jpg,0.0,Green.png,4.0,112,,,,,,,,,,,,,,,,,
0.0,1.0,0.85426,0.0,24.0,24.0,24.0,1.0,knitting_needle_04s.jpg,0.0,Blue.png,5.0,112,,,,,,,,,,,,,,,,,
0.0,1.0,1.68263,0.0,25.0,25.0,25.0,1.0,prism_10s.jpg,0.0,Purple.png,5.0,112,,,,,,,,,,,,,,,,,
0.0,1.0,1.15792,0.0,26.0,26.0,26.0,1.0,teapot_03s.jpg,0.0,Red.png,5.0,112,,,,,,,,,,,,,,,,,
0.0,1.0,0.95205,0.0,27.0,27.0,27.0,1.0,fire_pit_10s.jpg,0.0,Orange.png,5.0,112,,,,,,,,,,,,,,,,,
1.0,1.0,0.891735,0.0,28.0,28.0,28.0,1.0,fire_pit_10s.jpg,1.0,Yellow.png,5.0,112,,,,,,,,,,,,,,,,,
1.0,1.0,0.931385,0.0,29.0,29.0,29.0,1.0,fire_pit_10s.jpg,1.0,Green.png,5.0,112,,,,,,,,,,,,,,,,,
0.0,1.0,1.164985,0.0,30.0,30.0,30.0,1.0,ironing_board_07s.jpg,0.0,Blue.png,6.0,112,,,,,,,,,,,,,,,,,
0.0,1.0,1.00218,0.0,31.0,31.0,31.0,1.0,fire_pit_10s.jpg,0.0,Purple.png,6.0,112,,,,,,,,,,,,,,,,,
0.0,1.0,0.90824,0.0,32.0,32.0,32.0,1.0,mattress_01s.jpg,0.0,Red.png,6.0,112,,,,,,,,,,,,,,,,,
1.0,1.0,1.417095,0.0,33.0,33.0,33.0,1.0,fire_pit_10s.jpg,1.0,Orange.png,6.0,112,,,,,,,,,,,,,,,,,
1.0,1.0,0.93611,0.0,34.0,34.0,34.0,1.0,mattress_01s.jpg,1.0,Yellow.png,6.0,112,,,,,,,,,,,,,,,,,
0.0,1.0,1.303435,0.0,35.0,35.0,35.0,1.0,ice-cream_cone_06s.jpg,0.0,Green.png,6.0,112,,,,,,,,,,,,,,,,,
,,,,,,,,,1.0,,,112,1.0,1.0,3.38021,0.0,0.0,0.0,0.0,1.0,roulette_wheel_04s.jpg,buoy_04s.jpg,,,,,,,
,,,,,,,,,0.0,,,112,1.0,0.0,1.047625,0.0,1.0,1.0,1.0,1.0,lion_18s.jpg,potholder_02s.jpg,,,,,,,
,,,,,,,,,0.0,,,112,0.0,1.0,1.27645,0.0,2.0,2.0,2.0,1.0,bagel_15s.jpg,comic_book_02s.jpg,,,,,,,
,,,,,,,,,1.0,,,112,0.0,0.0,1.478395,0.0,3.0,3.0,3.0,1.0,stopwatch_04s.jpg,teapot_03s.jpg,,,,,,,
,,,,,,,,,1.0,,,112,0.0,0.0,1.68131,0.0,4.0,4.0,4.0,1.0,luggage_08s.jpg,rosary_03s.jpg,,,,,,,
,,,,,,,,,1.0,,,112,1.0,1.0,1.344,0.0,5.0,5.0,5.0,1.0,orchid_01b.jpg,knitting_needle_04s.jpg,,,,,,,
,,,,,,,,,,,,112,,,,,,,,,,,0.0,2.0,2.0,2.0,1.0,newclockpresent_3_4.xlsx,newclock_compare_task_3_4.xlsx
0.0,1.0,1.241765,0.0,0.0,0.0,0.0,1.0,smoothie_09s.jpg,0.0,Blue.png,1.0,112,,,,,,,,,,,,,,,,,
0.0,1.0,0.970715,0.0,1.0,1.0,1.0,1.0,raspberry_12s.jpg,0.0,Purple.png,1.0,112,,,,,,,,,,,,,,,,,
1.0,1.0,1.00288,0.0,2.0,2.0,2.0,1.0,raspberry_12s.jpg,1.0,Red.png,1.0,112,,,,,,,,,,,,,,,,,
0.0,1.0,1.02934,0.0,3.0,3.0,3.0,1.0,lamb_chop_07s.jpg,0.0,Orange.png,1.0,112,,,,,,,,,,,,,,,,,
1.0,1.0,0.92079,0.0,4.0,4.0,4.0,1.0,smoothie_09s.jpg,1.0,Yellow.png,1.0,112,,,,,,,,,,,,,,,,,
1.0,1.0,0.979015,0.0,5.0,5.0,5.0,1.0,raspberry_12s.jpg,1.0,Green.png,1.0,112,,,,,,,,,,,,,,,,,
0.0,1.0,0.912925,0.0,6.0,6.0,6.0,1.0,lava_02s.jpg,0.0,Blue.png,2.0,112,,,,,,,,,,,,,,,,,
0.0,1.0,0.98724,0.0,7.0,7.0,7.0,1.0,trident_07s.jpg,0.0,Purple.png,2.0,112,,,,,,,,,,,,,,,,,
1.0,1.0,0.642665,0.0,8.0,8.0,8.0,1.0,trident_07s.jpg,1.0,Red.png,2.0,112,,,,,,,,,,,,,,,,,
1.0,1.0,0.78481,0.0,9.0,9.0,9.0,1.0,trident_07s.jpg,1.0,Orange.png,2.0,112,,,,,,,,,,,,,,,,,
0.0,1.0,0.832295,0.0,10.0,10.0,10.0,1.0,orangutan_03s.jpg,0.0,Yellow.png,2.0,112,,,,,,,,,,,,,,,,,
1.0,1.0,0.80332,0.0,11.0,11.0,11.0,1.0,trident_07s.jpg,1.0,Green.png,2.0,112,,,,,,,,,,,,,,,,,
0.0,1.0,1.41229,0.0,12.0,12.0,12.0,1.0,raspberry_12s.jpg,0.0,Blue.png,3.0,112,,,,,,,,,,,,,,,,,
0.0,1.0,1.152505,0.0,13.0,13.0,13.0,1.0,trident_07s.jpg,0.0,Purple.png,3.0,112,,,,,,,,,,,,,,,,,
0.0,1.0,0.94819,0.0,14.0,14.0,14.0,1.0,lavender_10s.jpg,0.0,Red.png,3.0,112,,,,,,,,,,,,,,,,,
0.0,1.0,0.76782,0.0,15.0,15.0,15.0,1.0,chip_04s.jpg,0.0,Orange.png,3.0,112,,,,,,,,,,,,,,,,,
0.0,1.0,0.8706,0.0,16.0,16.0,16.0,1.0,lamb_04s.jpg,0.0,Yellow.png,3.0,112,,,,,,,,,,,,,,,,,
0.0,1.0,0.876765,0.0,17.0,17.0,17.0,1.0,emerald_02s.jpg,0.0,Green.png,3.0,112,,,,,,,,,,,,,,,,,
0.0,1.0,0.841485,0.0,18.0,18.0,18.0,1.0,pineapple_12s.jpg,0.0,Blue.png,4.0,112,,,,,,,,,,,,,,,,,
0.0,1.0,1.21591,0.0,19.0,19.0,19.0,1.0,sundae_08s.jpg,0.0,Purple.png,4.0,112,,,,,,,,,,,,,,,,,
1.0,1.0,0.70577,0.0,20.0,20.0,20.0,1.0,sundae_08s.jpg,1.0,Red.png,4.0,112,,,,,,,,,,,,,,,,,
0.0,1.0,0.862375,0.0,21.0,21.0,21.0,1.0,squirrel_02s.jpg,0.0,Orange.png,4.0,112,,,,,,,,,,,,,,,,,
0.0,1.0,0.76861,0.0,22.0,22.0,22.0,1.0,roller_coaster_07s.jpg,0.0,Yellow.png,4.0,112,,,,,,,,,,,,,,,,,
1.0,1.0,1.138555,0.0,23.0,23.0,23.0,1.0,sundae_08s.jpg,1.0,Green.png,4.0,112,,,,,,,,,,,,,,,,,
0.0,1.0,0.970555,0.0,24.0,24.0,24.0,1.0,tweezers_03s.jpg,0.0,Blue.png,5.0,112,,,,,,,,,,,,,,,,,
1.0,0.0,1.6722,0.0,25.0,25.0,25.0,1.0,sundae_08s.jpg,0.0,Purple.png,5.0,112,,,,,,,,,,,,,,,,,
0.0,1.0,1.10073,0.0,26.0,26.0,26.0,1.0,rudder_02s.jpg,0.0,Red.png,5.0,112,,,,,,,,,,,,,,,,,
0.0,1.0,1.23658,0.0,27.0,27.0,27.0,1.0,rake_06s.jpg,0.0,Orange.png,5.0,112,,,,,,,,,,,,,,,,,
1.0,1.0,1.21522,0.0,28.0,28.0,28.0,1.0,rake_06s.jpg,1.0,Yellow.png,5.0,112,,,,,,,,,,,,,,,,,
1.0,1.0,0.981185,0.0,29.0,29.0,29.0,1.0,rake_06s.jpg,1.0,Green.png,5.0,112,,,,,,,,,,,,,,,,,
0.0,1.0,1.13111,0.0,30.0,30.0,30.0,1.0,cap_05s.jpg,0.0,Blue.png,6.0,112,,,,,,,,,,,,,,,,,
0.0,1.0,1.17655,0.0,31.0,31.0,31.0,1.0,paper_towel_03s.jpg,0.0,Purple.png,6.0,112,,,,,,,,,,,,,,,,,
0.0,1.0,0.904145,0.0,32.0,32.0,32.0,1.0,toaster_03s.jpg,0.0,Red.png,6.0,112,,,,,,,,,,,,,,,,,
0.0,1.0,0.774085,0.0,33.0,33.0,33.0,1.0,money_07s.jpg,0.0,Orange.png,6.0,112,,,,,,,,,,,,,,,,,
0.0,1.0,0.768835,0.0,34.0,34.0,34.0,1.0,pinwheel_06s.jpg,0.0,Yellow.png,6.0,112,,,,,,,,,,,,,,,,,
0.0,1.0,0.970235,0.0,35.0,35.0,35.0,1.0,lid_10s.jpg,0.0,Green.png,6.0,112,,,,,,,,,,,,,,,,,
,,,,,,,,,0.0,,,112,0.0,1.0,2.19767,0.0,0.0,0.0,0.0,1.0,tweezers_03s.jpg,squirrel_02s.jpg,,,,,,,
,,,,,,,,,1.0,,,112,1.0,1.0,3.306715,0.0,1.0,1.0,1.0,1.0,chip_04s.jpg,pineapple_12s.jpg,,,,,,,
,,,,,,,,,1.0,,,112,1.0,1.0,1.988895,0.0,2.0,2.0,2.0,1.0,lamb_chop_07s.jpg,lava_02s.jpg,,,,,,,
,,,,,,,,,0.0,,,112,0.0,1.0,2.341535,0.0,3.0,3.0,3.0,1.0,pinwheel_06s.jpg,paper_towel_03s.jpg,,,,,,,
,,,,,,,,,0.0,,,112,1.0,0.0,1.146665,0.0,4.0,4.0,4.0,1.0,emerald_02s.jpg,lavender_10s.jpg,,,,,,,
,,,,,,,,,0.0,,,112,0.0,1.0,1.293455,0.0,5.0,5.0,5.0,1.0,money_07s.jpg,cap_05s.jpg,,,,,,,
,,,,,,,,,,,,112,,,,,,,,,,,0.0,3.0,3.0,3.0,1.0,newclockpresent_4_4.xlsx,newclock_compare_task_4_4.xlsx
0.0,1.0,1.246265,0.0,0.0,0.0,0.0,1.0,fur_coat_11s.jpg,0.0,Blue.png,1.0,112,,,,,,,,,,,,,,,,,
0.0,1.0,1.10166,0.0,1.0,1.0,1.0,1.0,crayon_09s.jpg,0.0,Purple.png,1.0,112,,,,,,,,,,,,,,,,,
0.0,1.0,0.903055,0.0,2.0,2.0,2.0,1.0,cobra_05s.jpg,0.0,Red.png,1.0,112,,,,,,,,,,,,,,,,,
0.0,1.0,0.741155,0.0,3.0,3.0,3.0,1.0,raccoon_02s.jpg,0.0,Orange.png,1.0,112,,,,,,,,,,,,,,,,,
0.0,1.0,0.96822,0.0,4.0,4.0,4.0,1.0,soda_fountain_03s.jpg,0.0,Yellow.png,1.0,112,,,,,,,,,,,,,,,,,
1.0,1.0,0.960905,0.0,5.0,5.0,5.0,1.0,raccoon_02s.jpg,1.0,Green.png,1.0,112,,,,,,,,,,,,,,,,,
0.0,1.0,1.259355,0.0,6.0,6.0,6.0,1.0,feather02.jpg,0.0,Blue.png,2.0,112,,,,,,,,,,,,,,,,,
0.0,1.0,1.282815,0.0,7.0,7.0,7.0,1.0,raccoon_02s.jpg,0.0,Purple.png,2.0,112,,,,,,,,,,,,,,,,,
1.0,1.0,0.7061,0.0,8.0,8.0,8.0,1.0,feather02.jpg,1.0,Red.png,2.0,112,,,,,,,,,,,,,,,,,
0.0,1.0,0.851035,0.0,9.0,9.0,9.0,1.0,rug_09s.jpg,0.0,Orange.png,2.0,112,,,,,,,,,,,,,,,,,
1.0,1.0,0.80319,0.0,10.0,10.0,10.0,1.0,feather02.jpg,1.0,Yellow.png,2.0,112,,,,,,,,,,,,,,,,,
0.0,1.0,0.57781,0.0,11.0,11.0,11.0,1.0,cushion_08s.jpg,0.0,Green.png,2.0,112,,,,,,,,,,,,,,,,,
1.0,0.0,0.66732,0.0,12.0,12.0,12.0,1.0,feather02.jpg,0.0,Blue.png,3.0,112,,,,,,,,,,,,,,,,,
1.0,1.0,0.653285,0.0,13.0,13.0,13.0,1.0,feather02.jpg,1.0,Purple.png,3.0,112,,,,,,,,,,,,,,,,,
0.0,1.0,0.827105,0.0,14.0,14.0,14.0,1.0,ice_pack_09s.jpg,0.0,Red.png,3.0,112,,,,,,,,,,,,,,,,,
1.0,1.0,0.89504,0.0,15.0,15.0,15.0,1.0,ice_pack_09s.jpg,1.0,Orange.png,3.0,112,,,,,,,,,,,,,,,,,
0.0,1.0,1.43987,0.0,16.0,16.0,16.0,1.0,loom_05s.jpg,0.0,Yellow.png,3.0,112,,,,,,,,,,,,,,,,,
1.0,1.0,0.788215,0.0,17.0,17.0,17.0,1.0,ice_pack_09s.jpg,1.0,Green.png,3.0,112,,,,,,,,,,,,,,,,,
0.0,1.0,1.074675,0.0,18.0,18.0,18.0,1.0,ice_pack_09s.jpg,0.0,Blue.png,4.0,112,,,,,,,,,,,,,,,,,
1.0,1.0,0.930865,0.0,19.0,19.0,19.0,1.0,ice_pack_09s.jpg,1.0,Purple.png,4.0,112,,,,,,,,,,,,,,,,,
1.0,1.0,0.6286,0.0,20.0,20.0,20.0,1.0,ice_pack_09s.jpg,1.0,Red.png,4.0,112,,,,,,,,,,,,,,,,,
0.0,1.0,1.364795,0.0,21.0,21.0,21.0,1.0,blazer_02s.jpg,0.0,Orange.png,4.0,112,,,,,,,,,,,,,,,,,
0.0,1.0,1.305715,0.0,22.0,22.0,22.0,1.0,penlight_12s.jpg,0.0,Yellow.png,4.0,112,,,,,,,,,,,,,,,,,
0.0,1.0,0.95121,0.0,23.0,23.0,23.0,1.0,swan_11s.jpg,0.0,Green.png,4.0,112,,,,,,,,,,,,,,,,,
0.0,1.0,1.367605,0.0,24.0,24.0,24.0,1.0,plunger_08s.jpg,0.0,Blue.png,5.0,112,,,,,,,,,,,,,,,,,
0.0,1.0,1.264615,0.0,25.0,25.0,25.0,1.0,bottle_opener_11s.jpg,0.0,Purple.png,5.0,112,,,,,,,,,,,,,,,,,
0.0,1.0,1.30045,0.0,26.0,26.0,26.0,1.0,checkbook_11s.jpg,0.0,Red.png,5.0,112,,,,,,,,,,,,,,,,,
0.0,1.0,1.03763,0.0,27.0,27.0,27.0,1.0,ink_08s.jpg,0.0,Orange.png,5.0,112,,,,,,,,,,,,,,,,,
1.0,1.0,0.87175,0.0,28.0,28.0,28.0,1.0,plunger_08s.jpg,1.0,Yellow.png,5.0,112,,,,,,,,,,,,,,,,,
0.0,1.0,0.609905,0.0,29.0,29.0,29.0,1.0,pencil02a.jpg,0.0,Green.png,5.0,112,,,,,,,,,,,,,,,,,
0.0,1.0,0.81777,0.0,30.0,30.0,30.0,1.0,ginger_09s.jpg,0.0,Blue.png,6.0,112,,,,,,,,,,,,,,,,,
0.0,1.0,0.723,0.0,31.0,31.0,31.0,1.0,taxi_15s.jpg,0.0,Purple.png,6.0,112,,,,,,,,,,,,,,,,,
0.0,1.0,0.84743,0.0,32.0,32.0,32.0,1.0,toy_04s.jpg,0.0,Red.png,6.0,112,,,,,,,,,,,,,,,,,
0.0,1.0,0.835955,0.0,33.0,33.0,33.0,1.0,blowfish_03s.jpg,0.0,Orange.png,6.0,112,,,,,,,,,,,,,,,,,
0.0,1.0,0.907105,0.0,34.0,34.0,34.0,1.0,toilet_paper_12s.jpg,0.0,Yellow.png,6.0,112,,,,,,,,,,,,,,,,,
0.0,1.0,1.03829,0.0,35.0,35.0,35.0,1.0,puddle_02s.jpg,0.0,Green.png,6.0,112,,,,,,,,,,,,,,,,,
,,,,,,,,,1.0,,,112,1.0,1.0,2.771695,0.0,0.0,0.0,0.0,1.0,ink_08s.jpg,ginger_09s.jpg,,,,,,,
,,,,,,,,,0.0,,,112,0.0,1.0,1.06154,0.0,1.0,1.0,1.0,1.0,puddle_02s.jpg,toy_04s.jpg,,,,,,,
,,,,,,,,,0.0,,,112,1.0,0.0,1.80952,0.0,2.0,2.0,2.0,1.0,bottle_opener_11s.jpg,penlight_12s.jpg,,,,,,,
,,,,,,,,,0.0,,,112,0.0,1.0,1.491735,0.0,3.0,3.0,3.0,1.0,checkbook_11s.jpg,swan_11s.jpg,,,,,,,
,,,,,,,,,1.0,,,112,1.0,1.0,0.995075,0.0,4.0,4.0,4.0,1.0,taxi_15s.jpg,toilet_paper_12s.jpg,,,,,,,
,,,,,,,,,1.0,,,112,1.0,1.0,1.06576,0.0,5.0,5.0,5.0,1.0,crayon_09s.jpg,soda_fountain_03s.jpg,,,,,,,
,,,,,,,,,,,,112,,,,,,,,,,,0.0,4.0,4.0,4.0,1.0,newclockpresent_5_4.xlsx,newclock_compare_task_5_4.xlsx
0.0,1.0,1.306235,0.0,0.0,0.0,0.0,1.0,flask_04s.jpg,0.0,Blue.png,1.0,112,,,,,,,,,,,,,,,,,
0.0,1.0,1.11692,0.0,1.0,1.0,1.0,1.0,kimono_13s.jpg,0.0,Purple.png,1.0,112,,,,,,,,,,,,,,,,,
0.0,1.0,0.882685,0.0,2.0,2.0,2.0,1.0,limousine_12s.jpg,0.0,Red.png,1.0,112,,,,,,,,,,,,,,,,,
0.0,1.0,0.87822,0.0,3.0,3.0,3.0,1.0,lectern_08s.jpg,0.0,Orange.png,1.0,112,,,,,,,,,,,,,,,,,
1.0,1.0,0.617535,0.0,4.0,4.0,4.0,1.0,kimono_13s.jpg,1.0,Yellow.png,1.0,112,,,,,,,,,,,,,,,,,
0.0,1.0,1.001665,0.0,5.0,5.0,5.0,1.0,doily_13s.jpg,0.0,Green.png,1.0,112,,,,,,,,,,,,,,,,,
0.0,1.0,0.836695,0.0,6.0,6.0,6.0,1.0,kimono_13s.jpg,0.0,Blue.png,2.0,112,,,,,,,,,,,,,,,,,
0.0,1.0,1.292705,0.0,7.0,7.0,7.0,1.0,razor_blade_01b.jpg,0.0,Purple.png,2.0,112,,,,,,,,,,,,,,,,,
1.0,1.0,0.620265,0.0,8.0,8.0,8.0,1.0,razor_blade_01b.jpg,1.0,Red.png,2.0,112,,,,,,,,,,,,,,,,,
0.0,1.0,0.961125,0.0,9.0,9.0,9.0,1.0,champagne_18s.jpg,0.0,Orange.png,2.0,112,,,,,,,,,,,,,,,,,
0.0,1.0,1.150385,0.0,10.0,10.0,10.0,1.0,stamp1_11s.jpg,0.0,Yellow.png,2.0,112,,,,,,,,,,,,,,,,,
1.0,1.0,1.010945,0.0,11.0,11.0,11.0,1.0,champagne_18s.jpg,1.0,Green.png,2.0,112,,,,,,,,,,,,,,,,,
0.0,1.0,1.21958,0.0,12.0,12.0,12.0,1.0,crossbow_10s.jpg,0.0,Blue.png,3.0,112,,,,,,,,,,,,,,,,,
0.0,1.0,0.804245,0.0,13.0,13.0,13.0,1.0,briefcase_03s.jpg,0.0,Purple.png,3.0,112,,,,,,,,,,,,,,,,,
0.0,1.0,1.144665,0.0,14.0,14.0,14.0,1.0,jersey_02s.jpg,0.0,Red.png,3.0,112,,,,,,,,,,,,,,,,,
1.0,1.0,0.92877,0.0,15.0,15.0,15.0,1.0,briefcase_03s.jpg,1.0,Orange.png,3.0,112,,,,,,,,,,,,,,,,,
0.0,1.0,0.93091,0.0,16.0,16.0,16.0,1.0,oil_02s.jpg,0.0,Yellow.png,3.0,112,,,,,,,,,,,,,,,,,
0.0,1.0,0.96233,0.0,17.0,17.0,17.0,1.0,tinsel_12s.jpg,0.0,Green.png,3.0,112,,,,,,,,,,,,,,,,,
0.0,1.0,0.63478,0.0,18.0,18.0,18.0,1.0,flask_04s.jpg,0.0,Blue.png,4.0,112,,,,,,,,,,,,,,,,,
0.0,1.0,0.70657,0.0,19.0,19.0,19.0,1.0,fork_04s.jpg,0.0,Purple.png,4.0,112,,,,,,,,,,,,,,,,,
0.0,1.0,0.852995,0.0,20.0,20.0,20.0,1.0,purse_05s.jpg,0.0,Red.png,4.0,112,,,,,,,,,,,,,,,,,
1.0,1.0,0.77305,0.0,21.0,21.0,21.0,1.0,flask_04s.jpg,1.0,Orange.png,4.0,112,,,,,,,,,,,,,,,,,
0.0,1.0,0.891055,0.0,22.0,22.0,22.0,1.0,sledgehammer_03s.jpg,0.0,Yellow.png,4.0,112,,,,,,,,,,,,,,,,,
0.0,1.0,1.02353,0.0,23.0,23.0,23.0,1.0,turf_03s.jpg,0.0,Green.png,4.0,112,,,,,,,,,,,,,,,,,
0.0,1.0,1.20827,0.0,24.0,24.0,24.0,1.0,omelet_07s.jpg,0.0,Blue.png,5.0,112,,,,,,,,,,,,,,,,,
0.0,1.0,0.96036,0.0,25.0,25.0,25.0,1.0,turf_03s.jpg,0.0,Purple.png,5.0,112,,,,,,,,,,,,,,,,,
0.0,1.0,0.998015,0.0,26.0,26.0,26.0,1.0,clover_04s.jpg,0.0,Red.png,5.0,112,,,,,,,,,,,,,,,,,
0.0,1.0,1.188975,0.0,27.0,27.0,27.0,1.0,lip_gloss_06s.jpg,0.0,Orange.png,5.0,112,,,,,,,,,,,,,,,,,
0.0,1.0,1.023535,0.0,28.0,28.0,28.0,1.0,amber_04s.jpg,0.0,Yellow.png,5.0,112,,,,,,,,,,,,,,,,,
0.0,1.0,1.017745,0.0,29.0,29.0,29.0,1.0,tortilla_06s.jpg,0.0,Green.png,5.0,112,,,,,,,,,,,,,,,,,
0.0,1.0,1.142925,0.0,30.0,30.0,30.0,1.0,razor_blade_01b.jpg,0.0,Blue.png,6.0,112,,,,,,,,,,,,,,,,,
0.0,1.0,0.797585,0.0,31.0,31.0,31.0,1.0,tape_measure_11s.jpg,0.0,Purple.png,6.0,112,,,,,,,,,,,,,,,,,
1.0,1.0,0.74424,0.0,32.0,32.0,32.0,1.0,razor_blade_01b.jpg,1.0,Red.png,6.0,112,,,,,,,,,,,,,,,,,
1.0,1.0,0.53855,0.0,33.0,33.0,33.0,1.0,razor_blade_01b.jpg,1.0,Orange.png,6.0,112,,,,,,,,,,,,,,,,,
0.0,1.0,0.757295,0.0,34.0,34.0,34.0,1.0,stingray_02s.jpg,0.0,Yellow.png,6.0,112,,,,,,,,,,,,,,,,,
0.0,1.0,0.991505,0.0,35.0,35.0,35.0,1.0,harpoon.jpg,0.0,Green.png,6.0,112,,,,,,,,,,,,,,,,,
,,,,,,,,,1.0,,,112,1.0,1.0,2.207635,0.0,0.0,0.0,0.0,1.0,oil_02s.jpg,fork_04s.jpg,,,,,,,
,,,,,,,,,0.0,,,112,0.0,1.0,1.211365,0.0,1.0,1.0,1.0,1.0,doily_13s.jpg,limousine_12s.jpg,,,,,,,
,,,,,,,,,0.0,,,112,0.0,1.0,2.738175,0.0,2.0,2.0,2.0,1.0,lip_gloss_06s.jpg,omelet_07s.jpg,,,,,,,
,,,,,,,,,0.0,,,112,1.0,0.0,1.774055,0.0,3.0,3.0,3.0,1.0,tape_measure_11s.jpg,amber_04s.jpg,,,,,,,
,,,,,,,,,0.0,,,112,0.0,1.0,1.00171,0.0,4.0,4.0,4.0,1.0,tortilla_06s.jpg,clover_04s.jpg,,,,,,,
,,,,,,,,,0.0,,,112,1.0,0.0,1.612755,0.0,5.0,5.0,5.0,1.0,purse_05s.jpg,tinsel_12s.jpg,,,,,,,
,,,,,,,,,,,,112,,,,,,,,,,,0.0,5.0,5.0,5.0,1.0,newclockpresent_6_4.xlsx,newclock_compare_task_6_4.xlsx
0.0,1.0,1.075335,0.0,0.0,0.0,0.0,1.0,butter_14s.jpg,0.0,Blue.png,1.0,112,,,,,,,,,,,,,,,,,
1.0,1.0,1.22035,0.0,1.0,1.0,1.0,1.0,butter_14s.jpg,1.0,Purple.png,1.0,112,,,,,,,,,,,,,,,,,
1.0,1.0,0.61824,0.0,2.0,2.0,2.0,1.0,butter_14s.jpg,1.0,Red.png,1.0,112,,,,,,,,,,,,,,,,,
0.0,1.0,0.852525,0.0,3.0,3.0,3.0,1.0,stamp2_08s.jpg,0.0,Orange.png,1.0,112,,,,,,,,,,,,,,,,,
0.0,1.0,0.8279,0.0,4.0,4.0,4.0,1.0,kangaroo_02s.jpg,0.0,Yellow.png,1.0,112,,,,,,,,,,,,,,,,,
0.0,1.0,1.004095,0.0,5.0,5.0,5.0,1.0,camcorder_10s.jpg,0.0,Green.png,1.0,112,,,,,,,,,,,,,,,,,
0.0,1.0,1.15811,0.0,6.0,6.0,6.0,1.0,bank_06s.jpg,0.0,Blue.png,2.0,112,,,,,,,,,,,,,,,,,
0.0,1.0,0.90491,0.0,7.0,7.0,7.0,1.0,gear_07s.jpg,0.0,Purple.png,2.0,112,,,,,,,,,,,,,,,,,
1.0,1.0,0.9575,0.0,8.0,8.0,8.0,1.0,bank_06s.jpg,1.0,Red.png,2.0,112,,,,,,,,,,,,,,,,,
0.0,1.0,1.235645,0.0,9.0,9.0,9.0,1.0,funnel_01b.jpg,0.0,Orange.png,2.0,112,,,,,,,,,,,,,,,,,
0.0,1.0,0.889355,0.0,10.0,10.0,10.0,1.0,poinsettia_04s.jpg,0.0,Yellow.png,2.0,112,,,,,,,,,,,,,,,,,
1.0,1.0,1.151685,0.0,11.0,11.0,11.0,1.0,funnel_01b.jpg,1.0,Green.png,2.0,112,,,,,,,,,,,,,,,,,
0.0,1.0,0.967245,0.0,12.0,12.0,12.0,1.0,rooster_03s.jpg,0.0,Blue.png,3.0,112,,,,,,,,,,,,,,,,,
0.0,1.0,0.89274,0.0,13.0,13.0,13.0,1.0,denture_03s.jpg,0.0,Purple.png,3.0,112,,,,,,,,,,,,,,,,,
0.0,1.0,0.8306,0.0,14.0,14.0,14.0,1.0,bean_06s.jpg,0.0,Red.png,3.0,112,,,,,,,,,,,,,,,,,
0.0,1.0,0.858235,0.0,15.0,15.0,15.0,1.0,mud_13s.jpg,0.0,Orange.png,3.0,112,,,,,,,,,,,,,,,,,
0.0,1.0,0.78667,0.0,16.0,16.0,16.0,1.0,keyhole_03s.jpg,0.0,Yellow.png,3.0,112,,,,,,,,,,,,,,,,,
1.0,1.0,0.891215,0.0,17.0,17.0,17.0,1.0,bean_06s.jpg,1.0,Green.png,3.0,112,,,,,,,,,,,,,,,,,
0.0,1.0,0.76251,0.0,18.0,18.0,18.0,1.0,bank_06s.jpg,0.0,Blue.png,4.0,112,,,,,,,,,,,,,,,,,
0.0,1.0,0.85773,0.0,19.0,19.0,19.0,1.0,pomegranate_04s.jpg,0.0,Purple.png,4.0,112,,,,,,,,,,,,,,,,,
0.0,1.0,1.06163,0.0,20.0,20.0,20.0,1.0,chopsticks_08s.jpg,0.0,Red.png,4.0,112,,,,,,,,,,,,,,,,,
0.0,1.0,1.06466,0.0,21.0,21.0,21.0,1.0,contact_lens_15s.jpg,0.0,Orange.png,4.0,112,,,,,,,,,,,,,,,,,
0.0,1.0,0.72924,0.0,22.0,22.0,22.0,1.0,hydrant_10s.jpg,0.0,Yellow.png,4.0,112,,,,,,,,,,,,,,,,,
0.0,1.0,0.80293,0.0,23.0,23.0,23.0,1.0,gingerbread_man_03s.jpg,0.0,Green.png,4.0,112,,,,,,,,,,,,,,,,,
0.0,1.0,0.793325,0.0,24.0,24.0,24.0,1.0,camcorder_10s.jpg,0.0,Blue.png,5.0,112,,,,,,,,,,,,,,,,,
0.0,1.0,0.79974,0.0,25.0,25.0,25.0,1.0,teabag_12s.jpg,0.0,Purple.png,5.0,112,,,,,,,,,,,,,,,,,
0.0,1.0,0.707535,0.0,26.0,26.0,26.0,1.0,radiator_05s.jpg,0.0,Red.png,5.0,112,,,,,,,,,,,,,,,,,
0.0,1.0,0.968935,0.0,27.0,27.0,27.0,1.0,punch1_10s.jpg,0.0,Orange.png,5.0,112,,,,,,,,,,,,,,,,,
0.0,1.0,0.808715,0.0,28.0,28.0,28.0,1.0,mailbox_11s.jpg,0.0,Yellow.png,5.0,112,,,,,,,,,,,,,,,,,
0.0,1.0,0.86222,0.0,29.0,29.0,29.0,1.0,beaker_01b.jpg,0.0,Green.png,5.0,112,,,,,,,,,,,,,,,,,
0.0,1.0,1.22349,0.0,30.0,30.0,30.0,1.0,mailbox_11s.jpg,0.0,Blue.png,6.0,112,,,,,,,,,,,,,,,,,
0.0,1.0,1.53025,0.0,31.0,31.0,31.0,1.0,pipe1_10s.jpg,0.0,Purple.png,6.0,112,,,,,,,,,,,,,,,,,
1.0,1.0,0.9872,0.0,32.0,32.0,32.0,1.0,mailbox_11s.jpg,1.0,Red.png,6.0,112,,,,,,,,,,,,,,,,,
1.0,1.0,0.985845,0.0,33.0,33.0,33.0,1.0,pipe1_10s.jpg,1.0,Orange.png,6.0,112,,,,,,,,,,,,,,,,,
0.0,1.0,0.943385,0.0,34.0,34.0,34.0,1.0,eyedropper_12s.jpg,0.0,Yellow.png,6.0,112,,,,,,,,,,,,,,,,,
0.0,1.0,0.984075,0.0,35.0,35.0,35.0,1.0,rhubarb_03s.jpg,0.0,Green.png,6.0,112,,,,,,,,,,,,,,,,,
,,,,,,,,,0.0,,,112,0.0,1.0,2.294555,0.0,0.0,0.0,0.0,1.0,mud_13s.jpg,rooster_03s.jpg,,,,,,,
,,,,,,,,,1.0,,,112,1.0,1.0,1.54783,0.0,1.0,1.0,1.0,1.0,chopsticks_08s.jpg,gingerbread_man_03s.jpg,,,,,,,
,,,,,,,,,0.0,,,112,0.0,1.0,3.8155,0.0,2.0,2.0,2.0,1.0,beaker_01b.jpg,radiator_05s.jpg,,,,,,,
,,,,,,,,,0.0,,,112,0.0,1.0,1.489195,0.0,3.0,3.0,3.0,1.0,teabag_12s.jpg,hydrant_10s.jpg,,,,,,,
,,,,,,,,,0.0,,,112,1.0,0.0,1.5434,0.0,4.0,4.0,4.0,1.0,denture_03s.jpg,poinsettia_04s.jpg,,,,,,,
,,,,,,,,,1.0,,,112,1.0,1.0,1.37821,0.0,5.0,5.0,5.0,1.0,kangaroo_02s.jpg,gear_07s.jpg,,,,,,,
,,,,,,,,,,,,112,,,,,,,,,,,0.0,6.0,6.0,6.0,1.0,newclockpresent_7_4.xlsx,newclock_compare_task_7_4.xlsx
0.0,1.0,0.962295,0.0,0.0,0.0,0.0,1.0,lamppost_09s.jpg,0.0,Blue.png,1.0,112,,,,,,,,,,,,,,,,,
0.0,1.0,0.967365,0.0,1.0,1.0,1.0,1.0,jewel_01b.jpg,0.0,Purple.png,1.0,112,,,,,,,,,,,,,,,,,
0.0,1.0,1.106965,0.0,2.0,2.0,2.0,1.0,tuxedo_01b.jpg,0.0,Red.png,1.0,112,,,,,,,,,,,,,,,,,
0.0,1.0,0.753805,0.0,3.0,3.0,3.0,1.0,flip_flop_03s.jpg,0.0,Orange.png,1.0,112,,,,,,,,,,,,,,,,,
0.0,1.0,0.86595,0.0,4.0,4.0,4.0,1.0,medal_04s.jpg,0.0,Yellow.png,1.0,112,,,,,,,,,,,,,,,,,
1.0,1.0,1.19799,0.0,5.0,5.0,5.0,1.0,flip_flop_03s.jpg,1.0,Green.png,1.0,112,,,,,,,,,,,,,,,,,
0.0,1.0,0.72796,0.0,6.0,6.0,6.0,1.0,tuxedo_01b.jpg,0.0,Blue.png,2.0,112,,,,,,,,,,,,,,,,,
0.0,1.0,0.943705,0.0,7.0,7.0,7.0,1.0,flip_flop_03s.jpg,0.0,Purple.png,2.0,112,,,,,,,,,,,,,,,,,
0.0,1.0,1.01343,0.0,8.0,8.0,8.0,1.0,fireworks_18s.jpg,0.0,Red.png,2.0,112,,,,,,,,,,,,,,,,,
0.0,1.0,0.86547,0.0,9.0,9.0,9.0,1.0,squirt_gun_03s.jpg,0.0,Orange.png,2.0,112,,,,,,,,,,,,,,,,,
1.0,1.0,1.23686,0.0,10.0,10.0,10.0,1.0,flip_flop_03s.jpg,1.0,Yellow.png,2.0,112,,,,,,,,,,,,,,,,,
0.0,1.0,1.03651,0.0,11.0,11.0,11.0,1.0,puffin_19s.jpg,0.0,Green.png,2.0,112,,,,,,,,,,,,,,,,,
0.0,1.0,0.859805,0.0,12.0,12.0,12.0,1.0,tuxedo_01b.jpg,0.0,Blue.png,3.0,112,,,,,,,,,,,,,,,,,
1.0,1.0,1.014065,0.0,13.0,13.0,13.0,1.0,tuxedo_01b.jpg,1.0,Purple.png,3.0,112,,,,,,,,,,,,,,,,,
0.0,1.0,0.73731,0.0,14.0,14.0,14.0,1.0,snowman_02s.jpg,0.0,Red.png,3.0,112,,,,,,,,,,,,,,,,,
0.0,1.0,0.844885,0.0,15.0,15.0,15.0,1.0,cucumber_07s.jpg,0.0,Orange.png,3.0,112,,,,,,,,,,,,,,,,,
0.0,1.0,0.883245,0.0,16.0,16.0,16.0,1.0,plug_08s.jpg,0.0,Yellow.png,3.0,112,,,,,,,,,,,,,,,,,
1.0,1.0,0.739665,0.0,17.0,17.0,17.0,1.0,cucumber_07s.jpg,1.0,Green.png,3.0,112,,,,,,,,,,,,,,,,,
0.0,1.0,0.641085,0.0,18.0,18.0,18.0,1.0,puffin_19s.jpg,0.0,Blue.png,4.0,112,,,,,,,,,,,,,,,,,
0.0,1.0,0.83472,0.0,19.0,19.0,19.0,1.0,fondue_07s.jpg,0.0,Purple.png,4.0,112,,,,,,,,,,,,,,,,,
0.0,1.0,0.86559,0.0,20.0,20.0,20.0,1.0,lasagna_06s.jpg,0.0,Red.png,4.0,112,,,,,,,,,,,,,,,,,
0.0,1.0,0.87464,0.0,21.0,21.0,21.0,1.0,eiffeltower.jpg,0.0,Orange.png,4.0,112,,,,,,,,,,,,,,,,,
0.0,1.0,0.799555,0.0,22.0,22.0,22.0,1.0,outlet_10s.jpg,0.0,Yellow.png,4.0,112,,,,,,,,,,,,,,,,,
0.0,1.0,0.907575,0.0,23.0,23.0,23.0,1.0,cape_11s.jpg,0.0,Green.png,4.0,112,,,,,,,,,,,,,,,,,
0.0,1.0,0.7959,0.0,24.0,24.0,24.0,1.0,marshmallow_08s.jpg,0.0,Blue.png,5.0,112,,,,,,,,,,,,,,,,,
0.0,1.0,1.44302,0.0,25.0,25.0,25.0,1.0,racehorse_03s.jpg,0.0,Purple.png,5.0,112,,,,,,,,,,,,,,,,,
0.0,1.0,1.033125,0.0,26.0,26.0,26.0,1.0,aluminum_foil_08s.jpg,0.0,Red.png,5.0,112,,,,,,,,,,,,,,,,,
0.0,1.0,0.89863,0.0,27.0,27.0,27.0,1.0,spoon02a.jpg,0.0,Orange.png,5.0,112,,,,,,,,,,,,,,,,,
0.0,1.0,0.94941,0.0,28.0,28.0,28.0,1.0,padlock_07s.jpg,0.0,Yellow.png,5.0,112,,,,,,,,,,,,,,,,,
0.0,1.0,0.933665,0.0,29.0,29.0,29.0,1.0,solar_panel_02s.jpg,0.0,Green.png,5.0,112,,,,,,,,,,,,,,,,,
0.0,1.0,0.902295,0.0,30.0,30.0,30.0,1.0,turtleneck_11s.jpg,0.0,Blue.png,6.0,112,,,,,,,,,,,,,,,,,
0.0,1.0,1.04712,0.0,31.0,31.0,31.0,1.0,pocketknife_12s.jpg,0.0,Purple.png,6.0,112,,,,,,,,,,,,,,,,,
1.0,1.0,0.73315,0.0,32.0,32.0,32.0,1.0,pocketknife_12s.jpg,1.0,Red.png,6.0,112,,,,,,,,,,,,,,,,,
0.0,1.0,0.85584,0.0,33.0,33.0,33.0,1.0,quill_09s.jpg,0.0,Orange.png,6.0,112,,,,,,,,,,,,,,,,,
1.0,1.0,0.59362,0.0,34.0,34.0,34.0,1.0,quill_09s.jpg,1.0,Yellow.png,6.0,112,,,,,,,,,,,,,,,,,
1.0,1.0,0.776705,0.0,35.0,35.0,35.0,1.0,pocketknife_12s.jpg,1.0,Green.png,6.0,112,,,,,,,,,,,,,,,,,
,,,,,,,,,0.0,,,112,0.0,1.0,2.081795,0.0,0.0,0.0,0.0,1.0,cape_11s.jpg,lasagna_06s.jpg,,,,,,,
,,,,,,,,,0.0,,,112,0.0,1.0,1.440015,0.0,1.0,1.0,1.0,1.0,padlock_07s.jpg,racehorse_03s.jpg,,,,,,,
,,,,,,,,,1.0,,,112,1.0,1.0,1.37974,0.0,2.0,2.0,2.0,1.0,spoon02a.jpg,turtleneck_11s.jpg,,,,,,,
,,,,,,,,,0.0,,,112,1.0,0.0,1.591285,0.0,3.0,3.0,3.0,1.0,marshmallow_08s.jpg,eiffeltower.jpg,,,,,,,
,,,,,,,,,0.0,,,112,0.0,1.0,2.040525,0.0,4.0,4.0,4.0,1.0,medal_04s.jpg,jewel_01b.jpg,,,,,,,
,,,,,,,,,1.0,,,112,1.0,1.0,2.82967,0.0,5.0,5.0,5.0,1.0,plug_08s.jpg,fondue_07s.jpg,,,,,,,
,,,,,,,,,,,,112,,,,,,,,,,,0.0,7.0,7.0,7.0,1.0,newclockpresent_8_4.xlsx,newclock_compare_task_8_4.xlsx
0.0,1.0,1.109355,0.0,0.0,0.0,0.0,1.0,footprint_11s.jpg,0.0,Blue.png,1.0,112,,,,,,,,,,,,,,,,,
0.0,1.0,0.981195,0.0,1.0,1.0,1.0,1.0,coffee_filter_10s.jpg,0.0,Purple.png,1.0,112,,,,,,,,,,,,,,,,,
1.0,1.0,0.748845,0.0,2.0,2.0,2.0,1.0,coffee_filter_10s.jpg,1.0,Red.png,1.0,112,,,,,,,,,,,,,,,,,
1.0,1.0,0.923825,0.0,3.0,3.0,3.0,1.0,coffee_filter_10s.jpg,1.0,Orange.png,1.0,112,,,,,,,,,,,,,,,,,
1.0,1.0,0.753865,0.0,4.0,4.0,4.0,1.0,coffee_filter_10s.jpg,1.0,Yellow.png,1.0,112,,,,,,,,,,,,,,,,,
0.0,1.0,1.058695,0.0,5.0,5.0,5.0,1.0,gargoyle_08s.jpg,0.0,Green.png,1.0,112,,,,,,,,,,,,,,,,,
0.0,1.0,1.02553,0.0,6.0,6.0,6.0,1.0,candy_cane_06s.jpg,0.0,Blue.png,2.0,112,,,,,,,,,,,,,,,,,
0.0,1.0,0.941245,0.0,7.0,7.0,7.0,1.0,toad_09s.jpg,0.0,Purple.png,2.0,112,,,,,,,,,,,,,,,,,
0.0,0.0,0.856155,0.0,8.0,8.0,8.0,1.0,candy_cane_06s.jpg,1.0,Red.png,2.0,112,,,,,,,,,,,,,,,,,
,0.0,,0.0,9.0,9.0,9.0,1.0,pumpkin_03s.jpg,0.0,Orange.png,2.0,112,,,,,,,,,,,,,,,,,
0.0,1.0,1.21603,0.0,10.0,10.0,10.0,1.0,dashboard_02s.jpg,0.0,Yellow.png,2.0,112,,,,,,,,,,,,,,,,,
0.0,1.0,0.905565,0.0,11.0,11.0,11.0,1.0,syringe_02s.jpg,0.0,Green.png,2.0,112,,,,,,,,,,,,,,,,,
0.0,1.0,1.07545,0.0,12.0,12.0,12.0,1.0,powder_07s.jpg,0.0,Blue.png,3.0,112,,,,,,,,,,,,,,,,,
1.0,1.0,0.95878,0.0,13.0,13.0,13.0,1.0,powder_07s.jpg,1.0,Purple.png,3.0,112,,,,,,,,,,,,,,,,,
1.0,1.0,0.804225,0.0,14.0,14.0,14.0,1.0,powder_07s.jpg,1.0,Red.png,3.0,112,,,,,,,,,,,,,,,,,
0.0,1.0,1.156235,0.0,15.0,15.0,15.0,1.0,sea_urchin_09s.jpg,0.0,Orange.png,3.0,112,,,,,,,,,,,,,,,,,
0.0,1.0,0.885895,0.0,16.0,16.0,16.0,1.0,throne_11s.jpg,0.0,Yellow.png,3.0,112,,,,,,,,,,,,,,,,,
1.0,1.0,0.81801,0.0,17.0,17.0,17.0,1.0,powder_07s.jpg,1.0,Green.png,3.0,112,,,,,,,,,,,,,,,,,
0.0,1.0,1.00544,0.0,18.0,18.0,18.0,1.0,chalice_10s.jpg,0.0,Blue.png,4.0,112,,,,,,,,,,,,,,,,,
0.0,1.0,1.003675,0.0,19.0,19.0,19.0,1.0,air_pump_05s.jpg,0.0,Purple.png,4.0,112,,,,,,,,,,,,,,,,,
0.0,1.0,0.9196,0.0,20.0,20.0,20.0,1.0,microwave_02s.jpg,0.0,Red.png,4.0,112,,,,,,,,,,,,,,,,,
0.0,1.0,1.02274,0.0,21.0,21.0,21.0,1.0,cereal_04s.jpg,0.0,Orange.png,4.0,112,,,,,,,,,,,,,,,,,
0.0,1.0,0.893445,0.0,22.0,22.0,22.0,1.0,mushroom_10n.jpg,0.0,Yellow.png,4.0,112,,,,,,,,,,,,,,,,,
0.0,1.0,0.92566,0.0,23.0,23.0,23.0,1.0,red_carpet_03s.jpg,0.0,Green.png,4.0,112,,,,,,,,,,,,,,,,,
0.0,1.0,0.984545,0.0,24.0,24.0,24.0,1.0,throne_11s.jpg,0.0,Blue.png,5.0,112,,,,,,,,,,,,,,,,,
0.0,1.0,0.711625,0.0,25.0,25.0,25.0,1.0,koala_13s.jpg,0.0,Purple.png,5.0,112,,,,,,,,,,,,,,,,,
0.0,0.0,0.66744,0.0,26.0,26.0,26.0,1.0,throne_11s.jpg,1.0,Red.png,5.0,112,,,,,,,,,,,,,,,,,
0.0,1.0,1.201145,0.0,27.0,27.0,27.0,1.0,rocket_02s.jpg,0.0,Orange.png,5.0,112,,,,,,,,,,,,,,,,,
0.0,1.0,1.074275,0.0,28.0,28.0,28.0,1.0,swordfish_05s.jpg,0.0,Yellow.png,5.0,112,,,,,,,,,,,,,,,,,
1.0,1.0,0.866765,0.0,29.0,29.0,29.0,1.0,rocket_02s.jpg,1.0,Green.png,5.0,112,,,,,,,,,,,,,,,,,
0.0,1.0,1.29611,0.0,30.0,30.0,30.0,1.0,icicle_04s.jpg,0.0,Blue.png,6.0,112,,,,,,,,,,,,,,,,,
0.0,1.0,0.74877,0.0,31.0,31.0,31.0,1.0,keyboard_05s.jpg,0.0,Purple.png,6.0,112,,,,,,,,,,,,,,,,,
0.0,1.0,1.05699,0.0,32.0,32.0,32.0,1.0,pocket_watch_16s.jpg,0.0,Red.png,6.0,112,,,,,,,,,,,,,,,,,
0.0,1.0,0.974365,0.0,33.0,33.0,33.0,1.0,tablet_04s.jpg,0.0,Orange.png,6.0,112,,,,,,,,,,,,,,,,,
0.0,1.0,1.29831,0.0,34.0,34.0,34.0,1.0,chocolate_01b.jpg,0.0,Yellow.png,6.0,112,,,,,,,,,,,,,,,,,
0.0,1.0,1.021655,0.0,35.0,35.0,35.0,1.0,light_switch_02s.jpg,0.0,Green.png,6.0,112,,,,,,,,,,,,,,,,,
,,,,,,,,,0.0,,,112,1.0,0.0,4.470675,0.0,0.0,0.0,0.0,1.0,chalice_10s.jpg,sea_urchin_09s.jpg,,,,,,,
,,,,,,,,,1.0,,,112,1.0,1.0,2.758425,0.0,1.0,1.0,1.0,1.0,swordfish_05s.jpg,keyboard_05s.jpg,,,,,,,
,,,,,,,,,0.0,,,112,0.0,1.0,1.66046,0.0,2.0,2.0,2.0,1.0,red_carpet_03s.jpg,microwave_02s.jpg,,,,,,,
,,,,,,,,,0.0,,,112,0.0,1.0,1.063685,0.0,3.0,3.0,3.0,1.0,dashboard_02s.jpg,toad_09s.jpg,,,,,,,
,,,,,,,,,0.0,,,112,0.0,1.0,1.8416,0.0,4.0,4.0,4.0,1.0,koala_13s.jpg,mushroom_10n.jpg,,,,,,,
,,,,,,,,,1.0,,,112,1.0,1.0,1.717055,0.0,5.0,5.0,5.0,1.0,icicle_04s.jpg,tablet_04s.jpg,,,,,,,
,,,,,,,,,,,,112,,,,,,,,,,,0.0,8.0,8.0,8.0,1.0,newclockpresent_9_4.xlsx,newclock_compare_task_9_4.xlsx
