key_resp.keys,key_resp.corr,key_resp.rt,present_segment.thisRepN,present_segment.thisTrialN,present_segment.thisN,present_segment.thisIndex,present_segment.ran,pictures,answer,clock,segment,participant,key_resp_2.keys,key_resp_2.corr,key_resp_2.rt,compare_segment.thisRepN,compare_segment.thisTrialN,compare_segment.thisN,compare_segment.thisIndex,compare_segment.ran,item_a,item_b,clock_conditions.thisRepN,clock_conditions.thisTrialN,clock_conditions.thisN,clock_conditions.thisIndex,clock_conditions.ran,present,compare
0.0,1.0,0.88845,0.0,0.0,0.0,0.0,1.0,mailbox_11s.jpg,0.0,Blue.png,1.0,98,,,,,,,,,,,,,,,,,
1.0,0.0,1.438765,0.0,1.0,1.0,1.0,1.0,mailbox_11s.jpg,0.0,Purple.png,1.0,98,,,,,,,,,,,,,,,,,
0.0,1.0,0.78747,0.0,2.0,2.0,2.0,1.0,checkbook_11s.jpg,0.0,Red.png,1.0,98,,,,,,,,,,,,,,,,,
0.0,1.0,0.670665,0.0,3.0,3.0,3.0,1.0,rocking_chair_05s.jpg,0.0,Orange.png,1.0,98,,,,,,,,,,,,,,,,,
1.0,1.0,1.02159,0.0,4.0,4.0,4.0,1.0,checkbook_11s.jpg,1.0,Yellow.png,1.0,98,,,,,,,,,,,,,,,,,
1.0,1.0,1.222865,0.0,5.0,5.0,5.0,1.0,rocking_chair_05s.jpg,1.0,Green.png,1.0,98,,,,,,,,,,,,,,,,,
0.0,1.0,0.83753,0.0,6.0,6.0,6.0,1.0,eggshell_14s.jpg,0.0,Blue.png,2.0,98,,,,,,,,,,,,,,,,,
1.0,1.0,0.880605,0.0,7.0,7.0,7.0,1.0,rocking_chair_05s.jpg,1.0,Purple.png,2.0,98,,,,,,,,,,,,,,,,,
0.0,1.0,0.662025,0.0,8.0,8.0,8.0,1.0,powder_07s.jpg,0.0,Red.png,2.0,98,,,,,,,,,,,,,,,,,
0.0,1.0,0.77346,0.0,9.0,9.0,9.0,1.0,meatball_13s.jpg,0.0,Orange.png,2.0,98,,,,,,,,,,,,,,,,,
0.0,1.0,0.74732,0.0,10.0,10.0,10.0,1.0,rolling_pin_02s.jpg,0.0,Yellow.png,2.0,98,,,,,,,,,,,,,,,,,
0.0,1.0,0.56055,0.0,11.0,11.0,11.0,1.0,gingerbread_man_03s.jpg,0.0,Green.png,2.0,98,,,,,,,,,,,,,,,,,
1.0,0.0,0.76276,0.0,12.0,12.0,12.0,1.0,rocking_chair_05s.jpg,0.0,Blue.png,3.0,98,,,,,,,,,,,,,,,,,
0.0,1.0,1.248,0.0,13.0,13.0,13.0,1.0,bowler_hat_10s.jpg,0.0,Purple.png,3.0,98,,,,,,,,,,,,,,,,,
1.0,1.0,0.881095,0.0,14.0,14.0,14.0,1.0,rocking_chair_05s.jpg,1.0,Red.png,3.0,98,,,,,,,,,,,,,,,,,
1.0,0.0,0.813695,0.0,15.0,15.0,15.0,1.0,rocking_chair_05s.jpg,0.0,Orange.png,3.0,98,,,,,,,,,,,,,,,,,
1.0,1.0,0.663065,0.0,16.0,16.0,16.0,1.0,rocking_chair_05s.jpg,1.0,Yellow.png,3.0,98,,,,,,,,,,,,,,,,,
0.0,1.0,0.747435,0.0,17.0,17.0,17.0,1.0,projector_08s.jpg,0.0,Green.png,3.0,98,,,,,,,,,,,,,,,,,
1.0,0.0,0.947755,0.0,18.0,18.0,18.0,1.0,checkbook_11s.jpg,0.0,Blue.png,4.0,98,,,,,,,,,,,,,,,,,
1.0,0.0,0.832585,0.0,19.0,19.0,19.0,1.0,checkbook_11s.jpg,0.0,Purple.png,4.0,98,,,,,,,,,,,,,,,,,
0.0,1.0,0.666485,0.0,20.0,20.0,20.0,1.0,crab_16s.jpg,0.0,Red.png,4.0,98,,,,,,,,,,,,,,,,,
1.0,1.0,0.71406,0.0,21.0,21.0,21.0,1.0,checkbook_11s.jpg,1.0,Orange.png,4.0,98,,,,,,,,,,,,,,,,,
0.0,1.0,0.69588,0.0,22.0,22.0,22.0,1.0,peanut_butter_08s.jpg,0.0,Yellow.png,4.0,98,,,,,,,,,,,,,,,,,
0.0,1.0,0.846925,0.0,23.0,23.0,23.0,1.0,breadstick_08s.jpg,0.0,Green.png,4.0,98,,,,,,,,,,,,,,,,,
0.0,1.0,0.629705,0.0,24.0,24.0,24.0,1.0,stethoscope_01b.jpg,0.0,Blue.png,5.0,98,,,,,,,,,,,,,,,,,
0.0,1.0,0.632825,0.0,25.0,25.0,25.0,1.0,pineapple_12s.jpg,0.0,Purple.png,5.0,98,,,,,,,,,,,,,,,,,
1.0,1.0,0.949835,0.0,26.0,26.0,26.0,1.0,stethoscope_01b.jpg,1.0,Red.png,5.0,98,,,,,,,,,,,,,,,,,
1.0,1.0,0.699625,0.0,27.0,27.0,27.0,1.0,pineapple_12s.jpg,1.0,Orange.png,5.0,98,,,,,,,,,,,,,,,,,
0.0,1.0,0.72945,0.0,28.0,28.0,28.0,1.0,air_pump_05s.jpg,0.0,Yellow.png,5.0,98,,,,,,,,,,,,,,,,,
0.0,1.0,0.712845,0.0,29.0,29.0,29.0,1.0,birdcage_08s.jpg,0.0,Green.png,5.0,98,,,,,,,,,,,,,,,,,
0.0,1.0,0.716245,0.0,30.0,30.0,30.0,1.0,kangaroo_02s.jpg,0.0,Blue.png,6.0,98,,,,,,,,,,,,,,,,,
0.0,1.0,0.663125,0.0,31.0,31.0,31.0,1.0,juicer2_06s.jpg,0.0,Purple.png,6.0,98,,,,,,,,,,,,,,,,,
0.0,1.0,0.91487,0.0,32.0,32.0,32.0,1.0,harpoon.jpg,0.0,Red.png,6.0,98,,,,,,,,,,,,,,,,,
0.0,1.0,0.646885,0.0,33.0,33.0,33.0,1.0,mirror_12s.jpg,0.0,Orange.png,6.0,98,,,,,,,,,,,,,,,,,
0.0,1.0,0.679315,0.0,34.0,34.0,34.0,1.0,gear_07s.jpg,0.0,Yellow.png,6.0,98,,,,,,,,,,,,,,,,,
0.0,1.0,0.69647,0.0,35.0,35.0,35.0,1.0,timer_03s.jpg,0.0,Green.png,6.0,98,,,,,,,,,,,,,,,,,
,,,,,,,,,1.0,,,98,0.0,0.0,2.29472,0.0,0.0,0.0,0.0,1.0,powder_07s.jpg,gingerbread_man_03s.jpg,,,,,,,
,,,,,,,,,1.0,,,98,1.0,1.0,1.789265,0.0,1.0,1.0,1.0,1.0,air_pump_05s.jpg,juicer2_06s.jpg,,,,,,,
,,,,,,,,,0.0,,,98,1.0,0.0,1.471335,0.0,2.0,2.0,2.0,1.0,crab_16s.jpg,projector_08s.jpg,,,,,,,
,,,,,,,,,0.0,,,98,0.0,1.0,1.15548,0.0,3.0,3.0,3.0,1.0,mirror_12s.jpg,kangaroo_02s.jpg,,,,,,,
,,,,,,,,,0.0,,,98,1.0,0.0,2.24309,0.0,4.0,4.0,4.0,1.0,bowler_hat_10s.jpg,rolling_pin_02s.jpg,,,,,,,
,,,,,,,,,1.0,,,98,1.0,1.0,2.02312,0.0,5.0,5.0,5.0,1.0,eggshell_14s.jpg,meatball_13s.jpg,,,,,,,
,,,,,,,,,,,,98,,,,,,,,,,,0.0,0.0,0.0,0.0,1.0,new2backpresent_1_1.xlsx,new2back_compare_task_1_1.xlsx
0.0,1.0,1.93392,0.0,0.0,0.0,0.0,1.0,trident_07s.jpg,0.0,Blue.png,1.0,98,,,,,,,,,,,,,,,,,
0.0,1.0,0.84815,0.0,1.0,1.0,1.0,1.0,rosary_03s.jpg,0.0,Purple.png,1.0,98,,,,,,,,,,,,,,,,,
0.0,1.0,1.266915,0.0,2.0,2.0,2.0,1.0,toilet_paper_12s.jpg,0.0,Red.png,1.0,98,,,,,,,,,,,,,,,,,
1.0,1.0,0.93123,0.0,3.0,3.0,3.0,1.0,rosary_03s.jpg,1.0,Orange.png,1.0,98,,,,,,,,,,,,,,,,,
1.0,1.0,0.897325,0.0,4.0,4.0,4.0,1.0,toilet_paper_12s.jpg,1.0,Yellow.png,1.0,98,,,,,,,,,,,,,,,,,
0.0,1.0,0.7494,0.0,5.0,5.0,5.0,1.0,potpourri_03s.jpg,0.0,Green.png,1.0,98,,,,,,,,,,,,,,,,,
0.0,1.0,0.848965,0.0,6.0,6.0,6.0,1.0,rocket_02s.jpg,0.0,Blue.png,2.0,98,,,,,,,,,,,,,,,,,
0.0,1.0,0.712385,0.0,7.0,7.0,7.0,1.0,piano_13n.jpg,0.0,Purple.png,2.0,98,,,,,,,,,,,,,,,,,
1.0,1.0,0.81565,0.0,8.0,8.0,8.0,1.0,rocket_02s.jpg,1.0,Red.png,2.0,98,,,,,,,,,,,,,,,,,
1.0,0.0,0.96537,0.0,9.0,9.0,9.0,1.0,rocket_02s.jpg,0.0,Orange.png,2.0,98,,,,,,,,,,,,,,,,,
0.0,1.0,0.86716,0.0,10.0,10.0,10.0,1.0,umbrella_15s.jpg,0.0,Yellow.png,2.0,98,,,,,,,,,,,,,,,,,
0.0,1.0,0.864295,0.0,11.0,11.0,11.0,1.0,touchpad_11s.jpg,0.0,Green.png,2.0,98,,,,,,,,,,,,,,,,,
1.0,0.0,0.78657,0.0,12.0,12.0,12.0,1.0,rocket_02s.jpg,0.0,Blue.png,3.0,98,,,,,,,,,,,,,,,,,
1.0,0.0,0.71274,0.0,13.0,13.0,13.0,1.0,rocket_02s.jpg,0.0,Purple.png,3.0,98,,,,,,,,,,,,,,,,,
1.0,1.0,0.91787,0.0,14.0,14.0,14.0,1.0,rocket_02s.jpg,1.0,Red.png,3.0,98,,,,,,,,,,,,,,,,,
0.0,1.0,1.051895,0.0,15.0,15.0,15.0,1.0,roller_coaster_07s.jpg,0.0,Orange.png,3.0,98,,,,,,,,,,,,,,,,,
0.0,1.0,0.91501,0.0,16.0,16.0,16.0,1.0,torch_02s.jpg,0.0,Yellow.png,3.0,98,,,,,,,,,,,,,,,,,
0.0,1.0,0.848495,0.0,17.0,17.0,17.0,1.0,lion_18s.jpg,0.0,Green.png,3.0,98,,,,,,,,,,,,,,,,,
0.0,1.0,0.64678,0.0,18.0,18.0,18.0,1.0,microwave_02s.jpg,0.0,Blue.png,4.0,98,,,,,,,,,,,,,,,,,
0.0,1.0,0.802225,0.0,19.0,19.0,19.0,1.0,denture_03s.jpg,0.0,Purple.png,4.0,98,,,,,,,,,,,,,,,,,
0.0,1.0,0.81481,0.0,20.0,20.0,20.0,1.0,fur_coat_11s.jpg,0.0,Red.png,4.0,98,,,,,,,,,,,,,,,,,
0.0,1.0,0.880285,0.0,21.0,21.0,21.0,1.0,pepper_mill_03s.jpg,0.0,Orange.png,4.0,98,,,,,,,,,,,,,,,,,
0.0,1.0,0.764685,0.0,22.0,22.0,22.0,1.0,antenna_01b.jpg,0.0,Yellow.png,4.0,98,,,,,,,,,,,,,,,,,
1.0,1.0,0.83249,0.0,23.0,23.0,23.0,1.0,pepper_mill_03s.jpg,1.0,Green.png,4.0,98,,,,,,,,,,,,,,,,,
1.0,0.0,0.99928,0.0,24.0,24.0,24.0,1.0,touchpad_11s.jpg,0.0,Blue.png,5.0,98,,,,,,,,,,,,,,,,,
0.0,1.0,0.882705,0.0,25.0,25.0,25.0,1.0,otter_05s.jpg,0.0,Purple.png,5.0,98,,,,,,,,,,,,,,,,,
0.0,1.0,0.840075,0.0,26.0,26.0,26.0,1.0,squirt_gun_03s.jpg,0.0,Red.png,5.0,98,,,,,,,,,,,,,,,,,
1.0,1.0,0.719915,0.0,27.0,27.0,27.0,1.0,otter_05s.jpg,1.0,Orange.png,5.0,98,,,,,,,,,,,,,,,,,
1.0,0.0,0.943555,0.0,28.0,28.0,28.0,1.0,touchpad_11s.jpg,0.0,Yellow.png,5.0,98,,,,,,,,,,,,,,,,,
1.0,0.0,0.817175,0.0,29.0,29.0,29.0,1.0,touchpad_11s.jpg,0.0,Green.png,5.0,98,,,,,,,,,,,,,,,,,
0.0,1.0,0.815165,0.0,30.0,30.0,30.0,1.0,kayak_08s.jpg,0.0,Blue.png,6.0,98,,,,,,,,,,,,,,,,,
0.0,1.0,0.882225,0.0,31.0,31.0,31.0,1.0,mascara_03s.jpg,0.0,Purple.png,6.0,98,,,,,,,,,,,,,,,,,
0.0,1.0,0.71447,0.0,32.0,32.0,32.0,1.0,ink_08s.jpg,0.0,Red.png,6.0,98,,,,,,,,,,,,,,,,,
1.0,0.0,1.11602,0.0,33.0,33.0,33.0,1.0,kayak_08s.jpg,0.0,Orange.png,6.0,98,,,,,,,,,,,,,,,,,
0.0,1.0,0.696795,0.0,34.0,34.0,34.0,1.0,towel_rack_04s.jpg,0.0,Yellow.png,6.0,98,,,,,,,,,,,,,,,,,
0.0,1.0,0.713495,0.0,35.0,35.0,35.0,1.0,jewel_01b.jpg,0.0,Green.png,6.0,98,,,,,,,,,,,,,,,,,
,,,,,,,,,1.0,,,98,1.0,1.0,1.413595,0.0,0.0,0.0,0.0,1.0,torch_02s.jpg,denture_03s.jpg,,,,,,,
,,,,,,,,,0.0,,,98,0.0,1.0,1.33604,0.0,1.0,1.0,1.0,1.0,towel_rack_04s.jpg,mascara_03s.jpg,,,,,,,
,,,,,,,,,1.0,,,98,0.0,0.0,1.85586,0.0,2.0,2.0,2.0,1.0,piano_13n.jpg,umbrella_15s.jpg,,,,,,,
,,,,,,,,,0.0,,,98,0.0,1.0,1.35584,0.0,3.0,3.0,3.0,1.0,fur_coat_11s.jpg,lion_18s.jpg,,,,,,,
,,,,,,,,,1.0,,,98,1.0,1.0,1.320555,0.0,4.0,4.0,4.0,1.0,roller_coaster_07s.jpg,microwave_02s.jpg,,,,,,,
,,,,,,,,,1.0,,,98,1.0,1.0,1.54802,0.0,5.0,5.0,5.0,1.0,ink_08s.jpg,jewel_01b.jpg,,,,,,,
,,,,,,,,,,,,98,,,,,,,,,,,0.0,1.0,1.0,1.0,1.0,new2backpresent_2_1.xlsx,new2back_compare_task_2_1.xlsx
0.0,1.0,1.17041,0.0,0.0,0.0,0.0,1.0,icemaker_10s.jpg,0.0,Blue.png,1.0,98,,,,,,,,,,,,,,,,,
0.0,1.0,1.04575,0.0,1.0,1.0,1.0,1.0,icemaker_10s.jpg,0.0,Purple.png,1.0,98,,,,,,,,,,,,,,,,,
0.0,1.0,1.835195,0.0,2.0,2.0,2.0,1.0,tile_08s.jpg,0.0,Red.png,1.0,98,,,,,,,,,,,,,,,,,
0.0,1.0,0.91343,0.0,3.0,3.0,3.0,1.0,fossil_06s.jpg,0.0,Orange.png,1.0,98,,,,,,,,,,,,,,,,,
1.0,0.0,1.01492,0.0,4.0,4.0,4.0,1.0,fossil_06s.jpg,0.0,Yellow.png,1.0,98,,,,,,,,,,,,,,,,,
0.0,1.0,0.65036,0.0,5.0,5.0,5.0,1.0,ravioli_08s.jpg,0.0,Green.png,1.0,98,,,,,,,,,,,,,,,,,
0.0,1.0,0.56431,0.0,6.0,6.0,6.0,1.0,top_hat_11s.jpg,0.0,Blue.png,2.0,98,,,,,,,,,,,,,,,,,
0.0,1.0,0.64985,0.0,7.0,7.0,7.0,1.0,raccoon_02s.jpg,0.0,Purple.png,2.0,98,,,,,,,,,,,,,,,,,
0.0,1.0,0.613325,0.0,8.0,8.0,8.0,1.0,snowman_02s.jpg,0.0,Red.png,2.0,98,,,,,,,,,,,,,,,,,
0.0,1.0,0.73005,0.0,9.0,9.0,9.0,1.0,peach_04s.jpg,0.0,Orange.png,2.0,98,,,,,,,,,,,,,,,,,
0.0,1.0,0.88267,0.0,10.0,10.0,10.0,1.0,beard_16s.jpg,0.0,Yellow.png,2.0,98,,,,,,,,,,,,,,,,,
0.0,1.0,0.713245,0.0,11.0,11.0,11.0,1.0,rollerskate_03s.jpg,0.0,Green.png,2.0,98,,,,,,,,,,,,,,,,,
0.0,1.0,0.931265,0.0,12.0,12.0,12.0,1.0,mango_09s.jpg,0.0,Blue.png,3.0,98,,,,,,,,,,,,,,,,,
1.0,0.0,1.047225,0.0,13.0,13.0,13.0,1.0,mango_09s.jpg,0.0,Purple.png,3.0,98,,,,,,,,,,,,,,,,,
0.0,1.0,0.765885,0.0,14.0,14.0,14.0,1.0,magnet_03s.jpg,0.0,Red.png,3.0,98,,,,,,,,,,,,,,,,,
1.0,1.0,0.776805,0.0,15.0,15.0,15.0,1.0,mango_09s.jpg,1.0,Orange.png,3.0,98,,,,,,,,,,,,,,,,,
1.0,0.0,1.11487,0.0,16.0,16.0,16.0,1.0,mango_09s.jpg,0.0,Yellow.png,3.0,98,,,,,,,,,,,,,,,,,
1.0,1.0,0.76561,0.0,17.0,17.0,17.0,1.0,mango_09s.jpg,1.0,Green.png,3.0,98,,,,,,,,,,,,,,,,,
0.0,1.0,0.76271,0.0,18.0,18.0,18.0,1.0,punch2_09s.jpg,0.0,Blue.png,4.0,98,,,,,,,,,,,,,,,,,
0.0,1.0,1.047345,0.0,19.0,19.0,19.0,1.0,jelly_bean_06s.jpg,0.0,Purple.png,4.0,98,,,,,,,,,,,,,,,,,
1.0,1.0,0.82808,0.0,20.0,20.0,20.0,1.0,punch2_09s.jpg,1.0,Red.png,4.0,98,,,,,,,,,,,,,,,,,
1.0,1.0,0.882005,0.0,21.0,21.0,21.0,1.0,jelly_bean_06s.jpg,1.0,Orange.png,4.0,98,,,,,,,,,,,,,,,,,
1.0,0.0,0.95878,0.0,22.0,22.0,22.0,1.0,jelly_bean_06s.jpg,0.0,Yellow.png,4.0,98,,,,,,,,,,,,,,,,,
0.0,1.0,0.715235,0.0,23.0,23.0,23.0,1.0,typewriter_11s.jpg,0.0,Green.png,4.0,98,,,,,,,,,,,,,,,,,
1.0,0.0,1.116095,0.0,24.0,24.0,24.0,1.0,icemaker_10s.jpg,0.0,Blue.png,5.0,98,,,,,,,,,,,,,,,,,
1.0,1.0,0.895885,0.0,25.0,25.0,25.0,1.0,typewriter_11s.jpg,1.0,Purple.png,5.0,98,,,,,,,,,,,,,,,,,
0.0,1.0,0.799215,0.0,26.0,26.0,26.0,1.0,key_07s.jpg,0.0,Red.png,5.0,98,,,,,,,,,,,,,,,,,
0.0,1.0,0.96297,0.0,27.0,27.0,27.0,1.0,foam_03s.jpg,0.0,Orange.png,5.0,98,,,,,,,,,,,,,,,,,
0.0,1.0,0.89461,0.0,28.0,28.0,28.0,1.0,candy_cane_06s.jpg,0.0,Yellow.png,5.0,98,,,,,,,,,,,,,,,,,
0.0,1.0,0.646535,0.0,29.0,29.0,29.0,1.0,puffin_19s.jpg,0.0,Green.png,5.0,98,,,,,,,,,,,,,,,,,
0.0,1.0,0.765125,0.0,30.0,30.0,30.0,1.0,outlet_10s.jpg,0.0,Blue.png,6.0,98,,,,,,,,,,,,,,,,,
0.0,1.0,0.664575,0.0,31.0,31.0,31.0,1.0,lasagna_06s.jpg,0.0,Purple.png,6.0,98,,,,,,,,,,,,,,,,,
1.0,0.0,1.019625,0.0,32.0,32.0,32.0,1.0,lasagna_06s.jpg,0.0,Red.png,6.0,98,,,,,,,,,,,,,,,,,
0.0,1.0,0.88146,0.0,33.0,33.0,33.0,1.0,marker_05s.jpg,0.0,Orange.png,6.0,98,,,,,,,,,,,,,,,,,
0.0,1.0,0.66118,0.0,34.0,34.0,34.0,1.0,cushion_08s.jpg,0.0,Yellow.png,6.0,98,,,,,,,,,,,,,,,,,
0.0,1.0,0.966115,0.0,35.0,35.0,35.0,1.0,badge_03s.jpg,0.0,Green.png,6.0,98,,,,,,,,,,,,,,,,,
,,,,,,,,,0.0,,,98,0.0,1.0,1.268545,0.0,0.0,0.0,0.0,1.0,beard_16s.jpg,raccoon_02s.jpg,,,,,,,
,,,,,,,,,0.0,,,98,0.0,1.0,1.955625,0.0,1.0,1.0,1.0,1.0,peach_04s.jpg,top_hat_11s.jpg,,,,,,,
,,,,,,,,,1.0,,,98,0.0,0.0,1.64129,0.0,2.0,2.0,2.0,1.0,rollerskate_03s.jpg,magnet_03s.jpg,,,,,,,
,,,,,,,,,1.0,,,98,0.0,0.0,1.688335,0.0,3.0,3.0,3.0,1.0,foam_03s.jpg,outlet_10s.jpg,,,,,,,
,,,,,,,,,0.0,,,98,0.0,1.0,1.90308,0.0,4.0,4.0,4.0,1.0,snowman_02s.jpg,ravioli_08s.jpg,,,,,,,
,,,,,,,,,0.0,,,98,1.0,0.0,1.890715,0.0,5.0,5.0,5.0,1.0,puffin_19s.jpg,key_07s.jpg,,,,,,,
,,,,,,,,,,,,98,,,,,,,,,,,0.0,2.0,2.0,2.0,1.0,new2backpresent_3_1.xlsx,new2back_compare_task_3_1.xlsx
0.0,1.0,1.63863,0.0,0.0,0.0,0.0,1.0,lollipop_08s.jpg,0.0,Blue.png,1.0,98,,,,,,,,,,,,,,,,,
0.0,1.0,0.664355,0.0,1.0,1.0,1.0,1.0,keyboard_05s.jpg,0.0,Purple.png,1.0,98,,,,,,,,,,,,,,,,,
0.0,1.0,0.86742,0.0,2.0,2.0,2.0,1.0,pomegranate_04s.jpg,0.0,Red.png,1.0,98,,,,,,,,,,,,,,,,,
0.0,1.0,0.830005,0.0,3.0,3.0,3.0,1.0,olive_05s.jpg,0.0,Orange.png,1.0,98,,,,,,,,,,,,,,,,,
0.0,1.0,0.81477,0.0,4.0,4.0,4.0,1.0,hummingbird_05s.jpg,0.0,Yellow.png,1.0,98,,,,,,,,,,,,,,,,,
0.0,1.0,0.797475,0.0,5.0,5.0,5.0,1.0,cucumber_07s.jpg,0.0,Green.png,1.0,98,,,,,,,,,,,,,,,,,
1.0,0.0,1.38194,0.0,6.0,6.0,6.0,1.0,olive_05s.jpg,0.0,Blue.png,2.0,98,,,,,,,,,,,,,,,,,
0.0,1.0,0.64652,0.0,7.0,7.0,7.0,1.0,pinwheel_06s.jpg,0.0,Purple.png,2.0,98,,,,,,,,,,,,,,,,,
1.0,1.0,2.25412,0.0,8.0,8.0,8.0,1.0,olive_05s.jpg,1.0,Red.png,2.0,98,,,,,,,,,,,,,,,,,
0.0,1.0,0.781175,0.0,9.0,9.0,9.0,1.0,orchid_01b.jpg,0.0,Orange.png,2.0,98,,,,,,,,,,,,,,,,,
1.0,1.0,0.848735,0.0,10.0,10.0,10.0,1.0,olive_05s.jpg,1.0,Yellow.png,2.0,98,,,,,,,,,,,,,,,,,
0.0,1.0,0.68224,0.0,11.0,11.0,11.0,1.0,lectern_08s.jpg,0.0,Green.png,2.0,98,,,,,,,,,,,,,,,,,
0.0,1.0,0.73026,0.0,12.0,12.0,12.0,1.0,margarita_03s.jpg,0.0,Blue.png,3.0,98,,,,,,,,,,,,,,,,,
0.0,1.0,0.53035,0.0,13.0,13.0,13.0,1.0,margarita_03s.jpg,0.0,Purple.png,3.0,98,,,,,,,,,,,,,,,,,
0.0,1.0,0.947105,0.0,14.0,14.0,14.0,1.0,swan_11s.jpg,0.0,Red.png,3.0,98,,,,,,,,,,,,,,,,,
0.0,1.0,0.71602,0.0,15.0,15.0,15.0,1.0,tripod_01b.jpg,0.0,Orange.png,3.0,98,,,,,,,,,,,,,,,,,
0.0,1.0,0.71301,0.0,16.0,16.0,16.0,1.0,mop_08s.jpg,0.0,Yellow.png,3.0,98,,,,,,,,,,,,,,,,,
0.0,1.0,0.85568,0.0,17.0,17.0,17.0,1.0,plaster_cast_13s.jpg,0.0,Green.png,3.0,98,,,,,,,,,,,,,,,,,
0.0,1.0,0.661515,0.0,18.0,18.0,18.0,1.0,gas_mask_11s.jpg,0.0,Blue.png,4.0,98,,,,,,,,,,,,,,,,,
0.0,1.0,0.745425,0.0,19.0,19.0,19.0,1.0,tinsel_12s.jpg,0.0,Purple.png,4.0,98,,,,,,,,,,,,,,,,,
0.0,1.0,0.7445,0.0,20.0,20.0,20.0,1.0,smokingpipe.jpg,0.0,Red.png,4.0,98,,,,,,,,,,,,,,,,,
0.0,1.0,0.86395,0.0,21.0,21.0,21.0,1.0,iron_13s.jpg,0.0,Orange.png,4.0,98,,,,,,,,,,,,,,,,,
1.0,0.0,0.897315,0.0,22.0,22.0,22.0,1.0,iron_13s.jpg,0.0,Yellow.png,4.0,98,,,,,,,,,,,,,,,,,
1.0,1.0,1.14968,0.0,23.0,23.0,23.0,1.0,iron_13s.jpg,1.0,Green.png,4.0,98,,,,,,,,,,,,,,,,,
0.0,1.0,0.646315,0.0,24.0,24.0,24.0,1.0,rhubarb_03s.jpg,0.0,Blue.png,5.0,98,,,,,,,,,,,,,,,,,
0.0,1.0,1.48086,0.0,25.0,25.0,25.0,1.0,tambourine_06s.jpg,0.0,Purple.png,5.0,98,,,,,,,,,,,,,,,,,
1.0,0.0,0.999375,0.0,26.0,26.0,26.0,1.0,tambourine_06s.jpg,0.0,Red.png,5.0,98,,,,,,,,,,,,,,,,,
0.0,1.0,0.79591,0.0,27.0,27.0,27.0,1.0,mousetrap_15n.jpg,0.0,Orange.png,5.0,98,,,,,,,,,,,,,,,,,
0.0,1.0,1.06442,0.0,28.0,28.0,28.0,1.0,ticktacktoe_08s.jpg,0.0,Yellow.png,5.0,98,,,,,,,,,,,,,,,,,
0.0,1.0,0.63002,0.0,29.0,29.0,29.0,1.0,sunflower_17s.jpg,0.0,Green.png,5.0,98,,,,,,,,,,,,,,,,,
0.0,1.0,0.799065,0.0,30.0,30.0,30.0,1.0,onion_10s.jpg,0.0,Blue.png,6.0,98,,,,,,,,,,,,,,,,,
0.0,1.0,0.646665,0.0,31.0,31.0,31.0,1.0,ant_12s.jpg,0.0,Purple.png,6.0,98,,,,,,,,,,,,,,,,,
0.0,1.0,0.832495,0.0,32.0,32.0,32.0,1.0,insole_11s.jpg,0.0,Red.png,6.0,98,,,,,,,,,,,,,,,,,
1.0,0.0,0.966905,0.0,33.0,33.0,33.0,1.0,keyboard_05s.jpg,0.0,Orange.png,6.0,98,,,,,,,,,,,,,,,,,
0.0,1.0,0.98263,0.0,34.0,34.0,34.0,1.0,aluminum_foil_08s.jpg,0.0,Yellow.png,6.0,98,,,,,,,,,,,,,,,,,
0.0,1.0,0.615695,0.0,35.0,35.0,35.0,1.0,money_07s.jpg,0.0,Green.png,6.0,98,,,,,,,,,,,,,,,,,
,,,,,,,,,0.0,,,98,0.0,1.0,1.750115,0.0,0.0,0.0,0.0,1.0,pinwheel_06s.jpg,hummingbird_05s.jpg,,,,,,,
,,,,,,,,,1.0,,,98,1.0,1.0,1.439505,0.0,1.0,1.0,1.0,1.0,mop_08s.jpg,tinsel_12s.jpg,,,,,,,
,,,,,,,,,1.0,,,98,1.0,1.0,1.08783,0.0,2.0,2.0,2.0,1.0,pomegranate_04s.jpg,cucumber_07s.jpg,,,,,,,
,,,,,,,,,0.0,,,98,0.0,1.0,1.17021,0.0,3.0,3.0,3.0,1.0,aluminum_foil_08s.jpg,ant_12s.jpg,,,,,,,
,,,,,,,,,0.0,,,98,0.0,1.0,1.538935,0.0,4.0,4.0,4.0,1.0,gas_mask_11s.jpg,tripod_01b.jpg,,,,,,,
,,,,,,,,,0.0,,,98,1.0,0.0,1.50495,0.0,5.0,5.0,5.0,1.0,mousetrap_15n.jpg,rhubarb_03s.jpg,,,,,,,
,,,,,,,,,,,,98,,,,,,,,,,,0.0,3.0,3.0,3.0,1.0,new2backpresent_4_1.xlsx,new2back_compare_task_4_1.xlsx
0.0,1.0,1.924525,0.0,0.0,0.0,0.0,1.0,jalapeno_15s.jpg,0.0,Blue.png,1.0,98,,,,,,,,,,,,,,,,,
0.0,1.0,0.947,0.0,1.0,1.0,1.0,1.0,pincushion_10s.jpg,0.0,Purple.png,1.0,98,,,,,,,,,,,,,,,,,
0.0,1.0,0.682935,0.0,2.0,2.0,2.0,1.0,fondue_07s.jpg,0.0,Red.png,1.0,98,,,,,,,,,,,,,,,,,
0.0,1.0,0.813415,0.0,3.0,3.0,3.0,1.0,safety_pin_02s.jpg,0.0,Orange.png,1.0,98,,,,,,,,,,,,,,,,,
0.0,1.0,0.864965,0.0,4.0,4.0,4.0,1.0,turf_03s.jpg,0.0,Yellow.png,1.0,98,,,,,,,,,,,,,,,,,
1.0,0.0,0.864745,0.0,5.0,5.0,5.0,1.0,jalapeno_15s.jpg,0.0,Green.png,1.0,98,,,,,,,,,,,,,,,,,
1.0,0.0,0.9689,0.0,6.0,6.0,6.0,1.0,jalapeno_15s.jpg,0.0,Blue.png,2.0,98,,,,,,,,,,,,,,,,,
1.0,1.0,0.748565,0.0,7.0,7.0,7.0,1.0,jalapeno_15s.jpg,1.0,Purple.png,2.0,98,,,,,,,,,,,,,,,,,
0.0,1.0,0.8138,0.0,8.0,8.0,8.0,1.0,spoon02a.jpg,0.0,Red.png,2.0,98,,,,,,,,,,,,,,,,,
0.0,1.0,0.81458,0.0,9.0,9.0,9.0,1.0,puppet_01b.jpg,0.0,Orange.png,2.0,98,,,,,,,,,,,,,,,,,
1.0,0.0,0.865375,0.0,10.0,10.0,10.0,1.0,jalapeno_15s.jpg,0.0,Yellow.png,2.0,98,,,,,,,,,,,,,,,,,
1.0,0.0,0.96646,0.0,11.0,11.0,11.0,1.0,jalapeno_15s.jpg,0.0,Green.png,2.0,98,,,,,,,,,,,,,,,,,
0.0,1.0,1.28425,0.0,12.0,12.0,12.0,1.0,popcorn_09s.jpg,0.0,Blue.png,3.0,98,,,,,,,,,,,,,,,,,
1.0,0.0,0.83334,0.0,13.0,13.0,13.0,1.0,popcorn_09s.jpg,0.0,Purple.png,3.0,98,,,,,,,,,,,,,,,,,
0.0,1.0,1.19797,0.0,14.0,14.0,14.0,1.0,swordfish_05s.jpg,0.0,Red.png,3.0,98,,,,,,,,,,,,,,,,,
1.0,1.0,1.76601,0.0,15.0,15.0,15.0,1.0,popcorn_09s.jpg,1.0,Orange.png,3.0,98,,,,,,,,,,,,,,,,,
0.0,1.0,0.74904,0.0,16.0,16.0,16.0,1.0,police_car_01s.jpg,0.0,Yellow.png,3.0,98,,,,,,,,,,,,,,,,,
0.0,1.0,1.600015,0.0,17.0,17.0,17.0,1.0,ginger_09s.jpg,0.0,Green.png,3.0,98,,,,,,,,,,,,,,,,,
0.0,1.0,0.964165,0.0,18.0,18.0,18.0,1.0,cap_05s.jpg,0.0,Blue.png,4.0,98,,,,,,,,,,,,,,,,,
0.0,1.0,0.61411,0.0,19.0,19.0,19.0,1.0,ice-cream_cone_06s.jpg,0.0,Purple.png,4.0,98,,,,,,,,,,,,,,,,,
0.0,1.0,0.663805,0.0,20.0,20.0,20.0,1.0,purse_05s.jpg,0.0,Red.png,4.0,98,,,,,,,,,,,,,,,,,
0.0,1.0,0.797015,0.0,21.0,21.0,21.0,1.0,squirrel_02s.jpg,0.0,Orange.png,4.0,98,,,,,,,,,,,,,,,,,
1.0,0.0,0.94842,0.0,22.0,22.0,22.0,1.0,cap_05s.jpg,0.0,Yellow.png,4.0,98,,,,,,,,,,,,,,,,,
0.0,1.0,1.01504,0.0,23.0,23.0,23.0,1.0,pie_08s.jpg,0.0,Green.png,4.0,98,,,,,,,,,,,,,,,,,
0.0,1.0,1.000705,0.0,24.0,24.0,24.0,1.0,thread_08s.jpg,0.0,Blue.png,5.0,98,,,,,,,,,,,,,,,,,
0.0,1.0,0.796875,0.0,25.0,25.0,25.0,1.0,punch1_10s.jpg,0.0,Purple.png,5.0,98,,,,,,,,,,,,,,,,,
0.0,1.0,0.964265,0.0,26.0,26.0,26.0,1.0,cereal_04s.jpg,0.0,Red.png,5.0,98,,,,,,,,,,,,,,,,,
0.0,1.0,0.67899,0.0,27.0,27.0,27.0,1.0,espresso_01b.jpg,0.0,Orange.png,5.0,98,,,,,,,,,,,,,,,,,
0.0,0.0,2.21855,0.0,28.0,28.0,28.0,1.0,cereal_04s.jpg,1.0,Yellow.png,5.0,98,,,,,,,,,,,,,,,,,
1.0,0.0,1.82098,0.0,29.0,29.0,29.0,1.0,cereal_04s.jpg,0.0,Green.png,5.0,98,,,,,,,,,,,,,,,,,
0.0,1.0,0.83364,0.0,30.0,30.0,30.0,1.0,tube_top_03s.jpg,0.0,Blue.png,6.0,98,,,,,,,,,,,,,,,,,
0.0,1.0,1.030625,0.0,31.0,31.0,31.0,1.0,pepper2_21s.jpg,0.0,Purple.png,6.0,98,,,,,,,,,,,,,,,,,
0.0,1.0,0.830825,0.0,32.0,32.0,32.0,1.0,jersey_02s.jpg,0.0,Red.png,6.0,98,,,,,,,,,,,,,,,,,
0.0,1.0,0.66644,0.0,33.0,33.0,33.0,1.0,mussel_11s.jpg,0.0,Orange.png,6.0,98,,,,,,,,,,,,,,,,,
0.0,1.0,0.81718,0.0,34.0,34.0,34.0,1.0,toaster_03s.jpg,0.0,Yellow.png,6.0,98,,,,,,,,,,,,,,,,,
0.0,1.0,0.69735,0.0,35.0,35.0,35.0,1.0,tie_03s.jpg,0.0,Green.png,6.0,98,,,,,,,,,,,,,,,,,
,,,,,,,,,0.0,,,98,0.0,1.0,1.74054,0.0,0.0,0.0,0.0,1.0,ice-cream_cone_06s.jpg,police_car_01s.jpg,,,,,,,
,,,,,,,,,0.0,,,98,0.0,1.0,1.28225,0.0,1.0,1.0,1.0,1.0,turf_03s.jpg,pincushion_10s.jpg,,,,,,,
,,,,,,,,,0.0,,,98,0.0,1.0,1.40496,0.0,2.0,2.0,2.0,1.0,purse_05s.jpg,ginger_09s.jpg,,,,,,,
,,,,,,,,,1.0,,,98,1.0,1.0,1.420715,0.0,3.0,3.0,3.0,1.0,jersey_02s.jpg,tie_03s.jpg,,,,,,,
,,,,,,,,,0.0,,,98,0.0,1.0,1.988875,0.0,4.0,4.0,4.0,1.0,toaster_03s.jpg,pepper2_21s.jpg,,,,,,,
,,,,,,,,,0.0,,,98,1.0,0.0,1.5319,0.0,5.0,5.0,5.0,1.0,thread_08s.jpg,squirrel_02s.jpg,,,,,,,
,,,,,,,,,,,,98,,,,,,,,,,,0.0,4.0,4.0,4.0,1.0,new2backpresent_5_1.xlsx,new2back_compare_task_5_1.xlsx
0.0,1.0,1.604355,0.0,0.0,0.0,0.0,1.0,omelet_07s.jpg,0.0,Blue.png,1.0,98,,,,,,,,,,,,,,,,,
0.0,1.0,0.598635,0.0,1.0,1.0,1.0,1.0,popsicle_02s.jpg,0.0,Purple.png,1.0,98,,,,,,,,,,,,,,,,,
0.0,1.0,0.76249,0.0,2.0,2.0,2.0,1.0,letter_opener_03s.jpg,0.0,Red.png,1.0,98,,,,,,,,,,,,,,,,,
0.0,1.0,0.74834,0.0,3.0,3.0,3.0,1.0,diving_board_07s.jpg,0.0,Orange.png,1.0,98,,,,,,,,,,,,,,,,,
1.0,0.0,0.89666,0.0,4.0,4.0,4.0,1.0,omelet_07s.jpg,0.0,Yellow.png,1.0,98,,,,,,,,,,,,,,,,,
1.0,0.0,0.99959,0.0,5.0,5.0,5.0,1.0,letter_opener_03s.jpg,0.0,Green.png,1.0,98,,,,,,,,,,,,,,,,,
1.0,1.0,0.934065,0.0,6.0,6.0,6.0,1.0,omelet_07s.jpg,1.0,Blue.png,2.0,98,,,,,,,,,,,,,,,,,
0.0,1.0,0.882555,0.0,7.0,7.0,7.0,1.0,cape_11s.jpg,0.0,Purple.png,2.0,98,,,,,,,,,,,,,,,,,
1.0,1.0,0.931375,0.0,8.0,8.0,8.0,1.0,omelet_07s.jpg,1.0,Red.png,2.0,98,,,,,,,,,,,,,,,,,
0.0,1.0,0.94463,0.0,9.0,9.0,9.0,1.0,lantern_04s.jpg,0.0,Orange.png,2.0,98,,,,,,,,,,,,,,,,,
0.0,1.0,0.69748,0.0,10.0,10.0,10.0,1.0,leotard_08s.jpg,0.0,Yellow.png,2.0,98,,,,,,,,,,,,,,,,,
0.0,1.0,0.997165,0.0,11.0,11.0,11.0,1.0,pacifier_09s.jpg,0.0,Green.png,2.0,98,,,,,,,,,,,,,,,,,
0.0,1.0,0.646215,0.0,12.0,12.0,12.0,1.0,rocking_horse_03s.jpg,0.0,Blue.png,3.0,98,,,,,,,,,,,,,,,,,
0.0,1.0,0.714195,0.0,13.0,13.0,13.0,1.0,cardinal_07s.jpg,0.0,Purple.png,3.0,98,,,,,,,,,,,,,,,,,
0.0,1.0,0.63046,0.0,14.0,14.0,14.0,1.0,hyena_16s.jpg,0.0,Red.png,3.0,98,,,,,,,,,,,,,,,,,
0.0,1.0,0.798005,0.0,15.0,15.0,15.0,1.0,oil_02s.jpg,0.0,Orange.png,3.0,98,,,,,,,,,,,,,,,,,
0.0,1.0,1.198155,0.0,16.0,16.0,16.0,1.0,marshmallow_08s.jpg,0.0,Yellow.png,3.0,98,,,,,,,,,,,,,,,,,
0.0,0.0,0.530115,0.0,17.0,17.0,17.0,1.0,oil_02s.jpg,1.0,Green.png,3.0,98,,,,,,,,,,,,,,,,,
1.0,0.0,1.016075,0.0,18.0,18.0,18.0,1.0,omelet_07s.jpg,0.0,Blue.png,4.0,98,,,,,,,,,,,,,,,,,
1.0,1.0,0.8322,0.0,19.0,19.0,19.0,1.0,oil_02s.jpg,1.0,Purple.png,4.0,98,,,,,,,,,,,,,,,,,
0.0,1.0,0.77848,0.0,20.0,20.0,20.0,1.0,knitting_needle_04s.jpg,0.0,Red.png,4.0,98,,,,,,,,,,,,,,,,,
1.0,1.0,0.81247,0.0,21.0,21.0,21.0,1.0,oil_02s.jpg,1.0,Orange.png,4.0,98,,,,,,,,,,,,,,,,,
0.0,1.0,1.230965,0.0,22.0,22.0,22.0,1.0,ice_pack_09s.jpg,0.0,Yellow.png,4.0,98,,,,,,,,,,,,,,,,,
0.0,1.0,0.764915,0.0,23.0,23.0,23.0,1.0,peppermint_07s.jpg,0.0,Green.png,4.0,98,,,,,,,,,,,,,,,,,
0.0,1.0,0.58333,0.0,24.0,24.0,24.0,1.0,submarine_11n.jpg,0.0,Blue.png,5.0,98,,,,,,,,,,,,,,,,,
0.0,1.0,0.82844,0.0,25.0,25.0,25.0,1.0,seagull_01b.jpg,0.0,Purple.png,5.0,98,,,,,,,,,,,,,,,,,
1.0,0.0,0.96575,0.0,26.0,26.0,26.0,1.0,omelet_07s.jpg,0.0,Red.png,5.0,98,,,,,,,,,,,,,,,,,
0.0,1.0,0.89721,0.0,27.0,27.0,27.0,1.0,bonsai_07s.jpg,0.0,Orange.png,5.0,98,,,,,,,,,,,,,,,,,
1.0,0.0,0.89653,0.0,28.0,28.0,28.0,1.0,bonsai_07s.jpg,0.0,Yellow.png,5.0,98,,,,,,,,,,,,,,,,,
1.0,0.0,0.647305,0.0,29.0,29.0,29.0,1.0,omelet_07s.jpg,0.0,Green.png,5.0,98,,,,,,,,,,,,,,,,,
1.0,1.0,0.515125,0.0,30.0,30.0,30.0,1.0,bonsai_07s.jpg,1.0,Blue.png,6.0,98,,,,,,,,,,,,,,,,,
0.0,1.0,0.9969,0.0,31.0,31.0,31.0,1.0,quilt_03s.jpg,0.0,Purple.png,6.0,98,,,,,,,,,,,,,,,,,
0.0,1.0,1.1331,0.0,32.0,32.0,32.0,1.0,incense_02s.jpg,0.0,Red.png,6.0,98,,,,,,,,,,,,,,,,,
1.0,1.0,1.099065,0.0,33.0,33.0,33.0,1.0,quilt_03s.jpg,1.0,Orange.png,6.0,98,,,,,,,,,,,,,,,,,
1.0,1.0,1.36647,0.0,34.0,34.0,34.0,1.0,incense_02s.jpg,1.0,Yellow.png,6.0,98,,,,,,,,,,,,,,,,,
1.0,0.0,0.93278,0.0,35.0,35.0,35.0,1.0,incense_02s.jpg,0.0,Green.png,6.0,98,,,,,,,,,,,,,,,,,
,,,,,,,,,1.0,,,98,0.0,0.0,1.864795,0.0,0.0,0.0,0.0,1.0,pacifier_09s.jpg,hyena_16s.jpg,,,,,,,
,,,,,,,,,0.0,,,98,1.0,0.0,1.289695,0.0,1.0,1.0,1.0,1.0,peppermint_07s.jpg,knitting_needle_04s.jpg,,,,,,,
,,,,,,,,,1.0,,,98,1.0,1.0,1.48674,0.0,2.0,2.0,2.0,1.0,ice_pack_09s.jpg,seagull_01b.jpg,,,,,,,
,,,,,,,,,0.0,,,98,0.0,1.0,1.28769,0.0,3.0,3.0,3.0,1.0,marshmallow_08s.jpg,cardinal_07s.jpg,,,,,,,
,,,,,,,,,1.0,,,98,1.0,1.0,1.04165,0.0,4.0,4.0,4.0,1.0,cape_11s.jpg,leotard_08s.jpg,,,,,,,
,,,,,,,,,1.0,,,98,1.0,1.0,1.16989,0.0,5.0,5.0,5.0,1.0,lantern_04s.jpg,rocking_horse_03s.jpg,,,,,,,
,,,,,,,,,,,,98,,,,,,,,,,,0.0,5.0,5.0,5.0,1.0,new2backpresent_6_1.xlsx,new2back_compare_task_6_1.xlsx
0.0,1.0,0.77656,0.0,0.0,0.0,0.0,1.0,petri_dish_12s.jpg,0.0,Blue.png,1.0,98,,,,,,,,,,,,,,,,,
0.0,1.0,0.77947,0.0,1.0,1.0,1.0,1.0,toothpaste_12s.jpg,0.0,Purple.png,1.0,98,,,,,,,,,,,,,,,,,
0.0,1.0,0.681695,0.0,2.0,2.0,2.0,1.0,medal_04s.jpg,0.0,Red.png,1.0,98,,,,,,,,,,,,,,,,,
0.0,1.0,0.794635,0.0,3.0,3.0,3.0,1.0,potholder_02s.jpg,0.0,Orange.png,1.0,98,,,,,,,,,,,,,,,,,
0.0,1.0,0.59709,0.0,4.0,4.0,4.0,1.0,puck_06s.jpg,0.0,Yellow.png,1.0,98,,,,,,,,,,,,,,,,,
0.0,1.0,0.613055,0.0,5.0,5.0,5.0,1.0,bagel_15s.jpg,0.0,Green.png,1.0,98,,,,,,,,,,,,,,,,,
0.0,1.0,0.874555,0.0,6.0,6.0,6.0,1.0,golf_club_03s.jpg,0.0,Blue.png,2.0,98,,,,,,,,,,,,,,,,,
1.0,0.0,0.831435,0.0,7.0,7.0,7.0,1.0,golf_club_03s.jpg,0.0,Purple.png,2.0,98,,,,,,,,,,,,,,,,,
1.0,1.0,1.384125,0.0,8.0,8.0,8.0,1.0,golf_club_03s.jpg,1.0,Red.png,2.0,98,,,,,,,,,,,,,,,,,
0.0,1.0,1.41551,0.0,9.0,9.0,9.0,1.0,inhaler_01b.jpg,0.0,Orange.png,2.0,98,,,,,,,,,,,,,,,,,
1.0,1.0,0.84767,0.0,10.0,10.0,10.0,1.0,golf_club_03s.jpg,1.0,Yellow.png,2.0,98,,,,,,,,,,,,,,,,,
0.0,1.0,0.76458,0.0,11.0,11.0,11.0,1.0,tiger_06s.jpg,0.0,Green.png,2.0,98,,,,,,,,,,,,,,,,,
1.0,0.0,0.965435,0.0,12.0,12.0,12.0,1.0,medal_04s.jpg,0.0,Blue.png,3.0,98,,,,,,,,,,,,,,,,,
1.0,0.0,1.349205,0.0,13.0,13.0,13.0,1.0,medal_04s.jpg,0.0,Purple.png,3.0,98,,,,,,,,,,,,,,,,,
1.0,1.0,1.16778,0.0,14.0,14.0,14.0,1.0,medal_04s.jpg,1.0,Red.png,3.0,98,,,,,,,,,,,,,,,,,
0.0,1.0,0.645395,0.0,15.0,15.0,15.0,1.0,licorice_06s.jpg,0.0,Orange.png,3.0,98,,,,,,,,,,,,,,,,,
1.0,1.0,1.00074,0.0,16.0,16.0,16.0,1.0,medal_04s.jpg,1.0,Yellow.png,3.0,98,,,,,,,,,,,,,,,,,
0.0,1.0,0.97697,0.0,17.0,17.0,17.0,1.0,frog_09s.jpg,0.0,Green.png,3.0,98,,,,,,,,,,,,,,,,,
0.0,1.0,0.81399,0.0,18.0,18.0,18.0,1.0,laser_pointer_02s.jpg,0.0,Blue.png,4.0,98,,,,,,,,,,,,,,,,,
0.0,1.0,0.9805,0.0,19.0,19.0,19.0,1.0,treasure_08s.jpg,0.0,Purple.png,4.0,98,,,,,,,,,,,,,,,,,
0.0,1.0,0.7814,0.0,20.0,20.0,20.0,1.0,padlock_07s.jpg,0.0,Red.png,4.0,98,,,,,,,,,,,,,,,,,
0.0,1.0,0.73194,0.0,21.0,21.0,21.0,1.0,panda_02s.jpg,0.0,Orange.png,4.0,98,,,,,,,,,,,,,,,,,
0.0,1.0,0.981745,0.0,22.0,22.0,22.0,1.0,plunger_08s.jpg,0.0,Yellow.png,4.0,98,,,,,,,,,,,,,,,,,
0.0,1.0,0.964315,0.0,23.0,23.0,23.0,1.0,pancake_12s.jpg,0.0,Green.png,4.0,98,,,,,,,,,,,,,,,,,
0.0,1.0,0.92883,0.0,24.0,24.0,24.0,1.0,fire_pit_10s.jpg,0.0,Blue.png,5.0,98,,,,,,,,,,,,,,,,,
0.0,1.0,0.64458,0.0,25.0,25.0,25.0,1.0,bubble_01b.jpg,0.0,Purple.png,5.0,98,,,,,,,,,,,,,,,,,
0.0,1.0,0.915445,0.0,26.0,26.0,26.0,1.0,bubble_01b.jpg,0.0,Red.png,5.0,98,,,,,,,,,,,,,,,,,
1.0,1.0,1.23287,0.0,27.0,27.0,27.0,1.0,bubble_01b.jpg,1.0,Orange.png,5.0,98,,,,,,,,,,,,,,,,,
1.0,1.0,0.886875,0.0,28.0,28.0,28.0,1.0,bubble_01b.jpg,1.0,Yellow.png,5.0,98,,,,,,,,,,,,,,,,,
0.0,1.0,0.67903,0.0,29.0,29.0,29.0,1.0,power_line_08s.jpg,0.0,Green.png,5.0,98,,,,,,,,,,,,,,,,,
1.0,0.0,0.965735,0.0,30.0,30.0,30.0,1.0,golf_club_03s.jpg,0.0,Blue.png,6.0,98,,,,,,,,,,,,,,,,,
0.0,1.0,0.781135,0.0,31.0,31.0,31.0,1.0,kilt_18s.jpg,0.0,Purple.png,6.0,98,,,,,,,,,,,,,,,,,
0.0,1.0,0.781115,0.0,32.0,32.0,32.0,1.0,tupperware_09s.jpg,0.0,Red.png,6.0,98,,,,,,,,,,,,,,,,,
0.0,1.0,0.781815,0.0,33.0,33.0,33.0,1.0,go-kart_10s.jpg,0.0,Orange.png,6.0,98,,,,,,,,,,,,,,,,,
0.0,1.0,0.84917,0.0,34.0,34.0,34.0,1.0,bottle_opener_11s.jpg,0.0,Yellow.png,6.0,98,,,,,,,,,,,,,,,,,
1.0,1.0,0.96594,0.0,35.0,35.0,35.0,1.0,go-kart_10s.jpg,1.0,Green.png,6.0,98,,,,,,,,,,,,,,,,,
,,,,,,,,,1.0,,,98,1.0,1.0,1.914585,0.0,0.0,0.0,0.0,1.0,toothpaste_12s.jpg,puck_06s.jpg,,,,,,,
,,,,,,,,,0.0,,,98,1.0,0.0,1.389435,0.0,1.0,1.0,1.0,1.0,padlock_07s.jpg,frog_09s.jpg,,,,,,,
,,,,,,,,,0.0,,,98,1.0,0.0,1.52355,0.0,2.0,2.0,2.0,1.0,plunger_08s.jpg,treasure_08s.jpg,,,,,,,
,,,,,,,,,1.0,,,98,1.0,1.0,1.236585,0.0,3.0,3.0,3.0,1.0,licorice_06s.jpg,laser_pointer_02s.jpg,,,,,,,
,,,,,,,,,1.0,,,98,1.0,1.0,1.224495,0.0,4.0,4.0,4.0,1.0,petri_dish_12s.jpg,potholder_02s.jpg,,,,,,,
,,,,,,,,,0.0,,,98,0.0,1.0,1.235055,0.0,5.0,5.0,5.0,1.0,tupperware_09s.jpg,power_line_08s.jpg,,,,,,,
,,,,,,,,,,,,98,,,,,,,,,,,0.0,6.0,6.0,6.0,1.0,new2backpresent_7_1.xlsx,new2back_compare_task_7_1.xlsx
0.0,1.0,1.220915,0.0,0.0,0.0,0.0,1.0,toad_09s.jpg,0.0,Blue.png,1.0,98,,,,,,,,,,,,,,,,,
1.0,0.0,0.746965,0.0,1.0,1.0,1.0,1.0,toad_09s.jpg,0.0,Purple.png,1.0,98,,,,,,,,,,,,,,,,,
1.0,1.0,0.79903,0.0,2.0,2.0,2.0,1.0,toad_09s.jpg,1.0,Red.png,1.0,98,,,,,,,,,,,,,,,,,
0.0,1.0,0.967215,0.0,3.0,3.0,3.0,1.0,lamb_04s.jpg,0.0,Orange.png,1.0,98,,,,,,,,,,,,,,,,,
1.0,1.0,0.93223,0.0,4.0,4.0,4.0,1.0,toad_09s.jpg,1.0,Yellow.png,1.0,98,,,,,,,,,,,,,,,,,
0.0,1.0,0.84644,0.0,5.0,5.0,5.0,1.0,possum_09s.jpg,0.0,Green.png,1.0,98,,,,,,,,,,,,,,,,,
0.0,1.0,0.675865,0.0,6.0,6.0,6.0,1.0,reindeer_08s.jpg,0.0,Blue.png,2.0,98,,,,,,,,,,,,,,,,,
1.0,0.0,0.84796,0.0,7.0,7.0,7.0,1.0,reindeer_08s.jpg,0.0,Purple.png,2.0,98,,,,,,,,,,,,,,,,,
0.0,1.0,1.014715,0.0,8.0,8.0,8.0,1.0,knot_01b.jpg,0.0,Red.png,2.0,98,,,,,,,,,,,,,,,,,
0.0,0.0,1.36912,0.0,9.0,9.0,9.0,1.0,reindeer_08s.jpg,1.0,Orange.png,2.0,98,,,,,,,,,,,,,,,,,
0.0,1.0,0.73125,0.0,10.0,10.0,10.0,1.0,pan_02s.jpg,0.0,Yellow.png,2.0,98,,,,,,,,,,,,,,,,,
0.0,1.0,1.013385,0.0,11.0,11.0,11.0,1.0,ladle_04s.jpg,0.0,Green.png,2.0,98,,,,,,,,,,,,,,,,,
0.0,1.0,0.725555,0.0,12.0,12.0,12.0,1.0,tuxedo_01b.jpg,0.0,Blue.png,3.0,98,,,,,,,,,,,,,,,,,
0.0,1.0,0.598245,0.0,13.0,13.0,13.0,1.0,lemonade_04s.jpg,0.0,Purple.png,3.0,98,,,,,,,,,,,,,,,,,
0.0,1.0,0.716645,0.0,14.0,14.0,14.0,1.0,cobra_05s.jpg,0.0,Red.png,3.0,98,,,,,,,,,,,,,,,,,
0.0,1.0,1.067205,0.0,15.0,15.0,15.0,1.0,pocketknife_12s.jpg,0.0,Orange.png,3.0,98,,,,,,,,,,,,,,,,,
0.0,1.0,0.814495,0.0,16.0,16.0,16.0,1.0,kettle_08s.jpg,0.0,Yellow.png,3.0,98,,,,,,,,,,,,,,,,,
0.0,1.0,0.83093,0.0,17.0,17.0,17.0,1.0,spider_web_03s.jpg,0.0,Green.png,3.0,98,,,,,,,,,,,,,,,,,
0.0,1.0,0.848635,0.0,18.0,18.0,18.0,1.0,pretzel_09s.jpg,0.0,Blue.png,4.0,98,,,,,,,,,,,,,,,,,
0.0,1.0,0.896835,0.0,19.0,19.0,19.0,1.0,rock_08s.jpg,0.0,Purple.png,4.0,98,,,,,,,,,,,,,,,,,
0.0,1.0,0.797835,0.0,20.0,20.0,20.0,1.0,boar_10s.jpg,0.0,Red.png,4.0,98,,,,,,,,,,,,,,,,,
0.0,1.0,0.680055,0.0,21.0,21.0,21.0,1.0,sunglasses_11s.jpg,0.0,Orange.png,4.0,98,,,,,,,,,,,,,,,,,
1.0,1.0,0.68169,0.0,22.0,22.0,22.0,1.0,boar_10s.jpg,1.0,Yellow.png,4.0,98,,,,,,,,,,,,,,,,,
0.0,1.0,0.761175,0.0,23.0,23.0,23.0,1.0,smoothie_09s.jpg,0.0,Green.png,4.0,98,,,,,,,,,,,,,,,,,
0.0,1.0,0.716155,0.0,24.0,24.0,24.0,1.0,latch_15s.jpg,0.0,Blue.png,5.0,98,,,,,,,,,,,,,,,,,
0.0,1.0,0.880385,0.0,25.0,25.0,25.0,1.0,amber_04s.jpg,0.0,Purple.png,5.0,98,,,,,,,,,,,,,,,,,
1.0,0.0,1.05036,0.0,26.0,26.0,26.0,1.0,amber_04s.jpg,0.0,Red.png,5.0,98,,,,,,,,,,,,,,,,,
0.0,1.0,0.949125,0.0,27.0,27.0,27.0,1.0,tennis_ball_06s.jpg,0.0,Orange.png,5.0,98,,,,,,,,,,,,,,,,,
1.0,1.0,1.013205,0.0,28.0,28.0,28.0,1.0,amber_04s.jpg,1.0,Yellow.png,5.0,98,,,,,,,,,,,,,,,,,
0.0,1.0,0.679235,0.0,29.0,29.0,29.0,1.0,milk_02s.jpg,0.0,Green.png,5.0,98,,,,,,,,,,,,,,,,,
0.0,1.0,0.81534,0.0,30.0,30.0,30.0,1.0,coat_rack_01b.jpg,0.0,Blue.png,6.0,98,,,,,,,,,,,,,,,,,
0.0,1.0,0.78386,0.0,31.0,31.0,31.0,1.0,thorn_13s.jpg,0.0,Purple.png,6.0,98,,,,,,,,,,,,,,,,,
1.0,1.0,1.366745,0.0,32.0,32.0,32.0,1.0,coat_rack_01b.jpg,1.0,Red.png,6.0,98,,,,,,,,,,,,,,,,,
0.0,1.0,0.84617,0.0,33.0,33.0,33.0,1.0,razor_blade_01b.jpg,0.0,Orange.png,6.0,98,,,,,,,,,,,,,,,,,
0.0,1.0,0.816465,0.0,34.0,34.0,34.0,1.0,lid_10s.jpg,0.0,Yellow.png,6.0,98,,,,,,,,,,,,,,,,,
1.0,0.0,1.7604,0.0,35.0,35.0,35.0,1.0,lid_10s.jpg,0.0,Green.png,6.0,98,,,,,,,,,,,,,,,,,
,,,,,,,,,0.0,,,98,0.0,1.0,1.647325,0.0,0.0,0.0,0.0,1.0,pocketknife_12s.jpg,tuxedo_01b.jpg,,,,,,,
,,,,,,,,,1.0,,,98,1.0,1.0,0.76836,0.0,1.0,1.0,1.0,1.0,possum_09s.jpg,knot_01b.jpg,,,,,,,
,,,,,,,,,1.0,,,98,1.0,1.0,0.9528,0.0,2.0,2.0,2.0,1.0,pan_02s.jpg,lemonade_04s.jpg,,,,,,,
,,,,,,,,,0.0,,,98,1.0,0.0,0.95234,0.0,3.0,3.0,3.0,1.0,tennis_ball_06s.jpg,latch_15s.jpg,,,,,,,
,,,,,,,,,0.0,,,98,1.0,0.0,1.15496,0.0,4.0,4.0,4.0,1.0,rock_08s.jpg,kettle_08s.jpg,,,,,,,
,,,,,,,,,1.0,,,98,1.0,1.0,0.98564,0.0,5.0,5.0,5.0,1.0,cobra_05s.jpg,spider_web_03s.jpg,,,,,,,
,,,,,,,,,,,,98,,,,,,,,,,,0.0,7.0,7.0,7.0,1.0,new2backpresent_8_1.xlsx,new2back_compare_task_8_1.xlsx
0.0,1.0,1.88954,0.0,0.0,0.0,0.0,1.0,recliner_02s.jpg,0.0,Blue.png,1.0,98,,,,,,,,,,,,,,,,,
0.0,1.0,0.69541,0.0,1.0,1.0,1.0,1.0,lava_02s.jpg,0.0,Purple.png,1.0,98,,,,,,,,,,,,,,,,,
0.0,1.0,0.681235,0.0,2.0,2.0,2.0,1.0,quesadilla_07s.jpg,0.0,Red.png,1.0,98,,,,,,,,,,,,,,,,,
0.0,1.0,0.897475,0.0,3.0,3.0,3.0,1.0,chalice_10s.jpg,0.0,Orange.png,1.0,98,,,,,,,,,,,,,,,,,
0.0,1.0,0.67878,0.0,4.0,4.0,4.0,1.0,tulip_02s.jpg,0.0,Yellow.png,1.0,98,,,,,,,,,,,,,,,,,
1.0,0.0,0.897585,0.0,5.0,5.0,5.0,1.0,quesadilla_07s.jpg,0.0,Green.png,1.0,98,,,,,,,,,,,,,,,,,
0.0,1.0,1.13068,0.0,6.0,6.0,6.0,1.0,lamppost_09s.jpg,0.0,Blue.png,2.0,98,,,,,,,,,,,,,,,,,
0.0,1.0,1.08018,0.0,7.0,7.0,7.0,1.0,chopsticks_08s.jpg,0.0,Purple.png,2.0,98,,,,,,,,,,,,,,,,,
0.0,1.0,0.831185,0.0,8.0,8.0,8.0,1.0,refrigerator_07s.jpg,0.0,Red.png,2.0,98,,,,,,,,,,,,,,,,,
1.0,1.0,1.33236,0.0,9.0,9.0,9.0,1.0,chopsticks_08s.jpg,1.0,Orange.png,2.0,98,,,,,,,,,,,,,,,,,
0.0,1.0,0.950345,0.0,10.0,10.0,10.0,1.0,paper_towel_03s.jpg,0.0,Yellow.png,2.0,98,,,,,,,,,,,,,,,,,
0.0,1.0,0.82954,0.0,11.0,11.0,11.0,1.0,flask_04s.jpg,0.0,Green.png,2.0,98,,,,,,,,,,,,,,,,,
0.0,1.0,0.779725,0.0,12.0,12.0,12.0,1.0,pantyhose_07s.jpg,0.0,Blue.png,3.0,98,,,,,,,,,,,,,,,,,
1.0,1.0,0.900385,0.0,13.0,13.0,13.0,1.0,flask_04s.jpg,1.0,Purple.png,3.0,98,,,,,,,,,,,,,,,,,
1.0,0.0,0.99764,0.0,14.0,14.0,14.0,1.0,chopsticks_08s.jpg,0.0,Red.png,3.0,98,,,,,,,,,,,,,,,,,
0.0,1.0,0.88321,0.0,15.0,15.0,15.0,1.0,seahorse_13s.jpg,0.0,Orange.png,3.0,98,,,,,,,,,,,,,,,,,
0.0,1.0,1.11517,0.0,16.0,16.0,16.0,1.0,pencil_sharpener_09n.jpg,0.0,Yellow.png,3.0,98,,,,,,,,,,,,,,,,,
0.0,1.0,0.93087,0.0,17.0,17.0,17.0,1.0,clover_04s.jpg,0.0,Green.png,3.0,98,,,,,,,,,,,,,,,,,
1.0,1.0,1.079985,0.0,18.0,18.0,18.0,1.0,pencil_sharpener_09n.jpg,1.0,Blue.png,4.0,98,,,,,,,,,,,,,,,,,
0.0,1.0,1.013785,0.0,19.0,19.0,19.0,1.0,fishhook_06s.jpg,0.0,Purple.png,4.0,98,,,,,,,,,,,,,,,,,
1.0,0.0,0.93177,0.0,20.0,20.0,20.0,1.0,clover_04s.jpg,0.0,Red.png,4.0,98,,,,,,,,,,,,,,,,,
0.0,1.0,0.73206,0.0,21.0,21.0,21.0,1.0,stopwatch_04s.jpg,0.0,Orange.png,4.0,98,,,,,,,,,,,,,,,,,
0.0,1.0,0.81844,0.0,22.0,22.0,22.0,1.0,comic_book_02s.jpg,0.0,Yellow.png,4.0,98,,,,,,,,,,,,,,,,,
0.0,1.0,0.8951,0.0,23.0,23.0,23.0,1.0,lab_coat_11s.jpg,0.0,Green.png,4.0,98,,,,,,,,,,,,,,,,,
0.0,1.0,1.06258,0.0,24.0,24.0,24.0,1.0,bolo_tie_08s.jpg,0.0,Blue.png,5.0,98,,,,,,,,,,,,,,,,,
0.0,1.0,0.780825,0.0,25.0,25.0,25.0,1.0,teacup_07s.jpg,0.0,Purple.png,5.0,98,,,,,,,,,,,,,,,,,
0.0,1.0,0.930475,0.0,26.0,26.0,26.0,1.0,eyedropper_12s.jpg,0.0,Red.png,5.0,98,,,,,,,,,,,,,,,,,
0.0,1.0,0.81502,0.0,27.0,27.0,27.0,1.0,frame_06s.jpg,0.0,Orange.png,5.0,98,,,,,,,,,,,,,,,,,
0.0,1.0,0.862695,0.0,28.0,28.0,28.0,1.0,treadmill_06s.jpg,0.0,Yellow.png,5.0,98,,,,,,,,,,,,,,,,,
0.0,1.0,0.73141,0.0,29.0,29.0,29.0,1.0,mug_06s.jpg,0.0,Green.png,5.0,98,,,,,,,,,,,,,,,,,
1.0,0.0,0.780925,0.0,30.0,30.0,30.0,1.0,mug_06s.jpg,0.0,Blue.png,6.0,98,,,,,,,,,,,,,,,,,
1.0,1.0,0.90649,0.0,31.0,31.0,31.0,1.0,mug_06s.jpg,1.0,Purple.png,6.0,98,,,,,,,,,,,,,,,,,
0.0,1.0,1.502745,0.0,32.0,32.0,32.0,1.0,chip_04s.jpg,0.0,Red.png,6.0,98,,,,,,,,,,,,,,,,,
0.0,1.0,0.849015,0.0,33.0,33.0,33.0,1.0,gazelle_10s.jpg,0.0,Orange.png,6.0,98,,,,,,,,,,,,,,,,,
1.0,1.0,1.1651,0.0,34.0,34.0,34.0,1.0,chip_04s.jpg,1.0,Yellow.png,6.0,98,,,,,,,,,,,,,,,,,
0.0,1.0,0.96505,0.0,35.0,35.0,35.0,1.0,quill_09s.jpg,0.0,Green.png,6.0,98,,,,,,,,,,,,,,,,,
,,,,,,,,,0.0,,,98,1.0,0.0,1.54747,0.0,0.0,0.0,0.0,1.0,bolo_tie_08s.jpg,stopwatch_04s.jpg,,,,,,,
,,,,,,,,,0.0,,,98,1.0,0.0,1.504135,0.0,1.0,1.0,1.0,1.0,lamppost_09s.jpg,chalice_10s.jpg,,,,,,,
,,,,,,,,,0.0,,,98,1.0,0.0,1.28735,0.0,2.0,2.0,2.0,1.0,eyedropper_12s.jpg,lab_coat_11s.jpg,,,,,,,
,,,,,,,,,1.0,,,98,1.0,1.0,0.73651,0.0,3.0,3.0,3.0,1.0,lava_02s.jpg,tulip_02s.jpg,,,,,,,
,,,,,,,,,0.0,,,98,0.0,1.0,1.289105,0.0,4.0,4.0,4.0,1.0,seahorse_13s.jpg,pantyhose_07s.jpg,,,,,,,
,,,,,,,,,1.0,,,98,1.0,1.0,0.969195,0.0,5.0,5.0,5.0,1.0,fishhook_06s.jpg,comic_book_02s.jpg,,,,,,,
,,,,,,,,,,,,98,,,,,,,,,,,0.0,8.0,8.0,8.0,1.0,new2backpresent_9_1.xlsx,new2back_compare_task_9_1.xlsx
