key_resp.keys,key_resp.corr,key_resp.rt,present_segment.thisRepN,present_segment.thisTrialN,present_segment.thisN,present_segment.thisIndex,present_segment.ran,pictures,answer,clock,segment,participant,key_resp_2.keys,key_resp_2.corr,key_resp_2.rt,compare_segment.thisRepN,compare_segment.thisTrialN,compare_segment.thisN,compare_segment.thisIndex,compare_segment.ran,item_a,item_b,clock_conditions.thisRepN,clock_conditions.thisTrialN,clock_conditions.thisN,clock_conditions.thisIndex,clock_conditions.ran,present,compare
0.0,1.0,1.629,0.0,0.0,0.0,0.0,1.0,mirror_12s.jpg,0.0,Blue.png,1.0,106,,,,,,,,,,,,,,,,,
0.0,1.0,1.629,0.0,1.0,1.0,1.0,1.0,polaroid_05s.jpg,0.0,Purple.png,1.0,106,,,,,,,,,,,,,,,,,
1.0,1.0,1.276,0.0,2.0,2.0,2.0,1.0,polaroid_05s.jpg,1.0,Red.png,1.0,106,,,,,,,,,,,,,,,,,
0.0,1.0,2.413,0.0,3.0,3.0,3.0,1.0,slingshot_07s.jpg,0.0,Orange.png,1.0,106,,,,,,,,,,,,,,,,,
1.0,1.0,1.329,0.0,4.0,4.0,4.0,1.0,polaroid_05s.jpg,1.0,Yellow.png,1.0,106,,,,,,,,,,,,,,,,,
0.0,1.0,1.12,0.0,5.0,5.0,5.0,1.0,kettle_08s.jpg,0.0,Green.png,1.0,106,,,,,,,,,,,,,,,,,
,0.0,,0.0,6.0,6.0,6.0,1.0,crystal_ball_12s.jpg,0.0,Blue.png,2.0,106,,,,,,,,,,,,,,,,,
0.0,1.0,1.595,0.0,7.0,7.0,7.0,1.0,iron_13s.jpg,0.0,Purple.png,2.0,106,,,,,,,,,,,,,,,,,
0.0,1.0,1.014,0.0,8.0,8.0,8.0,1.0,saddle_06s.jpg,0.0,Red.png,2.0,106,,,,,,,,,,,,,,,,,
0.0,1.0,0.859,0.0,9.0,9.0,9.0,1.0,mango_09s.jpg,0.0,Orange.png,2.0,106,,,,,,,,,,,,,,,,,
0.0,1.0,0.923,0.0,10.0,10.0,10.0,1.0,ostrich_06s.jpg,0.0,Yellow.png,2.0,106,,,,,,,,,,,,,,,,,
1.0,1.0,1.563,0.0,11.0,11.0,11.0,1.0,iron_13s.jpg,1.0,Green.png,2.0,106,,,,,,,,,,,,,,,,,
0.0,1.0,1.527,0.0,12.0,12.0,12.0,1.0,stethoscope_01b.jpg,0.0,Blue.png,3.0,106,,,,,,,,,,,,,,,,,
0.0,1.0,1.244,0.0,13.0,13.0,13.0,1.0,ruby_15s.jpg,0.0,Purple.png,3.0,106,,,,,,,,,,,,,,,,,
0.0,1.0,2.342,0.0,14.0,14.0,14.0,1.0,mango_09s.jpg,0.0,Red.png,3.0,106,,,,,,,,,,,,,,,,,
0.0,1.0,1.524,0.0,15.0,15.0,15.0,1.0,target_11s.jpg,0.0,Orange.png,3.0,106,,,,,,,,,,,,,,,,,
1.0,1.0,1.531,0.0,16.0,16.0,16.0,1.0,mango_09s.jpg,1.0,Yellow.png,3.0,106,,,,,,,,,,,,,,,,,
0.0,1.0,1.443,0.0,17.0,17.0,17.0,1.0,compass_10n.jpg,0.0,Green.png,3.0,106,,,,,,,,,,,,,,,,,
0.0,1.0,1.608,0.0,18.0,18.0,18.0,1.0,meatball_13s.jpg,0.0,Blue.png,4.0,106,,,,,,,,,,,,,,,,,
0.0,1.0,1.328,0.0,19.0,19.0,19.0,1.0,stapler_01b.jpg,0.0,Purple.png,4.0,106,,,,,,,,,,,,,,,,,
1.0,1.0,2.121,0.0,20.0,20.0,20.0,1.0,meatball_13s.jpg,1.0,Red.png,4.0,106,,,,,,,,,,,,,,,,,
0.0,1.0,0.877,0.0,21.0,21.0,21.0,1.0,pump_11s.jpg,0.0,Orange.png,4.0,106,,,,,,,,,,,,,,,,,
0.0,1.0,0.973,0.0,22.0,22.0,22.0,1.0,coral_08s.jpg,0.0,Yellow.png,4.0,106,,,,,,,,,,,,,,,,,
1.0,1.0,1.574,0.0,23.0,23.0,23.0,1.0,meatball_13s.jpg,1.0,Green.png,4.0,106,,,,,,,,,,,,,,,,,
0.0,1.0,1.169,0.0,24.0,24.0,24.0,1.0,peach_04s.jpg,0.0,Blue.png,5.0,106,,,,,,,,,,,,,,,,,
,0.0,,0.0,25.0,25.0,25.0,1.0,meatball_13s.jpg,0.0,Purple.png,5.0,106,,,,,,,,,,,,,,,,,
0.0,1.0,1.852,0.0,26.0,26.0,26.0,1.0,pie_08s.jpg,0.0,Red.png,5.0,106,,,,,,,,,,,,,,,,,
0.0,1.0,1.376,0.0,27.0,27.0,27.0,1.0,rollerskate_03s.jpg,0.0,Orange.png,5.0,106,,,,,,,,,,,,,,,,,
0.0,1.0,1.174,0.0,28.0,28.0,28.0,1.0,trampoline_13s.jpg,0.0,Yellow.png,5.0,106,,,,,,,,,,,,,,,,,
0.0,1.0,1.223,0.0,29.0,29.0,29.0,1.0,undershirt_02s.jpg,0.0,Green.png,5.0,106,,,,,,,,,,,,,,,,,
0.0,1.0,1.405,0.0,30.0,30.0,30.0,1.0,thread_08s.jpg,0.0,Blue.png,6.0,106,,,,,,,,,,,,,,,,,
0.0,1.0,1.545,0.0,31.0,31.0,31.0,1.0,megaphone_03s.jpg,0.0,Purple.png,6.0,106,,,,,,,,,,,,,,,,,
0.0,1.0,1.756,0.0,32.0,32.0,32.0,1.0,plaster_cast_13s.jpg,0.0,Red.png,6.0,106,,,,,,,,,,,,,,,,,
0.0,1.0,1.328,0.0,33.0,33.0,33.0,1.0,diving_board_07s.jpg,0.0,Orange.png,6.0,106,,,,,,,,,,,,,,,,,
0.0,1.0,1.359,0.0,34.0,34.0,34.0,1.0,kayak_08s.jpg,0.0,Yellow.png,6.0,106,,,,,,,,,,,,,,,,,
1.0,1.0,1.826,0.0,35.0,35.0,35.0,1.0,diving_board_07s.jpg,1.0,Green.png,6.0,106,,,,,,,,,,,,,,,,,
,,,,,,,,,1.0,,,106,1.0,1.0,2.999,0.0,0.0,0.0,0.0,1.0,stapler_01b.jpg,coral_08s.jpg,,,,,,,
,,,,,,,,,1.0,,,106,1.0,1.0,2.175,0.0,1.0,1.0,1.0,1.0,slingshot_07s.jpg,crystal_ball_12s.jpg,,,,,,,
,,,,,,,,,0.0,,,106,0.0,1.0,2.871,0.0,2.0,2.0,2.0,1.0,saddle_06s.jpg,kettle_08s.jpg,,,,,,,
,,,,,,,,,1.0,,,106,1.0,1.0,3.072,0.0,3.0,3.0,3.0,1.0,pie_08s.jpg,undershirt_02s.jpg,,,,,,,
,,,,,,,,,1.0,,,106,0.0,0.0,2.231,0.0,4.0,4.0,4.0,1.0,stethoscope_01b.jpg,target_11s.jpg,,,,,,,
,,,,,,,,,1.0,,,106,1.0,1.0,2.859,0.0,5.0,5.0,5.0,1.0,ostrich_06s.jpg,ruby_15s.jpg,,,,,,,
,,,,,,,,,,,,106,,,,,,,,,,,0.0,0.0,0.0,0.0,1.0,newclockpresent_1_4.xlsx,newclock_compare_task_1_4.xlsx
0.0,1.0,1.2,0.0,0.0,0.0,0.0,1.0,jetski_10s.jpg,0.0,Blue.png,1.0,106,,,,,,,,,,,,,,,,,
0.0,1.0,0.997,0.0,1.0,1.0,1.0,1.0,tripod_01b.jpg,0.0,Purple.png,1.0,106,,,,,,,,,,,,,,,,,
0.0,1.0,0.939,0.0,2.0,2.0,2.0,1.0,lab_coat_11s.jpg,0.0,Red.png,1.0,106,,,,,,,,,,,,,,,,,
0.0,1.0,0.812,0.0,3.0,3.0,3.0,1.0,foam_03s.jpg,0.0,Orange.png,1.0,106,,,,,,,,,,,,,,,,,
0.0,1.0,0.771,0.0,4.0,4.0,4.0,1.0,crate_05s.jpg,0.0,Yellow.png,1.0,106,,,,,,,,,,,,,,,,,
0.0,1.0,1.038,0.0,5.0,5.0,5.0,1.0,margarita_03s.jpg,0.0,Green.png,1.0,106,,,,,,,,,,,,,,,,,
0.0,1.0,1.588,0.0,6.0,6.0,6.0,1.0,joystick_01b.jpg,0.0,Blue.png,2.0,106,,,,,,,,,,,,,,,,,
0.0,1.0,1.166,0.0,7.0,7.0,7.0,1.0,giraffe_11s.jpg,0.0,Purple.png,2.0,106,,,,,,,,,,,,,,,,,
0.0,1.0,1.062,0.0,8.0,8.0,8.0,1.0,quilt_03s.jpg,0.0,Red.png,2.0,106,,,,,,,,,,,,,,,,,
1.0,1.0,1.643,0.0,9.0,9.0,9.0,1.0,giraffe_11s.jpg,1.0,Orange.png,2.0,106,,,,,,,,,,,,,,,,,
0.0,1.0,0.957,0.0,10.0,10.0,10.0,1.0,pincushion_10s.jpg,0.0,Yellow.png,2.0,106,,,,,,,,,,,,,,,,,
1.0,1.0,1.658,0.0,11.0,11.0,11.0,1.0,giraffe_11s.jpg,1.0,Green.png,2.0,106,,,,,,,,,,,,,,,,,
1.0,0.0,1.937,0.0,12.0,12.0,12.0,1.0,pincushion_10s.jpg,0.0,Blue.png,3.0,106,,,,,,,,,,,,,,,,,
0.0,1.0,1.325,0.0,13.0,13.0,13.0,1.0,giraffe_11s.jpg,0.0,Purple.png,3.0,106,,,,,,,,,,,,,,,,,
0.0,1.0,1.034,0.0,14.0,14.0,14.0,1.0,rolling_pin_02s.jpg,0.0,Red.png,3.0,106,,,,,,,,,,,,,,,,,
0.0,1.0,1.811,0.0,15.0,15.0,15.0,1.0,ticktacktoe_08s.jpg,0.0,Orange.png,3.0,106,,,,,,,,,,,,,,,,,
1.0,1.0,2.111,0.0,16.0,16.0,16.0,1.0,giraffe_11s.jpg,1.0,Yellow.png,3.0,106,,,,,,,,,,,,,,,,,
1.0,1.0,1.77,0.0,17.0,17.0,17.0,1.0,ticktacktoe_08s.jpg,1.0,Green.png,3.0,106,,,,,,,,,,,,,,,,,
0.0,1.0,1.104,0.0,18.0,18.0,18.0,1.0,typewriter_11s.jpg,0.0,Blue.png,4.0,106,,,,,,,,,,,,,,,,,
0.0,1.0,0.878,0.0,19.0,19.0,19.0,1.0,toothpaste_12s.jpg,0.0,Purple.png,4.0,106,,,,,,,,,,,,,,,,,
0.0,1.0,1.01,0.0,20.0,20.0,20.0,1.0,hummingbird_05s.jpg,0.0,Red.png,4.0,106,,,,,,,,,,,,,,,,,
1.0,1.0,2.2,0.0,21.0,21.0,21.0,1.0,toothpaste_12s.jpg,1.0,Orange.png,4.0,106,,,,,,,,,,,,,,,,,
1.0,1.0,1.861,0.0,22.0,22.0,22.0,1.0,toothpaste_12s.jpg,1.0,Yellow.png,4.0,106,,,,,,,,,,,,,,,,,
0.0,1.0,1.159,0.0,23.0,23.0,23.0,1.0,treadmill_06s.jpg,0.0,Green.png,4.0,106,,,,,,,,,,,,,,,,,
0.0,1.0,1.977,0.0,24.0,24.0,24.0,1.0,typewriter_11s.jpg,0.0,Blue.png,5.0,106,,,,,,,,,,,,,,,,,
0.0,1.0,1.194,0.0,25.0,25.0,25.0,1.0,penguin_16s.jpg,0.0,Purple.png,5.0,106,,,,,,,,,,,,,,,,,
0.0,1.0,1.027,0.0,26.0,26.0,26.0,1.0,olive_05s.jpg,0.0,Red.png,5.0,106,,,,,,,,,,,,,,,,,
1.0,1.0,2.107,0.0,27.0,27.0,27.0,1.0,penguin_16s.jpg,1.0,Orange.png,5.0,106,,,,,,,,,,,,,,,,,
1.0,1.0,1.509,0.0,28.0,28.0,28.0,1.0,penguin_16s.jpg,1.0,Yellow.png,5.0,106,,,,,,,,,,,,,,,,,
0.0,1.0,1.408,0.0,29.0,29.0,29.0,1.0,tab_09s.jpg,0.0,Green.png,5.0,106,,,,,,,,,,,,,,,,,
0.0,1.0,1.0,0.0,30.0,30.0,30.0,1.0,frame_06s.jpg,0.0,Blue.png,6.0,106,,,,,,,,,,,,,,,,,
0.0,1.0,0.794,0.0,31.0,31.0,31.0,1.0,mop_08s.jpg,0.0,Purple.png,6.0,106,,,,,,,,,,,,,,,,,
0.0,1.0,0.945,0.0,32.0,32.0,32.0,1.0,memory_stick_11s.jpg,0.0,Red.png,6.0,106,,,,,,,,,,,,,,,,,
0.0,1.0,2.092,0.0,33.0,33.0,33.0,1.0,olive_05s.jpg,0.0,Orange.png,6.0,106,,,,,,,,,,,,,,,,,
0.0,1.0,1.994,0.0,34.0,34.0,34.0,1.0,ravioli_08s.jpg,0.0,Yellow.png,6.0,106,,,,,,,,,,,,,,,,,
0.0,1.0,1.058,0.0,35.0,35.0,35.0,1.0,mousetrap_15n.jpg,0.0,Green.png,6.0,106,,,,,,,,,,,,,,,,,
,,,,,,,,,1.0,,,106,1.0,1.0,2.06,0.0,0.0,0.0,0.0,1.0,hummingbird_05s.jpg,treadmill_06s.jpg,,,,,,,
,,,,,,,,,1.0,,,106,0.0,0.0,1.814,0.0,1.0,1.0,1.0,1.0,margarita_03s.jpg,quilt_03s.jpg,,,,,,,
,,,,,,,,,0.0,,,106,0.0,1.0,2.026,0.0,2.0,2.0,2.0,1.0,joystick_01b.jpg,foam_03s.jpg,,,,,,,
,,,,,,,,,0.0,,,106,0.0,1.0,2.052,0.0,3.0,3.0,3.0,1.0,ravioli_08s.jpg,mop_08s.jpg,,,,,,,
,,,,,,,,,1.0,,,106,1.0,1.0,2.144,0.0,4.0,4.0,4.0,1.0,tab_09s.jpg,memory_stick_11s.jpg,,,,,,,
,,,,,,,,,1.0,,,106,0.0,0.0,3.67,0.0,5.0,5.0,5.0,1.0,tripod_01b.jpg,crate_05s.jpg,,,,,,,
,,,,,,,,,,,,106,,,,,,,,,,,0.0,1.0,1.0,1.0,1.0,newclockpresent_2_4.xlsx,newclock_compare_task_2_4.xlsx
0.0,1.0,1.206,0.0,0.0,0.0,0.0,1.0,safety_pin_02s.jpg,0.0,Blue.png,1.0,106,,,,,,,,,,,,,,,,,
1.0,1.0,1.408,0.0,1.0,1.0,1.0,1.0,safety_pin_02s.jpg,1.0,Purple.png,1.0,106,,,,,,,,,,,,,,,,,
0.0,1.0,1.183,0.0,2.0,2.0,2.0,1.0,cardinal_07s.jpg,0.0,Red.png,1.0,106,,,,,,,,,,,,,,,,,
1.0,1.0,1.492,0.0,3.0,3.0,3.0,1.0,safety_pin_02s.jpg,1.0,Orange.png,1.0,106,,,,,,,,,,,,,,,,,
0.0,1.0,1.059,0.0,4.0,4.0,4.0,1.0,potholder_02s.jpg,0.0,Yellow.png,1.0,106,,,,,,,,,,,,,,,,,
1.0,1.0,1.429,0.0,5.0,5.0,5.0,1.0,safety_pin_02s.jpg,1.0,Green.png,1.0,106,,,,,,,,,,,,,,,,,
0.0,1.0,1.807,0.0,6.0,6.0,6.0,1.0,cardinal_07s.jpg,0.0,Blue.png,2.0,106,,,,,,,,,,,,,,,,,
0.0,1.0,1.124,0.0,7.0,7.0,7.0,1.0,lion_18s.jpg,0.0,Purple.png,2.0,106,,,,,,,,,,,,,,,,,
0.0,1.0,1.073,0.0,8.0,8.0,8.0,1.0,comic_book_02s.jpg,0.0,Red.png,2.0,106,,,,,,,,,,,,,,,,,
0.0,1.0,1.026,0.0,9.0,9.0,9.0,1.0,lizard_10n.jpg,0.0,Orange.png,2.0,106,,,,,,,,,,,,,,,,,
0.0,1.0,0.975,0.0,10.0,10.0,10.0,1.0,rice_12s.jpg,0.0,Yellow.png,2.0,106,,,,,,,,,,,,,,,,,
0.0,1.0,1.041,0.0,11.0,11.0,11.0,1.0,bagel_15s.jpg,0.0,Green.png,2.0,106,,,,,,,,,,,,,,,,,
0.0,1.0,1.326,0.0,12.0,12.0,12.0,1.0,recliner_02s.jpg,0.0,Blue.png,3.0,106,,,,,,,,,,,,,,,,,
1.0,1.0,1.455,0.0,13.0,13.0,13.0,1.0,recliner_02s.jpg,1.0,Purple.png,3.0,106,,,,,,,,,,,,,,,,,
0.0,1.0,0.943,0.0,14.0,14.0,14.0,1.0,luggage_08s.jpg,0.0,Red.png,3.0,106,,,,,,,,,,,,,,,,,
1.0,1.0,1.974,0.0,15.0,15.0,15.0,1.0,recliner_02s.jpg,1.0,Orange.png,3.0,106,,,,,,,,,,,,,,,,,
0.0,1.0,0.894,0.0,16.0,16.0,16.0,1.0,onion_10s.jpg,0.0,Yellow.png,3.0,106,,,,,,,,,,,,,,,,,
0.0,1.0,1.09,0.0,17.0,17.0,17.0,1.0,rosary_03s.jpg,0.0,Green.png,3.0,106,,,,,,,,,,,,,,,,,
0.0,1.0,1.576,0.0,18.0,18.0,18.0,1.0,smokingpipe.jpg,0.0,Blue.png,4.0,106,,,,,,,,,,,,,,,,,
0.0,1.0,1.13,0.0,19.0,19.0,19.0,1.0,roulette_wheel_04s.jpg,0.0,Purple.png,4.0,106,,,,,,,,,,,,,,,,,
1.0,1.0,1.588,0.0,20.0,20.0,20.0,1.0,smokingpipe.jpg,1.0,Red.png,4.0,106,,,,,,,,,,,,,,,,,
0.0,1.0,0.861,0.0,21.0,21.0,21.0,1.0,orchid_01b.jpg,0.0,Orange.png,4.0,106,,,,,,,,,,,,,,,,,
0.0,1.0,1.244,0.0,22.0,22.0,22.0,1.0,buoy_04s.jpg,0.0,Yellow.png,4.0,106,,,,,,,,,,,,,,,,,
0.0,1.0,1.039,0.0,23.0,23.0,23.0,1.0,stopwatch_04s.jpg,0.0,Green.png,4.0,106,,,,,,,,,,,,,,,,,
0.0,1.0,1.067,0.0,24.0,24.0,24.0,1.0,knitting_needle_04s.jpg,0.0,Blue.png,5.0,106,,,,,,,,,,,,,,,,,
0.0,1.0,1.009,0.0,25.0,25.0,25.0,1.0,prism_10s.jpg,0.0,Purple.png,5.0,106,,,,,,,,,,,,,,,,,
0.0,1.0,1.001,0.0,26.0,26.0,26.0,1.0,teapot_03s.jpg,0.0,Red.png,5.0,106,,,,,,,,,,,,,,,,,
0.0,1.0,0.961,0.0,27.0,27.0,27.0,1.0,fire_pit_10s.jpg,0.0,Orange.png,5.0,106,,,,,,,,,,,,,,,,,
1.0,1.0,1.791,0.0,28.0,28.0,28.0,1.0,fire_pit_10s.jpg,1.0,Yellow.png,5.0,106,,,,,,,,,,,,,,,,,
1.0,1.0,1.895,0.0,29.0,29.0,29.0,1.0,fire_pit_10s.jpg,1.0,Green.png,5.0,106,,,,,,,,,,,,,,,,,
0.0,1.0,1.474,0.0,30.0,30.0,30.0,1.0,ironing_board_07s.jpg,0.0,Blue.png,6.0,106,,,,,,,,,,,,,,,,,
,0.0,,0.0,31.0,31.0,31.0,1.0,fire_pit_10s.jpg,0.0,Purple.png,6.0,106,,,,,,,,,,,,,,,,,
0.0,1.0,1.48,0.0,32.0,32.0,32.0,1.0,mattress_01s.jpg,0.0,Red.png,6.0,106,,,,,,,,,,,,,,,,,
1.0,1.0,1.949,0.0,33.0,33.0,33.0,1.0,fire_pit_10s.jpg,1.0,Orange.png,6.0,106,,,,,,,,,,,,,,,,,
,0.0,,0.0,34.0,34.0,34.0,1.0,mattress_01s.jpg,1.0,Yellow.png,6.0,106,,,,,,,,,,,,,,,,,
0.0,1.0,1.275,0.0,35.0,35.0,35.0,1.0,ice-cream_cone_06s.jpg,0.0,Green.png,6.0,106,,,,,,,,,,,,,,,,,
,,,,,,,,,1.0,,,106,1.0,1.0,2.681,0.0,0.0,0.0,0.0,1.0,roulette_wheel_04s.jpg,buoy_04s.jpg,,,,,,,
,,,,,,,,,0.0,,,106,1.0,0.0,1.876,0.0,1.0,1.0,1.0,1.0,lion_18s.jpg,potholder_02s.jpg,,,,,,,
,,,,,,,,,0.0,,,106,0.0,1.0,1.657,0.0,2.0,2.0,2.0,1.0,bagel_15s.jpg,comic_book_02s.jpg,,,,,,,
,,,,,,,,,1.0,,,106,0.0,0.0,2.089,0.0,3.0,3.0,3.0,1.0,stopwatch_04s.jpg,teapot_03s.jpg,,,,,,,
,,,,,,,,,1.0,,,106,1.0,1.0,2.054,0.0,4.0,4.0,4.0,1.0,luggage_08s.jpg,rosary_03s.jpg,,,,,,,
,,,,,,,,,1.0,,,106,1.0,1.0,1.834,0.0,5.0,5.0,5.0,1.0,orchid_01b.jpg,knitting_needle_04s.jpg,,,,,,,
,,,,,,,,,,,,106,,,,,,,,,,,0.0,2.0,2.0,2.0,1.0,newclockpresent_3_4.xlsx,newclock_compare_task_3_4.xlsx
0.0,1.0,1.325,0.0,0.0,0.0,0.0,1.0,smoothie_09s.jpg,0.0,Blue.png,1.0,106,,,,,,,,,,,,,,,,,
0.0,1.0,0.82,0.0,1.0,1.0,1.0,1.0,raspberry_12s.jpg,0.0,Purple.png,1.0,106,,,,,,,,,,,,,,,,,
1.0,1.0,1.157,0.0,2.0,2.0,2.0,1.0,raspberry_12s.jpg,1.0,Red.png,1.0,106,,,,,,,,,,,,,,,,,
0.0,1.0,0.865,0.0,3.0,3.0,3.0,1.0,lamb_chop_07s.jpg,0.0,Orange.png,1.0,106,,,,,,,,,,,,,,,,,
1.0,1.0,1.345,0.0,4.0,4.0,4.0,1.0,smoothie_09s.jpg,1.0,Yellow.png,1.0,106,,,,,,,,,,,,,,,,,
1.0,1.0,1.678,0.0,5.0,5.0,5.0,1.0,raspberry_12s.jpg,1.0,Green.png,1.0,106,,,,,,,,,,,,,,,,,
0.0,1.0,1.181,0.0,6.0,6.0,6.0,1.0,lava_02s.jpg,0.0,Blue.png,2.0,106,,,,,,,,,,,,,,,,,
0.0,1.0,0.924,0.0,7.0,7.0,7.0,1.0,trident_07s.jpg,0.0,Purple.png,2.0,106,,,,,,,,,,,,,,,,,
1.0,1.0,1.392,0.0,8.0,8.0,8.0,1.0,trident_07s.jpg,1.0,Red.png,2.0,106,,,,,,,,,,,,,,,,,
1.0,1.0,1.178,0.0,9.0,9.0,9.0,1.0,trident_07s.jpg,1.0,Orange.png,2.0,106,,,,,,,,,,,,,,,,,
0.0,1.0,0.846,0.0,10.0,10.0,10.0,1.0,orangutan_03s.jpg,0.0,Yellow.png,2.0,106,,,,,,,,,,,,,,,,,
1.0,1.0,1.243,0.0,11.0,11.0,11.0,1.0,trident_07s.jpg,1.0,Green.png,2.0,106,,,,,,,,,,,,,,,,,
0.0,1.0,1.445,0.0,12.0,12.0,12.0,1.0,raspberry_12s.jpg,0.0,Blue.png,3.0,106,,,,,,,,,,,,,,,,,
0.0,1.0,1.276,0.0,13.0,13.0,13.0,1.0,trident_07s.jpg,0.0,Purple.png,3.0,106,,,,,,,,,,,,,,,,,
0.0,1.0,1.11,0.0,14.0,14.0,14.0,1.0,lavender_10s.jpg,0.0,Red.png,3.0,106,,,,,,,,,,,,,,,,,
0.0,1.0,1.2,0.0,15.0,15.0,15.0,1.0,chip_04s.jpg,0.0,Orange.png,3.0,106,,,,,,,,,,,,,,,,,
0.0,1.0,1.089,0.0,16.0,16.0,16.0,1.0,lamb_04s.jpg,0.0,Yellow.png,3.0,106,,,,,,,,,,,,,,,,,
0.0,1.0,1.16,0.0,17.0,17.0,17.0,1.0,emerald_02s.jpg,0.0,Green.png,3.0,106,,,,,,,,,,,,,,,,,
0.0,1.0,1.075,0.0,18.0,18.0,18.0,1.0,pineapple_12s.jpg,0.0,Blue.png,4.0,106,,,,,,,,,,,,,,,,,
0.0,1.0,1.145,0.0,19.0,19.0,19.0,1.0,sundae_08s.jpg,0.0,Purple.png,4.0,106,,,,,,,,,,,,,,,,,
1.0,1.0,1.291,0.0,20.0,20.0,20.0,1.0,sundae_08s.jpg,1.0,Red.png,4.0,106,,,,,,,,,,,,,,,,,
0.0,1.0,1.42,0.0,21.0,21.0,21.0,1.0,squirrel_02s.jpg,0.0,Orange.png,4.0,106,,,,,,,,,,,,,,,,,
0.0,1.0,1.13,0.0,22.0,22.0,22.0,1.0,roller_coaster_07s.jpg,0.0,Yellow.png,4.0,106,,,,,,,,,,,,,,,,,
1.0,1.0,1.479,0.0,23.0,23.0,23.0,1.0,sundae_08s.jpg,1.0,Green.png,4.0,106,,,,,,,,,,,,,,,,,
0.0,1.0,1.206,0.0,24.0,24.0,24.0,1.0,tweezers_03s.jpg,0.0,Blue.png,5.0,106,,,,,,,,,,,,,,,,,
0.0,1.0,1.36,0.0,25.0,25.0,25.0,1.0,sundae_08s.jpg,0.0,Purple.png,5.0,106,,,,,,,,,,,,,,,,,
0.0,1.0,1.294,0.0,26.0,26.0,26.0,1.0,rudder_02s.jpg,0.0,Red.png,5.0,106,,,,,,,,,,,,,,,,,
0.0,1.0,1.177,0.0,27.0,27.0,27.0,1.0,rake_06s.jpg,0.0,Orange.png,5.0,106,,,,,,,,,,,,,,,,,
1.0,1.0,1.444,0.0,28.0,28.0,28.0,1.0,rake_06s.jpg,1.0,Yellow.png,5.0,106,,,,,,,,,,,,,,,,,
1.0,1.0,1.359,0.0,29.0,29.0,29.0,1.0,rake_06s.jpg,1.0,Green.png,5.0,106,,,,,,,,,,,,,,,,,
0.0,1.0,1.315,0.0,30.0,30.0,30.0,1.0,cap_05s.jpg,0.0,Blue.png,6.0,106,,,,,,,,,,,,,,,,,
0.0,1.0,1.197,0.0,31.0,31.0,31.0,1.0,paper_towel_03s.jpg,0.0,Purple.png,6.0,106,,,,,,,,,,,,,,,,,
0.0,1.0,1.321,0.0,32.0,32.0,32.0,1.0,toaster_03s.jpg,0.0,Red.png,6.0,106,,,,,,,,,,,,,,,,,
0.0,1.0,1.172,0.0,33.0,33.0,33.0,1.0,money_07s.jpg,0.0,Orange.png,6.0,106,,,,,,,,,,,,,,,,,
0.0,1.0,1.381,0.0,34.0,34.0,34.0,1.0,pinwheel_06s.jpg,0.0,Yellow.png,6.0,106,,,,,,,,,,,,,,,,,
0.0,1.0,1.433,0.0,35.0,35.0,35.0,1.0,lid_10s.jpg,0.0,Green.png,6.0,106,,,,,,,,,,,,,,,,,
,,,,,,,,,0.0,,,106,0.0,1.0,3.812,0.0,0.0,0.0,0.0,1.0,tweezers_03s.jpg,squirrel_02s.jpg,,,,,,,
,,,,,,,,,1.0,,,106,0.0,0.0,3.052,0.0,1.0,1.0,1.0,1.0,chip_04s.jpg,pineapple_12s.jpg,,,,,,,
,,,,,,,,,1.0,,,106,1.0,1.0,1.876,0.0,2.0,2.0,2.0,1.0,lamb_chop_07s.jpg,lava_02s.jpg,,,,,,,
,,,,,,,,,0.0,,,106,0.0,1.0,2.818,0.0,3.0,3.0,3.0,1.0,pinwheel_06s.jpg,paper_towel_03s.jpg,,,,,,,
,,,,,,,,,0.0,,,106,1.0,0.0,2.156,0.0,4.0,4.0,4.0,1.0,emerald_02s.jpg,lavender_10s.jpg,,,,,,,
,,,,,,,,,0.0,,,106,1.0,0.0,2.483,0.0,5.0,5.0,5.0,1.0,money_07s.jpg,cap_05s.jpg,,,,,,,
,,,,,,,,,,,,106,,,,,,,,,,,0.0,3.0,3.0,3.0,1.0,newclockpresent_4_4.xlsx,newclock_compare_task_4_4.xlsx
0.0,1.0,1.306,0.0,0.0,0.0,0.0,1.0,fur_coat_11s.jpg,0.0,Blue.png,1.0,106,,,,,,,,,,,,,,,,,
0.0,1.0,1.41,0.0,1.0,1.0,1.0,1.0,crayon_09s.jpg,0.0,Purple.png,1.0,106,,,,,,,,,,,,,,,,,
0.0,1.0,1.48,0.0,2.0,2.0,2.0,1.0,cobra_05s.jpg,0.0,Red.png,1.0,106,,,,,,,,,,,,,,,,,
0.0,1.0,1.107,0.0,3.0,3.0,3.0,1.0,raccoon_02s.jpg,0.0,Orange.png,1.0,106,,,,,,,,,,,,,,,,,
0.0,1.0,0.944,0.0,4.0,4.0,4.0,1.0,soda_fountain_03s.jpg,0.0,Yellow.png,1.0,106,,,,,,,,,,,,,,,,,
1.0,1.0,1.482,0.0,5.0,5.0,5.0,1.0,raccoon_02s.jpg,1.0,Green.png,1.0,106,,,,,,,,,,,,,,,,,
0.0,1.0,0.97,0.0,6.0,6.0,6.0,1.0,feather02.jpg,0.0,Blue.png,2.0,106,,,,,,,,,,,,,,,,,
1.0,0.0,2.046,0.0,7.0,7.0,7.0,1.0,raccoon_02s.jpg,0.0,Purple.png,2.0,106,,,,,,,,,,,,,,,,,
1.0,1.0,1.868,0.0,8.0,8.0,8.0,1.0,feather02.jpg,1.0,Red.png,2.0,106,,,,,,,,,,,,,,,,,
0.0,1.0,0.942,0.0,9.0,9.0,9.0,1.0,rug_09s.jpg,0.0,Orange.png,2.0,106,,,,,,,,,,,,,,,,,
1.0,1.0,1.156,0.0,10.0,10.0,10.0,1.0,feather02.jpg,1.0,Yellow.png,2.0,106,,,,,,,,,,,,,,,,,
0.0,1.0,1.091,0.0,11.0,11.0,11.0,1.0,cushion_08s.jpg,0.0,Green.png,2.0,106,,,,,,,,,,,,,,,,,
0.0,1.0,1.508,0.0,12.0,12.0,12.0,1.0,feather02.jpg,0.0,Blue.png,3.0,106,,,,,,,,,,,,,,,,,
1.0,1.0,1.681,0.0,13.0,13.0,13.0,1.0,feather02.jpg,1.0,Purple.png,3.0,106,,,,,,,,,,,,,,,,,
0.0,1.0,1.087,0.0,14.0,14.0,14.0,1.0,ice_pack_09s.jpg,0.0,Red.png,3.0,106,,,,,,,,,,,,,,,,,
1.0,1.0,1.306,0.0,15.0,15.0,15.0,1.0,ice_pack_09s.jpg,1.0,Orange.png,3.0,106,,,,,,,,,,,,,,,,,
0.0,1.0,0.991,0.0,16.0,16.0,16.0,1.0,loom_05s.jpg,0.0,Yellow.png,3.0,106,,,,,,,,,,,,,,,,,
1.0,1.0,1.298,0.0,17.0,17.0,17.0,1.0,ice_pack_09s.jpg,1.0,Green.png,3.0,106,,,,,,,,,,,,,,,,,
0.0,1.0,1.206,0.0,18.0,18.0,18.0,1.0,ice_pack_09s.jpg,0.0,Blue.png,4.0,106,,,,,,,,,,,,,,,,,
1.0,1.0,1.592,0.0,19.0,19.0,19.0,1.0,ice_pack_09s.jpg,1.0,Purple.png,4.0,106,,,,,,,,,,,,,,,,,
1.0,1.0,0.947,0.0,20.0,20.0,20.0,1.0,ice_pack_09s.jpg,1.0,Red.png,4.0,106,,,,,,,,,,,,,,,,,
0.0,1.0,0.866,0.0,21.0,21.0,21.0,1.0,blazer_02s.jpg,0.0,Orange.png,4.0,106,,,,,,,,,,,,,,,,,
0.0,1.0,0.746,0.0,22.0,22.0,22.0,1.0,penlight_12s.jpg,0.0,Yellow.png,4.0,106,,,,,,,,,,,,,,,,,
0.0,1.0,1.075,0.0,23.0,23.0,23.0,1.0,swan_11s.jpg,0.0,Green.png,4.0,106,,,,,,,,,,,,,,,,,
0.0,1.0,1.489,0.0,24.0,24.0,24.0,1.0,plunger_08s.jpg,0.0,Blue.png,5.0,106,,,,,,,,,,,,,,,,,
0.0,1.0,0.915,0.0,25.0,25.0,25.0,1.0,bottle_opener_11s.jpg,0.0,Purple.png,5.0,106,,,,,,,,,,,,,,,,,
0.0,1.0,0.746,0.0,26.0,26.0,26.0,1.0,checkbook_11s.jpg,0.0,Red.png,5.0,106,,,,,,,,,,,,,,,,,
0.0,1.0,1.157,0.0,27.0,27.0,27.0,1.0,ink_08s.jpg,0.0,Orange.png,5.0,106,,,,,,,,,,,,,,,,,
1.0,1.0,1.575,0.0,28.0,28.0,28.0,1.0,plunger_08s.jpg,1.0,Yellow.png,5.0,106,,,,,,,,,,,,,,,,,
0.0,1.0,1.564,0.0,29.0,29.0,29.0,1.0,pencil02a.jpg,0.0,Green.png,5.0,106,,,,,,,,,,,,,,,,,
0.0,1.0,0.991,0.0,30.0,30.0,30.0,1.0,ginger_09s.jpg,0.0,Blue.png,6.0,106,,,,,,,,,,,,,,,,,
0.0,1.0,0.903,0.0,31.0,31.0,31.0,1.0,taxi_15s.jpg,0.0,Purple.png,6.0,106,,,,,,,,,,,,,,,,,
0.0,1.0,1.054,0.0,32.0,32.0,32.0,1.0,toy_04s.jpg,0.0,Red.png,6.0,106,,,,,,,,,,,,,,,,,
0.0,1.0,1.188,0.0,33.0,33.0,33.0,1.0,blowfish_03s.jpg,0.0,Orange.png,6.0,106,,,,,,,,,,,,,,,,,
0.0,1.0,1.11,0.0,34.0,34.0,34.0,1.0,toilet_paper_12s.jpg,0.0,Yellow.png,6.0,106,,,,,,,,,,,,,,,,,
0.0,1.0,0.907,0.0,35.0,35.0,35.0,1.0,puddle_02s.jpg,0.0,Green.png,6.0,106,,,,,,,,,,,,,,,,,
,,,,,,,,,1.0,,,106,1.0,1.0,5.611,0.0,0.0,0.0,0.0,1.0,ink_08s.jpg,ginger_09s.jpg,,,,,,,
,,,,,,,,,0.0,,,106,1.0,0.0,2.99,0.0,1.0,1.0,1.0,1.0,puddle_02s.jpg,toy_04s.jpg,,,,,,,
,,,,,,,,,0.0,,,106,1.0,0.0,1.975,0.0,2.0,2.0,2.0,1.0,bottle_opener_11s.jpg,penlight_12s.jpg,,,,,,,
,,,,,,,,,0.0,,,106,0.0,1.0,1.952,0.0,3.0,3.0,3.0,1.0,checkbook_11s.jpg,swan_11s.jpg,,,,,,,
,,,,,,,,,1.0,,,106,1.0,1.0,2.052,0.0,4.0,4.0,4.0,1.0,taxi_15s.jpg,toilet_paper_12s.jpg,,,,,,,
,,,,,,,,,1.0,,,106,0.0,0.0,1.981,0.0,5.0,5.0,5.0,1.0,crayon_09s.jpg,soda_fountain_03s.jpg,,,,,,,
,,,,,,,,,,,,106,,,,,,,,,,,0.0,4.0,4.0,4.0,1.0,newclockpresent_5_4.xlsx,newclock_compare_task_5_4.xlsx
0.0,1.0,1.424,0.0,0.0,0.0,0.0,1.0,flask_04s.jpg,0.0,Blue.png,1.0,106,,,,,,,,,,,,,,,,,
0.0,1.0,0.676,0.0,1.0,1.0,1.0,1.0,kimono_13s.jpg,0.0,Purple.png,1.0,106,,,,,,,,,,,,,,,,,
0.0,1.0,0.893,0.0,2.0,2.0,2.0,1.0,limousine_12s.jpg,0.0,Red.png,1.0,106,,,,,,,,,,,,,,,,,
0.0,1.0,1.021,0.0,3.0,3.0,3.0,1.0,lectern_08s.jpg,0.0,Orange.png,1.0,106,,,,,,,,,,,,,,,,,
1.0,1.0,1.445,0.0,4.0,4.0,4.0,1.0,kimono_13s.jpg,1.0,Yellow.png,1.0,106,,,,,,,,,,,,,,,,,
0.0,1.0,1.162,0.0,5.0,5.0,5.0,1.0,doily_13s.jpg,0.0,Green.png,1.0,106,,,,,,,,,,,,,,,,,
0.0,1.0,1.646,0.0,6.0,6.0,6.0,1.0,kimono_13s.jpg,0.0,Blue.png,2.0,106,,,,,,,,,,,,,,,,,
0.0,1.0,1.412,0.0,7.0,7.0,7.0,1.0,razor_blade_01b.jpg,0.0,Purple.png,2.0,106,,,,,,,,,,,,,,,,,
1.0,1.0,1.507,0.0,8.0,8.0,8.0,1.0,razor_blade_01b.jpg,1.0,Red.png,2.0,106,,,,,,,,,,,,,,,,,
0.0,1.0,1.122,0.0,9.0,9.0,9.0,1.0,champagne_18s.jpg,0.0,Orange.png,2.0,106,,,,,,,,,,,,,,,,,
0.0,1.0,0.989,0.0,10.0,10.0,10.0,1.0,stamp1_11s.jpg,0.0,Yellow.png,2.0,106,,,,,,,,,,,,,,,,,
0.0,0.0,1.62,0.0,11.0,11.0,11.0,1.0,champagne_18s.jpg,1.0,Green.png,2.0,106,,,,,,,,,,,,,,,,,
0.0,1.0,1.346,0.0,12.0,12.0,12.0,1.0,crossbow_10s.jpg,0.0,Blue.png,3.0,106,,,,,,,,,,,,,,,,,
0.0,1.0,1.002,0.0,13.0,13.0,13.0,1.0,briefcase_03s.jpg,0.0,Purple.png,3.0,106,,,,,,,,,,,,,,,,,
0.0,1.0,0.945,0.0,14.0,14.0,14.0,1.0,jersey_02s.jpg,0.0,Red.png,3.0,106,,,,,,,,,,,,,,,,,
1.0,1.0,1.589,0.0,15.0,15.0,15.0,1.0,briefcase_03s.jpg,1.0,Orange.png,3.0,106,,,,,,,,,,,,,,,,,
0.0,1.0,0.958,0.0,16.0,16.0,16.0,1.0,oil_02s.jpg,0.0,Yellow.png,3.0,106,,,,,,,,,,,,,,,,,
0.0,1.0,0.96,0.0,17.0,17.0,17.0,1.0,tinsel_12s.jpg,0.0,Green.png,3.0,106,,,,,,,,,,,,,,,,,
0.0,1.0,1.896,0.0,18.0,18.0,18.0,1.0,flask_04s.jpg,0.0,Blue.png,4.0,106,,,,,,,,,,,,,,,,,
0.0,1.0,1.115,0.0,19.0,19.0,19.0,1.0,fork_04s.jpg,0.0,Purple.png,4.0,106,,,,,,,,,,,,,,,,,
0.0,1.0,0.704,0.0,20.0,20.0,20.0,1.0,purse_05s.jpg,0.0,Red.png,4.0,106,,,,,,,,,,,,,,,,,
1.0,1.0,1.642,0.0,21.0,21.0,21.0,1.0,flask_04s.jpg,1.0,Orange.png,4.0,106,,,,,,,,,,,,,,,,,
0.0,1.0,1.578,0.0,22.0,22.0,22.0,1.0,sledgehammer_03s.jpg,0.0,Yellow.png,4.0,106,,,,,,,,,,,,,,,,,
0.0,1.0,0.928,0.0,23.0,23.0,23.0,1.0,turf_03s.jpg,0.0,Green.png,4.0,106,,,,,,,,,,,,,,,,,
0.0,1.0,0.914,0.0,24.0,24.0,24.0,1.0,omelet_07s.jpg,0.0,Blue.png,5.0,106,,,,,,,,,,,,,,,,,
0.0,1.0,1.639,0.0,25.0,25.0,25.0,1.0,turf_03s.jpg,0.0,Purple.png,5.0,106,,,,,,,,,,,,,,,,,
0.0,1.0,1.125,0.0,26.0,26.0,26.0,1.0,clover_04s.jpg,0.0,Red.png,5.0,106,,,,,,,,,,,,,,,,,
0.0,1.0,0.979,0.0,27.0,27.0,27.0,1.0,lip_gloss_06s.jpg,0.0,Orange.png,5.0,106,,,,,,,,,,,,,,,,,
0.0,1.0,1.123,0.0,28.0,28.0,28.0,1.0,amber_04s.jpg,0.0,Yellow.png,5.0,106,,,,,,,,,,,,,,,,,
0.0,1.0,1.432,0.0,29.0,29.0,29.0,1.0,tortilla_06s.jpg,0.0,Green.png,5.0,106,,,,,,,,,,,,,,,,,
0.0,1.0,1.541,0.0,30.0,30.0,30.0,1.0,razor_blade_01b.jpg,0.0,Blue.png,6.0,106,,,,,,,,,,,,,,,,,
0.0,1.0,0.996,0.0,31.0,31.0,31.0,1.0,tape_measure_11s.jpg,0.0,Purple.png,6.0,106,,,,,,,,,,,,,,,,,
1.0,1.0,1.574,0.0,32.0,32.0,32.0,1.0,razor_blade_01b.jpg,1.0,Red.png,6.0,106,,,,,,,,,,,,,,,,,
1.0,1.0,1.378,0.0,33.0,33.0,33.0,1.0,razor_blade_01b.jpg,1.0,Orange.png,6.0,106,,,,,,,,,,,,,,,,,
0.0,1.0,0.873,0.0,34.0,34.0,34.0,1.0,stingray_02s.jpg,0.0,Yellow.png,6.0,106,,,,,,,,,,,,,,,,,
0.0,1.0,1.077,0.0,35.0,35.0,35.0,1.0,harpoon.jpg,0.0,Green.png,6.0,106,,,,,,,,,,,,,,,,,
,,,,,,,,,1.0,,,106,1.0,1.0,7.582,0.0,0.0,0.0,0.0,1.0,oil_02s.jpg,fork_04s.jpg,,,,,,,
,,,,,,,,,0.0,,,106,0.0,1.0,2.504,0.0,1.0,1.0,1.0,1.0,doily_13s.jpg,limousine_12s.jpg,,,,,,,
,,,,,,,,,0.0,,,106,1.0,0.0,2.313,0.0,2.0,2.0,2.0,1.0,lip_gloss_06s.jpg,omelet_07s.jpg,,,,,,,
,,,,,,,,,0.0,,,106,1.0,0.0,1.889,0.0,3.0,3.0,3.0,1.0,tape_measure_11s.jpg,amber_04s.jpg,,,,,,,
,,,,,,,,,0.0,,,106,0.0,1.0,1.479,0.0,4.0,4.0,4.0,1.0,tortilla_06s.jpg,clover_04s.jpg,,,,,,,
,,,,,,,,,0.0,,,106,1.0,0.0,2.42,0.0,5.0,5.0,5.0,1.0,purse_05s.jpg,tinsel_12s.jpg,,,,,,,
,,,,,,,,,,,,106,,,,,,,,,,,0.0,5.0,5.0,5.0,1.0,newclockpresent_6_4.xlsx,newclock_compare_task_6_4.xlsx
0.0,1.0,1.172,0.0,0.0,0.0,0.0,1.0,butter_14s.jpg,0.0,Blue.png,1.0,106,,,,,,,,,,,,,,,,,
1.0,1.0,1.469,0.0,1.0,1.0,1.0,1.0,butter_14s.jpg,1.0,Purple.png,1.0,106,,,,,,,,,,,,,,,,,
1.0,1.0,1.105,0.0,2.0,2.0,2.0,1.0,butter_14s.jpg,1.0,Red.png,1.0,106,,,,,,,,,,,,,,,,,
0.0,1.0,0.843,0.0,3.0,3.0,3.0,1.0,stamp2_08s.jpg,0.0,Orange.png,1.0,106,,,,,,,,,,,,,,,,,
0.0,1.0,1.01,0.0,4.0,4.0,4.0,1.0,kangaroo_02s.jpg,0.0,Yellow.png,1.0,106,,,,,,,,,,,,,,,,,
0.0,1.0,1.392,0.0,5.0,5.0,5.0,1.0,camcorder_10s.jpg,0.0,Green.png,1.0,106,,,,,,,,,,,,,,,,,
0.0,1.0,1.364,0.0,6.0,6.0,6.0,1.0,bank_06s.jpg,0.0,Blue.png,2.0,106,,,,,,,,,,,,,,,,,
0.0,1.0,0.994,0.0,7.0,7.0,7.0,1.0,gear_07s.jpg,0.0,Purple.png,2.0,106,,,,,,,,,,,,,,,,,
,0.0,,0.0,8.0,8.0,8.0,1.0,bank_06s.jpg,1.0,Red.png,2.0,106,,,,,,,,,,,,,,,,,
0.0,1.0,1.476,0.0,9.0,9.0,9.0,1.0,funnel_01b.jpg,0.0,Orange.png,2.0,106,,,,,,,,,,,,,,,,,
0.0,1.0,0.827,0.0,10.0,10.0,10.0,1.0,poinsettia_04s.jpg,0.0,Yellow.png,2.0,106,,,,,,,,,,,,,,,,,
1.0,1.0,1.318,0.0,11.0,11.0,11.0,1.0,funnel_01b.jpg,1.0,Green.png,2.0,106,,,,,,,,,,,,,,,,,
0.0,1.0,0.916,0.0,12.0,12.0,12.0,1.0,rooster_03s.jpg,0.0,Blue.png,3.0,106,,,,,,,,,,,,,,,,,
0.0,1.0,0.76,0.0,13.0,13.0,13.0,1.0,denture_03s.jpg,0.0,Purple.png,3.0,106,,,,,,,,,,,,,,,,,
0.0,1.0,0.887,0.0,14.0,14.0,14.0,1.0,bean_06s.jpg,0.0,Red.png,3.0,106,,,,,,,,,,,,,,,,,
0.0,1.0,1.061,0.0,15.0,15.0,15.0,1.0,mud_13s.jpg,0.0,Orange.png,3.0,106,,,,,,,,,,,,,,,,,
0.0,1.0,1.074,0.0,16.0,16.0,16.0,1.0,keyhole_03s.jpg,0.0,Yellow.png,3.0,106,,,,,,,,,,,,,,,,,
1.0,1.0,1.498,0.0,17.0,17.0,17.0,1.0,bean_06s.jpg,1.0,Green.png,3.0,106,,,,,,,,,,,,,,,,,
0.0,1.0,1.274,0.0,18.0,18.0,18.0,1.0,bank_06s.jpg,0.0,Blue.png,4.0,106,,,,,,,,,,,,,,,,,
0.0,1.0,1.213,0.0,19.0,19.0,19.0,1.0,pomegranate_04s.jpg,0.0,Purple.png,4.0,106,,,,,,,,,,,,,,,,,
0.0,1.0,0.888,0.0,20.0,20.0,20.0,1.0,chopsticks_08s.jpg,0.0,Red.png,4.0,106,,,,,,,,,,,,,,,,,
0.0,1.0,0.924,0.0,21.0,21.0,21.0,1.0,contact_lens_15s.jpg,0.0,Orange.png,4.0,106,,,,,,,,,,,,,,,,,
0.0,1.0,0.914,0.0,22.0,22.0,22.0,1.0,hydrant_10s.jpg,0.0,Yellow.png,4.0,106,,,,,,,,,,,,,,,,,
0.0,1.0,0.871,0.0,23.0,23.0,23.0,1.0,gingerbread_man_03s.jpg,0.0,Green.png,4.0,106,,,,,,,,,,,,,,,,,
0.0,1.0,0.857,0.0,24.0,24.0,24.0,1.0,camcorder_10s.jpg,0.0,Blue.png,5.0,106,,,,,,,,,,,,,,,,,
0.0,1.0,0.776,0.0,25.0,25.0,25.0,1.0,teabag_12s.jpg,0.0,Purple.png,5.0,106,,,,,,,,,,,,,,,,,
0.0,1.0,0.874,0.0,26.0,26.0,26.0,1.0,radiator_05s.jpg,0.0,Red.png,5.0,106,,,,,,,,,,,,,,,,,
0.0,1.0,0.945,0.0,27.0,27.0,27.0,1.0,punch1_10s.jpg,0.0,Orange.png,5.0,106,,,,,,,,,,,,,,,,,
0.0,1.0,0.766,0.0,28.0,28.0,28.0,1.0,mailbox_11s.jpg,0.0,Yellow.png,5.0,106,,,,,,,,,,,,,,,,,
0.0,1.0,0.842,0.0,29.0,29.0,29.0,1.0,beaker_01b.jpg,0.0,Green.png,5.0,106,,,,,,,,,,,,,,,,,
0.0,1.0,1.079,0.0,30.0,30.0,30.0,1.0,mailbox_11s.jpg,0.0,Blue.png,6.0,106,,,,,,,,,,,,,,,,,
0.0,1.0,0.914,0.0,31.0,31.0,31.0,1.0,pipe1_10s.jpg,0.0,Purple.png,6.0,106,,,,,,,,,,,,,,,,,
1.0,1.0,1.458,0.0,32.0,32.0,32.0,1.0,mailbox_11s.jpg,1.0,Red.png,6.0,106,,,,,,,,,,,,,,,,,
1.0,1.0,1.271,0.0,33.0,33.0,33.0,1.0,pipe1_10s.jpg,1.0,Orange.png,6.0,106,,,,,,,,,,,,,,,,,
0.0,1.0,0.993,0.0,34.0,34.0,34.0,1.0,eyedropper_12s.jpg,0.0,Yellow.png,6.0,106,,,,,,,,,,,,,,,,,
0.0,1.0,1.01,0.0,35.0,35.0,35.0,1.0,rhubarb_03s.jpg,0.0,Green.png,6.0,106,,,,,,,,,,,,,,,,,
,,,,,,,,,0.0,,,106,0.0,1.0,3.633,0.0,0.0,0.0,0.0,1.0,mud_13s.jpg,rooster_03s.jpg,,,,,,,
,,,,,,,,,1.0,,,106,0.0,0.0,4.593,0.0,1.0,1.0,1.0,1.0,chopsticks_08s.jpg,gingerbread_man_03s.jpg,,,,,,,
,,,,,,,,,0.0,,,106,0.0,1.0,3.573,0.0,2.0,2.0,2.0,1.0,beaker_01b.jpg,radiator_05s.jpg,,,,,,,
,,,,,,,,,0.0,,,106,1.0,0.0,2.635,0.0,3.0,3.0,3.0,1.0,teabag_12s.jpg,hydrant_10s.jpg,,,,,,,
,,,,,,,,,0.0,,,106,1.0,0.0,2.893,0.0,4.0,4.0,4.0,1.0,denture_03s.jpg,poinsettia_04s.jpg,,,,,,,
,,,,,,,,,1.0,,,106,1.0,1.0,1.482,0.0,5.0,5.0,5.0,1.0,kangaroo_02s.jpg,gear_07s.jpg,,,,,,,
,,,,,,,,,,,,106,,,,,,,,,,,0.0,6.0,6.0,6.0,1.0,newclockpresent_7_4.xlsx,newclock_compare_task_7_4.xlsx
0.0,1.0,1.014,0.0,0.0,0.0,0.0,1.0,lamppost_09s.jpg,0.0,Blue.png,1.0,106,,,,,,,,,,,,,,,,,
0.0,1.0,0.867,0.0,1.0,1.0,1.0,1.0,jewel_01b.jpg,0.0,Purple.png,1.0,106,,,,,,,,,,,,,,,,,
0.0,1.0,0.839,0.0,2.0,2.0,2.0,1.0,tuxedo_01b.jpg,0.0,Red.png,1.0,106,,,,,,,,,,,,,,,,,
0.0,1.0,1.234,0.0,3.0,3.0,3.0,1.0,flip_flop_03s.jpg,0.0,Orange.png,1.0,106,,,,,,,,,,,,,,,,,
0.0,1.0,1.091,0.0,4.0,4.0,4.0,1.0,medal_04s.jpg,0.0,Yellow.png,1.0,106,,,,,,,,,,,,,,,,,
1.0,1.0,1.528,0.0,5.0,5.0,5.0,1.0,flip_flop_03s.jpg,1.0,Green.png,1.0,106,,,,,,,,,,,,,,,,,
0.0,1.0,0.933,0.0,6.0,6.0,6.0,1.0,tuxedo_01b.jpg,0.0,Blue.png,2.0,106,,,,,,,,,,,,,,,,,
0.0,1.0,1.22,0.0,7.0,7.0,7.0,1.0,flip_flop_03s.jpg,0.0,Purple.png,2.0,106,,,,,,,,,,,,,,,,,
0.0,1.0,0.956,0.0,8.0,8.0,8.0,1.0,fireworks_18s.jpg,0.0,Red.png,2.0,106,,,,,,,,,,,,,,,,,
0.0,1.0,0.875,0.0,9.0,9.0,9.0,1.0,squirt_gun_03s.jpg,0.0,Orange.png,2.0,106,,,,,,,,,,,,,,,,,
1.0,1.0,1.426,0.0,10.0,10.0,10.0,1.0,flip_flop_03s.jpg,1.0,Yellow.png,2.0,106,,,,,,,,,,,,,,,,,
0.0,1.0,0.857,0.0,11.0,11.0,11.0,1.0,puffin_19s.jpg,0.0,Green.png,2.0,106,,,,,,,,,,,,,,,,,
0.0,1.0,0.988,0.0,12.0,12.0,12.0,1.0,tuxedo_01b.jpg,0.0,Blue.png,3.0,106,,,,,,,,,,,,,,,,,
1.0,1.0,1.41,0.0,13.0,13.0,13.0,1.0,tuxedo_01b.jpg,1.0,Purple.png,3.0,106,,,,,,,,,,,,,,,,,
0.0,1.0,0.839,0.0,14.0,14.0,14.0,1.0,snowman_02s.jpg,0.0,Red.png,3.0,106,,,,,,,,,,,,,,,,,
0.0,1.0,0.791,0.0,15.0,15.0,15.0,1.0,cucumber_07s.jpg,0.0,Orange.png,3.0,106,,,,,,,,,,,,,,,,,
0.0,1.0,0.982,0.0,16.0,16.0,16.0,1.0,plug_08s.jpg,0.0,Yellow.png,3.0,106,,,,,,,,,,,,,,,,,
1.0,1.0,1.056,0.0,17.0,17.0,17.0,1.0,cucumber_07s.jpg,1.0,Green.png,3.0,106,,,,,,,,,,,,,,,,,
0.0,1.0,1.103,0.0,18.0,18.0,18.0,1.0,puffin_19s.jpg,0.0,Blue.png,4.0,106,,,,,,,,,,,,,,,,,
0.0,1.0,0.878,0.0,19.0,19.0,19.0,1.0,fondue_07s.jpg,0.0,Purple.png,4.0,106,,,,,,,,,,,,,,,,,
0.0,1.0,0.89,0.0,20.0,20.0,20.0,1.0,lasagna_06s.jpg,0.0,Red.png,4.0,106,,,,,,,,,,,,,,,,,
0.0,1.0,1.007,0.0,21.0,21.0,21.0,1.0,eiffeltower.jpg,0.0,Orange.png,4.0,106,,,,,,,,,,,,,,,,,
0.0,1.0,1.027,0.0,22.0,22.0,22.0,1.0,outlet_10s.jpg,0.0,Yellow.png,4.0,106,,,,,,,,,,,,,,,,,
0.0,1.0,0.925,0.0,23.0,23.0,23.0,1.0,cape_11s.jpg,0.0,Green.png,4.0,106,,,,,,,,,,,,,,,,,
0.0,1.0,0.611,0.0,24.0,24.0,24.0,1.0,marshmallow_08s.jpg,0.0,Blue.png,5.0,106,,,,,,,,,,,,,,,,,
0.0,1.0,0.781,0.0,25.0,25.0,25.0,1.0,racehorse_03s.jpg,0.0,Purple.png,5.0,106,,,,,,,,,,,,,,,,,
0.0,1.0,1.012,0.0,26.0,26.0,26.0,1.0,aluminum_foil_08s.jpg,0.0,Red.png,5.0,106,,,,,,,,,,,,,,,,,
0.0,1.0,1.162,0.0,27.0,27.0,27.0,1.0,spoon02a.jpg,0.0,Orange.png,5.0,106,,,,,,,,,,,,,,,,,
0.0,1.0,0.879,0.0,28.0,28.0,28.0,1.0,padlock_07s.jpg,0.0,Yellow.png,5.0,106,,,,,,,,,,,,,,,,,
0.0,1.0,0.889,0.0,29.0,29.0,29.0,1.0,solar_panel_02s.jpg,0.0,Green.png,5.0,106,,,,,,,,,,,,,,,,,
0.0,1.0,1.005,0.0,30.0,30.0,30.0,1.0,turtleneck_11s.jpg,0.0,Blue.png,6.0,106,,,,,,,,,,,,,,,,,
0.0,1.0,0.681,0.0,31.0,31.0,31.0,1.0,pocketknife_12s.jpg,0.0,Purple.png,6.0,106,,,,,,,,,,,,,,,,,
1.0,1.0,1.326,0.0,32.0,32.0,32.0,1.0,pocketknife_12s.jpg,1.0,Red.png,6.0,106,,,,,,,,,,,,,,,,,
0.0,1.0,0.792,0.0,33.0,33.0,33.0,1.0,quill_09s.jpg,0.0,Orange.png,6.0,106,,,,,,,,,,,,,,,,,
1.0,1.0,0.938,0.0,34.0,34.0,34.0,1.0,quill_09s.jpg,1.0,Yellow.png,6.0,106,,,,,,,,,,,,,,,,,
1.0,1.0,1.163,0.0,35.0,35.0,35.0,1.0,pocketknife_12s.jpg,1.0,Green.png,6.0,106,,,,,,,,,,,,,,,,,
,,,,,,,,,0.0,,,106,1.0,0.0,3.646,0.0,0.0,0.0,0.0,1.0,cape_11s.jpg,lasagna_06s.jpg,,,,,,,
,,,,,,,,,0.0,,,106,0.0,1.0,2.921,0.0,1.0,1.0,1.0,1.0,padlock_07s.jpg,racehorse_03s.jpg,,,,,,,
,,,,,,,,,1.0,,,106,1.0,1.0,2.275,0.0,2.0,2.0,2.0,1.0,spoon02a.jpg,turtleneck_11s.jpg,,,,,,,
,,,,,,,,,0.0,,,106,1.0,0.0,2.252,0.0,3.0,3.0,3.0,1.0,marshmallow_08s.jpg,eiffeltower.jpg,,,,,,,
,,,,,,,,,0.0,,,106,0.0,1.0,2.356,0.0,4.0,4.0,4.0,1.0,medal_04s.jpg,jewel_01b.jpg,,,,,,,
,,,,,,,,,1.0,,,106,0.0,0.0,2.305,0.0,5.0,5.0,5.0,1.0,plug_08s.jpg,fondue_07s.jpg,,,,,,,
,,,,,,,,,,,,106,,,,,,,,,,,0.0,7.0,7.0,7.0,1.0,newclockpresent_8_4.xlsx,newclock_compare_task_8_4.xlsx
0.0,1.0,1.35,0.0,0.0,0.0,0.0,1.0,footprint_11s.jpg,0.0,Blue.png,1.0,106,,,,,,,,,,,,,,,,,
0.0,1.0,0.88,0.0,1.0,1.0,1.0,1.0,coffee_filter_10s.jpg,0.0,Purple.png,1.0,106,,,,,,,,,,,,,,,,,
1.0,1.0,0.914,0.0,2.0,2.0,2.0,1.0,coffee_filter_10s.jpg,1.0,Red.png,1.0,106,,,,,,,,,,,,,,,,,
1.0,1.0,1.054,0.0,3.0,3.0,3.0,1.0,coffee_filter_10s.jpg,1.0,Orange.png,1.0,106,,,,,,,,,,,,,,,,,
1.0,1.0,0.991,0.0,4.0,4.0,4.0,1.0,coffee_filter_10s.jpg,1.0,Yellow.png,1.0,106,,,,,,,,,,,,,,,,,
0.0,1.0,1.38,0.0,5.0,5.0,5.0,1.0,gargoyle_08s.jpg,0.0,Green.png,1.0,106,,,,,,,,,,,,,,,,,
0.0,1.0,1.028,0.0,6.0,6.0,6.0,1.0,candy_cane_06s.jpg,0.0,Blue.png,2.0,106,,,,,,,,,,,,,,,,,
0.0,1.0,0.782,0.0,7.0,7.0,7.0,1.0,toad_09s.jpg,0.0,Purple.png,2.0,106,,,,,,,,,,,,,,,,,
1.0,1.0,1.214,0.0,8.0,8.0,8.0,1.0,candy_cane_06s.jpg,1.0,Red.png,2.0,106,,,,,,,,,,,,,,,,,
0.0,1.0,1.148,0.0,9.0,9.0,9.0,1.0,pumpkin_03s.jpg,0.0,Orange.png,2.0,106,,,,,,,,,,,,,,,,,
0.0,1.0,0.842,0.0,10.0,10.0,10.0,1.0,dashboard_02s.jpg,0.0,Yellow.png,2.0,106,,,,,,,,,,,,,,,,,
0.0,1.0,0.903,0.0,11.0,11.0,11.0,1.0,syringe_02s.jpg,0.0,Green.png,2.0,106,,,,,,,,,,,,,,,,,
0.0,1.0,0.718,0.0,12.0,12.0,12.0,1.0,powder_07s.jpg,0.0,Blue.png,3.0,106,,,,,,,,,,,,,,,,,
1.0,1.0,1.473,0.0,13.0,13.0,13.0,1.0,powder_07s.jpg,1.0,Purple.png,3.0,106,,,,,,,,,,,,,,,,,
1.0,1.0,1.03,0.0,14.0,14.0,14.0,1.0,powder_07s.jpg,1.0,Red.png,3.0,106,,,,,,,,,,,,,,,,,
0.0,1.0,0.895,0.0,15.0,15.0,15.0,1.0,sea_urchin_09s.jpg,0.0,Orange.png,3.0,106,,,,,,,,,,,,,,,,,
0.0,1.0,0.962,0.0,16.0,16.0,16.0,1.0,throne_11s.jpg,0.0,Yellow.png,3.0,106,,,,,,,,,,,,,,,,,
1.0,1.0,1.338,0.0,17.0,17.0,17.0,1.0,powder_07s.jpg,1.0,Green.png,3.0,106,,,,,,,,,,,,,,,,,
0.0,1.0,0.774,0.0,18.0,18.0,18.0,1.0,chalice_10s.jpg,0.0,Blue.png,4.0,106,,,,,,,,,,,,,,,,,
0.0,1.0,0.793,0.0,19.0,19.0,19.0,1.0,air_pump_05s.jpg,0.0,Purple.png,4.0,106,,,,,,,,,,,,,,,,,
0.0,1.0,0.813,0.0,20.0,20.0,20.0,1.0,microwave_02s.jpg,0.0,Red.png,4.0,106,,,,,,,,,,,,,,,,,
0.0,1.0,0.71,0.0,21.0,21.0,21.0,1.0,cereal_04s.jpg,0.0,Orange.png,4.0,106,,,,,,,,,,,,,,,,,
0.0,1.0,0.733,0.0,22.0,22.0,22.0,1.0,mushroom_10n.jpg,0.0,Yellow.png,4.0,106,,,,,,,,,,,,,,,,,
0.0,1.0,0.775,0.0,23.0,23.0,23.0,1.0,red_carpet_03s.jpg,0.0,Green.png,4.0,106,,,,,,,,,,,,,,,,,
0.0,1.0,1.098,0.0,24.0,24.0,24.0,1.0,throne_11s.jpg,0.0,Blue.png,5.0,106,,,,,,,,,,,,,,,,,
0.0,1.0,0.739,0.0,25.0,25.0,25.0,1.0,koala_13s.jpg,0.0,Purple.png,5.0,106,,,,,,,,,,,,,,,,,
1.0,1.0,1.421,0.0,26.0,26.0,26.0,1.0,throne_11s.jpg,1.0,Red.png,5.0,106,,,,,,,,,,,,,,,,,
0.0,1.0,0.872,0.0,27.0,27.0,27.0,1.0,rocket_02s.jpg,0.0,Orange.png,5.0,106,,,,,,,,,,,,,,,,,
0.0,1.0,0.757,0.0,28.0,28.0,28.0,1.0,swordfish_05s.jpg,0.0,Yellow.png,5.0,106,,,,,,,,,,,,,,,,,
1.0,1.0,1.155,0.0,29.0,29.0,29.0,1.0,rocket_02s.jpg,1.0,Green.png,5.0,106,,,,,,,,,,,,,,,,,
0.0,1.0,0.932,0.0,30.0,30.0,30.0,1.0,icicle_04s.jpg,0.0,Blue.png,6.0,106,,,,,,,,,,,,,,,,,
0.0,1.0,0.777,0.0,31.0,31.0,31.0,1.0,keyboard_05s.jpg,0.0,Purple.png,6.0,106,,,,,,,,,,,,,,,,,
0.0,1.0,0.731,0.0,32.0,32.0,32.0,1.0,pocket_watch_16s.jpg,0.0,Red.png,6.0,106,,,,,,,,,,,,,,,,,
0.0,1.0,0.774,0.0,33.0,33.0,33.0,1.0,tablet_04s.jpg,0.0,Orange.png,6.0,106,,,,,,,,,,,,,,,,,
0.0,1.0,0.943,0.0,34.0,34.0,34.0,1.0,chocolate_01b.jpg,0.0,Yellow.png,6.0,106,,,,,,,,,,,,,,,,,
0.0,1.0,0.928,0.0,35.0,35.0,35.0,1.0,light_switch_02s.jpg,0.0,Green.png,6.0,106,,,,,,,,,,,,,,,,,
,,,,,,,,,0.0,,,106,1.0,0.0,2.788,0.0,0.0,0.0,0.0,1.0,chalice_10s.jpg,sea_urchin_09s.jpg,,,,,,,
,,,,,,,,,1.0,,,106,1.0,1.0,2.984,0.0,1.0,1.0,1.0,1.0,swordfish_05s.jpg,keyboard_05s.jpg,,,,,,,
,,,,,,,,,0.0,,,106,0.0,1.0,2.095,0.0,2.0,2.0,2.0,1.0,red_carpet_03s.jpg,microwave_02s.jpg,,,,,,,
,,,,,,,,,0.0,,,106,1.0,0.0,1.838,0.0,3.0,3.0,3.0,1.0,dashboard_02s.jpg,toad_09s.jpg,,,,,,,
,,,,,,,,,0.0,,,106,1.0,0.0,1.632,0.0,4.0,4.0,4.0,1.0,koala_13s.jpg,mushroom_10n.jpg,,,,,,,
,,,,,,,,,1.0,,,106,1.0,1.0,1.622,0.0,5.0,5.0,5.0,1.0,icicle_04s.jpg,tablet_04s.jpg,,,,,,,
,,,,,,,,,,,,106,,,,,,,,,,,0.0,8.0,8.0,8.0,1.0,newclockpresent_9_4.xlsx,newclock_compare_task_9_4.xlsx
