key_resp.keys,key_resp.corr,key_resp.rt,present_segment.thisRepN,present_segment.thisTrialN,present_segment.thisN,present_segment.thisIndex,present_segment.ran,pictures,answer,clock,segment,participant,key_resp_2.keys,key_resp_2.corr,key_resp_2.rt,compare_segment.thisRepN,compare_segment.thisTrialN,compare_segment.thisN,compare_segment.thisIndex,compare_segment.ran,item_a,item_b,clock_conditions.thisRepN,clock_conditions.thisTrialN,clock_conditions.thisN,clock_conditions.thisIndex,clock_conditions.ran,present,compare
0.0,1.0,1.85205,0.0,0.0,0.0,0.0,1.0,insole_11s.jpg,0.0,Blue.png,1.0,58,,,,,,,,,,,,,,,,,
0.0,1.0,0.97677,0.0,1.0,1.0,1.0,1.0,tupperware_09s.jpg,0.0,Purple.png,1.0,58,,,,,,,,,,,,,,,,,
1.0,0.0,0.855695,0.0,2.0,2.0,2.0,1.0,tupperware_09s.jpg,0.0,Red.png,1.0,58,,,,,,,,,,,,,,,,,
0.0,1.0,0.63145,0.0,3.0,3.0,3.0,1.0,fox_13s.jpg,0.0,Orange.png,1.0,58,,,,,,,,,,,,,,,,,
1.0,1.0,1.744,0.0,4.0,4.0,4.0,1.0,tupperware_09s.jpg,1.0,Yellow.png,1.0,58,,,,,,,,,,,,,,,,,
0.0,1.0,0.718115,0.0,5.0,5.0,5.0,1.0,lavender_10s.jpg,0.0,Green.png,1.0,58,,,,,,,,,,,,,,,,,
1.0,1.0,0.95077,0.0,6.0,6.0,6.0,1.0,tupperware_09s.jpg,1.0,Blue.png,2.0,58,,,,,,,,,,,,,,,,,
0.0,1.0,0.798035,0.0,7.0,7.0,7.0,1.0,poinsettia_04s.jpg,0.0,Purple.png,2.0,58,,,,,,,,,,,,,,,,,
0.0,1.0,0.71118,0.0,8.0,8.0,8.0,1.0,margarita_03s.jpg,0.0,Red.png,2.0,58,,,,,,,,,,,,,,,,,
0.0,1.0,0.797605,0.0,9.0,9.0,9.0,1.0,toothpaste_12s.jpg,0.0,Orange.png,2.0,58,,,,,,,,,,,,,,,,,
0.0,1.0,0.94718,0.0,10.0,10.0,10.0,1.0,ladder_15s.jpg,0.0,Yellow.png,2.0,58,,,,,,,,,,,,,,,,,
0.0,1.0,0.63685,0.0,11.0,11.0,11.0,1.0,pocketknife_12s.jpg,0.0,Green.png,2.0,58,,,,,,,,,,,,,,,,,
0.0,1.0,1.09087,0.0,12.0,12.0,12.0,1.0,spoon02a.jpg,0.0,Blue.png,3.0,58,,,,,,,,,,,,,,,,,
0.0,1.0,0.69781,0.0,13.0,13.0,13.0,1.0,mango_09s.jpg,0.0,Purple.png,3.0,58,,,,,,,,,,,,,,,,,
0.0,1.0,0.596185,0.0,14.0,14.0,14.0,1.0,chalice_10s.jpg,0.0,Red.png,3.0,58,,,,,,,,,,,,,,,,,
0.0,1.0,1.132365,0.0,15.0,15.0,15.0,1.0,pocketknife_12s.jpg,0.0,Orange.png,3.0,58,,,,,,,,,,,,,,,,,
0.0,1.0,1.380665,0.0,16.0,16.0,16.0,1.0,abacus_12s.jpg,0.0,Yellow.png,3.0,58,,,,,,,,,,,,,,,,,
0.0,1.0,0.877495,0.0,17.0,17.0,17.0,1.0,abacus_12s.jpg,0.0,Green.png,3.0,58,,,,,,,,,,,,,,,,,
1.0,1.0,0.506225,0.0,18.0,18.0,18.0,1.0,abacus_12s.jpg,1.0,Blue.png,4.0,58,,,,,,,,,,,,,,,,,
1.0,1.0,1.429035,0.0,19.0,19.0,19.0,1.0,abacus_12s.jpg,1.0,Purple.png,4.0,58,,,,,,,,,,,,,,,,,
0.0,1.0,1.16111,0.0,20.0,20.0,20.0,1.0,sushi_08s.jpg,0.0,Red.png,4.0,58,,,,,,,,,,,,,,,,,
0.0,1.0,0.898845,0.0,21.0,21.0,21.0,1.0,funnel_01b.jpg,0.0,Orange.png,4.0,58,,,,,,,,,,,,,,,,,
0.0,1.0,1.24987,0.0,22.0,22.0,22.0,1.0,rooster_03s.jpg,0.0,Yellow.png,4.0,58,,,,,,,,,,,,,,,,,
0.0,1.0,0.89865,0.0,23.0,23.0,23.0,1.0,ukulele_02s.jpg,0.0,Green.png,4.0,58,,,,,,,,,,,,,,,,,
0.0,1.0,1.127925,0.0,24.0,24.0,24.0,1.0,pocketknife_12s.jpg,0.0,Blue.png,5.0,58,,,,,,,,,,,,,,,,,
0.0,1.0,1.183875,0.0,25.0,25.0,25.0,1.0,pocketknife_12s.jpg,0.0,Purple.png,5.0,58,,,,,,,,,,,,,,,,,
1.0,1.0,0.48749,0.0,26.0,26.0,26.0,1.0,pocketknife_12s.jpg,1.0,Red.png,5.0,58,,,,,,,,,,,,,,,,,
0.0,1.0,0.662835,0.0,27.0,27.0,27.0,1.0,stapler_01b.jpg,0.0,Orange.png,5.0,58,,,,,,,,,,,,,,,,,
0.0,1.0,1.042725,0.0,28.0,28.0,28.0,1.0,birthday_cake_09s.jpg,0.0,Yellow.png,5.0,58,,,,,,,,,,,,,,,,,
0.0,1.0,1.001515,0.0,29.0,29.0,29.0,1.0,meatball_13s.jpg,0.0,Green.png,5.0,58,,,,,,,,,,,,,,,,,
0.0,1.0,0.944125,0.0,30.0,30.0,30.0,1.0,cape_11s.jpg,0.0,Blue.png,6.0,58,,,,,,,,,,,,,,,,,
0.0,1.0,0.96155,0.0,31.0,31.0,31.0,1.0,cape_11s.jpg,0.0,Purple.png,6.0,58,,,,,,,,,,,,,,,,,
0.0,1.0,1.024885,0.0,32.0,32.0,32.0,1.0,lizard_10n.jpg,0.0,Red.png,6.0,58,,,,,,,,,,,,,,,,,
0.0,1.0,1.0821,0.0,33.0,33.0,33.0,1.0,refrigerator_07s.jpg,0.0,Orange.png,6.0,58,,,,,,,,,,,,,,,,,
0.0,1.0,0.988565,0.0,34.0,34.0,34.0,1.0,refrigerator_07s.jpg,0.0,Yellow.png,6.0,58,,,,,,,,,,,,,,,,,
0.0,1.0,1.271365,0.0,35.0,35.0,35.0,1.0,touchpad_11s.jpg,0.0,Green.png,6.0,58,,,,,,,,,,,,,,,,,
,,,,,,,,,1.0,,,58,0.0,0.0,4.16418,0.0,0.0,0.0,0.0,1.0,lavender_10s.jpg,margarita_03s.jpg,,,,,,,
,,,,,,,,,1.0,,,58,1.0,1.0,2.98407,0.0,1.0,1.0,1.0,1.0,toothpaste_12s.jpg,spoon02a.jpg,,,,,,,
,,,,,,,,,1.0,,,58,1.0,1.0,2.061435,0.0,2.0,2.0,2.0,1.0,ladder_15s.jpg,mango_09s.jpg,,,,,,,
,,,,,,,,,0.0,,,58,0.0,1.0,0.975655,0.0,3.0,3.0,3.0,1.0,fox_13s.jpg,insole_11s.jpg,,,,,,,
,,,,,,,,,0.0,,,58,1.0,0.0,1.18839,0.0,4.0,4.0,4.0,1.0,ukulele_02s.jpg,sushi_08s.jpg,,,,,,,
,,,,,,,,,0.0,,,58,1.0,0.0,2.324905,0.0,5.0,5.0,5.0,1.0,touchpad_11s.jpg,lizard_10n.jpg,,,,,,,
,,,,,,,,,,,,58,,,,,,,,,,,0.0,0.0,0.0,0.0,1.0,new2backpresent_1_2.xlsx,new2back_compare_task_1_2.xlsx
0.0,1.0,1.42283,0.0,0.0,0.0,0.0,1.0,juicer2_06s.jpg,0.0,Blue.png,1.0,58,,,,,,,,,,,,,,,,,
0.0,1.0,1.12901,0.0,1.0,1.0,1.0,1.0,juicer2_06s.jpg,0.0,Purple.png,1.0,58,,,,,,,,,,,,,,,,,
0.0,1.0,0.981915,0.0,2.0,2.0,2.0,1.0,tambourine_06s.jpg,0.0,Red.png,1.0,58,,,,,,,,,,,,,,,,,
0.0,1.0,0.671815,0.0,3.0,3.0,3.0,1.0,luggage_08s.jpg,0.0,Orange.png,1.0,58,,,,,,,,,,,,,,,,,
1.0,1.0,1.24726,0.0,4.0,4.0,4.0,1.0,tambourine_06s.jpg,1.0,Yellow.png,1.0,58,,,,,,,,,,,,,,,,,
0.0,1.0,1.069945,0.0,5.0,5.0,5.0,1.0,towel_rack_04s.jpg,0.0,Green.png,1.0,58,,,,,,,,,,,,,,,,,
0.0,1.0,0.677415,0.0,6.0,6.0,6.0,1.0,crayon_09s.jpg,0.0,Blue.png,2.0,58,,,,,,,,,,,,,,,,,
0.0,1.0,1.02265,0.0,7.0,7.0,7.0,1.0,gargoyle_08s.jpg,0.0,Purple.png,2.0,58,,,,,,,,,,,,,,,,,
0.0,1.0,1.57746,0.0,8.0,8.0,8.0,1.0,boar_10s.jpg,0.0,Red.png,2.0,58,,,,,,,,,,,,,,,,,
1.0,1.0,1.01884,0.0,9.0,9.0,9.0,1.0,gargoyle_08s.jpg,1.0,Orange.png,2.0,58,,,,,,,,,,,,,,,,,
0.0,1.0,1.32449,0.0,10.0,10.0,10.0,1.0,limousine_12s.jpg,0.0,Yellow.png,2.0,58,,,,,,,,,,,,,,,,,
0.0,1.0,0.95922,0.0,11.0,11.0,11.0,1.0,outlet_10s.jpg,0.0,Green.png,2.0,58,,,,,,,,,,,,,,,,,
0.0,1.0,0.903505,0.0,12.0,12.0,12.0,1.0,comic_book_02s.jpg,0.0,Blue.png,3.0,58,,,,,,,,,,,,,,,,,
0.0,1.0,2.018405,0.0,13.0,13.0,13.0,1.0,mask_09s.jpg,0.0,Purple.png,3.0,58,,,,,,,,,,,,,,,,,
0.0,1.0,0.65225,0.0,14.0,14.0,14.0,1.0,lasagna_06s.jpg,0.0,Red.png,3.0,58,,,,,,,,,,,,,,,,,
0.0,1.0,0.75411,0.0,15.0,15.0,15.0,1.0,diving_board_07s.jpg,0.0,Orange.png,3.0,58,,,,,,,,,,,,,,,,,
0.0,1.0,0.693125,0.0,16.0,16.0,16.0,1.0,lion_18s.jpg,0.0,Yellow.png,3.0,58,,,,,,,,,,,,,,,,,
1.0,1.0,1.000895,0.0,17.0,17.0,17.0,1.0,diving_board_07s.jpg,1.0,Green.png,3.0,58,,,,,,,,,,,,,,,,,
1.0,1.0,2.365985,0.0,18.0,18.0,18.0,1.0,lion_18s.jpg,1.0,Blue.png,4.0,58,,,,,,,,,,,,,,,,,
0.0,1.0,0.906935,0.0,19.0,19.0,19.0,1.0,medal_04s.jpg,0.0,Purple.png,4.0,58,,,,,,,,,,,,,,,,,
0.0,1.0,0.72376,0.0,20.0,20.0,20.0,1.0,incense_02s.jpg,0.0,Red.png,4.0,58,,,,,,,,,,,,,,,,,
0.0,1.0,0.767925,0.0,21.0,21.0,21.0,1.0,tape_06s.jpg,0.0,Orange.png,4.0,58,,,,,,,,,,,,,,,,,
0.0,1.0,1.093265,0.0,22.0,22.0,22.0,1.0,medal_04s.jpg,0.0,Yellow.png,4.0,58,,,,,,,,,,,,,,,,,
0.0,1.0,0.99346,0.0,23.0,23.0,23.0,1.0,buoy_04s.jpg,0.0,Green.png,4.0,58,,,,,,,,,,,,,,,,,
0.0,1.0,0.984975,0.0,24.0,24.0,24.0,1.0,limousine_12s.jpg,0.0,Blue.png,5.0,58,,,,,,,,,,,,,,,,,
0.0,1.0,0.58469,0.0,25.0,25.0,25.0,1.0,jewel_01b.jpg,0.0,Purple.png,5.0,58,,,,,,,,,,,,,,,,,
0.0,1.0,1.18312,0.0,26.0,26.0,26.0,1.0,parachute_03s.jpg,0.0,Red.png,5.0,58,,,,,,,,,,,,,,,,,
0.0,1.0,0.676185,0.0,27.0,27.0,27.0,1.0,mannequin_05s.jpg,0.0,Orange.png,5.0,58,,,,,,,,,,,,,,,,,
0.0,1.0,0.646915,0.0,28.0,28.0,28.0,1.0,snowman_02s.jpg,0.0,Yellow.png,5.0,58,,,,,,,,,,,,,,,,,
0.0,1.0,0.72794,0.0,29.0,29.0,29.0,1.0,fossil_06s.jpg,0.0,Green.png,5.0,58,,,,,,,,,,,,,,,,,
0.0,1.0,0.822825,0.0,30.0,30.0,30.0,1.0,perfume_06s.jpg,0.0,Blue.png,6.0,58,,,,,,,,,,,,,,,,,
,0.0,,0.0,31.0,31.0,31.0,1.0,fossil_06s.jpg,1.0,Purple.png,6.0,58,,,,,,,,,,,,,,,,,
0.0,1.0,0.998275,0.0,32.0,32.0,32.0,1.0,pancake_12s.jpg,0.0,Red.png,6.0,58,,,,,,,,,,,,,,,,,
0.0,1.0,0.61386,0.0,33.0,33.0,33.0,1.0,tie_03s.jpg,0.0,Orange.png,6.0,58,,,,,,,,,,,,,,,,,
1.0,1.0,0.55905,0.0,34.0,34.0,34.0,1.0,pancake_12s.jpg,1.0,Yellow.png,6.0,58,,,,,,,,,,,,,,,,,
0.0,1.0,0.77077,0.0,35.0,35.0,35.0,1.0,padlock_07s.jpg,0.0,Green.png,6.0,58,,,,,,,,,,,,,,,,,
,,,,,,,,,0.0,,,58,0.0,1.0,6.455385,0.0,0.0,0.0,0.0,1.0,crayon_09s.jpg,luggage_08s.jpg,,,,,,,
,,,,,,,,,1.0,,,58,1.0,1.0,1.7097,0.0,1.0,1.0,1.0,1.0,towel_rack_04s.jpg,boar_10s.jpg,,,,,,,
,,,,,,,,,0.0,,,58,1.0,0.0,5.219175,0.0,2.0,2.0,2.0,1.0,lasagna_06s.jpg,outlet_10s.jpg,,,,,,,
,,,,,,,,,1.0,,,58,1.0,1.0,1.14444,0.0,3.0,3.0,3.0,1.0,jewel_01b.jpg,snowman_02s.jpg,,,,,,,
,,,,,,,,,0.0,,,58,1.0,0.0,1.63853,0.0,4.0,4.0,4.0,1.0,buoy_04s.jpg,incense_02s.jpg,,,,,,,
,,,,,,,,,0.0,,,58,1.0,0.0,5.451855,0.0,5.0,5.0,5.0,1.0,tie_03s.jpg,perfume_06s.jpg,,,,,,,
,,,,,,,,,,,,58,,,,,,,,,,,0.0,1.0,1.0,1.0,1.0,new2backpresent_2_2.xlsx,new2back_compare_task_2_2.xlsx
0.0,1.0,1.320125,0.0,0.0,0.0,0.0,1.0,surfboard_11s.jpg,0.0,Blue.png,1.0,58,,,,,,,,,,,,,,,,,
1.0,0.0,1.075555,0.0,1.0,1.0,1.0,1.0,surfboard_11s.jpg,0.0,Purple.png,1.0,58,,,,,,,,,,,,,,,,,
1.0,1.0,0.5238,0.0,2.0,2.0,2.0,1.0,surfboard_11s.jpg,1.0,Red.png,1.0,58,,,,,,,,,,,,,,,,,
0.0,1.0,0.990265,0.0,3.0,3.0,3.0,1.0,badge_03s.jpg,0.0,Orange.png,1.0,58,,,,,,,,,,,,,,,,,
1.0,1.0,0.58216,0.0,4.0,4.0,4.0,1.0,surfboard_11s.jpg,1.0,Yellow.png,1.0,58,,,,,,,,,,,,,,,,,
0.0,1.0,1.177315,0.0,5.0,5.0,5.0,1.0,surfboard_11s.jpg,0.0,Green.png,1.0,58,,,,,,,,,,,,,,,,,
1.0,1.0,1.797795,0.0,6.0,6.0,6.0,1.0,surfboard_11s.jpg,1.0,Blue.png,2.0,58,,,,,,,,,,,,,,,,,
0.0,1.0,0.613295,0.0,7.0,7.0,7.0,1.0,playpen_11s.jpg,0.0,Purple.png,2.0,58,,,,,,,,,,,,,,,,,
1.0,1.0,1.514345,0.0,8.0,8.0,8.0,1.0,surfboard_11s.jpg,1.0,Red.png,2.0,58,,,,,,,,,,,,,,,,,
0.0,1.0,0.73741,0.0,9.0,9.0,9.0,1.0,popcorn_09s.jpg,0.0,Orange.png,2.0,58,,,,,,,,,,,,,,,,,
1.0,1.0,1.018695,0.0,10.0,10.0,10.0,1.0,surfboard_11s.jpg,1.0,Yellow.png,2.0,58,,,,,,,,,,,,,,,,,
1.0,1.0,1.597785,0.0,11.0,11.0,11.0,1.0,popcorn_09s.jpg,1.0,Green.png,2.0,58,,,,,,,,,,,,,,,,,
0.0,1.0,0.738155,0.0,12.0,12.0,12.0,1.0,lollipop_08s.jpg,0.0,Blue.png,3.0,58,,,,,,,,,,,,,,,,,
1.0,1.0,1.166365,0.0,13.0,13.0,13.0,1.0,popcorn_09s.jpg,1.0,Purple.png,3.0,58,,,,,,,,,,,,,,,,,
0.0,1.0,0.83357,0.0,14.0,14.0,14.0,1.0,fire_pit_10s.jpg,0.0,Red.png,3.0,58,,,,,,,,,,,,,,,,,
0.0,1.0,1.171105,0.0,15.0,15.0,15.0,1.0,joystick_01b.jpg,0.0,Orange.png,3.0,58,,,,,,,,,,,,,,,,,
0.0,1.0,1.04007,0.0,16.0,16.0,16.0,1.0,panda_02s.jpg,0.0,Yellow.png,3.0,58,,,,,,,,,,,,,,,,,
0.0,1.0,2.281535,0.0,17.0,17.0,17.0,1.0,sundae_08s.jpg,0.0,Green.png,3.0,58,,,,,,,,,,,,,,,,,
0.0,1.0,0.727125,0.0,18.0,18.0,18.0,1.0,boomerang_06s.jpg,0.0,Blue.png,4.0,58,,,,,,,,,,,,,,,,,
0.0,1.0,0.763095,0.0,19.0,19.0,19.0,1.0,bagel_15s.jpg,0.0,Purple.png,4.0,58,,,,,,,,,,,,,,,,,
0.0,1.0,0.651865,0.0,20.0,20.0,20.0,1.0,powder_07s.jpg,0.0,Red.png,4.0,58,,,,,,,,,,,,,,,,,
0.0,1.0,0.83344,0.0,21.0,21.0,21.0,1.0,lipstick_02s.jpg,0.0,Orange.png,4.0,58,,,,,,,,,,,,,,,,,
0.0,1.0,1.374735,0.0,22.0,22.0,22.0,1.0,bagel_15s.jpg,0.0,Yellow.png,4.0,58,,,,,,,,,,,,,,,,,
0.0,1.0,0.69821,0.0,23.0,23.0,23.0,1.0,ladle_04s.jpg,0.0,Green.png,4.0,58,,,,,,,,,,,,,,,,,
0.0,1.0,0.834485,0.0,24.0,24.0,24.0,1.0,megaphone_03s.jpg,0.0,Blue.png,5.0,58,,,,,,,,,,,,,,,,,
0.0,1.0,0.95075,0.0,25.0,25.0,25.0,1.0,puck_06s.jpg,0.0,Purple.png,5.0,58,,,,,,,,,,,,,,,,,
0.0,1.0,0.681575,0.0,26.0,26.0,26.0,1.0,cardinal_07s.jpg,0.0,Red.png,5.0,58,,,,,,,,,,,,,,,,,
1.0,1.0,1.7017,0.0,27.0,27.0,27.0,1.0,puck_06s.jpg,1.0,Orange.png,5.0,58,,,,,,,,,,,,,,,,,
0.0,1.0,0.73452,0.0,28.0,28.0,28.0,1.0,bee_20s.jpg,0.0,Yellow.png,5.0,58,,,,,,,,,,,,,,,,,
0.0,1.0,0.81572,0.0,29.0,29.0,29.0,1.0,toilet_paper_12s.jpg,0.0,Green.png,5.0,58,,,,,,,,,,,,,,,,,
0.0,1.0,0.77887,0.0,30.0,30.0,30.0,1.0,mud_13s.jpg,0.0,Blue.png,6.0,58,,,,,,,,,,,,,,,,,
0.0,1.0,0.69807,0.0,31.0,31.0,31.0,1.0,measuring_cup_02s.jpg,0.0,Purple.png,6.0,58,,,,,,,,,,,,,,,,,
0.0,1.0,0.66988,0.0,32.0,32.0,32.0,1.0,ostrich_06s.jpg,0.0,Red.png,6.0,58,,,,,,,,,,,,,,,,,
0.0,1.0,0.659235,0.0,33.0,33.0,33.0,1.0,raspberry_12s.jpg,0.0,Orange.png,6.0,58,,,,,,,,,,,,,,,,,
0.0,1.0,0.49523,0.0,34.0,34.0,34.0,1.0,mud_13s.jpg,0.0,Yellow.png,6.0,58,,,,,,,,,,,,,,,,,
0.0,1.0,0.61703,0.0,35.0,35.0,35.0,1.0,radiator_05s.jpg,0.0,Green.png,6.0,58,,,,,,,,,,,,,,,,,
,,,,,,,,,0.0,,,58,0.0,1.0,1.85145,0.0,0.0,0.0,0.0,1.0,measuring_cup_02s.jpg,bee_20s.jpg,,,,,,,
,,,,,,,,,1.0,,,58,1.0,1.0,2.236535,0.0,1.0,1.0,1.0,1.0,lipstick_02s.jpg,megaphone_03s.jpg,,,,,,,
,,,,,,,,,0.0,,,58,1.0,0.0,1.4331,0.0,2.0,2.0,2.0,1.0,boomerang_06s.jpg,joystick_01b.jpg,,,,,,,
,,,,,,,,,0.0,,,58,1.0,0.0,1.498405,0.0,3.0,3.0,3.0,1.0,sundae_08s.jpg,fire_pit_10s.jpg,,,,,,,
,,,,,,,,,0.0,,,58,1.0,0.0,2.044145,0.0,4.0,4.0,4.0,1.0,radiator_05s.jpg,ostrich_06s.jpg,,,,,,,
,,,,,,,,,0.0,,,58,0.0,1.0,2.576725,0.0,5.0,5.0,5.0,1.0,ladle_04s.jpg,powder_07s.jpg,,,,,,,
,,,,,,,,,,,,58,,,,,,,,,,,0.0,2.0,2.0,2.0,1.0,new2backpresent_3_2.xlsx,new2back_compare_task_3_2.xlsx
,0.0,,0.0,0.0,0.0,0.0,1.0,glasses01a.jpg,0.0,Blue.png,1.0,58,,,,,,,,,,,,,,,,,
0.0,1.0,0.79893,0.0,1.0,1.0,1.0,1.0,piano_13n.jpg,0.0,Purple.png,1.0,58,,,,,,,,,,,,,,,,,
0.0,1.0,0.6919,0.0,2.0,2.0,2.0,1.0,candy_cane_06s.jpg,0.0,Red.png,1.0,58,,,,,,,,,,,,,,,,,
0.0,1.0,0.55039,0.0,3.0,3.0,3.0,1.0,cushion_08s.jpg,0.0,Orange.png,1.0,58,,,,,,,,,,,,,,,,,
1.0,1.0,0.7928,0.0,4.0,4.0,4.0,1.0,candy_cane_06s.jpg,1.0,Yellow.png,1.0,58,,,,,,,,,,,,,,,,,
0.0,1.0,0.861465,0.0,5.0,5.0,5.0,1.0,candy_cane_06s.jpg,0.0,Green.png,1.0,58,,,,,,,,,,,,,,,,,
0.0,1.0,0.66943,0.0,6.0,6.0,6.0,1.0,rosary_03s.jpg,0.0,Blue.png,2.0,58,,,,,,,,,,,,,,,,,
0.0,1.0,1.01179,0.0,7.0,7.0,7.0,1.0,rosary_03s.jpg,0.0,Purple.png,2.0,58,,,,,,,,,,,,,,,,,
1.0,1.0,0.786395,0.0,8.0,8.0,8.0,1.0,rosary_03s.jpg,1.0,Red.png,2.0,58,,,,,,,,,,,,,,,,,
1.0,1.0,1.268975,0.0,9.0,9.0,9.0,1.0,rosary_03s.jpg,1.0,Orange.png,2.0,58,,,,,,,,,,,,,,,,,
0.0,1.0,0.58775,0.0,10.0,10.0,10.0,1.0,kangaroo_02s.jpg,0.0,Yellow.png,2.0,58,,,,,,,,,,,,,,,,,
0.0,1.0,0.86244,0.0,11.0,11.0,11.0,1.0,kangaroo_02s.jpg,0.0,Green.png,2.0,58,,,,,,,,,,,,,,,,,
1.0,1.0,0.87377,0.0,12.0,12.0,12.0,1.0,kangaroo_02s.jpg,1.0,Blue.png,3.0,58,,,,,,,,,,,,,,,,,
1.0,1.0,0.866095,0.0,13.0,13.0,13.0,1.0,kangaroo_02s.jpg,1.0,Purple.png,3.0,58,,,,,,,,,,,,,,,,,
0.0,1.0,0.795755,0.0,14.0,14.0,14.0,1.0,ironing_board_07s.jpg,0.0,Red.png,3.0,58,,,,,,,,,,,,,,,,,
1.0,1.0,0.953515,0.0,15.0,15.0,15.0,1.0,kangaroo_02s.jpg,1.0,Orange.png,3.0,58,,,,,,,,,,,,,,,,,
0.0,1.0,0.68894,0.0,16.0,16.0,16.0,1.0,punch2_09s.jpg,0.0,Yellow.png,3.0,58,,,,,,,,,,,,,,,,,
0.0,1.0,1.28104,0.0,17.0,17.0,17.0,1.0,ironing_board_07s.jpg,0.0,Green.png,3.0,58,,,,,,,,,,,,,,,,,
0.0,1.0,0.94551,0.0,18.0,18.0,18.0,1.0,owl_15s.jpg,0.0,Blue.png,4.0,58,,,,,,,,,,,,,,,,,
0.0,1.0,0.640845,0.0,19.0,19.0,19.0,1.0,teabag_12s.jpg,0.0,Purple.png,4.0,58,,,,,,,,,,,,,,,,,
1.0,1.0,0.467665,0.0,20.0,20.0,20.0,1.0,owl_15s.jpg,1.0,Red.png,4.0,58,,,,,,,,,,,,,,,,,
0.0,1.0,0.660435,0.0,21.0,21.0,21.0,1.0,otter_05s.jpg,0.0,Orange.png,4.0,58,,,,,,,,,,,,,,,,,
1.0,1.0,2.102265,0.0,22.0,22.0,22.0,1.0,owl_15s.jpg,1.0,Yellow.png,4.0,58,,,,,,,,,,,,,,,,,
0.0,1.0,1.355405,0.0,23.0,23.0,23.0,1.0,mold2_04s.jpg,0.0,Green.png,4.0,58,,,,,,,,,,,,,,,,,
0.0,1.0,0.713975,0.0,24.0,24.0,24.0,1.0,mattress_01s.jpg,0.0,Blue.png,5.0,58,,,,,,,,,,,,,,,,,
0.0,1.0,0.81221,0.0,25.0,25.0,25.0,1.0,police_car_01s.jpg,0.0,Purple.png,5.0,58,,,,,,,,,,,,,,,,,
0.0,1.0,0.53611,0.0,26.0,26.0,26.0,1.0,stethoscope_01b.jpg,0.0,Red.png,5.0,58,,,,,,,,,,,,,,,,,
1.0,1.0,0.831425,0.0,27.0,27.0,27.0,1.0,police_car_01s.jpg,1.0,Orange.png,5.0,58,,,,,,,,,,,,,,,,,
0.0,1.0,0.70258,0.0,28.0,28.0,28.0,1.0,sparkler_02s.jpg,0.0,Yellow.png,5.0,58,,,,,,,,,,,,,,,,,
0.0,1.0,0.769125,0.0,29.0,29.0,29.0,1.0,pacifier_09s.jpg,0.0,Green.png,5.0,58,,,,,,,,,,,,,,,,,
0.0,1.0,0.726125,0.0,30.0,30.0,30.0,1.0,machine_gun_09s.jpg,0.0,Blue.png,6.0,58,,,,,,,,,,,,,,,,,
0.0,1.0,0.605275,0.0,31.0,31.0,31.0,1.0,ram_05s.jpg,0.0,Purple.png,6.0,58,,,,,,,,,,,,,,,,,
0.0,1.0,0.719515,0.0,32.0,32.0,32.0,1.0,keyboard_05s.jpg,0.0,Red.png,6.0,58,,,,,,,,,,,,,,,,,
0.0,1.0,0.77944,0.0,33.0,33.0,33.0,1.0,leash_10s.jpg,0.0,Orange.png,6.0,58,,,,,,,,,,,,,,,,,
0.0,1.0,0.75135,0.0,34.0,34.0,34.0,1.0,pan_02s.jpg,0.0,Yellow.png,6.0,58,,,,,,,,,,,,,,,,,
0.0,1.0,0.673935,0.0,35.0,35.0,35.0,1.0,mixer_12s.jpg,0.0,Green.png,6.0,58,,,,,,,,,,,,,,,,,
,,,,,,,,,0.0,,,58,0.0,1.0,1.521235,0.0,0.0,0.0,0.0,1.0,teabag_12s.jpg,punch2_09s.jpg,,,,,,,
,,,,,,,,,0.0,,,58,1.0,0.0,1.187595,0.0,1.0,1.0,1.0,1.0,mattress_01s.jpg,otter_05s.jpg,,,,,,,
,,,,,,,,,0.0,,,58,0.0,1.0,1.818935,0.0,2.0,2.0,2.0,1.0,stethoscope_01b.jpg,mold2_04s.jpg,,,,,,,
,,,,,,,,,1.0,,,58,1.0,1.0,0.94877,0.0,3.0,3.0,3.0,1.0,glasses01a.jpg,cushion_08s.jpg,,,,,,,
,,,,,,,,,1.0,,,58,1.0,1.0,1.6261,0.0,4.0,4.0,4.0,1.0,machine_gun_09s.jpg,leash_10s.jpg,,,,,,,
,,,,,,,,,0.0,,,58,0.0,1.0,1.29648,0.0,5.0,5.0,5.0,1.0,pan_02s.jpg,ram_05s.jpg,,,,,,,
,,,,,,,,,,,,58,,,,,,,,,,,0.0,3.0,3.0,3.0,1.0,new2backpresent_4_2.xlsx,new2back_compare_task_4_2.xlsx
0.0,1.0,1.2203,0.0,0.0,0.0,0.0,1.0,golf_club_03s.jpg,0.0,Blue.png,1.0,58,,,,,,,,,,,,,,,,,
0.0,1.0,1.239365,0.0,1.0,1.0,1.0,1.0,golf_club_03s.jpg,0.0,Purple.png,1.0,58,,,,,,,,,,,,,,,,,
1.0,1.0,0.43999,0.0,2.0,2.0,2.0,1.0,golf_club_03s.jpg,1.0,Red.png,1.0,58,,,,,,,,,,,,,,,,,
0.0,1.0,1.22615,0.0,3.0,3.0,3.0,1.0,turnstile_08s.jpg,0.0,Orange.png,1.0,58,,,,,,,,,,,,,,,,,
1.0,1.0,0.54487,0.0,4.0,4.0,4.0,1.0,golf_club_03s.jpg,1.0,Yellow.png,1.0,58,,,,,,,,,,,,,,,,,
0.0,1.0,0.675685,0.0,5.0,5.0,5.0,1.0,milk_02s.jpg,0.0,Green.png,1.0,58,,,,,,,,,,,,,,,,,
0.0,1.0,0.846665,0.0,6.0,6.0,6.0,1.0,orange_12s.jpg,0.0,Blue.png,2.0,58,,,,,,,,,,,,,,,,,
1.0,1.0,0.563235,0.0,7.0,7.0,7.0,1.0,milk_02s.jpg,1.0,Purple.png,2.0,58,,,,,,,,,,,,,,,,,
0.0,1.0,0.722425,0.0,8.0,8.0,8.0,1.0,latch_15s.jpg,0.0,Red.png,2.0,58,,,,,,,,,,,,,,,,,
0.0,1.0,0.674435,0.0,9.0,9.0,9.0,1.0,bank_06s.jpg,0.0,Orange.png,2.0,58,,,,,,,,,,,,,,,,,
0.0,1.0,1.17255,0.0,10.0,10.0,10.0,1.0,milk_02s.jpg,0.0,Yellow.png,2.0,58,,,,,,,,,,,,,,,,,
0.0,1.0,0.77086,0.0,11.0,11.0,11.0,1.0,crab_16s.jpg,0.0,Green.png,2.0,58,,,,,,,,,,,,,,,,,
0.0,1.0,0.92158,0.0,12.0,12.0,12.0,1.0,birdcage_08s.jpg,0.0,Blue.png,3.0,58,,,,,,,,,,,,,,,,,
0.0,1.0,0.756795,0.0,13.0,13.0,13.0,1.0,spider_web_03s.jpg,0.0,Purple.png,3.0,58,,,,,,,,,,,,,,,,,
0.0,1.0,1.18969,0.0,14.0,14.0,14.0,1.0,knitting_needle_04s.jpg,0.0,Red.png,3.0,58,,,,,,,,,,,,,,,,,
0.0,1.0,0.63656,0.0,15.0,15.0,15.0,1.0,sugar_cube_11s.jpg,0.0,Orange.png,3.0,58,,,,,,,,,,,,,,,,,
0.0,1.0,0.75356,0.0,16.0,16.0,16.0,1.0,light_switch_02s.jpg,0.0,Yellow.png,3.0,58,,,,,,,,,,,,,,,,,
0.0,1.0,0.824195,0.0,17.0,17.0,17.0,1.0,gear_07s.jpg,0.0,Green.png,3.0,58,,,,,,,,,,,,,,,,,
0.0,1.0,0.99906,0.0,18.0,18.0,18.0,1.0,tongs_08s.jpg,0.0,Blue.png,4.0,58,,,,,,,,,,,,,,,,,
0.0,1.0,0.65821,0.0,19.0,19.0,19.0,1.0,recliner_02s.jpg,0.0,Purple.png,4.0,58,,,,,,,,,,,,,,,,,
0.0,1.0,0.776605,0.0,20.0,20.0,20.0,1.0,orangutan_03s.jpg,0.0,Red.png,4.0,58,,,,,,,,,,,,,,,,,
0.0,1.0,1.107865,0.0,21.0,21.0,21.0,1.0,golf_club_03s.jpg,0.0,Orange.png,4.0,58,,,,,,,,,,,,,,,,,
0.0,1.0,0.6897,0.0,22.0,22.0,22.0,1.0,lava_02s.jpg,0.0,Yellow.png,4.0,58,,,,,,,,,,,,,,,,,
0.0,1.0,0.642555,0.0,23.0,23.0,23.0,1.0,toilet_07s.jpg,0.0,Green.png,4.0,58,,,,,,,,,,,,,,,,,
0.0,1.0,0.97362,0.0,24.0,24.0,24.0,1.0,turnstile_08s.jpg,0.0,Blue.png,5.0,58,,,,,,,,,,,,,,,,,
0.0,1.0,1.034105,0.0,25.0,25.0,25.0,1.0,turnstile_08s.jpg,0.0,Purple.png,5.0,58,,,,,,,,,,,,,,,,,
0.0,1.0,0.645385,0.0,26.0,26.0,26.0,1.0,teacup_07s.jpg,0.0,Red.png,5.0,58,,,,,,,,,,,,,,,,,
1.0,1.0,0.517055,0.0,27.0,27.0,27.0,1.0,turnstile_08s.jpg,1.0,Orange.png,5.0,58,,,,,,,,,,,,,,,,,
0.0,1.0,1.25364,0.0,28.0,28.0,28.0,1.0,turnstile_08s.jpg,0.0,Yellow.png,5.0,58,,,,,,,,,,,,,,,,,
0.0,1.0,0.70247,0.0,29.0,29.0,29.0,1.0,antenna_01b.jpg,0.0,Green.png,5.0,58,,,,,,,,,,,,,,,,,
0.0,1.0,0.61179,0.0,30.0,30.0,30.0,1.0,keyhole_03s.jpg,0.0,Blue.png,6.0,58,,,,,,,,,,,,,,,,,
0.0,1.0,0.675715,0.0,31.0,31.0,31.0,1.0,air_pump_05s.jpg,0.0,Purple.png,6.0,58,,,,,,,,,,,,,,,,,
0.0,1.0,0.70284,0.0,32.0,32.0,32.0,1.0,eggshell_14s.jpg,0.0,Red.png,6.0,58,,,,,,,,,,,,,,,,,
0.0,1.0,0.572535,0.0,33.0,33.0,33.0,1.0,eyedropper_12s.jpg,0.0,Orange.png,6.0,58,,,,,,,,,,,,,,,,,
0.0,1.0,0.58922,0.0,34.0,34.0,34.0,1.0,machete_06s.jpg,0.0,Yellow.png,6.0,58,,,,,,,,,,,,,,,,,
1.0,1.0,0.47943,0.0,35.0,35.0,35.0,1.0,eyedropper_12s.jpg,1.0,Green.png,6.0,58,,,,,,,,,,,,,,,,,
,,,,,,,,,1.0,,,58,1.0,1.0,3.289865,0.0,0.0,0.0,0.0,1.0,sugar_cube_11s.jpg,tongs_08s.jpg,,,,,,,
,,,,,,,,,1.0,,,58,1.0,1.0,2.655835,0.0,1.0,1.0,1.0,1.0,antenna_01b.jpg,eggshell_14s.jpg,,,,,,,
,,,,,,,,,1.0,,,58,1.0,1.0,1.292,0.0,2.0,2.0,2.0,1.0,bank_06s.jpg,birdcage_08s.jpg,,,,,,,
,,,,,,,,,1.0,,,58,1.0,1.0,1.605055,0.0,3.0,3.0,3.0,1.0,air_pump_05s.jpg,machete_06s.jpg,,,,,,,
,,,,,,,,,1.0,,,58,0.0,0.0,3.177635,0.0,4.0,4.0,4.0,1.0,latch_15s.jpg,crab_16s.jpg,,,,,,,
,,,,,,,,,1.0,,,58,1.0,1.0,1.336275,0.0,5.0,5.0,5.0,1.0,spider_web_03s.jpg,light_switch_02s.jpg,,,,,,,
,,,,,,,,,,,,58,,,,,,,,,,,0.0,4.0,4.0,4.0,1.0,new2backpresent_5_2.xlsx,new2back_compare_task_5_2.xlsx
0.0,1.0,1.58924,0.0,0.0,0.0,0.0,1.0,gazelle_10s.jpg,0.0,Blue.png,1.0,58,,,,,,,,,,,,,,,,,
0.0,1.0,1.40213,0.0,1.0,1.0,1.0,1.0,saddle_06s.jpg,0.0,Purple.png,1.0,58,,,,,,,,,,,,,,,,,
0.0,1.0,0.923185,0.0,2.0,2.0,2.0,1.0,saddle_06s.jpg,0.0,Red.png,1.0,58,,,,,,,,,,,,,,,,,
0.0,1.0,0.85806,0.0,3.0,3.0,3.0,1.0,kimono_13s.jpg,0.0,Orange.png,1.0,58,,,,,,,,,,,,,,,,,
0.0,1.0,0.735195,0.0,4.0,4.0,4.0,1.0,timer_03s.jpg,0.0,Yellow.png,1.0,58,,,,,,,,,,,,,,,,,
0.0,1.0,0.68421,0.0,5.0,5.0,5.0,1.0,tulip_02s.jpg,0.0,Green.png,1.0,58,,,,,,,,,,,,,,,,,
0.0,1.0,0.98055,0.0,6.0,6.0,6.0,1.0,prism_10s.jpg,0.0,Blue.png,2.0,58,,,,,,,,,,,,,,,,,
0.0,1.0,0.80494,0.0,7.0,7.0,7.0,1.0,razor_12s.jpg,0.0,Purple.png,2.0,58,,,,,,,,,,,,,,,,,
0.0,1.0,0.59511,0.0,8.0,8.0,8.0,1.0,blazer_02s.jpg,0.0,Red.png,2.0,58,,,,,,,,,,,,,,,,,
,0.0,,0.0,9.0,9.0,9.0,1.0,razor_12s.jpg,1.0,Orange.png,2.0,58,,,,,,,,,,,,,,,,,
0.0,1.0,1.22172,0.0,10.0,10.0,10.0,1.0,lamb_chop_07s.jpg,0.0,Yellow.png,2.0,58,,,,,,,,,,,,,,,,,
1.0,1.0,0.607865,0.0,11.0,11.0,11.0,1.0,razor_12s.jpg,1.0,Green.png,2.0,58,,,,,,,,,,,,,,,,,
1.0,1.0,0.58816,0.0,12.0,12.0,12.0,1.0,lamb_chop_07s.jpg,1.0,Blue.png,3.0,58,,,,,,,,,,,,,,,,,
0.0,1.0,0.52569,0.0,13.0,13.0,13.0,1.0,lamb_chop_07s.jpg,0.0,Purple.png,3.0,58,,,,,,,,,,,,,,,,,
0.0,1.0,0.95402,0.0,14.0,14.0,14.0,1.0,timer_03s.jpg,0.0,Red.png,3.0,58,,,,,,,,,,,,,,,,,
1.0,1.0,1.165145,0.0,15.0,15.0,15.0,1.0,lamb_chop_07s.jpg,1.0,Orange.png,3.0,58,,,,,,,,,,,,,,,,,
0.0,1.0,0.664705,0.0,16.0,16.0,16.0,1.0,glue_01s.jpg,0.0,Yellow.png,3.0,58,,,,,,,,,,,,,,,,,
0.0,1.0,0.935665,0.0,17.0,17.0,17.0,1.0,solar_panel_02s.jpg,0.0,Green.png,3.0,58,,,,,,,,,,,,,,,,,
0.0,1.0,0.967165,0.0,18.0,18.0,18.0,1.0,muffin_12n.jpg,0.0,Blue.png,4.0,58,,,,,,,,,,,,,,,,,
0.0,1.0,0.776905,0.0,19.0,19.0,19.0,1.0,pepper2_21s.jpg,0.0,Purple.png,4.0,58,,,,,,,,,,,,,,,,,
0.0,1.0,1.0587,0.0,20.0,20.0,20.0,1.0,marker_05s.jpg,0.0,Red.png,4.0,58,,,,,,,,,,,,,,,,,
0.0,1.0,0.633275,0.0,21.0,21.0,21.0,1.0,soccer_ball_12s.jpg,0.0,Orange.png,4.0,58,,,,,,,,,,,,,,,,,
0.0,1.0,0.69753,0.0,22.0,22.0,22.0,1.0,amber_04s.jpg,0.0,Yellow.png,4.0,58,,,,,,,,,,,,,,,,,
0.0,1.0,0.66901,0.0,23.0,23.0,23.0,1.0,stopwatch_04s.jpg,0.0,Green.png,4.0,58,,,,,,,,,,,,,,,,,
1.0,1.0,0.594745,0.0,24.0,24.0,24.0,1.0,amber_04s.jpg,1.0,Blue.png,5.0,58,,,,,,,,,,,,,,,,,
0.0,1.0,0.73143,0.0,25.0,25.0,25.0,1.0,racehorse_03s.jpg,0.0,Purple.png,5.0,58,,,,,,,,,,,,,,,,,
1.0,1.0,2.138135,0.0,26.0,26.0,26.0,1.0,amber_04s.jpg,1.0,Red.png,5.0,58,,,,,,,,,,,,,,,,,
0.0,1.0,0.71867,0.0,27.0,27.0,27.0,1.0,duck_01b.jpg,0.0,Orange.png,5.0,58,,,,,,,,,,,,,,,,,
1.0,1.0,1.05166,0.0,28.0,28.0,28.0,1.0,amber_04s.jpg,1.0,Yellow.png,5.0,58,,,,,,,,,,,,,,,,,
1.0,1.0,0.98615,0.0,29.0,29.0,29.0,1.0,duck_01b.jpg,1.0,Green.png,5.0,58,,,,,,,,,,,,,,,,,
0.0,1.0,0.95485,0.0,30.0,30.0,30.0,1.0,duck_01b.jpg,0.0,Blue.png,6.0,58,,,,,,,,,,,,,,,,,
1.0,1.0,0.7583,0.0,31.0,31.0,31.0,1.0,duck_01b.jpg,1.0,Purple.png,6.0,58,,,,,,,,,,,,,,,,,
0.0,1.0,0.71466,0.0,32.0,32.0,32.0,1.0,magnet_03s.jpg,0.0,Red.png,6.0,58,,,,,,,,,,,,,,,,,
1.0,1.0,1.08209,0.0,33.0,33.0,33.0,1.0,duck_01b.jpg,1.0,Orange.png,6.0,58,,,,,,,,,,,,,,,,,
0.0,1.0,0.6997,0.0,34.0,34.0,34.0,1.0,swimming_pool_17s.jpg,0.0,Yellow.png,6.0,58,,,,,,,,,,,,,,,,,
0.0,1.0,0.93084,0.0,35.0,35.0,35.0,1.0,roulette_wheel_04s.jpg,0.0,Green.png,6.0,58,,,,,,,,,,,,,,,,,
,,,,,,,,,0.0,,,58,1.0,0.0,1.41347,0.0,0.0,0.0,0.0,1.0,blazer_02s.jpg,tulip_02s.jpg,,,,,,,
,,,,,,,,,1.0,,,58,1.0,1.0,2.328145,0.0,1.0,1.0,1.0,1.0,glue_01s.jpg,pepper2_21s.jpg,,,,,,,
,,,,,,,,,1.0,,,58,1.0,1.0,1.69128,0.0,2.0,2.0,2.0,1.0,kimono_13s.jpg,prism_10s.jpg,,,,,,,
,,,,,,,,,0.0,,,58,0.0,1.0,1.003755,0.0,3.0,3.0,3.0,1.0,soccer_ball_12s.jpg,muffin_12n.jpg,,,,,,,
,,,,,,,,,1.0,,,58,1.0,1.0,1.675335,0.0,4.0,4.0,4.0,1.0,magnet_03s.jpg,roulette_wheel_04s.jpg,,,,,,,
,,,,,,,,,0.0,,,58,0.0,1.0,2.141245,0.0,5.0,5.0,5.0,1.0,stopwatch_04s.jpg,marker_05s.jpg,,,,,,,
,,,,,,,,,,,,58,,,,,,,,,,,0.0,5.0,5.0,5.0,1.0,new2backpresent_6_2.xlsx,new2back_compare_task_6_2.xlsx
0.0,1.0,1.067675,0.0,0.0,0.0,0.0,1.0,slingshot_07s.jpg,0.0,Blue.png,1.0,58,,,,,,,,,,,,,,,,,
0.0,1.0,0.47233,0.0,1.0,1.0,1.0,1.0,slingshot_07s.jpg,0.0,Purple.png,1.0,58,,,,,,,,,,,,,,,,,
0.0,1.0,1.17555,0.0,2.0,2.0,2.0,1.0,aluminum_foil_08s.jpg,0.0,Red.png,1.0,58,,,,,,,,,,,,,,,,,
0.0,1.0,0.561915,0.0,3.0,3.0,3.0,1.0,ink_08s.jpg,0.0,Orange.png,1.0,58,,,,,,,,,,,,,,,,,
1.0,1.0,0.936515,0.0,4.0,4.0,4.0,1.0,aluminum_foil_08s.jpg,1.0,Yellow.png,1.0,58,,,,,,,,,,,,,,,,,
0.0,1.0,0.91775,0.0,5.0,5.0,5.0,1.0,slingshot_07s.jpg,0.0,Green.png,1.0,58,,,,,,,,,,,,,,,,,
1.0,1.0,0.87727,0.0,6.0,6.0,6.0,1.0,aluminum_foil_08s.jpg,1.0,Blue.png,2.0,58,,,,,,,,,,,,,,,,,
0.0,1.0,0.98825,0.0,7.0,7.0,7.0,1.0,aluminum_foil_08s.jpg,0.0,Purple.png,2.0,58,,,,,,,,,,,,,,,,,
0.0,1.0,0.90669,0.0,8.0,8.0,8.0,1.0,ice-cream_cone_06s.jpg,0.0,Red.png,2.0,58,,,,,,,,,,,,,,,,,
0.0,1.0,1.22345,0.0,9.0,9.0,9.0,1.0,ink_08s.jpg,0.0,Orange.png,2.0,58,,,,,,,,,,,,,,,,,
0.0,1.0,0.7269,0.0,10.0,10.0,10.0,1.0,emerald_02s.jpg,0.0,Yellow.png,2.0,58,,,,,,,,,,,,,,,,,
0.0,1.0,1.4658,0.0,11.0,11.0,11.0,1.0,bathtub_23s.jpg,0.0,Green.png,2.0,58,,,,,,,,,,,,,,,,,
0.0,1.0,0.713625,0.0,12.0,12.0,12.0,1.0,bubble_01b.jpg,0.0,Blue.png,3.0,58,,,,,,,,,,,,,,,,,
0.0,1.0,1.745365,0.0,13.0,13.0,13.0,1.0,mirror_12s.jpg,0.0,Purple.png,3.0,58,,,,,,,,,,,,,,,,,
0.0,1.0,0.80526,0.0,14.0,14.0,14.0,1.0,swing_set_15s.jpg,0.0,Red.png,3.0,58,,,,,,,,,,,,,,,,,
0.0,1.0,0.605065,0.0,15.0,15.0,15.0,1.0,pinwheel_06s.jpg,0.0,Orange.png,3.0,58,,,,,,,,,,,,,,,,,
1.0,1.0,0.698915,0.0,16.0,16.0,16.0,1.0,swing_set_15s.jpg,1.0,Yellow.png,3.0,58,,,,,,,,,,,,,,,,,
0.0,0.0,1.39872,0.0,17.0,17.0,17.0,1.0,pinwheel_06s.jpg,1.0,Green.png,3.0,58,,,,,,,,,,,,,,,,,
0.0,1.0,1.034165,0.0,18.0,18.0,18.0,1.0,ink_08s.jpg,0.0,Blue.png,4.0,58,,,,,,,,,,,,,,,,,
0.0,1.0,1.137775,0.0,19.0,19.0,19.0,1.0,plunger_08s.jpg,0.0,Purple.png,4.0,58,,,,,,,,,,,,,,,,,
0.0,0.0,2.286445,0.0,20.0,20.0,20.0,1.0,ink_08s.jpg,1.0,Red.png,4.0,58,,,,,,,,,,,,,,,,,
0.0,1.0,0.797975,0.0,21.0,21.0,21.0,1.0,ink_08s.jpg,0.0,Orange.png,4.0,58,,,,,,,,,,,,,,,,,
0.0,1.0,0.67792,0.0,22.0,22.0,22.0,1.0,metronome_03s.jpg,0.0,Yellow.png,4.0,58,,,,,,,,,,,,,,,,,
0.0,1.0,0.50396,0.0,23.0,23.0,23.0,1.0,puppy_08s.jpg,0.0,Green.png,4.0,58,,,,,,,,,,,,,,,,,
0.0,1.0,0.594845,0.0,24.0,24.0,24.0,1.0,treasure_08s.jpg,0.0,Blue.png,5.0,58,,,,,,,,,,,,,,,,,
0.0,1.0,0.654125,0.0,25.0,25.0,25.0,1.0,penguin_16s.jpg,0.0,Purple.png,5.0,58,,,,,,,,,,,,,,,,,
0.0,1.0,0.56049,0.0,26.0,26.0,26.0,1.0,bacon_05s.jpg,0.0,Red.png,5.0,58,,,,,,,,,,,,,,,,,
0.0,1.0,0.6227,0.0,27.0,27.0,27.0,1.0,giraffe_11s.jpg,0.0,Orange.png,5.0,58,,,,,,,,,,,,,,,,,
0.0,1.0,0.610555,0.0,28.0,28.0,28.0,1.0,rug_09s.jpg,0.0,Yellow.png,5.0,58,,,,,,,,,,,,,,,,,
0.0,1.0,1.323205,0.0,29.0,29.0,29.0,1.0,lamp_08s.jpg,0.0,Green.png,5.0,58,,,,,,,,,,,,,,,,,
0.0,1.0,0.55528,0.0,30.0,30.0,30.0,1.0,metronome_03s.jpg,0.0,Blue.png,6.0,58,,,,,,,,,,,,,,,,,
0.0,1.0,0.91945,0.0,31.0,31.0,31.0,1.0,metronome_03s.jpg,0.0,Purple.png,6.0,58,,,,,,,,,,,,,,,,,
0.0,1.0,0.51926,0.0,32.0,32.0,32.0,1.0,lip_gloss_06s.jpg,0.0,Red.png,6.0,58,,,,,,,,,,,,,,,,,
1.0,1.0,0.77017,0.0,33.0,33.0,33.0,1.0,metronome_03s.jpg,1.0,Orange.png,6.0,58,,,,,,,,,,,,,,,,,
0.0,1.0,0.63441,0.0,34.0,34.0,34.0,1.0,laser_pointer_02s.jpg,0.0,Yellow.png,6.0,58,,,,,,,,,,,,,,,,,
1.0,1.0,2.028855,0.0,35.0,35.0,35.0,1.0,metronome_03s.jpg,1.0,Green.png,6.0,58,,,,,,,,,,,,,,,,,
,,,,,,,,,1.0,,,58,1.0,1.0,4.11456,0.0,0.0,0.0,0.0,1.0,emerald_02s.jpg,mirror_12s.jpg,,,,,,,
,,,,,,,,,1.0,,,58,1.0,1.0,1.846275,0.0,1.0,1.0,1.0,1.0,puppy_08s.jpg,bacon_05s.jpg,,,,,,,
,,,,,,,,,0.0,,,58,0.0,1.0,1.849655,0.0,2.0,2.0,2.0,1.0,lip_gloss_06s.jpg,lamp_08s.jpg,,,,,,,
,,,,,,,,,0.0,,,58,1.0,0.0,1.391385,0.0,3.0,3.0,3.0,1.0,bathtub_23s.jpg,ice-cream_cone_06s.jpg,,,,,,,
,,,,,,,,,0.0,,,58,0.0,1.0,1.41339,0.0,4.0,4.0,4.0,1.0,giraffe_11s.jpg,treasure_08s.jpg,,,,,,,
,,,,,,,,,0.0,,,58,0.0,1.0,1.256205,0.0,5.0,5.0,5.0,1.0,rug_09s.jpg,penguin_16s.jpg,,,,,,,
,,,,,,,,,,,,58,,,,,,,,,,,0.0,6.0,6.0,6.0,1.0,new2backpresent_7_2.xlsx,new2back_compare_task_7_2.xlsx
0.0,1.0,1.90903,0.0,0.0,0.0,0.0,1.0,ant_12s.jpg,0.0,Blue.png,1.0,58,,,,,,,,,,,,,,,,,
0.0,1.0,0.863225,0.0,1.0,1.0,1.0,1.0,ant_12s.jpg,0.0,Purple.png,1.0,58,,,,,,,,,,,,,,,,,
0.0,1.0,0.671475,0.0,2.0,2.0,2.0,1.0,ticktacktoe_08s.jpg,0.0,Red.png,1.0,58,,,,,,,,,,,,,,,,,
0.0,1.0,0.66681,0.0,3.0,3.0,3.0,1.0,frog_09s.jpg,0.0,Orange.png,1.0,58,,,,,,,,,,,,,,,,,
1.0,1.0,0.95703,0.0,4.0,4.0,4.0,1.0,ticktacktoe_08s.jpg,1.0,Yellow.png,1.0,58,,,,,,,,,,,,,,,,,
0.0,1.0,0.711505,0.0,5.0,5.0,5.0,1.0,feather02.jpg,0.0,Green.png,1.0,58,,,,,,,,,,,,,,,,,
0.0,1.0,0.504725,0.0,6.0,6.0,6.0,1.0,gas_mask_11s.jpg,0.0,Blue.png,2.0,58,,,,,,,,,,,,,,,,,
0.0,1.0,1.21394,0.0,7.0,7.0,7.0,1.0,gas_mask_11s.jpg,0.0,Purple.png,2.0,58,,,,,,,,,,,,,,,,,
0.0,1.0,0.762085,0.0,8.0,8.0,8.0,1.0,mop_08s.jpg,0.0,Red.png,2.0,58,,,,,,,,,,,,,,,,,
1.0,1.0,0.9801,0.0,9.0,9.0,9.0,1.0,gas_mask_11s.jpg,1.0,Orange.png,2.0,58,,,,,,,,,,,,,,,,,
0.0,1.0,0.80826,0.0,10.0,10.0,10.0,1.0,pea_11s.jpg,0.0,Yellow.png,2.0,58,,,,,,,,,,,,,,,,,
0.0,1.0,0.700055,0.0,11.0,11.0,11.0,1.0,bowler_hat_10s.jpg,0.0,Green.png,2.0,58,,,,,,,,,,,,,,,,,
0.0,1.0,1.665645,0.0,12.0,12.0,12.0,1.0,pencil_sharpener_09n.jpg,0.0,Blue.png,3.0,58,,,,,,,,,,,,,,,,,
0.0,1.0,0.621575,0.0,13.0,13.0,13.0,1.0,rice_12s.jpg,0.0,Purple.png,3.0,58,,,,,,,,,,,,,,,,,
0.0,1.0,0.656595,0.0,14.0,14.0,14.0,1.0,stamp1_11s.jpg,0.0,Red.png,3.0,58,,,,,,,,,,,,,,,,,
0.0,1.0,0.65279,0.0,15.0,15.0,15.0,1.0,jersey_02s.jpg,0.0,Orange.png,3.0,58,,,,,,,,,,,,,,,,,
0.0,1.0,0.86356,0.0,16.0,16.0,16.0,1.0,tiara_05s.jpg,0.0,Yellow.png,3.0,58,,,,,,,,,,,,,,,,,
0.0,1.0,0.624575,0.0,17.0,17.0,17.0,1.0,target_11s.jpg,0.0,Green.png,3.0,58,,,,,,,,,,,,,,,,,
0.0,1.0,0.68924,0.0,18.0,18.0,18.0,1.0,dirt_bike_11s.jpg,0.0,Blue.png,4.0,58,,,,,,,,,,,,,,,,,
0.0,1.0,1.35295,0.0,19.0,19.0,19.0,1.0,doily_13s.jpg,0.0,Purple.png,4.0,58,,,,,,,,,,,,,,,,,
0.0,1.0,1.48152,0.0,20.0,20.0,20.0,1.0,sunglasses_11s.jpg,0.0,Red.png,4.0,58,,,,,,,,,,,,,,,,,
0.0,1.0,0.92769,0.0,21.0,21.0,21.0,1.0,compass_10n.jpg,0.0,Orange.png,4.0,58,,,,,,,,,,,,,,,,,
1.0,1.0,1.01973,0.0,22.0,22.0,22.0,1.0,sunglasses_11s.jpg,1.0,Yellow.png,4.0,58,,,,,,,,,,,,,,,,,
0.0,1.0,1.48312,0.0,23.0,23.0,23.0,1.0,sunglasses_11s.jpg,0.0,Green.png,4.0,58,,,,,,,,,,,,,,,,,
0.0,1.0,0.689665,0.0,24.0,24.0,24.0,1.0,seagull_01b.jpg,0.0,Blue.png,5.0,58,,,,,,,,,,,,,,,,,
0.0,1.0,0.70714,0.0,25.0,25.0,25.0,1.0,footprint_11s.jpg,0.0,Purple.png,5.0,58,,,,,,,,,,,,,,,,,
0.0,1.0,0.53531,0.0,26.0,26.0,26.0,1.0,projector_08s.jpg,0.0,Red.png,5.0,58,,,,,,,,,,,,,,,,,
1.0,0.0,0.810635,0.0,27.0,27.0,27.0,1.0,projector_08s.jpg,0.0,Orange.png,5.0,58,,,,,,,,,,,,,,,,,
0.0,1.0,0.74191,0.0,28.0,28.0,28.0,1.0,money_07s.jpg,0.0,Yellow.png,5.0,58,,,,,,,,,,,,,,,,,
0.0,1.0,0.72921,0.0,29.0,29.0,29.0,1.0,flip_flop_03s.jpg,0.0,Green.png,5.0,58,,,,,,,,,,,,,,,,,
0.0,1.0,0.539275,0.0,30.0,30.0,30.0,1.0,ring_03s.jpg,0.0,Blue.png,6.0,58,,,,,,,,,,,,,,,,,
0.0,0.0,0.89274,0.0,31.0,31.0,31.0,1.0,flip_flop_03s.jpg,1.0,Purple.png,6.0,58,,,,,,,,,,,,,,,,,
0.0,1.0,1.01163,0.0,32.0,32.0,32.0,1.0,flip_flop_03s.jpg,0.0,Red.png,6.0,58,,,,,,,,,,,,,,,,,
1.0,1.0,0.82854,0.0,33.0,33.0,33.0,1.0,flip_flop_03s.jpg,1.0,Orange.png,6.0,58,,,,,,,,,,,,,,,,,
0.0,1.0,0.589765,0.0,34.0,34.0,34.0,1.0,screwdriver02a.jpg,0.0,Yellow.png,6.0,58,,,,,,,,,,,,,,,,,
0.0,1.0,1.204315,0.0,35.0,35.0,35.0,1.0,screwdriver02a.jpg,0.0,Green.png,6.0,58,,,,,,,,,,,,,,,,,
,,,,,,,,,0.0,,,58,0.0,1.0,1.984115,0.0,0.0,0.0,0.0,1.0,mop_08s.jpg,feather02.jpg,,,,,,,
,,,,,,,,,1.0,,,58,1.0,1.0,1.242255,0.0,1.0,1.0,1.0,1.0,pea_11s.jpg,rice_12s.jpg,,,,,,,
,,,,,,,,,1.0,,,58,1.0,1.0,1.242675,0.0,2.0,2.0,2.0,1.0,tiara_05s.jpg,doily_13s.jpg,,,,,,,
,,,,,,,,,1.0,,,58,1.0,1.0,1.812025,0.0,3.0,3.0,3.0,1.0,footprint_11s.jpg,money_07s.jpg,,,,,,,
,,,,,,,,,1.0,,,58,1.0,1.0,0.97631,0.0,4.0,4.0,4.0,1.0,pencil_sharpener_09n.jpg,jersey_02s.jpg,,,,,,,
,,,,,,,,,1.0,,,58,1.0,1.0,1.292425,0.0,5.0,5.0,5.0,1.0,stamp1_11s.jpg,target_11s.jpg,,,,,,,
,,,,,,,,,,,,58,,,,,,,,,,,0.0,7.0,7.0,7.0,1.0,new2backpresent_8_2.xlsx,new2back_compare_task_8_2.xlsx
0.0,1.0,1.75013,0.0,0.0,0.0,0.0,1.0,quilt_03s.jpg,0.0,Blue.png,1.0,58,,,,,,,,,,,,,,,,,
0.0,1.0,0.88127,0.0,1.0,1.0,1.0,1.0,stingray_02s.jpg,0.0,Purple.png,1.0,58,,,,,,,,,,,,,,,,,
0.0,1.0,0.60723,0.0,2.0,2.0,2.0,1.0,mousetrap_15n.jpg,0.0,Red.png,1.0,58,,,,,,,,,,,,,,,,,
0.0,1.0,0.663315,0.0,3.0,3.0,3.0,1.0,dashboard_02s.jpg,0.0,Orange.png,1.0,58,,,,,,,,,,,,,,,,,
0.0,1.0,0.883535,0.0,4.0,4.0,4.0,1.0,quilt_03s.jpg,0.0,Yellow.png,1.0,58,,,,,,,,,,,,,,,,,
0.0,1.0,0.987025,0.0,5.0,5.0,5.0,1.0,quilt_03s.jpg,0.0,Green.png,1.0,58,,,,,,,,,,,,,,,,,
0.0,1.0,0.721525,0.0,6.0,6.0,6.0,1.0,thorn_13s.jpg,0.0,Blue.png,2.0,58,,,,,,,,,,,,,,,,,
0.0,1.0,0.757845,0.0,7.0,7.0,7.0,1.0,mitten_10s.jpg,0.0,Purple.png,2.0,58,,,,,,,,,,,,,,,,,
0.0,1.0,0.66789,0.0,8.0,8.0,8.0,1.0,fondue_07s.jpg,0.0,Red.png,2.0,58,,,,,,,,,,,,,,,,,
0.0,1.0,0.83335,0.0,9.0,9.0,9.0,1.0,peach_04s.jpg,0.0,Orange.png,2.0,58,,,,,,,,,,,,,,,,,
0.0,1.0,0.78972,0.0,10.0,10.0,10.0,1.0,stump_02s.jpg,0.0,Yellow.png,2.0,58,,,,,,,,,,,,,,,,,
0.0,1.0,0.773625,0.0,11.0,11.0,11.0,1.0,rabbit_03s.jpg,0.0,Green.png,2.0,58,,,,,,,,,,,,,,,,,
0.0,1.0,0.77349,0.0,12.0,12.0,12.0,1.0,champagne_18s.jpg,0.0,Blue.png,3.0,58,,,,,,,,,,,,,,,,,
1.0,1.0,1.35793,0.0,13.0,13.0,13.0,1.0,rabbit_03s.jpg,1.0,Purple.png,3.0,58,,,,,,,,,,,,,,,,,
0.0,1.0,0.90791,0.0,14.0,14.0,14.0,1.0,denture_03s.jpg,0.0,Red.png,3.0,58,,,,,,,,,,,,,,,,,
1.0,1.0,1.59518,0.0,15.0,15.0,15.0,1.0,rabbit_03s.jpg,1.0,Orange.png,3.0,58,,,,,,,,,,,,,,,,,
0.0,1.0,0.806245,0.0,16.0,16.0,16.0,1.0,turtleneck_11s.jpg,0.0,Yellow.png,3.0,58,,,,,,,,,,,,,,,,,
1.0,1.0,0.85433,0.0,17.0,17.0,17.0,1.0,rabbit_03s.jpg,1.0,Green.png,3.0,58,,,,,,,,,,,,,,,,,
0.0,1.0,0.85166,0.0,18.0,18.0,18.0,1.0,typewriter_11s.jpg,0.0,Blue.png,4.0,58,,,,,,,,,,,,,,,,,
0.0,1.0,0.70269,0.0,19.0,19.0,19.0,1.0,thread_08s.jpg,0.0,Purple.png,4.0,58,,,,,,,,,,,,,,,,,
0.0,1.0,0.675795,0.0,20.0,20.0,20.0,1.0,bean_06s.jpg,0.0,Red.png,4.0,58,,,,,,,,,,,,,,,,,
0.0,1.0,0.77734,0.0,21.0,21.0,21.0,1.0,rolling_pin_02s.jpg,0.0,Orange.png,4.0,58,,,,,,,,,,,,,,,,,
0.0,1.0,0.63996,0.0,22.0,22.0,22.0,1.0,tattoo_14s.jpg,0.0,Yellow.png,4.0,58,,,,,,,,,,,,,,,,,
0.0,1.0,0.63715,0.0,23.0,23.0,23.0,1.0,eiffeltower.jpg,0.0,Green.png,4.0,58,,,,,,,,,,,,,,,,,
0.0,1.0,0.867575,0.0,24.0,24.0,24.0,1.0,fondue_07s.jpg,0.0,Blue.png,5.0,58,,,,,,,,,,,,,,,,,
0.0,1.0,0.85462,0.0,25.0,25.0,25.0,1.0,fondue_07s.jpg,0.0,Purple.png,5.0,58,,,,,,,,,,,,,,,,,
0.0,1.0,0.638955,0.0,26.0,26.0,26.0,1.0,omelet_07s.jpg,0.0,Red.png,5.0,58,,,,,,,,,,,,,,,,,
1.0,1.0,0.88981,0.0,27.0,27.0,27.0,1.0,fondue_07s.jpg,1.0,Orange.png,5.0,58,,,,,,,,,,,,,,,,,
0.0,1.0,0.590465,0.0,28.0,28.0,28.0,1.0,radio_09s.jpg,0.0,Yellow.png,5.0,58,,,,,,,,,,,,,,,,,
0.0,0.0,1.08253,0.0,29.0,29.0,29.0,1.0,fondue_07s.jpg,1.0,Green.png,5.0,58,,,,,,,,,,,,,,,,,
0.0,1.0,0.64011,0.0,30.0,30.0,30.0,1.0,roller_coaster_07s.jpg,0.0,Blue.png,6.0,58,,,,,,,,,,,,,,,,,
0.0,1.0,0.6702,0.0,31.0,31.0,31.0,1.0,loveseat_08s.jpg,0.0,Purple.png,6.0,58,,,,,,,,,,,,,,,,,
1.0,1.0,0.49534,0.0,32.0,32.0,32.0,1.0,roller_coaster_07s.jpg,1.0,Red.png,6.0,58,,,,,,,,,,,,,,,,,
0.0,1.0,1.163415,0.0,33.0,33.0,33.0,1.0,roller_coaster_07s.jpg,0.0,Orange.png,6.0,58,,,,,,,,,,,,,,,,,
1.0,1.0,0.801195,0.0,34.0,34.0,34.0,1.0,roller_coaster_07s.jpg,1.0,Yellow.png,6.0,58,,,,,,,,,,,,,,,,,
1.0,1.0,1.041375,0.0,35.0,35.0,35.0,1.0,roller_coaster_07s.jpg,1.0,Green.png,6.0,58,,,,,,,,,,,,,,,,,
,,,,,,,,,0.0,,,58,0.0,1.0,1.51007,0.0,0.0,0.0,0.0,1.0,loveseat_08s.jpg,radio_09s.jpg,,,,,,,
,,,,,,,,,1.0,,,58,1.0,1.0,1.12276,0.0,1.0,1.0,1.0,1.0,dashboard_02s.jpg,thorn_13s.jpg,,,,,,,
,,,,,,,,,0.0,,,58,0.0,1.0,5.12389,0.0,2.0,2.0,2.0,1.0,champagne_18s.jpg,peach_04s.jpg,,,,,,,
,,,,,,,,,1.0,,,58,1.0,1.0,0.96207,0.0,3.0,3.0,3.0,1.0,mitten_10s.jpg,stump_02s.jpg,,,,,,,
,,,,,,,,,1.0,,,58,0.0,0.0,3.52322,0.0,4.0,4.0,4.0,1.0,typewriter_11s.jpg,rolling_pin_02s.jpg,,,,,,,
,,,,,,,,,1.0,,,58,1.0,1.0,1.15055,0.0,5.0,5.0,5.0,1.0,thread_08s.jpg,tattoo_14s.jpg,,,,,,,
,,,,,,,,,,,,58,,,,,,,,,,,0.0,8.0,8.0,8.0,1.0,new2backpresent_9_2.xlsx,new2back_compare_task_9_2.xlsx
