key_resp.keys,key_resp.corr,key_resp.rt,present_segment.thisRepN,present_segment.thisTrialN,present_segment.thisN,present_segment.thisIndex,present_segment.ran,pictures,answer,clock,segment,participant,key_resp_2.keys,key_resp_2.corr,key_resp_2.rt,compare_segment.thisRepN,compare_segment.thisTrialN,compare_segment.thisN,compare_segment.thisIndex,compare_segment.ran,item_a,item_b,clock_conditions.thisRepN,clock_conditions.thisTrialN,clock_conditions.thisN,clock_conditions.thisIndex,clock_conditions.ran,present,compare
0.0,1.0,1.36651,0.0,0.0,0.0,0.0,1.0,mirror_12s.jpg,0.0,Blue.png,1.0,42,,,,,,,,,,,,,,,,,
0.0,1.0,1.544725,0.0,1.0,1.0,1.0,1.0,polaroid_05s.jpg,0.0,Purple.png,1.0,42,,,,,,,,,,,,,,,,,
0.0,1.0,0.86269,0.0,2.0,2.0,2.0,1.0,polaroid_05s.jpg,0.0,Red.png,1.0,42,,,,,,,,,,,,,,,,,
0.0,1.0,0.799965,0.0,3.0,3.0,3.0,1.0,slingshot_07s.jpg,0.0,Orange.png,1.0,42,,,,,,,,,,,,,,,,,
1.0,1.0,0.67238,0.0,4.0,4.0,4.0,1.0,polaroid_05s.jpg,1.0,Yellow.png,1.0,42,,,,,,,,,,,,,,,,,
0.0,1.0,0.58907,0.0,5.0,5.0,5.0,1.0,kettle_08s.jpg,0.0,Green.png,1.0,42,,,,,,,,,,,,,,,,,
0.0,1.0,0.82671,0.0,6.0,6.0,6.0,1.0,crystal_ball_12s.jpg,0.0,Blue.png,2.0,42,,,,,,,,,,,,,,,,,
0.0,1.0,0.657625,0.0,7.0,7.0,7.0,1.0,iron_13s.jpg,0.0,Purple.png,2.0,42,,,,,,,,,,,,,,,,,
0.0,1.0,0.70293,0.0,8.0,8.0,8.0,1.0,saddle_06s.jpg,0.0,Red.png,2.0,42,,,,,,,,,,,,,,,,,
0.0,1.0,0.596725,0.0,9.0,9.0,9.0,1.0,mango_09s.jpg,0.0,Orange.png,2.0,42,,,,,,,,,,,,,,,,,
0.0,1.0,0.70775,0.0,10.0,10.0,10.0,1.0,ostrich_06s.jpg,0.0,Yellow.png,2.0,42,,,,,,,,,,,,,,,,,
1.0,0.0,0.92189,0.0,11.0,11.0,11.0,1.0,iron_13s.jpg,0.0,Green.png,2.0,42,,,,,,,,,,,,,,,,,
0.0,1.0,1.18305,0.0,12.0,12.0,12.0,1.0,stethoscope_01b.jpg,0.0,Blue.png,3.0,42,,,,,,,,,,,,,,,,,
0.0,1.0,0.805585,0.0,13.0,13.0,13.0,1.0,ruby_15s.jpg,0.0,Purple.png,3.0,42,,,,,,,,,,,,,,,,,
1.0,0.0,1.38929,0.0,14.0,14.0,14.0,1.0,mango_09s.jpg,0.0,Red.png,3.0,42,,,,,,,,,,,,,,,,,
0.0,1.0,1.275075,0.0,15.0,15.0,15.0,1.0,target_11s.jpg,0.0,Orange.png,3.0,42,,,,,,,,,,,,,,,,,
1.0,1.0,1.91771,0.0,16.0,16.0,16.0,1.0,mango_09s.jpg,1.0,Yellow.png,3.0,42,,,,,,,,,,,,,,,,,
0.0,1.0,1.052015,0.0,17.0,17.0,17.0,1.0,compass_10n.jpg,0.0,Green.png,3.0,42,,,,,,,,,,,,,,,,,
0.0,1.0,0.75258,0.0,18.0,18.0,18.0,1.0,meatball_13s.jpg,0.0,Blue.png,4.0,42,,,,,,,,,,,,,,,,,
0.0,1.0,0.649505,0.0,19.0,19.0,19.0,1.0,stapler_01b.jpg,0.0,Purple.png,4.0,42,,,,,,,,,,,,,,,,,
1.0,1.0,0.590755,0.0,20.0,20.0,20.0,1.0,meatball_13s.jpg,1.0,Red.png,4.0,42,,,,,,,,,,,,,,,,,
0.0,1.0,0.68851,0.0,21.0,21.0,21.0,1.0,pump_11s.jpg,0.0,Orange.png,4.0,42,,,,,,,,,,,,,,,,,
0.0,1.0,0.721705,0.0,22.0,22.0,22.0,1.0,coral_08s.jpg,0.0,Yellow.png,4.0,42,,,,,,,,,,,,,,,,,
0.0,1.0,1.285125,0.0,23.0,23.0,23.0,1.0,meatball_13s.jpg,0.0,Green.png,4.0,42,,,,,,,,,,,,,,,,,
0.0,1.0,0.778275,0.0,24.0,24.0,24.0,1.0,peach_04s.jpg,0.0,Blue.png,5.0,42,,,,,,,,,,,,,,,,,
1.0,1.0,0.992915,0.0,25.0,25.0,25.0,1.0,meatball_13s.jpg,1.0,Purple.png,5.0,42,,,,,,,,,,,,,,,,,
0.0,1.0,0.59185,0.0,26.0,26.0,26.0,1.0,pie_08s.jpg,0.0,Red.png,5.0,42,,,,,,,,,,,,,,,,,
0.0,1.0,0.787685,0.0,27.0,27.0,27.0,1.0,rollerskate_03s.jpg,0.0,Orange.png,5.0,42,,,,,,,,,,,,,,,,,
0.0,1.0,0.70944,0.0,28.0,28.0,28.0,1.0,trampoline_13s.jpg,0.0,Yellow.png,5.0,42,,,,,,,,,,,,,,,,,
0.0,1.0,0.847045,0.0,29.0,29.0,29.0,1.0,undershirt_02s.jpg,0.0,Green.png,5.0,42,,,,,,,,,,,,,,,,,
0.0,1.0,1.077705,0.0,30.0,30.0,30.0,1.0,thread_08s.jpg,0.0,Blue.png,6.0,42,,,,,,,,,,,,,,,,,
0.0,1.0,1.22724,0.0,31.0,31.0,31.0,1.0,megaphone_03s.jpg,0.0,Purple.png,6.0,42,,,,,,,,,,,,,,,,,
0.0,1.0,0.930615,0.0,32.0,32.0,32.0,1.0,plaster_cast_13s.jpg,0.0,Red.png,6.0,42,,,,,,,,,,,,,,,,,
0.0,1.0,1.110945,0.0,33.0,33.0,33.0,1.0,diving_board_07s.jpg,0.0,Orange.png,6.0,42,,,,,,,,,,,,,,,,,
0.0,1.0,1.12517,0.0,34.0,34.0,34.0,1.0,kayak_08s.jpg,0.0,Yellow.png,6.0,42,,,,,,,,,,,,,,,,,
0.0,0.0,1.685285,0.0,35.0,35.0,35.0,1.0,diving_board_07s.jpg,1.0,Green.png,6.0,42,,,,,,,,,,,,,,,,,
,,,,,,,,,1.0,,,42,1.0,1.0,2.50546,0.0,0.0,0.0,0.0,1.0,stapler_01b.jpg,coral_08s.jpg,,,,,,,
,,,,,,,,,1.0,,,42,1.0,1.0,2.90635,0.0,1.0,1.0,1.0,1.0,slingshot_07s.jpg,crystal_ball_12s.jpg,,,,,,,
,,,,,,,,,0.0,,,42,0.0,1.0,3.01311,0.0,2.0,2.0,2.0,1.0,saddle_06s.jpg,kettle_08s.jpg,,,,,,,
,,,,,,,,,1.0,,,42,1.0,1.0,3.833865,0.0,3.0,3.0,3.0,1.0,pie_08s.jpg,undershirt_02s.jpg,,,,,,,
,,,,,,,,,1.0,,,42,1.0,1.0,2.233415,0.0,4.0,4.0,4.0,1.0,stethoscope_01b.jpg,target_11s.jpg,,,,,,,
,,,,,,,,,1.0,,,42,1.0,1.0,1.86962,0.0,5.0,5.0,5.0,1.0,ostrich_06s.jpg,ruby_15s.jpg,,,,,,,
,,,,,,,,,,,,42,,,,,,,,,,,0.0,0.0,0.0,0.0,1.0,new2backpresent_1_4.xlsx,new2back_compare_task_1_4.xlsx
0.0,1.0,1.591815,0.0,0.0,0.0,0.0,1.0,jetski_10s.jpg,0.0,Blue.png,1.0,42,,,,,,,,,,,,,,,,,
0.0,1.0,0.9488,0.0,1.0,1.0,1.0,1.0,tripod_01b.jpg,0.0,Purple.png,1.0,42,,,,,,,,,,,,,,,,,
0.0,1.0,1.51875,0.0,2.0,2.0,2.0,1.0,lab_coat_11s.jpg,0.0,Red.png,1.0,42,,,,,,,,,,,,,,,,,
0.0,1.0,0.70802,0.0,3.0,3.0,3.0,1.0,foam_03s.jpg,0.0,Orange.png,1.0,42,,,,,,,,,,,,,,,,,
0.0,1.0,0.874735,0.0,4.0,4.0,4.0,1.0,crate_05s.jpg,0.0,Yellow.png,1.0,42,,,,,,,,,,,,,,,,,
0.0,1.0,1.479655,0.0,5.0,5.0,5.0,1.0,margarita_03s.jpg,0.0,Green.png,1.0,42,,,,,,,,,,,,,,,,,
0.0,1.0,1.05697,0.0,6.0,6.0,6.0,1.0,joystick_01b.jpg,0.0,Blue.png,2.0,42,,,,,,,,,,,,,,,,,
0.0,1.0,1.726965,0.0,7.0,7.0,7.0,1.0,giraffe_11s.jpg,0.0,Purple.png,2.0,42,,,,,,,,,,,,,,,,,
0.0,1.0,1.25335,0.0,8.0,8.0,8.0,1.0,quilt_03s.jpg,0.0,Red.png,2.0,42,,,,,,,,,,,,,,,,,
1.0,1.0,1.33106,0.0,9.0,9.0,9.0,1.0,giraffe_11s.jpg,1.0,Orange.png,2.0,42,,,,,,,,,,,,,,,,,
0.0,1.0,1.67861,0.0,10.0,10.0,10.0,1.0,pincushion_10s.jpg,0.0,Yellow.png,2.0,42,,,,,,,,,,,,,,,,,
1.0,1.0,1.27112,0.0,11.0,11.0,11.0,1.0,giraffe_11s.jpg,1.0,Green.png,2.0,42,,,,,,,,,,,,,,,,,
1.0,1.0,0.82388,0.0,12.0,12.0,12.0,1.0,pincushion_10s.jpg,1.0,Blue.png,3.0,42,,,,,,,,,,,,,,,,,
1.0,1.0,1.00754,0.0,13.0,13.0,13.0,1.0,giraffe_11s.jpg,1.0,Purple.png,3.0,42,,,,,,,,,,,,,,,,,
0.0,1.0,1.546075,0.0,14.0,14.0,14.0,1.0,rolling_pin_02s.jpg,0.0,Red.png,3.0,42,,,,,,,,,,,,,,,,,
0.0,1.0,1.333435,0.0,15.0,15.0,15.0,1.0,ticktacktoe_08s.jpg,0.0,Orange.png,3.0,42,,,,,,,,,,,,,,,,,
0.0,1.0,2.45308,0.0,16.0,16.0,16.0,1.0,giraffe_11s.jpg,0.0,Yellow.png,3.0,42,,,,,,,,,,,,,,,,,
1.0,1.0,1.894485,0.0,17.0,17.0,17.0,1.0,ticktacktoe_08s.jpg,1.0,Green.png,3.0,42,,,,,,,,,,,,,,,,,
0.0,1.0,0.82869,0.0,18.0,18.0,18.0,1.0,typewriter_11s.jpg,0.0,Blue.png,4.0,42,,,,,,,,,,,,,,,,,
0.0,1.0,1.334075,0.0,19.0,19.0,19.0,1.0,toothpaste_12s.jpg,0.0,Purple.png,4.0,42,,,,,,,,,,,,,,,,,
0.0,1.0,0.99736,0.0,20.0,20.0,20.0,1.0,hummingbird_05s.jpg,0.0,Red.png,4.0,42,,,,,,,,,,,,,,,,,
1.0,1.0,1.26658,0.0,21.0,21.0,21.0,1.0,toothpaste_12s.jpg,1.0,Orange.png,4.0,42,,,,,,,,,,,,,,,,,
0.0,1.0,1.008125,0.0,22.0,22.0,22.0,1.0,toothpaste_12s.jpg,0.0,Yellow.png,4.0,42,,,,,,,,,,,,,,,,,
0.0,1.0,0.909645,0.0,23.0,23.0,23.0,1.0,treadmill_06s.jpg,0.0,Green.png,4.0,42,,,,,,,,,,,,,,,,,
0.0,1.0,1.09746,0.0,24.0,24.0,24.0,1.0,typewriter_11s.jpg,0.0,Blue.png,5.0,42,,,,,,,,,,,,,,,,,
0.0,1.0,0.94246,0.0,25.0,25.0,25.0,1.0,penguin_16s.jpg,0.0,Purple.png,5.0,42,,,,,,,,,,,,,,,,,
0.0,1.0,1.32318,0.0,26.0,26.0,26.0,1.0,olive_05s.jpg,0.0,Red.png,5.0,42,,,,,,,,,,,,,,,,,
1.0,1.0,1.08661,0.0,27.0,27.0,27.0,1.0,penguin_16s.jpg,1.0,Orange.png,5.0,42,,,,,,,,,,,,,,,,,
0.0,1.0,1.465635,0.0,28.0,28.0,28.0,1.0,penguin_16s.jpg,0.0,Yellow.png,5.0,42,,,,,,,,,,,,,,,,,
0.0,1.0,1.07765,0.0,29.0,29.0,29.0,1.0,tab_09s.jpg,0.0,Green.png,5.0,42,,,,,,,,,,,,,,,,,
0.0,1.0,1.05537,0.0,30.0,30.0,30.0,1.0,frame_06s.jpg,0.0,Blue.png,6.0,42,,,,,,,,,,,,,,,,,
0.0,1.0,0.91223,0.0,31.0,31.0,31.0,1.0,mop_08s.jpg,0.0,Purple.png,6.0,42,,,,,,,,,,,,,,,,,
0.0,1.0,1.13448,0.0,32.0,32.0,32.0,1.0,memory_stick_11s.jpg,0.0,Red.png,6.0,42,,,,,,,,,,,,,,,,,
0.0,1.0,1.80158,0.0,33.0,33.0,33.0,1.0,olive_05s.jpg,0.0,Orange.png,6.0,42,,,,,,,,,,,,,,,,,
0.0,1.0,1.10474,0.0,34.0,34.0,34.0,1.0,ravioli_08s.jpg,0.0,Yellow.png,6.0,42,,,,,,,,,,,,,,,,,
0.0,1.0,1.01445,0.0,35.0,35.0,35.0,1.0,mousetrap_15n.jpg,0.0,Green.png,6.0,42,,,,,,,,,,,,,,,,,
,,,,,,,,,1.0,,,42,0.0,0.0,7.660715,0.0,0.0,0.0,0.0,1.0,hummingbird_05s.jpg,treadmill_06s.jpg,,,,,,,
,,,,,,,,,1.0,,,42,0.0,0.0,5.640615,0.0,1.0,1.0,1.0,1.0,margarita_03s.jpg,quilt_03s.jpg,,,,,,,
,,,,,,,,,0.0,,,42,0.0,1.0,2.838045,0.0,2.0,2.0,2.0,1.0,joystick_01b.jpg,foam_03s.jpg,,,,,,,
,,,,,,,,,0.0,,,42,0.0,1.0,4.722545,0.0,3.0,3.0,3.0,1.0,ravioli_08s.jpg,mop_08s.jpg,,,,,,,
,,,,,,,,,1.0,,,42,1.0,1.0,3.29313,0.0,4.0,4.0,4.0,1.0,tab_09s.jpg,memory_stick_11s.jpg,,,,,,,
,,,,,,,,,1.0,,,42,0.0,0.0,7.77852,0.0,5.0,5.0,5.0,1.0,tripod_01b.jpg,crate_05s.jpg,,,,,,,
,,,,,,,,,,,,42,,,,,,,,,,,0.0,1.0,1.0,1.0,1.0,new2backpresent_2_4.xlsx,new2back_compare_task_2_4.xlsx
,0.0,,0.0,0.0,0.0,0.0,1.0,safety_pin_02s.jpg,0.0,Blue.png,1.0,42,,,,,,,,,,,,,,,,,
0.0,1.0,1.452955,0.0,1.0,1.0,1.0,1.0,safety_pin_02s.jpg,0.0,Purple.png,1.0,42,,,,,,,,,,,,,,,,,
0.0,1.0,0.99806,0.0,2.0,2.0,2.0,1.0,cardinal_07s.jpg,0.0,Red.png,1.0,42,,,,,,,,,,,,,,,,,
1.0,1.0,1.37236,0.0,3.0,3.0,3.0,1.0,safety_pin_02s.jpg,1.0,Orange.png,1.0,42,,,,,,,,,,,,,,,,,
0.0,1.0,0.953925,0.0,4.0,4.0,4.0,1.0,potholder_02s.jpg,0.0,Yellow.png,1.0,42,,,,,,,,,,,,,,,,,
1.0,1.0,0.700915,0.0,5.0,5.0,5.0,1.0,safety_pin_02s.jpg,1.0,Green.png,1.0,42,,,,,,,,,,,,,,,,,
0.0,1.0,0.909215,0.0,6.0,6.0,6.0,1.0,cardinal_07s.jpg,0.0,Blue.png,2.0,42,,,,,,,,,,,,,,,,,
0.0,1.0,0.789425,0.0,7.0,7.0,7.0,1.0,lion_18s.jpg,0.0,Purple.png,2.0,42,,,,,,,,,,,,,,,,,
0.0,1.0,0.50006,0.0,8.0,8.0,8.0,1.0,comic_book_02s.jpg,0.0,Red.png,2.0,42,,,,,,,,,,,,,,,,,
0.0,1.0,1.111225,0.0,9.0,9.0,9.0,1.0,lizard_10n.jpg,0.0,Orange.png,2.0,42,,,,,,,,,,,,,,,,,
0.0,1.0,0.98789,0.0,10.0,10.0,10.0,1.0,rice_12s.jpg,0.0,Yellow.png,2.0,42,,,,,,,,,,,,,,,,,
0.0,1.0,1.00026,0.0,11.0,11.0,11.0,1.0,bagel_15s.jpg,0.0,Green.png,2.0,42,,,,,,,,,,,,,,,,,
0.0,1.0,0.981365,0.0,12.0,12.0,12.0,1.0,recliner_02s.jpg,0.0,Blue.png,3.0,42,,,,,,,,,,,,,,,,,
0.0,1.0,1.093605,0.0,13.0,13.0,13.0,1.0,recliner_02s.jpg,0.0,Purple.png,3.0,42,,,,,,,,,,,,,,,,,
0.0,1.0,0.841915,0.0,14.0,14.0,14.0,1.0,luggage_08s.jpg,0.0,Red.png,3.0,42,,,,,,,,,,,,,,,,,
1.0,1.0,0.742405,0.0,15.0,15.0,15.0,1.0,recliner_02s.jpg,1.0,Orange.png,3.0,42,,,,,,,,,,,,,,,,,
0.0,1.0,0.89073,0.0,16.0,16.0,16.0,1.0,onion_10s.jpg,0.0,Yellow.png,3.0,42,,,,,,,,,,,,,,,,,
0.0,1.0,1.10468,0.0,17.0,17.0,17.0,1.0,rosary_03s.jpg,0.0,Green.png,3.0,42,,,,,,,,,,,,,,,,,
0.0,1.0,0.927125,0.0,18.0,18.0,18.0,1.0,smokingpipe.jpg,0.0,Blue.png,4.0,42,,,,,,,,,,,,,,,,,
0.0,1.0,0.93749,0.0,19.0,19.0,19.0,1.0,roulette_wheel_04s.jpg,0.0,Purple.png,4.0,42,,,,,,,,,,,,,,,,,
1.0,1.0,0.394715,0.0,20.0,20.0,20.0,1.0,smokingpipe.jpg,1.0,Red.png,4.0,42,,,,,,,,,,,,,,,,,
0.0,1.0,0.73579,0.0,21.0,21.0,21.0,1.0,orchid_01b.jpg,0.0,Orange.png,4.0,42,,,,,,,,,,,,,,,,,
0.0,1.0,0.675905,0.0,22.0,22.0,22.0,1.0,buoy_04s.jpg,0.0,Yellow.png,4.0,42,,,,,,,,,,,,,,,,,
0.0,1.0,1.16327,0.0,23.0,23.0,23.0,1.0,stopwatch_04s.jpg,0.0,Green.png,4.0,42,,,,,,,,,,,,,,,,,
0.0,1.0,0.677065,0.0,24.0,24.0,24.0,1.0,knitting_needle_04s.jpg,0.0,Blue.png,5.0,42,,,,,,,,,,,,,,,,,
0.0,1.0,0.49594,0.0,25.0,25.0,25.0,1.0,prism_10s.jpg,0.0,Purple.png,5.0,42,,,,,,,,,,,,,,,,,
0.0,1.0,0.62466,0.0,26.0,26.0,26.0,1.0,teapot_03s.jpg,0.0,Red.png,5.0,42,,,,,,,,,,,,,,,,,
0.0,1.0,0.854955,0.0,27.0,27.0,27.0,1.0,fire_pit_10s.jpg,0.0,Orange.png,5.0,42,,,,,,,,,,,,,,,,,
0.0,1.0,0.72648,0.0,28.0,28.0,28.0,1.0,fire_pit_10s.jpg,0.0,Yellow.png,5.0,42,,,,,,,,,,,,,,,,,
1.0,1.0,0.907235,0.0,29.0,29.0,29.0,1.0,fire_pit_10s.jpg,1.0,Green.png,5.0,42,,,,,,,,,,,,,,,,,
0.0,1.0,1.217005,0.0,30.0,30.0,30.0,1.0,ironing_board_07s.jpg,0.0,Blue.png,6.0,42,,,,,,,,,,,,,,,,,
1.0,1.0,1.133395,0.0,31.0,31.0,31.0,1.0,fire_pit_10s.jpg,1.0,Purple.png,6.0,42,,,,,,,,,,,,,,,,,
0.0,1.0,0.91007,0.0,32.0,32.0,32.0,1.0,mattress_01s.jpg,0.0,Red.png,6.0,42,,,,,,,,,,,,,,,,,
1.0,1.0,0.464225,0.0,33.0,33.0,33.0,1.0,fire_pit_10s.jpg,1.0,Orange.png,6.0,42,,,,,,,,,,,,,,,,,
1.0,1.0,0.645605,0.0,34.0,34.0,34.0,1.0,mattress_01s.jpg,1.0,Yellow.png,6.0,42,,,,,,,,,,,,,,,,,
0.0,1.0,0.82011,0.0,35.0,35.0,35.0,1.0,ice-cream_cone_06s.jpg,0.0,Green.png,6.0,42,,,,,,,,,,,,,,,,,
,,,,,,,,,1.0,,,42,0.0,0.0,10.413315,0.0,0.0,0.0,0.0,1.0,roulette_wheel_04s.jpg,buoy_04s.jpg,,,,,,,
,,,,,,,,,0.0,,,42,1.0,0.0,3.034425,0.0,1.0,1.0,1.0,1.0,lion_18s.jpg,potholder_02s.jpg,,,,,,,
,,,,,,,,,0.0,,,42,0.0,1.0,1.51496,0.0,2.0,2.0,2.0,1.0,bagel_15s.jpg,comic_book_02s.jpg,,,,,,,
,,,,,,,,,1.0,,,42,1.0,1.0,2.29185,0.0,3.0,3.0,3.0,1.0,stopwatch_04s.jpg,teapot_03s.jpg,,,,,,,
,,,,,,,,,1.0,,,42,1.0,1.0,1.873495,0.0,4.0,4.0,4.0,1.0,luggage_08s.jpg,rosary_03s.jpg,,,,,,,
,,,,,,,,,1.0,,,42,1.0,1.0,6.68273,0.0,5.0,5.0,5.0,1.0,orchid_01b.jpg,knitting_needle_04s.jpg,,,,,,,
,,,,,,,,,,,,42,,,,,,,,,,,0.0,2.0,2.0,2.0,1.0,new2backpresent_3_4.xlsx,new2back_compare_task_3_4.xlsx
0.0,1.0,1.18339,0.0,0.0,0.0,0.0,1.0,smoothie_09s.jpg,0.0,Blue.png,1.0,42,,,,,,,,,,,,,,,,,
0.0,1.0,1.820885,0.0,1.0,1.0,1.0,1.0,raspberry_12s.jpg,0.0,Purple.png,1.0,42,,,,,,,,,,,,,,,,,
0.0,1.0,0.9691,0.0,2.0,2.0,2.0,1.0,raspberry_12s.jpg,0.0,Red.png,1.0,42,,,,,,,,,,,,,,,,,
0.0,1.0,0.662835,0.0,3.0,3.0,3.0,1.0,lamb_chop_07s.jpg,0.0,Orange.png,1.0,42,,,,,,,,,,,,,,,,,
0.0,1.0,1.01005,0.0,4.0,4.0,4.0,1.0,smoothie_09s.jpg,0.0,Yellow.png,1.0,42,,,,,,,,,,,,,,,,,
0.0,1.0,0.934575,0.0,5.0,5.0,5.0,1.0,raspberry_12s.jpg,0.0,Green.png,1.0,42,,,,,,,,,,,,,,,,,
0.0,1.0,0.512275,0.0,6.0,6.0,6.0,1.0,lava_02s.jpg,0.0,Blue.png,2.0,42,,,,,,,,,,,,,,,,,
0.0,1.0,0.557415,0.0,7.0,7.0,7.0,1.0,trident_07s.jpg,0.0,Purple.png,2.0,42,,,,,,,,,,,,,,,,,
0.0,1.0,0.7644,0.0,8.0,8.0,8.0,1.0,trident_07s.jpg,0.0,Red.png,2.0,42,,,,,,,,,,,,,,,,,
1.0,1.0,0.979,0.0,9.0,9.0,9.0,1.0,trident_07s.jpg,1.0,Orange.png,2.0,42,,,,,,,,,,,,,,,,,
0.0,1.0,0.547605,0.0,10.0,10.0,10.0,1.0,orangutan_03s.jpg,0.0,Yellow.png,2.0,42,,,,,,,,,,,,,,,,,
1.0,1.0,1.16807,0.0,11.0,11.0,11.0,1.0,trident_07s.jpg,1.0,Green.png,2.0,42,,,,,,,,,,,,,,,,,
0.0,1.0,0.714235,0.0,12.0,12.0,12.0,1.0,raspberry_12s.jpg,0.0,Blue.png,3.0,42,,,,,,,,,,,,,,,,,
1.0,1.0,0.719025,0.0,13.0,13.0,13.0,1.0,trident_07s.jpg,1.0,Purple.png,3.0,42,,,,,,,,,,,,,,,,,
0.0,1.0,0.60662,0.0,14.0,14.0,14.0,1.0,lavender_10s.jpg,0.0,Red.png,3.0,42,,,,,,,,,,,,,,,,,
0.0,1.0,0.65533,0.0,15.0,15.0,15.0,1.0,chip_04s.jpg,0.0,Orange.png,3.0,42,,,,,,,,,,,,,,,,,
0.0,1.0,0.661105,0.0,16.0,16.0,16.0,1.0,lamb_04s.jpg,0.0,Yellow.png,3.0,42,,,,,,,,,,,,,,,,,
0.0,1.0,0.651845,0.0,17.0,17.0,17.0,1.0,emerald_02s.jpg,0.0,Green.png,3.0,42,,,,,,,,,,,,,,,,,
0.0,1.0,0.692725,0.0,18.0,18.0,18.0,1.0,pineapple_12s.jpg,0.0,Blue.png,4.0,42,,,,,,,,,,,,,,,,,
0.0,1.0,0.573775,0.0,19.0,19.0,19.0,1.0,sundae_08s.jpg,0.0,Purple.png,4.0,42,,,,,,,,,,,,,,,,,
0.0,1.0,1.279075,0.0,20.0,20.0,20.0,1.0,sundae_08s.jpg,0.0,Red.png,4.0,42,,,,,,,,,,,,,,,,,
0.0,1.0,0.6396,0.0,21.0,21.0,21.0,1.0,squirrel_02s.jpg,0.0,Orange.png,4.0,42,,,,,,,,,,,,,,,,,
0.0,1.0,0.711275,0.0,22.0,22.0,22.0,1.0,roller_coaster_07s.jpg,0.0,Yellow.png,4.0,42,,,,,,,,,,,,,,,,,
0.0,1.0,1.07813,0.0,23.0,23.0,23.0,1.0,sundae_08s.jpg,0.0,Green.png,4.0,42,,,,,,,,,,,,,,,,,
0.0,1.0,0.65483,0.0,24.0,24.0,24.0,1.0,tweezers_03s.jpg,0.0,Blue.png,5.0,42,,,,,,,,,,,,,,,,,
1.0,1.0,1.31882,0.0,25.0,25.0,25.0,1.0,sundae_08s.jpg,1.0,Purple.png,5.0,42,,,,,,,,,,,,,,,,,
0.0,1.0,0.58032,0.0,26.0,26.0,26.0,1.0,rudder_02s.jpg,0.0,Red.png,5.0,42,,,,,,,,,,,,,,,,,
0.0,1.0,0.632345,0.0,27.0,27.0,27.0,1.0,rake_06s.jpg,0.0,Orange.png,5.0,42,,,,,,,,,,,,,,,,,
0.0,1.0,0.752785,0.0,28.0,28.0,28.0,1.0,rake_06s.jpg,0.0,Yellow.png,5.0,42,,,,,,,,,,,,,,,,,
1.0,1.0,0.61389,0.0,29.0,29.0,29.0,1.0,rake_06s.jpg,1.0,Green.png,5.0,42,,,,,,,,,,,,,,,,,
0.0,1.0,0.629615,0.0,30.0,30.0,30.0,1.0,cap_05s.jpg,0.0,Blue.png,6.0,42,,,,,,,,,,,,,,,,,
0.0,1.0,0.826145,0.0,31.0,31.0,31.0,1.0,paper_towel_03s.jpg,0.0,Purple.png,6.0,42,,,,,,,,,,,,,,,,,
0.0,1.0,1.35682,0.0,32.0,32.0,32.0,1.0,toaster_03s.jpg,0.0,Red.png,6.0,42,,,,,,,,,,,,,,,,,
0.0,1.0,0.827195,0.0,33.0,33.0,33.0,1.0,money_07s.jpg,0.0,Orange.png,6.0,42,,,,,,,,,,,,,,,,,
0.0,1.0,0.527485,0.0,34.0,34.0,34.0,1.0,pinwheel_06s.jpg,0.0,Yellow.png,6.0,42,,,,,,,,,,,,,,,,,
0.0,1.0,0.72206,0.0,35.0,35.0,35.0,1.0,lid_10s.jpg,0.0,Green.png,6.0,42,,,,,,,,,,,,,,,,,
,,,,,,,,,0.0,,,42,1.0,0.0,4.050295,0.0,0.0,0.0,0.0,1.0,tweezers_03s.jpg,squirrel_02s.jpg,,,,,,,
,,,,,,,,,1.0,,,42,1.0,1.0,2.90162,0.0,1.0,1.0,1.0,1.0,chip_04s.jpg,pineapple_12s.jpg,,,,,,,
,,,,,,,,,1.0,,,42,1.0,1.0,1.714285,0.0,2.0,2.0,2.0,1.0,lamb_chop_07s.jpg,lava_02s.jpg,,,,,,,
,,,,,,,,,0.0,,,42,0.0,1.0,2.596345,0.0,3.0,3.0,3.0,1.0,pinwheel_06s.jpg,paper_towel_03s.jpg,,,,,,,
,,,,,,,,,0.0,,,42,1.0,0.0,6.172875,0.0,4.0,4.0,4.0,1.0,emerald_02s.jpg,lavender_10s.jpg,,,,,,,
,,,,,,,,,0.0,,,42,1.0,0.0,1.684145,0.0,5.0,5.0,5.0,1.0,money_07s.jpg,cap_05s.jpg,,,,,,,
,,,,,,,,,,,,42,,,,,,,,,,,0.0,3.0,3.0,3.0,1.0,new2backpresent_4_4.xlsx,new2back_compare_task_4_4.xlsx
0.0,1.0,1.69963,0.0,0.0,0.0,0.0,1.0,fur_coat_11s.jpg,0.0,Blue.png,1.0,42,,,,,,,,,,,,,,,,,
0.0,1.0,0.51993,0.0,1.0,1.0,1.0,1.0,crayon_09s.jpg,0.0,Purple.png,1.0,42,,,,,,,,,,,,,,,,,
0.0,1.0,0.49366,0.0,2.0,2.0,2.0,1.0,cobra_05s.jpg,0.0,Red.png,1.0,42,,,,,,,,,,,,,,,,,
0.0,1.0,0.89115,0.0,3.0,3.0,3.0,1.0,raccoon_02s.jpg,0.0,Orange.png,1.0,42,,,,,,,,,,,,,,,,,
0.0,1.0,1.075015,0.0,4.0,4.0,4.0,1.0,soda_fountain_03s.jpg,0.0,Yellow.png,1.0,42,,,,,,,,,,,,,,,,,
1.0,1.0,1.66312,0.0,5.0,5.0,5.0,1.0,raccoon_02s.jpg,1.0,Green.png,1.0,42,,,,,,,,,,,,,,,,,
0.0,1.0,0.925,0.0,6.0,6.0,6.0,1.0,feather02.jpg,0.0,Blue.png,2.0,42,,,,,,,,,,,,,,,,,
1.0,1.0,1.21342,0.0,7.0,7.0,7.0,1.0,raccoon_02s.jpg,1.0,Purple.png,2.0,42,,,,,,,,,,,,,,,,,
1.0,1.0,0.51033,0.0,8.0,8.0,8.0,1.0,feather02.jpg,1.0,Red.png,2.0,42,,,,,,,,,,,,,,,,,
0.0,1.0,0.64856,0.0,9.0,9.0,9.0,1.0,rug_09s.jpg,0.0,Orange.png,2.0,42,,,,,,,,,,,,,,,,,
1.0,1.0,0.462155,0.0,10.0,10.0,10.0,1.0,feather02.jpg,1.0,Yellow.png,2.0,42,,,,,,,,,,,,,,,,,
0.0,1.0,0.592665,0.0,11.0,11.0,11.0,1.0,cushion_08s.jpg,0.0,Green.png,2.0,42,,,,,,,,,,,,,,,,,
0.0,0.0,1.216425,0.0,12.0,12.0,12.0,1.0,feather02.jpg,1.0,Blue.png,3.0,42,,,,,,,,,,,,,,,,,
0.0,1.0,0.787695,0.0,13.0,13.0,13.0,1.0,feather02.jpg,0.0,Purple.png,3.0,42,,,,,,,,,,,,,,,,,
0.0,1.0,0.523055,0.0,14.0,14.0,14.0,1.0,ice_pack_09s.jpg,0.0,Red.png,3.0,42,,,,,,,,,,,,,,,,,
0.0,1.0,0.813455,0.0,15.0,15.0,15.0,1.0,ice_pack_09s.jpg,0.0,Orange.png,3.0,42,,,,,,,,,,,,,,,,,
0.0,1.0,0.834655,0.0,16.0,16.0,16.0,1.0,loom_05s.jpg,0.0,Yellow.png,3.0,42,,,,,,,,,,,,,,,,,
1.0,1.0,0.348015,0.0,17.0,17.0,17.0,1.0,ice_pack_09s.jpg,1.0,Green.png,3.0,42,,,,,,,,,,,,,,,,,
0.0,1.0,1.040185,0.0,18.0,18.0,18.0,1.0,ice_pack_09s.jpg,0.0,Blue.png,4.0,42,,,,,,,,,,,,,,,,,
0.0,0.0,1.525915,0.0,19.0,19.0,19.0,1.0,ice_pack_09s.jpg,1.0,Purple.png,4.0,42,,,,,,,,,,,,,,,,,
1.0,1.0,0.39679,0.0,20.0,20.0,20.0,1.0,ice_pack_09s.jpg,1.0,Red.png,4.0,42,,,,,,,,,,,,,,,,,
0.0,1.0,0.611445,0.0,21.0,21.0,21.0,1.0,blazer_02s.jpg,0.0,Orange.png,4.0,42,,,,,,,,,,,,,,,,,
0.0,1.0,0.46007,0.0,22.0,22.0,22.0,1.0,penlight_12s.jpg,0.0,Yellow.png,4.0,42,,,,,,,,,,,,,,,,,
0.0,1.0,0.56635,0.0,23.0,23.0,23.0,1.0,swan_11s.jpg,0.0,Green.png,4.0,42,,,,,,,,,,,,,,,,,
0.0,1.0,0.614725,0.0,24.0,24.0,24.0,1.0,plunger_08s.jpg,0.0,Blue.png,5.0,42,,,,,,,,,,,,,,,,,
0.0,1.0,0.597665,0.0,25.0,25.0,25.0,1.0,bottle_opener_11s.jpg,0.0,Purple.png,5.0,42,,,,,,,,,,,,,,,,,
0.0,1.0,0.58508,0.0,26.0,26.0,26.0,1.0,checkbook_11s.jpg,0.0,Red.png,5.0,42,,,,,,,,,,,,,,,,,
0.0,1.0,0.608685,0.0,27.0,27.0,27.0,1.0,ink_08s.jpg,0.0,Orange.png,5.0,42,,,,,,,,,,,,,,,,,
0.0,1.0,0.93452,0.0,28.0,28.0,28.0,1.0,plunger_08s.jpg,0.0,Yellow.png,5.0,42,,,,,,,,,,,,,,,,,
0.0,1.0,0.59319,0.0,29.0,29.0,29.0,1.0,pencil02a.jpg,0.0,Green.png,5.0,42,,,,,,,,,,,,,,,,,
0.0,1.0,0.69043,0.0,30.0,30.0,30.0,1.0,ginger_09s.jpg,0.0,Blue.png,6.0,42,,,,,,,,,,,,,,,,,
0.0,1.0,0.537005,0.0,31.0,31.0,31.0,1.0,taxi_15s.jpg,0.0,Purple.png,6.0,42,,,,,,,,,,,,,,,,,
0.0,1.0,0.50578,0.0,32.0,32.0,32.0,1.0,toy_04s.jpg,0.0,Red.png,6.0,42,,,,,,,,,,,,,,,,,
0.0,1.0,0.57144,0.0,33.0,33.0,33.0,1.0,blowfish_03s.jpg,0.0,Orange.png,6.0,42,,,,,,,,,,,,,,,,,
0.0,1.0,0.5496,0.0,34.0,34.0,34.0,1.0,toilet_paper_12s.jpg,0.0,Yellow.png,6.0,42,,,,,,,,,,,,,,,,,
0.0,1.0,0.526675,0.0,35.0,35.0,35.0,1.0,puddle_02s.jpg,0.0,Green.png,6.0,42,,,,,,,,,,,,,,,,,
,,,,,,,,,1.0,,,42,1.0,1.0,1.773745,0.0,0.0,0.0,0.0,1.0,ink_08s.jpg,ginger_09s.jpg,,,,,,,
,,,,,,,,,0.0,,,42,1.0,0.0,7.16458,0.0,1.0,1.0,1.0,1.0,puddle_02s.jpg,toy_04s.jpg,,,,,,,
,,,,,,,,,0.0,,,42,1.0,0.0,2.73626,0.0,2.0,2.0,2.0,1.0,bottle_opener_11s.jpg,penlight_12s.jpg,,,,,,,
,,,,,,,,,0.0,,,42,0.0,1.0,1.708875,0.0,3.0,3.0,3.0,1.0,checkbook_11s.jpg,swan_11s.jpg,,,,,,,
,,,,,,,,,1.0,,,42,1.0,1.0,1.90954,0.0,4.0,4.0,4.0,1.0,taxi_15s.jpg,toilet_paper_12s.jpg,,,,,,,
,,,,,,,,,1.0,,,42,1.0,1.0,1.482535,0.0,5.0,5.0,5.0,1.0,crayon_09s.jpg,soda_fountain_03s.jpg,,,,,,,
,,,,,,,,,,,,42,,,,,,,,,,,0.0,4.0,4.0,4.0,1.0,new2backpresent_5_4.xlsx,new2back_compare_task_5_4.xlsx
0.0,1.0,1.17414,0.0,0.0,0.0,0.0,1.0,flask_04s.jpg,0.0,Blue.png,1.0,42,,,,,,,,,,,,,,,,,
0.0,1.0,0.52524,0.0,1.0,1.0,1.0,1.0,kimono_13s.jpg,0.0,Purple.png,1.0,42,,,,,,,,,,,,,,,,,
0.0,1.0,0.54463,0.0,2.0,2.0,2.0,1.0,limousine_12s.jpg,0.0,Red.png,1.0,42,,,,,,,,,,,,,,,,,
0.0,1.0,0.517615,0.0,3.0,3.0,3.0,1.0,lectern_08s.jpg,0.0,Orange.png,1.0,42,,,,,,,,,,,,,,,,,
0.0,1.0,1.238515,0.0,4.0,4.0,4.0,1.0,kimono_13s.jpg,0.0,Yellow.png,1.0,42,,,,,,,,,,,,,,,,,
0.0,1.0,0.77078,0.0,5.0,5.0,5.0,1.0,doily_13s.jpg,0.0,Green.png,1.0,42,,,,,,,,,,,,,,,,,
1.0,1.0,1.01403,0.0,6.0,6.0,6.0,1.0,kimono_13s.jpg,1.0,Blue.png,2.0,42,,,,,,,,,,,,,,,,,
0.0,1.0,0.45809,0.0,7.0,7.0,7.0,1.0,razor_blade_01b.jpg,0.0,Purple.png,2.0,42,,,,,,,,,,,,,,,,,
0.0,1.0,0.758655,0.0,8.0,8.0,8.0,1.0,razor_blade_01b.jpg,0.0,Red.png,2.0,42,,,,,,,,,,,,,,,,,
0.0,1.0,0.870015,0.0,9.0,9.0,9.0,1.0,champagne_18s.jpg,0.0,Orange.png,2.0,42,,,,,,,,,,,,,,,,,
0.0,1.0,0.56226,0.0,10.0,10.0,10.0,1.0,stamp1_11s.jpg,0.0,Yellow.png,2.0,42,,,,,,,,,,,,,,,,,
1.0,1.0,0.934825,0.0,11.0,11.0,11.0,1.0,champagne_18s.jpg,1.0,Green.png,2.0,42,,,,,,,,,,,,,,,,,
0.0,1.0,0.602375,0.0,12.0,12.0,12.0,1.0,crossbow_10s.jpg,0.0,Blue.png,3.0,42,,,,,,,,,,,,,,,,,
0.0,1.0,0.68747,0.0,13.0,13.0,13.0,1.0,briefcase_03s.jpg,0.0,Purple.png,3.0,42,,,,,,,,,,,,,,,,,
0.0,1.0,0.598095,0.0,14.0,14.0,14.0,1.0,jersey_02s.jpg,0.0,Red.png,3.0,42,,,,,,,,,,,,,,,,,
1.0,1.0,0.90731,0.0,15.0,15.0,15.0,1.0,briefcase_03s.jpg,1.0,Orange.png,3.0,42,,,,,,,,,,,,,,,,,
0.0,1.0,0.77166,0.0,16.0,16.0,16.0,1.0,oil_02s.jpg,0.0,Yellow.png,3.0,42,,,,,,,,,,,,,,,,,
0.0,1.0,0.717,0.0,17.0,17.0,17.0,1.0,tinsel_12s.jpg,0.0,Green.png,3.0,42,,,,,,,,,,,,,,,,,
0.0,1.0,1.33151,0.0,18.0,18.0,18.0,1.0,flask_04s.jpg,0.0,Blue.png,4.0,42,,,,,,,,,,,,,,,,,
0.0,1.0,0.750725,0.0,19.0,19.0,19.0,1.0,fork_04s.jpg,0.0,Purple.png,4.0,42,,,,,,,,,,,,,,,,,
0.0,1.0,0.786055,0.0,20.0,20.0,20.0,1.0,purse_05s.jpg,0.0,Red.png,4.0,42,,,,,,,,,,,,,,,,,
0.0,1.0,1.436495,0.0,21.0,21.0,21.0,1.0,flask_04s.jpg,0.0,Orange.png,4.0,42,,,,,,,,,,,,,,,,,
0.0,1.0,0.59835,0.0,22.0,22.0,22.0,1.0,sledgehammer_03s.jpg,0.0,Yellow.png,4.0,42,,,,,,,,,,,,,,,,,
0.0,1.0,0.590725,0.0,23.0,23.0,23.0,1.0,turf_03s.jpg,0.0,Green.png,4.0,42,,,,,,,,,,,,,,,,,
0.0,1.0,0.514725,0.0,24.0,24.0,24.0,1.0,omelet_07s.jpg,0.0,Blue.png,5.0,42,,,,,,,,,,,,,,,,,
1.0,1.0,1.043525,0.0,25.0,25.0,25.0,1.0,turf_03s.jpg,1.0,Purple.png,5.0,42,,,,,,,,,,,,,,,,,
0.0,1.0,0.68383,0.0,26.0,26.0,26.0,1.0,clover_04s.jpg,0.0,Red.png,5.0,42,,,,,,,,,,,,,,,,,
0.0,1.0,0.57146,0.0,27.0,27.0,27.0,1.0,lip_gloss_06s.jpg,0.0,Orange.png,5.0,42,,,,,,,,,,,,,,,,,
0.0,1.0,0.672285,0.0,28.0,28.0,28.0,1.0,amber_04s.jpg,0.0,Yellow.png,5.0,42,,,,,,,,,,,,,,,,,
0.0,1.0,0.91157,0.0,29.0,29.0,29.0,1.0,tortilla_06s.jpg,0.0,Green.png,5.0,42,,,,,,,,,,,,,,,,,
0.0,1.0,0.975585,0.0,30.0,30.0,30.0,1.0,razor_blade_01b.jpg,0.0,Blue.png,6.0,42,,,,,,,,,,,,,,,,,
0.0,1.0,0.52463,0.0,31.0,31.0,31.0,1.0,tape_measure_11s.jpg,0.0,Purple.png,6.0,42,,,,,,,,,,,,,,,,,
1.0,1.0,0.932255,0.0,32.0,32.0,32.0,1.0,razor_blade_01b.jpg,1.0,Red.png,6.0,42,,,,,,,,,,,,,,,,,
0.0,1.0,1.066785,0.0,33.0,33.0,33.0,1.0,razor_blade_01b.jpg,0.0,Orange.png,6.0,42,,,,,,,,,,,,,,,,,
0.0,1.0,0.551985,0.0,34.0,34.0,34.0,1.0,stingray_02s.jpg,0.0,Yellow.png,6.0,42,,,,,,,,,,,,,,,,,
0.0,1.0,0.505645,0.0,35.0,35.0,35.0,1.0,harpoon.jpg,0.0,Green.png,6.0,42,,,,,,,,,,,,,,,,,
,,,,,,,,,1.0,,,42,1.0,1.0,5.275025,0.0,0.0,0.0,0.0,1.0,oil_02s.jpg,fork_04s.jpg,,,,,,,
,,,,,,,,,0.0,,,42,1.0,0.0,2.051295,0.0,1.0,1.0,1.0,1.0,doily_13s.jpg,limousine_12s.jpg,,,,,,,
,,,,,,,,,0.0,,,42,1.0,0.0,2.60578,0.0,2.0,2.0,2.0,1.0,lip_gloss_06s.jpg,omelet_07s.jpg,,,,,,,
,,,,,,,,,0.0,,,42,0.0,1.0,3.35887,0.0,3.0,3.0,3.0,1.0,tape_measure_11s.jpg,amber_04s.jpg,,,,,,,
,,,,,,,,,0.0,,,42,1.0,0.0,3.723875,0.0,4.0,4.0,4.0,1.0,tortilla_06s.jpg,clover_04s.jpg,,,,,,,
,,,,,,,,,0.0,,,42,1.0,0.0,1.547605,0.0,5.0,5.0,5.0,1.0,purse_05s.jpg,tinsel_12s.jpg,,,,,,,
,,,,,,,,,,,,42,,,,,,,,,,,0.0,5.0,5.0,5.0,1.0,new2backpresent_6_4.xlsx,new2back_compare_task_6_4.xlsx
0.0,1.0,1.248415,0.0,0.0,0.0,0.0,1.0,butter_14s.jpg,0.0,Blue.png,1.0,42,,,,,,,,,,,,,,,,,
0.0,1.0,0.59405,0.0,1.0,1.0,1.0,1.0,butter_14s.jpg,0.0,Purple.png,1.0,42,,,,,,,,,,,,,,,,,
1.0,1.0,0.40027,0.0,2.0,2.0,2.0,1.0,butter_14s.jpg,1.0,Red.png,1.0,42,,,,,,,,,,,,,,,,,
0.0,1.0,0.9282,0.0,3.0,3.0,3.0,1.0,stamp2_08s.jpg,0.0,Orange.png,1.0,42,,,,,,,,,,,,,,,,,
0.0,1.0,0.419945,0.0,4.0,4.0,4.0,1.0,kangaroo_02s.jpg,0.0,Yellow.png,1.0,42,,,,,,,,,,,,,,,,,
0.0,1.0,0.538505,0.0,5.0,5.0,5.0,1.0,camcorder_10s.jpg,0.0,Green.png,1.0,42,,,,,,,,,,,,,,,,,
0.0,1.0,0.51926,0.0,6.0,6.0,6.0,1.0,bank_06s.jpg,0.0,Blue.png,2.0,42,,,,,,,,,,,,,,,,,
0.0,1.0,0.591695,0.0,7.0,7.0,7.0,1.0,gear_07s.jpg,0.0,Purple.png,2.0,42,,,,,,,,,,,,,,,,,
1.0,1.0,0.46952,0.0,8.0,8.0,8.0,1.0,bank_06s.jpg,1.0,Red.png,2.0,42,,,,,,,,,,,,,,,,,
0.0,1.0,0.588535,0.0,9.0,9.0,9.0,1.0,funnel_01b.jpg,0.0,Orange.png,2.0,42,,,,,,,,,,,,,,,,,
0.0,1.0,0.60588,0.0,10.0,10.0,10.0,1.0,poinsettia_04s.jpg,0.0,Yellow.png,2.0,42,,,,,,,,,,,,,,,,,
0.0,0.0,1.1614,0.0,11.0,11.0,11.0,1.0,funnel_01b.jpg,1.0,Green.png,2.0,42,,,,,,,,,,,,,,,,,
0.0,1.0,0.529965,0.0,12.0,12.0,12.0,1.0,rooster_03s.jpg,0.0,Blue.png,3.0,42,,,,,,,,,,,,,,,,,
0.0,1.0,0.466205,0.0,13.0,13.0,13.0,1.0,denture_03s.jpg,0.0,Purple.png,3.0,42,,,,,,,,,,,,,,,,,
0.0,1.0,0.49119,0.0,14.0,14.0,14.0,1.0,bean_06s.jpg,0.0,Red.png,3.0,42,,,,,,,,,,,,,,,,,
0.0,1.0,0.49492,0.0,15.0,15.0,15.0,1.0,mud_13s.jpg,0.0,Orange.png,3.0,42,,,,,,,,,,,,,,,,,
0.0,1.0,0.54928,0.0,16.0,16.0,16.0,1.0,keyhole_03s.jpg,0.0,Yellow.png,3.0,42,,,,,,,,,,,,,,,,,
0.0,1.0,0.8045,0.0,17.0,17.0,17.0,1.0,bean_06s.jpg,0.0,Green.png,3.0,42,,,,,,,,,,,,,,,,,
0.0,1.0,0.71863,0.0,18.0,18.0,18.0,1.0,bank_06s.jpg,0.0,Blue.png,4.0,42,,,,,,,,,,,,,,,,,
0.0,1.0,0.69092,0.0,19.0,19.0,19.0,1.0,pomegranate_04s.jpg,0.0,Purple.png,4.0,42,,,,,,,,,,,,,,,,,
0.0,1.0,0.633815,0.0,20.0,20.0,20.0,1.0,chopsticks_08s.jpg,0.0,Red.png,4.0,42,,,,,,,,,,,,,,,,,
0.0,1.0,0.63097,0.0,21.0,21.0,21.0,1.0,contact_lens_15s.jpg,0.0,Orange.png,4.0,42,,,,,,,,,,,,,,,,,
0.0,1.0,0.71162,0.0,22.0,22.0,22.0,1.0,hydrant_10s.jpg,0.0,Yellow.png,4.0,42,,,,,,,,,,,,,,,,,
0.0,1.0,0.516335,0.0,23.0,23.0,23.0,1.0,gingerbread_man_03s.jpg,0.0,Green.png,4.0,42,,,,,,,,,,,,,,,,,
0.0,1.0,1.002335,0.0,24.0,24.0,24.0,1.0,camcorder_10s.jpg,0.0,Blue.png,5.0,42,,,,,,,,,,,,,,,,,
0.0,1.0,0.63698,0.0,25.0,25.0,25.0,1.0,teabag_12s.jpg,0.0,Purple.png,5.0,42,,,,,,,,,,,,,,,,,
0.0,1.0,0.8896,0.0,26.0,26.0,26.0,1.0,radiator_05s.jpg,0.0,Red.png,5.0,42,,,,,,,,,,,,,,,,,
0.0,1.0,0.693835,0.0,27.0,27.0,27.0,1.0,punch1_10s.jpg,0.0,Orange.png,5.0,42,,,,,,,,,,,,,,,,,
0.0,1.0,0.806615,0.0,28.0,28.0,28.0,1.0,mailbox_11s.jpg,0.0,Yellow.png,5.0,42,,,,,,,,,,,,,,,,,
0.0,1.0,0.794815,0.0,29.0,29.0,29.0,1.0,beaker_01b.jpg,0.0,Green.png,5.0,42,,,,,,,,,,,,,,,,,
1.0,1.0,0.915715,0.0,30.0,30.0,30.0,1.0,mailbox_11s.jpg,1.0,Blue.png,6.0,42,,,,,,,,,,,,,,,,,
0.0,1.0,0.86261,0.0,31.0,31.0,31.0,1.0,pipe1_10s.jpg,0.0,Purple.png,6.0,42,,,,,,,,,,,,,,,,,
1.0,1.0,0.85101,0.0,32.0,32.0,32.0,1.0,mailbox_11s.jpg,1.0,Red.png,6.0,42,,,,,,,,,,,,,,,,,
1.0,1.0,1.64455,0.0,33.0,33.0,33.0,1.0,pipe1_10s.jpg,1.0,Orange.png,6.0,42,,,,,,,,,,,,,,,,,
0.0,1.0,0.613235,0.0,34.0,34.0,34.0,1.0,eyedropper_12s.jpg,0.0,Yellow.png,6.0,42,,,,,,,,,,,,,,,,,
0.0,1.0,0.862745,0.0,35.0,35.0,35.0,1.0,rhubarb_03s.jpg,0.0,Green.png,6.0,42,,,,,,,,,,,,,,,,,
,,,,,,,,,0.0,,,42,1.0,0.0,3.09532,0.0,0.0,0.0,0.0,1.0,mud_13s.jpg,rooster_03s.jpg,,,,,,,
,,,,,,,,,1.0,,,42,0.0,0.0,5.2327,0.0,1.0,1.0,1.0,1.0,chopsticks_08s.jpg,gingerbread_man_03s.jpg,,,,,,,
,,,,,,,,,0.0,,,42,1.0,0.0,1.61717,0.0,2.0,2.0,2.0,1.0,beaker_01b.jpg,radiator_05s.jpg,,,,,,,
,,,,,,,,,0.0,,,42,0.0,1.0,1.956395,0.0,3.0,3.0,3.0,1.0,teabag_12s.jpg,hydrant_10s.jpg,,,,,,,
,,,,,,,,,0.0,,,42,0.0,1.0,6.76584,0.0,4.0,4.0,4.0,1.0,denture_03s.jpg,poinsettia_04s.jpg,,,,,,,
,,,,,,,,,1.0,,,42,1.0,1.0,1.298315,0.0,5.0,5.0,5.0,1.0,kangaroo_02s.jpg,gear_07s.jpg,,,,,,,
,,,,,,,,,,,,42,,,,,,,,,,,0.0,6.0,6.0,6.0,1.0,new2backpresent_7_4.xlsx,new2back_compare_task_7_4.xlsx
0.0,1.0,0.92717,0.0,0.0,0.0,0.0,1.0,lamppost_09s.jpg,0.0,Blue.png,1.0,42,,,,,,,,,,,,,,,,,
0.0,1.0,0.450645,0.0,1.0,1.0,1.0,1.0,jewel_01b.jpg,0.0,Purple.png,1.0,42,,,,,,,,,,,,,,,,,
0.0,1.0,0.555595,0.0,2.0,2.0,2.0,1.0,tuxedo_01b.jpg,0.0,Red.png,1.0,42,,,,,,,,,,,,,,,,,
0.0,1.0,0.700325,0.0,3.0,3.0,3.0,1.0,flip_flop_03s.jpg,0.0,Orange.png,1.0,42,,,,,,,,,,,,,,,,,
0.0,1.0,0.572275,0.0,4.0,4.0,4.0,1.0,medal_04s.jpg,0.0,Yellow.png,1.0,42,,,,,,,,,,,,,,,,,
1.0,1.0,1.333485,0.0,5.0,5.0,5.0,1.0,flip_flop_03s.jpg,1.0,Green.png,1.0,42,,,,,,,,,,,,,,,,,
0.0,1.0,0.83351,0.0,6.0,6.0,6.0,1.0,tuxedo_01b.jpg,0.0,Blue.png,2.0,42,,,,,,,,,,,,,,,,,
1.0,1.0,1.1875,0.0,7.0,7.0,7.0,1.0,flip_flop_03s.jpg,1.0,Purple.png,2.0,42,,,,,,,,,,,,,,,,,
0.0,1.0,0.473875,0.0,8.0,8.0,8.0,1.0,fireworks_18s.jpg,0.0,Red.png,2.0,42,,,,,,,,,,,,,,,,,
0.0,1.0,1.07318,0.0,9.0,9.0,9.0,1.0,squirt_gun_03s.jpg,0.0,Orange.png,2.0,42,,,,,,,,,,,,,,,,,
0.0,1.0,0.905125,0.0,10.0,10.0,10.0,1.0,flip_flop_03s.jpg,0.0,Yellow.png,2.0,42,,,,,,,,,,,,,,,,,
0.0,1.0,0.544505,0.0,11.0,11.0,11.0,1.0,puffin_19s.jpg,0.0,Green.png,2.0,42,,,,,,,,,,,,,,,,,
1.0,0.0,1.21779,0.0,12.0,12.0,12.0,1.0,tuxedo_01b.jpg,0.0,Blue.png,3.0,42,,,,,,,,,,,,,,,,,
0.0,1.0,1.21926,0.0,13.0,13.0,13.0,1.0,tuxedo_01b.jpg,0.0,Purple.png,3.0,42,,,,,,,,,,,,,,,,,
0.0,1.0,0.39254,0.0,14.0,14.0,14.0,1.0,snowman_02s.jpg,0.0,Red.png,3.0,42,,,,,,,,,,,,,,,,,
0.0,1.0,0.800945,0.0,15.0,15.0,15.0,1.0,cucumber_07s.jpg,0.0,Orange.png,3.0,42,,,,,,,,,,,,,,,,,
0.0,1.0,0.68007,0.0,16.0,16.0,16.0,1.0,plug_08s.jpg,0.0,Yellow.png,3.0,42,,,,,,,,,,,,,,,,,
1.0,1.0,0.47317,0.0,17.0,17.0,17.0,1.0,cucumber_07s.jpg,1.0,Green.png,3.0,42,,,,,,,,,,,,,,,,,
0.0,1.0,0.740765,0.0,18.0,18.0,18.0,1.0,puffin_19s.jpg,0.0,Blue.png,4.0,42,,,,,,,,,,,,,,,,,
0.0,1.0,0.56762,0.0,19.0,19.0,19.0,1.0,fondue_07s.jpg,0.0,Purple.png,4.0,42,,,,,,,,,,,,,,,,,
0.0,1.0,0.46401,0.0,20.0,20.0,20.0,1.0,lasagna_06s.jpg,0.0,Red.png,4.0,42,,,,,,,,,,,,,,,,,
0.0,1.0,0.441725,0.0,21.0,21.0,21.0,1.0,eiffeltower.jpg,0.0,Orange.png,4.0,42,,,,,,,,,,,,,,,,,
0.0,1.0,0.64676,0.0,22.0,22.0,22.0,1.0,outlet_10s.jpg,0.0,Yellow.png,4.0,42,,,,,,,,,,,,,,,,,
0.0,1.0,0.957275,0.0,23.0,23.0,23.0,1.0,cape_11s.jpg,0.0,Green.png,4.0,42,,,,,,,,,,,,,,,,,
0.0,1.0,0.68075,0.0,24.0,24.0,24.0,1.0,marshmallow_08s.jpg,0.0,Blue.png,5.0,42,,,,,,,,,,,,,,,,,
0.0,1.0,0.584365,0.0,25.0,25.0,25.0,1.0,racehorse_03s.jpg,0.0,Purple.png,5.0,42,,,,,,,,,,,,,,,,,
0.0,1.0,0.82711,0.0,26.0,26.0,26.0,1.0,aluminum_foil_08s.jpg,0.0,Red.png,5.0,42,,,,,,,,,,,,,,,,,
0.0,1.0,0.912065,0.0,27.0,27.0,27.0,1.0,spoon02a.jpg,0.0,Orange.png,5.0,42,,,,,,,,,,,,,,,,,
0.0,1.0,0.739915,0.0,28.0,28.0,28.0,1.0,padlock_07s.jpg,0.0,Yellow.png,5.0,42,,,,,,,,,,,,,,,,,
0.0,1.0,0.876305,0.0,29.0,29.0,29.0,1.0,solar_panel_02s.jpg,0.0,Green.png,5.0,42,,,,,,,,,,,,,,,,,
0.0,1.0,0.959905,0.0,30.0,30.0,30.0,1.0,turtleneck_11s.jpg,0.0,Blue.png,6.0,42,,,,,,,,,,,,,,,,,
0.0,1.0,0.825735,0.0,31.0,31.0,31.0,1.0,pocketknife_12s.jpg,0.0,Purple.png,6.0,42,,,,,,,,,,,,,,,,,
0.0,1.0,1.659845,0.0,32.0,32.0,32.0,1.0,pocketknife_12s.jpg,0.0,Red.png,6.0,42,,,,,,,,,,,,,,,,,
0.0,1.0,0.5435,0.0,33.0,33.0,33.0,1.0,quill_09s.jpg,0.0,Orange.png,6.0,42,,,,,,,,,,,,,,,,,
0.0,1.0,0.98105,0.0,34.0,34.0,34.0,1.0,quill_09s.jpg,0.0,Yellow.png,6.0,42,,,,,,,,,,,,,,,,,
0.0,1.0,0.87847,0.0,35.0,35.0,35.0,1.0,pocketknife_12s.jpg,0.0,Green.png,6.0,42,,,,,,,,,,,,,,,,,
,,,,,,,,,0.0,,,42,0.0,1.0,3.68818,0.0,0.0,0.0,0.0,1.0,cape_11s.jpg,lasagna_06s.jpg,,,,,,,
,,,,,,,,,0.0,,,42,1.0,0.0,2.114325,0.0,1.0,1.0,1.0,1.0,padlock_07s.jpg,racehorse_03s.jpg,,,,,,,
,,,,,,,,,1.0,,,42,0.0,0.0,2.48158,0.0,2.0,2.0,2.0,1.0,spoon02a.jpg,turtleneck_11s.jpg,,,,,,,
,,,,,,,,,0.0,,,42,1.0,0.0,1.446115,0.0,3.0,3.0,3.0,1.0,marshmallow_08s.jpg,eiffeltower.jpg,,,,,,,
,,,,,,,,,0.0,,,42,1.0,0.0,1.392025,0.0,4.0,4.0,4.0,1.0,medal_04s.jpg,jewel_01b.jpg,,,,,,,
,,,,,,,,,1.0,,,42,0.0,0.0,16.073345,0.0,5.0,5.0,5.0,1.0,plug_08s.jpg,fondue_07s.jpg,,,,,,,
,,,,,,,,,,,,42,,,,,,,,,,,0.0,7.0,7.0,7.0,1.0,new2backpresent_8_4.xlsx,new2back_compare_task_8_4.xlsx
0.0,1.0,1.449215,0.0,0.0,0.0,0.0,1.0,footprint_11s.jpg,0.0,Blue.png,1.0,42,,,,,,,,,,,,,,,,,
0.0,1.0,0.36205,0.0,1.0,1.0,1.0,1.0,coffee_filter_10s.jpg,0.0,Purple.png,1.0,42,,,,,,,,,,,,,,,,,
0.0,1.0,0.72609,0.0,2.0,2.0,2.0,1.0,coffee_filter_10s.jpg,0.0,Red.png,1.0,42,,,,,,,,,,,,,,,,,
1.0,1.0,0.40766,0.0,3.0,3.0,3.0,1.0,coffee_filter_10s.jpg,1.0,Orange.png,1.0,42,,,,,,,,,,,,,,,,,
1.0,1.0,0.35505,0.0,4.0,4.0,4.0,1.0,coffee_filter_10s.jpg,1.0,Yellow.png,1.0,42,,,,,,,,,,,,,,,,,
0.0,1.0,1.082705,0.0,5.0,5.0,5.0,1.0,gargoyle_08s.jpg,0.0,Green.png,1.0,42,,,,,,,,,,,,,,,,,
0.0,1.0,0.453255,0.0,6.0,6.0,6.0,1.0,candy_cane_06s.jpg,0.0,Blue.png,2.0,42,,,,,,,,,,,,,,,,,
0.0,1.0,0.473895,0.0,7.0,7.0,7.0,1.0,toad_09s.jpg,0.0,Purple.png,2.0,42,,,,,,,,,,,,,,,,,
1.0,1.0,1.062165,0.0,8.0,8.0,8.0,1.0,candy_cane_06s.jpg,1.0,Red.png,2.0,42,,,,,,,,,,,,,,,,,
1.0,0.0,1.2776,0.0,9.0,9.0,9.0,1.0,pumpkin_03s.jpg,0.0,Orange.png,2.0,42,,,,,,,,,,,,,,,,,
0.0,1.0,0.455555,0.0,10.0,10.0,10.0,1.0,dashboard_02s.jpg,0.0,Yellow.png,2.0,42,,,,,,,,,,,,,,,,,
0.0,1.0,0.430525,0.0,11.0,11.0,11.0,1.0,syringe_02s.jpg,0.0,Green.png,2.0,42,,,,,,,,,,,,,,,,,
0.0,1.0,0.549265,0.0,12.0,12.0,12.0,1.0,powder_07s.jpg,0.0,Blue.png,3.0,42,,,,,,,,,,,,,,,,,
1.0,0.0,1.171795,0.0,13.0,13.0,13.0,1.0,powder_07s.jpg,0.0,Purple.png,3.0,42,,,,,,,,,,,,,,,,,
1.0,1.0,1.196835,0.0,14.0,14.0,14.0,1.0,powder_07s.jpg,1.0,Red.png,3.0,42,,,,,,,,,,,,,,,,,
0.0,1.0,0.70983,0.0,15.0,15.0,15.0,1.0,sea_urchin_09s.jpg,0.0,Orange.png,3.0,42,,,,,,,,,,,,,,,,,
0.0,1.0,0.50628,0.0,16.0,16.0,16.0,1.0,throne_11s.jpg,0.0,Yellow.png,3.0,42,,,,,,,,,,,,,,,,,
0.0,1.0,1.594305,0.0,17.0,17.0,17.0,1.0,powder_07s.jpg,0.0,Green.png,3.0,42,,,,,,,,,,,,,,,,,
0.0,1.0,0.590875,0.0,18.0,18.0,18.0,1.0,chalice_10s.jpg,0.0,Blue.png,4.0,42,,,,,,,,,,,,,,,,,
0.0,1.0,0.494445,0.0,19.0,19.0,19.0,1.0,air_pump_05s.jpg,0.0,Purple.png,4.0,42,,,,,,,,,,,,,,,,,
0.0,1.0,0.500175,0.0,20.0,20.0,20.0,1.0,microwave_02s.jpg,0.0,Red.png,4.0,42,,,,,,,,,,,,,,,,,
0.0,1.0,0.55832,0.0,21.0,21.0,21.0,1.0,cereal_04s.jpg,0.0,Orange.png,4.0,42,,,,,,,,,,,,,,,,,
0.0,1.0,1.24405,0.0,22.0,22.0,22.0,1.0,mushroom_10n.jpg,0.0,Yellow.png,4.0,42,,,,,,,,,,,,,,,,,
0.0,1.0,1.447995,0.0,23.0,23.0,23.0,1.0,red_carpet_03s.jpg,0.0,Green.png,4.0,42,,,,,,,,,,,,,,,,,
0.0,1.0,1.314895,0.0,24.0,24.0,24.0,1.0,throne_11s.jpg,0.0,Blue.png,5.0,42,,,,,,,,,,,,,,,,,
0.0,1.0,1.161815,0.0,25.0,25.0,25.0,1.0,koala_13s.jpg,0.0,Purple.png,5.0,42,,,,,,,,,,,,,,,,,
1.0,1.0,1.777785,0.0,26.0,26.0,26.0,1.0,throne_11s.jpg,1.0,Red.png,5.0,42,,,,,,,,,,,,,,,,,
0.0,1.0,0.96277,0.0,27.0,27.0,27.0,1.0,rocket_02s.jpg,0.0,Orange.png,5.0,42,,,,,,,,,,,,,,,,,
0.0,1.0,0.86761,0.0,28.0,28.0,28.0,1.0,swordfish_05s.jpg,0.0,Yellow.png,5.0,42,,,,,,,,,,,,,,,,,
1.0,1.0,1.036075,0.0,29.0,29.0,29.0,1.0,rocket_02s.jpg,1.0,Green.png,5.0,42,,,,,,,,,,,,,,,,,
0.0,1.0,1.332985,0.0,30.0,30.0,30.0,1.0,icicle_04s.jpg,0.0,Blue.png,6.0,42,,,,,,,,,,,,,,,,,
0.0,1.0,1.28214,0.0,31.0,31.0,31.0,1.0,keyboard_05s.jpg,0.0,Purple.png,6.0,42,,,,,,,,,,,,,,,,,
0.0,1.0,1.232005,0.0,32.0,32.0,32.0,1.0,pocket_watch_16s.jpg,0.0,Red.png,6.0,42,,,,,,,,,,,,,,,,,
0.0,1.0,1.34314,0.0,33.0,33.0,33.0,1.0,tablet_04s.jpg,0.0,Orange.png,6.0,42,,,,,,,,,,,,,,,,,
0.0,1.0,1.252425,0.0,34.0,34.0,34.0,1.0,chocolate_01b.jpg,0.0,Yellow.png,6.0,42,,,,,,,,,,,,,,,,,
0.0,1.0,1.43174,0.0,35.0,35.0,35.0,1.0,light_switch_02s.jpg,0.0,Green.png,6.0,42,,,,,,,,,,,,,,,,,
,,,,,,,,,0.0,,,42,1.0,0.0,4.62938,0.0,0.0,0.0,0.0,1.0,chalice_10s.jpg,sea_urchin_09s.jpg,,,,,,,
,,,,,,,,,1.0,,,42,0.0,0.0,1.769035,0.0,1.0,1.0,1.0,1.0,swordfish_05s.jpg,keyboard_05s.jpg,,,,,,,
,,,,,,,,,0.0,,,42,1.0,0.0,4.243895,0.0,2.0,2.0,2.0,1.0,red_carpet_03s.jpg,microwave_02s.jpg,,,,,,,
,,,,,,,,,0.0,,,42,0.0,1.0,6.499555,0.0,3.0,3.0,3.0,1.0,dashboard_02s.jpg,toad_09s.jpg,,,,,,,
,,,,,,,,,0.0,,,42,0.0,1.0,3.575675,0.0,4.0,4.0,4.0,1.0,koala_13s.jpg,mushroom_10n.jpg,,,,,,,
,,,,,,,,,1.0,,,42,1.0,1.0,2.659045,0.0,5.0,5.0,5.0,1.0,icicle_04s.jpg,tablet_04s.jpg,,,,,,,
,,,,,,,,,,,,42,,,,,,,,,,,0.0,8.0,8.0,8.0,1.0,new2backpresent_9_4.xlsx,new2back_compare_task_9_4.xlsx
