key_resp.keys,key_resp.corr,key_resp.rt,present_segment.thisRepN,present_segment.thisTrialN,present_segment.thisN,present_segment.thisIndex,present_segment.ran,pictures,answer,clock,segment,participant,key_resp_2.keys,key_resp_2.corr,key_resp_2.rt,compare_segment.thisRepN,compare_segment.thisTrialN,compare_segment.thisN,compare_segment.thisIndex,compare_segment.ran,item_a,item_b,clock_conditions.thisRepN,clock_conditions.thisTrialN,clock_conditions.thisN,clock_conditions.thisIndex,clock_conditions.ran,present,compare
0.0,1.0,2.40453,0.0,0.0,0.0,0.0,1.0,mirror_12s.jpg,0.0,Blue.png,1.0,104,,,,,,,,,,,,,,,,,
,0.0,,0.0,1.0,1.0,1.0,1.0,polaroid_05s.jpg,0.0,Purple.png,1.0,104,,,,,,,,,,,,,,,,,
1.0,0.0,1.138935,0.0,2.0,2.0,2.0,1.0,polaroid_05s.jpg,0.0,Red.png,1.0,104,,,,,,,,,,,,,,,,,
0.0,1.0,1.48553,0.0,3.0,3.0,3.0,1.0,slingshot_07s.jpg,0.0,Orange.png,1.0,104,,,,,,,,,,,,,,,,,
1.0,1.0,1.202315,0.0,4.0,4.0,4.0,1.0,polaroid_05s.jpg,1.0,Yellow.png,1.0,104,,,,,,,,,,,,,,,,,
0.0,1.0,0.966285,0.0,5.0,5.0,5.0,1.0,kettle_08s.jpg,0.0,Green.png,1.0,104,,,,,,,,,,,,,,,,,
0.0,1.0,1.13537,0.0,6.0,6.0,6.0,1.0,crystal_ball_12s.jpg,0.0,Blue.png,2.0,104,,,,,,,,,,,,,,,,,
0.0,1.0,1.76949,0.0,7.0,7.0,7.0,1.0,iron_13s.jpg,0.0,Purple.png,2.0,104,,,,,,,,,,,,,,,,,
0.0,1.0,0.95146,0.0,8.0,8.0,8.0,1.0,saddle_06s.jpg,0.0,Red.png,2.0,104,,,,,,,,,,,,,,,,,
0.0,1.0,1.11906,0.0,9.0,9.0,9.0,1.0,mango_09s.jpg,0.0,Orange.png,2.0,104,,,,,,,,,,,,,,,,,
0.0,1.0,1.052185,0.0,10.0,10.0,10.0,1.0,ostrich_06s.jpg,0.0,Yellow.png,2.0,104,,,,,,,,,,,,,,,,,
1.0,0.0,2.31893,0.0,11.0,11.0,11.0,1.0,iron_13s.jpg,0.0,Green.png,2.0,104,,,,,,,,,,,,,,,,,
0.0,1.0,1.068635,0.0,12.0,12.0,12.0,1.0,stethoscope_01b.jpg,0.0,Blue.png,3.0,104,,,,,,,,,,,,,,,,,
0.0,1.0,0.918195,0.0,13.0,13.0,13.0,1.0,ruby_15s.jpg,0.0,Purple.png,3.0,104,,,,,,,,,,,,,,,,,
1.0,0.0,1.31915,0.0,14.0,14.0,14.0,1.0,mango_09s.jpg,0.0,Red.png,3.0,104,,,,,,,,,,,,,,,,,
0.0,1.0,1.87033,0.0,15.0,15.0,15.0,1.0,target_11s.jpg,0.0,Orange.png,3.0,104,,,,,,,,,,,,,,,,,
1.0,1.0,1.335205,0.0,16.0,16.0,16.0,1.0,mango_09s.jpg,1.0,Yellow.png,3.0,104,,,,,,,,,,,,,,,,,
0.0,1.0,1.01725,0.0,17.0,17.0,17.0,1.0,compass_10n.jpg,0.0,Green.png,3.0,104,,,,,,,,,,,,,,,,,
0.0,1.0,1.131265,0.0,18.0,18.0,18.0,1.0,meatball_13s.jpg,0.0,Blue.png,4.0,104,,,,,,,,,,,,,,,,,
0.0,1.0,1.489185,0.0,19.0,19.0,19.0,1.0,stapler_01b.jpg,0.0,Purple.png,4.0,104,,,,,,,,,,,,,,,,,
1.0,1.0,1.77219,0.0,20.0,20.0,20.0,1.0,meatball_13s.jpg,1.0,Red.png,4.0,104,,,,,,,,,,,,,,,,,
0.0,1.0,1.38892,0.0,21.0,21.0,21.0,1.0,pump_11s.jpg,0.0,Orange.png,4.0,104,,,,,,,,,,,,,,,,,
0.0,1.0,0.90482,0.0,22.0,22.0,22.0,1.0,coral_08s.jpg,0.0,Yellow.png,4.0,104,,,,,,,,,,,,,,,,,
1.0,0.0,1.39349,0.0,23.0,23.0,23.0,1.0,meatball_13s.jpg,0.0,Green.png,4.0,104,,,,,,,,,,,,,,,,,
0.0,1.0,2.062095,0.0,24.0,24.0,24.0,1.0,peach_04s.jpg,0.0,Blue.png,5.0,104,,,,,,,,,,,,,,,,,
1.0,1.0,0.840785,0.0,25.0,25.0,25.0,1.0,meatball_13s.jpg,1.0,Purple.png,5.0,104,,,,,,,,,,,,,,,,,
0.0,1.0,1.719075,0.0,26.0,26.0,26.0,1.0,pie_08s.jpg,0.0,Red.png,5.0,104,,,,,,,,,,,,,,,,,
0.0,1.0,1.09021,0.0,27.0,27.0,27.0,1.0,rollerskate_03s.jpg,0.0,Orange.png,5.0,104,,,,,,,,,,,,,,,,,
0.0,1.0,0.821285,0.0,28.0,28.0,28.0,1.0,trampoline_13s.jpg,0.0,Yellow.png,5.0,104,,,,,,,,,,,,,,,,,
0.0,1.0,1.23967,0.0,29.0,29.0,29.0,1.0,undershirt_02s.jpg,0.0,Green.png,5.0,104,,,,,,,,,,,,,,,,,
0.0,1.0,1.106065,0.0,30.0,30.0,30.0,1.0,thread_08s.jpg,0.0,Blue.png,6.0,104,,,,,,,,,,,,,,,,,
0.0,1.0,0.78359,0.0,31.0,31.0,31.0,1.0,megaphone_03s.jpg,0.0,Purple.png,6.0,104,,,,,,,,,,,,,,,,,
0.0,1.0,0.84699,0.0,32.0,32.0,32.0,1.0,plaster_cast_13s.jpg,0.0,Red.png,6.0,104,,,,,,,,,,,,,,,,,
0.0,1.0,0.776405,0.0,33.0,33.0,33.0,1.0,diving_board_07s.jpg,0.0,Orange.png,6.0,104,,,,,,,,,,,,,,,,,
0.0,1.0,0.804205,0.0,34.0,34.0,34.0,1.0,kayak_08s.jpg,0.0,Yellow.png,6.0,104,,,,,,,,,,,,,,,,,
1.0,1.0,1.47216,0.0,35.0,35.0,35.0,1.0,diving_board_07s.jpg,1.0,Green.png,6.0,104,,,,,,,,,,,,,,,,,
,,,,,,,,,1.0,,,104,1.0,1.0,2.314545,0.0,0.0,0.0,0.0,1.0,stapler_01b.jpg,coral_08s.jpg,,,,,,,
,,,,,,,,,1.0,,,104,0.0,0.0,3.79258,0.0,1.0,1.0,1.0,1.0,slingshot_07s.jpg,crystal_ball_12s.jpg,,,,,,,
,,,,,,,,,0.0,,,104,0.0,1.0,2.321535,0.0,2.0,2.0,2.0,1.0,saddle_06s.jpg,kettle_08s.jpg,,,,,,,
,,,,,,,,,1.0,,,104,0.0,0.0,3.021045,0.0,3.0,3.0,3.0,1.0,pie_08s.jpg,undershirt_02s.jpg,,,,,,,
,,,,,,,,,1.0,,,104,1.0,1.0,2.45293,0.0,4.0,4.0,4.0,1.0,stethoscope_01b.jpg,target_11s.jpg,,,,,,,
,,,,,,,,,1.0,,,104,0.0,0.0,3.32151,0.0,5.0,5.0,5.0,1.0,ostrich_06s.jpg,ruby_15s.jpg,,,,,,,
,,,,,,,,,,,,104,,,,,,,,,,,0.0,0.0,0.0,0.0,1.0,new2backpresent_1_4.xlsx,new2back_compare_task_1_4.xlsx
0.0,1.0,1.683985,0.0,0.0,0.0,0.0,1.0,jetski_10s.jpg,0.0,Blue.png,1.0,104,,,,,,,,,,,,,,,,,
0.0,1.0,0.80469,0.0,1.0,1.0,1.0,1.0,tripod_01b.jpg,0.0,Purple.png,1.0,104,,,,,,,,,,,,,,,,,
0.0,1.0,1.65496,0.0,2.0,2.0,2.0,1.0,lab_coat_11s.jpg,0.0,Red.png,1.0,104,,,,,,,,,,,,,,,,,
0.0,1.0,1.902865,0.0,3.0,3.0,3.0,1.0,foam_03s.jpg,0.0,Orange.png,1.0,104,,,,,,,,,,,,,,,,,
0.0,1.0,0.88683,0.0,4.0,4.0,4.0,1.0,crate_05s.jpg,0.0,Yellow.png,1.0,104,,,,,,,,,,,,,,,,,
0.0,1.0,1.74909,0.0,5.0,5.0,5.0,1.0,margarita_03s.jpg,0.0,Green.png,1.0,104,,,,,,,,,,,,,,,,,
0.0,1.0,1.002835,0.0,6.0,6.0,6.0,1.0,joystick_01b.jpg,0.0,Blue.png,2.0,104,,,,,,,,,,,,,,,,,
0.0,1.0,0.88835,0.0,7.0,7.0,7.0,1.0,giraffe_11s.jpg,0.0,Purple.png,2.0,104,,,,,,,,,,,,,,,,,
0.0,1.0,0.9698,0.0,8.0,8.0,8.0,1.0,quilt_03s.jpg,0.0,Red.png,2.0,104,,,,,,,,,,,,,,,,,
1.0,1.0,1.45431,0.0,9.0,9.0,9.0,1.0,giraffe_11s.jpg,1.0,Orange.png,2.0,104,,,,,,,,,,,,,,,,,
0.0,1.0,1.073785,0.0,10.0,10.0,10.0,1.0,pincushion_10s.jpg,0.0,Yellow.png,2.0,104,,,,,,,,,,,,,,,,,
1.0,1.0,0.853915,0.0,11.0,11.0,11.0,1.0,giraffe_11s.jpg,1.0,Green.png,2.0,104,,,,,,,,,,,,,,,,,
1.0,1.0,1.485915,0.0,12.0,12.0,12.0,1.0,pincushion_10s.jpg,1.0,Blue.png,3.0,104,,,,,,,,,,,,,,,,,
1.0,1.0,0.935385,0.0,13.0,13.0,13.0,1.0,giraffe_11s.jpg,1.0,Purple.png,3.0,104,,,,,,,,,,,,,,,,,
0.0,1.0,1.052365,0.0,14.0,14.0,14.0,1.0,rolling_pin_02s.jpg,0.0,Red.png,3.0,104,,,,,,,,,,,,,,,,,
0.0,1.0,1.43604,0.0,15.0,15.0,15.0,1.0,ticktacktoe_08s.jpg,0.0,Orange.png,3.0,104,,,,,,,,,,,,,,,,,
1.0,0.0,0.73412,0.0,16.0,16.0,16.0,1.0,giraffe_11s.jpg,0.0,Yellow.png,3.0,104,,,,,,,,,,,,,,,,,
1.0,1.0,1.052345,0.0,17.0,17.0,17.0,1.0,ticktacktoe_08s.jpg,1.0,Green.png,3.0,104,,,,,,,,,,,,,,,,,
0.0,1.0,1.069585,0.0,18.0,18.0,18.0,1.0,typewriter_11s.jpg,0.0,Blue.png,4.0,104,,,,,,,,,,,,,,,,,
0.0,1.0,1.65261,0.0,19.0,19.0,19.0,1.0,toothpaste_12s.jpg,0.0,Purple.png,4.0,104,,,,,,,,,,,,,,,,,
0.0,1.0,1.518515,0.0,20.0,20.0,20.0,1.0,hummingbird_05s.jpg,0.0,Red.png,4.0,104,,,,,,,,,,,,,,,,,
1.0,1.0,1.55267,0.0,21.0,21.0,21.0,1.0,toothpaste_12s.jpg,1.0,Orange.png,4.0,104,,,,,,,,,,,,,,,,,
1.0,0.0,1.185435,0.0,22.0,22.0,22.0,1.0,toothpaste_12s.jpg,0.0,Yellow.png,4.0,104,,,,,,,,,,,,,,,,,
0.0,1.0,2.13591,0.0,23.0,23.0,23.0,1.0,treadmill_06s.jpg,0.0,Green.png,4.0,104,,,,,,,,,,,,,,,,,
1.0,0.0,1.135145,0.0,24.0,24.0,24.0,1.0,typewriter_11s.jpg,0.0,Blue.png,5.0,104,,,,,,,,,,,,,,,,,
0.0,1.0,1.652225,0.0,25.0,25.0,25.0,1.0,penguin_16s.jpg,0.0,Purple.png,5.0,104,,,,,,,,,,,,,,,,,
0.0,1.0,1.38537,0.0,26.0,26.0,26.0,1.0,olive_05s.jpg,0.0,Red.png,5.0,104,,,,,,,,,,,,,,,,,
1.0,1.0,1.05218,0.0,27.0,27.0,27.0,1.0,penguin_16s.jpg,1.0,Orange.png,5.0,104,,,,,,,,,,,,,,,,,
1.0,0.0,1.06742,0.0,28.0,28.0,28.0,1.0,penguin_16s.jpg,0.0,Yellow.png,5.0,104,,,,,,,,,,,,,,,,,
0.0,1.0,1.468105,0.0,29.0,29.0,29.0,1.0,tab_09s.jpg,0.0,Green.png,5.0,104,,,,,,,,,,,,,,,,,
0.0,1.0,1.61747,0.0,30.0,30.0,30.0,1.0,frame_06s.jpg,0.0,Blue.png,6.0,104,,,,,,,,,,,,,,,,,
0.0,1.0,0.98525,0.0,31.0,31.0,31.0,1.0,mop_08s.jpg,0.0,Purple.png,6.0,104,,,,,,,,,,,,,,,,,
0.0,1.0,1.07937,0.0,32.0,32.0,32.0,1.0,memory_stick_11s.jpg,0.0,Red.png,6.0,104,,,,,,,,,,,,,,,,,
1.0,0.0,1.21498,0.0,33.0,33.0,33.0,1.0,olive_05s.jpg,0.0,Orange.png,6.0,104,,,,,,,,,,,,,,,,,
0.0,1.0,1.60715,0.0,34.0,34.0,34.0,1.0,ravioli_08s.jpg,0.0,Yellow.png,6.0,104,,,,,,,,,,,,,,,,,
0.0,1.0,0.987245,0.0,35.0,35.0,35.0,1.0,mousetrap_15n.jpg,0.0,Green.png,6.0,104,,,,,,,,,,,,,,,,,
,,,,,,,,,1.0,,,104,1.0,1.0,2.07682,0.0,0.0,0.0,0.0,1.0,hummingbird_05s.jpg,treadmill_06s.jpg,,,,,,,
,,,,,,,,,1.0,,,104,0.0,0.0,2.48303,0.0,1.0,1.0,1.0,1.0,margarita_03s.jpg,quilt_03s.jpg,,,,,,,
,,,,,,,,,0.0,,,104,1.0,0.0,1.45881,0.0,2.0,2.0,2.0,1.0,joystick_01b.jpg,foam_03s.jpg,,,,,,,
,,,,,,,,,0.0,,,104,0.0,1.0,2.561505,0.0,3.0,3.0,3.0,1.0,ravioli_08s.jpg,mop_08s.jpg,,,,,,,
,,,,,,,,,1.0,,,104,1.0,1.0,1.772785,0.0,4.0,4.0,4.0,1.0,tab_09s.jpg,memory_stick_11s.jpg,,,,,,,
,,,,,,,,,1.0,,,104,0.0,0.0,1.906505,0.0,5.0,5.0,5.0,1.0,tripod_01b.jpg,crate_05s.jpg,,,,,,,
,,,,,,,,,,,,104,,,,,,,,,,,0.0,1.0,1.0,1.0,1.0,new2backpresent_2_4.xlsx,new2back_compare_task_2_4.xlsx
0.0,1.0,1.053775,0.0,0.0,0.0,0.0,1.0,safety_pin_02s.jpg,0.0,Blue.png,1.0,104,,,,,,,,,,,,,,,,,
1.0,0.0,1.78599,0.0,1.0,1.0,1.0,1.0,safety_pin_02s.jpg,0.0,Purple.png,1.0,104,,,,,,,,,,,,,,,,,
0.0,1.0,1.036175,0.0,2.0,2.0,2.0,1.0,cardinal_07s.jpg,0.0,Red.png,1.0,104,,,,,,,,,,,,,,,,,
1.0,1.0,0.76984,0.0,3.0,3.0,3.0,1.0,safety_pin_02s.jpg,1.0,Orange.png,1.0,104,,,,,,,,,,,,,,,,,
0.0,1.0,1.11702,0.0,4.0,4.0,4.0,1.0,potholder_02s.jpg,0.0,Yellow.png,1.0,104,,,,,,,,,,,,,,,,,
1.0,1.0,1.03432,0.0,5.0,5.0,5.0,1.0,safety_pin_02s.jpg,1.0,Green.png,1.0,104,,,,,,,,,,,,,,,,,
1.0,0.0,1.32291,0.0,6.0,6.0,6.0,1.0,cardinal_07s.jpg,0.0,Blue.png,2.0,104,,,,,,,,,,,,,,,,,
0.0,1.0,0.94396,0.0,7.0,7.0,7.0,1.0,lion_18s.jpg,0.0,Purple.png,2.0,104,,,,,,,,,,,,,,,,,
0.0,1.0,1.92179,0.0,8.0,8.0,8.0,1.0,comic_book_02s.jpg,0.0,Red.png,2.0,104,,,,,,,,,,,,,,,,,
0.0,1.0,1.317835,0.0,9.0,9.0,9.0,1.0,lizard_10n.jpg,0.0,Orange.png,2.0,104,,,,,,,,,,,,,,,,,
0.0,1.0,1.31873,0.0,10.0,10.0,10.0,1.0,rice_12s.jpg,0.0,Yellow.png,2.0,104,,,,,,,,,,,,,,,,,
0.0,1.0,1.202265,0.0,11.0,11.0,11.0,1.0,bagel_15s.jpg,0.0,Green.png,2.0,104,,,,,,,,,,,,,,,,,
0.0,1.0,0.903595,0.0,12.0,12.0,12.0,1.0,recliner_02s.jpg,0.0,Blue.png,3.0,104,,,,,,,,,,,,,,,,,
1.0,0.0,1.4193,0.0,13.0,13.0,13.0,1.0,recliner_02s.jpg,0.0,Purple.png,3.0,104,,,,,,,,,,,,,,,,,
0.0,1.0,1.36884,0.0,14.0,14.0,14.0,1.0,luggage_08s.jpg,0.0,Red.png,3.0,104,,,,,,,,,,,,,,,,,
1.0,1.0,1.16894,0.0,15.0,15.0,15.0,1.0,recliner_02s.jpg,1.0,Orange.png,3.0,104,,,,,,,,,,,,,,,,,
0.0,1.0,1.319245,0.0,16.0,16.0,16.0,1.0,onion_10s.jpg,0.0,Yellow.png,3.0,104,,,,,,,,,,,,,,,,,
0.0,1.0,1.184355,0.0,17.0,17.0,17.0,1.0,rosary_03s.jpg,0.0,Green.png,3.0,104,,,,,,,,,,,,,,,,,
0.0,1.0,1.435505,0.0,18.0,18.0,18.0,1.0,smokingpipe.jpg,0.0,Blue.png,4.0,104,,,,,,,,,,,,,,,,,
0.0,1.0,1.11898,0.0,19.0,19.0,19.0,1.0,roulette_wheel_04s.jpg,0.0,Purple.png,4.0,104,,,,,,,,,,,,,,,,,
1.0,1.0,0.95244,0.0,20.0,20.0,20.0,1.0,smokingpipe.jpg,1.0,Red.png,4.0,104,,,,,,,,,,,,,,,,,
0.0,1.0,1.418405,0.0,21.0,21.0,21.0,1.0,orchid_01b.jpg,0.0,Orange.png,4.0,104,,,,,,,,,,,,,,,,,
0.0,1.0,1.300765,0.0,22.0,22.0,22.0,1.0,buoy_04s.jpg,0.0,Yellow.png,4.0,104,,,,,,,,,,,,,,,,,
0.0,1.0,1.52779,0.0,23.0,23.0,23.0,1.0,stopwatch_04s.jpg,0.0,Green.png,4.0,104,,,,,,,,,,,,,,,,,
0.0,1.0,1.327265,0.0,24.0,24.0,24.0,1.0,knitting_needle_04s.jpg,0.0,Blue.png,5.0,104,,,,,,,,,,,,,,,,,
0.0,1.0,0.833795,0.0,25.0,25.0,25.0,1.0,prism_10s.jpg,0.0,Purple.png,5.0,104,,,,,,,,,,,,,,,,,
0.0,1.0,1.015485,0.0,26.0,26.0,26.0,1.0,teapot_03s.jpg,0.0,Red.png,5.0,104,,,,,,,,,,,,,,,,,
0.0,1.0,1.32997,0.0,27.0,27.0,27.0,1.0,fire_pit_10s.jpg,0.0,Orange.png,5.0,104,,,,,,,,,,,,,,,,,
1.0,0.0,1.37352,0.0,28.0,28.0,28.0,1.0,fire_pit_10s.jpg,0.0,Yellow.png,5.0,104,,,,,,,,,,,,,,,,,
1.0,1.0,1.2098,0.0,29.0,29.0,29.0,1.0,fire_pit_10s.jpg,1.0,Green.png,5.0,104,,,,,,,,,,,,,,,,,
0.0,1.0,1.72397,0.0,30.0,30.0,30.0,1.0,ironing_board_07s.jpg,0.0,Blue.png,6.0,104,,,,,,,,,,,,,,,,,
1.0,1.0,0.843185,0.0,31.0,31.0,31.0,1.0,fire_pit_10s.jpg,1.0,Purple.png,6.0,104,,,,,,,,,,,,,,,,,
0.0,1.0,1.673675,0.0,32.0,32.0,32.0,1.0,mattress_01s.jpg,0.0,Red.png,6.0,104,,,,,,,,,,,,,,,,,
1.0,1.0,0.961785,0.0,33.0,33.0,33.0,1.0,fire_pit_10s.jpg,1.0,Orange.png,6.0,104,,,,,,,,,,,,,,,,,
1.0,1.0,1.210385,0.0,34.0,34.0,34.0,1.0,mattress_01s.jpg,1.0,Yellow.png,6.0,104,,,,,,,,,,,,,,,,,
0.0,1.0,1.52176,0.0,35.0,35.0,35.0,1.0,ice-cream_cone_06s.jpg,0.0,Green.png,6.0,104,,,,,,,,,,,,,,,,,
,,,,,,,,,1.0,,,104,1.0,1.0,5.13826,0.0,0.0,0.0,0.0,1.0,roulette_wheel_04s.jpg,buoy_04s.jpg,,,,,,,
,,,,,,,,,0.0,,,104,0.0,1.0,9.117945,0.0,1.0,1.0,1.0,1.0,lion_18s.jpg,potholder_02s.jpg,,,,,,,
,,,,,,,,,0.0,,,104,0.0,1.0,5.42151,0.0,2.0,2.0,2.0,1.0,bagel_15s.jpg,comic_book_02s.jpg,,,,,,,
,,,,,,,,,1.0,,,104,0.0,0.0,2.77726,0.0,3.0,3.0,3.0,1.0,stopwatch_04s.jpg,teapot_03s.jpg,,,,,,,
,,,,,,,,,1.0,,,104,1.0,1.0,2.3375,0.0,4.0,4.0,4.0,1.0,luggage_08s.jpg,rosary_03s.jpg,,,,,,,
,,,,,,,,,1.0,,,104,1.0,1.0,4.503935,0.0,5.0,5.0,5.0,1.0,orchid_01b.jpg,knitting_needle_04s.jpg,,,,,,,
,,,,,,,,,,,,104,,,,,,,,,,,0.0,2.0,2.0,2.0,1.0,new2backpresent_3_4.xlsx,new2back_compare_task_3_4.xlsx
0.0,1.0,1.552895,0.0,0.0,0.0,0.0,1.0,smoothie_09s.jpg,0.0,Blue.png,1.0,104,,,,,,,,,,,,,,,,,
0.0,1.0,0.718655,0.0,1.0,1.0,1.0,1.0,raspberry_12s.jpg,0.0,Purple.png,1.0,104,,,,,,,,,,,,,,,,,
1.0,0.0,1.486065,0.0,2.0,2.0,2.0,1.0,raspberry_12s.jpg,0.0,Red.png,1.0,104,,,,,,,,,,,,,,,,,
0.0,1.0,1.08531,0.0,3.0,3.0,3.0,1.0,lamb_chop_07s.jpg,0.0,Orange.png,1.0,104,,,,,,,,,,,,,,,,,
1.0,0.0,1.200825,0.0,4.0,4.0,4.0,1.0,smoothie_09s.jpg,0.0,Yellow.png,1.0,104,,,,,,,,,,,,,,,,,
1.0,0.0,1.11933,0.0,5.0,5.0,5.0,1.0,raspberry_12s.jpg,0.0,Green.png,1.0,104,,,,,,,,,,,,,,,,,
0.0,1.0,1.40293,0.0,6.0,6.0,6.0,1.0,lava_02s.jpg,0.0,Blue.png,2.0,104,,,,,,,,,,,,,,,,,
0.0,1.0,1.40095,0.0,7.0,7.0,7.0,1.0,trident_07s.jpg,0.0,Purple.png,2.0,104,,,,,,,,,,,,,,,,,
1.0,0.0,1.16894,0.0,8.0,8.0,8.0,1.0,trident_07s.jpg,0.0,Red.png,2.0,104,,,,,,,,,,,,,,,,,
1.0,1.0,1.886715,0.0,9.0,9.0,9.0,1.0,trident_07s.jpg,1.0,Orange.png,2.0,104,,,,,,,,,,,,,,,,,
0.0,1.0,1.353795,0.0,10.0,10.0,10.0,1.0,orangutan_03s.jpg,0.0,Yellow.png,2.0,104,,,,,,,,,,,,,,,,,
1.0,1.0,1.201905,0.0,11.0,11.0,11.0,1.0,trident_07s.jpg,1.0,Green.png,2.0,104,,,,,,,,,,,,,,,,,
1.0,0.0,1.134725,0.0,12.0,12.0,12.0,1.0,raspberry_12s.jpg,0.0,Blue.png,3.0,104,,,,,,,,,,,,,,,,,
1.0,1.0,0.935445,0.0,13.0,13.0,13.0,1.0,trident_07s.jpg,1.0,Purple.png,3.0,104,,,,,,,,,,,,,,,,,
0.0,1.0,1.769175,0.0,14.0,14.0,14.0,1.0,lavender_10s.jpg,0.0,Red.png,3.0,104,,,,,,,,,,,,,,,,,
0.0,1.0,1.618965,0.0,15.0,15.0,15.0,1.0,chip_04s.jpg,0.0,Orange.png,3.0,104,,,,,,,,,,,,,,,,,
0.0,1.0,1.754285,0.0,16.0,16.0,16.0,1.0,lamb_04s.jpg,0.0,Yellow.png,3.0,104,,,,,,,,,,,,,,,,,
0.0,1.0,0.90051,0.0,17.0,17.0,17.0,1.0,emerald_02s.jpg,0.0,Green.png,3.0,104,,,,,,,,,,,,,,,,,
0.0,1.0,1.272875,0.0,18.0,18.0,18.0,1.0,pineapple_12s.jpg,0.0,Blue.png,4.0,104,,,,,,,,,,,,,,,,,
0.0,1.0,1.05277,0.0,19.0,19.0,19.0,1.0,sundae_08s.jpg,0.0,Purple.png,4.0,104,,,,,,,,,,,,,,,,,
1.0,0.0,1.394665,0.0,20.0,20.0,20.0,1.0,sundae_08s.jpg,0.0,Red.png,4.0,104,,,,,,,,,,,,,,,,,
0.0,1.0,1.65072,0.0,21.0,21.0,21.0,1.0,squirrel_02s.jpg,0.0,Orange.png,4.0,104,,,,,,,,,,,,,,,,,
0.0,1.0,1.796425,0.0,22.0,22.0,22.0,1.0,roller_coaster_07s.jpg,0.0,Yellow.png,4.0,104,,,,,,,,,,,,,,,,,
1.0,0.0,1.07199,0.0,23.0,23.0,23.0,1.0,sundae_08s.jpg,0.0,Green.png,4.0,104,,,,,,,,,,,,,,,,,
0.0,1.0,1.58934,0.0,24.0,24.0,24.0,1.0,tweezers_03s.jpg,0.0,Blue.png,5.0,104,,,,,,,,,,,,,,,,,
1.0,1.0,1.65903,0.0,25.0,25.0,25.0,1.0,sundae_08s.jpg,1.0,Purple.png,5.0,104,,,,,,,,,,,,,,,,,
0.0,1.0,2.00647,0.0,26.0,26.0,26.0,1.0,rudder_02s.jpg,0.0,Red.png,5.0,104,,,,,,,,,,,,,,,,,
0.0,1.0,2.021955,0.0,27.0,27.0,27.0,1.0,rake_06s.jpg,0.0,Orange.png,5.0,104,,,,,,,,,,,,,,,,,
1.0,0.0,1.10548,0.0,28.0,28.0,28.0,1.0,rake_06s.jpg,0.0,Yellow.png,5.0,104,,,,,,,,,,,,,,,,,
1.0,1.0,1.324015,0.0,29.0,29.0,29.0,1.0,rake_06s.jpg,1.0,Green.png,5.0,104,,,,,,,,,,,,,,,,,
0.0,1.0,1.626535,0.0,30.0,30.0,30.0,1.0,cap_05s.jpg,0.0,Blue.png,6.0,104,,,,,,,,,,,,,,,,,
0.0,1.0,0.98709,0.0,31.0,31.0,31.0,1.0,paper_towel_03s.jpg,0.0,Purple.png,6.0,104,,,,,,,,,,,,,,,,,
0.0,1.0,1.19285,0.0,32.0,32.0,32.0,1.0,toaster_03s.jpg,0.0,Red.png,6.0,104,,,,,,,,,,,,,,,,,
0.0,1.0,1.726845,0.0,33.0,33.0,33.0,1.0,money_07s.jpg,0.0,Orange.png,6.0,104,,,,,,,,,,,,,,,,,
,0.0,,0.0,34.0,34.0,34.0,1.0,pinwheel_06s.jpg,0.0,Yellow.png,6.0,104,,,,,,,,,,,,,,,,,
0.0,1.0,1.338345,0.0,35.0,35.0,35.0,1.0,lid_10s.jpg,0.0,Green.png,6.0,104,,,,,,,,,,,,,,,,,
,,,,,,,,,0.0,,,104,1.0,0.0,3.635555,0.0,0.0,0.0,0.0,1.0,tweezers_03s.jpg,squirrel_02s.jpg,,,,,,,
,,,,,,,,,1.0,,,104,0.0,0.0,5.3045,0.0,1.0,1.0,1.0,1.0,chip_04s.jpg,pineapple_12s.jpg,,,,,,,
,,,,,,,,,1.0,,,104,1.0,1.0,1.35421,0.0,2.0,2.0,2.0,1.0,lamb_chop_07s.jpg,lava_02s.jpg,,,,,,,
,,,,,,,,,0.0,,,104,0.0,1.0,3.539985,0.0,3.0,3.0,3.0,1.0,pinwheel_06s.jpg,paper_towel_03s.jpg,,,,,,,
,,,,,,,,,0.0,,,104,1.0,0.0,1.57571,0.0,4.0,4.0,4.0,1.0,emerald_02s.jpg,lavender_10s.jpg,,,,,,,
,,,,,,,,,0.0,,,104,1.0,0.0,2.259685,0.0,5.0,5.0,5.0,1.0,money_07s.jpg,cap_05s.jpg,,,,,,,
,,,,,,,,,,,,104,,,,,,,,,,,0.0,3.0,3.0,3.0,1.0,new2backpresent_4_4.xlsx,new2back_compare_task_4_4.xlsx
0.0,1.0,1.050855,0.0,0.0,0.0,0.0,1.0,fur_coat_11s.jpg,0.0,Blue.png,1.0,104,,,,,,,,,,,,,,,,,
0.0,1.0,1.225705,0.0,1.0,1.0,1.0,1.0,crayon_09s.jpg,0.0,Purple.png,1.0,104,,,,,,,,,,,,,,,,,
0.0,1.0,1.674255,0.0,2.0,2.0,2.0,1.0,cobra_05s.jpg,0.0,Red.png,1.0,104,,,,,,,,,,,,,,,,,
0.0,1.0,1.321665,0.0,3.0,3.0,3.0,1.0,raccoon_02s.jpg,0.0,Orange.png,1.0,104,,,,,,,,,,,,,,,,,
0.0,1.0,0.81185,0.0,4.0,4.0,4.0,1.0,soda_fountain_03s.jpg,0.0,Yellow.png,1.0,104,,,,,,,,,,,,,,,,,
1.0,1.0,0.86215,0.0,5.0,5.0,5.0,1.0,raccoon_02s.jpg,1.0,Green.png,1.0,104,,,,,,,,,,,,,,,,,
0.0,1.0,1.355055,0.0,6.0,6.0,6.0,1.0,feather02.jpg,0.0,Blue.png,2.0,104,,,,,,,,,,,,,,,,,
1.0,1.0,1.729135,0.0,7.0,7.0,7.0,1.0,raccoon_02s.jpg,1.0,Purple.png,2.0,104,,,,,,,,,,,,,,,,,
,0.0,,0.0,8.0,8.0,8.0,1.0,feather02.jpg,1.0,Red.png,2.0,104,,,,,,,,,,,,,,,,,
0.0,1.0,2.10547,0.0,9.0,9.0,9.0,1.0,rug_09s.jpg,0.0,Orange.png,2.0,104,,,,,,,,,,,,,,,,,
1.0,1.0,1.07366,0.0,10.0,10.0,10.0,1.0,feather02.jpg,1.0,Yellow.png,2.0,104,,,,,,,,,,,,,,,,,
0.0,1.0,1.35597,0.0,11.0,11.0,11.0,1.0,cushion_08s.jpg,0.0,Green.png,2.0,104,,,,,,,,,,,,,,,,,
1.0,1.0,1.38919,0.0,12.0,12.0,12.0,1.0,feather02.jpg,1.0,Blue.png,3.0,104,,,,,,,,,,,,,,,,,
1.0,0.0,0.723165,0.0,13.0,13.0,13.0,1.0,feather02.jpg,0.0,Purple.png,3.0,104,,,,,,,,,,,,,,,,,
0.0,1.0,1.38768,0.0,14.0,14.0,14.0,1.0,ice_pack_09s.jpg,0.0,Red.png,3.0,104,,,,,,,,,,,,,,,,,
1.0,0.0,2.022685,0.0,15.0,15.0,15.0,1.0,ice_pack_09s.jpg,0.0,Orange.png,3.0,104,,,,,,,,,,,,,,,,,
0.0,1.0,1.322,0.0,16.0,16.0,16.0,1.0,loom_05s.jpg,0.0,Yellow.png,3.0,104,,,,,,,,,,,,,,,,,
1.0,1.0,1.10616,0.0,17.0,17.0,17.0,1.0,ice_pack_09s.jpg,1.0,Green.png,3.0,104,,,,,,,,,,,,,,,,,
1.0,0.0,1.77427,0.0,18.0,18.0,18.0,1.0,ice_pack_09s.jpg,0.0,Blue.png,4.0,104,,,,,,,,,,,,,,,,,
1.0,1.0,0.70618,0.0,19.0,19.0,19.0,1.0,ice_pack_09s.jpg,1.0,Purple.png,4.0,104,,,,,,,,,,,,,,,,,
1.0,1.0,0.79404,0.0,20.0,20.0,20.0,1.0,ice_pack_09s.jpg,1.0,Red.png,4.0,104,,,,,,,,,,,,,,,,,
0.0,1.0,1.12712,0.0,21.0,21.0,21.0,1.0,blazer_02s.jpg,0.0,Orange.png,4.0,104,,,,,,,,,,,,,,,,,
0.0,1.0,1.34095,0.0,22.0,22.0,22.0,1.0,penlight_12s.jpg,0.0,Yellow.png,4.0,104,,,,,,,,,,,,,,,,,
0.0,1.0,1.82202,0.0,23.0,23.0,23.0,1.0,swan_11s.jpg,0.0,Green.png,4.0,104,,,,,,,,,,,,,,,,,
0.0,1.0,1.771325,0.0,24.0,24.0,24.0,1.0,plunger_08s.jpg,0.0,Blue.png,5.0,104,,,,,,,,,,,,,,,,,
0.0,1.0,1.45545,0.0,25.0,25.0,25.0,1.0,bottle_opener_11s.jpg,0.0,Purple.png,5.0,104,,,,,,,,,,,,,,,,,
0.0,1.0,0.938865,0.0,26.0,26.0,26.0,1.0,checkbook_11s.jpg,0.0,Red.png,5.0,104,,,,,,,,,,,,,,,,,
0.0,1.0,0.872685,0.0,27.0,27.0,27.0,1.0,ink_08s.jpg,0.0,Orange.png,5.0,104,,,,,,,,,,,,,,,,,
1.0,0.0,1.139835,0.0,28.0,28.0,28.0,1.0,plunger_08s.jpg,0.0,Yellow.png,5.0,104,,,,,,,,,,,,,,,,,
0.0,1.0,1.525435,0.0,29.0,29.0,29.0,1.0,pencil02a.jpg,0.0,Green.png,5.0,104,,,,,,,,,,,,,,,,,
0.0,1.0,1.8567,0.0,30.0,30.0,30.0,1.0,ginger_09s.jpg,0.0,Blue.png,6.0,104,,,,,,,,,,,,,,,,,
0.0,1.0,1.742335,0.0,31.0,31.0,31.0,1.0,taxi_15s.jpg,0.0,Purple.png,6.0,104,,,,,,,,,,,,,,,,,
0.0,1.0,1.038245,0.0,32.0,32.0,32.0,1.0,toy_04s.jpg,0.0,Red.png,6.0,104,,,,,,,,,,,,,,,,,
0.0,1.0,1.161265,0.0,33.0,33.0,33.0,1.0,blowfish_03s.jpg,0.0,Orange.png,6.0,104,,,,,,,,,,,,,,,,,
0.0,1.0,1.53589,0.0,34.0,34.0,34.0,1.0,toilet_paper_12s.jpg,0.0,Yellow.png,6.0,104,,,,,,,,,,,,,,,,,
0.0,1.0,1.388035,0.0,35.0,35.0,35.0,1.0,puddle_02s.jpg,0.0,Green.png,6.0,104,,,,,,,,,,,,,,,,,
,,,,,,,,,1.0,,,104,1.0,1.0,2.246465,0.0,0.0,0.0,0.0,1.0,ink_08s.jpg,ginger_09s.jpg,,,,,,,
,,,,,,,,,0.0,,,104,0.0,1.0,2.61836,0.0,1.0,1.0,1.0,1.0,puddle_02s.jpg,toy_04s.jpg,,,,,,,
,,,,,,,,,0.0,,,104,0.0,1.0,1.889435,0.0,2.0,2.0,2.0,1.0,bottle_opener_11s.jpg,penlight_12s.jpg,,,,,,,
,,,,,,,,,0.0,,,104,1.0,0.0,2.103,0.0,3.0,3.0,3.0,1.0,checkbook_11s.jpg,swan_11s.jpg,,,,,,,
,,,,,,,,,1.0,,,104,1.0,1.0,1.90242,0.0,4.0,4.0,4.0,1.0,taxi_15s.jpg,toilet_paper_12s.jpg,,,,,,,
,,,,,,,,,1.0,,,104,1.0,1.0,1.352235,0.0,5.0,5.0,5.0,1.0,crayon_09s.jpg,soda_fountain_03s.jpg,,,,,,,
,,,,,,,,,,,,104,,,,,,,,,,,0.0,4.0,4.0,4.0,1.0,new2backpresent_5_4.xlsx,new2back_compare_task_5_4.xlsx
0.0,1.0,1.9224,0.0,0.0,0.0,0.0,1.0,flask_04s.jpg,0.0,Blue.png,1.0,104,,,,,,,,,,,,,,,,,
0.0,1.0,0.956095,0.0,1.0,1.0,1.0,1.0,kimono_13s.jpg,0.0,Purple.png,1.0,104,,,,,,,,,,,,,,,,,
0.0,1.0,0.91835,0.0,2.0,2.0,2.0,1.0,limousine_12s.jpg,0.0,Red.png,1.0,104,,,,,,,,,,,,,,,,,
0.0,1.0,1.218955,0.0,3.0,3.0,3.0,1.0,lectern_08s.jpg,0.0,Orange.png,1.0,104,,,,,,,,,,,,,,,,,
1.0,0.0,1.15183,0.0,4.0,4.0,4.0,1.0,kimono_13s.jpg,0.0,Yellow.png,1.0,104,,,,,,,,,,,,,,,,,
0.0,1.0,1.21887,0.0,5.0,5.0,5.0,1.0,doily_13s.jpg,0.0,Green.png,1.0,104,,,,,,,,,,,,,,,,,
1.0,1.0,1.03553,0.0,6.0,6.0,6.0,1.0,kimono_13s.jpg,1.0,Blue.png,2.0,104,,,,,,,,,,,,,,,,,
0.0,1.0,1.451685,0.0,7.0,7.0,7.0,1.0,razor_blade_01b.jpg,0.0,Purple.png,2.0,104,,,,,,,,,,,,,,,,,
1.0,0.0,1.56922,0.0,8.0,8.0,8.0,1.0,razor_blade_01b.jpg,0.0,Red.png,2.0,104,,,,,,,,,,,,,,,,,
0.0,1.0,0.934965,0.0,9.0,9.0,9.0,1.0,champagne_18s.jpg,0.0,Orange.png,2.0,104,,,,,,,,,,,,,,,,,
0.0,1.0,0.93596,0.0,10.0,10.0,10.0,1.0,stamp1_11s.jpg,0.0,Yellow.png,2.0,104,,,,,,,,,,,,,,,,,
1.0,1.0,1.704015,0.0,11.0,11.0,11.0,1.0,champagne_18s.jpg,1.0,Green.png,2.0,104,,,,,,,,,,,,,,,,,
0.0,1.0,1.802165,0.0,12.0,12.0,12.0,1.0,crossbow_10s.jpg,0.0,Blue.png,3.0,104,,,,,,,,,,,,,,,,,
0.0,1.0,0.979355,0.0,13.0,13.0,13.0,1.0,briefcase_03s.jpg,0.0,Purple.png,3.0,104,,,,,,,,,,,,,,,,,
0.0,1.0,0.77411,0.0,14.0,14.0,14.0,1.0,jersey_02s.jpg,0.0,Red.png,3.0,104,,,,,,,,,,,,,,,,,
1.0,1.0,0.97343,0.0,15.0,15.0,15.0,1.0,briefcase_03s.jpg,1.0,Orange.png,3.0,104,,,,,,,,,,,,,,,,,
0.0,1.0,1.306305,0.0,16.0,16.0,16.0,1.0,oil_02s.jpg,0.0,Yellow.png,3.0,104,,,,,,,,,,,,,,,,,
0.0,1.0,1.47737,0.0,17.0,17.0,17.0,1.0,tinsel_12s.jpg,0.0,Green.png,3.0,104,,,,,,,,,,,,,,,,,
1.0,0.0,1.6223,0.0,18.0,18.0,18.0,1.0,flask_04s.jpg,0.0,Blue.png,4.0,104,,,,,,,,,,,,,,,,,
0.0,1.0,0.955165,0.0,19.0,19.0,19.0,1.0,fork_04s.jpg,0.0,Purple.png,4.0,104,,,,,,,,,,,,,,,,,
0.0,1.0,1.22527,0.0,20.0,20.0,20.0,1.0,purse_05s.jpg,0.0,Red.png,4.0,104,,,,,,,,,,,,,,,,,
1.0,0.0,0.93888,0.0,21.0,21.0,21.0,1.0,flask_04s.jpg,0.0,Orange.png,4.0,104,,,,,,,,,,,,,,,,,
0.0,1.0,0.92669,0.0,22.0,22.0,22.0,1.0,sledgehammer_03s.jpg,0.0,Yellow.png,4.0,104,,,,,,,,,,,,,,,,,
0.0,1.0,1.43901,0.0,23.0,23.0,23.0,1.0,turf_03s.jpg,0.0,Green.png,4.0,104,,,,,,,,,,,,,,,,,
0.0,1.0,0.95539,0.0,24.0,24.0,24.0,1.0,omelet_07s.jpg,0.0,Blue.png,5.0,104,,,,,,,,,,,,,,,,,
1.0,1.0,0.98923,0.0,25.0,25.0,25.0,1.0,turf_03s.jpg,1.0,Purple.png,5.0,104,,,,,,,,,,,,,,,,,
0.0,1.0,1.45926,0.0,26.0,26.0,26.0,1.0,clover_04s.jpg,0.0,Red.png,5.0,104,,,,,,,,,,,,,,,,,
0.0,1.0,1.090185,0.0,27.0,27.0,27.0,1.0,lip_gloss_06s.jpg,0.0,Orange.png,5.0,104,,,,,,,,,,,,,,,,,
0.0,1.0,0.876545,0.0,28.0,28.0,28.0,1.0,amber_04s.jpg,0.0,Yellow.png,5.0,104,,,,,,,,,,,,,,,,,
0.0,1.0,1.39081,0.0,29.0,29.0,29.0,1.0,tortilla_06s.jpg,0.0,Green.png,5.0,104,,,,,,,,,,,,,,,,,
1.0,0.0,1.124805,0.0,30.0,30.0,30.0,1.0,razor_blade_01b.jpg,0.0,Blue.png,6.0,104,,,,,,,,,,,,,,,,,
0.0,1.0,1.31293,0.0,31.0,31.0,31.0,1.0,tape_measure_11s.jpg,0.0,Purple.png,6.0,104,,,,,,,,,,,,,,,,,
1.0,1.0,1.205055,0.0,32.0,32.0,32.0,1.0,razor_blade_01b.jpg,1.0,Red.png,6.0,104,,,,,,,,,,,,,,,,,
1.0,0.0,0.920665,0.0,33.0,33.0,33.0,1.0,razor_blade_01b.jpg,0.0,Orange.png,6.0,104,,,,,,,,,,,,,,,,,
0.0,1.0,1.536955,0.0,34.0,34.0,34.0,1.0,stingray_02s.jpg,0.0,Yellow.png,6.0,104,,,,,,,,,,,,,,,,,
0.0,1.0,0.975545,0.0,35.0,35.0,35.0,1.0,harpoon.jpg,0.0,Green.png,6.0,104,,,,,,,,,,,,,,,,,
,,,,,,,,,1.0,,,104,1.0,1.0,6.546885,0.0,0.0,0.0,0.0,1.0,oil_02s.jpg,fork_04s.jpg,,,,,,,
,,,,,,,,,0.0,,,104,0.0,1.0,3.222335,0.0,1.0,1.0,1.0,1.0,doily_13s.jpg,limousine_12s.jpg,,,,,,,
,,,,,,,,,0.0,,,104,1.0,0.0,5.637925,0.0,2.0,2.0,2.0,1.0,lip_gloss_06s.jpg,omelet_07s.jpg,,,,,,,
,,,,,,,,,0.0,,,104,1.0,0.0,2.0869,0.0,3.0,3.0,3.0,1.0,tape_measure_11s.jpg,amber_04s.jpg,,,,,,,
,,,,,,,,,0.0,,,104,0.0,1.0,1.43609,0.0,4.0,4.0,4.0,1.0,tortilla_06s.jpg,clover_04s.jpg,,,,,,,
,,,,,,,,,0.0,,,104,0.0,1.0,2.65524,0.0,5.0,5.0,5.0,1.0,purse_05s.jpg,tinsel_12s.jpg,,,,,,,
,,,,,,,,,,,,104,,,,,,,,,,,0.0,5.0,5.0,5.0,1.0,new2backpresent_6_4.xlsx,new2back_compare_task_6_4.xlsx
0.0,1.0,1.285835,0.0,0.0,0.0,0.0,1.0,butter_14s.jpg,0.0,Blue.png,1.0,104,,,,,,,,,,,,,,,,,
1.0,0.0,1.069005,0.0,1.0,1.0,1.0,1.0,butter_14s.jpg,0.0,Purple.png,1.0,104,,,,,,,,,,,,,,,,,
1.0,1.0,0.750415,0.0,2.0,2.0,2.0,1.0,butter_14s.jpg,1.0,Red.png,1.0,104,,,,,,,,,,,,,,,,,
0.0,1.0,1.002315,0.0,3.0,3.0,3.0,1.0,stamp2_08s.jpg,0.0,Orange.png,1.0,104,,,,,,,,,,,,,,,,,
0.0,1.0,1.23154,0.0,4.0,4.0,4.0,1.0,kangaroo_02s.jpg,0.0,Yellow.png,1.0,104,,,,,,,,,,,,,,,,,
0.0,1.0,1.76998,0.0,5.0,5.0,5.0,1.0,camcorder_10s.jpg,0.0,Green.png,1.0,104,,,,,,,,,,,,,,,,,
0.0,1.0,1.2003,0.0,6.0,6.0,6.0,1.0,bank_06s.jpg,0.0,Blue.png,2.0,104,,,,,,,,,,,,,,,,,
0.0,1.0,0.801555,0.0,7.0,7.0,7.0,1.0,gear_07s.jpg,0.0,Purple.png,2.0,104,,,,,,,,,,,,,,,,,
1.0,1.0,1.227755,0.0,8.0,8.0,8.0,1.0,bank_06s.jpg,1.0,Red.png,2.0,104,,,,,,,,,,,,,,,,,
0.0,1.0,1.41259,0.0,9.0,9.0,9.0,1.0,funnel_01b.jpg,0.0,Orange.png,2.0,104,,,,,,,,,,,,,,,,,
0.0,1.0,1.176945,0.0,10.0,10.0,10.0,1.0,poinsettia_04s.jpg,0.0,Yellow.png,2.0,104,,,,,,,,,,,,,,,,,
1.0,1.0,1.171625,0.0,11.0,11.0,11.0,1.0,funnel_01b.jpg,1.0,Green.png,2.0,104,,,,,,,,,,,,,,,,,
0.0,1.0,1.524135,0.0,12.0,12.0,12.0,1.0,rooster_03s.jpg,0.0,Blue.png,3.0,104,,,,,,,,,,,,,,,,,
0.0,1.0,0.895115,0.0,13.0,13.0,13.0,1.0,denture_03s.jpg,0.0,Purple.png,3.0,104,,,,,,,,,,,,,,,,,
0.0,1.0,1.04189,0.0,14.0,14.0,14.0,1.0,bean_06s.jpg,0.0,Red.png,3.0,104,,,,,,,,,,,,,,,,,
0.0,1.0,1.094605,0.0,15.0,15.0,15.0,1.0,mud_13s.jpg,0.0,Orange.png,3.0,104,,,,,,,,,,,,,,,,,
0.0,1.0,0.87216,0.0,16.0,16.0,16.0,1.0,keyhole_03s.jpg,0.0,Yellow.png,3.0,104,,,,,,,,,,,,,,,,,
1.0,0.0,0.99084,0.0,17.0,17.0,17.0,1.0,bean_06s.jpg,0.0,Green.png,3.0,104,,,,,,,,,,,,,,,,,
1.0,0.0,1.355945,0.0,18.0,18.0,18.0,1.0,bank_06s.jpg,0.0,Blue.png,4.0,104,,,,,,,,,,,,,,,,,
0.0,1.0,1.05594,0.0,19.0,19.0,19.0,1.0,pomegranate_04s.jpg,0.0,Purple.png,4.0,104,,,,,,,,,,,,,,,,,
0.0,1.0,1.606295,0.0,20.0,20.0,20.0,1.0,chopsticks_08s.jpg,0.0,Red.png,4.0,104,,,,,,,,,,,,,,,,,
0.0,1.0,1.506285,0.0,21.0,21.0,21.0,1.0,contact_lens_15s.jpg,0.0,Orange.png,4.0,104,,,,,,,,,,,,,,,,,
0.0,1.0,0.975685,0.0,22.0,22.0,22.0,1.0,hydrant_10s.jpg,0.0,Yellow.png,4.0,104,,,,,,,,,,,,,,,,,
0.0,1.0,0.888405,0.0,23.0,23.0,23.0,1.0,gingerbread_man_03s.jpg,0.0,Green.png,4.0,104,,,,,,,,,,,,,,,,,
1.0,0.0,0.99137,0.0,24.0,24.0,24.0,1.0,camcorder_10s.jpg,0.0,Blue.png,5.0,104,,,,,,,,,,,,,,,,,
0.0,1.0,1.12257,0.0,25.0,25.0,25.0,1.0,teabag_12s.jpg,0.0,Purple.png,5.0,104,,,,,,,,,,,,,,,,,
0.0,1.0,0.955555,0.0,26.0,26.0,26.0,1.0,radiator_05s.jpg,0.0,Red.png,5.0,104,,,,,,,,,,,,,,,,,
0.0,1.0,1.071675,0.0,27.0,27.0,27.0,1.0,punch1_10s.jpg,0.0,Orange.png,5.0,104,,,,,,,,,,,,,,,,,
0.0,1.0,1.134315,0.0,28.0,28.0,28.0,1.0,mailbox_11s.jpg,0.0,Yellow.png,5.0,104,,,,,,,,,,,,,,,,,
0.0,1.0,0.871685,0.0,29.0,29.0,29.0,1.0,beaker_01b.jpg,0.0,Green.png,5.0,104,,,,,,,,,,,,,,,,,
1.0,1.0,1.08769,0.0,30.0,30.0,30.0,1.0,mailbox_11s.jpg,1.0,Blue.png,6.0,104,,,,,,,,,,,,,,,,,
1.0,0.0,2.03918,0.0,31.0,31.0,31.0,1.0,pipe1_10s.jpg,0.0,Purple.png,6.0,104,,,,,,,,,,,,,,,,,
1.0,1.0,0.78731,0.0,32.0,32.0,32.0,1.0,mailbox_11s.jpg,1.0,Red.png,6.0,104,,,,,,,,,,,,,,,,,
1.0,1.0,0.803735,0.0,33.0,33.0,33.0,1.0,pipe1_10s.jpg,1.0,Orange.png,6.0,104,,,,,,,,,,,,,,,,,
0.0,1.0,1.25204,0.0,34.0,34.0,34.0,1.0,eyedropper_12s.jpg,0.0,Yellow.png,6.0,104,,,,,,,,,,,,,,,,,
0.0,1.0,1.092525,0.0,35.0,35.0,35.0,1.0,rhubarb_03s.jpg,0.0,Green.png,6.0,104,,,,,,,,,,,,,,,,,
,,,,,,,,,0.0,,,104,0.0,1.0,4.283335,0.0,0.0,0.0,0.0,1.0,mud_13s.jpg,rooster_03s.jpg,,,,,,,
,,,,,,,,,1.0,,,104,1.0,1.0,1.92167,0.0,1.0,1.0,1.0,1.0,chopsticks_08s.jpg,gingerbread_man_03s.jpg,,,,,,,
,,,,,,,,,0.0,,,104,1.0,0.0,1.75067,0.0,2.0,2.0,2.0,1.0,beaker_01b.jpg,radiator_05s.jpg,,,,,,,
,,,,,,,,,0.0,,,104,0.0,1.0,1.5094,0.0,3.0,3.0,3.0,1.0,teabag_12s.jpg,hydrant_10s.jpg,,,,,,,
,,,,,,,,,0.0,,,104,0.0,1.0,1.586845,0.0,4.0,4.0,4.0,1.0,denture_03s.jpg,poinsettia_04s.jpg,,,,,,,
,,,,,,,,,1.0,,,104,1.0,1.0,1.01777,0.0,5.0,5.0,5.0,1.0,kangaroo_02s.jpg,gear_07s.jpg,,,,,,,
,,,,,,,,,,,,104,,,,,,,,,,,0.0,6.0,6.0,6.0,1.0,new2backpresent_7_4.xlsx,new2back_compare_task_7_4.xlsx
0.0,1.0,1.030345,0.0,0.0,0.0,0.0,1.0,lamppost_09s.jpg,0.0,Blue.png,1.0,104,,,,,,,,,,,,,,,,,
0.0,1.0,1.132645,0.0,1.0,1.0,1.0,1.0,jewel_01b.jpg,0.0,Purple.png,1.0,104,,,,,,,,,,,,,,,,,
0.0,1.0,1.251115,0.0,2.0,2.0,2.0,1.0,tuxedo_01b.jpg,0.0,Red.png,1.0,104,,,,,,,,,,,,,,,,,
0.0,1.0,1.16851,0.0,3.0,3.0,3.0,1.0,flip_flop_03s.jpg,0.0,Orange.png,1.0,104,,,,,,,,,,,,,,,,,
0.0,1.0,1.16299,0.0,4.0,4.0,4.0,1.0,medal_04s.jpg,0.0,Yellow.png,1.0,104,,,,,,,,,,,,,,,,,
1.0,1.0,1.1218,0.0,5.0,5.0,5.0,1.0,flip_flop_03s.jpg,1.0,Green.png,1.0,104,,,,,,,,,,,,,,,,,
1.0,0.0,1.28439,0.0,6.0,6.0,6.0,1.0,tuxedo_01b.jpg,0.0,Blue.png,2.0,104,,,,,,,,,,,,,,,,,
1.0,1.0,1.102245,0.0,7.0,7.0,7.0,1.0,flip_flop_03s.jpg,1.0,Purple.png,2.0,104,,,,,,,,,,,,,,,,,
0.0,1.0,1.3841,0.0,8.0,8.0,8.0,1.0,fireworks_18s.jpg,0.0,Red.png,2.0,104,,,,,,,,,,,,,,,,,
0.0,1.0,1.9024,0.0,9.0,9.0,9.0,1.0,squirt_gun_03s.jpg,0.0,Orange.png,2.0,104,,,,,,,,,,,,,,,,,
1.0,0.0,0.918465,0.0,10.0,10.0,10.0,1.0,flip_flop_03s.jpg,0.0,Yellow.png,2.0,104,,,,,,,,,,,,,,,,,
0.0,1.0,1.38527,0.0,11.0,11.0,11.0,1.0,puffin_19s.jpg,0.0,Green.png,2.0,104,,,,,,,,,,,,,,,,,
1.0,0.0,1.019115,0.0,12.0,12.0,12.0,1.0,tuxedo_01b.jpg,0.0,Blue.png,3.0,104,,,,,,,,,,,,,,,,,
1.0,0.0,0.86828,0.0,13.0,13.0,13.0,1.0,tuxedo_01b.jpg,0.0,Purple.png,3.0,104,,,,,,,,,,,,,,,,,
0.0,1.0,1.268055,0.0,14.0,14.0,14.0,1.0,snowman_02s.jpg,0.0,Red.png,3.0,104,,,,,,,,,,,,,,,,,
0.0,1.0,2.01778,0.0,15.0,15.0,15.0,1.0,cucumber_07s.jpg,0.0,Orange.png,3.0,104,,,,,,,,,,,,,,,,,
0.0,1.0,2.08763,0.0,16.0,16.0,16.0,1.0,plug_08s.jpg,0.0,Yellow.png,3.0,104,,,,,,,,,,,,,,,,,
1.0,1.0,1.017425,0.0,17.0,17.0,17.0,1.0,cucumber_07s.jpg,1.0,Green.png,3.0,104,,,,,,,,,,,,,,,,,
1.0,0.0,1.211965,0.0,18.0,18.0,18.0,1.0,puffin_19s.jpg,0.0,Blue.png,4.0,104,,,,,,,,,,,,,,,,,
0.0,1.0,1.728185,0.0,19.0,19.0,19.0,1.0,fondue_07s.jpg,0.0,Purple.png,4.0,104,,,,,,,,,,,,,,,,,
0.0,1.0,1.350615,0.0,20.0,20.0,20.0,1.0,lasagna_06s.jpg,0.0,Red.png,4.0,104,,,,,,,,,,,,,,,,,
0.0,1.0,2.144875,0.0,21.0,21.0,21.0,1.0,eiffeltower.jpg,0.0,Orange.png,4.0,104,,,,,,,,,,,,,,,,,
0.0,1.0,2.163545,0.0,22.0,22.0,22.0,1.0,outlet_10s.jpg,0.0,Yellow.png,4.0,104,,,,,,,,,,,,,,,,,
0.0,1.0,1.694075,0.0,23.0,23.0,23.0,1.0,cape_11s.jpg,0.0,Green.png,4.0,104,,,,,,,,,,,,,,,,,
0.0,1.0,1.123025,0.0,24.0,24.0,24.0,1.0,marshmallow_08s.jpg,0.0,Blue.png,5.0,104,,,,,,,,,,,,,,,,,
0.0,1.0,1.08856,0.0,25.0,25.0,25.0,1.0,racehorse_03s.jpg,0.0,Purple.png,5.0,104,,,,,,,,,,,,,,,,,
0.0,1.0,1.389545,0.0,26.0,26.0,26.0,1.0,aluminum_foil_08s.jpg,0.0,Red.png,5.0,104,,,,,,,,,,,,,,,,,
0.0,1.0,1.055275,0.0,27.0,27.0,27.0,1.0,spoon02a.jpg,0.0,Orange.png,5.0,104,,,,,,,,,,,,,,,,,
0.0,1.0,1.128555,0.0,28.0,28.0,28.0,1.0,padlock_07s.jpg,0.0,Yellow.png,5.0,104,,,,,,,,,,,,,,,,,
0.0,1.0,1.454605,0.0,29.0,29.0,29.0,1.0,solar_panel_02s.jpg,0.0,Green.png,5.0,104,,,,,,,,,,,,,,,,,
0.0,1.0,1.43893,0.0,30.0,30.0,30.0,1.0,turtleneck_11s.jpg,0.0,Blue.png,6.0,104,,,,,,,,,,,,,,,,,
0.0,1.0,0.98966,0.0,31.0,31.0,31.0,1.0,pocketknife_12s.jpg,0.0,Purple.png,6.0,104,,,,,,,,,,,,,,,,,
1.0,0.0,1.50633,0.0,32.0,32.0,32.0,1.0,pocketknife_12s.jpg,0.0,Red.png,6.0,104,,,,,,,,,,,,,,,,,
0.0,1.0,1.238385,0.0,33.0,33.0,33.0,1.0,quill_09s.jpg,0.0,Orange.png,6.0,104,,,,,,,,,,,,,,,,,
1.0,0.0,1.039385,0.0,34.0,34.0,34.0,1.0,quill_09s.jpg,0.0,Yellow.png,6.0,104,,,,,,,,,,,,,,,,,
1.0,0.0,1.157135,0.0,35.0,35.0,35.0,1.0,pocketknife_12s.jpg,0.0,Green.png,6.0,104,,,,,,,,,,,,,,,,,
,,,,,,,,,0.0,,,104,0.0,1.0,1.82679,0.0,0.0,0.0,0.0,1.0,cape_11s.jpg,lasagna_06s.jpg,,,,,,,
,,,,,,,,,0.0,,,104,1.0,0.0,1.585325,0.0,1.0,1.0,1.0,1.0,padlock_07s.jpg,racehorse_03s.jpg,,,,,,,
,,,,,,,,,1.0,,,104,1.0,1.0,5.055475,0.0,2.0,2.0,2.0,1.0,spoon02a.jpg,turtleneck_11s.jpg,,,,,,,
,,,,,,,,,0.0,,,104,0.0,1.0,2.68795,0.0,3.0,3.0,3.0,1.0,marshmallow_08s.jpg,eiffeltower.jpg,,,,,,,
,,,,,,,,,0.0,,,104,0.0,1.0,1.80625,0.0,4.0,4.0,4.0,1.0,medal_04s.jpg,jewel_01b.jpg,,,,,,,
,,,,,,,,,1.0,,,104,1.0,1.0,2.137545,0.0,5.0,5.0,5.0,1.0,plug_08s.jpg,fondue_07s.jpg,,,,,,,
,,,,,,,,,,,,104,,,,,,,,,,,0.0,7.0,7.0,7.0,1.0,new2backpresent_8_4.xlsx,new2back_compare_task_8_4.xlsx
0.0,1.0,1.44931,0.0,0.0,0.0,0.0,1.0,footprint_11s.jpg,0.0,Blue.png,1.0,104,,,,,,,,,,,,,,,,,
0.0,1.0,1.06775,0.0,1.0,1.0,1.0,1.0,coffee_filter_10s.jpg,0.0,Purple.png,1.0,104,,,,,,,,,,,,,,,,,
1.0,0.0,1.33775,0.0,2.0,2.0,2.0,1.0,coffee_filter_10s.jpg,0.0,Red.png,1.0,104,,,,,,,,,,,,,,,,,
1.0,1.0,1.23676,0.0,3.0,3.0,3.0,1.0,coffee_filter_10s.jpg,1.0,Orange.png,1.0,104,,,,,,,,,,,,,,,,,
1.0,1.0,0.851465,0.0,4.0,4.0,4.0,1.0,coffee_filter_10s.jpg,1.0,Yellow.png,1.0,104,,,,,,,,,,,,,,,,,
0.0,1.0,1.303875,0.0,5.0,5.0,5.0,1.0,gargoyle_08s.jpg,0.0,Green.png,1.0,104,,,,,,,,,,,,,,,,,
0.0,1.0,1.417175,0.0,6.0,6.0,6.0,1.0,candy_cane_06s.jpg,0.0,Blue.png,2.0,104,,,,,,,,,,,,,,,,,
0.0,1.0,1.20786,0.0,7.0,7.0,7.0,1.0,toad_09s.jpg,0.0,Purple.png,2.0,104,,,,,,,,,,,,,,,,,
1.0,1.0,1.07229,0.0,8.0,8.0,8.0,1.0,candy_cane_06s.jpg,1.0,Red.png,2.0,104,,,,,,,,,,,,,,,,,
0.0,1.0,1.25476,0.0,9.0,9.0,9.0,1.0,pumpkin_03s.jpg,0.0,Orange.png,2.0,104,,,,,,,,,,,,,,,,,
0.0,1.0,1.15368,0.0,10.0,10.0,10.0,1.0,dashboard_02s.jpg,0.0,Yellow.png,2.0,104,,,,,,,,,,,,,,,,,
0.0,1.0,1.087355,0.0,11.0,11.0,11.0,1.0,syringe_02s.jpg,0.0,Green.png,2.0,104,,,,,,,,,,,,,,,,,
0.0,1.0,1.35503,0.0,12.0,12.0,12.0,1.0,powder_07s.jpg,0.0,Blue.png,3.0,104,,,,,,,,,,,,,,,,,
1.0,0.0,1.673895,0.0,13.0,13.0,13.0,1.0,powder_07s.jpg,0.0,Purple.png,3.0,104,,,,,,,,,,,,,,,,,
1.0,1.0,0.723,0.0,14.0,14.0,14.0,1.0,powder_07s.jpg,1.0,Red.png,3.0,104,,,,,,,,,,,,,,,,,
0.0,1.0,1.65954,0.0,15.0,15.0,15.0,1.0,sea_urchin_09s.jpg,0.0,Orange.png,3.0,104,,,,,,,,,,,,,,,,,
0.0,1.0,1.221485,0.0,16.0,16.0,16.0,1.0,throne_11s.jpg,0.0,Yellow.png,3.0,104,,,,,,,,,,,,,,,,,
1.0,0.0,1.023905,0.0,17.0,17.0,17.0,1.0,powder_07s.jpg,0.0,Green.png,3.0,104,,,,,,,,,,,,,,,,,
0.0,1.0,1.23813,0.0,18.0,18.0,18.0,1.0,chalice_10s.jpg,0.0,Blue.png,4.0,104,,,,,,,,,,,,,,,,,
0.0,1.0,1.28933,0.0,19.0,19.0,19.0,1.0,air_pump_05s.jpg,0.0,Purple.png,4.0,104,,,,,,,,,,,,,,,,,
0.0,1.0,0.972415,0.0,20.0,20.0,20.0,1.0,microwave_02s.jpg,0.0,Red.png,4.0,104,,,,,,,,,,,,,,,,,
0.0,1.0,1.141045,0.0,21.0,21.0,21.0,1.0,cereal_04s.jpg,0.0,Orange.png,4.0,104,,,,,,,,,,,,,,,,,
0.0,1.0,1.4759,0.0,22.0,22.0,22.0,1.0,mushroom_10n.jpg,0.0,Yellow.png,4.0,104,,,,,,,,,,,,,,,,,
0.0,1.0,1.423505,0.0,23.0,23.0,23.0,1.0,red_carpet_03s.jpg,0.0,Green.png,4.0,104,,,,,,,,,,,,,,,,,
1.0,0.0,1.032885,0.0,24.0,24.0,24.0,1.0,throne_11s.jpg,0.0,Blue.png,5.0,104,,,,,,,,,,,,,,,,,
0.0,1.0,1.438595,0.0,25.0,25.0,25.0,1.0,koala_13s.jpg,0.0,Purple.png,5.0,104,,,,,,,,,,,,,,,,,
1.0,1.0,1.13935,0.0,26.0,26.0,26.0,1.0,throne_11s.jpg,1.0,Red.png,5.0,104,,,,,,,,,,,,,,,,,
0.0,1.0,1.63965,0.0,27.0,27.0,27.0,1.0,rocket_02s.jpg,0.0,Orange.png,5.0,104,,,,,,,,,,,,,,,,,
0.0,1.0,1.37121,0.0,28.0,28.0,28.0,1.0,swordfish_05s.jpg,0.0,Yellow.png,5.0,104,,,,,,,,,,,,,,,,,
1.0,1.0,0.955705,0.0,29.0,29.0,29.0,1.0,rocket_02s.jpg,1.0,Green.png,5.0,104,,,,,,,,,,,,,,,,,
0.0,1.0,1.2494,0.0,30.0,30.0,30.0,1.0,icicle_04s.jpg,0.0,Blue.png,6.0,104,,,,,,,,,,,,,,,,,
0.0,1.0,1.63794,0.0,31.0,31.0,31.0,1.0,keyboard_05s.jpg,0.0,Purple.png,6.0,104,,,,,,,,,,,,,,,,,
0.0,1.0,1.810475,0.0,32.0,32.0,32.0,1.0,pocket_watch_16s.jpg,0.0,Red.png,6.0,104,,,,,,,,,,,,,,,,,
0.0,1.0,1.12386,0.0,33.0,33.0,33.0,1.0,tablet_04s.jpg,0.0,Orange.png,6.0,104,,,,,,,,,,,,,,,,,
0.0,1.0,0.890475,0.0,34.0,34.0,34.0,1.0,chocolate_01b.jpg,0.0,Yellow.png,6.0,104,,,,,,,,,,,,,,,,,
0.0,1.0,0.988125,0.0,35.0,35.0,35.0,1.0,light_switch_02s.jpg,0.0,Green.png,6.0,104,,,,,,,,,,,,,,,,,
,,,,,,,,,0.0,,,104,0.0,1.0,2.879145,0.0,0.0,0.0,0.0,1.0,chalice_10s.jpg,sea_urchin_09s.jpg,,,,,,,
,,,,,,,,,1.0,,,104,1.0,1.0,1.975825,0.0,1.0,1.0,1.0,1.0,swordfish_05s.jpg,keyboard_05s.jpg,,,,,,,
,,,,,,,,,0.0,,,104,0.0,1.0,2.86251,0.0,2.0,2.0,2.0,1.0,red_carpet_03s.jpg,microwave_02s.jpg,,,,,,,
,,,,,,,,,0.0,,,104,0.0,1.0,2.679985,0.0,3.0,3.0,3.0,1.0,dashboard_02s.jpg,toad_09s.jpg,,,,,,,
,,,,,,,,,0.0,,,104,0.0,1.0,2.81386,0.0,4.0,4.0,4.0,1.0,koala_13s.jpg,mushroom_10n.jpg,,,,,,,
,,,,,,,,,1.0,,,104,1.0,1.0,3.28,0.0,5.0,5.0,5.0,1.0,icicle_04s.jpg,tablet_04s.jpg,,,,,,,
,,,,,,,,,,,,104,,,,,,,,,,,0.0,8.0,8.0,8.0,1.0,new2backpresent_9_4.xlsx,new2back_compare_task_9_4.xlsx
