key_resp.keys,key_resp.corr,key_resp.rt,present_segment.thisRepN,present_segment.thisTrialN,present_segment.thisN,present_segment.thisIndex,present_segment.ran,pictures,answer,clock,segment,participant,key_resp_2.keys,key_resp_2.corr,key_resp_2.rt,compare_segment.thisRepN,compare_segment.thisTrialN,compare_segment.thisN,compare_segment.thisIndex,compare_segment.ran,item_a,item_b,clock_conditions.thisRepN,clock_conditions.thisTrialN,clock_conditions.thisN,clock_conditions.thisIndex,clock_conditions.ran,present,compare
0.0,1.0,1.72925,0.0,0.0,0.0,0.0,1.0,mirror_12s.jpg,0.0,Blue.png,1.0,48,,,,,,,,,,,,,,,,,
0.0,1.0,0.397695,0.0,1.0,1.0,1.0,1.0,polaroid_05s.jpg,0.0,Purple.png,1.0,48,,,,,,,,,,,,,,,,,
0.0,1.0,1.0281,0.0,2.0,2.0,2.0,1.0,polaroid_05s.jpg,0.0,Red.png,1.0,48,,,,,,,,,,,,,,,,,
0.0,1.0,0.600915,0.0,3.0,3.0,3.0,1.0,slingshot_07s.jpg,0.0,Orange.png,1.0,48,,,,,,,,,,,,,,,,,
1.0,1.0,0.488255,0.0,4.0,4.0,4.0,1.0,polaroid_05s.jpg,1.0,Yellow.png,1.0,48,,,,,,,,,,,,,,,,,
0.0,1.0,0.462315,0.0,5.0,5.0,5.0,1.0,kettle_08s.jpg,0.0,Green.png,1.0,48,,,,,,,,,,,,,,,,,
0.0,1.0,0.57371,0.0,6.0,6.0,6.0,1.0,crystal_ball_12s.jpg,0.0,Blue.png,2.0,48,,,,,,,,,,,,,,,,,
0.0,1.0,0.668455,0.0,7.0,7.0,7.0,1.0,iron_13s.jpg,0.0,Purple.png,2.0,48,,,,,,,,,,,,,,,,,
0.0,1.0,0.585455,0.0,8.0,8.0,8.0,1.0,saddle_06s.jpg,0.0,Red.png,2.0,48,,,,,,,,,,,,,,,,,
0.0,1.0,0.52961,0.0,9.0,9.0,9.0,1.0,mango_09s.jpg,0.0,Orange.png,2.0,48,,,,,,,,,,,,,,,,,
0.0,1.0,0.66374,0.0,10.0,10.0,10.0,1.0,ostrich_06s.jpg,0.0,Yellow.png,2.0,48,,,,,,,,,,,,,,,,,
0.0,1.0,0.70522,0.0,11.0,11.0,11.0,1.0,iron_13s.jpg,0.0,Green.png,2.0,48,,,,,,,,,,,,,,,,,
0.0,1.0,2.153315,0.0,12.0,12.0,12.0,1.0,stethoscope_01b.jpg,0.0,Blue.png,3.0,48,,,,,,,,,,,,,,,,,
0.0,1.0,0.782945,0.0,13.0,13.0,13.0,1.0,ruby_15s.jpg,0.0,Purple.png,3.0,48,,,,,,,,,,,,,,,,,
0.0,1.0,0.76705,0.0,14.0,14.0,14.0,1.0,mango_09s.jpg,0.0,Red.png,3.0,48,,,,,,,,,,,,,,,,,
0.0,1.0,1.132785,0.0,15.0,15.0,15.0,1.0,target_11s.jpg,0.0,Orange.png,3.0,48,,,,,,,,,,,,,,,,,
1.0,1.0,1.08497,0.0,16.0,16.0,16.0,1.0,mango_09s.jpg,1.0,Yellow.png,3.0,48,,,,,,,,,,,,,,,,,
0.0,1.0,0.993365,0.0,17.0,17.0,17.0,1.0,compass_10n.jpg,0.0,Green.png,3.0,48,,,,,,,,,,,,,,,,,
0.0,1.0,0.7291,0.0,18.0,18.0,18.0,1.0,meatball_13s.jpg,0.0,Blue.png,4.0,48,,,,,,,,,,,,,,,,,
0.0,1.0,0.671975,0.0,19.0,19.0,19.0,1.0,stapler_01b.jpg,0.0,Purple.png,4.0,48,,,,,,,,,,,,,,,,,
1.0,1.0,0.70244,0.0,20.0,20.0,20.0,1.0,meatball_13s.jpg,1.0,Red.png,4.0,48,,,,,,,,,,,,,,,,,
0.0,1.0,0.5001,0.0,21.0,21.0,21.0,1.0,pump_11s.jpg,0.0,Orange.png,4.0,48,,,,,,,,,,,,,,,,,
0.0,1.0,0.5608,0.0,22.0,22.0,22.0,1.0,coral_08s.jpg,0.0,Yellow.png,4.0,48,,,,,,,,,,,,,,,,,
0.0,1.0,0.73083,0.0,23.0,23.0,23.0,1.0,meatball_13s.jpg,0.0,Green.png,4.0,48,,,,,,,,,,,,,,,,,
0.0,1.0,0.62377,0.0,24.0,24.0,24.0,1.0,peach_04s.jpg,0.0,Blue.png,5.0,48,,,,,,,,,,,,,,,,,
1.0,1.0,0.416835,0.0,25.0,25.0,25.0,1.0,meatball_13s.jpg,1.0,Purple.png,5.0,48,,,,,,,,,,,,,,,,,
0.0,1.0,0.50203,0.0,26.0,26.0,26.0,1.0,pie_08s.jpg,0.0,Red.png,5.0,48,,,,,,,,,,,,,,,,,
0.0,1.0,0.579725,0.0,27.0,27.0,27.0,1.0,rollerskate_03s.jpg,0.0,Orange.png,5.0,48,,,,,,,,,,,,,,,,,
0.0,1.0,0.633325,0.0,28.0,28.0,28.0,1.0,trampoline_13s.jpg,0.0,Yellow.png,5.0,48,,,,,,,,,,,,,,,,,
0.0,1.0,0.545595,0.0,29.0,29.0,29.0,1.0,undershirt_02s.jpg,0.0,Green.png,5.0,48,,,,,,,,,,,,,,,,,
0.0,1.0,0.5686,0.0,30.0,30.0,30.0,1.0,thread_08s.jpg,0.0,Blue.png,6.0,48,,,,,,,,,,,,,,,,,
0.0,1.0,0.452475,0.0,31.0,31.0,31.0,1.0,megaphone_03s.jpg,0.0,Purple.png,6.0,48,,,,,,,,,,,,,,,,,
0.0,1.0,0.50172,0.0,32.0,32.0,32.0,1.0,plaster_cast_13s.jpg,0.0,Red.png,6.0,48,,,,,,,,,,,,,,,,,
0.0,1.0,0.457265,0.0,33.0,33.0,33.0,1.0,diving_board_07s.jpg,0.0,Orange.png,6.0,48,,,,,,,,,,,,,,,,,
0.0,1.0,0.42713,0.0,34.0,34.0,34.0,1.0,kayak_08s.jpg,0.0,Yellow.png,6.0,48,,,,,,,,,,,,,,,,,
1.0,1.0,0.569045,0.0,35.0,35.0,35.0,1.0,diving_board_07s.jpg,1.0,Green.png,6.0,48,,,,,,,,,,,,,,,,,
,,,,,,,,,1.0,,,48,1.0,1.0,2.659165,0.0,0.0,0.0,0.0,1.0,stapler_01b.jpg,coral_08s.jpg,,,,,,,
,,,,,,,,,1.0,,,48,0.0,0.0,1.529605,0.0,1.0,1.0,1.0,1.0,slingshot_07s.jpg,crystal_ball_12s.jpg,,,,,,,
,,,,,,,,,0.0,,,48,0.0,1.0,2.735105,0.0,2.0,2.0,2.0,1.0,saddle_06s.jpg,kettle_08s.jpg,,,,,,,
,,,,,,,,,1.0,,,48,1.0,1.0,1.85212,0.0,3.0,3.0,3.0,1.0,pie_08s.jpg,undershirt_02s.jpg,,,,,,,
,,,,,,,,,1.0,,,48,1.0,1.0,1.682165,0.0,4.0,4.0,4.0,1.0,stethoscope_01b.jpg,target_11s.jpg,,,,,,,
,,,,,,,,,1.0,,,48,1.0,1.0,1.13831,0.0,5.0,5.0,5.0,1.0,ostrich_06s.jpg,ruby_15s.jpg,,,,,,,
,,,,,,,,,,,,48,,,,,,,,,,,0.0,0.0,0.0,0.0,1.0,new2backpresent_1_4.xlsx,new2back_compare_task_1_4.xlsx
0.0,1.0,0.71845,0.0,0.0,0.0,0.0,1.0,jetski_10s.jpg,0.0,Blue.png,1.0,48,,,,,,,,,,,,,,,,,
0.0,1.0,0.505435,0.0,1.0,1.0,1.0,1.0,tripod_01b.jpg,0.0,Purple.png,1.0,48,,,,,,,,,,,,,,,,,
0.0,1.0,0.512655,0.0,2.0,2.0,2.0,1.0,lab_coat_11s.jpg,0.0,Red.png,1.0,48,,,,,,,,,,,,,,,,,
0.0,1.0,0.60552,0.0,3.0,3.0,3.0,1.0,foam_03s.jpg,0.0,Orange.png,1.0,48,,,,,,,,,,,,,,,,,
0.0,1.0,0.612735,0.0,4.0,4.0,4.0,1.0,crate_05s.jpg,0.0,Yellow.png,1.0,48,,,,,,,,,,,,,,,,,
0.0,1.0,0.685335,0.0,5.0,5.0,5.0,1.0,margarita_03s.jpg,0.0,Green.png,1.0,48,,,,,,,,,,,,,,,,,
0.0,1.0,0.562785,0.0,6.0,6.0,6.0,1.0,joystick_01b.jpg,0.0,Blue.png,2.0,48,,,,,,,,,,,,,,,,,
0.0,1.0,0.593515,0.0,7.0,7.0,7.0,1.0,giraffe_11s.jpg,0.0,Purple.png,2.0,48,,,,,,,,,,,,,,,,,
0.0,1.0,0.51269,0.0,8.0,8.0,8.0,1.0,quilt_03s.jpg,0.0,Red.png,2.0,48,,,,,,,,,,,,,,,,,
1.0,1.0,0.687175,0.0,9.0,9.0,9.0,1.0,giraffe_11s.jpg,1.0,Orange.png,2.0,48,,,,,,,,,,,,,,,,,
0.0,1.0,0.47809,0.0,10.0,10.0,10.0,1.0,pincushion_10s.jpg,0.0,Yellow.png,2.0,48,,,,,,,,,,,,,,,,,
1.0,1.0,0.88542,0.0,11.0,11.0,11.0,1.0,giraffe_11s.jpg,1.0,Green.png,2.0,48,,,,,,,,,,,,,,,,,
1.0,1.0,1.067055,0.0,12.0,12.0,12.0,1.0,pincushion_10s.jpg,1.0,Blue.png,3.0,48,,,,,,,,,,,,,,,,,
1.0,1.0,0.792795,0.0,13.0,13.0,13.0,1.0,giraffe_11s.jpg,1.0,Purple.png,3.0,48,,,,,,,,,,,,,,,,,
0.0,1.0,0.44037,0.0,14.0,14.0,14.0,1.0,rolling_pin_02s.jpg,0.0,Red.png,3.0,48,,,,,,,,,,,,,,,,,
0.0,1.0,0.589815,0.0,15.0,15.0,15.0,1.0,ticktacktoe_08s.jpg,0.0,Orange.png,3.0,48,,,,,,,,,,,,,,,,,
0.0,1.0,0.79165,0.0,16.0,16.0,16.0,1.0,giraffe_11s.jpg,0.0,Yellow.png,3.0,48,,,,,,,,,,,,,,,,,
1.0,1.0,1.147705,0.0,17.0,17.0,17.0,1.0,ticktacktoe_08s.jpg,1.0,Green.png,3.0,48,,,,,,,,,,,,,,,,,
0.0,1.0,0.499275,0.0,18.0,18.0,18.0,1.0,typewriter_11s.jpg,0.0,Blue.png,4.0,48,,,,,,,,,,,,,,,,,
0.0,1.0,0.60134,0.0,19.0,19.0,19.0,1.0,toothpaste_12s.jpg,0.0,Purple.png,4.0,48,,,,,,,,,,,,,,,,,
0.0,1.0,0.447005,0.0,20.0,20.0,20.0,1.0,hummingbird_05s.jpg,0.0,Red.png,4.0,48,,,,,,,,,,,,,,,,,
1.0,1.0,1.493965,0.0,21.0,21.0,21.0,1.0,toothpaste_12s.jpg,1.0,Orange.png,4.0,48,,,,,,,,,,,,,,,,,
0.0,1.0,1.148425,0.0,22.0,22.0,22.0,1.0,toothpaste_12s.jpg,0.0,Yellow.png,4.0,48,,,,,,,,,,,,,,,,,
0.0,1.0,0.60259,0.0,23.0,23.0,23.0,1.0,treadmill_06s.jpg,0.0,Green.png,4.0,48,,,,,,,,,,,,,,,,,
0.0,1.0,0.585495,0.0,24.0,24.0,24.0,1.0,typewriter_11s.jpg,0.0,Blue.png,5.0,48,,,,,,,,,,,,,,,,,
0.0,1.0,0.56753,0.0,25.0,25.0,25.0,1.0,penguin_16s.jpg,0.0,Purple.png,5.0,48,,,,,,,,,,,,,,,,,
0.0,1.0,0.566505,0.0,26.0,26.0,26.0,1.0,olive_05s.jpg,0.0,Red.png,5.0,48,,,,,,,,,,,,,,,,,
1.0,1.0,0.85322,0.0,27.0,27.0,27.0,1.0,penguin_16s.jpg,1.0,Orange.png,5.0,48,,,,,,,,,,,,,,,,,
0.0,1.0,0.988755,0.0,28.0,28.0,28.0,1.0,penguin_16s.jpg,0.0,Yellow.png,5.0,48,,,,,,,,,,,,,,,,,
0.0,1.0,0.67493,0.0,29.0,29.0,29.0,1.0,tab_09s.jpg,0.0,Green.png,5.0,48,,,,,,,,,,,,,,,,,
0.0,1.0,1.79363,0.0,30.0,30.0,30.0,1.0,frame_06s.jpg,0.0,Blue.png,6.0,48,,,,,,,,,,,,,,,,,
0.0,1.0,0.863915,0.0,31.0,31.0,31.0,1.0,mop_08s.jpg,0.0,Purple.png,6.0,48,,,,,,,,,,,,,,,,,
0.0,1.0,0.621655,0.0,32.0,32.0,32.0,1.0,memory_stick_11s.jpg,0.0,Red.png,6.0,48,,,,,,,,,,,,,,,,,
0.0,1.0,0.429075,0.0,33.0,33.0,33.0,1.0,olive_05s.jpg,0.0,Orange.png,6.0,48,,,,,,,,,,,,,,,,,
0.0,1.0,0.642805,0.0,34.0,34.0,34.0,1.0,ravioli_08s.jpg,0.0,Yellow.png,6.0,48,,,,,,,,,,,,,,,,,
0.0,1.0,0.59388,0.0,35.0,35.0,35.0,1.0,mousetrap_15n.jpg,0.0,Green.png,6.0,48,,,,,,,,,,,,,,,,,
,,,,,,,,,1.0,,,48,1.0,1.0,1.436385,0.0,0.0,0.0,0.0,1.0,hummingbird_05s.jpg,treadmill_06s.jpg,,,,,,,
,,,,,,,,,1.0,,,48,1.0,1.0,1.349545,0.0,1.0,1.0,1.0,1.0,margarita_03s.jpg,quilt_03s.jpg,,,,,,,
,,,,,,,,,0.0,,,48,0.0,1.0,2.438875,0.0,2.0,2.0,2.0,1.0,joystick_01b.jpg,foam_03s.jpg,,,,,,,
,,,,,,,,,0.0,,,48,0.0,1.0,1.325565,0.0,3.0,3.0,3.0,1.0,ravioli_08s.jpg,mop_08s.jpg,,,,,,,
,,,,,,,,,1.0,,,48,1.0,1.0,2.5001,0.0,4.0,4.0,4.0,1.0,tab_09s.jpg,memory_stick_11s.jpg,,,,,,,
,,,,,,,,,1.0,,,48,1.0,1.0,1.748165,0.0,5.0,5.0,5.0,1.0,tripod_01b.jpg,crate_05s.jpg,,,,,,,
,,,,,,,,,,,,48,,,,,,,,,,,0.0,1.0,1.0,1.0,1.0,new2backpresent_2_4.xlsx,new2back_compare_task_2_4.xlsx
0.0,1.0,1.4004,0.0,0.0,0.0,0.0,1.0,safety_pin_02s.jpg,0.0,Blue.png,1.0,48,,,,,,,,,,,,,,,,,
0.0,1.0,0.41737,0.0,1.0,1.0,1.0,1.0,safety_pin_02s.jpg,0.0,Purple.png,1.0,48,,,,,,,,,,,,,,,,,
0.0,1.0,0.4305,0.0,2.0,2.0,2.0,1.0,cardinal_07s.jpg,0.0,Red.png,1.0,48,,,,,,,,,,,,,,,,,
1.0,1.0,0.62269,0.0,3.0,3.0,3.0,1.0,safety_pin_02s.jpg,1.0,Orange.png,1.0,48,,,,,,,,,,,,,,,,,
0.0,1.0,0.564755,0.0,4.0,4.0,4.0,1.0,potholder_02s.jpg,0.0,Yellow.png,1.0,48,,,,,,,,,,,,,,,,,
1.0,1.0,0.8435,0.0,5.0,5.0,5.0,1.0,safety_pin_02s.jpg,1.0,Green.png,1.0,48,,,,,,,,,,,,,,,,,
0.0,1.0,0.92257,0.0,6.0,6.0,6.0,1.0,cardinal_07s.jpg,0.0,Blue.png,2.0,48,,,,,,,,,,,,,,,,,
0.0,1.0,0.63038,0.0,7.0,7.0,7.0,1.0,lion_18s.jpg,0.0,Purple.png,2.0,48,,,,,,,,,,,,,,,,,
0.0,1.0,0.55767,0.0,8.0,8.0,8.0,1.0,comic_book_02s.jpg,0.0,Red.png,2.0,48,,,,,,,,,,,,,,,,,
0.0,1.0,0.4529,0.0,9.0,9.0,9.0,1.0,lizard_10n.jpg,0.0,Orange.png,2.0,48,,,,,,,,,,,,,,,,,
0.0,1.0,0.674075,0.0,10.0,10.0,10.0,1.0,rice_12s.jpg,0.0,Yellow.png,2.0,48,,,,,,,,,,,,,,,,,
0.0,1.0,0.44347,0.0,11.0,11.0,11.0,1.0,bagel_15s.jpg,0.0,Green.png,2.0,48,,,,,,,,,,,,,,,,,
0.0,1.0,0.498765,0.0,12.0,12.0,12.0,1.0,recliner_02s.jpg,0.0,Blue.png,3.0,48,,,,,,,,,,,,,,,,,
0.0,1.0,0.6724,0.0,13.0,13.0,13.0,1.0,recliner_02s.jpg,0.0,Purple.png,3.0,48,,,,,,,,,,,,,,,,,
0.0,1.0,0.47814,0.0,14.0,14.0,14.0,1.0,luggage_08s.jpg,0.0,Red.png,3.0,48,,,,,,,,,,,,,,,,,
1.0,1.0,0.533965,0.0,15.0,15.0,15.0,1.0,recliner_02s.jpg,1.0,Orange.png,3.0,48,,,,,,,,,,,,,,,,,
0.0,1.0,0.427725,0.0,16.0,16.0,16.0,1.0,onion_10s.jpg,0.0,Yellow.png,3.0,48,,,,,,,,,,,,,,,,,
0.0,1.0,0.449815,0.0,17.0,17.0,17.0,1.0,rosary_03s.jpg,0.0,Green.png,3.0,48,,,,,,,,,,,,,,,,,
0.0,1.0,0.457055,0.0,18.0,18.0,18.0,1.0,smokingpipe.jpg,0.0,Blue.png,4.0,48,,,,,,,,,,,,,,,,,
0.0,1.0,0.750945,0.0,19.0,19.0,19.0,1.0,roulette_wheel_04s.jpg,0.0,Purple.png,4.0,48,,,,,,,,,,,,,,,,,
1.0,1.0,1.02768,0.0,20.0,20.0,20.0,1.0,smokingpipe.jpg,1.0,Red.png,4.0,48,,,,,,,,,,,,,,,,,
0.0,1.0,1.203025,0.0,21.0,21.0,21.0,1.0,orchid_01b.jpg,0.0,Orange.png,4.0,48,,,,,,,,,,,,,,,,,
0.0,1.0,0.779375,0.0,22.0,22.0,22.0,1.0,buoy_04s.jpg,0.0,Yellow.png,4.0,48,,,,,,,,,,,,,,,,,
0.0,1.0,0.537665,0.0,23.0,23.0,23.0,1.0,stopwatch_04s.jpg,0.0,Green.png,4.0,48,,,,,,,,,,,,,,,,,
0.0,1.0,0.568795,0.0,24.0,24.0,24.0,1.0,knitting_needle_04s.jpg,0.0,Blue.png,5.0,48,,,,,,,,,,,,,,,,,
0.0,1.0,0.542815,0.0,25.0,25.0,25.0,1.0,prism_10s.jpg,0.0,Purple.png,5.0,48,,,,,,,,,,,,,,,,,
0.0,1.0,0.44485,0.0,26.0,26.0,26.0,1.0,teapot_03s.jpg,0.0,Red.png,5.0,48,,,,,,,,,,,,,,,,,
0.0,1.0,0.443825,0.0,27.0,27.0,27.0,1.0,fire_pit_10s.jpg,0.0,Orange.png,5.0,48,,,,,,,,,,,,,,,,,
0.0,1.0,0.778835,0.0,28.0,28.0,28.0,1.0,fire_pit_10s.jpg,0.0,Yellow.png,5.0,48,,,,,,,,,,,,,,,,,
1.0,1.0,0.88201,0.0,29.0,29.0,29.0,1.0,fire_pit_10s.jpg,1.0,Green.png,5.0,48,,,,,,,,,,,,,,,,,
0.0,1.0,0.550705,0.0,30.0,30.0,30.0,1.0,ironing_board_07s.jpg,0.0,Blue.png,6.0,48,,,,,,,,,,,,,,,,,
1.0,1.0,0.91874,0.0,31.0,31.0,31.0,1.0,fire_pit_10s.jpg,1.0,Purple.png,6.0,48,,,,,,,,,,,,,,,,,
0.0,1.0,0.68392,0.0,32.0,32.0,32.0,1.0,mattress_01s.jpg,0.0,Red.png,6.0,48,,,,,,,,,,,,,,,,,
1.0,1.0,1.03642,0.0,33.0,33.0,33.0,1.0,fire_pit_10s.jpg,1.0,Orange.png,6.0,48,,,,,,,,,,,,,,,,,
1.0,1.0,0.648945,0.0,34.0,34.0,34.0,1.0,mattress_01s.jpg,1.0,Yellow.png,6.0,48,,,,,,,,,,,,,,,,,
0.0,1.0,0.44018,0.0,35.0,35.0,35.0,1.0,ice-cream_cone_06s.jpg,0.0,Green.png,6.0,48,,,,,,,,,,,,,,,,,
,,,,,,,,,1.0,,,48,0.0,0.0,2.11677,0.0,0.0,0.0,0.0,1.0,roulette_wheel_04s.jpg,buoy_04s.jpg,,,,,,,
,,,,,,,,,0.0,,,48,1.0,0.0,1.57778,0.0,1.0,1.0,1.0,1.0,lion_18s.jpg,potholder_02s.jpg,,,,,,,
,,,,,,,,,0.0,,,48,0.0,1.0,1.669885,0.0,2.0,2.0,2.0,1.0,bagel_15s.jpg,comic_book_02s.jpg,,,,,,,
,,,,,,,,,1.0,,,48,1.0,1.0,1.42478,0.0,3.0,3.0,3.0,1.0,stopwatch_04s.jpg,teapot_03s.jpg,,,,,,,
,,,,,,,,,1.0,,,48,1.0,1.0,1.5755,0.0,4.0,4.0,4.0,1.0,luggage_08s.jpg,rosary_03s.jpg,,,,,,,
,,,,,,,,,1.0,,,48,1.0,1.0,1.622455,0.0,5.0,5.0,5.0,1.0,orchid_01b.jpg,knitting_needle_04s.jpg,,,,,,,
,,,,,,,,,,,,48,,,,,,,,,,,0.0,2.0,2.0,2.0,1.0,new2backpresent_3_4.xlsx,new2back_compare_task_3_4.xlsx
0.0,1.0,1.12954,0.0,0.0,0.0,0.0,1.0,smoothie_09s.jpg,0.0,Blue.png,1.0,48,,,,,,,,,,,,,,,,,
0.0,1.0,0.33251,0.0,1.0,1.0,1.0,1.0,raspberry_12s.jpg,0.0,Purple.png,1.0,48,,,,,,,,,,,,,,,,,
0.0,1.0,0.644885,0.0,2.0,2.0,2.0,1.0,raspberry_12s.jpg,0.0,Red.png,1.0,48,,,,,,,,,,,,,,,,,
0.0,1.0,0.48597,0.0,3.0,3.0,3.0,1.0,lamb_chop_07s.jpg,0.0,Orange.png,1.0,48,,,,,,,,,,,,,,,,,
0.0,1.0,0.470735,0.0,4.0,4.0,4.0,1.0,smoothie_09s.jpg,0.0,Yellow.png,1.0,48,,,,,,,,,,,,,,,,,
0.0,1.0,0.783385,0.0,5.0,5.0,5.0,1.0,raspberry_12s.jpg,0.0,Green.png,1.0,48,,,,,,,,,,,,,,,,,
0.0,1.0,0.533565,0.0,6.0,6.0,6.0,1.0,lava_02s.jpg,0.0,Blue.png,2.0,48,,,,,,,,,,,,,,,,,
0.0,1.0,0.507605,0.0,7.0,7.0,7.0,1.0,trident_07s.jpg,0.0,Purple.png,2.0,48,,,,,,,,,,,,,,,,,
0.0,1.0,0.835095,0.0,8.0,8.0,8.0,1.0,trident_07s.jpg,0.0,Red.png,2.0,48,,,,,,,,,,,,,,,,,
1.0,1.0,0.77737,0.0,9.0,9.0,9.0,1.0,trident_07s.jpg,1.0,Orange.png,2.0,48,,,,,,,,,,,,,,,,,
0.0,1.0,0.45351,0.0,10.0,10.0,10.0,1.0,orangutan_03s.jpg,0.0,Yellow.png,2.0,48,,,,,,,,,,,,,,,,,
1.0,1.0,0.814825,0.0,11.0,11.0,11.0,1.0,trident_07s.jpg,1.0,Green.png,2.0,48,,,,,,,,,,,,,,,,,
0.0,1.0,0.605485,0.0,12.0,12.0,12.0,1.0,raspberry_12s.jpg,0.0,Blue.png,3.0,48,,,,,,,,,,,,,,,,,
1.0,1.0,0.987545,0.0,13.0,13.0,13.0,1.0,trident_07s.jpg,1.0,Purple.png,3.0,48,,,,,,,,,,,,,,,,,
0.0,1.0,0.593125,0.0,14.0,14.0,14.0,1.0,lavender_10s.jpg,0.0,Red.png,3.0,48,,,,,,,,,,,,,,,,,
0.0,1.0,0.55234,0.0,15.0,15.0,15.0,1.0,chip_04s.jpg,0.0,Orange.png,3.0,48,,,,,,,,,,,,,,,,,
0.0,1.0,0.60775,0.0,16.0,16.0,16.0,1.0,lamb_04s.jpg,0.0,Yellow.png,3.0,48,,,,,,,,,,,,,,,,,
0.0,1.0,0.493745,0.0,17.0,17.0,17.0,1.0,emerald_02s.jpg,0.0,Green.png,3.0,48,,,,,,,,,,,,,,,,,
0.0,1.0,0.53316,0.0,18.0,18.0,18.0,1.0,pineapple_12s.jpg,0.0,Blue.png,4.0,48,,,,,,,,,,,,,,,,,
0.0,1.0,0.4831,0.0,19.0,19.0,19.0,1.0,sundae_08s.jpg,0.0,Purple.png,4.0,48,,,,,,,,,,,,,,,,,
0.0,1.0,0.721735,0.0,20.0,20.0,20.0,1.0,sundae_08s.jpg,0.0,Red.png,4.0,48,,,,,,,,,,,,,,,,,
0.0,1.0,0.52062,0.0,21.0,21.0,21.0,1.0,squirrel_02s.jpg,0.0,Orange.png,4.0,48,,,,,,,,,,,,,,,,,
0.0,1.0,0.39824,0.0,22.0,22.0,22.0,1.0,roller_coaster_07s.jpg,0.0,Yellow.png,4.0,48,,,,,,,,,,,,,,,,,
0.0,1.0,0.645345,0.0,23.0,23.0,23.0,1.0,sundae_08s.jpg,0.0,Green.png,4.0,48,,,,,,,,,,,,,,,,,
0.0,1.0,0.60279,0.0,24.0,24.0,24.0,1.0,tweezers_03s.jpg,0.0,Blue.png,5.0,48,,,,,,,,,,,,,,,,,
1.0,1.0,0.842425,0.0,25.0,25.0,25.0,1.0,sundae_08s.jpg,1.0,Purple.png,5.0,48,,,,,,,,,,,,,,,,,
0.0,1.0,0.488905,0.0,26.0,26.0,26.0,1.0,rudder_02s.jpg,0.0,Red.png,5.0,48,,,,,,,,,,,,,,,,,
0.0,1.0,0.59012,0.0,27.0,27.0,27.0,1.0,rake_06s.jpg,0.0,Orange.png,5.0,48,,,,,,,,,,,,,,,,,
0.0,1.0,0.69416,0.0,28.0,28.0,28.0,1.0,rake_06s.jpg,0.0,Yellow.png,5.0,48,,,,,,,,,,,,,,,,,
1.0,1.0,0.40121,0.0,29.0,29.0,29.0,1.0,rake_06s.jpg,1.0,Green.png,5.0,48,,,,,,,,,,,,,,,,,
0.0,1.0,0.522785,0.0,30.0,30.0,30.0,1.0,cap_05s.jpg,0.0,Blue.png,6.0,48,,,,,,,,,,,,,,,,,
0.0,1.0,0.496775,0.0,31.0,31.0,31.0,1.0,paper_towel_03s.jpg,0.0,Purple.png,6.0,48,,,,,,,,,,,,,,,,,
0.0,1.0,0.400585,0.0,32.0,32.0,32.0,1.0,toaster_03s.jpg,0.0,Red.png,6.0,48,,,,,,,,,,,,,,,,,
0.0,1.0,0.50161,0.0,33.0,33.0,33.0,1.0,money_07s.jpg,0.0,Orange.png,6.0,48,,,,,,,,,,,,,,,,,
0.0,1.0,0.525815,0.0,34.0,34.0,34.0,1.0,pinwheel_06s.jpg,0.0,Yellow.png,6.0,48,,,,,,,,,,,,,,,,,
0.0,1.0,0.619285,0.0,35.0,35.0,35.0,1.0,lid_10s.jpg,0.0,Green.png,6.0,48,,,,,,,,,,,,,,,,,
,,,,,,,,,0.0,,,48,0.0,1.0,1.186275,0.0,0.0,0.0,0.0,1.0,tweezers_03s.jpg,squirrel_02s.jpg,,,,,,,
,,,,,,,,,1.0,,,48,1.0,1.0,1.32971,0.0,1.0,1.0,1.0,1.0,chip_04s.jpg,pineapple_12s.jpg,,,,,,,
,,,,,,,,,1.0,,,48,0.0,0.0,1.408735,0.0,2.0,2.0,2.0,1.0,lamb_chop_07s.jpg,lava_02s.jpg,,,,,,,
,,,,,,,,,0.0,,,48,0.0,1.0,2.25032,0.0,3.0,3.0,3.0,1.0,pinwheel_06s.jpg,paper_towel_03s.jpg,,,,,,,
,,,,,,,,,0.0,,,48,0.0,1.0,1.46267,0.0,4.0,4.0,4.0,1.0,emerald_02s.jpg,lavender_10s.jpg,,,,,,,
,,,,,,,,,0.0,,,48,0.0,1.0,1.314205,0.0,5.0,5.0,5.0,1.0,money_07s.jpg,cap_05s.jpg,,,,,,,
,,,,,,,,,,,,48,,,,,,,,,,,0.0,3.0,3.0,3.0,1.0,new2backpresent_4_4.xlsx,new2back_compare_task_4_4.xlsx
0.0,1.0,0.928,0.0,0.0,0.0,0.0,1.0,fur_coat_11s.jpg,0.0,Blue.png,1.0,48,,,,,,,,,,,,,,,,,
0.0,1.0,0.908135,0.0,1.0,1.0,1.0,1.0,crayon_09s.jpg,0.0,Purple.png,1.0,48,,,,,,,,,,,,,,,,,
0.0,1.0,0.728115,0.0,2.0,2.0,2.0,1.0,cobra_05s.jpg,0.0,Red.png,1.0,48,,,,,,,,,,,,,,,,,
0.0,1.0,2.081705,0.0,3.0,3.0,3.0,1.0,raccoon_02s.jpg,0.0,Orange.png,1.0,48,,,,,,,,,,,,,,,,,
0.0,1.0,1.23629,0.0,4.0,4.0,4.0,1.0,soda_fountain_03s.jpg,0.0,Yellow.png,1.0,48,,,,,,,,,,,,,,,,,
1.0,1.0,1.392075,0.0,5.0,5.0,5.0,1.0,raccoon_02s.jpg,1.0,Green.png,1.0,48,,,,,,,,,,,,,,,,,
0.0,1.0,1.51968,0.0,6.0,6.0,6.0,1.0,feather02.jpg,0.0,Blue.png,2.0,48,,,,,,,,,,,,,,,,,
1.0,1.0,0.952725,0.0,7.0,7.0,7.0,1.0,raccoon_02s.jpg,1.0,Purple.png,2.0,48,,,,,,,,,,,,,,,,,
1.0,1.0,0.749565,0.0,8.0,8.0,8.0,1.0,feather02.jpg,1.0,Red.png,2.0,48,,,,,,,,,,,,,,,,,
0.0,1.0,0.501675,0.0,9.0,9.0,9.0,1.0,rug_09s.jpg,0.0,Orange.png,2.0,48,,,,,,,,,,,,,,,,,
1.0,1.0,0.7644,0.0,10.0,10.0,10.0,1.0,feather02.jpg,1.0,Yellow.png,2.0,48,,,,,,,,,,,,,,,,,
0.0,1.0,0.898015,0.0,11.0,11.0,11.0,1.0,cushion_08s.jpg,0.0,Green.png,2.0,48,,,,,,,,,,,,,,,,,
1.0,1.0,0.826235,0.0,12.0,12.0,12.0,1.0,feather02.jpg,1.0,Blue.png,3.0,48,,,,,,,,,,,,,,,,,
0.0,1.0,0.81596,0.0,13.0,13.0,13.0,1.0,feather02.jpg,0.0,Purple.png,3.0,48,,,,,,,,,,,,,,,,,
0.0,1.0,0.86301,0.0,14.0,14.0,14.0,1.0,ice_pack_09s.jpg,0.0,Red.png,3.0,48,,,,,,,,,,,,,,,,,
0.0,1.0,0.789925,0.0,15.0,15.0,15.0,1.0,ice_pack_09s.jpg,0.0,Orange.png,3.0,48,,,,,,,,,,,,,,,,,
0.0,1.0,1.060735,0.0,16.0,16.0,16.0,1.0,loom_05s.jpg,0.0,Yellow.png,3.0,48,,,,,,,,,,,,,,,,,
1.0,1.0,0.74611,0.0,17.0,17.0,17.0,1.0,ice_pack_09s.jpg,1.0,Green.png,3.0,48,,,,,,,,,,,,,,,,,
0.0,1.0,1.10494,0.0,18.0,18.0,18.0,1.0,ice_pack_09s.jpg,0.0,Blue.png,4.0,48,,,,,,,,,,,,,,,,,
1.0,1.0,0.765885,0.0,19.0,19.0,19.0,1.0,ice_pack_09s.jpg,1.0,Purple.png,4.0,48,,,,,,,,,,,,,,,,,
1.0,1.0,0.597935,0.0,20.0,20.0,20.0,1.0,ice_pack_09s.jpg,1.0,Red.png,4.0,48,,,,,,,,,,,,,,,,,
0.0,1.0,1.053395,0.0,21.0,21.0,21.0,1.0,blazer_02s.jpg,0.0,Orange.png,4.0,48,,,,,,,,,,,,,,,,,
0.0,1.0,0.88329,0.0,22.0,22.0,22.0,1.0,penlight_12s.jpg,0.0,Yellow.png,4.0,48,,,,,,,,,,,,,,,,,
0.0,1.0,0.99385,0.0,23.0,23.0,23.0,1.0,swan_11s.jpg,0.0,Green.png,4.0,48,,,,,,,,,,,,,,,,,
0.0,1.0,0.91344,0.0,24.0,24.0,24.0,1.0,plunger_08s.jpg,0.0,Blue.png,5.0,48,,,,,,,,,,,,,,,,,
0.0,1.0,0.934555,0.0,25.0,25.0,25.0,1.0,bottle_opener_11s.jpg,0.0,Purple.png,5.0,48,,,,,,,,,,,,,,,,,
0.0,1.0,0.87705,0.0,26.0,26.0,26.0,1.0,checkbook_11s.jpg,0.0,Red.png,5.0,48,,,,,,,,,,,,,,,,,
0.0,1.0,1.179575,0.0,27.0,27.0,27.0,1.0,ink_08s.jpg,0.0,Orange.png,5.0,48,,,,,,,,,,,,,,,,,
0.0,1.0,0.45711,0.0,28.0,28.0,28.0,1.0,plunger_08s.jpg,0.0,Yellow.png,5.0,48,,,,,,,,,,,,,,,,,
0.0,1.0,0.495195,0.0,29.0,29.0,29.0,1.0,pencil02a.jpg,0.0,Green.png,5.0,48,,,,,,,,,,,,,,,,,
0.0,1.0,0.53613,0.0,30.0,30.0,30.0,1.0,ginger_09s.jpg,0.0,Blue.png,6.0,48,,,,,,,,,,,,,,,,,
0.0,1.0,0.622685,0.0,31.0,31.0,31.0,1.0,taxi_15s.jpg,0.0,Purple.png,6.0,48,,,,,,,,,,,,,,,,,
0.0,1.0,1.00621,0.0,32.0,32.0,32.0,1.0,toy_04s.jpg,0.0,Red.png,6.0,48,,,,,,,,,,,,,,,,,
0.0,1.0,0.469005,0.0,33.0,33.0,33.0,1.0,blowfish_03s.jpg,0.0,Orange.png,6.0,48,,,,,,,,,,,,,,,,,
0.0,1.0,0.402235,0.0,34.0,34.0,34.0,1.0,toilet_paper_12s.jpg,0.0,Yellow.png,6.0,48,,,,,,,,,,,,,,,,,
0.0,1.0,0.480685,0.0,35.0,35.0,35.0,1.0,puddle_02s.jpg,0.0,Green.png,6.0,48,,,,,,,,,,,,,,,,,
,,,,,,,,,1.0,,,48,1.0,1.0,2.04776,0.0,0.0,0.0,0.0,1.0,ink_08s.jpg,ginger_09s.jpg,,,,,,,
,,,,,,,,,0.0,,,48,0.0,1.0,1.763435,0.0,1.0,1.0,1.0,1.0,puddle_02s.jpg,toy_04s.jpg,,,,,,,
,,,,,,,,,0.0,,,48,1.0,0.0,1.355915,0.0,2.0,2.0,2.0,1.0,bottle_opener_11s.jpg,penlight_12s.jpg,,,,,,,
,,,,,,,,,0.0,,,48,0.0,1.0,2.094,0.0,3.0,3.0,3.0,1.0,checkbook_11s.jpg,swan_11s.jpg,,,,,,,
,,,,,,,,,1.0,,,48,1.0,1.0,1.656985,0.0,4.0,4.0,4.0,1.0,taxi_15s.jpg,toilet_paper_12s.jpg,,,,,,,
,,,,,,,,,1.0,,,48,0.0,0.0,1.58536,0.0,5.0,5.0,5.0,1.0,crayon_09s.jpg,soda_fountain_03s.jpg,,,,,,,
,,,,,,,,,,,,48,,,,,,,,,,,0.0,4.0,4.0,4.0,1.0,new2backpresent_5_4.xlsx,new2back_compare_task_5_4.xlsx
0.0,1.0,0.879545,0.0,0.0,0.0,0.0,1.0,flask_04s.jpg,0.0,Blue.png,1.0,48,,,,,,,,,,,,,,,,,
0.0,1.0,0.583845,0.0,1.0,1.0,1.0,1.0,kimono_13s.jpg,0.0,Purple.png,1.0,48,,,,,,,,,,,,,,,,,
0.0,1.0,0.51211,0.0,2.0,2.0,2.0,1.0,limousine_12s.jpg,0.0,Red.png,1.0,48,,,,,,,,,,,,,,,,,
0.0,1.0,0.45414,0.0,3.0,3.0,3.0,1.0,lectern_08s.jpg,0.0,Orange.png,1.0,48,,,,,,,,,,,,,,,,,
0.0,1.0,0.56478,0.0,4.0,4.0,4.0,1.0,kimono_13s.jpg,0.0,Yellow.png,1.0,48,,,,,,,,,,,,,,,,,
0.0,1.0,0.466295,0.0,5.0,5.0,5.0,1.0,doily_13s.jpg,0.0,Green.png,1.0,48,,,,,,,,,,,,,,,,,
1.0,1.0,0.730365,0.0,6.0,6.0,6.0,1.0,kimono_13s.jpg,1.0,Blue.png,2.0,48,,,,,,,,,,,,,,,,,
0.0,1.0,0.98241,0.0,7.0,7.0,7.0,1.0,razor_blade_01b.jpg,0.0,Purple.png,2.0,48,,,,,,,,,,,,,,,,,
0.0,1.0,0.87645,0.0,8.0,8.0,8.0,1.0,razor_blade_01b.jpg,0.0,Red.png,2.0,48,,,,,,,,,,,,,,,,,
0.0,1.0,0.826965,0.0,9.0,9.0,9.0,1.0,champagne_18s.jpg,0.0,Orange.png,2.0,48,,,,,,,,,,,,,,,,,
0.0,1.0,0.763965,0.0,10.0,10.0,10.0,1.0,stamp1_11s.jpg,0.0,Yellow.png,2.0,48,,,,,,,,,,,,,,,,,
1.0,1.0,0.53755,0.0,11.0,11.0,11.0,1.0,champagne_18s.jpg,1.0,Green.png,2.0,48,,,,,,,,,,,,,,,,,
0.0,1.0,0.8517,0.0,12.0,12.0,12.0,1.0,crossbow_10s.jpg,0.0,Blue.png,3.0,48,,,,,,,,,,,,,,,,,
0.0,1.0,0.732975,0.0,13.0,13.0,13.0,1.0,briefcase_03s.jpg,0.0,Purple.png,3.0,48,,,,,,,,,,,,,,,,,
0.0,1.0,0.734225,0.0,14.0,14.0,14.0,1.0,jersey_02s.jpg,0.0,Red.png,3.0,48,,,,,,,,,,,,,,,,,
1.0,1.0,0.79792,0.0,15.0,15.0,15.0,1.0,briefcase_03s.jpg,1.0,Orange.png,3.0,48,,,,,,,,,,,,,,,,,
0.0,1.0,0.78746,0.0,16.0,16.0,16.0,1.0,oil_02s.jpg,0.0,Yellow.png,3.0,48,,,,,,,,,,,,,,,,,
0.0,1.0,0.824455,0.0,17.0,17.0,17.0,1.0,tinsel_12s.jpg,0.0,Green.png,3.0,48,,,,,,,,,,,,,,,,,
0.0,1.0,0.7287,0.0,18.0,18.0,18.0,1.0,flask_04s.jpg,0.0,Blue.png,4.0,48,,,,,,,,,,,,,,,,,
0.0,1.0,0.694955,0.0,19.0,19.0,19.0,1.0,fork_04s.jpg,0.0,Purple.png,4.0,48,,,,,,,,,,,,,,,,,
0.0,1.0,0.89482,0.0,20.0,20.0,20.0,1.0,purse_05s.jpg,0.0,Red.png,4.0,48,,,,,,,,,,,,,,,,,
0.0,1.0,1.036255,0.0,21.0,21.0,21.0,1.0,flask_04s.jpg,0.0,Orange.png,4.0,48,,,,,,,,,,,,,,,,,
0.0,1.0,0.86015,0.0,22.0,22.0,22.0,1.0,sledgehammer_03s.jpg,0.0,Yellow.png,4.0,48,,,,,,,,,,,,,,,,,
0.0,1.0,0.74555,0.0,23.0,23.0,23.0,1.0,turf_03s.jpg,0.0,Green.png,4.0,48,,,,,,,,,,,,,,,,,
0.0,1.0,0.45795,0.0,24.0,24.0,24.0,1.0,omelet_07s.jpg,0.0,Blue.png,5.0,48,,,,,,,,,,,,,,,,,
1.0,1.0,1.15115,0.0,25.0,25.0,25.0,1.0,turf_03s.jpg,1.0,Purple.png,5.0,48,,,,,,,,,,,,,,,,,
0.0,1.0,0.684895,0.0,26.0,26.0,26.0,1.0,clover_04s.jpg,0.0,Red.png,5.0,48,,,,,,,,,,,,,,,,,
0.0,1.0,0.450665,0.0,27.0,27.0,27.0,1.0,lip_gloss_06s.jpg,0.0,Orange.png,5.0,48,,,,,,,,,,,,,,,,,
0.0,1.0,0.39435,0.0,28.0,28.0,28.0,1.0,amber_04s.jpg,0.0,Yellow.png,5.0,48,,,,,,,,,,,,,,,,,
0.0,1.0,0.480475,0.0,29.0,29.0,29.0,1.0,tortilla_06s.jpg,0.0,Green.png,5.0,48,,,,,,,,,,,,,,,,,
0.0,1.0,0.452115,0.0,30.0,30.0,30.0,1.0,razor_blade_01b.jpg,0.0,Blue.png,6.0,48,,,,,,,,,,,,,,,,,
0.0,1.0,0.49431,0.0,31.0,31.0,31.0,1.0,tape_measure_11s.jpg,0.0,Purple.png,6.0,48,,,,,,,,,,,,,,,,,
1.0,1.0,1.03501,0.0,32.0,32.0,32.0,1.0,razor_blade_01b.jpg,1.0,Red.png,6.0,48,,,,,,,,,,,,,,,,,
0.0,1.0,1.048845,0.0,33.0,33.0,33.0,1.0,razor_blade_01b.jpg,0.0,Orange.png,6.0,48,,,,,,,,,,,,,,,,,
0.0,1.0,0.544545,0.0,34.0,34.0,34.0,1.0,stingray_02s.jpg,0.0,Yellow.png,6.0,48,,,,,,,,,,,,,,,,,
0.0,1.0,0.40115,0.0,35.0,35.0,35.0,1.0,harpoon.jpg,0.0,Green.png,6.0,48,,,,,,,,,,,,,,,,,
,,,,,,,,,1.0,,,48,0.0,0.0,1.618155,0.0,0.0,0.0,0.0,1.0,oil_02s.jpg,fork_04s.jpg,,,,,,,
,,,,,,,,,0.0,,,48,0.0,1.0,1.46585,0.0,1.0,1.0,1.0,1.0,doily_13s.jpg,limousine_12s.jpg,,,,,,,
,,,,,,,,,0.0,,,48,0.0,1.0,1.54391,0.0,2.0,2.0,2.0,1.0,lip_gloss_06s.jpg,omelet_07s.jpg,,,,,,,
,,,,,,,,,0.0,,,48,0.0,1.0,1.758475,0.0,3.0,3.0,3.0,1.0,tape_measure_11s.jpg,amber_04s.jpg,,,,,,,
,,,,,,,,,0.0,,,48,1.0,0.0,1.750545,0.0,4.0,4.0,4.0,1.0,tortilla_06s.jpg,clover_04s.jpg,,,,,,,
,,,,,,,,,0.0,,,48,0.0,1.0,2.44587,0.0,5.0,5.0,5.0,1.0,purse_05s.jpg,tinsel_12s.jpg,,,,,,,
,,,,,,,,,,,,48,,,,,,,,,,,0.0,5.0,5.0,5.0,1.0,new2backpresent_6_4.xlsx,new2back_compare_task_6_4.xlsx
0.0,1.0,2.330855,0.0,0.0,0.0,0.0,1.0,butter_14s.jpg,0.0,Blue.png,1.0,48,,,,,,,,,,,,,,,,,
0.0,1.0,0.806025,0.0,1.0,1.0,1.0,1.0,butter_14s.jpg,0.0,Purple.png,1.0,48,,,,,,,,,,,,,,,,,
1.0,1.0,0.868675,0.0,2.0,2.0,2.0,1.0,butter_14s.jpg,1.0,Red.png,1.0,48,,,,,,,,,,,,,,,,,
0.0,1.0,0.90552,0.0,3.0,3.0,3.0,1.0,stamp2_08s.jpg,0.0,Orange.png,1.0,48,,,,,,,,,,,,,,,,,
0.0,1.0,0.432495,0.0,4.0,4.0,4.0,1.0,kangaroo_02s.jpg,0.0,Yellow.png,1.0,48,,,,,,,,,,,,,,,,,
0.0,1.0,0.49545,0.0,5.0,5.0,5.0,1.0,camcorder_10s.jpg,0.0,Green.png,1.0,48,,,,,,,,,,,,,,,,,
0.0,1.0,0.42243,0.0,6.0,6.0,6.0,1.0,bank_06s.jpg,0.0,Blue.png,2.0,48,,,,,,,,,,,,,,,,,
0.0,1.0,0.55652,0.0,7.0,7.0,7.0,1.0,gear_07s.jpg,0.0,Purple.png,2.0,48,,,,,,,,,,,,,,,,,
1.0,1.0,1.13897,0.0,8.0,8.0,8.0,1.0,bank_06s.jpg,1.0,Red.png,2.0,48,,,,,,,,,,,,,,,,,
0.0,1.0,0.486655,0.0,9.0,9.0,9.0,1.0,funnel_01b.jpg,0.0,Orange.png,2.0,48,,,,,,,,,,,,,,,,,
0.0,1.0,0.48004,0.0,10.0,10.0,10.0,1.0,poinsettia_04s.jpg,0.0,Yellow.png,2.0,48,,,,,,,,,,,,,,,,,
1.0,1.0,1.142485,0.0,11.0,11.0,11.0,1.0,funnel_01b.jpg,1.0,Green.png,2.0,48,,,,,,,,,,,,,,,,,
0.0,1.0,0.493025,0.0,12.0,12.0,12.0,1.0,rooster_03s.jpg,0.0,Blue.png,3.0,48,,,,,,,,,,,,,,,,,
0.0,1.0,0.371885,0.0,13.0,13.0,13.0,1.0,denture_03s.jpg,0.0,Purple.png,3.0,48,,,,,,,,,,,,,,,,,
0.0,1.0,0.353825,0.0,14.0,14.0,14.0,1.0,bean_06s.jpg,0.0,Red.png,3.0,48,,,,,,,,,,,,,,,,,
0.0,1.0,0.450185,0.0,15.0,15.0,15.0,1.0,mud_13s.jpg,0.0,Orange.png,3.0,48,,,,,,,,,,,,,,,,,
0.0,1.0,0.46408,0.0,16.0,16.0,16.0,1.0,keyhole_03s.jpg,0.0,Yellow.png,3.0,48,,,,,,,,,,,,,,,,,
0.0,1.0,0.435315,0.0,17.0,17.0,17.0,1.0,bean_06s.jpg,0.0,Green.png,3.0,48,,,,,,,,,,,,,,,,,
0.0,1.0,0.4294,0.0,18.0,18.0,18.0,1.0,bank_06s.jpg,0.0,Blue.png,4.0,48,,,,,,,,,,,,,,,,,
0.0,1.0,0.41713,0.0,19.0,19.0,19.0,1.0,pomegranate_04s.jpg,0.0,Purple.png,4.0,48,,,,,,,,,,,,,,,,,
0.0,1.0,0.48134,0.0,20.0,20.0,20.0,1.0,chopsticks_08s.jpg,0.0,Red.png,4.0,48,,,,,,,,,,,,,,,,,
0.0,1.0,0.393055,0.0,21.0,21.0,21.0,1.0,contact_lens_15s.jpg,0.0,Orange.png,4.0,48,,,,,,,,,,,,,,,,,
0.0,1.0,0.494215,0.0,22.0,22.0,22.0,1.0,hydrant_10s.jpg,0.0,Yellow.png,4.0,48,,,,,,,,,,,,,,,,,
0.0,1.0,0.478515,0.0,23.0,23.0,23.0,1.0,gingerbread_man_03s.jpg,0.0,Green.png,4.0,48,,,,,,,,,,,,,,,,,
0.0,1.0,0.393895,0.0,24.0,24.0,24.0,1.0,camcorder_10s.jpg,0.0,Blue.png,5.0,48,,,,,,,,,,,,,,,,,
0.0,1.0,0.60237,0.0,25.0,25.0,25.0,1.0,teabag_12s.jpg,0.0,Purple.png,5.0,48,,,,,,,,,,,,,,,,,
0.0,1.0,0.472975,0.0,26.0,26.0,26.0,1.0,radiator_05s.jpg,0.0,Red.png,5.0,48,,,,,,,,,,,,,,,,,
0.0,1.0,0.50302,0.0,27.0,27.0,27.0,1.0,punch1_10s.jpg,0.0,Orange.png,5.0,48,,,,,,,,,,,,,,,,,
0.0,1.0,0.51865,0.0,28.0,28.0,28.0,1.0,mailbox_11s.jpg,0.0,Yellow.png,5.0,48,,,,,,,,,,,,,,,,,
0.0,1.0,0.38736,0.0,29.0,29.0,29.0,1.0,beaker_01b.jpg,0.0,Green.png,5.0,48,,,,,,,,,,,,,,,,,
1.0,1.0,1.12359,0.0,30.0,30.0,30.0,1.0,mailbox_11s.jpg,1.0,Blue.png,6.0,48,,,,,,,,,,,,,,,,,
0.0,1.0,0.984995,0.0,31.0,31.0,31.0,1.0,pipe1_10s.jpg,0.0,Purple.png,6.0,48,,,,,,,,,,,,,,,,,
1.0,1.0,0.81636,0.0,32.0,32.0,32.0,1.0,mailbox_11s.jpg,1.0,Red.png,6.0,48,,,,,,,,,,,,,,,,,
1.0,1.0,0.98429,0.0,33.0,33.0,33.0,1.0,pipe1_10s.jpg,1.0,Orange.png,6.0,48,,,,,,,,,,,,,,,,,
0.0,1.0,0.98116,0.0,34.0,34.0,34.0,1.0,eyedropper_12s.jpg,0.0,Yellow.png,6.0,48,,,,,,,,,,,,,,,,,
0.0,1.0,0.77919,0.0,35.0,35.0,35.0,1.0,rhubarb_03s.jpg,0.0,Green.png,6.0,48,,,,,,,,,,,,,,,,,
,,,,,,,,,0.0,,,48,0.0,1.0,1.794725,0.0,0.0,0.0,0.0,1.0,mud_13s.jpg,rooster_03s.jpg,,,,,,,
,,,,,,,,,1.0,,,48,1.0,1.0,1.720995,0.0,1.0,1.0,1.0,1.0,chopsticks_08s.jpg,gingerbread_man_03s.jpg,,,,,,,
,,,,,,,,,0.0,,,48,1.0,0.0,1.754405,0.0,2.0,2.0,2.0,1.0,beaker_01b.jpg,radiator_05s.jpg,,,,,,,
,,,,,,,,,0.0,,,48,0.0,1.0,1.331295,0.0,3.0,3.0,3.0,1.0,teabag_12s.jpg,hydrant_10s.jpg,,,,,,,
,,,,,,,,,0.0,,,48,1.0,0.0,1.922345,0.0,4.0,4.0,4.0,1.0,denture_03s.jpg,poinsettia_04s.jpg,,,,,,,
,,,,,,,,,1.0,,,48,1.0,1.0,1.307055,0.0,5.0,5.0,5.0,1.0,kangaroo_02s.jpg,gear_07s.jpg,,,,,,,
,,,,,,,,,,,,48,,,,,,,,,,,0.0,6.0,6.0,6.0,1.0,new2backpresent_7_4.xlsx,new2back_compare_task_7_4.xlsx
0.0,1.0,0.726045,0.0,0.0,0.0,0.0,1.0,lamppost_09s.jpg,0.0,Blue.png,1.0,48,,,,,,,,,,,,,,,,,
0.0,1.0,0.653695,0.0,1.0,1.0,1.0,1.0,jewel_01b.jpg,0.0,Purple.png,1.0,48,,,,,,,,,,,,,,,,,
0.0,1.0,0.842125,0.0,2.0,2.0,2.0,1.0,tuxedo_01b.jpg,0.0,Red.png,1.0,48,,,,,,,,,,,,,,,,,
0.0,1.0,0.57001,0.0,3.0,3.0,3.0,1.0,flip_flop_03s.jpg,0.0,Orange.png,1.0,48,,,,,,,,,,,,,,,,,
0.0,1.0,0.57559,0.0,4.0,4.0,4.0,1.0,medal_04s.jpg,0.0,Yellow.png,1.0,48,,,,,,,,,,,,,,,,,
1.0,1.0,0.896155,0.0,5.0,5.0,5.0,1.0,flip_flop_03s.jpg,1.0,Green.png,1.0,48,,,,,,,,,,,,,,,,,
0.0,1.0,0.43568,0.0,6.0,6.0,6.0,1.0,tuxedo_01b.jpg,0.0,Blue.png,2.0,48,,,,,,,,,,,,,,,,,
1.0,1.0,0.805675,0.0,7.0,7.0,7.0,1.0,flip_flop_03s.jpg,1.0,Purple.png,2.0,48,,,,,,,,,,,,,,,,,
0.0,1.0,0.644015,0.0,8.0,8.0,8.0,1.0,fireworks_18s.jpg,0.0,Red.png,2.0,48,,,,,,,,,,,,,,,,,
0.0,1.0,0.40113,0.0,9.0,9.0,9.0,1.0,squirt_gun_03s.jpg,0.0,Orange.png,2.0,48,,,,,,,,,,,,,,,,,
0.0,1.0,0.60122,0.0,10.0,10.0,10.0,1.0,flip_flop_03s.jpg,0.0,Yellow.png,2.0,48,,,,,,,,,,,,,,,,,
0.0,1.0,0.487505,0.0,11.0,11.0,11.0,1.0,puffin_19s.jpg,0.0,Green.png,2.0,48,,,,,,,,,,,,,,,,,
0.0,1.0,0.371265,0.0,12.0,12.0,12.0,1.0,tuxedo_01b.jpg,0.0,Blue.png,3.0,48,,,,,,,,,,,,,,,,,
0.0,1.0,0.874065,0.0,13.0,13.0,13.0,1.0,tuxedo_01b.jpg,0.0,Purple.png,3.0,48,,,,,,,,,,,,,,,,,
0.0,1.0,0.45737,0.0,14.0,14.0,14.0,1.0,snowman_02s.jpg,0.0,Red.png,3.0,48,,,,,,,,,,,,,,,,,
0.0,1.0,0.417235,0.0,15.0,15.0,15.0,1.0,cucumber_07s.jpg,0.0,Orange.png,3.0,48,,,,,,,,,,,,,,,,,
0.0,1.0,0.50611,0.0,16.0,16.0,16.0,1.0,plug_08s.jpg,0.0,Yellow.png,3.0,48,,,,,,,,,,,,,,,,,
1.0,1.0,0.69482,0.0,17.0,17.0,17.0,1.0,cucumber_07s.jpg,1.0,Green.png,3.0,48,,,,,,,,,,,,,,,,,
0.0,1.0,0.588995,0.0,18.0,18.0,18.0,1.0,puffin_19s.jpg,0.0,Blue.png,4.0,48,,,,,,,,,,,,,,,,,
0.0,1.0,0.93196,0.0,19.0,19.0,19.0,1.0,fondue_07s.jpg,0.0,Purple.png,4.0,48,,,,,,,,,,,,,,,,,
0.0,1.0,0.88307,0.0,20.0,20.0,20.0,1.0,lasagna_06s.jpg,0.0,Red.png,4.0,48,,,,,,,,,,,,,,,,,
0.0,1.0,0.65648,0.0,21.0,21.0,21.0,1.0,eiffeltower.jpg,0.0,Orange.png,4.0,48,,,,,,,,,,,,,,,,,
0.0,1.0,0.767755,0.0,22.0,22.0,22.0,1.0,outlet_10s.jpg,0.0,Yellow.png,4.0,48,,,,,,,,,,,,,,,,,
0.0,1.0,0.70931,0.0,23.0,23.0,23.0,1.0,cape_11s.jpg,0.0,Green.png,4.0,48,,,,,,,,,,,,,,,,,
0.0,1.0,0.40992,0.0,24.0,24.0,24.0,1.0,marshmallow_08s.jpg,0.0,Blue.png,5.0,48,,,,,,,,,,,,,,,,,
0.0,1.0,0.44339,0.0,25.0,25.0,25.0,1.0,racehorse_03s.jpg,0.0,Purple.png,5.0,48,,,,,,,,,,,,,,,,,
0.0,1.0,0.503845,0.0,26.0,26.0,26.0,1.0,aluminum_foil_08s.jpg,0.0,Red.png,5.0,48,,,,,,,,,,,,,,,,,
0.0,1.0,0.41627,0.0,27.0,27.0,27.0,1.0,spoon02a.jpg,0.0,Orange.png,5.0,48,,,,,,,,,,,,,,,,,
0.0,1.0,0.46043,0.0,28.0,28.0,28.0,1.0,padlock_07s.jpg,0.0,Yellow.png,5.0,48,,,,,,,,,,,,,,,,,
0.0,1.0,0.46814,0.0,29.0,29.0,29.0,1.0,solar_panel_02s.jpg,0.0,Green.png,5.0,48,,,,,,,,,,,,,,,,,
0.0,1.0,0.45974,0.0,30.0,30.0,30.0,1.0,turtleneck_11s.jpg,0.0,Blue.png,6.0,48,,,,,,,,,,,,,,,,,
0.0,1.0,0.402125,0.0,31.0,31.0,31.0,1.0,pocketknife_12s.jpg,0.0,Purple.png,6.0,48,,,,,,,,,,,,,,,,,
0.0,1.0,0.769155,0.0,32.0,32.0,32.0,1.0,pocketknife_12s.jpg,0.0,Red.png,6.0,48,,,,,,,,,,,,,,,,,
0.0,1.0,0.47165,0.0,33.0,33.0,33.0,1.0,quill_09s.jpg,0.0,Orange.png,6.0,48,,,,,,,,,,,,,,,,,
0.0,1.0,0.741665,0.0,34.0,34.0,34.0,1.0,quill_09s.jpg,0.0,Yellow.png,6.0,48,,,,,,,,,,,,,,,,,
0.0,1.0,1.03764,0.0,35.0,35.0,35.0,1.0,pocketknife_12s.jpg,0.0,Green.png,6.0,48,,,,,,,,,,,,,,,,,
,,,,,,,,,0.0,,,48,1.0,0.0,1.77125,0.0,0.0,0.0,0.0,1.0,cape_11s.jpg,lasagna_06s.jpg,,,,,,,
,,,,,,,,,0.0,,,48,0.0,1.0,1.17839,0.0,1.0,1.0,1.0,1.0,padlock_07s.jpg,racehorse_03s.jpg,,,,,,,
,,,,,,,,,1.0,,,48,1.0,1.0,1.9693,0.0,2.0,2.0,2.0,1.0,spoon02a.jpg,turtleneck_11s.jpg,,,,,,,
,,,,,,,,,0.0,,,48,0.0,1.0,1.52959,0.0,3.0,3.0,3.0,1.0,marshmallow_08s.jpg,eiffeltower.jpg,,,,,,,
,,,,,,,,,0.0,,,48,0.0,1.0,1.287155,0.0,4.0,4.0,4.0,1.0,medal_04s.jpg,jewel_01b.jpg,,,,,,,
,,,,,,,,,1.0,,,48,0.0,0.0,1.152135,0.0,5.0,5.0,5.0,1.0,plug_08s.jpg,fondue_07s.jpg,,,,,,,
,,,,,,,,,,,,48,,,,,,,,,,,0.0,7.0,7.0,7.0,1.0,new2backpresent_8_4.xlsx,new2back_compare_task_8_4.xlsx
0.0,1.0,0.647015,0.0,0.0,0.0,0.0,1.0,footprint_11s.jpg,0.0,Blue.png,1.0,48,,,,,,,,,,,,,,,,,
0.0,1.0,0.52892,0.0,1.0,1.0,1.0,1.0,coffee_filter_10s.jpg,0.0,Purple.png,1.0,48,,,,,,,,,,,,,,,,,
0.0,1.0,0.501455,0.0,2.0,2.0,2.0,1.0,coffee_filter_10s.jpg,0.0,Red.png,1.0,48,,,,,,,,,,,,,,,,,
1.0,1.0,0.950335,0.0,3.0,3.0,3.0,1.0,coffee_filter_10s.jpg,1.0,Orange.png,1.0,48,,,,,,,,,,,,,,,,,
1.0,1.0,0.74251,0.0,4.0,4.0,4.0,1.0,coffee_filter_10s.jpg,1.0,Yellow.png,1.0,48,,,,,,,,,,,,,,,,,
0.0,1.0,0.52227,0.0,5.0,5.0,5.0,1.0,gargoyle_08s.jpg,0.0,Green.png,1.0,48,,,,,,,,,,,,,,,,,
0.0,1.0,0.4896,0.0,6.0,6.0,6.0,1.0,candy_cane_06s.jpg,0.0,Blue.png,2.0,48,,,,,,,,,,,,,,,,,
0.0,1.0,0.48031,0.0,7.0,7.0,7.0,1.0,toad_09s.jpg,0.0,Purple.png,2.0,48,,,,,,,,,,,,,,,,,
1.0,1.0,1.318345,0.0,8.0,8.0,8.0,1.0,candy_cane_06s.jpg,1.0,Red.png,2.0,48,,,,,,,,,,,,,,,,,
0.0,1.0,0.5262,0.0,9.0,9.0,9.0,1.0,pumpkin_03s.jpg,0.0,Orange.png,2.0,48,,,,,,,,,,,,,,,,,
0.0,1.0,0.388325,0.0,10.0,10.0,10.0,1.0,dashboard_02s.jpg,0.0,Yellow.png,2.0,48,,,,,,,,,,,,,,,,,
0.0,1.0,0.44867,0.0,11.0,11.0,11.0,1.0,syringe_02s.jpg,0.0,Green.png,2.0,48,,,,,,,,,,,,,,,,,
0.0,1.0,0.453825,0.0,12.0,12.0,12.0,1.0,powder_07s.jpg,0.0,Blue.png,3.0,48,,,,,,,,,,,,,,,,,
0.0,1.0,0.61685,0.0,13.0,13.0,13.0,1.0,powder_07s.jpg,0.0,Purple.png,3.0,48,,,,,,,,,,,,,,,,,
1.0,1.0,0.759375,0.0,14.0,14.0,14.0,1.0,powder_07s.jpg,1.0,Red.png,3.0,48,,,,,,,,,,,,,,,,,
0.0,1.0,0.77263,0.0,15.0,15.0,15.0,1.0,sea_urchin_09s.jpg,0.0,Orange.png,3.0,48,,,,,,,,,,,,,,,,,
0.0,1.0,0.371905,0.0,16.0,16.0,16.0,1.0,throne_11s.jpg,0.0,Yellow.png,3.0,48,,,,,,,,,,,,,,,,,
0.0,1.0,0.64235,0.0,17.0,17.0,17.0,1.0,powder_07s.jpg,0.0,Green.png,3.0,48,,,,,,,,,,,,,,,,,
0.0,1.0,0.552535,0.0,18.0,18.0,18.0,1.0,chalice_10s.jpg,0.0,Blue.png,4.0,48,,,,,,,,,,,,,,,,,
0.0,1.0,0.41628,0.0,19.0,19.0,19.0,1.0,air_pump_05s.jpg,0.0,Purple.png,4.0,48,,,,,,,,,,,,,,,,,
0.0,1.0,0.422495,0.0,20.0,20.0,20.0,1.0,microwave_02s.jpg,0.0,Red.png,4.0,48,,,,,,,,,,,,,,,,,
0.0,1.0,0.36448,0.0,21.0,21.0,21.0,1.0,cereal_04s.jpg,0.0,Orange.png,4.0,48,,,,,,,,,,,,,,,,,
0.0,1.0,0.47218,0.0,22.0,22.0,22.0,1.0,mushroom_10n.jpg,0.0,Yellow.png,4.0,48,,,,,,,,,,,,,,,,,
0.0,1.0,0.480655,0.0,23.0,23.0,23.0,1.0,red_carpet_03s.jpg,0.0,Green.png,4.0,48,,,,,,,,,,,,,,,,,
0.0,1.0,0.631925,0.0,24.0,24.0,24.0,1.0,throne_11s.jpg,0.0,Blue.png,5.0,48,,,,,,,,,,,,,,,,,
0.0,1.0,0.45321,0.0,25.0,25.0,25.0,1.0,koala_13s.jpg,0.0,Purple.png,5.0,48,,,,,,,,,,,,,,,,,
1.0,1.0,1.39715,0.0,26.0,26.0,26.0,1.0,throne_11s.jpg,1.0,Red.png,5.0,48,,,,,,,,,,,,,,,,,
0.0,1.0,0.42708,0.0,27.0,27.0,27.0,1.0,rocket_02s.jpg,0.0,Orange.png,5.0,48,,,,,,,,,,,,,,,,,
0.0,1.0,0.47338,0.0,28.0,28.0,28.0,1.0,swordfish_05s.jpg,0.0,Yellow.png,5.0,48,,,,,,,,,,,,,,,,,
1.0,1.0,0.841515,0.0,29.0,29.0,29.0,1.0,rocket_02s.jpg,1.0,Green.png,5.0,48,,,,,,,,,,,,,,,,,
0.0,1.0,0.47063,0.0,30.0,30.0,30.0,1.0,icicle_04s.jpg,0.0,Blue.png,6.0,48,,,,,,,,,,,,,,,,,
0.0,1.0,0.4458,0.0,31.0,31.0,31.0,1.0,keyboard_05s.jpg,0.0,Purple.png,6.0,48,,,,,,,,,,,,,,,,,
0.0,1.0,0.378035,0.0,32.0,32.0,32.0,1.0,pocket_watch_16s.jpg,0.0,Red.png,6.0,48,,,,,,,,,,,,,,,,,
0.0,1.0,0.426565,0.0,33.0,33.0,33.0,1.0,tablet_04s.jpg,0.0,Orange.png,6.0,48,,,,,,,,,,,,,,,,,
0.0,1.0,0.41694,0.0,34.0,34.0,34.0,1.0,chocolate_01b.jpg,0.0,Yellow.png,6.0,48,,,,,,,,,,,,,,,,,
0.0,1.0,0.51165,0.0,35.0,35.0,35.0,1.0,light_switch_02s.jpg,0.0,Green.png,6.0,48,,,,,,,,,,,,,,,,,
,,,,,,,,,0.0,,,48,0.0,1.0,1.818695,0.0,0.0,0.0,0.0,1.0,chalice_10s.jpg,sea_urchin_09s.jpg,,,,,,,
,,,,,,,,,1.0,,,48,1.0,1.0,1.66638,0.0,1.0,1.0,1.0,1.0,swordfish_05s.jpg,keyboard_05s.jpg,,,,,,,
,,,,,,,,,0.0,,,48,1.0,0.0,1.76509,0.0,2.0,2.0,2.0,1.0,red_carpet_03s.jpg,microwave_02s.jpg,,,,,,,
,,,,,,,,,0.0,,,48,0.0,1.0,2.429445,0.0,3.0,3.0,3.0,1.0,dashboard_02s.jpg,toad_09s.jpg,,,,,,,
,,,,,,,,,0.0,,,48,0.0,1.0,1.6348,0.0,4.0,4.0,4.0,1.0,koala_13s.jpg,mushroom_10n.jpg,,,,,,,
,,,,,,,,,1.0,,,48,1.0,1.0,1.304435,0.0,5.0,5.0,5.0,1.0,icicle_04s.jpg,tablet_04s.jpg,,,,,,,
,,,,,,,,,,,,48,,,,,,,,,,,0.0,8.0,8.0,8.0,1.0,new2backpresent_9_4.xlsx,new2back_compare_task_9_4.xlsx
