key_resp.keys,key_resp.corr,key_resp.rt,present_segment.thisRepN,present_segment.thisTrialN,present_segment.thisN,present_segment.thisIndex,present_segment.ran,pictures,answer,clock,segment,participant,key_resp_2.keys,key_resp_2.corr,key_resp_2.rt,compare_segment.thisRepN,compare_segment.thisTrialN,compare_segment.thisN,compare_segment.thisIndex,compare_segment.ran,item_a,item_b,clock_conditions.thisRepN,clock_conditions.thisTrialN,clock_conditions.thisN,clock_conditions.thisIndex,clock_conditions.ran,present,compare
0.0,1.0,1.911,0.0,0.0,0.0,0.0,1.0,insole_11s.jpg,0.0,Blue.png,1.0,56,,,,,,,,,,,,,,,,,
0.0,1.0,1.875,0.0,1.0,1.0,1.0,1.0,tupperware_09s.jpg,0.0,Purple.png,1.0,56,,,,,,,,,,,,,,,,,
1.0,1.0,2.199,0.0,2.0,2.0,2.0,1.0,tupperware_09s.jpg,1.0,Red.png,1.0,56,,,,,,,,,,,,,,,,,
0.0,1.0,1.262,0.0,3.0,3.0,3.0,1.0,fox_13s.jpg,0.0,Orange.png,1.0,56,,,,,,,,,,,,,,,,,
1.0,1.0,1.247,0.0,4.0,4.0,4.0,1.0,tupperware_09s.jpg,1.0,Yellow.png,1.0,56,,,,,,,,,,,,,,,,,
0.0,1.0,1.214,0.0,5.0,5.0,5.0,1.0,lavender_10s.jpg,0.0,Green.png,1.0,56,,,,,,,,,,,,,,,,,
1.0,0.0,1.106,0.0,6.0,6.0,6.0,1.0,tupperware_09s.jpg,0.0,Blue.png,2.0,56,,,,,,,,,,,,,,,,,
0.0,1.0,1.078,0.0,7.0,7.0,7.0,1.0,poinsettia_04s.jpg,0.0,Purple.png,2.0,56,,,,,,,,,,,,,,,,,
0.0,1.0,1.22,0.0,8.0,8.0,8.0,1.0,margarita_03s.jpg,0.0,Red.png,2.0,56,,,,,,,,,,,,,,,,,
0.0,1.0,1.507,0.0,9.0,9.0,9.0,1.0,toothpaste_12s.jpg,0.0,Orange.png,2.0,56,,,,,,,,,,,,,,,,,
0.0,1.0,2.037,0.0,10.0,10.0,10.0,1.0,ladder_15s.jpg,0.0,Yellow.png,2.0,56,,,,,,,,,,,,,,,,,
1.0,0.0,1.59,0.0,11.0,11.0,11.0,1.0,pocketknife_12s.jpg,0.0,Green.png,2.0,56,,,,,,,,,,,,,,,,,
0.0,1.0,1.338,0.0,12.0,12.0,12.0,1.0,spoon02a.jpg,0.0,Blue.png,3.0,56,,,,,,,,,,,,,,,,,
0.0,1.0,1.858,0.0,13.0,13.0,13.0,1.0,mango_09s.jpg,0.0,Purple.png,3.0,56,,,,,,,,,,,,,,,,,
0.0,1.0,1.335,0.0,14.0,14.0,14.0,1.0,chalice_10s.jpg,0.0,Red.png,3.0,56,,,,,,,,,,,,,,,,,
1.0,0.0,1.183,0.0,15.0,15.0,15.0,1.0,pocketknife_12s.jpg,0.0,Orange.png,3.0,56,,,,,,,,,,,,,,,,,
0.0,1.0,1.438,0.0,16.0,16.0,16.0,1.0,abacus_12s.jpg,0.0,Yellow.png,3.0,56,,,,,,,,,,,,,,,,,
1.0,1.0,1.129,0.0,17.0,17.0,17.0,1.0,abacus_12s.jpg,1.0,Green.png,3.0,56,,,,,,,,,,,,,,,,,
1.0,0.0,0.986,0.0,18.0,18.0,18.0,1.0,abacus_12s.jpg,0.0,Blue.png,4.0,56,,,,,,,,,,,,,,,,,
1.0,1.0,1.234,0.0,19.0,19.0,19.0,1.0,abacus_12s.jpg,1.0,Purple.png,4.0,56,,,,,,,,,,,,,,,,,
0.0,1.0,1.349,0.0,20.0,20.0,20.0,1.0,sushi_08s.jpg,0.0,Red.png,4.0,56,,,,,,,,,,,,,,,,,
0.0,1.0,1.446,0.0,21.0,21.0,21.0,1.0,funnel_01b.jpg,0.0,Orange.png,4.0,56,,,,,,,,,,,,,,,,,
0.0,1.0,1.941,0.0,22.0,22.0,22.0,1.0,rooster_03s.jpg,0.0,Yellow.png,4.0,56,,,,,,,,,,,,,,,,,
0.0,1.0,1.539,0.0,23.0,23.0,23.0,1.0,ukulele_02s.jpg,0.0,Green.png,4.0,56,,,,,,,,,,,,,,,,,
1.0,0.0,1.251,0.0,24.0,24.0,24.0,1.0,pocketknife_12s.jpg,0.0,Blue.png,5.0,56,,,,,,,,,,,,,,,,,
1.0,1.0,1.439,0.0,25.0,25.0,25.0,1.0,pocketknife_12s.jpg,1.0,Purple.png,5.0,56,,,,,,,,,,,,,,,,,
1.0,1.0,1.143,0.0,26.0,26.0,26.0,1.0,pocketknife_12s.jpg,1.0,Red.png,5.0,56,,,,,,,,,,,,,,,,,
0.0,1.0,1.339,0.0,27.0,27.0,27.0,1.0,stapler_01b.jpg,0.0,Orange.png,5.0,56,,,,,,,,,,,,,,,,,
0.0,1.0,1.14,0.0,28.0,28.0,28.0,1.0,birthday_cake_09s.jpg,0.0,Yellow.png,5.0,56,,,,,,,,,,,,,,,,,
0.0,1.0,1.459,0.0,29.0,29.0,29.0,1.0,meatball_13s.jpg,0.0,Green.png,5.0,56,,,,,,,,,,,,,,,,,
0.0,1.0,1.382,0.0,30.0,30.0,30.0,1.0,cape_11s.jpg,0.0,Blue.png,6.0,56,,,,,,,,,,,,,,,,,
1.0,1.0,2.32,0.0,31.0,31.0,31.0,1.0,cape_11s.jpg,1.0,Purple.png,6.0,56,,,,,,,,,,,,,,,,,
0.0,1.0,1.245,0.0,32.0,32.0,32.0,1.0,lizard_10n.jpg,0.0,Red.png,6.0,56,,,,,,,,,,,,,,,,,
0.0,1.0,1.343,0.0,33.0,33.0,33.0,1.0,refrigerator_07s.jpg,0.0,Orange.png,6.0,56,,,,,,,,,,,,,,,,,
1.0,1.0,1.965,0.0,34.0,34.0,34.0,1.0,refrigerator_07s.jpg,1.0,Yellow.png,6.0,56,,,,,,,,,,,,,,,,,
0.0,1.0,1.381,0.0,35.0,35.0,35.0,1.0,touchpad_11s.jpg,0.0,Green.png,6.0,56,,,,,,,,,,,,,,,,,
,,,,,,,,,1.0,,,56,1.0,1.0,2.511,0.0,0.0,0.0,0.0,1.0,lavender_10s.jpg,margarita_03s.jpg,,,,,,,
,,,,,,,,,1.0,,,56,1.0,1.0,2.041,0.0,1.0,1.0,1.0,1.0,toothpaste_12s.jpg,spoon02a.jpg,,,,,,,
,,,,,,,,,1.0,,,56,1.0,1.0,2.05,0.0,2.0,2.0,2.0,1.0,ladder_15s.jpg,mango_09s.jpg,,,,,,,
,,,,,,,,,0.0,,,56,0.0,1.0,1.639,0.0,3.0,3.0,3.0,1.0,fox_13s.jpg,insole_11s.jpg,,,,,,,
,,,,,,,,,0.0,,,56,1.0,0.0,2.233,0.0,4.0,4.0,4.0,1.0,ukulele_02s.jpg,sushi_08s.jpg,,,,,,,
,,,,,,,,,0.0,,,56,0.0,1.0,2.05,0.0,5.0,5.0,5.0,1.0,touchpad_11s.jpg,lizard_10n.jpg,,,,,,,
,,,,,,,,,,,,56,,,,,,,,,,,0.0,0.0,0.0,0.0,1.0,newclockpresent_1_2.xlsx,newclock_compare_task_1_2.xlsx
0.0,1.0,1.578,0.0,0.0,0.0,0.0,1.0,juicer2_06s.jpg,0.0,Blue.png,1.0,56,,,,,,,,,,,,,,,,,
1.0,1.0,1.492,0.0,1.0,1.0,1.0,1.0,juicer2_06s.jpg,1.0,Purple.png,1.0,56,,,,,,,,,,,,,,,,,
0.0,1.0,1.408,0.0,2.0,2.0,2.0,1.0,tambourine_06s.jpg,0.0,Red.png,1.0,56,,,,,,,,,,,,,,,,,
0.0,1.0,1.259,0.0,3.0,3.0,3.0,1.0,luggage_08s.jpg,0.0,Orange.png,1.0,56,,,,,,,,,,,,,,,,,
1.0,1.0,1.528,0.0,4.0,4.0,4.0,1.0,tambourine_06s.jpg,1.0,Yellow.png,1.0,56,,,,,,,,,,,,,,,,,
0.0,1.0,1.721,0.0,5.0,5.0,5.0,1.0,towel_rack_04s.jpg,0.0,Green.png,1.0,56,,,,,,,,,,,,,,,,,
0.0,1.0,1.403,0.0,6.0,6.0,6.0,1.0,crayon_09s.jpg,0.0,Blue.png,2.0,56,,,,,,,,,,,,,,,,,
0.0,1.0,1.854,0.0,7.0,7.0,7.0,1.0,gargoyle_08s.jpg,0.0,Purple.png,2.0,56,,,,,,,,,,,,,,,,,
0.0,1.0,1.317,0.0,8.0,8.0,8.0,1.0,boar_10s.jpg,0.0,Red.png,2.0,56,,,,,,,,,,,,,,,,,
1.0,1.0,0.919,0.0,9.0,9.0,9.0,1.0,gargoyle_08s.jpg,1.0,Orange.png,2.0,56,,,,,,,,,,,,,,,,,
0.0,1.0,1.399,0.0,10.0,10.0,10.0,1.0,limousine_12s.jpg,0.0,Yellow.png,2.0,56,,,,,,,,,,,,,,,,,
0.0,1.0,1.36,0.0,11.0,11.0,11.0,1.0,outlet_10s.jpg,0.0,Green.png,2.0,56,,,,,,,,,,,,,,,,,
0.0,1.0,1.619,0.0,12.0,12.0,12.0,1.0,comic_book_02s.jpg,0.0,Blue.png,3.0,56,,,,,,,,,,,,,,,,,
0.0,1.0,1.287,0.0,13.0,13.0,13.0,1.0,mask_09s.jpg,0.0,Purple.png,3.0,56,,,,,,,,,,,,,,,,,
0.0,1.0,1.236,0.0,14.0,14.0,14.0,1.0,lasagna_06s.jpg,0.0,Red.png,3.0,56,,,,,,,,,,,,,,,,,
0.0,1.0,1.582,0.0,15.0,15.0,15.0,1.0,diving_board_07s.jpg,0.0,Orange.png,3.0,56,,,,,,,,,,,,,,,,,
0.0,1.0,1.387,0.0,16.0,16.0,16.0,1.0,lion_18s.jpg,0.0,Yellow.png,3.0,56,,,,,,,,,,,,,,,,,
1.0,1.0,1.886,0.0,17.0,17.0,17.0,1.0,diving_board_07s.jpg,1.0,Green.png,3.0,56,,,,,,,,,,,,,,,,,
1.0,0.0,1.783,0.0,18.0,18.0,18.0,1.0,lion_18s.jpg,0.0,Blue.png,4.0,56,,,,,,,,,,,,,,,,,
0.0,1.0,1.174,0.0,19.0,19.0,19.0,1.0,medal_04s.jpg,0.0,Purple.png,4.0,56,,,,,,,,,,,,,,,,,
0.0,1.0,1.889,0.0,20.0,20.0,20.0,1.0,incense_02s.jpg,0.0,Red.png,4.0,56,,,,,,,,,,,,,,,,,
0.0,1.0,2.009,0.0,21.0,21.0,21.0,1.0,tape_06s.jpg,0.0,Orange.png,4.0,56,,,,,,,,,,,,,,,,,
1.0,1.0,1.63,0.0,22.0,22.0,22.0,1.0,medal_04s.jpg,1.0,Yellow.png,4.0,56,,,,,,,,,,,,,,,,,
0.0,1.0,1.913,0.0,23.0,23.0,23.0,1.0,buoy_04s.jpg,0.0,Green.png,4.0,56,,,,,,,,,,,,,,,,,
1.0,0.0,1.517,0.0,24.0,24.0,24.0,1.0,limousine_12s.jpg,0.0,Blue.png,5.0,56,,,,,,,,,,,,,,,,,
0.0,1.0,1.687,0.0,25.0,25.0,25.0,1.0,jewel_01b.jpg,0.0,Purple.png,5.0,56,,,,,,,,,,,,,,,,,
0.0,1.0,1.817,0.0,26.0,26.0,26.0,1.0,parachute_03s.jpg,0.0,Red.png,5.0,56,,,,,,,,,,,,,,,,,
0.0,1.0,1.361,0.0,27.0,27.0,27.0,1.0,mannequin_05s.jpg,0.0,Orange.png,5.0,56,,,,,,,,,,,,,,,,,
0.0,1.0,1.473,0.0,28.0,28.0,28.0,1.0,snowman_02s.jpg,0.0,Yellow.png,5.0,56,,,,,,,,,,,,,,,,,
0.0,1.0,1.518,0.0,29.0,29.0,29.0,1.0,fossil_06s.jpg,0.0,Green.png,5.0,56,,,,,,,,,,,,,,,,,
0.0,1.0,1.859,0.0,30.0,30.0,30.0,1.0,perfume_06s.jpg,0.0,Blue.png,6.0,56,,,,,,,,,,,,,,,,,
1.0,0.0,1.969,0.0,31.0,31.0,31.0,1.0,fossil_06s.jpg,0.0,Purple.png,6.0,56,,,,,,,,,,,,,,,,,
0.0,1.0,1.602,0.0,32.0,32.0,32.0,1.0,pancake_12s.jpg,0.0,Red.png,6.0,56,,,,,,,,,,,,,,,,,
0.0,1.0,1.684,0.0,33.0,33.0,33.0,1.0,tie_03s.jpg,0.0,Orange.png,6.0,56,,,,,,,,,,,,,,,,,
0.0,0.0,2.026,0.0,34.0,34.0,34.0,1.0,pancake_12s.jpg,1.0,Yellow.png,6.0,56,,,,,,,,,,,,,,,,,
0.0,1.0,1.39,0.0,35.0,35.0,35.0,1.0,padlock_07s.jpg,0.0,Green.png,6.0,56,,,,,,,,,,,,,,,,,
,,,,,,,,,0.0,,,56,0.0,1.0,4.273,0.0,0.0,0.0,0.0,1.0,crayon_09s.jpg,luggage_08s.jpg,,,,,,,
,,,,,,,,,1.0,,,56,1.0,1.0,3.794,0.0,1.0,1.0,1.0,1.0,towel_rack_04s.jpg,boar_10s.jpg,,,,,,,
,,,,,,,,,0.0,,,56,0.0,1.0,3.105,0.0,2.0,2.0,2.0,1.0,lasagna_06s.jpg,outlet_10s.jpg,,,,,,,
,,,,,,,,,1.0,,,56,1.0,1.0,2.068,0.0,3.0,3.0,3.0,1.0,jewel_01b.jpg,snowman_02s.jpg,,,,,,,
,,,,,,,,,0.0,,,56,0.0,1.0,2.776,0.0,4.0,4.0,4.0,1.0,buoy_04s.jpg,incense_02s.jpg,,,,,,,
,,,,,,,,,0.0,,,56,1.0,0.0,1.712,0.0,5.0,5.0,5.0,1.0,tie_03s.jpg,perfume_06s.jpg,,,,,,,
,,,,,,,,,,,,56,,,,,,,,,,,0.0,1.0,1.0,1.0,1.0,newclockpresent_2_2.xlsx,newclock_compare_task_2_2.xlsx
0.0,1.0,1.13,0.0,0.0,0.0,0.0,1.0,surfboard_11s.jpg,0.0,Blue.png,1.0,56,,,,,,,,,,,,,,,,,
1.0,1.0,1.237,0.0,1.0,1.0,1.0,1.0,surfboard_11s.jpg,1.0,Purple.png,1.0,56,,,,,,,,,,,,,,,,,
1.0,1.0,1.06,0.0,2.0,2.0,2.0,1.0,surfboard_11s.jpg,1.0,Red.png,1.0,56,,,,,,,,,,,,,,,,,
0.0,1.0,1.465,0.0,3.0,3.0,3.0,1.0,badge_03s.jpg,0.0,Orange.png,1.0,56,,,,,,,,,,,,,,,,,
,0.0,,0.0,4.0,4.0,4.0,1.0,surfboard_11s.jpg,1.0,Yellow.png,1.0,56,,,,,,,,,,,,,,,,,
1.0,1.0,1.566,0.0,5.0,5.0,5.0,1.0,surfboard_11s.jpg,1.0,Green.png,1.0,56,,,,,,,,,,,,,,,,,
1.0,0.0,1.358,0.0,6.0,6.0,6.0,1.0,surfboard_11s.jpg,0.0,Blue.png,2.0,56,,,,,,,,,,,,,,,,,
0.0,1.0,1.295,0.0,7.0,7.0,7.0,1.0,playpen_11s.jpg,0.0,Purple.png,2.0,56,,,,,,,,,,,,,,,,,
1.0,1.0,1.387,0.0,8.0,8.0,8.0,1.0,surfboard_11s.jpg,1.0,Red.png,2.0,56,,,,,,,,,,,,,,,,,
,0.0,,0.0,9.0,9.0,9.0,1.0,popcorn_09s.jpg,0.0,Orange.png,2.0,56,,,,,,,,,,,,,,,,,
1.0,1.0,1.77,0.0,10.0,10.0,10.0,1.0,surfboard_11s.jpg,1.0,Yellow.png,2.0,56,,,,,,,,,,,,,,,,,
1.0,1.0,1.602,0.0,11.0,11.0,11.0,1.0,popcorn_09s.jpg,1.0,Green.png,2.0,56,,,,,,,,,,,,,,,,,
0.0,1.0,1.388,0.0,12.0,12.0,12.0,1.0,lollipop_08s.jpg,0.0,Blue.png,3.0,56,,,,,,,,,,,,,,,,,
1.0,0.0,1.508,0.0,13.0,13.0,13.0,1.0,popcorn_09s.jpg,0.0,Purple.png,3.0,56,,,,,,,,,,,,,,,,,
0.0,1.0,1.389,0.0,14.0,14.0,14.0,1.0,fire_pit_10s.jpg,0.0,Red.png,3.0,56,,,,,,,,,,,,,,,,,
0.0,1.0,2.019,0.0,15.0,15.0,15.0,1.0,joystick_01b.jpg,0.0,Orange.png,3.0,56,,,,,,,,,,,,,,,,,
0.0,1.0,1.825,0.0,16.0,16.0,16.0,1.0,panda_02s.jpg,0.0,Yellow.png,3.0,56,,,,,,,,,,,,,,,,,
0.0,1.0,1.541,0.0,17.0,17.0,17.0,1.0,sundae_08s.jpg,0.0,Green.png,3.0,56,,,,,,,,,,,,,,,,,
0.0,1.0,1.888,0.0,18.0,18.0,18.0,1.0,boomerang_06s.jpg,0.0,Blue.png,4.0,56,,,,,,,,,,,,,,,,,
0.0,1.0,1.25,0.0,19.0,19.0,19.0,1.0,bagel_15s.jpg,0.0,Purple.png,4.0,56,,,,,,,,,,,,,,,,,
0.0,1.0,1.395,0.0,20.0,20.0,20.0,1.0,powder_07s.jpg,0.0,Red.png,4.0,56,,,,,,,,,,,,,,,,,
0.0,1.0,1.561,0.0,21.0,21.0,21.0,1.0,lipstick_02s.jpg,0.0,Orange.png,4.0,56,,,,,,,,,,,,,,,,,
1.0,1.0,1.837,0.0,22.0,22.0,22.0,1.0,bagel_15s.jpg,1.0,Yellow.png,4.0,56,,,,,,,,,,,,,,,,,
0.0,1.0,1.224,0.0,23.0,23.0,23.0,1.0,ladle_04s.jpg,0.0,Green.png,4.0,56,,,,,,,,,,,,,,,,,
0.0,1.0,1.303,0.0,24.0,24.0,24.0,1.0,megaphone_03s.jpg,0.0,Blue.png,5.0,56,,,,,,,,,,,,,,,,,
0.0,1.0,1.072,0.0,25.0,25.0,25.0,1.0,puck_06s.jpg,0.0,Purple.png,5.0,56,,,,,,,,,,,,,,,,,
0.0,1.0,1.476,0.0,26.0,26.0,26.0,1.0,cardinal_07s.jpg,0.0,Red.png,5.0,56,,,,,,,,,,,,,,,,,
0.0,0.0,1.236,0.0,27.0,27.0,27.0,1.0,puck_06s.jpg,1.0,Orange.png,5.0,56,,,,,,,,,,,,,,,,,
0.0,1.0,1.581,0.0,28.0,28.0,28.0,1.0,bee_20s.jpg,0.0,Yellow.png,5.0,56,,,,,,,,,,,,,,,,,
0.0,1.0,1.5,0.0,29.0,29.0,29.0,1.0,toilet_paper_12s.jpg,0.0,Green.png,5.0,56,,,,,,,,,,,,,,,,,
0.0,1.0,1.722,0.0,30.0,30.0,30.0,1.0,mud_13s.jpg,0.0,Blue.png,6.0,56,,,,,,,,,,,,,,,,,
0.0,1.0,1.435,0.0,31.0,31.0,31.0,1.0,measuring_cup_02s.jpg,0.0,Purple.png,6.0,56,,,,,,,,,,,,,,,,,
0.0,1.0,1.342,0.0,32.0,32.0,32.0,1.0,ostrich_06s.jpg,0.0,Red.png,6.0,56,,,,,,,,,,,,,,,,,
0.0,1.0,1.723,0.0,33.0,33.0,33.0,1.0,raspberry_12s.jpg,0.0,Orange.png,6.0,56,,,,,,,,,,,,,,,,,
1.0,1.0,1.439,0.0,34.0,34.0,34.0,1.0,mud_13s.jpg,1.0,Yellow.png,6.0,56,,,,,,,,,,,,,,,,,
0.0,1.0,1.955,0.0,35.0,35.0,35.0,1.0,radiator_05s.jpg,0.0,Green.png,6.0,56,,,,,,,,,,,,,,,,,
,,,,,,,,,0.0,,,56,1.0,0.0,3.85,0.0,0.0,0.0,0.0,1.0,measuring_cup_02s.jpg,bee_20s.jpg,,,,,,,
,,,,,,,,,1.0,,,56,1.0,1.0,2.408,0.0,1.0,1.0,1.0,1.0,lipstick_02s.jpg,megaphone_03s.jpg,,,,,,,
,,,,,,,,,0.0,,,56,0.0,1.0,2.053,0.0,2.0,2.0,2.0,1.0,boomerang_06s.jpg,joystick_01b.jpg,,,,,,,
,,,,,,,,,0.0,,,56,0.0,1.0,2.947,0.0,3.0,3.0,3.0,1.0,sundae_08s.jpg,fire_pit_10s.jpg,,,,,,,
,,,,,,,,,0.0,,,56,1.0,0.0,2.922,0.0,4.0,4.0,4.0,1.0,radiator_05s.jpg,ostrich_06s.jpg,,,,,,,
,,,,,,,,,0.0,,,56,0.0,1.0,3.106,0.0,5.0,5.0,5.0,1.0,ladle_04s.jpg,powder_07s.jpg,,,,,,,
,,,,,,,,,,,,56,,,,,,,,,,,0.0,2.0,2.0,2.0,1.0,newclockpresent_3_2.xlsx,newclock_compare_task_3_2.xlsx
,0.0,,0.0,0.0,0.0,0.0,1.0,glasses01a.jpg,0.0,Blue.png,1.0,56,,,,,,,,,,,,,,,,,
0.0,1.0,1.185,0.0,1.0,1.0,1.0,1.0,piano_13n.jpg,0.0,Purple.png,1.0,56,,,,,,,,,,,,,,,,,
0.0,1.0,1.412,0.0,2.0,2.0,2.0,1.0,candy_cane_06s.jpg,0.0,Red.png,1.0,56,,,,,,,,,,,,,,,,,
0.0,1.0,1.195,0.0,3.0,3.0,3.0,1.0,cushion_08s.jpg,0.0,Orange.png,1.0,56,,,,,,,,,,,,,,,,,
1.0,1.0,1.48,0.0,4.0,4.0,4.0,1.0,candy_cane_06s.jpg,1.0,Yellow.png,1.0,56,,,,,,,,,,,,,,,,,
1.0,1.0,1.062,0.0,5.0,5.0,5.0,1.0,candy_cane_06s.jpg,1.0,Green.png,1.0,56,,,,,,,,,,,,,,,,,
0.0,1.0,1.985,0.0,6.0,6.0,6.0,1.0,rosary_03s.jpg,0.0,Blue.png,2.0,56,,,,,,,,,,,,,,,,,
1.0,1.0,2.296,0.0,7.0,7.0,7.0,1.0,rosary_03s.jpg,1.0,Purple.png,2.0,56,,,,,,,,,,,,,,,,,
1.0,1.0,1.205,0.0,8.0,8.0,8.0,1.0,rosary_03s.jpg,1.0,Red.png,2.0,56,,,,,,,,,,,,,,,,,
1.0,1.0,1.101,0.0,9.0,9.0,9.0,1.0,rosary_03s.jpg,1.0,Orange.png,2.0,56,,,,,,,,,,,,,,,,,
0.0,1.0,2.106,0.0,10.0,10.0,10.0,1.0,kangaroo_02s.jpg,0.0,Yellow.png,2.0,56,,,,,,,,,,,,,,,,,
1.0,1.0,2.065,0.0,11.0,11.0,11.0,1.0,kangaroo_02s.jpg,1.0,Green.png,2.0,56,,,,,,,,,,,,,,,,,
1.0,0.0,1.455,0.0,12.0,12.0,12.0,1.0,kangaroo_02s.jpg,0.0,Blue.png,3.0,56,,,,,,,,,,,,,,,,,
1.0,1.0,1.245,0.0,13.0,13.0,13.0,1.0,kangaroo_02s.jpg,1.0,Purple.png,3.0,56,,,,,,,,,,,,,,,,,
0.0,1.0,2.192,0.0,14.0,14.0,14.0,1.0,ironing_board_07s.jpg,0.0,Red.png,3.0,56,,,,,,,,,,,,,,,,,
1.0,1.0,1.834,0.0,15.0,15.0,15.0,1.0,kangaroo_02s.jpg,1.0,Orange.png,3.0,56,,,,,,,,,,,,,,,,,
0.0,1.0,1.782,0.0,16.0,16.0,16.0,1.0,punch2_09s.jpg,0.0,Yellow.png,3.0,56,,,,,,,,,,,,,,,,,
1.0,1.0,1.823,0.0,17.0,17.0,17.0,1.0,ironing_board_07s.jpg,1.0,Green.png,3.0,56,,,,,,,,,,,,,,,,,
0.0,1.0,2.054,0.0,18.0,18.0,18.0,1.0,owl_15s.jpg,0.0,Blue.png,4.0,56,,,,,,,,,,,,,,,,,
0.0,1.0,2.148,0.0,19.0,19.0,19.0,1.0,teabag_12s.jpg,0.0,Purple.png,4.0,56,,,,,,,,,,,,,,,,,
1.0,1.0,1.65,0.0,20.0,20.0,20.0,1.0,owl_15s.jpg,1.0,Red.png,4.0,56,,,,,,,,,,,,,,,,,
0.0,1.0,1.91,0.0,21.0,21.0,21.0,1.0,otter_05s.jpg,0.0,Orange.png,4.0,56,,,,,,,,,,,,,,,,,
1.0,1.0,1.606,0.0,22.0,22.0,22.0,1.0,owl_15s.jpg,1.0,Yellow.png,4.0,56,,,,,,,,,,,,,,,,,
0.0,1.0,2.403,0.0,23.0,23.0,23.0,1.0,mold2_04s.jpg,0.0,Green.png,4.0,56,,,,,,,,,,,,,,,,,
0.0,1.0,2.271,0.0,24.0,24.0,24.0,1.0,mattress_01s.jpg,0.0,Blue.png,5.0,56,,,,,,,,,,,,,,,,,
0.0,1.0,2.033,0.0,25.0,25.0,25.0,1.0,police_car_01s.jpg,0.0,Purple.png,5.0,56,,,,,,,,,,,,,,,,,
0.0,1.0,1.265,0.0,26.0,26.0,26.0,1.0,stethoscope_01b.jpg,0.0,Red.png,5.0,56,,,,,,,,,,,,,,,,,
1.0,1.0,2.289,0.0,27.0,27.0,27.0,1.0,police_car_01s.jpg,1.0,Orange.png,5.0,56,,,,,,,,,,,,,,,,,
0.0,1.0,1.14,0.0,28.0,28.0,28.0,1.0,sparkler_02s.jpg,0.0,Yellow.png,5.0,56,,,,,,,,,,,,,,,,,
0.0,1.0,1.259,0.0,29.0,29.0,29.0,1.0,pacifier_09s.jpg,0.0,Green.png,5.0,56,,,,,,,,,,,,,,,,,
0.0,1.0,1.268,0.0,30.0,30.0,30.0,1.0,machine_gun_09s.jpg,0.0,Blue.png,6.0,56,,,,,,,,,,,,,,,,,
0.0,1.0,1.393,0.0,31.0,31.0,31.0,1.0,ram_05s.jpg,0.0,Purple.png,6.0,56,,,,,,,,,,,,,,,,,
0.0,1.0,1.329,0.0,32.0,32.0,32.0,1.0,keyboard_05s.jpg,0.0,Red.png,6.0,56,,,,,,,,,,,,,,,,,
0.0,1.0,1.517,0.0,33.0,33.0,33.0,1.0,leash_10s.jpg,0.0,Orange.png,6.0,56,,,,,,,,,,,,,,,,,
0.0,1.0,1.251,0.0,34.0,34.0,34.0,1.0,pan_02s.jpg,0.0,Yellow.png,6.0,56,,,,,,,,,,,,,,,,,
0.0,1.0,1.351,0.0,35.0,35.0,35.0,1.0,mixer_12s.jpg,0.0,Green.png,6.0,56,,,,,,,,,,,,,,,,,
,,,,,,,,,0.0,,,56,0.0,1.0,5.193,0.0,0.0,0.0,0.0,1.0,teabag_12s.jpg,punch2_09s.jpg,,,,,,,
,,,,,,,,,0.0,,,56,0.0,1.0,2.267,0.0,1.0,1.0,1.0,1.0,mattress_01s.jpg,otter_05s.jpg,,,,,,,
,,,,,,,,,0.0,,,56,0.0,1.0,2.385,0.0,2.0,2.0,2.0,1.0,stethoscope_01b.jpg,mold2_04s.jpg,,,,,,,
,,,,,,,,,1.0,,,56,1.0,1.0,2.693,0.0,3.0,3.0,3.0,1.0,glasses01a.jpg,cushion_08s.jpg,,,,,,,
,,,,,,,,,1.0,,,56,1.0,1.0,2.543,0.0,4.0,4.0,4.0,1.0,machine_gun_09s.jpg,leash_10s.jpg,,,,,,,
,,,,,,,,,0.0,,,56,1.0,0.0,2.507,0.0,5.0,5.0,5.0,1.0,pan_02s.jpg,ram_05s.jpg,,,,,,,
,,,,,,,,,,,,56,,,,,,,,,,,0.0,3.0,3.0,3.0,1.0,newclockpresent_4_2.xlsx,newclock_compare_task_4_2.xlsx
0.0,1.0,2.235,0.0,0.0,0.0,0.0,1.0,golf_club_03s.jpg,0.0,Blue.png,1.0,56,,,,,,,,,,,,,,,,,
1.0,1.0,1.077,0.0,1.0,1.0,1.0,1.0,golf_club_03s.jpg,1.0,Purple.png,1.0,56,,,,,,,,,,,,,,,,,
1.0,1.0,0.844,0.0,2.0,2.0,2.0,1.0,golf_club_03s.jpg,1.0,Red.png,1.0,56,,,,,,,,,,,,,,,,,
0.0,1.0,2.065,0.0,3.0,3.0,3.0,1.0,turnstile_08s.jpg,0.0,Orange.png,1.0,56,,,,,,,,,,,,,,,,,
1.0,1.0,1.98,0.0,4.0,4.0,4.0,1.0,golf_club_03s.jpg,1.0,Yellow.png,1.0,56,,,,,,,,,,,,,,,,,
0.0,1.0,1.135,0.0,5.0,5.0,5.0,1.0,milk_02s.jpg,0.0,Green.png,1.0,56,,,,,,,,,,,,,,,,,
0.0,1.0,1.46,0.0,6.0,6.0,6.0,1.0,orange_12s.jpg,0.0,Blue.png,2.0,56,,,,,,,,,,,,,,,,,
0.0,1.0,1.085,0.0,7.0,7.0,7.0,1.0,milk_02s.jpg,0.0,Purple.png,2.0,56,,,,,,,,,,,,,,,,,
0.0,1.0,1.355,0.0,8.0,8.0,8.0,1.0,latch_15s.jpg,0.0,Red.png,2.0,56,,,,,,,,,,,,,,,,,
0.0,1.0,1.497,0.0,9.0,9.0,9.0,1.0,bank_06s.jpg,0.0,Orange.png,2.0,56,,,,,,,,,,,,,,,,,
0.0,0.0,1.308,0.0,10.0,10.0,10.0,1.0,milk_02s.jpg,1.0,Yellow.png,2.0,56,,,,,,,,,,,,,,,,,
0.0,1.0,1.194,0.0,11.0,11.0,11.0,1.0,crab_16s.jpg,0.0,Green.png,2.0,56,,,,,,,,,,,,,,,,,
0.0,1.0,1.861,0.0,12.0,12.0,12.0,1.0,birdcage_08s.jpg,0.0,Blue.png,3.0,56,,,,,,,,,,,,,,,,,
1.0,0.0,1.913,0.0,13.0,13.0,13.0,1.0,spider_web_03s.jpg,0.0,Purple.png,3.0,56,,,,,,,,,,,,,,,,,
0.0,1.0,1.189,0.0,14.0,14.0,14.0,1.0,knitting_needle_04s.jpg,0.0,Red.png,3.0,56,,,,,,,,,,,,,,,,,
0.0,1.0,1.508,0.0,15.0,15.0,15.0,1.0,sugar_cube_11s.jpg,0.0,Orange.png,3.0,56,,,,,,,,,,,,,,,,,
0.0,1.0,1.4,0.0,16.0,16.0,16.0,1.0,light_switch_02s.jpg,0.0,Yellow.png,3.0,56,,,,,,,,,,,,,,,,,
0.0,1.0,1.29,0.0,17.0,17.0,17.0,1.0,gear_07s.jpg,0.0,Green.png,3.0,56,,,,,,,,,,,,,,,,,
0.0,1.0,1.599,0.0,18.0,18.0,18.0,1.0,tongs_08s.jpg,0.0,Blue.png,4.0,56,,,,,,,,,,,,,,,,,
0.0,1.0,1.338,0.0,19.0,19.0,19.0,1.0,recliner_02s.jpg,0.0,Purple.png,4.0,56,,,,,,,,,,,,,,,,,
0.0,1.0,1.276,0.0,20.0,20.0,20.0,1.0,orangutan_03s.jpg,0.0,Red.png,4.0,56,,,,,,,,,,,,,,,,,
1.0,0.0,2.046,0.0,21.0,21.0,21.0,1.0,golf_club_03s.jpg,0.0,Orange.png,4.0,56,,,,,,,,,,,,,,,,,
0.0,1.0,1.24,0.0,22.0,22.0,22.0,1.0,lava_02s.jpg,0.0,Yellow.png,4.0,56,,,,,,,,,,,,,,,,,
0.0,1.0,1.372,0.0,23.0,23.0,23.0,1.0,toilet_07s.jpg,0.0,Green.png,4.0,56,,,,,,,,,,,,,,,,,
0.0,1.0,1.561,0.0,24.0,24.0,24.0,1.0,turnstile_08s.jpg,0.0,Blue.png,5.0,56,,,,,,,,,,,,,,,,,
1.0,1.0,2.261,0.0,25.0,25.0,25.0,1.0,turnstile_08s.jpg,1.0,Purple.png,5.0,56,,,,,,,,,,,,,,,,,
0.0,1.0,1.482,0.0,26.0,26.0,26.0,1.0,teacup_07s.jpg,0.0,Red.png,5.0,56,,,,,,,,,,,,,,,,,
1.0,1.0,1.96,0.0,27.0,27.0,27.0,1.0,turnstile_08s.jpg,1.0,Orange.png,5.0,56,,,,,,,,,,,,,,,,,
1.0,1.0,1.876,0.0,28.0,28.0,28.0,1.0,turnstile_08s.jpg,1.0,Yellow.png,5.0,56,,,,,,,,,,,,,,,,,
0.0,1.0,1.886,0.0,29.0,29.0,29.0,1.0,antenna_01b.jpg,0.0,Green.png,5.0,56,,,,,,,,,,,,,,,,,
0.0,1.0,1.316,0.0,30.0,30.0,30.0,1.0,keyhole_03s.jpg,0.0,Blue.png,6.0,56,,,,,,,,,,,,,,,,,
0.0,1.0,1.411,0.0,31.0,31.0,31.0,1.0,air_pump_05s.jpg,0.0,Purple.png,6.0,56,,,,,,,,,,,,,,,,,
0.0,1.0,1.352,0.0,32.0,32.0,32.0,1.0,eggshell_14s.jpg,0.0,Red.png,6.0,56,,,,,,,,,,,,,,,,,
0.0,1.0,1.538,0.0,33.0,33.0,33.0,1.0,eyedropper_12s.jpg,0.0,Orange.png,6.0,56,,,,,,,,,,,,,,,,,
0.0,1.0,1.31,0.0,34.0,34.0,34.0,1.0,machete_06s.jpg,0.0,Yellow.png,6.0,56,,,,,,,,,,,,,,,,,
1.0,1.0,1.993,0.0,35.0,35.0,35.0,1.0,eyedropper_12s.jpg,1.0,Green.png,6.0,56,,,,,,,,,,,,,,,,,
,,,,,,,,,1.0,,,56,0.0,0.0,3.104,0.0,0.0,0.0,0.0,1.0,sugar_cube_11s.jpg,tongs_08s.jpg,,,,,,,
,,,,,,,,,1.0,,,56,0.0,0.0,3.229,0.0,1.0,1.0,1.0,1.0,antenna_01b.jpg,eggshell_14s.jpg,,,,,,,
,,,,,,,,,1.0,,,56,1.0,1.0,2.669,0.0,2.0,2.0,2.0,1.0,bank_06s.jpg,birdcage_08s.jpg,,,,,,,
,,,,,,,,,1.0,,,56,0.0,0.0,2.419,0.0,3.0,3.0,3.0,1.0,air_pump_05s.jpg,machete_06s.jpg,,,,,,,
,,,,,,,,,1.0,,,56,1.0,1.0,2.331,0.0,4.0,4.0,4.0,1.0,latch_15s.jpg,crab_16s.jpg,,,,,,,
,,,,,,,,,1.0,,,56,1.0,1.0,2.344,0.0,5.0,5.0,5.0,1.0,spider_web_03s.jpg,light_switch_02s.jpg,,,,,,,
,,,,,,,,,,,,56,,,,,,,,,,,0.0,4.0,4.0,4.0,1.0,newclockpresent_5_2.xlsx,newclock_compare_task_5_2.xlsx
0.0,1.0,2.13,0.0,0.0,0.0,0.0,1.0,gazelle_10s.jpg,0.0,Blue.png,1.0,56,,,,,,,,,,,,,,,,,
0.0,1.0,1.692,0.0,1.0,1.0,1.0,1.0,saddle_06s.jpg,0.0,Purple.png,1.0,56,,,,,,,,,,,,,,,,,
1.0,1.0,2.176,0.0,2.0,2.0,2.0,1.0,saddle_06s.jpg,1.0,Red.png,1.0,56,,,,,,,,,,,,,,,,,
0.0,1.0,1.288,0.0,3.0,3.0,3.0,1.0,kimono_13s.jpg,0.0,Orange.png,1.0,56,,,,,,,,,,,,,,,,,
0.0,1.0,1.151,0.0,4.0,4.0,4.0,1.0,timer_03s.jpg,0.0,Yellow.png,1.0,56,,,,,,,,,,,,,,,,,
0.0,1.0,1.746,0.0,5.0,5.0,5.0,1.0,tulip_02s.jpg,0.0,Green.png,1.0,56,,,,,,,,,,,,,,,,,
0.0,1.0,1.784,0.0,6.0,6.0,6.0,1.0,prism_10s.jpg,0.0,Blue.png,2.0,56,,,,,,,,,,,,,,,,,
0.0,1.0,1.351,0.0,7.0,7.0,7.0,1.0,razor_12s.jpg,0.0,Purple.png,2.0,56,,,,,,,,,,,,,,,,,
0.0,1.0,1.601,0.0,8.0,8.0,8.0,1.0,blazer_02s.jpg,0.0,Red.png,2.0,56,,,,,,,,,,,,,,,,,
1.0,1.0,2.002,0.0,9.0,9.0,9.0,1.0,razor_12s.jpg,1.0,Orange.png,2.0,56,,,,,,,,,,,,,,,,,
0.0,1.0,1.816,0.0,10.0,10.0,10.0,1.0,lamb_chop_07s.jpg,0.0,Yellow.png,2.0,56,,,,,,,,,,,,,,,,,
1.0,1.0,2.029,0.0,11.0,11.0,11.0,1.0,razor_12s.jpg,1.0,Green.png,2.0,56,,,,,,,,,,,,,,,,,
1.0,0.0,1.812,0.0,12.0,12.0,12.0,1.0,lamb_chop_07s.jpg,0.0,Blue.png,3.0,56,,,,,,,,,,,,,,,,,
1.0,1.0,0.958,0.0,13.0,13.0,13.0,1.0,lamb_chop_07s.jpg,1.0,Purple.png,3.0,56,,,,,,,,,,,,,,,,,
1.0,0.0,1.389,0.0,14.0,14.0,14.0,1.0,timer_03s.jpg,0.0,Red.png,3.0,56,,,,,,,,,,,,,,,,,
1.0,1.0,1.52,0.0,15.0,15.0,15.0,1.0,lamb_chop_07s.jpg,1.0,Orange.png,3.0,56,,,,,,,,,,,,,,,,,
0.0,1.0,1.735,0.0,16.0,16.0,16.0,1.0,glue_01s.jpg,0.0,Yellow.png,3.0,56,,,,,,,,,,,,,,,,,
0.0,1.0,1.618,0.0,17.0,17.0,17.0,1.0,solar_panel_02s.jpg,0.0,Green.png,3.0,56,,,,,,,,,,,,,,,,,
0.0,1.0,1.393,0.0,18.0,18.0,18.0,1.0,muffin_12n.jpg,0.0,Blue.png,4.0,56,,,,,,,,,,,,,,,,,
0.0,1.0,1.542,0.0,19.0,19.0,19.0,1.0,pepper2_21s.jpg,0.0,Purple.png,4.0,56,,,,,,,,,,,,,,,,,
0.0,1.0,1.25,0.0,20.0,20.0,20.0,1.0,marker_05s.jpg,0.0,Red.png,4.0,56,,,,,,,,,,,,,,,,,
0.0,1.0,1.91,0.0,21.0,21.0,21.0,1.0,soccer_ball_12s.jpg,0.0,Orange.png,4.0,56,,,,,,,,,,,,,,,,,
0.0,1.0,1.564,0.0,22.0,22.0,22.0,1.0,amber_04s.jpg,0.0,Yellow.png,4.0,56,,,,,,,,,,,,,,,,,
0.0,1.0,1.476,0.0,23.0,23.0,23.0,1.0,stopwatch_04s.jpg,0.0,Green.png,4.0,56,,,,,,,,,,,,,,,,,
1.0,0.0,2.273,0.0,24.0,24.0,24.0,1.0,amber_04s.jpg,0.0,Blue.png,5.0,56,,,,,,,,,,,,,,,,,
0.0,1.0,1.627,0.0,25.0,25.0,25.0,1.0,racehorse_03s.jpg,0.0,Purple.png,5.0,56,,,,,,,,,,,,,,,,,
1.0,1.0,2.036,0.0,26.0,26.0,26.0,1.0,amber_04s.jpg,1.0,Red.png,5.0,56,,,,,,,,,,,,,,,,,
0.0,1.0,1.392,0.0,27.0,27.0,27.0,1.0,duck_01b.jpg,0.0,Orange.png,5.0,56,,,,,,,,,,,,,,,,,
1.0,1.0,1.155,0.0,28.0,28.0,28.0,1.0,amber_04s.jpg,1.0,Yellow.png,5.0,56,,,,,,,,,,,,,,,,,
1.0,1.0,1.262,0.0,29.0,29.0,29.0,1.0,duck_01b.jpg,1.0,Green.png,5.0,56,,,,,,,,,,,,,,,,,
1.0,0.0,1.013,0.0,30.0,30.0,30.0,1.0,duck_01b.jpg,0.0,Blue.png,6.0,56,,,,,,,,,,,,,,,,,
1.0,1.0,1.211,0.0,31.0,31.0,31.0,1.0,duck_01b.jpg,1.0,Purple.png,6.0,56,,,,,,,,,,,,,,,,,
0.0,1.0,2.416,0.0,32.0,32.0,32.0,1.0,magnet_03s.jpg,0.0,Red.png,6.0,56,,,,,,,,,,,,,,,,,
1.0,1.0,2.141,0.0,33.0,33.0,33.0,1.0,duck_01b.jpg,1.0,Orange.png,6.0,56,,,,,,,,,,,,,,,,,
0.0,1.0,1.251,0.0,34.0,34.0,34.0,1.0,swimming_pool_17s.jpg,0.0,Yellow.png,6.0,56,,,,,,,,,,,,,,,,,
0.0,1.0,1.265,0.0,35.0,35.0,35.0,1.0,roulette_wheel_04s.jpg,0.0,Green.png,6.0,56,,,,,,,,,,,,,,,,,
,,,,,,,,,0.0,,,56,1.0,0.0,3.933,0.0,0.0,0.0,0.0,1.0,blazer_02s.jpg,tulip_02s.jpg,,,,,,,
,,,,,,,,,1.0,,,56,1.0,1.0,2.763,0.0,1.0,1.0,1.0,1.0,glue_01s.jpg,pepper2_21s.jpg,,,,,,,
,,,,,,,,,1.0,,,56,1.0,1.0,2.015,0.0,2.0,2.0,2.0,1.0,kimono_13s.jpg,prism_10s.jpg,,,,,,,
,,,,,,,,,0.0,,,56,1.0,0.0,3.009,0.0,3.0,3.0,3.0,1.0,soccer_ball_12s.jpg,muffin_12n.jpg,,,,,,,
,,,,,,,,,1.0,,,56,1.0,1.0,2.118,0.0,4.0,4.0,4.0,1.0,magnet_03s.jpg,roulette_wheel_04s.jpg,,,,,,,
,,,,,,,,,0.0,,,56,1.0,0.0,2.655,0.0,5.0,5.0,5.0,1.0,stopwatch_04s.jpg,marker_05s.jpg,,,,,,,
,,,,,,,,,,,,56,,,,,,,,,,,0.0,5.0,5.0,5.0,1.0,newclockpresent_6_2.xlsx,newclock_compare_task_6_2.xlsx
0.0,1.0,2.19,0.0,0.0,0.0,0.0,1.0,slingshot_07s.jpg,0.0,Blue.png,1.0,56,,,,,,,,,,,,,,,,,
1.0,1.0,0.833,0.0,1.0,1.0,1.0,1.0,slingshot_07s.jpg,1.0,Purple.png,1.0,56,,,,,,,,,,,,,,,,,
0.0,1.0,1.723,0.0,2.0,2.0,2.0,1.0,aluminum_foil_08s.jpg,0.0,Red.png,1.0,56,,,,,,,,,,,,,,,,,
0.0,1.0,1.55,0.0,3.0,3.0,3.0,1.0,ink_08s.jpg,0.0,Orange.png,1.0,56,,,,,,,,,,,,,,,,,
0.0,0.0,1.392,0.0,4.0,4.0,4.0,1.0,aluminum_foil_08s.jpg,1.0,Yellow.png,1.0,56,,,,,,,,,,,,,,,,,
1.0,1.0,2.026,0.0,5.0,5.0,5.0,1.0,slingshot_07s.jpg,1.0,Green.png,1.0,56,,,,,,,,,,,,,,,,,
1.0,0.0,2.0,0.0,6.0,6.0,6.0,1.0,aluminum_foil_08s.jpg,0.0,Blue.png,2.0,56,,,,,,,,,,,,,,,,,
1.0,1.0,1.664,0.0,7.0,7.0,7.0,1.0,aluminum_foil_08s.jpg,1.0,Purple.png,2.0,56,,,,,,,,,,,,,,,,,
0.0,1.0,2.003,0.0,8.0,8.0,8.0,1.0,ice-cream_cone_06s.jpg,0.0,Red.png,2.0,56,,,,,,,,,,,,,,,,,
1.0,0.0,2.109,0.0,9.0,9.0,9.0,1.0,ink_08s.jpg,0.0,Orange.png,2.0,56,,,,,,,,,,,,,,,,,
0.0,1.0,1.478,0.0,10.0,10.0,10.0,1.0,emerald_02s.jpg,0.0,Yellow.png,2.0,56,,,,,,,,,,,,,,,,,
0.0,1.0,1.706,0.0,11.0,11.0,11.0,1.0,bathtub_23s.jpg,0.0,Green.png,2.0,56,,,,,,,,,,,,,,,,,
0.0,1.0,1.718,0.0,12.0,12.0,12.0,1.0,bubble_01b.jpg,0.0,Blue.png,3.0,56,,,,,,,,,,,,,,,,,
0.0,1.0,1.492,0.0,13.0,13.0,13.0,1.0,mirror_12s.jpg,0.0,Purple.png,3.0,56,,,,,,,,,,,,,,,,,
0.0,1.0,1.554,0.0,14.0,14.0,14.0,1.0,swing_set_15s.jpg,0.0,Red.png,3.0,56,,,,,,,,,,,,,,,,,
0.0,1.0,1.37,0.0,15.0,15.0,15.0,1.0,pinwheel_06s.jpg,0.0,Orange.png,3.0,56,,,,,,,,,,,,,,,,,
1.0,1.0,2.183,0.0,16.0,16.0,16.0,1.0,swing_set_15s.jpg,1.0,Yellow.png,3.0,56,,,,,,,,,,,,,,,,,
,0.0,,0.0,17.0,17.0,17.0,1.0,pinwheel_06s.jpg,1.0,Green.png,3.0,56,,,,,,,,,,,,,,,,,
1.0,0.0,2.061,0.0,18.0,18.0,18.0,1.0,ink_08s.jpg,0.0,Blue.png,4.0,56,,,,,,,,,,,,,,,,,
0.0,1.0,1.816,0.0,19.0,19.0,19.0,1.0,plunger_08s.jpg,0.0,Purple.png,4.0,56,,,,,,,,,,,,,,,,,
1.0,1.0,1.433,0.0,20.0,20.0,20.0,1.0,ink_08s.jpg,1.0,Red.png,4.0,56,,,,,,,,,,,,,,,,,
1.0,1.0,1.27,0.0,21.0,21.0,21.0,1.0,ink_08s.jpg,1.0,Orange.png,4.0,56,,,,,,,,,,,,,,,,,
1.0,0.0,1.402,0.0,22.0,22.0,22.0,1.0,metronome_03s.jpg,0.0,Yellow.png,4.0,56,,,,,,,,,,,,,,,,,
0.0,1.0,1.817,0.0,23.0,23.0,23.0,1.0,puppy_08s.jpg,0.0,Green.png,4.0,56,,,,,,,,,,,,,,,,,
0.0,1.0,2.157,0.0,24.0,24.0,24.0,1.0,treasure_08s.jpg,0.0,Blue.png,5.0,56,,,,,,,,,,,,,,,,,
0.0,1.0,1.654,0.0,25.0,25.0,25.0,1.0,penguin_16s.jpg,0.0,Purple.png,5.0,56,,,,,,,,,,,,,,,,,
0.0,1.0,1.84,0.0,26.0,26.0,26.0,1.0,bacon_05s.jpg,0.0,Red.png,5.0,56,,,,,,,,,,,,,,,,,
0.0,1.0,1.633,0.0,27.0,27.0,27.0,1.0,giraffe_11s.jpg,0.0,Orange.png,5.0,56,,,,,,,,,,,,,,,,,
0.0,1.0,1.517,0.0,28.0,28.0,28.0,1.0,rug_09s.jpg,0.0,Yellow.png,5.0,56,,,,,,,,,,,,,,,,,
0.0,1.0,1.413,0.0,29.0,29.0,29.0,1.0,lamp_08s.jpg,0.0,Green.png,5.0,56,,,,,,,,,,,,,,,,,
1.0,0.0,2.354,0.0,30.0,30.0,30.0,1.0,metronome_03s.jpg,0.0,Blue.png,6.0,56,,,,,,,,,,,,,,,,,
1.0,1.0,2.142,0.0,31.0,31.0,31.0,1.0,metronome_03s.jpg,1.0,Purple.png,6.0,56,,,,,,,,,,,,,,,,,
0.0,1.0,1.873,0.0,32.0,32.0,32.0,1.0,lip_gloss_06s.jpg,0.0,Red.png,6.0,56,,,,,,,,,,,,,,,,,
1.0,1.0,1.914,0.0,33.0,33.0,33.0,1.0,metronome_03s.jpg,1.0,Orange.png,6.0,56,,,,,,,,,,,,,,,,,
0.0,1.0,1.247,0.0,34.0,34.0,34.0,1.0,laser_pointer_02s.jpg,0.0,Yellow.png,6.0,56,,,,,,,,,,,,,,,,,
1.0,1.0,1.904,0.0,35.0,35.0,35.0,1.0,metronome_03s.jpg,1.0,Green.png,6.0,56,,,,,,,,,,,,,,,,,
,,,,,,,,,1.0,,,56,1.0,1.0,2.942,0.0,0.0,0.0,0.0,1.0,emerald_02s.jpg,mirror_12s.jpg,,,,,,,
,,,,,,,,,1.0,,,56,1.0,1.0,1.828,0.0,1.0,1.0,1.0,1.0,puppy_08s.jpg,bacon_05s.jpg,,,,,,,
,,,,,,,,,0.0,,,56,1.0,0.0,2.347,0.0,2.0,2.0,2.0,1.0,lip_gloss_06s.jpg,lamp_08s.jpg,,,,,,,
,,,,,,,,,0.0,,,56,0.0,1.0,1.604,0.0,3.0,3.0,3.0,1.0,bathtub_23s.jpg,ice-cream_cone_06s.jpg,,,,,,,
,,,,,,,,,0.0,,,56,1.0,0.0,2.338,0.0,4.0,4.0,4.0,1.0,giraffe_11s.jpg,treasure_08s.jpg,,,,,,,
,,,,,,,,,0.0,,,56,1.0,0.0,2.306,0.0,5.0,5.0,5.0,1.0,rug_09s.jpg,penguin_16s.jpg,,,,,,,
,,,,,,,,,,,,56,,,,,,,,,,,0.0,6.0,6.0,6.0,1.0,newclockpresent_7_2.xlsx,newclock_compare_task_7_2.xlsx
0.0,1.0,2.335,0.0,0.0,0.0,0.0,1.0,ant_12s.jpg,0.0,Blue.png,1.0,56,,,,,,,,,,,,,,,,,
1.0,1.0,0.899,0.0,1.0,1.0,1.0,1.0,ant_12s.jpg,1.0,Purple.png,1.0,56,,,,,,,,,,,,,,,,,
0.0,1.0,1.722,0.0,2.0,2.0,2.0,1.0,ticktacktoe_08s.jpg,0.0,Red.png,1.0,56,,,,,,,,,,,,,,,,,
0.0,1.0,2.046,0.0,3.0,3.0,3.0,1.0,frog_09s.jpg,0.0,Orange.png,1.0,56,,,,,,,,,,,,,,,,,
0.0,0.0,1.644,0.0,4.0,4.0,4.0,1.0,ticktacktoe_08s.jpg,1.0,Yellow.png,1.0,56,,,,,,,,,,,,,,,,,
0.0,1.0,1.91,0.0,5.0,5.0,5.0,1.0,feather02.jpg,0.0,Green.png,1.0,56,,,,,,,,,,,,,,,,,
0.0,1.0,2.174,0.0,6.0,6.0,6.0,1.0,gas_mask_11s.jpg,0.0,Blue.png,2.0,56,,,,,,,,,,,,,,,,,
1.0,1.0,2.095,0.0,7.0,7.0,7.0,1.0,gas_mask_11s.jpg,1.0,Purple.png,2.0,56,,,,,,,,,,,,,,,,,
0.0,1.0,1.205,0.0,8.0,8.0,8.0,1.0,mop_08s.jpg,0.0,Red.png,2.0,56,,,,,,,,,,,,,,,,,
1.0,1.0,1.702,0.0,9.0,9.0,9.0,1.0,gas_mask_11s.jpg,1.0,Orange.png,2.0,56,,,,,,,,,,,,,,,,,
0.0,1.0,1.285,0.0,10.0,10.0,10.0,1.0,pea_11s.jpg,0.0,Yellow.png,2.0,56,,,,,,,,,,,,,,,,,
0.0,1.0,1.641,0.0,11.0,11.0,11.0,1.0,bowler_hat_10s.jpg,0.0,Green.png,2.0,56,,,,,,,,,,,,,,,,,
0.0,1.0,1.714,0.0,12.0,12.0,12.0,1.0,pencil_sharpener_09n.jpg,0.0,Blue.png,3.0,56,,,,,,,,,,,,,,,,,
0.0,1.0,1.554,0.0,13.0,13.0,13.0,1.0,rice_12s.jpg,0.0,Purple.png,3.0,56,,,,,,,,,,,,,,,,,
0.0,1.0,1.744,0.0,14.0,14.0,14.0,1.0,stamp1_11s.jpg,0.0,Red.png,3.0,56,,,,,,,,,,,,,,,,,
0.0,1.0,1.82,0.0,15.0,15.0,15.0,1.0,jersey_02s.jpg,0.0,Orange.png,3.0,56,,,,,,,,,,,,,,,,,
0.0,1.0,1.704,0.0,16.0,16.0,16.0,1.0,tiara_05s.jpg,0.0,Yellow.png,3.0,56,,,,,,,,,,,,,,,,,
0.0,1.0,1.674,0.0,17.0,17.0,17.0,1.0,target_11s.jpg,0.0,Green.png,3.0,56,,,,,,,,,,,,,,,,,
0.0,1.0,1.45,0.0,18.0,18.0,18.0,1.0,dirt_bike_11s.jpg,0.0,Blue.png,4.0,56,,,,,,,,,,,,,,,,,
0.0,1.0,1.85,0.0,19.0,19.0,19.0,1.0,doily_13s.jpg,0.0,Purple.png,4.0,56,,,,,,,,,,,,,,,,,
0.0,1.0,1.914,0.0,20.0,20.0,20.0,1.0,sunglasses_11s.jpg,0.0,Red.png,4.0,56,,,,,,,,,,,,,,,,,
0.0,1.0,1.657,0.0,21.0,21.0,21.0,1.0,compass_10n.jpg,0.0,Orange.png,4.0,56,,,,,,,,,,,,,,,,,
1.0,1.0,1.45,0.0,22.0,22.0,22.0,1.0,sunglasses_11s.jpg,1.0,Yellow.png,4.0,56,,,,,,,,,,,,,,,,,
1.0,1.0,1.388,0.0,23.0,23.0,23.0,1.0,sunglasses_11s.jpg,1.0,Green.png,4.0,56,,,,,,,,,,,,,,,,,
0.0,1.0,1.38,0.0,24.0,24.0,24.0,1.0,seagull_01b.jpg,0.0,Blue.png,5.0,56,,,,,,,,,,,,,,,,,
0.0,1.0,1.905,0.0,25.0,25.0,25.0,1.0,footprint_11s.jpg,0.0,Purple.png,5.0,56,,,,,,,,,,,,,,,,,
0.0,1.0,1.601,0.0,26.0,26.0,26.0,1.0,projector_08s.jpg,0.0,Red.png,5.0,56,,,,,,,,,,,,,,,,,
1.0,1.0,1.611,0.0,27.0,27.0,27.0,1.0,projector_08s.jpg,1.0,Orange.png,5.0,56,,,,,,,,,,,,,,,,,
0.0,1.0,1.678,0.0,28.0,28.0,28.0,1.0,money_07s.jpg,0.0,Yellow.png,5.0,56,,,,,,,,,,,,,,,,,
0.0,1.0,2.248,0.0,29.0,29.0,29.0,1.0,flip_flop_03s.jpg,0.0,Green.png,5.0,56,,,,,,,,,,,,,,,,,
0.0,1.0,2.03,0.0,30.0,30.0,30.0,1.0,ring_03s.jpg,0.0,Blue.png,6.0,56,,,,,,,,,,,,,,,,,
0.0,1.0,1.588,0.0,31.0,31.0,31.0,1.0,flip_flop_03s.jpg,0.0,Purple.png,6.0,56,,,,,,,,,,,,,,,,,
0.0,0.0,1.854,0.0,32.0,32.0,32.0,1.0,flip_flop_03s.jpg,1.0,Red.png,6.0,56,,,,,,,,,,,,,,,,,
1.0,1.0,1.816,0.0,33.0,33.0,33.0,1.0,flip_flop_03s.jpg,1.0,Orange.png,6.0,56,,,,,,,,,,,,,,,,,
0.0,1.0,1.995,0.0,34.0,34.0,34.0,1.0,screwdriver02a.jpg,0.0,Yellow.png,6.0,56,,,,,,,,,,,,,,,,,
1.0,1.0,1.761,0.0,35.0,35.0,35.0,1.0,screwdriver02a.jpg,1.0,Green.png,6.0,56,,,,,,,,,,,,,,,,,
,,,,,,,,,0.0,,,56,0.0,1.0,2.228,0.0,0.0,0.0,0.0,1.0,mop_08s.jpg,feather02.jpg,,,,,,,
,,,,,,,,,1.0,,,56,1.0,1.0,1.889,0.0,1.0,1.0,1.0,1.0,pea_11s.jpg,rice_12s.jpg,,,,,,,
,,,,,,,,,1.0,,,56,1.0,1.0,2.154,0.0,2.0,2.0,2.0,1.0,tiara_05s.jpg,doily_13s.jpg,,,,,,,
,,,,,,,,,1.0,,,56,1.0,1.0,1.655,0.0,3.0,3.0,3.0,1.0,footprint_11s.jpg,money_07s.jpg,,,,,,,
,,,,,,,,,1.0,,,56,0.0,0.0,1.791,0.0,4.0,4.0,4.0,1.0,pencil_sharpener_09n.jpg,jersey_02s.jpg,,,,,,,
,,,,,,,,,1.0,,,56,1.0,1.0,1.715,0.0,5.0,5.0,5.0,1.0,stamp1_11s.jpg,target_11s.jpg,,,,,,,
,,,,,,,,,,,,56,,,,,,,,,,,0.0,7.0,7.0,7.0,1.0,newclockpresent_8_2.xlsx,newclock_compare_task_8_2.xlsx
0.0,1.0,2.351,0.0,0.0,0.0,0.0,1.0,quilt_03s.jpg,0.0,Blue.png,1.0,56,,,,,,,,,,,,,,,,,
0.0,1.0,1.338,0.0,1.0,1.0,1.0,1.0,stingray_02s.jpg,0.0,Purple.png,1.0,56,,,,,,,,,,,,,,,,,
0.0,1.0,2.058,0.0,2.0,2.0,2.0,1.0,mousetrap_15n.jpg,0.0,Red.png,1.0,56,,,,,,,,,,,,,,,,,
0.0,1.0,2.099,0.0,3.0,3.0,3.0,1.0,dashboard_02s.jpg,0.0,Orange.png,1.0,56,,,,,,,,,,,,,,,,,
1.0,1.0,1.41,0.0,4.0,4.0,4.0,1.0,quilt_03s.jpg,1.0,Yellow.png,1.0,56,,,,,,,,,,,,,,,,,
1.0,1.0,1.289,0.0,5.0,5.0,5.0,1.0,quilt_03s.jpg,1.0,Green.png,1.0,56,,,,,,,,,,,,,,,,,
0.0,1.0,1.659,0.0,6.0,6.0,6.0,1.0,thorn_13s.jpg,0.0,Blue.png,2.0,56,,,,,,,,,,,,,,,,,
0.0,1.0,1.878,0.0,7.0,7.0,7.0,1.0,mitten_10s.jpg,0.0,Purple.png,2.0,56,,,,,,,,,,,,,,,,,
0.0,1.0,1.996,0.0,8.0,8.0,8.0,1.0,fondue_07s.jpg,0.0,Red.png,2.0,56,,,,,,,,,,,,,,,,,
0.0,1.0,1.541,0.0,9.0,9.0,9.0,1.0,peach_04s.jpg,0.0,Orange.png,2.0,56,,,,,,,,,,,,,,,,,
0.0,1.0,1.737,0.0,10.0,10.0,10.0,1.0,stump_02s.jpg,0.0,Yellow.png,2.0,56,,,,,,,,,,,,,,,,,
0.0,1.0,2.161,0.0,11.0,11.0,11.0,1.0,rabbit_03s.jpg,0.0,Green.png,2.0,56,,,,,,,,,,,,,,,,,
0.0,1.0,1.546,0.0,12.0,12.0,12.0,1.0,champagne_18s.jpg,0.0,Blue.png,3.0,56,,,,,,,,,,,,,,,,,
1.0,0.0,1.303,0.0,13.0,13.0,13.0,1.0,rabbit_03s.jpg,0.0,Purple.png,3.0,56,,,,,,,,,,,,,,,,,
0.0,1.0,1.596,0.0,14.0,14.0,14.0,1.0,denture_03s.jpg,0.0,Red.png,3.0,56,,,,,,,,,,,,,,,,,
1.0,1.0,1.337,0.0,15.0,15.0,15.0,1.0,rabbit_03s.jpg,1.0,Orange.png,3.0,56,,,,,,,,,,,,,,,,,
0.0,1.0,1.833,0.0,16.0,16.0,16.0,1.0,turtleneck_11s.jpg,0.0,Yellow.png,3.0,56,,,,,,,,,,,,,,,,,
1.0,1.0,1.514,0.0,17.0,17.0,17.0,1.0,rabbit_03s.jpg,1.0,Green.png,3.0,56,,,,,,,,,,,,,,,,,
0.0,1.0,1.953,0.0,18.0,18.0,18.0,1.0,typewriter_11s.jpg,0.0,Blue.png,4.0,56,,,,,,,,,,,,,,,,,
0.0,1.0,1.842,0.0,19.0,19.0,19.0,1.0,thread_08s.jpg,0.0,Purple.png,4.0,56,,,,,,,,,,,,,,,,,
0.0,1.0,1.423,0.0,20.0,20.0,20.0,1.0,bean_06s.jpg,0.0,Red.png,4.0,56,,,,,,,,,,,,,,,,,
,0.0,,0.0,21.0,21.0,21.0,1.0,rolling_pin_02s.jpg,0.0,Orange.png,4.0,56,,,,,,,,,,,,,,,,,
0.0,1.0,1.664,0.0,22.0,22.0,22.0,1.0,tattoo_14s.jpg,0.0,Yellow.png,4.0,56,,,,,,,,,,,,,,,,,
0.0,1.0,1.689,0.0,23.0,23.0,23.0,1.0,eiffeltower.jpg,0.0,Green.png,4.0,56,,,,,,,,,,,,,,,,,
0.0,1.0,1.412,0.0,24.0,24.0,24.0,1.0,fondue_07s.jpg,0.0,Blue.png,5.0,56,,,,,,,,,,,,,,,,,
1.0,1.0,1.284,0.0,25.0,25.0,25.0,1.0,fondue_07s.jpg,1.0,Purple.png,5.0,56,,,,,,,,,,,,,,,,,
0.0,1.0,1.147,0.0,26.0,26.0,26.0,1.0,omelet_07s.jpg,0.0,Red.png,5.0,56,,,,,,,,,,,,,,,,,
1.0,1.0,1.227,0.0,27.0,27.0,27.0,1.0,fondue_07s.jpg,1.0,Orange.png,5.0,56,,,,,,,,,,,,,,,,,
0.0,1.0,1.325,0.0,28.0,28.0,28.0,1.0,radio_09s.jpg,0.0,Yellow.png,5.0,56,,,,,,,,,,,,,,,,,
1.0,1.0,1.34,0.0,29.0,29.0,29.0,1.0,fondue_07s.jpg,1.0,Green.png,5.0,56,,,,,,,,,,,,,,,,,
0.0,1.0,1.852,0.0,30.0,30.0,30.0,1.0,roller_coaster_07s.jpg,0.0,Blue.png,6.0,56,,,,,,,,,,,,,,,,,
0.0,1.0,1.731,0.0,31.0,31.0,31.0,1.0,loveseat_08s.jpg,0.0,Purple.png,6.0,56,,,,,,,,,,,,,,,,,
1.0,1.0,2.367,0.0,32.0,32.0,32.0,1.0,roller_coaster_07s.jpg,1.0,Red.png,6.0,56,,,,,,,,,,,,,,,,,
1.0,1.0,1.193,0.0,33.0,33.0,33.0,1.0,roller_coaster_07s.jpg,1.0,Orange.png,6.0,56,,,,,,,,,,,,,,,,,
1.0,1.0,1.604,0.0,34.0,34.0,34.0,1.0,roller_coaster_07s.jpg,1.0,Yellow.png,6.0,56,,,,,,,,,,,,,,,,,
1.0,1.0,1.518,0.0,35.0,35.0,35.0,1.0,roller_coaster_07s.jpg,1.0,Green.png,6.0,56,,,,,,,,,,,,,,,,,
,,,,,,,,,0.0,,,56,0.0,1.0,2.72,0.0,0.0,0.0,0.0,1.0,loveseat_08s.jpg,radio_09s.jpg,,,,,,,
,,,,,,,,,1.0,,,56,1.0,1.0,1.655,0.0,1.0,1.0,1.0,1.0,dashboard_02s.jpg,thorn_13s.jpg,,,,,,,
,,,,,,,,,0.0,,,56,1.0,0.0,1.572,0.0,2.0,2.0,2.0,1.0,champagne_18s.jpg,peach_04s.jpg,,,,,,,
,,,,,,,,,1.0,,,56,1.0,1.0,1.66,0.0,3.0,3.0,3.0,1.0,mitten_10s.jpg,stump_02s.jpg,,,,,,,
,,,,,,,,,1.0,,,56,0.0,0.0,1.694,0.0,4.0,4.0,4.0,1.0,typewriter_11s.jpg,rolling_pin_02s.jpg,,,,,,,
,,,,,,,,,1.0,,,56,1.0,1.0,1.839,0.0,5.0,5.0,5.0,1.0,thread_08s.jpg,tattoo_14s.jpg,,,,,,,
,,,,,,,,,,,,56,,,,,,,,,,,0.0,8.0,8.0,8.0,1.0,newclockpresent_9_2.xlsx,newclock_compare_task_9_2.xlsx
