key_resp.keys,key_resp.corr,key_resp.rt,present_segment.thisRepN,present_segment.thisTrialN,present_segment.thisN,present_segment.thisIndex,present_segment.ran,pictures,answer,clock,segment,participant,key_resp_2.keys,key_resp_2.corr,key_resp_2.rt,compare_segment.thisRepN,compare_segment.thisTrialN,compare_segment.thisN,compare_segment.thisIndex,compare_segment.ran,item_a,item_b,clock_conditions.thisRepN,clock_conditions.thisTrialN,clock_conditions.thisN,clock_conditions.thisIndex,clock_conditions.ran,present,compare
0.0,1.0,1.0736,0.0,0.0,0.0,0.0,1.0,insole_11s.jpg,0.0,Blue.png,1.0,76,,,,,,,,,,,,,,,,,
0.0,1.0,0.71386,0.0,1.0,1.0,1.0,1.0,tupperware_09s.jpg,0.0,Purple.png,1.0,76,,,,,,,,,,,,,,,,,
1.0,0.0,1.433675,0.0,2.0,2.0,2.0,1.0,tupperware_09s.jpg,0.0,Red.png,1.0,76,,,,,,,,,,,,,,,,,
0.0,1.0,1.122275,0.0,3.0,3.0,3.0,1.0,fox_13s.jpg,0.0,Orange.png,1.0,76,,,,,,,,,,,,,,,,,
1.0,1.0,1.59907,0.0,4.0,4.0,4.0,1.0,tupperware_09s.jpg,1.0,Yellow.png,1.0,76,,,,,,,,,,,,,,,,,
0.0,1.0,0.71826,0.0,5.0,5.0,5.0,1.0,lavender_10s.jpg,0.0,Green.png,1.0,76,,,,,,,,,,,,,,,,,
1.0,1.0,1.276375,0.0,6.0,6.0,6.0,1.0,tupperware_09s.jpg,1.0,Blue.png,2.0,76,,,,,,,,,,,,,,,,,
0.0,1.0,0.777655,0.0,7.0,7.0,7.0,1.0,poinsettia_04s.jpg,0.0,Purple.png,2.0,76,,,,,,,,,,,,,,,,,
0.0,1.0,0.72905,0.0,8.0,8.0,8.0,1.0,margarita_03s.jpg,0.0,Red.png,2.0,76,,,,,,,,,,,,,,,,,
0.0,1.0,0.84136,0.0,9.0,9.0,9.0,1.0,toothpaste_12s.jpg,0.0,Orange.png,2.0,76,,,,,,,,,,,,,,,,,
0.0,1.0,1.22123,0.0,10.0,10.0,10.0,1.0,ladder_15s.jpg,0.0,Yellow.png,2.0,76,,,,,,,,,,,,,,,,,
0.0,1.0,0.757395,0.0,11.0,11.0,11.0,1.0,pocketknife_12s.jpg,0.0,Green.png,2.0,76,,,,,,,,,,,,,,,,,
0.0,1.0,0.711285,0.0,12.0,12.0,12.0,1.0,spoon02a.jpg,0.0,Blue.png,3.0,76,,,,,,,,,,,,,,,,,
0.0,1.0,1.058875,0.0,13.0,13.0,13.0,1.0,mango_09s.jpg,0.0,Purple.png,3.0,76,,,,,,,,,,,,,,,,,
0.0,1.0,1.387495,0.0,14.0,14.0,14.0,1.0,chalice_10s.jpg,0.0,Red.png,3.0,76,,,,,,,,,,,,,,,,,
1.0,0.0,0.91492,0.0,15.0,15.0,15.0,1.0,pocketknife_12s.jpg,0.0,Orange.png,3.0,76,,,,,,,,,,,,,,,,,
0.0,1.0,0.65694,0.0,16.0,16.0,16.0,1.0,abacus_12s.jpg,0.0,Yellow.png,3.0,76,,,,,,,,,,,,,,,,,
1.0,0.0,1.444145,0.0,17.0,17.0,17.0,1.0,abacus_12s.jpg,0.0,Green.png,3.0,76,,,,,,,,,,,,,,,,,
1.0,1.0,0.89736,0.0,18.0,18.0,18.0,1.0,abacus_12s.jpg,1.0,Blue.png,4.0,76,,,,,,,,,,,,,,,,,
1.0,1.0,1.22742,0.0,19.0,19.0,19.0,1.0,abacus_12s.jpg,1.0,Purple.png,4.0,76,,,,,,,,,,,,,,,,,
0.0,1.0,0.67912,0.0,20.0,20.0,20.0,1.0,sushi_08s.jpg,0.0,Red.png,4.0,76,,,,,,,,,,,,,,,,,
0.0,1.0,0.86902,0.0,21.0,21.0,21.0,1.0,funnel_01b.jpg,0.0,Orange.png,4.0,76,,,,,,,,,,,,,,,,,
0.0,1.0,0.897785,0.0,22.0,22.0,22.0,1.0,rooster_03s.jpg,0.0,Yellow.png,4.0,76,,,,,,,,,,,,,,,,,
0.0,1.0,0.94474,0.0,23.0,23.0,23.0,1.0,ukulele_02s.jpg,0.0,Green.png,4.0,76,,,,,,,,,,,,,,,,,
1.0,0.0,0.977425,0.0,24.0,24.0,24.0,1.0,pocketknife_12s.jpg,0.0,Blue.png,5.0,76,,,,,,,,,,,,,,,,,
1.0,0.0,1.091645,0.0,25.0,25.0,25.0,1.0,pocketknife_12s.jpg,0.0,Purple.png,5.0,76,,,,,,,,,,,,,,,,,
1.0,1.0,0.526585,0.0,26.0,26.0,26.0,1.0,pocketknife_12s.jpg,1.0,Red.png,5.0,76,,,,,,,,,,,,,,,,,
0.0,1.0,0.726605,0.0,27.0,27.0,27.0,1.0,stapler_01b.jpg,0.0,Orange.png,5.0,76,,,,,,,,,,,,,,,,,
0.0,1.0,0.74357,0.0,28.0,28.0,28.0,1.0,birthday_cake_09s.jpg,0.0,Yellow.png,5.0,76,,,,,,,,,,,,,,,,,
0.0,1.0,1.552825,0.0,29.0,29.0,29.0,1.0,meatball_13s.jpg,0.0,Green.png,5.0,76,,,,,,,,,,,,,,,,,
0.0,1.0,0.92031,0.0,30.0,30.0,30.0,1.0,cape_11s.jpg,0.0,Blue.png,6.0,76,,,,,,,,,,,,,,,,,
1.0,0.0,0.98323,0.0,31.0,31.0,31.0,1.0,cape_11s.jpg,0.0,Purple.png,6.0,76,,,,,,,,,,,,,,,,,
0.0,1.0,1.051155,0.0,32.0,32.0,32.0,1.0,lizard_10n.jpg,0.0,Red.png,6.0,76,,,,,,,,,,,,,,,,,
0.0,1.0,1.012505,0.0,33.0,33.0,33.0,1.0,refrigerator_07s.jpg,0.0,Orange.png,6.0,76,,,,,,,,,,,,,,,,,
1.0,0.0,1.097485,0.0,34.0,34.0,34.0,1.0,refrigerator_07s.jpg,0.0,Yellow.png,6.0,76,,,,,,,,,,,,,,,,,
0.0,1.0,1.03348,0.0,35.0,35.0,35.0,1.0,touchpad_11s.jpg,0.0,Green.png,6.0,76,,,,,,,,,,,,,,,,,
,,,,,,,,,1.0,,,76,1.0,1.0,1.07636,0.0,0.0,0.0,0.0,1.0,lavender_10s.jpg,margarita_03s.jpg,,,,,,,
,,,,,,,,,1.0,,,76,1.0,1.0,1.683385,0.0,1.0,1.0,1.0,1.0,toothpaste_12s.jpg,spoon02a.jpg,,,,,,,
,,,,,,,,,1.0,,,76,0.0,0.0,1.636665,0.0,2.0,2.0,2.0,1.0,ladder_15s.jpg,mango_09s.jpg,,,,,,,
,,,,,,,,,0.0,,,76,0.0,1.0,1.607095,0.0,3.0,3.0,3.0,1.0,fox_13s.jpg,insole_11s.jpg,,,,,,,
,,,,,,,,,0.0,,,76,1.0,0.0,1.86592,0.0,4.0,4.0,4.0,1.0,ukulele_02s.jpg,sushi_08s.jpg,,,,,,,
,,,,,,,,,0.0,,,76,0.0,1.0,1.536405,0.0,5.0,5.0,5.0,1.0,touchpad_11s.jpg,lizard_10n.jpg,,,,,,,
,,,,,,,,,,,,76,,,,,,,,,,,0.0,0.0,0.0,0.0,1.0,new2backpresent_1_2.xlsx,new2back_compare_task_1_2.xlsx
,0.0,,0.0,0.0,0.0,0.0,1.0,juicer2_06s.jpg,0.0,Blue.png,1.0,76,,,,,,,,,,,,,,,,,
1.0,0.0,0.954135,0.0,1.0,1.0,1.0,1.0,juicer2_06s.jpg,0.0,Purple.png,1.0,76,,,,,,,,,,,,,,,,,
0.0,1.0,0.641635,0.0,2.0,2.0,2.0,1.0,tambourine_06s.jpg,0.0,Red.png,1.0,76,,,,,,,,,,,,,,,,,
0.0,1.0,0.55899,0.0,3.0,3.0,3.0,1.0,luggage_08s.jpg,0.0,Orange.png,1.0,76,,,,,,,,,,,,,,,,,
1.0,1.0,0.956785,0.0,4.0,4.0,4.0,1.0,tambourine_06s.jpg,1.0,Yellow.png,1.0,76,,,,,,,,,,,,,,,,,
0.0,1.0,1.140995,0.0,5.0,5.0,5.0,1.0,towel_rack_04s.jpg,0.0,Green.png,1.0,76,,,,,,,,,,,,,,,,,
0.0,1.0,1.96048,0.0,6.0,6.0,6.0,1.0,crayon_09s.jpg,0.0,Blue.png,2.0,76,,,,,,,,,,,,,,,,,
0.0,1.0,1.203245,0.0,7.0,7.0,7.0,1.0,gargoyle_08s.jpg,0.0,Purple.png,2.0,76,,,,,,,,,,,,,,,,,
0.0,1.0,0.87098,0.0,8.0,8.0,8.0,1.0,boar_10s.jpg,0.0,Red.png,2.0,76,,,,,,,,,,,,,,,,,
1.0,1.0,1.21071,0.0,9.0,9.0,9.0,1.0,gargoyle_08s.jpg,1.0,Orange.png,2.0,76,,,,,,,,,,,,,,,,,
0.0,1.0,0.68821,0.0,10.0,10.0,10.0,1.0,limousine_12s.jpg,0.0,Yellow.png,2.0,76,,,,,,,,,,,,,,,,,
0.0,1.0,0.768955,0.0,11.0,11.0,11.0,1.0,outlet_10s.jpg,0.0,Green.png,2.0,76,,,,,,,,,,,,,,,,,
0.0,1.0,1.169535,0.0,12.0,12.0,12.0,1.0,comic_book_02s.jpg,0.0,Blue.png,3.0,76,,,,,,,,,,,,,,,,,
0.0,1.0,1.047505,0.0,13.0,13.0,13.0,1.0,mask_09s.jpg,0.0,Purple.png,3.0,76,,,,,,,,,,,,,,,,,
0.0,1.0,0.734805,0.0,14.0,14.0,14.0,1.0,lasagna_06s.jpg,0.0,Red.png,3.0,76,,,,,,,,,,,,,,,,,
0.0,1.0,0.809575,0.0,15.0,15.0,15.0,1.0,diving_board_07s.jpg,0.0,Orange.png,3.0,76,,,,,,,,,,,,,,,,,
0.0,1.0,0.96119,0.0,16.0,16.0,16.0,1.0,lion_18s.jpg,0.0,Yellow.png,3.0,76,,,,,,,,,,,,,,,,,
1.0,1.0,0.888435,0.0,17.0,17.0,17.0,1.0,diving_board_07s.jpg,1.0,Green.png,3.0,76,,,,,,,,,,,,,,,,,
1.0,1.0,1.167875,0.0,18.0,18.0,18.0,1.0,lion_18s.jpg,1.0,Blue.png,4.0,76,,,,,,,,,,,,,,,,,
0.0,1.0,0.944735,0.0,19.0,19.0,19.0,1.0,medal_04s.jpg,0.0,Purple.png,4.0,76,,,,,,,,,,,,,,,,,
0.0,1.0,0.86953,0.0,20.0,20.0,20.0,1.0,incense_02s.jpg,0.0,Red.png,4.0,76,,,,,,,,,,,,,,,,,
0.0,1.0,1.001655,0.0,21.0,21.0,21.0,1.0,tape_06s.jpg,0.0,Orange.png,4.0,76,,,,,,,,,,,,,,,,,
1.0,0.0,1.275515,0.0,22.0,22.0,22.0,1.0,medal_04s.jpg,0.0,Yellow.png,4.0,76,,,,,,,,,,,,,,,,,
0.0,1.0,0.826955,0.0,23.0,23.0,23.0,1.0,buoy_04s.jpg,0.0,Green.png,4.0,76,,,,,,,,,,,,,,,,,
1.0,0.0,0.829075,0.0,24.0,24.0,24.0,1.0,limousine_12s.jpg,0.0,Blue.png,5.0,76,,,,,,,,,,,,,,,,,
0.0,1.0,0.78637,0.0,25.0,25.0,25.0,1.0,jewel_01b.jpg,0.0,Purple.png,5.0,76,,,,,,,,,,,,,,,,,
0.0,1.0,0.90738,0.0,26.0,26.0,26.0,1.0,parachute_03s.jpg,0.0,Red.png,5.0,76,,,,,,,,,,,,,,,,,
0.0,1.0,0.828335,0.0,27.0,27.0,27.0,1.0,mannequin_05s.jpg,0.0,Orange.png,5.0,76,,,,,,,,,,,,,,,,,
0.0,1.0,1.32136,0.0,28.0,28.0,28.0,1.0,snowman_02s.jpg,0.0,Yellow.png,5.0,76,,,,,,,,,,,,,,,,,
0.0,1.0,0.922745,0.0,29.0,29.0,29.0,1.0,fossil_06s.jpg,0.0,Green.png,5.0,76,,,,,,,,,,,,,,,,,
0.0,1.0,0.86327,0.0,30.0,30.0,30.0,1.0,perfume_06s.jpg,0.0,Blue.png,6.0,76,,,,,,,,,,,,,,,,,
1.0,1.0,0.789205,0.0,31.0,31.0,31.0,1.0,fossil_06s.jpg,1.0,Purple.png,6.0,76,,,,,,,,,,,,,,,,,
0.0,1.0,0.83888,0.0,32.0,32.0,32.0,1.0,pancake_12s.jpg,0.0,Red.png,6.0,76,,,,,,,,,,,,,,,,,
0.0,1.0,0.87322,0.0,33.0,33.0,33.0,1.0,tie_03s.jpg,0.0,Orange.png,6.0,76,,,,,,,,,,,,,,,,,
1.0,1.0,1.79049,0.0,34.0,34.0,34.0,1.0,pancake_12s.jpg,1.0,Yellow.png,6.0,76,,,,,,,,,,,,,,,,,
0.0,1.0,0.816585,0.0,35.0,35.0,35.0,1.0,padlock_07s.jpg,0.0,Green.png,6.0,76,,,,,,,,,,,,,,,,,
,,,,,,,,,0.0,,,76,0.0,1.0,1.217155,0.0,0.0,0.0,0.0,1.0,crayon_09s.jpg,luggage_08s.jpg,,,,,,,
,,,,,,,,,1.0,,,76,0.0,0.0,1.88022,0.0,1.0,1.0,1.0,1.0,towel_rack_04s.jpg,boar_10s.jpg,,,,,,,
,,,,,,,,,0.0,,,76,0.0,1.0,1.51992,0.0,2.0,2.0,2.0,1.0,lasagna_06s.jpg,outlet_10s.jpg,,,,,,,
,,,,,,,,,1.0,,,76,0.0,0.0,1.36473,0.0,3.0,3.0,3.0,1.0,jewel_01b.jpg,snowman_02s.jpg,,,,,,,
,,,,,,,,,0.0,,,76,0.0,1.0,1.581445,0.0,4.0,4.0,4.0,1.0,buoy_04s.jpg,incense_02s.jpg,,,,,,,
,,,,,,,,,0.0,,,76,1.0,0.0,1.46837,0.0,5.0,5.0,5.0,1.0,tie_03s.jpg,perfume_06s.jpg,,,,,,,
,,,,,,,,,,,,76,,,,,,,,,,,0.0,1.0,1.0,1.0,1.0,new2backpresent_2_2.xlsx,new2back_compare_task_2_2.xlsx
0.0,1.0,1.011325,0.0,0.0,0.0,0.0,1.0,surfboard_11s.jpg,0.0,Blue.png,1.0,76,,,,,,,,,,,,,,,,,
1.0,0.0,1.03403,0.0,1.0,1.0,1.0,1.0,surfboard_11s.jpg,0.0,Purple.png,1.0,76,,,,,,,,,,,,,,,,,
1.0,1.0,1.00273,0.0,2.0,2.0,2.0,1.0,surfboard_11s.jpg,1.0,Red.png,1.0,76,,,,,,,,,,,,,,,,,
0.0,1.0,1.586635,0.0,3.0,3.0,3.0,1.0,badge_03s.jpg,0.0,Orange.png,1.0,76,,,,,,,,,,,,,,,,,
1.0,1.0,0.781565,0.0,4.0,4.0,4.0,1.0,surfboard_11s.jpg,1.0,Yellow.png,1.0,76,,,,,,,,,,,,,,,,,
1.0,0.0,0.968245,0.0,5.0,5.0,5.0,1.0,surfboard_11s.jpg,0.0,Green.png,1.0,76,,,,,,,,,,,,,,,,,
1.0,1.0,0.77216,0.0,6.0,6.0,6.0,1.0,surfboard_11s.jpg,1.0,Blue.png,2.0,76,,,,,,,,,,,,,,,,,
0.0,1.0,0.802565,0.0,7.0,7.0,7.0,1.0,playpen_11s.jpg,0.0,Purple.png,2.0,76,,,,,,,,,,,,,,,,,
1.0,1.0,1.042125,0.0,8.0,8.0,8.0,1.0,surfboard_11s.jpg,1.0,Red.png,2.0,76,,,,,,,,,,,,,,,,,
0.0,1.0,0.718585,0.0,9.0,9.0,9.0,1.0,popcorn_09s.jpg,0.0,Orange.png,2.0,76,,,,,,,,,,,,,,,,,
1.0,1.0,0.988205,0.0,10.0,10.0,10.0,1.0,surfboard_11s.jpg,1.0,Yellow.png,2.0,76,,,,,,,,,,,,,,,,,
0.0,0.0,0.8294,0.0,11.0,11.0,11.0,1.0,popcorn_09s.jpg,1.0,Green.png,2.0,76,,,,,,,,,,,,,,,,,
0.0,1.0,1.19243,0.0,12.0,12.0,12.0,1.0,lollipop_08s.jpg,0.0,Blue.png,3.0,76,,,,,,,,,,,,,,,,,
1.0,1.0,0.969625,0.0,13.0,13.0,13.0,1.0,popcorn_09s.jpg,1.0,Purple.png,3.0,76,,,,,,,,,,,,,,,,,
0.0,1.0,0.76005,0.0,14.0,14.0,14.0,1.0,fire_pit_10s.jpg,0.0,Red.png,3.0,76,,,,,,,,,,,,,,,,,
0.0,1.0,0.79567,0.0,15.0,15.0,15.0,1.0,joystick_01b.jpg,0.0,Orange.png,3.0,76,,,,,,,,,,,,,,,,,
0.0,1.0,0.859545,0.0,16.0,16.0,16.0,1.0,panda_02s.jpg,0.0,Yellow.png,3.0,76,,,,,,,,,,,,,,,,,
0.0,1.0,0.572195,0.0,17.0,17.0,17.0,1.0,sundae_08s.jpg,0.0,Green.png,3.0,76,,,,,,,,,,,,,,,,,
0.0,1.0,0.784395,0.0,18.0,18.0,18.0,1.0,boomerang_06s.jpg,0.0,Blue.png,4.0,76,,,,,,,,,,,,,,,,,
0.0,1.0,0.78702,0.0,19.0,19.0,19.0,1.0,bagel_15s.jpg,0.0,Purple.png,4.0,76,,,,,,,,,,,,,,,,,
0.0,1.0,0.916665,0.0,20.0,20.0,20.0,1.0,powder_07s.jpg,0.0,Red.png,4.0,76,,,,,,,,,,,,,,,,,
0.0,1.0,0.787,0.0,21.0,21.0,21.0,1.0,lipstick_02s.jpg,0.0,Orange.png,4.0,76,,,,,,,,,,,,,,,,,
1.0,0.0,0.905955,0.0,22.0,22.0,22.0,1.0,bagel_15s.jpg,0.0,Yellow.png,4.0,76,,,,,,,,,,,,,,,,,
0.0,1.0,0.667645,0.0,23.0,23.0,23.0,1.0,ladle_04s.jpg,0.0,Green.png,4.0,76,,,,,,,,,,,,,,,,,
0.0,1.0,0.77386,0.0,24.0,24.0,24.0,1.0,megaphone_03s.jpg,0.0,Blue.png,5.0,76,,,,,,,,,,,,,,,,,
0.0,1.0,0.76263,0.0,25.0,25.0,25.0,1.0,puck_06s.jpg,0.0,Purple.png,5.0,76,,,,,,,,,,,,,,,,,
0.0,1.0,0.827215,0.0,26.0,26.0,26.0,1.0,cardinal_07s.jpg,0.0,Red.png,5.0,76,,,,,,,,,,,,,,,,,
1.0,1.0,1.14311,0.0,27.0,27.0,27.0,1.0,puck_06s.jpg,1.0,Orange.png,5.0,76,,,,,,,,,,,,,,,,,
0.0,1.0,1.024825,0.0,28.0,28.0,28.0,1.0,bee_20s.jpg,0.0,Yellow.png,5.0,76,,,,,,,,,,,,,,,,,
0.0,1.0,0.898555,0.0,29.0,29.0,29.0,1.0,toilet_paper_12s.jpg,0.0,Green.png,5.0,76,,,,,,,,,,,,,,,,,
0.0,1.0,2.2147,0.0,30.0,30.0,30.0,1.0,mud_13s.jpg,0.0,Blue.png,6.0,76,,,,,,,,,,,,,,,,,
0.0,1.0,0.59092,0.0,31.0,31.0,31.0,1.0,measuring_cup_02s.jpg,0.0,Purple.png,6.0,76,,,,,,,,,,,,,,,,,
0.0,1.0,1.04223,0.0,32.0,32.0,32.0,1.0,ostrich_06s.jpg,0.0,Red.png,6.0,76,,,,,,,,,,,,,,,,,
0.0,1.0,0.97585,0.0,33.0,33.0,33.0,1.0,raspberry_12s.jpg,0.0,Orange.png,6.0,76,,,,,,,,,,,,,,,,,
1.0,0.0,1.06264,0.0,34.0,34.0,34.0,1.0,mud_13s.jpg,0.0,Yellow.png,6.0,76,,,,,,,,,,,,,,,,,
0.0,1.0,0.943695,0.0,35.0,35.0,35.0,1.0,radiator_05s.jpg,0.0,Green.png,6.0,76,,,,,,,,,,,,,,,,,
,,,,,,,,,0.0,,,76,0.0,1.0,1.624995,0.0,0.0,0.0,0.0,1.0,measuring_cup_02s.jpg,bee_20s.jpg,,,,,,,
,,,,,,,,,1.0,,,76,1.0,1.0,1.40107,0.0,1.0,1.0,1.0,1.0,lipstick_02s.jpg,megaphone_03s.jpg,,,,,,,
,,,,,,,,,0.0,,,76,0.0,1.0,1.281775,0.0,2.0,2.0,2.0,1.0,boomerang_06s.jpg,joystick_01b.jpg,,,,,,,
,,,,,,,,,0.0,,,76,0.0,1.0,1.44591,0.0,3.0,3.0,3.0,1.0,sundae_08s.jpg,fire_pit_10s.jpg,,,,,,,
,,,,,,,,,0.0,,,76,0.0,1.0,1.20706,0.0,4.0,4.0,4.0,1.0,radiator_05s.jpg,ostrich_06s.jpg,,,,,,,
,,,,,,,,,0.0,,,76,0.0,1.0,1.418425,0.0,5.0,5.0,5.0,1.0,ladle_04s.jpg,powder_07s.jpg,,,,,,,
,,,,,,,,,,,,76,,,,,,,,,,,0.0,2.0,2.0,2.0,1.0,new2backpresent_3_2.xlsx,new2back_compare_task_3_2.xlsx
0.0,1.0,0.935075,0.0,0.0,0.0,0.0,1.0,glasses01a.jpg,0.0,Blue.png,1.0,76,,,,,,,,,,,,,,,,,
0.0,1.0,0.64429,0.0,1.0,1.0,1.0,1.0,piano_13n.jpg,0.0,Purple.png,1.0,76,,,,,,,,,,,,,,,,,
0.0,1.0,0.755805,0.0,2.0,2.0,2.0,1.0,candy_cane_06s.jpg,0.0,Red.png,1.0,76,,,,,,,,,,,,,,,,,
0.0,1.0,0.804365,0.0,3.0,3.0,3.0,1.0,cushion_08s.jpg,0.0,Orange.png,1.0,76,,,,,,,,,,,,,,,,,
1.0,1.0,0.69579,0.0,4.0,4.0,4.0,1.0,candy_cane_06s.jpg,1.0,Yellow.png,1.0,76,,,,,,,,,,,,,,,,,
1.0,0.0,1.1961,0.0,5.0,5.0,5.0,1.0,candy_cane_06s.jpg,0.0,Green.png,1.0,76,,,,,,,,,,,,,,,,,
0.0,1.0,0.93817,0.0,6.0,6.0,6.0,1.0,rosary_03s.jpg,0.0,Blue.png,2.0,76,,,,,,,,,,,,,,,,,
1.0,0.0,1.734055,0.0,7.0,7.0,7.0,1.0,rosary_03s.jpg,0.0,Purple.png,2.0,76,,,,,,,,,,,,,,,,,
1.0,1.0,0.914045,0.0,8.0,8.0,8.0,1.0,rosary_03s.jpg,1.0,Red.png,2.0,76,,,,,,,,,,,,,,,,,
1.0,1.0,0.48929,0.0,9.0,9.0,9.0,1.0,rosary_03s.jpg,1.0,Orange.png,2.0,76,,,,,,,,,,,,,,,,,
0.0,1.0,1.33421,0.0,10.0,10.0,10.0,1.0,kangaroo_02s.jpg,0.0,Yellow.png,2.0,76,,,,,,,,,,,,,,,,,
0.0,1.0,1.04791,0.0,11.0,11.0,11.0,1.0,kangaroo_02s.jpg,0.0,Green.png,2.0,76,,,,,,,,,,,,,,,,,
1.0,1.0,1.090625,0.0,12.0,12.0,12.0,1.0,kangaroo_02s.jpg,1.0,Blue.png,3.0,76,,,,,,,,,,,,,,,,,
1.0,1.0,1.07371,0.0,13.0,13.0,13.0,1.0,kangaroo_02s.jpg,1.0,Purple.png,3.0,76,,,,,,,,,,,,,,,,,
0.0,1.0,1.15185,0.0,14.0,14.0,14.0,1.0,ironing_board_07s.jpg,0.0,Red.png,3.0,76,,,,,,,,,,,,,,,,,
1.0,1.0,1.232335,0.0,15.0,15.0,15.0,1.0,kangaroo_02s.jpg,1.0,Orange.png,3.0,76,,,,,,,,,,,,,,,,,
0.0,1.0,0.773325,0.0,16.0,16.0,16.0,1.0,punch2_09s.jpg,0.0,Yellow.png,3.0,76,,,,,,,,,,,,,,,,,
1.0,0.0,1.403195,0.0,17.0,17.0,17.0,1.0,ironing_board_07s.jpg,0.0,Green.png,3.0,76,,,,,,,,,,,,,,,,,
0.0,1.0,0.72163,0.0,18.0,18.0,18.0,1.0,owl_15s.jpg,0.0,Blue.png,4.0,76,,,,,,,,,,,,,,,,,
0.0,1.0,0.91988,0.0,19.0,19.0,19.0,1.0,teabag_12s.jpg,0.0,Purple.png,4.0,76,,,,,,,,,,,,,,,,,
1.0,1.0,1.00266,0.0,20.0,20.0,20.0,1.0,owl_15s.jpg,1.0,Red.png,4.0,76,,,,,,,,,,,,,,,,,
0.0,1.0,0.756075,0.0,21.0,21.0,21.0,1.0,otter_05s.jpg,0.0,Orange.png,4.0,76,,,,,,,,,,,,,,,,,
1.0,1.0,1.016215,0.0,22.0,22.0,22.0,1.0,owl_15s.jpg,1.0,Yellow.png,4.0,76,,,,,,,,,,,,,,,,,
0.0,1.0,1.27275,0.0,23.0,23.0,23.0,1.0,mold2_04s.jpg,0.0,Green.png,4.0,76,,,,,,,,,,,,,,,,,
0.0,1.0,1.008465,0.0,24.0,24.0,24.0,1.0,mattress_01s.jpg,0.0,Blue.png,5.0,76,,,,,,,,,,,,,,,,,
0.0,1.0,0.857575,0.0,25.0,25.0,25.0,1.0,police_car_01s.jpg,0.0,Purple.png,5.0,76,,,,,,,,,,,,,,,,,
0.0,1.0,1.00234,0.0,26.0,26.0,26.0,1.0,stethoscope_01b.jpg,0.0,Red.png,5.0,76,,,,,,,,,,,,,,,,,
1.0,1.0,0.8437,0.0,27.0,27.0,27.0,1.0,police_car_01s.jpg,1.0,Orange.png,5.0,76,,,,,,,,,,,,,,,,,
0.0,1.0,0.6582,0.0,28.0,28.0,28.0,1.0,sparkler_02s.jpg,0.0,Yellow.png,5.0,76,,,,,,,,,,,,,,,,,
0.0,1.0,0.90471,0.0,29.0,29.0,29.0,1.0,pacifier_09s.jpg,0.0,Green.png,5.0,76,,,,,,,,,,,,,,,,,
0.0,1.0,0.83234,0.0,30.0,30.0,30.0,1.0,machine_gun_09s.jpg,0.0,Blue.png,6.0,76,,,,,,,,,,,,,,,,,
0.0,1.0,1.190025,0.0,31.0,31.0,31.0,1.0,ram_05s.jpg,0.0,Purple.png,6.0,76,,,,,,,,,,,,,,,,,
0.0,1.0,0.817355,0.0,32.0,32.0,32.0,1.0,keyboard_05s.jpg,0.0,Red.png,6.0,76,,,,,,,,,,,,,,,,,
0.0,1.0,1.135385,0.0,33.0,33.0,33.0,1.0,leash_10s.jpg,0.0,Orange.png,6.0,76,,,,,,,,,,,,,,,,,
0.0,1.0,1.753875,0.0,34.0,34.0,34.0,1.0,pan_02s.jpg,0.0,Yellow.png,6.0,76,,,,,,,,,,,,,,,,,
0.0,1.0,0.716265,0.0,35.0,35.0,35.0,1.0,mixer_12s.jpg,0.0,Green.png,6.0,76,,,,,,,,,,,,,,,,,
,,,,,,,,,0.0,,,76,0.0,1.0,1.047145,0.0,0.0,0.0,0.0,1.0,teabag_12s.jpg,punch2_09s.jpg,,,,,,,
,,,,,,,,,0.0,,,76,0.0,1.0,1.47257,0.0,1.0,1.0,1.0,1.0,mattress_01s.jpg,otter_05s.jpg,,,,,,,
,,,,,,,,,0.0,,,76,1.0,0.0,1.34238,0.0,2.0,2.0,2.0,1.0,stethoscope_01b.jpg,mold2_04s.jpg,,,,,,,
,,,,,,,,,1.0,,,76,0.0,0.0,1.39827,0.0,3.0,3.0,3.0,1.0,glasses01a.jpg,cushion_08s.jpg,,,,,,,
,,,,,,,,,1.0,,,76,0.0,0.0,1.415315,0.0,4.0,4.0,4.0,1.0,machine_gun_09s.jpg,leash_10s.jpg,,,,,,,
,,,,,,,,,0.0,,,76,1.0,0.0,1.246565,0.0,5.0,5.0,5.0,1.0,pan_02s.jpg,ram_05s.jpg,,,,,,,
,,,,,,,,,,,,76,,,,,,,,,,,0.0,3.0,3.0,3.0,1.0,new2backpresent_4_2.xlsx,new2back_compare_task_4_2.xlsx
0.0,1.0,1.361555,0.0,0.0,0.0,0.0,1.0,golf_club_03s.jpg,0.0,Blue.png,1.0,76,,,,,,,,,,,,,,,,,
1.0,0.0,1.14775,0.0,1.0,1.0,1.0,1.0,golf_club_03s.jpg,0.0,Purple.png,1.0,76,,,,,,,,,,,,,,,,,
1.0,1.0,0.41267,0.0,2.0,2.0,2.0,1.0,golf_club_03s.jpg,1.0,Red.png,1.0,76,,,,,,,,,,,,,,,,,
0.0,1.0,0.88907,0.0,3.0,3.0,3.0,1.0,turnstile_08s.jpg,0.0,Orange.png,1.0,76,,,,,,,,,,,,,,,,,
1.0,1.0,1.00881,0.0,4.0,4.0,4.0,1.0,golf_club_03s.jpg,1.0,Yellow.png,1.0,76,,,,,,,,,,,,,,,,,
0.0,1.0,0.839855,0.0,5.0,5.0,5.0,1.0,milk_02s.jpg,0.0,Green.png,1.0,76,,,,,,,,,,,,,,,,,
0.0,1.0,0.922655,0.0,6.0,6.0,6.0,1.0,orange_12s.jpg,0.0,Blue.png,2.0,76,,,,,,,,,,,,,,,,,
1.0,1.0,0.94275,0.0,7.0,7.0,7.0,1.0,milk_02s.jpg,1.0,Purple.png,2.0,76,,,,,,,,,,,,,,,,,
0.0,1.0,0.754775,0.0,8.0,8.0,8.0,1.0,latch_15s.jpg,0.0,Red.png,2.0,76,,,,,,,,,,,,,,,,,
0.0,1.0,0.81723,0.0,9.0,9.0,9.0,1.0,bank_06s.jpg,0.0,Orange.png,2.0,76,,,,,,,,,,,,,,,,,
1.0,0.0,1.561205,0.0,10.0,10.0,10.0,1.0,milk_02s.jpg,0.0,Yellow.png,2.0,76,,,,,,,,,,,,,,,,,
0.0,1.0,1.04075,0.0,11.0,11.0,11.0,1.0,crab_16s.jpg,0.0,Green.png,2.0,76,,,,,,,,,,,,,,,,,
0.0,1.0,0.91064,0.0,12.0,12.0,12.0,1.0,birdcage_08s.jpg,0.0,Blue.png,3.0,76,,,,,,,,,,,,,,,,,
0.0,1.0,0.94362,0.0,13.0,13.0,13.0,1.0,spider_web_03s.jpg,0.0,Purple.png,3.0,76,,,,,,,,,,,,,,,,,
0.0,1.0,0.787955,0.0,14.0,14.0,14.0,1.0,knitting_needle_04s.jpg,0.0,Red.png,3.0,76,,,,,,,,,,,,,,,,,
0.0,1.0,1.09917,0.0,15.0,15.0,15.0,1.0,sugar_cube_11s.jpg,0.0,Orange.png,3.0,76,,,,,,,,,,,,,,,,,
0.0,1.0,0.78232,0.0,16.0,16.0,16.0,1.0,light_switch_02s.jpg,0.0,Yellow.png,3.0,76,,,,,,,,,,,,,,,,,
0.0,1.0,0.719805,0.0,17.0,17.0,17.0,1.0,gear_07s.jpg,0.0,Green.png,3.0,76,,,,,,,,,,,,,,,,,
0.0,1.0,1.00786,0.0,18.0,18.0,18.0,1.0,tongs_08s.jpg,0.0,Blue.png,4.0,76,,,,,,,,,,,,,,,,,
0.0,1.0,0.87861,0.0,19.0,19.0,19.0,1.0,recliner_02s.jpg,0.0,Purple.png,4.0,76,,,,,,,,,,,,,,,,,
0.0,1.0,1.29222,0.0,20.0,20.0,20.0,1.0,orangutan_03s.jpg,0.0,Red.png,4.0,76,,,,,,,,,,,,,,,,,
1.0,0.0,1.303295,0.0,21.0,21.0,21.0,1.0,golf_club_03s.jpg,0.0,Orange.png,4.0,76,,,,,,,,,,,,,,,,,
0.0,1.0,0.799835,0.0,22.0,22.0,22.0,1.0,lava_02s.jpg,0.0,Yellow.png,4.0,76,,,,,,,,,,,,,,,,,
0.0,1.0,0.78698,0.0,23.0,23.0,23.0,1.0,toilet_07s.jpg,0.0,Green.png,4.0,76,,,,,,,,,,,,,,,,,
1.0,0.0,0.96297,0.0,24.0,24.0,24.0,1.0,turnstile_08s.jpg,0.0,Blue.png,5.0,76,,,,,,,,,,,,,,,,,
1.0,0.0,1.017725,0.0,25.0,25.0,25.0,1.0,turnstile_08s.jpg,0.0,Purple.png,5.0,76,,,,,,,,,,,,,,,,,
0.0,1.0,0.76018,0.0,26.0,26.0,26.0,1.0,teacup_07s.jpg,0.0,Red.png,5.0,76,,,,,,,,,,,,,,,,,
1.0,1.0,1.114115,0.0,27.0,27.0,27.0,1.0,turnstile_08s.jpg,1.0,Orange.png,5.0,76,,,,,,,,,,,,,,,,,
1.0,0.0,1.012895,0.0,28.0,28.0,28.0,1.0,turnstile_08s.jpg,0.0,Yellow.png,5.0,76,,,,,,,,,,,,,,,,,
0.0,1.0,1.23366,0.0,29.0,29.0,29.0,1.0,antenna_01b.jpg,0.0,Green.png,5.0,76,,,,,,,,,,,,,,,,,
0.0,1.0,1.02592,0.0,30.0,30.0,30.0,1.0,keyhole_03s.jpg,0.0,Blue.png,6.0,76,,,,,,,,,,,,,,,,,
0.0,1.0,0.940915,0.0,31.0,31.0,31.0,1.0,air_pump_05s.jpg,0.0,Purple.png,6.0,76,,,,,,,,,,,,,,,,,
0.0,1.0,0.957355,0.0,32.0,32.0,32.0,1.0,eggshell_14s.jpg,0.0,Red.png,6.0,76,,,,,,,,,,,,,,,,,
0.0,1.0,1.263545,0.0,33.0,33.0,33.0,1.0,eyedropper_12s.jpg,0.0,Orange.png,6.0,76,,,,,,,,,,,,,,,,,
0.0,1.0,0.992985,0.0,34.0,34.0,34.0,1.0,machete_06s.jpg,0.0,Yellow.png,6.0,76,,,,,,,,,,,,,,,,,
1.0,1.0,1.143645,0.0,35.0,35.0,35.0,1.0,eyedropper_12s.jpg,1.0,Green.png,6.0,76,,,,,,,,,,,,,,,,,
,,,,,,,,,1.0,,,76,1.0,1.0,1.09156,0.0,0.0,0.0,0.0,1.0,sugar_cube_11s.jpg,tongs_08s.jpg,,,,,,,
,,,,,,,,,1.0,,,76,1.0,1.0,1.4966,0.0,1.0,1.0,1.0,1.0,antenna_01b.jpg,eggshell_14s.jpg,,,,,,,
,,,,,,,,,1.0,,,76,0.0,0.0,1.390615,0.0,2.0,2.0,2.0,1.0,bank_06s.jpg,birdcage_08s.jpg,,,,,,,
,,,,,,,,,1.0,,,76,0.0,0.0,1.283885,0.0,3.0,3.0,3.0,1.0,air_pump_05s.jpg,machete_06s.jpg,,,,,,,
,,,,,,,,,1.0,,,76,1.0,1.0,1.10265,0.0,4.0,4.0,4.0,1.0,latch_15s.jpg,crab_16s.jpg,,,,,,,
,,,,,,,,,1.0,,,76,0.0,0.0,0.97733,0.0,5.0,5.0,5.0,1.0,spider_web_03s.jpg,light_switch_02s.jpg,,,,,,,
,,,,,,,,,,,,76,,,,,,,,,,,0.0,4.0,4.0,4.0,1.0,new2backpresent_5_2.xlsx,new2back_compare_task_5_2.xlsx
0.0,1.0,1.048165,0.0,0.0,0.0,0.0,1.0,gazelle_10s.jpg,0.0,Blue.png,1.0,76,,,,,,,,,,,,,,,,,
0.0,1.0,0.94438,0.0,1.0,1.0,1.0,1.0,saddle_06s.jpg,0.0,Purple.png,1.0,76,,,,,,,,,,,,,,,,,
0.0,1.0,1.514055,0.0,2.0,2.0,2.0,1.0,saddle_06s.jpg,0.0,Red.png,1.0,76,,,,,,,,,,,,,,,,,
0.0,1.0,0.87727,0.0,3.0,3.0,3.0,1.0,kimono_13s.jpg,0.0,Orange.png,1.0,76,,,,,,,,,,,,,,,,,
0.0,1.0,0.75792,0.0,4.0,4.0,4.0,1.0,timer_03s.jpg,0.0,Yellow.png,1.0,76,,,,,,,,,,,,,,,,,
0.0,1.0,0.86107,0.0,5.0,5.0,5.0,1.0,tulip_02s.jpg,0.0,Green.png,1.0,76,,,,,,,,,,,,,,,,,
0.0,1.0,0.721415,0.0,6.0,6.0,6.0,1.0,prism_10s.jpg,0.0,Blue.png,2.0,76,,,,,,,,,,,,,,,,,
0.0,1.0,1.17488,0.0,7.0,7.0,7.0,1.0,razor_12s.jpg,0.0,Purple.png,2.0,76,,,,,,,,,,,,,,,,,
0.0,1.0,0.839235,0.0,8.0,8.0,8.0,1.0,blazer_02s.jpg,0.0,Red.png,2.0,76,,,,,,,,,,,,,,,,,
1.0,1.0,0.60117,0.0,9.0,9.0,9.0,1.0,razor_12s.jpg,1.0,Orange.png,2.0,76,,,,,,,,,,,,,,,,,
0.0,1.0,0.789935,0.0,10.0,10.0,10.0,1.0,lamb_chop_07s.jpg,0.0,Yellow.png,2.0,76,,,,,,,,,,,,,,,,,
1.0,1.0,0.846605,0.0,11.0,11.0,11.0,1.0,razor_12s.jpg,1.0,Green.png,2.0,76,,,,,,,,,,,,,,,,,
0.0,0.0,1.83206,0.0,12.0,12.0,12.0,1.0,lamb_chop_07s.jpg,1.0,Blue.png,3.0,76,,,,,,,,,,,,,,,,,
1.0,0.0,1.43871,0.0,13.0,13.0,13.0,1.0,lamb_chop_07s.jpg,0.0,Purple.png,3.0,76,,,,,,,,,,,,,,,,,
1.0,0.0,1.516385,0.0,14.0,14.0,14.0,1.0,timer_03s.jpg,0.0,Red.png,3.0,76,,,,,,,,,,,,,,,,,
1.0,1.0,1.42535,0.0,15.0,15.0,15.0,1.0,lamb_chop_07s.jpg,1.0,Orange.png,3.0,76,,,,,,,,,,,,,,,,,
0.0,1.0,0.872785,0.0,16.0,16.0,16.0,1.0,glue_01s.jpg,0.0,Yellow.png,3.0,76,,,,,,,,,,,,,,,,,
0.0,1.0,0.87949,0.0,17.0,17.0,17.0,1.0,solar_panel_02s.jpg,0.0,Green.png,3.0,76,,,,,,,,,,,,,,,,,
0.0,1.0,1.024875,0.0,18.0,18.0,18.0,1.0,muffin_12n.jpg,0.0,Blue.png,4.0,76,,,,,,,,,,,,,,,,,
0.0,1.0,0.957975,0.0,19.0,19.0,19.0,1.0,pepper2_21s.jpg,0.0,Purple.png,4.0,76,,,,,,,,,,,,,,,,,
0.0,1.0,0.96801,0.0,20.0,20.0,20.0,1.0,marker_05s.jpg,0.0,Red.png,4.0,76,,,,,,,,,,,,,,,,,
0.0,1.0,0.947855,0.0,21.0,21.0,21.0,1.0,soccer_ball_12s.jpg,0.0,Orange.png,4.0,76,,,,,,,,,,,,,,,,,
0.0,1.0,1.49826,0.0,22.0,22.0,22.0,1.0,amber_04s.jpg,0.0,Yellow.png,4.0,76,,,,,,,,,,,,,,,,,
0.0,1.0,1.27801,0.0,23.0,23.0,23.0,1.0,stopwatch_04s.jpg,0.0,Green.png,4.0,76,,,,,,,,,,,,,,,,,
1.0,1.0,1.9057,0.0,24.0,24.0,24.0,1.0,amber_04s.jpg,1.0,Blue.png,5.0,76,,,,,,,,,,,,,,,,,
0.0,1.0,1.43429,0.0,25.0,25.0,25.0,1.0,racehorse_03s.jpg,0.0,Purple.png,5.0,76,,,,,,,,,,,,,,,,,
1.0,1.0,0.637695,0.0,26.0,26.0,26.0,1.0,amber_04s.jpg,1.0,Red.png,5.0,76,,,,,,,,,,,,,,,,,
0.0,1.0,0.96722,0.0,27.0,27.0,27.0,1.0,duck_01b.jpg,0.0,Orange.png,5.0,76,,,,,,,,,,,,,,,,,
1.0,1.0,0.59951,0.0,28.0,28.0,28.0,1.0,amber_04s.jpg,1.0,Yellow.png,5.0,76,,,,,,,,,,,,,,,,,
1.0,1.0,1.031005,0.0,29.0,29.0,29.0,1.0,duck_01b.jpg,1.0,Green.png,5.0,76,,,,,,,,,,,,,,,,,
0.0,1.0,1.981715,0.0,30.0,30.0,30.0,1.0,duck_01b.jpg,0.0,Blue.png,6.0,76,,,,,,,,,,,,,,,,,
1.0,1.0,1.05216,0.0,31.0,31.0,31.0,1.0,duck_01b.jpg,1.0,Purple.png,6.0,76,,,,,,,,,,,,,,,,,
0.0,1.0,1.294175,0.0,32.0,32.0,32.0,1.0,magnet_03s.jpg,0.0,Red.png,6.0,76,,,,,,,,,,,,,,,,,
1.0,1.0,0.515315,0.0,33.0,33.0,33.0,1.0,duck_01b.jpg,1.0,Orange.png,6.0,76,,,,,,,,,,,,,,,,,
0.0,1.0,1.06318,0.0,34.0,34.0,34.0,1.0,swimming_pool_17s.jpg,0.0,Yellow.png,6.0,76,,,,,,,,,,,,,,,,,
0.0,1.0,1.055965,0.0,35.0,35.0,35.0,1.0,roulette_wheel_04s.jpg,0.0,Green.png,6.0,76,,,,,,,,,,,,,,,,,
,,,,,,,,,0.0,,,76,0.0,1.0,1.13091,0.0,0.0,0.0,0.0,1.0,blazer_02s.jpg,tulip_02s.jpg,,,,,,,
,,,,,,,,,1.0,,,76,1.0,1.0,1.1471,0.0,1.0,1.0,1.0,1.0,glue_01s.jpg,pepper2_21s.jpg,,,,,,,
,,,,,,,,,1.0,,,76,1.0,1.0,1.03978,0.0,2.0,2.0,2.0,1.0,kimono_13s.jpg,prism_10s.jpg,,,,,,,
,,,,,,,,,0.0,,,76,0.0,1.0,1.16678,0.0,3.0,3.0,3.0,1.0,soccer_ball_12s.jpg,muffin_12n.jpg,,,,,,,
,,,,,,,,,1.0,,,76,1.0,1.0,1.333265,0.0,4.0,4.0,4.0,1.0,magnet_03s.jpg,roulette_wheel_04s.jpg,,,,,,,
,,,,,,,,,0.0,,,76,1.0,0.0,1.310275,0.0,5.0,5.0,5.0,1.0,stopwatch_04s.jpg,marker_05s.jpg,,,,,,,
,,,,,,,,,,,,76,,,,,,,,,,,0.0,5.0,5.0,5.0,1.0,new2backpresent_6_2.xlsx,new2back_compare_task_6_2.xlsx
0.0,1.0,0.93154,0.0,0.0,0.0,0.0,1.0,slingshot_07s.jpg,0.0,Blue.png,1.0,76,,,,,,,,,,,,,,,,,
0.0,1.0,1.54048,0.0,1.0,1.0,1.0,1.0,slingshot_07s.jpg,0.0,Purple.png,1.0,76,,,,,,,,,,,,,,,,,
0.0,1.0,0.91628,0.0,2.0,2.0,2.0,1.0,aluminum_foil_08s.jpg,0.0,Red.png,1.0,76,,,,,,,,,,,,,,,,,
0.0,1.0,1.31331,0.0,3.0,3.0,3.0,1.0,ink_08s.jpg,0.0,Orange.png,1.0,76,,,,,,,,,,,,,,,,,
1.0,1.0,1.204965,0.0,4.0,4.0,4.0,1.0,aluminum_foil_08s.jpg,1.0,Yellow.png,1.0,76,,,,,,,,,,,,,,,,,
0.0,1.0,1.56468,0.0,5.0,5.0,5.0,1.0,slingshot_07s.jpg,0.0,Green.png,1.0,76,,,,,,,,,,,,,,,,,
1.0,1.0,1.2402,0.0,6.0,6.0,6.0,1.0,aluminum_foil_08s.jpg,1.0,Blue.png,2.0,76,,,,,,,,,,,,,,,,,
0.0,1.0,1.361965,0.0,7.0,7.0,7.0,1.0,aluminum_foil_08s.jpg,0.0,Purple.png,2.0,76,,,,,,,,,,,,,,,,,
0.0,1.0,0.99444,0.0,8.0,8.0,8.0,1.0,ice-cream_cone_06s.jpg,0.0,Red.png,2.0,76,,,,,,,,,,,,,,,,,
0.0,1.0,0.797755,0.0,9.0,9.0,9.0,1.0,ink_08s.jpg,0.0,Orange.png,2.0,76,,,,,,,,,,,,,,,,,
0.0,1.0,0.875475,0.0,10.0,10.0,10.0,1.0,emerald_02s.jpg,0.0,Yellow.png,2.0,76,,,,,,,,,,,,,,,,,
0.0,1.0,0.8032,0.0,11.0,11.0,11.0,1.0,bathtub_23s.jpg,0.0,Green.png,2.0,76,,,,,,,,,,,,,,,,,
0.0,1.0,0.73284,0.0,12.0,12.0,12.0,1.0,bubble_01b.jpg,0.0,Blue.png,3.0,76,,,,,,,,,,,,,,,,,
0.0,1.0,0.875245,0.0,13.0,13.0,13.0,1.0,mirror_12s.jpg,0.0,Purple.png,3.0,76,,,,,,,,,,,,,,,,,
0.0,1.0,1.049045,0.0,14.0,14.0,14.0,1.0,swing_set_15s.jpg,0.0,Red.png,3.0,76,,,,,,,,,,,,,,,,,
0.0,1.0,1.02668,0.0,15.0,15.0,15.0,1.0,pinwheel_06s.jpg,0.0,Orange.png,3.0,76,,,,,,,,,,,,,,,,,
1.0,1.0,1.28009,0.0,16.0,16.0,16.0,1.0,swing_set_15s.jpg,1.0,Yellow.png,3.0,76,,,,,,,,,,,,,,,,,
1.0,1.0,1.358055,0.0,17.0,17.0,17.0,1.0,pinwheel_06s.jpg,1.0,Green.png,3.0,76,,,,,,,,,,,,,,,,,
0.0,1.0,1.31437,0.0,18.0,18.0,18.0,1.0,ink_08s.jpg,0.0,Blue.png,4.0,76,,,,,,,,,,,,,,,,,
0.0,1.0,0.90177,0.0,19.0,19.0,19.0,1.0,plunger_08s.jpg,0.0,Purple.png,4.0,76,,,,,,,,,,,,,,,,,
1.0,1.0,1.17882,0.0,20.0,20.0,20.0,1.0,ink_08s.jpg,1.0,Red.png,4.0,76,,,,,,,,,,,,,,,,,
0.0,1.0,1.21787,0.0,21.0,21.0,21.0,1.0,ink_08s.jpg,0.0,Orange.png,4.0,76,,,,,,,,,,,,,,,,,
0.0,1.0,0.90536,0.0,22.0,22.0,22.0,1.0,metronome_03s.jpg,0.0,Yellow.png,4.0,76,,,,,,,,,,,,,,,,,
0.0,1.0,0.857925,0.0,23.0,23.0,23.0,1.0,puppy_08s.jpg,0.0,Green.png,4.0,76,,,,,,,,,,,,,,,,,
0.0,1.0,1.06192,0.0,24.0,24.0,24.0,1.0,treasure_08s.jpg,0.0,Blue.png,5.0,76,,,,,,,,,,,,,,,,,
0.0,1.0,1.517945,0.0,25.0,25.0,25.0,1.0,penguin_16s.jpg,0.0,Purple.png,5.0,76,,,,,,,,,,,,,,,,,
0.0,1.0,0.839835,0.0,26.0,26.0,26.0,1.0,bacon_05s.jpg,0.0,Red.png,5.0,76,,,,,,,,,,,,,,,,,
0.0,1.0,1.32765,0.0,27.0,27.0,27.0,1.0,giraffe_11s.jpg,0.0,Orange.png,5.0,76,,,,,,,,,,,,,,,,,
0.0,1.0,1.394945,0.0,28.0,28.0,28.0,1.0,rug_09s.jpg,0.0,Yellow.png,5.0,76,,,,,,,,,,,,,,,,,
0.0,1.0,1.60413,0.0,29.0,29.0,29.0,1.0,lamp_08s.jpg,0.0,Green.png,5.0,76,,,,,,,,,,,,,,,,,
0.0,1.0,1.473595,0.0,30.0,30.0,30.0,1.0,metronome_03s.jpg,0.0,Blue.png,6.0,76,,,,,,,,,,,,,,,,,
,0.0,,0.0,31.0,31.0,31.0,1.0,metronome_03s.jpg,0.0,Purple.png,6.0,76,,,,,,,,,,,,,,,,,
0.0,1.0,0.94919,0.0,32.0,32.0,32.0,1.0,lip_gloss_06s.jpg,0.0,Red.png,6.0,76,,,,,,,,,,,,,,,,,
1.0,1.0,0.665315,0.0,33.0,33.0,33.0,1.0,metronome_03s.jpg,1.0,Orange.png,6.0,76,,,,,,,,,,,,,,,,,
0.0,1.0,1.024475,0.0,34.0,34.0,34.0,1.0,laser_pointer_02s.jpg,0.0,Yellow.png,6.0,76,,,,,,,,,,,,,,,,,
1.0,1.0,1.441395,0.0,35.0,35.0,35.0,1.0,metronome_03s.jpg,1.0,Green.png,6.0,76,,,,,,,,,,,,,,,,,
,,,,,,,,,1.0,,,76,0.0,0.0,1.018225,0.0,0.0,0.0,0.0,1.0,emerald_02s.jpg,mirror_12s.jpg,,,,,,,
,,,,,,,,,1.0,,,76,0.0,0.0,1.29228,0.0,1.0,1.0,1.0,1.0,puppy_08s.jpg,bacon_05s.jpg,,,,,,,
,,,,,,,,,0.0,,,76,1.0,0.0,1.334325,0.0,2.0,2.0,2.0,1.0,lip_gloss_06s.jpg,lamp_08s.jpg,,,,,,,
,,,,,,,,,0.0,,,76,0.0,1.0,1.202925,0.0,3.0,3.0,3.0,1.0,bathtub_23s.jpg,ice-cream_cone_06s.jpg,,,,,,,
,,,,,,,,,0.0,,,76,1.0,0.0,1.1316,0.0,4.0,4.0,4.0,1.0,giraffe_11s.jpg,treasure_08s.jpg,,,,,,,
,,,,,,,,,0.0,,,76,0.0,1.0,1.195135,0.0,5.0,5.0,5.0,1.0,rug_09s.jpg,penguin_16s.jpg,,,,,,,
,,,,,,,,,,,,76,,,,,,,,,,,0.0,6.0,6.0,6.0,1.0,new2backpresent_7_2.xlsx,new2back_compare_task_7_2.xlsx
0.0,1.0,0.846935,0.0,0.0,0.0,0.0,1.0,ant_12s.jpg,0.0,Blue.png,1.0,76,,,,,,,,,,,,,,,,,
0.0,1.0,0.68484,0.0,1.0,1.0,1.0,1.0,ant_12s.jpg,0.0,Purple.png,1.0,76,,,,,,,,,,,,,,,,,
0.0,1.0,0.923945,0.0,2.0,2.0,2.0,1.0,ticktacktoe_08s.jpg,0.0,Red.png,1.0,76,,,,,,,,,,,,,,,,,
0.0,1.0,0.85794,0.0,3.0,3.0,3.0,1.0,frog_09s.jpg,0.0,Orange.png,1.0,76,,,,,,,,,,,,,,,,,
1.0,1.0,1.43424,0.0,4.0,4.0,4.0,1.0,ticktacktoe_08s.jpg,1.0,Yellow.png,1.0,76,,,,,,,,,,,,,,,,,
0.0,1.0,1.33899,0.0,5.0,5.0,5.0,1.0,feather02.jpg,0.0,Green.png,1.0,76,,,,,,,,,,,,,,,,,
0.0,1.0,1.39988,0.0,6.0,6.0,6.0,1.0,gas_mask_11s.jpg,0.0,Blue.png,2.0,76,,,,,,,,,,,,,,,,,
0.0,1.0,1.425835,0.0,7.0,7.0,7.0,1.0,gas_mask_11s.jpg,0.0,Purple.png,2.0,76,,,,,,,,,,,,,,,,,
0.0,1.0,2.13412,0.0,8.0,8.0,8.0,1.0,mop_08s.jpg,0.0,Red.png,2.0,76,,,,,,,,,,,,,,,,,
1.0,1.0,0.974115,0.0,9.0,9.0,9.0,1.0,gas_mask_11s.jpg,1.0,Orange.png,2.0,76,,,,,,,,,,,,,,,,,
0.0,1.0,0.758415,0.0,10.0,10.0,10.0,1.0,pea_11s.jpg,0.0,Yellow.png,2.0,76,,,,,,,,,,,,,,,,,
0.0,1.0,1.132635,0.0,11.0,11.0,11.0,1.0,bowler_hat_10s.jpg,0.0,Green.png,2.0,76,,,,,,,,,,,,,,,,,
0.0,1.0,0.938755,0.0,12.0,12.0,12.0,1.0,pencil_sharpener_09n.jpg,0.0,Blue.png,3.0,76,,,,,,,,,,,,,,,,,
0.0,1.0,0.983865,0.0,13.0,13.0,13.0,1.0,rice_12s.jpg,0.0,Purple.png,3.0,76,,,,,,,,,,,,,,,,,
0.0,1.0,1.036,0.0,14.0,14.0,14.0,1.0,stamp1_11s.jpg,0.0,Red.png,3.0,76,,,,,,,,,,,,,,,,,
0.0,1.0,1.02898,0.0,15.0,15.0,15.0,1.0,jersey_02s.jpg,0.0,Orange.png,3.0,76,,,,,,,,,,,,,,,,,
0.0,1.0,1.064015,0.0,16.0,16.0,16.0,1.0,tiara_05s.jpg,0.0,Yellow.png,3.0,76,,,,,,,,,,,,,,,,,
0.0,1.0,1.228815,0.0,17.0,17.0,17.0,1.0,target_11s.jpg,0.0,Green.png,3.0,76,,,,,,,,,,,,,,,,,
0.0,1.0,1.214245,0.0,18.0,18.0,18.0,1.0,dirt_bike_11s.jpg,0.0,Blue.png,4.0,76,,,,,,,,,,,,,,,,,
0.0,1.0,1.23467,0.0,19.0,19.0,19.0,1.0,doily_13s.jpg,0.0,Purple.png,4.0,76,,,,,,,,,,,,,,,,,
0.0,1.0,1.05117,0.0,20.0,20.0,20.0,1.0,sunglasses_11s.jpg,0.0,Red.png,4.0,76,,,,,,,,,,,,,,,,,
0.0,1.0,1.10698,0.0,21.0,21.0,21.0,1.0,compass_10n.jpg,0.0,Orange.png,4.0,76,,,,,,,,,,,,,,,,,
1.0,1.0,1.59633,0.0,22.0,22.0,22.0,1.0,sunglasses_11s.jpg,1.0,Yellow.png,4.0,76,,,,,,,,,,,,,,,,,
0.0,1.0,1.174955,0.0,23.0,23.0,23.0,1.0,sunglasses_11s.jpg,0.0,Green.png,4.0,76,,,,,,,,,,,,,,,,,
0.0,1.0,1.58557,0.0,24.0,24.0,24.0,1.0,seagull_01b.jpg,0.0,Blue.png,5.0,76,,,,,,,,,,,,,,,,,
0.0,1.0,1.210255,0.0,25.0,25.0,25.0,1.0,footprint_11s.jpg,0.0,Purple.png,5.0,76,,,,,,,,,,,,,,,,,
0.0,1.0,1.09223,0.0,26.0,26.0,26.0,1.0,projector_08s.jpg,0.0,Red.png,5.0,76,,,,,,,,,,,,,,,,,
0.0,1.0,2.145565,0.0,27.0,27.0,27.0,1.0,projector_08s.jpg,0.0,Orange.png,5.0,76,,,,,,,,,,,,,,,,,
0.0,1.0,1.251705,0.0,28.0,28.0,28.0,1.0,money_07s.jpg,0.0,Yellow.png,5.0,76,,,,,,,,,,,,,,,,,
0.0,1.0,1.49136,0.0,29.0,29.0,29.0,1.0,flip_flop_03s.jpg,0.0,Green.png,5.0,76,,,,,,,,,,,,,,,,,
0.0,1.0,1.42864,0.0,30.0,30.0,30.0,1.0,ring_03s.jpg,0.0,Blue.png,6.0,76,,,,,,,,,,,,,,,,,
1.0,1.0,1.530975,0.0,31.0,31.0,31.0,1.0,flip_flop_03s.jpg,1.0,Purple.png,6.0,76,,,,,,,,,,,,,,,,,
0.0,1.0,1.213685,0.0,32.0,32.0,32.0,1.0,flip_flop_03s.jpg,0.0,Red.png,6.0,76,,,,,,,,,,,,,,,,,
1.0,1.0,0.75383,0.0,33.0,33.0,33.0,1.0,flip_flop_03s.jpg,1.0,Orange.png,6.0,76,,,,,,,,,,,,,,,,,
0.0,1.0,2.01944,0.0,34.0,34.0,34.0,1.0,screwdriver02a.jpg,0.0,Yellow.png,6.0,76,,,,,,,,,,,,,,,,,
0.0,1.0,1.279065,0.0,35.0,35.0,35.0,1.0,screwdriver02a.jpg,0.0,Green.png,6.0,76,,,,,,,,,,,,,,,,,
,,,,,,,,,0.0,,,76,0.0,1.0,1.186505,0.0,0.0,0.0,0.0,1.0,mop_08s.jpg,feather02.jpg,,,,,,,
,,,,,,,,,1.0,,,76,0.0,0.0,1.06827,0.0,1.0,1.0,1.0,1.0,pea_11s.jpg,rice_12s.jpg,,,,,,,
,,,,,,,,,1.0,,,76,0.0,0.0,1.09279,0.0,2.0,2.0,2.0,1.0,tiara_05s.jpg,doily_13s.jpg,,,,,,,
,,,,,,,,,1.0,,,76,0.0,0.0,1.08946,0.0,3.0,3.0,3.0,1.0,footprint_11s.jpg,money_07s.jpg,,,,,,,
,,,,,,,,,1.0,,,76,1.0,1.0,0.87232,0.0,4.0,4.0,4.0,1.0,pencil_sharpener_09n.jpg,jersey_02s.jpg,,,,,,,
,,,,,,,,,1.0,,,76,1.0,1.0,1.05671,0.0,5.0,5.0,5.0,1.0,stamp1_11s.jpg,target_11s.jpg,,,,,,,
,,,,,,,,,,,,76,,,,,,,,,,,0.0,7.0,7.0,7.0,1.0,new2backpresent_8_2.xlsx,new2back_compare_task_8_2.xlsx
0.0,1.0,0.78708,0.0,0.0,0.0,0.0,1.0,quilt_03s.jpg,0.0,Blue.png,1.0,76,,,,,,,,,,,,,,,,,
0.0,1.0,0.92268,0.0,1.0,1.0,1.0,1.0,stingray_02s.jpg,0.0,Purple.png,1.0,76,,,,,,,,,,,,,,,,,
0.0,1.0,1.00479,0.0,2.0,2.0,2.0,1.0,mousetrap_15n.jpg,0.0,Red.png,1.0,76,,,,,,,,,,,,,,,,,
0.0,1.0,0.982795,0.0,3.0,3.0,3.0,1.0,dashboard_02s.jpg,0.0,Orange.png,1.0,76,,,,,,,,,,,,,,,,,
0.0,1.0,1.438645,0.0,4.0,4.0,4.0,1.0,quilt_03s.jpg,0.0,Yellow.png,1.0,76,,,,,,,,,,,,,,,,,
0.0,1.0,2.264615,0.0,5.0,5.0,5.0,1.0,quilt_03s.jpg,0.0,Green.png,1.0,76,,,,,,,,,,,,,,,,,
0.0,1.0,1.76194,0.0,6.0,6.0,6.0,1.0,thorn_13s.jpg,0.0,Blue.png,2.0,76,,,,,,,,,,,,,,,,,
0.0,1.0,1.29238,0.0,7.0,7.0,7.0,1.0,mitten_10s.jpg,0.0,Purple.png,2.0,76,,,,,,,,,,,,,,,,,
0.0,1.0,1.677025,0.0,8.0,8.0,8.0,1.0,fondue_07s.jpg,0.0,Red.png,2.0,76,,,,,,,,,,,,,,,,,
0.0,1.0,1.02351,0.0,9.0,9.0,9.0,1.0,peach_04s.jpg,0.0,Orange.png,2.0,76,,,,,,,,,,,,,,,,,
,0.0,,0.0,10.0,10.0,10.0,1.0,stump_02s.jpg,0.0,Yellow.png,2.0,76,,,,,,,,,,,,,,,,,
0.0,1.0,1.155215,0.0,11.0,11.0,11.0,1.0,rabbit_03s.jpg,0.0,Green.png,2.0,76,,,,,,,,,,,,,,,,,
0.0,1.0,1.20794,0.0,12.0,12.0,12.0,1.0,champagne_18s.jpg,0.0,Blue.png,3.0,76,,,,,,,,,,,,,,,,,
1.0,1.0,0.460575,0.0,13.0,13.0,13.0,1.0,rabbit_03s.jpg,1.0,Purple.png,3.0,76,,,,,,,,,,,,,,,,,
0.0,1.0,1.30656,0.0,14.0,14.0,14.0,1.0,denture_03s.jpg,0.0,Red.png,3.0,76,,,,,,,,,,,,,,,,,
1.0,1.0,0.59346,0.0,15.0,15.0,15.0,1.0,rabbit_03s.jpg,1.0,Orange.png,3.0,76,,,,,,,,,,,,,,,,,
0.0,1.0,0.867545,0.0,16.0,16.0,16.0,1.0,turtleneck_11s.jpg,0.0,Yellow.png,3.0,76,,,,,,,,,,,,,,,,,
1.0,1.0,0.57056,0.0,17.0,17.0,17.0,1.0,rabbit_03s.jpg,1.0,Green.png,3.0,76,,,,,,,,,,,,,,,,,
0.0,1.0,2.132895,0.0,18.0,18.0,18.0,1.0,typewriter_11s.jpg,0.0,Blue.png,4.0,76,,,,,,,,,,,,,,,,,
0.0,1.0,1.330065,0.0,19.0,19.0,19.0,1.0,thread_08s.jpg,0.0,Purple.png,4.0,76,,,,,,,,,,,,,,,,,
0.0,1.0,1.47048,0.0,20.0,20.0,20.0,1.0,bean_06s.jpg,0.0,Red.png,4.0,76,,,,,,,,,,,,,,,,,
0.0,1.0,0.974575,0.0,21.0,21.0,21.0,1.0,rolling_pin_02s.jpg,0.0,Orange.png,4.0,76,,,,,,,,,,,,,,,,,
0.0,1.0,1.16434,0.0,22.0,22.0,22.0,1.0,tattoo_14s.jpg,0.0,Yellow.png,4.0,76,,,,,,,,,,,,,,,,,
0.0,1.0,1.13987,0.0,23.0,23.0,23.0,1.0,eiffeltower.jpg,0.0,Green.png,4.0,76,,,,,,,,,,,,,,,,,
0.0,1.0,1.31076,0.0,24.0,24.0,24.0,1.0,fondue_07s.jpg,0.0,Blue.png,5.0,76,,,,,,,,,,,,,,,,,
0.0,1.0,1.2587,0.0,25.0,25.0,25.0,1.0,fondue_07s.jpg,0.0,Purple.png,5.0,76,,,,,,,,,,,,,,,,,
0.0,1.0,0.96469,0.0,26.0,26.0,26.0,1.0,omelet_07s.jpg,0.0,Red.png,5.0,76,,,,,,,,,,,,,,,,,
1.0,1.0,0.721625,0.0,27.0,27.0,27.0,1.0,fondue_07s.jpg,1.0,Orange.png,5.0,76,,,,,,,,,,,,,,,,,
0.0,1.0,1.228615,0.0,28.0,28.0,28.0,1.0,radio_09s.jpg,0.0,Yellow.png,5.0,76,,,,,,,,,,,,,,,,,
1.0,1.0,0.540675,0.0,29.0,29.0,29.0,1.0,fondue_07s.jpg,1.0,Green.png,5.0,76,,,,,,,,,,,,,,,,,
0.0,1.0,0.77688,0.0,30.0,30.0,30.0,1.0,roller_coaster_07s.jpg,0.0,Blue.png,6.0,76,,,,,,,,,,,,,,,,,
0.0,1.0,1.011175,0.0,31.0,31.0,31.0,1.0,loveseat_08s.jpg,0.0,Purple.png,6.0,76,,,,,,,,,,,,,,,,,
1.0,1.0,1.2289,0.0,32.0,32.0,32.0,1.0,roller_coaster_07s.jpg,1.0,Red.png,6.0,76,,,,,,,,,,,,,,,,,
0.0,1.0,1.095365,0.0,33.0,33.0,33.0,1.0,roller_coaster_07s.jpg,0.0,Orange.png,6.0,76,,,,,,,,,,,,,,,,,
1.0,1.0,0.505575,0.0,34.0,34.0,34.0,1.0,roller_coaster_07s.jpg,1.0,Yellow.png,6.0,76,,,,,,,,,,,,,,,,,
1.0,1.0,1.06222,0.0,35.0,35.0,35.0,1.0,roller_coaster_07s.jpg,1.0,Green.png,6.0,76,,,,,,,,,,,,,,,,,
,,,,,,,,,0.0,,,76,0.0,1.0,1.40213,0.0,0.0,0.0,0.0,1.0,loveseat_08s.jpg,radio_09s.jpg,,,,,,,
,,,,,,,,,1.0,,,76,1.0,1.0,1.06123,0.0,1.0,1.0,1.0,1.0,dashboard_02s.jpg,thorn_13s.jpg,,,,,,,
,,,,,,,,,0.0,,,76,0.0,1.0,1.06614,0.0,2.0,2.0,2.0,1.0,champagne_18s.jpg,peach_04s.jpg,,,,,,,
,,,,,,,,,1.0,,,76,0.0,0.0,0.874125,0.0,3.0,3.0,3.0,1.0,mitten_10s.jpg,stump_02s.jpg,,,,,,,
,,,,,,,,,1.0,,,76,1.0,1.0,0.92902,0.0,4.0,4.0,4.0,1.0,typewriter_11s.jpg,rolling_pin_02s.jpg,,,,,,,
,,,,,,,,,1.0,,,76,0.0,0.0,0.91674,0.0,5.0,5.0,5.0,1.0,thread_08s.jpg,tattoo_14s.jpg,,,,,,,
,,,,,,,,,,,,76,,,,,,,,,,,0.0,8.0,8.0,8.0,1.0,new2backpresent_9_2.xlsx,new2back_compare_task_9_2.xlsx
