key_resp.keys,key_resp.corr,key_resp.rt,present_segment.thisRepN,present_segment.thisTrialN,present_segment.thisN,present_segment.thisIndex,present_segment.ran,pictures,answer,clock,segment,participant,key_resp_2.keys,key_resp_2.corr,key_resp_2.rt,compare_segment.thisRepN,compare_segment.thisTrialN,compare_segment.thisN,compare_segment.thisIndex,compare_segment.ran,item_a,item_b,clock_conditions.thisRepN,clock_conditions.thisTrialN,clock_conditions.thisN,clock_conditions.thisIndex,clock_conditions.ran,present,compare
0.0,1.0,1.093275,0.0,0.0,0.0,0.0,1.0,mirror_12s.jpg,0.0,Blue.png,1.0,30,,,,,,,,,,,,,,,,,
0.0,1.0,1.19153,0.0,1.0,1.0,1.0,1.0,polaroid_05s.jpg,0.0,Purple.png,1.0,30,,,,,,,,,,,,,,,,,
0.0,1.0,2.128515,0.0,2.0,2.0,2.0,1.0,polaroid_05s.jpg,0.0,Red.png,1.0,30,,,,,,,,,,,,,,,,,
0.0,1.0,1.151435,0.0,3.0,3.0,3.0,1.0,slingshot_07s.jpg,0.0,Orange.png,1.0,30,,,,,,,,,,,,,,,,,
1.0,1.0,0.83427,0.0,4.0,4.0,4.0,1.0,polaroid_05s.jpg,1.0,Yellow.png,1.0,30,,,,,,,,,,,,,,,,,
0.0,1.0,0.77732,0.0,5.0,5.0,5.0,1.0,kettle_08s.jpg,0.0,Green.png,1.0,30,,,,,,,,,,,,,,,,,
0.0,1.0,0.78362,0.0,6.0,6.0,6.0,1.0,crystal_ball_12s.jpg,0.0,Blue.png,2.0,30,,,,,,,,,,,,,,,,,
0.0,1.0,1.274685,0.0,7.0,7.0,7.0,1.0,iron_13s.jpg,0.0,Purple.png,2.0,30,,,,,,,,,,,,,,,,,
0.0,1.0,0.885835,0.0,8.0,8.0,8.0,1.0,saddle_06s.jpg,0.0,Red.png,2.0,30,,,,,,,,,,,,,,,,,
0.0,1.0,1.452725,0.0,9.0,9.0,9.0,1.0,mango_09s.jpg,0.0,Orange.png,2.0,30,,,,,,,,,,,,,,,,,
0.0,1.0,1.100955,0.0,10.0,10.0,10.0,1.0,ostrich_06s.jpg,0.0,Yellow.png,2.0,30,,,,,,,,,,,,,,,,,
0.0,1.0,1.55219,0.0,11.0,11.0,11.0,1.0,iron_13s.jpg,0.0,Green.png,2.0,30,,,,,,,,,,,,,,,,,
0.0,1.0,1.685215,0.0,12.0,12.0,12.0,1.0,stethoscope_01b.jpg,0.0,Blue.png,3.0,30,,,,,,,,,,,,,,,,,
0.0,1.0,1.549895,0.0,13.0,13.0,13.0,1.0,ruby_15s.jpg,0.0,Purple.png,3.0,30,,,,,,,,,,,,,,,,,
0.0,1.0,1.2108,0.0,14.0,14.0,14.0,1.0,mango_09s.jpg,0.0,Red.png,3.0,30,,,,,,,,,,,,,,,,,
0.0,1.0,1.26157,0.0,15.0,15.0,15.0,1.0,target_11s.jpg,0.0,Orange.png,3.0,30,,,,,,,,,,,,,,,,,
1.0,1.0,0.701745,0.0,16.0,16.0,16.0,1.0,mango_09s.jpg,1.0,Yellow.png,3.0,30,,,,,,,,,,,,,,,,,
0.0,1.0,1.0687,0.0,17.0,17.0,17.0,1.0,compass_10n.jpg,0.0,Green.png,3.0,30,,,,,,,,,,,,,,,,,
0.0,1.0,1.234535,0.0,18.0,18.0,18.0,1.0,meatball_13s.jpg,0.0,Blue.png,4.0,30,,,,,,,,,,,,,,,,,
0.0,1.0,0.704625,0.0,19.0,19.0,19.0,1.0,stapler_01b.jpg,0.0,Purple.png,4.0,30,,,,,,,,,,,,,,,,,
1.0,1.0,1.01856,0.0,20.0,20.0,20.0,1.0,meatball_13s.jpg,1.0,Red.png,4.0,30,,,,,,,,,,,,,,,,,
0.0,1.0,1.102505,0.0,21.0,21.0,21.0,1.0,pump_11s.jpg,0.0,Orange.png,4.0,30,,,,,,,,,,,,,,,,,
0.0,1.0,1.13411,0.0,22.0,22.0,22.0,1.0,coral_08s.jpg,0.0,Yellow.png,4.0,30,,,,,,,,,,,,,,,,,
0.0,1.0,1.152755,0.0,23.0,23.0,23.0,1.0,meatball_13s.jpg,0.0,Green.png,4.0,30,,,,,,,,,,,,,,,,,
0.0,1.0,1.025865,0.0,24.0,24.0,24.0,1.0,peach_04s.jpg,0.0,Blue.png,5.0,30,,,,,,,,,,,,,,,,,
1.0,1.0,0.54223,0.0,25.0,25.0,25.0,1.0,meatball_13s.jpg,1.0,Purple.png,5.0,30,,,,,,,,,,,,,,,,,
0.0,1.0,0.88544,0.0,26.0,26.0,26.0,1.0,pie_08s.jpg,0.0,Red.png,5.0,30,,,,,,,,,,,,,,,,,
0.0,1.0,1.069375,0.0,27.0,27.0,27.0,1.0,rollerskate_03s.jpg,0.0,Orange.png,5.0,30,,,,,,,,,,,,,,,,,
0.0,1.0,0.821515,0.0,28.0,28.0,28.0,1.0,trampoline_13s.jpg,0.0,Yellow.png,5.0,30,,,,,,,,,,,,,,,,,
0.0,1.0,0.9176,0.0,29.0,29.0,29.0,1.0,undershirt_02s.jpg,0.0,Green.png,5.0,30,,,,,,,,,,,,,,,,,
0.0,1.0,1.769565,0.0,30.0,30.0,30.0,1.0,thread_08s.jpg,0.0,Blue.png,6.0,30,,,,,,,,,,,,,,,,,
0.0,1.0,0.969345,0.0,31.0,31.0,31.0,1.0,megaphone_03s.jpg,0.0,Purple.png,6.0,30,,,,,,,,,,,,,,,,,
0.0,1.0,1.23419,0.0,32.0,32.0,32.0,1.0,plaster_cast_13s.jpg,0.0,Red.png,6.0,30,,,,,,,,,,,,,,,,,
0.0,1.0,1.350255,0.0,33.0,33.0,33.0,1.0,diving_board_07s.jpg,0.0,Orange.png,6.0,30,,,,,,,,,,,,,,,,,
0.0,1.0,0.96988,0.0,34.0,34.0,34.0,1.0,kayak_08s.jpg,0.0,Yellow.png,6.0,30,,,,,,,,,,,,,,,,,
1.0,1.0,0.717375,0.0,35.0,35.0,35.0,1.0,diving_board_07s.jpg,1.0,Green.png,6.0,30,,,,,,,,,,,,,,,,,
,,,,,,,,,1.0,,,30,1.0,1.0,4.089145,0.0,0.0,0.0,0.0,1.0,stapler_01b.jpg,coral_08s.jpg,,,,,,,
,,,,,,,,,1.0,,,30,0.0,0.0,2.32147,0.0,1.0,1.0,1.0,1.0,slingshot_07s.jpg,crystal_ball_12s.jpg,,,,,,,
,,,,,,,,,0.0,,,30,0.0,1.0,1.752875,0.0,2.0,2.0,2.0,1.0,saddle_06s.jpg,kettle_08s.jpg,,,,,,,
,,,,,,,,,1.0,,,30,1.0,1.0,1.753195,0.0,3.0,3.0,3.0,1.0,pie_08s.jpg,undershirt_02s.jpg,,,,,,,
,,,,,,,,,1.0,,,30,0.0,0.0,1.55138,0.0,4.0,4.0,4.0,1.0,stethoscope_01b.jpg,target_11s.jpg,,,,,,,
,,,,,,,,,1.0,,,30,0.0,0.0,2.62102,0.0,5.0,5.0,5.0,1.0,ostrich_06s.jpg,ruby_15s.jpg,,,,,,,
,,,,,,,,,,,,30,,,,,,,,,,,0.0,0.0,0.0,0.0,1.0,new2backpresent_1_4.xlsx,new2back_compare_task_1_4.xlsx
0.0,1.0,1.452595,0.0,0.0,0.0,0.0,1.0,jetski_10s.jpg,0.0,Blue.png,1.0,30,,,,,,,,,,,,,,,,,
0.0,1.0,0.710715,0.0,1.0,1.0,1.0,1.0,tripod_01b.jpg,0.0,Purple.png,1.0,30,,,,,,,,,,,,,,,,,
0.0,1.0,0.85158,0.0,2.0,2.0,2.0,1.0,lab_coat_11s.jpg,0.0,Red.png,1.0,30,,,,,,,,,,,,,,,,,
0.0,1.0,1.18899,0.0,3.0,3.0,3.0,1.0,foam_03s.jpg,0.0,Orange.png,1.0,30,,,,,,,,,,,,,,,,,
0.0,1.0,1.10256,0.0,4.0,4.0,4.0,1.0,crate_05s.jpg,0.0,Yellow.png,1.0,30,,,,,,,,,,,,,,,,,
0.0,1.0,0.769035,0.0,5.0,5.0,5.0,1.0,margarita_03s.jpg,0.0,Green.png,1.0,30,,,,,,,,,,,,,,,,,
0.0,1.0,1.134425,0.0,6.0,6.0,6.0,1.0,joystick_01b.jpg,0.0,Blue.png,2.0,30,,,,,,,,,,,,,,,,,
0.0,1.0,1.05249,0.0,7.0,7.0,7.0,1.0,giraffe_11s.jpg,0.0,Purple.png,2.0,30,,,,,,,,,,,,,,,,,
0.0,1.0,1.285505,0.0,8.0,8.0,8.0,1.0,quilt_03s.jpg,0.0,Red.png,2.0,30,,,,,,,,,,,,,,,,,
1.0,1.0,0.684985,0.0,9.0,9.0,9.0,1.0,giraffe_11s.jpg,1.0,Orange.png,2.0,30,,,,,,,,,,,,,,,,,
0.0,1.0,1.831905,0.0,10.0,10.0,10.0,1.0,pincushion_10s.jpg,0.0,Yellow.png,2.0,30,,,,,,,,,,,,,,,,,
1.0,1.0,0.65086,0.0,11.0,11.0,11.0,1.0,giraffe_11s.jpg,1.0,Green.png,2.0,30,,,,,,,,,,,,,,,,,
1.0,1.0,1.71828,0.0,12.0,12.0,12.0,1.0,pincushion_10s.jpg,1.0,Blue.png,3.0,30,,,,,,,,,,,,,,,,,
1.0,1.0,0.702355,0.0,13.0,13.0,13.0,1.0,giraffe_11s.jpg,1.0,Purple.png,3.0,30,,,,,,,,,,,,,,,,,
0.0,1.0,1.086275,0.0,14.0,14.0,14.0,1.0,rolling_pin_02s.jpg,0.0,Red.png,3.0,30,,,,,,,,,,,,,,,,,
,0.0,,0.0,15.0,15.0,15.0,1.0,ticktacktoe_08s.jpg,0.0,Orange.png,3.0,30,,,,,,,,,,,,,,,,,
0.0,1.0,1.53469,0.0,16.0,16.0,16.0,1.0,giraffe_11s.jpg,0.0,Yellow.png,3.0,30,,,,,,,,,,,,,,,,,
1.0,1.0,1.0188,0.0,17.0,17.0,17.0,1.0,ticktacktoe_08s.jpg,1.0,Green.png,3.0,30,,,,,,,,,,,,,,,,,
0.0,1.0,1.25143,0.0,18.0,18.0,18.0,1.0,typewriter_11s.jpg,0.0,Blue.png,4.0,30,,,,,,,,,,,,,,,,,
0.0,1.0,0.765515,0.0,19.0,19.0,19.0,1.0,toothpaste_12s.jpg,0.0,Purple.png,4.0,30,,,,,,,,,,,,,,,,,
0.0,1.0,1.717605,0.0,20.0,20.0,20.0,1.0,hummingbird_05s.jpg,0.0,Red.png,4.0,30,,,,,,,,,,,,,,,,,
1.0,1.0,1.41966,0.0,21.0,21.0,21.0,1.0,toothpaste_12s.jpg,1.0,Orange.png,4.0,30,,,,,,,,,,,,,,,,,
0.0,1.0,2.01993,0.0,22.0,22.0,22.0,1.0,toothpaste_12s.jpg,0.0,Yellow.png,4.0,30,,,,,,,,,,,,,,,,,
0.0,1.0,1.23432,0.0,23.0,23.0,23.0,1.0,treadmill_06s.jpg,0.0,Green.png,4.0,30,,,,,,,,,,,,,,,,,
0.0,1.0,1.05187,0.0,24.0,24.0,24.0,1.0,typewriter_11s.jpg,0.0,Blue.png,5.0,30,,,,,,,,,,,,,,,,,
,0.0,,0.0,25.0,25.0,25.0,1.0,penguin_16s.jpg,0.0,Purple.png,5.0,30,,,,,,,,,,,,,,,,,
0.0,1.0,0.968855,0.0,26.0,26.0,26.0,1.0,olive_05s.jpg,0.0,Red.png,5.0,30,,,,,,,,,,,,,,,,,
1.0,1.0,2.036375,0.0,27.0,27.0,27.0,1.0,penguin_16s.jpg,1.0,Orange.png,5.0,30,,,,,,,,,,,,,,,,,
0.0,1.0,1.28552,0.0,28.0,28.0,28.0,1.0,penguin_16s.jpg,0.0,Yellow.png,5.0,30,,,,,,,,,,,,,,,,,
0.0,1.0,1.115025,0.0,29.0,29.0,29.0,1.0,tab_09s.jpg,0.0,Green.png,5.0,30,,,,,,,,,,,,,,,,,
0.0,1.0,0.918155,0.0,30.0,30.0,30.0,1.0,frame_06s.jpg,0.0,Blue.png,6.0,30,,,,,,,,,,,,,,,,,
0.0,1.0,1.06829,0.0,31.0,31.0,31.0,1.0,mop_08s.jpg,0.0,Purple.png,6.0,30,,,,,,,,,,,,,,,,,
0.0,1.0,0.834365,0.0,32.0,32.0,32.0,1.0,memory_stick_11s.jpg,0.0,Red.png,6.0,30,,,,,,,,,,,,,,,,,
0.0,1.0,1.284405,0.0,33.0,33.0,33.0,1.0,olive_05s.jpg,0.0,Orange.png,6.0,30,,,,,,,,,,,,,,,,,
0.0,1.0,0.96772,0.0,34.0,34.0,34.0,1.0,ravioli_08s.jpg,0.0,Yellow.png,6.0,30,,,,,,,,,,,,,,,,,
0.0,1.0,2.019195,0.0,35.0,35.0,35.0,1.0,mousetrap_15n.jpg,0.0,Green.png,6.0,30,,,,,,,,,,,,,,,,,
,,,,,,,,,1.0,,,30,0.0,0.0,2.78651,0.0,0.0,0.0,0.0,1.0,hummingbird_05s.jpg,treadmill_06s.jpg,,,,,,,
,,,,,,,,,1.0,,,30,1.0,1.0,2.57101,0.0,1.0,1.0,1.0,1.0,margarita_03s.jpg,quilt_03s.jpg,,,,,,,
,,,,,,,,,0.0,,,30,0.0,1.0,1.167025,0.0,2.0,2.0,2.0,1.0,joystick_01b.jpg,foam_03s.jpg,,,,,,,
,,,,,,,,,0.0,,,30,0.0,1.0,1.60376,0.0,3.0,3.0,3.0,1.0,ravioli_08s.jpg,mop_08s.jpg,,,,,,,
,,,,,,,,,1.0,,,30,1.0,1.0,3.98791,0.0,4.0,4.0,4.0,1.0,tab_09s.jpg,memory_stick_11s.jpg,,,,,,,
,,,,,,,,,1.0,,,30,0.0,0.0,1.82031,0.0,5.0,5.0,5.0,1.0,tripod_01b.jpg,crate_05s.jpg,,,,,,,
,,,,,,,,,,,,30,,,,,,,,,,,0.0,1.0,1.0,1.0,1.0,new2backpresent_2_4.xlsx,new2back_compare_task_2_4.xlsx
0.0,1.0,1.367905,0.0,0.0,0.0,0.0,1.0,safety_pin_02s.jpg,0.0,Blue.png,1.0,30,,,,,,,,,,,,,,,,,
0.0,1.0,1.8854,0.0,1.0,1.0,1.0,1.0,safety_pin_02s.jpg,0.0,Purple.png,1.0,30,,,,,,,,,,,,,,,,,
0.0,1.0,0.834485,0.0,2.0,2.0,2.0,1.0,cardinal_07s.jpg,0.0,Red.png,1.0,30,,,,,,,,,,,,,,,,,
1.0,1.0,0.91861,0.0,3.0,3.0,3.0,1.0,safety_pin_02s.jpg,1.0,Orange.png,1.0,30,,,,,,,,,,,,,,,,,
0.0,1.0,0.935215,0.0,4.0,4.0,4.0,1.0,potholder_02s.jpg,0.0,Yellow.png,1.0,30,,,,,,,,,,,,,,,,,
1.0,1.0,1.168145,0.0,5.0,5.0,5.0,1.0,safety_pin_02s.jpg,1.0,Green.png,1.0,30,,,,,,,,,,,,,,,,,
0.0,1.0,0.867115,0.0,6.0,6.0,6.0,1.0,cardinal_07s.jpg,0.0,Blue.png,2.0,30,,,,,,,,,,,,,,,,,
0.0,1.0,1.200715,0.0,7.0,7.0,7.0,1.0,lion_18s.jpg,0.0,Purple.png,2.0,30,,,,,,,,,,,,,,,,,
0.0,1.0,1.11788,0.0,8.0,8.0,8.0,1.0,comic_book_02s.jpg,0.0,Red.png,2.0,30,,,,,,,,,,,,,,,,,
0.0,1.0,2.369405,0.0,9.0,9.0,9.0,1.0,lizard_10n.jpg,0.0,Orange.png,2.0,30,,,,,,,,,,,,,,,,,
0.0,1.0,1.31802,0.0,10.0,10.0,10.0,1.0,rice_12s.jpg,0.0,Yellow.png,2.0,30,,,,,,,,,,,,,,,,,
0.0,1.0,0.934805,0.0,11.0,11.0,11.0,1.0,bagel_15s.jpg,0.0,Green.png,2.0,30,,,,,,,,,,,,,,,,,
0.0,1.0,1.468415,0.0,12.0,12.0,12.0,1.0,recliner_02s.jpg,0.0,Blue.png,3.0,30,,,,,,,,,,,,,,,,,
0.0,1.0,1.234195,0.0,13.0,13.0,13.0,1.0,recliner_02s.jpg,0.0,Purple.png,3.0,30,,,,,,,,,,,,,,,,,
0.0,1.0,0.66759,0.0,14.0,14.0,14.0,1.0,luggage_08s.jpg,0.0,Red.png,3.0,30,,,,,,,,,,,,,,,,,
1.0,1.0,0.68454,0.0,15.0,15.0,15.0,1.0,recliner_02s.jpg,1.0,Orange.png,3.0,30,,,,,,,,,,,,,,,,,
0.0,1.0,1.03394,0.0,16.0,16.0,16.0,1.0,onion_10s.jpg,0.0,Yellow.png,3.0,30,,,,,,,,,,,,,,,,,
0.0,1.0,0.70127,0.0,17.0,17.0,17.0,1.0,rosary_03s.jpg,0.0,Green.png,3.0,30,,,,,,,,,,,,,,,,,
0.0,1.0,0.98362,0.0,18.0,18.0,18.0,1.0,smokingpipe.jpg,0.0,Blue.png,4.0,30,,,,,,,,,,,,,,,,,
0.0,1.0,0.80126,0.0,19.0,19.0,19.0,1.0,roulette_wheel_04s.jpg,0.0,Purple.png,4.0,30,,,,,,,,,,,,,,,,,
1.0,1.0,1.48532,0.0,20.0,20.0,20.0,1.0,smokingpipe.jpg,1.0,Red.png,4.0,30,,,,,,,,,,,,,,,,,
0.0,1.0,1.16826,0.0,21.0,21.0,21.0,1.0,orchid_01b.jpg,0.0,Orange.png,4.0,30,,,,,,,,,,,,,,,,,
0.0,1.0,0.90096,0.0,22.0,22.0,22.0,1.0,buoy_04s.jpg,0.0,Yellow.png,4.0,30,,,,,,,,,,,,,,,,,
0.0,1.0,1.13471,0.0,23.0,23.0,23.0,1.0,stopwatch_04s.jpg,0.0,Green.png,4.0,30,,,,,,,,,,,,,,,,,
0.0,1.0,1.418405,0.0,24.0,24.0,24.0,1.0,knitting_needle_04s.jpg,0.0,Blue.png,5.0,30,,,,,,,,,,,,,,,,,
0.0,1.0,1.3345,0.0,25.0,25.0,25.0,1.0,prism_10s.jpg,0.0,Purple.png,5.0,30,,,,,,,,,,,,,,,,,
0.0,1.0,0.91766,0.0,26.0,26.0,26.0,1.0,teapot_03s.jpg,0.0,Red.png,5.0,30,,,,,,,,,,,,,,,,,
0.0,1.0,1.168435,0.0,27.0,27.0,27.0,1.0,fire_pit_10s.jpg,0.0,Orange.png,5.0,30,,,,,,,,,,,,,,,,,
0.0,1.0,1.41795,0.0,28.0,28.0,28.0,1.0,fire_pit_10s.jpg,0.0,Yellow.png,5.0,30,,,,,,,,,,,,,,,,,
1.0,1.0,0.7017,0.0,29.0,29.0,29.0,1.0,fire_pit_10s.jpg,1.0,Green.png,5.0,30,,,,,,,,,,,,,,,,,
0.0,1.0,1.25108,0.0,30.0,30.0,30.0,1.0,ironing_board_07s.jpg,0.0,Blue.png,6.0,30,,,,,,,,,,,,,,,,,
1.0,1.0,0.73445,0.0,31.0,31.0,31.0,1.0,fire_pit_10s.jpg,1.0,Purple.png,6.0,30,,,,,,,,,,,,,,,,,
0.0,1.0,1.084645,0.0,32.0,32.0,32.0,1.0,mattress_01s.jpg,0.0,Red.png,6.0,30,,,,,,,,,,,,,,,,,
1.0,1.0,0.56815,0.0,33.0,33.0,33.0,1.0,fire_pit_10s.jpg,1.0,Orange.png,6.0,30,,,,,,,,,,,,,,,,,
1.0,1.0,1.26839,0.0,34.0,34.0,34.0,1.0,mattress_01s.jpg,1.0,Yellow.png,6.0,30,,,,,,,,,,,,,,,,,
0.0,1.0,1.26899,0.0,35.0,35.0,35.0,1.0,ice-cream_cone_06s.jpg,0.0,Green.png,6.0,30,,,,,,,,,,,,,,,,,
,,,,,,,,,1.0,,,30,1.0,1.0,2.118425,0.0,0.0,0.0,0.0,1.0,roulette_wheel_04s.jpg,buoy_04s.jpg,,,,,,,
,,,,,,,,,0.0,,,30,0.0,1.0,0.96716,0.0,1.0,1.0,1.0,1.0,lion_18s.jpg,potholder_02s.jpg,,,,,,,
,,,,,,,,,0.0,,,30,0.0,1.0,1.017965,0.0,2.0,2.0,2.0,1.0,bagel_15s.jpg,comic_book_02s.jpg,,,,,,,
,,,,,,,,,1.0,,,30,1.0,1.0,2.03659,0.0,3.0,3.0,3.0,1.0,stopwatch_04s.jpg,teapot_03s.jpg,,,,,,,
,,,,,,,,,1.0,,,30,1.0,1.0,2.436445,0.0,4.0,4.0,4.0,1.0,luggage_08s.jpg,rosary_03s.jpg,,,,,,,
,,,,,,,,,1.0,,,30,1.0,1.0,3.103425,0.0,5.0,5.0,5.0,1.0,orchid_01b.jpg,knitting_needle_04s.jpg,,,,,,,
,,,,,,,,,,,,30,,,,,,,,,,,0.0,2.0,2.0,2.0,1.0,new2backpresent_3_4.xlsx,new2back_compare_task_3_4.xlsx
0.0,1.0,1.818835,0.0,0.0,0.0,0.0,1.0,smoothie_09s.jpg,0.0,Blue.png,1.0,30,,,,,,,,,,,,,,,,,
0.0,1.0,1.00151,0.0,1.0,1.0,1.0,1.0,raspberry_12s.jpg,0.0,Purple.png,1.0,30,,,,,,,,,,,,,,,,,
0.0,1.0,1.034675,0.0,2.0,2.0,2.0,1.0,raspberry_12s.jpg,0.0,Red.png,1.0,30,,,,,,,,,,,,,,,,,
0.0,1.0,0.7673,0.0,3.0,3.0,3.0,1.0,lamb_chop_07s.jpg,0.0,Orange.png,1.0,30,,,,,,,,,,,,,,,,,
0.0,1.0,1.05119,0.0,4.0,4.0,4.0,1.0,smoothie_09s.jpg,0.0,Yellow.png,1.0,30,,,,,,,,,,,,,,,,,
0.0,1.0,0.91852,0.0,5.0,5.0,5.0,1.0,raspberry_12s.jpg,0.0,Green.png,1.0,30,,,,,,,,,,,,,,,,,
0.0,1.0,1.618785,0.0,6.0,6.0,6.0,1.0,lava_02s.jpg,0.0,Blue.png,2.0,30,,,,,,,,,,,,,,,,,
0.0,1.0,1.702145,0.0,7.0,7.0,7.0,1.0,trident_07s.jpg,0.0,Purple.png,2.0,30,,,,,,,,,,,,,,,,,
0.0,1.0,0.85099,0.0,8.0,8.0,8.0,1.0,trident_07s.jpg,0.0,Red.png,2.0,30,,,,,,,,,,,,,,,,,
1.0,1.0,0.60055,0.0,9.0,9.0,9.0,1.0,trident_07s.jpg,1.0,Orange.png,2.0,30,,,,,,,,,,,,,,,,,
0.0,1.0,0.967225,0.0,10.0,10.0,10.0,1.0,orangutan_03s.jpg,0.0,Yellow.png,2.0,30,,,,,,,,,,,,,,,,,
1.0,1.0,0.59909,0.0,11.0,11.0,11.0,1.0,trident_07s.jpg,1.0,Green.png,2.0,30,,,,,,,,,,,,,,,,,
0.0,1.0,1.434465,0.0,12.0,12.0,12.0,1.0,raspberry_12s.jpg,0.0,Blue.png,3.0,30,,,,,,,,,,,,,,,,,
1.0,1.0,1.167975,0.0,13.0,13.0,13.0,1.0,trident_07s.jpg,1.0,Purple.png,3.0,30,,,,,,,,,,,,,,,,,
0.0,1.0,0.90066,0.0,14.0,14.0,14.0,1.0,lavender_10s.jpg,0.0,Red.png,3.0,30,,,,,,,,,,,,,,,,,
0.0,1.0,0.93445,0.0,15.0,15.0,15.0,1.0,chip_04s.jpg,0.0,Orange.png,3.0,30,,,,,,,,,,,,,,,,,
0.0,1.0,1.90328,0.0,16.0,16.0,16.0,1.0,lamb_04s.jpg,0.0,Yellow.png,3.0,30,,,,,,,,,,,,,,,,,
0.0,1.0,1.003205,0.0,17.0,17.0,17.0,1.0,emerald_02s.jpg,0.0,Green.png,3.0,30,,,,,,,,,,,,,,,,,
0.0,1.0,1.18847,0.0,18.0,18.0,18.0,1.0,pineapple_12s.jpg,0.0,Blue.png,4.0,30,,,,,,,,,,,,,,,,,
0.0,1.0,1.119105,0.0,19.0,19.0,19.0,1.0,sundae_08s.jpg,0.0,Purple.png,4.0,30,,,,,,,,,,,,,,,,,
0.0,1.0,1.286165,0.0,20.0,20.0,20.0,1.0,sundae_08s.jpg,0.0,Red.png,4.0,30,,,,,,,,,,,,,,,,,
0.0,1.0,0.949785,0.0,21.0,21.0,21.0,1.0,squirrel_02s.jpg,0.0,Orange.png,4.0,30,,,,,,,,,,,,,,,,,
0.0,1.0,0.95115,0.0,22.0,22.0,22.0,1.0,roller_coaster_07s.jpg,0.0,Yellow.png,4.0,30,,,,,,,,,,,,,,,,,
0.0,1.0,1.17334,0.0,23.0,23.0,23.0,1.0,sundae_08s.jpg,0.0,Green.png,4.0,30,,,,,,,,,,,,,,,,,
0.0,1.0,1.00282,0.0,24.0,24.0,24.0,1.0,tweezers_03s.jpg,0.0,Blue.png,5.0,30,,,,,,,,,,,,,,,,,
1.0,1.0,0.86912,0.0,25.0,25.0,25.0,1.0,sundae_08s.jpg,1.0,Purple.png,5.0,30,,,,,,,,,,,,,,,,,
0.0,1.0,1.47185,0.0,26.0,26.0,26.0,1.0,rudder_02s.jpg,0.0,Red.png,5.0,30,,,,,,,,,,,,,,,,,
0.0,1.0,0.938545,0.0,27.0,27.0,27.0,1.0,rake_06s.jpg,0.0,Orange.png,5.0,30,,,,,,,,,,,,,,,,,
0.0,1.0,1.435925,0.0,28.0,28.0,28.0,1.0,rake_06s.jpg,0.0,Yellow.png,5.0,30,,,,,,,,,,,,,,,,,
1.0,1.0,0.45207,0.0,29.0,29.0,29.0,1.0,rake_06s.jpg,1.0,Green.png,5.0,30,,,,,,,,,,,,,,,,,
0.0,1.0,0.85246,0.0,30.0,30.0,30.0,1.0,cap_05s.jpg,0.0,Blue.png,6.0,30,,,,,,,,,,,,,,,,,
0.0,1.0,1.03447,0.0,31.0,31.0,31.0,1.0,paper_towel_03s.jpg,0.0,Purple.png,6.0,30,,,,,,,,,,,,,,,,,
0.0,1.0,1.016735,0.0,32.0,32.0,32.0,1.0,toaster_03s.jpg,0.0,Red.png,6.0,30,,,,,,,,,,,,,,,,,
0.0,1.0,1.02212,0.0,33.0,33.0,33.0,1.0,money_07s.jpg,0.0,Orange.png,6.0,30,,,,,,,,,,,,,,,,,
0.0,1.0,0.87271,0.0,34.0,34.0,34.0,1.0,pinwheel_06s.jpg,0.0,Yellow.png,6.0,30,,,,,,,,,,,,,,,,,
0.0,1.0,0.90805,0.0,35.0,35.0,35.0,1.0,lid_10s.jpg,0.0,Green.png,6.0,30,,,,,,,,,,,,,,,,,
,,,,,,,,,0.0,,,30,1.0,0.0,3.70378,0.0,0.0,0.0,0.0,1.0,tweezers_03s.jpg,squirrel_02s.jpg,,,,,,,
,,,,,,,,,1.0,,,30,0.0,0.0,1.38483,0.0,1.0,1.0,1.0,1.0,chip_04s.jpg,pineapple_12s.jpg,,,,,,,
,,,,,,,,,1.0,,,30,1.0,1.0,1.352065,0.0,2.0,2.0,2.0,1.0,lamb_chop_07s.jpg,lava_02s.jpg,,,,,,,
,,,,,,,,,0.0,,,30,0.0,1.0,3.237145,0.0,3.0,3.0,3.0,1.0,pinwheel_06s.jpg,paper_towel_03s.jpg,,,,,,,
,,,,,,,,,0.0,,,30,1.0,0.0,2.453435,0.0,4.0,4.0,4.0,1.0,emerald_02s.jpg,lavender_10s.jpg,,,,,,,
,,,,,,,,,0.0,,,30,0.0,1.0,1.618845,0.0,5.0,5.0,5.0,1.0,money_07s.jpg,cap_05s.jpg,,,,,,,
,,,,,,,,,,,,30,,,,,,,,,,,0.0,3.0,3.0,3.0,1.0,new2backpresent_4_4.xlsx,new2back_compare_task_4_4.xlsx
0.0,1.0,2.062005,0.0,0.0,0.0,0.0,1.0,fur_coat_11s.jpg,0.0,Blue.png,1.0,30,,,,,,,,,,,,,,,,,
0.0,1.0,0.793135,0.0,1.0,1.0,1.0,1.0,crayon_09s.jpg,0.0,Purple.png,1.0,30,,,,,,,,,,,,,,,,,
0.0,1.0,1.14053,0.0,2.0,2.0,2.0,1.0,cobra_05s.jpg,0.0,Red.png,1.0,30,,,,,,,,,,,,,,,,,
0.0,1.0,1.736065,0.0,3.0,3.0,3.0,1.0,raccoon_02s.jpg,0.0,Orange.png,1.0,30,,,,,,,,,,,,,,,,,
0.0,1.0,2.21888,0.0,4.0,4.0,4.0,1.0,soda_fountain_03s.jpg,0.0,Yellow.png,1.0,30,,,,,,,,,,,,,,,,,
1.0,1.0,1.318995,0.0,5.0,5.0,5.0,1.0,raccoon_02s.jpg,1.0,Green.png,1.0,30,,,,,,,,,,,,,,,,,
0.0,1.0,1.06813,0.0,6.0,6.0,6.0,1.0,feather02.jpg,0.0,Blue.png,2.0,30,,,,,,,,,,,,,,,,,
1.0,1.0,0.584325,0.0,7.0,7.0,7.0,1.0,raccoon_02s.jpg,1.0,Purple.png,2.0,30,,,,,,,,,,,,,,,,,
1.0,1.0,0.55239,0.0,8.0,8.0,8.0,1.0,feather02.jpg,1.0,Red.png,2.0,30,,,,,,,,,,,,,,,,,
0.0,1.0,1.039435,0.0,9.0,9.0,9.0,1.0,rug_09s.jpg,0.0,Orange.png,2.0,30,,,,,,,,,,,,,,,,,
1.0,1.0,1.262625,0.0,10.0,10.0,10.0,1.0,feather02.jpg,1.0,Yellow.png,2.0,30,,,,,,,,,,,,,,,,,
0.0,1.0,0.674495,0.0,11.0,11.0,11.0,1.0,cushion_08s.jpg,0.0,Green.png,2.0,30,,,,,,,,,,,,,,,,,
1.0,1.0,0.822375,0.0,12.0,12.0,12.0,1.0,feather02.jpg,1.0,Blue.png,3.0,30,,,,,,,,,,,,,,,,,
0.0,1.0,0.936315,0.0,13.0,13.0,13.0,1.0,feather02.jpg,0.0,Purple.png,3.0,30,,,,,,,,,,,,,,,,,
0.0,1.0,1.25226,0.0,14.0,14.0,14.0,1.0,ice_pack_09s.jpg,0.0,Red.png,3.0,30,,,,,,,,,,,,,,,,,
0.0,1.0,1.60586,0.0,15.0,15.0,15.0,1.0,ice_pack_09s.jpg,0.0,Orange.png,3.0,30,,,,,,,,,,,,,,,,,
0.0,1.0,0.96937,0.0,16.0,16.0,16.0,1.0,loom_05s.jpg,0.0,Yellow.png,3.0,30,,,,,,,,,,,,,,,,,
1.0,1.0,1.168785,0.0,17.0,17.0,17.0,1.0,ice_pack_09s.jpg,1.0,Green.png,3.0,30,,,,,,,,,,,,,,,,,
0.0,1.0,1.051805,0.0,18.0,18.0,18.0,1.0,ice_pack_09s.jpg,0.0,Blue.png,4.0,30,,,,,,,,,,,,,,,,,
1.0,1.0,0.651075,0.0,19.0,19.0,19.0,1.0,ice_pack_09s.jpg,1.0,Purple.png,4.0,30,,,,,,,,,,,,,,,,,
1.0,1.0,0.714285,0.0,20.0,20.0,20.0,1.0,ice_pack_09s.jpg,1.0,Red.png,4.0,30,,,,,,,,,,,,,,,,,
0.0,1.0,0.68394,0.0,21.0,21.0,21.0,1.0,blazer_02s.jpg,0.0,Orange.png,4.0,30,,,,,,,,,,,,,,,,,
0.0,1.0,0.73561,0.0,22.0,22.0,22.0,1.0,penlight_12s.jpg,0.0,Yellow.png,4.0,30,,,,,,,,,,,,,,,,,
0.0,1.0,1.072095,0.0,23.0,23.0,23.0,1.0,swan_11s.jpg,0.0,Green.png,4.0,30,,,,,,,,,,,,,,,,,
0.0,1.0,0.8693,0.0,24.0,24.0,24.0,1.0,plunger_08s.jpg,0.0,Blue.png,5.0,30,,,,,,,,,,,,,,,,,
0.0,1.0,1.73604,0.0,25.0,25.0,25.0,1.0,bottle_opener_11s.jpg,0.0,Purple.png,5.0,30,,,,,,,,,,,,,,,,,
0.0,1.0,2.436425,0.0,26.0,26.0,26.0,1.0,checkbook_11s.jpg,0.0,Red.png,5.0,30,,,,,,,,,,,,,,,,,
0.0,1.0,1.15199,0.0,27.0,27.0,27.0,1.0,ink_08s.jpg,0.0,Orange.png,5.0,30,,,,,,,,,,,,,,,,,
0.0,1.0,1.002335,0.0,28.0,28.0,28.0,1.0,plunger_08s.jpg,0.0,Yellow.png,5.0,30,,,,,,,,,,,,,,,,,
0.0,1.0,0.885895,0.0,29.0,29.0,29.0,1.0,pencil02a.jpg,0.0,Green.png,5.0,30,,,,,,,,,,,,,,,,,
0.0,1.0,1.234475,0.0,30.0,30.0,30.0,1.0,ginger_09s.jpg,0.0,Blue.png,6.0,30,,,,,,,,,,,,,,,,,
0.0,1.0,0.987385,0.0,31.0,31.0,31.0,1.0,taxi_15s.jpg,0.0,Purple.png,6.0,30,,,,,,,,,,,,,,,,,
0.0,1.0,1.21956,0.0,32.0,32.0,32.0,1.0,toy_04s.jpg,0.0,Red.png,6.0,30,,,,,,,,,,,,,,,,,
0.0,1.0,1.257815,0.0,33.0,33.0,33.0,1.0,blowfish_03s.jpg,0.0,Orange.png,6.0,30,,,,,,,,,,,,,,,,,
0.0,1.0,0.94047,0.0,34.0,34.0,34.0,1.0,toilet_paper_12s.jpg,0.0,Yellow.png,6.0,30,,,,,,,,,,,,,,,,,
0.0,1.0,0.87038,0.0,35.0,35.0,35.0,1.0,puddle_02s.jpg,0.0,Green.png,6.0,30,,,,,,,,,,,,,,,,,
,,,,,,,,,1.0,,,30,1.0,1.0,4.74687,0.0,0.0,0.0,0.0,1.0,ink_08s.jpg,ginger_09s.jpg,,,,,,,
,,,,,,,,,0.0,,,30,0.0,1.0,2.670875,0.0,1.0,1.0,1.0,1.0,puddle_02s.jpg,toy_04s.jpg,,,,,,,
,,,,,,,,,0.0,,,30,0.0,1.0,1.718325,0.0,2.0,2.0,2.0,1.0,bottle_opener_11s.jpg,penlight_12s.jpg,,,,,,,
,,,,,,,,,0.0,,,30,0.0,1.0,1.986825,0.0,3.0,3.0,3.0,1.0,checkbook_11s.jpg,swan_11s.jpg,,,,,,,
,,,,,,,,,1.0,,,30,1.0,1.0,1.3705,0.0,4.0,4.0,4.0,1.0,taxi_15s.jpg,toilet_paper_12s.jpg,,,,,,,
,,,,,,,,,1.0,,,30,1.0,1.0,0.95177,0.0,5.0,5.0,5.0,1.0,crayon_09s.jpg,soda_fountain_03s.jpg,,,,,,,
,,,,,,,,,,,,30,,,,,,,,,,,0.0,4.0,4.0,4.0,1.0,new2backpresent_5_4.xlsx,new2back_compare_task_5_4.xlsx
0.0,1.0,0.82148,0.0,0.0,0.0,0.0,1.0,flask_04s.jpg,0.0,Blue.png,1.0,30,,,,,,,,,,,,,,,,,
0.0,1.0,0.975765,0.0,1.0,1.0,1.0,1.0,kimono_13s.jpg,0.0,Purple.png,1.0,30,,,,,,,,,,,,,,,,,
0.0,1.0,0.601875,0.0,2.0,2.0,2.0,1.0,limousine_12s.jpg,0.0,Red.png,1.0,30,,,,,,,,,,,,,,,,,
0.0,1.0,1.022285,0.0,3.0,3.0,3.0,1.0,lectern_08s.jpg,0.0,Orange.png,1.0,30,,,,,,,,,,,,,,,,,
0.0,1.0,1.685185,0.0,4.0,4.0,4.0,1.0,kimono_13s.jpg,0.0,Yellow.png,1.0,30,,,,,,,,,,,,,,,,,
0.0,1.0,0.804035,0.0,5.0,5.0,5.0,1.0,doily_13s.jpg,0.0,Green.png,1.0,30,,,,,,,,,,,,,,,,,
1.0,1.0,0.56749,0.0,6.0,6.0,6.0,1.0,kimono_13s.jpg,1.0,Blue.png,2.0,30,,,,,,,,,,,,,,,,,
0.0,1.0,0.734935,0.0,7.0,7.0,7.0,1.0,razor_blade_01b.jpg,0.0,Purple.png,2.0,30,,,,,,,,,,,,,,,,,
0.0,1.0,1.25186,0.0,8.0,8.0,8.0,1.0,razor_blade_01b.jpg,0.0,Red.png,2.0,30,,,,,,,,,,,,,,,,,
0.0,1.0,0.817745,0.0,9.0,9.0,9.0,1.0,champagne_18s.jpg,0.0,Orange.png,2.0,30,,,,,,,,,,,,,,,,,
0.0,1.0,1.251655,0.0,10.0,10.0,10.0,1.0,stamp1_11s.jpg,0.0,Yellow.png,2.0,30,,,,,,,,,,,,,,,,,
1.0,1.0,0.984385,0.0,11.0,11.0,11.0,1.0,champagne_18s.jpg,1.0,Green.png,2.0,30,,,,,,,,,,,,,,,,,
0.0,1.0,1.355295,0.0,12.0,12.0,12.0,1.0,crossbow_10s.jpg,0.0,Blue.png,3.0,30,,,,,,,,,,,,,,,,,
0.0,1.0,0.8226,0.0,13.0,13.0,13.0,1.0,briefcase_03s.jpg,0.0,Purple.png,3.0,30,,,,,,,,,,,,,,,,,
0.0,1.0,0.98666,0.0,14.0,14.0,14.0,1.0,jersey_02s.jpg,0.0,Red.png,3.0,30,,,,,,,,,,,,,,,,,
1.0,1.0,1.26762,0.0,15.0,15.0,15.0,1.0,briefcase_03s.jpg,1.0,Orange.png,3.0,30,,,,,,,,,,,,,,,,,
0.0,1.0,0.835515,0.0,16.0,16.0,16.0,1.0,oil_02s.jpg,0.0,Yellow.png,3.0,30,,,,,,,,,,,,,,,,,
0.0,1.0,1.63996,0.0,17.0,17.0,17.0,1.0,tinsel_12s.jpg,0.0,Green.png,3.0,30,,,,,,,,,,,,,,,,,
0.0,1.0,1.159585,0.0,18.0,18.0,18.0,1.0,flask_04s.jpg,0.0,Blue.png,4.0,30,,,,,,,,,,,,,,,,,
0.0,1.0,0.7706,0.0,19.0,19.0,19.0,1.0,fork_04s.jpg,0.0,Purple.png,4.0,30,,,,,,,,,,,,,,,,,
0.0,1.0,0.88719,0.0,20.0,20.0,20.0,1.0,purse_05s.jpg,0.0,Red.png,4.0,30,,,,,,,,,,,,,,,,,
0.0,1.0,1.56992,0.0,21.0,21.0,21.0,1.0,flask_04s.jpg,0.0,Orange.png,4.0,30,,,,,,,,,,,,,,,,,
0.0,1.0,0.98454,0.0,22.0,22.0,22.0,1.0,sledgehammer_03s.jpg,0.0,Yellow.png,4.0,30,,,,,,,,,,,,,,,,,
0.0,1.0,0.835305,0.0,23.0,23.0,23.0,1.0,turf_03s.jpg,0.0,Green.png,4.0,30,,,,,,,,,,,,,,,,,
0.0,1.0,0.953995,0.0,24.0,24.0,24.0,1.0,omelet_07s.jpg,0.0,Blue.png,5.0,30,,,,,,,,,,,,,,,,,
1.0,1.0,1.052815,0.0,25.0,25.0,25.0,1.0,turf_03s.jpg,1.0,Purple.png,5.0,30,,,,,,,,,,,,,,,,,
0.0,1.0,0.85214,0.0,26.0,26.0,26.0,1.0,clover_04s.jpg,0.0,Red.png,5.0,30,,,,,,,,,,,,,,,,,
0.0,1.0,1.06824,0.0,27.0,27.0,27.0,1.0,lip_gloss_06s.jpg,0.0,Orange.png,5.0,30,,,,,,,,,,,,,,,,,
0.0,1.0,1.248475,0.0,28.0,28.0,28.0,1.0,amber_04s.jpg,0.0,Yellow.png,5.0,30,,,,,,,,,,,,,,,,,
0.0,1.0,0.836,0.0,29.0,29.0,29.0,1.0,tortilla_06s.jpg,0.0,Green.png,5.0,30,,,,,,,,,,,,,,,,,
0.0,1.0,1.188835,0.0,30.0,30.0,30.0,1.0,razor_blade_01b.jpg,0.0,Blue.png,6.0,30,,,,,,,,,,,,,,,,,
0.0,1.0,0.889785,0.0,31.0,31.0,31.0,1.0,tape_measure_11s.jpg,0.0,Purple.png,6.0,30,,,,,,,,,,,,,,,,,
1.0,1.0,0.901755,0.0,32.0,32.0,32.0,1.0,razor_blade_01b.jpg,1.0,Red.png,6.0,30,,,,,,,,,,,,,,,,,
0.0,1.0,1.402455,0.0,33.0,33.0,33.0,1.0,razor_blade_01b.jpg,0.0,Orange.png,6.0,30,,,,,,,,,,,,,,,,,
0.0,1.0,0.751415,0.0,34.0,34.0,34.0,1.0,stingray_02s.jpg,0.0,Yellow.png,6.0,30,,,,,,,,,,,,,,,,,
0.0,1.0,0.818645,0.0,35.0,35.0,35.0,1.0,harpoon.jpg,0.0,Green.png,6.0,30,,,,,,,,,,,,,,,,,
,,,,,,,,,1.0,,,30,1.0,1.0,2.126455,0.0,0.0,0.0,0.0,1.0,oil_02s.jpg,fork_04s.jpg,,,,,,,
,,,,,,,,,0.0,,,30,0.0,1.0,0.942215,0.0,1.0,1.0,1.0,1.0,doily_13s.jpg,limousine_12s.jpg,,,,,,,
,,,,,,,,,0.0,,,30,1.0,0.0,3.881685,0.0,2.0,2.0,2.0,1.0,lip_gloss_06s.jpg,omelet_07s.jpg,,,,,,,
,,,,,,,,,0.0,,,30,0.0,1.0,1.57014,0.0,3.0,3.0,3.0,1.0,tape_measure_11s.jpg,amber_04s.jpg,,,,,,,
,,,,,,,,,0.0,,,30,0.0,1.0,1.06868,0.0,4.0,4.0,4.0,1.0,tortilla_06s.jpg,clover_04s.jpg,,,,,,,
,,,,,,,,,0.0,,,30,0.0,1.0,1.41874,0.0,5.0,5.0,5.0,1.0,purse_05s.jpg,tinsel_12s.jpg,,,,,,,
,,,,,,,,,,,,30,,,,,,,,,,,0.0,5.0,5.0,5.0,1.0,new2backpresent_6_4.xlsx,new2back_compare_task_6_4.xlsx
0.0,1.0,1.10128,0.0,0.0,0.0,0.0,1.0,butter_14s.jpg,0.0,Blue.png,1.0,30,,,,,,,,,,,,,,,,,
0.0,1.0,0.93422,0.0,1.0,1.0,1.0,1.0,butter_14s.jpg,0.0,Purple.png,1.0,30,,,,,,,,,,,,,,,,,
1.0,1.0,1.03489,0.0,2.0,2.0,2.0,1.0,butter_14s.jpg,1.0,Red.png,1.0,30,,,,,,,,,,,,,,,,,
0.0,1.0,1.35268,0.0,3.0,3.0,3.0,1.0,stamp2_08s.jpg,0.0,Orange.png,1.0,30,,,,,,,,,,,,,,,,,
0.0,1.0,1.08547,0.0,4.0,4.0,4.0,1.0,kangaroo_02s.jpg,0.0,Yellow.png,1.0,30,,,,,,,,,,,,,,,,,
0.0,1.0,0.868045,0.0,5.0,5.0,5.0,1.0,camcorder_10s.jpg,0.0,Green.png,1.0,30,,,,,,,,,,,,,,,,,
0.0,1.0,1.418215,0.0,6.0,6.0,6.0,1.0,bank_06s.jpg,0.0,Blue.png,2.0,30,,,,,,,,,,,,,,,,,
0.0,1.0,2.39743,0.0,7.0,7.0,7.0,1.0,gear_07s.jpg,0.0,Purple.png,2.0,30,,,,,,,,,,,,,,,,,
1.0,1.0,1.802875,0.0,8.0,8.0,8.0,1.0,bank_06s.jpg,1.0,Red.png,2.0,30,,,,,,,,,,,,,,,,,
0.0,1.0,1.553325,0.0,9.0,9.0,9.0,1.0,funnel_01b.jpg,0.0,Orange.png,2.0,30,,,,,,,,,,,,,,,,,
0.0,1.0,1.00198,0.0,10.0,10.0,10.0,1.0,poinsettia_04s.jpg,0.0,Yellow.png,2.0,30,,,,,,,,,,,,,,,,,
1.0,1.0,1.235855,0.0,11.0,11.0,11.0,1.0,funnel_01b.jpg,1.0,Green.png,2.0,30,,,,,,,,,,,,,,,,,
0.0,1.0,2.31082,0.0,12.0,12.0,12.0,1.0,rooster_03s.jpg,0.0,Blue.png,3.0,30,,,,,,,,,,,,,,,,,
0.0,1.0,0.76725,0.0,13.0,13.0,13.0,1.0,denture_03s.jpg,0.0,Purple.png,3.0,30,,,,,,,,,,,,,,,,,
0.0,1.0,0.653545,0.0,14.0,14.0,14.0,1.0,bean_06s.jpg,0.0,Red.png,3.0,30,,,,,,,,,,,,,,,,,
0.0,1.0,0.885325,0.0,15.0,15.0,15.0,1.0,mud_13s.jpg,0.0,Orange.png,3.0,30,,,,,,,,,,,,,,,,,
0.0,1.0,0.801845,0.0,16.0,16.0,16.0,1.0,keyhole_03s.jpg,0.0,Yellow.png,3.0,30,,,,,,,,,,,,,,,,,
0.0,1.0,1.71708,0.0,17.0,17.0,17.0,1.0,bean_06s.jpg,0.0,Green.png,3.0,30,,,,,,,,,,,,,,,,,
0.0,1.0,1.45108,0.0,18.0,18.0,18.0,1.0,bank_06s.jpg,0.0,Blue.png,4.0,30,,,,,,,,,,,,,,,,,
0.0,1.0,0.88386,0.0,19.0,19.0,19.0,1.0,pomegranate_04s.jpg,0.0,Purple.png,4.0,30,,,,,,,,,,,,,,,,,
0.0,1.0,0.856275,0.0,20.0,20.0,20.0,1.0,chopsticks_08s.jpg,0.0,Red.png,4.0,30,,,,,,,,,,,,,,,,,
0.0,1.0,1.002225,0.0,21.0,21.0,21.0,1.0,contact_lens_15s.jpg,0.0,Orange.png,4.0,30,,,,,,,,,,,,,,,,,
0.0,1.0,0.685295,0.0,22.0,22.0,22.0,1.0,hydrant_10s.jpg,0.0,Yellow.png,4.0,30,,,,,,,,,,,,,,,,,
0.0,1.0,0.96876,0.0,23.0,23.0,23.0,1.0,gingerbread_man_03s.jpg,0.0,Green.png,4.0,30,,,,,,,,,,,,,,,,,
0.0,1.0,1.55258,0.0,24.0,24.0,24.0,1.0,camcorder_10s.jpg,0.0,Blue.png,5.0,30,,,,,,,,,,,,,,,,,
0.0,1.0,0.767255,0.0,25.0,25.0,25.0,1.0,teabag_12s.jpg,0.0,Purple.png,5.0,30,,,,,,,,,,,,,,,,,
0.0,1.0,0.668455,0.0,26.0,26.0,26.0,1.0,radiator_05s.jpg,0.0,Red.png,5.0,30,,,,,,,,,,,,,,,,,
0.0,1.0,1.234775,0.0,27.0,27.0,27.0,1.0,punch1_10s.jpg,0.0,Orange.png,5.0,30,,,,,,,,,,,,,,,,,
0.0,1.0,0.88226,0.0,28.0,28.0,28.0,1.0,mailbox_11s.jpg,0.0,Yellow.png,5.0,30,,,,,,,,,,,,,,,,,
0.0,1.0,0.69195,0.0,29.0,29.0,29.0,1.0,beaker_01b.jpg,0.0,Green.png,5.0,30,,,,,,,,,,,,,,,,,
1.0,1.0,0.919405,0.0,30.0,30.0,30.0,1.0,mailbox_11s.jpg,1.0,Blue.png,6.0,30,,,,,,,,,,,,,,,,,
0.0,1.0,0.78985,0.0,31.0,31.0,31.0,1.0,pipe1_10s.jpg,0.0,Purple.png,6.0,30,,,,,,,,,,,,,,,,,
1.0,1.0,0.868385,0.0,32.0,32.0,32.0,1.0,mailbox_11s.jpg,1.0,Red.png,6.0,30,,,,,,,,,,,,,,,,,
0.0,0.0,1.57089,0.0,33.0,33.0,33.0,1.0,pipe1_10s.jpg,1.0,Orange.png,6.0,30,,,,,,,,,,,,,,,,,
0.0,1.0,1.08436,0.0,34.0,34.0,34.0,1.0,eyedropper_12s.jpg,0.0,Yellow.png,6.0,30,,,,,,,,,,,,,,,,,
0.0,1.0,0.81833,0.0,35.0,35.0,35.0,1.0,rhubarb_03s.jpg,0.0,Green.png,6.0,30,,,,,,,,,,,,,,,,,
,,,,,,,,,0.0,,,30,1.0,0.0,3.267235,0.0,0.0,0.0,0.0,1.0,mud_13s.jpg,rooster_03s.jpg,,,,,,,
,,,,,,,,,1.0,,,30,1.0,1.0,2.43051,0.0,1.0,1.0,1.0,1.0,chopsticks_08s.jpg,gingerbread_man_03s.jpg,,,,,,,
,,,,,,,,,0.0,,,30,0.0,1.0,1.53491,0.0,2.0,2.0,2.0,1.0,beaker_01b.jpg,radiator_05s.jpg,,,,,,,
,,,,,,,,,0.0,,,30,0.0,1.0,1.78642,0.0,3.0,3.0,3.0,1.0,teabag_12s.jpg,hydrant_10s.jpg,,,,,,,
,,,,,,,,,0.0,,,30,1.0,0.0,2.487695,0.0,4.0,4.0,4.0,1.0,denture_03s.jpg,poinsettia_04s.jpg,,,,,,,
,,,,,,,,,1.0,,,30,1.0,1.0,1.80889,0.0,5.0,5.0,5.0,1.0,kangaroo_02s.jpg,gear_07s.jpg,,,,,,,
,,,,,,,,,,,,30,,,,,,,,,,,0.0,6.0,6.0,6.0,1.0,new2backpresent_7_4.xlsx,new2back_compare_task_7_4.xlsx
0.0,1.0,1.20133,0.0,0.0,0.0,0.0,1.0,lamppost_09s.jpg,0.0,Blue.png,1.0,30,,,,,,,,,,,,,,,,,
0.0,1.0,0.667795,0.0,1.0,1.0,1.0,1.0,jewel_01b.jpg,0.0,Purple.png,1.0,30,,,,,,,,,,,,,,,,,
0.0,1.0,0.734385,0.0,2.0,2.0,2.0,1.0,tuxedo_01b.jpg,0.0,Red.png,1.0,30,,,,,,,,,,,,,,,,,
0.0,1.0,0.667035,0.0,3.0,3.0,3.0,1.0,flip_flop_03s.jpg,0.0,Orange.png,1.0,30,,,,,,,,,,,,,,,,,
0.0,1.0,0.868255,0.0,4.0,4.0,4.0,1.0,medal_04s.jpg,0.0,Yellow.png,1.0,30,,,,,,,,,,,,,,,,,
1.0,1.0,1.23807,0.0,5.0,5.0,5.0,1.0,flip_flop_03s.jpg,1.0,Green.png,1.0,30,,,,,,,,,,,,,,,,,
0.0,1.0,0.819065,0.0,6.0,6.0,6.0,1.0,tuxedo_01b.jpg,0.0,Blue.png,2.0,30,,,,,,,,,,,,,,,,,
1.0,1.0,0.8622,0.0,7.0,7.0,7.0,1.0,flip_flop_03s.jpg,1.0,Purple.png,2.0,30,,,,,,,,,,,,,,,,,
0.0,1.0,0.80804,0.0,8.0,8.0,8.0,1.0,fireworks_18s.jpg,0.0,Red.png,2.0,30,,,,,,,,,,,,,,,,,
0.0,1.0,0.655275,0.0,9.0,9.0,9.0,1.0,squirt_gun_03s.jpg,0.0,Orange.png,2.0,30,,,,,,,,,,,,,,,,,
0.0,1.0,0.97393,0.0,10.0,10.0,10.0,1.0,flip_flop_03s.jpg,0.0,Yellow.png,2.0,30,,,,,,,,,,,,,,,,,
0.0,1.0,0.72122,0.0,11.0,11.0,11.0,1.0,puffin_19s.jpg,0.0,Green.png,2.0,30,,,,,,,,,,,,,,,,,
0.0,1.0,0.602165,0.0,12.0,12.0,12.0,1.0,tuxedo_01b.jpg,0.0,Blue.png,3.0,30,,,,,,,,,,,,,,,,,
0.0,1.0,0.68558,0.0,13.0,13.0,13.0,1.0,tuxedo_01b.jpg,0.0,Purple.png,3.0,30,,,,,,,,,,,,,,,,,
0.0,1.0,1.2692,0.0,14.0,14.0,14.0,1.0,snowman_02s.jpg,0.0,Red.png,3.0,30,,,,,,,,,,,,,,,,,
0.0,1.0,0.65273,0.0,15.0,15.0,15.0,1.0,cucumber_07s.jpg,0.0,Orange.png,3.0,30,,,,,,,,,,,,,,,,,
0.0,1.0,1.30199,0.0,16.0,16.0,16.0,1.0,plug_08s.jpg,0.0,Yellow.png,3.0,30,,,,,,,,,,,,,,,,,
1.0,1.0,0.685525,0.0,17.0,17.0,17.0,1.0,cucumber_07s.jpg,1.0,Green.png,3.0,30,,,,,,,,,,,,,,,,,
0.0,1.0,1.152785,0.0,18.0,18.0,18.0,1.0,puffin_19s.jpg,0.0,Blue.png,4.0,30,,,,,,,,,,,,,,,,,
0.0,1.0,0.98567,0.0,19.0,19.0,19.0,1.0,fondue_07s.jpg,0.0,Purple.png,4.0,30,,,,,,,,,,,,,,,,,
0.0,1.0,1.218735,0.0,20.0,20.0,20.0,1.0,lasagna_06s.jpg,0.0,Red.png,4.0,30,,,,,,,,,,,,,,,,,
0.0,1.0,0.52069,0.0,21.0,21.0,21.0,1.0,eiffeltower.jpg,0.0,Orange.png,4.0,30,,,,,,,,,,,,,,,,,
0.0,1.0,1.108415,0.0,22.0,22.0,22.0,1.0,outlet_10s.jpg,0.0,Yellow.png,4.0,30,,,,,,,,,,,,,,,,,
0.0,1.0,1.2183,0.0,23.0,23.0,23.0,1.0,cape_11s.jpg,0.0,Green.png,4.0,30,,,,,,,,,,,,,,,,,
0.0,1.0,0.901805,0.0,24.0,24.0,24.0,1.0,marshmallow_08s.jpg,0.0,Blue.png,5.0,30,,,,,,,,,,,,,,,,,
0.0,1.0,1.08733,0.0,25.0,25.0,25.0,1.0,racehorse_03s.jpg,0.0,Purple.png,5.0,30,,,,,,,,,,,,,,,,,
0.0,1.0,0.985945,0.0,26.0,26.0,26.0,1.0,aluminum_foil_08s.jpg,0.0,Red.png,5.0,30,,,,,,,,,,,,,,,,,
0.0,1.0,0.99598,0.0,27.0,27.0,27.0,1.0,spoon02a.jpg,0.0,Orange.png,5.0,30,,,,,,,,,,,,,,,,,
0.0,1.0,1.250545,0.0,28.0,28.0,28.0,1.0,padlock_07s.jpg,0.0,Yellow.png,5.0,30,,,,,,,,,,,,,,,,,
0.0,1.0,1.274885,0.0,29.0,29.0,29.0,1.0,solar_panel_02s.jpg,0.0,Green.png,5.0,30,,,,,,,,,,,,,,,,,
0.0,1.0,1.10195,0.0,30.0,30.0,30.0,1.0,turtleneck_11s.jpg,0.0,Blue.png,6.0,30,,,,,,,,,,,,,,,,,
0.0,1.0,0.867735,0.0,31.0,31.0,31.0,1.0,pocketknife_12s.jpg,0.0,Purple.png,6.0,30,,,,,,,,,,,,,,,,,
0.0,1.0,1.420585,0.0,32.0,32.0,32.0,1.0,pocketknife_12s.jpg,0.0,Red.png,6.0,30,,,,,,,,,,,,,,,,,
0.0,1.0,0.937595,0.0,33.0,33.0,33.0,1.0,quill_09s.jpg,0.0,Orange.png,6.0,30,,,,,,,,,,,,,,,,,
0.0,1.0,1.08465,0.0,34.0,34.0,34.0,1.0,quill_09s.jpg,0.0,Yellow.png,6.0,30,,,,,,,,,,,,,,,,,
0.0,1.0,1.4192,0.0,35.0,35.0,35.0,1.0,pocketknife_12s.jpg,0.0,Green.png,6.0,30,,,,,,,,,,,,,,,,,
,,,,,,,,,0.0,,,30,0.0,1.0,1.152535,0.0,0.0,0.0,0.0,1.0,cape_11s.jpg,lasagna_06s.jpg,,,,,,,
,,,,,,,,,0.0,,,30,0.0,1.0,1.753035,0.0,1.0,1.0,1.0,1.0,padlock_07s.jpg,racehorse_03s.jpg,,,,,,,
,,,,,,,,,1.0,,,30,1.0,1.0,1.60347,0.0,2.0,2.0,2.0,1.0,spoon02a.jpg,turtleneck_11s.jpg,,,,,,,
,,,,,,,,,0.0,,,30,0.0,1.0,1.90353,0.0,3.0,3.0,3.0,1.0,marshmallow_08s.jpg,eiffeltower.jpg,,,,,,,
,,,,,,,,,0.0,,,30,0.0,1.0,1.43445,0.0,4.0,4.0,4.0,1.0,medal_04s.jpg,jewel_01b.jpg,,,,,,,
,,,,,,,,,1.0,,,30,1.0,1.0,1.38603,0.0,5.0,5.0,5.0,1.0,plug_08s.jpg,fondue_07s.jpg,,,,,,,
,,,,,,,,,,,,30,,,,,,,,,,,0.0,7.0,7.0,7.0,1.0,new2backpresent_8_4.xlsx,new2back_compare_task_8_4.xlsx
0.0,1.0,1.168075,0.0,0.0,0.0,0.0,1.0,footprint_11s.jpg,0.0,Blue.png,1.0,30,,,,,,,,,,,,,,,,,
0.0,1.0,0.570115,0.0,1.0,1.0,1.0,1.0,coffee_filter_10s.jpg,0.0,Purple.png,1.0,30,,,,,,,,,,,,,,,,,
0.0,1.0,1.269295,0.0,2.0,2.0,2.0,1.0,coffee_filter_10s.jpg,0.0,Red.png,1.0,30,,,,,,,,,,,,,,,,,
1.0,1.0,0.801795,0.0,3.0,3.0,3.0,1.0,coffee_filter_10s.jpg,1.0,Orange.png,1.0,30,,,,,,,,,,,,,,,,,
1.0,1.0,0.918455,0.0,4.0,4.0,4.0,1.0,coffee_filter_10s.jpg,1.0,Yellow.png,1.0,30,,,,,,,,,,,,,,,,,
0.0,1.0,0.733495,0.0,5.0,5.0,5.0,1.0,gargoyle_08s.jpg,0.0,Green.png,1.0,30,,,,,,,,,,,,,,,,,
0.0,1.0,0.735405,0.0,6.0,6.0,6.0,1.0,candy_cane_06s.jpg,0.0,Blue.png,2.0,30,,,,,,,,,,,,,,,,,
0.0,1.0,0.88612,0.0,7.0,7.0,7.0,1.0,toad_09s.jpg,0.0,Purple.png,2.0,30,,,,,,,,,,,,,,,,,
1.0,1.0,0.92975,0.0,8.0,8.0,8.0,1.0,candy_cane_06s.jpg,1.0,Red.png,2.0,30,,,,,,,,,,,,,,,,,
0.0,1.0,0.604865,0.0,9.0,9.0,9.0,1.0,pumpkin_03s.jpg,0.0,Orange.png,2.0,30,,,,,,,,,,,,,,,,,
0.0,1.0,1.609685,0.0,10.0,10.0,10.0,1.0,dashboard_02s.jpg,0.0,Yellow.png,2.0,30,,,,,,,,,,,,,,,,,
0.0,1.0,0.83427,0.0,11.0,11.0,11.0,1.0,syringe_02s.jpg,0.0,Green.png,2.0,30,,,,,,,,,,,,,,,,,
0.0,1.0,0.78496,0.0,12.0,12.0,12.0,1.0,powder_07s.jpg,0.0,Blue.png,3.0,30,,,,,,,,,,,,,,,,,
0.0,1.0,0.96855,0.0,13.0,13.0,13.0,1.0,powder_07s.jpg,0.0,Purple.png,3.0,30,,,,,,,,,,,,,,,,,
1.0,1.0,0.53374,0.0,14.0,14.0,14.0,1.0,powder_07s.jpg,1.0,Red.png,3.0,30,,,,,,,,,,,,,,,,,
0.0,1.0,0.66744,0.0,15.0,15.0,15.0,1.0,sea_urchin_09s.jpg,0.0,Orange.png,3.0,30,,,,,,,,,,,,,,,,,
0.0,1.0,0.697725,0.0,16.0,16.0,16.0,1.0,throne_11s.jpg,0.0,Yellow.png,3.0,30,,,,,,,,,,,,,,,,,
0.0,1.0,0.951955,0.0,17.0,17.0,17.0,1.0,powder_07s.jpg,0.0,Green.png,3.0,30,,,,,,,,,,,,,,,,,
0.0,1.0,1.219355,0.0,18.0,18.0,18.0,1.0,chalice_10s.jpg,0.0,Blue.png,4.0,30,,,,,,,,,,,,,,,,,
0.0,1.0,0.80196,0.0,19.0,19.0,19.0,1.0,air_pump_05s.jpg,0.0,Purple.png,4.0,30,,,,,,,,,,,,,,,,,
0.0,1.0,0.88586,0.0,20.0,20.0,20.0,1.0,microwave_02s.jpg,0.0,Red.png,4.0,30,,,,,,,,,,,,,,,,,
0.0,1.0,1.185345,0.0,21.0,21.0,21.0,1.0,cereal_04s.jpg,0.0,Orange.png,4.0,30,,,,,,,,,,,,,,,,,
0.0,1.0,0.98465,0.0,22.0,22.0,22.0,1.0,mushroom_10n.jpg,0.0,Yellow.png,4.0,30,,,,,,,,,,,,,,,,,
0.0,1.0,0.93485,0.0,23.0,23.0,23.0,1.0,red_carpet_03s.jpg,0.0,Green.png,4.0,30,,,,,,,,,,,,,,,,,
0.0,1.0,1.18421,0.0,24.0,24.0,24.0,1.0,throne_11s.jpg,0.0,Blue.png,5.0,30,,,,,,,,,,,,,,,,,
0.0,1.0,0.98461,0.0,25.0,25.0,25.0,1.0,koala_13s.jpg,0.0,Purple.png,5.0,30,,,,,,,,,,,,,,,,,
1.0,1.0,1.551255,0.0,26.0,26.0,26.0,1.0,throne_11s.jpg,1.0,Red.png,5.0,30,,,,,,,,,,,,,,,,,
0.0,1.0,0.90149,0.0,27.0,27.0,27.0,1.0,rocket_02s.jpg,0.0,Orange.png,5.0,30,,,,,,,,,,,,,,,,,
0.0,1.0,1.11809,0.0,28.0,28.0,28.0,1.0,swordfish_05s.jpg,0.0,Yellow.png,5.0,30,,,,,,,,,,,,,,,,,
1.0,1.0,1.00123,0.0,29.0,29.0,29.0,1.0,rocket_02s.jpg,1.0,Green.png,5.0,30,,,,,,,,,,,,,,,,,
0.0,1.0,1.051885,0.0,30.0,30.0,30.0,1.0,icicle_04s.jpg,0.0,Blue.png,6.0,30,,,,,,,,,,,,,,,,,
0.0,1.0,1.65149,0.0,31.0,31.0,31.0,1.0,keyboard_05s.jpg,0.0,Purple.png,6.0,30,,,,,,,,,,,,,,,,,
0.0,1.0,1.569135,0.0,32.0,32.0,32.0,1.0,pocket_watch_16s.jpg,0.0,Red.png,6.0,30,,,,,,,,,,,,,,,,,
0.0,1.0,1.084165,0.0,33.0,33.0,33.0,1.0,tablet_04s.jpg,0.0,Orange.png,6.0,30,,,,,,,,,,,,,,,,,
0.0,1.0,0.90177,0.0,34.0,34.0,34.0,1.0,chocolate_01b.jpg,0.0,Yellow.png,6.0,30,,,,,,,,,,,,,,,,,
0.0,1.0,1.48496,0.0,35.0,35.0,35.0,1.0,light_switch_02s.jpg,0.0,Green.png,6.0,30,,,,,,,,,,,,,,,,,
,,,,,,,,,0.0,,,30,0.0,1.0,3.90555,0.0,0.0,0.0,0.0,1.0,chalice_10s.jpg,sea_urchin_09s.jpg,,,,,,,
,,,,,,,,,1.0,,,30,1.0,1.0,1.168785,0.0,1.0,1.0,1.0,1.0,swordfish_05s.jpg,keyboard_05s.jpg,,,,,,,
,,,,,,,,,0.0,,,30,0.0,1.0,1.3027,0.0,2.0,2.0,2.0,1.0,red_carpet_03s.jpg,microwave_02s.jpg,,,,,,,
,,,,,,,,,0.0,,,30,0.0,1.0,1.167905,0.0,3.0,3.0,3.0,1.0,dashboard_02s.jpg,toad_09s.jpg,,,,,,,
,,,,,,,,,0.0,,,30,0.0,1.0,1.05224,0.0,4.0,4.0,4.0,1.0,koala_13s.jpg,mushroom_10n.jpg,,,,,,,
,,,,,,,,,1.0,,,30,1.0,1.0,1.50278,0.0,5.0,5.0,5.0,1.0,icicle_04s.jpg,tablet_04s.jpg,,,,,,,
,,,,,,,,,,,,30,,,,,,,,,,,0.0,8.0,8.0,8.0,1.0,new2backpresent_9_4.xlsx,new2back_compare_task_9_4.xlsx
