key_resp.keys,key_resp.corr,key_resp.rt,present_segment.thisRepN,present_segment.thisTrialN,present_segment.thisN,present_segment.thisIndex,present_segment.ran,pictures,answer,clock,segment,participant,key_resp_2.keys,key_resp_2.corr,key_resp_2.rt,compare_segment.thisRepN,compare_segment.thisTrialN,compare_segment.thisN,compare_segment.thisIndex,compare_segment.ran,item_a,item_b,clock_conditions.thisRepN,clock_conditions.thisTrialN,clock_conditions.thisN,clock_conditions.thisIndex,clock_conditions.ran,present,compare
0.0,1.0,1.611965,0.0,0.0,0.0,0.0,1.0,mailbox_11s.jpg,0.0,Blue.png,1.0,3,,,,,,,,,,,,,,,,,
,0.0,,0.0,1.0,1.0,1.0,1.0,mailbox_11s.jpg,0.0,Purple.png,1.0,3,,,,,,,,,,,,,,,,,
0.0,1.0,1.225785,0.0,2.0,2.0,2.0,1.0,checkbook_11s.jpg,0.0,Red.png,1.0,3,,,,,,,,,,,,,,,,,
0.0,1.0,0.876805,0.0,3.0,3.0,3.0,1.0,rocking_chair_05s.jpg,0.0,Orange.png,1.0,3,,,,,,,,,,,,,,,,,
1.0,1.0,2.00508,0.0,4.0,4.0,4.0,1.0,checkbook_11s.jpg,1.0,Yellow.png,1.0,3,,,,,,,,,,,,,,,,,
0.0,0.0,2.46569,0.0,5.0,5.0,5.0,1.0,rocking_chair_05s.jpg,1.0,Green.png,1.0,3,,,,,,,,,,,,,,,,,
0.0,1.0,1.123085,0.0,6.0,6.0,6.0,1.0,eggshell_14s.jpg,0.0,Blue.png,2.0,3,,,,,,,,,,,,,,,,,
1.0,1.0,1.49685,0.0,7.0,7.0,7.0,1.0,rocking_chair_05s.jpg,1.0,Purple.png,2.0,3,,,,,,,,,,,,,,,,,
0.0,1.0,1.0397,0.0,8.0,8.0,8.0,1.0,powder_07s.jpg,0.0,Red.png,2.0,3,,,,,,,,,,,,,,,,,
0.0,1.0,1.05013,0.0,9.0,9.0,9.0,1.0,meatball_13s.jpg,0.0,Orange.png,2.0,3,,,,,,,,,,,,,,,,,
0.0,1.0,1.854975,0.0,10.0,10.0,10.0,1.0,rolling_pin_02s.jpg,0.0,Yellow.png,2.0,3,,,,,,,,,,,,,,,,,
0.0,1.0,2.052165,0.0,11.0,11.0,11.0,1.0,gingerbread_man_03s.jpg,0.0,Green.png,2.0,3,,,,,,,,,,,,,,,,,
0.0,1.0,1.891795,0.0,12.0,12.0,12.0,1.0,rocking_chair_05s.jpg,0.0,Blue.png,3.0,3,,,,,,,,,,,,,,,,,
0.0,1.0,1.06586,0.0,13.0,13.0,13.0,1.0,bowler_hat_10s.jpg,0.0,Purple.png,3.0,3,,,,,,,,,,,,,,,,,
1.0,1.0,1.04248,0.0,14.0,14.0,14.0,1.0,rocking_chair_05s.jpg,1.0,Red.png,3.0,3,,,,,,,,,,,,,,,,,
,0.0,,0.0,15.0,15.0,15.0,1.0,rocking_chair_05s.jpg,0.0,Orange.png,3.0,3,,,,,,,,,,,,,,,,,
1.0,1.0,1.02196,0.0,16.0,16.0,16.0,1.0,rocking_chair_05s.jpg,1.0,Yellow.png,3.0,3,,,,,,,,,,,,,,,,,
0.0,1.0,1.0425,0.0,17.0,17.0,17.0,1.0,projector_08s.jpg,0.0,Green.png,3.0,3,,,,,,,,,,,,,,,,,
0.0,1.0,1.347815,0.0,18.0,18.0,18.0,1.0,checkbook_11s.jpg,0.0,Blue.png,4.0,3,,,,,,,,,,,,,,,,,
1.0,0.0,1.347425,0.0,19.0,19.0,19.0,1.0,checkbook_11s.jpg,0.0,Purple.png,4.0,3,,,,,,,,,,,,,,,,,
0.0,1.0,1.526105,0.0,20.0,20.0,20.0,1.0,crab_16s.jpg,0.0,Red.png,4.0,3,,,,,,,,,,,,,,,,,
1.0,1.0,1.31808,0.0,21.0,21.0,21.0,1.0,checkbook_11s.jpg,1.0,Orange.png,4.0,3,,,,,,,,,,,,,,,,,
0.0,1.0,0.96294,0.0,22.0,22.0,22.0,1.0,peanut_butter_08s.jpg,0.0,Yellow.png,4.0,3,,,,,,,,,,,,,,,,,
0.0,1.0,0.932655,0.0,23.0,23.0,23.0,1.0,breadstick_08s.jpg,0.0,Green.png,4.0,3,,,,,,,,,,,,,,,,,
0.0,1.0,0.88254,0.0,24.0,24.0,24.0,1.0,stethoscope_01b.jpg,0.0,Blue.png,5.0,3,,,,,,,,,,,,,,,,,
0.0,1.0,0.69391,0.0,25.0,25.0,25.0,1.0,pineapple_12s.jpg,0.0,Purple.png,5.0,3,,,,,,,,,,,,,,,,,
1.0,1.0,0.93171,0.0,26.0,26.0,26.0,1.0,stethoscope_01b.jpg,1.0,Red.png,5.0,3,,,,,,,,,,,,,,,,,
0.0,0.0,1.23148,0.0,27.0,27.0,27.0,1.0,pineapple_12s.jpg,1.0,Orange.png,5.0,3,,,,,,,,,,,,,,,,,
0.0,1.0,0.739745,0.0,28.0,28.0,28.0,1.0,air_pump_05s.jpg,0.0,Yellow.png,5.0,3,,,,,,,,,,,,,,,,,
0.0,1.0,0.66881,0.0,29.0,29.0,29.0,1.0,birdcage_08s.jpg,0.0,Green.png,5.0,3,,,,,,,,,,,,,,,,,
0.0,1.0,0.760395,0.0,30.0,30.0,30.0,1.0,kangaroo_02s.jpg,0.0,Blue.png,6.0,3,,,,,,,,,,,,,,,,,
0.0,1.0,1.02399,0.0,31.0,31.0,31.0,1.0,juicer2_06s.jpg,0.0,Purple.png,6.0,3,,,,,,,,,,,,,,,,,
0.0,1.0,1.79157,0.0,32.0,32.0,32.0,1.0,harpoon.jpg,0.0,Red.png,6.0,3,,,,,,,,,,,,,,,,,
0.0,1.0,1.203095,0.0,33.0,33.0,33.0,1.0,mirror_12s.jpg,0.0,Orange.png,6.0,3,,,,,,,,,,,,,,,,,
0.0,1.0,0.853075,0.0,34.0,34.0,34.0,1.0,gear_07s.jpg,0.0,Yellow.png,6.0,3,,,,,,,,,,,,,,,,,
0.0,1.0,1.479335,0.0,35.0,35.0,35.0,1.0,timer_03s.jpg,0.0,Green.png,6.0,3,,,,,,,,,,,,,,,,,
,,,,,,,,,1.0,,,3,1.0,1.0,3.030055,0.0,0.0,0.0,0.0,1.0,powder_07s.jpg,gingerbread_man_03s.jpg,,,,,,,
,,,,,,,,,1.0,,,3,1.0,1.0,2.225365,0.0,1.0,1.0,1.0,1.0,air_pump_05s.jpg,juicer2_06s.jpg,,,,,,,
,,,,,,,,,0.0,,,3,0.0,1.0,2.70671,0.0,2.0,2.0,2.0,1.0,crab_16s.jpg,projector_08s.jpg,,,,,,,
,,,,,,,,,0.0,,,3,0.0,1.0,2.65447,0.0,3.0,3.0,3.0,1.0,mirror_12s.jpg,kangaroo_02s.jpg,,,,,,,
,,,,,,,,,0.0,,,3,1.0,0.0,1.886345,0.0,4.0,4.0,4.0,1.0,bowler_hat_10s.jpg,rolling_pin_02s.jpg,,,,,,,
,,,,,,,,,1.0,,,3,0.0,0.0,2.740795,0.0,5.0,5.0,5.0,1.0,eggshell_14s.jpg,meatball_13s.jpg,,,,,,,
,,,,,,,,,,,,3,,,,,,,,,,,0.0,0.0,0.0,0.0,1.0,new2backpresent_1_1.xlsx,new2back_compare_task_1_1.xlsx
0.0,1.0,1.28707,0.0,0.0,0.0,0.0,1.0,trident_07s.jpg,0.0,Blue.png,1.0,3,,,,,,,,,,,,,,,,,
0.0,1.0,1.019105,0.0,1.0,1.0,1.0,1.0,rosary_03s.jpg,0.0,Purple.png,1.0,3,,,,,,,,,,,,,,,,,
0.0,1.0,1.744525,0.0,2.0,2.0,2.0,1.0,toilet_paper_12s.jpg,0.0,Red.png,1.0,3,,,,,,,,,,,,,,,,,
1.0,1.0,1.18627,0.0,3.0,3.0,3.0,1.0,rosary_03s.jpg,1.0,Orange.png,1.0,3,,,,,,,,,,,,,,,,,
1.0,1.0,1.84925,0.0,4.0,4.0,4.0,1.0,toilet_paper_12s.jpg,1.0,Yellow.png,1.0,3,,,,,,,,,,,,,,,,,
0.0,1.0,1.790195,0.0,5.0,5.0,5.0,1.0,potpourri_03s.jpg,0.0,Green.png,1.0,3,,,,,,,,,,,,,,,,,
0.0,1.0,1.760435,0.0,6.0,6.0,6.0,1.0,rocket_02s.jpg,0.0,Blue.png,2.0,3,,,,,,,,,,,,,,,,,
0.0,1.0,1.827375,0.0,7.0,7.0,7.0,1.0,piano_13n.jpg,0.0,Purple.png,2.0,3,,,,,,,,,,,,,,,,,
1.0,1.0,1.07022,0.0,8.0,8.0,8.0,1.0,rocket_02s.jpg,1.0,Red.png,2.0,3,,,,,,,,,,,,,,,,,
0.0,1.0,1.65173,0.0,9.0,9.0,9.0,1.0,rocket_02s.jpg,0.0,Orange.png,2.0,3,,,,,,,,,,,,,,,,,
0.0,1.0,1.73676,0.0,10.0,10.0,10.0,1.0,umbrella_15s.jpg,0.0,Yellow.png,2.0,3,,,,,,,,,,,,,,,,,
0.0,1.0,2.241285,0.0,11.0,11.0,11.0,1.0,touchpad_11s.jpg,0.0,Green.png,2.0,3,,,,,,,,,,,,,,,,,
0.0,1.0,1.37525,0.0,12.0,12.0,12.0,1.0,rocket_02s.jpg,0.0,Blue.png,3.0,3,,,,,,,,,,,,,,,,,
,0.0,,0.0,13.0,13.0,13.0,1.0,rocket_02s.jpg,0.0,Purple.png,3.0,3,,,,,,,,,,,,,,,,,
1.0,1.0,1.04,0.0,14.0,14.0,14.0,1.0,rocket_02s.jpg,1.0,Red.png,3.0,3,,,,,,,,,,,,,,,,,
0.0,1.0,1.33894,0.0,15.0,15.0,15.0,1.0,roller_coaster_07s.jpg,0.0,Orange.png,3.0,3,,,,,,,,,,,,,,,,,
0.0,1.0,1.15244,0.0,16.0,16.0,16.0,1.0,torch_02s.jpg,0.0,Yellow.png,3.0,3,,,,,,,,,,,,,,,,,
0.0,1.0,1.278375,0.0,17.0,17.0,17.0,1.0,lion_18s.jpg,0.0,Green.png,3.0,3,,,,,,,,,,,,,,,,,
0.0,1.0,0.990345,0.0,18.0,18.0,18.0,1.0,microwave_02s.jpg,0.0,Blue.png,4.0,3,,,,,,,,,,,,,,,,,
0.0,1.0,1.039615,0.0,19.0,19.0,19.0,1.0,denture_03s.jpg,0.0,Purple.png,4.0,3,,,,,,,,,,,,,,,,,
0.0,1.0,1.33472,0.0,20.0,20.0,20.0,1.0,fur_coat_11s.jpg,0.0,Red.png,4.0,3,,,,,,,,,,,,,,,,,
0.0,1.0,1.63364,0.0,21.0,21.0,21.0,1.0,pepper_mill_03s.jpg,0.0,Orange.png,4.0,3,,,,,,,,,,,,,,,,,
0.0,1.0,2.041425,0.0,22.0,22.0,22.0,1.0,antenna_01b.jpg,0.0,Yellow.png,4.0,3,,,,,,,,,,,,,,,,,
1.0,1.0,2.120685,0.0,23.0,23.0,23.0,1.0,pepper_mill_03s.jpg,1.0,Green.png,4.0,3,,,,,,,,,,,,,,,,,
0.0,1.0,1.16242,0.0,24.0,24.0,24.0,1.0,touchpad_11s.jpg,0.0,Blue.png,5.0,3,,,,,,,,,,,,,,,,,
0.0,1.0,1.05181,0.0,25.0,25.0,25.0,1.0,otter_05s.jpg,0.0,Purple.png,5.0,3,,,,,,,,,,,,,,,,,
0.0,1.0,1.062755,0.0,26.0,26.0,26.0,1.0,squirt_gun_03s.jpg,0.0,Red.png,5.0,3,,,,,,,,,,,,,,,,,
1.0,1.0,0.90175,0.0,27.0,27.0,27.0,1.0,otter_05s.jpg,1.0,Orange.png,5.0,3,,,,,,,,,,,,,,,,,
0.0,1.0,1.0997,0.0,28.0,28.0,28.0,1.0,touchpad_11s.jpg,0.0,Yellow.png,5.0,3,,,,,,,,,,,,,,,,,
1.0,0.0,1.934425,0.0,29.0,29.0,29.0,1.0,touchpad_11s.jpg,0.0,Green.png,5.0,3,,,,,,,,,,,,,,,,,
0.0,1.0,1.159015,0.0,30.0,30.0,30.0,1.0,kayak_08s.jpg,0.0,Blue.png,6.0,3,,,,,,,,,,,,,,,,,
0.0,1.0,1.02594,0.0,31.0,31.0,31.0,1.0,mascara_03s.jpg,0.0,Purple.png,6.0,3,,,,,,,,,,,,,,,,,
0.0,1.0,1.592895,0.0,32.0,32.0,32.0,1.0,ink_08s.jpg,0.0,Red.png,6.0,3,,,,,,,,,,,,,,,,,
0.0,1.0,1.085655,0.0,33.0,33.0,33.0,1.0,kayak_08s.jpg,0.0,Orange.png,6.0,3,,,,,,,,,,,,,,,,,
0.0,1.0,0.89609,0.0,34.0,34.0,34.0,1.0,towel_rack_04s.jpg,0.0,Yellow.png,6.0,3,,,,,,,,,,,,,,,,,
0.0,1.0,2.037325,0.0,35.0,35.0,35.0,1.0,jewel_01b.jpg,0.0,Green.png,6.0,3,,,,,,,,,,,,,,,,,
,,,,,,,,,1.0,,,3,0.0,0.0,1.71447,0.0,0.0,0.0,0.0,1.0,torch_02s.jpg,denture_03s.jpg,,,,,,,
,,,,,,,,,0.0,,,3,0.0,1.0,2.026275,0.0,1.0,1.0,1.0,1.0,towel_rack_04s.jpg,mascara_03s.jpg,,,,,,,
,,,,,,,,,1.0,,,3,0.0,0.0,1.981495,0.0,2.0,2.0,2.0,1.0,piano_13n.jpg,umbrella_15s.jpg,,,,,,,
,,,,,,,,,0.0,,,3,0.0,1.0,2.22496,0.0,3.0,3.0,3.0,1.0,fur_coat_11s.jpg,lion_18s.jpg,,,,,,,
,,,,,,,,,1.0,,,3,0.0,0.0,3.05415,0.0,4.0,4.0,4.0,1.0,roller_coaster_07s.jpg,microwave_02s.jpg,,,,,,,
,,,,,,,,,1.0,,,3,1.0,1.0,4.949695,0.0,5.0,5.0,5.0,1.0,ink_08s.jpg,jewel_01b.jpg,,,,,,,
,,,,,,,,,,,,3,,,,,,,,,,,0.0,1.0,1.0,1.0,1.0,new2backpresent_2_1.xlsx,new2back_compare_task_2_1.xlsx
0.0,1.0,1.005955,0.0,0.0,0.0,0.0,1.0,icemaker_10s.jpg,0.0,Blue.png,1.0,3,,,,,,,,,,,,,,,,,
0.0,1.0,1.374395,0.0,1.0,1.0,1.0,1.0,icemaker_10s.jpg,0.0,Purple.png,1.0,3,,,,,,,,,,,,,,,,,
0.0,1.0,0.70819,0.0,2.0,2.0,2.0,1.0,tile_08s.jpg,0.0,Red.png,1.0,3,,,,,,,,,,,,,,,,,
0.0,1.0,0.916265,0.0,3.0,3.0,3.0,1.0,fossil_06s.jpg,0.0,Orange.png,1.0,3,,,,,,,,,,,,,,,,,
0.0,1.0,2.097195,0.0,4.0,4.0,4.0,1.0,fossil_06s.jpg,0.0,Yellow.png,1.0,3,,,,,,,,,,,,,,,,,
0.0,1.0,1.51022,0.0,5.0,5.0,5.0,1.0,ravioli_08s.jpg,0.0,Green.png,1.0,3,,,,,,,,,,,,,,,,,
0.0,1.0,1.082265,0.0,6.0,6.0,6.0,1.0,top_hat_11s.jpg,0.0,Blue.png,2.0,3,,,,,,,,,,,,,,,,,
0.0,1.0,1.466975,0.0,7.0,7.0,7.0,1.0,raccoon_02s.jpg,0.0,Purple.png,2.0,3,,,,,,,,,,,,,,,,,
0.0,1.0,1.079195,0.0,8.0,8.0,8.0,1.0,snowman_02s.jpg,0.0,Red.png,2.0,3,,,,,,,,,,,,,,,,,
0.0,1.0,1.805735,0.0,9.0,9.0,9.0,1.0,peach_04s.jpg,0.0,Orange.png,2.0,3,,,,,,,,,,,,,,,,,
0.0,1.0,1.098395,0.0,10.0,10.0,10.0,1.0,beard_16s.jpg,0.0,Yellow.png,2.0,3,,,,,,,,,,,,,,,,,
0.0,1.0,0.92625,0.0,11.0,11.0,11.0,1.0,rollerskate_03s.jpg,0.0,Green.png,2.0,3,,,,,,,,,,,,,,,,,
0.0,1.0,0.975585,0.0,12.0,12.0,12.0,1.0,mango_09s.jpg,0.0,Blue.png,3.0,3,,,,,,,,,,,,,,,,,
0.0,1.0,1.185255,0.0,13.0,13.0,13.0,1.0,mango_09s.jpg,0.0,Purple.png,3.0,3,,,,,,,,,,,,,,,,,
0.0,1.0,1.0523,0.0,14.0,14.0,14.0,1.0,magnet_03s.jpg,0.0,Red.png,3.0,3,,,,,,,,,,,,,,,,,
1.0,1.0,1.012155,0.0,15.0,15.0,15.0,1.0,mango_09s.jpg,1.0,Orange.png,3.0,3,,,,,,,,,,,,,,,,,
0.0,1.0,1.509505,0.0,16.0,16.0,16.0,1.0,mango_09s.jpg,0.0,Yellow.png,3.0,3,,,,,,,,,,,,,,,,,
1.0,1.0,0.9491,0.0,17.0,17.0,17.0,1.0,mango_09s.jpg,1.0,Green.png,3.0,3,,,,,,,,,,,,,,,,,
0.0,1.0,0.75174,0.0,18.0,18.0,18.0,1.0,punch2_09s.jpg,0.0,Blue.png,4.0,3,,,,,,,,,,,,,,,,,
0.0,1.0,0.999725,0.0,19.0,19.0,19.0,1.0,jelly_bean_06s.jpg,0.0,Purple.png,4.0,3,,,,,,,,,,,,,,,,,
1.0,1.0,1.31629,0.0,20.0,20.0,20.0,1.0,punch2_09s.jpg,1.0,Red.png,4.0,3,,,,,,,,,,,,,,,,,
1.0,1.0,2.457425,0.0,21.0,21.0,21.0,1.0,jelly_bean_06s.jpg,1.0,Orange.png,4.0,3,,,,,,,,,,,,,,,,,
0.0,1.0,1.72118,0.0,22.0,22.0,22.0,1.0,jelly_bean_06s.jpg,0.0,Yellow.png,4.0,3,,,,,,,,,,,,,,,,,
0.0,1.0,1.21785,0.0,23.0,23.0,23.0,1.0,typewriter_11s.jpg,0.0,Green.png,4.0,3,,,,,,,,,,,,,,,,,
0.0,1.0,1.360545,0.0,24.0,24.0,24.0,1.0,icemaker_10s.jpg,0.0,Blue.png,5.0,3,,,,,,,,,,,,,,,,,
1.0,1.0,0.88245,0.0,25.0,25.0,25.0,1.0,typewriter_11s.jpg,1.0,Purple.png,5.0,3,,,,,,,,,,,,,,,,,
0.0,1.0,1.777865,0.0,26.0,26.0,26.0,1.0,key_07s.jpg,0.0,Red.png,5.0,3,,,,,,,,,,,,,,,,,
0.0,1.0,1.42967,0.0,27.0,27.0,27.0,1.0,foam_03s.jpg,0.0,Orange.png,5.0,3,,,,,,,,,,,,,,,,,
0.0,1.0,1.496625,0.0,28.0,28.0,28.0,1.0,candy_cane_06s.jpg,0.0,Yellow.png,5.0,3,,,,,,,,,,,,,,,,,
0.0,1.0,1.10789,0.0,29.0,29.0,29.0,1.0,puffin_19s.jpg,0.0,Green.png,5.0,3,,,,,,,,,,,,,,,,,
0.0,1.0,1.23758,0.0,30.0,30.0,30.0,1.0,outlet_10s.jpg,0.0,Blue.png,6.0,3,,,,,,,,,,,,,,,,,
0.0,1.0,1.02128,0.0,31.0,31.0,31.0,1.0,lasagna_06s.jpg,0.0,Purple.png,6.0,3,,,,,,,,,,,,,,,,,
0.0,1.0,1.07158,0.0,32.0,32.0,32.0,1.0,lasagna_06s.jpg,0.0,Red.png,6.0,3,,,,,,,,,,,,,,,,,
0.0,1.0,0.96116,0.0,33.0,33.0,33.0,1.0,marker_05s.jpg,0.0,Orange.png,6.0,3,,,,,,,,,,,,,,,,,
0.0,1.0,1.81103,0.0,34.0,34.0,34.0,1.0,cushion_08s.jpg,0.0,Yellow.png,6.0,3,,,,,,,,,,,,,,,,,
0.0,1.0,0.84259,0.0,35.0,35.0,35.0,1.0,badge_03s.jpg,0.0,Green.png,6.0,3,,,,,,,,,,,,,,,,,
,,,,,,,,,0.0,,,3,0.0,1.0,1.807435,0.0,0.0,0.0,0.0,1.0,beard_16s.jpg,raccoon_02s.jpg,,,,,,,
,,,,,,,,,0.0,,,3,1.0,0.0,2.168135,0.0,1.0,1.0,1.0,1.0,peach_04s.jpg,top_hat_11s.jpg,,,,,,,
,,,,,,,,,1.0,,,3,1.0,1.0,1.71115,0.0,2.0,2.0,2.0,1.0,rollerskate_03s.jpg,magnet_03s.jpg,,,,,,,
,,,,,,,,,1.0,,,3,0.0,0.0,2.39234,0.0,3.0,3.0,3.0,1.0,foam_03s.jpg,outlet_10s.jpg,,,,,,,
,,,,,,,,,0.0,,,3,0.0,1.0,1.518495,0.0,4.0,4.0,4.0,1.0,snowman_02s.jpg,ravioli_08s.jpg,,,,,,,
,,,,,,,,,0.0,,,3,1.0,0.0,2.28242,0.0,5.0,5.0,5.0,1.0,puffin_19s.jpg,key_07s.jpg,,,,,,,
,,,,,,,,,,,,3,,,,,,,,,,,0.0,2.0,2.0,2.0,1.0,new2backpresent_3_1.xlsx,new2back_compare_task_3_1.xlsx
0.0,1.0,0.880435,0.0,0.0,0.0,0.0,1.0,lollipop_08s.jpg,0.0,Blue.png,1.0,3,,,,,,,,,,,,,,,,,
0.0,1.0,0.771375,0.0,1.0,1.0,1.0,1.0,keyboard_05s.jpg,0.0,Purple.png,1.0,3,,,,,,,,,,,,,,,,,
0.0,1.0,0.66198,0.0,2.0,2.0,2.0,1.0,pomegranate_04s.jpg,0.0,Red.png,1.0,3,,,,,,,,,,,,,,,,,
0.0,1.0,0.91788,0.0,3.0,3.0,3.0,1.0,olive_05s.jpg,0.0,Orange.png,1.0,3,,,,,,,,,,,,,,,,,
0.0,1.0,0.774255,0.0,4.0,4.0,4.0,1.0,hummingbird_05s.jpg,0.0,Yellow.png,1.0,3,,,,,,,,,,,,,,,,,
0.0,1.0,1.10563,0.0,5.0,5.0,5.0,1.0,cucumber_07s.jpg,0.0,Green.png,1.0,3,,,,,,,,,,,,,,,,,
,0.0,,0.0,6.0,6.0,6.0,1.0,olive_05s.jpg,0.0,Blue.png,2.0,3,,,,,,,,,,,,,,,,,
0.0,1.0,1.06233,0.0,7.0,7.0,7.0,1.0,pinwheel_06s.jpg,0.0,Purple.png,2.0,3,,,,,,,,,,,,,,,,,
1.0,1.0,1.261685,0.0,8.0,8.0,8.0,1.0,olive_05s.jpg,1.0,Red.png,2.0,3,,,,,,,,,,,,,,,,,
0.0,1.0,1.083095,0.0,9.0,9.0,9.0,1.0,orchid_01b.jpg,0.0,Orange.png,2.0,3,,,,,,,,,,,,,,,,,
1.0,1.0,1.28045,0.0,10.0,10.0,10.0,1.0,olive_05s.jpg,1.0,Yellow.png,2.0,3,,,,,,,,,,,,,,,,,
0.0,1.0,0.760645,0.0,11.0,11.0,11.0,1.0,lectern_08s.jpg,0.0,Green.png,2.0,3,,,,,,,,,,,,,,,,,
0.0,1.0,0.72999,0.0,12.0,12.0,12.0,1.0,margarita_03s.jpg,0.0,Blue.png,3.0,3,,,,,,,,,,,,,,,,,
1.0,0.0,0.968905,0.0,13.0,13.0,13.0,1.0,margarita_03s.jpg,0.0,Purple.png,3.0,3,,,,,,,,,,,,,,,,,
0.0,1.0,0.92681,0.0,14.0,14.0,14.0,1.0,swan_11s.jpg,0.0,Red.png,3.0,3,,,,,,,,,,,,,,,,,
0.0,1.0,0.77686,0.0,15.0,15.0,15.0,1.0,tripod_01b.jpg,0.0,Orange.png,3.0,3,,,,,,,,,,,,,,,,,
0.0,1.0,0.707935,0.0,16.0,16.0,16.0,1.0,mop_08s.jpg,0.0,Yellow.png,3.0,3,,,,,,,,,,,,,,,,,
0.0,1.0,1.155115,0.0,17.0,17.0,17.0,1.0,plaster_cast_13s.jpg,0.0,Green.png,3.0,3,,,,,,,,,,,,,,,,,
0.0,1.0,1.181645,0.0,18.0,18.0,18.0,1.0,gas_mask_11s.jpg,0.0,Blue.png,4.0,3,,,,,,,,,,,,,,,,,
0.0,1.0,1.152005,0.0,19.0,19.0,19.0,1.0,tinsel_12s.jpg,0.0,Purple.png,4.0,3,,,,,,,,,,,,,,,,,
0.0,1.0,1.081295,0.0,20.0,20.0,20.0,1.0,smokingpipe.jpg,0.0,Red.png,4.0,3,,,,,,,,,,,,,,,,,
0.0,1.0,0.988705,0.0,21.0,21.0,21.0,1.0,iron_13s.jpg,0.0,Orange.png,4.0,3,,,,,,,,,,,,,,,,,
0.0,1.0,1.233815,0.0,22.0,22.0,22.0,1.0,iron_13s.jpg,0.0,Yellow.png,4.0,3,,,,,,,,,,,,,,,,,
1.0,1.0,1.11805,0.0,23.0,23.0,23.0,1.0,iron_13s.jpg,1.0,Green.png,4.0,3,,,,,,,,,,,,,,,,,
0.0,1.0,1.114815,0.0,24.0,24.0,24.0,1.0,rhubarb_03s.jpg,0.0,Blue.png,5.0,3,,,,,,,,,,,,,,,,,
0.0,1.0,1.30042,0.0,25.0,25.0,25.0,1.0,tambourine_06s.jpg,0.0,Purple.png,5.0,3,,,,,,,,,,,,,,,,,
,0.0,,0.0,26.0,26.0,26.0,1.0,tambourine_06s.jpg,0.0,Red.png,5.0,3,,,,,,,,,,,,,,,,,
0.0,1.0,2.02027,0.0,27.0,27.0,27.0,1.0,mousetrap_15n.jpg,0.0,Orange.png,5.0,3,,,,,,,,,,,,,,,,,
0.0,1.0,1.32937,0.0,28.0,28.0,28.0,1.0,ticktacktoe_08s.jpg,0.0,Yellow.png,5.0,3,,,,,,,,,,,,,,,,,
0.0,1.0,1.419055,0.0,29.0,29.0,29.0,1.0,sunflower_17s.jpg,0.0,Green.png,5.0,3,,,,,,,,,,,,,,,,,
0.0,1.0,1.747425,0.0,30.0,30.0,30.0,1.0,onion_10s.jpg,0.0,Blue.png,6.0,3,,,,,,,,,,,,,,,,,
0.0,1.0,1.33594,0.0,31.0,31.0,31.0,1.0,ant_12s.jpg,0.0,Purple.png,6.0,3,,,,,,,,,,,,,,,,,
0.0,1.0,1.744085,0.0,32.0,32.0,32.0,1.0,insole_11s.jpg,0.0,Red.png,6.0,3,,,,,,,,,,,,,,,,,
0.0,1.0,1.276595,0.0,33.0,33.0,33.0,1.0,keyboard_05s.jpg,0.0,Orange.png,6.0,3,,,,,,,,,,,,,,,,,
0.0,1.0,1.2064,0.0,34.0,34.0,34.0,1.0,aluminum_foil_08s.jpg,0.0,Yellow.png,6.0,3,,,,,,,,,,,,,,,,,
0.0,1.0,1.192945,0.0,35.0,35.0,35.0,1.0,money_07s.jpg,0.0,Green.png,6.0,3,,,,,,,,,,,,,,,,,
,,,,,,,,,0.0,,,3,1.0,0.0,2.03426,0.0,0.0,0.0,0.0,1.0,pinwheel_06s.jpg,hummingbird_05s.jpg,,,,,,,
,,,,,,,,,1.0,,,3,0.0,0.0,2.914915,0.0,1.0,1.0,1.0,1.0,mop_08s.jpg,tinsel_12s.jpg,,,,,,,
,,,,,,,,,1.0,,,3,1.0,1.0,2.571895,0.0,2.0,2.0,2.0,1.0,pomegranate_04s.jpg,cucumber_07s.jpg,,,,,,,
,,,,,,,,,0.0,,,3,0.0,1.0,1.828535,0.0,3.0,3.0,3.0,1.0,aluminum_foil_08s.jpg,ant_12s.jpg,,,,,,,
,,,,,,,,,0.0,,,3,1.0,0.0,2.488485,0.0,4.0,4.0,4.0,1.0,gas_mask_11s.jpg,tripod_01b.jpg,,,,,,,
,,,,,,,,,0.0,,,3,0.0,1.0,1.670195,0.0,5.0,5.0,5.0,1.0,mousetrap_15n.jpg,rhubarb_03s.jpg,,,,,,,
,,,,,,,,,,,,3,,,,,,,,,,,0.0,3.0,3.0,3.0,1.0,new2backpresent_4_1.xlsx,new2back_compare_task_4_1.xlsx
0.0,1.0,1.39259,0.0,0.0,0.0,0.0,1.0,jalapeno_15s.jpg,0.0,Blue.png,1.0,3,,,,,,,,,,,,,,,,,
0.0,1.0,0.969195,0.0,1.0,1.0,1.0,1.0,pincushion_10s.jpg,0.0,Purple.png,1.0,3,,,,,,,,,,,,,,,,,
0.0,1.0,1.73233,0.0,2.0,2.0,2.0,1.0,fondue_07s.jpg,0.0,Red.png,1.0,3,,,,,,,,,,,,,,,,,
0.0,1.0,1.463005,0.0,3.0,3.0,3.0,1.0,safety_pin_02s.jpg,0.0,Orange.png,1.0,3,,,,,,,,,,,,,,,,,
0.0,1.0,1.100675,0.0,4.0,4.0,4.0,1.0,turf_03s.jpg,0.0,Yellow.png,1.0,3,,,,,,,,,,,,,,,,,
0.0,1.0,1.263505,0.0,5.0,5.0,5.0,1.0,jalapeno_15s.jpg,0.0,Green.png,1.0,3,,,,,,,,,,,,,,,,,
0.0,1.0,1.79137,0.0,6.0,6.0,6.0,1.0,jalapeno_15s.jpg,0.0,Blue.png,2.0,3,,,,,,,,,,,,,,,,,
1.0,1.0,0.733825,0.0,7.0,7.0,7.0,1.0,jalapeno_15s.jpg,1.0,Purple.png,2.0,3,,,,,,,,,,,,,,,,,
0.0,1.0,1.23174,0.0,8.0,8.0,8.0,1.0,spoon02a.jpg,0.0,Red.png,2.0,3,,,,,,,,,,,,,,,,,
0.0,1.0,1.91723,0.0,9.0,9.0,9.0,1.0,puppet_01b.jpg,0.0,Orange.png,2.0,3,,,,,,,,,,,,,,,,,
1.0,0.0,1.75761,0.0,10.0,10.0,10.0,1.0,jalapeno_15s.jpg,0.0,Yellow.png,2.0,3,,,,,,,,,,,,,,,,,
,0.0,,0.0,11.0,11.0,11.0,1.0,jalapeno_15s.jpg,0.0,Green.png,2.0,3,,,,,,,,,,,,,,,,,
0.0,1.0,1.52539,0.0,12.0,12.0,12.0,1.0,popcorn_09s.jpg,0.0,Blue.png,3.0,3,,,,,,,,,,,,,,,,,
0.0,1.0,1.29681,0.0,13.0,13.0,13.0,1.0,popcorn_09s.jpg,0.0,Purple.png,3.0,3,,,,,,,,,,,,,,,,,
0.0,1.0,1.28348,0.0,14.0,14.0,14.0,1.0,swordfish_05s.jpg,0.0,Red.png,3.0,3,,,,,,,,,,,,,,,,,
1.0,1.0,1.123895,0.0,15.0,15.0,15.0,1.0,popcorn_09s.jpg,1.0,Orange.png,3.0,3,,,,,,,,,,,,,,,,,
0.0,1.0,1.42284,0.0,16.0,16.0,16.0,1.0,police_car_01s.jpg,0.0,Yellow.png,3.0,3,,,,,,,,,,,,,,,,,
0.0,1.0,0.99462,0.0,17.0,17.0,17.0,1.0,ginger_09s.jpg,0.0,Green.png,3.0,3,,,,,,,,,,,,,,,,,
0.0,1.0,1.22061,0.0,18.0,18.0,18.0,1.0,cap_05s.jpg,0.0,Blue.png,4.0,3,,,,,,,,,,,,,,,,,
0.0,1.0,1.349125,0.0,19.0,19.0,19.0,1.0,ice-cream_cone_06s.jpg,0.0,Purple.png,4.0,3,,,,,,,,,,,,,,,,,
0.0,1.0,1.120575,0.0,20.0,20.0,20.0,1.0,purse_05s.jpg,0.0,Red.png,4.0,3,,,,,,,,,,,,,,,,,
0.0,1.0,1.18658,0.0,21.0,21.0,21.0,1.0,squirrel_02s.jpg,0.0,Orange.png,4.0,3,,,,,,,,,,,,,,,,,
0.0,1.0,1.277065,0.0,22.0,22.0,22.0,1.0,cap_05s.jpg,0.0,Yellow.png,4.0,3,,,,,,,,,,,,,,,,,
0.0,1.0,1.08675,0.0,23.0,23.0,23.0,1.0,pie_08s.jpg,0.0,Green.png,4.0,3,,,,,,,,,,,,,,,,,
0.0,1.0,1.15349,0.0,24.0,24.0,24.0,1.0,thread_08s.jpg,0.0,Blue.png,5.0,3,,,,,,,,,,,,,,,,,
0.0,1.0,1.363005,0.0,25.0,25.0,25.0,1.0,punch1_10s.jpg,0.0,Purple.png,5.0,3,,,,,,,,,,,,,,,,,
0.0,1.0,1.37183,0.0,26.0,26.0,26.0,1.0,cereal_04s.jpg,0.0,Red.png,5.0,3,,,,,,,,,,,,,,,,,
0.0,1.0,1.151295,0.0,27.0,27.0,27.0,1.0,espresso_01b.jpg,0.0,Orange.png,5.0,3,,,,,,,,,,,,,,,,,
0.0,0.0,2.205165,0.0,28.0,28.0,28.0,1.0,cereal_04s.jpg,1.0,Yellow.png,5.0,3,,,,,,,,,,,,,,,,,
0.0,1.0,2.253875,0.0,29.0,29.0,29.0,1.0,cereal_04s.jpg,0.0,Green.png,5.0,3,,,,,,,,,,,,,,,,,
0.0,1.0,0.989955,0.0,30.0,30.0,30.0,1.0,tube_top_03s.jpg,0.0,Blue.png,6.0,3,,,,,,,,,,,,,,,,,
0.0,1.0,0.93801,0.0,31.0,31.0,31.0,1.0,pepper2_21s.jpg,0.0,Purple.png,6.0,3,,,,,,,,,,,,,,,,,
0.0,1.0,1.026835,0.0,32.0,32.0,32.0,1.0,jersey_02s.jpg,0.0,Red.png,6.0,3,,,,,,,,,,,,,,,,,
0.0,1.0,1.156255,0.0,33.0,33.0,33.0,1.0,mussel_11s.jpg,0.0,Orange.png,6.0,3,,,,,,,,,,,,,,,,,
0.0,1.0,1.285105,0.0,34.0,34.0,34.0,1.0,toaster_03s.jpg,0.0,Yellow.png,6.0,3,,,,,,,,,,,,,,,,,
0.0,1.0,0.949595,0.0,35.0,35.0,35.0,1.0,tie_03s.jpg,0.0,Green.png,6.0,3,,,,,,,,,,,,,,,,,
,,,,,,,,,0.0,,,3,0.0,1.0,1.598385,0.0,0.0,0.0,0.0,1.0,ice-cream_cone_06s.jpg,police_car_01s.jpg,,,,,,,
,,,,,,,,,0.0,,,3,1.0,0.0,1.735255,0.0,1.0,1.0,1.0,1.0,turf_03s.jpg,pincushion_10s.jpg,,,,,,,
,,,,,,,,,0.0,,,3,0.0,1.0,1.8277,0.0,2.0,2.0,2.0,1.0,purse_05s.jpg,ginger_09s.jpg,,,,,,,
,,,,,,,,,1.0,,,3,0.0,0.0,1.62627,0.0,3.0,3.0,3.0,1.0,jersey_02s.jpg,tie_03s.jpg,,,,,,,
,,,,,,,,,0.0,,,3,0.0,1.0,1.821585,0.0,4.0,4.0,4.0,1.0,toaster_03s.jpg,pepper2_21s.jpg,,,,,,,
,,,,,,,,,0.0,,,3,1.0,0.0,1.807055,0.0,5.0,5.0,5.0,1.0,thread_08s.jpg,squirrel_02s.jpg,,,,,,,
,,,,,,,,,,,,3,,,,,,,,,,,0.0,4.0,4.0,4.0,1.0,new2backpresent_5_1.xlsx,new2back_compare_task_5_1.xlsx
0.0,1.0,1.21825,0.0,0.0,0.0,0.0,1.0,omelet_07s.jpg,0.0,Blue.png,1.0,3,,,,,,,,,,,,,,,,,
0.0,1.0,1.14029,0.0,1.0,1.0,1.0,1.0,popsicle_02s.jpg,0.0,Purple.png,1.0,3,,,,,,,,,,,,,,,,,
0.0,1.0,1.110775,0.0,2.0,2.0,2.0,1.0,letter_opener_03s.jpg,0.0,Red.png,1.0,3,,,,,,,,,,,,,,,,,
0.0,1.0,1.00114,0.0,3.0,3.0,3.0,1.0,diving_board_07s.jpg,0.0,Orange.png,1.0,3,,,,,,,,,,,,,,,,,
0.0,1.0,2.41744,0.0,4.0,4.0,4.0,1.0,omelet_07s.jpg,0.0,Yellow.png,1.0,3,,,,,,,,,,,,,,,,,
0.0,1.0,1.751045,0.0,5.0,5.0,5.0,1.0,letter_opener_03s.jpg,0.0,Green.png,1.0,3,,,,,,,,,,,,,,,,,
1.0,1.0,1.036505,0.0,6.0,6.0,6.0,1.0,omelet_07s.jpg,1.0,Blue.png,2.0,3,,,,,,,,,,,,,,,,,
0.0,1.0,1.39248,0.0,7.0,7.0,7.0,1.0,cape_11s.jpg,0.0,Purple.png,2.0,3,,,,,,,,,,,,,,,,,
0.0,0.0,2.23751,0.0,8.0,8.0,8.0,1.0,omelet_07s.jpg,1.0,Red.png,2.0,3,,,,,,,,,,,,,,,,,
0.0,1.0,1.252665,0.0,9.0,9.0,9.0,1.0,lantern_04s.jpg,0.0,Orange.png,2.0,3,,,,,,,,,,,,,,,,,
0.0,1.0,1.580635,0.0,10.0,10.0,10.0,1.0,leotard_08s.jpg,0.0,Yellow.png,2.0,3,,,,,,,,,,,,,,,,,
0.0,1.0,1.017605,0.0,11.0,11.0,11.0,1.0,pacifier_09s.jpg,0.0,Green.png,2.0,3,,,,,,,,,,,,,,,,,
0.0,1.0,1.09942,0.0,12.0,12.0,12.0,1.0,rocking_horse_03s.jpg,0.0,Blue.png,3.0,3,,,,,,,,,,,,,,,,,
0.0,1.0,2.435505,0.0,13.0,13.0,13.0,1.0,cardinal_07s.jpg,0.0,Purple.png,3.0,3,,,,,,,,,,,,,,,,,
0.0,1.0,1.33501,0.0,14.0,14.0,14.0,1.0,hyena_16s.jpg,0.0,Red.png,3.0,3,,,,,,,,,,,,,,,,,
0.0,1.0,1.42464,0.0,15.0,15.0,15.0,1.0,oil_02s.jpg,0.0,Orange.png,3.0,3,,,,,,,,,,,,,,,,,
0.0,1.0,1.315055,0.0,16.0,16.0,16.0,1.0,marshmallow_08s.jpg,0.0,Yellow.png,3.0,3,,,,,,,,,,,,,,,,,
1.0,1.0,1.71077,0.0,17.0,17.0,17.0,1.0,oil_02s.jpg,1.0,Green.png,3.0,3,,,,,,,,,,,,,,,,,
0.0,1.0,1.03263,0.0,18.0,18.0,18.0,1.0,omelet_07s.jpg,0.0,Blue.png,4.0,3,,,,,,,,,,,,,,,,,
1.0,1.0,1.51005,0.0,19.0,19.0,19.0,1.0,oil_02s.jpg,1.0,Purple.png,4.0,3,,,,,,,,,,,,,,,,,
0.0,1.0,1.09265,0.0,20.0,20.0,20.0,1.0,knitting_needle_04s.jpg,0.0,Red.png,4.0,3,,,,,,,,,,,,,,,,,
,0.0,,0.0,21.0,21.0,21.0,1.0,oil_02s.jpg,1.0,Orange.png,4.0,3,,,,,,,,,,,,,,,,,
0.0,1.0,1.00639,0.0,22.0,22.0,22.0,1.0,ice_pack_09s.jpg,0.0,Yellow.png,4.0,3,,,,,,,,,,,,,,,,,
0.0,1.0,1.13468,0.0,23.0,23.0,23.0,1.0,peppermint_07s.jpg,0.0,Green.png,4.0,3,,,,,,,,,,,,,,,,,
0.0,1.0,1.085905,0.0,24.0,24.0,24.0,1.0,submarine_11n.jpg,0.0,Blue.png,5.0,3,,,,,,,,,,,,,,,,,
0.0,1.0,1.09577,0.0,25.0,25.0,25.0,1.0,seagull_01b.jpg,0.0,Purple.png,5.0,3,,,,,,,,,,,,,,,,,
0.0,1.0,1.02585,0.0,26.0,26.0,26.0,1.0,omelet_07s.jpg,0.0,Red.png,5.0,3,,,,,,,,,,,,,,,,,
0.0,1.0,1.07454,0.0,27.0,27.0,27.0,1.0,bonsai_07s.jpg,0.0,Orange.png,5.0,3,,,,,,,,,,,,,,,,,
0.0,1.0,1.02182,0.0,28.0,28.0,28.0,1.0,bonsai_07s.jpg,0.0,Yellow.png,5.0,3,,,,,,,,,,,,,,,,,
0.0,1.0,1.31128,0.0,29.0,29.0,29.0,1.0,omelet_07s.jpg,0.0,Green.png,5.0,3,,,,,,,,,,,,,,,,,
1.0,1.0,1.58905,0.0,30.0,30.0,30.0,1.0,bonsai_07s.jpg,1.0,Blue.png,6.0,3,,,,,,,,,,,,,,,,,
0.0,1.0,1.187495,0.0,31.0,31.0,31.0,1.0,quilt_03s.jpg,0.0,Purple.png,6.0,3,,,,,,,,,,,,,,,,,
0.0,1.0,1.19813,0.0,32.0,32.0,32.0,1.0,incense_02s.jpg,0.0,Red.png,6.0,3,,,,,,,,,,,,,,,,,
1.0,1.0,1.43284,0.0,33.0,33.0,33.0,1.0,quilt_03s.jpg,1.0,Orange.png,6.0,3,,,,,,,,,,,,,,,,,
,0.0,,0.0,34.0,34.0,34.0,1.0,incense_02s.jpg,1.0,Yellow.png,6.0,3,,,,,,,,,,,,,,,,,
,0.0,,0.0,35.0,35.0,35.0,1.0,incense_02s.jpg,0.0,Green.png,6.0,3,,,,,,,,,,,,,,,,,
,,,,,,,,,1.0,,,3,1.0,1.0,2.348375,0.0,0.0,0.0,0.0,1.0,pacifier_09s.jpg,hyena_16s.jpg,,,,,,,
,,,,,,,,,0.0,,,3,0.0,1.0,1.479735,0.0,1.0,1.0,1.0,1.0,peppermint_07s.jpg,knitting_needle_04s.jpg,,,,,,,
,,,,,,,,,1.0,,,3,1.0,1.0,1.577075,0.0,2.0,2.0,2.0,1.0,ice_pack_09s.jpg,seagull_01b.jpg,,,,,,,
,,,,,,,,,0.0,,,3,0.0,1.0,1.634585,0.0,3.0,3.0,3.0,1.0,marshmallow_08s.jpg,cardinal_07s.jpg,,,,,,,
,,,,,,,,,1.0,,,3,1.0,1.0,1.366395,0.0,4.0,4.0,4.0,1.0,cape_11s.jpg,leotard_08s.jpg,,,,,,,
,,,,,,,,,1.0,,,3,0.0,0.0,1.359385,0.0,5.0,5.0,5.0,1.0,lantern_04s.jpg,rocking_horse_03s.jpg,,,,,,,
,,,,,,,,,,,,3,,,,,,,,,,,0.0,5.0,5.0,5.0,1.0,new2backpresent_6_1.xlsx,new2back_compare_task_6_1.xlsx
0.0,1.0,1.09074,0.0,0.0,0.0,0.0,1.0,petri_dish_12s.jpg,0.0,Blue.png,1.0,3,,,,,,,,,,,,,,,,,
0.0,1.0,1.060785,0.0,1.0,1.0,1.0,1.0,toothpaste_12s.jpg,0.0,Purple.png,1.0,3,,,,,,,,,,,,,,,,,
0.0,1.0,0.951895,0.0,2.0,2.0,2.0,1.0,medal_04s.jpg,0.0,Red.png,1.0,3,,,,,,,,,,,,,,,,,
0.0,1.0,1.16004,0.0,3.0,3.0,3.0,1.0,potholder_02s.jpg,0.0,Orange.png,1.0,3,,,,,,,,,,,,,,,,,
0.0,1.0,1.425195,0.0,4.0,4.0,4.0,1.0,puck_06s.jpg,0.0,Yellow.png,1.0,3,,,,,,,,,,,,,,,,,
0.0,1.0,1.195845,0.0,5.0,5.0,5.0,1.0,bagel_15s.jpg,0.0,Green.png,1.0,3,,,,,,,,,,,,,,,,,
0.0,1.0,1.245845,0.0,6.0,6.0,6.0,1.0,golf_club_03s.jpg,0.0,Blue.png,2.0,3,,,,,,,,,,,,,,,,,
0.0,1.0,1.27215,0.0,7.0,7.0,7.0,1.0,golf_club_03s.jpg,0.0,Purple.png,2.0,3,,,,,,,,,,,,,,,,,
1.0,1.0,1.30772,0.0,8.0,8.0,8.0,1.0,golf_club_03s.jpg,1.0,Red.png,2.0,3,,,,,,,,,,,,,,,,,
0.0,1.0,1.171985,0.0,9.0,9.0,9.0,1.0,inhaler_01b.jpg,0.0,Orange.png,2.0,3,,,,,,,,,,,,,,,,,
0.0,0.0,1.540375,0.0,10.0,10.0,10.0,1.0,golf_club_03s.jpg,1.0,Yellow.png,2.0,3,,,,,,,,,,,,,,,,,
0.0,1.0,1.208935,0.0,11.0,11.0,11.0,1.0,tiger_06s.jpg,0.0,Green.png,2.0,3,,,,,,,,,,,,,,,,,
0.0,1.0,1.09894,0.0,12.0,12.0,12.0,1.0,medal_04s.jpg,0.0,Blue.png,3.0,3,,,,,,,,,,,,,,,,,
0.0,1.0,1.74643,0.0,13.0,13.0,13.0,1.0,medal_04s.jpg,0.0,Purple.png,3.0,3,,,,,,,,,,,,,,,,,
1.0,1.0,1.244565,0.0,14.0,14.0,14.0,1.0,medal_04s.jpg,1.0,Red.png,3.0,3,,,,,,,,,,,,,,,,,
0.0,1.0,1.264635,0.0,15.0,15.0,15.0,1.0,licorice_06s.jpg,0.0,Orange.png,3.0,3,,,,,,,,,,,,,,,,,
1.0,1.0,1.86515,0.0,16.0,16.0,16.0,1.0,medal_04s.jpg,1.0,Yellow.png,3.0,3,,,,,,,,,,,,,,,,,
0.0,1.0,1.201775,0.0,17.0,17.0,17.0,1.0,frog_09s.jpg,0.0,Green.png,3.0,3,,,,,,,,,,,,,,,,,
0.0,1.0,1.151675,0.0,18.0,18.0,18.0,1.0,laser_pointer_02s.jpg,0.0,Blue.png,4.0,3,,,,,,,,,,,,,,,,,
0.0,1.0,1.08196,0.0,19.0,19.0,19.0,1.0,treasure_08s.jpg,0.0,Purple.png,4.0,3,,,,,,,,,,,,,,,,,
0.0,1.0,1.29024,0.0,20.0,20.0,20.0,1.0,padlock_07s.jpg,0.0,Red.png,4.0,3,,,,,,,,,,,,,,,,,
0.0,1.0,1.078005,0.0,21.0,21.0,21.0,1.0,panda_02s.jpg,0.0,Orange.png,4.0,3,,,,,,,,,,,,,,,,,
0.0,1.0,1.334325,0.0,22.0,22.0,22.0,1.0,plunger_08s.jpg,0.0,Yellow.png,4.0,3,,,,,,,,,,,,,,,,,
0.0,1.0,1.814305,0.0,23.0,23.0,23.0,1.0,pancake_12s.jpg,0.0,Green.png,4.0,3,,,,,,,,,,,,,,,,,
0.0,1.0,1.36328,0.0,24.0,24.0,24.0,1.0,fire_pit_10s.jpg,0.0,Blue.png,5.0,3,,,,,,,,,,,,,,,,,
0.0,1.0,1.531945,0.0,25.0,25.0,25.0,1.0,bubble_01b.jpg,0.0,Purple.png,5.0,3,,,,,,,,,,,,,,,,,
0.0,1.0,1.542255,0.0,26.0,26.0,26.0,1.0,bubble_01b.jpg,0.0,Red.png,5.0,3,,,,,,,,,,,,,,,,,
1.0,1.0,1.10223,0.0,27.0,27.0,27.0,1.0,bubble_01b.jpg,1.0,Orange.png,5.0,3,,,,,,,,,,,,,,,,,
,0.0,,0.0,28.0,28.0,28.0,1.0,bubble_01b.jpg,1.0,Yellow.png,5.0,3,,,,,,,,,,,,,,,,,
0.0,1.0,1.03038,0.0,29.0,29.0,29.0,1.0,power_line_08s.jpg,0.0,Green.png,5.0,3,,,,,,,,,,,,,,,,,
0.0,1.0,0.96035,0.0,30.0,30.0,30.0,1.0,golf_club_03s.jpg,0.0,Blue.png,6.0,3,,,,,,,,,,,,,,,,,
0.0,1.0,1.585145,0.0,31.0,31.0,31.0,1.0,kilt_18s.jpg,0.0,Purple.png,6.0,3,,,,,,,,,,,,,,,,,
0.0,1.0,1.196135,0.0,32.0,32.0,32.0,1.0,tupperware_09s.jpg,0.0,Red.png,6.0,3,,,,,,,,,,,,,,,,,
0.0,1.0,1.08694,0.0,33.0,33.0,33.0,1.0,go-kart_10s.jpg,0.0,Orange.png,6.0,3,,,,,,,,,,,,,,,,,
0.0,1.0,1.17665,0.0,34.0,34.0,34.0,1.0,bottle_opener_11s.jpg,0.0,Yellow.png,6.0,3,,,,,,,,,,,,,,,,,
0.0,0.0,1.798555,0.0,35.0,35.0,35.0,1.0,go-kart_10s.jpg,1.0,Green.png,6.0,3,,,,,,,,,,,,,,,,,
,,,,,,,,,1.0,,,3,1.0,1.0,1.519435,0.0,0.0,0.0,0.0,1.0,toothpaste_12s.jpg,puck_06s.jpg,,,,,,,
,,,,,,,,,0.0,,,3,0.0,1.0,2.065565,0.0,1.0,1.0,1.0,1.0,padlock_07s.jpg,frog_09s.jpg,,,,,,,
,,,,,,,,,0.0,,,3,0.0,1.0,1.86772,0.0,2.0,2.0,2.0,1.0,plunger_08s.jpg,treasure_08s.jpg,,,,,,,
,,,,,,,,,1.0,,,3,1.0,1.0,1.978375,0.0,3.0,3.0,3.0,1.0,licorice_06s.jpg,laser_pointer_02s.jpg,,,,,,,
,,,,,,,,,1.0,,,3,1.0,1.0,1.626685,0.0,4.0,4.0,4.0,1.0,petri_dish_12s.jpg,potholder_02s.jpg,,,,,,,
,,,,,,,,,0.0,,,3,0.0,1.0,1.6735,0.0,5.0,5.0,5.0,1.0,tupperware_09s.jpg,power_line_08s.jpg,,,,,,,
,,,,,,,,,,,,3,,,,,,,,,,,0.0,6.0,6.0,6.0,1.0,new2backpresent_7_1.xlsx,new2back_compare_task_7_1.xlsx
0.0,1.0,1.72385,0.0,0.0,0.0,0.0,1.0,toad_09s.jpg,0.0,Blue.png,1.0,3,,,,,,,,,,,,,,,,,
0.0,1.0,1.177115,0.0,1.0,1.0,1.0,1.0,toad_09s.jpg,0.0,Purple.png,1.0,3,,,,,,,,,,,,,,,,,
1.0,1.0,1.33519,0.0,2.0,2.0,2.0,1.0,toad_09s.jpg,1.0,Red.png,1.0,3,,,,,,,,,,,,,,,,,
0.0,1.0,1.316225,0.0,3.0,3.0,3.0,1.0,lamb_04s.jpg,0.0,Orange.png,1.0,3,,,,,,,,,,,,,,,,,
1.0,1.0,1.37184,0.0,4.0,4.0,4.0,1.0,toad_09s.jpg,1.0,Yellow.png,1.0,3,,,,,,,,,,,,,,,,,
0.0,1.0,1.35127,0.0,5.0,5.0,5.0,1.0,possum_09s.jpg,0.0,Green.png,1.0,3,,,,,,,,,,,,,,,,,
0.0,1.0,1.85159,0.0,6.0,6.0,6.0,1.0,reindeer_08s.jpg,0.0,Blue.png,2.0,3,,,,,,,,,,,,,,,,,
0.0,1.0,1.35116,0.0,7.0,7.0,7.0,1.0,reindeer_08s.jpg,0.0,Purple.png,2.0,3,,,,,,,,,,,,,,,,,
0.0,1.0,1.27903,0.0,8.0,8.0,8.0,1.0,knot_01b.jpg,0.0,Red.png,2.0,3,,,,,,,,,,,,,,,,,
1.0,1.0,1.119245,0.0,9.0,9.0,9.0,1.0,reindeer_08s.jpg,1.0,Orange.png,2.0,3,,,,,,,,,,,,,,,,,
0.0,1.0,1.219645,0.0,10.0,10.0,10.0,1.0,pan_02s.jpg,0.0,Yellow.png,2.0,3,,,,,,,,,,,,,,,,,
0.0,1.0,1.165385,0.0,11.0,11.0,11.0,1.0,ladle_04s.jpg,0.0,Green.png,2.0,3,,,,,,,,,,,,,,,,,
0.0,1.0,1.256555,0.0,12.0,12.0,12.0,1.0,tuxedo_01b.jpg,0.0,Blue.png,3.0,3,,,,,,,,,,,,,,,,,
0.0,1.0,1.305375,0.0,13.0,13.0,13.0,1.0,lemonade_04s.jpg,0.0,Purple.png,3.0,3,,,,,,,,,,,,,,,,,
0.0,1.0,1.372475,0.0,14.0,14.0,14.0,1.0,cobra_05s.jpg,0.0,Red.png,3.0,3,,,,,,,,,,,,,,,,,
0.0,1.0,1.66027,0.0,15.0,15.0,15.0,1.0,pocketknife_12s.jpg,0.0,Orange.png,3.0,3,,,,,,,,,,,,,,,,,
0.0,1.0,1.268865,0.0,16.0,16.0,16.0,1.0,kettle_08s.jpg,0.0,Yellow.png,3.0,3,,,,,,,,,,,,,,,,,
0.0,1.0,1.11892,0.0,17.0,17.0,17.0,1.0,spider_web_03s.jpg,0.0,Green.png,3.0,3,,,,,,,,,,,,,,,,,
0.0,1.0,1.46725,0.0,18.0,18.0,18.0,1.0,pretzel_09s.jpg,0.0,Blue.png,4.0,3,,,,,,,,,,,,,,,,,
0.0,1.0,1.35867,0.0,19.0,19.0,19.0,1.0,rock_08s.jpg,0.0,Purple.png,4.0,3,,,,,,,,,,,,,,,,,
0.0,1.0,1.686455,0.0,20.0,20.0,20.0,1.0,boar_10s.jpg,0.0,Red.png,4.0,3,,,,,,,,,,,,,,,,,
0.0,1.0,1.155265,0.0,21.0,21.0,21.0,1.0,sunglasses_11s.jpg,0.0,Orange.png,4.0,3,,,,,,,,,,,,,,,,,
0.0,0.0,1.535095,0.0,22.0,22.0,22.0,1.0,boar_10s.jpg,1.0,Yellow.png,4.0,3,,,,,,,,,,,,,,,,,
0.0,1.0,1.57344,0.0,23.0,23.0,23.0,1.0,smoothie_09s.jpg,0.0,Green.png,4.0,3,,,,,,,,,,,,,,,,,
0.0,1.0,1.32122,0.0,24.0,24.0,24.0,1.0,latch_15s.jpg,0.0,Blue.png,5.0,3,,,,,,,,,,,,,,,,,
0.0,1.0,1.09223,0.0,25.0,25.0,25.0,1.0,amber_04s.jpg,0.0,Purple.png,5.0,3,,,,,,,,,,,,,,,,,
0.0,1.0,1.37741,0.0,26.0,26.0,26.0,1.0,amber_04s.jpg,0.0,Red.png,5.0,3,,,,,,,,,,,,,,,,,
0.0,1.0,1.27086,0.0,27.0,27.0,27.0,1.0,tennis_ball_06s.jpg,0.0,Orange.png,5.0,3,,,,,,,,,,,,,,,,,
1.0,1.0,1.247105,0.0,28.0,28.0,28.0,1.0,amber_04s.jpg,1.0,Yellow.png,5.0,3,,,,,,,,,,,,,,,,,
0.0,1.0,1.227455,0.0,29.0,29.0,29.0,1.0,milk_02s.jpg,0.0,Green.png,5.0,3,,,,,,,,,,,,,,,,,
0.0,1.0,1.27787,0.0,30.0,30.0,30.0,1.0,coat_rack_01b.jpg,0.0,Blue.png,6.0,3,,,,,,,,,,,,,,,,,
0.0,1.0,1.22036,0.0,31.0,31.0,31.0,1.0,thorn_13s.jpg,0.0,Purple.png,6.0,3,,,,,,,,,,,,,,,,,
1.0,1.0,1.738475,0.0,32.0,32.0,32.0,1.0,coat_rack_01b.jpg,1.0,Red.png,6.0,3,,,,,,,,,,,,,,,,,
0.0,1.0,1.441375,0.0,33.0,33.0,33.0,1.0,razor_blade_01b.jpg,0.0,Orange.png,6.0,3,,,,,,,,,,,,,,,,,
0.0,1.0,1.37363,0.0,34.0,34.0,34.0,1.0,lid_10s.jpg,0.0,Yellow.png,6.0,3,,,,,,,,,,,,,,,,,
1.0,0.0,1.627675,0.0,35.0,35.0,35.0,1.0,lid_10s.jpg,0.0,Green.png,6.0,3,,,,,,,,,,,,,,,,,
,,,,,,,,,0.0,,,3,0.0,1.0,1.915085,0.0,0.0,0.0,0.0,1.0,pocketknife_12s.jpg,tuxedo_01b.jpg,,,,,,,
,,,,,,,,,1.0,,,3,0.0,0.0,4.422055,0.0,1.0,1.0,1.0,1.0,possum_09s.jpg,knot_01b.jpg,,,,,,,
,,,,,,,,,1.0,,,3,1.0,1.0,1.85415,0.0,2.0,2.0,2.0,1.0,pan_02s.jpg,lemonade_04s.jpg,,,,,,,
,,,,,,,,,0.0,,,3,0.0,1.0,2.235975,0.0,3.0,3.0,3.0,1.0,tennis_ball_06s.jpg,latch_15s.jpg,,,,,,,
,,,,,,,,,0.0,,,3,1.0,0.0,1.650605,0.0,4.0,4.0,4.0,1.0,rock_08s.jpg,kettle_08s.jpg,,,,,,,
,,,,,,,,,1.0,,,3,0.0,0.0,3.036325,0.0,5.0,5.0,5.0,1.0,cobra_05s.jpg,spider_web_03s.jpg,,,,,,,
,,,,,,,,,,,,3,,,,,,,,,,,0.0,7.0,7.0,7.0,1.0,new2backpresent_8_1.xlsx,new2back_compare_task_8_1.xlsx
0.0,1.0,1.33483,0.0,0.0,0.0,0.0,1.0,recliner_02s.jpg,0.0,Blue.png,1.0,3,,,,,,,,,,,,,,,,,
0.0,1.0,1.254525,0.0,1.0,1.0,1.0,1.0,lava_02s.jpg,0.0,Purple.png,1.0,3,,,,,,,,,,,,,,,,,
0.0,1.0,1.26441,0.0,2.0,2.0,2.0,1.0,quesadilla_07s.jpg,0.0,Red.png,1.0,3,,,,,,,,,,,,,,,,,
0.0,1.0,1.47376,0.0,3.0,3.0,3.0,1.0,chalice_10s.jpg,0.0,Orange.png,1.0,3,,,,,,,,,,,,,,,,,
0.0,1.0,1.141335,0.0,4.0,4.0,4.0,1.0,tulip_02s.jpg,0.0,Yellow.png,1.0,3,,,,,,,,,,,,,,,,,
0.0,1.0,2.027585,0.0,5.0,5.0,5.0,1.0,quesadilla_07s.jpg,0.0,Green.png,1.0,3,,,,,,,,,,,,,,,,,
0.0,1.0,1.36048,0.0,6.0,6.0,6.0,1.0,lamppost_09s.jpg,0.0,Blue.png,2.0,3,,,,,,,,,,,,,,,,,
0.0,1.0,1.461885,0.0,7.0,7.0,7.0,1.0,chopsticks_08s.jpg,0.0,Purple.png,2.0,3,,,,,,,,,,,,,,,,,
0.0,1.0,1.63205,0.0,8.0,8.0,8.0,1.0,refrigerator_07s.jpg,0.0,Red.png,2.0,3,,,,,,,,,,,,,,,,,
1.0,1.0,1.801825,0.0,9.0,9.0,9.0,1.0,chopsticks_08s.jpg,1.0,Orange.png,2.0,3,,,,,,,,,,,,,,,,,
0.0,1.0,1.29646,0.0,10.0,10.0,10.0,1.0,paper_towel_03s.jpg,0.0,Yellow.png,2.0,3,,,,,,,,,,,,,,,,,
0.0,1.0,1.443755,0.0,11.0,11.0,11.0,1.0,flask_04s.jpg,0.0,Green.png,2.0,3,,,,,,,,,,,,,,,,,
0.0,1.0,1.45226,0.0,12.0,12.0,12.0,1.0,pantyhose_07s.jpg,0.0,Blue.png,3.0,3,,,,,,,,,,,,,,,,,
1.0,1.0,1.571605,0.0,13.0,13.0,13.0,1.0,flask_04s.jpg,1.0,Purple.png,3.0,3,,,,,,,,,,,,,,,,,
0.0,1.0,1.807335,0.0,14.0,14.0,14.0,1.0,chopsticks_08s.jpg,0.0,Red.png,3.0,3,,,,,,,,,,,,,,,,,
0.0,1.0,1.61911,0.0,15.0,15.0,15.0,1.0,seahorse_13s.jpg,0.0,Orange.png,3.0,3,,,,,,,,,,,,,,,,,
0.0,1.0,1.309295,0.0,16.0,16.0,16.0,1.0,pencil_sharpener_09n.jpg,0.0,Yellow.png,3.0,3,,,,,,,,,,,,,,,,,
0.0,1.0,1.36817,0.0,17.0,17.0,17.0,1.0,clover_04s.jpg,0.0,Green.png,3.0,3,,,,,,,,,,,,,,,,,
0.0,0.0,2.101995,0.0,18.0,18.0,18.0,1.0,pencil_sharpener_09n.jpg,1.0,Blue.png,4.0,3,,,,,,,,,,,,,,,,,
0.0,1.0,1.352645,0.0,19.0,19.0,19.0,1.0,fishhook_06s.jpg,0.0,Purple.png,4.0,3,,,,,,,,,,,,,,,,,
0.0,1.0,1.525595,0.0,20.0,20.0,20.0,1.0,clover_04s.jpg,0.0,Red.png,4.0,3,,,,,,,,,,,,,,,,,
0.0,1.0,1.31392,0.0,21.0,21.0,21.0,1.0,stopwatch_04s.jpg,0.0,Orange.png,4.0,3,,,,,,,,,,,,,,,,,
,0.0,,0.0,22.0,22.0,22.0,1.0,comic_book_02s.jpg,0.0,Yellow.png,4.0,3,,,,,,,,,,,,,,,,,
0.0,1.0,1.61205,0.0,23.0,23.0,23.0,1.0,lab_coat_11s.jpg,0.0,Green.png,4.0,3,,,,,,,,,,,,,,,,,
0.0,1.0,1.797565,0.0,24.0,24.0,24.0,1.0,bolo_tie_08s.jpg,0.0,Blue.png,5.0,3,,,,,,,,,,,,,,,,,
0.0,1.0,2.046965,0.0,25.0,25.0,25.0,1.0,teacup_07s.jpg,0.0,Purple.png,5.0,3,,,,,,,,,,,,,,,,,
0.0,1.0,2.175855,0.0,26.0,26.0,26.0,1.0,eyedropper_12s.jpg,0.0,Red.png,5.0,3,,,,,,,,,,,,,,,,,
0.0,1.0,1.230745,0.0,27.0,27.0,27.0,1.0,frame_06s.jpg,0.0,Orange.png,5.0,3,,,,,,,,,,,,,,,,,
0.0,1.0,1.49596,0.0,28.0,28.0,28.0,1.0,treadmill_06s.jpg,0.0,Yellow.png,5.0,3,,,,,,,,,,,,,,,,,
0.0,1.0,2.102795,0.0,29.0,29.0,29.0,1.0,mug_06s.jpg,0.0,Green.png,5.0,3,,,,,,,,,,,,,,,,,
0.0,1.0,1.45171,0.0,30.0,30.0,30.0,1.0,mug_06s.jpg,0.0,Blue.png,6.0,3,,,,,,,,,,,,,,,,,
0.0,0.0,1.459185,0.0,31.0,31.0,31.0,1.0,mug_06s.jpg,1.0,Purple.png,6.0,3,,,,,,,,,,,,,,,,,
0.0,1.0,1.95074,0.0,32.0,32.0,32.0,1.0,chip_04s.jpg,0.0,Red.png,6.0,3,,,,,,,,,,,,,,,,,
0.0,1.0,1.201205,0.0,33.0,33.0,33.0,1.0,gazelle_10s.jpg,0.0,Orange.png,6.0,3,,,,,,,,,,,,,,,,,
1.0,1.0,1.601695,0.0,34.0,34.0,34.0,1.0,chip_04s.jpg,1.0,Yellow.png,6.0,3,,,,,,,,,,,,,,,,,
0.0,1.0,1.75877,0.0,35.0,35.0,35.0,1.0,quill_09s.jpg,0.0,Green.png,6.0,3,,,,,,,,,,,,,,,,,
,,,,,,,,,0.0,,,3,0.0,1.0,1.65127,0.0,0.0,0.0,0.0,1.0,bolo_tie_08s.jpg,stopwatch_04s.jpg,,,,,,,
,,,,,,,,,0.0,,,3,1.0,0.0,1.533325,0.0,1.0,1.0,1.0,1.0,lamppost_09s.jpg,chalice_10s.jpg,,,,,,,
,,,,,,,,,0.0,,,3,0.0,1.0,1.840365,0.0,2.0,2.0,2.0,1.0,eyedropper_12s.jpg,lab_coat_11s.jpg,,,,,,,
,,,,,,,,,1.0,,,3,1.0,1.0,1.41133,0.0,3.0,3.0,3.0,1.0,lava_02s.jpg,tulip_02s.jpg,,,,,,,
,,,,,,,,,0.0,,,3,0.0,1.0,1.651675,0.0,4.0,4.0,4.0,1.0,seahorse_13s.jpg,pantyhose_07s.jpg,,,,,,,
,,,,,,,,,1.0,,,3,1.0,1.0,1.76528,0.0,5.0,5.0,5.0,1.0,fishhook_06s.jpg,comic_book_02s.jpg,,,,,,,
,,,,,,,,,,,,3,,,,,,,,,,,0.0,8.0,8.0,8.0,1.0,new2backpresent_9_1.xlsx,new2back_compare_task_9_1.xlsx
