key_resp.keys,key_resp.corr,key_resp.rt,present_segment.thisRepN,present_segment.thisTrialN,present_segment.thisN,present_segment.thisIndex,present_segment.ran,pictures,answer,clock,segment,participant,key_resp_2.keys,key_resp_2.corr,key_resp_2.rt,compare_segment.thisRepN,compare_segment.thisTrialN,compare_segment.thisN,compare_segment.thisIndex,compare_segment.ran,item_a,item_b,clock_conditions.thisRepN,clock_conditions.thisTrialN,clock_conditions.thisN,clock_conditions.thisIndex,clock_conditions.ran,present,compare
0.0,1.0,0.97719,0.0,0.0,0.0,0.0,1.0,lamppost_09s.jpg,0.0,Blue.png,1.0,16,,,,,,,,,,,,,,,,,
0.0,1.0,1.126185,0.0,1.0,1.0,1.0,1.0,mushroom_10n.jpg,0.0,Purple.png,1.0,16,,,,,,,,,,,,,,,,,
1.0,1.0,1.076295,0.0,2.0,2.0,2.0,1.0,mushroom_10n.jpg,1.0,Red.png,1.0,16,,,,,,,,,,,,,,,,,
0.0,1.0,0.826195,0.0,3.0,3.0,3.0,1.0,megaphone_03s.jpg,0.0,Orange.png,1.0,16,,,,,,,,,,,,,,,,,
0.0,1.0,0.93297,0.0,4.0,4.0,4.0,1.0,popsicle_02s.jpg,0.0,Yellow.png,1.0,16,,,,,,,,,,,,,,,,,
0.0,1.0,1.09392,0.0,5.0,5.0,5.0,1.0,kangaroo_02s.jpg,0.0,Green.png,1.0,16,,,,,,,,,,,,,,,,,
1.0,0.0,0.91031,0.0,6.0,6.0,6.0,1.0,kangaroo_02s.jpg,0.0,Blue.png,2.0,16,,,,,,,,,,,,,,,,,
0.0,1.0,1.336795,0.0,7.0,7.0,7.0,1.0,ivy_12s.jpg,0.0,Purple.png,2.0,16,,,,,,,,,,,,,,,,,
1.0,1.0,1.070395,0.0,8.0,8.0,8.0,1.0,kangaroo_02s.jpg,1.0,Red.png,2.0,16,,,,,,,,,,,,,,,,,
0.0,1.0,0.80253,0.0,9.0,9.0,9.0,1.0,peanut_butter_08s.jpg,0.0,Orange.png,2.0,16,,,,,,,,,,,,,,,,,
0.0,1.0,1.06308,0.0,10.0,10.0,10.0,1.0,spoon02a.jpg,0.0,Yellow.png,2.0,16,,,,,,,,,,,,,,,,,
0.0,1.0,1.59418,0.0,11.0,11.0,11.0,1.0,air_pump_05s.jpg,0.0,Green.png,2.0,16,,,,,,,,,,,,,,,,,
0.0,1.0,1.41559,0.0,12.0,12.0,12.0,1.0,powder_07s.jpg,0.0,Blue.png,3.0,16,,,,,,,,,,,,,,,,,
0.0,1.0,1.148215,0.0,13.0,13.0,13.0,1.0,sunglasses_11s.jpg,0.0,Purple.png,3.0,16,,,,,,,,,,,,,,,,,
0.0,1.0,0.811145,0.0,14.0,14.0,14.0,1.0,timer_03s.jpg,0.0,Red.png,3.0,16,,,,,,,,,,,,,,,,,
1.0,1.0,1.724895,0.0,15.0,15.0,15.0,1.0,sunglasses_11s.jpg,1.0,Orange.png,3.0,16,,,,,,,,,,,,,,,,,
0.0,1.0,0.996385,0.0,16.0,16.0,16.0,1.0,stethoscope_01b.jpg,0.0,Yellow.png,3.0,16,,,,,,,,,,,,,,,,,
1.0,1.0,1.7965,0.0,17.0,17.0,17.0,1.0,sunglasses_11s.jpg,1.0,Green.png,3.0,16,,,,,,,,,,,,,,,,,
0.0,1.0,1.096705,0.0,18.0,18.0,18.0,1.0,sunglasses_11s.jpg,0.0,Blue.png,4.0,16,,,,,,,,,,,,,,,,,
1.0,1.0,0.981835,0.0,19.0,19.0,19.0,1.0,sunglasses_11s.jpg,1.0,Purple.png,4.0,16,,,,,,,,,,,,,,,,,
0.0,1.0,0.82433,0.0,20.0,20.0,20.0,1.0,radiator_05s.jpg,0.0,Red.png,4.0,16,,,,,,,,,,,,,,,,,
1.0,1.0,0.95719,0.0,21.0,21.0,21.0,1.0,radiator_05s.jpg,1.0,Orange.png,4.0,16,,,,,,,,,,,,,,,,,
0.0,0.0,0.88902,0.0,22.0,22.0,22.0,1.0,sunglasses_11s.jpg,1.0,Yellow.png,4.0,16,,,,,,,,,,,,,,,,,
1.0,1.0,0.9413,0.0,23.0,23.0,23.0,1.0,radiator_05s.jpg,1.0,Green.png,4.0,16,,,,,,,,,,,,,,,,,
0.0,1.0,0.81164,0.0,24.0,24.0,24.0,1.0,stump_02s.jpg,0.0,Blue.png,5.0,16,,,,,,,,,,,,,,,,,
0.0,1.0,1.037505,0.0,25.0,25.0,25.0,1.0,jet_15s.jpg,0.0,Purple.png,5.0,16,,,,,,,,,,,,,,,,,
0.0,1.0,1.089265,0.0,26.0,26.0,26.0,1.0,bubble_01b.jpg,0.0,Red.png,5.0,16,,,,,,,,,,,,,,,,,
0.0,1.0,0.780575,0.0,27.0,27.0,27.0,1.0,footprint_11s.jpg,0.0,Orange.png,5.0,16,,,,,,,,,,,,,,,,,
0.0,1.0,0.818755,0.0,28.0,28.0,28.0,1.0,knitting_needle_04s.jpg,0.0,Yellow.png,5.0,16,,,,,,,,,,,,,,,,,
1.0,1.0,1.111735,0.0,29.0,29.0,29.0,1.0,bubble_01b.jpg,1.0,Green.png,5.0,16,,,,,,,,,,,,,,,,,
0.0,1.0,1.131595,0.0,30.0,30.0,30.0,1.0,lizard_10n.jpg,0.0,Blue.png,6.0,16,,,,,,,,,,,,,,,,,
0.0,1.0,2.405885,0.0,31.0,31.0,31.0,1.0,bubble_01b.jpg,0.0,Purple.png,6.0,16,,,,,,,,,,,,,,,,,
0.0,1.0,0.728955,0.0,32.0,32.0,32.0,1.0,frame_06s.jpg,0.0,Red.png,6.0,16,,,,,,,,,,,,,,,,,
0.0,1.0,0.64644,0.0,33.0,33.0,33.0,1.0,tube_top_03s.jpg,0.0,Orange.png,6.0,16,,,,,,,,,,,,,,,,,
1.0,1.0,1.481155,0.0,34.0,34.0,34.0,1.0,bubble_01b.jpg,1.0,Yellow.png,6.0,16,,,,,,,,,,,,,,,,,
1.0,1.0,1.390065,0.0,35.0,35.0,35.0,1.0,bubble_01b.jpg,1.0,Green.png,6.0,16,,,,,,,,,,,,,,,,,
,,,,,,,,,0.0,,,16,0.0,1.0,4.61274,0.0,0.0,0.0,0.0,1.0,powder_07s.jpg,peanut_butter_08s.jpg,,,,,,,
,,,,,,,,,0.0,,,16,0.0,1.0,2.589335,0.0,1.0,1.0,1.0,1.0,ivy_12s.jpg,popsicle_02s.jpg,,,,,,,
,,,,,,,,,0.0,,,16,1.0,0.0,1.759445,0.0,2.0,2.0,2.0,1.0,megaphone_03s.jpg,lamppost_09s.jpg,,,,,,,
,,,,,,,,,0.0,,,16,1.0,0.0,3.402805,0.0,3.0,3.0,3.0,1.0,footprint_11s.jpg,stump_02s.jpg,,,,,,,
,,,,,,,,,1.0,,,16,1.0,1.0,1.65877,0.0,4.0,4.0,4.0,1.0,jet_15s.jpg,knitting_needle_04s.jpg,,,,,,,
,,,,,,,,,1.0,,,16,0.0,0.0,3.954965,0.0,5.0,5.0,5.0,1.0,air_pump_05s.jpg,timer_03s.jpg,,,,,,,
,,,,,,,,,,,,16,,,,,,,,,,,0.0,0.0,0.0,0.0,1.0,newclockpresent_1_3.xlsx,newclock_compare_task_1_3.xlsx
0.0,1.0,1.40459,0.0,0.0,0.0,0.0,1.0,mirror_12s.jpg,0.0,Blue.png,1.0,16,,,,,,,,,,,,,,,,,
0.0,1.0,0.687165,0.0,1.0,1.0,1.0,1.0,rake_06s.jpg,0.0,Purple.png,1.0,16,,,,,,,,,,,,,,,,,
0.0,1.0,0.62806,0.0,2.0,2.0,2.0,1.0,rhubarb_03s.jpg,0.0,Red.png,1.0,16,,,,,,,,,,,,,,,,,
1.0,1.0,1.087865,0.0,3.0,3.0,3.0,1.0,mirror_12s.jpg,1.0,Orange.png,1.0,16,,,,,,,,,,,,,,,,,
0.0,1.0,1.26787,0.0,4.0,4.0,4.0,1.0,tomato_sauce_09s.jpg,0.0,Yellow.png,1.0,16,,,,,,,,,,,,,,,,,
1.0,1.0,1.096515,0.0,5.0,5.0,5.0,1.0,mirror_12s.jpg,1.0,Green.png,1.0,16,,,,,,,,,,,,,,,,,
0.0,1.0,0.660475,0.0,6.0,6.0,6.0,1.0,medal_04s.jpg,0.0,Blue.png,2.0,16,,,,,,,,,,,,,,,,,
0.0,1.0,0.68015,0.0,7.0,7.0,7.0,1.0,fountain_pen_06s.jpg,0.0,Purple.png,2.0,16,,,,,,,,,,,,,,,,,
0.0,1.0,0.764005,0.0,8.0,8.0,8.0,1.0,rudder_02s.jpg,0.0,Red.png,2.0,16,,,,,,,,,,,,,,,,,
1.0,1.0,1.009665,0.0,9.0,9.0,9.0,1.0,fountain_pen_06s.jpg,1.0,Orange.png,2.0,16,,,,,,,,,,,,,,,,,
1.0,1.0,1.21441,0.0,10.0,10.0,10.0,1.0,medal_04s.jpg,1.0,Yellow.png,2.0,16,,,,,,,,,,,,,,,,,
0.0,1.0,1.151845,0.0,11.0,11.0,11.0,1.0,owl_15s.jpg,0.0,Green.png,2.0,16,,,,,,,,,,,,,,,,,
0.0,1.0,0.80345,0.0,12.0,12.0,12.0,1.0,swan_11s.jpg,0.0,Blue.png,3.0,16,,,,,,,,,,,,,,,,,
0.0,1.0,1.289055,0.0,13.0,13.0,13.0,1.0,penguin_16s.jpg,0.0,Purple.png,3.0,16,,,,,,,,,,,,,,,,,
0.0,1.0,0.72434,0.0,14.0,14.0,14.0,1.0,piano_13n.jpg,0.0,Red.png,3.0,16,,,,,,,,,,,,,,,,,
1.0,1.0,0.880865,0.0,15.0,15.0,15.0,1.0,penguin_16s.jpg,1.0,Orange.png,3.0,16,,,,,,,,,,,,,,,,,
0.0,1.0,0.862135,0.0,16.0,16.0,16.0,1.0,feather02.jpg,0.0,Yellow.png,3.0,16,,,,,,,,,,,,,,,,,
0.0,1.0,0.99965,0.0,17.0,17.0,17.0,1.0,boar_10s.jpg,0.0,Green.png,3.0,16,,,,,,,,,,,,,,,,,
0.0,1.0,1.372235,0.0,18.0,18.0,18.0,1.0,keyboard_05s.jpg,0.0,Blue.png,4.0,16,,,,,,,,,,,,,,,,,
0.0,1.0,0.69645,0.0,19.0,19.0,19.0,1.0,gas_mask_11s.jpg,0.0,Purple.png,4.0,16,,,,,,,,,,,,,,,,,
0.0,1.0,0.73985,0.0,20.0,20.0,20.0,1.0,pocketknife_12s.jpg,0.0,Red.png,4.0,16,,,,,,,,,,,,,,,,,
1.0,1.0,1.161745,0.0,21.0,21.0,21.0,1.0,keyboard_05s.jpg,1.0,Orange.png,4.0,16,,,,,,,,,,,,,,,,,
0.0,1.0,0.7484,0.0,22.0,22.0,22.0,1.0,roulette_wheel_04s.jpg,0.0,Yellow.png,4.0,16,,,,,,,,,,,,,,,,,
1.0,1.0,0.994615,0.0,23.0,23.0,23.0,1.0,roulette_wheel_04s.jpg,1.0,Green.png,4.0,16,,,,,,,,,,,,,,,,,
0.0,1.0,1.18144,0.0,24.0,24.0,24.0,1.0,keyboard_05s.jpg,0.0,Blue.png,5.0,16,,,,,,,,,,,,,,,,,
0.0,1.0,1.362815,0.0,25.0,25.0,25.0,1.0,roulette_wheel_04s.jpg,0.0,Purple.png,5.0,16,,,,,,,,,,,,,,,,,
0.0,1.0,0.708455,0.0,26.0,26.0,26.0,1.0,limousine_12s.jpg,0.0,Red.png,5.0,16,,,,,,,,,,,,,,,,,
0.0,1.0,0.657175,0.0,27.0,27.0,27.0,1.0,tape_06s.jpg,0.0,Orange.png,5.0,16,,,,,,,,,,,,,,,,,
0.0,1.0,1.00622,0.0,28.0,28.0,28.0,1.0,quesadilla_07s.jpg,0.0,Yellow.png,5.0,16,,,,,,,,,,,,,,,,,
0.0,1.0,1.040855,0.0,29.0,29.0,29.0,1.0,breadstick_08s.jpg,0.0,Green.png,5.0,16,,,,,,,,,,,,,,,,,
0.0,1.0,0.879835,0.0,30.0,30.0,30.0,1.0,sundae_08s.jpg,0.0,Blue.png,6.0,16,,,,,,,,,,,,,,,,,
0.0,1.0,1.201035,0.0,31.0,31.0,31.0,1.0,sushi_08s.jpg,0.0,Purple.png,6.0,16,,,,,,,,,,,,,,,,,
0.0,1.0,0.596335,0.0,32.0,32.0,32.0,1.0,abacus_12s.jpg,0.0,Red.png,6.0,16,,,,,,,,,,,,,,,,,
0.0,1.0,0.664335,0.0,33.0,33.0,33.0,1.0,peppermint_07s.jpg,0.0,Orange.png,6.0,16,,,,,,,,,,,,,,,,,
0.0,1.0,0.741665,0.0,34.0,34.0,34.0,1.0,marshmallow_08s.jpg,0.0,Yellow.png,6.0,16,,,,,,,,,,,,,,,,,
,0.0,,0.0,35.0,35.0,35.0,1.0,sundae_08s.jpg,1.0,Green.png,6.0,16,,,,,,,,,,,,,,,,,
,,,,,,,,,1.0,,,16,1.0,1.0,1.917025,0.0,0.0,0.0,0.0,1.0,rudder_02s.jpg,owl_15s.jpg,,,,,,,
,,,,,,,,,1.0,,,16,0.0,0.0,2.032065,0.0,1.0,1.0,1.0,1.0,boar_10s.jpg,pocketknife_12s.jpg,,,,,,,
,,,,,,,,,1.0,,,16,0.0,0.0,1.92058,0.0,2.0,2.0,2.0,1.0,limousine_12s.jpg,breadstick_08s.jpg,,,,,,,
,,,,,,,,,0.0,,,16,1.0,0.0,1.78256,0.0,3.0,3.0,3.0,1.0,sushi_08s.jpg,quesadilla_07s.jpg,,,,,,,
,,,,,,,,,1.0,,,16,1.0,1.0,1.649375,0.0,4.0,4.0,4.0,1.0,feather02.jpg,gas_mask_11s.jpg,,,,,,,
,,,,,,,,,0.0,,,16,0.0,1.0,2.400515,0.0,5.0,5.0,5.0,1.0,tomato_sauce_09s.jpg,rake_06s.jpg,,,,,,,
,,,,,,,,,,,,16,,,,,,,,,,,0.0,1.0,1.0,1.0,1.0,newclockpresent_2_3.xlsx,newclock_compare_task_2_3.xlsx
0.0,1.0,0.81621,0.0,0.0,0.0,0.0,1.0,lip_gloss_06s.jpg,0.0,Blue.png,1.0,16,,,,,,,,,,,,,,,,,
1.0,1.0,1.07313,0.0,1.0,1.0,1.0,1.0,lip_gloss_06s.jpg,1.0,Purple.png,1.0,16,,,,,,,,,,,,,,,,,
0.0,1.0,0.76565,0.0,2.0,2.0,2.0,1.0,memory_stick_11s.jpg,0.0,Red.png,1.0,16,,,,,,,,,,,,,,,,,
0.0,1.0,0.657675,0.0,3.0,3.0,3.0,1.0,torch_02s.jpg,0.0,Orange.png,1.0,16,,,,,,,,,,,,,,,,,
1.0,1.0,0.84589,0.0,4.0,4.0,4.0,1.0,lip_gloss_06s.jpg,1.0,Yellow.png,1.0,16,,,,,,,,,,,,,,,,,
0.0,1.0,0.92187,0.0,5.0,5.0,5.0,1.0,triangle_10s.jpg,0.0,Green.png,1.0,16,,,,,,,,,,,,,,,,,
0.0,1.0,1.174985,0.0,6.0,6.0,6.0,1.0,lip_gloss_06s.jpg,0.0,Blue.png,2.0,16,,,,,,,,,,,,,,,,,
1.0,1.0,0.66548,0.0,7.0,7.0,7.0,1.0,lip_gloss_06s.jpg,1.0,Purple.png,2.0,16,,,,,,,,,,,,,,,,,
0.0,1.0,0.612975,0.0,8.0,8.0,8.0,1.0,prism_10s.jpg,0.0,Red.png,2.0,16,,,,,,,,,,,,,,,,,
0.0,1.0,0.665975,0.0,9.0,9.0,9.0,1.0,soccer_ball_12s.jpg,0.0,Orange.png,2.0,16,,,,,,,,,,,,,,,,,
1.0,1.0,0.928585,0.0,10.0,10.0,10.0,1.0,lip_gloss_06s.jpg,1.0,Yellow.png,2.0,16,,,,,,,,,,,,,,,,,
0.0,1.0,0.970225,0.0,11.0,11.0,11.0,1.0,petri_dish_12s.jpg,0.0,Green.png,2.0,16,,,,,,,,,,,,,,,,,
0.0,1.0,0.91769,0.0,12.0,12.0,12.0,1.0,crystal_ball_12s.jpg,0.0,Blue.png,3.0,16,,,,,,,,,,,,,,,,,
0.0,1.0,0.913465,0.0,13.0,13.0,13.0,1.0,trampoline_13s.jpg,0.0,Purple.png,3.0,16,,,,,,,,,,,,,,,,,
0.0,1.0,0.63784,0.0,14.0,14.0,14.0,1.0,joystick_01b.jpg,0.0,Red.png,3.0,16,,,,,,,,,,,,,,,,,
1.0,1.0,0.79573,0.0,15.0,15.0,15.0,1.0,trampoline_13s.jpg,1.0,Orange.png,3.0,16,,,,,,,,,,,,,,,,,
0.0,1.0,0.646115,0.0,16.0,16.0,16.0,1.0,sparkler_02s.jpg,0.0,Yellow.png,3.0,16,,,,,,,,,,,,,,,,,
0.0,1.0,0.689355,0.0,17.0,17.0,17.0,1.0,kayak_08s.jpg,0.0,Green.png,3.0,16,,,,,,,,,,,,,,,,,
0.0,1.0,0.75041,0.0,18.0,18.0,18.0,1.0,foam_03s.jpg,0.0,Blue.png,4.0,16,,,,,,,,,,,,,,,,,
0.0,1.0,0.634515,0.0,19.0,19.0,19.0,1.0,dirt_bike_11s.jpg,0.0,Purple.png,4.0,16,,,,,,,,,,,,,,,,,
0.0,1.0,0.645885,0.0,20.0,20.0,20.0,1.0,tortilla_06s.jpg,0.0,Red.png,4.0,16,,,,,,,,,,,,,,,,,
1.0,1.0,0.803115,0.0,21.0,21.0,21.0,1.0,dirt_bike_11s.jpg,1.0,Orange.png,4.0,16,,,,,,,,,,,,,,,,,
0.0,1.0,0.63901,0.0,22.0,22.0,22.0,1.0,otter_05s.jpg,0.0,Yellow.png,4.0,16,,,,,,,,,,,,,,,,,
0.0,1.0,0.96371,0.0,23.0,23.0,23.0,1.0,playpen_11s.jpg,0.0,Green.png,4.0,16,,,,,,,,,,,,,,,,,
0.0,1.0,0.895735,0.0,24.0,24.0,24.0,1.0,pear_02s.jpg,0.0,Blue.png,5.0,16,,,,,,,,,,,,,,,,,
0.0,1.0,0.96305,0.0,25.0,25.0,25.0,1.0,omelet_07s.jpg,0.0,Purple.png,5.0,16,,,,,,,,,,,,,,,,,
0.0,1.0,0.6229,0.0,26.0,26.0,26.0,1.0,camcorder_10s.jpg,0.0,Red.png,5.0,16,,,,,,,,,,,,,,,,,
1.0,1.0,0.61874,0.0,27.0,27.0,27.0,1.0,omelet_07s.jpg,1.0,Orange.png,5.0,16,,,,,,,,,,,,,,,,,
0.0,1.0,0.663485,0.0,28.0,28.0,28.0,1.0,possum_09s.jpg,0.0,Yellow.png,5.0,16,,,,,,,,,,,,,,,,,
1.0,1.0,0.73123,0.0,29.0,29.0,29.0,1.0,omelet_07s.jpg,1.0,Green.png,5.0,16,,,,,,,,,,,,,,,,,
0.0,1.0,0.729265,0.0,30.0,30.0,30.0,1.0,plaster_cast_13s.jpg,0.0,Blue.png,6.0,16,,,,,,,,,,,,,,,,,
0.0,1.0,0.61867,0.0,31.0,31.0,31.0,1.0,ram_05s.jpg,0.0,Purple.png,6.0,16,,,,,,,,,,,,,,,,,
0.0,1.0,0.661665,0.0,32.0,32.0,32.0,1.0,plug_08s.jpg,0.0,Red.png,6.0,16,,,,,,,,,,,,,,,,,
1.0,1.0,0.73114,0.0,33.0,33.0,33.0,1.0,plaster_cast_13s.jpg,1.0,Orange.png,6.0,16,,,,,,,,,,,,,,,,,
0.0,1.0,0.59863,0.0,34.0,34.0,34.0,1.0,lavender_10s.jpg,0.0,Yellow.png,6.0,16,,,,,,,,,,,,,,,,,
1.0,1.0,0.95607,0.0,35.0,35.0,35.0,1.0,plug_08s.jpg,1.0,Green.png,6.0,16,,,,,,,,,,,,,,,,,
,,,,,,,,,1.0,,,16,1.0,1.0,1.45688,0.0,0.0,0.0,0.0,1.0,playpen_11s.jpg,camcorder_10s.jpg,,,,,,,
,,,,,,,,,0.0,,,16,1.0,0.0,1.812005,0.0,1.0,1.0,1.0,1.0,kayak_08s.jpg,joystick_01b.jpg,,,,,,,
,,,,,,,,,1.0,,,16,0.0,0.0,2.58932,0.0,2.0,2.0,2.0,1.0,possum_09s.jpg,ram_05s.jpg,,,,,,,
,,,,,,,,,1.0,,,16,0.0,0.0,1.326695,0.0,3.0,3.0,3.0,1.0,soccer_ball_12s.jpg,crystal_ball_12s.jpg,,,,,,,
,,,,,,,,,1.0,,,16,0.0,0.0,2.285225,0.0,4.0,4.0,4.0,1.0,memory_stick_11s.jpg,triangle_10s.jpg,,,,,,,
,,,,,,,,,0.0,,,16,0.0,1.0,1.666375,0.0,5.0,5.0,5.0,1.0,petri_dish_12s.jpg,prism_10s.jpg,,,,,,,
,,,,,,,,,,,,16,,,,,,,,,,,0.0,2.0,2.0,2.0,1.0,newclockpresent_3_3.xlsx,newclock_compare_task_3_3.xlsx
0.0,1.0,1.356175,0.0,0.0,0.0,0.0,1.0,towel_rack_04s.jpg,0.0,Blue.png,1.0,16,,,,,,,,,,,,,,,,,
0.0,1.0,1.046485,0.0,1.0,1.0,1.0,1.0,iron_13s.jpg,0.0,Purple.png,1.0,16,,,,,,,,,,,,,,,,,
1.0,1.0,0.82776,0.0,2.0,2.0,2.0,1.0,iron_13s.jpg,1.0,Red.png,1.0,16,,,,,,,,,,,,,,,,,
0.0,1.0,0.78246,0.0,3.0,3.0,3.0,1.0,icemaker_10s.jpg,0.0,Orange.png,1.0,16,,,,,,,,,,,,,,,,,
0.0,1.0,0.801375,0.0,4.0,4.0,4.0,1.0,teacup_07s.jpg,0.0,Yellow.png,1.0,16,,,,,,,,,,,,,,,,,
1.0,1.0,0.78407,0.0,5.0,5.0,5.0,1.0,iron_13s.jpg,1.0,Green.png,1.0,16,,,,,,,,,,,,,,,,,
0.0,1.0,0.64967,0.0,6.0,6.0,6.0,1.0,teacup_07s.jpg,0.0,Blue.png,2.0,16,,,,,,,,,,,,,,,,,
0.0,1.0,1.19877,0.0,7.0,7.0,7.0,1.0,iron_13s.jpg,0.0,Purple.png,2.0,16,,,,,,,,,,,,,,,,,
1.0,1.0,2.363115,0.0,8.0,8.0,8.0,1.0,teacup_07s.jpg,1.0,Red.png,2.0,16,,,,,,,,,,,,,,,,,
0.0,1.0,0.64634,0.0,9.0,9.0,9.0,1.0,pincushion_10s.jpg,0.0,Orange.png,2.0,16,,,,,,,,,,,,,,,,,
1.0,1.0,0.771745,0.0,10.0,10.0,10.0,1.0,teacup_07s.jpg,1.0,Yellow.png,2.0,16,,,,,,,,,,,,,,,,,
0.0,1.0,0.743445,0.0,11.0,11.0,11.0,1.0,lamb_04s.jpg,0.0,Green.png,2.0,16,,,,,,,,,,,,,,,,,
0.0,1.0,0.570285,0.0,12.0,12.0,12.0,1.0,blowfish_03s.jpg,0.0,Blue.png,3.0,16,,,,,,,,,,,,,,,,,
0.0,1.0,0.61572,0.0,13.0,13.0,13.0,1.0,gear_07s.jpg,0.0,Purple.png,3.0,16,,,,,,,,,,,,,,,,,
0.0,1.0,0.7552,0.0,14.0,14.0,14.0,1.0,rug_09s.jpg,0.0,Red.png,3.0,16,,,,,,,,,,,,,,,,,
1.0,1.0,0.87798,0.0,15.0,15.0,15.0,1.0,gear_07s.jpg,1.0,Orange.png,3.0,16,,,,,,,,,,,,,,,,,
0.0,1.0,0.60379,0.0,16.0,16.0,16.0,1.0,binder_21s.jpg,0.0,Yellow.png,3.0,16,,,,,,,,,,,,,,,,,
0.0,1.0,0.83174,0.0,17.0,17.0,17.0,1.0,bacon_05s.jpg,0.0,Green.png,3.0,16,,,,,,,,,,,,,,,,,
0.0,1.0,0.65135,0.0,18.0,18.0,18.0,1.0,rocking_horse_03s.jpg,0.0,Blue.png,4.0,16,,,,,,,,,,,,,,,,,
0.0,1.0,1.19834,0.0,19.0,19.0,19.0,1.0,bacon_05s.jpg,0.0,Purple.png,4.0,16,,,,,,,,,,,,,,,,,
0.0,1.0,0.64691,0.0,20.0,20.0,20.0,1.0,perfume_06s.jpg,0.0,Red.png,4.0,16,,,,,,,,,,,,,,,,,
0.0,1.0,0.799065,0.0,21.0,21.0,21.0,1.0,raccoon_02s.jpg,0.0,Orange.png,4.0,16,,,,,,,,,,,,,,,,,
0.0,1.0,0.65179,0.0,22.0,22.0,22.0,1.0,mixer_12s.jpg,0.0,Yellow.png,4.0,16,,,,,,,,,,,,,,,,,
0.0,1.0,0.871095,0.0,23.0,23.0,23.0,1.0,slingshot_07s.jpg,0.0,Green.png,4.0,16,,,,,,,,,,,,,,,,,
0.0,1.0,0.634745,0.0,24.0,24.0,24.0,1.0,smokingpipe.jpg,0.0,Blue.png,5.0,16,,,,,,,,,,,,,,,,,
0.0,1.0,1.09558,0.0,25.0,25.0,25.0,1.0,film_03s.jpg,0.0,Purple.png,5.0,16,,,,,,,,,,,,,,,,,
1.0,1.0,0.787405,0.0,26.0,26.0,26.0,1.0,film_03s.jpg,1.0,Red.png,5.0,16,,,,,,,,,,,,,,,,,
1.0,1.0,0.767185,0.0,27.0,27.0,27.0,1.0,film_03s.jpg,1.0,Orange.png,5.0,16,,,,,,,,,,,,,,,,,
1.0,1.0,0.74763,0.0,28.0,28.0,28.0,1.0,film_03s.jpg,1.0,Yellow.png,5.0,16,,,,,,,,,,,,,,,,,
0.0,1.0,1.606325,0.0,29.0,29.0,29.0,1.0,insole_11s.jpg,0.0,Green.png,5.0,16,,,,,,,,,,,,,,,,,
0.0,1.0,0.89986,0.0,30.0,30.0,30.0,1.0,soda_fountain_03s.jpg,0.0,Blue.png,6.0,16,,,,,,,,,,,,,,,,,
1.0,1.0,0.92746,0.0,31.0,31.0,31.0,1.0,soda_fountain_03s.jpg,1.0,Purple.png,6.0,16,,,,,,,,,,,,,,,,,
0.0,1.0,0.628515,0.0,32.0,32.0,32.0,1.0,coconut_08s.jpg,0.0,Red.png,6.0,16,,,,,,,,,,,,,,,,,
0.0,1.0,0.65624,0.0,33.0,33.0,33.0,1.0,hydrant_10s.jpg,0.0,Orange.png,6.0,16,,,,,,,,,,,,,,,,,
1.0,1.0,0.923985,0.0,34.0,34.0,34.0,1.0,hydrant_10s.jpg,1.0,Yellow.png,6.0,16,,,,,,,,,,,,,,,,,
1.0,1.0,0.74583,0.0,35.0,35.0,35.0,1.0,hydrant_10s.jpg,1.0,Green.png,6.0,16,,,,,,,,,,,,,,,,,
,,,,,,,,,0.0,,,16,1.0,0.0,1.435115,0.0,0.0,0.0,0.0,1.0,slingshot_07s.jpg,perfume_06s.jpg,,,,,,,
,,,,,,,,,0.0,,,16,0.0,1.0,1.590565,0.0,1.0,1.0,1.0,1.0,blowfish_03s.jpg,pincushion_10s.jpg,,,,,,,
,,,,,,,,,0.0,,,16,0.0,1.0,2.04064,0.0,2.0,2.0,2.0,1.0,rug_09s.jpg,lamb_04s.jpg,,,,,,,
,,,,,,,,,1.0,,,16,0.0,0.0,1.59996,0.0,3.0,3.0,3.0,1.0,insole_11s.jpg,coconut_08s.jpg,,,,,,,
,,,,,,,,,0.0,,,16,1.0,0.0,1.10663,0.0,4.0,4.0,4.0,1.0,icemaker_10s.jpg,towel_rack_04s.jpg,,,,,,,
,,,,,,,,,0.0,,,16,0.0,1.0,1.42481,0.0,5.0,5.0,5.0,1.0,raccoon_02s.jpg,rocking_horse_03s.jpg,,,,,,,
,,,,,,,,,,,,16,,,,,,,,,,,0.0,3.0,3.0,3.0,1.0,newclockpresent_4_3.xlsx,newclock_compare_task_4_3.xlsx
0.0,1.0,1.241275,0.0,0.0,0.0,0.0,1.0,birthday_cake_09s.jpg,0.0,Blue.png,1.0,16,,,,,,,,,,,,,,,,,
0.0,1.0,0.720605,0.0,1.0,1.0,1.0,1.0,laser_pointer_02s.jpg,0.0,Purple.png,1.0,16,,,,,,,,,,,,,,,,,
0.0,1.0,0.6295,0.0,2.0,2.0,2.0,1.0,amber_04s.jpg,0.0,Red.png,1.0,16,,,,,,,,,,,,,,,,,
1.0,1.0,0.736635,0.0,3.0,3.0,3.0,1.0,amber_04s.jpg,1.0,Orange.png,1.0,16,,,,,,,,,,,,,,,,,
1.0,1.0,0.821825,0.0,4.0,4.0,4.0,1.0,amber_04s.jpg,1.0,Yellow.png,1.0,16,,,,,,,,,,,,,,,,,
1.0,1.0,0.954815,0.0,5.0,5.0,5.0,1.0,amber_04s.jpg,1.0,Green.png,1.0,16,,,,,,,,,,,,,,,,,
0.0,1.0,0.597705,0.0,6.0,6.0,6.0,1.0,mask_09s.jpg,0.0,Blue.png,2.0,16,,,,,,,,,,,,,,,,,
1.0,1.0,0.87388,0.0,7.0,7.0,7.0,1.0,mask_09s.jpg,1.0,Purple.png,2.0,16,,,,,,,,,,,,,,,,,
0.0,1.0,0.932905,0.0,8.0,8.0,8.0,1.0,amber_04s.jpg,0.0,Red.png,2.0,16,,,,,,,,,,,,,,,,,
0.0,1.0,0.729685,0.0,9.0,9.0,9.0,1.0,swordfish_05s.jpg,0.0,Orange.png,2.0,16,,,,,,,,,,,,,,,,,
0.0,1.0,0.712385,0.0,10.0,10.0,10.0,1.0,beard_16s.jpg,0.0,Yellow.png,2.0,16,,,,,,,,,,,,,,,,,
1.0,1.0,1.145295,0.0,11.0,11.0,11.0,1.0,swordfish_05s.jpg,1.0,Green.png,2.0,16,,,,,,,,,,,,,,,,,
0.0,1.0,1.128795,0.0,12.0,12.0,12.0,1.0,amber_04s.jpg,0.0,Blue.png,3.0,16,,,,,,,,,,,,,,,,,
0.0,1.0,0.77746,0.0,13.0,13.0,13.0,1.0,rope_16s.jpg,0.0,Purple.png,3.0,16,,,,,,,,,,,,,,,,,
0.0,1.0,0.59044,0.0,14.0,14.0,14.0,1.0,swing_set_15s.jpg,0.0,Red.png,3.0,16,,,,,,,,,,,,,,,,,
0.0,1.0,0.77837,0.0,15.0,15.0,15.0,1.0,totem_pole_05s.jpg,0.0,Orange.png,3.0,16,,,,,,,,,,,,,,,,,
0.0,1.0,0.622065,0.0,16.0,16.0,16.0,1.0,beaker_01b.jpg,0.0,Yellow.png,3.0,16,,,,,,,,,,,,,,,,,
0.0,1.0,0.65818,0.0,17.0,17.0,17.0,1.0,ostrich_06s.jpg,0.0,Green.png,3.0,16,,,,,,,,,,,,,,,,,
0.0,1.0,0.88643,0.0,18.0,18.0,18.0,1.0,ostrich_06s.jpg,0.0,Blue.png,4.0,16,,,,,,,,,,,,,,,,,
0.0,1.0,0.72232,0.0,19.0,19.0,19.0,1.0,syringe_02s.jpg,0.0,Purple.png,4.0,16,,,,,,,,,,,,,,,,,
0.0,1.0,0.64768,0.0,20.0,20.0,20.0,1.0,mold2_04s.jpg,0.0,Red.png,4.0,16,,,,,,,,,,,,,,,,,
1.0,1.0,0.84561,0.0,21.0,21.0,21.0,1.0,ostrich_06s.jpg,1.0,Orange.png,4.0,16,,,,,,,,,,,,,,,,,
0.0,1.0,0.65386,0.0,22.0,22.0,22.0,1.0,mousetrap_15n.jpg,0.0,Yellow.png,4.0,16,,,,,,,,,,,,,,,,,
0.0,1.0,0.73656,0.0,23.0,23.0,23.0,1.0,paper_towel_03s.jpg,0.0,Green.png,4.0,16,,,,,,,,,,,,,,,,,
0.0,1.0,1.11308,0.0,24.0,24.0,24.0,1.0,swordfish_05s.jpg,0.0,Blue.png,5.0,16,,,,,,,,,,,,,,,,,
0.0,1.0,0.61799,0.0,25.0,25.0,25.0,1.0,pump_11s.jpg,0.0,Purple.png,5.0,16,,,,,,,,,,,,,,,,,
,0.0,,0.0,26.0,26.0,26.0,1.0,swordfish_05s.jpg,1.0,Red.png,5.0,16,,,,,,,,,,,,,,,,,
1.0,1.0,0.787115,0.0,27.0,27.0,27.0,1.0,swordfish_05s.jpg,1.0,Orange.png,5.0,16,,,,,,,,,,,,,,,,,
1.0,1.0,1.149175,0.0,28.0,28.0,28.0,1.0,pump_11s.jpg,1.0,Yellow.png,5.0,16,,,,,,,,,,,,,,,,,
0.0,1.0,0.73899,0.0,29.0,29.0,29.0,1.0,pepper2_21s.jpg,0.0,Green.png,5.0,16,,,,,,,,,,,,,,,,,
0.0,1.0,0.78294,0.0,30.0,30.0,30.0,1.0,champagne_18s.jpg,0.0,Blue.png,6.0,16,,,,,,,,,,,,,,,,,
0.0,1.0,0.63436,0.0,31.0,31.0,31.0,1.0,piggy_bank_02s.jpg,0.0,Purple.png,6.0,16,,,,,,,,,,,,,,,,,
0.0,1.0,0.621835,0.0,32.0,32.0,32.0,1.0,fondue_07s.jpg,0.0,Red.png,6.0,16,,,,,,,,,,,,,,,,,
0.0,1.0,0.610615,0.0,33.0,33.0,33.0,1.0,metronome_03s.jpg,0.0,Orange.png,6.0,16,,,,,,,,,,,,,,,,,
0.0,1.0,0.79105,0.0,34.0,34.0,34.0,1.0,butter_14s.jpg,0.0,Yellow.png,6.0,16,,,,,,,,,,,,,,,,,
0.0,1.0,0.690805,0.0,35.0,35.0,35.0,1.0,submarine_11n.jpg,0.0,Green.png,6.0,16,,,,,,,,,,,,,,,,,
,,,,,,,,,1.0,,,16,1.0,1.0,1.67877,0.0,0.0,0.0,0.0,1.0,beard_16s.jpg,rope_16s.jpg,,,,,,,
,,,,,,,,,0.0,,,16,1.0,0.0,1.1927,0.0,1.0,1.0,1.0,1.0,fondue_07s.jpg,pepper2_21s.jpg,,,,,,,
,,,,,,,,,0.0,,,16,0.0,1.0,1.58622,0.0,2.0,2.0,2.0,1.0,metronome_03s.jpg,champagne_18s.jpg,,,,,,,
,,,,,,,,,1.0,,,16,1.0,1.0,1.38306,0.0,3.0,3.0,3.0,1.0,beaker_01b.jpg,syringe_02s.jpg,,,,,,,
,,,,,,,,,1.0,,,16,0.0,0.0,1.511785,0.0,4.0,4.0,4.0,1.0,mold2_04s.jpg,paper_towel_03s.jpg,,,,,,,
,,,,,,,,,0.0,,,16,0.0,1.0,1.446245,0.0,5.0,5.0,5.0,1.0,butter_14s.jpg,piggy_bank_02s.jpg,,,,,,,
,,,,,,,,,,,,16,,,,,,,,,,,0.0,4.0,4.0,4.0,1.0,newclockpresent_5_3.xlsx,newclock_compare_task_5_3.xlsx
0.0,1.0,0.89037,0.0,0.0,0.0,0.0,1.0,teabag_12s.jpg,0.0,Blue.png,1.0,16,,,,,,,,,,,,,,,,,
1.0,1.0,1.187025,0.0,1.0,1.0,1.0,1.0,teabag_12s.jpg,1.0,Purple.png,1.0,16,,,,,,,,,,,,,,,,,
0.0,1.0,0.953185,0.0,2.0,2.0,2.0,1.0,cereal_04s.jpg,0.0,Red.png,1.0,16,,,,,,,,,,,,,,,,,
0.0,1.0,0.629565,0.0,3.0,3.0,3.0,1.0,pocket_watch_16s.jpg,0.0,Orange.png,1.0,16,,,,,,,,,,,,,,,,,
0.0,1.0,0.78441,0.0,4.0,4.0,4.0,1.0,cucumber_07s.jpg,0.0,Yellow.png,1.0,16,,,,,,,,,,,,,,,,,
1.0,1.0,0.84742,0.0,5.0,5.0,5.0,1.0,teabag_12s.jpg,1.0,Green.png,1.0,16,,,,,,,,,,,,,,,,,
0.0,1.0,0.60011,0.0,6.0,6.0,6.0,1.0,recliner_02s.jpg,0.0,Blue.png,2.0,16,,,,,,,,,,,,,,,,,
0.0,1.0,0.56448,0.0,7.0,7.0,7.0,1.0,tupperware_09s.jpg,0.0,Purple.png,2.0,16,,,,,,,,,,,,,,,,,
0.0,1.0,0.65627,0.0,8.0,8.0,8.0,1.0,ticktacktoe_08s.jpg,0.0,Red.png,2.0,16,,,,,,,,,,,,,,,,,
0.0,1.0,0.605645,0.0,9.0,9.0,9.0,1.0,peach_04s.jpg,0.0,Orange.png,2.0,16,,,,,,,,,,,,,,,,,
0.0,1.0,0.864605,0.0,10.0,10.0,10.0,1.0,taxi_15s.jpg,0.0,Yellow.png,2.0,16,,,,,,,,,,,,,,,,,
1.0,1.0,0.88279,0.0,11.0,11.0,11.0,1.0,peach_04s.jpg,1.0,Green.png,2.0,16,,,,,,,,,,,,,,,,,
0.0,1.0,0.768035,0.0,12.0,12.0,12.0,1.0,letter_opener_03s.jpg,0.0,Blue.png,3.0,16,,,,,,,,,,,,,,,,,
1.0,1.0,0.79715,0.0,13.0,13.0,13.0,1.0,letter_opener_03s.jpg,1.0,Purple.png,3.0,16,,,,,,,,,,,,,,,,,
1.0,1.0,0.78515,0.0,14.0,14.0,14.0,1.0,letter_opener_03s.jpg,1.0,Red.png,3.0,16,,,,,,,,,,,,,,,,,
0.0,1.0,0.580505,0.0,15.0,15.0,15.0,1.0,latte_06s.jpg,0.0,Orange.png,3.0,16,,,,,,,,,,,,,,,,,
1.0,1.0,0.77775,0.0,16.0,16.0,16.0,1.0,letter_opener_03s.jpg,1.0,Yellow.png,3.0,16,,,,,,,,,,,,,,,,,
0.0,1.0,0.678855,0.0,17.0,17.0,17.0,1.0,icicle_04s.jpg,0.0,Green.png,3.0,16,,,,,,,,,,,,,,,,,
0.0,1.0,1.23329,0.0,18.0,18.0,18.0,1.0,taxi_15s.jpg,0.0,Blue.png,4.0,16,,,,,,,,,,,,,,,,,
0.0,1.0,0.997385,0.0,19.0,19.0,19.0,1.0,chopsticks_08s.jpg,0.0,Purple.png,4.0,16,,,,,,,,,,,,,,,,,
0.0,1.0,0.72067,0.0,20.0,20.0,20.0,1.0,doily_13s.jpg,0.0,Red.png,4.0,16,,,,,,,,,,,,,,,,,
0.0,1.0,0.701485,0.0,21.0,21.0,21.0,1.0,pretzel_09s.jpg,0.0,Orange.png,4.0,16,,,,,,,,,,,,,,,,,
0.0,1.0,0.611315,0.0,22.0,22.0,22.0,1.0,tie_03s.jpg,0.0,Yellow.png,4.0,16,,,,,,,,,,,,,,,,,
0.0,1.0,0.64703,0.0,23.0,23.0,23.0,1.0,pepper_mill_03s.jpg,0.0,Green.png,4.0,16,,,,,,,,,,,,,,,,,
0.0,1.0,0.50614,0.0,24.0,24.0,24.0,1.0,bee_20s.jpg,0.0,Blue.png,5.0,16,,,,,,,,,,,,,,,,,
0.0,1.0,1.014255,0.0,25.0,25.0,25.0,1.0,pepper_mill_03s.jpg,0.0,Purple.png,5.0,16,,,,,,,,,,,,,,,,,
1.0,1.0,0.59384,0.0,26.0,26.0,26.0,1.0,bee_20s.jpg,1.0,Red.png,5.0,16,,,,,,,,,,,,,,,,,
0.0,1.0,0.621175,0.0,27.0,27.0,27.0,1.0,tinsel_12s.jpg,0.0,Orange.png,5.0,16,,,,,,,,,,,,,,,,,
0.0,1.0,0.779225,0.0,28.0,28.0,28.0,1.0,fireworks_18s.jpg,0.0,Yellow.png,5.0,16,,,,,,,,,,,,,,,,,
0.0,1.0,0.790175,0.0,29.0,29.0,29.0,1.0,key_07s.jpg,0.0,Green.png,5.0,16,,,,,,,,,,,,,,,,,
0.0,1.0,0.68158,0.0,30.0,30.0,30.0,1.0,frog_09s.jpg,0.0,Blue.png,6.0,16,,,,,,,,,,,,,,,,,
0.0,1.0,0.845805,0.0,31.0,31.0,31.0,1.0,key_07s.jpg,0.0,Purple.png,6.0,16,,,,,,,,,,,,,,,,,
0.0,1.0,0.617565,0.0,32.0,32.0,32.0,1.0,rolling_pin_02s.jpg,0.0,Red.png,6.0,16,,,,,,,,,,,,,,,,,
0.0,1.0,0.59756,0.0,33.0,33.0,33.0,1.0,coral_08s.jpg,0.0,Orange.png,6.0,16,,,,,,,,,,,,,,,,,
1.0,1.0,0.56185,0.0,34.0,34.0,34.0,1.0,key_07s.jpg,1.0,Yellow.png,6.0,16,,,,,,,,,,,,,,,,,
0.0,1.0,0.83804,0.0,35.0,35.0,35.0,1.0,margarita_03s.jpg,0.0,Green.png,6.0,16,,,,,,,,,,,,,,,,,
,,,,,,,,,0.0,,,16,0.0,1.0,1.7543,0.0,0.0,0.0,0.0,1.0,recliner_02s.jpg,pocket_watch_16s.jpg,,,,,,,
,,,,,,,,,0.0,,,16,1.0,0.0,1.286835,0.0,1.0,1.0,1.0,1.0,tie_03s.jpg,chopsticks_08s.jpg,,,,,,,
,,,,,,,,,1.0,,,16,1.0,1.0,1.88511,0.0,2.0,2.0,2.0,1.0,icicle_04s.jpg,doily_13s.jpg,,,,,,,
,,,,,,,,,1.0,,,16,1.0,1.0,1.18773,0.0,3.0,3.0,3.0,1.0,rolling_pin_02s.jpg,margarita_03s.jpg,,,,,,,
,,,,,,,,,1.0,,,16,1.0,1.0,1.24668,0.0,4.0,4.0,4.0,1.0,cucumber_07s.jpg,tupperware_09s.jpg,,,,,,,
,,,,,,,,,0.0,,,16,0.0,1.0,1.55952,0.0,5.0,5.0,5.0,1.0,coral_08s.jpg,frog_09s.jpg,,,,,,,
,,,,,,,,,,,,16,,,,,,,,,,,0.0,5.0,5.0,5.0,1.0,newclockpresent_6_3.xlsx,newclock_compare_task_6_3.xlsx
0.0,1.0,0.84309,0.0,0.0,0.0,0.0,1.0,polar_bear_02s.jpg,0.0,Blue.png,1.0,16,,,,,,,,,,,,,,,,,
0.0,1.0,0.677595,0.0,1.0,1.0,1.0,1.0,screwdriver02a.jpg,0.0,Purple.png,1.0,16,,,,,,,,,,,,,,,,,
1.0,1.0,0.980085,0.0,2.0,2.0,2.0,1.0,screwdriver02a.jpg,1.0,Red.png,1.0,16,,,,,,,,,,,,,,,,,
0.0,1.0,0.74085,0.0,3.0,3.0,3.0,1.0,phone_01b.jpg,0.0,Orange.png,1.0,16,,,,,,,,,,,,,,,,,
0.0,1.0,0.82775,0.0,4.0,4.0,4.0,1.0,eyedropper_12s.jpg,0.0,Yellow.png,1.0,16,,,,,,,,,,,,,,,,,
0.0,1.0,0.647425,0.0,5.0,5.0,5.0,1.0,mailbox_11s.jpg,0.0,Green.png,1.0,16,,,,,,,,,,,,,,,,,
0.0,1.0,1.13062,0.0,6.0,6.0,6.0,1.0,mascara_03s.jpg,0.0,Blue.png,2.0,16,,,,,,,,,,,,,,,,,
,0.0,,0.0,7.0,7.0,7.0,1.0,mailbox_11s.jpg,0.0,Purple.png,2.0,16,,,,,,,,,,,,,,,,,
0.0,1.0,0.689335,0.0,8.0,8.0,8.0,1.0,eiffeltower.jpg,0.0,Red.png,2.0,16,,,,,,,,,,,,,,,,,
1.0,0.0,0.765695,0.0,9.0,9.0,9.0,1.0,bagel_15s.jpg,0.0,Orange.png,2.0,16,,,,,,,,,,,,,,,,,
0.0,1.0,0.561765,0.0,10.0,10.0,10.0,1.0,thumbtack_14s.jpg,0.0,Yellow.png,2.0,16,,,,,,,,,,,,,,,,,
0.0,1.0,0.62215,0.0,11.0,11.0,11.0,1.0,checkbook_11s.jpg,0.0,Green.png,2.0,16,,,,,,,,,,,,,,,,,
0.0,1.0,0.58587,0.0,12.0,12.0,12.0,1.0,phone_01b.jpg,0.0,Blue.png,3.0,16,,,,,,,,,,,,,,,,,
0.0,1.0,0.621205,0.0,13.0,13.0,13.0,1.0,crossbow_10s.jpg,0.0,Purple.png,3.0,16,,,,,,,,,,,,,,,,,
0.0,1.0,0.63502,0.0,14.0,14.0,14.0,1.0,fire_pit_10s.jpg,0.0,Red.png,3.0,16,,,,,,,,,,,,,,,,,
1.0,1.0,0.84617,0.0,15.0,15.0,15.0,1.0,phone_01b.jpg,1.0,Orange.png,3.0,16,,,,,,,,,,,,,,,,,
0.0,1.0,0.602045,0.0,16.0,16.0,16.0,1.0,basket_05s.jpg,0.0,Yellow.png,3.0,16,,,,,,,,,,,,,,,,,
0.0,1.0,0.67103,0.0,17.0,17.0,17.0,1.0,tablet_04s.jpg,0.0,Green.png,3.0,16,,,,,,,,,,,,,,,,,
0.0,1.0,0.963155,0.0,18.0,18.0,18.0,1.0,eyedropper_12s.jpg,0.0,Blue.png,4.0,16,,,,,,,,,,,,,,,,,
0.0,1.0,0.630475,0.0,19.0,19.0,19.0,1.0,milk_02s.jpg,0.0,Purple.png,4.0,16,,,,,,,,,,,,,,,,,
0.0,1.0,0.57033,0.0,20.0,20.0,20.0,1.0,pomegranate_04s.jpg,0.0,Red.png,4.0,16,,,,,,,,,,,,,,,,,
0.0,1.0,0.62376,0.0,21.0,21.0,21.0,1.0,mug_06s.jpg,0.0,Orange.png,4.0,16,,,,,,,,,,,,,,,,,
1.0,1.0,1.046225,0.0,22.0,22.0,22.0,1.0,eyedropper_12s.jpg,1.0,Yellow.png,4.0,16,,,,,,,,,,,,,,,,,
0.0,1.0,0.56559,0.0,23.0,23.0,23.0,1.0,laundry_basket_11s.jpg,0.0,Green.png,4.0,16,,,,,,,,,,,,,,,,,
0.0,1.0,1.332475,0.0,24.0,24.0,24.0,1.0,eyedropper_12s.jpg,0.0,Blue.png,5.0,16,,,,,,,,,,,,,,,,,
0.0,1.0,1.11829,0.0,25.0,25.0,25.0,1.0,laundry_basket_11s.jpg,0.0,Purple.png,5.0,16,,,,,,,,,,,,,,,,,
0.0,1.0,0.69091,0.0,26.0,26.0,26.0,1.0,magnet_03s.jpg,0.0,Red.png,5.0,16,,,,,,,,,,,,,,,,,
1.0,1.0,1.097445,0.0,27.0,27.0,27.0,1.0,laundry_basket_11s.jpg,1.0,Orange.png,5.0,16,,,,,,,,,,,,,,,,,
1.0,1.0,0.7379,0.0,28.0,28.0,28.0,1.0,laundry_basket_11s.jpg,1.0,Yellow.png,5.0,16,,,,,,,,,,,,,,,,,
0.0,1.0,1.39972,0.0,29.0,29.0,29.0,1.0,tambourine_06s.jpg,0.0,Green.png,5.0,16,,,,,,,,,,,,,,,,,
0.0,1.0,0.562805,0.0,30.0,30.0,30.0,1.0,lab_coat_11s.jpg,0.0,Blue.png,6.0,16,,,,,,,,,,,,,,,,,
1.0,1.0,0.839535,0.0,31.0,31.0,31.0,1.0,lab_coat_11s.jpg,1.0,Purple.png,6.0,16,,,,,,,,,,,,,,,,,
1.0,1.0,0.763575,0.0,32.0,32.0,32.0,1.0,lab_coat_11s.jpg,1.0,Red.png,6.0,16,,,,,,,,,,,,,,,,,
1.0,1.0,0.630505,0.0,33.0,33.0,33.0,1.0,lab_coat_11s.jpg,1.0,Orange.png,6.0,16,,,,,,,,,,,,,,,,,
0.0,1.0,0.692435,0.0,34.0,34.0,34.0,1.0,cap_05s.jpg,0.0,Yellow.png,6.0,16,,,,,,,,,,,,,,,,,
0.0,1.0,0.776395,0.0,35.0,35.0,35.0,1.0,puck_06s.jpg,0.0,Green.png,6.0,16,,,,,,,,,,,,,,,,,
,,,,,,,,,1.0,,,16,0.0,0.0,2.1353,0.0,0.0,0.0,0.0,1.0,mascara_03s.jpg,bagel_15s.jpg,,,,,,,
,,,,,,,,,0.0,,,16,1.0,0.0,1.455335,0.0,1.0,1.0,1.0,1.0,checkbook_11s.jpg,eiffeltower.jpg,,,,,,,
,,,,,,,,,1.0,,,16,0.0,0.0,1.38975,0.0,2.0,2.0,2.0,1.0,thumbtack_14s.jpg,crossbow_10s.jpg,,,,,,,
,,,,,,,,,0.0,,,16,0.0,1.0,1.28355,0.0,3.0,3.0,3.0,1.0,milk_02s.jpg,basket_05s.jpg,,,,,,,
,,,,,,,,,1.0,,,16,0.0,0.0,1.14384,0.0,4.0,4.0,4.0,1.0,tablet_04s.jpg,pomegranate_04s.jpg,,,,,,,
,,,,,,,,,0.0,,,16,0.0,1.0,1.82826,0.0,5.0,5.0,5.0,1.0,tambourine_06s.jpg,magnet_03s.jpg,,,,,,,
,,,,,,,,,,,,16,,,,,,,,,,,0.0,6.0,6.0,6.0,1.0,newclockpresent_7_3.xlsx,newclock_compare_task_7_3.xlsx
0.0,1.0,0.832825,0.0,0.0,0.0,0.0,1.0,projector_08s.jpg,0.0,Blue.png,1.0,16,,,,,,,,,,,,,,,,,
1.0,1.0,1.040315,0.0,1.0,1.0,1.0,1.0,projector_08s.jpg,1.0,Purple.png,1.0,16,,,,,,,,,,,,,,,,,
1.0,1.0,1.1573,0.0,2.0,2.0,2.0,1.0,projector_08s.jpg,1.0,Red.png,1.0,16,,,,,,,,,,,,,,,,,
0.0,1.0,0.713005,0.0,3.0,3.0,3.0,1.0,pumpkin_03s.jpg,0.0,Orange.png,1.0,16,,,,,,,,,,,,,,,,,
0.0,1.0,0.630065,0.0,4.0,4.0,4.0,1.0,orangutan_03s.jpg,0.0,Yellow.png,1.0,16,,,,,,,,,,,,,,,,,
1.0,1.0,0.850035,0.0,5.0,5.0,5.0,1.0,projector_08s.jpg,1.0,Green.png,1.0,16,,,,,,,,,,,,,,,,,
0.0,1.0,0.724265,0.0,6.0,6.0,6.0,1.0,rollerskate_03s.jpg,0.0,Blue.png,2.0,16,,,,,,,,,,,,,,,,,
0.0,1.0,0.89772,0.0,7.0,7.0,7.0,1.0,projector_08s.jpg,0.0,Purple.png,2.0,16,,,,,,,,,,,,,,,,,
0.0,1.0,0.5734,0.0,8.0,8.0,8.0,1.0,racehorse_03s.jpg,0.0,Red.png,2.0,16,,,,,,,,,,,,,,,,,
1.0,1.0,0.55393,0.0,9.0,9.0,9.0,1.0,projector_08s.jpg,1.0,Orange.png,2.0,16,,,,,,,,,,,,,,,,,
0.0,1.0,0.6846,0.0,10.0,10.0,10.0,1.0,toy_04s.jpg,0.0,Yellow.png,2.0,16,,,,,,,,,,,,,,,,,
1.0,1.0,0.80111,0.0,11.0,11.0,11.0,1.0,projector_08s.jpg,1.0,Green.png,2.0,16,,,,,,,,,,,,,,,,,
0.0,1.0,0.845455,0.0,12.0,12.0,12.0,1.0,toy_04s.jpg,0.0,Blue.png,3.0,16,,,,,,,,,,,,,,,,,
1.0,1.0,1.034485,0.0,13.0,13.0,13.0,1.0,toy_04s.jpg,1.0,Purple.png,3.0,16,,,,,,,,,,,,,,,,,
0.0,1.0,0.717635,0.0,14.0,14.0,14.0,1.0,loveseat_08s.jpg,0.0,Red.png,3.0,16,,,,,,,,,,,,,,,,,
1.0,1.0,0.817935,0.0,15.0,15.0,15.0,1.0,toy_04s.jpg,1.0,Orange.png,3.0,16,,,,,,,,,,,,,,,,,
1.0,1.0,0.6616,0.0,16.0,16.0,16.0,1.0,toy_04s.jpg,1.0,Yellow.png,3.0,16,,,,,,,,,,,,,,,,,
0.0,1.0,1.22867,0.0,17.0,17.0,17.0,1.0,muffin_12n.jpg,0.0,Green.png,3.0,16,,,,,,,,,,,,,,,,,
0.0,1.0,0.48,0.0,18.0,18.0,18.0,1.0,oil_02s.jpg,0.0,Blue.png,4.0,16,,,,,,,,,,,,,,,,,
0.0,1.0,0.78502,0.0,19.0,19.0,19.0,1.0,ring_03s.jpg,0.0,Purple.png,4.0,16,,,,,,,,,,,,,,,,,
1.0,1.0,0.69486,0.0,20.0,20.0,20.0,1.0,ring_03s.jpg,1.0,Red.png,4.0,16,,,,,,,,,,,,,,,,,
0.0,1.0,0.63332,0.0,21.0,21.0,21.0,1.0,harpoon.jpg,0.0,Orange.png,4.0,16,,,,,,,,,,,,,,,,,
0.0,1.0,0.61333,0.0,22.0,22.0,22.0,1.0,swimming_pool_17s.jpg,0.0,Yellow.png,4.0,16,,,,,,,,,,,,,,,,,
0.0,1.0,0.754435,0.0,23.0,23.0,23.0,1.0,ironing_board_07s.jpg,0.0,Green.png,4.0,16,,,,,,,,,,,,,,,,,
0.0,1.0,1.10142,0.0,24.0,24.0,24.0,1.0,projector_08s.jpg,0.0,Blue.png,5.0,16,,,,,,,,,,,,,,,,,
0.0,1.0,0.666195,0.0,25.0,25.0,25.0,1.0,rabbit_03s.jpg,0.0,Purple.png,5.0,16,,,,,,,,,,,,,,,,,
0.0,1.0,0.605065,0.0,26.0,26.0,26.0,1.0,spacesuit_02s.jpg,0.0,Red.png,5.0,16,,,,,,,,,,,,,,,,,
0.0,1.0,0.83014,0.0,27.0,27.0,27.0,1.0,toy_04s.jpg,0.0,Orange.png,5.0,16,,,,,,,,,,,,,,,,,
0.0,1.0,0.70261,0.0,28.0,28.0,28.0,1.0,mannequin_05s.jpg,0.0,Yellow.png,5.0,16,,,,,,,,,,,,,,,,,
1.0,1.0,0.818875,0.0,29.0,29.0,29.0,1.0,toy_04s.jpg,1.0,Green.png,5.0,16,,,,,,,,,,,,,,,,,
0.0,1.0,0.65505,0.0,30.0,30.0,30.0,1.0,dashboard_02s.jpg,0.0,Blue.png,6.0,16,,,,,,,,,,,,,,,,,
0.0,1.0,0.712965,0.0,31.0,31.0,31.0,1.0,exhaust_pipe_10s.jpg,0.0,Purple.png,6.0,16,,,,,,,,,,,,,,,,,
0.0,1.0,0.66953,0.0,32.0,32.0,32.0,1.0,telephone_pole_05s.jpg,0.0,Red.png,6.0,16,,,,,,,,,,,,,,,,,
0.0,1.0,0.646075,0.0,33.0,33.0,33.0,1.0,orangutan_03s.jpg,0.0,Orange.png,6.0,16,,,,,,,,,,,,,,,,,
0.0,1.0,0.65471,0.0,34.0,34.0,34.0,1.0,tuxedo_01b.jpg,0.0,Yellow.png,6.0,16,,,,,,,,,,,,,,,,,
0.0,1.0,0.86552,0.0,35.0,35.0,35.0,1.0,crate_05s.jpg,0.0,Green.png,6.0,16,,,,,,,,,,,,,,,,,
,,,,,,,,,1.0,,,16,0.0,0.0,1.63994,0.0,0.0,0.0,0.0,1.0,oil_02s.jpg,harpoon.jpg,,,,,,,
,,,,,,,,,1.0,,,16,1.0,1.0,1.477385,0.0,1.0,1.0,1.0,1.0,swimming_pool_17s.jpg,rabbit_03s.jpg,,,,,,,
,,,,,,,,,0.0,,,16,1.0,0.0,1.108635,0.0,2.0,2.0,2.0,1.0,rollerskate_03s.jpg,pumpkin_03s.jpg,,,,,,,
,,,,,,,,,0.0,,,16,1.0,0.0,1.77883,0.0,3.0,3.0,3.0,1.0,muffin_12n.jpg,loveseat_08s.jpg,,,,,,,
,,,,,,,,,0.0,,,16,0.0,1.0,1.46148,0.0,4.0,4.0,4.0,1.0,spacesuit_02s.jpg,ironing_board_07s.jpg,,,,,,,
,,,,,,,,,1.0,,,16,1.0,1.0,1.636995,0.0,5.0,5.0,5.0,1.0,telephone_pole_05s.jpg,crate_05s.jpg,,,,,,,
,,,,,,,,,,,,16,,,,,,,,,,,0.0,7.0,7.0,7.0,1.0,newclockpresent_8_3.xlsx,newclock_compare_task_8_3.xlsx
0.0,1.0,0.692735,0.0,0.0,0.0,0.0,1.0,plunger_08s.jpg,0.0,Blue.png,1.0,16,,,,,,,,,,,,,,,,,
0.0,1.0,0.637655,0.0,1.0,1.0,1.0,1.0,mango_09s.jpg,0.0,Purple.png,1.0,16,,,,,,,,,,,,,,,,,
0.0,1.0,0.530865,0.0,2.0,2.0,2.0,1.0,panda_02s.jpg,0.0,Red.png,1.0,16,,,,,,,,,,,,,,,,,
0.0,1.0,0.62923,0.0,3.0,3.0,3.0,1.0,spatula04.jpg,0.0,Orange.png,1.0,16,,,,,,,,,,,,,,,,,
0.0,1.0,0.67461,0.0,4.0,4.0,4.0,1.0,tuba_12s.jpg,0.0,Yellow.png,1.0,16,,,,,,,,,,,,,,,,,
0.0,1.0,0.86322,0.0,5.0,5.0,5.0,1.0,lipstick_02s.jpg,0.0,Green.png,1.0,16,,,,,,,,,,,,,,,,,
0.0,1.0,0.41138,0.0,6.0,6.0,6.0,1.0,tuba_12s.jpg,0.0,Blue.png,2.0,16,,,,,,,,,,,,,,,,,
0.0,1.0,0.68632,0.0,7.0,7.0,7.0,1.0,jelly_bean_06s.jpg,0.0,Purple.png,2.0,16,,,,,,,,,,,,,,,,,
0.0,1.0,0.61817,0.0,8.0,8.0,8.0,1.0,penlight_12s.jpg,0.0,Red.png,2.0,16,,,,,,,,,,,,,,,,,
0.0,1.0,0.574425,0.0,9.0,9.0,9.0,1.0,rooster_03s.jpg,0.0,Orange.png,2.0,16,,,,,,,,,,,,,,,,,
0.0,1.0,0.47709,0.0,10.0,10.0,10.0,1.0,raft_09s.jpg,0.0,Yellow.png,2.0,16,,,,,,,,,,,,,,,,,
0.0,1.0,0.631005,0.0,11.0,11.0,11.0,1.0,briefcase_03s.jpg,0.0,Green.png,2.0,16,,,,,,,,,,,,,,,,,
0.0,1.0,0.61317,0.0,12.0,12.0,12.0,1.0,fossil_06s.jpg,0.0,Blue.png,3.0,16,,,,,,,,,,,,,,,,,
1.0,1.0,0.590745,0.0,13.0,13.0,13.0,1.0,fossil_06s.jpg,1.0,Purple.png,3.0,16,,,,,,,,,,,,,,,,,
0.0,1.0,0.55474,0.0,14.0,14.0,14.0,1.0,emerald_02s.jpg,0.0,Red.png,3.0,16,,,,,,,,,,,,,,,,,
1.0,1.0,0.607105,0.0,15.0,15.0,15.0,1.0,fossil_06s.jpg,1.0,Orange.png,3.0,16,,,,,,,,,,,,,,,,,
0.0,1.0,0.69857,0.0,16.0,16.0,16.0,1.0,tiara_05s.jpg,0.0,Yellow.png,3.0,16,,,,,,,,,,,,,,,,,
1.0,1.0,0.607975,0.0,17.0,17.0,17.0,1.0,fossil_06s.jpg,1.0,Green.png,3.0,16,,,,,,,,,,,,,,,,,
0.0,1.0,0.435265,0.0,18.0,18.0,18.0,1.0,rooster_03s.jpg,0.0,Blue.png,4.0,16,,,,,,,,,,,,,,,,,
1.0,1.0,0.856075,0.0,19.0,19.0,19.0,1.0,rooster_03s.jpg,1.0,Purple.png,4.0,16,,,,,,,,,,,,,,,,,
0.0,1.0,0.74646,0.0,20.0,20.0,20.0,1.0,squirrel_02s.jpg,0.0,Red.png,4.0,16,,,,,,,,,,,,,,,,,
0.0,1.0,1.192025,0.0,21.0,21.0,21.0,1.0,plunger_08s.jpg,0.0,Orange.png,4.0,16,,,,,,,,,,,,,,,,,
1.0,1.0,0.883995,0.0,22.0,22.0,22.0,1.0,rooster_03s.jpg,1.0,Yellow.png,4.0,16,,,,,,,,,,,,,,,,,
0.0,1.0,0.86212,0.0,23.0,23.0,23.0,1.0,pencil_sharpener_09n.jpg,0.0,Green.png,4.0,16,,,,,,,,,,,,,,,,,
0.0,1.0,0.772305,0.0,24.0,24.0,24.0,1.0,latch_15s.jpg,0.0,Blue.png,5.0,16,,,,,,,,,,,,,,,,,
0.0,1.0,0.63994,0.0,25.0,25.0,25.0,1.0,pipe1_10s.jpg,0.0,Purple.png,5.0,16,,,,,,,,,,,,,,,,,
0.0,1.0,0.554515,0.0,26.0,26.0,26.0,1.0,padlock_07s.jpg,0.0,Red.png,5.0,16,,,,,,,,,,,,,,,,,
1.0,1.0,0.863925,0.0,27.0,27.0,27.0,1.0,padlock_07s.jpg,1.0,Orange.png,5.0,16,,,,,,,,,,,,,,,,,
0.0,1.0,0.811565,0.0,28.0,28.0,28.0,1.0,mosquito_12s.jpg,0.0,Yellow.png,5.0,16,,,,,,,,,,,,,,,,,
0.0,1.0,0.81523,0.0,29.0,29.0,29.0,1.0,chalice_10s.jpg,0.0,Green.png,5.0,16,,,,,,,,,,,,,,,,,
0.0,1.0,0.804065,0.0,30.0,30.0,30.0,1.0,turf_03s.jpg,0.0,Blue.png,6.0,16,,,,,,,,,,,,,,,,,
0.0,1.0,0.71116,0.0,31.0,31.0,31.0,1.0,smoothie_09s.jpg,0.0,Purple.png,6.0,16,,,,,,,,,,,,,,,,,
0.0,1.0,0.652085,0.0,32.0,32.0,32.0,1.0,comic_book_02s.jpg,0.0,Red.png,6.0,16,,,,,,,,,,,,,,,,,
0.0,1.0,0.615505,0.0,33.0,33.0,33.0,1.0,stopwatch_04s.jpg,0.0,Orange.png,6.0,16,,,,,,,,,,,,,,,,,
1.0,1.0,0.56411,0.0,34.0,34.0,34.0,1.0,turf_03s.jpg,1.0,Yellow.png,6.0,16,,,,,,,,,,,,,,,,,
0.0,1.0,0.607205,0.0,35.0,35.0,35.0,1.0,turnstile_08s.jpg,0.0,Green.png,6.0,16,,,,,,,,,,,,,,,,,
,,,,,,,,,1.0,,,16,1.0,1.0,1.398895,0.0,0.0,0.0,0.0,1.0,jelly_bean_06s.jpg,raft_09s.jpg,,,,,,,
,,,,,,,,,1.0,,,16,1.0,1.0,2.21632,0.0,1.0,1.0,1.0,1.0,chalice_10s.jpg,comic_book_02s.jpg,,,,,,,
,,,,,,,,,0.0,,,16,0.0,1.0,1.485675,0.0,2.0,2.0,2.0,1.0,lipstick_02s.jpg,panda_02s.jpg,,,,,,,
,,,,,,,,,1.0,,,16,0.0,0.0,1.259935,0.0,3.0,3.0,3.0,1.0,briefcase_03s.jpg,emerald_02s.jpg,,,,,,,
,,,,,,,,,1.0,,,16,0.0,0.0,1.533235,0.0,4.0,4.0,4.0,1.0,mosquito_12s.jpg,smoothie_09s.jpg,,,,,,,
,,,,,,,,,1.0,,,16,1.0,1.0,1.51761,0.0,5.0,5.0,5.0,1.0,squirrel_02s.jpg,pencil_sharpener_09n.jpg,,,,,,,
,,,,,,,,,,,,16,,,,,,,,,,,0.0,8.0,8.0,8.0,1.0,newclockpresent_9_3.xlsx,newclock_compare_task_9_3.xlsx
