key_resp.keys,key_resp.corr,present_segment.thisRepN,present_segment.thisTrialN,present_segment.thisN,present_segment.thisIndex,present_segment.ran,pictures,answer,clock,segment,participant,key_resp.rt,key_resp_2.keys,key_resp_2.corr,key_resp_2.rt,compare_segment.thisRepN,compare_segment.thisTrialN,compare_segment.thisN,compare_segment.thisIndex,compare_segment.ran,item_a,item_b,clock_conditions.thisRepN,clock_conditions.thisTrialN,clock_conditions.thisN,clock_conditions.thisIndex,clock_conditions.ran,present,compare
,0.0,0.0,0.0,0.0,0.0,1.0,mirror_12s.jpg,0.0,Blue.png,1.0,130,,,,,,,,,,,,,,,,,,
0.0,1.0,0.0,1.0,1.0,1.0,1.0,polaroid_05s.jpg,0.0,Purple.png,1.0,130,1.604945,,,,,,,,,,,,,,,,,
1.0,1.0,0.0,2.0,2.0,2.0,1.0,polaroid_05s.jpg,1.0,Red.png,1.0,130,1.59078,,,,,,,,,,,,,,,,,
0.0,1.0,0.0,3.0,3.0,3.0,1.0,slingshot_07s.jpg,0.0,Orange.png,1.0,130,2.005085,,,,,,,,,,,,,,,,,
1.0,1.0,0.0,4.0,4.0,4.0,1.0,polaroid_05s.jpg,1.0,Yellow.png,1.0,130,1.401135,,,,,,,,,,,,,,,,,
0.0,1.0,0.0,5.0,5.0,5.0,1.0,kettle_08s.jpg,0.0,Green.png,1.0,130,0.690125,,,,,,,,,,,,,,,,,
0.0,1.0,0.0,6.0,6.0,6.0,1.0,crystal_ball_12s.jpg,0.0,Blue.png,2.0,130,1.310435,,,,,,,,,,,,,,,,,
0.0,1.0,0.0,7.0,7.0,7.0,1.0,iron_13s.jpg,0.0,Purple.png,2.0,130,0.92782,,,,,,,,,,,,,,,,,
0.0,1.0,0.0,8.0,8.0,8.0,1.0,saddle_06s.jpg,0.0,Red.png,2.0,130,0.86558,,,,,,,,,,,,,,,,,
0.0,1.0,0.0,9.0,9.0,9.0,1.0,mango_09s.jpg,0.0,Orange.png,2.0,130,0.75603,,,,,,,,,,,,,,,,,
0.0,1.0,0.0,10.0,10.0,10.0,1.0,ostrich_06s.jpg,0.0,Yellow.png,2.0,130,0.84366,,,,,,,,,,,,,,,,,
1.0,1.0,0.0,11.0,11.0,11.0,1.0,iron_13s.jpg,1.0,Green.png,2.0,130,1.31486,,,,,,,,,,,,,,,,,
0.0,1.0,0.0,12.0,12.0,12.0,1.0,stethoscope_01b.jpg,0.0,Blue.png,3.0,130,0.80713,,,,,,,,,,,,,,,,,
0.0,1.0,0.0,13.0,13.0,13.0,1.0,ruby_15s.jpg,0.0,Purple.png,3.0,130,0.90078,,,,,,,,,,,,,,,,,
0.0,1.0,0.0,14.0,14.0,14.0,1.0,mango_09s.jpg,0.0,Red.png,3.0,130,0.97773,,,,,,,,,,,,,,,,,
0.0,1.0,0.0,15.0,15.0,15.0,1.0,target_11s.jpg,0.0,Orange.png,3.0,130,1.516975,,,,,,,,,,,,,,,,,
0.0,0.0,0.0,16.0,16.0,16.0,1.0,mango_09s.jpg,1.0,Yellow.png,3.0,130,1.140105,,,,,,,,,,,,,,,,,
0.0,1.0,0.0,17.0,17.0,17.0,1.0,compass_10n.jpg,0.0,Green.png,3.0,130,1.36189,,,,,,,,,,,,,,,,,
0.0,1.0,0.0,18.0,18.0,18.0,1.0,meatball_13s.jpg,0.0,Blue.png,4.0,130,0.588285,,,,,,,,,,,,,,,,,
0.0,1.0,0.0,19.0,19.0,19.0,1.0,stapler_01b.jpg,0.0,Purple.png,4.0,130,1.67572,,,,,,,,,,,,,,,,,
1.0,1.0,0.0,20.0,20.0,20.0,1.0,meatball_13s.jpg,1.0,Red.png,4.0,130,1.221725,,,,,,,,,,,,,,,,,
0.0,1.0,0.0,21.0,21.0,21.0,1.0,pump_11s.jpg,0.0,Orange.png,4.0,130,1.21839,,,,,,,,,,,,,,,,,
0.0,1.0,0.0,22.0,22.0,22.0,1.0,coral_08s.jpg,0.0,Yellow.png,4.0,130,1.33831,,,,,,,,,,,,,,,,,
1.0,1.0,0.0,23.0,23.0,23.0,1.0,meatball_13s.jpg,1.0,Green.png,4.0,130,1.210435,,,,,,,,,,,,,,,,,
0.0,1.0,0.0,24.0,24.0,24.0,1.0,peach_04s.jpg,0.0,Blue.png,5.0,130,1.07975,,,,,,,,,,,,,,,,,
1.0,0.0,0.0,25.0,25.0,25.0,1.0,meatball_13s.jpg,0.0,Purple.png,5.0,130,1.1056,,,,,,,,,,,,,,,,,
0.0,1.0,0.0,26.0,26.0,26.0,1.0,pie_08s.jpg,0.0,Red.png,5.0,130,0.9442,,,,,,,,,,,,,,,,,
0.0,1.0,0.0,27.0,27.0,27.0,1.0,rollerskate_03s.jpg,0.0,Orange.png,5.0,130,1.132425,,,,,,,,,,,,,,,,,
0.0,1.0,0.0,28.0,28.0,28.0,1.0,trampoline_13s.jpg,0.0,Yellow.png,5.0,130,1.070785,,,,,,,,,,,,,,,,,
0.0,1.0,0.0,29.0,29.0,29.0,1.0,undershirt_02s.jpg,0.0,Green.png,5.0,130,1.067865,,,,,,,,,,,,,,,,,
0.0,1.0,0.0,30.0,30.0,30.0,1.0,thread_08s.jpg,0.0,Blue.png,6.0,130,1.01722,,,,,,,,,,,,,,,,,
0.0,1.0,0.0,31.0,31.0,31.0,1.0,megaphone_03s.jpg,0.0,Purple.png,6.0,130,1.311095,,,,,,,,,,,,,,,,,
0.0,1.0,0.0,32.0,32.0,32.0,1.0,plaster_cast_13s.jpg,0.0,Red.png,6.0,130,1.150565,,,,,,,,,,,,,,,,,
0.0,1.0,0.0,33.0,33.0,33.0,1.0,diving_board_07s.jpg,0.0,Orange.png,6.0,130,1.159545,,,,,,,,,,,,,,,,,
0.0,1.0,0.0,34.0,34.0,34.0,1.0,kayak_08s.jpg,0.0,Yellow.png,6.0,130,1.11714,,,,,,,,,,,,,,,,,
0.0,0.0,0.0,35.0,35.0,35.0,1.0,diving_board_07s.jpg,1.0,Green.png,6.0,130,1.07412,,,,,,,,,,,,,,,,,
,,,,,,,,1.0,,,130,,0.0,0.0,2.18578,0.0,0.0,0.0,0.0,1.0,stapler_01b.jpg,coral_08s.jpg,,,,,,,
,,,,,,,,1.0,,,130,,0.0,0.0,1.518005,0.0,1.0,1.0,1.0,1.0,slingshot_07s.jpg,crystal_ball_12s.jpg,,,,,,,
,,,,,,,,0.0,,,130,,1.0,0.0,0.917875,0.0,2.0,2.0,2.0,1.0,saddle_06s.jpg,kettle_08s.jpg,,,,,,,
,,,,,,,,1.0,,,130,,1.0,1.0,0.851375,0.0,3.0,3.0,3.0,1.0,pie_08s.jpg,undershirt_02s.jpg,,,,,,,
,,,,,,,,1.0,,,130,,1.0,1.0,1.20903,0.0,4.0,4.0,4.0,1.0,stethoscope_01b.jpg,target_11s.jpg,,,,,,,
,,,,,,,,1.0,,,130,,1.0,1.0,1.26719,0.0,5.0,5.0,5.0,1.0,ostrich_06s.jpg,ruby_15s.jpg,,,,,,,
,,,,,,,,,,,130,,,,,,,,,,,,0.0,0.0,0.0,0.0,1.0,newclockpresent_1_4.xlsx,newclock_compare_task_1_4.xlsx
,0.0,0.0,0.0,0.0,0.0,1.0,jetski_10s.jpg,0.0,Blue.png,1.0,130,,,,,,,,,,,,,,,,,,
0.0,1.0,0.0,1.0,1.0,1.0,1.0,tripod_01b.jpg,0.0,Purple.png,1.0,130,1.667755,,,,,,,,,,,,,,,,,
0.0,1.0,0.0,2.0,2.0,2.0,1.0,lab_coat_11s.jpg,0.0,Red.png,1.0,130,0.96735,,,,,,,,,,,,,,,,,
0.0,1.0,0.0,3.0,3.0,3.0,1.0,foam_03s.jpg,0.0,Orange.png,1.0,130,1.02196,,,,,,,,,,,,,,,,,
0.0,1.0,0.0,4.0,4.0,4.0,1.0,crate_05s.jpg,0.0,Yellow.png,1.0,130,1.248335,,,,,,,,,,,,,,,,,
0.0,1.0,0.0,5.0,5.0,5.0,1.0,margarita_03s.jpg,0.0,Green.png,1.0,130,1.202705,,,,,,,,,,,,,,,,,
0.0,1.0,0.0,6.0,6.0,6.0,1.0,joystick_01b.jpg,0.0,Blue.png,2.0,130,1.382345,,,,,,,,,,,,,,,,,
0.0,1.0,0.0,7.0,7.0,7.0,1.0,giraffe_11s.jpg,0.0,Purple.png,2.0,130,0.450895,,,,,,,,,,,,,,,,,
0.0,1.0,0.0,8.0,8.0,8.0,1.0,quilt_03s.jpg,0.0,Red.png,2.0,130,1.29361,,,,,,,,,,,,,,,,,
1.0,1.0,0.0,9.0,9.0,9.0,1.0,giraffe_11s.jpg,1.0,Orange.png,2.0,130,1.154865,,,,,,,,,,,,,,,,,
0.0,1.0,0.0,10.0,10.0,10.0,1.0,pincushion_10s.jpg,0.0,Yellow.png,2.0,130,1.257215,,,,,,,,,,,,,,,,,
1.0,1.0,0.0,11.0,11.0,11.0,1.0,giraffe_11s.jpg,1.0,Green.png,2.0,130,1.360605,,,,,,,,,,,,,,,,,
0.0,1.0,0.0,12.0,12.0,12.0,1.0,pincushion_10s.jpg,0.0,Blue.png,3.0,130,1.73442,,,,,,,,,,,,,,,,,
1.0,0.0,0.0,13.0,13.0,13.0,1.0,giraffe_11s.jpg,0.0,Purple.png,3.0,130,1.29476,,,,,,,,,,,,,,,,,
0.0,1.0,0.0,14.0,14.0,14.0,1.0,rolling_pin_02s.jpg,0.0,Red.png,3.0,130,1.621395,,,,,,,,,,,,,,,,,
0.0,1.0,0.0,15.0,15.0,15.0,1.0,ticktacktoe_08s.jpg,0.0,Orange.png,3.0,130,1.129645,,,,,,,,,,,,,,,,,
1.0,1.0,0.0,16.0,16.0,16.0,1.0,giraffe_11s.jpg,1.0,Yellow.png,3.0,130,1.097875,,,,,,,,,,,,,,,,,
1.0,1.0,0.0,17.0,17.0,17.0,1.0,ticktacktoe_08s.jpg,1.0,Green.png,3.0,130,1.19823,,,,,,,,,,,,,,,,,
0.0,1.0,0.0,18.0,18.0,18.0,1.0,typewriter_11s.jpg,0.0,Blue.png,4.0,130,1.16259,,,,,,,,,,,,,,,,,
1.0,0.0,0.0,19.0,19.0,19.0,1.0,toothpaste_12s.jpg,0.0,Purple.png,4.0,130,1.335115,,,,,,,,,,,,,,,,,
0.0,1.0,0.0,20.0,20.0,20.0,1.0,hummingbird_05s.jpg,0.0,Red.png,4.0,130,1.790055,,,,,,,,,,,,,,,,,
1.0,1.0,0.0,21.0,21.0,21.0,1.0,toothpaste_12s.jpg,1.0,Orange.png,4.0,130,1.31405,,,,,,,,,,,,,,,,,
1.0,1.0,0.0,22.0,22.0,22.0,1.0,toothpaste_12s.jpg,1.0,Yellow.png,4.0,130,1.988765,,,,,,,,,,,,,,,,,
1.0,0.0,0.0,23.0,23.0,23.0,1.0,treadmill_06s.jpg,0.0,Green.png,4.0,130,1.88956,,,,,,,,,,,,,,,,,
1.0,0.0,0.0,24.0,24.0,24.0,1.0,typewriter_11s.jpg,0.0,Blue.png,5.0,130,1.46788,,,,,,,,,,,,,,,,,
1.0,0.0,0.0,25.0,25.0,25.0,1.0,penguin_16s.jpg,0.0,Purple.png,5.0,130,1.80555,,,,,,,,,,,,,,,,,
1.0,0.0,0.0,26.0,26.0,26.0,1.0,olive_05s.jpg,0.0,Red.png,5.0,130,1.275725,,,,,,,,,,,,,,,,,
1.0,1.0,0.0,27.0,27.0,27.0,1.0,penguin_16s.jpg,1.0,Orange.png,5.0,130,1.31735,,,,,,,,,,,,,,,,,
1.0,1.0,0.0,28.0,28.0,28.0,1.0,penguin_16s.jpg,1.0,Yellow.png,5.0,130,1.132755,,,,,,,,,,,,,,,,,
1.0,0.0,0.0,29.0,29.0,29.0,1.0,tab_09s.jpg,0.0,Green.png,5.0,130,1.514995,,,,,,,,,,,,,,,,,
1.0,0.0,0.0,30.0,30.0,30.0,1.0,frame_06s.jpg,0.0,Blue.png,6.0,130,1.45146,,,,,,,,,,,,,,,,,
1.0,0.0,0.0,31.0,31.0,31.0,1.0,mop_08s.jpg,0.0,Purple.png,6.0,130,1.557995,,,,,,,,,,,,,,,,,
0.0,1.0,0.0,32.0,32.0,32.0,1.0,memory_stick_11s.jpg,0.0,Red.png,6.0,130,1.138605,,,,,,,,,,,,,,,,,
1.0,0.0,0.0,33.0,33.0,33.0,1.0,olive_05s.jpg,0.0,Orange.png,6.0,130,1.095575,,,,,,,,,,,,,,,,,
0.0,1.0,0.0,34.0,34.0,34.0,1.0,ravioli_08s.jpg,0.0,Yellow.png,6.0,130,1.100575,,,,,,,,,,,,,,,,,
0.0,1.0,0.0,35.0,35.0,35.0,1.0,mousetrap_15n.jpg,0.0,Green.png,6.0,130,0.737545,,,,,,,,,,,,,,,,,
,,,,,,,,1.0,,,130,,0.0,0.0,2.452335,0.0,0.0,0.0,0.0,1.0,hummingbird_05s.jpg,treadmill_06s.jpg,,,,,,,
,,,,,,,,1.0,,,130,,1.0,1.0,2.206965,0.0,1.0,1.0,1.0,1.0,margarita_03s.jpg,quilt_03s.jpg,,,,,,,
,,,,,,,,0.0,,,130,,1.0,0.0,1.78229,0.0,2.0,2.0,2.0,1.0,joystick_01b.jpg,foam_03s.jpg,,,,,,,
,,,,,,,,0.0,,,130,,1.0,0.0,1.53258,0.0,3.0,3.0,3.0,1.0,ravioli_08s.jpg,mop_08s.jpg,,,,,,,
,,,,,,,,1.0,,,130,,1.0,1.0,1.084325,0.0,4.0,4.0,4.0,1.0,tab_09s.jpg,memory_stick_11s.jpg,,,,,,,
,,,,,,,,1.0,,,130,,1.0,1.0,1.41573,0.0,5.0,5.0,5.0,1.0,tripod_01b.jpg,crate_05s.jpg,,,,,,,
,,,,,,,,,,,130,,,,,,,,,,,,0.0,1.0,1.0,1.0,1.0,newclockpresent_2_4.xlsx,newclock_compare_task_2_4.xlsx
,0.0,0.0,0.0,0.0,0.0,1.0,safety_pin_02s.jpg,0.0,Blue.png,1.0,130,,,,,,,,,,,,,,,,,,
1.0,1.0,0.0,1.0,1.0,1.0,1.0,safety_pin_02s.jpg,1.0,Purple.png,1.0,130,1.417815,,,,,,,,,,,,,,,,,
0.0,1.0,0.0,2.0,2.0,2.0,1.0,cardinal_07s.jpg,0.0,Red.png,1.0,130,1.15168,,,,,,,,,,,,,,,,,
1.0,1.0,0.0,3.0,3.0,3.0,1.0,safety_pin_02s.jpg,1.0,Orange.png,1.0,130,1.13135,,,,,,,,,,,,,,,,,
0.0,1.0,0.0,4.0,4.0,4.0,1.0,potholder_02s.jpg,0.0,Yellow.png,1.0,130,0.86671,,,,,,,,,,,,,,,,,
1.0,1.0,0.0,5.0,5.0,5.0,1.0,safety_pin_02s.jpg,1.0,Green.png,1.0,130,0.703805,,,,,,,,,,,,,,,,,
1.0,0.0,0.0,6.0,6.0,6.0,1.0,cardinal_07s.jpg,0.0,Blue.png,2.0,130,1.029435,,,,,,,,,,,,,,,,,
0.0,1.0,0.0,7.0,7.0,7.0,1.0,lion_18s.jpg,0.0,Purple.png,2.0,130,1.19949,,,,,,,,,,,,,,,,,
0.0,1.0,0.0,8.0,8.0,8.0,1.0,comic_book_02s.jpg,0.0,Red.png,2.0,130,1.283835,,,,,,,,,,,,,,,,,
0.0,1.0,0.0,9.0,9.0,9.0,1.0,lizard_10n.jpg,0.0,Orange.png,2.0,130,1.577175,,,,,,,,,,,,,,,,,
0.0,1.0,0.0,10.0,10.0,10.0,1.0,rice_12s.jpg,0.0,Yellow.png,2.0,130,2.107015,,,,,,,,,,,,,,,,,
0.0,1.0,0.0,11.0,11.0,11.0,1.0,bagel_15s.jpg,0.0,Green.png,2.0,130,2.142465,,,,,,,,,,,,,,,,,
,0.0,0.0,12.0,12.0,12.0,1.0,recliner_02s.jpg,0.0,Blue.png,3.0,130,,,,,,,,,,,,,,,,,,
,0.0,0.0,13.0,13.0,13.0,1.0,recliner_02s.jpg,1.0,Purple.png,3.0,130,,,,,,,,,,,,,,,,,,
0.0,1.0,0.0,14.0,14.0,14.0,1.0,luggage_08s.jpg,0.0,Red.png,3.0,130,1.074405,,,,,,,,,,,,,,,,,
1.0,1.0,0.0,15.0,15.0,15.0,1.0,recliner_02s.jpg,1.0,Orange.png,3.0,130,1.088605,,,,,,,,,,,,,,,,,
0.0,1.0,0.0,16.0,16.0,16.0,1.0,onion_10s.jpg,0.0,Yellow.png,3.0,130,1.494925,,,,,,,,,,,,,,,,,
0.0,1.0,0.0,17.0,17.0,17.0,1.0,rosary_03s.jpg,0.0,Green.png,3.0,130,1.93653,,,,,,,,,,,,,,,,,
0.0,1.0,0.0,18.0,18.0,18.0,1.0,smokingpipe.jpg,0.0,Blue.png,4.0,130,1.901765,,,,,,,,,,,,,,,,,
0.0,1.0,0.0,19.0,19.0,19.0,1.0,roulette_wheel_04s.jpg,0.0,Purple.png,4.0,130,2.0447,,,,,,,,,,,,,,,,,
0.0,0.0,0.0,20.0,20.0,20.0,1.0,smokingpipe.jpg,1.0,Red.png,4.0,130,1.46788,,,,,,,,,,,,,,,,,
0.0,1.0,0.0,21.0,21.0,21.0,1.0,orchid_01b.jpg,0.0,Orange.png,4.0,130,1.30372,,,,,,,,,,,,,,,,,
0.0,1.0,0.0,22.0,22.0,22.0,1.0,buoy_04s.jpg,0.0,Yellow.png,4.0,130,2.20117,,,,,,,,,,,,,,,,,
0.0,1.0,0.0,23.0,23.0,23.0,1.0,stopwatch_04s.jpg,0.0,Green.png,4.0,130,2.44362,,,,,,,,,,,,,,,,,
0.0,1.0,0.0,24.0,24.0,24.0,1.0,knitting_needle_04s.jpg,0.0,Blue.png,5.0,130,2.40052,,,,,,,,,,,,,,,,,
0.0,1.0,0.0,25.0,25.0,25.0,1.0,prism_10s.jpg,0.0,Purple.png,5.0,130,2.246255,,,,,,,,,,,,,,,,,
0.0,1.0,0.0,26.0,26.0,26.0,1.0,teapot_03s.jpg,0.0,Red.png,5.0,130,2.44052,,,,,,,,,,,,,,,,,
0.0,1.0,0.0,27.0,27.0,27.0,1.0,fire_pit_10s.jpg,0.0,Orange.png,5.0,130,1.56786,,,,,,,,,,,,,,,,,
1.0,1.0,0.0,28.0,28.0,28.0,1.0,fire_pit_10s.jpg,1.0,Yellow.png,5.0,130,1.521845,,,,,,,,,,,,,,,,,
1.0,1.0,0.0,29.0,29.0,29.0,1.0,fire_pit_10s.jpg,1.0,Green.png,5.0,130,1.120415,,,,,,,,,,,,,,,,,
0.0,1.0,0.0,30.0,30.0,30.0,1.0,ironing_board_07s.jpg,0.0,Blue.png,6.0,130,1.96454,,,,,,,,,,,,,,,,,
1.0,0.0,0.0,31.0,31.0,31.0,1.0,fire_pit_10s.jpg,0.0,Purple.png,6.0,130,1.350915,,,,,,,,,,,,,,,,,
0.0,1.0,0.0,32.0,32.0,32.0,1.0,mattress_01s.jpg,0.0,Red.png,6.0,130,2.16937,,,,,,,,,,,,,,,,,
1.0,1.0,0.0,33.0,33.0,33.0,1.0,fire_pit_10s.jpg,1.0,Orange.png,6.0,130,1.17912,,,,,,,,,,,,,,,,,
1.0,1.0,0.0,34.0,34.0,34.0,1.0,mattress_01s.jpg,1.0,Yellow.png,6.0,130,1.348245,,,,,,,,,,,,,,,,,
0.0,1.0,0.0,35.0,35.0,35.0,1.0,ice-cream_cone_06s.jpg,0.0,Green.png,6.0,130,1.500845,,,,,,,,,,,,,,,,,
,,,,,,,,1.0,,,130,,1.0,1.0,1.593545,0.0,0.0,0.0,0.0,1.0,roulette_wheel_04s.jpg,buoy_04s.jpg,,,,,,,
,,,,,,,,0.0,,,130,,1.0,0.0,1.52558,0.0,1.0,1.0,1.0,1.0,lion_18s.jpg,potholder_02s.jpg,,,,,,,
,,,,,,,,0.0,,,130,,0.0,1.0,1.401355,0.0,2.0,2.0,2.0,1.0,bagel_15s.jpg,comic_book_02s.jpg,,,,,,,
,,,,,,,,1.0,,,130,,1.0,1.0,1.40177,0.0,3.0,3.0,3.0,1.0,stopwatch_04s.jpg,teapot_03s.jpg,,,,,,,
,,,,,,,,1.0,,,130,,1.0,1.0,1.53384,0.0,4.0,4.0,4.0,1.0,luggage_08s.jpg,rosary_03s.jpg,,,,,,,
,,,,,,,,1.0,,,130,,0.0,0.0,1.791085,0.0,5.0,5.0,5.0,1.0,orchid_01b.jpg,knitting_needle_04s.jpg,,,,,,,
,,,,,,,,,,,130,,,,,,,,,,,,0.0,2.0,2.0,2.0,1.0,newclockpresent_3_4.xlsx,newclock_compare_task_3_4.xlsx
0.0,1.0,0.0,0.0,0.0,0.0,1.0,smoothie_09s.jpg,0.0,Blue.png,1.0,130,2.44865,,,,,,,,,,,,,,,,,
0.0,1.0,0.0,1.0,1.0,1.0,1.0,raspberry_12s.jpg,0.0,Purple.png,1.0,130,1.91859,,,,,,,,,,,,,,,,,
1.0,1.0,0.0,2.0,2.0,2.0,1.0,raspberry_12s.jpg,1.0,Red.png,1.0,130,1.24889,,,,,,,,,,,,,,,,,
0.0,1.0,0.0,3.0,3.0,3.0,1.0,lamb_chop_07s.jpg,0.0,Orange.png,1.0,130,1.47127,,,,,,,,,,,,,,,,,
1.0,1.0,0.0,4.0,4.0,4.0,1.0,smoothie_09s.jpg,1.0,Yellow.png,1.0,130,1.2155,,,,,,,,,,,,,,,,,
1.0,1.0,0.0,5.0,5.0,5.0,1.0,raspberry_12s.jpg,1.0,Green.png,1.0,130,1.067575,,,,,,,,,,,,,,,,,
0.0,1.0,0.0,6.0,6.0,6.0,1.0,lava_02s.jpg,0.0,Blue.png,2.0,130,1.09104,,,,,,,,,,,,,,,,,
0.0,1.0,0.0,7.0,7.0,7.0,1.0,trident_07s.jpg,0.0,Purple.png,2.0,130,1.27543,,,,,,,,,,,,,,,,,
1.0,1.0,0.0,8.0,8.0,8.0,1.0,trident_07s.jpg,1.0,Red.png,2.0,130,1.10062,,,,,,,,,,,,,,,,,
1.0,1.0,0.0,9.0,9.0,9.0,1.0,trident_07s.jpg,1.0,Orange.png,2.0,130,1.16463,,,,,,,,,,,,,,,,,
0.0,1.0,0.0,10.0,10.0,10.0,1.0,orangutan_03s.jpg,0.0,Yellow.png,2.0,130,1.067595,,,,,,,,,,,,,,,,,
1.0,1.0,0.0,11.0,11.0,11.0,1.0,trident_07s.jpg,1.0,Green.png,2.0,130,1.020205,,,,,,,,,,,,,,,,,
1.0,0.0,0.0,12.0,12.0,12.0,1.0,raspberry_12s.jpg,0.0,Blue.png,3.0,130,1.05171,,,,,,,,,,,,,,,,,
1.0,0.0,0.0,13.0,13.0,13.0,1.0,trident_07s.jpg,0.0,Purple.png,3.0,130,1.06209,,,,,,,,,,,,,,,,,
0.0,1.0,0.0,14.0,14.0,14.0,1.0,lavender_10s.jpg,0.0,Red.png,3.0,130,2.160395,,,,,,,,,,,,,,,,,
0.0,1.0,0.0,15.0,15.0,15.0,1.0,chip_04s.jpg,0.0,Orange.png,3.0,130,1.60414,,,,,,,,,,,,,,,,,
0.0,1.0,0.0,16.0,16.0,16.0,1.0,lamb_04s.jpg,0.0,Yellow.png,3.0,130,1.52872,,,,,,,,,,,,,,,,,
0.0,1.0,0.0,17.0,17.0,17.0,1.0,emerald_02s.jpg,0.0,Green.png,3.0,130,1.05922,,,,,,,,,,,,,,,,,
0.0,1.0,0.0,18.0,18.0,18.0,1.0,pineapple_12s.jpg,0.0,Blue.png,4.0,130,0.786025,,,,,,,,,,,,,,,,,
0.0,1.0,0.0,19.0,19.0,19.0,1.0,sundae_08s.jpg,0.0,Purple.png,4.0,130,1.16742,,,,,,,,,,,,,,,,,
1.0,1.0,0.0,20.0,20.0,20.0,1.0,sundae_08s.jpg,1.0,Red.png,4.0,130,0.894785,,,,,,,,,,,,,,,,,
0.0,1.0,0.0,21.0,21.0,21.0,1.0,squirrel_02s.jpg,0.0,Orange.png,4.0,130,1.03222,,,,,,,,,,,,,,,,,
0.0,1.0,0.0,22.0,22.0,22.0,1.0,roller_coaster_07s.jpg,0.0,Yellow.png,4.0,130,1.067155,,,,,,,,,,,,,,,,,
1.0,1.0,0.0,23.0,23.0,23.0,1.0,sundae_08s.jpg,1.0,Green.png,4.0,130,1.033515,,,,,,,,,,,,,,,,,
0.0,1.0,0.0,24.0,24.0,24.0,1.0,tweezers_03s.jpg,0.0,Blue.png,5.0,130,1.034275,,,,,,,,,,,,,,,,,
1.0,0.0,0.0,25.0,25.0,25.0,1.0,sundae_08s.jpg,0.0,Purple.png,5.0,130,0.9543,,,,,,,,,,,,,,,,,
0.0,1.0,0.0,26.0,26.0,26.0,1.0,rudder_02s.jpg,0.0,Red.png,5.0,130,0.56094,,,,,,,,,,,,,,,,,
0.0,1.0,0.0,27.0,27.0,27.0,1.0,rake_06s.jpg,0.0,Orange.png,5.0,130,0.584495,,,,,,,,,,,,,,,,,
1.0,1.0,0.0,28.0,28.0,28.0,1.0,rake_06s.jpg,1.0,Yellow.png,5.0,130,1.173155,,,,,,,,,,,,,,,,,
1.0,1.0,0.0,29.0,29.0,29.0,1.0,rake_06s.jpg,1.0,Green.png,5.0,130,1.06935,,,,,,,,,,,,,,,,,
0.0,1.0,0.0,30.0,30.0,30.0,1.0,cap_05s.jpg,0.0,Blue.png,6.0,130,1.01685,,,,,,,,,,,,,,,,,
0.0,1.0,0.0,31.0,31.0,31.0,1.0,paper_towel_03s.jpg,0.0,Purple.png,6.0,130,1.358945,,,,,,,,,,,,,,,,,
0.0,1.0,0.0,32.0,32.0,32.0,1.0,toaster_03s.jpg,0.0,Red.png,6.0,130,1.160795,,,,,,,,,,,,,,,,,
0.0,1.0,0.0,33.0,33.0,33.0,1.0,money_07s.jpg,0.0,Orange.png,6.0,130,1.183225,,,,,,,,,,,,,,,,,
0.0,1.0,0.0,34.0,34.0,34.0,1.0,pinwheel_06s.jpg,0.0,Yellow.png,6.0,130,0.919795,,,,,,,,,,,,,,,,,
0.0,1.0,0.0,35.0,35.0,35.0,1.0,lid_10s.jpg,0.0,Green.png,6.0,130,0.99505,,,,,,,,,,,,,,,,,
,,,,,,,,0.0,,,130,,1.0,0.0,1.726375,0.0,0.0,0.0,0.0,1.0,tweezers_03s.jpg,squirrel_02s.jpg,,,,,,,
,,,,,,,,1.0,,,130,,1.0,1.0,1.92829,0.0,1.0,1.0,1.0,1.0,chip_04s.jpg,pineapple_12s.jpg,,,,,,,
,,,,,,,,1.0,,,130,,1.0,1.0,1.479505,0.0,2.0,2.0,2.0,1.0,lamb_chop_07s.jpg,lava_02s.jpg,,,,,,,
,,,,,,,,0.0,,,130,,0.0,1.0,1.416315,0.0,3.0,3.0,3.0,1.0,pinwheel_06s.jpg,paper_towel_03s.jpg,,,,,,,
,,,,,,,,0.0,,,130,,1.0,0.0,1.64348,0.0,4.0,4.0,4.0,1.0,emerald_02s.jpg,lavender_10s.jpg,,,,,,,
,,,,,,,,0.0,,,130,,0.0,1.0,1.451535,0.0,5.0,5.0,5.0,1.0,money_07s.jpg,cap_05s.jpg,,,,,,,
,,,,,,,,,,,130,,,,,,,,,,,,0.0,3.0,3.0,3.0,1.0,newclockpresent_4_4.xlsx,newclock_compare_task_4_4.xlsx
0.0,1.0,0.0,0.0,0.0,0.0,1.0,fur_coat_11s.jpg,0.0,Blue.png,1.0,130,1.979375,,,,,,,,,,,,,,,,,
0.0,1.0,0.0,1.0,1.0,1.0,1.0,crayon_09s.jpg,0.0,Purple.png,1.0,130,0.686325,,,,,,,,,,,,,,,,,
0.0,1.0,0.0,2.0,2.0,2.0,1.0,cobra_05s.jpg,0.0,Red.png,1.0,130,1.268325,,,,,,,,,,,,,,,,,
0.0,1.0,0.0,3.0,3.0,3.0,1.0,raccoon_02s.jpg,0.0,Orange.png,1.0,130,1.20108,,,,,,,,,,,,,,,,,
0.0,1.0,0.0,4.0,4.0,4.0,1.0,soda_fountain_03s.jpg,0.0,Yellow.png,1.0,130,1.35183,,,,,,,,,,,,,,,,,
1.0,1.0,0.0,5.0,5.0,5.0,1.0,raccoon_02s.jpg,1.0,Green.png,1.0,130,0.93437,,,,,,,,,,,,,,,,,
0.0,1.0,0.0,6.0,6.0,6.0,1.0,feather02.jpg,0.0,Blue.png,2.0,130,0.834095,,,,,,,,,,,,,,,,,
1.0,0.0,0.0,7.0,7.0,7.0,1.0,raccoon_02s.jpg,0.0,Purple.png,2.0,130,1.15939,,,,,,,,,,,,,,,,,
1.0,1.0,0.0,8.0,8.0,8.0,1.0,feather02.jpg,1.0,Red.png,2.0,130,1.077325,,,,,,,,,,,,,,,,,
0.0,1.0,0.0,9.0,9.0,9.0,1.0,rug_09s.jpg,0.0,Orange.png,2.0,130,1.33016,,,,,,,,,,,,,,,,,
1.0,1.0,0.0,10.0,10.0,10.0,1.0,feather02.jpg,1.0,Yellow.png,2.0,130,1.2506,,,,,,,,,,,,,,,,,
0.0,1.0,0.0,11.0,11.0,11.0,1.0,cushion_08s.jpg,0.0,Green.png,2.0,130,1.11177,,,,,,,,,,,,,,,,,
1.0,0.0,0.0,12.0,12.0,12.0,1.0,feather02.jpg,0.0,Blue.png,3.0,130,1.145635,,,,,,,,,,,,,,,,,
1.0,1.0,0.0,13.0,13.0,13.0,1.0,feather02.jpg,1.0,Purple.png,3.0,130,1.020145,,,,,,,,,,,,,,,,,
0.0,1.0,0.0,14.0,14.0,14.0,1.0,ice_pack_09s.jpg,0.0,Red.png,3.0,130,1.34343,,,,,,,,,,,,,,,,,
1.0,1.0,0.0,15.0,15.0,15.0,1.0,ice_pack_09s.jpg,1.0,Orange.png,3.0,130,1.25446,,,,,,,,,,,,,,,,,
0.0,1.0,0.0,16.0,16.0,16.0,1.0,loom_05s.jpg,0.0,Yellow.png,3.0,130,2.04958,,,,,,,,,,,,,,,,,
1.0,1.0,0.0,17.0,17.0,17.0,1.0,ice_pack_09s.jpg,1.0,Green.png,3.0,130,1.50224,,,,,,,,,,,,,,,,,
1.0,0.0,0.0,18.0,18.0,18.0,1.0,ice_pack_09s.jpg,0.0,Blue.png,4.0,130,1.284715,,,,,,,,,,,,,,,,,
1.0,1.0,0.0,19.0,19.0,19.0,1.0,ice_pack_09s.jpg,1.0,Purple.png,4.0,130,1.323885,,,,,,,,,,,,,,,,,
1.0,1.0,0.0,20.0,20.0,20.0,1.0,ice_pack_09s.jpg,1.0,Red.png,4.0,130,1.188755,,,,,,,,,,,,,,,,,
0.0,1.0,0.0,21.0,21.0,21.0,1.0,blazer_02s.jpg,0.0,Orange.png,4.0,130,1.852845,,,,,,,,,,,,,,,,,
1.0,0.0,0.0,22.0,22.0,22.0,1.0,penlight_12s.jpg,0.0,Yellow.png,4.0,130,1.53944,,,,,,,,,,,,,,,,,
,0.0,0.0,23.0,23.0,23.0,1.0,swan_11s.jpg,0.0,Green.png,4.0,130,,,,,,,,,,,,,,,,,,
1.0,0.0,0.0,24.0,24.0,24.0,1.0,plunger_08s.jpg,0.0,Blue.png,5.0,130,1.834325,,,,,,,,,,,,,,,,,
0.0,1.0,0.0,25.0,25.0,25.0,1.0,bottle_opener_11s.jpg,0.0,Purple.png,5.0,130,1.708765,,,,,,,,,,,,,,,,,
1.0,0.0,0.0,26.0,26.0,26.0,1.0,checkbook_11s.jpg,0.0,Red.png,5.0,130,1.899905,,,,,,,,,,,,,,,,,
0.0,1.0,0.0,27.0,27.0,27.0,1.0,ink_08s.jpg,0.0,Orange.png,5.0,130,1.595495,,,,,,,,,,,,,,,,,
0.0,0.0,0.0,28.0,28.0,28.0,1.0,plunger_08s.jpg,1.0,Yellow.png,5.0,130,0.634045,,,,,,,,,,,,,,,,,
0.0,1.0,0.0,29.0,29.0,29.0,1.0,pencil02a.jpg,0.0,Green.png,5.0,130,1.100925,,,,,,,,,,,,,,,,,
0.0,1.0,0.0,30.0,30.0,30.0,1.0,ginger_09s.jpg,0.0,Blue.png,6.0,130,1.34452,,,,,,,,,,,,,,,,,
0.0,1.0,0.0,31.0,31.0,31.0,1.0,taxi_15s.jpg,0.0,Purple.png,6.0,130,2.2539,,,,,,,,,,,,,,,,,
0.0,1.0,0.0,32.0,32.0,32.0,1.0,toy_04s.jpg,0.0,Red.png,6.0,130,1.161545,,,,,,,,,,,,,,,,,
0.0,1.0,0.0,33.0,33.0,33.0,1.0,blowfish_03s.jpg,0.0,Orange.png,6.0,130,1.149995,,,,,,,,,,,,,,,,,
0.0,1.0,0.0,34.0,34.0,34.0,1.0,toilet_paper_12s.jpg,0.0,Yellow.png,6.0,130,0.9084,,,,,,,,,,,,,,,,,
0.0,1.0,0.0,35.0,35.0,35.0,1.0,puddle_02s.jpg,0.0,Green.png,6.0,130,1.31024,,,,,,,,,,,,,,,,,
,,,,,,,,1.0,,,130,,0.0,0.0,1.879225,0.0,0.0,0.0,0.0,1.0,ink_08s.jpg,ginger_09s.jpg,,,,,,,
,,,,,,,,0.0,,,130,,1.0,0.0,1.632325,0.0,1.0,1.0,1.0,1.0,puddle_02s.jpg,toy_04s.jpg,,,,,,,
,,,,,,,,0.0,,,130,,1.0,0.0,1.350825,0.0,2.0,2.0,2.0,1.0,bottle_opener_11s.jpg,penlight_12s.jpg,,,,,,,
,,,,,,,,0.0,,,130,,1.0,0.0,1.16785,0.0,3.0,3.0,3.0,1.0,checkbook_11s.jpg,swan_11s.jpg,,,,,,,
,,,,,,,,1.0,,,130,,0.0,0.0,1.31762,0.0,4.0,4.0,4.0,1.0,taxi_15s.jpg,toilet_paper_12s.jpg,,,,,,,
,,,,,,,,1.0,,,130,,0.0,0.0,1.387635,0.0,5.0,5.0,5.0,1.0,crayon_09s.jpg,soda_fountain_03s.jpg,,,,,,,
,,,,,,,,,,,130,,,,,,,,,,,,0.0,4.0,4.0,4.0,1.0,newclockpresent_5_4.xlsx,newclock_compare_task_5_4.xlsx
0.0,1.0,0.0,0.0,0.0,0.0,1.0,flask_04s.jpg,0.0,Blue.png,1.0,130,2.346285,,,,,,,,,,,,,,,,,
0.0,1.0,0.0,1.0,1.0,1.0,1.0,kimono_13s.jpg,0.0,Purple.png,1.0,130,1.935185,,,,,,,,,,,,,,,,,
0.0,1.0,0.0,2.0,2.0,2.0,1.0,limousine_12s.jpg,0.0,Red.png,1.0,130,1.117345,,,,,,,,,,,,,,,,,
0.0,1.0,0.0,3.0,3.0,3.0,1.0,lectern_08s.jpg,0.0,Orange.png,1.0,130,1.358925,,,,,,,,,,,,,,,,,
1.0,1.0,0.0,4.0,4.0,4.0,1.0,kimono_13s.jpg,1.0,Yellow.png,1.0,130,1.17848,,,,,,,,,,,,,,,,,
0.0,1.0,0.0,5.0,5.0,5.0,1.0,doily_13s.jpg,0.0,Green.png,1.0,130,1.081935,,,,,,,,,,,,,,,,,
1.0,0.0,0.0,6.0,6.0,6.0,1.0,kimono_13s.jpg,0.0,Blue.png,2.0,130,1.170655,,,,,,,,,,,,,,,,,
0.0,1.0,0.0,7.0,7.0,7.0,1.0,razor_blade_01b.jpg,0.0,Purple.png,2.0,130,1.3416,,,,,,,,,,,,,,,,,
1.0,1.0,0.0,8.0,8.0,8.0,1.0,razor_blade_01b.jpg,1.0,Red.png,2.0,130,1.06755,,,,,,,,,,,,,,,,,
0.0,1.0,0.0,9.0,9.0,9.0,1.0,champagne_18s.jpg,0.0,Orange.png,2.0,130,1.193005,,,,,,,,,,,,,,,,,
1.0,0.0,0.0,10.0,10.0,10.0,1.0,stamp1_11s.jpg,0.0,Yellow.png,2.0,130,1.10457,,,,,,,,,,,,,,,,,
1.0,1.0,0.0,11.0,11.0,11.0,1.0,champagne_18s.jpg,1.0,Green.png,2.0,130,1.31736,,,,,,,,,,,,,,,,,
0.0,1.0,0.0,12.0,12.0,12.0,1.0,crossbow_10s.jpg,0.0,Blue.png,3.0,130,1.457815,,,,,,,,,,,,,,,,,
0.0,1.0,0.0,13.0,13.0,13.0,1.0,briefcase_03s.jpg,0.0,Purple.png,3.0,130,1.418205,,,,,,,,,,,,,,,,,
0.0,1.0,0.0,14.0,14.0,14.0,1.0,jersey_02s.jpg,0.0,Red.png,3.0,130,1.30138,,,,,,,,,,,,,,,,,
1.0,1.0,0.0,15.0,15.0,15.0,1.0,briefcase_03s.jpg,1.0,Orange.png,3.0,130,1.19752,,,,,,,,,,,,,,,,,
0.0,1.0,0.0,16.0,16.0,16.0,1.0,oil_02s.jpg,0.0,Yellow.png,3.0,130,1.108165,,,,,,,,,,,,,,,,,
0.0,1.0,0.0,17.0,17.0,17.0,1.0,tinsel_12s.jpg,0.0,Green.png,3.0,130,1.18375,,,,,,,,,,,,,,,,,
0.0,1.0,0.0,18.0,18.0,18.0,1.0,flask_04s.jpg,0.0,Blue.png,4.0,130,2.148715,,,,,,,,,,,,,,,,,
0.0,1.0,0.0,19.0,19.0,19.0,1.0,fork_04s.jpg,0.0,Purple.png,4.0,130,1.62589,,,,,,,,,,,,,,,,,
0.0,1.0,0.0,20.0,20.0,20.0,1.0,purse_05s.jpg,0.0,Red.png,4.0,130,1.42327,,,,,,,,,,,,,,,,,
1.0,1.0,0.0,21.0,21.0,21.0,1.0,flask_04s.jpg,1.0,Orange.png,4.0,130,1.57481,,,,,,,,,,,,,,,,,
0.0,1.0,0.0,22.0,22.0,22.0,1.0,sledgehammer_03s.jpg,0.0,Yellow.png,4.0,130,1.66795,,,,,,,,,,,,,,,,,
0.0,1.0,0.0,23.0,23.0,23.0,1.0,turf_03s.jpg,0.0,Green.png,4.0,130,2.267475,,,,,,,,,,,,,,,,,
0.0,1.0,0.0,24.0,24.0,24.0,1.0,omelet_07s.jpg,0.0,Blue.png,5.0,130,1.40111,,,,,,,,,,,,,,,,,
1.0,0.0,0.0,25.0,25.0,25.0,1.0,turf_03s.jpg,0.0,Purple.png,5.0,130,1.259445,,,,,,,,,,,,,,,,,
0.0,1.0,0.0,26.0,26.0,26.0,1.0,clover_04s.jpg,0.0,Red.png,5.0,130,1.47527,,,,,,,,,,,,,,,,,
0.0,1.0,0.0,27.0,27.0,27.0,1.0,lip_gloss_06s.jpg,0.0,Orange.png,5.0,130,1.15476,,,,,,,,,,,,,,,,,
0.0,1.0,0.0,28.0,28.0,28.0,1.0,amber_04s.jpg,0.0,Yellow.png,5.0,130,1.069935,,,,,,,,,,,,,,,,,
0.0,1.0,0.0,29.0,29.0,29.0,1.0,tortilla_06s.jpg,0.0,Green.png,5.0,130,1.28066,,,,,,,,,,,,,,,,,
0.0,1.0,0.0,30.0,30.0,30.0,1.0,razor_blade_01b.jpg,0.0,Blue.png,6.0,130,1.4526,,,,,,,,,,,,,,,,,
0.0,1.0,0.0,31.0,31.0,31.0,1.0,tape_measure_11s.jpg,0.0,Purple.png,6.0,130,1.36033,,,,,,,,,,,,,,,,,
1.0,1.0,0.0,32.0,32.0,32.0,1.0,razor_blade_01b.jpg,1.0,Red.png,6.0,130,1.268435,,,,,,,,,,,,,,,,,
1.0,1.0,0.0,33.0,33.0,33.0,1.0,razor_blade_01b.jpg,1.0,Orange.png,6.0,130,1.267395,,,,,,,,,,,,,,,,,
0.0,1.0,0.0,34.0,34.0,34.0,1.0,stingray_02s.jpg,0.0,Yellow.png,6.0,130,1.27854,,,,,,,,,,,,,,,,,
0.0,1.0,0.0,35.0,35.0,35.0,1.0,harpoon.jpg,0.0,Green.png,6.0,130,1.260025,,,,,,,,,,,,,,,,,
,,,,,,,,1.0,,,130,,0.0,0.0,2.27778,0.0,0.0,0.0,0.0,1.0,oil_02s.jpg,fork_04s.jpg,,,,,,,
,,,,,,,,0.0,,,130,,1.0,0.0,1.79831,0.0,1.0,1.0,1.0,1.0,doily_13s.jpg,limousine_12s.jpg,,,,,,,
,,,,,,,,0.0,,,130,,1.0,0.0,2.627695,0.0,2.0,2.0,2.0,1.0,lip_gloss_06s.jpg,omelet_07s.jpg,,,,,,,
,,,,,,,,0.0,,,130,,1.0,0.0,1.85842,0.0,3.0,3.0,3.0,1.0,tape_measure_11s.jpg,amber_04s.jpg,,,,,,,
,,,,,,,,0.0,,,130,,0.0,1.0,1.51793,0.0,4.0,4.0,4.0,1.0,tortilla_06s.jpg,clover_04s.jpg,,,,,,,
,,,,,,,,0.0,,,130,,0.0,1.0,1.668375,0.0,5.0,5.0,5.0,1.0,purse_05s.jpg,tinsel_12s.jpg,,,,,,,
,,,,,,,,,,,130,,,,,,,,,,,,0.0,5.0,5.0,5.0,1.0,newclockpresent_6_4.xlsx,newclock_compare_task_6_4.xlsx
0.0,1.0,0.0,0.0,0.0,0.0,1.0,butter_14s.jpg,0.0,Blue.png,1.0,130,1.047365,,,,,,,,,,,,,,,,,
1.0,1.0,0.0,1.0,1.0,1.0,1.0,butter_14s.jpg,1.0,Purple.png,1.0,130,0.880605,,,,,,,,,,,,,,,,,
1.0,1.0,0.0,2.0,2.0,2.0,1.0,butter_14s.jpg,1.0,Red.png,1.0,130,0.884165,,,,,,,,,,,,,,,,,
0.0,1.0,0.0,3.0,3.0,3.0,1.0,stamp2_08s.jpg,0.0,Orange.png,1.0,130,1.07181,,,,,,,,,,,,,,,,,
0.0,1.0,0.0,4.0,4.0,4.0,1.0,kangaroo_02s.jpg,0.0,Yellow.png,1.0,130,1.60569,,,,,,,,,,,,,,,,,
0.0,1.0,0.0,5.0,5.0,5.0,1.0,camcorder_10s.jpg,0.0,Green.png,1.0,130,1.327915,,,,,,,,,,,,,,,,,
0.0,1.0,0.0,6.0,6.0,6.0,1.0,bank_06s.jpg,0.0,Blue.png,2.0,130,1.04893,,,,,,,,,,,,,,,,,
0.0,1.0,0.0,7.0,7.0,7.0,1.0,gear_07s.jpg,0.0,Purple.png,2.0,130,1.305475,,,,,,,,,,,,,,,,,
1.0,1.0,0.0,8.0,8.0,8.0,1.0,bank_06s.jpg,1.0,Red.png,2.0,130,1.255435,,,,,,,,,,,,,,,,,
0.0,1.0,0.0,9.0,9.0,9.0,1.0,funnel_01b.jpg,0.0,Orange.png,2.0,130,1.18811,,,,,,,,,,,,,,,,,
0.0,1.0,0.0,10.0,10.0,10.0,1.0,poinsettia_04s.jpg,0.0,Yellow.png,2.0,130,1.367495,,,,,,,,,,,,,,,,,
1.0,1.0,0.0,11.0,11.0,11.0,1.0,funnel_01b.jpg,1.0,Green.png,2.0,130,1.07791,,,,,,,,,,,,,,,,,
0.0,1.0,0.0,12.0,12.0,12.0,1.0,rooster_03s.jpg,0.0,Blue.png,3.0,130,0.533495,,,,,,,,,,,,,,,,,
0.0,1.0,0.0,13.0,13.0,13.0,1.0,denture_03s.jpg,0.0,Purple.png,3.0,130,0.899,,,,,,,,,,,,,,,,,
0.0,1.0,0.0,14.0,14.0,14.0,1.0,bean_06s.jpg,0.0,Red.png,3.0,130,1.84662,,,,,,,,,,,,,,,,,
0.0,1.0,0.0,15.0,15.0,15.0,1.0,mud_13s.jpg,0.0,Orange.png,3.0,130,1.444275,,,,,,,,,,,,,,,,,
0.0,1.0,0.0,16.0,16.0,16.0,1.0,keyhole_03s.jpg,0.0,Yellow.png,3.0,130,1.384505,,,,,,,,,,,,,,,,,
1.0,1.0,0.0,17.0,17.0,17.0,1.0,bean_06s.jpg,1.0,Green.png,3.0,130,1.31695,,,,,,,,,,,,,,,,,
1.0,0.0,0.0,18.0,18.0,18.0,1.0,bank_06s.jpg,0.0,Blue.png,4.0,130,1.386305,,,,,,,,,,,,,,,,,
0.0,1.0,0.0,19.0,19.0,19.0,1.0,pomegranate_04s.jpg,0.0,Purple.png,4.0,130,1.47744,,,,,,,,,,,,,,,,,
0.0,1.0,0.0,20.0,20.0,20.0,1.0,chopsticks_08s.jpg,0.0,Red.png,4.0,130,1.2528,,,,,,,,,,,,,,,,,
0.0,1.0,0.0,21.0,21.0,21.0,1.0,contact_lens_15s.jpg,0.0,Orange.png,4.0,130,1.271555,,,,,,,,,,,,,,,,,
0.0,1.0,0.0,22.0,22.0,22.0,1.0,hydrant_10s.jpg,0.0,Yellow.png,4.0,130,1.27746,,,,,,,,,,,,,,,,,
0.0,1.0,0.0,23.0,23.0,23.0,1.0,gingerbread_man_03s.jpg,0.0,Green.png,4.0,130,1.107335,,,,,,,,,,,,,,,,,
0.0,1.0,0.0,24.0,24.0,24.0,1.0,camcorder_10s.jpg,0.0,Blue.png,5.0,130,1.0484,,,,,,,,,,,,,,,,,
0.0,1.0,0.0,25.0,25.0,25.0,1.0,teabag_12s.jpg,0.0,Purple.png,5.0,130,1.200665,,,,,,,,,,,,,,,,,
0.0,1.0,0.0,26.0,26.0,26.0,1.0,radiator_05s.jpg,0.0,Red.png,5.0,130,0.627055,,,,,,,,,,,,,,,,,
0.0,1.0,0.0,27.0,27.0,27.0,1.0,punch1_10s.jpg,0.0,Orange.png,5.0,130,0.87931,,,,,,,,,,,,,,,,,
0.0,1.0,0.0,28.0,28.0,28.0,1.0,mailbox_11s.jpg,0.0,Yellow.png,5.0,130,1.06682,,,,,,,,,,,,,,,,,
0.0,1.0,0.0,29.0,29.0,29.0,1.0,beaker_01b.jpg,0.0,Green.png,5.0,130,1.08393,,,,,,,,,,,,,,,,,
1.0,0.0,0.0,30.0,30.0,30.0,1.0,mailbox_11s.jpg,0.0,Blue.png,6.0,130,1.207995,,,,,,,,,,,,,,,,,
0.0,1.0,0.0,31.0,31.0,31.0,1.0,pipe1_10s.jpg,0.0,Purple.png,6.0,130,1.03755,,,,,,,,,,,,,,,,,
1.0,1.0,0.0,32.0,32.0,32.0,1.0,mailbox_11s.jpg,1.0,Red.png,6.0,130,0.982085,,,,,,,,,,,,,,,,,
1.0,1.0,0.0,33.0,33.0,33.0,1.0,pipe1_10s.jpg,1.0,Orange.png,6.0,130,1.20057,,,,,,,,,,,,,,,,,
0.0,1.0,0.0,34.0,34.0,34.0,1.0,eyedropper_12s.jpg,0.0,Yellow.png,6.0,130,1.36557,,,,,,,,,,,,,,,,,
0.0,1.0,0.0,35.0,35.0,35.0,1.0,rhubarb_03s.jpg,0.0,Green.png,6.0,130,1.220565,,,,,,,,,,,,,,,,,
,,,,,,,,0.0,,,130,,0.0,1.0,0.7031,0.0,0.0,0.0,0.0,1.0,mud_13s.jpg,rooster_03s.jpg,,,,,,,
,,,,,,,,1.0,,,130,,0.0,0.0,1.291025,0.0,1.0,1.0,1.0,1.0,chopsticks_08s.jpg,gingerbread_man_03s.jpg,,,,,,,
,,,,,,,,0.0,,,130,,1.0,0.0,0.977765,0.0,2.0,2.0,2.0,1.0,beaker_01b.jpg,radiator_05s.jpg,,,,,,,
,,,,,,,,0.0,,,130,,1.0,0.0,1.116815,0.0,3.0,3.0,3.0,1.0,teabag_12s.jpg,hydrant_10s.jpg,,,,,,,
,,,,,,,,0.0,,,130,,0.0,1.0,1.13487,0.0,4.0,4.0,4.0,1.0,denture_03s.jpg,poinsettia_04s.jpg,,,,,,,
,,,,,,,,1.0,,,130,,0.0,0.0,1.167875,0.0,5.0,5.0,5.0,1.0,kangaroo_02s.jpg,gear_07s.jpg,,,,,,,
,,,,,,,,,,,130,,,,,,,,,,,,0.0,6.0,6.0,6.0,1.0,newclockpresent_7_4.xlsx,newclock_compare_task_7_4.xlsx
0.0,1.0,0.0,0.0,0.0,0.0,1.0,lamppost_09s.jpg,0.0,Blue.png,1.0,130,0.764065,,,,,,,,,,,,,,,,,
0.0,1.0,0.0,1.0,1.0,1.0,1.0,jewel_01b.jpg,0.0,Purple.png,1.0,130,1.164245,,,,,,,,,,,,,,,,,
0.0,1.0,0.0,2.0,2.0,2.0,1.0,tuxedo_01b.jpg,0.0,Red.png,1.0,130,1.179545,,,,,,,,,,,,,,,,,
0.0,1.0,0.0,3.0,3.0,3.0,1.0,flip_flop_03s.jpg,0.0,Orange.png,1.0,130,0.985385,,,,,,,,,,,,,,,,,
0.0,1.0,0.0,4.0,4.0,4.0,1.0,medal_04s.jpg,0.0,Yellow.png,1.0,130,1.108125,,,,,,,,,,,,,,,,,
1.0,1.0,0.0,5.0,5.0,5.0,1.0,flip_flop_03s.jpg,1.0,Green.png,1.0,130,1.37913,,,,,,,,,,,,,,,,,
1.0,0.0,0.0,6.0,6.0,6.0,1.0,tuxedo_01b.jpg,0.0,Blue.png,2.0,130,1.21733,,,,,,,,,,,,,,,,,
1.0,0.0,0.0,7.0,7.0,7.0,1.0,flip_flop_03s.jpg,0.0,Purple.png,2.0,130,1.1295,,,,,,,,,,,,,,,,,
0.0,1.0,0.0,8.0,8.0,8.0,1.0,fireworks_18s.jpg,0.0,Red.png,2.0,130,1.015065,,,,,,,,,,,,,,,,,
0.0,1.0,0.0,9.0,9.0,9.0,1.0,squirt_gun_03s.jpg,0.0,Orange.png,2.0,130,1.009755,,,,,,,,,,,,,,,,,
1.0,1.0,0.0,10.0,10.0,10.0,1.0,flip_flop_03s.jpg,1.0,Yellow.png,2.0,130,0.98591,,,,,,,,,,,,,,,,,
0.0,1.0,0.0,11.0,11.0,11.0,1.0,puffin_19s.jpg,0.0,Green.png,2.0,130,0.88677,,,,,,,,,,,,,,,,,
1.0,0.0,0.0,12.0,12.0,12.0,1.0,tuxedo_01b.jpg,0.0,Blue.png,3.0,130,1.06754,,,,,,,,,,,,,,,,,
1.0,1.0,0.0,13.0,13.0,13.0,1.0,tuxedo_01b.jpg,1.0,Purple.png,3.0,130,0.97767,,,,,,,,,,,,,,,,,
0.0,1.0,0.0,14.0,14.0,14.0,1.0,snowman_02s.jpg,0.0,Red.png,3.0,130,1.094435,,,,,,,,,,,,,,,,,
0.0,1.0,0.0,15.0,15.0,15.0,1.0,cucumber_07s.jpg,0.0,Orange.png,3.0,130,1.1282,,,,,,,,,,,,,,,,,
0.0,1.0,0.0,16.0,16.0,16.0,1.0,plug_08s.jpg,0.0,Yellow.png,3.0,130,1.244735,,,,,,,,,,,,,,,,,
0.0,0.0,0.0,17.0,17.0,17.0,1.0,cucumber_07s.jpg,1.0,Green.png,3.0,130,1.333965,,,,,,,,,,,,,,,,,
0.0,1.0,0.0,18.0,18.0,18.0,1.0,puffin_19s.jpg,0.0,Blue.png,4.0,130,1.191355,,,,,,,,,,,,,,,,,
0.0,1.0,0.0,19.0,19.0,19.0,1.0,fondue_07s.jpg,0.0,Purple.png,4.0,130,0.79402,,,,,,,,,,,,,,,,,
0.0,1.0,0.0,20.0,20.0,20.0,1.0,lasagna_06s.jpg,0.0,Red.png,4.0,130,0.534405,,,,,,,,,,,,,,,,,
0.0,1.0,0.0,21.0,21.0,21.0,1.0,eiffeltower.jpg,0.0,Orange.png,4.0,130,0.686395,,,,,,,,,,,,,,,,,
0.0,1.0,0.0,22.0,22.0,22.0,1.0,outlet_10s.jpg,0.0,Yellow.png,4.0,130,0.71761,,,,,,,,,,,,,,,,,
0.0,1.0,0.0,23.0,23.0,23.0,1.0,cape_11s.jpg,0.0,Green.png,4.0,130,0.52903,,,,,,,,,,,,,,,,,
0.0,1.0,0.0,24.0,24.0,24.0,1.0,marshmallow_08s.jpg,0.0,Blue.png,5.0,130,0.64026,,,,,,,,,,,,,,,,,
0.0,1.0,0.0,25.0,25.0,25.0,1.0,racehorse_03s.jpg,0.0,Purple.png,5.0,130,0.926975,,,,,,,,,,,,,,,,,
0.0,1.0,0.0,26.0,26.0,26.0,1.0,aluminum_foil_08s.jpg,0.0,Red.png,5.0,130,1.595265,,,,,,,,,,,,,,,,,
0.0,1.0,0.0,27.0,27.0,27.0,1.0,spoon02a.jpg,0.0,Orange.png,5.0,130,0.957565,,,,,,,,,,,,,,,,,
0.0,1.0,0.0,28.0,28.0,28.0,1.0,padlock_07s.jpg,0.0,Yellow.png,5.0,130,0.66168,,,,,,,,,,,,,,,,,
0.0,1.0,0.0,29.0,29.0,29.0,1.0,solar_panel_02s.jpg,0.0,Green.png,5.0,130,0.549695,,,,,,,,,,,,,,,,,
0.0,1.0,0.0,30.0,30.0,30.0,1.0,turtleneck_11s.jpg,0.0,Blue.png,6.0,130,0.68729,,,,,,,,,,,,,,,,,
0.0,1.0,0.0,31.0,31.0,31.0,1.0,pocketknife_12s.jpg,0.0,Purple.png,6.0,130,1.05448,,,,,,,,,,,,,,,,,
1.0,1.0,0.0,32.0,32.0,32.0,1.0,pocketknife_12s.jpg,1.0,Red.png,6.0,130,1.150705,,,,,,,,,,,,,,,,,
0.0,1.0,0.0,33.0,33.0,33.0,1.0,quill_09s.jpg,0.0,Orange.png,6.0,130,1.11324,,,,,,,,,,,,,,,,,
1.0,1.0,0.0,34.0,34.0,34.0,1.0,quill_09s.jpg,1.0,Yellow.png,6.0,130,1.00082,,,,,,,,,,,,,,,,,
1.0,1.0,0.0,35.0,35.0,35.0,1.0,pocketknife_12s.jpg,1.0,Green.png,6.0,130,1.016655,,,,,,,,,,,,,,,,,
,,,,,,,,0.0,,,130,,1.0,0.0,1.201215,0.0,0.0,0.0,0.0,1.0,cape_11s.jpg,lasagna_06s.jpg,,,,,,,
,,,,,,,,0.0,,,130,,1.0,0.0,1.53682,0.0,1.0,1.0,1.0,1.0,padlock_07s.jpg,racehorse_03s.jpg,,,,,,,
,,,,,,,,1.0,,,130,,1.0,1.0,1.30062,0.0,2.0,2.0,2.0,1.0,spoon02a.jpg,turtleneck_11s.jpg,,,,,,,
,,,,,,,,0.0,,,130,,0.0,1.0,1.67514,0.0,3.0,3.0,3.0,1.0,marshmallow_08s.jpg,eiffeltower.jpg,,,,,,,
,,,,,,,,0.0,,,130,,0.0,1.0,1.29845,0.0,4.0,4.0,4.0,1.0,medal_04s.jpg,jewel_01b.jpg,,,,,,,
,,,,,,,,1.0,,,130,,0.0,0.0,1.401285,0.0,5.0,5.0,5.0,1.0,plug_08s.jpg,fondue_07s.jpg,,,,,,,
,,,,,,,,,,,130,,,,,,,,,,,,0.0,7.0,7.0,7.0,1.0,newclockpresent_8_4.xlsx,newclock_compare_task_8_4.xlsx
0.0,1.0,0.0,0.0,0.0,0.0,1.0,footprint_11s.jpg,0.0,Blue.png,1.0,130,2.296115,,,,,,,,,,,,,,,,,
0.0,1.0,0.0,1.0,1.0,1.0,1.0,coffee_filter_10s.jpg,0.0,Purple.png,1.0,130,2.15352,,,,,,,,,,,,,,,,,
1.0,1.0,0.0,2.0,2.0,2.0,1.0,coffee_filter_10s.jpg,1.0,Red.png,1.0,130,1.183245,,,,,,,,,,,,,,,,,
1.0,1.0,0.0,3.0,3.0,3.0,1.0,coffee_filter_10s.jpg,1.0,Orange.png,1.0,130,1.11891,,,,,,,,,,,,,,,,,
1.0,1.0,0.0,4.0,4.0,4.0,1.0,coffee_filter_10s.jpg,1.0,Yellow.png,1.0,130,1.17572,,,,,,,,,,,,,,,,,
0.0,1.0,0.0,5.0,5.0,5.0,1.0,gargoyle_08s.jpg,0.0,Green.png,1.0,130,1.100475,,,,,,,,,,,,,,,,,
0.0,1.0,0.0,6.0,6.0,6.0,1.0,candy_cane_06s.jpg,0.0,Blue.png,2.0,130,1.20087,,,,,,,,,,,,,,,,,
0.0,1.0,0.0,7.0,7.0,7.0,1.0,toad_09s.jpg,0.0,Purple.png,2.0,130,1.068045,,,,,,,,,,,,,,,,,
1.0,1.0,0.0,8.0,8.0,8.0,1.0,candy_cane_06s.jpg,1.0,Red.png,2.0,130,1.158305,,,,,,,,,,,,,,,,,
0.0,1.0,0.0,9.0,9.0,9.0,1.0,pumpkin_03s.jpg,0.0,Orange.png,2.0,130,0.95775,,,,,,,,,,,,,,,,,
0.0,1.0,0.0,10.0,10.0,10.0,1.0,dashboard_02s.jpg,0.0,Yellow.png,2.0,130,1.27917,,,,,,,,,,,,,,,,,
0.0,1.0,0.0,11.0,11.0,11.0,1.0,syringe_02s.jpg,0.0,Green.png,2.0,130,0.997095,,,,,,,,,,,,,,,,,
0.0,1.0,0.0,12.0,12.0,12.0,1.0,powder_07s.jpg,0.0,Blue.png,3.0,130,0.960775,,,,,,,,,,,,,,,,,
1.0,1.0,0.0,13.0,13.0,13.0,1.0,powder_07s.jpg,1.0,Purple.png,3.0,130,1.248205,,,,,,,,,,,,,,,,,
1.0,1.0,0.0,14.0,14.0,14.0,1.0,powder_07s.jpg,1.0,Red.png,3.0,130,1.183905,,,,,,,,,,,,,,,,,
0.0,1.0,0.0,15.0,15.0,15.0,1.0,sea_urchin_09s.jpg,0.0,Orange.png,3.0,130,1.1177,,,,,,,,,,,,,,,,,
0.0,1.0,0.0,16.0,16.0,16.0,1.0,throne_11s.jpg,0.0,Yellow.png,3.0,130,1.55271,,,,,,,,,,,,,,,,,
1.0,1.0,0.0,17.0,17.0,17.0,1.0,powder_07s.jpg,1.0,Green.png,3.0,130,1.22704,,,,,,,,,,,,,,,,,
0.0,1.0,0.0,18.0,18.0,18.0,1.0,chalice_10s.jpg,0.0,Blue.png,4.0,130,1.232955,,,,,,,,,,,,,,,,,
0.0,1.0,0.0,19.0,19.0,19.0,1.0,air_pump_05s.jpg,0.0,Purple.png,4.0,130,1.248015,,,,,,,,,,,,,,,,,
0.0,1.0,0.0,20.0,20.0,20.0,1.0,microwave_02s.jpg,0.0,Red.png,4.0,130,1.25343,,,,,,,,,,,,,,,,,
0.0,1.0,0.0,21.0,21.0,21.0,1.0,cereal_04s.jpg,0.0,Orange.png,4.0,130,1.349485,,,,,,,,,,,,,,,,,
0.0,1.0,0.0,22.0,22.0,22.0,1.0,mushroom_10n.jpg,0.0,Yellow.png,4.0,130,1.554305,,,,,,,,,,,,,,,,,
0.0,1.0,0.0,23.0,23.0,23.0,1.0,red_carpet_03s.jpg,0.0,Green.png,4.0,130,1.591565,,,,,,,,,,,,,,,,,
0.0,1.0,0.0,24.0,24.0,24.0,1.0,throne_11s.jpg,0.0,Blue.png,5.0,130,1.208165,,,,,,,,,,,,,,,,,
0.0,1.0,0.0,25.0,25.0,25.0,1.0,koala_13s.jpg,0.0,Purple.png,5.0,130,1.187795,,,,,,,,,,,,,,,,,
1.0,1.0,0.0,26.0,26.0,26.0,1.0,throne_11s.jpg,1.0,Red.png,5.0,130,1.217305,,,,,,,,,,,,,,,,,
0.0,1.0,0.0,27.0,27.0,27.0,1.0,rocket_02s.jpg,0.0,Orange.png,5.0,130,1.789445,,,,,,,,,,,,,,,,,
0.0,1.0,0.0,28.0,28.0,28.0,1.0,swordfish_05s.jpg,0.0,Yellow.png,5.0,130,1.11814,,,,,,,,,,,,,,,,,
1.0,1.0,0.0,29.0,29.0,29.0,1.0,rocket_02s.jpg,1.0,Green.png,5.0,130,1.458415,,,,,,,,,,,,,,,,,
0.0,1.0,0.0,30.0,30.0,30.0,1.0,icicle_04s.jpg,0.0,Blue.png,6.0,130,1.476195,,,,,,,,,,,,,,,,,
0.0,1.0,0.0,31.0,31.0,31.0,1.0,keyboard_05s.jpg,0.0,Purple.png,6.0,130,1.2845,,,,,,,,,,,,,,,,,
0.0,1.0,0.0,32.0,32.0,32.0,1.0,pocket_watch_16s.jpg,0.0,Red.png,6.0,130,1.26931,,,,,,,,,,,,,,,,,
0.0,1.0,0.0,33.0,33.0,33.0,1.0,tablet_04s.jpg,0.0,Orange.png,6.0,130,1.313185,,,,,,,,,,,,,,,,,
0.0,1.0,0.0,34.0,34.0,34.0,1.0,chocolate_01b.jpg,0.0,Yellow.png,6.0,130,1.67552,,,,,,,,,,,,,,,,,
0.0,1.0,0.0,35.0,35.0,35.0,1.0,light_switch_02s.jpg,0.0,Green.png,6.0,130,1.50077,,,,,,,,,,,,,,,,,
,,,,,,,,0.0,,,130,,1.0,0.0,1.45027,0.0,0.0,0.0,0.0,1.0,chalice_10s.jpg,sea_urchin_09s.jpg,,,,,,,
,,,,,,,,1.0,,,130,,1.0,1.0,1.521365,0.0,1.0,1.0,1.0,1.0,swordfish_05s.jpg,keyboard_05s.jpg,,,,,,,
,,,,,,,,0.0,,,130,,0.0,1.0,1.601395,0.0,2.0,2.0,2.0,1.0,red_carpet_03s.jpg,microwave_02s.jpg,,,,,,,
,,,,,,,,0.0,,,130,,0.0,1.0,1.809025,0.0,3.0,3.0,3.0,1.0,dashboard_02s.jpg,toad_09s.jpg,,,,,,,
,,,,,,,,0.0,,,130,,0.0,1.0,2.08486,0.0,4.0,4.0,4.0,1.0,koala_13s.jpg,mushroom_10n.jpg,,,,,,,
,,,,,,,,1.0,,,130,,1.0,1.0,0.90063,0.0,5.0,5.0,5.0,1.0,icicle_04s.jpg,tablet_04s.jpg,,,,,,,
,,,,,,,,,,,130,,,,,,,,,,,,0.0,8.0,8.0,8.0,1.0,newclockpresent_9_4.xlsx,newclock_compare_task_9_4.xlsx
