key_resp.keys,key_resp.corr,key_resp.rt,present_segment.thisRepN,present_segment.thisTrialN,present_segment.thisN,present_segment.thisIndex,present_segment.ran,pictures,answer,clock,segment,participant,key_resp_2.keys,key_resp_2.corr,key_resp_2.rt,compare_segment.thisRepN,compare_segment.thisTrialN,compare_segment.thisN,compare_segment.thisIndex,compare_segment.ran,item_a,item_b,clock_conditions.thisRepN,clock_conditions.thisTrialN,clock_conditions.thisN,clock_conditions.thisIndex,clock_conditions.ran,present,compare
0.0,1.0,1.41443,0.0,0.0,0.0,0.0,1.0,mirror_12s.jpg,0.0,Blue.png,1.0,131,,,,,,,,,,,,,,,,,
0.0,1.0,0.78373,0.0,1.0,1.0,1.0,1.0,polaroid_05s.jpg,0.0,Purple.png,1.0,131,,,,,,,,,,,,,,,,,
1.0,1.0,0.77002,0.0,2.0,2.0,2.0,1.0,polaroid_05s.jpg,1.0,Red.png,1.0,131,,,,,,,,,,,,,,,,,
0.0,1.0,0.814815,0.0,3.0,3.0,3.0,1.0,slingshot_07s.jpg,0.0,Orange.png,1.0,131,,,,,,,,,,,,,,,,,
1.0,1.0,1.054065,0.0,4.0,4.0,4.0,1.0,polaroid_05s.jpg,1.0,Yellow.png,1.0,131,,,,,,,,,,,,,,,,,
0.0,1.0,0.642305,0.0,5.0,5.0,5.0,1.0,kettle_08s.jpg,0.0,Green.png,1.0,131,,,,,,,,,,,,,,,,,
0.0,1.0,2.10877,0.0,6.0,6.0,6.0,1.0,crystal_ball_12s.jpg,0.0,Blue.png,2.0,131,,,,,,,,,,,,,,,,,
0.0,1.0,1.622965,0.0,7.0,7.0,7.0,1.0,iron_13s.jpg,0.0,Purple.png,2.0,131,,,,,,,,,,,,,,,,,
0.0,1.0,1.06361,0.0,8.0,8.0,8.0,1.0,saddle_06s.jpg,0.0,Red.png,2.0,131,,,,,,,,,,,,,,,,,
0.0,1.0,0.67565,0.0,9.0,9.0,9.0,1.0,mango_09s.jpg,0.0,Orange.png,2.0,131,,,,,,,,,,,,,,,,,
0.0,1.0,0.9314,0.0,10.0,10.0,10.0,1.0,ostrich_06s.jpg,0.0,Yellow.png,2.0,131,,,,,,,,,,,,,,,,,
1.0,1.0,1.077375,0.0,11.0,11.0,11.0,1.0,iron_13s.jpg,1.0,Green.png,2.0,131,,,,,,,,,,,,,,,,,
0.0,1.0,1.6218,0.0,12.0,12.0,12.0,1.0,stethoscope_01b.jpg,0.0,Blue.png,3.0,131,,,,,,,,,,,,,,,,,
0.0,1.0,0.86256,0.0,13.0,13.0,13.0,1.0,ruby_15s.jpg,0.0,Purple.png,3.0,131,,,,,,,,,,,,,,,,,
1.0,0.0,1.08022,0.0,14.0,14.0,14.0,1.0,mango_09s.jpg,0.0,Red.png,3.0,131,,,,,,,,,,,,,,,,,
0.0,1.0,1.534545,0.0,15.0,15.0,15.0,1.0,target_11s.jpg,0.0,Orange.png,3.0,131,,,,,,,,,,,,,,,,,
1.0,1.0,0.75402,0.0,16.0,16.0,16.0,1.0,mango_09s.jpg,1.0,Yellow.png,3.0,131,,,,,,,,,,,,,,,,,
0.0,1.0,2.234225,0.0,17.0,17.0,17.0,1.0,compass_10n.jpg,0.0,Green.png,3.0,131,,,,,,,,,,,,,,,,,
0.0,1.0,1.71608,0.0,18.0,18.0,18.0,1.0,meatball_13s.jpg,0.0,Blue.png,4.0,131,,,,,,,,,,,,,,,,,
0.0,1.0,0.705305,0.0,19.0,19.0,19.0,1.0,stapler_01b.jpg,0.0,Purple.png,4.0,131,,,,,,,,,,,,,,,,,
1.0,1.0,1.640265,0.0,20.0,20.0,20.0,1.0,meatball_13s.jpg,1.0,Red.png,4.0,131,,,,,,,,,,,,,,,,,
0.0,1.0,1.444185,0.0,21.0,21.0,21.0,1.0,pump_11s.jpg,0.0,Orange.png,4.0,131,,,,,,,,,,,,,,,,,
0.0,1.0,1.35605,0.0,22.0,22.0,22.0,1.0,coral_08s.jpg,0.0,Yellow.png,4.0,131,,,,,,,,,,,,,,,,,
1.0,1.0,1.939655,0.0,23.0,23.0,23.0,1.0,meatball_13s.jpg,1.0,Green.png,4.0,131,,,,,,,,,,,,,,,,,
0.0,1.0,1.960955,0.0,24.0,24.0,24.0,1.0,peach_04s.jpg,0.0,Blue.png,5.0,131,,,,,,,,,,,,,,,,,
0.0,1.0,1.17712,0.0,25.0,25.0,25.0,1.0,meatball_13s.jpg,0.0,Purple.png,5.0,131,,,,,,,,,,,,,,,,,
0.0,1.0,2.02176,0.0,26.0,26.0,26.0,1.0,pie_08s.jpg,0.0,Red.png,5.0,131,,,,,,,,,,,,,,,,,
0.0,1.0,0.75204,0.0,27.0,27.0,27.0,1.0,rollerskate_03s.jpg,0.0,Orange.png,5.0,131,,,,,,,,,,,,,,,,,
0.0,1.0,1.019425,0.0,28.0,28.0,28.0,1.0,trampoline_13s.jpg,0.0,Yellow.png,5.0,131,,,,,,,,,,,,,,,,,
0.0,1.0,1.218555,0.0,29.0,29.0,29.0,1.0,undershirt_02s.jpg,0.0,Green.png,5.0,131,,,,,,,,,,,,,,,,,
0.0,1.0,1.058315,0.0,30.0,30.0,30.0,1.0,thread_08s.jpg,0.0,Blue.png,6.0,131,,,,,,,,,,,,,,,,,
0.0,1.0,1.967635,0.0,31.0,31.0,31.0,1.0,megaphone_03s.jpg,0.0,Purple.png,6.0,131,,,,,,,,,,,,,,,,,
0.0,1.0,1.517525,0.0,32.0,32.0,32.0,1.0,plaster_cast_13s.jpg,0.0,Red.png,6.0,131,,,,,,,,,,,,,,,,,
0.0,1.0,1.28723,0.0,33.0,33.0,33.0,1.0,diving_board_07s.jpg,0.0,Orange.png,6.0,131,,,,,,,,,,,,,,,,,
0.0,1.0,0.81006,0.0,34.0,34.0,34.0,1.0,kayak_08s.jpg,0.0,Yellow.png,6.0,131,,,,,,,,,,,,,,,,,
1.0,1.0,1.9145,0.0,35.0,35.0,35.0,1.0,diving_board_07s.jpg,1.0,Green.png,6.0,131,,,,,,,,,,,,,,,,,
,,,,,,,,,1.0,,,131,0.0,0.0,2.64141,0.0,0.0,0.0,0.0,1.0,stapler_01b.jpg,coral_08s.jpg,,,,,,,
,,,,,,,,,1.0,,,131,1.0,1.0,1.86801,0.0,1.0,1.0,1.0,1.0,slingshot_07s.jpg,crystal_ball_12s.jpg,,,,,,,
,,,,,,,,,0.0,,,131,1.0,0.0,1.5394,0.0,2.0,2.0,2.0,1.0,saddle_06s.jpg,kettle_08s.jpg,,,,,,,
,,,,,,,,,1.0,,,131,0.0,0.0,1.7951,0.0,3.0,3.0,3.0,1.0,pie_08s.jpg,undershirt_02s.jpg,,,,,,,
,,,,,,,,,1.0,,,131,1.0,1.0,1.57257,0.0,4.0,4.0,4.0,1.0,stethoscope_01b.jpg,target_11s.jpg,,,,,,,
,,,,,,,,,1.0,,,131,1.0,1.0,1.2008,0.0,5.0,5.0,5.0,1.0,ostrich_06s.jpg,ruby_15s.jpg,,,,,,,
,,,,,,,,,,,,131,,,,,,,,,,,0.0,0.0,0.0,0.0,1.0,newclockpresent_1_4.xlsx,newclock_compare_task_1_4.xlsx
0.0,1.0,1.476155,0.0,0.0,0.0,0.0,1.0,jetski_10s.jpg,0.0,Blue.png,1.0,131,,,,,,,,,,,,,,,,,
0.0,1.0,1.09663,0.0,1.0,1.0,1.0,1.0,tripod_01b.jpg,0.0,Purple.png,1.0,131,,,,,,,,,,,,,,,,,
0.0,1.0,0.77781,0.0,2.0,2.0,2.0,1.0,lab_coat_11s.jpg,0.0,Red.png,1.0,131,,,,,,,,,,,,,,,,,
0.0,1.0,1.60677,0.0,3.0,3.0,3.0,1.0,foam_03s.jpg,0.0,Orange.png,1.0,131,,,,,,,,,,,,,,,,,
0.0,1.0,1.746565,0.0,4.0,4.0,4.0,1.0,crate_05s.jpg,0.0,Yellow.png,1.0,131,,,,,,,,,,,,,,,,,
0.0,1.0,1.08441,0.0,5.0,5.0,5.0,1.0,margarita_03s.jpg,0.0,Green.png,1.0,131,,,,,,,,,,,,,,,,,
0.0,1.0,0.74994,0.0,6.0,6.0,6.0,1.0,joystick_01b.jpg,0.0,Blue.png,2.0,131,,,,,,,,,,,,,,,,,
0.0,1.0,0.780495,0.0,7.0,7.0,7.0,1.0,giraffe_11s.jpg,0.0,Purple.png,2.0,131,,,,,,,,,,,,,,,,,
0.0,1.0,1.973125,0.0,8.0,8.0,8.0,1.0,quilt_03s.jpg,0.0,Red.png,2.0,131,,,,,,,,,,,,,,,,,
1.0,1.0,1.489445,0.0,9.0,9.0,9.0,1.0,giraffe_11s.jpg,1.0,Orange.png,2.0,131,,,,,,,,,,,,,,,,,
0.0,1.0,1.532355,0.0,10.0,10.0,10.0,1.0,pincushion_10s.jpg,0.0,Yellow.png,2.0,131,,,,,,,,,,,,,,,,,
1.0,1.0,1.02994,0.0,11.0,11.0,11.0,1.0,giraffe_11s.jpg,1.0,Green.png,2.0,131,,,,,,,,,,,,,,,,,
1.0,0.0,0.757805,0.0,12.0,12.0,12.0,1.0,pincushion_10s.jpg,0.0,Blue.png,3.0,131,,,,,,,,,,,,,,,,,
1.0,0.0,1.28049,0.0,13.0,13.0,13.0,1.0,giraffe_11s.jpg,0.0,Purple.png,3.0,131,,,,,,,,,,,,,,,,,
0.0,1.0,0.87987,0.0,14.0,14.0,14.0,1.0,rolling_pin_02s.jpg,0.0,Red.png,3.0,131,,,,,,,,,,,,,,,,,
0.0,1.0,1.45863,0.0,15.0,15.0,15.0,1.0,ticktacktoe_08s.jpg,0.0,Orange.png,3.0,131,,,,,,,,,,,,,,,,,
1.0,1.0,1.45967,0.0,16.0,16.0,16.0,1.0,giraffe_11s.jpg,1.0,Yellow.png,3.0,131,,,,,,,,,,,,,,,,,
1.0,1.0,1.153995,0.0,17.0,17.0,17.0,1.0,ticktacktoe_08s.jpg,1.0,Green.png,3.0,131,,,,,,,,,,,,,,,,,
0.0,1.0,1.51124,0.0,18.0,18.0,18.0,1.0,typewriter_11s.jpg,0.0,Blue.png,4.0,131,,,,,,,,,,,,,,,,,
0.0,1.0,1.608355,0.0,19.0,19.0,19.0,1.0,toothpaste_12s.jpg,0.0,Purple.png,4.0,131,,,,,,,,,,,,,,,,,
0.0,1.0,1.848525,0.0,20.0,20.0,20.0,1.0,hummingbird_05s.jpg,0.0,Red.png,4.0,131,,,,,,,,,,,,,,,,,
1.0,1.0,1.515125,0.0,21.0,21.0,21.0,1.0,toothpaste_12s.jpg,1.0,Orange.png,4.0,131,,,,,,,,,,,,,,,,,
1.0,1.0,1.864395,0.0,22.0,22.0,22.0,1.0,toothpaste_12s.jpg,1.0,Yellow.png,4.0,131,,,,,,,,,,,,,,,,,
0.0,1.0,1.68409,0.0,23.0,23.0,23.0,1.0,treadmill_06s.jpg,0.0,Green.png,4.0,131,,,,,,,,,,,,,,,,,
1.0,0.0,1.528745,0.0,24.0,24.0,24.0,1.0,typewriter_11s.jpg,0.0,Blue.png,5.0,131,,,,,,,,,,,,,,,,,
0.0,1.0,2.42318,0.0,25.0,25.0,25.0,1.0,penguin_16s.jpg,0.0,Purple.png,5.0,131,,,,,,,,,,,,,,,,,
0.0,1.0,1.419005,0.0,26.0,26.0,26.0,1.0,olive_05s.jpg,0.0,Red.png,5.0,131,,,,,,,,,,,,,,,,,
1.0,1.0,1.36424,0.0,27.0,27.0,27.0,1.0,penguin_16s.jpg,1.0,Orange.png,5.0,131,,,,,,,,,,,,,,,,,
1.0,1.0,1.46985,0.0,28.0,28.0,28.0,1.0,penguin_16s.jpg,1.0,Yellow.png,5.0,131,,,,,,,,,,,,,,,,,
0.0,1.0,1.40509,0.0,29.0,29.0,29.0,1.0,tab_09s.jpg,0.0,Green.png,5.0,131,,,,,,,,,,,,,,,,,
0.0,1.0,0.797265,0.0,30.0,30.0,30.0,1.0,frame_06s.jpg,0.0,Blue.png,6.0,131,,,,,,,,,,,,,,,,,
0.0,1.0,1.8527,0.0,31.0,31.0,31.0,1.0,mop_08s.jpg,0.0,Purple.png,6.0,131,,,,,,,,,,,,,,,,,
0.0,1.0,0.870675,0.0,32.0,32.0,32.0,1.0,memory_stick_11s.jpg,0.0,Red.png,6.0,131,,,,,,,,,,,,,,,,,
1.0,0.0,0.766775,0.0,33.0,33.0,33.0,1.0,olive_05s.jpg,0.0,Orange.png,6.0,131,,,,,,,,,,,,,,,,,
0.0,1.0,0.729035,0.0,34.0,34.0,34.0,1.0,ravioli_08s.jpg,0.0,Yellow.png,6.0,131,,,,,,,,,,,,,,,,,
0.0,1.0,0.97237,0.0,35.0,35.0,35.0,1.0,mousetrap_15n.jpg,0.0,Green.png,6.0,131,,,,,,,,,,,,,,,,,
,,,,,,,,,1.0,,,131,0.0,0.0,2.41084,0.0,0.0,0.0,0.0,1.0,hummingbird_05s.jpg,treadmill_06s.jpg,,,,,,,
,,,,,,,,,1.0,,,131,0.0,0.0,1.988465,0.0,1.0,1.0,1.0,1.0,margarita_03s.jpg,quilt_03s.jpg,,,,,,,
,,,,,,,,,0.0,,,131,0.0,1.0,1.45711,0.0,2.0,2.0,2.0,1.0,joystick_01b.jpg,foam_03s.jpg,,,,,,,
,,,,,,,,,0.0,,,131,1.0,0.0,1.35225,0.0,3.0,3.0,3.0,1.0,ravioli_08s.jpg,mop_08s.jpg,,,,,,,
,,,,,,,,,1.0,,,131,1.0,1.0,1.303945,0.0,4.0,4.0,4.0,1.0,tab_09s.jpg,memory_stick_11s.jpg,,,,,,,
,,,,,,,,,1.0,,,131,0.0,0.0,1.570315,0.0,5.0,5.0,5.0,1.0,tripod_01b.jpg,crate_05s.jpg,,,,,,,
,,,,,,,,,,,,131,,,,,,,,,,,0.0,1.0,1.0,1.0,1.0,newclockpresent_2_4.xlsx,newclock_compare_task_2_4.xlsx
0.0,1.0,1.65281,0.0,0.0,0.0,0.0,1.0,safety_pin_02s.jpg,0.0,Blue.png,1.0,131,,,,,,,,,,,,,,,,,
1.0,1.0,0.774625,0.0,1.0,1.0,1.0,1.0,safety_pin_02s.jpg,1.0,Purple.png,1.0,131,,,,,,,,,,,,,,,,,
0.0,1.0,0.692475,0.0,2.0,2.0,2.0,1.0,cardinal_07s.jpg,0.0,Red.png,1.0,131,,,,,,,,,,,,,,,,,
1.0,1.0,1.21552,0.0,3.0,3.0,3.0,1.0,safety_pin_02s.jpg,1.0,Orange.png,1.0,131,,,,,,,,,,,,,,,,,
0.0,1.0,1.474275,0.0,4.0,4.0,4.0,1.0,potholder_02s.jpg,0.0,Yellow.png,1.0,131,,,,,,,,,,,,,,,,,
1.0,1.0,0.70491,0.0,5.0,5.0,5.0,1.0,safety_pin_02s.jpg,1.0,Green.png,1.0,131,,,,,,,,,,,,,,,,,
1.0,0.0,0.69405,0.0,6.0,6.0,6.0,1.0,cardinal_07s.jpg,0.0,Blue.png,2.0,131,,,,,,,,,,,,,,,,,
,0.0,,0.0,7.0,7.0,7.0,1.0,lion_18s.jpg,0.0,Purple.png,2.0,131,,,,,,,,,,,,,,,,,
0.0,1.0,1.753375,0.0,8.0,8.0,8.0,1.0,comic_book_02s.jpg,0.0,Red.png,2.0,131,,,,,,,,,,,,,,,,,
0.0,1.0,0.98989,0.0,9.0,9.0,9.0,1.0,lizard_10n.jpg,0.0,Orange.png,2.0,131,,,,,,,,,,,,,,,,,
0.0,1.0,0.805905,0.0,10.0,10.0,10.0,1.0,rice_12s.jpg,0.0,Yellow.png,2.0,131,,,,,,,,,,,,,,,,,
0.0,1.0,1.097025,0.0,11.0,11.0,11.0,1.0,bagel_15s.jpg,0.0,Green.png,2.0,131,,,,,,,,,,,,,,,,,
0.0,1.0,1.05686,0.0,12.0,12.0,12.0,1.0,recliner_02s.jpg,0.0,Blue.png,3.0,131,,,,,,,,,,,,,,,,,
1.0,1.0,0.965925,0.0,13.0,13.0,13.0,1.0,recliner_02s.jpg,1.0,Purple.png,3.0,131,,,,,,,,,,,,,,,,,
0.0,1.0,0.77289,0.0,14.0,14.0,14.0,1.0,luggage_08s.jpg,0.0,Red.png,3.0,131,,,,,,,,,,,,,,,,,
1.0,1.0,0.90501,0.0,15.0,15.0,15.0,1.0,recliner_02s.jpg,1.0,Orange.png,3.0,131,,,,,,,,,,,,,,,,,
0.0,1.0,1.815005,0.0,16.0,16.0,16.0,1.0,onion_10s.jpg,0.0,Yellow.png,3.0,131,,,,,,,,,,,,,,,,,
0.0,1.0,1.66945,0.0,17.0,17.0,17.0,1.0,rosary_03s.jpg,0.0,Green.png,3.0,131,,,,,,,,,,,,,,,,,
0.0,1.0,1.182695,0.0,18.0,18.0,18.0,1.0,smokingpipe.jpg,0.0,Blue.png,4.0,131,,,,,,,,,,,,,,,,,
0.0,1.0,1.271045,0.0,19.0,19.0,19.0,1.0,roulette_wheel_04s.jpg,0.0,Purple.png,4.0,131,,,,,,,,,,,,,,,,,
1.0,1.0,1.062675,0.0,20.0,20.0,20.0,1.0,smokingpipe.jpg,1.0,Red.png,4.0,131,,,,,,,,,,,,,,,,,
0.0,1.0,1.226535,0.0,21.0,21.0,21.0,1.0,orchid_01b.jpg,0.0,Orange.png,4.0,131,,,,,,,,,,,,,,,,,
0.0,1.0,1.512785,0.0,22.0,22.0,22.0,1.0,buoy_04s.jpg,0.0,Yellow.png,4.0,131,,,,,,,,,,,,,,,,,
0.0,1.0,0.746395,0.0,23.0,23.0,23.0,1.0,stopwatch_04s.jpg,0.0,Green.png,4.0,131,,,,,,,,,,,,,,,,,
0.0,1.0,0.83612,0.0,24.0,24.0,24.0,1.0,knitting_needle_04s.jpg,0.0,Blue.png,5.0,131,,,,,,,,,,,,,,,,,
0.0,1.0,0.853225,0.0,25.0,25.0,25.0,1.0,prism_10s.jpg,0.0,Purple.png,5.0,131,,,,,,,,,,,,,,,,,
0.0,1.0,0.85049,0.0,26.0,26.0,26.0,1.0,teapot_03s.jpg,0.0,Red.png,5.0,131,,,,,,,,,,,,,,,,,
0.0,1.0,0.72976,0.0,27.0,27.0,27.0,1.0,fire_pit_10s.jpg,0.0,Orange.png,5.0,131,,,,,,,,,,,,,,,,,
1.0,1.0,1.51876,0.0,28.0,28.0,28.0,1.0,fire_pit_10s.jpg,1.0,Yellow.png,5.0,131,,,,,,,,,,,,,,,,,
1.0,1.0,1.35954,0.0,29.0,29.0,29.0,1.0,fire_pit_10s.jpg,1.0,Green.png,5.0,131,,,,,,,,,,,,,,,,,
1.0,0.0,1.58821,0.0,30.0,30.0,30.0,1.0,ironing_board_07s.jpg,0.0,Blue.png,6.0,131,,,,,,,,,,,,,,,,,
1.0,0.0,1.027065,0.0,31.0,31.0,31.0,1.0,fire_pit_10s.jpg,0.0,Purple.png,6.0,131,,,,,,,,,,,,,,,,,
0.0,1.0,1.47334,0.0,32.0,32.0,32.0,1.0,mattress_01s.jpg,0.0,Red.png,6.0,131,,,,,,,,,,,,,,,,,
1.0,1.0,0.989065,0.0,33.0,33.0,33.0,1.0,fire_pit_10s.jpg,1.0,Orange.png,6.0,131,,,,,,,,,,,,,,,,,
1.0,1.0,0.84739,0.0,34.0,34.0,34.0,1.0,mattress_01s.jpg,1.0,Yellow.png,6.0,131,,,,,,,,,,,,,,,,,
0.0,1.0,2.14779,0.0,35.0,35.0,35.0,1.0,ice-cream_cone_06s.jpg,0.0,Green.png,6.0,131,,,,,,,,,,,,,,,,,
,,,,,,,,,1.0,,,131,1.0,1.0,1.70096,0.0,0.0,0.0,0.0,1.0,roulette_wheel_04s.jpg,buoy_04s.jpg,,,,,,,
,,,,,,,,,0.0,,,131,1.0,0.0,1.365895,0.0,1.0,1.0,1.0,1.0,lion_18s.jpg,potholder_02s.jpg,,,,,,,
,,,,,,,,,0.0,,,131,0.0,1.0,1.466915,0.0,2.0,2.0,2.0,1.0,bagel_15s.jpg,comic_book_02s.jpg,,,,,,,
,,,,,,,,,1.0,,,131,1.0,1.0,1.64631,0.0,3.0,3.0,3.0,1.0,stopwatch_04s.jpg,teapot_03s.jpg,,,,,,,
,,,,,,,,,1.0,,,131,1.0,1.0,1.671785,0.0,4.0,4.0,4.0,1.0,luggage_08s.jpg,rosary_03s.jpg,,,,,,,
,,,,,,,,,1.0,,,131,0.0,0.0,1.396035,0.0,5.0,5.0,5.0,1.0,orchid_01b.jpg,knitting_needle_04s.jpg,,,,,,,
,,,,,,,,,,,,131,,,,,,,,,,,0.0,2.0,2.0,2.0,1.0,newclockpresent_3_4.xlsx,newclock_compare_task_3_4.xlsx
0.0,1.0,1.33482,0.0,0.0,0.0,0.0,1.0,smoothie_09s.jpg,0.0,Blue.png,1.0,131,,,,,,,,,,,,,,,,,
0.0,1.0,1.42157,0.0,1.0,1.0,1.0,1.0,raspberry_12s.jpg,0.0,Purple.png,1.0,131,,,,,,,,,,,,,,,,,
1.0,1.0,1.345055,0.0,2.0,2.0,2.0,1.0,raspberry_12s.jpg,1.0,Red.png,1.0,131,,,,,,,,,,,,,,,,,
0.0,1.0,1.20984,0.0,3.0,3.0,3.0,1.0,lamb_chop_07s.jpg,0.0,Orange.png,1.0,131,,,,,,,,,,,,,,,,,
1.0,1.0,1.18083,0.0,4.0,4.0,4.0,1.0,smoothie_09s.jpg,1.0,Yellow.png,1.0,131,,,,,,,,,,,,,,,,,
1.0,1.0,1.3849,0.0,5.0,5.0,5.0,1.0,raspberry_12s.jpg,1.0,Green.png,1.0,131,,,,,,,,,,,,,,,,,
0.0,1.0,1.62861,0.0,6.0,6.0,6.0,1.0,lava_02s.jpg,0.0,Blue.png,2.0,131,,,,,,,,,,,,,,,,,
,0.0,,0.0,7.0,7.0,7.0,1.0,trident_07s.jpg,0.0,Purple.png,2.0,131,,,,,,,,,,,,,,,,,
1.0,1.0,0.9943,0.0,8.0,8.0,8.0,1.0,trident_07s.jpg,1.0,Red.png,2.0,131,,,,,,,,,,,,,,,,,
1.0,1.0,0.665435,0.0,9.0,9.0,9.0,1.0,trident_07s.jpg,1.0,Orange.png,2.0,131,,,,,,,,,,,,,,,,,
0.0,1.0,0.79407,0.0,10.0,10.0,10.0,1.0,orangutan_03s.jpg,0.0,Yellow.png,2.0,131,,,,,,,,,,,,,,,,,
1.0,1.0,1.936145,0.0,11.0,11.0,11.0,1.0,trident_07s.jpg,1.0,Green.png,2.0,131,,,,,,,,,,,,,,,,,
1.0,0.0,1.67595,0.0,12.0,12.0,12.0,1.0,raspberry_12s.jpg,0.0,Blue.png,3.0,131,,,,,,,,,,,,,,,,,
1.0,0.0,1.64816,0.0,13.0,13.0,13.0,1.0,trident_07s.jpg,0.0,Purple.png,3.0,131,,,,,,,,,,,,,,,,,
0.0,1.0,1.212545,0.0,14.0,14.0,14.0,1.0,lavender_10s.jpg,0.0,Red.png,3.0,131,,,,,,,,,,,,,,,,,
0.0,1.0,0.709085,0.0,15.0,15.0,15.0,1.0,chip_04s.jpg,0.0,Orange.png,3.0,131,,,,,,,,,,,,,,,,,
0.0,1.0,1.120465,0.0,16.0,16.0,16.0,1.0,lamb_04s.jpg,0.0,Yellow.png,3.0,131,,,,,,,,,,,,,,,,,
0.0,1.0,1.27532,0.0,17.0,17.0,17.0,1.0,emerald_02s.jpg,0.0,Green.png,3.0,131,,,,,,,,,,,,,,,,,
0.0,1.0,0.67173,0.0,18.0,18.0,18.0,1.0,pineapple_12s.jpg,0.0,Blue.png,4.0,131,,,,,,,,,,,,,,,,,
0.0,1.0,1.76611,0.0,19.0,19.0,19.0,1.0,sundae_08s.jpg,0.0,Purple.png,4.0,131,,,,,,,,,,,,,,,,,
1.0,1.0,0.881505,0.0,20.0,20.0,20.0,1.0,sundae_08s.jpg,1.0,Red.png,4.0,131,,,,,,,,,,,,,,,,,
0.0,1.0,1.06575,0.0,21.0,21.0,21.0,1.0,squirrel_02s.jpg,0.0,Orange.png,4.0,131,,,,,,,,,,,,,,,,,
0.0,1.0,1.8747,0.0,22.0,22.0,22.0,1.0,roller_coaster_07s.jpg,0.0,Yellow.png,4.0,131,,,,,,,,,,,,,,,,,
1.0,1.0,2.103245,0.0,23.0,23.0,23.0,1.0,sundae_08s.jpg,1.0,Green.png,4.0,131,,,,,,,,,,,,,,,,,
,0.0,,0.0,24.0,24.0,24.0,1.0,tweezers_03s.jpg,0.0,Blue.png,5.0,131,,,,,,,,,,,,,,,,,
1.0,0.0,0.90149,0.0,25.0,25.0,25.0,1.0,sundae_08s.jpg,0.0,Purple.png,5.0,131,,,,,,,,,,,,,,,,,
0.0,1.0,1.358945,0.0,26.0,26.0,26.0,1.0,rudder_02s.jpg,0.0,Red.png,5.0,131,,,,,,,,,,,,,,,,,
0.0,1.0,1.21098,0.0,27.0,27.0,27.0,1.0,rake_06s.jpg,0.0,Orange.png,5.0,131,,,,,,,,,,,,,,,,,
1.0,1.0,1.09891,0.0,28.0,28.0,28.0,1.0,rake_06s.jpg,1.0,Yellow.png,5.0,131,,,,,,,,,,,,,,,,,
1.0,1.0,0.78029,0.0,29.0,29.0,29.0,1.0,rake_06s.jpg,1.0,Green.png,5.0,131,,,,,,,,,,,,,,,,,
0.0,1.0,2.188125,0.0,30.0,30.0,30.0,1.0,cap_05s.jpg,0.0,Blue.png,6.0,131,,,,,,,,,,,,,,,,,
0.0,1.0,0.750755,0.0,31.0,31.0,31.0,1.0,paper_towel_03s.jpg,0.0,Purple.png,6.0,131,,,,,,,,,,,,,,,,,
0.0,1.0,1.13257,0.0,32.0,32.0,32.0,1.0,toaster_03s.jpg,0.0,Red.png,6.0,131,,,,,,,,,,,,,,,,,
0.0,1.0,2.279885,0.0,33.0,33.0,33.0,1.0,money_07s.jpg,0.0,Orange.png,6.0,131,,,,,,,,,,,,,,,,,
0.0,1.0,1.715475,0.0,34.0,34.0,34.0,1.0,pinwheel_06s.jpg,0.0,Yellow.png,6.0,131,,,,,,,,,,,,,,,,,
0.0,1.0,1.09804,0.0,35.0,35.0,35.0,1.0,lid_10s.jpg,0.0,Green.png,6.0,131,,,,,,,,,,,,,,,,,
,,,,,,,,,0.0,,,131,0.0,1.0,1.927715,0.0,0.0,0.0,0.0,1.0,tweezers_03s.jpg,squirrel_02s.jpg,,,,,,,
,,,,,,,,,1.0,,,131,1.0,1.0,1.5787,0.0,1.0,1.0,1.0,1.0,chip_04s.jpg,pineapple_12s.jpg,,,,,,,
,,,,,,,,,1.0,,,131,0.0,0.0,2.42891,0.0,2.0,2.0,2.0,1.0,lamb_chop_07s.jpg,lava_02s.jpg,,,,,,,
,,,,,,,,,0.0,,,131,1.0,0.0,1.388935,0.0,3.0,3.0,3.0,1.0,pinwheel_06s.jpg,paper_towel_03s.jpg,,,,,,,
,,,,,,,,,0.0,,,131,1.0,0.0,1.17883,0.0,4.0,4.0,4.0,1.0,emerald_02s.jpg,lavender_10s.jpg,,,,,,,
,,,,,,,,,0.0,,,131,1.0,0.0,1.342955,0.0,5.0,5.0,5.0,1.0,money_07s.jpg,cap_05s.jpg,,,,,,,
,,,,,,,,,,,,131,,,,,,,,,,,0.0,3.0,3.0,3.0,1.0,newclockpresent_4_4.xlsx,newclock_compare_task_4_4.xlsx
0.0,1.0,1.26522,0.0,0.0,0.0,0.0,1.0,fur_coat_11s.jpg,0.0,Blue.png,1.0,131,,,,,,,,,,,,,,,,,
0.0,1.0,0.640485,0.0,1.0,1.0,1.0,1.0,crayon_09s.jpg,0.0,Purple.png,1.0,131,,,,,,,,,,,,,,,,,
0.0,1.0,0.844245,0.0,2.0,2.0,2.0,1.0,cobra_05s.jpg,0.0,Red.png,1.0,131,,,,,,,,,,,,,,,,,
0.0,1.0,2.14478,0.0,3.0,3.0,3.0,1.0,raccoon_02s.jpg,0.0,Orange.png,1.0,131,,,,,,,,,,,,,,,,,
0.0,1.0,0.666435,0.0,4.0,4.0,4.0,1.0,soda_fountain_03s.jpg,0.0,Yellow.png,1.0,131,,,,,,,,,,,,,,,,,
1.0,1.0,0.78657,0.0,5.0,5.0,5.0,1.0,raccoon_02s.jpg,1.0,Green.png,1.0,131,,,,,,,,,,,,,,,,,
0.0,1.0,1.478325,0.0,6.0,6.0,6.0,1.0,feather02.jpg,0.0,Blue.png,2.0,131,,,,,,,,,,,,,,,,,
1.0,0.0,0.75557,0.0,7.0,7.0,7.0,1.0,raccoon_02s.jpg,0.0,Purple.png,2.0,131,,,,,,,,,,,,,,,,,
0.0,0.0,1.355585,0.0,8.0,8.0,8.0,1.0,feather02.jpg,1.0,Red.png,2.0,131,,,,,,,,,,,,,,,,,
0.0,1.0,1.2106,0.0,9.0,9.0,9.0,1.0,rug_09s.jpg,0.0,Orange.png,2.0,131,,,,,,,,,,,,,,,,,
1.0,1.0,0.62444,0.0,10.0,10.0,10.0,1.0,feather02.jpg,1.0,Yellow.png,2.0,131,,,,,,,,,,,,,,,,,
0.0,1.0,0.98825,0.0,11.0,11.0,11.0,1.0,cushion_08s.jpg,0.0,Green.png,2.0,131,,,,,,,,,,,,,,,,,
1.0,0.0,1.60159,0.0,12.0,12.0,12.0,1.0,feather02.jpg,0.0,Blue.png,3.0,131,,,,,,,,,,,,,,,,,
1.0,1.0,1.2966,0.0,13.0,13.0,13.0,1.0,feather02.jpg,1.0,Purple.png,3.0,131,,,,,,,,,,,,,,,,,
0.0,1.0,0.89565,0.0,14.0,14.0,14.0,1.0,ice_pack_09s.jpg,0.0,Red.png,3.0,131,,,,,,,,,,,,,,,,,
1.0,1.0,0.880145,0.0,15.0,15.0,15.0,1.0,ice_pack_09s.jpg,1.0,Orange.png,3.0,131,,,,,,,,,,,,,,,,,
0.0,1.0,1.18479,0.0,16.0,16.0,16.0,1.0,loom_05s.jpg,0.0,Yellow.png,3.0,131,,,,,,,,,,,,,,,,,
1.0,1.0,0.83336,0.0,17.0,17.0,17.0,1.0,ice_pack_09s.jpg,1.0,Green.png,3.0,131,,,,,,,,,,,,,,,,,
1.0,0.0,0.79974,0.0,18.0,18.0,18.0,1.0,ice_pack_09s.jpg,0.0,Blue.png,4.0,131,,,,,,,,,,,,,,,,,
1.0,1.0,0.717355,0.0,19.0,19.0,19.0,1.0,ice_pack_09s.jpg,1.0,Purple.png,4.0,131,,,,,,,,,,,,,,,,,
1.0,1.0,0.65542,0.0,20.0,20.0,20.0,1.0,ice_pack_09s.jpg,1.0,Red.png,4.0,131,,,,,,,,,,,,,,,,,
0.0,1.0,0.70833,0.0,21.0,21.0,21.0,1.0,blazer_02s.jpg,0.0,Orange.png,4.0,131,,,,,,,,,,,,,,,,,
0.0,1.0,1.17184,0.0,22.0,22.0,22.0,1.0,penlight_12s.jpg,0.0,Yellow.png,4.0,131,,,,,,,,,,,,,,,,,
0.0,1.0,1.657085,0.0,23.0,23.0,23.0,1.0,swan_11s.jpg,0.0,Green.png,4.0,131,,,,,,,,,,,,,,,,,
0.0,1.0,0.867365,0.0,24.0,24.0,24.0,1.0,plunger_08s.jpg,0.0,Blue.png,5.0,131,,,,,,,,,,,,,,,,,
0.0,1.0,1.51374,0.0,25.0,25.0,25.0,1.0,bottle_opener_11s.jpg,0.0,Purple.png,5.0,131,,,,,,,,,,,,,,,,,
0.0,1.0,1.08659,0.0,26.0,26.0,26.0,1.0,checkbook_11s.jpg,0.0,Red.png,5.0,131,,,,,,,,,,,,,,,,,
0.0,1.0,2.001725,0.0,27.0,27.0,27.0,1.0,ink_08s.jpg,0.0,Orange.png,5.0,131,,,,,,,,,,,,,,,,,
1.0,1.0,1.130355,0.0,28.0,28.0,28.0,1.0,plunger_08s.jpg,1.0,Yellow.png,5.0,131,,,,,,,,,,,,,,,,,
0.0,1.0,1.82747,0.0,29.0,29.0,29.0,1.0,pencil02a.jpg,0.0,Green.png,5.0,131,,,,,,,,,,,,,,,,,
0.0,1.0,0.871305,0.0,30.0,30.0,30.0,1.0,ginger_09s.jpg,0.0,Blue.png,6.0,131,,,,,,,,,,,,,,,,,
0.0,1.0,0.67756,0.0,31.0,31.0,31.0,1.0,taxi_15s.jpg,0.0,Purple.png,6.0,131,,,,,,,,,,,,,,,,,
0.0,1.0,0.74279,0.0,32.0,32.0,32.0,1.0,toy_04s.jpg,0.0,Red.png,6.0,131,,,,,,,,,,,,,,,,,
0.0,1.0,0.98496,0.0,33.0,33.0,33.0,1.0,blowfish_03s.jpg,0.0,Orange.png,6.0,131,,,,,,,,,,,,,,,,,
0.0,1.0,1.136995,0.0,34.0,34.0,34.0,1.0,toilet_paper_12s.jpg,0.0,Yellow.png,6.0,131,,,,,,,,,,,,,,,,,
0.0,1.0,1.066345,0.0,35.0,35.0,35.0,1.0,puddle_02s.jpg,0.0,Green.png,6.0,131,,,,,,,,,,,,,,,,,
,,,,,,,,,1.0,,,131,0.0,0.0,2.57905,0.0,0.0,0.0,0.0,1.0,ink_08s.jpg,ginger_09s.jpg,,,,,,,
,,,,,,,,,0.0,,,131,1.0,0.0,1.416005,0.0,1.0,1.0,1.0,1.0,puddle_02s.jpg,toy_04s.jpg,,,,,,,
,,,,,,,,,0.0,,,131,1.0,0.0,1.222505,0.0,2.0,2.0,2.0,1.0,bottle_opener_11s.jpg,penlight_12s.jpg,,,,,,,
,,,,,,,,,0.0,,,131,0.0,1.0,1.212085,0.0,3.0,3.0,3.0,1.0,checkbook_11s.jpg,swan_11s.jpg,,,,,,,
,,,,,,,,,1.0,,,131,1.0,1.0,1.2386,0.0,4.0,4.0,4.0,1.0,taxi_15s.jpg,toilet_paper_12s.jpg,,,,,,,
,,,,,,,,,1.0,,,131,1.0,1.0,1.122135,0.0,5.0,5.0,5.0,1.0,crayon_09s.jpg,soda_fountain_03s.jpg,,,,,,,
,,,,,,,,,,,,131,,,,,,,,,,,0.0,4.0,4.0,4.0,1.0,newclockpresent_5_4.xlsx,newclock_compare_task_5_4.xlsx
0.0,1.0,0.85288,0.0,0.0,0.0,0.0,1.0,flask_04s.jpg,0.0,Blue.png,1.0,131,,,,,,,,,,,,,,,,,
,0.0,,0.0,1.0,1.0,1.0,1.0,kimono_13s.jpg,0.0,Purple.png,1.0,131,,,,,,,,,,,,,,,,,
0.0,1.0,0.562985,0.0,2.0,2.0,2.0,1.0,limousine_12s.jpg,0.0,Red.png,1.0,131,,,,,,,,,,,,,,,,,
0.0,1.0,0.640505,0.0,3.0,3.0,3.0,1.0,lectern_08s.jpg,0.0,Orange.png,1.0,131,,,,,,,,,,,,,,,,,
1.0,1.0,1.78482,0.0,4.0,4.0,4.0,1.0,kimono_13s.jpg,1.0,Yellow.png,1.0,131,,,,,,,,,,,,,,,,,
0.0,1.0,1.40988,0.0,5.0,5.0,5.0,1.0,doily_13s.jpg,0.0,Green.png,1.0,131,,,,,,,,,,,,,,,,,
1.0,0.0,2.20882,0.0,6.0,6.0,6.0,1.0,kimono_13s.jpg,0.0,Blue.png,2.0,131,,,,,,,,,,,,,,,,,
0.0,1.0,1.029065,0.0,7.0,7.0,7.0,1.0,razor_blade_01b.jpg,0.0,Purple.png,2.0,131,,,,,,,,,,,,,,,,,
1.0,1.0,0.77774,0.0,8.0,8.0,8.0,1.0,razor_blade_01b.jpg,1.0,Red.png,2.0,131,,,,,,,,,,,,,,,,,
0.0,1.0,1.60385,0.0,9.0,9.0,9.0,1.0,champagne_18s.jpg,0.0,Orange.png,2.0,131,,,,,,,,,,,,,,,,,
0.0,1.0,0.75538,0.0,10.0,10.0,10.0,1.0,stamp1_11s.jpg,0.0,Yellow.png,2.0,131,,,,,,,,,,,,,,,,,
1.0,1.0,1.570435,0.0,11.0,11.0,11.0,1.0,champagne_18s.jpg,1.0,Green.png,2.0,131,,,,,,,,,,,,,,,,,
0.0,1.0,0.75301,0.0,12.0,12.0,12.0,1.0,crossbow_10s.jpg,0.0,Blue.png,3.0,131,,,,,,,,,,,,,,,,,
0.0,1.0,0.97526,0.0,13.0,13.0,13.0,1.0,briefcase_03s.jpg,0.0,Purple.png,3.0,131,,,,,,,,,,,,,,,,,
0.0,1.0,0.63315,0.0,14.0,14.0,14.0,1.0,jersey_02s.jpg,0.0,Red.png,3.0,131,,,,,,,,,,,,,,,,,
1.0,1.0,1.477505,0.0,15.0,15.0,15.0,1.0,briefcase_03s.jpg,1.0,Orange.png,3.0,131,,,,,,,,,,,,,,,,,
0.0,1.0,1.08863,0.0,16.0,16.0,16.0,1.0,oil_02s.jpg,0.0,Yellow.png,3.0,131,,,,,,,,,,,,,,,,,
0.0,1.0,2.07852,0.0,17.0,17.0,17.0,1.0,tinsel_12s.jpg,0.0,Green.png,3.0,131,,,,,,,,,,,,,,,,,
0.0,1.0,1.62038,0.0,18.0,18.0,18.0,1.0,flask_04s.jpg,0.0,Blue.png,4.0,131,,,,,,,,,,,,,,,,,
0.0,1.0,1.81708,0.0,19.0,19.0,19.0,1.0,fork_04s.jpg,0.0,Purple.png,4.0,131,,,,,,,,,,,,,,,,,
0.0,1.0,0.94632,0.0,20.0,20.0,20.0,1.0,purse_05s.jpg,0.0,Red.png,4.0,131,,,,,,,,,,,,,,,,,
1.0,1.0,1.64669,0.0,21.0,21.0,21.0,1.0,flask_04s.jpg,1.0,Orange.png,4.0,131,,,,,,,,,,,,,,,,,
0.0,1.0,0.94716,0.0,22.0,22.0,22.0,1.0,sledgehammer_03s.jpg,0.0,Yellow.png,4.0,131,,,,,,,,,,,,,,,,,
0.0,1.0,1.376975,0.0,23.0,23.0,23.0,1.0,turf_03s.jpg,0.0,Green.png,4.0,131,,,,,,,,,,,,,,,,,
0.0,1.0,1.68637,0.0,24.0,24.0,24.0,1.0,omelet_07s.jpg,0.0,Blue.png,5.0,131,,,,,,,,,,,,,,,,,
1.0,0.0,1.69544,0.0,25.0,25.0,25.0,1.0,turf_03s.jpg,0.0,Purple.png,5.0,131,,,,,,,,,,,,,,,,,
0.0,1.0,2.03559,0.0,26.0,26.0,26.0,1.0,clover_04s.jpg,0.0,Red.png,5.0,131,,,,,,,,,,,,,,,,,
0.0,1.0,1.572495,0.0,27.0,27.0,27.0,1.0,lip_gloss_06s.jpg,0.0,Orange.png,5.0,131,,,,,,,,,,,,,,,,,
0.0,1.0,1.90612,0.0,28.0,28.0,28.0,1.0,amber_04s.jpg,0.0,Yellow.png,5.0,131,,,,,,,,,,,,,,,,,
0.0,1.0,1.651695,0.0,29.0,29.0,29.0,1.0,tortilla_06s.jpg,0.0,Green.png,5.0,131,,,,,,,,,,,,,,,,,
1.0,0.0,1.47242,0.0,30.0,30.0,30.0,1.0,razor_blade_01b.jpg,0.0,Blue.png,6.0,131,,,,,,,,,,,,,,,,,
0.0,1.0,1.716665,0.0,31.0,31.0,31.0,1.0,tape_measure_11s.jpg,0.0,Purple.png,6.0,131,,,,,,,,,,,,,,,,,
1.0,1.0,1.83234,0.0,32.0,32.0,32.0,1.0,razor_blade_01b.jpg,1.0,Red.png,6.0,131,,,,,,,,,,,,,,,,,
1.0,1.0,1.54182,0.0,33.0,33.0,33.0,1.0,razor_blade_01b.jpg,1.0,Orange.png,6.0,131,,,,,,,,,,,,,,,,,
0.0,1.0,1.85955,0.0,34.0,34.0,34.0,1.0,stingray_02s.jpg,0.0,Yellow.png,6.0,131,,,,,,,,,,,,,,,,,
0.0,1.0,1.81669,0.0,35.0,35.0,35.0,1.0,harpoon.jpg,0.0,Green.png,6.0,131,,,,,,,,,,,,,,,,,
,,,,,,,,,1.0,,,131,0.0,0.0,1.6792,0.0,0.0,0.0,0.0,1.0,oil_02s.jpg,fork_04s.jpg,,,,,,,
,,,,,,,,,0.0,,,131,0.0,1.0,1.51979,0.0,1.0,1.0,1.0,1.0,doily_13s.jpg,limousine_12s.jpg,,,,,,,
,,,,,,,,,0.0,,,131,1.0,0.0,1.401245,0.0,2.0,2.0,2.0,1.0,lip_gloss_06s.jpg,omelet_07s.jpg,,,,,,,
,,,,,,,,,0.0,,,131,0.0,1.0,1.44407,0.0,3.0,3.0,3.0,1.0,tape_measure_11s.jpg,amber_04s.jpg,,,,,,,
,,,,,,,,,0.0,,,131,1.0,0.0,1.787205,0.0,4.0,4.0,4.0,1.0,tortilla_06s.jpg,clover_04s.jpg,,,,,,,
,,,,,,,,,0.0,,,131,0.0,1.0,0.841315,0.0,5.0,5.0,5.0,1.0,purse_05s.jpg,tinsel_12s.jpg,,,,,,,
,,,,,,,,,,,,131,,,,,,,,,,,0.0,5.0,5.0,5.0,1.0,newclockpresent_6_4.xlsx,newclock_compare_task_6_4.xlsx
0.0,1.0,1.059705,0.0,0.0,0.0,0.0,1.0,butter_14s.jpg,0.0,Blue.png,1.0,131,,,,,,,,,,,,,,,,,
1.0,1.0,1.46108,0.0,1.0,1.0,1.0,1.0,butter_14s.jpg,1.0,Purple.png,1.0,131,,,,,,,,,,,,,,,,,
1.0,1.0,1.88954,0.0,2.0,2.0,2.0,1.0,butter_14s.jpg,1.0,Red.png,1.0,131,,,,,,,,,,,,,,,,,
0.0,1.0,1.53126,0.0,3.0,3.0,3.0,1.0,stamp2_08s.jpg,0.0,Orange.png,1.0,131,,,,,,,,,,,,,,,,,
0.0,1.0,0.7659,0.0,4.0,4.0,4.0,1.0,kangaroo_02s.jpg,0.0,Yellow.png,1.0,131,,,,,,,,,,,,,,,,,
0.0,1.0,1.050585,0.0,5.0,5.0,5.0,1.0,camcorder_10s.jpg,0.0,Green.png,1.0,131,,,,,,,,,,,,,,,,,
0.0,1.0,1.117265,0.0,6.0,6.0,6.0,1.0,bank_06s.jpg,0.0,Blue.png,2.0,131,,,,,,,,,,,,,,,,,
0.0,1.0,0.775205,0.0,7.0,7.0,7.0,1.0,gear_07s.jpg,0.0,Purple.png,2.0,131,,,,,,,,,,,,,,,,,
1.0,1.0,1.10053,0.0,8.0,8.0,8.0,1.0,bank_06s.jpg,1.0,Red.png,2.0,131,,,,,,,,,,,,,,,,,
0.0,1.0,0.748215,0.0,9.0,9.0,9.0,1.0,funnel_01b.jpg,0.0,Orange.png,2.0,131,,,,,,,,,,,,,,,,,
0.0,1.0,1.577445,0.0,10.0,10.0,10.0,1.0,poinsettia_04s.jpg,0.0,Yellow.png,2.0,131,,,,,,,,,,,,,,,,,
1.0,1.0,0.853055,0.0,11.0,11.0,11.0,1.0,funnel_01b.jpg,1.0,Green.png,2.0,131,,,,,,,,,,,,,,,,,
1.0,0.0,1.941155,0.0,12.0,12.0,12.0,1.0,rooster_03s.jpg,0.0,Blue.png,3.0,131,,,,,,,,,,,,,,,,,
0.0,1.0,0.594635,0.0,13.0,13.0,13.0,1.0,denture_03s.jpg,0.0,Purple.png,3.0,131,,,,,,,,,,,,,,,,,
0.0,1.0,1.25507,0.0,14.0,14.0,14.0,1.0,bean_06s.jpg,0.0,Red.png,3.0,131,,,,,,,,,,,,,,,,,
0.0,1.0,1.208455,0.0,15.0,15.0,15.0,1.0,mud_13s.jpg,0.0,Orange.png,3.0,131,,,,,,,,,,,,,,,,,
0.0,1.0,2.07523,0.0,16.0,16.0,16.0,1.0,keyhole_03s.jpg,0.0,Yellow.png,3.0,131,,,,,,,,,,,,,,,,,
1.0,1.0,0.75489,0.0,17.0,17.0,17.0,1.0,bean_06s.jpg,1.0,Green.png,3.0,131,,,,,,,,,,,,,,,,,
1.0,0.0,0.725505,0.0,18.0,18.0,18.0,1.0,bank_06s.jpg,0.0,Blue.png,4.0,131,,,,,,,,,,,,,,,,,
0.0,1.0,1.702245,0.0,19.0,19.0,19.0,1.0,pomegranate_04s.jpg,0.0,Purple.png,4.0,131,,,,,,,,,,,,,,,,,
0.0,1.0,1.023045,0.0,20.0,20.0,20.0,1.0,chopsticks_08s.jpg,0.0,Red.png,4.0,131,,,,,,,,,,,,,,,,,
,0.0,,0.0,21.0,21.0,21.0,1.0,contact_lens_15s.jpg,0.0,Orange.png,4.0,131,,,,,,,,,,,,,,,,,
0.0,1.0,1.591325,0.0,22.0,22.0,22.0,1.0,hydrant_10s.jpg,0.0,Yellow.png,4.0,131,,,,,,,,,,,,,,,,,
1.0,0.0,0.67689,0.0,23.0,23.0,23.0,1.0,gingerbread_man_03s.jpg,0.0,Green.png,4.0,131,,,,,,,,,,,,,,,,,
,0.0,,0.0,24.0,24.0,24.0,1.0,camcorder_10s.jpg,0.0,Blue.png,5.0,131,,,,,,,,,,,,,,,,,
0.0,1.0,0.8594,0.0,25.0,25.0,25.0,1.0,teabag_12s.jpg,0.0,Purple.png,5.0,131,,,,,,,,,,,,,,,,,
0.0,1.0,1.135285,0.0,26.0,26.0,26.0,1.0,radiator_05s.jpg,0.0,Red.png,5.0,131,,,,,,,,,,,,,,,,,
0.0,1.0,0.83965,0.0,27.0,27.0,27.0,1.0,punch1_10s.jpg,0.0,Orange.png,5.0,131,,,,,,,,,,,,,,,,,
0.0,1.0,1.16688,0.0,28.0,28.0,28.0,1.0,mailbox_11s.jpg,0.0,Yellow.png,5.0,131,,,,,,,,,,,,,,,,,
0.0,1.0,0.769365,0.0,29.0,29.0,29.0,1.0,beaker_01b.jpg,0.0,Green.png,5.0,131,,,,,,,,,,,,,,,,,
1.0,0.0,0.636225,0.0,30.0,30.0,30.0,1.0,mailbox_11s.jpg,0.0,Blue.png,6.0,131,,,,,,,,,,,,,,,,,
0.0,1.0,0.59793,0.0,31.0,31.0,31.0,1.0,pipe1_10s.jpg,0.0,Purple.png,6.0,131,,,,,,,,,,,,,,,,,
1.0,1.0,1.03781,0.0,32.0,32.0,32.0,1.0,mailbox_11s.jpg,1.0,Red.png,6.0,131,,,,,,,,,,,,,,,,,
1.0,1.0,0.89678,0.0,33.0,33.0,33.0,1.0,pipe1_10s.jpg,1.0,Orange.png,6.0,131,,,,,,,,,,,,,,,,,
0.0,1.0,0.561725,0.0,34.0,34.0,34.0,1.0,eyedropper_12s.jpg,0.0,Yellow.png,6.0,131,,,,,,,,,,,,,,,,,
0.0,1.0,1.171615,0.0,35.0,35.0,35.0,1.0,rhubarb_03s.jpg,0.0,Green.png,6.0,131,,,,,,,,,,,,,,,,,
,,,,,,,,,0.0,,,131,0.0,1.0,2.48846,0.0,0.0,0.0,0.0,1.0,mud_13s.jpg,rooster_03s.jpg,,,,,,,
,,,,,,,,,1.0,,,131,1.0,1.0,1.342285,0.0,1.0,1.0,1.0,1.0,chopsticks_08s.jpg,gingerbread_man_03s.jpg,,,,,,,
,,,,,,,,,0.0,,,131,0.0,1.0,2.03518,0.0,2.0,2.0,2.0,1.0,beaker_01b.jpg,radiator_05s.jpg,,,,,,,
,,,,,,,,,0.0,,,131,0.0,1.0,1.49552,0.0,3.0,3.0,3.0,1.0,teabag_12s.jpg,hydrant_10s.jpg,,,,,,,
,,,,,,,,,0.0,,,131,1.0,0.0,0.86726,0.0,4.0,4.0,4.0,1.0,denture_03s.jpg,poinsettia_04s.jpg,,,,,,,
,,,,,,,,,1.0,,,131,1.0,1.0,1.309815,0.0,5.0,5.0,5.0,1.0,kangaroo_02s.jpg,gear_07s.jpg,,,,,,,
,,,,,,,,,,,,131,,,,,,,,,,,0.0,6.0,6.0,6.0,1.0,newclockpresent_7_4.xlsx,newclock_compare_task_7_4.xlsx
0.0,1.0,1.437755,0.0,0.0,0.0,0.0,1.0,lamppost_09s.jpg,0.0,Blue.png,1.0,131,,,,,,,,,,,,,,,,,
0.0,1.0,1.798715,0.0,1.0,1.0,1.0,1.0,jewel_01b.jpg,0.0,Purple.png,1.0,131,,,,,,,,,,,,,,,,,
0.0,1.0,0.56223,0.0,2.0,2.0,2.0,1.0,tuxedo_01b.jpg,0.0,Red.png,1.0,131,,,,,,,,,,,,,,,,,
0.0,1.0,0.83317,0.0,3.0,3.0,3.0,1.0,flip_flop_03s.jpg,0.0,Orange.png,1.0,131,,,,,,,,,,,,,,,,,
0.0,1.0,0.580255,0.0,4.0,4.0,4.0,1.0,medal_04s.jpg,0.0,Yellow.png,1.0,131,,,,,,,,,,,,,,,,,
1.0,1.0,0.787815,0.0,5.0,5.0,5.0,1.0,flip_flop_03s.jpg,1.0,Green.png,1.0,131,,,,,,,,,,,,,,,,,
1.0,0.0,0.96665,0.0,6.0,6.0,6.0,1.0,tuxedo_01b.jpg,0.0,Blue.png,2.0,131,,,,,,,,,,,,,,,,,
1.0,0.0,1.27406,0.0,7.0,7.0,7.0,1.0,flip_flop_03s.jpg,0.0,Purple.png,2.0,131,,,,,,,,,,,,,,,,,
0.0,1.0,0.798115,0.0,8.0,8.0,8.0,1.0,fireworks_18s.jpg,0.0,Red.png,2.0,131,,,,,,,,,,,,,,,,,
0.0,1.0,0.70406,0.0,9.0,9.0,9.0,1.0,squirt_gun_03s.jpg,0.0,Orange.png,2.0,131,,,,,,,,,,,,,,,,,
1.0,1.0,0.98185,0.0,10.0,10.0,10.0,1.0,flip_flop_03s.jpg,1.0,Yellow.png,2.0,131,,,,,,,,,,,,,,,,,
0.0,1.0,1.0544,0.0,11.0,11.0,11.0,1.0,puffin_19s.jpg,0.0,Green.png,2.0,131,,,,,,,,,,,,,,,,,
,0.0,,0.0,12.0,12.0,12.0,1.0,tuxedo_01b.jpg,0.0,Blue.png,3.0,131,,,,,,,,,,,,,,,,,
1.0,1.0,0.662995,0.0,13.0,13.0,13.0,1.0,tuxedo_01b.jpg,1.0,Purple.png,3.0,131,,,,,,,,,,,,,,,,,
0.0,1.0,0.80213,0.0,14.0,14.0,14.0,1.0,snowman_02s.jpg,0.0,Red.png,3.0,131,,,,,,,,,,,,,,,,,
0.0,1.0,1.21496,0.0,15.0,15.0,15.0,1.0,cucumber_07s.jpg,0.0,Orange.png,3.0,131,,,,,,,,,,,,,,,,,
0.0,1.0,1.67831,0.0,16.0,16.0,16.0,1.0,plug_08s.jpg,0.0,Yellow.png,3.0,131,,,,,,,,,,,,,,,,,
1.0,1.0,1.26539,0.0,17.0,17.0,17.0,1.0,cucumber_07s.jpg,1.0,Green.png,3.0,131,,,,,,,,,,,,,,,,,
1.0,0.0,1.04723,0.0,18.0,18.0,18.0,1.0,puffin_19s.jpg,0.0,Blue.png,4.0,131,,,,,,,,,,,,,,,,,
0.0,1.0,0.746625,0.0,19.0,19.0,19.0,1.0,fondue_07s.jpg,0.0,Purple.png,4.0,131,,,,,,,,,,,,,,,,,
0.0,1.0,0.786685,0.0,20.0,20.0,20.0,1.0,lasagna_06s.jpg,0.0,Red.png,4.0,131,,,,,,,,,,,,,,,,,
0.0,1.0,0.933415,0.0,21.0,21.0,21.0,1.0,eiffeltower.jpg,0.0,Orange.png,4.0,131,,,,,,,,,,,,,,,,,
0.0,1.0,1.2158,0.0,22.0,22.0,22.0,1.0,outlet_10s.jpg,0.0,Yellow.png,4.0,131,,,,,,,,,,,,,,,,,
0.0,1.0,1.895795,0.0,23.0,23.0,23.0,1.0,cape_11s.jpg,0.0,Green.png,4.0,131,,,,,,,,,,,,,,,,,
1.0,0.0,1.49782,0.0,24.0,24.0,24.0,1.0,marshmallow_08s.jpg,0.0,Blue.png,5.0,131,,,,,,,,,,,,,,,,,
0.0,1.0,0.90332,0.0,25.0,25.0,25.0,1.0,racehorse_03s.jpg,0.0,Purple.png,5.0,131,,,,,,,,,,,,,,,,,
0.0,1.0,0.762005,0.0,26.0,26.0,26.0,1.0,aluminum_foil_08s.jpg,0.0,Red.png,5.0,131,,,,,,,,,,,,,,,,,
0.0,1.0,2.39325,0.0,27.0,27.0,27.0,1.0,spoon02a.jpg,0.0,Orange.png,5.0,131,,,,,,,,,,,,,,,,,
,0.0,,0.0,28.0,28.0,28.0,1.0,padlock_07s.jpg,0.0,Yellow.png,5.0,131,,,,,,,,,,,,,,,,,
0.0,1.0,0.87554,0.0,29.0,29.0,29.0,1.0,solar_panel_02s.jpg,0.0,Green.png,5.0,131,,,,,,,,,,,,,,,,,
0.0,1.0,1.045555,0.0,30.0,30.0,30.0,1.0,turtleneck_11s.jpg,0.0,Blue.png,6.0,131,,,,,,,,,,,,,,,,,
0.0,1.0,1.090255,0.0,31.0,31.0,31.0,1.0,pocketknife_12s.jpg,0.0,Purple.png,6.0,131,,,,,,,,,,,,,,,,,
1.0,1.0,1.554555,0.0,32.0,32.0,32.0,1.0,pocketknife_12s.jpg,1.0,Red.png,6.0,131,,,,,,,,,,,,,,,,,
0.0,1.0,1.17143,0.0,33.0,33.0,33.0,1.0,quill_09s.jpg,0.0,Orange.png,6.0,131,,,,,,,,,,,,,,,,,
1.0,1.0,0.91499,0.0,34.0,34.0,34.0,1.0,quill_09s.jpg,1.0,Yellow.png,6.0,131,,,,,,,,,,,,,,,,,
1.0,1.0,0.703105,0.0,35.0,35.0,35.0,1.0,pocketknife_12s.jpg,1.0,Green.png,6.0,131,,,,,,,,,,,,,,,,,
,,,,,,,,,0.0,,,131,1.0,0.0,1.506485,0.0,0.0,0.0,0.0,1.0,cape_11s.jpg,lasagna_06s.jpg,,,,,,,
,,,,,,,,,0.0,,,131,1.0,0.0,1.31255,0.0,1.0,1.0,1.0,1.0,padlock_07s.jpg,racehorse_03s.jpg,,,,,,,
,,,,,,,,,1.0,,,131,1.0,1.0,1.717965,0.0,2.0,2.0,2.0,1.0,spoon02a.jpg,turtleneck_11s.jpg,,,,,,,
,,,,,,,,,0.0,,,131,0.0,1.0,1.00922,0.0,3.0,3.0,3.0,1.0,marshmallow_08s.jpg,eiffeltower.jpg,,,,,,,
,,,,,,,,,0.0,,,131,1.0,0.0,1.41209,0.0,4.0,4.0,4.0,1.0,medal_04s.jpg,jewel_01b.jpg,,,,,,,
,,,,,,,,,1.0,,,131,1.0,1.0,1.43231,0.0,5.0,5.0,5.0,1.0,plug_08s.jpg,fondue_07s.jpg,,,,,,,
,,,,,,,,,,,,131,,,,,,,,,,,0.0,7.0,7.0,7.0,1.0,newclockpresent_8_4.xlsx,newclock_compare_task_8_4.xlsx
0.0,1.0,1.18134,0.0,0.0,0.0,0.0,1.0,footprint_11s.jpg,0.0,Blue.png,1.0,131,,,,,,,,,,,,,,,,,
0.0,1.0,0.82565,0.0,1.0,1.0,1.0,1.0,coffee_filter_10s.jpg,0.0,Purple.png,1.0,131,,,,,,,,,,,,,,,,,
1.0,1.0,0.70789,0.0,2.0,2.0,2.0,1.0,coffee_filter_10s.jpg,1.0,Red.png,1.0,131,,,,,,,,,,,,,,,,,
1.0,1.0,0.66559,0.0,3.0,3.0,3.0,1.0,coffee_filter_10s.jpg,1.0,Orange.png,1.0,131,,,,,,,,,,,,,,,,,
1.0,1.0,0.64844,0.0,4.0,4.0,4.0,1.0,coffee_filter_10s.jpg,1.0,Yellow.png,1.0,131,,,,,,,,,,,,,,,,,
0.0,1.0,1.596425,0.0,5.0,5.0,5.0,1.0,gargoyle_08s.jpg,0.0,Green.png,1.0,131,,,,,,,,,,,,,,,,,
0.0,1.0,1.74277,0.0,6.0,6.0,6.0,1.0,candy_cane_06s.jpg,0.0,Blue.png,2.0,131,,,,,,,,,,,,,,,,,
0.0,1.0,0.79361,0.0,7.0,7.0,7.0,1.0,toad_09s.jpg,0.0,Purple.png,2.0,131,,,,,,,,,,,,,,,,,
,0.0,,0.0,8.0,8.0,8.0,1.0,candy_cane_06s.jpg,1.0,Red.png,2.0,131,,,,,,,,,,,,,,,,,
0.0,1.0,0.56811,0.0,9.0,9.0,9.0,1.0,pumpkin_03s.jpg,0.0,Orange.png,2.0,131,,,,,,,,,,,,,,,,,
0.0,1.0,0.865965,0.0,10.0,10.0,10.0,1.0,dashboard_02s.jpg,0.0,Yellow.png,2.0,131,,,,,,,,,,,,,,,,,
0.0,1.0,1.42774,0.0,11.0,11.0,11.0,1.0,syringe_02s.jpg,0.0,Green.png,2.0,131,,,,,,,,,,,,,,,,,
0.0,1.0,1.455805,0.0,12.0,12.0,12.0,1.0,powder_07s.jpg,0.0,Blue.png,3.0,131,,,,,,,,,,,,,,,,,
1.0,1.0,0.804945,0.0,13.0,13.0,13.0,1.0,powder_07s.jpg,1.0,Purple.png,3.0,131,,,,,,,,,,,,,,,,,
1.0,1.0,0.55642,0.0,14.0,14.0,14.0,1.0,powder_07s.jpg,1.0,Red.png,3.0,131,,,,,,,,,,,,,,,,,
0.0,1.0,0.689965,0.0,15.0,15.0,15.0,1.0,sea_urchin_09s.jpg,0.0,Orange.png,3.0,131,,,,,,,,,,,,,,,,,
0.0,1.0,1.81201,0.0,16.0,16.0,16.0,1.0,throne_11s.jpg,0.0,Yellow.png,3.0,131,,,,,,,,,,,,,,,,,
1.0,1.0,0.816085,0.0,17.0,17.0,17.0,1.0,powder_07s.jpg,1.0,Green.png,3.0,131,,,,,,,,,,,,,,,,,
0.0,1.0,0.674675,0.0,18.0,18.0,18.0,1.0,chalice_10s.jpg,0.0,Blue.png,4.0,131,,,,,,,,,,,,,,,,,
1.0,0.0,1.90157,0.0,19.0,19.0,19.0,1.0,air_pump_05s.jpg,0.0,Purple.png,4.0,131,,,,,,,,,,,,,,,,,
0.0,1.0,1.32212,0.0,20.0,20.0,20.0,1.0,microwave_02s.jpg,0.0,Red.png,4.0,131,,,,,,,,,,,,,,,,,
0.0,1.0,0.89045,0.0,21.0,21.0,21.0,1.0,cereal_04s.jpg,0.0,Orange.png,4.0,131,,,,,,,,,,,,,,,,,
0.0,1.0,1.18615,0.0,22.0,22.0,22.0,1.0,mushroom_10n.jpg,0.0,Yellow.png,4.0,131,,,,,,,,,,,,,,,,,
0.0,1.0,1.634525,0.0,23.0,23.0,23.0,1.0,red_carpet_03s.jpg,0.0,Green.png,4.0,131,,,,,,,,,,,,,,,,,
1.0,0.0,1.29592,0.0,24.0,24.0,24.0,1.0,throne_11s.jpg,0.0,Blue.png,5.0,131,,,,,,,,,,,,,,,,,
0.0,1.0,0.68003,0.0,25.0,25.0,25.0,1.0,koala_13s.jpg,0.0,Purple.png,5.0,131,,,,,,,,,,,,,,,,,
1.0,1.0,0.647835,0.0,26.0,26.0,26.0,1.0,throne_11s.jpg,1.0,Red.png,5.0,131,,,,,,,,,,,,,,,,,
1.0,0.0,0.58385,0.0,27.0,27.0,27.0,1.0,rocket_02s.jpg,0.0,Orange.png,5.0,131,,,,,,,,,,,,,,,,,
0.0,1.0,0.951515,0.0,28.0,28.0,28.0,1.0,swordfish_05s.jpg,0.0,Yellow.png,5.0,131,,,,,,,,,,,,,,,,,
1.0,1.0,0.91718,0.0,29.0,29.0,29.0,1.0,rocket_02s.jpg,1.0,Green.png,5.0,131,,,,,,,,,,,,,,,,,
0.0,1.0,0.780685,0.0,30.0,30.0,30.0,1.0,icicle_04s.jpg,0.0,Blue.png,6.0,131,,,,,,,,,,,,,,,,,
0.0,1.0,1.27792,0.0,31.0,31.0,31.0,1.0,keyboard_05s.jpg,0.0,Purple.png,6.0,131,,,,,,,,,,,,,,,,,
0.0,1.0,0.77523,0.0,32.0,32.0,32.0,1.0,pocket_watch_16s.jpg,0.0,Red.png,6.0,131,,,,,,,,,,,,,,,,,
0.0,1.0,1.302225,0.0,33.0,33.0,33.0,1.0,tablet_04s.jpg,0.0,Orange.png,6.0,131,,,,,,,,,,,,,,,,,
0.0,1.0,1.019335,0.0,34.0,34.0,34.0,1.0,chocolate_01b.jpg,0.0,Yellow.png,6.0,131,,,,,,,,,,,,,,,,,
0.0,1.0,0.756555,0.0,35.0,35.0,35.0,1.0,light_switch_02s.jpg,0.0,Green.png,6.0,131,,,,,,,,,,,,,,,,,
,,,,,,,,,0.0,,,131,0.0,1.0,3.07514,0.0,0.0,0.0,0.0,1.0,chalice_10s.jpg,sea_urchin_09s.jpg,,,,,,,
,,,,,,,,,1.0,,,131,1.0,1.0,1.54175,0.0,1.0,1.0,1.0,1.0,swordfish_05s.jpg,keyboard_05s.jpg,,,,,,,
,,,,,,,,,0.0,,,131,0.0,1.0,1.76371,0.0,2.0,2.0,2.0,1.0,red_carpet_03s.jpg,microwave_02s.jpg,,,,,,,
,,,,,,,,,0.0,,,131,0.0,1.0,1.192615,0.0,3.0,3.0,3.0,1.0,dashboard_02s.jpg,toad_09s.jpg,,,,,,,
,,,,,,,,,0.0,,,131,0.0,1.0,1.39095,0.0,4.0,4.0,4.0,1.0,koala_13s.jpg,mushroom_10n.jpg,,,,,,,
,,,,,,,,,1.0,,,131,0.0,0.0,1.350805,0.0,5.0,5.0,5.0,1.0,icicle_04s.jpg,tablet_04s.jpg,,,,,,,
,,,,,,,,,,,,131,,,,,,,,,,,0.0,8.0,8.0,8.0,1.0,newclockpresent_9_4.xlsx,newclock_compare_task_9_4.xlsx
