key_resp.keys,key_resp.corr,key_resp.rt,present_segment.thisRepN,present_segment.thisTrialN,present_segment.thisN,present_segment.thisIndex,present_segment.ran,pictures,answer,clock,segment,participant,key_resp_2.keys,key_resp_2.corr,key_resp_2.rt,compare_segment.thisRepN,compare_segment.thisTrialN,compare_segment.thisN,compare_segment.thisIndex,compare_segment.ran,item_a,item_b,clock_conditions.thisRepN,clock_conditions.thisTrialN,clock_conditions.thisN,clock_conditions.thisIndex,clock_conditions.ran,present,compare
0.0,1.0,1.998,0.0,0.0,0.0,0.0,1.0,mirror_12s.jpg,0.0,Blue.png,1.0,23,,,,,,,,,,,,,,,,,
0.0,1.0,1.781,0.0,1.0,1.0,1.0,1.0,polaroid_05s.jpg,0.0,Purple.png,1.0,23,,,,,,,,,,,,,,,,,
1.0,0.0,2.056,0.0,2.0,2.0,2.0,1.0,polaroid_05s.jpg,0.0,Red.png,1.0,23,,,,,,,,,,,,,,,,,
0.0,1.0,1.547,0.0,3.0,3.0,3.0,1.0,slingshot_07s.jpg,0.0,Orange.png,1.0,23,,,,,,,,,,,,,,,,,
1.0,1.0,1.569,0.0,4.0,4.0,4.0,1.0,polaroid_05s.jpg,1.0,Yellow.png,1.0,23,,,,,,,,,,,,,,,,,
0.0,1.0,1.604,0.0,5.0,5.0,5.0,1.0,kettle_08s.jpg,0.0,Green.png,1.0,23,,,,,,,,,,,,,,,,,
0.0,1.0,0.768,0.0,6.0,6.0,6.0,1.0,crystal_ball_12s.jpg,0.0,Blue.png,2.0,23,,,,,,,,,,,,,,,,,
0.0,1.0,0.692,0.0,7.0,7.0,7.0,1.0,iron_13s.jpg,0.0,Purple.png,2.0,23,,,,,,,,,,,,,,,,,
0.0,1.0,0.921,0.0,8.0,8.0,8.0,1.0,saddle_06s.jpg,0.0,Red.png,2.0,23,,,,,,,,,,,,,,,,,
0.0,1.0,0.651,0.0,9.0,9.0,9.0,1.0,mango_09s.jpg,0.0,Orange.png,2.0,23,,,,,,,,,,,,,,,,,
0.0,1.0,0.562,0.0,10.0,10.0,10.0,1.0,ostrich_06s.jpg,0.0,Yellow.png,2.0,23,,,,,,,,,,,,,,,,,
1.0,0.0,0.721,0.0,11.0,11.0,11.0,1.0,iron_13s.jpg,0.0,Green.png,2.0,23,,,,,,,,,,,,,,,,,
0.0,1.0,0.693,0.0,12.0,12.0,12.0,1.0,stethoscope_01b.jpg,0.0,Blue.png,3.0,23,,,,,,,,,,,,,,,,,
0.0,1.0,0.671,0.0,13.0,13.0,13.0,1.0,ruby_15s.jpg,0.0,Purple.png,3.0,23,,,,,,,,,,,,,,,,,
1.0,0.0,0.814,0.0,14.0,14.0,14.0,1.0,mango_09s.jpg,0.0,Red.png,3.0,23,,,,,,,,,,,,,,,,,
0.0,1.0,0.755,0.0,15.0,15.0,15.0,1.0,target_11s.jpg,0.0,Orange.png,3.0,23,,,,,,,,,,,,,,,,,
1.0,1.0,2.294,0.0,16.0,16.0,16.0,1.0,mango_09s.jpg,1.0,Yellow.png,3.0,23,,,,,,,,,,,,,,,,,
0.0,1.0,1.081,0.0,17.0,17.0,17.0,1.0,compass_10n.jpg,0.0,Green.png,3.0,23,,,,,,,,,,,,,,,,,
0.0,1.0,0.72,0.0,18.0,18.0,18.0,1.0,meatball_13s.jpg,0.0,Blue.png,4.0,23,,,,,,,,,,,,,,,,,
0.0,1.0,0.706,0.0,19.0,19.0,19.0,1.0,stapler_01b.jpg,0.0,Purple.png,4.0,23,,,,,,,,,,,,,,,,,
1.0,1.0,0.95,0.0,20.0,20.0,20.0,1.0,meatball_13s.jpg,1.0,Red.png,4.0,23,,,,,,,,,,,,,,,,,
0.0,1.0,0.747,0.0,21.0,21.0,21.0,1.0,pump_11s.jpg,0.0,Orange.png,4.0,23,,,,,,,,,,,,,,,,,
0.0,1.0,0.838,0.0,22.0,22.0,22.0,1.0,coral_08s.jpg,0.0,Yellow.png,4.0,23,,,,,,,,,,,,,,,,,
1.0,0.0,0.721,0.0,23.0,23.0,23.0,1.0,meatball_13s.jpg,0.0,Green.png,4.0,23,,,,,,,,,,,,,,,,,
0.0,1.0,0.773,0.0,24.0,24.0,24.0,1.0,peach_04s.jpg,0.0,Blue.png,5.0,23,,,,,,,,,,,,,,,,,
1.0,1.0,1.195,0.0,25.0,25.0,25.0,1.0,meatball_13s.jpg,1.0,Purple.png,5.0,23,,,,,,,,,,,,,,,,,
0.0,1.0,0.988,0.0,26.0,26.0,26.0,1.0,pie_08s.jpg,0.0,Red.png,5.0,23,,,,,,,,,,,,,,,,,
0.0,1.0,1.012,0.0,27.0,27.0,27.0,1.0,rollerskate_03s.jpg,0.0,Orange.png,5.0,23,,,,,,,,,,,,,,,,,
0.0,1.0,0.997,0.0,28.0,28.0,28.0,1.0,trampoline_13s.jpg,0.0,Yellow.png,5.0,23,,,,,,,,,,,,,,,,,
0.0,1.0,0.971,0.0,29.0,29.0,29.0,1.0,undershirt_02s.jpg,0.0,Green.png,5.0,23,,,,,,,,,,,,,,,,,
0.0,1.0,0.861,0.0,30.0,30.0,30.0,1.0,thread_08s.jpg,0.0,Blue.png,6.0,23,,,,,,,,,,,,,,,,,
0.0,1.0,0.819,0.0,31.0,31.0,31.0,1.0,megaphone_03s.jpg,0.0,Purple.png,6.0,23,,,,,,,,,,,,,,,,,
0.0,1.0,0.71,0.0,32.0,32.0,32.0,1.0,plaster_cast_13s.jpg,0.0,Red.png,6.0,23,,,,,,,,,,,,,,,,,
0.0,1.0,0.762,0.0,33.0,33.0,33.0,1.0,diving_board_07s.jpg,0.0,Orange.png,6.0,23,,,,,,,,,,,,,,,,,
0.0,1.0,0.877,0.0,34.0,34.0,34.0,1.0,kayak_08s.jpg,0.0,Yellow.png,6.0,23,,,,,,,,,,,,,,,,,
1.0,1.0,1.297,0.0,35.0,35.0,35.0,1.0,diving_board_07s.jpg,1.0,Green.png,6.0,23,,,,,,,,,,,,,,,,,
,,,,,,,,,1.0,,,23,0.0,0.0,4.423,0.0,0.0,0.0,0.0,1.0,stapler_01b.jpg,coral_08s.jpg,,,,,,,
,,,,,,,,,1.0,,,23,0.0,0.0,1.995,0.0,1.0,1.0,1.0,1.0,slingshot_07s.jpg,crystal_ball_12s.jpg,,,,,,,
,,,,,,,,,0.0,,,23,1.0,0.0,2.339,0.0,2.0,2.0,2.0,1.0,saddle_06s.jpg,kettle_08s.jpg,,,,,,,
,,,,,,,,,1.0,,,23,1.0,1.0,1.683,0.0,3.0,3.0,3.0,1.0,pie_08s.jpg,undershirt_02s.jpg,,,,,,,
,,,,,,,,,1.0,,,23,1.0,1.0,2.421,0.0,4.0,4.0,4.0,1.0,stethoscope_01b.jpg,target_11s.jpg,,,,,,,
,,,,,,,,,1.0,,,23,1.0,1.0,1.663,0.0,5.0,5.0,5.0,1.0,ostrich_06s.jpg,ruby_15s.jpg,,,,,,,
,,,,,,,,,,,,23,,,,,,,,,,,0.0,0.0,0.0,0.0,1.0,new2backpresent_1_4.xlsx,new2back_compare_task_1_4.xlsx
0.0,1.0,1.721,0.0,0.0,0.0,0.0,1.0,jetski_10s.jpg,0.0,Blue.png,1.0,23,,,,,,,,,,,,,,,,,
0.0,1.0,1.665,0.0,1.0,1.0,1.0,1.0,tripod_01b.jpg,0.0,Purple.png,1.0,23,,,,,,,,,,,,,,,,,
0.0,1.0,0.945,0.0,2.0,2.0,2.0,1.0,lab_coat_11s.jpg,0.0,Red.png,1.0,23,,,,,,,,,,,,,,,,,
0.0,1.0,0.664,0.0,3.0,3.0,3.0,1.0,foam_03s.jpg,0.0,Orange.png,1.0,23,,,,,,,,,,,,,,,,,
0.0,1.0,0.938,0.0,4.0,4.0,4.0,1.0,crate_05s.jpg,0.0,Yellow.png,1.0,23,,,,,,,,,,,,,,,,,
0.0,1.0,0.753,0.0,5.0,5.0,5.0,1.0,margarita_03s.jpg,0.0,Green.png,1.0,23,,,,,,,,,,,,,,,,,
0.0,1.0,0.787,0.0,6.0,6.0,6.0,1.0,joystick_01b.jpg,0.0,Blue.png,2.0,23,,,,,,,,,,,,,,,,,
0.0,1.0,0.777,0.0,7.0,7.0,7.0,1.0,giraffe_11s.jpg,0.0,Purple.png,2.0,23,,,,,,,,,,,,,,,,,
0.0,1.0,0.762,0.0,8.0,8.0,8.0,1.0,quilt_03s.jpg,0.0,Red.png,2.0,23,,,,,,,,,,,,,,,,,
1.0,1.0,1.551,0.0,9.0,9.0,9.0,1.0,giraffe_11s.jpg,1.0,Orange.png,2.0,23,,,,,,,,,,,,,,,,,
0.0,1.0,0.661,0.0,10.0,10.0,10.0,1.0,pincushion_10s.jpg,0.0,Yellow.png,2.0,23,,,,,,,,,,,,,,,,,
1.0,1.0,1.366,0.0,11.0,11.0,11.0,1.0,giraffe_11s.jpg,1.0,Green.png,2.0,23,,,,,,,,,,,,,,,,,
1.0,1.0,1.612,0.0,12.0,12.0,12.0,1.0,pincushion_10s.jpg,1.0,Blue.png,3.0,23,,,,,,,,,,,,,,,,,
1.0,1.0,1.246,0.0,13.0,13.0,13.0,1.0,giraffe_11s.jpg,1.0,Purple.png,3.0,23,,,,,,,,,,,,,,,,,
0.0,1.0,0.723,0.0,14.0,14.0,14.0,1.0,rolling_pin_02s.jpg,0.0,Red.png,3.0,23,,,,,,,,,,,,,,,,,
0.0,1.0,0.955,0.0,15.0,15.0,15.0,1.0,ticktacktoe_08s.jpg,0.0,Orange.png,3.0,23,,,,,,,,,,,,,,,,,
1.0,0.0,1.337,0.0,16.0,16.0,16.0,1.0,giraffe_11s.jpg,0.0,Yellow.png,3.0,23,,,,,,,,,,,,,,,,,
1.0,1.0,1.105,0.0,17.0,17.0,17.0,1.0,ticktacktoe_08s.jpg,1.0,Green.png,3.0,23,,,,,,,,,,,,,,,,,
0.0,1.0,0.691,0.0,18.0,18.0,18.0,1.0,typewriter_11s.jpg,0.0,Blue.png,4.0,23,,,,,,,,,,,,,,,,,
0.0,1.0,1.224,0.0,19.0,19.0,19.0,1.0,toothpaste_12s.jpg,0.0,Purple.png,4.0,23,,,,,,,,,,,,,,,,,
0.0,1.0,0.844,0.0,20.0,20.0,20.0,1.0,hummingbird_05s.jpg,0.0,Red.png,4.0,23,,,,,,,,,,,,,,,,,
1.0,1.0,0.974,0.0,21.0,21.0,21.0,1.0,toothpaste_12s.jpg,1.0,Orange.png,4.0,23,,,,,,,,,,,,,,,,,
,0.0,,0.0,22.0,22.0,22.0,1.0,toothpaste_12s.jpg,0.0,Yellow.png,4.0,23,,,,,,,,,,,,,,,,,
0.0,1.0,0.629,0.0,23.0,23.0,23.0,1.0,treadmill_06s.jpg,0.0,Green.png,4.0,23,,,,,,,,,,,,,,,,,
1.0,0.0,2.203,0.0,24.0,24.0,24.0,1.0,typewriter_11s.jpg,0.0,Blue.png,5.0,23,,,,,,,,,,,,,,,,,
0.0,1.0,0.781,0.0,25.0,25.0,25.0,1.0,penguin_16s.jpg,0.0,Purple.png,5.0,23,,,,,,,,,,,,,,,,,
0.0,1.0,0.71,0.0,26.0,26.0,26.0,1.0,olive_05s.jpg,0.0,Red.png,5.0,23,,,,,,,,,,,,,,,,,
1.0,1.0,1.269,0.0,27.0,27.0,27.0,1.0,penguin_16s.jpg,1.0,Orange.png,5.0,23,,,,,,,,,,,,,,,,,
1.0,0.0,1.499,0.0,28.0,28.0,28.0,1.0,penguin_16s.jpg,0.0,Yellow.png,5.0,23,,,,,,,,,,,,,,,,,
0.0,1.0,0.797,0.0,29.0,29.0,29.0,1.0,tab_09s.jpg,0.0,Green.png,5.0,23,,,,,,,,,,,,,,,,,
0.0,1.0,0.963,0.0,30.0,30.0,30.0,1.0,frame_06s.jpg,0.0,Blue.png,6.0,23,,,,,,,,,,,,,,,,,
0.0,1.0,0.693,0.0,31.0,31.0,31.0,1.0,mop_08s.jpg,0.0,Purple.png,6.0,23,,,,,,,,,,,,,,,,,
0.0,1.0,0.683,0.0,32.0,32.0,32.0,1.0,memory_stick_11s.jpg,0.0,Red.png,6.0,23,,,,,,,,,,,,,,,,,
0.0,1.0,1.373,0.0,33.0,33.0,33.0,1.0,olive_05s.jpg,0.0,Orange.png,6.0,23,,,,,,,,,,,,,,,,,
0.0,1.0,0.596,0.0,34.0,34.0,34.0,1.0,ravioli_08s.jpg,0.0,Yellow.png,6.0,23,,,,,,,,,,,,,,,,,
0.0,1.0,0.548,0.0,35.0,35.0,35.0,1.0,mousetrap_15n.jpg,0.0,Green.png,6.0,23,,,,,,,,,,,,,,,,,
,,,,,,,,,1.0,,,23,1.0,1.0,1.706,0.0,0.0,0.0,0.0,1.0,hummingbird_05s.jpg,treadmill_06s.jpg,,,,,,,
,,,,,,,,,1.0,,,23,0.0,0.0,1.975,0.0,1.0,1.0,1.0,1.0,margarita_03s.jpg,quilt_03s.jpg,,,,,,,
,,,,,,,,,0.0,,,23,0.0,1.0,1.284,0.0,2.0,2.0,2.0,1.0,joystick_01b.jpg,foam_03s.jpg,,,,,,,
,,,,,,,,,0.0,,,23,1.0,0.0,1.383,0.0,3.0,3.0,3.0,1.0,ravioli_08s.jpg,mop_08s.jpg,,,,,,,
,,,,,,,,,1.0,,,23,1.0,1.0,1.853,0.0,4.0,4.0,4.0,1.0,tab_09s.jpg,memory_stick_11s.jpg,,,,,,,
,,,,,,,,,1.0,,,23,0.0,0.0,1.226,0.0,5.0,5.0,5.0,1.0,tripod_01b.jpg,crate_05s.jpg,,,,,,,
,,,,,,,,,,,,23,,,,,,,,,,,0.0,1.0,1.0,1.0,1.0,new2backpresent_2_4.xlsx,new2back_compare_task_2_4.xlsx
,0.0,,0.0,0.0,0.0,0.0,1.0,safety_pin_02s.jpg,0.0,Blue.png,1.0,23,,,,,,,,,,,,,,,,,
1.0,0.0,1.529,0.0,1.0,1.0,1.0,1.0,safety_pin_02s.jpg,0.0,Purple.png,1.0,23,,,,,,,,,,,,,,,,,
0.0,1.0,0.894,0.0,2.0,2.0,2.0,1.0,cardinal_07s.jpg,0.0,Red.png,1.0,23,,,,,,,,,,,,,,,,,
1.0,1.0,0.626,0.0,3.0,3.0,3.0,1.0,safety_pin_02s.jpg,1.0,Orange.png,1.0,23,,,,,,,,,,,,,,,,,
0.0,1.0,0.837,0.0,4.0,4.0,4.0,1.0,potholder_02s.jpg,0.0,Yellow.png,1.0,23,,,,,,,,,,,,,,,,,
1.0,1.0,0.953,0.0,5.0,5.0,5.0,1.0,safety_pin_02s.jpg,1.0,Green.png,1.0,23,,,,,,,,,,,,,,,,,
1.0,0.0,0.928,0.0,6.0,6.0,6.0,1.0,cardinal_07s.jpg,0.0,Blue.png,2.0,23,,,,,,,,,,,,,,,,,
0.0,1.0,0.738,0.0,7.0,7.0,7.0,1.0,lion_18s.jpg,0.0,Purple.png,2.0,23,,,,,,,,,,,,,,,,,
0.0,1.0,0.632,0.0,8.0,8.0,8.0,1.0,comic_book_02s.jpg,0.0,Red.png,2.0,23,,,,,,,,,,,,,,,,,
0.0,1.0,0.697,0.0,9.0,9.0,9.0,1.0,lizard_10n.jpg,0.0,Orange.png,2.0,23,,,,,,,,,,,,,,,,,
0.0,1.0,0.862,0.0,10.0,10.0,10.0,1.0,rice_12s.jpg,0.0,Yellow.png,2.0,23,,,,,,,,,,,,,,,,,
0.0,1.0,1.071,0.0,11.0,11.0,11.0,1.0,bagel_15s.jpg,0.0,Green.png,2.0,23,,,,,,,,,,,,,,,,,
0.0,1.0,0.759,0.0,12.0,12.0,12.0,1.0,recliner_02s.jpg,0.0,Blue.png,3.0,23,,,,,,,,,,,,,,,,,
1.0,0.0,0.953,0.0,13.0,13.0,13.0,1.0,recliner_02s.jpg,0.0,Purple.png,3.0,23,,,,,,,,,,,,,,,,,
0.0,1.0,0.733,0.0,14.0,14.0,14.0,1.0,luggage_08s.jpg,0.0,Red.png,3.0,23,,,,,,,,,,,,,,,,,
1.0,1.0,0.752,0.0,15.0,15.0,15.0,1.0,recliner_02s.jpg,1.0,Orange.png,3.0,23,,,,,,,,,,,,,,,,,
0.0,1.0,0.727,0.0,16.0,16.0,16.0,1.0,onion_10s.jpg,0.0,Yellow.png,3.0,23,,,,,,,,,,,,,,,,,
0.0,1.0,0.667,0.0,17.0,17.0,17.0,1.0,rosary_03s.jpg,0.0,Green.png,3.0,23,,,,,,,,,,,,,,,,,
0.0,1.0,0.797,0.0,18.0,18.0,18.0,1.0,smokingpipe.jpg,0.0,Blue.png,4.0,23,,,,,,,,,,,,,,,,,
0.0,1.0,0.611,0.0,19.0,19.0,19.0,1.0,roulette_wheel_04s.jpg,0.0,Purple.png,4.0,23,,,,,,,,,,,,,,,,,
1.0,1.0,0.918,0.0,20.0,20.0,20.0,1.0,smokingpipe.jpg,1.0,Red.png,4.0,23,,,,,,,,,,,,,,,,,
0.0,1.0,0.649,0.0,21.0,21.0,21.0,1.0,orchid_01b.jpg,0.0,Orange.png,4.0,23,,,,,,,,,,,,,,,,,
0.0,1.0,0.684,0.0,22.0,22.0,22.0,1.0,buoy_04s.jpg,0.0,Yellow.png,4.0,23,,,,,,,,,,,,,,,,,
0.0,1.0,0.527,0.0,23.0,23.0,23.0,1.0,stopwatch_04s.jpg,0.0,Green.png,4.0,23,,,,,,,,,,,,,,,,,
0.0,1.0,0.583,0.0,24.0,24.0,24.0,1.0,knitting_needle_04s.jpg,0.0,Blue.png,5.0,23,,,,,,,,,,,,,,,,,
0.0,1.0,0.6,0.0,25.0,25.0,25.0,1.0,prism_10s.jpg,0.0,Purple.png,5.0,23,,,,,,,,,,,,,,,,,
0.0,1.0,0.67,0.0,26.0,26.0,26.0,1.0,teapot_03s.jpg,0.0,Red.png,5.0,23,,,,,,,,,,,,,,,,,
0.0,1.0,0.576,0.0,27.0,27.0,27.0,1.0,fire_pit_10s.jpg,0.0,Orange.png,5.0,23,,,,,,,,,,,,,,,,,
1.0,0.0,1.43,0.0,28.0,28.0,28.0,1.0,fire_pit_10s.jpg,0.0,Yellow.png,5.0,23,,,,,,,,,,,,,,,,,
1.0,1.0,1.291,0.0,29.0,29.0,29.0,1.0,fire_pit_10s.jpg,1.0,Green.png,5.0,23,,,,,,,,,,,,,,,,,
0.0,1.0,0.51,0.0,30.0,30.0,30.0,1.0,ironing_board_07s.jpg,0.0,Blue.png,6.0,23,,,,,,,,,,,,,,,,,
1.0,1.0,0.864,0.0,31.0,31.0,31.0,1.0,fire_pit_10s.jpg,1.0,Purple.png,6.0,23,,,,,,,,,,,,,,,,,
0.0,1.0,0.773,0.0,32.0,32.0,32.0,1.0,mattress_01s.jpg,0.0,Red.png,6.0,23,,,,,,,,,,,,,,,,,
1.0,1.0,0.84,0.0,33.0,33.0,33.0,1.0,fire_pit_10s.jpg,1.0,Orange.png,6.0,23,,,,,,,,,,,,,,,,,
1.0,1.0,1.005,0.0,34.0,34.0,34.0,1.0,mattress_01s.jpg,1.0,Yellow.png,6.0,23,,,,,,,,,,,,,,,,,
0.0,1.0,0.847,0.0,35.0,35.0,35.0,1.0,ice-cream_cone_06s.jpg,0.0,Green.png,6.0,23,,,,,,,,,,,,,,,,,
,,,,,,,,,1.0,,,23,0.0,0.0,1.801,0.0,0.0,0.0,0.0,1.0,roulette_wheel_04s.jpg,buoy_04s.jpg,,,,,,,
,,,,,,,,,0.0,,,23,1.0,0.0,1.282,0.0,1.0,1.0,1.0,1.0,lion_18s.jpg,potholder_02s.jpg,,,,,,,
,,,,,,,,,0.0,,,23,0.0,1.0,2.312,0.0,2.0,2.0,2.0,1.0,bagel_15s.jpg,comic_book_02s.jpg,,,,,,,
,,,,,,,,,1.0,,,23,1.0,1.0,2.021,0.0,3.0,3.0,3.0,1.0,stopwatch_04s.jpg,teapot_03s.jpg,,,,,,,
,,,,,,,,,1.0,,,23,1.0,1.0,1.425,0.0,4.0,4.0,4.0,1.0,luggage_08s.jpg,rosary_03s.jpg,,,,,,,
,,,,,,,,,1.0,,,23,1.0,1.0,1.649,0.0,5.0,5.0,5.0,1.0,orchid_01b.jpg,knitting_needle_04s.jpg,,,,,,,
,,,,,,,,,,,,23,,,,,,,,,,,0.0,2.0,2.0,2.0,1.0,new2backpresent_3_4.xlsx,new2back_compare_task_3_4.xlsx
0.0,1.0,1.117,0.0,0.0,0.0,0.0,1.0,smoothie_09s.jpg,0.0,Blue.png,1.0,23,,,,,,,,,,,,,,,,,
0.0,1.0,0.494,0.0,1.0,1.0,1.0,1.0,raspberry_12s.jpg,0.0,Purple.png,1.0,23,,,,,,,,,,,,,,,,,
1.0,0.0,1.485,0.0,2.0,2.0,2.0,1.0,raspberry_12s.jpg,0.0,Red.png,1.0,23,,,,,,,,,,,,,,,,,
0.0,1.0,0.594,0.0,3.0,3.0,3.0,1.0,lamb_chop_07s.jpg,0.0,Orange.png,1.0,23,,,,,,,,,,,,,,,,,
1.0,0.0,1.143,0.0,4.0,4.0,4.0,1.0,smoothie_09s.jpg,0.0,Yellow.png,1.0,23,,,,,,,,,,,,,,,,,
1.0,0.0,1.004,0.0,5.0,5.0,5.0,1.0,raspberry_12s.jpg,0.0,Green.png,1.0,23,,,,,,,,,,,,,,,,,
0.0,1.0,0.588,0.0,6.0,6.0,6.0,1.0,lava_02s.jpg,0.0,Blue.png,2.0,23,,,,,,,,,,,,,,,,,
0.0,1.0,1.044,0.0,7.0,7.0,7.0,1.0,trident_07s.jpg,0.0,Purple.png,2.0,23,,,,,,,,,,,,,,,,,
1.0,0.0,1.172,0.0,8.0,8.0,8.0,1.0,trident_07s.jpg,0.0,Red.png,2.0,23,,,,,,,,,,,,,,,,,
1.0,1.0,0.954,0.0,9.0,9.0,9.0,1.0,trident_07s.jpg,1.0,Orange.png,2.0,23,,,,,,,,,,,,,,,,,
0.0,1.0,0.62,0.0,10.0,10.0,10.0,1.0,orangutan_03s.jpg,0.0,Yellow.png,2.0,23,,,,,,,,,,,,,,,,,
1.0,1.0,0.833,0.0,11.0,11.0,11.0,1.0,trident_07s.jpg,1.0,Green.png,2.0,23,,,,,,,,,,,,,,,,,
1.0,0.0,1.191,0.0,12.0,12.0,12.0,1.0,raspberry_12s.jpg,0.0,Blue.png,3.0,23,,,,,,,,,,,,,,,,,
1.0,1.0,0.777,0.0,13.0,13.0,13.0,1.0,trident_07s.jpg,1.0,Purple.png,3.0,23,,,,,,,,,,,,,,,,,
0.0,1.0,0.605,0.0,14.0,14.0,14.0,1.0,lavender_10s.jpg,0.0,Red.png,3.0,23,,,,,,,,,,,,,,,,,
0.0,1.0,0.994,0.0,15.0,15.0,15.0,1.0,chip_04s.jpg,0.0,Orange.png,3.0,23,,,,,,,,,,,,,,,,,
0.0,1.0,0.757,0.0,16.0,16.0,16.0,1.0,lamb_04s.jpg,0.0,Yellow.png,3.0,23,,,,,,,,,,,,,,,,,
0.0,1.0,0.681,0.0,17.0,17.0,17.0,1.0,emerald_02s.jpg,0.0,Green.png,3.0,23,,,,,,,,,,,,,,,,,
0.0,1.0,0.779,0.0,18.0,18.0,18.0,1.0,pineapple_12s.jpg,0.0,Blue.png,4.0,23,,,,,,,,,,,,,,,,,
0.0,1.0,0.642,0.0,19.0,19.0,19.0,1.0,sundae_08s.jpg,0.0,Purple.png,4.0,23,,,,,,,,,,,,,,,,,
1.0,0.0,0.932,0.0,20.0,20.0,20.0,1.0,sundae_08s.jpg,0.0,Red.png,4.0,23,,,,,,,,,,,,,,,,,
0.0,1.0,0.68,0.0,21.0,21.0,21.0,1.0,squirrel_02s.jpg,0.0,Orange.png,4.0,23,,,,,,,,,,,,,,,,,
0.0,1.0,0.543,0.0,22.0,22.0,22.0,1.0,roller_coaster_07s.jpg,0.0,Yellow.png,4.0,23,,,,,,,,,,,,,,,,,
1.0,0.0,0.977,0.0,23.0,23.0,23.0,1.0,sundae_08s.jpg,0.0,Green.png,4.0,23,,,,,,,,,,,,,,,,,
0.0,1.0,0.581,0.0,24.0,24.0,24.0,1.0,tweezers_03s.jpg,0.0,Blue.png,5.0,23,,,,,,,,,,,,,,,,,
1.0,1.0,0.824,0.0,25.0,25.0,25.0,1.0,sundae_08s.jpg,1.0,Purple.png,5.0,23,,,,,,,,,,,,,,,,,
0.0,1.0,0.634,0.0,26.0,26.0,26.0,1.0,rudder_02s.jpg,0.0,Red.png,5.0,23,,,,,,,,,,,,,,,,,
0.0,1.0,0.626,0.0,27.0,27.0,27.0,1.0,rake_06s.jpg,0.0,Orange.png,5.0,23,,,,,,,,,,,,,,,,,
1.0,0.0,0.868,0.0,28.0,28.0,28.0,1.0,rake_06s.jpg,0.0,Yellow.png,5.0,23,,,,,,,,,,,,,,,,,
1.0,1.0,0.811,0.0,29.0,29.0,29.0,1.0,rake_06s.jpg,1.0,Green.png,5.0,23,,,,,,,,,,,,,,,,,
0.0,1.0,0.556,0.0,30.0,30.0,30.0,1.0,cap_05s.jpg,0.0,Blue.png,6.0,23,,,,,,,,,,,,,,,,,
0.0,1.0,0.738,0.0,31.0,31.0,31.0,1.0,paper_towel_03s.jpg,0.0,Purple.png,6.0,23,,,,,,,,,,,,,,,,,
0.0,1.0,0.754,0.0,32.0,32.0,32.0,1.0,toaster_03s.jpg,0.0,Red.png,6.0,23,,,,,,,,,,,,,,,,,
0.0,1.0,0.681,0.0,33.0,33.0,33.0,1.0,money_07s.jpg,0.0,Orange.png,6.0,23,,,,,,,,,,,,,,,,,
0.0,1.0,0.619,0.0,34.0,34.0,34.0,1.0,pinwheel_06s.jpg,0.0,Yellow.png,6.0,23,,,,,,,,,,,,,,,,,
0.0,1.0,0.496,0.0,35.0,35.0,35.0,1.0,lid_10s.jpg,0.0,Green.png,6.0,23,,,,,,,,,,,,,,,,,
,,,,,,,,,0.0,,,23,0.0,1.0,2.828,0.0,0.0,0.0,0.0,1.0,tweezers_03s.jpg,squirrel_02s.jpg,,,,,,,
,,,,,,,,,1.0,,,23,1.0,1.0,1.016,0.0,1.0,1.0,1.0,1.0,chip_04s.jpg,pineapple_12s.jpg,,,,,,,
,,,,,,,,,1.0,,,23,0.0,0.0,1.592,0.0,2.0,2.0,2.0,1.0,lamb_chop_07s.jpg,lava_02s.jpg,,,,,,,
,,,,,,,,,0.0,,,23,0.0,1.0,1.093,0.0,3.0,3.0,3.0,1.0,pinwheel_06s.jpg,paper_towel_03s.jpg,,,,,,,
,,,,,,,,,0.0,,,23,0.0,1.0,1.522,0.0,4.0,4.0,4.0,1.0,emerald_02s.jpg,lavender_10s.jpg,,,,,,,
,,,,,,,,,0.0,,,23,1.0,0.0,2.302,0.0,5.0,5.0,5.0,1.0,money_07s.jpg,cap_05s.jpg,,,,,,,
,,,,,,,,,,,,23,,,,,,,,,,,0.0,3.0,3.0,3.0,1.0,new2backpresent_4_4.xlsx,new2back_compare_task_4_4.xlsx
0.0,1.0,0.98,0.0,0.0,0.0,0.0,1.0,fur_coat_11s.jpg,0.0,Blue.png,1.0,23,,,,,,,,,,,,,,,,,
0.0,1.0,0.627,0.0,1.0,1.0,1.0,1.0,crayon_09s.jpg,0.0,Purple.png,1.0,23,,,,,,,,,,,,,,,,,
0.0,1.0,0.629,0.0,2.0,2.0,2.0,1.0,cobra_05s.jpg,0.0,Red.png,1.0,23,,,,,,,,,,,,,,,,,
0.0,1.0,0.698,0.0,3.0,3.0,3.0,1.0,raccoon_02s.jpg,0.0,Orange.png,1.0,23,,,,,,,,,,,,,,,,,
0.0,1.0,0.669,0.0,4.0,4.0,4.0,1.0,soda_fountain_03s.jpg,0.0,Yellow.png,1.0,23,,,,,,,,,,,,,,,,,
1.0,1.0,0.946,0.0,5.0,5.0,5.0,1.0,raccoon_02s.jpg,1.0,Green.png,1.0,23,,,,,,,,,,,,,,,,,
0.0,1.0,0.661,0.0,6.0,6.0,6.0,1.0,feather02.jpg,0.0,Blue.png,2.0,23,,,,,,,,,,,,,,,,,
1.0,1.0,1.785,0.0,7.0,7.0,7.0,1.0,raccoon_02s.jpg,1.0,Purple.png,2.0,23,,,,,,,,,,,,,,,,,
1.0,1.0,0.927,0.0,8.0,8.0,8.0,1.0,feather02.jpg,1.0,Red.png,2.0,23,,,,,,,,,,,,,,,,,
0.0,1.0,0.626,0.0,9.0,9.0,9.0,1.0,rug_09s.jpg,0.0,Orange.png,2.0,23,,,,,,,,,,,,,,,,,
0.0,0.0,1.528,0.0,10.0,10.0,10.0,1.0,feather02.jpg,1.0,Yellow.png,2.0,23,,,,,,,,,,,,,,,,,
0.0,1.0,0.679,0.0,11.0,11.0,11.0,1.0,cushion_08s.jpg,0.0,Green.png,2.0,23,,,,,,,,,,,,,,,,,
1.0,1.0,0.956,0.0,12.0,12.0,12.0,1.0,feather02.jpg,1.0,Blue.png,3.0,23,,,,,,,,,,,,,,,,,
0.0,1.0,1.04,0.0,13.0,13.0,13.0,1.0,feather02.jpg,0.0,Purple.png,3.0,23,,,,,,,,,,,,,,,,,
0.0,1.0,0.618,0.0,14.0,14.0,14.0,1.0,ice_pack_09s.jpg,0.0,Red.png,3.0,23,,,,,,,,,,,,,,,,,
1.0,0.0,0.985,0.0,15.0,15.0,15.0,1.0,ice_pack_09s.jpg,0.0,Orange.png,3.0,23,,,,,,,,,,,,,,,,,
0.0,1.0,0.605,0.0,16.0,16.0,16.0,1.0,loom_05s.jpg,0.0,Yellow.png,3.0,23,,,,,,,,,,,,,,,,,
1.0,1.0,1.217,0.0,17.0,17.0,17.0,1.0,ice_pack_09s.jpg,1.0,Green.png,3.0,23,,,,,,,,,,,,,,,,,
1.0,0.0,1.781,0.0,18.0,18.0,18.0,1.0,ice_pack_09s.jpg,0.0,Blue.png,4.0,23,,,,,,,,,,,,,,,,,
0.0,0.0,0.952,0.0,19.0,19.0,19.0,1.0,ice_pack_09s.jpg,1.0,Purple.png,4.0,23,,,,,,,,,,,,,,,,,
0.0,0.0,0.91,0.0,20.0,20.0,20.0,1.0,ice_pack_09s.jpg,1.0,Red.png,4.0,23,,,,,,,,,,,,,,,,,
0.0,1.0,0.863,0.0,21.0,21.0,21.0,1.0,blazer_02s.jpg,0.0,Orange.png,4.0,23,,,,,,,,,,,,,,,,,
0.0,1.0,0.76,0.0,22.0,22.0,22.0,1.0,penlight_12s.jpg,0.0,Yellow.png,4.0,23,,,,,,,,,,,,,,,,,
0.0,1.0,0.81,0.0,23.0,23.0,23.0,1.0,swan_11s.jpg,0.0,Green.png,4.0,23,,,,,,,,,,,,,,,,,
0.0,1.0,0.782,0.0,24.0,24.0,24.0,1.0,plunger_08s.jpg,0.0,Blue.png,5.0,23,,,,,,,,,,,,,,,,,
0.0,1.0,0.594,0.0,25.0,25.0,25.0,1.0,bottle_opener_11s.jpg,0.0,Purple.png,5.0,23,,,,,,,,,,,,,,,,,
0.0,1.0,0.534,0.0,26.0,26.0,26.0,1.0,checkbook_11s.jpg,0.0,Red.png,5.0,23,,,,,,,,,,,,,,,,,
0.0,1.0,0.647,0.0,27.0,27.0,27.0,1.0,ink_08s.jpg,0.0,Orange.png,5.0,23,,,,,,,,,,,,,,,,,
1.0,0.0,2.044,0.0,28.0,28.0,28.0,1.0,plunger_08s.jpg,0.0,Yellow.png,5.0,23,,,,,,,,,,,,,,,,,
0.0,1.0,0.639,0.0,29.0,29.0,29.0,1.0,pencil02a.jpg,0.0,Green.png,5.0,23,,,,,,,,,,,,,,,,,
0.0,1.0,0.598,0.0,30.0,30.0,30.0,1.0,ginger_09s.jpg,0.0,Blue.png,6.0,23,,,,,,,,,,,,,,,,,
0.0,1.0,0.598,0.0,31.0,31.0,31.0,1.0,taxi_15s.jpg,0.0,Purple.png,6.0,23,,,,,,,,,,,,,,,,,
0.0,1.0,0.527,0.0,32.0,32.0,32.0,1.0,toy_04s.jpg,0.0,Red.png,6.0,23,,,,,,,,,,,,,,,,,
0.0,1.0,0.96,0.0,33.0,33.0,33.0,1.0,blowfish_03s.jpg,0.0,Orange.png,6.0,23,,,,,,,,,,,,,,,,,
0.0,1.0,0.534,0.0,34.0,34.0,34.0,1.0,toilet_paper_12s.jpg,0.0,Yellow.png,6.0,23,,,,,,,,,,,,,,,,,
0.0,1.0,0.486,0.0,35.0,35.0,35.0,1.0,puddle_02s.jpg,0.0,Green.png,6.0,23,,,,,,,,,,,,,,,,,
,,,,,,,,,1.0,,,23,0.0,0.0,2.134,0.0,0.0,0.0,0.0,1.0,ink_08s.jpg,ginger_09s.jpg,,,,,,,
,,,,,,,,,0.0,,,23,0.0,1.0,1.843,0.0,1.0,1.0,1.0,1.0,puddle_02s.jpg,toy_04s.jpg,,,,,,,
,,,,,,,,,0.0,,,23,0.0,1.0,1.201,0.0,2.0,2.0,2.0,1.0,bottle_opener_11s.jpg,penlight_12s.jpg,,,,,,,
,,,,,,,,,0.0,,,23,0.0,1.0,1.278,0.0,3.0,3.0,3.0,1.0,checkbook_11s.jpg,swan_11s.jpg,,,,,,,
,,,,,,,,,1.0,,,23,1.0,1.0,1.606,0.0,4.0,4.0,4.0,1.0,taxi_15s.jpg,toilet_paper_12s.jpg,,,,,,,
,,,,,,,,,1.0,,,23,0.0,0.0,1.34,0.0,5.0,5.0,5.0,1.0,crayon_09s.jpg,soda_fountain_03s.jpg,,,,,,,
,,,,,,,,,,,,23,,,,,,,,,,,0.0,4.0,4.0,4.0,1.0,new2backpresent_5_4.xlsx,new2back_compare_task_5_4.xlsx
0.0,1.0,1.359,0.0,0.0,0.0,0.0,1.0,flask_04s.jpg,0.0,Blue.png,1.0,23,,,,,,,,,,,,,,,,,
0.0,1.0,0.506,0.0,1.0,1.0,1.0,1.0,kimono_13s.jpg,0.0,Purple.png,1.0,23,,,,,,,,,,,,,,,,,
0.0,1.0,0.7,0.0,2.0,2.0,2.0,1.0,limousine_12s.jpg,0.0,Red.png,1.0,23,,,,,,,,,,,,,,,,,
0.0,1.0,0.721,0.0,3.0,3.0,3.0,1.0,lectern_08s.jpg,0.0,Orange.png,1.0,23,,,,,,,,,,,,,,,,,
1.0,0.0,1.076,0.0,4.0,4.0,4.0,1.0,kimono_13s.jpg,0.0,Yellow.png,1.0,23,,,,,,,,,,,,,,,,,
0.0,1.0,0.616,0.0,5.0,5.0,5.0,1.0,doily_13s.jpg,0.0,Green.png,1.0,23,,,,,,,,,,,,,,,,,
1.0,1.0,0.701,0.0,6.0,6.0,6.0,1.0,kimono_13s.jpg,1.0,Blue.png,2.0,23,,,,,,,,,,,,,,,,,
0.0,1.0,0.784,0.0,7.0,7.0,7.0,1.0,razor_blade_01b.jpg,0.0,Purple.png,2.0,23,,,,,,,,,,,,,,,,,
1.0,0.0,1.123,0.0,8.0,8.0,8.0,1.0,razor_blade_01b.jpg,0.0,Red.png,2.0,23,,,,,,,,,,,,,,,,,
0.0,1.0,0.551,0.0,9.0,9.0,9.0,1.0,champagne_18s.jpg,0.0,Orange.png,2.0,23,,,,,,,,,,,,,,,,,
0.0,1.0,0.605,0.0,10.0,10.0,10.0,1.0,stamp1_11s.jpg,0.0,Yellow.png,2.0,23,,,,,,,,,,,,,,,,,
1.0,1.0,0.911,0.0,11.0,11.0,11.0,1.0,champagne_18s.jpg,1.0,Green.png,2.0,23,,,,,,,,,,,,,,,,,
0.0,1.0,0.66,0.0,12.0,12.0,12.0,1.0,crossbow_10s.jpg,0.0,Blue.png,3.0,23,,,,,,,,,,,,,,,,,
0.0,1.0,0.585,0.0,13.0,13.0,13.0,1.0,briefcase_03s.jpg,0.0,Purple.png,3.0,23,,,,,,,,,,,,,,,,,
0.0,1.0,0.555,0.0,14.0,14.0,14.0,1.0,jersey_02s.jpg,0.0,Red.png,3.0,23,,,,,,,,,,,,,,,,,
1.0,1.0,1.055,0.0,15.0,15.0,15.0,1.0,briefcase_03s.jpg,1.0,Orange.png,3.0,23,,,,,,,,,,,,,,,,,
0.0,1.0,0.547,0.0,16.0,16.0,16.0,1.0,oil_02s.jpg,0.0,Yellow.png,3.0,23,,,,,,,,,,,,,,,,,
0.0,1.0,1.178,0.0,17.0,17.0,17.0,1.0,tinsel_12s.jpg,0.0,Green.png,3.0,23,,,,,,,,,,,,,,,,,
1.0,0.0,0.906,0.0,18.0,18.0,18.0,1.0,flask_04s.jpg,0.0,Blue.png,4.0,23,,,,,,,,,,,,,,,,,
0.0,1.0,0.671,0.0,19.0,19.0,19.0,1.0,fork_04s.jpg,0.0,Purple.png,4.0,23,,,,,,,,,,,,,,,,,
0.0,1.0,0.629,0.0,20.0,20.0,20.0,1.0,purse_05s.jpg,0.0,Red.png,4.0,23,,,,,,,,,,,,,,,,,
1.0,0.0,0.871,0.0,21.0,21.0,21.0,1.0,flask_04s.jpg,0.0,Orange.png,4.0,23,,,,,,,,,,,,,,,,,
0.0,1.0,0.555,0.0,22.0,22.0,22.0,1.0,sledgehammer_03s.jpg,0.0,Yellow.png,4.0,23,,,,,,,,,,,,,,,,,
0.0,1.0,0.593,0.0,23.0,23.0,23.0,1.0,turf_03s.jpg,0.0,Green.png,4.0,23,,,,,,,,,,,,,,,,,
0.0,1.0,0.85,0.0,24.0,24.0,24.0,1.0,omelet_07s.jpg,0.0,Blue.png,5.0,23,,,,,,,,,,,,,,,,,
1.0,1.0,0.822,0.0,25.0,25.0,25.0,1.0,turf_03s.jpg,1.0,Purple.png,5.0,23,,,,,,,,,,,,,,,,,
0.0,1.0,0.635,0.0,26.0,26.0,26.0,1.0,clover_04s.jpg,0.0,Red.png,5.0,23,,,,,,,,,,,,,,,,,
0.0,1.0,1.137,0.0,27.0,27.0,27.0,1.0,lip_gloss_06s.jpg,0.0,Orange.png,5.0,23,,,,,,,,,,,,,,,,,
0.0,1.0,0.755,0.0,28.0,28.0,28.0,1.0,amber_04s.jpg,0.0,Yellow.png,5.0,23,,,,,,,,,,,,,,,,,
0.0,1.0,0.713,0.0,29.0,29.0,29.0,1.0,tortilla_06s.jpg,0.0,Green.png,5.0,23,,,,,,,,,,,,,,,,,
1.0,0.0,0.907,0.0,30.0,30.0,30.0,1.0,razor_blade_01b.jpg,0.0,Blue.png,6.0,23,,,,,,,,,,,,,,,,,
0.0,1.0,0.56,0.0,31.0,31.0,31.0,1.0,tape_measure_11s.jpg,0.0,Purple.png,6.0,23,,,,,,,,,,,,,,,,,
1.0,1.0,0.818,0.0,32.0,32.0,32.0,1.0,razor_blade_01b.jpg,1.0,Red.png,6.0,23,,,,,,,,,,,,,,,,,
1.0,0.0,0.681,0.0,33.0,33.0,33.0,1.0,razor_blade_01b.jpg,0.0,Orange.png,6.0,23,,,,,,,,,,,,,,,,,
0.0,1.0,0.492,0.0,34.0,34.0,34.0,1.0,stingray_02s.jpg,0.0,Yellow.png,6.0,23,,,,,,,,,,,,,,,,,
0.0,1.0,0.656,0.0,35.0,35.0,35.0,1.0,harpoon.jpg,0.0,Green.png,6.0,23,,,,,,,,,,,,,,,,,
,,,,,,,,,1.0,,,23,1.0,1.0,2.319,0.0,0.0,0.0,0.0,1.0,oil_02s.jpg,fork_04s.jpg,,,,,,,
,,,,,,,,,0.0,,,23,0.0,1.0,1.154,0.0,1.0,1.0,1.0,1.0,doily_13s.jpg,limousine_12s.jpg,,,,,,,
,,,,,,,,,0.0,,,23,0.0,1.0,1.074,0.0,2.0,2.0,2.0,1.0,lip_gloss_06s.jpg,omelet_07s.jpg,,,,,,,
,,,,,,,,,0.0,,,23,0.0,1.0,2.302,0.0,3.0,3.0,3.0,1.0,tape_measure_11s.jpg,amber_04s.jpg,,,,,,,
,,,,,,,,,0.0,,,23,0.0,1.0,1.342,0.0,4.0,4.0,4.0,1.0,tortilla_06s.jpg,clover_04s.jpg,,,,,,,
,,,,,,,,,0.0,,,23,0.0,1.0,1.134,0.0,5.0,5.0,5.0,1.0,purse_05s.jpg,tinsel_12s.jpg,,,,,,,
,,,,,,,,,,,,23,,,,,,,,,,,0.0,5.0,5.0,5.0,1.0,new2backpresent_6_4.xlsx,new2back_compare_task_6_4.xlsx
0.0,1.0,1.103,0.0,0.0,0.0,0.0,1.0,butter_14s.jpg,0.0,Blue.png,1.0,23,,,,,,,,,,,,,,,,,
,0.0,,0.0,1.0,1.0,1.0,1.0,butter_14s.jpg,0.0,Purple.png,1.0,23,,,,,,,,,,,,,,,,,
1.0,1.0,0.915,0.0,2.0,2.0,2.0,1.0,butter_14s.jpg,1.0,Red.png,1.0,23,,,,,,,,,,,,,,,,,
0.0,1.0,0.597,0.0,3.0,3.0,3.0,1.0,stamp2_08s.jpg,0.0,Orange.png,1.0,23,,,,,,,,,,,,,,,,,
0.0,1.0,0.747,0.0,4.0,4.0,4.0,1.0,kangaroo_02s.jpg,0.0,Yellow.png,1.0,23,,,,,,,,,,,,,,,,,
0.0,1.0,0.543,0.0,5.0,5.0,5.0,1.0,camcorder_10s.jpg,0.0,Green.png,1.0,23,,,,,,,,,,,,,,,,,
0.0,1.0,0.53,0.0,6.0,6.0,6.0,1.0,bank_06s.jpg,0.0,Blue.png,2.0,23,,,,,,,,,,,,,,,,,
0.0,1.0,0.66,0.0,7.0,7.0,7.0,1.0,gear_07s.jpg,0.0,Purple.png,2.0,23,,,,,,,,,,,,,,,,,
1.0,1.0,0.889,0.0,8.0,8.0,8.0,1.0,bank_06s.jpg,1.0,Red.png,2.0,23,,,,,,,,,,,,,,,,,
0.0,1.0,0.558,0.0,9.0,9.0,9.0,1.0,funnel_01b.jpg,0.0,Orange.png,2.0,23,,,,,,,,,,,,,,,,,
0.0,1.0,0.769,0.0,10.0,10.0,10.0,1.0,poinsettia_04s.jpg,0.0,Yellow.png,2.0,23,,,,,,,,,,,,,,,,,
1.0,1.0,0.852,0.0,11.0,11.0,11.0,1.0,funnel_01b.jpg,1.0,Green.png,2.0,23,,,,,,,,,,,,,,,,,
0.0,1.0,0.873,0.0,12.0,12.0,12.0,1.0,rooster_03s.jpg,0.0,Blue.png,3.0,23,,,,,,,,,,,,,,,,,
0.0,1.0,0.75,0.0,13.0,13.0,13.0,1.0,denture_03s.jpg,0.0,Purple.png,3.0,23,,,,,,,,,,,,,,,,,
0.0,1.0,0.705,0.0,14.0,14.0,14.0,1.0,bean_06s.jpg,0.0,Red.png,3.0,23,,,,,,,,,,,,,,,,,
0.0,1.0,0.759,0.0,15.0,15.0,15.0,1.0,mud_13s.jpg,0.0,Orange.png,3.0,23,,,,,,,,,,,,,,,,,
0.0,1.0,0.585,0.0,16.0,16.0,16.0,1.0,keyhole_03s.jpg,0.0,Yellow.png,3.0,23,,,,,,,,,,,,,,,,,
1.0,0.0,0.928,0.0,17.0,17.0,17.0,1.0,bean_06s.jpg,0.0,Green.png,3.0,23,,,,,,,,,,,,,,,,,
1.0,0.0,1.281,0.0,18.0,18.0,18.0,1.0,bank_06s.jpg,0.0,Blue.png,4.0,23,,,,,,,,,,,,,,,,,
0.0,1.0,0.563,0.0,19.0,19.0,19.0,1.0,pomegranate_04s.jpg,0.0,Purple.png,4.0,23,,,,,,,,,,,,,,,,,
0.0,1.0,0.682,0.0,20.0,20.0,20.0,1.0,chopsticks_08s.jpg,0.0,Red.png,4.0,23,,,,,,,,,,,,,,,,,
0.0,1.0,0.573,0.0,21.0,21.0,21.0,1.0,contact_lens_15s.jpg,0.0,Orange.png,4.0,23,,,,,,,,,,,,,,,,,
0.0,1.0,0.676,0.0,22.0,22.0,22.0,1.0,hydrant_10s.jpg,0.0,Yellow.png,4.0,23,,,,,,,,,,,,,,,,,
0.0,1.0,0.58,0.0,23.0,23.0,23.0,1.0,gingerbread_man_03s.jpg,0.0,Green.png,4.0,23,,,,,,,,,,,,,,,,,
1.0,0.0,1.257,0.0,24.0,24.0,24.0,1.0,camcorder_10s.jpg,0.0,Blue.png,5.0,23,,,,,,,,,,,,,,,,,
0.0,1.0,0.652,0.0,25.0,25.0,25.0,1.0,teabag_12s.jpg,0.0,Purple.png,5.0,23,,,,,,,,,,,,,,,,,
0.0,1.0,0.498,0.0,26.0,26.0,26.0,1.0,radiator_05s.jpg,0.0,Red.png,5.0,23,,,,,,,,,,,,,,,,,
0.0,1.0,0.515,0.0,27.0,27.0,27.0,1.0,punch1_10s.jpg,0.0,Orange.png,5.0,23,,,,,,,,,,,,,,,,,
0.0,1.0,0.54,0.0,28.0,28.0,28.0,1.0,mailbox_11s.jpg,0.0,Yellow.png,5.0,23,,,,,,,,,,,,,,,,,
0.0,1.0,0.604,0.0,29.0,29.0,29.0,1.0,beaker_01b.jpg,0.0,Green.png,5.0,23,,,,,,,,,,,,,,,,,
1.0,1.0,0.96,0.0,30.0,30.0,30.0,1.0,mailbox_11s.jpg,1.0,Blue.png,6.0,23,,,,,,,,,,,,,,,,,
0.0,1.0,0.594,0.0,31.0,31.0,31.0,1.0,pipe1_10s.jpg,0.0,Purple.png,6.0,23,,,,,,,,,,,,,,,,,
1.0,1.0,0.888,0.0,32.0,32.0,32.0,1.0,mailbox_11s.jpg,1.0,Red.png,6.0,23,,,,,,,,,,,,,,,,,
1.0,1.0,0.814,0.0,33.0,33.0,33.0,1.0,pipe1_10s.jpg,1.0,Orange.png,6.0,23,,,,,,,,,,,,,,,,,
0.0,1.0,0.687,0.0,34.0,34.0,34.0,1.0,eyedropper_12s.jpg,0.0,Yellow.png,6.0,23,,,,,,,,,,,,,,,,,
0.0,1.0,0.532,0.0,35.0,35.0,35.0,1.0,rhubarb_03s.jpg,0.0,Green.png,6.0,23,,,,,,,,,,,,,,,,,
,,,,,,,,,0.0,,,23,0.0,1.0,1.432,0.0,0.0,0.0,0.0,1.0,mud_13s.jpg,rooster_03s.jpg,,,,,,,
,,,,,,,,,1.0,,,23,1.0,1.0,1.453,0.0,1.0,1.0,1.0,1.0,chopsticks_08s.jpg,gingerbread_man_03s.jpg,,,,,,,
,,,,,,,,,0.0,,,23,0.0,1.0,1.182,0.0,2.0,2.0,2.0,1.0,beaker_01b.jpg,radiator_05s.jpg,,,,,,,
,,,,,,,,,0.0,,,23,0.0,1.0,1.161,0.0,3.0,3.0,3.0,1.0,teabag_12s.jpg,hydrant_10s.jpg,,,,,,,
,,,,,,,,,0.0,,,23,0.0,1.0,1.475,0.0,4.0,4.0,4.0,1.0,denture_03s.jpg,poinsettia_04s.jpg,,,,,,,
,,,,,,,,,1.0,,,23,0.0,0.0,1.877,0.0,5.0,5.0,5.0,1.0,kangaroo_02s.jpg,gear_07s.jpg,,,,,,,
,,,,,,,,,,,,23,,,,,,,,,,,0.0,6.0,6.0,6.0,1.0,new2backpresent_7_4.xlsx,new2back_compare_task_7_4.xlsx
0.0,1.0,0.98,0.0,0.0,0.0,0.0,1.0,lamppost_09s.jpg,0.0,Blue.png,1.0,23,,,,,,,,,,,,,,,,,
0.0,1.0,0.69,0.0,1.0,1.0,1.0,1.0,jewel_01b.jpg,0.0,Purple.png,1.0,23,,,,,,,,,,,,,,,,,
0.0,1.0,0.868,0.0,2.0,2.0,2.0,1.0,tuxedo_01b.jpg,0.0,Red.png,1.0,23,,,,,,,,,,,,,,,,,
0.0,1.0,0.761,0.0,3.0,3.0,3.0,1.0,flip_flop_03s.jpg,0.0,Orange.png,1.0,23,,,,,,,,,,,,,,,,,
0.0,1.0,0.684,0.0,4.0,4.0,4.0,1.0,medal_04s.jpg,0.0,Yellow.png,1.0,23,,,,,,,,,,,,,,,,,
1.0,1.0,1.2,0.0,5.0,5.0,5.0,1.0,flip_flop_03s.jpg,1.0,Green.png,1.0,23,,,,,,,,,,,,,,,,,
1.0,0.0,0.789,0.0,6.0,6.0,6.0,1.0,tuxedo_01b.jpg,0.0,Blue.png,2.0,23,,,,,,,,,,,,,,,,,
1.0,1.0,1.399,0.0,7.0,7.0,7.0,1.0,flip_flop_03s.jpg,1.0,Purple.png,2.0,23,,,,,,,,,,,,,,,,,
0.0,1.0,0.539,0.0,8.0,8.0,8.0,1.0,fireworks_18s.jpg,0.0,Red.png,2.0,23,,,,,,,,,,,,,,,,,
0.0,1.0,0.641,0.0,9.0,9.0,9.0,1.0,squirt_gun_03s.jpg,0.0,Orange.png,2.0,23,,,,,,,,,,,,,,,,,
1.0,0.0,0.676,0.0,10.0,10.0,10.0,1.0,flip_flop_03s.jpg,0.0,Yellow.png,2.0,23,,,,,,,,,,,,,,,,,
0.0,1.0,0.63,0.0,11.0,11.0,11.0,1.0,puffin_19s.jpg,0.0,Green.png,2.0,23,,,,,,,,,,,,,,,,,
1.0,0.0,1.162,0.0,12.0,12.0,12.0,1.0,tuxedo_01b.jpg,0.0,Blue.png,3.0,23,,,,,,,,,,,,,,,,,
1.0,0.0,2.369,0.0,13.0,13.0,13.0,1.0,tuxedo_01b.jpg,0.0,Purple.png,3.0,23,,,,,,,,,,,,,,,,,
0.0,1.0,0.499,0.0,14.0,14.0,14.0,1.0,snowman_02s.jpg,0.0,Red.png,3.0,23,,,,,,,,,,,,,,,,,
0.0,1.0,0.601,0.0,15.0,15.0,15.0,1.0,cucumber_07s.jpg,0.0,Orange.png,3.0,23,,,,,,,,,,,,,,,,,
0.0,1.0,0.618,0.0,16.0,16.0,16.0,1.0,plug_08s.jpg,0.0,Yellow.png,3.0,23,,,,,,,,,,,,,,,,,
1.0,1.0,0.978,0.0,17.0,17.0,17.0,1.0,cucumber_07s.jpg,1.0,Green.png,3.0,23,,,,,,,,,,,,,,,,,
1.0,0.0,0.868,0.0,18.0,18.0,18.0,1.0,puffin_19s.jpg,0.0,Blue.png,4.0,23,,,,,,,,,,,,,,,,,
0.0,1.0,0.503,0.0,19.0,19.0,19.0,1.0,fondue_07s.jpg,0.0,Purple.png,4.0,23,,,,,,,,,,,,,,,,,
0.0,1.0,0.543,0.0,20.0,20.0,20.0,1.0,lasagna_06s.jpg,0.0,Red.png,4.0,23,,,,,,,,,,,,,,,,,
0.0,1.0,0.461,0.0,21.0,21.0,21.0,1.0,eiffeltower.jpg,0.0,Orange.png,4.0,23,,,,,,,,,,,,,,,,,
0.0,1.0,0.469,0.0,22.0,22.0,22.0,1.0,outlet_10s.jpg,0.0,Yellow.png,4.0,23,,,,,,,,,,,,,,,,,
0.0,1.0,0.551,0.0,23.0,23.0,23.0,1.0,cape_11s.jpg,0.0,Green.png,4.0,23,,,,,,,,,,,,,,,,,
0.0,1.0,0.509,0.0,24.0,24.0,24.0,1.0,marshmallow_08s.jpg,0.0,Blue.png,5.0,23,,,,,,,,,,,,,,,,,
0.0,1.0,0.479,0.0,25.0,25.0,25.0,1.0,racehorse_03s.jpg,0.0,Purple.png,5.0,23,,,,,,,,,,,,,,,,,
0.0,1.0,0.548,0.0,26.0,26.0,26.0,1.0,aluminum_foil_08s.jpg,0.0,Red.png,5.0,23,,,,,,,,,,,,,,,,,
0.0,1.0,0.806,0.0,27.0,27.0,27.0,1.0,spoon02a.jpg,0.0,Orange.png,5.0,23,,,,,,,,,,,,,,,,,
0.0,1.0,0.541,0.0,28.0,28.0,28.0,1.0,padlock_07s.jpg,0.0,Yellow.png,5.0,23,,,,,,,,,,,,,,,,,
0.0,1.0,0.558,0.0,29.0,29.0,29.0,1.0,solar_panel_02s.jpg,0.0,Green.png,5.0,23,,,,,,,,,,,,,,,,,
0.0,1.0,1.188,0.0,30.0,30.0,30.0,1.0,turtleneck_11s.jpg,0.0,Blue.png,6.0,23,,,,,,,,,,,,,,,,,
0.0,1.0,0.566,0.0,31.0,31.0,31.0,1.0,pocketknife_12s.jpg,0.0,Purple.png,6.0,23,,,,,,,,,,,,,,,,,
1.0,0.0,1.051,0.0,32.0,32.0,32.0,1.0,pocketknife_12s.jpg,0.0,Red.png,6.0,23,,,,,,,,,,,,,,,,,
0.0,1.0,0.669,0.0,33.0,33.0,33.0,1.0,quill_09s.jpg,0.0,Orange.png,6.0,23,,,,,,,,,,,,,,,,,
1.0,0.0,1.121,0.0,34.0,34.0,34.0,1.0,quill_09s.jpg,0.0,Yellow.png,6.0,23,,,,,,,,,,,,,,,,,
1.0,0.0,0.81,0.0,35.0,35.0,35.0,1.0,pocketknife_12s.jpg,0.0,Green.png,6.0,23,,,,,,,,,,,,,,,,,
,,,,,,,,,0.0,,,23,0.0,1.0,3.271,0.0,0.0,0.0,0.0,1.0,cape_11s.jpg,lasagna_06s.jpg,,,,,,,
,,,,,,,,,0.0,,,23,1.0,0.0,2.291,0.0,1.0,1.0,1.0,1.0,padlock_07s.jpg,racehorse_03s.jpg,,,,,,,
,,,,,,,,,1.0,,,23,1.0,1.0,1.283,0.0,2.0,2.0,2.0,1.0,spoon02a.jpg,turtleneck_11s.jpg,,,,,,,
,,,,,,,,,0.0,,,23,0.0,1.0,1.158,0.0,3.0,3.0,3.0,1.0,marshmallow_08s.jpg,eiffeltower.jpg,,,,,,,
,,,,,,,,,0.0,,,23,0.0,1.0,1.22,0.0,4.0,4.0,4.0,1.0,medal_04s.jpg,jewel_01b.jpg,,,,,,,
,,,,,,,,,1.0,,,23,1.0,1.0,1.579,0.0,5.0,5.0,5.0,1.0,plug_08s.jpg,fondue_07s.jpg,,,,,,,
,,,,,,,,,,,,23,,,,,,,,,,,0.0,7.0,7.0,7.0,1.0,new2backpresent_8_4.xlsx,new2back_compare_task_8_4.xlsx
0.0,1.0,0.907,0.0,0.0,0.0,0.0,1.0,footprint_11s.jpg,0.0,Blue.png,1.0,23,,,,,,,,,,,,,,,,,
0.0,1.0,0.537,0.0,1.0,1.0,1.0,1.0,coffee_filter_10s.jpg,0.0,Purple.png,1.0,23,,,,,,,,,,,,,,,,,
0.0,1.0,1.277,0.0,2.0,2.0,2.0,1.0,coffee_filter_10s.jpg,0.0,Red.png,1.0,23,,,,,,,,,,,,,,,,,
1.0,1.0,1.006,0.0,3.0,3.0,3.0,1.0,coffee_filter_10s.jpg,1.0,Orange.png,1.0,23,,,,,,,,,,,,,,,,,
1.0,1.0,1.046,0.0,4.0,4.0,4.0,1.0,coffee_filter_10s.jpg,1.0,Yellow.png,1.0,23,,,,,,,,,,,,,,,,,
0.0,1.0,0.662,0.0,5.0,5.0,5.0,1.0,gargoyle_08s.jpg,0.0,Green.png,1.0,23,,,,,,,,,,,,,,,,,
0.0,1.0,0.556,0.0,6.0,6.0,6.0,1.0,candy_cane_06s.jpg,0.0,Blue.png,2.0,23,,,,,,,,,,,,,,,,,
0.0,1.0,0.622,0.0,7.0,7.0,7.0,1.0,toad_09s.jpg,0.0,Purple.png,2.0,23,,,,,,,,,,,,,,,,,
1.0,1.0,0.913,0.0,8.0,8.0,8.0,1.0,candy_cane_06s.jpg,1.0,Red.png,2.0,23,,,,,,,,,,,,,,,,,
0.0,1.0,0.502,0.0,9.0,9.0,9.0,1.0,pumpkin_03s.jpg,0.0,Orange.png,2.0,23,,,,,,,,,,,,,,,,,
0.0,1.0,0.62,0.0,10.0,10.0,10.0,1.0,dashboard_02s.jpg,0.0,Yellow.png,2.0,23,,,,,,,,,,,,,,,,,
0.0,1.0,0.589,0.0,11.0,11.0,11.0,1.0,syringe_02s.jpg,0.0,Green.png,2.0,23,,,,,,,,,,,,,,,,,
0.0,1.0,0.533,0.0,12.0,12.0,12.0,1.0,powder_07s.jpg,0.0,Blue.png,3.0,23,,,,,,,,,,,,,,,,,
1.0,0.0,1.223,0.0,13.0,13.0,13.0,1.0,powder_07s.jpg,0.0,Purple.png,3.0,23,,,,,,,,,,,,,,,,,
1.0,1.0,1.069,0.0,14.0,14.0,14.0,1.0,powder_07s.jpg,1.0,Red.png,3.0,23,,,,,,,,,,,,,,,,,
0.0,1.0,0.493,0.0,15.0,15.0,15.0,1.0,sea_urchin_09s.jpg,0.0,Orange.png,3.0,23,,,,,,,,,,,,,,,,,
0.0,1.0,0.548,0.0,16.0,16.0,16.0,1.0,throne_11s.jpg,0.0,Yellow.png,3.0,23,,,,,,,,,,,,,,,,,
0.0,1.0,1.028,0.0,17.0,17.0,17.0,1.0,powder_07s.jpg,0.0,Green.png,3.0,23,,,,,,,,,,,,,,,,,
0.0,1.0,0.62,0.0,18.0,18.0,18.0,1.0,chalice_10s.jpg,0.0,Blue.png,4.0,23,,,,,,,,,,,,,,,,,
0.0,1.0,0.622,0.0,19.0,19.0,19.0,1.0,air_pump_05s.jpg,0.0,Purple.png,4.0,23,,,,,,,,,,,,,,,,,
0.0,1.0,0.579,0.0,20.0,20.0,20.0,1.0,microwave_02s.jpg,0.0,Red.png,4.0,23,,,,,,,,,,,,,,,,,
0.0,1.0,0.645,0.0,21.0,21.0,21.0,1.0,cereal_04s.jpg,0.0,Orange.png,4.0,23,,,,,,,,,,,,,,,,,
0.0,1.0,0.684,0.0,22.0,22.0,22.0,1.0,mushroom_10n.jpg,0.0,Yellow.png,4.0,23,,,,,,,,,,,,,,,,,
0.0,1.0,0.511,0.0,23.0,23.0,23.0,1.0,red_carpet_03s.jpg,0.0,Green.png,4.0,23,,,,,,,,,,,,,,,,,
0.0,1.0,1.51,0.0,24.0,24.0,24.0,1.0,throne_11s.jpg,0.0,Blue.png,5.0,23,,,,,,,,,,,,,,,,,
0.0,1.0,0.694,0.0,25.0,25.0,25.0,1.0,koala_13s.jpg,0.0,Purple.png,5.0,23,,,,,,,,,,,,,,,,,
1.0,1.0,1.112,0.0,26.0,26.0,26.0,1.0,throne_11s.jpg,1.0,Red.png,5.0,23,,,,,,,,,,,,,,,,,
0.0,1.0,0.494,0.0,27.0,27.0,27.0,1.0,rocket_02s.jpg,0.0,Orange.png,5.0,23,,,,,,,,,,,,,,,,,
0.0,1.0,0.613,0.0,28.0,28.0,28.0,1.0,swordfish_05s.jpg,0.0,Yellow.png,5.0,23,,,,,,,,,,,,,,,,,
0.0,0.0,1.669,0.0,29.0,29.0,29.0,1.0,rocket_02s.jpg,1.0,Green.png,5.0,23,,,,,,,,,,,,,,,,,
0.0,1.0,0.571,0.0,30.0,30.0,30.0,1.0,icicle_04s.jpg,0.0,Blue.png,6.0,23,,,,,,,,,,,,,,,,,
0.0,1.0,0.588,0.0,31.0,31.0,31.0,1.0,keyboard_05s.jpg,0.0,Purple.png,6.0,23,,,,,,,,,,,,,,,,,
0.0,1.0,0.644,0.0,32.0,32.0,32.0,1.0,pocket_watch_16s.jpg,0.0,Red.png,6.0,23,,,,,,,,,,,,,,,,,
0.0,1.0,0.502,0.0,33.0,33.0,33.0,1.0,tablet_04s.jpg,0.0,Orange.png,6.0,23,,,,,,,,,,,,,,,,,
0.0,1.0,0.476,0.0,34.0,34.0,34.0,1.0,chocolate_01b.jpg,0.0,Yellow.png,6.0,23,,,,,,,,,,,,,,,,,
0.0,1.0,0.508,0.0,35.0,35.0,35.0,1.0,light_switch_02s.jpg,0.0,Green.png,6.0,23,,,,,,,,,,,,,,,,,
,,,,,,,,,0.0,,,23,0.0,1.0,1.655,0.0,0.0,0.0,0.0,1.0,chalice_10s.jpg,sea_urchin_09s.jpg,,,,,,,
,,,,,,,,,1.0,,,23,1.0,1.0,1.66,0.0,1.0,1.0,1.0,1.0,swordfish_05s.jpg,keyboard_05s.jpg,,,,,,,
,,,,,,,,,0.0,,,23,1.0,0.0,1.606,0.0,2.0,2.0,2.0,1.0,red_carpet_03s.jpg,microwave_02s.jpg,,,,,,,
,,,,,,,,,0.0,,,23,1.0,0.0,2.384,0.0,3.0,3.0,3.0,1.0,dashboard_02s.jpg,toad_09s.jpg,,,,,,,
,,,,,,,,,0.0,,,23,1.0,0.0,1.338,0.0,4.0,4.0,4.0,1.0,koala_13s.jpg,mushroom_10n.jpg,,,,,,,
,,,,,,,,,1.0,,,23,1.0,1.0,1.659,0.0,5.0,5.0,5.0,1.0,icicle_04s.jpg,tablet_04s.jpg,,,,,,,
,,,,,,,,,,,,23,,,,,,,,,,,0.0,8.0,8.0,8.0,1.0,new2backpresent_9_4.xlsx,new2back_compare_task_9_4.xlsx
