key_resp.keys,key_resp.corr,key_resp.rt,present_segment.thisRepN,present_segment.thisTrialN,present_segment.thisN,present_segment.thisIndex,present_segment.ran,pictures,answer,clock,segment,participant,key_resp_2.keys,key_resp_2.corr,key_resp_2.rt,compare_segment.thisRepN,compare_segment.thisTrialN,compare_segment.thisN,compare_segment.thisIndex,compare_segment.ran,item_a,item_b,clock_conditions.thisRepN,clock_conditions.thisTrialN,clock_conditions.thisN,clock_conditions.thisIndex,clock_conditions.ran,present,compare
0.0,1.0,1.37983,0.0,0.0,0.0,0.0,1.0,insole_11s.jpg,0.0,Blue.png,1.0,129,,,,,,,,,,,,,,,,,
0.0,1.0,1.38459,0.0,1.0,1.0,1.0,1.0,tupperware_09s.jpg,0.0,Purple.png,1.0,129,,,,,,,,,,,,,,,,,
0.0,0.0,1.44032,0.0,2.0,2.0,2.0,1.0,tupperware_09s.jpg,1.0,Red.png,1.0,129,,,,,,,,,,,,,,,,,
0.0,1.0,1.24007,0.0,3.0,3.0,3.0,1.0,fox_13s.jpg,0.0,Orange.png,1.0,129,,,,,,,,,,,,,,,,,
1.0,1.0,0.90581,0.0,4.0,4.0,4.0,1.0,tupperware_09s.jpg,1.0,Yellow.png,1.0,129,,,,,,,,,,,,,,,,,
0.0,1.0,1.66299,0.0,5.0,5.0,5.0,1.0,lavender_10s.jpg,0.0,Green.png,1.0,129,,,,,,,,,,,,,,,,,
0.0,1.0,1.09107,0.0,6.0,6.0,6.0,1.0,tupperware_09s.jpg,0.0,Blue.png,2.0,129,,,,,,,,,,,,,,,,,
0.0,1.0,1.05817,0.0,7.0,7.0,7.0,1.0,poinsettia_04s.jpg,0.0,Purple.png,2.0,129,,,,,,,,,,,,,,,,,
0.0,1.0,0.78553,0.0,8.0,8.0,8.0,1.0,margarita_03s.jpg,0.0,Red.png,2.0,129,,,,,,,,,,,,,,,,,
0.0,1.0,0.86639,0.0,9.0,9.0,9.0,1.0,toothpaste_12s.jpg,0.0,Orange.png,2.0,129,,,,,,,,,,,,,,,,,
0.0,1.0,0.770155,0.0,10.0,10.0,10.0,1.0,ladder_15s.jpg,0.0,Yellow.png,2.0,129,,,,,,,,,,,,,,,,,
0.0,1.0,0.61714,0.0,11.0,11.0,11.0,1.0,pocketknife_12s.jpg,0.0,Green.png,2.0,129,,,,,,,,,,,,,,,,,
0.0,1.0,0.727475,0.0,12.0,12.0,12.0,1.0,spoon02a.jpg,0.0,Blue.png,3.0,129,,,,,,,,,,,,,,,,,
0.0,1.0,0.74428,0.0,13.0,13.0,13.0,1.0,mango_09s.jpg,0.0,Purple.png,3.0,129,,,,,,,,,,,,,,,,,
0.0,1.0,0.88423,0.0,14.0,14.0,14.0,1.0,chalice_10s.jpg,0.0,Red.png,3.0,129,,,,,,,,,,,,,,,,,
0.0,1.0,1.927805,0.0,15.0,15.0,15.0,1.0,pocketknife_12s.jpg,0.0,Orange.png,3.0,129,,,,,,,,,,,,,,,,,
0.0,1.0,0.71595,0.0,16.0,16.0,16.0,1.0,abacus_12s.jpg,0.0,Yellow.png,3.0,129,,,,,,,,,,,,,,,,,
1.0,1.0,1.26038,0.0,17.0,17.0,17.0,1.0,abacus_12s.jpg,1.0,Green.png,3.0,129,,,,,,,,,,,,,,,,,
0.0,1.0,1.373945,0.0,18.0,18.0,18.0,1.0,abacus_12s.jpg,0.0,Blue.png,4.0,129,,,,,,,,,,,,,,,,,
1.0,1.0,0.988005,0.0,19.0,19.0,19.0,1.0,abacus_12s.jpg,1.0,Purple.png,4.0,129,,,,,,,,,,,,,,,,,
0.0,1.0,0.79604,0.0,20.0,20.0,20.0,1.0,sushi_08s.jpg,0.0,Red.png,4.0,129,,,,,,,,,,,,,,,,,
0.0,1.0,1.515345,0.0,21.0,21.0,21.0,1.0,funnel_01b.jpg,0.0,Orange.png,4.0,129,,,,,,,,,,,,,,,,,
0.0,1.0,0.644765,0.0,22.0,22.0,22.0,1.0,rooster_03s.jpg,0.0,Yellow.png,4.0,129,,,,,,,,,,,,,,,,,
0.0,1.0,0.811665,0.0,23.0,23.0,23.0,1.0,ukulele_02s.jpg,0.0,Green.png,4.0,129,,,,,,,,,,,,,,,,,
0.0,1.0,1.100755,0.0,24.0,24.0,24.0,1.0,pocketknife_12s.jpg,0.0,Blue.png,5.0,129,,,,,,,,,,,,,,,,,
1.0,1.0,0.796525,0.0,25.0,25.0,25.0,1.0,pocketknife_12s.jpg,1.0,Purple.png,5.0,129,,,,,,,,,,,,,,,,,
1.0,1.0,0.94456,0.0,26.0,26.0,26.0,1.0,pocketknife_12s.jpg,1.0,Red.png,5.0,129,,,,,,,,,,,,,,,,,
0.0,1.0,0.709355,0.0,27.0,27.0,27.0,1.0,stapler_01b.jpg,0.0,Orange.png,5.0,129,,,,,,,,,,,,,,,,,
0.0,1.0,1.15716,0.0,28.0,28.0,28.0,1.0,birthday_cake_09s.jpg,0.0,Yellow.png,5.0,129,,,,,,,,,,,,,,,,,
0.0,1.0,0.94404,0.0,29.0,29.0,29.0,1.0,meatball_13s.jpg,0.0,Green.png,5.0,129,,,,,,,,,,,,,,,,,
0.0,1.0,0.899685,0.0,30.0,30.0,30.0,1.0,cape_11s.jpg,0.0,Blue.png,6.0,129,,,,,,,,,,,,,,,,,
1.0,1.0,1.10013,0.0,31.0,31.0,31.0,1.0,cape_11s.jpg,1.0,Purple.png,6.0,129,,,,,,,,,,,,,,,,,
0.0,1.0,0.69448,0.0,32.0,32.0,32.0,1.0,lizard_10n.jpg,0.0,Red.png,6.0,129,,,,,,,,,,,,,,,,,
0.0,1.0,0.85992,0.0,33.0,33.0,33.0,1.0,refrigerator_07s.jpg,0.0,Orange.png,6.0,129,,,,,,,,,,,,,,,,,
1.0,1.0,1.06846,0.0,34.0,34.0,34.0,1.0,refrigerator_07s.jpg,1.0,Yellow.png,6.0,129,,,,,,,,,,,,,,,,,
0.0,1.0,0.787345,0.0,35.0,35.0,35.0,1.0,touchpad_11s.jpg,0.0,Green.png,6.0,129,,,,,,,,,,,,,,,,,
,,,,,,,,,1.0,,,129,0.0,0.0,3.242785,0.0,0.0,0.0,0.0,1.0,lavender_10s.jpg,margarita_03s.jpg,,,,,,,
,,,,,,,,,1.0,,,129,0.0,0.0,2.859115,0.0,1.0,1.0,1.0,1.0,toothpaste_12s.jpg,spoon02a.jpg,,,,,,,
,,,,,,,,,1.0,,,129,1.0,1.0,1.415715,0.0,2.0,2.0,2.0,1.0,ladder_15s.jpg,mango_09s.jpg,,,,,,,
,,,,,,,,,0.0,,,129,0.0,1.0,2.758535,0.0,3.0,3.0,3.0,1.0,fox_13s.jpg,insole_11s.jpg,,,,,,,
,,,,,,,,,0.0,,,129,0.0,1.0,2.64696,0.0,4.0,4.0,4.0,1.0,ukulele_02s.jpg,sushi_08s.jpg,,,,,,,
,,,,,,,,,0.0,,,129,0.0,1.0,1.381735,0.0,5.0,5.0,5.0,1.0,touchpad_11s.jpg,lizard_10n.jpg,,,,,,,
,,,,,,,,,,,,129,,,,,,,,,,,0.0,0.0,0.0,0.0,1.0,newclockpresent_1_2.xlsx,newclock_compare_task_1_2.xlsx
0.0,1.0,1.377795,0.0,0.0,0.0,0.0,1.0,juicer2_06s.jpg,0.0,Blue.png,1.0,129,,,,,,,,,,,,,,,,,
1.0,1.0,0.86018,0.0,1.0,1.0,1.0,1.0,juicer2_06s.jpg,1.0,Purple.png,1.0,129,,,,,,,,,,,,,,,,,
0.0,1.0,0.72322,0.0,2.0,2.0,2.0,1.0,tambourine_06s.jpg,0.0,Red.png,1.0,129,,,,,,,,,,,,,,,,,
0.0,1.0,1.178035,0.0,3.0,3.0,3.0,1.0,luggage_08s.jpg,0.0,Orange.png,1.0,129,,,,,,,,,,,,,,,,,
1.0,1.0,1.410845,0.0,4.0,4.0,4.0,1.0,tambourine_06s.jpg,1.0,Yellow.png,1.0,129,,,,,,,,,,,,,,,,,
0.0,1.0,1.170165,0.0,5.0,5.0,5.0,1.0,towel_rack_04s.jpg,0.0,Green.png,1.0,129,,,,,,,,,,,,,,,,,
0.0,1.0,0.693285,0.0,6.0,6.0,6.0,1.0,crayon_09s.jpg,0.0,Blue.png,2.0,129,,,,,,,,,,,,,,,,,
0.0,1.0,1.11406,0.0,7.0,7.0,7.0,1.0,gargoyle_08s.jpg,0.0,Purple.png,2.0,129,,,,,,,,,,,,,,,,,
0.0,1.0,0.77816,0.0,8.0,8.0,8.0,1.0,boar_10s.jpg,0.0,Red.png,2.0,129,,,,,,,,,,,,,,,,,
1.0,1.0,0.97822,0.0,9.0,9.0,9.0,1.0,gargoyle_08s.jpg,1.0,Orange.png,2.0,129,,,,,,,,,,,,,,,,,
0.0,1.0,0.834305,0.0,10.0,10.0,10.0,1.0,limousine_12s.jpg,0.0,Yellow.png,2.0,129,,,,,,,,,,,,,,,,,
0.0,1.0,0.74594,0.0,11.0,11.0,11.0,1.0,outlet_10s.jpg,0.0,Green.png,2.0,129,,,,,,,,,,,,,,,,,
0.0,1.0,0.833695,0.0,12.0,12.0,12.0,1.0,comic_book_02s.jpg,0.0,Blue.png,3.0,129,,,,,,,,,,,,,,,,,
0.0,1.0,0.810285,0.0,13.0,13.0,13.0,1.0,mask_09s.jpg,0.0,Purple.png,3.0,129,,,,,,,,,,,,,,,,,
0.0,1.0,0.912965,0.0,14.0,14.0,14.0,1.0,lasagna_06s.jpg,0.0,Red.png,3.0,129,,,,,,,,,,,,,,,,,
0.0,1.0,1.161685,0.0,15.0,15.0,15.0,1.0,diving_board_07s.jpg,0.0,Orange.png,3.0,129,,,,,,,,,,,,,,,,,
0.0,1.0,0.681485,0.0,16.0,16.0,16.0,1.0,lion_18s.jpg,0.0,Yellow.png,3.0,129,,,,,,,,,,,,,,,,,
1.0,1.0,2.227135,0.0,17.0,17.0,17.0,1.0,diving_board_07s.jpg,1.0,Green.png,3.0,129,,,,,,,,,,,,,,,,,
0.0,1.0,1.002165,0.0,18.0,18.0,18.0,1.0,lion_18s.jpg,0.0,Blue.png,4.0,129,,,,,,,,,,,,,,,,,
0.0,1.0,0.697405,0.0,19.0,19.0,19.0,1.0,medal_04s.jpg,0.0,Purple.png,4.0,129,,,,,,,,,,,,,,,,,
0.0,1.0,1.162165,0.0,20.0,20.0,20.0,1.0,incense_02s.jpg,0.0,Red.png,4.0,129,,,,,,,,,,,,,,,,,
0.0,1.0,0.723665,0.0,21.0,21.0,21.0,1.0,tape_06s.jpg,0.0,Orange.png,4.0,129,,,,,,,,,,,,,,,,,
1.0,1.0,2.378145,0.0,22.0,22.0,22.0,1.0,medal_04s.jpg,1.0,Yellow.png,4.0,129,,,,,,,,,,,,,,,,,
0.0,1.0,0.67713,0.0,23.0,23.0,23.0,1.0,buoy_04s.jpg,0.0,Green.png,4.0,129,,,,,,,,,,,,,,,,,
0.0,1.0,1.13835,0.0,24.0,24.0,24.0,1.0,limousine_12s.jpg,0.0,Blue.png,5.0,129,,,,,,,,,,,,,,,,,
0.0,1.0,1.059975,0.0,25.0,25.0,25.0,1.0,jewel_01b.jpg,0.0,Purple.png,5.0,129,,,,,,,,,,,,,,,,,
0.0,1.0,0.7463,0.0,26.0,26.0,26.0,1.0,parachute_03s.jpg,0.0,Red.png,5.0,129,,,,,,,,,,,,,,,,,
0.0,1.0,1.170265,0.0,27.0,27.0,27.0,1.0,mannequin_05s.jpg,0.0,Orange.png,5.0,129,,,,,,,,,,,,,,,,,
0.0,1.0,0.7634,0.0,28.0,28.0,28.0,1.0,snowman_02s.jpg,0.0,Yellow.png,5.0,129,,,,,,,,,,,,,,,,,
0.0,1.0,0.72978,0.0,29.0,29.0,29.0,1.0,fossil_06s.jpg,0.0,Green.png,5.0,129,,,,,,,,,,,,,,,,,
0.0,1.0,0.961865,0.0,30.0,30.0,30.0,1.0,perfume_06s.jpg,0.0,Blue.png,6.0,129,,,,,,,,,,,,,,,,,
0.0,1.0,0.969965,0.0,31.0,31.0,31.0,1.0,fossil_06s.jpg,0.0,Purple.png,6.0,129,,,,,,,,,,,,,,,,,
0.0,1.0,0.71379,0.0,32.0,32.0,32.0,1.0,pancake_12s.jpg,0.0,Red.png,6.0,129,,,,,,,,,,,,,,,,,
0.0,1.0,0.6173,0.0,33.0,33.0,33.0,1.0,tie_03s.jpg,0.0,Orange.png,6.0,129,,,,,,,,,,,,,,,,,
0.0,0.0,1.01088,0.0,34.0,34.0,34.0,1.0,pancake_12s.jpg,1.0,Yellow.png,6.0,129,,,,,,,,,,,,,,,,,
0.0,1.0,0.785545,0.0,35.0,35.0,35.0,1.0,padlock_07s.jpg,0.0,Green.png,6.0,129,,,,,,,,,,,,,,,,,
,,,,,,,,,0.0,,,129,0.0,1.0,1.711525,0.0,0.0,0.0,0.0,1.0,crayon_09s.jpg,luggage_08s.jpg,,,,,,,
,,,,,,,,,1.0,,,129,1.0,1.0,1.54225,0.0,1.0,1.0,1.0,1.0,towel_rack_04s.jpg,boar_10s.jpg,,,,,,,
,,,,,,,,,0.0,,,129,1.0,0.0,1.598835,0.0,2.0,2.0,2.0,1.0,lasagna_06s.jpg,outlet_10s.jpg,,,,,,,
,,,,,,,,,1.0,,,129,1.0,1.0,1.41524,0.0,3.0,3.0,3.0,1.0,jewel_01b.jpg,snowman_02s.jpg,,,,,,,
,,,,,,,,,0.0,,,129,0.0,1.0,1.34841,0.0,4.0,4.0,4.0,1.0,buoy_04s.jpg,incense_02s.jpg,,,,,,,
,,,,,,,,,0.0,,,129,1.0,0.0,1.49842,0.0,5.0,5.0,5.0,1.0,tie_03s.jpg,perfume_06s.jpg,,,,,,,
,,,,,,,,,,,,129,,,,,,,,,,,0.0,1.0,1.0,1.0,1.0,newclockpresent_2_2.xlsx,newclock_compare_task_2_2.xlsx
0.0,1.0,0.923535,0.0,0.0,0.0,0.0,1.0,surfboard_11s.jpg,0.0,Blue.png,1.0,129,,,,,,,,,,,,,,,,,
1.0,1.0,0.94118,0.0,1.0,1.0,1.0,1.0,surfboard_11s.jpg,1.0,Purple.png,1.0,129,,,,,,,,,,,,,,,,,
1.0,1.0,0.849585,0.0,2.0,2.0,2.0,1.0,surfboard_11s.jpg,1.0,Red.png,1.0,129,,,,,,,,,,,,,,,,,
0.0,1.0,0.74894,0.0,3.0,3.0,3.0,1.0,badge_03s.jpg,0.0,Orange.png,1.0,129,,,,,,,,,,,,,,,,,
1.0,1.0,1.541625,0.0,4.0,4.0,4.0,1.0,surfboard_11s.jpg,1.0,Yellow.png,1.0,129,,,,,,,,,,,,,,,,,
1.0,1.0,1.32532,0.0,5.0,5.0,5.0,1.0,surfboard_11s.jpg,1.0,Green.png,1.0,129,,,,,,,,,,,,,,,,,
0.0,1.0,0.84684,0.0,6.0,6.0,6.0,1.0,surfboard_11s.jpg,0.0,Blue.png,2.0,129,,,,,,,,,,,,,,,,,
0.0,1.0,1.893365,0.0,7.0,7.0,7.0,1.0,playpen_11s.jpg,0.0,Purple.png,2.0,129,,,,,,,,,,,,,,,,,
1.0,1.0,1.33268,0.0,8.0,8.0,8.0,1.0,surfboard_11s.jpg,1.0,Red.png,2.0,129,,,,,,,,,,,,,,,,,
0.0,1.0,2.082645,0.0,9.0,9.0,9.0,1.0,popcorn_09s.jpg,0.0,Orange.png,2.0,129,,,,,,,,,,,,,,,,,
1.0,1.0,1.26678,0.0,10.0,10.0,10.0,1.0,surfboard_11s.jpg,1.0,Yellow.png,2.0,129,,,,,,,,,,,,,,,,,
1.0,1.0,1.132975,0.0,11.0,11.0,11.0,1.0,popcorn_09s.jpg,1.0,Green.png,2.0,129,,,,,,,,,,,,,,,,,
0.0,1.0,1.10223,0.0,12.0,12.0,12.0,1.0,lollipop_08s.jpg,0.0,Blue.png,3.0,129,,,,,,,,,,,,,,,,,
0.0,1.0,1.26647,0.0,13.0,13.0,13.0,1.0,popcorn_09s.jpg,0.0,Purple.png,3.0,129,,,,,,,,,,,,,,,,,
0.0,1.0,0.81724,0.0,14.0,14.0,14.0,1.0,fire_pit_10s.jpg,0.0,Red.png,3.0,129,,,,,,,,,,,,,,,,,
0.0,1.0,0.79922,0.0,15.0,15.0,15.0,1.0,joystick_01b.jpg,0.0,Orange.png,3.0,129,,,,,,,,,,,,,,,,,
0.0,1.0,0.63339,0.0,16.0,16.0,16.0,1.0,panda_02s.jpg,0.0,Yellow.png,3.0,129,,,,,,,,,,,,,,,,,
0.0,1.0,0.766915,0.0,17.0,17.0,17.0,1.0,sundae_08s.jpg,0.0,Green.png,3.0,129,,,,,,,,,,,,,,,,,
0.0,1.0,0.48796,0.0,18.0,18.0,18.0,1.0,boomerang_06s.jpg,0.0,Blue.png,4.0,129,,,,,,,,,,,,,,,,,
0.0,1.0,0.573175,0.0,19.0,19.0,19.0,1.0,bagel_15s.jpg,0.0,Purple.png,4.0,129,,,,,,,,,,,,,,,,,
0.0,1.0,0.63412,0.0,20.0,20.0,20.0,1.0,powder_07s.jpg,0.0,Red.png,4.0,129,,,,,,,,,,,,,,,,,
0.0,1.0,0.649785,0.0,21.0,21.0,21.0,1.0,lipstick_02s.jpg,0.0,Orange.png,4.0,129,,,,,,,,,,,,,,,,,
1.0,1.0,1.00053,0.0,22.0,22.0,22.0,1.0,bagel_15s.jpg,1.0,Yellow.png,4.0,129,,,,,,,,,,,,,,,,,
0.0,1.0,0.724775,0.0,23.0,23.0,23.0,1.0,ladle_04s.jpg,0.0,Green.png,4.0,129,,,,,,,,,,,,,,,,,
0.0,1.0,0.37309,0.0,24.0,24.0,24.0,1.0,megaphone_03s.jpg,0.0,Blue.png,5.0,129,,,,,,,,,,,,,,,,,
0.0,1.0,0.740975,0.0,25.0,25.0,25.0,1.0,puck_06s.jpg,0.0,Purple.png,5.0,129,,,,,,,,,,,,,,,,,
0.0,1.0,0.649465,0.0,26.0,26.0,26.0,1.0,cardinal_07s.jpg,0.0,Red.png,5.0,129,,,,,,,,,,,,,,,,,
1.0,1.0,1.08544,0.0,27.0,27.0,27.0,1.0,puck_06s.jpg,1.0,Orange.png,5.0,129,,,,,,,,,,,,,,,,,
0.0,1.0,0.882525,0.0,28.0,28.0,28.0,1.0,bee_20s.jpg,0.0,Yellow.png,5.0,129,,,,,,,,,,,,,,,,,
0.0,1.0,0.82122,0.0,29.0,29.0,29.0,1.0,toilet_paper_12s.jpg,0.0,Green.png,5.0,129,,,,,,,,,,,,,,,,,
0.0,1.0,0.782435,0.0,30.0,30.0,30.0,1.0,mud_13s.jpg,0.0,Blue.png,6.0,129,,,,,,,,,,,,,,,,,
0.0,1.0,0.616315,0.0,31.0,31.0,31.0,1.0,measuring_cup_02s.jpg,0.0,Purple.png,6.0,129,,,,,,,,,,,,,,,,,
0.0,1.0,0.667235,0.0,32.0,32.0,32.0,1.0,ostrich_06s.jpg,0.0,Red.png,6.0,129,,,,,,,,,,,,,,,,,
0.0,1.0,0.70246,0.0,33.0,33.0,33.0,1.0,raspberry_12s.jpg,0.0,Orange.png,6.0,129,,,,,,,,,,,,,,,,,
1.0,1.0,1.00501,0.0,34.0,34.0,34.0,1.0,mud_13s.jpg,1.0,Yellow.png,6.0,129,,,,,,,,,,,,,,,,,
0.0,1.0,0.7838,0.0,35.0,35.0,35.0,1.0,radiator_05s.jpg,0.0,Green.png,6.0,129,,,,,,,,,,,,,,,,,
,,,,,,,,,0.0,,,129,1.0,0.0,2.532225,0.0,0.0,0.0,0.0,1.0,measuring_cup_02s.jpg,bee_20s.jpg,,,,,,,
,,,,,,,,,1.0,,,129,1.0,1.0,1.525085,0.0,1.0,1.0,1.0,1.0,lipstick_02s.jpg,megaphone_03s.jpg,,,,,,,
,,,,,,,,,0.0,,,129,1.0,0.0,1.47541,0.0,2.0,2.0,2.0,1.0,boomerang_06s.jpg,joystick_01b.jpg,,,,,,,
,,,,,,,,,0.0,,,129,0.0,1.0,1.35067,0.0,3.0,3.0,3.0,1.0,sundae_08s.jpg,fire_pit_10s.jpg,,,,,,,
,,,,,,,,,0.0,,,129,1.0,0.0,1.38326,0.0,4.0,4.0,4.0,1.0,radiator_05s.jpg,ostrich_06s.jpg,,,,,,,
,,,,,,,,,0.0,,,129,0.0,1.0,1.700915,0.0,5.0,5.0,5.0,1.0,ladle_04s.jpg,powder_07s.jpg,,,,,,,
,,,,,,,,,,,,129,,,,,,,,,,,0.0,2.0,2.0,2.0,1.0,newclockpresent_3_2.xlsx,newclock_compare_task_3_2.xlsx
0.0,1.0,1.04631,0.0,0.0,0.0,0.0,1.0,glasses01a.jpg,0.0,Blue.png,1.0,129,,,,,,,,,,,,,,,,,
0.0,1.0,0.693545,0.0,1.0,1.0,1.0,1.0,piano_13n.jpg,0.0,Purple.png,1.0,129,,,,,,,,,,,,,,,,,
0.0,1.0,0.595185,0.0,2.0,2.0,2.0,1.0,candy_cane_06s.jpg,0.0,Red.png,1.0,129,,,,,,,,,,,,,,,,,
0.0,1.0,1.31042,0.0,3.0,3.0,3.0,1.0,cushion_08s.jpg,0.0,Orange.png,1.0,129,,,,,,,,,,,,,,,,,
1.0,1.0,0.86751,0.0,4.0,4.0,4.0,1.0,candy_cane_06s.jpg,1.0,Yellow.png,1.0,129,,,,,,,,,,,,,,,,,
1.0,1.0,0.809855,0.0,5.0,5.0,5.0,1.0,candy_cane_06s.jpg,1.0,Green.png,1.0,129,,,,,,,,,,,,,,,,,
0.0,1.0,0.71517,0.0,6.0,6.0,6.0,1.0,rosary_03s.jpg,0.0,Blue.png,2.0,129,,,,,,,,,,,,,,,,,
1.0,1.0,1.011735,0.0,7.0,7.0,7.0,1.0,rosary_03s.jpg,1.0,Purple.png,2.0,129,,,,,,,,,,,,,,,,,
1.0,1.0,0.699405,0.0,8.0,8.0,8.0,1.0,rosary_03s.jpg,1.0,Red.png,2.0,129,,,,,,,,,,,,,,,,,
1.0,1.0,0.50023,0.0,9.0,9.0,9.0,1.0,rosary_03s.jpg,1.0,Orange.png,2.0,129,,,,,,,,,,,,,,,,,
0.0,1.0,0.726055,0.0,10.0,10.0,10.0,1.0,kangaroo_02s.jpg,0.0,Yellow.png,2.0,129,,,,,,,,,,,,,,,,,
0.0,0.0,0.403475,0.0,11.0,11.0,11.0,1.0,kangaroo_02s.jpg,1.0,Green.png,2.0,129,,,,,,,,,,,,,,,,,
0.0,1.0,1.131755,0.0,12.0,12.0,12.0,1.0,kangaroo_02s.jpg,0.0,Blue.png,3.0,129,,,,,,,,,,,,,,,,,
1.0,1.0,1.035475,0.0,13.0,13.0,13.0,1.0,kangaroo_02s.jpg,1.0,Purple.png,3.0,129,,,,,,,,,,,,,,,,,
0.0,1.0,0.72738,0.0,14.0,14.0,14.0,1.0,ironing_board_07s.jpg,0.0,Red.png,3.0,129,,,,,,,,,,,,,,,,,
1.0,1.0,1.03615,0.0,15.0,15.0,15.0,1.0,kangaroo_02s.jpg,1.0,Orange.png,3.0,129,,,,,,,,,,,,,,,,,
0.0,1.0,0.728125,0.0,16.0,16.0,16.0,1.0,punch2_09s.jpg,0.0,Yellow.png,3.0,129,,,,,,,,,,,,,,,,,
1.0,1.0,1.08351,0.0,17.0,17.0,17.0,1.0,ironing_board_07s.jpg,1.0,Green.png,3.0,129,,,,,,,,,,,,,,,,,
0.0,1.0,1.51537,0.0,18.0,18.0,18.0,1.0,owl_15s.jpg,0.0,Blue.png,4.0,129,,,,,,,,,,,,,,,,,
0.0,1.0,1.709995,0.0,19.0,19.0,19.0,1.0,teabag_12s.jpg,0.0,Purple.png,4.0,129,,,,,,,,,,,,,,,,,
1.0,1.0,1.01123,0.0,20.0,20.0,20.0,1.0,owl_15s.jpg,1.0,Red.png,4.0,129,,,,,,,,,,,,,,,,,
0.0,1.0,1.15625,0.0,21.0,21.0,21.0,1.0,otter_05s.jpg,0.0,Orange.png,4.0,129,,,,,,,,,,,,,,,,,
1.0,1.0,1.171935,0.0,22.0,22.0,22.0,1.0,owl_15s.jpg,1.0,Yellow.png,4.0,129,,,,,,,,,,,,,,,,,
0.0,1.0,1.411175,0.0,23.0,23.0,23.0,1.0,mold2_04s.jpg,0.0,Green.png,4.0,129,,,,,,,,,,,,,,,,,
0.0,1.0,0.643565,0.0,24.0,24.0,24.0,1.0,mattress_01s.jpg,0.0,Blue.png,5.0,129,,,,,,,,,,,,,,,,,
0.0,1.0,1.38845,0.0,25.0,25.0,25.0,1.0,police_car_01s.jpg,0.0,Purple.png,5.0,129,,,,,,,,,,,,,,,,,
0.0,1.0,0.811345,0.0,26.0,26.0,26.0,1.0,stethoscope_01b.jpg,0.0,Red.png,5.0,129,,,,,,,,,,,,,,,,,
0.0,0.0,2.099585,0.0,27.0,27.0,27.0,1.0,police_car_01s.jpg,1.0,Orange.png,5.0,129,,,,,,,,,,,,,,,,,
0.0,1.0,0.68281,0.0,28.0,28.0,28.0,1.0,sparkler_02s.jpg,0.0,Yellow.png,5.0,129,,,,,,,,,,,,,,,,,
0.0,1.0,0.82702,0.0,29.0,29.0,29.0,1.0,pacifier_09s.jpg,0.0,Green.png,5.0,129,,,,,,,,,,,,,,,,,
0.0,1.0,0.634825,0.0,30.0,30.0,30.0,1.0,machine_gun_09s.jpg,0.0,Blue.png,6.0,129,,,,,,,,,,,,,,,,,
0.0,1.0,0.74048,0.0,31.0,31.0,31.0,1.0,ram_05s.jpg,0.0,Purple.png,6.0,129,,,,,,,,,,,,,,,,,
0.0,1.0,0.76327,0.0,32.0,32.0,32.0,1.0,keyboard_05s.jpg,0.0,Red.png,6.0,129,,,,,,,,,,,,,,,,,
0.0,1.0,0.682955,0.0,33.0,33.0,33.0,1.0,leash_10s.jpg,0.0,Orange.png,6.0,129,,,,,,,,,,,,,,,,,
0.0,1.0,0.65134,0.0,34.0,34.0,34.0,1.0,pan_02s.jpg,0.0,Yellow.png,6.0,129,,,,,,,,,,,,,,,,,
0.0,1.0,0.994915,0.0,35.0,35.0,35.0,1.0,mixer_12s.jpg,0.0,Green.png,6.0,129,,,,,,,,,,,,,,,,,
,,,,,,,,,0.0,,,129,0.0,1.0,2.217255,0.0,0.0,0.0,0.0,1.0,teabag_12s.jpg,punch2_09s.jpg,,,,,,,
,,,,,,,,,0.0,,,129,1.0,0.0,1.53493,0.0,1.0,1.0,1.0,1.0,mattress_01s.jpg,otter_05s.jpg,,,,,,,
,,,,,,,,,0.0,,,129,1.0,0.0,1.615435,0.0,2.0,2.0,2.0,1.0,stethoscope_01b.jpg,mold2_04s.jpg,,,,,,,
,,,,,,,,,1.0,,,129,1.0,1.0,0.918805,0.0,3.0,3.0,3.0,1.0,glasses01a.jpg,cushion_08s.jpg,,,,,,,
,,,,,,,,,1.0,,,129,1.0,1.0,1.7022,0.0,4.0,4.0,4.0,1.0,machine_gun_09s.jpg,leash_10s.jpg,,,,,,,
,,,,,,,,,0.0,,,129,0.0,1.0,1.31784,0.0,5.0,5.0,5.0,1.0,pan_02s.jpg,ram_05s.jpg,,,,,,,
,,,,,,,,,,,,129,,,,,,,,,,,0.0,3.0,3.0,3.0,1.0,newclockpresent_4_2.xlsx,newclock_compare_task_4_2.xlsx
0.0,1.0,1.08025,0.0,0.0,0.0,0.0,1.0,golf_club_03s.jpg,0.0,Blue.png,1.0,129,,,,,,,,,,,,,,,,,
1.0,1.0,0.97831,0.0,1.0,1.0,1.0,1.0,golf_club_03s.jpg,1.0,Purple.png,1.0,129,,,,,,,,,,,,,,,,,
1.0,1.0,0.845675,0.0,2.0,2.0,2.0,1.0,golf_club_03s.jpg,1.0,Red.png,1.0,129,,,,,,,,,,,,,,,,,
0.0,1.0,0.90005,0.0,3.0,3.0,3.0,1.0,turnstile_08s.jpg,0.0,Orange.png,1.0,129,,,,,,,,,,,,,,,,,
1.0,1.0,0.829475,0.0,4.0,4.0,4.0,1.0,golf_club_03s.jpg,1.0,Yellow.png,1.0,129,,,,,,,,,,,,,,,,,
0.0,1.0,0.727255,0.0,5.0,5.0,5.0,1.0,milk_02s.jpg,0.0,Green.png,1.0,129,,,,,,,,,,,,,,,,,
0.0,1.0,0.543745,0.0,6.0,6.0,6.0,1.0,orange_12s.jpg,0.0,Blue.png,2.0,129,,,,,,,,,,,,,,,,,
0.0,1.0,1.4525,0.0,7.0,7.0,7.0,1.0,milk_02s.jpg,0.0,Purple.png,2.0,129,,,,,,,,,,,,,,,,,
0.0,1.0,0.78978,0.0,8.0,8.0,8.0,1.0,latch_15s.jpg,0.0,Red.png,2.0,129,,,,,,,,,,,,,,,,,
0.0,1.0,0.644845,0.0,9.0,9.0,9.0,1.0,bank_06s.jpg,0.0,Orange.png,2.0,129,,,,,,,,,,,,,,,,,
1.0,1.0,1.527915,0.0,10.0,10.0,10.0,1.0,milk_02s.jpg,1.0,Yellow.png,2.0,129,,,,,,,,,,,,,,,,,
0.0,1.0,0.65267,0.0,11.0,11.0,11.0,1.0,crab_16s.jpg,0.0,Green.png,2.0,129,,,,,,,,,,,,,,,,,
0.0,1.0,0.691805,0.0,12.0,12.0,12.0,1.0,birdcage_08s.jpg,0.0,Blue.png,3.0,129,,,,,,,,,,,,,,,,,
0.0,1.0,1.12739,0.0,13.0,13.0,13.0,1.0,spider_web_03s.jpg,0.0,Purple.png,3.0,129,,,,,,,,,,,,,,,,,
0.0,1.0,0.780415,0.0,14.0,14.0,14.0,1.0,knitting_needle_04s.jpg,0.0,Red.png,3.0,129,,,,,,,,,,,,,,,,,
0.0,1.0,0.64473,0.0,15.0,15.0,15.0,1.0,sugar_cube_11s.jpg,0.0,Orange.png,3.0,129,,,,,,,,,,,,,,,,,
0.0,1.0,0.661695,0.0,16.0,16.0,16.0,1.0,light_switch_02s.jpg,0.0,Yellow.png,3.0,129,,,,,,,,,,,,,,,,,
0.0,1.0,0.777185,0.0,17.0,17.0,17.0,1.0,gear_07s.jpg,0.0,Green.png,3.0,129,,,,,,,,,,,,,,,,,
0.0,1.0,1.160875,0.0,18.0,18.0,18.0,1.0,tongs_08s.jpg,0.0,Blue.png,4.0,129,,,,,,,,,,,,,,,,,
0.0,1.0,0.87705,0.0,19.0,19.0,19.0,1.0,recliner_02s.jpg,0.0,Purple.png,4.0,129,,,,,,,,,,,,,,,,,
0.0,1.0,0.67703,0.0,20.0,20.0,20.0,1.0,orangutan_03s.jpg,0.0,Red.png,4.0,129,,,,,,,,,,,,,,,,,
0.0,1.0,0.96493,0.0,21.0,21.0,21.0,1.0,golf_club_03s.jpg,0.0,Orange.png,4.0,129,,,,,,,,,,,,,,,,,
0.0,1.0,0.71647,0.0,22.0,22.0,22.0,1.0,lava_02s.jpg,0.0,Yellow.png,4.0,129,,,,,,,,,,,,,,,,,
0.0,1.0,0.651895,0.0,23.0,23.0,23.0,1.0,toilet_07s.jpg,0.0,Green.png,4.0,129,,,,,,,,,,,,,,,,,
0.0,1.0,0.76101,0.0,24.0,24.0,24.0,1.0,turnstile_08s.jpg,0.0,Blue.png,5.0,129,,,,,,,,,,,,,,,,,
1.0,1.0,1.09387,0.0,25.0,25.0,25.0,1.0,turnstile_08s.jpg,1.0,Purple.png,5.0,129,,,,,,,,,,,,,,,,,
0.0,1.0,0.84388,0.0,26.0,26.0,26.0,1.0,teacup_07s.jpg,0.0,Red.png,5.0,129,,,,,,,,,,,,,,,,,
1.0,1.0,1.084975,0.0,27.0,27.0,27.0,1.0,turnstile_08s.jpg,1.0,Orange.png,5.0,129,,,,,,,,,,,,,,,,,
1.0,1.0,0.804615,0.0,28.0,28.0,28.0,1.0,turnstile_08s.jpg,1.0,Yellow.png,5.0,129,,,,,,,,,,,,,,,,,
0.0,1.0,1.60608,0.0,29.0,29.0,29.0,1.0,antenna_01b.jpg,0.0,Green.png,5.0,129,,,,,,,,,,,,,,,,,
0.0,1.0,0.780755,0.0,30.0,30.0,30.0,1.0,keyhole_03s.jpg,0.0,Blue.png,6.0,129,,,,,,,,,,,,,,,,,
0.0,1.0,0.989915,0.0,31.0,31.0,31.0,1.0,air_pump_05s.jpg,0.0,Purple.png,6.0,129,,,,,,,,,,,,,,,,,
0.0,1.0,0.629365,0.0,32.0,32.0,32.0,1.0,eggshell_14s.jpg,0.0,Red.png,6.0,129,,,,,,,,,,,,,,,,,
0.0,1.0,1.388865,0.0,33.0,33.0,33.0,1.0,eyedropper_12s.jpg,0.0,Orange.png,6.0,129,,,,,,,,,,,,,,,,,
0.0,1.0,1.10092,0.0,34.0,34.0,34.0,1.0,machete_06s.jpg,0.0,Yellow.png,6.0,129,,,,,,,,,,,,,,,,,
1.0,1.0,1.421285,0.0,35.0,35.0,35.0,1.0,eyedropper_12s.jpg,1.0,Green.png,6.0,129,,,,,,,,,,,,,,,,,
,,,,,,,,,1.0,,,129,1.0,1.0,1.46451,0.0,0.0,0.0,0.0,1.0,sugar_cube_11s.jpg,tongs_08s.jpg,,,,,,,
,,,,,,,,,1.0,,,129,1.0,1.0,1.864655,0.0,1.0,1.0,1.0,1.0,antenna_01b.jpg,eggshell_14s.jpg,,,,,,,
,,,,,,,,,1.0,,,129,1.0,1.0,0.965095,0.0,2.0,2.0,2.0,1.0,bank_06s.jpg,birdcage_08s.jpg,,,,,,,
,,,,,,,,,1.0,,,129,0.0,0.0,2.182735,0.0,3.0,3.0,3.0,1.0,air_pump_05s.jpg,machete_06s.jpg,,,,,,,
,,,,,,,,,1.0,,,129,0.0,0.0,1.51107,0.0,4.0,4.0,4.0,1.0,latch_15s.jpg,crab_16s.jpg,,,,,,,
,,,,,,,,,1.0,,,129,1.0,1.0,1.164775,0.0,5.0,5.0,5.0,1.0,spider_web_03s.jpg,light_switch_02s.jpg,,,,,,,
,,,,,,,,,,,,129,,,,,,,,,,,0.0,4.0,4.0,4.0,1.0,newclockpresent_5_2.xlsx,newclock_compare_task_5_2.xlsx
0.0,1.0,0.595995,0.0,0.0,0.0,0.0,1.0,gazelle_10s.jpg,0.0,Blue.png,1.0,129,,,,,,,,,,,,,,,,,
0.0,1.0,0.76979,0.0,1.0,1.0,1.0,1.0,saddle_06s.jpg,0.0,Purple.png,1.0,129,,,,,,,,,,,,,,,,,
1.0,1.0,0.87823,0.0,2.0,2.0,2.0,1.0,saddle_06s.jpg,1.0,Red.png,1.0,129,,,,,,,,,,,,,,,,,
0.0,1.0,0.99444,0.0,3.0,3.0,3.0,1.0,kimono_13s.jpg,0.0,Orange.png,1.0,129,,,,,,,,,,,,,,,,,
0.0,1.0,0.833555,0.0,4.0,4.0,4.0,1.0,timer_03s.jpg,0.0,Yellow.png,1.0,129,,,,,,,,,,,,,,,,,
0.0,1.0,0.713925,0.0,5.0,5.0,5.0,1.0,tulip_02s.jpg,0.0,Green.png,1.0,129,,,,,,,,,,,,,,,,,
0.0,1.0,0.94555,0.0,6.0,6.0,6.0,1.0,prism_10s.jpg,0.0,Blue.png,2.0,129,,,,,,,,,,,,,,,,,
0.0,1.0,0.881435,0.0,7.0,7.0,7.0,1.0,razor_12s.jpg,0.0,Purple.png,2.0,129,,,,,,,,,,,,,,,,,
0.0,1.0,0.649525,0.0,8.0,8.0,8.0,1.0,blazer_02s.jpg,0.0,Red.png,2.0,129,,,,,,,,,,,,,,,,,
1.0,1.0,0.8345,0.0,9.0,9.0,9.0,1.0,razor_12s.jpg,1.0,Orange.png,2.0,129,,,,,,,,,,,,,,,,,
0.0,1.0,0.8657,0.0,10.0,10.0,10.0,1.0,lamb_chop_07s.jpg,0.0,Yellow.png,2.0,129,,,,,,,,,,,,,,,,,
1.0,1.0,1.26613,0.0,11.0,11.0,11.0,1.0,razor_12s.jpg,1.0,Green.png,2.0,129,,,,,,,,,,,,,,,,,
0.0,1.0,1.01766,0.0,12.0,12.0,12.0,1.0,lamb_chop_07s.jpg,0.0,Blue.png,3.0,129,,,,,,,,,,,,,,,,,
1.0,1.0,1.00244,0.0,13.0,13.0,13.0,1.0,lamb_chop_07s.jpg,1.0,Purple.png,3.0,129,,,,,,,,,,,,,,,,,
0.0,1.0,0.63789,0.0,14.0,14.0,14.0,1.0,timer_03s.jpg,0.0,Red.png,3.0,129,,,,,,,,,,,,,,,,,
1.0,1.0,0.97797,0.0,15.0,15.0,15.0,1.0,lamb_chop_07s.jpg,1.0,Orange.png,3.0,129,,,,,,,,,,,,,,,,,
0.0,1.0,1.066385,0.0,16.0,16.0,16.0,1.0,glue_01s.jpg,0.0,Yellow.png,3.0,129,,,,,,,,,,,,,,,,,
0.0,1.0,0.713485,0.0,17.0,17.0,17.0,1.0,solar_panel_02s.jpg,0.0,Green.png,3.0,129,,,,,,,,,,,,,,,,,
0.0,1.0,0.47612,0.0,18.0,18.0,18.0,1.0,muffin_12n.jpg,0.0,Blue.png,4.0,129,,,,,,,,,,,,,,,,,
0.0,1.0,0.81084,0.0,19.0,19.0,19.0,1.0,pepper2_21s.jpg,0.0,Purple.png,4.0,129,,,,,,,,,,,,,,,,,
0.0,1.0,0.91375,0.0,20.0,20.0,20.0,1.0,marker_05s.jpg,0.0,Red.png,4.0,129,,,,,,,,,,,,,,,,,
0.0,1.0,1.137935,0.0,21.0,21.0,21.0,1.0,soccer_ball_12s.jpg,0.0,Orange.png,4.0,129,,,,,,,,,,,,,,,,,
0.0,1.0,0.710625,0.0,22.0,22.0,22.0,1.0,amber_04s.jpg,0.0,Yellow.png,4.0,129,,,,,,,,,,,,,,,,,
0.0,1.0,0.816655,0.0,23.0,23.0,23.0,1.0,stopwatch_04s.jpg,0.0,Green.png,4.0,129,,,,,,,,,,,,,,,,,
0.0,1.0,1.205915,0.0,24.0,24.0,24.0,1.0,amber_04s.jpg,0.0,Blue.png,5.0,129,,,,,,,,,,,,,,,,,
0.0,1.0,0.80233,0.0,25.0,25.0,25.0,1.0,racehorse_03s.jpg,0.0,Purple.png,5.0,129,,,,,,,,,,,,,,,,,
1.0,1.0,1.17835,0.0,26.0,26.0,26.0,1.0,amber_04s.jpg,1.0,Red.png,5.0,129,,,,,,,,,,,,,,,,,
0.0,1.0,0.649745,0.0,27.0,27.0,27.0,1.0,duck_01b.jpg,0.0,Orange.png,5.0,129,,,,,,,,,,,,,,,,,
1.0,1.0,0.93828,0.0,28.0,28.0,28.0,1.0,amber_04s.jpg,1.0,Yellow.png,5.0,129,,,,,,,,,,,,,,,,,
1.0,1.0,0.914255,0.0,29.0,29.0,29.0,1.0,duck_01b.jpg,1.0,Green.png,5.0,129,,,,,,,,,,,,,,,,,
0.0,1.0,0.66071,0.0,30.0,30.0,30.0,1.0,duck_01b.jpg,0.0,Blue.png,6.0,129,,,,,,,,,,,,,,,,,
1.0,1.0,0.954485,0.0,31.0,31.0,31.0,1.0,duck_01b.jpg,1.0,Purple.png,6.0,129,,,,,,,,,,,,,,,,,
0.0,1.0,0.881855,0.0,32.0,32.0,32.0,1.0,magnet_03s.jpg,0.0,Red.png,6.0,129,,,,,,,,,,,,,,,,,
1.0,1.0,1.03463,0.0,33.0,33.0,33.0,1.0,duck_01b.jpg,1.0,Orange.png,6.0,129,,,,,,,,,,,,,,,,,
0.0,1.0,0.989985,0.0,34.0,34.0,34.0,1.0,swimming_pool_17s.jpg,0.0,Yellow.png,6.0,129,,,,,,,,,,,,,,,,,
0.0,1.0,0.844035,0.0,35.0,35.0,35.0,1.0,roulette_wheel_04s.jpg,0.0,Green.png,6.0,129,,,,,,,,,,,,,,,,,
,,,,,,,,,0.0,,,129,0.0,1.0,1.53339,0.0,0.0,0.0,0.0,1.0,blazer_02s.jpg,tulip_02s.jpg,,,,,,,
,,,,,,,,,1.0,,,129,0.0,0.0,0.81992,0.0,1.0,1.0,1.0,1.0,glue_01s.jpg,pepper2_21s.jpg,,,,,,,
,,,,,,,,,1.0,,,129,1.0,1.0,1.264685,0.0,2.0,2.0,2.0,1.0,kimono_13s.jpg,prism_10s.jpg,,,,,,,
,,,,,,,,,0.0,,,129,1.0,0.0,2.144545,0.0,3.0,3.0,3.0,1.0,soccer_ball_12s.jpg,muffin_12n.jpg,,,,,,,
,,,,,,,,,1.0,,,129,0.0,0.0,2.301365,0.0,4.0,4.0,4.0,1.0,magnet_03s.jpg,roulette_wheel_04s.jpg,,,,,,,
,,,,,,,,,0.0,,,129,0.0,1.0,1.64895,0.0,5.0,5.0,5.0,1.0,stopwatch_04s.jpg,marker_05s.jpg,,,,,,,
,,,,,,,,,,,,129,,,,,,,,,,,0.0,5.0,5.0,5.0,1.0,newclockpresent_6_2.xlsx,newclock_compare_task_6_2.xlsx
0.0,1.0,1.603755,0.0,0.0,0.0,0.0,1.0,slingshot_07s.jpg,0.0,Blue.png,1.0,129,,,,,,,,,,,,,,,,,
1.0,1.0,1.016035,0.0,1.0,1.0,1.0,1.0,slingshot_07s.jpg,1.0,Purple.png,1.0,129,,,,,,,,,,,,,,,,,
0.0,1.0,0.844195,0.0,2.0,2.0,2.0,1.0,aluminum_foil_08s.jpg,0.0,Red.png,1.0,129,,,,,,,,,,,,,,,,,
0.0,1.0,0.843885,0.0,3.0,3.0,3.0,1.0,ink_08s.jpg,0.0,Orange.png,1.0,129,,,,,,,,,,,,,,,,,
1.0,1.0,1.080645,0.0,4.0,4.0,4.0,1.0,aluminum_foil_08s.jpg,1.0,Yellow.png,1.0,129,,,,,,,,,,,,,,,,,
1.0,1.0,0.937235,0.0,5.0,5.0,5.0,1.0,slingshot_07s.jpg,1.0,Green.png,1.0,129,,,,,,,,,,,,,,,,,
0.0,1.0,0.5939,0.0,6.0,6.0,6.0,1.0,aluminum_foil_08s.jpg,0.0,Blue.png,2.0,129,,,,,,,,,,,,,,,,,
1.0,1.0,0.811195,0.0,7.0,7.0,7.0,1.0,aluminum_foil_08s.jpg,1.0,Purple.png,2.0,129,,,,,,,,,,,,,,,,,
0.0,1.0,0.90481,0.0,8.0,8.0,8.0,1.0,ice-cream_cone_06s.jpg,0.0,Red.png,2.0,129,,,,,,,,,,,,,,,,,
0.0,1.0,1.427035,0.0,9.0,9.0,9.0,1.0,ink_08s.jpg,0.0,Orange.png,2.0,129,,,,,,,,,,,,,,,,,
0.0,1.0,0.693895,0.0,10.0,10.0,10.0,1.0,emerald_02s.jpg,0.0,Yellow.png,2.0,129,,,,,,,,,,,,,,,,,
0.0,1.0,0.920805,0.0,11.0,11.0,11.0,1.0,bathtub_23s.jpg,0.0,Green.png,2.0,129,,,,,,,,,,,,,,,,,
0.0,1.0,0.81651,0.0,12.0,12.0,12.0,1.0,bubble_01b.jpg,0.0,Blue.png,3.0,129,,,,,,,,,,,,,,,,,
0.0,1.0,0.89657,0.0,13.0,13.0,13.0,1.0,mirror_12s.jpg,0.0,Purple.png,3.0,129,,,,,,,,,,,,,,,,,
0.0,1.0,1.16148,0.0,14.0,14.0,14.0,1.0,swing_set_15s.jpg,0.0,Red.png,3.0,129,,,,,,,,,,,,,,,,,
0.0,1.0,0.720815,0.0,15.0,15.0,15.0,1.0,pinwheel_06s.jpg,0.0,Orange.png,3.0,129,,,,,,,,,,,,,,,,,
1.0,1.0,0.928295,0.0,16.0,16.0,16.0,1.0,swing_set_15s.jpg,1.0,Yellow.png,3.0,129,,,,,,,,,,,,,,,,,
1.0,1.0,1.16142,0.0,17.0,17.0,17.0,1.0,pinwheel_06s.jpg,1.0,Green.png,3.0,129,,,,,,,,,,,,,,,,,
0.0,1.0,1.137215,0.0,18.0,18.0,18.0,1.0,ink_08s.jpg,0.0,Blue.png,4.0,129,,,,,,,,,,,,,,,,,
0.0,1.0,1.216785,0.0,19.0,19.0,19.0,1.0,plunger_08s.jpg,0.0,Purple.png,4.0,129,,,,,,,,,,,,,,,,,
1.0,1.0,0.94483,0.0,20.0,20.0,20.0,1.0,ink_08s.jpg,1.0,Red.png,4.0,129,,,,,,,,,,,,,,,,,
1.0,1.0,0.776865,0.0,21.0,21.0,21.0,1.0,ink_08s.jpg,1.0,Orange.png,4.0,129,,,,,,,,,,,,,,,,,
0.0,1.0,1.043845,0.0,22.0,22.0,22.0,1.0,metronome_03s.jpg,0.0,Yellow.png,4.0,129,,,,,,,,,,,,,,,,,
0.0,1.0,1.10443,0.0,23.0,23.0,23.0,1.0,puppy_08s.jpg,0.0,Green.png,4.0,129,,,,,,,,,,,,,,,,,
0.0,1.0,0.92675,0.0,24.0,24.0,24.0,1.0,treasure_08s.jpg,0.0,Blue.png,5.0,129,,,,,,,,,,,,,,,,,
0.0,1.0,1.04184,0.0,25.0,25.0,25.0,1.0,penguin_16s.jpg,0.0,Purple.png,5.0,129,,,,,,,,,,,,,,,,,
0.0,1.0,1.152315,0.0,26.0,26.0,26.0,1.0,bacon_05s.jpg,0.0,Red.png,5.0,129,,,,,,,,,,,,,,,,,
0.0,1.0,0.96825,0.0,27.0,27.0,27.0,1.0,giraffe_11s.jpg,0.0,Orange.png,5.0,129,,,,,,,,,,,,,,,,,
0.0,1.0,1.000355,0.0,28.0,28.0,28.0,1.0,rug_09s.jpg,0.0,Yellow.png,5.0,129,,,,,,,,,,,,,,,,,
0.0,1.0,1.02674,0.0,29.0,29.0,29.0,1.0,lamp_08s.jpg,0.0,Green.png,5.0,129,,,,,,,,,,,,,,,,,
0.0,1.0,0.83288,0.0,30.0,30.0,30.0,1.0,metronome_03s.jpg,0.0,Blue.png,6.0,129,,,,,,,,,,,,,,,,,
1.0,1.0,0.93751,0.0,31.0,31.0,31.0,1.0,metronome_03s.jpg,1.0,Purple.png,6.0,129,,,,,,,,,,,,,,,,,
0.0,1.0,0.82717,0.0,32.0,32.0,32.0,1.0,lip_gloss_06s.jpg,0.0,Red.png,6.0,129,,,,,,,,,,,,,,,,,
1.0,1.0,1.04473,0.0,33.0,33.0,33.0,1.0,metronome_03s.jpg,1.0,Orange.png,6.0,129,,,,,,,,,,,,,,,,,
0.0,1.0,0.810125,0.0,34.0,34.0,34.0,1.0,laser_pointer_02s.jpg,0.0,Yellow.png,6.0,129,,,,,,,,,,,,,,,,,
1.0,1.0,0.728525,0.0,35.0,35.0,35.0,1.0,metronome_03s.jpg,1.0,Green.png,6.0,129,,,,,,,,,,,,,,,,,
,,,,,,,,,1.0,,,129,1.0,1.0,1.72595,0.0,0.0,0.0,0.0,1.0,emerald_02s.jpg,mirror_12s.jpg,,,,,,,
,,,,,,,,,1.0,,,129,1.0,1.0,1.48492,0.0,1.0,1.0,1.0,1.0,puppy_08s.jpg,bacon_05s.jpg,,,,,,,
,,,,,,,,,0.0,,,129,0.0,1.0,1.917175,0.0,2.0,2.0,2.0,1.0,lip_gloss_06s.jpg,lamp_08s.jpg,,,,,,,
,,,,,,,,,0.0,,,129,1.0,0.0,1.067295,0.0,3.0,3.0,3.0,1.0,bathtub_23s.jpg,ice-cream_cone_06s.jpg,,,,,,,
,,,,,,,,,0.0,,,129,1.0,0.0,1.74012,0.0,4.0,4.0,4.0,1.0,giraffe_11s.jpg,treasure_08s.jpg,,,,,,,
,,,,,,,,,0.0,,,129,0.0,1.0,1.626975,0.0,5.0,5.0,5.0,1.0,rug_09s.jpg,penguin_16s.jpg,,,,,,,
,,,,,,,,,,,,129,,,,,,,,,,,0.0,6.0,6.0,6.0,1.0,newclockpresent_7_2.xlsx,newclock_compare_task_7_2.xlsx
0.0,1.0,1.17994,0.0,0.0,0.0,0.0,1.0,ant_12s.jpg,0.0,Blue.png,1.0,129,,,,,,,,,,,,,,,,,
1.0,1.0,0.79338,0.0,1.0,1.0,1.0,1.0,ant_12s.jpg,1.0,Purple.png,1.0,129,,,,,,,,,,,,,,,,,
0.0,1.0,0.950275,0.0,2.0,2.0,2.0,1.0,ticktacktoe_08s.jpg,0.0,Red.png,1.0,129,,,,,,,,,,,,,,,,,
0.0,1.0,1.76122,0.0,3.0,3.0,3.0,1.0,frog_09s.jpg,0.0,Orange.png,1.0,129,,,,,,,,,,,,,,,,,
1.0,1.0,1.744675,0.0,4.0,4.0,4.0,1.0,ticktacktoe_08s.jpg,1.0,Yellow.png,1.0,129,,,,,,,,,,,,,,,,,
0.0,1.0,0.792845,0.0,5.0,5.0,5.0,1.0,feather02.jpg,0.0,Green.png,1.0,129,,,,,,,,,,,,,,,,,
0.0,1.0,0.680405,0.0,6.0,6.0,6.0,1.0,gas_mask_11s.jpg,0.0,Blue.png,2.0,129,,,,,,,,,,,,,,,,,
1.0,1.0,1.08086,0.0,7.0,7.0,7.0,1.0,gas_mask_11s.jpg,1.0,Purple.png,2.0,129,,,,,,,,,,,,,,,,,
0.0,1.0,0.712045,0.0,8.0,8.0,8.0,1.0,mop_08s.jpg,0.0,Red.png,2.0,129,,,,,,,,,,,,,,,,,
1.0,1.0,0.784405,0.0,9.0,9.0,9.0,1.0,gas_mask_11s.jpg,1.0,Orange.png,2.0,129,,,,,,,,,,,,,,,,,
0.0,1.0,0.889555,0.0,10.0,10.0,10.0,1.0,pea_11s.jpg,0.0,Yellow.png,2.0,129,,,,,,,,,,,,,,,,,
0.0,1.0,0.859725,0.0,11.0,11.0,11.0,1.0,bowler_hat_10s.jpg,0.0,Green.png,2.0,129,,,,,,,,,,,,,,,,,
0.0,1.0,0.72112,0.0,12.0,12.0,12.0,1.0,pencil_sharpener_09n.jpg,0.0,Blue.png,3.0,129,,,,,,,,,,,,,,,,,
0.0,1.0,0.64889,0.0,13.0,13.0,13.0,1.0,rice_12s.jpg,0.0,Purple.png,3.0,129,,,,,,,,,,,,,,,,,
0.0,1.0,0.863955,0.0,14.0,14.0,14.0,1.0,stamp1_11s.jpg,0.0,Red.png,3.0,129,,,,,,,,,,,,,,,,,
0.0,1.0,1.26061,0.0,15.0,15.0,15.0,1.0,jersey_02s.jpg,0.0,Orange.png,3.0,129,,,,,,,,,,,,,,,,,
0.0,1.0,0.810535,0.0,16.0,16.0,16.0,1.0,tiara_05s.jpg,0.0,Yellow.png,3.0,129,,,,,,,,,,,,,,,,,
0.0,1.0,0.593475,0.0,17.0,17.0,17.0,1.0,target_11s.jpg,0.0,Green.png,3.0,129,,,,,,,,,,,,,,,,,
0.0,1.0,0.889755,0.0,18.0,18.0,18.0,1.0,dirt_bike_11s.jpg,0.0,Blue.png,4.0,129,,,,,,,,,,,,,,,,,
0.0,1.0,0.87662,0.0,19.0,19.0,19.0,1.0,doily_13s.jpg,0.0,Purple.png,4.0,129,,,,,,,,,,,,,,,,,
0.0,1.0,0.616295,0.0,20.0,20.0,20.0,1.0,sunglasses_11s.jpg,0.0,Red.png,4.0,129,,,,,,,,,,,,,,,,,
0.0,1.0,0.86023,0.0,21.0,21.0,21.0,1.0,compass_10n.jpg,0.0,Orange.png,4.0,129,,,,,,,,,,,,,,,,,
1.0,1.0,1.000955,0.0,22.0,22.0,22.0,1.0,sunglasses_11s.jpg,1.0,Yellow.png,4.0,129,,,,,,,,,,,,,,,,,
1.0,1.0,0.72131,0.0,23.0,23.0,23.0,1.0,sunglasses_11s.jpg,1.0,Green.png,4.0,129,,,,,,,,,,,,,,,,,
0.0,1.0,0.7201,0.0,24.0,24.0,24.0,1.0,seagull_01b.jpg,0.0,Blue.png,5.0,129,,,,,,,,,,,,,,,,,
0.0,1.0,1.18427,0.0,25.0,25.0,25.0,1.0,footprint_11s.jpg,0.0,Purple.png,5.0,129,,,,,,,,,,,,,,,,,
0.0,1.0,0.73701,0.0,26.0,26.0,26.0,1.0,projector_08s.jpg,0.0,Red.png,5.0,129,,,,,,,,,,,,,,,,,
1.0,1.0,0.76054,0.0,27.0,27.0,27.0,1.0,projector_08s.jpg,1.0,Orange.png,5.0,129,,,,,,,,,,,,,,,,,
0.0,1.0,0.83322,0.0,28.0,28.0,28.0,1.0,money_07s.jpg,0.0,Yellow.png,5.0,129,,,,,,,,,,,,,,,,,
0.0,1.0,0.76071,0.0,29.0,29.0,29.0,1.0,flip_flop_03s.jpg,0.0,Green.png,5.0,129,,,,,,,,,,,,,,,,,
0.0,1.0,0.68993,0.0,30.0,30.0,30.0,1.0,ring_03s.jpg,0.0,Blue.png,6.0,129,,,,,,,,,,,,,,,,,
0.0,1.0,1.400595,0.0,31.0,31.0,31.0,1.0,flip_flop_03s.jpg,0.0,Purple.png,6.0,129,,,,,,,,,,,,,,,,,
1.0,1.0,0.83002,0.0,32.0,32.0,32.0,1.0,flip_flop_03s.jpg,1.0,Red.png,6.0,129,,,,,,,,,,,,,,,,,
1.0,1.0,0.65952,0.0,33.0,33.0,33.0,1.0,flip_flop_03s.jpg,1.0,Orange.png,6.0,129,,,,,,,,,,,,,,,,,
0.0,1.0,0.69727,0.0,34.0,34.0,34.0,1.0,screwdriver02a.jpg,0.0,Yellow.png,6.0,129,,,,,,,,,,,,,,,,,
1.0,1.0,0.96894,0.0,35.0,35.0,35.0,1.0,screwdriver02a.jpg,1.0,Green.png,6.0,129,,,,,,,,,,,,,,,,,
,,,,,,,,,0.0,,,129,0.0,1.0,1.361955,0.0,0.0,0.0,0.0,1.0,mop_08s.jpg,feather02.jpg,,,,,,,
,,,,,,,,,1.0,,,129,0.0,0.0,1.24229,0.0,1.0,1.0,1.0,1.0,pea_11s.jpg,rice_12s.jpg,,,,,,,
,,,,,,,,,1.0,,,129,1.0,1.0,1.64689,0.0,2.0,2.0,2.0,1.0,tiara_05s.jpg,doily_13s.jpg,,,,,,,
,,,,,,,,,1.0,,,129,1.0,1.0,1.43206,0.0,3.0,3.0,3.0,1.0,footprint_11s.jpg,money_07s.jpg,,,,,,,
,,,,,,,,,1.0,,,129,1.0,1.0,1.064435,0.0,4.0,4.0,4.0,1.0,pencil_sharpener_09n.jpg,jersey_02s.jpg,,,,,,,
,,,,,,,,,1.0,,,129,1.0,1.0,1.347815,0.0,5.0,5.0,5.0,1.0,stamp1_11s.jpg,target_11s.jpg,,,,,,,
,,,,,,,,,,,,129,,,,,,,,,,,0.0,7.0,7.0,7.0,1.0,newclockpresent_8_2.xlsx,newclock_compare_task_8_2.xlsx
0.0,1.0,1.252665,0.0,0.0,0.0,0.0,1.0,quilt_03s.jpg,0.0,Blue.png,1.0,129,,,,,,,,,,,,,,,,,
0.0,1.0,1.062025,0.0,1.0,1.0,1.0,1.0,stingray_02s.jpg,0.0,Purple.png,1.0,129,,,,,,,,,,,,,,,,,
0.0,1.0,0.93355,0.0,2.0,2.0,2.0,1.0,mousetrap_15n.jpg,0.0,Red.png,1.0,129,,,,,,,,,,,,,,,,,
0.0,1.0,0.58183,0.0,3.0,3.0,3.0,1.0,dashboard_02s.jpg,0.0,Orange.png,1.0,129,,,,,,,,,,,,,,,,,
1.0,1.0,0.765775,0.0,4.0,4.0,4.0,1.0,quilt_03s.jpg,1.0,Yellow.png,1.0,129,,,,,,,,,,,,,,,,,
1.0,1.0,0.92687,0.0,5.0,5.0,5.0,1.0,quilt_03s.jpg,1.0,Green.png,1.0,129,,,,,,,,,,,,,,,,,
0.0,1.0,0.62204,0.0,6.0,6.0,6.0,1.0,thorn_13s.jpg,0.0,Blue.png,2.0,129,,,,,,,,,,,,,,,,,
0.0,1.0,1.01479,0.0,7.0,7.0,7.0,1.0,mitten_10s.jpg,0.0,Purple.png,2.0,129,,,,,,,,,,,,,,,,,
0.0,1.0,0.85344,0.0,8.0,8.0,8.0,1.0,fondue_07s.jpg,0.0,Red.png,2.0,129,,,,,,,,,,,,,,,,,
0.0,1.0,0.77726,0.0,9.0,9.0,9.0,1.0,peach_04s.jpg,0.0,Orange.png,2.0,129,,,,,,,,,,,,,,,,,
0.0,1.0,0.61044,0.0,10.0,10.0,10.0,1.0,stump_02s.jpg,0.0,Yellow.png,2.0,129,,,,,,,,,,,,,,,,,
0.0,1.0,0.598,0.0,11.0,11.0,11.0,1.0,rabbit_03s.jpg,0.0,Green.png,2.0,129,,,,,,,,,,,,,,,,,
0.0,1.0,0.48624,0.0,12.0,12.0,12.0,1.0,champagne_18s.jpg,0.0,Blue.png,3.0,129,,,,,,,,,,,,,,,,,
0.0,1.0,1.126955,0.0,13.0,13.0,13.0,1.0,rabbit_03s.jpg,0.0,Purple.png,3.0,129,,,,,,,,,,,,,,,,,
0.0,1.0,0.88604,0.0,14.0,14.0,14.0,1.0,denture_03s.jpg,0.0,Red.png,3.0,129,,,,,,,,,,,,,,,,,
1.0,1.0,1.1011,0.0,15.0,15.0,15.0,1.0,rabbit_03s.jpg,1.0,Orange.png,3.0,129,,,,,,,,,,,,,,,,,
0.0,1.0,0.83017,0.0,16.0,16.0,16.0,1.0,turtleneck_11s.jpg,0.0,Yellow.png,3.0,129,,,,,,,,,,,,,,,,,
1.0,1.0,0.84586,0.0,17.0,17.0,17.0,1.0,rabbit_03s.jpg,1.0,Green.png,3.0,129,,,,,,,,,,,,,,,,,
0.0,1.0,0.65318,0.0,18.0,18.0,18.0,1.0,typewriter_11s.jpg,0.0,Blue.png,4.0,129,,,,,,,,,,,,,,,,,
0.0,1.0,0.760135,0.0,19.0,19.0,19.0,1.0,thread_08s.jpg,0.0,Purple.png,4.0,129,,,,,,,,,,,,,,,,,
0.0,1.0,0.845325,0.0,20.0,20.0,20.0,1.0,bean_06s.jpg,0.0,Red.png,4.0,129,,,,,,,,,,,,,,,,,
0.0,1.0,0.724815,0.0,21.0,21.0,21.0,1.0,rolling_pin_02s.jpg,0.0,Orange.png,4.0,129,,,,,,,,,,,,,,,,,
0.0,1.0,0.92649,0.0,22.0,22.0,22.0,1.0,tattoo_14s.jpg,0.0,Yellow.png,4.0,129,,,,,,,,,,,,,,,,,
0.0,1.0,0.676385,0.0,23.0,23.0,23.0,1.0,eiffeltower.jpg,0.0,Green.png,4.0,129,,,,,,,,,,,,,,,,,
0.0,1.0,0.860985,0.0,24.0,24.0,24.0,1.0,fondue_07s.jpg,0.0,Blue.png,5.0,129,,,,,,,,,,,,,,,,,
1.0,1.0,0.889855,0.0,25.0,25.0,25.0,1.0,fondue_07s.jpg,1.0,Purple.png,5.0,129,,,,,,,,,,,,,,,,,
0.0,1.0,0.63781,0.0,26.0,26.0,26.0,1.0,omelet_07s.jpg,0.0,Red.png,5.0,129,,,,,,,,,,,,,,,,,
1.0,1.0,0.945035,0.0,27.0,27.0,27.0,1.0,fondue_07s.jpg,1.0,Orange.png,5.0,129,,,,,,,,,,,,,,,,,
0.0,1.0,0.811035,0.0,28.0,28.0,28.0,1.0,radio_09s.jpg,0.0,Yellow.png,5.0,129,,,,,,,,,,,,,,,,,
1.0,1.0,0.997895,0.0,29.0,29.0,29.0,1.0,fondue_07s.jpg,1.0,Green.png,5.0,129,,,,,,,,,,,,,,,,,
0.0,1.0,0.809935,0.0,30.0,30.0,30.0,1.0,roller_coaster_07s.jpg,0.0,Blue.png,6.0,129,,,,,,,,,,,,,,,,,
0.0,1.0,0.822345,0.0,31.0,31.0,31.0,1.0,loveseat_08s.jpg,0.0,Purple.png,6.0,129,,,,,,,,,,,,,,,,,
1.0,1.0,1.06215,0.0,32.0,32.0,32.0,1.0,roller_coaster_07s.jpg,1.0,Red.png,6.0,129,,,,,,,,,,,,,,,,,
1.0,1.0,0.83857,0.0,33.0,33.0,33.0,1.0,roller_coaster_07s.jpg,1.0,Orange.png,6.0,129,,,,,,,,,,,,,,,,,
1.0,1.0,0.54298,0.0,34.0,34.0,34.0,1.0,roller_coaster_07s.jpg,1.0,Yellow.png,6.0,129,,,,,,,,,,,,,,,,,
1.0,1.0,0.55035,0.0,35.0,35.0,35.0,1.0,roller_coaster_07s.jpg,1.0,Green.png,6.0,129,,,,,,,,,,,,,,,,,
,,,,,,,,,0.0,,,129,0.0,1.0,0.88256,0.0,0.0,0.0,0.0,1.0,loveseat_08s.jpg,radio_09s.jpg,,,,,,,
,,,,,,,,,1.0,,,129,1.0,1.0,0.948065,0.0,1.0,1.0,1.0,1.0,dashboard_02s.jpg,thorn_13s.jpg,,,,,,,
,,,,,,,,,0.0,,,129,0.0,1.0,1.425755,0.0,2.0,2.0,2.0,1.0,champagne_18s.jpg,peach_04s.jpg,,,,,,,
,,,,,,,,,1.0,,,129,1.0,1.0,1.436185,0.0,3.0,3.0,3.0,1.0,mitten_10s.jpg,stump_02s.jpg,,,,,,,
,,,,,,,,,1.0,,,129,0.0,0.0,1.189385,0.0,4.0,4.0,4.0,1.0,typewriter_11s.jpg,rolling_pin_02s.jpg,,,,,,,
,,,,,,,,,1.0,,,129,1.0,1.0,1.29843,0.0,5.0,5.0,5.0,1.0,thread_08s.jpg,tattoo_14s.jpg,,,,,,,
,,,,,,,,,,,,129,,,,,,,,,,,0.0,8.0,8.0,8.0,1.0,newclockpresent_9_2.xlsx,newclock_compare_task_9_2.xlsx
