key_resp.keys,key_resp.corr,key_resp.rt,present_segment.thisRepN,present_segment.thisTrialN,present_segment.thisN,present_segment.thisIndex,present_segment.ran,pictures,answer,clock,segment,participant,key_resp_2.keys,key_resp_2.corr,key_resp_2.rt,compare_segment.thisRepN,compare_segment.thisTrialN,compare_segment.thisN,compare_segment.thisIndex,compare_segment.ran,item_a,item_b,clock_conditions.thisRepN,clock_conditions.thisTrialN,clock_conditions.thisN,clock_conditions.thisIndex,clock_conditions.ran,present,compare
0.0,1.0,0.83531,0.0,0.0,0.0,0.0,1.0,mirror_12s.jpg,0.0,Blue.png,1.0,14,,,,,,,,,,,,,,,,,
0.0,1.0,1.180685,0.0,1.0,1.0,1.0,1.0,polaroid_05s.jpg,0.0,Purple.png,1.0,14,,,,,,,,,,,,,,,,,
0.0,1.0,0.94197,0.0,2.0,2.0,2.0,1.0,polaroid_05s.jpg,0.0,Red.png,1.0,14,,,,,,,,,,,,,,,,,
0.0,1.0,0.50094,0.0,3.0,3.0,3.0,1.0,slingshot_07s.jpg,0.0,Orange.png,1.0,14,,,,,,,,,,,,,,,,,
1.0,1.0,0.817355,0.0,4.0,4.0,4.0,1.0,polaroid_05s.jpg,1.0,Yellow.png,1.0,14,,,,,,,,,,,,,,,,,
0.0,1.0,0.585775,0.0,5.0,5.0,5.0,1.0,kettle_08s.jpg,0.0,Green.png,1.0,14,,,,,,,,,,,,,,,,,
0.0,1.0,0.37931,0.0,6.0,6.0,6.0,1.0,crystal_ball_12s.jpg,0.0,Blue.png,2.0,14,,,,,,,,,,,,,,,,,
0.0,1.0,0.50664,0.0,7.0,7.0,7.0,1.0,iron_13s.jpg,0.0,Purple.png,2.0,14,,,,,,,,,,,,,,,,,
0.0,1.0,0.49595,0.0,8.0,8.0,8.0,1.0,saddle_06s.jpg,0.0,Red.png,2.0,14,,,,,,,,,,,,,,,,,
0.0,1.0,0.541725,0.0,9.0,9.0,9.0,1.0,mango_09s.jpg,0.0,Orange.png,2.0,14,,,,,,,,,,,,,,,,,
0.0,1.0,0.51362,0.0,10.0,10.0,10.0,1.0,ostrich_06s.jpg,0.0,Yellow.png,2.0,14,,,,,,,,,,,,,,,,,
0.0,1.0,1.97238,0.0,11.0,11.0,11.0,1.0,iron_13s.jpg,0.0,Green.png,2.0,14,,,,,,,,,,,,,,,,,
0.0,1.0,0.66639,0.0,12.0,12.0,12.0,1.0,stethoscope_01b.jpg,0.0,Blue.png,3.0,14,,,,,,,,,,,,,,,,,
0.0,1.0,0.49424,0.0,13.0,13.0,13.0,1.0,ruby_15s.jpg,0.0,Purple.png,3.0,14,,,,,,,,,,,,,,,,,
1.0,0.0,0.77712,0.0,14.0,14.0,14.0,1.0,mango_09s.jpg,0.0,Red.png,3.0,14,,,,,,,,,,,,,,,,,
0.0,1.0,0.47578,0.0,15.0,15.0,15.0,1.0,target_11s.jpg,0.0,Orange.png,3.0,14,,,,,,,,,,,,,,,,,
1.0,1.0,0.79279,0.0,16.0,16.0,16.0,1.0,mango_09s.jpg,1.0,Yellow.png,3.0,14,,,,,,,,,,,,,,,,,
0.0,1.0,0.63356,0.0,17.0,17.0,17.0,1.0,compass_10n.jpg,0.0,Green.png,3.0,14,,,,,,,,,,,,,,,,,
0.0,1.0,0.41033,0.0,18.0,18.0,18.0,1.0,meatball_13s.jpg,0.0,Blue.png,4.0,14,,,,,,,,,,,,,,,,,
0.0,1.0,0.510295,0.0,19.0,19.0,19.0,1.0,stapler_01b.jpg,0.0,Purple.png,4.0,14,,,,,,,,,,,,,,,,,
1.0,1.0,0.43942,0.0,20.0,20.0,20.0,1.0,meatball_13s.jpg,1.0,Red.png,4.0,14,,,,,,,,,,,,,,,,,
0.0,1.0,0.495425,0.0,21.0,21.0,21.0,1.0,pump_11s.jpg,0.0,Orange.png,4.0,14,,,,,,,,,,,,,,,,,
0.0,1.0,0.45669,0.0,22.0,22.0,22.0,1.0,coral_08s.jpg,0.0,Yellow.png,4.0,14,,,,,,,,,,,,,,,,,
0.0,1.0,0.870375,0.0,23.0,23.0,23.0,1.0,meatball_13s.jpg,0.0,Green.png,4.0,14,,,,,,,,,,,,,,,,,
0.0,1.0,0.550185,0.0,24.0,24.0,24.0,1.0,peach_04s.jpg,0.0,Blue.png,5.0,14,,,,,,,,,,,,,,,,,
1.0,1.0,0.72476,0.0,25.0,25.0,25.0,1.0,meatball_13s.jpg,1.0,Purple.png,5.0,14,,,,,,,,,,,,,,,,,
0.0,1.0,0.536625,0.0,26.0,26.0,26.0,1.0,pie_08s.jpg,0.0,Red.png,5.0,14,,,,,,,,,,,,,,,,,
0.0,1.0,0.476985,0.0,27.0,27.0,27.0,1.0,rollerskate_03s.jpg,0.0,Orange.png,5.0,14,,,,,,,,,,,,,,,,,
0.0,1.0,0.56201,0.0,28.0,28.0,28.0,1.0,trampoline_13s.jpg,0.0,Yellow.png,5.0,14,,,,,,,,,,,,,,,,,
0.0,1.0,0.47267,0.0,29.0,29.0,29.0,1.0,undershirt_02s.jpg,0.0,Green.png,5.0,14,,,,,,,,,,,,,,,,,
0.0,1.0,0.439355,0.0,30.0,30.0,30.0,1.0,thread_08s.jpg,0.0,Blue.png,6.0,14,,,,,,,,,,,,,,,,,
0.0,1.0,0.449965,0.0,31.0,31.0,31.0,1.0,megaphone_03s.jpg,0.0,Purple.png,6.0,14,,,,,,,,,,,,,,,,,
0.0,1.0,0.54476,0.0,32.0,32.0,32.0,1.0,plaster_cast_13s.jpg,0.0,Red.png,6.0,14,,,,,,,,,,,,,,,,,
0.0,1.0,0.48813,0.0,33.0,33.0,33.0,1.0,diving_board_07s.jpg,0.0,Orange.png,6.0,14,,,,,,,,,,,,,,,,,
0.0,1.0,0.475105,0.0,34.0,34.0,34.0,1.0,kayak_08s.jpg,0.0,Yellow.png,6.0,14,,,,,,,,,,,,,,,,,
1.0,1.0,0.694,0.0,35.0,35.0,35.0,1.0,diving_board_07s.jpg,1.0,Green.png,6.0,14,,,,,,,,,,,,,,,,,
,,,,,,,,,1.0,,,14,1.0,1.0,2.225065,0.0,0.0,0.0,0.0,1.0,stapler_01b.jpg,coral_08s.jpg,,,,,,,
,,,,,,,,,1.0,,,14,0.0,0.0,1.602455,0.0,1.0,1.0,1.0,1.0,slingshot_07s.jpg,crystal_ball_12s.jpg,,,,,,,
,,,,,,,,,0.0,,,14,1.0,0.0,1.42185,0.0,2.0,2.0,2.0,1.0,saddle_06s.jpg,kettle_08s.jpg,,,,,,,
,,,,,,,,,1.0,,,14,1.0,1.0,1.996,0.0,3.0,3.0,3.0,1.0,pie_08s.jpg,undershirt_02s.jpg,,,,,,,
,,,,,,,,,1.0,,,14,1.0,1.0,1.635265,0.0,4.0,4.0,4.0,1.0,stethoscope_01b.jpg,target_11s.jpg,,,,,,,
,,,,,,,,,1.0,,,14,1.0,1.0,1.790875,0.0,5.0,5.0,5.0,1.0,ostrich_06s.jpg,ruby_15s.jpg,,,,,,,
,,,,,,,,,,,,14,,,,,,,,,,,0.0,0.0,0.0,0.0,1.0,new2backpresent_1_4.xlsx,new2back_compare_task_1_4.xlsx
0.0,1.0,0.79955,0.0,0.0,0.0,0.0,1.0,jetski_10s.jpg,0.0,Blue.png,1.0,14,,,,,,,,,,,,,,,,,
0.0,1.0,0.40783,0.0,1.0,1.0,1.0,1.0,tripod_01b.jpg,0.0,Purple.png,1.0,14,,,,,,,,,,,,,,,,,
0.0,1.0,0.459395,0.0,2.0,2.0,2.0,1.0,lab_coat_11s.jpg,0.0,Red.png,1.0,14,,,,,,,,,,,,,,,,,
0.0,1.0,0.55827,0.0,3.0,3.0,3.0,1.0,foam_03s.jpg,0.0,Orange.png,1.0,14,,,,,,,,,,,,,,,,,
0.0,1.0,0.540505,0.0,4.0,4.0,4.0,1.0,crate_05s.jpg,0.0,Yellow.png,1.0,14,,,,,,,,,,,,,,,,,
0.0,1.0,0.535795,0.0,5.0,5.0,5.0,1.0,margarita_03s.jpg,0.0,Green.png,1.0,14,,,,,,,,,,,,,,,,,
0.0,1.0,0.468005,0.0,6.0,6.0,6.0,1.0,joystick_01b.jpg,0.0,Blue.png,2.0,14,,,,,,,,,,,,,,,,,
0.0,1.0,0.573585,0.0,7.0,7.0,7.0,1.0,giraffe_11s.jpg,0.0,Purple.png,2.0,14,,,,,,,,,,,,,,,,,
0.0,1.0,0.474465,0.0,8.0,8.0,8.0,1.0,quilt_03s.jpg,0.0,Red.png,2.0,14,,,,,,,,,,,,,,,,,
1.0,1.0,0.4976,0.0,9.0,9.0,9.0,1.0,giraffe_11s.jpg,1.0,Orange.png,2.0,14,,,,,,,,,,,,,,,,,
0.0,1.0,0.570155,0.0,10.0,10.0,10.0,1.0,pincushion_10s.jpg,0.0,Yellow.png,2.0,14,,,,,,,,,,,,,,,,,
1.0,1.0,0.548505,0.0,11.0,11.0,11.0,1.0,giraffe_11s.jpg,1.0,Green.png,2.0,14,,,,,,,,,,,,,,,,,
1.0,1.0,1.36024,0.0,12.0,12.0,12.0,1.0,pincushion_10s.jpg,1.0,Blue.png,3.0,14,,,,,,,,,,,,,,,,,
1.0,1.0,1.754205,0.0,13.0,13.0,13.0,1.0,giraffe_11s.jpg,1.0,Purple.png,3.0,14,,,,,,,,,,,,,,,,,
0.0,1.0,0.572265,0.0,14.0,14.0,14.0,1.0,rolling_pin_02s.jpg,0.0,Red.png,3.0,14,,,,,,,,,,,,,,,,,
0.0,1.0,0.52561,0.0,15.0,15.0,15.0,1.0,ticktacktoe_08s.jpg,0.0,Orange.png,3.0,14,,,,,,,,,,,,,,,,,
0.0,1.0,0.81184,0.0,16.0,16.0,16.0,1.0,giraffe_11s.jpg,0.0,Yellow.png,3.0,14,,,,,,,,,,,,,,,,,
1.0,1.0,0.91826,0.0,17.0,17.0,17.0,1.0,ticktacktoe_08s.jpg,1.0,Green.png,3.0,14,,,,,,,,,,,,,,,,,
0.0,1.0,0.58263,0.0,18.0,18.0,18.0,1.0,typewriter_11s.jpg,0.0,Blue.png,4.0,14,,,,,,,,,,,,,,,,,
0.0,1.0,0.71047,0.0,19.0,19.0,19.0,1.0,toothpaste_12s.jpg,0.0,Purple.png,4.0,14,,,,,,,,,,,,,,,,,
0.0,1.0,0.73308,0.0,20.0,20.0,20.0,1.0,hummingbird_05s.jpg,0.0,Red.png,4.0,14,,,,,,,,,,,,,,,,,
1.0,1.0,0.625385,0.0,21.0,21.0,21.0,1.0,toothpaste_12s.jpg,1.0,Orange.png,4.0,14,,,,,,,,,,,,,,,,,
0.0,1.0,0.829705,0.0,22.0,22.0,22.0,1.0,toothpaste_12s.jpg,0.0,Yellow.png,4.0,14,,,,,,,,,,,,,,,,,
0.0,1.0,0.87286,0.0,23.0,23.0,23.0,1.0,treadmill_06s.jpg,0.0,Green.png,4.0,14,,,,,,,,,,,,,,,,,
0.0,1.0,0.565535,0.0,24.0,24.0,24.0,1.0,typewriter_11s.jpg,0.0,Blue.png,5.0,14,,,,,,,,,,,,,,,,,
0.0,1.0,0.610445,0.0,25.0,25.0,25.0,1.0,penguin_16s.jpg,0.0,Purple.png,5.0,14,,,,,,,,,,,,,,,,,
0.0,1.0,0.48977,0.0,26.0,26.0,26.0,1.0,olive_05s.jpg,0.0,Red.png,5.0,14,,,,,,,,,,,,,,,,,
1.0,1.0,0.719235,0.0,27.0,27.0,27.0,1.0,penguin_16s.jpg,1.0,Orange.png,5.0,14,,,,,,,,,,,,,,,,,
0.0,1.0,1.40012,0.0,28.0,28.0,28.0,1.0,penguin_16s.jpg,0.0,Yellow.png,5.0,14,,,,,,,,,,,,,,,,,
0.0,1.0,0.60946,0.0,29.0,29.0,29.0,1.0,tab_09s.jpg,0.0,Green.png,5.0,14,,,,,,,,,,,,,,,,,
0.0,1.0,0.41912,0.0,30.0,30.0,30.0,1.0,frame_06s.jpg,0.0,Blue.png,6.0,14,,,,,,,,,,,,,,,,,
0.0,1.0,0.54752,0.0,31.0,31.0,31.0,1.0,mop_08s.jpg,0.0,Purple.png,6.0,14,,,,,,,,,,,,,,,,,
0.0,1.0,0.510305,0.0,32.0,32.0,32.0,1.0,memory_stick_11s.jpg,0.0,Red.png,6.0,14,,,,,,,,,,,,,,,,,
0.0,1.0,0.58114,0.0,33.0,33.0,33.0,1.0,olive_05s.jpg,0.0,Orange.png,6.0,14,,,,,,,,,,,,,,,,,
0.0,1.0,0.528825,0.0,34.0,34.0,34.0,1.0,ravioli_08s.jpg,0.0,Yellow.png,6.0,14,,,,,,,,,,,,,,,,,
0.0,1.0,0.55743,0.0,35.0,35.0,35.0,1.0,mousetrap_15n.jpg,0.0,Green.png,6.0,14,,,,,,,,,,,,,,,,,
,,,,,,,,,1.0,,,14,1.0,1.0,1.770865,0.0,0.0,0.0,0.0,1.0,hummingbird_05s.jpg,treadmill_06s.jpg,,,,,,,
,,,,,,,,,1.0,,,14,1.0,1.0,1.074965,0.0,1.0,1.0,1.0,1.0,margarita_03s.jpg,quilt_03s.jpg,,,,,,,
,,,,,,,,,0.0,,,14,0.0,1.0,1.27189,0.0,2.0,2.0,2.0,1.0,joystick_01b.jpg,foam_03s.jpg,,,,,,,
,,,,,,,,,0.0,,,14,0.0,1.0,1.519735,0.0,3.0,3.0,3.0,1.0,ravioli_08s.jpg,mop_08s.jpg,,,,,,,
,,,,,,,,,1.0,,,14,0.0,0.0,1.58384,0.0,4.0,4.0,4.0,1.0,tab_09s.jpg,memory_stick_11s.jpg,,,,,,,
,,,,,,,,,1.0,,,14,1.0,1.0,2.005535,0.0,5.0,5.0,5.0,1.0,tripod_01b.jpg,crate_05s.jpg,,,,,,,
,,,,,,,,,,,,14,,,,,,,,,,,0.0,1.0,1.0,1.0,1.0,new2backpresent_2_4.xlsx,new2back_compare_task_2_4.xlsx
0.0,1.0,0.75279,0.0,0.0,0.0,0.0,1.0,safety_pin_02s.jpg,0.0,Blue.png,1.0,14,,,,,,,,,,,,,,,,,
0.0,1.0,1.84076,0.0,1.0,1.0,1.0,1.0,safety_pin_02s.jpg,0.0,Purple.png,1.0,14,,,,,,,,,,,,,,,,,
0.0,1.0,0.583585,0.0,2.0,2.0,2.0,1.0,cardinal_07s.jpg,0.0,Red.png,1.0,14,,,,,,,,,,,,,,,,,
1.0,1.0,0.44862,0.0,3.0,3.0,3.0,1.0,safety_pin_02s.jpg,1.0,Orange.png,1.0,14,,,,,,,,,,,,,,,,,
0.0,1.0,0.60046,0.0,4.0,4.0,4.0,1.0,potholder_02s.jpg,0.0,Yellow.png,1.0,14,,,,,,,,,,,,,,,,,
1.0,1.0,0.436755,0.0,5.0,5.0,5.0,1.0,safety_pin_02s.jpg,1.0,Green.png,1.0,14,,,,,,,,,,,,,,,,,
0.0,1.0,0.50022,0.0,6.0,6.0,6.0,1.0,cardinal_07s.jpg,0.0,Blue.png,2.0,14,,,,,,,,,,,,,,,,,
0.0,1.0,0.55509,0.0,7.0,7.0,7.0,1.0,lion_18s.jpg,0.0,Purple.png,2.0,14,,,,,,,,,,,,,,,,,
0.0,1.0,0.643065,0.0,8.0,8.0,8.0,1.0,comic_book_02s.jpg,0.0,Red.png,2.0,14,,,,,,,,,,,,,,,,,
0.0,1.0,0.56092,0.0,9.0,9.0,9.0,1.0,lizard_10n.jpg,0.0,Orange.png,2.0,14,,,,,,,,,,,,,,,,,
0.0,1.0,0.53255,0.0,10.0,10.0,10.0,1.0,rice_12s.jpg,0.0,Yellow.png,2.0,14,,,,,,,,,,,,,,,,,
0.0,1.0,0.380225,0.0,11.0,11.0,11.0,1.0,bagel_15s.jpg,0.0,Green.png,2.0,14,,,,,,,,,,,,,,,,,
0.0,1.0,0.544075,0.0,12.0,12.0,12.0,1.0,recliner_02s.jpg,0.0,Blue.png,3.0,14,,,,,,,,,,,,,,,,,
0.0,1.0,1.026545,0.0,13.0,13.0,13.0,1.0,recliner_02s.jpg,0.0,Purple.png,3.0,14,,,,,,,,,,,,,,,,,
0.0,1.0,0.55799,0.0,14.0,14.0,14.0,1.0,luggage_08s.jpg,0.0,Red.png,3.0,14,,,,,,,,,,,,,,,,,
1.0,1.0,0.81279,0.0,15.0,15.0,15.0,1.0,recliner_02s.jpg,1.0,Orange.png,3.0,14,,,,,,,,,,,,,,,,,
0.0,1.0,0.456735,0.0,16.0,16.0,16.0,1.0,onion_10s.jpg,0.0,Yellow.png,3.0,14,,,,,,,,,,,,,,,,,
0.0,1.0,0.739565,0.0,17.0,17.0,17.0,1.0,rosary_03s.jpg,0.0,Green.png,3.0,14,,,,,,,,,,,,,,,,,
0.0,1.0,0.614735,0.0,18.0,18.0,18.0,1.0,smokingpipe.jpg,0.0,Blue.png,4.0,14,,,,,,,,,,,,,,,,,
0.0,1.0,0.46261,0.0,19.0,19.0,19.0,1.0,roulette_wheel_04s.jpg,0.0,Purple.png,4.0,14,,,,,,,,,,,,,,,,,
1.0,1.0,1.01536,0.0,20.0,20.0,20.0,1.0,smokingpipe.jpg,1.0,Red.png,4.0,14,,,,,,,,,,,,,,,,,
0.0,1.0,0.539085,0.0,21.0,21.0,21.0,1.0,orchid_01b.jpg,0.0,Orange.png,4.0,14,,,,,,,,,,,,,,,,,
0.0,1.0,0.526665,0.0,22.0,22.0,22.0,1.0,buoy_04s.jpg,0.0,Yellow.png,4.0,14,,,,,,,,,,,,,,,,,
0.0,1.0,0.429525,0.0,23.0,23.0,23.0,1.0,stopwatch_04s.jpg,0.0,Green.png,4.0,14,,,,,,,,,,,,,,,,,
0.0,1.0,0.53408,0.0,24.0,24.0,24.0,1.0,knitting_needle_04s.jpg,0.0,Blue.png,5.0,14,,,,,,,,,,,,,,,,,
0.0,1.0,0.4779,0.0,25.0,25.0,25.0,1.0,prism_10s.jpg,0.0,Purple.png,5.0,14,,,,,,,,,,,,,,,,,
0.0,1.0,0.557535,0.0,26.0,26.0,26.0,1.0,teapot_03s.jpg,0.0,Red.png,5.0,14,,,,,,,,,,,,,,,,,
0.0,1.0,0.44639,0.0,27.0,27.0,27.0,1.0,fire_pit_10s.jpg,0.0,Orange.png,5.0,14,,,,,,,,,,,,,,,,,
1.0,0.0,0.650955,0.0,28.0,28.0,28.0,1.0,fire_pit_10s.jpg,0.0,Yellow.png,5.0,14,,,,,,,,,,,,,,,,,
1.0,1.0,1.08608,0.0,29.0,29.0,29.0,1.0,fire_pit_10s.jpg,1.0,Green.png,5.0,14,,,,,,,,,,,,,,,,,
0.0,1.0,0.41086,0.0,30.0,30.0,30.0,1.0,ironing_board_07s.jpg,0.0,Blue.png,6.0,14,,,,,,,,,,,,,,,,,
1.0,1.0,1.220945,0.0,31.0,31.0,31.0,1.0,fire_pit_10s.jpg,1.0,Purple.png,6.0,14,,,,,,,,,,,,,,,,,
0.0,1.0,0.60118,0.0,32.0,32.0,32.0,1.0,mattress_01s.jpg,0.0,Red.png,6.0,14,,,,,,,,,,,,,,,,,
1.0,1.0,0.607835,0.0,33.0,33.0,33.0,1.0,fire_pit_10s.jpg,1.0,Orange.png,6.0,14,,,,,,,,,,,,,,,,,
1.0,1.0,1.04182,0.0,34.0,34.0,34.0,1.0,mattress_01s.jpg,1.0,Yellow.png,6.0,14,,,,,,,,,,,,,,,,,
0.0,1.0,0.476395,0.0,35.0,35.0,35.0,1.0,ice-cream_cone_06s.jpg,0.0,Green.png,6.0,14,,,,,,,,,,,,,,,,,
,,,,,,,,,1.0,,,14,1.0,1.0,1.35343,0.0,0.0,0.0,0.0,1.0,roulette_wheel_04s.jpg,buoy_04s.jpg,,,,,,,
,,,,,,,,,0.0,,,14,0.0,1.0,1.88893,0.0,1.0,1.0,1.0,1.0,lion_18s.jpg,potholder_02s.jpg,,,,,,,
,,,,,,,,,0.0,,,14,1.0,0.0,1.34672,0.0,2.0,2.0,2.0,1.0,bagel_15s.jpg,comic_book_02s.jpg,,,,,,,
,,,,,,,,,1.0,,,14,1.0,1.0,1.216495,0.0,3.0,3.0,3.0,1.0,stopwatch_04s.jpg,teapot_03s.jpg,,,,,,,
,,,,,,,,,1.0,,,14,1.0,1.0,1.205645,0.0,4.0,4.0,4.0,1.0,luggage_08s.jpg,rosary_03s.jpg,,,,,,,
,,,,,,,,,1.0,,,14,1.0,1.0,1.124305,0.0,5.0,5.0,5.0,1.0,orchid_01b.jpg,knitting_needle_04s.jpg,,,,,,,
,,,,,,,,,,,,14,,,,,,,,,,,0.0,2.0,2.0,2.0,1.0,new2backpresent_3_4.xlsx,new2back_compare_task_3_4.xlsx
0.0,1.0,0.859105,0.0,0.0,0.0,0.0,1.0,smoothie_09s.jpg,0.0,Blue.png,1.0,14,,,,,,,,,,,,,,,,,
0.0,1.0,0.41795,0.0,1.0,1.0,1.0,1.0,raspberry_12s.jpg,0.0,Purple.png,1.0,14,,,,,,,,,,,,,,,,,
0.0,1.0,0.85287,0.0,2.0,2.0,2.0,1.0,raspberry_12s.jpg,0.0,Red.png,1.0,14,,,,,,,,,,,,,,,,,
0.0,1.0,0.539575,0.0,3.0,3.0,3.0,1.0,lamb_chop_07s.jpg,0.0,Orange.png,1.0,14,,,,,,,,,,,,,,,,,
0.0,1.0,0.700055,0.0,4.0,4.0,4.0,1.0,smoothie_09s.jpg,0.0,Yellow.png,1.0,14,,,,,,,,,,,,,,,,,
0.0,1.0,0.85729,0.0,5.0,5.0,5.0,1.0,raspberry_12s.jpg,0.0,Green.png,1.0,14,,,,,,,,,,,,,,,,,
0.0,1.0,0.473855,0.0,6.0,6.0,6.0,1.0,lava_02s.jpg,0.0,Blue.png,2.0,14,,,,,,,,,,,,,,,,,
0.0,1.0,0.88692,0.0,7.0,7.0,7.0,1.0,trident_07s.jpg,0.0,Purple.png,2.0,14,,,,,,,,,,,,,,,,,
0.0,1.0,0.99343,0.0,8.0,8.0,8.0,1.0,trident_07s.jpg,0.0,Red.png,2.0,14,,,,,,,,,,,,,,,,,
1.0,1.0,0.691675,0.0,9.0,9.0,9.0,1.0,trident_07s.jpg,1.0,Orange.png,2.0,14,,,,,,,,,,,,,,,,,
0.0,1.0,0.38034,0.0,10.0,10.0,10.0,1.0,orangutan_03s.jpg,0.0,Yellow.png,2.0,14,,,,,,,,,,,,,,,,,
1.0,1.0,0.52418,0.0,11.0,11.0,11.0,1.0,trident_07s.jpg,1.0,Green.png,2.0,14,,,,,,,,,,,,,,,,,
0.0,1.0,0.63661,0.0,12.0,12.0,12.0,1.0,raspberry_12s.jpg,0.0,Blue.png,3.0,14,,,,,,,,,,,,,,,,,
1.0,1.0,0.49398,0.0,13.0,13.0,13.0,1.0,trident_07s.jpg,1.0,Purple.png,3.0,14,,,,,,,,,,,,,,,,,
0.0,1.0,0.538485,0.0,14.0,14.0,14.0,1.0,lavender_10s.jpg,0.0,Red.png,3.0,14,,,,,,,,,,,,,,,,,
0.0,1.0,0.498505,0.0,15.0,15.0,15.0,1.0,chip_04s.jpg,0.0,Orange.png,3.0,14,,,,,,,,,,,,,,,,,
0.0,1.0,0.622575,0.0,16.0,16.0,16.0,1.0,lamb_04s.jpg,0.0,Yellow.png,3.0,14,,,,,,,,,,,,,,,,,
0.0,1.0,0.42495,0.0,17.0,17.0,17.0,1.0,emerald_02s.jpg,0.0,Green.png,3.0,14,,,,,,,,,,,,,,,,,
0.0,1.0,0.42702,0.0,18.0,18.0,18.0,1.0,pineapple_12s.jpg,0.0,Blue.png,4.0,14,,,,,,,,,,,,,,,,,
0.0,1.0,0.3946,0.0,19.0,19.0,19.0,1.0,sundae_08s.jpg,0.0,Purple.png,4.0,14,,,,,,,,,,,,,,,,,
0.0,1.0,1.255845,0.0,20.0,20.0,20.0,1.0,sundae_08s.jpg,0.0,Red.png,4.0,14,,,,,,,,,,,,,,,,,
0.0,1.0,0.536905,0.0,21.0,21.0,21.0,1.0,squirrel_02s.jpg,0.0,Orange.png,4.0,14,,,,,,,,,,,,,,,,,
0.0,1.0,0.553545,0.0,22.0,22.0,22.0,1.0,roller_coaster_07s.jpg,0.0,Yellow.png,4.0,14,,,,,,,,,,,,,,,,,
0.0,1.0,0.890805,0.0,23.0,23.0,23.0,1.0,sundae_08s.jpg,0.0,Green.png,4.0,14,,,,,,,,,,,,,,,,,
0.0,1.0,0.58774,0.0,24.0,24.0,24.0,1.0,tweezers_03s.jpg,0.0,Blue.png,5.0,14,,,,,,,,,,,,,,,,,
0.0,0.0,0.574455,0.0,25.0,25.0,25.0,1.0,sundae_08s.jpg,1.0,Purple.png,5.0,14,,,,,,,,,,,,,,,,,
0.0,1.0,0.573225,0.0,26.0,26.0,26.0,1.0,rudder_02s.jpg,0.0,Red.png,5.0,14,,,,,,,,,,,,,,,,,
0.0,1.0,0.50957,0.0,27.0,27.0,27.0,1.0,rake_06s.jpg,0.0,Orange.png,5.0,14,,,,,,,,,,,,,,,,,
0.0,1.0,0.86772,0.0,28.0,28.0,28.0,1.0,rake_06s.jpg,0.0,Yellow.png,5.0,14,,,,,,,,,,,,,,,,,
1.0,1.0,2.27006,0.0,29.0,29.0,29.0,1.0,rake_06s.jpg,1.0,Green.png,5.0,14,,,,,,,,,,,,,,,,,
0.0,1.0,0.62357,0.0,30.0,30.0,30.0,1.0,cap_05s.jpg,0.0,Blue.png,6.0,14,,,,,,,,,,,,,,,,,
0.0,1.0,0.696,0.0,31.0,31.0,31.0,1.0,paper_towel_03s.jpg,0.0,Purple.png,6.0,14,,,,,,,,,,,,,,,,,
0.0,1.0,0.46186,0.0,32.0,32.0,32.0,1.0,toaster_03s.jpg,0.0,Red.png,6.0,14,,,,,,,,,,,,,,,,,
0.0,1.0,0.430295,0.0,33.0,33.0,33.0,1.0,money_07s.jpg,0.0,Orange.png,6.0,14,,,,,,,,,,,,,,,,,
0.0,1.0,0.50394,0.0,34.0,34.0,34.0,1.0,pinwheel_06s.jpg,0.0,Yellow.png,6.0,14,,,,,,,,,,,,,,,,,
0.0,1.0,0.5001,0.0,35.0,35.0,35.0,1.0,lid_10s.jpg,0.0,Green.png,6.0,14,,,,,,,,,,,,,,,,,
,,,,,,,,,0.0,,,14,0.0,1.0,1.641015,0.0,0.0,0.0,0.0,1.0,tweezers_03s.jpg,squirrel_02s.jpg,,,,,,,
,,,,,,,,,1.0,,,14,1.0,1.0,1.09215,0.0,1.0,1.0,1.0,1.0,chip_04s.jpg,pineapple_12s.jpg,,,,,,,
,,,,,,,,,1.0,,,14,1.0,1.0,1.113095,0.0,2.0,2.0,2.0,1.0,lamb_chop_07s.jpg,lava_02s.jpg,,,,,,,
,,,,,,,,,0.0,,,14,0.0,1.0,1.162155,0.0,3.0,3.0,3.0,1.0,pinwheel_06s.jpg,paper_towel_03s.jpg,,,,,,,
,,,,,,,,,0.0,,,14,0.0,1.0,1.16269,0.0,4.0,4.0,4.0,1.0,emerald_02s.jpg,lavender_10s.jpg,,,,,,,
,,,,,,,,,0.0,,,14,0.0,1.0,1.212825,0.0,5.0,5.0,5.0,1.0,money_07s.jpg,cap_05s.jpg,,,,,,,
,,,,,,,,,,,,14,,,,,,,,,,,0.0,3.0,3.0,3.0,1.0,new2backpresent_4_4.xlsx,new2back_compare_task_4_4.xlsx
0.0,1.0,2.36835,0.0,0.0,0.0,0.0,1.0,fur_coat_11s.jpg,0.0,Blue.png,1.0,14,,,,,,,,,,,,,,,,,
0.0,1.0,0.561115,0.0,1.0,1.0,1.0,1.0,crayon_09s.jpg,0.0,Purple.png,1.0,14,,,,,,,,,,,,,,,,,
0.0,1.0,0.425935,0.0,2.0,2.0,2.0,1.0,cobra_05s.jpg,0.0,Red.png,1.0,14,,,,,,,,,,,,,,,,,
0.0,1.0,0.57978,0.0,3.0,3.0,3.0,1.0,raccoon_02s.jpg,0.0,Orange.png,1.0,14,,,,,,,,,,,,,,,,,
0.0,1.0,0.55996,0.0,4.0,4.0,4.0,1.0,soda_fountain_03s.jpg,0.0,Yellow.png,1.0,14,,,,,,,,,,,,,,,,,
1.0,1.0,0.501345,0.0,5.0,5.0,5.0,1.0,raccoon_02s.jpg,1.0,Green.png,1.0,14,,,,,,,,,,,,,,,,,
0.0,1.0,0.423515,0.0,6.0,6.0,6.0,1.0,feather02.jpg,0.0,Blue.png,2.0,14,,,,,,,,,,,,,,,,,
1.0,1.0,0.438225,0.0,7.0,7.0,7.0,1.0,raccoon_02s.jpg,1.0,Purple.png,2.0,14,,,,,,,,,,,,,,,,,
1.0,1.0,0.75614,0.0,8.0,8.0,8.0,1.0,feather02.jpg,1.0,Red.png,2.0,14,,,,,,,,,,,,,,,,,
0.0,1.0,0.59288,0.0,9.0,9.0,9.0,1.0,rug_09s.jpg,0.0,Orange.png,2.0,14,,,,,,,,,,,,,,,,,
1.0,1.0,0.695905,0.0,10.0,10.0,10.0,1.0,feather02.jpg,1.0,Yellow.png,2.0,14,,,,,,,,,,,,,,,,,
0.0,1.0,0.49616,0.0,11.0,11.0,11.0,1.0,cushion_08s.jpg,0.0,Green.png,2.0,14,,,,,,,,,,,,,,,,,
1.0,1.0,0.59907,0.0,12.0,12.0,12.0,1.0,feather02.jpg,1.0,Blue.png,3.0,14,,,,,,,,,,,,,,,,,
0.0,1.0,1.265605,0.0,13.0,13.0,13.0,1.0,feather02.jpg,0.0,Purple.png,3.0,14,,,,,,,,,,,,,,,,,
0.0,1.0,0.50838,0.0,14.0,14.0,14.0,1.0,ice_pack_09s.jpg,0.0,Red.png,3.0,14,,,,,,,,,,,,,,,,,
0.0,1.0,0.8273,0.0,15.0,15.0,15.0,1.0,ice_pack_09s.jpg,0.0,Orange.png,3.0,14,,,,,,,,,,,,,,,,,
0.0,1.0,0.496305,0.0,16.0,16.0,16.0,1.0,loom_05s.jpg,0.0,Yellow.png,3.0,14,,,,,,,,,,,,,,,,,
1.0,1.0,0.55667,0.0,17.0,17.0,17.0,1.0,ice_pack_09s.jpg,1.0,Green.png,3.0,14,,,,,,,,,,,,,,,,,
1.0,0.0,0.77188,0.0,18.0,18.0,18.0,1.0,ice_pack_09s.jpg,0.0,Blue.png,4.0,14,,,,,,,,,,,,,,,,,
0.0,0.0,0.663345,0.0,19.0,19.0,19.0,1.0,ice_pack_09s.jpg,1.0,Purple.png,4.0,14,,,,,,,,,,,,,,,,,
1.0,1.0,0.869645,0.0,20.0,20.0,20.0,1.0,ice_pack_09s.jpg,1.0,Red.png,4.0,14,,,,,,,,,,,,,,,,,
0.0,1.0,0.36104,0.0,21.0,21.0,21.0,1.0,blazer_02s.jpg,0.0,Orange.png,4.0,14,,,,,,,,,,,,,,,,,
0.0,1.0,0.537255,0.0,22.0,22.0,22.0,1.0,penlight_12s.jpg,0.0,Yellow.png,4.0,14,,,,,,,,,,,,,,,,,
0.0,1.0,0.42098,0.0,23.0,23.0,23.0,1.0,swan_11s.jpg,0.0,Green.png,4.0,14,,,,,,,,,,,,,,,,,
0.0,1.0,0.53109,0.0,24.0,24.0,24.0,1.0,plunger_08s.jpg,0.0,Blue.png,5.0,14,,,,,,,,,,,,,,,,,
0.0,1.0,0.68037,0.0,25.0,25.0,25.0,1.0,bottle_opener_11s.jpg,0.0,Purple.png,5.0,14,,,,,,,,,,,,,,,,,
0.0,1.0,0.476635,0.0,26.0,26.0,26.0,1.0,checkbook_11s.jpg,0.0,Red.png,5.0,14,,,,,,,,,,,,,,,,,
0.0,1.0,0.39815,0.0,27.0,27.0,27.0,1.0,ink_08s.jpg,0.0,Orange.png,5.0,14,,,,,,,,,,,,,,,,,
0.0,1.0,0.44319,0.0,28.0,28.0,28.0,1.0,plunger_08s.jpg,0.0,Yellow.png,5.0,14,,,,,,,,,,,,,,,,,
0.0,1.0,0.524075,0.0,29.0,29.0,29.0,1.0,pencil02a.jpg,0.0,Green.png,5.0,14,,,,,,,,,,,,,,,,,
0.0,1.0,0.36943,0.0,30.0,30.0,30.0,1.0,ginger_09s.jpg,0.0,Blue.png,6.0,14,,,,,,,,,,,,,,,,,
0.0,1.0,0.42284,0.0,31.0,31.0,31.0,1.0,taxi_15s.jpg,0.0,Purple.png,6.0,14,,,,,,,,,,,,,,,,,
0.0,1.0,0.495355,0.0,32.0,32.0,32.0,1.0,toy_04s.jpg,0.0,Red.png,6.0,14,,,,,,,,,,,,,,,,,
0.0,1.0,0.42958,0.0,33.0,33.0,33.0,1.0,blowfish_03s.jpg,0.0,Orange.png,6.0,14,,,,,,,,,,,,,,,,,
0.0,1.0,0.55037,0.0,34.0,34.0,34.0,1.0,toilet_paper_12s.jpg,0.0,Yellow.png,6.0,14,,,,,,,,,,,,,,,,,
0.0,1.0,0.391095,0.0,35.0,35.0,35.0,1.0,puddle_02s.jpg,0.0,Green.png,6.0,14,,,,,,,,,,,,,,,,,
,,,,,,,,,1.0,,,14,1.0,1.0,2.090065,0.0,0.0,0.0,0.0,1.0,ink_08s.jpg,ginger_09s.jpg,,,,,,,
,,,,,,,,,0.0,,,14,0.0,1.0,1.17657,0.0,1.0,1.0,1.0,1.0,puddle_02s.jpg,toy_04s.jpg,,,,,,,
,,,,,,,,,0.0,,,14,1.0,0.0,1.2243,0.0,2.0,2.0,2.0,1.0,bottle_opener_11s.jpg,penlight_12s.jpg,,,,,,,
,,,,,,,,,0.0,,,14,1.0,0.0,1.829285,0.0,3.0,3.0,3.0,1.0,checkbook_11s.jpg,swan_11s.jpg,,,,,,,
,,,,,,,,,1.0,,,14,1.0,1.0,1.02035,0.0,4.0,4.0,4.0,1.0,taxi_15s.jpg,toilet_paper_12s.jpg,,,,,,,
,,,,,,,,,1.0,,,14,1.0,1.0,0.830125,0.0,5.0,5.0,5.0,1.0,crayon_09s.jpg,soda_fountain_03s.jpg,,,,,,,
,,,,,,,,,,,,14,,,,,,,,,,,0.0,4.0,4.0,4.0,1.0,new2backpresent_5_4.xlsx,new2back_compare_task_5_4.xlsx
0.0,1.0,1.310155,0.0,0.0,0.0,0.0,1.0,flask_04s.jpg,0.0,Blue.png,1.0,14,,,,,,,,,,,,,,,,,
0.0,1.0,0.41035,0.0,1.0,1.0,1.0,1.0,kimono_13s.jpg,0.0,Purple.png,1.0,14,,,,,,,,,,,,,,,,,
0.0,1.0,0.590305,0.0,2.0,2.0,2.0,1.0,limousine_12s.jpg,0.0,Red.png,1.0,14,,,,,,,,,,,,,,,,,
0.0,1.0,0.535665,0.0,3.0,3.0,3.0,1.0,lectern_08s.jpg,0.0,Orange.png,1.0,14,,,,,,,,,,,,,,,,,
0.0,1.0,0.41841,0.0,4.0,4.0,4.0,1.0,kimono_13s.jpg,0.0,Yellow.png,1.0,14,,,,,,,,,,,,,,,,,
0.0,1.0,0.523645,0.0,5.0,5.0,5.0,1.0,doily_13s.jpg,0.0,Green.png,1.0,14,,,,,,,,,,,,,,,,,
1.0,1.0,0.68655,0.0,6.0,6.0,6.0,1.0,kimono_13s.jpg,1.0,Blue.png,2.0,14,,,,,,,,,,,,,,,,,
0.0,1.0,0.622945,0.0,7.0,7.0,7.0,1.0,razor_blade_01b.jpg,0.0,Purple.png,2.0,14,,,,,,,,,,,,,,,,,
0.0,1.0,0.53874,0.0,8.0,8.0,8.0,1.0,razor_blade_01b.jpg,0.0,Red.png,2.0,14,,,,,,,,,,,,,,,,,
0.0,1.0,0.463415,0.0,9.0,9.0,9.0,1.0,champagne_18s.jpg,0.0,Orange.png,2.0,14,,,,,,,,,,,,,,,,,
0.0,1.0,0.4127,0.0,10.0,10.0,10.0,1.0,stamp1_11s.jpg,0.0,Yellow.png,2.0,14,,,,,,,,,,,,,,,,,
0.0,0.0,0.56754,0.0,11.0,11.0,11.0,1.0,champagne_18s.jpg,1.0,Green.png,2.0,14,,,,,,,,,,,,,,,,,
0.0,1.0,0.564335,0.0,12.0,12.0,12.0,1.0,crossbow_10s.jpg,0.0,Blue.png,3.0,14,,,,,,,,,,,,,,,,,
0.0,1.0,0.5152,0.0,13.0,13.0,13.0,1.0,briefcase_03s.jpg,0.0,Purple.png,3.0,14,,,,,,,,,,,,,,,,,
0.0,1.0,0.43387,0.0,14.0,14.0,14.0,1.0,jersey_02s.jpg,0.0,Red.png,3.0,14,,,,,,,,,,,,,,,,,
1.0,1.0,0.90807,0.0,15.0,15.0,15.0,1.0,briefcase_03s.jpg,1.0,Orange.png,3.0,14,,,,,,,,,,,,,,,,,
0.0,1.0,0.43526,0.0,16.0,16.0,16.0,1.0,oil_02s.jpg,0.0,Yellow.png,3.0,14,,,,,,,,,,,,,,,,,
0.0,1.0,0.499615,0.0,17.0,17.0,17.0,1.0,tinsel_12s.jpg,0.0,Green.png,3.0,14,,,,,,,,,,,,,,,,,
0.0,1.0,0.35619,0.0,18.0,18.0,18.0,1.0,flask_04s.jpg,0.0,Blue.png,4.0,14,,,,,,,,,,,,,,,,,
0.0,1.0,0.57548,0.0,19.0,19.0,19.0,1.0,fork_04s.jpg,0.0,Purple.png,4.0,14,,,,,,,,,,,,,,,,,
0.0,1.0,0.56011,0.0,20.0,20.0,20.0,1.0,purse_05s.jpg,0.0,Red.png,4.0,14,,,,,,,,,,,,,,,,,
0.0,1.0,0.93881,0.0,21.0,21.0,21.0,1.0,flask_04s.jpg,0.0,Orange.png,4.0,14,,,,,,,,,,,,,,,,,
0.0,1.0,0.59143,0.0,22.0,22.0,22.0,1.0,sledgehammer_03s.jpg,0.0,Yellow.png,4.0,14,,,,,,,,,,,,,,,,,
0.0,1.0,0.499535,0.0,23.0,23.0,23.0,1.0,turf_03s.jpg,0.0,Green.png,4.0,14,,,,,,,,,,,,,,,,,
0.0,1.0,0.42691,0.0,24.0,24.0,24.0,1.0,omelet_07s.jpg,0.0,Blue.png,5.0,14,,,,,,,,,,,,,,,,,
1.0,1.0,0.51676,0.0,25.0,25.0,25.0,1.0,turf_03s.jpg,1.0,Purple.png,5.0,14,,,,,,,,,,,,,,,,,
0.0,1.0,0.450165,0.0,26.0,26.0,26.0,1.0,clover_04s.jpg,0.0,Red.png,5.0,14,,,,,,,,,,,,,,,,,
0.0,1.0,0.43352,0.0,27.0,27.0,27.0,1.0,lip_gloss_06s.jpg,0.0,Orange.png,5.0,14,,,,,,,,,,,,,,,,,
0.0,1.0,0.41028,0.0,28.0,28.0,28.0,1.0,amber_04s.jpg,0.0,Yellow.png,5.0,14,,,,,,,,,,,,,,,,,
0.0,1.0,0.409545,0.0,29.0,29.0,29.0,1.0,tortilla_06s.jpg,0.0,Green.png,5.0,14,,,,,,,,,,,,,,,,,
0.0,1.0,0.660725,0.0,30.0,30.0,30.0,1.0,razor_blade_01b.jpg,0.0,Blue.png,6.0,14,,,,,,,,,,,,,,,,,
0.0,1.0,0.47727,0.0,31.0,31.0,31.0,1.0,tape_measure_11s.jpg,0.0,Purple.png,6.0,14,,,,,,,,,,,,,,,,,
1.0,1.0,0.774035,0.0,32.0,32.0,32.0,1.0,razor_blade_01b.jpg,1.0,Red.png,6.0,14,,,,,,,,,,,,,,,,,
0.0,1.0,0.881275,0.0,33.0,33.0,33.0,1.0,razor_blade_01b.jpg,0.0,Orange.png,6.0,14,,,,,,,,,,,,,,,,,
0.0,1.0,0.513835,0.0,34.0,34.0,34.0,1.0,stingray_02s.jpg,0.0,Yellow.png,6.0,14,,,,,,,,,,,,,,,,,
0.0,1.0,0.54223,0.0,35.0,35.0,35.0,1.0,harpoon.jpg,0.0,Green.png,6.0,14,,,,,,,,,,,,,,,,,
,,,,,,,,,1.0,,,14,0.0,0.0,1.864545,0.0,0.0,0.0,0.0,1.0,oil_02s.jpg,fork_04s.jpg,,,,,,,
,,,,,,,,,0.0,,,14,1.0,0.0,1.005385,0.0,1.0,1.0,1.0,1.0,doily_13s.jpg,limousine_12s.jpg,,,,,,,
,,,,,,,,,0.0,,,14,0.0,1.0,1.46772,0.0,2.0,2.0,2.0,1.0,lip_gloss_06s.jpg,omelet_07s.jpg,,,,,,,
,,,,,,,,,0.0,,,14,1.0,0.0,1.130125,0.0,3.0,3.0,3.0,1.0,tape_measure_11s.jpg,amber_04s.jpg,,,,,,,
,,,,,,,,,0.0,,,14,0.0,1.0,1.04382,0.0,4.0,4.0,4.0,1.0,tortilla_06s.jpg,clover_04s.jpg,,,,,,,
,,,,,,,,,0.0,,,14,1.0,0.0,1.461445,0.0,5.0,5.0,5.0,1.0,purse_05s.jpg,tinsel_12s.jpg,,,,,,,
,,,,,,,,,,,,14,,,,,,,,,,,0.0,5.0,5.0,5.0,1.0,new2backpresent_6_4.xlsx,new2back_compare_task_6_4.xlsx
0.0,1.0,0.92993,0.0,0.0,0.0,0.0,1.0,butter_14s.jpg,0.0,Blue.png,1.0,14,,,,,,,,,,,,,,,,,
0.0,1.0,0.72778,0.0,1.0,1.0,1.0,1.0,butter_14s.jpg,0.0,Purple.png,1.0,14,,,,,,,,,,,,,,,,,
1.0,1.0,0.735455,0.0,2.0,2.0,2.0,1.0,butter_14s.jpg,1.0,Red.png,1.0,14,,,,,,,,,,,,,,,,,
0.0,1.0,0.35904,0.0,3.0,3.0,3.0,1.0,stamp2_08s.jpg,0.0,Orange.png,1.0,14,,,,,,,,,,,,,,,,,
0.0,1.0,0.666385,0.0,4.0,4.0,4.0,1.0,kangaroo_02s.jpg,0.0,Yellow.png,1.0,14,,,,,,,,,,,,,,,,,
0.0,1.0,0.64673,0.0,5.0,5.0,5.0,1.0,camcorder_10s.jpg,0.0,Green.png,1.0,14,,,,,,,,,,,,,,,,,
0.0,1.0,0.6662,0.0,6.0,6.0,6.0,1.0,bank_06s.jpg,0.0,Blue.png,2.0,14,,,,,,,,,,,,,,,,,
0.0,1.0,0.544335,0.0,7.0,7.0,7.0,1.0,gear_07s.jpg,0.0,Purple.png,2.0,14,,,,,,,,,,,,,,,,,
1.0,1.0,0.50417,0.0,8.0,8.0,8.0,1.0,bank_06s.jpg,1.0,Red.png,2.0,14,,,,,,,,,,,,,,,,,
0.0,1.0,0.427455,0.0,9.0,9.0,9.0,1.0,funnel_01b.jpg,0.0,Orange.png,2.0,14,,,,,,,,,,,,,,,,,
0.0,1.0,0.505015,0.0,10.0,10.0,10.0,1.0,poinsettia_04s.jpg,0.0,Yellow.png,2.0,14,,,,,,,,,,,,,,,,,
1.0,1.0,0.495915,0.0,11.0,11.0,11.0,1.0,funnel_01b.jpg,1.0,Green.png,2.0,14,,,,,,,,,,,,,,,,,
0.0,1.0,0.411945,0.0,12.0,12.0,12.0,1.0,rooster_03s.jpg,0.0,Blue.png,3.0,14,,,,,,,,,,,,,,,,,
0.0,1.0,0.40788,0.0,13.0,13.0,13.0,1.0,denture_03s.jpg,0.0,Purple.png,3.0,14,,,,,,,,,,,,,,,,,
0.0,1.0,0.646445,0.0,14.0,14.0,14.0,1.0,bean_06s.jpg,0.0,Red.png,3.0,14,,,,,,,,,,,,,,,,,
0.0,1.0,0.40266,0.0,15.0,15.0,15.0,1.0,mud_13s.jpg,0.0,Orange.png,3.0,14,,,,,,,,,,,,,,,,,
0.0,1.0,0.37752,0.0,16.0,16.0,16.0,1.0,keyhole_03s.jpg,0.0,Yellow.png,3.0,14,,,,,,,,,,,,,,,,,
0.0,1.0,0.69802,0.0,17.0,17.0,17.0,1.0,bean_06s.jpg,0.0,Green.png,3.0,14,,,,,,,,,,,,,,,,,
0.0,1.0,0.417235,0.0,18.0,18.0,18.0,1.0,bank_06s.jpg,0.0,Blue.png,4.0,14,,,,,,,,,,,,,,,,,
0.0,1.0,0.44067,0.0,19.0,19.0,19.0,1.0,pomegranate_04s.jpg,0.0,Purple.png,4.0,14,,,,,,,,,,,,,,,,,
0.0,1.0,0.484315,0.0,20.0,20.0,20.0,1.0,chopsticks_08s.jpg,0.0,Red.png,4.0,14,,,,,,,,,,,,,,,,,
0.0,1.0,0.454735,0.0,21.0,21.0,21.0,1.0,contact_lens_15s.jpg,0.0,Orange.png,4.0,14,,,,,,,,,,,,,,,,,
0.0,1.0,0.589865,0.0,22.0,22.0,22.0,1.0,hydrant_10s.jpg,0.0,Yellow.png,4.0,14,,,,,,,,,,,,,,,,,
0.0,1.0,0.490295,0.0,23.0,23.0,23.0,1.0,gingerbread_man_03s.jpg,0.0,Green.png,4.0,14,,,,,,,,,,,,,,,,,
0.0,1.0,0.442685,0.0,24.0,24.0,24.0,1.0,camcorder_10s.jpg,0.0,Blue.png,5.0,14,,,,,,,,,,,,,,,,,
0.0,1.0,0.444045,0.0,25.0,25.0,25.0,1.0,teabag_12s.jpg,0.0,Purple.png,5.0,14,,,,,,,,,,,,,,,,,
0.0,1.0,0.440555,0.0,26.0,26.0,26.0,1.0,radiator_05s.jpg,0.0,Red.png,5.0,14,,,,,,,,,,,,,,,,,
0.0,1.0,0.40963,0.0,27.0,27.0,27.0,1.0,punch1_10s.jpg,0.0,Orange.png,5.0,14,,,,,,,,,,,,,,,,,
0.0,1.0,0.44185,0.0,28.0,28.0,28.0,1.0,mailbox_11s.jpg,0.0,Yellow.png,5.0,14,,,,,,,,,,,,,,,,,
0.0,1.0,0.651765,0.0,29.0,29.0,29.0,1.0,beaker_01b.jpg,0.0,Green.png,5.0,14,,,,,,,,,,,,,,,,,
0.0,0.0,0.627815,0.0,30.0,30.0,30.0,1.0,mailbox_11s.jpg,1.0,Blue.png,6.0,14,,,,,,,,,,,,,,,,,
0.0,1.0,0.44936,0.0,31.0,31.0,31.0,1.0,pipe1_10s.jpg,0.0,Purple.png,6.0,14,,,,,,,,,,,,,,,,,
1.0,1.0,0.415665,0.0,32.0,32.0,32.0,1.0,mailbox_11s.jpg,1.0,Red.png,6.0,14,,,,,,,,,,,,,,,,,
1.0,1.0,0.86863,0.0,33.0,33.0,33.0,1.0,pipe1_10s.jpg,1.0,Orange.png,6.0,14,,,,,,,,,,,,,,,,,
1.0,0.0,0.61266,0.0,34.0,34.0,34.0,1.0,eyedropper_12s.jpg,0.0,Yellow.png,6.0,14,,,,,,,,,,,,,,,,,
0.0,1.0,0.793475,0.0,35.0,35.0,35.0,1.0,rhubarb_03s.jpg,0.0,Green.png,6.0,14,,,,,,,,,,,,,,,,,
,,,,,,,,,0.0,,,14,1.0,0.0,1.702925,0.0,0.0,0.0,0.0,1.0,mud_13s.jpg,rooster_03s.jpg,,,,,,,
,,,,,,,,,1.0,,,14,1.0,1.0,1.42454,0.0,1.0,1.0,1.0,1.0,chopsticks_08s.jpg,gingerbread_man_03s.jpg,,,,,,,
,,,,,,,,,0.0,,,14,1.0,0.0,1.198365,0.0,2.0,2.0,2.0,1.0,beaker_01b.jpg,radiator_05s.jpg,,,,,,,
,,,,,,,,,0.0,,,14,1.0,0.0,1.04456,0.0,3.0,3.0,3.0,1.0,teabag_12s.jpg,hydrant_10s.jpg,,,,,,,
,,,,,,,,,0.0,,,14,1.0,0.0,0.76094,0.0,4.0,4.0,4.0,1.0,denture_03s.jpg,poinsettia_04s.jpg,,,,,,,
,,,,,,,,,1.0,,,14,0.0,0.0,0.60221,0.0,5.0,5.0,5.0,1.0,kangaroo_02s.jpg,gear_07s.jpg,,,,,,,
,,,,,,,,,,,,14,,,,,,,,,,,0.0,6.0,6.0,6.0,1.0,new2backpresent_7_4.xlsx,new2back_compare_task_7_4.xlsx
0.0,1.0,1.070825,0.0,0.0,0.0,0.0,1.0,lamppost_09s.jpg,0.0,Blue.png,1.0,14,,,,,,,,,,,,,,,,,
0.0,1.0,0.898725,0.0,1.0,1.0,1.0,1.0,jewel_01b.jpg,0.0,Purple.png,1.0,14,,,,,,,,,,,,,,,,,
0.0,1.0,0.512555,0.0,2.0,2.0,2.0,1.0,tuxedo_01b.jpg,0.0,Red.png,1.0,14,,,,,,,,,,,,,,,,,
0.0,1.0,0.733775,0.0,3.0,3.0,3.0,1.0,flip_flop_03s.jpg,0.0,Orange.png,1.0,14,,,,,,,,,,,,,,,,,
0.0,1.0,0.48543,0.0,4.0,4.0,4.0,1.0,medal_04s.jpg,0.0,Yellow.png,1.0,14,,,,,,,,,,,,,,,,,
1.0,1.0,0.62551,0.0,5.0,5.0,5.0,1.0,flip_flop_03s.jpg,1.0,Green.png,1.0,14,,,,,,,,,,,,,,,,,
1.0,0.0,0.903565,0.0,6.0,6.0,6.0,1.0,tuxedo_01b.jpg,0.0,Blue.png,2.0,14,,,,,,,,,,,,,,,,,
1.0,1.0,2.213385,0.0,7.0,7.0,7.0,1.0,flip_flop_03s.jpg,1.0,Purple.png,2.0,14,,,,,,,,,,,,,,,,,
0.0,1.0,0.554125,0.0,8.0,8.0,8.0,1.0,fireworks_18s.jpg,0.0,Red.png,2.0,14,,,,,,,,,,,,,,,,,
0.0,1.0,0.6037,0.0,9.0,9.0,9.0,1.0,squirt_gun_03s.jpg,0.0,Orange.png,2.0,14,,,,,,,,,,,,,,,,,
0.0,1.0,1.07305,0.0,10.0,10.0,10.0,1.0,flip_flop_03s.jpg,0.0,Yellow.png,2.0,14,,,,,,,,,,,,,,,,,
0.0,1.0,0.65193,0.0,11.0,11.0,11.0,1.0,puffin_19s.jpg,0.0,Green.png,2.0,14,,,,,,,,,,,,,,,,,
0.0,1.0,0.78088,0.0,12.0,12.0,12.0,1.0,tuxedo_01b.jpg,0.0,Blue.png,3.0,14,,,,,,,,,,,,,,,,,
0.0,1.0,1.0856,0.0,13.0,13.0,13.0,1.0,tuxedo_01b.jpg,0.0,Purple.png,3.0,14,,,,,,,,,,,,,,,,,
0.0,1.0,0.89341,0.0,14.0,14.0,14.0,1.0,snowman_02s.jpg,0.0,Red.png,3.0,14,,,,,,,,,,,,,,,,,
0.0,1.0,0.63568,0.0,15.0,15.0,15.0,1.0,cucumber_07s.jpg,0.0,Orange.png,3.0,14,,,,,,,,,,,,,,,,,
0.0,1.0,0.93407,0.0,16.0,16.0,16.0,1.0,plug_08s.jpg,0.0,Yellow.png,3.0,14,,,,,,,,,,,,,,,,,
1.0,1.0,0.821605,0.0,17.0,17.0,17.0,1.0,cucumber_07s.jpg,1.0,Green.png,3.0,14,,,,,,,,,,,,,,,,,
0.0,1.0,0.70491,0.0,18.0,18.0,18.0,1.0,puffin_19s.jpg,0.0,Blue.png,4.0,14,,,,,,,,,,,,,,,,,
0.0,1.0,0.638205,0.0,19.0,19.0,19.0,1.0,fondue_07s.jpg,0.0,Purple.png,4.0,14,,,,,,,,,,,,,,,,,
0.0,1.0,0.54514,0.0,20.0,20.0,20.0,1.0,lasagna_06s.jpg,0.0,Red.png,4.0,14,,,,,,,,,,,,,,,,,
0.0,1.0,0.625085,0.0,21.0,21.0,21.0,1.0,eiffeltower.jpg,0.0,Orange.png,4.0,14,,,,,,,,,,,,,,,,,
0.0,1.0,0.534965,0.0,22.0,22.0,22.0,1.0,outlet_10s.jpg,0.0,Yellow.png,4.0,14,,,,,,,,,,,,,,,,,
0.0,1.0,0.635135,0.0,23.0,23.0,23.0,1.0,cape_11s.jpg,0.0,Green.png,4.0,14,,,,,,,,,,,,,,,,,
0.0,1.0,0.43572,0.0,24.0,24.0,24.0,1.0,marshmallow_08s.jpg,0.0,Blue.png,5.0,14,,,,,,,,,,,,,,,,,
0.0,1.0,0.599825,0.0,25.0,25.0,25.0,1.0,racehorse_03s.jpg,0.0,Purple.png,5.0,14,,,,,,,,,,,,,,,,,
0.0,1.0,0.5223,0.0,26.0,26.0,26.0,1.0,aluminum_foil_08s.jpg,0.0,Red.png,5.0,14,,,,,,,,,,,,,,,,,
0.0,1.0,0.7339,0.0,27.0,27.0,27.0,1.0,spoon02a.jpg,0.0,Orange.png,5.0,14,,,,,,,,,,,,,,,,,
0.0,1.0,0.61005,0.0,28.0,28.0,28.0,1.0,padlock_07s.jpg,0.0,Yellow.png,5.0,14,,,,,,,,,,,,,,,,,
0.0,1.0,0.58736,0.0,29.0,29.0,29.0,1.0,solar_panel_02s.jpg,0.0,Green.png,5.0,14,,,,,,,,,,,,,,,,,
0.0,1.0,0.54995,0.0,30.0,30.0,30.0,1.0,turtleneck_11s.jpg,0.0,Blue.png,6.0,14,,,,,,,,,,,,,,,,,
0.0,1.0,0.47251,0.0,31.0,31.0,31.0,1.0,pocketknife_12s.jpg,0.0,Purple.png,6.0,14,,,,,,,,,,,,,,,,,
0.0,1.0,0.816585,0.0,32.0,32.0,32.0,1.0,pocketknife_12s.jpg,0.0,Red.png,6.0,14,,,,,,,,,,,,,,,,,
0.0,1.0,0.641145,0.0,33.0,33.0,33.0,1.0,quill_09s.jpg,0.0,Orange.png,6.0,14,,,,,,,,,,,,,,,,,
0.0,1.0,1.48315,0.0,34.0,34.0,34.0,1.0,quill_09s.jpg,0.0,Yellow.png,6.0,14,,,,,,,,,,,,,,,,,
1.0,0.0,0.741475,0.0,35.0,35.0,35.0,1.0,pocketknife_12s.jpg,0.0,Green.png,6.0,14,,,,,,,,,,,,,,,,,
,,,,,,,,,0.0,,,14,0.0,1.0,1.944115,0.0,0.0,0.0,0.0,1.0,cape_11s.jpg,lasagna_06s.jpg,,,,,,,
,,,,,,,,,0.0,,,14,0.0,1.0,0.778475,0.0,1.0,1.0,1.0,1.0,padlock_07s.jpg,racehorse_03s.jpg,,,,,,,
,,,,,,,,,1.0,,,14,0.0,0.0,1.157845,0.0,2.0,2.0,2.0,1.0,spoon02a.jpg,turtleneck_11s.jpg,,,,,,,
,,,,,,,,,0.0,,,14,1.0,0.0,1.116695,0.0,3.0,3.0,3.0,1.0,marshmallow_08s.jpg,eiffeltower.jpg,,,,,,,
,,,,,,,,,0.0,,,14,1.0,0.0,1.36193,0.0,4.0,4.0,4.0,1.0,medal_04s.jpg,jewel_01b.jpg,,,,,,,
,,,,,,,,,1.0,,,14,0.0,0.0,1.13735,0.0,5.0,5.0,5.0,1.0,plug_08s.jpg,fondue_07s.jpg,,,,,,,
,,,,,,,,,,,,14,,,,,,,,,,,0.0,7.0,7.0,7.0,1.0,new2backpresent_8_4.xlsx,new2back_compare_task_8_4.xlsx
0.0,1.0,1.03646,0.0,0.0,0.0,0.0,1.0,footprint_11s.jpg,0.0,Blue.png,1.0,14,,,,,,,,,,,,,,,,,
0.0,1.0,0.800625,0.0,1.0,1.0,1.0,1.0,coffee_filter_10s.jpg,0.0,Purple.png,1.0,14,,,,,,,,,,,,,,,,,
0.0,1.0,1.42858,0.0,2.0,2.0,2.0,1.0,coffee_filter_10s.jpg,0.0,Red.png,1.0,14,,,,,,,,,,,,,,,,,
,0.0,,0.0,3.0,3.0,3.0,1.0,coffee_filter_10s.jpg,1.0,Orange.png,1.0,14,,,,,,,,,,,,,,,,,
1.0,1.0,0.81917,0.0,4.0,4.0,4.0,1.0,coffee_filter_10s.jpg,1.0,Yellow.png,1.0,14,,,,,,,,,,,,,,,,,
0.0,1.0,0.540865,0.0,5.0,5.0,5.0,1.0,gargoyle_08s.jpg,0.0,Green.png,1.0,14,,,,,,,,,,,,,,,,,
0.0,1.0,0.53324,0.0,6.0,6.0,6.0,1.0,candy_cane_06s.jpg,0.0,Blue.png,2.0,14,,,,,,,,,,,,,,,,,
0.0,1.0,0.538745,0.0,7.0,7.0,7.0,1.0,toad_09s.jpg,0.0,Purple.png,2.0,14,,,,,,,,,,,,,,,,,
1.0,1.0,0.593805,0.0,8.0,8.0,8.0,1.0,candy_cane_06s.jpg,1.0,Red.png,2.0,14,,,,,,,,,,,,,,,,,
0.0,1.0,0.63871,0.0,9.0,9.0,9.0,1.0,pumpkin_03s.jpg,0.0,Orange.png,2.0,14,,,,,,,,,,,,,,,,,
0.0,1.0,0.43382,0.0,10.0,10.0,10.0,1.0,dashboard_02s.jpg,0.0,Yellow.png,2.0,14,,,,,,,,,,,,,,,,,
0.0,1.0,0.616285,0.0,11.0,11.0,11.0,1.0,syringe_02s.jpg,0.0,Green.png,2.0,14,,,,,,,,,,,,,,,,,
0.0,1.0,0.51649,0.0,12.0,12.0,12.0,1.0,powder_07s.jpg,0.0,Blue.png,3.0,14,,,,,,,,,,,,,,,,,
0.0,1.0,0.76802,0.0,13.0,13.0,13.0,1.0,powder_07s.jpg,0.0,Purple.png,3.0,14,,,,,,,,,,,,,,,,,
1.0,1.0,0.60316,0.0,14.0,14.0,14.0,1.0,powder_07s.jpg,1.0,Red.png,3.0,14,,,,,,,,,,,,,,,,,
0.0,1.0,0.75225,0.0,15.0,15.0,15.0,1.0,sea_urchin_09s.jpg,0.0,Orange.png,3.0,14,,,,,,,,,,,,,,,,,
0.0,1.0,1.15635,0.0,16.0,16.0,16.0,1.0,throne_11s.jpg,0.0,Yellow.png,3.0,14,,,,,,,,,,,,,,,,,
1.0,0.0,1.09656,0.0,17.0,17.0,17.0,1.0,powder_07s.jpg,0.0,Green.png,3.0,14,,,,,,,,,,,,,,,,,
0.0,1.0,0.630155,0.0,18.0,18.0,18.0,1.0,chalice_10s.jpg,0.0,Blue.png,4.0,14,,,,,,,,,,,,,,,,,
0.0,1.0,0.6,0.0,19.0,19.0,19.0,1.0,air_pump_05s.jpg,0.0,Purple.png,4.0,14,,,,,,,,,,,,,,,,,
0.0,1.0,0.485845,0.0,20.0,20.0,20.0,1.0,microwave_02s.jpg,0.0,Red.png,4.0,14,,,,,,,,,,,,,,,,,
0.0,1.0,0.45218,0.0,21.0,21.0,21.0,1.0,cereal_04s.jpg,0.0,Orange.png,4.0,14,,,,,,,,,,,,,,,,,
0.0,1.0,0.51663,0.0,22.0,22.0,22.0,1.0,mushroom_10n.jpg,0.0,Yellow.png,4.0,14,,,,,,,,,,,,,,,,,
0.0,1.0,0.6429,0.0,23.0,23.0,23.0,1.0,red_carpet_03s.jpg,0.0,Green.png,4.0,14,,,,,,,,,,,,,,,,,
0.0,1.0,0.758425,0.0,24.0,24.0,24.0,1.0,throne_11s.jpg,0.0,Blue.png,5.0,14,,,,,,,,,,,,,,,,,
0.0,1.0,0.498755,0.0,25.0,25.0,25.0,1.0,koala_13s.jpg,0.0,Purple.png,5.0,14,,,,,,,,,,,,,,,,,
1.0,1.0,0.620515,0.0,26.0,26.0,26.0,1.0,throne_11s.jpg,1.0,Red.png,5.0,14,,,,,,,,,,,,,,,,,
0.0,1.0,0.5668,0.0,27.0,27.0,27.0,1.0,rocket_02s.jpg,0.0,Orange.png,5.0,14,,,,,,,,,,,,,,,,,
0.0,1.0,0.506465,0.0,28.0,28.0,28.0,1.0,swordfish_05s.jpg,0.0,Yellow.png,5.0,14,,,,,,,,,,,,,,,,,
1.0,1.0,0.590815,0.0,29.0,29.0,29.0,1.0,rocket_02s.jpg,1.0,Green.png,5.0,14,,,,,,,,,,,,,,,,,
0.0,1.0,0.51702,0.0,30.0,30.0,30.0,1.0,icicle_04s.jpg,0.0,Blue.png,6.0,14,,,,,,,,,,,,,,,,,
0.0,1.0,0.50996,0.0,31.0,31.0,31.0,1.0,keyboard_05s.jpg,0.0,Purple.png,6.0,14,,,,,,,,,,,,,,,,,
0.0,1.0,0.471605,0.0,32.0,32.0,32.0,1.0,pocket_watch_16s.jpg,0.0,Red.png,6.0,14,,,,,,,,,,,,,,,,,
0.0,1.0,0.61107,0.0,33.0,33.0,33.0,1.0,tablet_04s.jpg,0.0,Orange.png,6.0,14,,,,,,,,,,,,,,,,,
0.0,1.0,0.450115,0.0,34.0,34.0,34.0,1.0,chocolate_01b.jpg,0.0,Yellow.png,6.0,14,,,,,,,,,,,,,,,,,
0.0,1.0,0.455565,0.0,35.0,35.0,35.0,1.0,light_switch_02s.jpg,0.0,Green.png,6.0,14,,,,,,,,,,,,,,,,,
,,,,,,,,,0.0,,,14,0.0,1.0,1.13809,0.0,0.0,0.0,0.0,1.0,chalice_10s.jpg,sea_urchin_09s.jpg,,,,,,,
,,,,,,,,,1.0,,,14,1.0,1.0,0.91643,0.0,1.0,1.0,1.0,1.0,swordfish_05s.jpg,keyboard_05s.jpg,,,,,,,
,,,,,,,,,0.0,,,14,1.0,0.0,0.95087,0.0,2.0,2.0,2.0,1.0,red_carpet_03s.jpg,microwave_02s.jpg,,,,,,,
,,,,,,,,,0.0,,,14,1.0,0.0,1.208615,0.0,3.0,3.0,3.0,1.0,dashboard_02s.jpg,toad_09s.jpg,,,,,,,
,,,,,,,,,0.0,,,14,1.0,0.0,1.233345,0.0,4.0,4.0,4.0,1.0,koala_13s.jpg,mushroom_10n.jpg,,,,,,,
,,,,,,,,,1.0,,,14,0.0,0.0,0.983765,0.0,5.0,5.0,5.0,1.0,icicle_04s.jpg,tablet_04s.jpg,,,,,,,
,,,,,,,,,,,,14,,,,,,,,,,,0.0,8.0,8.0,8.0,1.0,new2backpresent_9_4.xlsx,new2back_compare_task_9_4.xlsx
