key_resp.keys,key_resp.corr,key_resp.rt,present_segment.thisRepN,present_segment.thisTrialN,present_segment.thisN,present_segment.thisIndex,present_segment.ran,pictures,answer,clock,segment,participant,key_resp_2.keys,key_resp_2.corr,key_resp_2.rt,compare_segment.thisRepN,compare_segment.thisTrialN,compare_segment.thisN,compare_segment.thisIndex,compare_segment.ran,item_a,item_b,clock_conditions.thisRepN,clock_conditions.thisTrialN,clock_conditions.thisN,clock_conditions.thisIndex,clock_conditions.ran,present,compare
0.0,1.0,1.25679,0.0,0.0,0.0,0.0,1.0,mirror_12s.jpg,0.0,Blue.png,1.0,111,,,,,,,,,,,,,,,,,
0.0,1.0,1.16786,0.0,1.0,1.0,1.0,1.0,polaroid_05s.jpg,0.0,Purple.png,1.0,111,,,,,,,,,,,,,,,,,
1.0,1.0,1.31613,0.0,2.0,2.0,2.0,1.0,polaroid_05s.jpg,1.0,Red.png,1.0,111,,,,,,,,,,,,,,,,,
0.0,1.0,0.649155,0.0,3.0,3.0,3.0,1.0,slingshot_07s.jpg,0.0,Orange.png,1.0,111,,,,,,,,,,,,,,,,,
1.0,1.0,1.15292,0.0,4.0,4.0,4.0,1.0,polaroid_05s.jpg,1.0,Yellow.png,1.0,111,,,,,,,,,,,,,,,,,
0.0,1.0,1.228095,0.0,5.0,5.0,5.0,1.0,kettle_08s.jpg,0.0,Green.png,1.0,111,,,,,,,,,,,,,,,,,
0.0,1.0,1.09476,0.0,6.0,6.0,6.0,1.0,crystal_ball_12s.jpg,0.0,Blue.png,2.0,111,,,,,,,,,,,,,,,,,
0.0,1.0,0.941715,0.0,7.0,7.0,7.0,1.0,iron_13s.jpg,0.0,Purple.png,2.0,111,,,,,,,,,,,,,,,,,
0.0,1.0,0.87078,0.0,8.0,8.0,8.0,1.0,saddle_06s.jpg,0.0,Red.png,2.0,111,,,,,,,,,,,,,,,,,
0.0,1.0,0.820385,0.0,9.0,9.0,9.0,1.0,mango_09s.jpg,0.0,Orange.png,2.0,111,,,,,,,,,,,,,,,,,
0.0,1.0,0.781595,0.0,10.0,10.0,10.0,1.0,ostrich_06s.jpg,0.0,Yellow.png,2.0,111,,,,,,,,,,,,,,,,,
1.0,1.0,1.97045,0.0,11.0,11.0,11.0,1.0,iron_13s.jpg,1.0,Green.png,2.0,111,,,,,,,,,,,,,,,,,
0.0,1.0,0.935385,0.0,12.0,12.0,12.0,1.0,stethoscope_01b.jpg,0.0,Blue.png,3.0,111,,,,,,,,,,,,,,,,,
0.0,1.0,1.17141,0.0,13.0,13.0,13.0,1.0,ruby_15s.jpg,0.0,Purple.png,3.0,111,,,,,,,,,,,,,,,,,
0.0,1.0,1.10257,0.0,14.0,14.0,14.0,1.0,mango_09s.jpg,0.0,Red.png,3.0,111,,,,,,,,,,,,,,,,,
0.0,1.0,1.34919,0.0,15.0,15.0,15.0,1.0,target_11s.jpg,0.0,Orange.png,3.0,111,,,,,,,,,,,,,,,,,
,0.0,,0.0,16.0,16.0,16.0,1.0,mango_09s.jpg,1.0,Yellow.png,3.0,111,,,,,,,,,,,,,,,,,
0.0,1.0,2.45434,0.0,17.0,17.0,17.0,1.0,compass_10n.jpg,0.0,Green.png,3.0,111,,,,,,,,,,,,,,,,,
0.0,1.0,1.285685,0.0,18.0,18.0,18.0,1.0,meatball_13s.jpg,0.0,Blue.png,4.0,111,,,,,,,,,,,,,,,,,
0.0,1.0,1.014335,0.0,19.0,19.0,19.0,1.0,stapler_01b.jpg,0.0,Purple.png,4.0,111,,,,,,,,,,,,,,,,,
1.0,1.0,1.38829,0.0,20.0,20.0,20.0,1.0,meatball_13s.jpg,1.0,Red.png,4.0,111,,,,,,,,,,,,,,,,,
0.0,1.0,0.982735,0.0,21.0,21.0,21.0,1.0,pump_11s.jpg,0.0,Orange.png,4.0,111,,,,,,,,,,,,,,,,,
0.0,1.0,0.998975,0.0,22.0,22.0,22.0,1.0,coral_08s.jpg,0.0,Yellow.png,4.0,111,,,,,,,,,,,,,,,,,
1.0,1.0,1.26729,0.0,23.0,23.0,23.0,1.0,meatball_13s.jpg,1.0,Green.png,4.0,111,,,,,,,,,,,,,,,,,
0.0,1.0,1.001245,0.0,24.0,24.0,24.0,1.0,peach_04s.jpg,0.0,Blue.png,5.0,111,,,,,,,,,,,,,,,,,
0.0,1.0,1.766845,0.0,25.0,25.0,25.0,1.0,meatball_13s.jpg,0.0,Purple.png,5.0,111,,,,,,,,,,,,,,,,,
0.0,1.0,1.94843,0.0,26.0,26.0,26.0,1.0,pie_08s.jpg,0.0,Red.png,5.0,111,,,,,,,,,,,,,,,,,
0.0,1.0,0.954575,0.0,27.0,27.0,27.0,1.0,rollerskate_03s.jpg,0.0,Orange.png,5.0,111,,,,,,,,,,,,,,,,,
0.0,1.0,0.838335,0.0,28.0,28.0,28.0,1.0,trampoline_13s.jpg,0.0,Yellow.png,5.0,111,,,,,,,,,,,,,,,,,
0.0,1.0,1.08184,0.0,29.0,29.0,29.0,1.0,undershirt_02s.jpg,0.0,Green.png,5.0,111,,,,,,,,,,,,,,,,,
0.0,1.0,1.38904,0.0,30.0,30.0,30.0,1.0,thread_08s.jpg,0.0,Blue.png,6.0,111,,,,,,,,,,,,,,,,,
0.0,1.0,0.81235,0.0,31.0,31.0,31.0,1.0,megaphone_03s.jpg,0.0,Purple.png,6.0,111,,,,,,,,,,,,,,,,,
0.0,1.0,0.90531,0.0,32.0,32.0,32.0,1.0,plaster_cast_13s.jpg,0.0,Red.png,6.0,111,,,,,,,,,,,,,,,,,
0.0,1.0,0.74712,0.0,33.0,33.0,33.0,1.0,diving_board_07s.jpg,0.0,Orange.png,6.0,111,,,,,,,,,,,,,,,,,
0.0,1.0,0.71698,0.0,34.0,34.0,34.0,1.0,kayak_08s.jpg,0.0,Yellow.png,6.0,111,,,,,,,,,,,,,,,,,
1.0,1.0,1.555205,0.0,35.0,35.0,35.0,1.0,diving_board_07s.jpg,1.0,Green.png,6.0,111,,,,,,,,,,,,,,,,,
,,,,,,,,,1.0,,,111,0.0,0.0,3.518575,0.0,0.0,0.0,0.0,1.0,stapler_01b.jpg,coral_08s.jpg,,,,,,,
,,,,,,,,,1.0,,,111,0.0,0.0,2.519325,0.0,1.0,1.0,1.0,1.0,slingshot_07s.jpg,crystal_ball_12s.jpg,,,,,,,
,,,,,,,,,0.0,,,111,0.0,1.0,2.68798,0.0,2.0,2.0,2.0,1.0,saddle_06s.jpg,kettle_08s.jpg,,,,,,,
,,,,,,,,,1.0,,,111,1.0,1.0,1.265315,0.0,3.0,3.0,3.0,1.0,pie_08s.jpg,undershirt_02s.jpg,,,,,,,
,,,,,,,,,1.0,,,111,1.0,1.0,2.60171,0.0,4.0,4.0,4.0,1.0,stethoscope_01b.jpg,target_11s.jpg,,,,,,,
,,,,,,,,,1.0,,,111,1.0,1.0,2.441155,0.0,5.0,5.0,5.0,1.0,ostrich_06s.jpg,ruby_15s.jpg,,,,,,,
,,,,,,,,,,,,111,,,,,,,,,,,0.0,0.0,0.0,0.0,1.0,newclockpresent_1_4.xlsx,newclock_compare_task_1_4.xlsx
0.0,1.0,2.041015,0.0,0.0,0.0,0.0,1.0,jetski_10s.jpg,0.0,Blue.png,1.0,111,,,,,,,,,,,,,,,,,
0.0,1.0,1.018325,0.0,1.0,1.0,1.0,1.0,tripod_01b.jpg,0.0,Purple.png,1.0,111,,,,,,,,,,,,,,,,,
0.0,1.0,1.03178,0.0,2.0,2.0,2.0,1.0,lab_coat_11s.jpg,0.0,Red.png,1.0,111,,,,,,,,,,,,,,,,,
0.0,1.0,0.94057,0.0,3.0,3.0,3.0,1.0,foam_03s.jpg,0.0,Orange.png,1.0,111,,,,,,,,,,,,,,,,,
0.0,1.0,0.951945,0.0,4.0,4.0,4.0,1.0,crate_05s.jpg,0.0,Yellow.png,1.0,111,,,,,,,,,,,,,,,,,
0.0,1.0,0.938985,0.0,5.0,5.0,5.0,1.0,margarita_03s.jpg,0.0,Green.png,1.0,111,,,,,,,,,,,,,,,,,
0.0,1.0,1.33571,0.0,6.0,6.0,6.0,1.0,joystick_01b.jpg,0.0,Blue.png,2.0,111,,,,,,,,,,,,,,,,,
0.0,1.0,0.91567,0.0,7.0,7.0,7.0,1.0,giraffe_11s.jpg,0.0,Purple.png,2.0,111,,,,,,,,,,,,,,,,,
0.0,1.0,0.73105,0.0,8.0,8.0,8.0,1.0,quilt_03s.jpg,0.0,Red.png,2.0,111,,,,,,,,,,,,,,,,,
1.0,1.0,0.997885,0.0,9.0,9.0,9.0,1.0,giraffe_11s.jpg,1.0,Orange.png,2.0,111,,,,,,,,,,,,,,,,,
0.0,1.0,1.021805,0.0,10.0,10.0,10.0,1.0,pincushion_10s.jpg,0.0,Yellow.png,2.0,111,,,,,,,,,,,,,,,,,
1.0,1.0,1.021765,0.0,11.0,11.0,11.0,1.0,giraffe_11s.jpg,1.0,Green.png,2.0,111,,,,,,,,,,,,,,,,,
0.0,1.0,2.08297,0.0,12.0,12.0,12.0,1.0,pincushion_10s.jpg,0.0,Blue.png,3.0,111,,,,,,,,,,,,,,,,,
0.0,1.0,1.55094,0.0,13.0,13.0,13.0,1.0,giraffe_11s.jpg,0.0,Purple.png,3.0,111,,,,,,,,,,,,,,,,,
0.0,1.0,1.00398,0.0,14.0,14.0,14.0,1.0,rolling_pin_02s.jpg,0.0,Red.png,3.0,111,,,,,,,,,,,,,,,,,
0.0,1.0,0.917195,0.0,15.0,15.0,15.0,1.0,ticktacktoe_08s.jpg,0.0,Orange.png,3.0,111,,,,,,,,,,,,,,,,,
0.0,0.0,1.88429,0.0,16.0,16.0,16.0,1.0,giraffe_11s.jpg,1.0,Yellow.png,3.0,111,,,,,,,,,,,,,,,,,
1.0,1.0,1.150245,0.0,17.0,17.0,17.0,1.0,ticktacktoe_08s.jpg,1.0,Green.png,3.0,111,,,,,,,,,,,,,,,,,
0.0,1.0,1.035835,0.0,18.0,18.0,18.0,1.0,typewriter_11s.jpg,0.0,Blue.png,4.0,111,,,,,,,,,,,,,,,,,
0.0,1.0,1.13958,0.0,19.0,19.0,19.0,1.0,toothpaste_12s.jpg,0.0,Purple.png,4.0,111,,,,,,,,,,,,,,,,,
0.0,1.0,0.93811,0.0,20.0,20.0,20.0,1.0,hummingbird_05s.jpg,0.0,Red.png,4.0,111,,,,,,,,,,,,,,,,,
1.0,1.0,0.947665,0.0,21.0,21.0,21.0,1.0,toothpaste_12s.jpg,1.0,Orange.png,4.0,111,,,,,,,,,,,,,,,,,
1.0,1.0,0.76641,0.0,22.0,22.0,22.0,1.0,toothpaste_12s.jpg,1.0,Yellow.png,4.0,111,,,,,,,,,,,,,,,,,
0.0,1.0,1.000715,0.0,23.0,23.0,23.0,1.0,treadmill_06s.jpg,0.0,Green.png,4.0,111,,,,,,,,,,,,,,,,,
0.0,1.0,1.78335,0.0,24.0,24.0,24.0,1.0,typewriter_11s.jpg,0.0,Blue.png,5.0,111,,,,,,,,,,,,,,,,,
0.0,1.0,0.8516,0.0,25.0,25.0,25.0,1.0,penguin_16s.jpg,0.0,Purple.png,5.0,111,,,,,,,,,,,,,,,,,
0.0,1.0,0.83187,0.0,26.0,26.0,26.0,1.0,olive_05s.jpg,0.0,Red.png,5.0,111,,,,,,,,,,,,,,,,,
1.0,1.0,0.73623,0.0,27.0,27.0,27.0,1.0,penguin_16s.jpg,1.0,Orange.png,5.0,111,,,,,,,,,,,,,,,,,
1.0,1.0,0.703575,0.0,28.0,28.0,28.0,1.0,penguin_16s.jpg,1.0,Yellow.png,5.0,111,,,,,,,,,,,,,,,,,
0.0,1.0,0.86773,0.0,29.0,29.0,29.0,1.0,tab_09s.jpg,0.0,Green.png,5.0,111,,,,,,,,,,,,,,,,,
0.0,1.0,0.884945,0.0,30.0,30.0,30.0,1.0,frame_06s.jpg,0.0,Blue.png,6.0,111,,,,,,,,,,,,,,,,,
0.0,1.0,1.07096,0.0,31.0,31.0,31.0,1.0,mop_08s.jpg,0.0,Purple.png,6.0,111,,,,,,,,,,,,,,,,,
0.0,1.0,1.15272,0.0,32.0,32.0,32.0,1.0,memory_stick_11s.jpg,0.0,Red.png,6.0,111,,,,,,,,,,,,,,,,,
1.0,0.0,1.31413,0.0,33.0,33.0,33.0,1.0,olive_05s.jpg,0.0,Orange.png,6.0,111,,,,,,,,,,,,,,,,,
0.0,1.0,0.932695,0.0,34.0,34.0,34.0,1.0,ravioli_08s.jpg,0.0,Yellow.png,6.0,111,,,,,,,,,,,,,,,,,
0.0,1.0,1.063325,0.0,35.0,35.0,35.0,1.0,mousetrap_15n.jpg,0.0,Green.png,6.0,111,,,,,,,,,,,,,,,,,
,,,,,,,,,1.0,,,111,1.0,1.0,3.937695,0.0,0.0,0.0,0.0,1.0,hummingbird_05s.jpg,treadmill_06s.jpg,,,,,,,
,,,,,,,,,1.0,,,111,1.0,1.0,2.16097,0.0,1.0,1.0,1.0,1.0,margarita_03s.jpg,quilt_03s.jpg,,,,,,,
,,,,,,,,,0.0,,,111,0.0,1.0,1.66587,0.0,2.0,2.0,2.0,1.0,joystick_01b.jpg,foam_03s.jpg,,,,,,,
,,,,,,,,,0.0,,,111,1.0,0.0,2.78581,0.0,3.0,3.0,3.0,1.0,ravioli_08s.jpg,mop_08s.jpg,,,,,,,
,,,,,,,,,1.0,,,111,1.0,1.0,3.42041,0.0,4.0,4.0,4.0,1.0,tab_09s.jpg,memory_stick_11s.jpg,,,,,,,
,,,,,,,,,1.0,,,111,0.0,0.0,2.30641,0.0,5.0,5.0,5.0,1.0,tripod_01b.jpg,crate_05s.jpg,,,,,,,
,,,,,,,,,,,,111,,,,,,,,,,,0.0,1.0,1.0,1.0,1.0,newclockpresent_2_4.xlsx,newclock_compare_task_2_4.xlsx
0.0,1.0,1.40628,0.0,0.0,0.0,0.0,1.0,safety_pin_02s.jpg,0.0,Blue.png,1.0,111,,,,,,,,,,,,,,,,,
1.0,1.0,0.963805,0.0,1.0,1.0,1.0,1.0,safety_pin_02s.jpg,1.0,Purple.png,1.0,111,,,,,,,,,,,,,,,,,
0.0,1.0,0.937875,0.0,2.0,2.0,2.0,1.0,cardinal_07s.jpg,0.0,Red.png,1.0,111,,,,,,,,,,,,,,,,,
1.0,1.0,1.0343,0.0,3.0,3.0,3.0,1.0,safety_pin_02s.jpg,1.0,Orange.png,1.0,111,,,,,,,,,,,,,,,,,
0.0,1.0,0.73758,0.0,4.0,4.0,4.0,1.0,potholder_02s.jpg,0.0,Yellow.png,1.0,111,,,,,,,,,,,,,,,,,
1.0,1.0,0.814425,0.0,5.0,5.0,5.0,1.0,safety_pin_02s.jpg,1.0,Green.png,1.0,111,,,,,,,,,,,,,,,,,
0.0,1.0,1.3333,0.0,6.0,6.0,6.0,1.0,cardinal_07s.jpg,0.0,Blue.png,2.0,111,,,,,,,,,,,,,,,,,
0.0,1.0,1.048445,0.0,7.0,7.0,7.0,1.0,lion_18s.jpg,0.0,Purple.png,2.0,111,,,,,,,,,,,,,,,,,
0.0,1.0,0.73855,0.0,8.0,8.0,8.0,1.0,comic_book_02s.jpg,0.0,Red.png,2.0,111,,,,,,,,,,,,,,,,,
0.0,1.0,0.813665,0.0,9.0,9.0,9.0,1.0,lizard_10n.jpg,0.0,Orange.png,2.0,111,,,,,,,,,,,,,,,,,
0.0,1.0,0.950985,0.0,10.0,10.0,10.0,1.0,rice_12s.jpg,0.0,Yellow.png,2.0,111,,,,,,,,,,,,,,,,,
0.0,1.0,0.972755,0.0,11.0,11.0,11.0,1.0,bagel_15s.jpg,0.0,Green.png,2.0,111,,,,,,,,,,,,,,,,,
0.0,1.0,1.16658,0.0,12.0,12.0,12.0,1.0,recliner_02s.jpg,0.0,Blue.png,3.0,111,,,,,,,,,,,,,,,,,
1.0,1.0,0.99902,0.0,13.0,13.0,13.0,1.0,recliner_02s.jpg,1.0,Purple.png,3.0,111,,,,,,,,,,,,,,,,,
0.0,1.0,1.08106,0.0,14.0,14.0,14.0,1.0,luggage_08s.jpg,0.0,Red.png,3.0,111,,,,,,,,,,,,,,,,,
1.0,1.0,0.6688,0.0,15.0,15.0,15.0,1.0,recliner_02s.jpg,1.0,Orange.png,3.0,111,,,,,,,,,,,,,,,,,
0.0,1.0,0.81768,0.0,16.0,16.0,16.0,1.0,onion_10s.jpg,0.0,Yellow.png,3.0,111,,,,,,,,,,,,,,,,,
0.0,1.0,1.052865,0.0,17.0,17.0,17.0,1.0,rosary_03s.jpg,0.0,Green.png,3.0,111,,,,,,,,,,,,,,,,,
0.0,1.0,0.820715,0.0,18.0,18.0,18.0,1.0,smokingpipe.jpg,0.0,Blue.png,4.0,111,,,,,,,,,,,,,,,,,
0.0,1.0,0.98594,0.0,19.0,19.0,19.0,1.0,roulette_wheel_04s.jpg,0.0,Purple.png,4.0,111,,,,,,,,,,,,,,,,,
1.0,1.0,0.98613,0.0,20.0,20.0,20.0,1.0,smokingpipe.jpg,1.0,Red.png,4.0,111,,,,,,,,,,,,,,,,,
0.0,1.0,0.984475,0.0,21.0,21.0,21.0,1.0,orchid_01b.jpg,0.0,Orange.png,4.0,111,,,,,,,,,,,,,,,,,
0.0,1.0,0.925405,0.0,22.0,22.0,22.0,1.0,buoy_04s.jpg,0.0,Yellow.png,4.0,111,,,,,,,,,,,,,,,,,
0.0,1.0,0.772065,0.0,23.0,23.0,23.0,1.0,stopwatch_04s.jpg,0.0,Green.png,4.0,111,,,,,,,,,,,,,,,,,
0.0,1.0,0.65094,0.0,24.0,24.0,24.0,1.0,knitting_needle_04s.jpg,0.0,Blue.png,5.0,111,,,,,,,,,,,,,,,,,
0.0,1.0,0.8476,0.0,25.0,25.0,25.0,1.0,prism_10s.jpg,0.0,Purple.png,5.0,111,,,,,,,,,,,,,,,,,
0.0,1.0,0.94567,0.0,26.0,26.0,26.0,1.0,teapot_03s.jpg,0.0,Red.png,5.0,111,,,,,,,,,,,,,,,,,
0.0,1.0,0.798895,0.0,27.0,27.0,27.0,1.0,fire_pit_10s.jpg,0.0,Orange.png,5.0,111,,,,,,,,,,,,,,,,,
1.0,1.0,1.07361,0.0,28.0,28.0,28.0,1.0,fire_pit_10s.jpg,1.0,Yellow.png,5.0,111,,,,,,,,,,,,,,,,,
1.0,1.0,0.684175,0.0,29.0,29.0,29.0,1.0,fire_pit_10s.jpg,1.0,Green.png,5.0,111,,,,,,,,,,,,,,,,,
0.0,1.0,0.747715,0.0,30.0,30.0,30.0,1.0,ironing_board_07s.jpg,0.0,Blue.png,6.0,111,,,,,,,,,,,,,,,,,
0.0,1.0,2.084365,0.0,31.0,31.0,31.0,1.0,fire_pit_10s.jpg,0.0,Purple.png,6.0,111,,,,,,,,,,,,,,,,,
0.0,1.0,0.965485,0.0,32.0,32.0,32.0,1.0,mattress_01s.jpg,0.0,Red.png,6.0,111,,,,,,,,,,,,,,,,,
0.0,0.0,1.70525,0.0,33.0,33.0,33.0,1.0,fire_pit_10s.jpg,1.0,Orange.png,6.0,111,,,,,,,,,,,,,,,,,
1.0,1.0,1.301715,0.0,34.0,34.0,34.0,1.0,mattress_01s.jpg,1.0,Yellow.png,6.0,111,,,,,,,,,,,,,,,,,
0.0,1.0,1.71362,0.0,35.0,35.0,35.0,1.0,ice-cream_cone_06s.jpg,0.0,Green.png,6.0,111,,,,,,,,,,,,,,,,,
,,,,,,,,,1.0,,,111,1.0,1.0,1.69472,0.0,0.0,0.0,0.0,1.0,roulette_wheel_04s.jpg,buoy_04s.jpg,,,,,,,
,,,,,,,,,0.0,,,111,0.0,1.0,1.751355,0.0,1.0,1.0,1.0,1.0,lion_18s.jpg,potholder_02s.jpg,,,,,,,
,,,,,,,,,0.0,,,111,0.0,1.0,1.48813,0.0,2.0,2.0,2.0,1.0,bagel_15s.jpg,comic_book_02s.jpg,,,,,,,
,,,,,,,,,1.0,,,111,0.0,0.0,2.4511,0.0,3.0,3.0,3.0,1.0,stopwatch_04s.jpg,teapot_03s.jpg,,,,,,,
,,,,,,,,,1.0,,,111,1.0,1.0,1.78205,0.0,4.0,4.0,4.0,1.0,luggage_08s.jpg,rosary_03s.jpg,,,,,,,
,,,,,,,,,1.0,,,111,0.0,0.0,2.05143,0.0,5.0,5.0,5.0,1.0,orchid_01b.jpg,knitting_needle_04s.jpg,,,,,,,
,,,,,,,,,,,,111,,,,,,,,,,,0.0,2.0,2.0,2.0,1.0,newclockpresent_3_4.xlsx,newclock_compare_task_3_4.xlsx
0.0,1.0,1.014245,0.0,0.0,0.0,0.0,1.0,smoothie_09s.jpg,0.0,Blue.png,1.0,111,,,,,,,,,,,,,,,,,
0.0,1.0,0.76749,0.0,1.0,1.0,1.0,1.0,raspberry_12s.jpg,0.0,Purple.png,1.0,111,,,,,,,,,,,,,,,,,
1.0,1.0,1.019015,0.0,2.0,2.0,2.0,1.0,raspberry_12s.jpg,1.0,Red.png,1.0,111,,,,,,,,,,,,,,,,,
0.0,1.0,0.78527,0.0,3.0,3.0,3.0,1.0,lamb_chop_07s.jpg,0.0,Orange.png,1.0,111,,,,,,,,,,,,,,,,,
1.0,1.0,1.19879,0.0,4.0,4.0,4.0,1.0,smoothie_09s.jpg,1.0,Yellow.png,1.0,111,,,,,,,,,,,,,,,,,
1.0,1.0,0.98078,0.0,5.0,5.0,5.0,1.0,raspberry_12s.jpg,1.0,Green.png,1.0,111,,,,,,,,,,,,,,,,,
0.0,1.0,1.11733,0.0,6.0,6.0,6.0,1.0,lava_02s.jpg,0.0,Blue.png,2.0,111,,,,,,,,,,,,,,,,,
0.0,1.0,0.833015,0.0,7.0,7.0,7.0,1.0,trident_07s.jpg,0.0,Purple.png,2.0,111,,,,,,,,,,,,,,,,,
1.0,1.0,1.149935,0.0,8.0,8.0,8.0,1.0,trident_07s.jpg,1.0,Red.png,2.0,111,,,,,,,,,,,,,,,,,
1.0,1.0,0.783955,0.0,9.0,9.0,9.0,1.0,trident_07s.jpg,1.0,Orange.png,2.0,111,,,,,,,,,,,,,,,,,
0.0,1.0,0.918295,0.0,10.0,10.0,10.0,1.0,orangutan_03s.jpg,0.0,Yellow.png,2.0,111,,,,,,,,,,,,,,,,,
1.0,1.0,1.06664,0.0,11.0,11.0,11.0,1.0,trident_07s.jpg,1.0,Green.png,2.0,111,,,,,,,,,,,,,,,,,
0.0,1.0,1.27328,0.0,12.0,12.0,12.0,1.0,raspberry_12s.jpg,0.0,Blue.png,3.0,111,,,,,,,,,,,,,,,,,
0.0,1.0,1.417355,0.0,13.0,13.0,13.0,1.0,trident_07s.jpg,0.0,Purple.png,3.0,111,,,,,,,,,,,,,,,,,
0.0,1.0,1.22578,0.0,14.0,14.0,14.0,1.0,lavender_10s.jpg,0.0,Red.png,3.0,111,,,,,,,,,,,,,,,,,
0.0,1.0,1.06709,0.0,15.0,15.0,15.0,1.0,chip_04s.jpg,0.0,Orange.png,3.0,111,,,,,,,,,,,,,,,,,
0.0,1.0,0.75333,0.0,16.0,16.0,16.0,1.0,lamb_04s.jpg,0.0,Yellow.png,3.0,111,,,,,,,,,,,,,,,,,
0.0,1.0,1.51372,0.0,17.0,17.0,17.0,1.0,emerald_02s.jpg,0.0,Green.png,3.0,111,,,,,,,,,,,,,,,,,
0.0,1.0,1.31539,0.0,18.0,18.0,18.0,1.0,pineapple_12s.jpg,0.0,Blue.png,4.0,111,,,,,,,,,,,,,,,,,
0.0,1.0,0.989075,0.0,19.0,19.0,19.0,1.0,sundae_08s.jpg,0.0,Purple.png,4.0,111,,,,,,,,,,,,,,,,,
1.0,1.0,0.882525,0.0,20.0,20.0,20.0,1.0,sundae_08s.jpg,1.0,Red.png,4.0,111,,,,,,,,,,,,,,,,,
0.0,1.0,1.021595,0.0,21.0,21.0,21.0,1.0,squirrel_02s.jpg,0.0,Orange.png,4.0,111,,,,,,,,,,,,,,,,,
0.0,1.0,0.83178,0.0,22.0,22.0,22.0,1.0,roller_coaster_07s.jpg,0.0,Yellow.png,4.0,111,,,,,,,,,,,,,,,,,
1.0,1.0,1.43301,0.0,23.0,23.0,23.0,1.0,sundae_08s.jpg,1.0,Green.png,4.0,111,,,,,,,,,,,,,,,,,
0.0,1.0,1.035015,0.0,24.0,24.0,24.0,1.0,tweezers_03s.jpg,0.0,Blue.png,5.0,111,,,,,,,,,,,,,,,,,
0.0,1.0,1.583035,0.0,25.0,25.0,25.0,1.0,sundae_08s.jpg,0.0,Purple.png,5.0,111,,,,,,,,,,,,,,,,,
0.0,1.0,0.96445,0.0,26.0,26.0,26.0,1.0,rudder_02s.jpg,0.0,Red.png,5.0,111,,,,,,,,,,,,,,,,,
0.0,1.0,0.921665,0.0,27.0,27.0,27.0,1.0,rake_06s.jpg,0.0,Orange.png,5.0,111,,,,,,,,,,,,,,,,,
1.0,1.0,1.04932,0.0,28.0,28.0,28.0,1.0,rake_06s.jpg,1.0,Yellow.png,5.0,111,,,,,,,,,,,,,,,,,
1.0,1.0,0.94809,0.0,29.0,29.0,29.0,1.0,rake_06s.jpg,1.0,Green.png,5.0,111,,,,,,,,,,,,,,,,,
0.0,1.0,0.90008,0.0,30.0,30.0,30.0,1.0,cap_05s.jpg,0.0,Blue.png,6.0,111,,,,,,,,,,,,,,,,,
0.0,1.0,0.73643,0.0,31.0,31.0,31.0,1.0,paper_towel_03s.jpg,0.0,Purple.png,6.0,111,,,,,,,,,,,,,,,,,
0.0,1.0,1.26617,0.0,32.0,32.0,32.0,1.0,toaster_03s.jpg,0.0,Red.png,6.0,111,,,,,,,,,,,,,,,,,
0.0,1.0,1.25137,0.0,33.0,33.0,33.0,1.0,money_07s.jpg,0.0,Orange.png,6.0,111,,,,,,,,,,,,,,,,,
0.0,1.0,0.667915,0.0,34.0,34.0,34.0,1.0,pinwheel_06s.jpg,0.0,Yellow.png,6.0,111,,,,,,,,,,,,,,,,,
0.0,1.0,0.8782,0.0,35.0,35.0,35.0,1.0,lid_10s.jpg,0.0,Green.png,6.0,111,,,,,,,,,,,,,,,,,
,,,,,,,,,0.0,,,111,1.0,0.0,2.80031,0.0,0.0,0.0,0.0,1.0,tweezers_03s.jpg,squirrel_02s.jpg,,,,,,,
,,,,,,,,,1.0,,,111,0.0,0.0,2.00588,0.0,1.0,1.0,1.0,1.0,chip_04s.jpg,pineapple_12s.jpg,,,,,,,
,,,,,,,,,1.0,,,111,1.0,1.0,2.219165,0.0,2.0,2.0,2.0,1.0,lamb_chop_07s.jpg,lava_02s.jpg,,,,,,,
,,,,,,,,,0.0,,,111,0.0,1.0,3.875125,0.0,3.0,3.0,3.0,1.0,pinwheel_06s.jpg,paper_towel_03s.jpg,,,,,,,
,,,,,,,,,0.0,,,111,1.0,0.0,2.288155,0.0,4.0,4.0,4.0,1.0,emerald_02s.jpg,lavender_10s.jpg,,,,,,,
,,,,,,,,,0.0,,,111,0.0,1.0,4.968825,0.0,5.0,5.0,5.0,1.0,money_07s.jpg,cap_05s.jpg,,,,,,,
,,,,,,,,,,,,111,,,,,,,,,,,0.0,3.0,3.0,3.0,1.0,newclockpresent_4_4.xlsx,newclock_compare_task_4_4.xlsx
0.0,1.0,1.107545,0.0,0.0,0.0,0.0,1.0,fur_coat_11s.jpg,0.0,Blue.png,1.0,111,,,,,,,,,,,,,,,,,
0.0,1.0,0.913985,0.0,1.0,1.0,1.0,1.0,crayon_09s.jpg,0.0,Purple.png,1.0,111,,,,,,,,,,,,,,,,,
0.0,1.0,0.7313,0.0,2.0,2.0,2.0,1.0,cobra_05s.jpg,0.0,Red.png,1.0,111,,,,,,,,,,,,,,,,,
0.0,1.0,0.9163,0.0,3.0,3.0,3.0,1.0,raccoon_02s.jpg,0.0,Orange.png,1.0,111,,,,,,,,,,,,,,,,,
0.0,1.0,0.984365,0.0,4.0,4.0,4.0,1.0,soda_fountain_03s.jpg,0.0,Yellow.png,1.0,111,,,,,,,,,,,,,,,,,
1.0,1.0,0.914275,0.0,5.0,5.0,5.0,1.0,raccoon_02s.jpg,1.0,Green.png,1.0,111,,,,,,,,,,,,,,,,,
0.0,1.0,1.129405,0.0,6.0,6.0,6.0,1.0,feather02.jpg,0.0,Blue.png,2.0,111,,,,,,,,,,,,,,,,,
0.0,1.0,1.31571,0.0,7.0,7.0,7.0,1.0,raccoon_02s.jpg,0.0,Purple.png,2.0,111,,,,,,,,,,,,,,,,,
1.0,1.0,1.66758,0.0,8.0,8.0,8.0,1.0,feather02.jpg,1.0,Red.png,2.0,111,,,,,,,,,,,,,,,,,
0.0,1.0,1.14841,0.0,9.0,9.0,9.0,1.0,rug_09s.jpg,0.0,Orange.png,2.0,111,,,,,,,,,,,,,,,,,
1.0,1.0,0.91601,0.0,10.0,10.0,10.0,1.0,feather02.jpg,1.0,Yellow.png,2.0,111,,,,,,,,,,,,,,,,,
0.0,1.0,0.85668,0.0,11.0,11.0,11.0,1.0,cushion_08s.jpg,0.0,Green.png,2.0,111,,,,,,,,,,,,,,,,,
0.0,1.0,1.844935,0.0,12.0,12.0,12.0,1.0,feather02.jpg,0.0,Blue.png,3.0,111,,,,,,,,,,,,,,,,,
0.0,0.0,0.750225,0.0,13.0,13.0,13.0,1.0,feather02.jpg,1.0,Purple.png,3.0,111,,,,,,,,,,,,,,,,,
0.0,1.0,1.31418,0.0,14.0,14.0,14.0,1.0,ice_pack_09s.jpg,0.0,Red.png,3.0,111,,,,,,,,,,,,,,,,,
1.0,1.0,0.83316,0.0,15.0,15.0,15.0,1.0,ice_pack_09s.jpg,1.0,Orange.png,3.0,111,,,,,,,,,,,,,,,,,
0.0,1.0,1.100445,0.0,16.0,16.0,16.0,1.0,loom_05s.jpg,0.0,Yellow.png,3.0,111,,,,,,,,,,,,,,,,,
1.0,1.0,1.372215,0.0,17.0,17.0,17.0,1.0,ice_pack_09s.jpg,1.0,Green.png,3.0,111,,,,,,,,,,,,,,,,,
0.0,1.0,1.249105,0.0,18.0,18.0,18.0,1.0,ice_pack_09s.jpg,0.0,Blue.png,4.0,111,,,,,,,,,,,,,,,,,
1.0,1.0,1.29886,0.0,19.0,19.0,19.0,1.0,ice_pack_09s.jpg,1.0,Purple.png,4.0,111,,,,,,,,,,,,,,,,,
1.0,1.0,0.849335,0.0,20.0,20.0,20.0,1.0,ice_pack_09s.jpg,1.0,Red.png,4.0,111,,,,,,,,,,,,,,,,,
0.0,1.0,0.854835,0.0,21.0,21.0,21.0,1.0,blazer_02s.jpg,0.0,Orange.png,4.0,111,,,,,,,,,,,,,,,,,
0.0,1.0,1.116075,0.0,22.0,22.0,22.0,1.0,penlight_12s.jpg,0.0,Yellow.png,4.0,111,,,,,,,,,,,,,,,,,
0.0,1.0,1.998095,0.0,23.0,23.0,23.0,1.0,swan_11s.jpg,0.0,Green.png,4.0,111,,,,,,,,,,,,,,,,,
0.0,1.0,1.27885,0.0,24.0,24.0,24.0,1.0,plunger_08s.jpg,0.0,Blue.png,5.0,111,,,,,,,,,,,,,,,,,
0.0,1.0,1.885145,0.0,25.0,25.0,25.0,1.0,bottle_opener_11s.jpg,0.0,Purple.png,5.0,111,,,,,,,,,,,,,,,,,
0.0,1.0,1.20052,0.0,26.0,26.0,26.0,1.0,checkbook_11s.jpg,0.0,Red.png,5.0,111,,,,,,,,,,,,,,,,,
0.0,1.0,0.86215,0.0,27.0,27.0,27.0,1.0,ink_08s.jpg,0.0,Orange.png,5.0,111,,,,,,,,,,,,,,,,,
1.0,1.0,1.02049,0.0,28.0,28.0,28.0,1.0,plunger_08s.jpg,1.0,Yellow.png,5.0,111,,,,,,,,,,,,,,,,,
0.0,1.0,0.78406,0.0,29.0,29.0,29.0,1.0,pencil02a.jpg,0.0,Green.png,5.0,111,,,,,,,,,,,,,,,,,
0.0,1.0,1.83705,0.0,30.0,30.0,30.0,1.0,ginger_09s.jpg,0.0,Blue.png,6.0,111,,,,,,,,,,,,,,,,,
0.0,1.0,0.795405,0.0,31.0,31.0,31.0,1.0,taxi_15s.jpg,0.0,Purple.png,6.0,111,,,,,,,,,,,,,,,,,
0.0,1.0,1.088185,0.0,32.0,32.0,32.0,1.0,toy_04s.jpg,0.0,Red.png,6.0,111,,,,,,,,,,,,,,,,,
0.0,1.0,1.004405,0.0,33.0,33.0,33.0,1.0,blowfish_03s.jpg,0.0,Orange.png,6.0,111,,,,,,,,,,,,,,,,,
0.0,1.0,1.162275,0.0,34.0,34.0,34.0,1.0,toilet_paper_12s.jpg,0.0,Yellow.png,6.0,111,,,,,,,,,,,,,,,,,
0.0,1.0,0.87957,0.0,35.0,35.0,35.0,1.0,puddle_02s.jpg,0.0,Green.png,6.0,111,,,,,,,,,,,,,,,,,
,,,,,,,,,1.0,,,111,0.0,0.0,2.350715,0.0,0.0,0.0,0.0,1.0,ink_08s.jpg,ginger_09s.jpg,,,,,,,
,,,,,,,,,0.0,,,111,0.0,1.0,1.38463,0.0,1.0,1.0,1.0,1.0,puddle_02s.jpg,toy_04s.jpg,,,,,,,
,,,,,,,,,0.0,,,111,1.0,0.0,1.717915,0.0,2.0,2.0,2.0,1.0,bottle_opener_11s.jpg,penlight_12s.jpg,,,,,,,
,,,,,,,,,0.0,,,111,1.0,0.0,1.81765,0.0,3.0,3.0,3.0,1.0,checkbook_11s.jpg,swan_11s.jpg,,,,,,,
,,,,,,,,,1.0,,,111,0.0,0.0,3.07177,0.0,4.0,4.0,4.0,1.0,taxi_15s.jpg,toilet_paper_12s.jpg,,,,,,,
,,,,,,,,,1.0,,,111,1.0,1.0,1.61853,0.0,5.0,5.0,5.0,1.0,crayon_09s.jpg,soda_fountain_03s.jpg,,,,,,,
,,,,,,,,,,,,111,,,,,,,,,,,0.0,4.0,4.0,4.0,1.0,newclockpresent_5_4.xlsx,newclock_compare_task_5_4.xlsx
0.0,1.0,2.0217,0.0,0.0,0.0,0.0,1.0,flask_04s.jpg,0.0,Blue.png,1.0,111,,,,,,,,,,,,,,,,,
0.0,1.0,0.929185,0.0,1.0,1.0,1.0,1.0,kimono_13s.jpg,0.0,Purple.png,1.0,111,,,,,,,,,,,,,,,,,
0.0,1.0,0.661895,0.0,2.0,2.0,2.0,1.0,limousine_12s.jpg,0.0,Red.png,1.0,111,,,,,,,,,,,,,,,,,
0.0,1.0,1.412255,0.0,3.0,3.0,3.0,1.0,lectern_08s.jpg,0.0,Orange.png,1.0,111,,,,,,,,,,,,,,,,,
1.0,1.0,0.913315,0.0,4.0,4.0,4.0,1.0,kimono_13s.jpg,1.0,Yellow.png,1.0,111,,,,,,,,,,,,,,,,,
0.0,1.0,0.829225,0.0,5.0,5.0,5.0,1.0,doily_13s.jpg,0.0,Green.png,1.0,111,,,,,,,,,,,,,,,,,
0.0,1.0,1.2671,0.0,6.0,6.0,6.0,1.0,kimono_13s.jpg,0.0,Blue.png,2.0,111,,,,,,,,,,,,,,,,,
0.0,1.0,0.919665,0.0,7.0,7.0,7.0,1.0,razor_blade_01b.jpg,0.0,Purple.png,2.0,111,,,,,,,,,,,,,,,,,
1.0,1.0,1.189975,0.0,8.0,8.0,8.0,1.0,razor_blade_01b.jpg,1.0,Red.png,2.0,111,,,,,,,,,,,,,,,,,
0.0,1.0,0.715815,0.0,9.0,9.0,9.0,1.0,champagne_18s.jpg,0.0,Orange.png,2.0,111,,,,,,,,,,,,,,,,,
0.0,1.0,0.80719,0.0,10.0,10.0,10.0,1.0,stamp1_11s.jpg,0.0,Yellow.png,2.0,111,,,,,,,,,,,,,,,,,
0.0,0.0,1.738815,0.0,11.0,11.0,11.0,1.0,champagne_18s.jpg,1.0,Green.png,2.0,111,,,,,,,,,,,,,,,,,
0.0,1.0,1.347445,0.0,12.0,12.0,12.0,1.0,crossbow_10s.jpg,0.0,Blue.png,3.0,111,,,,,,,,,,,,,,,,,
0.0,1.0,0.85148,0.0,13.0,13.0,13.0,1.0,briefcase_03s.jpg,0.0,Purple.png,3.0,111,,,,,,,,,,,,,,,,,
0.0,1.0,0.74863,0.0,14.0,14.0,14.0,1.0,jersey_02s.jpg,0.0,Red.png,3.0,111,,,,,,,,,,,,,,,,,
1.0,1.0,1.062495,0.0,15.0,15.0,15.0,1.0,briefcase_03s.jpg,1.0,Orange.png,3.0,111,,,,,,,,,,,,,,,,,
0.0,1.0,1.18388,0.0,16.0,16.0,16.0,1.0,oil_02s.jpg,0.0,Yellow.png,3.0,111,,,,,,,,,,,,,,,,,
0.0,1.0,1.09598,0.0,17.0,17.0,17.0,1.0,tinsel_12s.jpg,0.0,Green.png,3.0,111,,,,,,,,,,,,,,,,,
0.0,1.0,1.4989,0.0,18.0,18.0,18.0,1.0,flask_04s.jpg,0.0,Blue.png,4.0,111,,,,,,,,,,,,,,,,,
0.0,1.0,0.886185,0.0,19.0,19.0,19.0,1.0,fork_04s.jpg,0.0,Purple.png,4.0,111,,,,,,,,,,,,,,,,,
0.0,1.0,0.99825,0.0,20.0,20.0,20.0,1.0,purse_05s.jpg,0.0,Red.png,4.0,111,,,,,,,,,,,,,,,,,
1.0,1.0,0.999895,0.0,21.0,21.0,21.0,1.0,flask_04s.jpg,1.0,Orange.png,4.0,111,,,,,,,,,,,,,,,,,
0.0,1.0,0.95056,0.0,22.0,22.0,22.0,1.0,sledgehammer_03s.jpg,0.0,Yellow.png,4.0,111,,,,,,,,,,,,,,,,,
0.0,1.0,0.729825,0.0,23.0,23.0,23.0,1.0,turf_03s.jpg,0.0,Green.png,4.0,111,,,,,,,,,,,,,,,,,
0.0,1.0,0.8801,0.0,24.0,24.0,24.0,1.0,omelet_07s.jpg,0.0,Blue.png,5.0,111,,,,,,,,,,,,,,,,,
0.0,1.0,2.114135,0.0,25.0,25.0,25.0,1.0,turf_03s.jpg,0.0,Purple.png,5.0,111,,,,,,,,,,,,,,,,,
0.0,1.0,0.983195,0.0,26.0,26.0,26.0,1.0,clover_04s.jpg,0.0,Red.png,5.0,111,,,,,,,,,,,,,,,,,
0.0,1.0,1.195855,0.0,27.0,27.0,27.0,1.0,lip_gloss_06s.jpg,0.0,Orange.png,5.0,111,,,,,,,,,,,,,,,,,
0.0,1.0,0.9191,0.0,28.0,28.0,28.0,1.0,amber_04s.jpg,0.0,Yellow.png,5.0,111,,,,,,,,,,,,,,,,,
1.0,0.0,2.34077,0.0,29.0,29.0,29.0,1.0,tortilla_06s.jpg,0.0,Green.png,5.0,111,,,,,,,,,,,,,,,,,
0.0,1.0,1.29451,0.0,30.0,30.0,30.0,1.0,razor_blade_01b.jpg,0.0,Blue.png,6.0,111,,,,,,,,,,,,,,,,,
0.0,1.0,0.82139,0.0,31.0,31.0,31.0,1.0,tape_measure_11s.jpg,0.0,Purple.png,6.0,111,,,,,,,,,,,,,,,,,
1.0,1.0,1.04612,0.0,32.0,32.0,32.0,1.0,razor_blade_01b.jpg,1.0,Red.png,6.0,111,,,,,,,,,,,,,,,,,
1.0,1.0,1.12749,0.0,33.0,33.0,33.0,1.0,razor_blade_01b.jpg,1.0,Orange.png,6.0,111,,,,,,,,,,,,,,,,,
0.0,1.0,0.997835,0.0,34.0,34.0,34.0,1.0,stingray_02s.jpg,0.0,Yellow.png,6.0,111,,,,,,,,,,,,,,,,,
0.0,1.0,1.112155,0.0,35.0,35.0,35.0,1.0,harpoon.jpg,0.0,Green.png,6.0,111,,,,,,,,,,,,,,,,,
,,,,,,,,,1.0,,,111,1.0,1.0,2.112215,0.0,0.0,0.0,0.0,1.0,oil_02s.jpg,fork_04s.jpg,,,,,,,
,,,,,,,,,0.0,,,111,0.0,1.0,2.417785,0.0,1.0,1.0,1.0,1.0,doily_13s.jpg,limousine_12s.jpg,,,,,,,
,,,,,,,,,0.0,,,111,1.0,0.0,2.53574,0.0,2.0,2.0,2.0,1.0,lip_gloss_06s.jpg,omelet_07s.jpg,,,,,,,
,,,,,,,,,0.0,,,111,1.0,0.0,1.58457,0.0,3.0,3.0,3.0,1.0,tape_measure_11s.jpg,amber_04s.jpg,,,,,,,
,,,,,,,,,0.0,,,111,1.0,0.0,1.619875,0.0,4.0,4.0,4.0,1.0,tortilla_06s.jpg,clover_04s.jpg,,,,,,,
,,,,,,,,,0.0,,,111,0.0,1.0,1.58449,0.0,5.0,5.0,5.0,1.0,purse_05s.jpg,tinsel_12s.jpg,,,,,,,
,,,,,,,,,,,,111,,,,,,,,,,,0.0,5.0,5.0,5.0,1.0,newclockpresent_6_4.xlsx,newclock_compare_task_6_4.xlsx
0.0,1.0,0.857205,0.0,0.0,0.0,0.0,1.0,butter_14s.jpg,0.0,Blue.png,1.0,111,,,,,,,,,,,,,,,,,
1.0,1.0,0.93506,0.0,1.0,1.0,1.0,1.0,butter_14s.jpg,1.0,Purple.png,1.0,111,,,,,,,,,,,,,,,,,
1.0,1.0,1.00594,0.0,2.0,2.0,2.0,1.0,butter_14s.jpg,1.0,Red.png,1.0,111,,,,,,,,,,,,,,,,,
0.0,1.0,0.78457,0.0,3.0,3.0,3.0,1.0,stamp2_08s.jpg,0.0,Orange.png,1.0,111,,,,,,,,,,,,,,,,,
0.0,1.0,0.668655,0.0,4.0,4.0,4.0,1.0,kangaroo_02s.jpg,0.0,Yellow.png,1.0,111,,,,,,,,,,,,,,,,,
0.0,1.0,0.9067,0.0,5.0,5.0,5.0,1.0,camcorder_10s.jpg,0.0,Green.png,1.0,111,,,,,,,,,,,,,,,,,
0.0,1.0,1.76761,0.0,6.0,6.0,6.0,1.0,bank_06s.jpg,0.0,Blue.png,2.0,111,,,,,,,,,,,,,,,,,
0.0,1.0,1.503915,0.0,7.0,7.0,7.0,1.0,gear_07s.jpg,0.0,Purple.png,2.0,111,,,,,,,,,,,,,,,,,
1.0,1.0,0.880915,0.0,8.0,8.0,8.0,1.0,bank_06s.jpg,1.0,Red.png,2.0,111,,,,,,,,,,,,,,,,,
0.0,1.0,0.730095,0.0,9.0,9.0,9.0,1.0,funnel_01b.jpg,0.0,Orange.png,2.0,111,,,,,,,,,,,,,,,,,
0.0,1.0,1.049975,0.0,10.0,10.0,10.0,1.0,poinsettia_04s.jpg,0.0,Yellow.png,2.0,111,,,,,,,,,,,,,,,,,
1.0,1.0,0.995655,0.0,11.0,11.0,11.0,1.0,funnel_01b.jpg,1.0,Green.png,2.0,111,,,,,,,,,,,,,,,,,
0.0,1.0,1.163905,0.0,12.0,12.0,12.0,1.0,rooster_03s.jpg,0.0,Blue.png,3.0,111,,,,,,,,,,,,,,,,,
0.0,1.0,1.78513,0.0,13.0,13.0,13.0,1.0,denture_03s.jpg,0.0,Purple.png,3.0,111,,,,,,,,,,,,,,,,,
0.0,1.0,1.518825,0.0,14.0,14.0,14.0,1.0,bean_06s.jpg,0.0,Red.png,3.0,111,,,,,,,,,,,,,,,,,
0.0,1.0,1.42236,0.0,15.0,15.0,15.0,1.0,mud_13s.jpg,0.0,Orange.png,3.0,111,,,,,,,,,,,,,,,,,
0.0,1.0,0.81877,0.0,16.0,16.0,16.0,1.0,keyhole_03s.jpg,0.0,Yellow.png,3.0,111,,,,,,,,,,,,,,,,,
1.0,1.0,0.899495,0.0,17.0,17.0,17.0,1.0,bean_06s.jpg,1.0,Green.png,3.0,111,,,,,,,,,,,,,,,,,
0.0,1.0,1.200785,0.0,18.0,18.0,18.0,1.0,bank_06s.jpg,0.0,Blue.png,4.0,111,,,,,,,,,,,,,,,,,
0.0,1.0,0.80081,0.0,19.0,19.0,19.0,1.0,pomegranate_04s.jpg,0.0,Purple.png,4.0,111,,,,,,,,,,,,,,,,,
0.0,1.0,0.95661,0.0,20.0,20.0,20.0,1.0,chopsticks_08s.jpg,0.0,Red.png,4.0,111,,,,,,,,,,,,,,,,,
0.0,1.0,1.253275,0.0,21.0,21.0,21.0,1.0,contact_lens_15s.jpg,0.0,Orange.png,4.0,111,,,,,,,,,,,,,,,,,
0.0,1.0,0.86598,0.0,22.0,22.0,22.0,1.0,hydrant_10s.jpg,0.0,Yellow.png,4.0,111,,,,,,,,,,,,,,,,,
0.0,1.0,0.683825,0.0,23.0,23.0,23.0,1.0,gingerbread_man_03s.jpg,0.0,Green.png,4.0,111,,,,,,,,,,,,,,,,,
0.0,1.0,1.13114,0.0,24.0,24.0,24.0,1.0,camcorder_10s.jpg,0.0,Blue.png,5.0,111,,,,,,,,,,,,,,,,,
0.0,1.0,1.38469,0.0,25.0,25.0,25.0,1.0,teabag_12s.jpg,0.0,Purple.png,5.0,111,,,,,,,,,,,,,,,,,
0.0,1.0,0.664635,0.0,26.0,26.0,26.0,1.0,radiator_05s.jpg,0.0,Red.png,5.0,111,,,,,,,,,,,,,,,,,
0.0,1.0,1.185945,0.0,27.0,27.0,27.0,1.0,punch1_10s.jpg,0.0,Orange.png,5.0,111,,,,,,,,,,,,,,,,,
0.0,1.0,0.71536,0.0,28.0,28.0,28.0,1.0,mailbox_11s.jpg,0.0,Yellow.png,5.0,111,,,,,,,,,,,,,,,,,
0.0,1.0,0.840125,0.0,29.0,29.0,29.0,1.0,beaker_01b.jpg,0.0,Green.png,5.0,111,,,,,,,,,,,,,,,,,
0.0,1.0,1.183965,0.0,30.0,30.0,30.0,1.0,mailbox_11s.jpg,0.0,Blue.png,6.0,111,,,,,,,,,,,,,,,,,
0.0,1.0,0.86672,0.0,31.0,31.0,31.0,1.0,pipe1_10s.jpg,0.0,Purple.png,6.0,111,,,,,,,,,,,,,,,,,
1.0,1.0,1.10703,0.0,32.0,32.0,32.0,1.0,mailbox_11s.jpg,1.0,Red.png,6.0,111,,,,,,,,,,,,,,,,,
1.0,1.0,1.1188,0.0,33.0,33.0,33.0,1.0,pipe1_10s.jpg,1.0,Orange.png,6.0,111,,,,,,,,,,,,,,,,,
0.0,1.0,1.073585,0.0,34.0,34.0,34.0,1.0,eyedropper_12s.jpg,0.0,Yellow.png,6.0,111,,,,,,,,,,,,,,,,,
0.0,1.0,0.751555,0.0,35.0,35.0,35.0,1.0,rhubarb_03s.jpg,0.0,Green.png,6.0,111,,,,,,,,,,,,,,,,,
,,,,,,,,,0.0,,,111,1.0,0.0,3.01871,0.0,0.0,0.0,0.0,1.0,mud_13s.jpg,rooster_03s.jpg,,,,,,,
,,,,,,,,,1.0,,,111,1.0,1.0,1.29894,0.0,1.0,1.0,1.0,1.0,chopsticks_08s.jpg,gingerbread_man_03s.jpg,,,,,,,
,,,,,,,,,0.0,,,111,1.0,0.0,1.71713,0.0,2.0,2.0,2.0,1.0,beaker_01b.jpg,radiator_05s.jpg,,,,,,,
,,,,,,,,,0.0,,,111,1.0,0.0,1.45858,0.0,3.0,3.0,3.0,1.0,teabag_12s.jpg,hydrant_10s.jpg,,,,,,,
,,,,,,,,,0.0,,,111,1.0,0.0,2.101425,0.0,4.0,4.0,4.0,1.0,denture_03s.jpg,poinsettia_04s.jpg,,,,,,,
,,,,,,,,,1.0,,,111,0.0,0.0,1.14049,0.0,5.0,5.0,5.0,1.0,kangaroo_02s.jpg,gear_07s.jpg,,,,,,,
,,,,,,,,,,,,111,,,,,,,,,,,0.0,6.0,6.0,6.0,1.0,newclockpresent_7_4.xlsx,newclock_compare_task_7_4.xlsx
0.0,1.0,0.89461,0.0,0.0,0.0,0.0,1.0,lamppost_09s.jpg,0.0,Blue.png,1.0,111,,,,,,,,,,,,,,,,,
0.0,1.0,1.045615,0.0,1.0,1.0,1.0,1.0,jewel_01b.jpg,0.0,Purple.png,1.0,111,,,,,,,,,,,,,,,,,
0.0,1.0,1.03094,0.0,2.0,2.0,2.0,1.0,tuxedo_01b.jpg,0.0,Red.png,1.0,111,,,,,,,,,,,,,,,,,
0.0,1.0,1.547005,0.0,3.0,3.0,3.0,1.0,flip_flop_03s.jpg,0.0,Orange.png,1.0,111,,,,,,,,,,,,,,,,,
0.0,1.0,1.073375,0.0,4.0,4.0,4.0,1.0,medal_04s.jpg,0.0,Yellow.png,1.0,111,,,,,,,,,,,,,,,,,
1.0,1.0,0.916735,0.0,5.0,5.0,5.0,1.0,flip_flop_03s.jpg,1.0,Green.png,1.0,111,,,,,,,,,,,,,,,,,
0.0,1.0,1.17406,0.0,6.0,6.0,6.0,1.0,tuxedo_01b.jpg,0.0,Blue.png,2.0,111,,,,,,,,,,,,,,,,,
0.0,1.0,1.21801,0.0,7.0,7.0,7.0,1.0,flip_flop_03s.jpg,0.0,Purple.png,2.0,111,,,,,,,,,,,,,,,,,
,0.0,,0.0,8.0,8.0,8.0,1.0,fireworks_18s.jpg,0.0,Red.png,2.0,111,,,,,,,,,,,,,,,,,
0.0,1.0,1.28194,0.0,9.0,9.0,9.0,1.0,squirt_gun_03s.jpg,0.0,Orange.png,2.0,111,,,,,,,,,,,,,,,,,
0.0,0.0,1.39882,0.0,10.0,10.0,10.0,1.0,flip_flop_03s.jpg,1.0,Yellow.png,2.0,111,,,,,,,,,,,,,,,,,
0.0,1.0,0.8322,0.0,11.0,11.0,11.0,1.0,puffin_19s.jpg,0.0,Green.png,2.0,111,,,,,,,,,,,,,,,,,
0.0,1.0,1.299025,0.0,12.0,12.0,12.0,1.0,tuxedo_01b.jpg,0.0,Blue.png,3.0,111,,,,,,,,,,,,,,,,,
1.0,1.0,0.978775,0.0,13.0,13.0,13.0,1.0,tuxedo_01b.jpg,1.0,Purple.png,3.0,111,,,,,,,,,,,,,,,,,
0.0,1.0,0.83233,0.0,14.0,14.0,14.0,1.0,snowman_02s.jpg,0.0,Red.png,3.0,111,,,,,,,,,,,,,,,,,
0.0,1.0,0.747745,0.0,15.0,15.0,15.0,1.0,cucumber_07s.jpg,0.0,Orange.png,3.0,111,,,,,,,,,,,,,,,,,
0.0,1.0,0.916055,0.0,16.0,16.0,16.0,1.0,plug_08s.jpg,0.0,Yellow.png,3.0,111,,,,,,,,,,,,,,,,,
1.0,1.0,0.86356,0.0,17.0,17.0,17.0,1.0,cucumber_07s.jpg,1.0,Green.png,3.0,111,,,,,,,,,,,,,,,,,
0.0,1.0,1.648,0.0,18.0,18.0,18.0,1.0,puffin_19s.jpg,0.0,Blue.png,4.0,111,,,,,,,,,,,,,,,,,
0.0,1.0,1.150485,0.0,19.0,19.0,19.0,1.0,fondue_07s.jpg,0.0,Purple.png,4.0,111,,,,,,,,,,,,,,,,,
0.0,1.0,1.18782,0.0,20.0,20.0,20.0,1.0,lasagna_06s.jpg,0.0,Red.png,4.0,111,,,,,,,,,,,,,,,,,
0.0,1.0,0.929855,0.0,21.0,21.0,21.0,1.0,eiffeltower.jpg,0.0,Orange.png,4.0,111,,,,,,,,,,,,,,,,,
0.0,1.0,0.897665,0.0,22.0,22.0,22.0,1.0,outlet_10s.jpg,0.0,Yellow.png,4.0,111,,,,,,,,,,,,,,,,,
0.0,1.0,0.93659,0.0,23.0,23.0,23.0,1.0,cape_11s.jpg,0.0,Green.png,4.0,111,,,,,,,,,,,,,,,,,
0.0,1.0,1.183485,0.0,24.0,24.0,24.0,1.0,marshmallow_08s.jpg,0.0,Blue.png,5.0,111,,,,,,,,,,,,,,,,,
0.0,1.0,1.284735,0.0,25.0,25.0,25.0,1.0,racehorse_03s.jpg,0.0,Purple.png,5.0,111,,,,,,,,,,,,,,,,,
0.0,1.0,1.86471,0.0,26.0,26.0,26.0,1.0,aluminum_foil_08s.jpg,0.0,Red.png,5.0,111,,,,,,,,,,,,,,,,,
0.0,1.0,0.882445,0.0,27.0,27.0,27.0,1.0,spoon02a.jpg,0.0,Orange.png,5.0,111,,,,,,,,,,,,,,,,,
0.0,1.0,0.76808,0.0,28.0,28.0,28.0,1.0,padlock_07s.jpg,0.0,Yellow.png,5.0,111,,,,,,,,,,,,,,,,,
0.0,1.0,0.729785,0.0,29.0,29.0,29.0,1.0,solar_panel_02s.jpg,0.0,Green.png,5.0,111,,,,,,,,,,,,,,,,,
0.0,1.0,0.85446,0.0,30.0,30.0,30.0,1.0,turtleneck_11s.jpg,0.0,Blue.png,6.0,111,,,,,,,,,,,,,,,,,
0.0,1.0,0.799745,0.0,31.0,31.0,31.0,1.0,pocketknife_12s.jpg,0.0,Purple.png,6.0,111,,,,,,,,,,,,,,,,,
1.0,1.0,1.306485,0.0,32.0,32.0,32.0,1.0,pocketknife_12s.jpg,1.0,Red.png,6.0,111,,,,,,,,,,,,,,,,,
0.0,1.0,0.76493,0.0,33.0,33.0,33.0,1.0,quill_09s.jpg,0.0,Orange.png,6.0,111,,,,,,,,,,,,,,,,,
1.0,1.0,1.079775,0.0,34.0,34.0,34.0,1.0,quill_09s.jpg,1.0,Yellow.png,6.0,111,,,,,,,,,,,,,,,,,
1.0,1.0,1.050825,0.0,35.0,35.0,35.0,1.0,pocketknife_12s.jpg,1.0,Green.png,6.0,111,,,,,,,,,,,,,,,,,
,,,,,,,,,0.0,,,111,0.0,1.0,2.0039,0.0,0.0,0.0,0.0,1.0,cape_11s.jpg,lasagna_06s.jpg,,,,,,,
,,,,,,,,,0.0,,,111,0.0,1.0,1.534495,0.0,1.0,1.0,1.0,1.0,padlock_07s.jpg,racehorse_03s.jpg,,,,,,,
,,,,,,,,,1.0,,,111,1.0,1.0,1.60632,0.0,2.0,2.0,2.0,1.0,spoon02a.jpg,turtleneck_11s.jpg,,,,,,,
,,,,,,,,,0.0,,,111,1.0,0.0,1.640195,0.0,3.0,3.0,3.0,1.0,marshmallow_08s.jpg,eiffeltower.jpg,,,,,,,
,,,,,,,,,0.0,,,111,0.0,1.0,3.351755,0.0,4.0,4.0,4.0,1.0,medal_04s.jpg,jewel_01b.jpg,,,,,,,
,,,,,,,,,1.0,,,111,0.0,0.0,1.61797,0.0,5.0,5.0,5.0,1.0,plug_08s.jpg,fondue_07s.jpg,,,,,,,
,,,,,,,,,,,,111,,,,,,,,,,,0.0,7.0,7.0,7.0,1.0,newclockpresent_8_4.xlsx,newclock_compare_task_8_4.xlsx
0.0,1.0,0.657545,0.0,0.0,0.0,0.0,1.0,footprint_11s.jpg,0.0,Blue.png,1.0,111,,,,,,,,,,,,,,,,,
0.0,1.0,0.778005,0.0,1.0,1.0,1.0,1.0,coffee_filter_10s.jpg,0.0,Purple.png,1.0,111,,,,,,,,,,,,,,,,,
1.0,1.0,1.07206,0.0,2.0,2.0,2.0,1.0,coffee_filter_10s.jpg,1.0,Red.png,1.0,111,,,,,,,,,,,,,,,,,
1.0,1.0,0.650265,0.0,3.0,3.0,3.0,1.0,coffee_filter_10s.jpg,1.0,Orange.png,1.0,111,,,,,,,,,,,,,,,,,
1.0,1.0,0.65038,0.0,4.0,4.0,4.0,1.0,coffee_filter_10s.jpg,1.0,Yellow.png,1.0,111,,,,,,,,,,,,,,,,,
0.0,1.0,0.95145,0.0,5.0,5.0,5.0,1.0,gargoyle_08s.jpg,0.0,Green.png,1.0,111,,,,,,,,,,,,,,,,,
0.0,1.0,1.05122,0.0,6.0,6.0,6.0,1.0,candy_cane_06s.jpg,0.0,Blue.png,2.0,111,,,,,,,,,,,,,,,,,
0.0,1.0,0.701075,0.0,7.0,7.0,7.0,1.0,toad_09s.jpg,0.0,Purple.png,2.0,111,,,,,,,,,,,,,,,,,
1.0,1.0,0.78297,0.0,8.0,8.0,8.0,1.0,candy_cane_06s.jpg,1.0,Red.png,2.0,111,,,,,,,,,,,,,,,,,
0.0,1.0,0.753155,0.0,9.0,9.0,9.0,1.0,pumpkin_03s.jpg,0.0,Orange.png,2.0,111,,,,,,,,,,,,,,,,,
0.0,1.0,0.96784,0.0,10.0,10.0,10.0,1.0,dashboard_02s.jpg,0.0,Yellow.png,2.0,111,,,,,,,,,,,,,,,,,
0.0,1.0,0.979955,0.0,11.0,11.0,11.0,1.0,syringe_02s.jpg,0.0,Green.png,2.0,111,,,,,,,,,,,,,,,,,
0.0,1.0,1.280855,0.0,12.0,12.0,12.0,1.0,powder_07s.jpg,0.0,Blue.png,3.0,111,,,,,,,,,,,,,,,,,
1.0,1.0,1.034145,0.0,13.0,13.0,13.0,1.0,powder_07s.jpg,1.0,Purple.png,3.0,111,,,,,,,,,,,,,,,,,
1.0,1.0,0.81745,0.0,14.0,14.0,14.0,1.0,powder_07s.jpg,1.0,Red.png,3.0,111,,,,,,,,,,,,,,,,,
0.0,1.0,1.48393,0.0,15.0,15.0,15.0,1.0,sea_urchin_09s.jpg,0.0,Orange.png,3.0,111,,,,,,,,,,,,,,,,,
0.0,1.0,1.13088,0.0,16.0,16.0,16.0,1.0,throne_11s.jpg,0.0,Yellow.png,3.0,111,,,,,,,,,,,,,,,,,
1.0,1.0,1.37326,0.0,17.0,17.0,17.0,1.0,powder_07s.jpg,1.0,Green.png,3.0,111,,,,,,,,,,,,,,,,,
0.0,1.0,1.15036,0.0,18.0,18.0,18.0,1.0,chalice_10s.jpg,0.0,Blue.png,4.0,111,,,,,,,,,,,,,,,,,
0.0,1.0,1.93506,0.0,19.0,19.0,19.0,1.0,air_pump_05s.jpg,0.0,Purple.png,4.0,111,,,,,,,,,,,,,,,,,
0.0,1.0,1.98429,0.0,20.0,20.0,20.0,1.0,microwave_02s.jpg,0.0,Red.png,4.0,111,,,,,,,,,,,,,,,,,
0.0,1.0,1.052615,0.0,21.0,21.0,21.0,1.0,cereal_04s.jpg,0.0,Orange.png,4.0,111,,,,,,,,,,,,,,,,,
0.0,1.0,0.868025,0.0,22.0,22.0,22.0,1.0,mushroom_10n.jpg,0.0,Yellow.png,4.0,111,,,,,,,,,,,,,,,,,
0.0,1.0,0.766345,0.0,23.0,23.0,23.0,1.0,red_carpet_03s.jpg,0.0,Green.png,4.0,111,,,,,,,,,,,,,,,,,
0.0,1.0,1.281695,0.0,24.0,24.0,24.0,1.0,throne_11s.jpg,0.0,Blue.png,5.0,111,,,,,,,,,,,,,,,,,
0.0,1.0,1.737745,0.0,25.0,25.0,25.0,1.0,koala_13s.jpg,0.0,Purple.png,5.0,111,,,,,,,,,,,,,,,,,
1.0,1.0,1.31666,0.0,26.0,26.0,26.0,1.0,throne_11s.jpg,1.0,Red.png,5.0,111,,,,,,,,,,,,,,,,,
0.0,1.0,0.95623,0.0,27.0,27.0,27.0,1.0,rocket_02s.jpg,0.0,Orange.png,5.0,111,,,,,,,,,,,,,,,,,
0.0,1.0,1.33951,0.0,28.0,28.0,28.0,1.0,swordfish_05s.jpg,0.0,Yellow.png,5.0,111,,,,,,,,,,,,,,,,,
1.0,1.0,0.733595,0.0,29.0,29.0,29.0,1.0,rocket_02s.jpg,1.0,Green.png,5.0,111,,,,,,,,,,,,,,,,,
0.0,1.0,1.017115,0.0,30.0,30.0,30.0,1.0,icicle_04s.jpg,0.0,Blue.png,6.0,111,,,,,,,,,,,,,,,,,
0.0,1.0,0.88746,0.0,31.0,31.0,31.0,1.0,keyboard_05s.jpg,0.0,Purple.png,6.0,111,,,,,,,,,,,,,,,,,
0.0,1.0,0.822565,0.0,32.0,32.0,32.0,1.0,pocket_watch_16s.jpg,0.0,Red.png,6.0,111,,,,,,,,,,,,,,,,,
0.0,1.0,0.96437,0.0,33.0,33.0,33.0,1.0,tablet_04s.jpg,0.0,Orange.png,6.0,111,,,,,,,,,,,,,,,,,
0.0,1.0,0.80244,0.0,34.0,34.0,34.0,1.0,chocolate_01b.jpg,0.0,Yellow.png,6.0,111,,,,,,,,,,,,,,,,,
0.0,1.0,0.763715,0.0,35.0,35.0,35.0,1.0,light_switch_02s.jpg,0.0,Green.png,6.0,111,,,,,,,,,,,,,,,,,
,,,,,,,,,0.0,,,111,0.0,1.0,2.11576,0.0,0.0,0.0,0.0,1.0,chalice_10s.jpg,sea_urchin_09s.jpg,,,,,,,
,,,,,,,,,1.0,,,111,1.0,1.0,1.40037,0.0,1.0,1.0,1.0,1.0,swordfish_05s.jpg,keyboard_05s.jpg,,,,,,,
,,,,,,,,,0.0,,,111,0.0,1.0,1.552435,0.0,2.0,2.0,2.0,1.0,red_carpet_03s.jpg,microwave_02s.jpg,,,,,,,
,,,,,,,,,0.0,,,111,0.0,1.0,1.348415,0.0,3.0,3.0,3.0,1.0,dashboard_02s.jpg,toad_09s.jpg,,,,,,,
,,,,,,,,,0.0,,,111,1.0,0.0,1.501325,0.0,4.0,4.0,4.0,1.0,koala_13s.jpg,mushroom_10n.jpg,,,,,,,
,,,,,,,,,1.0,,,111,1.0,1.0,1.587905,0.0,5.0,5.0,5.0,1.0,icicle_04s.jpg,tablet_04s.jpg,,,,,,,
,,,,,,,,,,,,111,,,,,,,,,,,0.0,8.0,8.0,8.0,1.0,newclockpresent_9_4.xlsx,newclock_compare_task_9_4.xlsx
