key_resp.keys,key_resp.corr,present_segment.thisRepN,present_segment.thisTrialN,present_segment.thisN,present_segment.thisIndex,present_segment.ran,pictures,answer,clock,segment,participant,key_resp.rt,key_resp_2.keys,key_resp_2.corr,key_resp_2.rt,compare_segment.thisRepN,compare_segment.thisTrialN,compare_segment.thisN,compare_segment.thisIndex,compare_segment.ran,item_a,item_b,clock_conditions.thisRepN,clock_conditions.thisTrialN,clock_conditions.thisN,clock_conditions.thisIndex,clock_conditions.ran,present,compare
,0.0,0.0,0.0,0.0,0.0,1.0,lamppost_09s.jpg,0.0,Blue.png,1.0,103,,,,,,,,,,,,,,,,,,
0.0,1.0,0.0,1.0,1.0,1.0,1.0,mushroom_10n.jpg,0.0,Purple.png,1.0,103,1.914,,,,,,,,,,,,,,,,,
,0.0,0.0,2.0,2.0,2.0,1.0,mushroom_10n.jpg,1.0,Red.png,1.0,103,,,,,,,,,,,,,,,,,,
0.0,1.0,0.0,3.0,3.0,3.0,1.0,megaphone_03s.jpg,0.0,Orange.png,1.0,103,0.872,,,,,,,,,,,,,,,,,
1.0,0.0,0.0,4.0,4.0,4.0,1.0,popsicle_02s.jpg,0.0,Yellow.png,1.0,103,1.193,,,,,,,,,,,,,,,,,
0.0,1.0,0.0,5.0,5.0,5.0,1.0,kangaroo_02s.jpg,0.0,Green.png,1.0,103,1.771,,,,,,,,,,,,,,,,,
1.0,0.0,0.0,6.0,6.0,6.0,1.0,kangaroo_02s.jpg,0.0,Blue.png,2.0,103,0.923,,,,,,,,,,,,,,,,,
0.0,1.0,0.0,7.0,7.0,7.0,1.0,ivy_12s.jpg,0.0,Purple.png,2.0,103,1.267,,,,,,,,,,,,,,,,,
1.0,1.0,0.0,8.0,8.0,8.0,1.0,kangaroo_02s.jpg,1.0,Red.png,2.0,103,0.838,,,,,,,,,,,,,,,,,
0.0,1.0,0.0,9.0,9.0,9.0,1.0,peanut_butter_08s.jpg,0.0,Orange.png,2.0,103,1.187,,,,,,,,,,,,,,,,,
0.0,1.0,0.0,10.0,10.0,10.0,1.0,spoon02a.jpg,0.0,Yellow.png,2.0,103,1.416,,,,,,,,,,,,,,,,,
0.0,1.0,0.0,11.0,11.0,11.0,1.0,air_pump_05s.jpg,0.0,Green.png,2.0,103,0.764,,,,,,,,,,,,,,,,,
0.0,1.0,0.0,12.0,12.0,12.0,1.0,powder_07s.jpg,0.0,Blue.png,3.0,103,1.075,,,,,,,,,,,,,,,,,
0.0,1.0,0.0,13.0,13.0,13.0,1.0,sunglasses_11s.jpg,0.0,Purple.png,3.0,103,1.013,,,,,,,,,,,,,,,,,
0.0,1.0,0.0,14.0,14.0,14.0,1.0,timer_03s.jpg,0.0,Red.png,3.0,103,0.752,,,,,,,,,,,,,,,,,
1.0,1.0,0.0,15.0,15.0,15.0,1.0,sunglasses_11s.jpg,1.0,Orange.png,3.0,103,0.833,,,,,,,,,,,,,,,,,
0.0,1.0,0.0,16.0,16.0,16.0,1.0,stethoscope_01b.jpg,0.0,Yellow.png,3.0,103,0.975,,,,,,,,,,,,,,,,,
1.0,1.0,0.0,17.0,17.0,17.0,1.0,sunglasses_11s.jpg,1.0,Green.png,3.0,103,0.715,,,,,,,,,,,,,,,,,
1.0,0.0,0.0,18.0,18.0,18.0,1.0,sunglasses_11s.jpg,0.0,Blue.png,4.0,103,0.791,,,,,,,,,,,,,,,,,
1.0,1.0,0.0,19.0,19.0,19.0,1.0,sunglasses_11s.jpg,1.0,Purple.png,4.0,103,0.865,,,,,,,,,,,,,,,,,
0.0,1.0,0.0,20.0,20.0,20.0,1.0,radiator_05s.jpg,0.0,Red.png,4.0,103,0.992,,,,,,,,,,,,,,,,,
1.0,1.0,0.0,21.0,21.0,21.0,1.0,radiator_05s.jpg,1.0,Orange.png,4.0,103,1.311,,,,,,,,,,,,,,,,,
1.0,1.0,0.0,22.0,22.0,22.0,1.0,sunglasses_11s.jpg,1.0,Yellow.png,4.0,103,0.99,,,,,,,,,,,,,,,,,
1.0,1.0,0.0,23.0,23.0,23.0,1.0,radiator_05s.jpg,1.0,Green.png,4.0,103,1.05,,,,,,,,,,,,,,,,,
0.0,1.0,0.0,24.0,24.0,24.0,1.0,stump_02s.jpg,0.0,Blue.png,5.0,103,1.065,,,,,,,,,,,,,,,,,
0.0,1.0,0.0,25.0,25.0,25.0,1.0,jet_15s.jpg,0.0,Purple.png,5.0,103,1.319,,,,,,,,,,,,,,,,,
0.0,1.0,0.0,26.0,26.0,26.0,1.0,bubble_01b.jpg,0.0,Red.png,5.0,103,1.224,,,,,,,,,,,,,,,,,
0.0,1.0,0.0,27.0,27.0,27.0,1.0,footprint_11s.jpg,0.0,Orange.png,5.0,103,1.026,,,,,,,,,,,,,,,,,
0.0,1.0,0.0,28.0,28.0,28.0,1.0,knitting_needle_04s.jpg,0.0,Yellow.png,5.0,103,1.082,,,,,,,,,,,,,,,,,
1.0,1.0,0.0,29.0,29.0,29.0,1.0,bubble_01b.jpg,1.0,Green.png,5.0,103,0.882,,,,,,,,,,,,,,,,,
0.0,1.0,0.0,30.0,30.0,30.0,1.0,lizard_10n.jpg,0.0,Blue.png,6.0,103,0.807,,,,,,,,,,,,,,,,,
1.0,0.0,0.0,31.0,31.0,31.0,1.0,bubble_01b.jpg,0.0,Purple.png,6.0,103,0.842,,,,,,,,,,,,,,,,,
0.0,1.0,0.0,32.0,32.0,32.0,1.0,frame_06s.jpg,0.0,Red.png,6.0,103,1.213,,,,,,,,,,,,,,,,,
0.0,1.0,0.0,33.0,33.0,33.0,1.0,tube_top_03s.jpg,0.0,Orange.png,6.0,103,0.828,,,,,,,,,,,,,,,,,
1.0,1.0,0.0,34.0,34.0,34.0,1.0,bubble_01b.jpg,1.0,Yellow.png,6.0,103,0.689,,,,,,,,,,,,,,,,,
1.0,1.0,0.0,35.0,35.0,35.0,1.0,bubble_01b.jpg,1.0,Green.png,6.0,103,0.615,,,,,,,,,,,,,,,,,
,,,,,,,,0.0,,,103,,0.0,1.0,2.875,0.0,0.0,0.0,0.0,1.0,powder_07s.jpg,peanut_butter_08s.jpg,,,,,,,
,,,,,,,,0.0,,,103,,1.0,0.0,2.155,0.0,1.0,1.0,1.0,1.0,ivy_12s.jpg,popsicle_02s.jpg,,,,,,,
,,,,,,,,0.0,,,103,,1.0,0.0,1.869,0.0,2.0,2.0,2.0,1.0,megaphone_03s.jpg,lamppost_09s.jpg,,,,,,,
,,,,,,,,0.0,,,103,,1.0,0.0,1.196,0.0,3.0,3.0,3.0,1.0,footprint_11s.jpg,stump_02s.jpg,,,,,,,
,,,,,,,,1.0,,,103,,0.0,0.0,1.22,0.0,4.0,4.0,4.0,1.0,jet_15s.jpg,knitting_needle_04s.jpg,,,,,,,
,,,,,,,,1.0,,,103,,1.0,1.0,1.816,0.0,5.0,5.0,5.0,1.0,air_pump_05s.jpg,timer_03s.jpg,,,,,,,
,,,,,,,,,,,103,,,,,,,,,,,,0.0,0.0,0.0,0.0,1.0,newclockpresent_1_3.xlsx,newclock_compare_task_1_3.xlsx
0.0,1.0,0.0,0.0,0.0,0.0,1.0,mirror_12s.jpg,0.0,Blue.png,1.0,103,2.301,,,,,,,,,,,,,,,,,
0.0,1.0,0.0,1.0,1.0,1.0,1.0,rake_06s.jpg,0.0,Purple.png,1.0,103,1.066,,,,,,,,,,,,,,,,,
0.0,1.0,0.0,2.0,2.0,2.0,1.0,rhubarb_03s.jpg,0.0,Red.png,1.0,103,0.749,,,,,,,,,,,,,,,,,
1.0,1.0,0.0,3.0,3.0,3.0,1.0,mirror_12s.jpg,1.0,Orange.png,1.0,103,0.633,,,,,,,,,,,,,,,,,
0.0,1.0,0.0,4.0,4.0,4.0,1.0,tomato_sauce_09s.jpg,0.0,Yellow.png,1.0,103,0.758,,,,,,,,,,,,,,,,,
1.0,1.0,0.0,5.0,5.0,5.0,1.0,mirror_12s.jpg,1.0,Green.png,1.0,103,1.004,,,,,,,,,,,,,,,,,
0.0,1.0,0.0,6.0,6.0,6.0,1.0,medal_04s.jpg,0.0,Blue.png,2.0,103,1.208,,,,,,,,,,,,,,,,,
0.0,1.0,0.0,7.0,7.0,7.0,1.0,fountain_pen_06s.jpg,0.0,Purple.png,2.0,103,1.393,,,,,,,,,,,,,,,,,
0.0,1.0,0.0,8.0,8.0,8.0,1.0,rudder_02s.jpg,0.0,Red.png,2.0,103,1.016,,,,,,,,,,,,,,,,,
1.0,1.0,0.0,9.0,9.0,9.0,1.0,fountain_pen_06s.jpg,1.0,Orange.png,2.0,103,0.927,,,,,,,,,,,,,,,,,
1.0,1.0,0.0,10.0,10.0,10.0,1.0,medal_04s.jpg,1.0,Yellow.png,2.0,103,1.601,,,,,,,,,,,,,,,,,
0.0,1.0,0.0,11.0,11.0,11.0,1.0,owl_15s.jpg,0.0,Green.png,2.0,103,0.969,,,,,,,,,,,,,,,,,
0.0,1.0,0.0,12.0,12.0,12.0,1.0,swan_11s.jpg,0.0,Blue.png,3.0,103,1.131,,,,,,,,,,,,,,,,,
0.0,1.0,0.0,13.0,13.0,13.0,1.0,penguin_16s.jpg,0.0,Purple.png,3.0,103,1.136,,,,,,,,,,,,,,,,,
0.0,1.0,0.0,14.0,14.0,14.0,1.0,piano_13n.jpg,0.0,Red.png,3.0,103,0.798,,,,,,,,,,,,,,,,,
1.0,1.0,0.0,15.0,15.0,15.0,1.0,penguin_16s.jpg,1.0,Orange.png,3.0,103,1.021,,,,,,,,,,,,,,,,,
0.0,1.0,0.0,16.0,16.0,16.0,1.0,feather02.jpg,0.0,Yellow.png,3.0,103,1.053,,,,,,,,,,,,,,,,,
0.0,1.0,0.0,17.0,17.0,17.0,1.0,boar_10s.jpg,0.0,Green.png,3.0,103,1.7,,,,,,,,,,,,,,,,,
1.0,0.0,0.0,18.0,18.0,18.0,1.0,keyboard_05s.jpg,0.0,Blue.png,4.0,103,1.234,,,,,,,,,,,,,,,,,
0.0,1.0,0.0,19.0,19.0,19.0,1.0,gas_mask_11s.jpg,0.0,Purple.png,4.0,103,0.985,,,,,,,,,,,,,,,,,
0.0,1.0,0.0,20.0,20.0,20.0,1.0,pocketknife_12s.jpg,0.0,Red.png,4.0,103,1.03,,,,,,,,,,,,,,,,,
1.0,1.0,0.0,21.0,21.0,21.0,1.0,keyboard_05s.jpg,1.0,Orange.png,4.0,103,0.73,,,,,,,,,,,,,,,,,
0.0,1.0,0.0,22.0,22.0,22.0,1.0,roulette_wheel_04s.jpg,0.0,Yellow.png,4.0,103,0.798,,,,,,,,,,,,,,,,,
1.0,1.0,0.0,23.0,23.0,23.0,1.0,roulette_wheel_04s.jpg,1.0,Green.png,4.0,103,1.612,,,,,,,,,,,,,,,,,
1.0,0.0,0.0,24.0,24.0,24.0,1.0,keyboard_05s.jpg,0.0,Blue.png,5.0,103,0.757,,,,,,,,,,,,,,,,,
1.0,0.0,0.0,25.0,25.0,25.0,1.0,roulette_wheel_04s.jpg,0.0,Purple.png,5.0,103,1.016,,,,,,,,,,,,,,,,,
0.0,1.0,0.0,26.0,26.0,26.0,1.0,limousine_12s.jpg,0.0,Red.png,5.0,103,0.652,,,,,,,,,,,,,,,,,
0.0,1.0,0.0,27.0,27.0,27.0,1.0,tape_06s.jpg,0.0,Orange.png,5.0,103,1.575,,,,,,,,,,,,,,,,,
0.0,1.0,0.0,28.0,28.0,28.0,1.0,quesadilla_07s.jpg,0.0,Yellow.png,5.0,103,2.029,,,,,,,,,,,,,,,,,
0.0,1.0,0.0,29.0,29.0,29.0,1.0,breadstick_08s.jpg,0.0,Green.png,5.0,103,1.13,,,,,,,,,,,,,,,,,
0.0,1.0,0.0,30.0,30.0,30.0,1.0,sundae_08s.jpg,0.0,Blue.png,6.0,103,0.622,,,,,,,,,,,,,,,,,
0.0,1.0,0.0,31.0,31.0,31.0,1.0,sushi_08s.jpg,0.0,Purple.png,6.0,103,1.028,,,,,,,,,,,,,,,,,
1.0,0.0,0.0,32.0,32.0,32.0,1.0,abacus_12s.jpg,0.0,Red.png,6.0,103,0.905,,,,,,,,,,,,,,,,,
0.0,1.0,0.0,33.0,33.0,33.0,1.0,peppermint_07s.jpg,0.0,Orange.png,6.0,103,1.032,,,,,,,,,,,,,,,,,
0.0,1.0,0.0,34.0,34.0,34.0,1.0,marshmallow_08s.jpg,0.0,Yellow.png,6.0,103,1.195,,,,,,,,,,,,,,,,,
1.0,1.0,0.0,35.0,35.0,35.0,1.0,sundae_08s.jpg,1.0,Green.png,6.0,103,1.041,,,,,,,,,,,,,,,,,
,,,,,,,,1.0,,,103,,1.0,1.0,4.303,0.0,0.0,0.0,0.0,1.0,rudder_02s.jpg,owl_15s.jpg,,,,,,,
,,,,,,,,1.0,,,103,,0.0,0.0,1.344,0.0,1.0,1.0,1.0,1.0,boar_10s.jpg,pocketknife_12s.jpg,,,,,,,
,,,,,,,,1.0,,,103,,1.0,1.0,2.288,0.0,2.0,2.0,2.0,1.0,limousine_12s.jpg,breadstick_08s.jpg,,,,,,,
,,,,,,,,0.0,,,103,,1.0,0.0,1.145,0.0,3.0,3.0,3.0,1.0,sushi_08s.jpg,quesadilla_07s.jpg,,,,,,,
,,,,,,,,1.0,,,103,,0.0,0.0,1.425,0.0,4.0,4.0,4.0,1.0,feather02.jpg,gas_mask_11s.jpg,,,,,,,
,,,,,,,,0.0,,,103,,1.0,0.0,1.158,0.0,5.0,5.0,5.0,1.0,tomato_sauce_09s.jpg,rake_06s.jpg,,,,,,,
,,,,,,,,,,,103,,,,,,,,,,,,0.0,1.0,1.0,1.0,1.0,newclockpresent_2_3.xlsx,newclock_compare_task_2_3.xlsx
0.0,1.0,0.0,0.0,0.0,0.0,1.0,lip_gloss_06s.jpg,0.0,Blue.png,1.0,103,1.35,,,,,,,,,,,,,,,,,
1.0,1.0,0.0,1.0,1.0,1.0,1.0,lip_gloss_06s.jpg,1.0,Purple.png,1.0,103,1.432,,,,,,,,,,,,,,,,,
0.0,1.0,0.0,2.0,2.0,2.0,1.0,memory_stick_11s.jpg,0.0,Red.png,1.0,103,1.147,,,,,,,,,,,,,,,,,
0.0,1.0,0.0,3.0,3.0,3.0,1.0,torch_02s.jpg,0.0,Orange.png,1.0,103,0.815,,,,,,,,,,,,,,,,,
1.0,1.0,0.0,4.0,4.0,4.0,1.0,lip_gloss_06s.jpg,1.0,Yellow.png,1.0,103,2.339,,,,,,,,,,,,,,,,,
0.0,1.0,0.0,5.0,5.0,5.0,1.0,triangle_10s.jpg,0.0,Green.png,1.0,103,1.415,,,,,,,,,,,,,,,,,
1.0,0.0,0.0,6.0,6.0,6.0,1.0,lip_gloss_06s.jpg,0.0,Blue.png,2.0,103,1.001,,,,,,,,,,,,,,,,,
1.0,1.0,0.0,7.0,7.0,7.0,1.0,lip_gloss_06s.jpg,1.0,Purple.png,2.0,103,0.683,,,,,,,,,,,,,,,,,
0.0,1.0,0.0,8.0,8.0,8.0,1.0,prism_10s.jpg,0.0,Red.png,2.0,103,0.862,,,,,,,,,,,,,,,,,
0.0,1.0,0.0,9.0,9.0,9.0,1.0,soccer_ball_12s.jpg,0.0,Orange.png,2.0,103,0.917,,,,,,,,,,,,,,,,,
1.0,1.0,0.0,10.0,10.0,10.0,1.0,lip_gloss_06s.jpg,1.0,Yellow.png,2.0,103,0.892,,,,,,,,,,,,,,,,,
0.0,1.0,0.0,11.0,11.0,11.0,1.0,petri_dish_12s.jpg,0.0,Green.png,2.0,103,0.838,,,,,,,,,,,,,,,,,
0.0,1.0,0.0,12.0,12.0,12.0,1.0,crystal_ball_12s.jpg,0.0,Blue.png,3.0,103,0.809,,,,,,,,,,,,,,,,,
0.0,1.0,0.0,13.0,13.0,13.0,1.0,trampoline_13s.jpg,0.0,Purple.png,3.0,103,0.804,,,,,,,,,,,,,,,,,
0.0,1.0,0.0,14.0,14.0,14.0,1.0,joystick_01b.jpg,0.0,Red.png,3.0,103,0.917,,,,,,,,,,,,,,,,,
1.0,1.0,0.0,15.0,15.0,15.0,1.0,trampoline_13s.jpg,1.0,Orange.png,3.0,103,0.884,,,,,,,,,,,,,,,,,
0.0,1.0,0.0,16.0,16.0,16.0,1.0,sparkler_02s.jpg,0.0,Yellow.png,3.0,103,1.24,,,,,,,,,,,,,,,,,
0.0,1.0,0.0,17.0,17.0,17.0,1.0,kayak_08s.jpg,0.0,Green.png,3.0,103,1.382,,,,,,,,,,,,,,,,,
0.0,1.0,0.0,18.0,18.0,18.0,1.0,foam_03s.jpg,0.0,Blue.png,4.0,103,1.694,,,,,,,,,,,,,,,,,
0.0,1.0,0.0,19.0,19.0,19.0,1.0,dirt_bike_11s.jpg,0.0,Purple.png,4.0,103,1.437,,,,,,,,,,,,,,,,,
0.0,1.0,0.0,20.0,20.0,20.0,1.0,tortilla_06s.jpg,0.0,Red.png,4.0,103,0.925,,,,,,,,,,,,,,,,,
1.0,1.0,0.0,21.0,21.0,21.0,1.0,dirt_bike_11s.jpg,1.0,Orange.png,4.0,103,1.722,,,,,,,,,,,,,,,,,
0.0,1.0,0.0,22.0,22.0,22.0,1.0,otter_05s.jpg,0.0,Yellow.png,4.0,103,2.389,,,,,,,,,,,,,,,,,
0.0,1.0,0.0,23.0,23.0,23.0,1.0,playpen_11s.jpg,0.0,Green.png,4.0,103,2.059,,,,,,,,,,,,,,,,,
0.0,1.0,0.0,24.0,24.0,24.0,1.0,pear_02s.jpg,0.0,Blue.png,5.0,103,2.127,,,,,,,,,,,,,,,,,
0.0,1.0,0.0,25.0,25.0,25.0,1.0,omelet_07s.jpg,0.0,Purple.png,5.0,103,2.286,,,,,,,,,,,,,,,,,
0.0,1.0,0.0,26.0,26.0,26.0,1.0,camcorder_10s.jpg,0.0,Red.png,5.0,103,1.367,,,,,,,,,,,,,,,,,
1.0,1.0,0.0,27.0,27.0,27.0,1.0,omelet_07s.jpg,1.0,Orange.png,5.0,103,1.937,,,,,,,,,,,,,,,,,
0.0,1.0,0.0,28.0,28.0,28.0,1.0,possum_09s.jpg,0.0,Yellow.png,5.0,103,0.924,,,,,,,,,,,,,,,,,
1.0,1.0,0.0,29.0,29.0,29.0,1.0,omelet_07s.jpg,1.0,Green.png,5.0,103,0.959,,,,,,,,,,,,,,,,,
0.0,1.0,0.0,30.0,30.0,30.0,1.0,plaster_cast_13s.jpg,0.0,Blue.png,6.0,103,1.266,,,,,,,,,,,,,,,,,
0.0,1.0,0.0,31.0,31.0,31.0,1.0,ram_05s.jpg,0.0,Purple.png,6.0,103,2.195,,,,,,,,,,,,,,,,,
0.0,1.0,0.0,32.0,32.0,32.0,1.0,plug_08s.jpg,0.0,Red.png,6.0,103,1.172,,,,,,,,,,,,,,,,,
0.0,0.0,0.0,33.0,33.0,33.0,1.0,plaster_cast_13s.jpg,1.0,Orange.png,6.0,103,1.732,,,,,,,,,,,,,,,,,
0.0,1.0,0.0,34.0,34.0,34.0,1.0,lavender_10s.jpg,0.0,Yellow.png,6.0,103,1.282,,,,,,,,,,,,,,,,,
1.0,1.0,0.0,35.0,35.0,35.0,1.0,plug_08s.jpg,1.0,Green.png,6.0,103,1.037,,,,,,,,,,,,,,,,,
,,,,,,,,1.0,,,103,,1.0,1.0,1.61,0.0,0.0,0.0,0.0,1.0,playpen_11s.jpg,camcorder_10s.jpg,,,,,,,
,,,,,,,,0.0,,,103,,1.0,0.0,2.086,0.0,1.0,1.0,1.0,1.0,kayak_08s.jpg,joystick_01b.jpg,,,,,,,
,,,,,,,,1.0,,,103,,0.0,0.0,1.148,0.0,2.0,2.0,2.0,1.0,possum_09s.jpg,ram_05s.jpg,,,,,,,
,,,,,,,,1.0,,,103,,0.0,0.0,2.597,0.0,3.0,3.0,3.0,1.0,soccer_ball_12s.jpg,crystal_ball_12s.jpg,,,,,,,
,,,,,,,,1.0,,,103,,1.0,1.0,1.378,0.0,4.0,4.0,4.0,1.0,memory_stick_11s.jpg,triangle_10s.jpg,,,,,,,
,,,,,,,,0.0,,,103,,0.0,1.0,0.796,0.0,5.0,5.0,5.0,1.0,petri_dish_12s.jpg,prism_10s.jpg,,,,,,,
,,,,,,,,,,,103,,,,,,,,,,,,0.0,2.0,2.0,2.0,1.0,newclockpresent_3_3.xlsx,newclock_compare_task_3_3.xlsx
0.0,1.0,0.0,0.0,0.0,0.0,1.0,towel_rack_04s.jpg,0.0,Blue.png,1.0,103,1.201,,,,,,,,,,,,,,,,,
0.0,1.0,0.0,1.0,1.0,1.0,1.0,iron_13s.jpg,0.0,Purple.png,1.0,103,0.707,,,,,,,,,,,,,,,,,
1.0,1.0,0.0,2.0,2.0,2.0,1.0,iron_13s.jpg,1.0,Red.png,1.0,103,0.62,,,,,,,,,,,,,,,,,
0.0,1.0,0.0,3.0,3.0,3.0,1.0,icemaker_10s.jpg,0.0,Orange.png,1.0,103,1.232,,,,,,,,,,,,,,,,,
0.0,1.0,0.0,4.0,4.0,4.0,1.0,teacup_07s.jpg,0.0,Yellow.png,1.0,103,0.772,,,,,,,,,,,,,,,,,
1.0,1.0,0.0,5.0,5.0,5.0,1.0,iron_13s.jpg,1.0,Green.png,1.0,103,2.448,,,,,,,,,,,,,,,,,
1.0,0.0,0.0,6.0,6.0,6.0,1.0,teacup_07s.jpg,0.0,Blue.png,2.0,103,1.006,,,,,,,,,,,,,,,,,
1.0,0.0,0.0,7.0,7.0,7.0,1.0,iron_13s.jpg,0.0,Purple.png,2.0,103,1.12,,,,,,,,,,,,,,,,,
1.0,1.0,0.0,8.0,8.0,8.0,1.0,teacup_07s.jpg,1.0,Red.png,2.0,103,1.079,,,,,,,,,,,,,,,,,
0.0,1.0,0.0,9.0,9.0,9.0,1.0,pincushion_10s.jpg,0.0,Orange.png,2.0,103,1.901,,,,,,,,,,,,,,,,,
1.0,1.0,0.0,10.0,10.0,10.0,1.0,teacup_07s.jpg,1.0,Yellow.png,2.0,103,1.519,,,,,,,,,,,,,,,,,
0.0,1.0,0.0,11.0,11.0,11.0,1.0,lamb_04s.jpg,0.0,Green.png,2.0,103,1.54,,,,,,,,,,,,,,,,,
,0.0,0.0,12.0,12.0,12.0,1.0,blowfish_03s.jpg,0.0,Blue.png,3.0,103,,,,,,,,,,,,,,,,,,
0.0,1.0,0.0,13.0,13.0,13.0,1.0,gear_07s.jpg,0.0,Purple.png,3.0,103,1.804,,,,,,,,,,,,,,,,,
0.0,1.0,0.0,14.0,14.0,14.0,1.0,rug_09s.jpg,0.0,Red.png,3.0,103,1.534,,,,,,,,,,,,,,,,,
,0.0,0.0,15.0,15.0,15.0,1.0,gear_07s.jpg,1.0,Orange.png,3.0,103,,,,,,,,,,,,,,,,,,
0.0,1.0,0.0,16.0,16.0,16.0,1.0,binder_21s.jpg,0.0,Yellow.png,3.0,103,1.403,,,,,,,,,,,,,,,,,
,0.0,0.0,17.0,17.0,17.0,1.0,bacon_05s.jpg,0.0,Green.png,3.0,103,,,,,,,,,,,,,,,,,,
,0.0,0.0,18.0,18.0,18.0,1.0,rocking_horse_03s.jpg,0.0,Blue.png,4.0,103,,,,,,,,,,,,,,,,,,
1.0,0.0,0.0,19.0,19.0,19.0,1.0,bacon_05s.jpg,0.0,Purple.png,4.0,103,1.234,,,,,,,,,,,,,,,,,
0.0,1.0,0.0,20.0,20.0,20.0,1.0,perfume_06s.jpg,0.0,Red.png,4.0,103,1.683,,,,,,,,,,,,,,,,,
,0.0,0.0,21.0,21.0,21.0,1.0,raccoon_02s.jpg,0.0,Orange.png,4.0,103,,,,,,,,,,,,,,,,,,
0.0,1.0,0.0,22.0,22.0,22.0,1.0,mixer_12s.jpg,0.0,Yellow.png,4.0,103,1.316,,,,,,,,,,,,,,,,,
0.0,1.0,0.0,23.0,23.0,23.0,1.0,slingshot_07s.jpg,0.0,Green.png,4.0,103,0.981,,,,,,,,,,,,,,,,,
0.0,1.0,0.0,24.0,24.0,24.0,1.0,smokingpipe.jpg,0.0,Blue.png,5.0,103,1.418,,,,,,,,,,,,,,,,,
0.0,1.0,0.0,25.0,25.0,25.0,1.0,film_03s.jpg,0.0,Purple.png,5.0,103,1.192,,,,,,,,,,,,,,,,,
1.0,1.0,0.0,26.0,26.0,26.0,1.0,film_03s.jpg,1.0,Red.png,5.0,103,0.998,,,,,,,,,,,,,,,,,
1.0,1.0,0.0,27.0,27.0,27.0,1.0,film_03s.jpg,1.0,Orange.png,5.0,103,0.671,,,,,,,,,,,,,,,,,
1.0,1.0,0.0,28.0,28.0,28.0,1.0,film_03s.jpg,1.0,Yellow.png,5.0,103,0.72,,,,,,,,,,,,,,,,,
0.0,1.0,0.0,29.0,29.0,29.0,1.0,insole_11s.jpg,0.0,Green.png,5.0,103,0.889,,,,,,,,,,,,,,,,,
,0.0,0.0,30.0,30.0,30.0,1.0,soda_fountain_03s.jpg,0.0,Blue.png,6.0,103,,,,,,,,,,,,,,,,,,
1.0,1.0,0.0,31.0,31.0,31.0,1.0,soda_fountain_03s.jpg,1.0,Purple.png,6.0,103,1.306,,,,,,,,,,,,,,,,,
0.0,1.0,0.0,32.0,32.0,32.0,1.0,coconut_08s.jpg,0.0,Red.png,6.0,103,1.444,,,,,,,,,,,,,,,,,
0.0,1.0,0.0,33.0,33.0,33.0,1.0,hydrant_10s.jpg,0.0,Orange.png,6.0,103,0.936,,,,,,,,,,,,,,,,,
1.0,1.0,0.0,34.0,34.0,34.0,1.0,hydrant_10s.jpg,1.0,Yellow.png,6.0,103,0.915,,,,,,,,,,,,,,,,,
1.0,1.0,0.0,35.0,35.0,35.0,1.0,hydrant_10s.jpg,1.0,Green.png,6.0,103,0.907,,,,,,,,,,,,,,,,,
,,,,,,,,0.0,,,103,,0.0,1.0,3.991,0.0,0.0,0.0,0.0,1.0,slingshot_07s.jpg,perfume_06s.jpg,,,,,,,
,,,,,,,,0.0,,,103,,1.0,0.0,2.361,0.0,1.0,1.0,1.0,1.0,blowfish_03s.jpg,pincushion_10s.jpg,,,,,,,
,,,,,,,,0.0,,,103,,0.0,1.0,1.681,0.0,2.0,2.0,2.0,1.0,rug_09s.jpg,lamb_04s.jpg,,,,,,,
,,,,,,,,1.0,,,103,,1.0,1.0,1.246,0.0,3.0,3.0,3.0,1.0,insole_11s.jpg,coconut_08s.jpg,,,,,,,
,,,,,,,,0.0,,,103,,1.0,0.0,1.545,0.0,4.0,4.0,4.0,1.0,icemaker_10s.jpg,towel_rack_04s.jpg,,,,,,,
,,,,,,,,0.0,,,103,,1.0,0.0,1.449,0.0,5.0,5.0,5.0,1.0,raccoon_02s.jpg,rocking_horse_03s.jpg,,,,,,,
,,,,,,,,,,,103,,,,,,,,,,,,0.0,3.0,3.0,3.0,1.0,newclockpresent_4_3.xlsx,newclock_compare_task_4_3.xlsx
0.0,1.0,0.0,0.0,0.0,0.0,1.0,birthday_cake_09s.jpg,0.0,Blue.png,1.0,103,1.607,,,,,,,,,,,,,,,,,
0.0,1.0,0.0,1.0,1.0,1.0,1.0,laser_pointer_02s.jpg,0.0,Purple.png,1.0,103,1.266,,,,,,,,,,,,,,,,,
0.0,1.0,0.0,2.0,2.0,2.0,1.0,amber_04s.jpg,0.0,Red.png,1.0,103,1.689,,,,,,,,,,,,,,,,,
0.0,0.0,0.0,3.0,3.0,3.0,1.0,amber_04s.jpg,1.0,Orange.png,1.0,103,0.632,,,,,,,,,,,,,,,,,
1.0,1.0,0.0,4.0,4.0,4.0,1.0,amber_04s.jpg,1.0,Yellow.png,1.0,103,0.621,,,,,,,,,,,,,,,,,
1.0,1.0,0.0,5.0,5.0,5.0,1.0,amber_04s.jpg,1.0,Green.png,1.0,103,0.8,,,,,,,,,,,,,,,,,
0.0,1.0,0.0,6.0,6.0,6.0,1.0,mask_09s.jpg,0.0,Blue.png,2.0,103,0.742,,,,,,,,,,,,,,,,,
1.0,1.0,0.0,7.0,7.0,7.0,1.0,mask_09s.jpg,1.0,Purple.png,2.0,103,1.322,,,,,,,,,,,,,,,,,
1.0,0.0,0.0,8.0,8.0,8.0,1.0,amber_04s.jpg,0.0,Red.png,2.0,103,1.142,,,,,,,,,,,,,,,,,
0.0,1.0,0.0,9.0,9.0,9.0,1.0,swordfish_05s.jpg,0.0,Orange.png,2.0,103,1.22,,,,,,,,,,,,,,,,,
0.0,1.0,0.0,10.0,10.0,10.0,1.0,beard_16s.jpg,0.0,Yellow.png,2.0,103,2.005,,,,,,,,,,,,,,,,,
1.0,1.0,0.0,11.0,11.0,11.0,1.0,swordfish_05s.jpg,1.0,Green.png,2.0,103,1.255,,,,,,,,,,,,,,,,,
1.0,0.0,0.0,12.0,12.0,12.0,1.0,amber_04s.jpg,0.0,Blue.png,3.0,103,0.869,,,,,,,,,,,,,,,,,
0.0,1.0,0.0,13.0,13.0,13.0,1.0,rope_16s.jpg,0.0,Purple.png,3.0,103,0.81,,,,,,,,,,,,,,,,,
0.0,1.0,0.0,14.0,14.0,14.0,1.0,swing_set_15s.jpg,0.0,Red.png,3.0,103,2.071,,,,,,,,,,,,,,,,,
0.0,1.0,0.0,15.0,15.0,15.0,1.0,totem_pole_05s.jpg,0.0,Orange.png,3.0,103,2.396,,,,,,,,,,,,,,,,,
0.0,1.0,0.0,16.0,16.0,16.0,1.0,beaker_01b.jpg,0.0,Yellow.png,3.0,103,0.731,,,,,,,,,,,,,,,,,
0.0,1.0,0.0,17.0,17.0,17.0,1.0,ostrich_06s.jpg,0.0,Green.png,3.0,103,0.973,,,,,,,,,,,,,,,,,
1.0,0.0,0.0,18.0,18.0,18.0,1.0,ostrich_06s.jpg,0.0,Blue.png,4.0,103,1.14,,,,,,,,,,,,,,,,,
,0.0,0.0,19.0,19.0,19.0,1.0,syringe_02s.jpg,0.0,Purple.png,4.0,103,,,,,,,,,,,,,,,,,,
0.0,1.0,0.0,20.0,20.0,20.0,1.0,mold2_04s.jpg,0.0,Red.png,4.0,103,1.682,,,,,,,,,,,,,,,,,
0.0,0.0,0.0,21.0,21.0,21.0,1.0,ostrich_06s.jpg,1.0,Orange.png,4.0,103,1.96,,,,,,,,,,,,,,,,,
1.0,0.0,0.0,22.0,22.0,22.0,1.0,mousetrap_15n.jpg,0.0,Yellow.png,4.0,103,2.198,,,,,,,,,,,,,,,,,
0.0,1.0,0.0,23.0,23.0,23.0,1.0,paper_towel_03s.jpg,0.0,Green.png,4.0,103,1.016,,,,,,,,,,,,,,,,,
1.0,0.0,0.0,24.0,24.0,24.0,1.0,swordfish_05s.jpg,0.0,Blue.png,5.0,103,1.101,,,,,,,,,,,,,,,,,
0.0,1.0,0.0,25.0,25.0,25.0,1.0,pump_11s.jpg,0.0,Purple.png,5.0,103,1.339,,,,,,,,,,,,,,,,,
1.0,1.0,0.0,26.0,26.0,26.0,1.0,swordfish_05s.jpg,1.0,Red.png,5.0,103,1.139,,,,,,,,,,,,,,,,,
1.0,1.0,0.0,27.0,27.0,27.0,1.0,swordfish_05s.jpg,1.0,Orange.png,5.0,103,0.621,,,,,,,,,,,,,,,,,
1.0,1.0,0.0,28.0,28.0,28.0,1.0,pump_11s.jpg,1.0,Yellow.png,5.0,103,0.821,,,,,,,,,,,,,,,,,
0.0,1.0,0.0,29.0,29.0,29.0,1.0,pepper2_21s.jpg,0.0,Green.png,5.0,103,1.218,,,,,,,,,,,,,,,,,
0.0,1.0,0.0,30.0,30.0,30.0,1.0,champagne_18s.jpg,0.0,Blue.png,6.0,103,1.255,,,,,,,,,,,,,,,,,
0.0,1.0,0.0,31.0,31.0,31.0,1.0,piggy_bank_02s.jpg,0.0,Purple.png,6.0,103,1.049,,,,,,,,,,,,,,,,,
0.0,1.0,0.0,32.0,32.0,32.0,1.0,fondue_07s.jpg,0.0,Red.png,6.0,103,1.548,,,,,,,,,,,,,,,,,
1.0,0.0,0.0,33.0,33.0,33.0,1.0,metronome_03s.jpg,0.0,Orange.png,6.0,103,1.907,,,,,,,,,,,,,,,,,
0.0,1.0,0.0,34.0,34.0,34.0,1.0,butter_14s.jpg,0.0,Yellow.png,6.0,103,0.786,,,,,,,,,,,,,,,,,
0.0,1.0,0.0,35.0,35.0,35.0,1.0,submarine_11n.jpg,0.0,Green.png,6.0,103,2.385,,,,,,,,,,,,,,,,,
,,,,,,,,1.0,,,103,,1.0,1.0,1.233,0.0,0.0,0.0,0.0,1.0,beard_16s.jpg,rope_16s.jpg,,,,,,,
,,,,,,,,0.0,,,103,,0.0,1.0,1.961,0.0,1.0,1.0,1.0,1.0,fondue_07s.jpg,pepper2_21s.jpg,,,,,,,
,,,,,,,,0.0,,,103,,1.0,0.0,1.776,0.0,2.0,2.0,2.0,1.0,metronome_03s.jpg,champagne_18s.jpg,,,,,,,
,,,,,,,,1.0,,,103,,1.0,1.0,2.056,0.0,3.0,3.0,3.0,1.0,beaker_01b.jpg,syringe_02s.jpg,,,,,,,
,,,,,,,,1.0,,,103,,1.0,1.0,0.8,0.0,4.0,4.0,4.0,1.0,mold2_04s.jpg,paper_towel_03s.jpg,,,,,,,
,,,,,,,,0.0,,,103,,0.0,1.0,0.618,0.0,5.0,5.0,5.0,1.0,butter_14s.jpg,piggy_bank_02s.jpg,,,,,,,
,,,,,,,,,,,103,,,,,,,,,,,,0.0,4.0,4.0,4.0,1.0,newclockpresent_5_3.xlsx,newclock_compare_task_5_3.xlsx
0.0,1.0,0.0,0.0,0.0,0.0,1.0,teabag_12s.jpg,0.0,Blue.png,1.0,103,1.878,,,,,,,,,,,,,,,,,
1.0,1.0,0.0,1.0,1.0,1.0,1.0,teabag_12s.jpg,1.0,Purple.png,1.0,103,0.691,,,,,,,,,,,,,,,,,
0.0,1.0,0.0,2.0,2.0,2.0,1.0,cereal_04s.jpg,0.0,Red.png,1.0,103,1.292,,,,,,,,,,,,,,,,,
0.0,1.0,0.0,3.0,3.0,3.0,1.0,pocket_watch_16s.jpg,0.0,Orange.png,1.0,103,1.085,,,,,,,,,,,,,,,,,
0.0,1.0,0.0,4.0,4.0,4.0,1.0,cucumber_07s.jpg,0.0,Yellow.png,1.0,103,0.824,,,,,,,,,,,,,,,,,
1.0,1.0,0.0,5.0,5.0,5.0,1.0,teabag_12s.jpg,1.0,Green.png,1.0,103,0.805,,,,,,,,,,,,,,,,,
0.0,1.0,0.0,6.0,6.0,6.0,1.0,recliner_02s.jpg,0.0,Blue.png,2.0,103,1.028,,,,,,,,,,,,,,,,,
0.0,1.0,0.0,7.0,7.0,7.0,1.0,tupperware_09s.jpg,0.0,Purple.png,2.0,103,1.536,,,,,,,,,,,,,,,,,
0.0,1.0,0.0,8.0,8.0,8.0,1.0,ticktacktoe_08s.jpg,0.0,Red.png,2.0,103,0.825,,,,,,,,,,,,,,,,,
0.0,1.0,0.0,9.0,9.0,9.0,1.0,peach_04s.jpg,0.0,Orange.png,2.0,103,1.285,,,,,,,,,,,,,,,,,
0.0,1.0,0.0,10.0,10.0,10.0,1.0,taxi_15s.jpg,0.0,Yellow.png,2.0,103,0.774,,,,,,,,,,,,,,,,,
1.0,1.0,0.0,11.0,11.0,11.0,1.0,peach_04s.jpg,1.0,Green.png,2.0,103,1.17,,,,,,,,,,,,,,,,,
0.0,1.0,0.0,12.0,12.0,12.0,1.0,letter_opener_03s.jpg,0.0,Blue.png,3.0,103,0.821,,,,,,,,,,,,,,,,,
1.0,1.0,0.0,13.0,13.0,13.0,1.0,letter_opener_03s.jpg,1.0,Purple.png,3.0,103,0.873,,,,,,,,,,,,,,,,,
1.0,1.0,0.0,14.0,14.0,14.0,1.0,letter_opener_03s.jpg,1.0,Red.png,3.0,103,1.093,,,,,,,,,,,,,,,,,
0.0,1.0,0.0,15.0,15.0,15.0,1.0,latte_06s.jpg,0.0,Orange.png,3.0,103,0.836,,,,,,,,,,,,,,,,,
1.0,1.0,0.0,16.0,16.0,16.0,1.0,letter_opener_03s.jpg,1.0,Yellow.png,3.0,103,1.18,,,,,,,,,,,,,,,,,
,0.0,0.0,17.0,17.0,17.0,1.0,icicle_04s.jpg,0.0,Green.png,3.0,103,,,,,,,,,,,,,,,,,,
0.0,1.0,0.0,18.0,18.0,18.0,1.0,taxi_15s.jpg,0.0,Blue.png,4.0,103,1.269,,,,,,,,,,,,,,,,,
0.0,1.0,0.0,19.0,19.0,19.0,1.0,chopsticks_08s.jpg,0.0,Purple.png,4.0,103,1.87,,,,,,,,,,,,,,,,,
0.0,1.0,0.0,20.0,20.0,20.0,1.0,doily_13s.jpg,0.0,Red.png,4.0,103,0.94,,,,,,,,,,,,,,,,,
0.0,1.0,0.0,21.0,21.0,21.0,1.0,pretzel_09s.jpg,0.0,Orange.png,4.0,103,1.784,,,,,,,,,,,,,,,,,
0.0,1.0,0.0,22.0,22.0,22.0,1.0,tie_03s.jpg,0.0,Yellow.png,4.0,103,1.44,,,,,,,,,,,,,,,,,
0.0,1.0,0.0,23.0,23.0,23.0,1.0,pepper_mill_03s.jpg,0.0,Green.png,4.0,103,2.137,,,,,,,,,,,,,,,,,
0.0,1.0,0.0,24.0,24.0,24.0,1.0,bee_20s.jpg,0.0,Blue.png,5.0,103,1.928,,,,,,,,,,,,,,,,,
0.0,1.0,0.0,25.0,25.0,25.0,1.0,pepper_mill_03s.jpg,0.0,Purple.png,5.0,103,1.185,,,,,,,,,,,,,,,,,
,0.0,0.0,26.0,26.0,26.0,1.0,bee_20s.jpg,1.0,Red.png,5.0,103,,,,,,,,,,,,,,,,,,
0.0,1.0,0.0,27.0,27.0,27.0,1.0,tinsel_12s.jpg,0.0,Orange.png,5.0,103,0.905,,,,,,,,,,,,,,,,,
0.0,1.0,0.0,28.0,28.0,28.0,1.0,fireworks_18s.jpg,0.0,Yellow.png,5.0,103,1.204,,,,,,,,,,,,,,,,,
0.0,1.0,0.0,29.0,29.0,29.0,1.0,key_07s.jpg,0.0,Green.png,5.0,103,1.915,,,,,,,,,,,,,,,,,
0.0,1.0,0.0,30.0,30.0,30.0,1.0,frog_09s.jpg,0.0,Blue.png,6.0,103,1.722,,,,,,,,,,,,,,,,,
1.0,0.0,0.0,31.0,31.0,31.0,1.0,key_07s.jpg,0.0,Purple.png,6.0,103,1.338,,,,,,,,,,,,,,,,,
0.0,1.0,0.0,32.0,32.0,32.0,1.0,rolling_pin_02s.jpg,0.0,Red.png,6.0,103,1.959,,,,,,,,,,,,,,,,,
,0.0,0.0,33.0,33.0,33.0,1.0,coral_08s.jpg,0.0,Orange.png,6.0,103,,,,,,,,,,,,,,,,,,
1.0,1.0,0.0,34.0,34.0,34.0,1.0,key_07s.jpg,1.0,Yellow.png,6.0,103,1.07,,,,,,,,,,,,,,,,,
0.0,1.0,0.0,35.0,35.0,35.0,1.0,margarita_03s.jpg,0.0,Green.png,6.0,103,1.421,,,,,,,,,,,,,,,,,
,,,,,,,,0.0,,,103,,1.0,0.0,1.911,0.0,0.0,0.0,0.0,1.0,recliner_02s.jpg,pocket_watch_16s.jpg,,,,,,,
,,,,,,,,0.0,,,103,,0.0,1.0,1.862,0.0,1.0,1.0,1.0,1.0,tie_03s.jpg,chopsticks_08s.jpg,,,,,,,
,,,,,,,,1.0,,,103,,0.0,0.0,1.825,0.0,2.0,2.0,2.0,1.0,icicle_04s.jpg,doily_13s.jpg,,,,,,,
,,,,,,,,1.0,,,103,,1.0,1.0,1.312,0.0,3.0,3.0,3.0,1.0,rolling_pin_02s.jpg,margarita_03s.jpg,,,,,,,
,,,,,,,,1.0,,,103,,1.0,1.0,0.891,0.0,4.0,4.0,4.0,1.0,cucumber_07s.jpg,tupperware_09s.jpg,,,,,,,
,,,,,,,,0.0,,,103,,0.0,1.0,0.509,0.0,5.0,5.0,5.0,1.0,coral_08s.jpg,frog_09s.jpg,,,,,,,
,,,,,,,,,,,103,,,,,,,,,,,,0.0,5.0,5.0,5.0,1.0,newclockpresent_6_3.xlsx,newclock_compare_task_6_3.xlsx
0.0,1.0,0.0,0.0,0.0,0.0,1.0,polar_bear_02s.jpg,0.0,Blue.png,1.0,103,1.3,,,,,,,,,,,,,,,,,
0.0,1.0,0.0,1.0,1.0,1.0,1.0,screwdriver02a.jpg,0.0,Purple.png,1.0,103,0.961,,,,,,,,,,,,,,,,,
1.0,1.0,0.0,2.0,2.0,2.0,1.0,screwdriver02a.jpg,1.0,Red.png,1.0,103,0.802,,,,,,,,,,,,,,,,,
0.0,1.0,0.0,3.0,3.0,3.0,1.0,phone_01b.jpg,0.0,Orange.png,1.0,103,1.862,,,,,,,,,,,,,,,,,
0.0,1.0,0.0,4.0,4.0,4.0,1.0,eyedropper_12s.jpg,0.0,Yellow.png,1.0,103,0.881,,,,,,,,,,,,,,,,,
0.0,1.0,0.0,5.0,5.0,5.0,1.0,mailbox_11s.jpg,0.0,Green.png,1.0,103,0.882,,,,,,,,,,,,,,,,,
0.0,1.0,0.0,6.0,6.0,6.0,1.0,mascara_03s.jpg,0.0,Blue.png,2.0,103,1.395,,,,,,,,,,,,,,,,,
1.0,0.0,0.0,7.0,7.0,7.0,1.0,mailbox_11s.jpg,0.0,Purple.png,2.0,103,0.894,,,,,,,,,,,,,,,,,
0.0,1.0,0.0,8.0,8.0,8.0,1.0,eiffeltower.jpg,0.0,Red.png,2.0,103,0.956,,,,,,,,,,,,,,,,,
0.0,1.0,0.0,9.0,9.0,9.0,1.0,bagel_15s.jpg,0.0,Orange.png,2.0,103,1.62,,,,,,,,,,,,,,,,,
0.0,1.0,0.0,10.0,10.0,10.0,1.0,thumbtack_14s.jpg,0.0,Yellow.png,2.0,103,2.401,,,,,,,,,,,,,,,,,
0.0,1.0,0.0,11.0,11.0,11.0,1.0,checkbook_11s.jpg,0.0,Green.png,2.0,103,1.385,,,,,,,,,,,,,,,,,
0.0,1.0,0.0,12.0,12.0,12.0,1.0,phone_01b.jpg,0.0,Blue.png,3.0,103,2.115,,,,,,,,,,,,,,,,,
0.0,1.0,0.0,13.0,13.0,13.0,1.0,crossbow_10s.jpg,0.0,Purple.png,3.0,103,1.514,,,,,,,,,,,,,,,,,
0.0,1.0,0.0,14.0,14.0,14.0,1.0,fire_pit_10s.jpg,0.0,Red.png,3.0,103,0.859,,,,,,,,,,,,,,,,,
1.0,1.0,0.0,15.0,15.0,15.0,1.0,phone_01b.jpg,1.0,Orange.png,3.0,103,0.804,,,,,,,,,,,,,,,,,
,0.0,0.0,16.0,16.0,16.0,1.0,basket_05s.jpg,0.0,Yellow.png,3.0,103,,,,,,,,,,,,,,,,,,
0.0,1.0,0.0,17.0,17.0,17.0,1.0,tablet_04s.jpg,0.0,Green.png,3.0,103,0.874,,,,,,,,,,,,,,,,,
1.0,0.0,0.0,18.0,18.0,18.0,1.0,eyedropper_12s.jpg,0.0,Blue.png,4.0,103,1.404,,,,,,,,,,,,,,,,,
0.0,1.0,0.0,19.0,19.0,19.0,1.0,milk_02s.jpg,0.0,Purple.png,4.0,103,1.158,,,,,,,,,,,,,,,,,
0.0,1.0,0.0,20.0,20.0,20.0,1.0,pomegranate_04s.jpg,0.0,Red.png,4.0,103,1.723,,,,,,,,,,,,,,,,,
0.0,1.0,0.0,21.0,21.0,21.0,1.0,mug_06s.jpg,0.0,Orange.png,4.0,103,0.811,,,,,,,,,,,,,,,,,
1.0,1.0,0.0,22.0,22.0,22.0,1.0,eyedropper_12s.jpg,1.0,Yellow.png,4.0,103,0.931,,,,,,,,,,,,,,,,,
0.0,1.0,0.0,23.0,23.0,23.0,1.0,laundry_basket_11s.jpg,0.0,Green.png,4.0,103,1.569,,,,,,,,,,,,,,,,,
1.0,0.0,0.0,24.0,24.0,24.0,1.0,eyedropper_12s.jpg,0.0,Blue.png,5.0,103,1.17,,,,,,,,,,,,,,,,,
0.0,1.0,0.0,25.0,25.0,25.0,1.0,laundry_basket_11s.jpg,0.0,Purple.png,5.0,103,0.783,,,,,,,,,,,,,,,,,
0.0,1.0,0.0,26.0,26.0,26.0,1.0,magnet_03s.jpg,0.0,Red.png,5.0,103,1.94,,,,,,,,,,,,,,,,,
1.0,1.0,0.0,27.0,27.0,27.0,1.0,laundry_basket_11s.jpg,1.0,Orange.png,5.0,103,1.291,,,,,,,,,,,,,,,,,
1.0,1.0,0.0,28.0,28.0,28.0,1.0,laundry_basket_11s.jpg,1.0,Yellow.png,5.0,103,1.2,,,,,,,,,,,,,,,,,
0.0,1.0,0.0,29.0,29.0,29.0,1.0,tambourine_06s.jpg,0.0,Green.png,5.0,103,1.407,,,,,,,,,,,,,,,,,
0.0,1.0,0.0,30.0,30.0,30.0,1.0,lab_coat_11s.jpg,0.0,Blue.png,6.0,103,0.903,,,,,,,,,,,,,,,,,
1.0,1.0,0.0,31.0,31.0,31.0,1.0,lab_coat_11s.jpg,1.0,Purple.png,6.0,103,1.051,,,,,,,,,,,,,,,,,
1.0,1.0,0.0,32.0,32.0,32.0,1.0,lab_coat_11s.jpg,1.0,Red.png,6.0,103,0.875,,,,,,,,,,,,,,,,,
1.0,1.0,0.0,33.0,33.0,33.0,1.0,lab_coat_11s.jpg,1.0,Orange.png,6.0,103,0.67,,,,,,,,,,,,,,,,,
0.0,1.0,0.0,34.0,34.0,34.0,1.0,cap_05s.jpg,0.0,Yellow.png,6.0,103,0.851,,,,,,,,,,,,,,,,,
0.0,1.0,0.0,35.0,35.0,35.0,1.0,puck_06s.jpg,0.0,Green.png,6.0,103,1.447,,,,,,,,,,,,,,,,,
,,,,,,,,1.0,,,103,,0.0,0.0,1.961,0.0,0.0,0.0,0.0,1.0,mascara_03s.jpg,bagel_15s.jpg,,,,,,,
,,,,,,,,0.0,,,103,,0.0,1.0,2.071,0.0,1.0,1.0,1.0,1.0,checkbook_11s.jpg,eiffeltower.jpg,,,,,,,
,,,,,,,,1.0,,,103,,0.0,0.0,1.411,0.0,2.0,2.0,2.0,1.0,thumbtack_14s.jpg,crossbow_10s.jpg,,,,,,,
,,,,,,,,0.0,,,103,,0.0,1.0,1.572,0.0,3.0,3.0,3.0,1.0,milk_02s.jpg,basket_05s.jpg,,,,,,,
,,,,,,,,1.0,,,103,,0.0,0.0,2.651,0.0,4.0,4.0,4.0,1.0,tablet_04s.jpg,pomegranate_04s.jpg,,,,,,,
,,,,,,,,0.0,,,103,,0.0,1.0,1.463,0.0,5.0,5.0,5.0,1.0,tambourine_06s.jpg,magnet_03s.jpg,,,,,,,
,,,,,,,,,,,103,,,,,,,,,,,,0.0,6.0,6.0,6.0,1.0,newclockpresent_7_3.xlsx,newclock_compare_task_7_3.xlsx
0.0,1.0,0.0,0.0,0.0,0.0,1.0,projector_08s.jpg,0.0,Blue.png,1.0,103,1.679,,,,,,,,,,,,,,,,,
1.0,1.0,0.0,1.0,1.0,1.0,1.0,projector_08s.jpg,1.0,Purple.png,1.0,103,1.191,,,,,,,,,,,,,,,,,
1.0,1.0,0.0,2.0,2.0,2.0,1.0,projector_08s.jpg,1.0,Red.png,1.0,103,0.743,,,,,,,,,,,,,,,,,
0.0,1.0,0.0,3.0,3.0,3.0,1.0,pumpkin_03s.jpg,0.0,Orange.png,1.0,103,0.78,,,,,,,,,,,,,,,,,
0.0,1.0,0.0,4.0,4.0,4.0,1.0,orangutan_03s.jpg,0.0,Yellow.png,1.0,103,1.935,,,,,,,,,,,,,,,,,
1.0,1.0,0.0,5.0,5.0,5.0,1.0,projector_08s.jpg,1.0,Green.png,1.0,103,0.842,,,,,,,,,,,,,,,,,
0.0,1.0,0.0,6.0,6.0,6.0,1.0,rollerskate_03s.jpg,0.0,Blue.png,2.0,103,1.881,,,,,,,,,,,,,,,,,
1.0,0.0,0.0,7.0,7.0,7.0,1.0,projector_08s.jpg,0.0,Purple.png,2.0,103,0.688,,,,,,,,,,,,,,,,,
0.0,1.0,0.0,8.0,8.0,8.0,1.0,racehorse_03s.jpg,0.0,Red.png,2.0,103,1.022,,,,,,,,,,,,,,,,,
1.0,1.0,0.0,9.0,9.0,9.0,1.0,projector_08s.jpg,1.0,Orange.png,2.0,103,0.675,,,,,,,,,,,,,,,,,
0.0,1.0,0.0,10.0,10.0,10.0,1.0,toy_04s.jpg,0.0,Yellow.png,2.0,103,0.938,,,,,,,,,,,,,,,,,
1.0,1.0,0.0,11.0,11.0,11.0,1.0,projector_08s.jpg,1.0,Green.png,2.0,103,0.675,,,,,,,,,,,,,,,,,
1.0,0.0,0.0,12.0,12.0,12.0,1.0,toy_04s.jpg,0.0,Blue.png,3.0,103,0.784,,,,,,,,,,,,,,,,,
1.0,1.0,0.0,13.0,13.0,13.0,1.0,toy_04s.jpg,1.0,Purple.png,3.0,103,0.804,,,,,,,,,,,,,,,,,
0.0,1.0,0.0,14.0,14.0,14.0,1.0,loveseat_08s.jpg,0.0,Red.png,3.0,103,1.01,,,,,,,,,,,,,,,,,
1.0,1.0,0.0,15.0,15.0,15.0,1.0,toy_04s.jpg,1.0,Orange.png,3.0,103,1.432,,,,,,,,,,,,,,,,,
1.0,1.0,0.0,16.0,16.0,16.0,1.0,toy_04s.jpg,1.0,Yellow.png,3.0,103,0.651,,,,,,,,,,,,,,,,,
0.0,1.0,0.0,17.0,17.0,17.0,1.0,muffin_12n.jpg,0.0,Green.png,3.0,103,1.354,,,,,,,,,,,,,,,,,
1.0,0.0,0.0,18.0,18.0,18.0,1.0,oil_02s.jpg,0.0,Blue.png,4.0,103,0.747,,,,,,,,,,,,,,,,,
0.0,1.0,0.0,19.0,19.0,19.0,1.0,ring_03s.jpg,0.0,Purple.png,4.0,103,0.85,,,,,,,,,,,,,,,,,
1.0,1.0,0.0,20.0,20.0,20.0,1.0,ring_03s.jpg,1.0,Red.png,4.0,103,1.63,,,,,,,,,,,,,,,,,
0.0,1.0,0.0,21.0,21.0,21.0,1.0,harpoon.jpg,0.0,Orange.png,4.0,103,1.16,,,,,,,,,,,,,,,,,
0.0,1.0,0.0,22.0,22.0,22.0,1.0,swimming_pool_17s.jpg,0.0,Yellow.png,4.0,103,0.82,,,,,,,,,,,,,,,,,
0.0,1.0,0.0,23.0,23.0,23.0,1.0,ironing_board_07s.jpg,0.0,Green.png,4.0,103,1.71,,,,,,,,,,,,,,,,,
1.0,0.0,0.0,24.0,24.0,24.0,1.0,projector_08s.jpg,0.0,Blue.png,5.0,103,0.92,,,,,,,,,,,,,,,,,
0.0,1.0,0.0,25.0,25.0,25.0,1.0,rabbit_03s.jpg,0.0,Purple.png,5.0,103,0.686,,,,,,,,,,,,,,,,,
0.0,1.0,0.0,26.0,26.0,26.0,1.0,spacesuit_02s.jpg,0.0,Red.png,5.0,103,0.899,,,,,,,,,,,,,,,,,
1.0,0.0,0.0,27.0,27.0,27.0,1.0,toy_04s.jpg,0.0,Orange.png,5.0,103,0.837,,,,,,,,,,,,,,,,,
0.0,1.0,0.0,28.0,28.0,28.0,1.0,mannequin_05s.jpg,0.0,Yellow.png,5.0,103,1.232,,,,,,,,,,,,,,,,,
1.0,1.0,0.0,29.0,29.0,29.0,1.0,toy_04s.jpg,1.0,Green.png,5.0,103,0.81,,,,,,,,,,,,,,,,,
0.0,1.0,0.0,30.0,30.0,30.0,1.0,dashboard_02s.jpg,0.0,Blue.png,6.0,103,0.912,,,,,,,,,,,,,,,,,
0.0,1.0,0.0,31.0,31.0,31.0,1.0,exhaust_pipe_10s.jpg,0.0,Purple.png,6.0,103,1.209,,,,,,,,,,,,,,,,,
0.0,1.0,0.0,32.0,32.0,32.0,1.0,telephone_pole_05s.jpg,0.0,Red.png,6.0,103,1.598,,,,,,,,,,,,,,,,,
1.0,0.0,0.0,33.0,33.0,33.0,1.0,orangutan_03s.jpg,0.0,Orange.png,6.0,103,0.983,,,,,,,,,,,,,,,,,
0.0,1.0,0.0,34.0,34.0,34.0,1.0,tuxedo_01b.jpg,0.0,Yellow.png,6.0,103,1.018,,,,,,,,,,,,,,,,,
0.0,1.0,0.0,35.0,35.0,35.0,1.0,crate_05s.jpg,0.0,Green.png,6.0,103,1.15,,,,,,,,,,,,,,,,,
,,,,,,,,1.0,,,103,,1.0,1.0,0.851,0.0,0.0,0.0,0.0,1.0,oil_02s.jpg,harpoon.jpg,,,,,,,
,,,,,,,,1.0,,,103,,1.0,1.0,1.228,0.0,1.0,1.0,1.0,1.0,swimming_pool_17s.jpg,rabbit_03s.jpg,,,,,,,
,,,,,,,,0.0,,,103,,0.0,1.0,0.938,0.0,2.0,2.0,2.0,1.0,rollerskate_03s.jpg,pumpkin_03s.jpg,,,,,,,
,,,,,,,,0.0,,,103,,1.0,0.0,0.852,0.0,3.0,3.0,3.0,1.0,muffin_12n.jpg,loveseat_08s.jpg,,,,,,,
,,,,,,,,0.0,,,103,,0.0,1.0,2.515,0.0,4.0,4.0,4.0,1.0,spacesuit_02s.jpg,ironing_board_07s.jpg,,,,,,,
,,,,,,,,1.0,,,103,,0.0,0.0,1.525,0.0,5.0,5.0,5.0,1.0,telephone_pole_05s.jpg,crate_05s.jpg,,,,,,,
,,,,,,,,,,,103,,,,,,,,,,,,0.0,7.0,7.0,7.0,1.0,newclockpresent_8_3.xlsx,newclock_compare_task_8_3.xlsx
0.0,1.0,0.0,0.0,0.0,0.0,1.0,plunger_08s.jpg,0.0,Blue.png,1.0,103,0.93,,,,,,,,,,,,,,,,,
0.0,1.0,0.0,1.0,1.0,1.0,1.0,mango_09s.jpg,0.0,Purple.png,1.0,103,0.766,,,,,,,,,,,,,,,,,
0.0,1.0,0.0,2.0,2.0,2.0,1.0,panda_02s.jpg,0.0,Red.png,1.0,103,0.991,,,,,,,,,,,,,,,,,
0.0,1.0,0.0,3.0,3.0,3.0,1.0,spatula04.jpg,0.0,Orange.png,1.0,103,0.935,,,,,,,,,,,,,,,,,
0.0,1.0,0.0,4.0,4.0,4.0,1.0,tuba_12s.jpg,0.0,Yellow.png,1.0,103,1.001,,,,,,,,,,,,,,,,,
0.0,1.0,0.0,5.0,5.0,5.0,1.0,lipstick_02s.jpg,0.0,Green.png,1.0,103,1.174,,,,,,,,,,,,,,,,,
1.0,0.0,0.0,6.0,6.0,6.0,1.0,tuba_12s.jpg,0.0,Blue.png,2.0,103,0.805,,,,,,,,,,,,,,,,,
0.0,1.0,0.0,7.0,7.0,7.0,1.0,jelly_bean_06s.jpg,0.0,Purple.png,2.0,103,1.038,,,,,,,,,,,,,,,,,
0.0,1.0,0.0,8.0,8.0,8.0,1.0,penlight_12s.jpg,0.0,Red.png,2.0,103,1.137,,,,,,,,,,,,,,,,,
0.0,1.0,0.0,9.0,9.0,9.0,1.0,rooster_03s.jpg,0.0,Orange.png,2.0,103,0.805,,,,,,,,,,,,,,,,,
0.0,1.0,0.0,10.0,10.0,10.0,1.0,raft_09s.jpg,0.0,Yellow.png,2.0,103,0.712,,,,,,,,,,,,,,,,,
0.0,1.0,0.0,11.0,11.0,11.0,1.0,briefcase_03s.jpg,0.0,Green.png,2.0,103,1.32,,,,,,,,,,,,,,,,,
0.0,1.0,0.0,12.0,12.0,12.0,1.0,fossil_06s.jpg,0.0,Blue.png,3.0,103,1.722,,,,,,,,,,,,,,,,,
1.0,1.0,0.0,13.0,13.0,13.0,1.0,fossil_06s.jpg,1.0,Purple.png,3.0,103,1.032,,,,,,,,,,,,,,,,,
0.0,1.0,0.0,14.0,14.0,14.0,1.0,emerald_02s.jpg,0.0,Red.png,3.0,103,1.353,,,,,,,,,,,,,,,,,
1.0,1.0,0.0,15.0,15.0,15.0,1.0,fossil_06s.jpg,1.0,Orange.png,3.0,103,1.026,,,,,,,,,,,,,,,,,
0.0,1.0,0.0,16.0,16.0,16.0,1.0,tiara_05s.jpg,0.0,Yellow.png,3.0,103,1.192,,,,,,,,,,,,,,,,,
1.0,1.0,0.0,17.0,17.0,17.0,1.0,fossil_06s.jpg,1.0,Green.png,3.0,103,0.755,,,,,,,,,,,,,,,,,
1.0,0.0,0.0,18.0,18.0,18.0,1.0,rooster_03s.jpg,0.0,Blue.png,4.0,103,1.07,,,,,,,,,,,,,,,,,
1.0,1.0,0.0,19.0,19.0,19.0,1.0,rooster_03s.jpg,1.0,Purple.png,4.0,103,0.671,,,,,,,,,,,,,,,,,
0.0,1.0,0.0,20.0,20.0,20.0,1.0,squirrel_02s.jpg,0.0,Red.png,4.0,103,0.755,,,,,,,,,,,,,,,,,
1.0,0.0,0.0,21.0,21.0,21.0,1.0,plunger_08s.jpg,0.0,Orange.png,4.0,103,0.907,,,,,,,,,,,,,,,,,
1.0,1.0,0.0,22.0,22.0,22.0,1.0,rooster_03s.jpg,1.0,Yellow.png,4.0,103,0.823,,,,,,,,,,,,,,,,,
0.0,1.0,0.0,23.0,23.0,23.0,1.0,pencil_sharpener_09n.jpg,0.0,Green.png,4.0,103,1.085,,,,,,,,,,,,,,,,,
0.0,1.0,0.0,24.0,24.0,24.0,1.0,latch_15s.jpg,0.0,Blue.png,5.0,103,1.337,,,,,,,,,,,,,,,,,
0.0,1.0,0.0,25.0,25.0,25.0,1.0,pipe1_10s.jpg,0.0,Purple.png,5.0,103,1.268,,,,,,,,,,,,,,,,,
0.0,1.0,0.0,26.0,26.0,26.0,1.0,padlock_07s.jpg,0.0,Red.png,5.0,103,1.182,,,,,,,,,,,,,,,,,
1.0,1.0,0.0,27.0,27.0,27.0,1.0,padlock_07s.jpg,1.0,Orange.png,5.0,103,1.472,,,,,,,,,,,,,,,,,
0.0,1.0,0.0,28.0,28.0,28.0,1.0,mosquito_12s.jpg,0.0,Yellow.png,5.0,103,0.936,,,,,,,,,,,,,,,,,
0.0,1.0,0.0,29.0,29.0,29.0,1.0,chalice_10s.jpg,0.0,Green.png,5.0,103,1.355,,,,,,,,,,,,,,,,,
0.0,1.0,0.0,30.0,30.0,30.0,1.0,turf_03s.jpg,0.0,Blue.png,6.0,103,1.969,,,,,,,,,,,,,,,,,
0.0,1.0,0.0,31.0,31.0,31.0,1.0,smoothie_09s.jpg,0.0,Purple.png,6.0,103,0.789,,,,,,,,,,,,,,,,,
0.0,1.0,0.0,32.0,32.0,32.0,1.0,comic_book_02s.jpg,0.0,Red.png,6.0,103,1.261,,,,,,,,,,,,,,,,,
0.0,1.0,0.0,33.0,33.0,33.0,1.0,stopwatch_04s.jpg,0.0,Orange.png,6.0,103,1.035,,,,,,,,,,,,,,,,,
1.0,1.0,0.0,34.0,34.0,34.0,1.0,turf_03s.jpg,1.0,Yellow.png,6.0,103,1.151,,,,,,,,,,,,,,,,,
0.0,1.0,0.0,35.0,35.0,35.0,1.0,turnstile_08s.jpg,0.0,Green.png,6.0,103,1.53,,,,,,,,,,,,,,,,,
,,,,,,,,1.0,,,103,,1.0,1.0,1.94,0.0,0.0,0.0,0.0,1.0,jelly_bean_06s.jpg,raft_09s.jpg,,,,,,,
,,,,,,,,1.0,,,103,,0.0,0.0,1.374,0.0,1.0,1.0,1.0,1.0,chalice_10s.jpg,comic_book_02s.jpg,,,,,,,
,,,,,,,,0.0,,,103,,0.0,1.0,0.845,0.0,2.0,2.0,2.0,1.0,lipstick_02s.jpg,panda_02s.jpg,,,,,,,
,,,,,,,,1.0,,,103,,1.0,1.0,0.595,0.0,3.0,3.0,3.0,1.0,briefcase_03s.jpg,emerald_02s.jpg,,,,,,,
,,,,,,,,1.0,,,103,,0.0,0.0,0.381,0.0,4.0,4.0,4.0,1.0,mosquito_12s.jpg,smoothie_09s.jpg,,,,,,,
,,,,,,,,1.0,,,103,,0.0,0.0,0.385,0.0,5.0,5.0,5.0,1.0,squirrel_02s.jpg,pencil_sharpener_09n.jpg,,,,,,,
,,,,,,,,,,,103,,,,,,,,,,,,0.0,8.0,8.0,8.0,1.0,newclockpresent_9_3.xlsx,newclock_compare_task_9_3.xlsx
