key_resp.keys,key_resp.corr,key_resp.rt,present_segment.thisRepN,present_segment.thisTrialN,present_segment.thisN,present_segment.thisIndex,present_segment.ran,pictures,answer,clock,segment,participant,key_resp_2.keys,key_resp_2.corr,key_resp_2.rt,compare_segment.thisRepN,compare_segment.thisTrialN,compare_segment.thisN,compare_segment.thisIndex,compare_segment.ran,item_a,item_b,clock_conditions.thisRepN,clock_conditions.thisTrialN,clock_conditions.thisN,clock_conditions.thisIndex,clock_conditions.ran,present,compare
0.0,1.0,1.983665,0.0,0.0,0.0,0.0,1.0,mailbox_11s.jpg,0.0,Blue.png,1.0,84,,,,,,,,,,,,,,,,,
1.0,0.0,1.323295,0.0,1.0,1.0,1.0,1.0,mailbox_11s.jpg,0.0,Purple.png,1.0,84,,,,,,,,,,,,,,,,,
0.0,1.0,0.610415,0.0,2.0,2.0,2.0,1.0,checkbook_11s.jpg,0.0,Red.png,1.0,84,,,,,,,,,,,,,,,,,
1.0,0.0,1.267095,0.0,3.0,3.0,3.0,1.0,rocking_chair_05s.jpg,0.0,Orange.png,1.0,84,,,,,,,,,,,,,,,,,
0.0,0.0,0.480675,0.0,4.0,4.0,4.0,1.0,checkbook_11s.jpg,1.0,Yellow.png,1.0,84,,,,,,,,,,,,,,,,,
1.0,1.0,1.26386,0.0,5.0,5.0,5.0,1.0,rocking_chair_05s.jpg,1.0,Green.png,1.0,84,,,,,,,,,,,,,,,,,
0.0,1.0,1.77527,0.0,6.0,6.0,6.0,1.0,eggshell_14s.jpg,0.0,Blue.png,2.0,84,,,,,,,,,,,,,,,,,
1.0,1.0,0.724085,0.0,7.0,7.0,7.0,1.0,rocking_chair_05s.jpg,1.0,Purple.png,2.0,84,,,,,,,,,,,,,,,,,
0.0,1.0,1.589445,0.0,8.0,8.0,8.0,1.0,powder_07s.jpg,0.0,Red.png,2.0,84,,,,,,,,,,,,,,,,,
0.0,1.0,0.568345,0.0,9.0,9.0,9.0,1.0,meatball_13s.jpg,0.0,Orange.png,2.0,84,,,,,,,,,,,,,,,,,
0.0,1.0,0.80679,0.0,10.0,10.0,10.0,1.0,rolling_pin_02s.jpg,0.0,Yellow.png,2.0,84,,,,,,,,,,,,,,,,,
0.0,1.0,0.841325,0.0,11.0,11.0,11.0,1.0,gingerbread_man_03s.jpg,0.0,Green.png,2.0,84,,,,,,,,,,,,,,,,,
1.0,0.0,1.42818,0.0,12.0,12.0,12.0,1.0,rocking_chair_05s.jpg,0.0,Blue.png,3.0,84,,,,,,,,,,,,,,,,,
0.0,1.0,1.873575,0.0,13.0,13.0,13.0,1.0,bowler_hat_10s.jpg,0.0,Purple.png,3.0,84,,,,,,,,,,,,,,,,,
1.0,1.0,0.751835,0.0,14.0,14.0,14.0,1.0,rocking_chair_05s.jpg,1.0,Red.png,3.0,84,,,,,,,,,,,,,,,,,
1.0,0.0,0.817415,0.0,15.0,15.0,15.0,1.0,rocking_chair_05s.jpg,0.0,Orange.png,3.0,84,,,,,,,,,,,,,,,,,
1.0,1.0,1.400115,0.0,16.0,16.0,16.0,1.0,rocking_chair_05s.jpg,1.0,Yellow.png,3.0,84,,,,,,,,,,,,,,,,,
0.0,1.0,1.22921,0.0,17.0,17.0,17.0,1.0,projector_08s.jpg,0.0,Green.png,3.0,84,,,,,,,,,,,,,,,,,
1.0,0.0,1.283985,0.0,18.0,18.0,18.0,1.0,checkbook_11s.jpg,0.0,Blue.png,4.0,84,,,,,,,,,,,,,,,,,
1.0,0.0,1.40737,0.0,19.0,19.0,19.0,1.0,checkbook_11s.jpg,0.0,Purple.png,4.0,84,,,,,,,,,,,,,,,,,
0.0,1.0,1.15361,0.0,20.0,20.0,20.0,1.0,crab_16s.jpg,0.0,Red.png,4.0,84,,,,,,,,,,,,,,,,,
1.0,1.0,1.420845,0.0,21.0,21.0,21.0,1.0,checkbook_11s.jpg,1.0,Orange.png,4.0,84,,,,,,,,,,,,,,,,,
0.0,1.0,1.270095,0.0,22.0,22.0,22.0,1.0,peanut_butter_08s.jpg,0.0,Yellow.png,4.0,84,,,,,,,,,,,,,,,,,
0.0,1.0,0.730015,0.0,23.0,23.0,23.0,1.0,breadstick_08s.jpg,0.0,Green.png,4.0,84,,,,,,,,,,,,,,,,,
0.0,1.0,1.001405,0.0,24.0,24.0,24.0,1.0,stethoscope_01b.jpg,0.0,Blue.png,5.0,84,,,,,,,,,,,,,,,,,
0.0,1.0,0.806405,0.0,25.0,25.0,25.0,1.0,pineapple_12s.jpg,0.0,Purple.png,5.0,84,,,,,,,,,,,,,,,,,
0.0,0.0,0.823755,0.0,26.0,26.0,26.0,1.0,stethoscope_01b.jpg,1.0,Red.png,5.0,84,,,,,,,,,,,,,,,,,
1.0,1.0,1.693805,0.0,27.0,27.0,27.0,1.0,pineapple_12s.jpg,1.0,Orange.png,5.0,84,,,,,,,,,,,,,,,,,
0.0,1.0,1.72303,0.0,28.0,28.0,28.0,1.0,air_pump_05s.jpg,0.0,Yellow.png,5.0,84,,,,,,,,,,,,,,,,,
0.0,1.0,2.001765,0.0,29.0,29.0,29.0,1.0,birdcage_08s.jpg,0.0,Green.png,5.0,84,,,,,,,,,,,,,,,,,
0.0,1.0,1.288055,0.0,30.0,30.0,30.0,1.0,kangaroo_02s.jpg,0.0,Blue.png,6.0,84,,,,,,,,,,,,,,,,,
0.0,1.0,0.646195,0.0,31.0,31.0,31.0,1.0,juicer2_06s.jpg,0.0,Purple.png,6.0,84,,,,,,,,,,,,,,,,,
0.0,1.0,0.974875,0.0,32.0,32.0,32.0,1.0,harpoon.jpg,0.0,Red.png,6.0,84,,,,,,,,,,,,,,,,,
0.0,1.0,1.91616,0.0,33.0,33.0,33.0,1.0,mirror_12s.jpg,0.0,Orange.png,6.0,84,,,,,,,,,,,,,,,,,
0.0,1.0,0.864375,0.0,34.0,34.0,34.0,1.0,gear_07s.jpg,0.0,Yellow.png,6.0,84,,,,,,,,,,,,,,,,,
0.0,1.0,1.57224,0.0,35.0,35.0,35.0,1.0,timer_03s.jpg,0.0,Green.png,6.0,84,,,,,,,,,,,,,,,,,
,,,,,,,,,1.0,,,84,1.0,1.0,1.99559,0.0,0.0,0.0,0.0,1.0,powder_07s.jpg,gingerbread_man_03s.jpg,,,,,,,
,,,,,,,,,1.0,,,84,1.0,1.0,2.13527,0.0,1.0,1.0,1.0,1.0,air_pump_05s.jpg,juicer2_06s.jpg,,,,,,,
,,,,,,,,,0.0,,,84,0.0,1.0,3.81716,0.0,2.0,2.0,2.0,1.0,crab_16s.jpg,projector_08s.jpg,,,,,,,
,,,,,,,,,0.0,,,84,1.0,0.0,1.742275,0.0,3.0,3.0,3.0,1.0,mirror_12s.jpg,kangaroo_02s.jpg,,,,,,,
,,,,,,,,,0.0,,,84,1.0,0.0,1.47282,0.0,4.0,4.0,4.0,1.0,bowler_hat_10s.jpg,rolling_pin_02s.jpg,,,,,,,
,,,,,,,,,1.0,,,84,1.0,1.0,1.1727,0.0,5.0,5.0,5.0,1.0,eggshell_14s.jpg,meatball_13s.jpg,,,,,,,
,,,,,,,,,,,,84,,,,,,,,,,,0.0,0.0,0.0,0.0,1.0,new2backpresent_1_1.xlsx,new2back_compare_task_1_1.xlsx
,0.0,,0.0,0.0,0.0,0.0,1.0,trident_07s.jpg,0.0,Blue.png,1.0,84,,,,,,,,,,,,,,,,,
0.0,1.0,1.22908,0.0,1.0,1.0,1.0,1.0,rosary_03s.jpg,0.0,Purple.png,1.0,84,,,,,,,,,,,,,,,,,
0.0,1.0,0.64934,0.0,2.0,2.0,2.0,1.0,toilet_paper_12s.jpg,0.0,Red.png,1.0,84,,,,,,,,,,,,,,,,,
1.0,1.0,0.934615,0.0,3.0,3.0,3.0,1.0,rosary_03s.jpg,1.0,Orange.png,1.0,84,,,,,,,,,,,,,,,,,
1.0,1.0,1.849875,0.0,4.0,4.0,4.0,1.0,toilet_paper_12s.jpg,1.0,Yellow.png,1.0,84,,,,,,,,,,,,,,,,,
0.0,1.0,1.433305,0.0,5.0,5.0,5.0,1.0,potpourri_03s.jpg,0.0,Green.png,1.0,84,,,,,,,,,,,,,,,,,
0.0,1.0,1.050945,0.0,6.0,6.0,6.0,1.0,rocket_02s.jpg,0.0,Blue.png,2.0,84,,,,,,,,,,,,,,,,,
0.0,1.0,1.15788,0.0,7.0,7.0,7.0,1.0,piano_13n.jpg,0.0,Purple.png,2.0,84,,,,,,,,,,,,,,,,,
1.0,1.0,1.50541,0.0,8.0,8.0,8.0,1.0,rocket_02s.jpg,1.0,Red.png,2.0,84,,,,,,,,,,,,,,,,,
1.0,0.0,1.26092,0.0,9.0,9.0,9.0,1.0,rocket_02s.jpg,0.0,Orange.png,2.0,84,,,,,,,,,,,,,,,,,
0.0,1.0,1.105275,0.0,10.0,10.0,10.0,1.0,umbrella_15s.jpg,0.0,Yellow.png,2.0,84,,,,,,,,,,,,,,,,,
0.0,1.0,0.893385,0.0,11.0,11.0,11.0,1.0,touchpad_11s.jpg,0.0,Green.png,2.0,84,,,,,,,,,,,,,,,,,
1.0,0.0,2.080065,0.0,12.0,12.0,12.0,1.0,rocket_02s.jpg,0.0,Blue.png,3.0,84,,,,,,,,,,,,,,,,,
1.0,0.0,1.44642,0.0,13.0,13.0,13.0,1.0,rocket_02s.jpg,0.0,Purple.png,3.0,84,,,,,,,,,,,,,,,,,
,0.0,,0.0,14.0,14.0,14.0,1.0,rocket_02s.jpg,1.0,Red.png,3.0,84,,,,,,,,,,,,,,,,,
0.0,1.0,1.29307,0.0,15.0,15.0,15.0,1.0,roller_coaster_07s.jpg,0.0,Orange.png,3.0,84,,,,,,,,,,,,,,,,,
0.0,1.0,1.04849,0.0,16.0,16.0,16.0,1.0,torch_02s.jpg,0.0,Yellow.png,3.0,84,,,,,,,,,,,,,,,,,
0.0,1.0,0.85553,0.0,17.0,17.0,17.0,1.0,lion_18s.jpg,0.0,Green.png,3.0,84,,,,,,,,,,,,,,,,,
0.0,1.0,1.19887,0.0,18.0,18.0,18.0,1.0,microwave_02s.jpg,0.0,Blue.png,4.0,84,,,,,,,,,,,,,,,,,
0.0,1.0,1.100895,0.0,19.0,19.0,19.0,1.0,denture_03s.jpg,0.0,Purple.png,4.0,84,,,,,,,,,,,,,,,,,
0.0,1.0,0.625995,0.0,20.0,20.0,20.0,1.0,fur_coat_11s.jpg,0.0,Red.png,4.0,84,,,,,,,,,,,,,,,,,
0.0,1.0,0.6141,0.0,21.0,21.0,21.0,1.0,pepper_mill_03s.jpg,0.0,Orange.png,4.0,84,,,,,,,,,,,,,,,,,
0.0,1.0,1.11665,0.0,22.0,22.0,22.0,1.0,antenna_01b.jpg,0.0,Yellow.png,4.0,84,,,,,,,,,,,,,,,,,
1.0,1.0,1.268005,0.0,23.0,23.0,23.0,1.0,pepper_mill_03s.jpg,1.0,Green.png,4.0,84,,,,,,,,,,,,,,,,,
1.0,0.0,1.471135,0.0,24.0,24.0,24.0,1.0,touchpad_11s.jpg,0.0,Blue.png,5.0,84,,,,,,,,,,,,,,,,,
0.0,1.0,1.36741,0.0,25.0,25.0,25.0,1.0,otter_05s.jpg,0.0,Purple.png,5.0,84,,,,,,,,,,,,,,,,,
0.0,1.0,1.31217,0.0,26.0,26.0,26.0,1.0,squirt_gun_03s.jpg,0.0,Red.png,5.0,84,,,,,,,,,,,,,,,,,
1.0,1.0,1.48139,0.0,27.0,27.0,27.0,1.0,otter_05s.jpg,1.0,Orange.png,5.0,84,,,,,,,,,,,,,,,,,
1.0,0.0,1.887125,0.0,28.0,28.0,28.0,1.0,touchpad_11s.jpg,0.0,Yellow.png,5.0,84,,,,,,,,,,,,,,,,,
1.0,0.0,1.284185,0.0,29.0,29.0,29.0,1.0,touchpad_11s.jpg,0.0,Green.png,5.0,84,,,,,,,,,,,,,,,,,
0.0,1.0,1.28913,0.0,30.0,30.0,30.0,1.0,kayak_08s.jpg,0.0,Blue.png,6.0,84,,,,,,,,,,,,,,,,,
0.0,1.0,1.06983,0.0,31.0,31.0,31.0,1.0,mascara_03s.jpg,0.0,Purple.png,6.0,84,,,,,,,,,,,,,,,,,
0.0,1.0,1.318265,0.0,32.0,32.0,32.0,1.0,ink_08s.jpg,0.0,Red.png,6.0,84,,,,,,,,,,,,,,,,,
1.0,0.0,1.42295,0.0,33.0,33.0,33.0,1.0,kayak_08s.jpg,0.0,Orange.png,6.0,84,,,,,,,,,,,,,,,,,
0.0,1.0,1.95341,0.0,34.0,34.0,34.0,1.0,towel_rack_04s.jpg,0.0,Yellow.png,6.0,84,,,,,,,,,,,,,,,,,
0.0,1.0,2.08854,0.0,35.0,35.0,35.0,1.0,jewel_01b.jpg,0.0,Green.png,6.0,84,,,,,,,,,,,,,,,,,
,,,,,,,,,1.0,,,84,1.0,1.0,1.965605,0.0,0.0,0.0,0.0,1.0,torch_02s.jpg,denture_03s.jpg,,,,,,,
,,,,,,,,,0.0,,,84,1.0,0.0,1.897765,0.0,1.0,1.0,1.0,1.0,towel_rack_04s.jpg,mascara_03s.jpg,,,,,,,
,,,,,,,,,1.0,,,84,1.0,1.0,2.77778,0.0,2.0,2.0,2.0,1.0,piano_13n.jpg,umbrella_15s.jpg,,,,,,,
,,,,,,,,,0.0,,,84,1.0,0.0,1.171275,0.0,3.0,3.0,3.0,1.0,fur_coat_11s.jpg,lion_18s.jpg,,,,,,,
,,,,,,,,,1.0,,,84,1.0,1.0,1.208125,0.0,4.0,4.0,4.0,1.0,roller_coaster_07s.jpg,microwave_02s.jpg,,,,,,,
,,,,,,,,,1.0,,,84,1.0,1.0,1.259195,0.0,5.0,5.0,5.0,1.0,ink_08s.jpg,jewel_01b.jpg,,,,,,,
,,,,,,,,,,,,84,,,,,,,,,,,0.0,1.0,1.0,1.0,1.0,new2backpresent_2_1.xlsx,new2back_compare_task_2_1.xlsx
0.0,1.0,2.073365,0.0,0.0,0.0,0.0,1.0,icemaker_10s.jpg,0.0,Blue.png,1.0,84,,,,,,,,,,,,,,,,,
1.0,0.0,0.890445,0.0,1.0,1.0,1.0,1.0,icemaker_10s.jpg,0.0,Purple.png,1.0,84,,,,,,,,,,,,,,,,,
1.0,0.0,0.562375,0.0,2.0,2.0,2.0,1.0,tile_08s.jpg,0.0,Red.png,1.0,84,,,,,,,,,,,,,,,,,
0.0,1.0,0.624235,0.0,3.0,3.0,3.0,1.0,fossil_06s.jpg,0.0,Orange.png,1.0,84,,,,,,,,,,,,,,,,,
1.0,0.0,1.310435,0.0,4.0,4.0,4.0,1.0,fossil_06s.jpg,0.0,Yellow.png,1.0,84,,,,,,,,,,,,,,,,,
0.0,1.0,1.196525,0.0,5.0,5.0,5.0,1.0,ravioli_08s.jpg,0.0,Green.png,1.0,84,,,,,,,,,,,,,,,,,
0.0,1.0,0.49289,0.0,6.0,6.0,6.0,1.0,top_hat_11s.jpg,0.0,Blue.png,2.0,84,,,,,,,,,,,,,,,,,
0.0,1.0,1.1821,0.0,7.0,7.0,7.0,1.0,raccoon_02s.jpg,0.0,Purple.png,2.0,84,,,,,,,,,,,,,,,,,
,0.0,,0.0,8.0,8.0,8.0,1.0,snowman_02s.jpg,0.0,Red.png,2.0,84,,,,,,,,,,,,,,,,,
0.0,1.0,1.727385,0.0,9.0,9.0,9.0,1.0,peach_04s.jpg,0.0,Orange.png,2.0,84,,,,,,,,,,,,,,,,,
0.0,1.0,2.050395,0.0,10.0,10.0,10.0,1.0,beard_16s.jpg,0.0,Yellow.png,2.0,84,,,,,,,,,,,,,,,,,
0.0,1.0,1.139495,0.0,11.0,11.0,11.0,1.0,rollerskate_03s.jpg,0.0,Green.png,2.0,84,,,,,,,,,,,,,,,,,
0.0,1.0,0.9846,0.0,12.0,12.0,12.0,1.0,mango_09s.jpg,0.0,Blue.png,3.0,84,,,,,,,,,,,,,,,,,
1.0,0.0,1.3273,0.0,13.0,13.0,13.0,1.0,mango_09s.jpg,0.0,Purple.png,3.0,84,,,,,,,,,,,,,,,,,
0.0,1.0,1.25114,0.0,14.0,14.0,14.0,1.0,magnet_03s.jpg,0.0,Red.png,3.0,84,,,,,,,,,,,,,,,,,
1.0,1.0,1.39184,0.0,15.0,15.0,15.0,1.0,mango_09s.jpg,1.0,Orange.png,3.0,84,,,,,,,,,,,,,,,,,
1.0,0.0,1.549355,0.0,16.0,16.0,16.0,1.0,mango_09s.jpg,0.0,Yellow.png,3.0,84,,,,,,,,,,,,,,,,,
1.0,1.0,1.349455,0.0,17.0,17.0,17.0,1.0,mango_09s.jpg,1.0,Green.png,3.0,84,,,,,,,,,,,,,,,,,
0.0,1.0,1.29767,0.0,18.0,18.0,18.0,1.0,punch2_09s.jpg,0.0,Blue.png,4.0,84,,,,,,,,,,,,,,,,,
0.0,1.0,2.103895,0.0,19.0,19.0,19.0,1.0,jelly_bean_06s.jpg,0.0,Purple.png,4.0,84,,,,,,,,,,,,,,,,,
1.0,1.0,1.49929,0.0,20.0,20.0,20.0,1.0,punch2_09s.jpg,1.0,Red.png,4.0,84,,,,,,,,,,,,,,,,,
1.0,1.0,1.697205,0.0,21.0,21.0,21.0,1.0,jelly_bean_06s.jpg,1.0,Orange.png,4.0,84,,,,,,,,,,,,,,,,,
1.0,0.0,1.59483,0.0,22.0,22.0,22.0,1.0,jelly_bean_06s.jpg,0.0,Yellow.png,4.0,84,,,,,,,,,,,,,,,,,
0.0,1.0,2.132125,0.0,23.0,23.0,23.0,1.0,typewriter_11s.jpg,0.0,Green.png,4.0,84,,,,,,,,,,,,,,,,,
1.0,0.0,1.836915,0.0,24.0,24.0,24.0,1.0,icemaker_10s.jpg,0.0,Blue.png,5.0,84,,,,,,,,,,,,,,,,,
1.0,1.0,1.19221,0.0,25.0,25.0,25.0,1.0,typewriter_11s.jpg,1.0,Purple.png,5.0,84,,,,,,,,,,,,,,,,,
0.0,1.0,1.13196,0.0,26.0,26.0,26.0,1.0,key_07s.jpg,0.0,Red.png,5.0,84,,,,,,,,,,,,,,,,,
0.0,1.0,1.36818,0.0,27.0,27.0,27.0,1.0,foam_03s.jpg,0.0,Orange.png,5.0,84,,,,,,,,,,,,,,,,,
0.0,1.0,0.90952,0.0,28.0,28.0,28.0,1.0,candy_cane_06s.jpg,0.0,Yellow.png,5.0,84,,,,,,,,,,,,,,,,,
0.0,1.0,1.21273,0.0,29.0,29.0,29.0,1.0,puffin_19s.jpg,0.0,Green.png,5.0,84,,,,,,,,,,,,,,,,,
,0.0,,0.0,30.0,30.0,30.0,1.0,outlet_10s.jpg,0.0,Blue.png,6.0,84,,,,,,,,,,,,,,,,,
0.0,1.0,1.538505,0.0,31.0,31.0,31.0,1.0,lasagna_06s.jpg,0.0,Purple.png,6.0,84,,,,,,,,,,,,,,,,,
1.0,0.0,1.833275,0.0,32.0,32.0,32.0,1.0,lasagna_06s.jpg,0.0,Red.png,6.0,84,,,,,,,,,,,,,,,,,
,0.0,,0.0,33.0,33.0,33.0,1.0,marker_05s.jpg,0.0,Orange.png,6.0,84,,,,,,,,,,,,,,,,,
0.0,1.0,1.51051,0.0,34.0,34.0,34.0,1.0,cushion_08s.jpg,0.0,Yellow.png,6.0,84,,,,,,,,,,,,,,,,,
0.0,1.0,0.97869,0.0,35.0,35.0,35.0,1.0,badge_03s.jpg,0.0,Green.png,6.0,84,,,,,,,,,,,,,,,,,
,,,,,,,,,0.0,,,84,1.0,0.0,1.84862,0.0,0.0,0.0,0.0,1.0,beard_16s.jpg,raccoon_02s.jpg,,,,,,,
,,,,,,,,,0.0,,,84,0.0,1.0,5.205465,0.0,1.0,1.0,1.0,1.0,peach_04s.jpg,top_hat_11s.jpg,,,,,,,
,,,,,,,,,1.0,,,84,1.0,1.0,1.55347,0.0,2.0,2.0,2.0,1.0,rollerskate_03s.jpg,magnet_03s.jpg,,,,,,,
,,,,,,,,,1.0,,,84,1.0,1.0,1.30664,0.0,3.0,3.0,3.0,1.0,foam_03s.jpg,outlet_10s.jpg,,,,,,,
,,,,,,,,,0.0,,,84,0.0,1.0,1.41214,0.0,4.0,4.0,4.0,1.0,snowman_02s.jpg,ravioli_08s.jpg,,,,,,,
,,,,,,,,,0.0,,,84,1.0,0.0,1.17117,0.0,5.0,5.0,5.0,1.0,puffin_19s.jpg,key_07s.jpg,,,,,,,
,,,,,,,,,,,,84,,,,,,,,,,,0.0,2.0,2.0,2.0,1.0,new2backpresent_3_1.xlsx,new2back_compare_task_3_1.xlsx
0.0,1.0,1.49134,0.0,0.0,0.0,0.0,1.0,lollipop_08s.jpg,0.0,Blue.png,1.0,84,,,,,,,,,,,,,,,,,
0.0,1.0,0.91105,0.0,1.0,1.0,1.0,1.0,keyboard_05s.jpg,0.0,Purple.png,1.0,84,,,,,,,,,,,,,,,,,
0.0,1.0,0.76618,0.0,2.0,2.0,2.0,1.0,pomegranate_04s.jpg,0.0,Red.png,1.0,84,,,,,,,,,,,,,,,,,
0.0,1.0,0.59053,0.0,3.0,3.0,3.0,1.0,olive_05s.jpg,0.0,Orange.png,1.0,84,,,,,,,,,,,,,,,,,
0.0,1.0,0.67509,0.0,4.0,4.0,4.0,1.0,hummingbird_05s.jpg,0.0,Yellow.png,1.0,84,,,,,,,,,,,,,,,,,
0.0,1.0,0.545685,0.0,5.0,5.0,5.0,1.0,cucumber_07s.jpg,0.0,Green.png,1.0,84,,,,,,,,,,,,,,,,,
1.0,0.0,1.43313,0.0,6.0,6.0,6.0,1.0,olive_05s.jpg,0.0,Blue.png,2.0,84,,,,,,,,,,,,,,,,,
0.0,1.0,1.000715,0.0,7.0,7.0,7.0,1.0,pinwheel_06s.jpg,0.0,Purple.png,2.0,84,,,,,,,,,,,,,,,,,
1.0,1.0,1.17504,0.0,8.0,8.0,8.0,1.0,olive_05s.jpg,1.0,Red.png,2.0,84,,,,,,,,,,,,,,,,,
0.0,1.0,1.306,0.0,9.0,9.0,9.0,1.0,orchid_01b.jpg,0.0,Orange.png,2.0,84,,,,,,,,,,,,,,,,,
1.0,1.0,1.181365,0.0,10.0,10.0,10.0,1.0,olive_05s.jpg,1.0,Yellow.png,2.0,84,,,,,,,,,,,,,,,,,
0.0,1.0,1.332115,0.0,11.0,11.0,11.0,1.0,lectern_08s.jpg,0.0,Green.png,2.0,84,,,,,,,,,,,,,,,,,
0.0,1.0,0.93267,0.0,12.0,12.0,12.0,1.0,margarita_03s.jpg,0.0,Blue.png,3.0,84,,,,,,,,,,,,,,,,,
1.0,0.0,1.361975,0.0,13.0,13.0,13.0,1.0,margarita_03s.jpg,0.0,Purple.png,3.0,84,,,,,,,,,,,,,,,,,
0.0,1.0,1.021235,0.0,14.0,14.0,14.0,1.0,swan_11s.jpg,0.0,Red.png,3.0,84,,,,,,,,,,,,,,,,,
0.0,1.0,1.10359,0.0,15.0,15.0,15.0,1.0,tripod_01b.jpg,0.0,Orange.png,3.0,84,,,,,,,,,,,,,,,,,
0.0,1.0,1.958995,0.0,16.0,16.0,16.0,1.0,mop_08s.jpg,0.0,Yellow.png,3.0,84,,,,,,,,,,,,,,,,,
0.0,1.0,1.3786,0.0,17.0,17.0,17.0,1.0,plaster_cast_13s.jpg,0.0,Green.png,3.0,84,,,,,,,,,,,,,,,,,
0.0,1.0,1.46557,0.0,18.0,18.0,18.0,1.0,gas_mask_11s.jpg,0.0,Blue.png,4.0,84,,,,,,,,,,,,,,,,,
0.0,1.0,1.625415,0.0,19.0,19.0,19.0,1.0,tinsel_12s.jpg,0.0,Purple.png,4.0,84,,,,,,,,,,,,,,,,,
0.0,1.0,2.21522,0.0,20.0,20.0,20.0,1.0,smokingpipe.jpg,0.0,Red.png,4.0,84,,,,,,,,,,,,,,,,,
0.0,1.0,1.623885,0.0,21.0,21.0,21.0,1.0,iron_13s.jpg,0.0,Orange.png,4.0,84,,,,,,,,,,,,,,,,,
,0.0,,0.0,22.0,22.0,22.0,1.0,iron_13s.jpg,0.0,Yellow.png,4.0,84,,,,,,,,,,,,,,,,,
1.0,1.0,2.22754,0.0,23.0,23.0,23.0,1.0,iron_13s.jpg,1.0,Green.png,4.0,84,,,,,,,,,,,,,,,,,
0.0,1.0,1.55955,0.0,24.0,24.0,24.0,1.0,rhubarb_03s.jpg,0.0,Blue.png,5.0,84,,,,,,,,,,,,,,,,,
0.0,1.0,1.57996,0.0,25.0,25.0,25.0,1.0,tambourine_06s.jpg,0.0,Purple.png,5.0,84,,,,,,,,,,,,,,,,,
1.0,0.0,1.65949,0.0,26.0,26.0,26.0,1.0,tambourine_06s.jpg,0.0,Red.png,5.0,84,,,,,,,,,,,,,,,,,
0.0,1.0,0.67426,0.0,27.0,27.0,27.0,1.0,mousetrap_15n.jpg,0.0,Orange.png,5.0,84,,,,,,,,,,,,,,,,,
0.0,1.0,0.817475,0.0,28.0,28.0,28.0,1.0,ticktacktoe_08s.jpg,0.0,Yellow.png,5.0,84,,,,,,,,,,,,,,,,,
0.0,1.0,1.708975,0.0,29.0,29.0,29.0,1.0,sunflower_17s.jpg,0.0,Green.png,5.0,84,,,,,,,,,,,,,,,,,
0.0,1.0,1.32555,0.0,30.0,30.0,30.0,1.0,onion_10s.jpg,0.0,Blue.png,6.0,84,,,,,,,,,,,,,,,,,
,0.0,,0.0,31.0,31.0,31.0,1.0,ant_12s.jpg,0.0,Purple.png,6.0,84,,,,,,,,,,,,,,,,,
0.0,1.0,0.846595,0.0,32.0,32.0,32.0,1.0,insole_11s.jpg,0.0,Red.png,6.0,84,,,,,,,,,,,,,,,,,
0.0,1.0,1.60857,0.0,33.0,33.0,33.0,1.0,keyboard_05s.jpg,0.0,Orange.png,6.0,84,,,,,,,,,,,,,,,,,
0.0,1.0,1.18163,0.0,34.0,34.0,34.0,1.0,aluminum_foil_08s.jpg,0.0,Yellow.png,6.0,84,,,,,,,,,,,,,,,,,
,0.0,,0.0,35.0,35.0,35.0,1.0,money_07s.jpg,0.0,Green.png,6.0,84,,,,,,,,,,,,,,,,,
,,,,,,,,,0.0,,,84,0.0,1.0,3.957815,0.0,0.0,0.0,0.0,1.0,pinwheel_06s.jpg,hummingbird_05s.jpg,,,,,,,
,,,,,,,,,1.0,,,84,1.0,1.0,3.14404,0.0,1.0,1.0,1.0,1.0,mop_08s.jpg,tinsel_12s.jpg,,,,,,,
,,,,,,,,,1.0,,,84,1.0,1.0,2.67854,0.0,2.0,2.0,2.0,1.0,pomegranate_04s.jpg,cucumber_07s.jpg,,,,,,,
,,,,,,,,,0.0,,,84,1.0,0.0,2.75138,0.0,3.0,3.0,3.0,1.0,aluminum_foil_08s.jpg,ant_12s.jpg,,,,,,,
,,,,,,,,,0.0,,,84,1.0,0.0,2.690155,0.0,4.0,4.0,4.0,1.0,gas_mask_11s.jpg,tripod_01b.jpg,,,,,,,
,,,,,,,,,0.0,,,84,0.0,1.0,2.706955,0.0,5.0,5.0,5.0,1.0,mousetrap_15n.jpg,rhubarb_03s.jpg,,,,,,,
,,,,,,,,,,,,84,,,,,,,,,,,0.0,3.0,3.0,3.0,1.0,new2backpresent_4_1.xlsx,new2back_compare_task_4_1.xlsx
0.0,1.0,1.694445,0.0,0.0,0.0,0.0,1.0,jalapeno_15s.jpg,0.0,Blue.png,1.0,84,,,,,,,,,,,,,,,,,
0.0,1.0,1.09638,0.0,1.0,1.0,1.0,1.0,pincushion_10s.jpg,0.0,Purple.png,1.0,84,,,,,,,,,,,,,,,,,
0.0,1.0,0.840255,0.0,2.0,2.0,2.0,1.0,fondue_07s.jpg,0.0,Red.png,1.0,84,,,,,,,,,,,,,,,,,
0.0,1.0,0.523675,0.0,3.0,3.0,3.0,1.0,safety_pin_02s.jpg,0.0,Orange.png,1.0,84,,,,,,,,,,,,,,,,,
0.0,1.0,0.555675,0.0,4.0,4.0,4.0,1.0,turf_03s.jpg,0.0,Yellow.png,1.0,84,,,,,,,,,,,,,,,,,
1.0,0.0,1.56976,0.0,5.0,5.0,5.0,1.0,jalapeno_15s.jpg,0.0,Green.png,1.0,84,,,,,,,,,,,,,,,,,
1.0,0.0,1.083985,0.0,6.0,6.0,6.0,1.0,jalapeno_15s.jpg,0.0,Blue.png,2.0,84,,,,,,,,,,,,,,,,,
1.0,1.0,1.18931,0.0,7.0,7.0,7.0,1.0,jalapeno_15s.jpg,1.0,Purple.png,2.0,84,,,,,,,,,,,,,,,,,
0.0,1.0,1.135805,0.0,8.0,8.0,8.0,1.0,spoon02a.jpg,0.0,Red.png,2.0,84,,,,,,,,,,,,,,,,,
0.0,1.0,0.950075,0.0,9.0,9.0,9.0,1.0,puppet_01b.jpg,0.0,Orange.png,2.0,84,,,,,,,,,,,,,,,,,
1.0,0.0,1.3547,0.0,10.0,10.0,10.0,1.0,jalapeno_15s.jpg,0.0,Yellow.png,2.0,84,,,,,,,,,,,,,,,,,
1.0,0.0,1.269675,0.0,11.0,11.0,11.0,1.0,jalapeno_15s.jpg,0.0,Green.png,2.0,84,,,,,,,,,,,,,,,,,
0.0,1.0,0.92648,0.0,12.0,12.0,12.0,1.0,popcorn_09s.jpg,0.0,Blue.png,3.0,84,,,,,,,,,,,,,,,,,
1.0,0.0,1.416125,0.0,13.0,13.0,13.0,1.0,popcorn_09s.jpg,0.0,Purple.png,3.0,84,,,,,,,,,,,,,,,,,
0.0,1.0,1.2183,0.0,14.0,14.0,14.0,1.0,swordfish_05s.jpg,0.0,Red.png,3.0,84,,,,,,,,,,,,,,,,,
1.0,1.0,1.55191,0.0,15.0,15.0,15.0,1.0,popcorn_09s.jpg,1.0,Orange.png,3.0,84,,,,,,,,,,,,,,,,,
0.0,1.0,1.78575,0.0,16.0,16.0,16.0,1.0,police_car_01s.jpg,0.0,Yellow.png,3.0,84,,,,,,,,,,,,,,,,,
0.0,1.0,1.092655,0.0,17.0,17.0,17.0,1.0,ginger_09s.jpg,0.0,Green.png,3.0,84,,,,,,,,,,,,,,,,,
0.0,1.0,0.88663,0.0,18.0,18.0,18.0,1.0,cap_05s.jpg,0.0,Blue.png,4.0,84,,,,,,,,,,,,,,,,,
0.0,1.0,0.98003,0.0,19.0,19.0,19.0,1.0,ice-cream_cone_06s.jpg,0.0,Purple.png,4.0,84,,,,,,,,,,,,,,,,,
0.0,1.0,1.905535,0.0,20.0,20.0,20.0,1.0,purse_05s.jpg,0.0,Red.png,4.0,84,,,,,,,,,,,,,,,,,
0.0,1.0,1.17865,0.0,21.0,21.0,21.0,1.0,squirrel_02s.jpg,0.0,Orange.png,4.0,84,,,,,,,,,,,,,,,,,
1.0,0.0,1.98273,0.0,22.0,22.0,22.0,1.0,cap_05s.jpg,0.0,Yellow.png,4.0,84,,,,,,,,,,,,,,,,,
0.0,1.0,1.57701,0.0,23.0,23.0,23.0,1.0,pie_08s.jpg,0.0,Green.png,4.0,84,,,,,,,,,,,,,,,,,
,0.0,,0.0,24.0,24.0,24.0,1.0,thread_08s.jpg,0.0,Blue.png,5.0,84,,,,,,,,,,,,,,,,,
,0.0,,0.0,25.0,25.0,25.0,1.0,punch1_10s.jpg,0.0,Purple.png,5.0,84,,,,,,,,,,,,,,,,,
,0.0,,0.0,26.0,26.0,26.0,1.0,cereal_04s.jpg,0.0,Red.png,5.0,84,,,,,,,,,,,,,,,,,
,0.0,,0.0,27.0,27.0,27.0,1.0,espresso_01b.jpg,0.0,Orange.png,5.0,84,,,,,,,,,,,,,,,,,
1.0,1.0,1.566115,0.0,28.0,28.0,28.0,1.0,cereal_04s.jpg,1.0,Yellow.png,5.0,84,,,,,,,,,,,,,,,,,
1.0,0.0,1.74035,0.0,29.0,29.0,29.0,1.0,cereal_04s.jpg,0.0,Green.png,5.0,84,,,,,,,,,,,,,,,,,
0.0,1.0,1.54972,0.0,30.0,30.0,30.0,1.0,tube_top_03s.jpg,0.0,Blue.png,6.0,84,,,,,,,,,,,,,,,,,
0.0,1.0,1.33856,0.0,31.0,31.0,31.0,1.0,pepper2_21s.jpg,0.0,Purple.png,6.0,84,,,,,,,,,,,,,,,,,
0.0,1.0,1.306635,0.0,32.0,32.0,32.0,1.0,jersey_02s.jpg,0.0,Red.png,6.0,84,,,,,,,,,,,,,,,,,
0.0,1.0,0.709545,0.0,33.0,33.0,33.0,1.0,mussel_11s.jpg,0.0,Orange.png,6.0,84,,,,,,,,,,,,,,,,,
0.0,1.0,1.272935,0.0,34.0,34.0,34.0,1.0,toaster_03s.jpg,0.0,Yellow.png,6.0,84,,,,,,,,,,,,,,,,,
,0.0,,0.0,35.0,35.0,35.0,1.0,tie_03s.jpg,0.0,Green.png,6.0,84,,,,,,,,,,,,,,,,,
,,,,,,,,,0.0,,,84,1.0,0.0,3.514955,0.0,0.0,0.0,0.0,1.0,ice-cream_cone_06s.jpg,police_car_01s.jpg,,,,,,,
,,,,,,,,,0.0,,,84,0.0,1.0,2.6352,0.0,1.0,1.0,1.0,1.0,turf_03s.jpg,pincushion_10s.jpg,,,,,,,
,,,,,,,,,0.0,,,84,1.0,0.0,1.490635,0.0,2.0,2.0,2.0,1.0,purse_05s.jpg,ginger_09s.jpg,,,,,,,
,,,,,,,,,1.0,,,84,0.0,0.0,1.24874,0.0,3.0,3.0,3.0,1.0,jersey_02s.jpg,tie_03s.jpg,,,,,,,
,,,,,,,,,0.0,,,84,0.0,1.0,1.4438,0.0,4.0,4.0,4.0,1.0,toaster_03s.jpg,pepper2_21s.jpg,,,,,,,
,,,,,,,,,0.0,,,84,0.0,1.0,2.061515,0.0,5.0,5.0,5.0,1.0,thread_08s.jpg,squirrel_02s.jpg,,,,,,,
,,,,,,,,,,,,84,,,,,,,,,,,0.0,4.0,4.0,4.0,1.0,new2backpresent_5_1.xlsx,new2back_compare_task_5_1.xlsx
0.0,1.0,1.164125,0.0,0.0,0.0,0.0,1.0,omelet_07s.jpg,0.0,Blue.png,1.0,84,,,,,,,,,,,,,,,,,
0.0,1.0,0.61545,0.0,1.0,1.0,1.0,1.0,popsicle_02s.jpg,0.0,Purple.png,1.0,84,,,,,,,,,,,,,,,,,
0.0,1.0,0.57355,0.0,2.0,2.0,2.0,1.0,letter_opener_03s.jpg,0.0,Red.png,1.0,84,,,,,,,,,,,,,,,,,
0.0,1.0,0.618825,0.0,3.0,3.0,3.0,1.0,diving_board_07s.jpg,0.0,Orange.png,1.0,84,,,,,,,,,,,,,,,,,
1.0,0.0,1.24161,0.0,4.0,4.0,4.0,1.0,omelet_07s.jpg,0.0,Yellow.png,1.0,84,,,,,,,,,,,,,,,,,
1.0,0.0,1.432695,0.0,5.0,5.0,5.0,1.0,letter_opener_03s.jpg,0.0,Green.png,1.0,84,,,,,,,,,,,,,,,,,
1.0,1.0,1.25566,0.0,6.0,6.0,6.0,1.0,omelet_07s.jpg,1.0,Blue.png,2.0,84,,,,,,,,,,,,,,,,,
0.0,1.0,1.053995,0.0,7.0,7.0,7.0,1.0,cape_11s.jpg,0.0,Purple.png,2.0,84,,,,,,,,,,,,,,,,,
1.0,1.0,1.329775,0.0,8.0,8.0,8.0,1.0,omelet_07s.jpg,1.0,Red.png,2.0,84,,,,,,,,,,,,,,,,,
0.0,1.0,1.09284,0.0,9.0,9.0,9.0,1.0,lantern_04s.jpg,0.0,Orange.png,2.0,84,,,,,,,,,,,,,,,,,
0.0,1.0,1.00791,0.0,10.0,10.0,10.0,1.0,leotard_08s.jpg,0.0,Yellow.png,2.0,84,,,,,,,,,,,,,,,,,
,0.0,,0.0,11.0,11.0,11.0,1.0,pacifier_09s.jpg,0.0,Green.png,2.0,84,,,,,,,,,,,,,,,,,
0.0,1.0,1.04051,0.0,12.0,12.0,12.0,1.0,rocking_horse_03s.jpg,0.0,Blue.png,3.0,84,,,,,,,,,,,,,,,,,
0.0,1.0,0.57026,0.0,13.0,13.0,13.0,1.0,cardinal_07s.jpg,0.0,Purple.png,3.0,84,,,,,,,,,,,,,,,,,
0.0,1.0,0.70967,0.0,14.0,14.0,14.0,1.0,hyena_16s.jpg,0.0,Red.png,3.0,84,,,,,,,,,,,,,,,,,
0.0,1.0,0.518075,0.0,15.0,15.0,15.0,1.0,oil_02s.jpg,0.0,Orange.png,3.0,84,,,,,,,,,,,,,,,,,
0.0,1.0,0.61683,0.0,16.0,16.0,16.0,1.0,marshmallow_08s.jpg,0.0,Yellow.png,3.0,84,,,,,,,,,,,,,,,,,
1.0,1.0,1.392955,0.0,17.0,17.0,17.0,1.0,oil_02s.jpg,1.0,Green.png,3.0,84,,,,,,,,,,,,,,,,,
1.0,0.0,1.05408,0.0,18.0,18.0,18.0,1.0,omelet_07s.jpg,0.0,Blue.png,4.0,84,,,,,,,,,,,,,,,,,
1.0,1.0,1.44879,0.0,19.0,19.0,19.0,1.0,oil_02s.jpg,1.0,Purple.png,4.0,84,,,,,,,,,,,,,,,,,
0.0,1.0,1.9111,0.0,20.0,20.0,20.0,1.0,knitting_needle_04s.jpg,0.0,Red.png,4.0,84,,,,,,,,,,,,,,,,,
1.0,1.0,1.163805,0.0,21.0,21.0,21.0,1.0,oil_02s.jpg,1.0,Orange.png,4.0,84,,,,,,,,,,,,,,,,,
0.0,1.0,1.207805,0.0,22.0,22.0,22.0,1.0,ice_pack_09s.jpg,0.0,Yellow.png,4.0,84,,,,,,,,,,,,,,,,,
0.0,1.0,1.954225,0.0,23.0,23.0,23.0,1.0,peppermint_07s.jpg,0.0,Green.png,4.0,84,,,,,,,,,,,,,,,,,
0.0,1.0,1.52483,0.0,24.0,24.0,24.0,1.0,submarine_11n.jpg,0.0,Blue.png,5.0,84,,,,,,,,,,,,,,,,,
,0.0,,0.0,25.0,25.0,25.0,1.0,seagull_01b.jpg,0.0,Purple.png,5.0,84,,,,,,,,,,,,,,,,,
1.0,0.0,0.683895,0.0,26.0,26.0,26.0,1.0,omelet_07s.jpg,0.0,Red.png,5.0,84,,,,,,,,,,,,,,,,,
0.0,1.0,1.32694,0.0,27.0,27.0,27.0,1.0,bonsai_07s.jpg,0.0,Orange.png,5.0,84,,,,,,,,,,,,,,,,,
1.0,0.0,0.905455,0.0,28.0,28.0,28.0,1.0,bonsai_07s.jpg,0.0,Yellow.png,5.0,84,,,,,,,,,,,,,,,,,
1.0,0.0,0.567385,0.0,29.0,29.0,29.0,1.0,omelet_07s.jpg,0.0,Green.png,5.0,84,,,,,,,,,,,,,,,,,
1.0,1.0,0.65201,0.0,30.0,30.0,30.0,1.0,bonsai_07s.jpg,1.0,Blue.png,6.0,84,,,,,,,,,,,,,,,,,
0.0,1.0,0.56775,0.0,31.0,31.0,31.0,1.0,quilt_03s.jpg,0.0,Purple.png,6.0,84,,,,,,,,,,,,,,,,,
0.0,1.0,0.98317,0.0,32.0,32.0,32.0,1.0,incense_02s.jpg,0.0,Red.png,6.0,84,,,,,,,,,,,,,,,,,
0.0,0.0,0.42556,0.0,33.0,33.0,33.0,1.0,quilt_03s.jpg,1.0,Orange.png,6.0,84,,,,,,,,,,,,,,,,,
1.0,1.0,0.925165,0.0,34.0,34.0,34.0,1.0,incense_02s.jpg,1.0,Yellow.png,6.0,84,,,,,,,,,,,,,,,,,
1.0,0.0,0.553935,0.0,35.0,35.0,35.0,1.0,incense_02s.jpg,0.0,Green.png,6.0,84,,,,,,,,,,,,,,,,,
,,,,,,,,,1.0,,,84,0.0,0.0,2.07768,0.0,0.0,0.0,0.0,1.0,pacifier_09s.jpg,hyena_16s.jpg,,,,,,,
,,,,,,,,,0.0,,,84,0.0,1.0,2.799205,0.0,1.0,1.0,1.0,1.0,peppermint_07s.jpg,knitting_needle_04s.jpg,,,,,,,
,,,,,,,,,1.0,,,84,1.0,1.0,2.116605,0.0,2.0,2.0,2.0,1.0,ice_pack_09s.jpg,seagull_01b.jpg,,,,,,,
,,,,,,,,,0.0,,,84,1.0,0.0,1.23322,0.0,3.0,3.0,3.0,1.0,marshmallow_08s.jpg,cardinal_07s.jpg,,,,,,,
,,,,,,,,,1.0,,,84,1.0,1.0,1.000305,0.0,4.0,4.0,4.0,1.0,cape_11s.jpg,leotard_08s.jpg,,,,,,,
,,,,,,,,,1.0,,,84,0.0,0.0,1.238725,0.0,5.0,5.0,5.0,1.0,lantern_04s.jpg,rocking_horse_03s.jpg,,,,,,,
,,,,,,,,,,,,84,,,,,,,,,,,0.0,5.0,5.0,5.0,1.0,new2backpresent_6_1.xlsx,new2back_compare_task_6_1.xlsx
,0.0,,0.0,0.0,0.0,0.0,1.0,petri_dish_12s.jpg,0.0,Blue.png,1.0,84,,,,,,,,,,,,,,,,,
0.0,1.0,0.876025,0.0,1.0,1.0,1.0,1.0,toothpaste_12s.jpg,0.0,Purple.png,1.0,84,,,,,,,,,,,,,,,,,
0.0,1.0,0.490925,0.0,2.0,2.0,2.0,1.0,medal_04s.jpg,0.0,Red.png,1.0,84,,,,,,,,,,,,,,,,,
0.0,1.0,0.507295,0.0,3.0,3.0,3.0,1.0,potholder_02s.jpg,0.0,Orange.png,1.0,84,,,,,,,,,,,,,,,,,
0.0,1.0,0.52715,0.0,4.0,4.0,4.0,1.0,puck_06s.jpg,0.0,Yellow.png,1.0,84,,,,,,,,,,,,,,,,,
0.0,1.0,0.4831,0.0,5.0,5.0,5.0,1.0,bagel_15s.jpg,0.0,Green.png,1.0,84,,,,,,,,,,,,,,,,,
0.0,1.0,0.592115,0.0,6.0,6.0,6.0,1.0,golf_club_03s.jpg,0.0,Blue.png,2.0,84,,,,,,,,,,,,,,,,,
1.0,0.0,1.343615,0.0,7.0,7.0,7.0,1.0,golf_club_03s.jpg,0.0,Purple.png,2.0,84,,,,,,,,,,,,,,,,,
1.0,1.0,1.31878,0.0,8.0,8.0,8.0,1.0,golf_club_03s.jpg,1.0,Red.png,2.0,84,,,,,,,,,,,,,,,,,
0.0,1.0,1.73937,0.0,9.0,9.0,9.0,1.0,inhaler_01b.jpg,0.0,Orange.png,2.0,84,,,,,,,,,,,,,,,,,
1.0,1.0,1.215885,0.0,10.0,10.0,10.0,1.0,golf_club_03s.jpg,1.0,Yellow.png,2.0,84,,,,,,,,,,,,,,,,,
0.0,1.0,1.20583,0.0,11.0,11.0,11.0,1.0,tiger_06s.jpg,0.0,Green.png,2.0,84,,,,,,,,,,,,,,,,,
1.0,0.0,1.371,0.0,12.0,12.0,12.0,1.0,medal_04s.jpg,0.0,Blue.png,3.0,84,,,,,,,,,,,,,,,,,
1.0,0.0,2.14198,0.0,13.0,13.0,13.0,1.0,medal_04s.jpg,0.0,Purple.png,3.0,84,,,,,,,,,,,,,,,,,
1.0,1.0,1.167755,0.0,14.0,14.0,14.0,1.0,medal_04s.jpg,1.0,Red.png,3.0,84,,,,,,,,,,,,,,,,,
,0.0,,0.0,15.0,15.0,15.0,1.0,licorice_06s.jpg,0.0,Orange.png,3.0,84,,,,,,,,,,,,,,,,,
1.0,1.0,1.4579,0.0,16.0,16.0,16.0,1.0,medal_04s.jpg,1.0,Yellow.png,3.0,84,,,,,,,,,,,,,,,,,
0.0,1.0,1.812945,0.0,17.0,17.0,17.0,1.0,frog_09s.jpg,0.0,Green.png,3.0,84,,,,,,,,,,,,,,,,,
0.0,1.0,1.242345,0.0,18.0,18.0,18.0,1.0,laser_pointer_02s.jpg,0.0,Blue.png,4.0,84,,,,,,,,,,,,,,,,,
0.0,1.0,0.97389,0.0,19.0,19.0,19.0,1.0,treasure_08s.jpg,0.0,Purple.png,4.0,84,,,,,,,,,,,,,,,,,
0.0,1.0,2.174795,0.0,20.0,20.0,20.0,1.0,padlock_07s.jpg,0.0,Red.png,4.0,84,,,,,,,,,,,,,,,,,
0.0,1.0,1.57441,0.0,21.0,21.0,21.0,1.0,panda_02s.jpg,0.0,Orange.png,4.0,84,,,,,,,,,,,,,,,,,
0.0,1.0,1.462495,0.0,22.0,22.0,22.0,1.0,plunger_08s.jpg,0.0,Yellow.png,4.0,84,,,,,,,,,,,,,,,,,
0.0,1.0,1.377275,0.0,23.0,23.0,23.0,1.0,pancake_12s.jpg,0.0,Green.png,4.0,84,,,,,,,,,,,,,,,,,
,0.0,,0.0,24.0,24.0,24.0,1.0,fire_pit_10s.jpg,0.0,Blue.png,5.0,84,,,,,,,,,,,,,,,,,
0.0,1.0,1.789205,0.0,25.0,25.0,25.0,1.0,bubble_01b.jpg,0.0,Purple.png,5.0,84,,,,,,,,,,,,,,,,,
,0.0,,0.0,26.0,26.0,26.0,1.0,bubble_01b.jpg,0.0,Red.png,5.0,84,,,,,,,,,,,,,,,,,
1.0,1.0,1.294515,0.0,27.0,27.0,27.0,1.0,bubble_01b.jpg,1.0,Orange.png,5.0,84,,,,,,,,,,,,,,,,,
1.0,1.0,1.04027,0.0,28.0,28.0,28.0,1.0,bubble_01b.jpg,1.0,Yellow.png,5.0,84,,,,,,,,,,,,,,,,,
0.0,1.0,1.007025,0.0,29.0,29.0,29.0,1.0,power_line_08s.jpg,0.0,Green.png,5.0,84,,,,,,,,,,,,,,,,,
1.0,0.0,1.18128,0.0,30.0,30.0,30.0,1.0,golf_club_03s.jpg,0.0,Blue.png,6.0,84,,,,,,,,,,,,,,,,,
0.0,1.0,1.49202,0.0,31.0,31.0,31.0,1.0,kilt_18s.jpg,0.0,Purple.png,6.0,84,,,,,,,,,,,,,,,,,
0.0,1.0,1.5461,0.0,32.0,32.0,32.0,1.0,tupperware_09s.jpg,0.0,Red.png,6.0,84,,,,,,,,,,,,,,,,,
0.0,1.0,1.142435,0.0,33.0,33.0,33.0,1.0,go-kart_10s.jpg,0.0,Orange.png,6.0,84,,,,,,,,,,,,,,,,,
0.0,1.0,0.91034,0.0,34.0,34.0,34.0,1.0,bottle_opener_11s.jpg,0.0,Yellow.png,6.0,84,,,,,,,,,,,,,,,,,
1.0,1.0,1.57237,0.0,35.0,35.0,35.0,1.0,go-kart_10s.jpg,1.0,Green.png,6.0,84,,,,,,,,,,,,,,,,,
,,,,,,,,,1.0,,,84,1.0,1.0,2.343335,0.0,0.0,0.0,0.0,1.0,toothpaste_12s.jpg,puck_06s.jpg,,,,,,,
,,,,,,,,,0.0,,,84,1.0,0.0,1.33047,0.0,1.0,1.0,1.0,1.0,padlock_07s.jpg,frog_09s.jpg,,,,,,,
,,,,,,,,,0.0,,,84,1.0,0.0,1.270155,0.0,2.0,2.0,2.0,1.0,plunger_08s.jpg,treasure_08s.jpg,,,,,,,
,,,,,,,,,1.0,,,84,0.0,0.0,1.18253,0.0,3.0,3.0,3.0,1.0,licorice_06s.jpg,laser_pointer_02s.jpg,,,,,,,
,,,,,,,,,1.0,,,84,1.0,1.0,1.342105,0.0,4.0,4.0,4.0,1.0,petri_dish_12s.jpg,potholder_02s.jpg,,,,,,,
,,,,,,,,,0.0,,,84,1.0,0.0,1.17349,0.0,5.0,5.0,5.0,1.0,tupperware_09s.jpg,power_line_08s.jpg,,,,,,,
,,,,,,,,,,,,84,,,,,,,,,,,0.0,6.0,6.0,6.0,1.0,new2backpresent_7_1.xlsx,new2back_compare_task_7_1.xlsx
0.0,1.0,1.32165,0.0,0.0,0.0,0.0,1.0,toad_09s.jpg,0.0,Blue.png,1.0,84,,,,,,,,,,,,,,,,,
1.0,0.0,0.724715,0.0,1.0,1.0,1.0,1.0,toad_09s.jpg,0.0,Purple.png,1.0,84,,,,,,,,,,,,,,,,,
1.0,1.0,0.69433,0.0,2.0,2.0,2.0,1.0,toad_09s.jpg,1.0,Red.png,1.0,84,,,,,,,,,,,,,,,,,
0.0,1.0,0.827525,0.0,3.0,3.0,3.0,1.0,lamb_04s.jpg,0.0,Orange.png,1.0,84,,,,,,,,,,,,,,,,,
1.0,1.0,0.928865,0.0,4.0,4.0,4.0,1.0,toad_09s.jpg,1.0,Yellow.png,1.0,84,,,,,,,,,,,,,,,,,
0.0,1.0,1.139195,0.0,5.0,5.0,5.0,1.0,possum_09s.jpg,0.0,Green.png,1.0,84,,,,,,,,,,,,,,,,,
0.0,1.0,1.052405,0.0,6.0,6.0,6.0,1.0,reindeer_08s.jpg,0.0,Blue.png,2.0,84,,,,,,,,,,,,,,,,,
,0.0,,0.0,7.0,7.0,7.0,1.0,reindeer_08s.jpg,0.0,Purple.png,2.0,84,,,,,,,,,,,,,,,,,
,0.0,,0.0,8.0,8.0,8.0,1.0,knot_01b.jpg,0.0,Red.png,2.0,84,,,,,,,,,,,,,,,,,
1.0,1.0,0.925675,0.0,9.0,9.0,9.0,1.0,reindeer_08s.jpg,1.0,Orange.png,2.0,84,,,,,,,,,,,,,,,,,
0.0,1.0,1.228595,0.0,10.0,10.0,10.0,1.0,pan_02s.jpg,0.0,Yellow.png,2.0,84,,,,,,,,,,,,,,,,,
0.0,1.0,1.127035,0.0,11.0,11.0,11.0,1.0,ladle_04s.jpg,0.0,Green.png,2.0,84,,,,,,,,,,,,,,,,,
0.0,1.0,0.640605,0.0,12.0,12.0,12.0,1.0,tuxedo_01b.jpg,0.0,Blue.png,3.0,84,,,,,,,,,,,,,,,,,
0.0,1.0,0.729485,0.0,13.0,13.0,13.0,1.0,lemonade_04s.jpg,0.0,Purple.png,3.0,84,,,,,,,,,,,,,,,,,
0.0,1.0,0.66089,0.0,14.0,14.0,14.0,1.0,cobra_05s.jpg,0.0,Red.png,3.0,84,,,,,,,,,,,,,,,,,
0.0,1.0,0.7809,0.0,15.0,15.0,15.0,1.0,pocketknife_12s.jpg,0.0,Orange.png,3.0,84,,,,,,,,,,,,,,,,,
0.0,1.0,0.528255,0.0,16.0,16.0,16.0,1.0,kettle_08s.jpg,0.0,Yellow.png,3.0,84,,,,,,,,,,,,,,,,,
0.0,1.0,1.025815,0.0,17.0,17.0,17.0,1.0,spider_web_03s.jpg,0.0,Green.png,3.0,84,,,,,,,,,,,,,,,,,
0.0,1.0,1.161155,0.0,18.0,18.0,18.0,1.0,pretzel_09s.jpg,0.0,Blue.png,4.0,84,,,,,,,,,,,,,,,,,
0.0,1.0,0.812675,0.0,19.0,19.0,19.0,1.0,rock_08s.jpg,0.0,Purple.png,4.0,84,,,,,,,,,,,,,,,,,
0.0,1.0,0.886615,0.0,20.0,20.0,20.0,1.0,boar_10s.jpg,0.0,Red.png,4.0,84,,,,,,,,,,,,,,,,,
0.0,1.0,0.706225,0.0,21.0,21.0,21.0,1.0,sunglasses_11s.jpg,0.0,Orange.png,4.0,84,,,,,,,,,,,,,,,,,
,0.0,,0.0,22.0,22.0,22.0,1.0,boar_10s.jpg,1.0,Yellow.png,4.0,84,,,,,,,,,,,,,,,,,
,0.0,,0.0,23.0,23.0,23.0,1.0,smoothie_09s.jpg,0.0,Green.png,4.0,84,,,,,,,,,,,,,,,,,
0.0,1.0,0.8532,0.0,24.0,24.0,24.0,1.0,latch_15s.jpg,0.0,Blue.png,5.0,84,,,,,,,,,,,,,,,,,
0.0,1.0,1.607,0.0,25.0,25.0,25.0,1.0,amber_04s.jpg,0.0,Purple.png,5.0,84,,,,,,,,,,,,,,,,,
1.0,0.0,2.094265,0.0,26.0,26.0,26.0,1.0,amber_04s.jpg,0.0,Red.png,5.0,84,,,,,,,,,,,,,,,,,
0.0,1.0,1.276395,0.0,27.0,27.0,27.0,1.0,tennis_ball_06s.jpg,0.0,Orange.png,5.0,84,,,,,,,,,,,,,,,,,
1.0,1.0,1.66549,0.0,28.0,28.0,28.0,1.0,amber_04s.jpg,1.0,Yellow.png,5.0,84,,,,,,,,,,,,,,,,,
0.0,1.0,0.906905,0.0,29.0,29.0,29.0,1.0,milk_02s.jpg,0.0,Green.png,5.0,84,,,,,,,,,,,,,,,,,
0.0,1.0,0.86456,0.0,30.0,30.0,30.0,1.0,coat_rack_01b.jpg,0.0,Blue.png,6.0,84,,,,,,,,,,,,,,,,,
0.0,1.0,0.90868,0.0,31.0,31.0,31.0,1.0,thorn_13s.jpg,0.0,Purple.png,6.0,84,,,,,,,,,,,,,,,,,
1.0,1.0,1.169415,0.0,32.0,32.0,32.0,1.0,coat_rack_01b.jpg,1.0,Red.png,6.0,84,,,,,,,,,,,,,,,,,
0.0,1.0,1.272645,0.0,33.0,33.0,33.0,1.0,razor_blade_01b.jpg,0.0,Orange.png,6.0,84,,,,,,,,,,,,,,,,,
0.0,1.0,1.30611,0.0,34.0,34.0,34.0,1.0,lid_10s.jpg,0.0,Yellow.png,6.0,84,,,,,,,,,,,,,,,,,
1.0,0.0,1.86109,0.0,35.0,35.0,35.0,1.0,lid_10s.jpg,0.0,Green.png,6.0,84,,,,,,,,,,,,,,,,,
,,,,,,,,,0.0,,,84,1.0,0.0,1.825045,0.0,0.0,0.0,0.0,1.0,pocketknife_12s.jpg,tuxedo_01b.jpg,,,,,,,
,,,,,,,,,1.0,,,84,1.0,1.0,1.5105,0.0,1.0,1.0,1.0,1.0,possum_09s.jpg,knot_01b.jpg,,,,,,,
,,,,,,,,,1.0,,,84,0.0,0.0,1.690835,0.0,2.0,2.0,2.0,1.0,pan_02s.jpg,lemonade_04s.jpg,,,,,,,
,,,,,,,,,0.0,,,84,0.0,1.0,1.340055,0.0,3.0,3.0,3.0,1.0,tennis_ball_06s.jpg,latch_15s.jpg,,,,,,,
,,,,,,,,,0.0,,,84,1.0,0.0,1.11917,0.0,4.0,4.0,4.0,1.0,rock_08s.jpg,kettle_08s.jpg,,,,,,,
,,,,,,,,,1.0,,,84,1.0,1.0,1.183245,0.0,5.0,5.0,5.0,1.0,cobra_05s.jpg,spider_web_03s.jpg,,,,,,,
,,,,,,,,,,,,84,,,,,,,,,,,0.0,7.0,7.0,7.0,1.0,new2backpresent_8_1.xlsx,new2back_compare_task_8_1.xlsx
0.0,1.0,1.334035,0.0,0.0,0.0,0.0,1.0,recliner_02s.jpg,0.0,Blue.png,1.0,84,,,,,,,,,,,,,,,,,
0.0,1.0,1.108155,0.0,1.0,1.0,1.0,1.0,lava_02s.jpg,0.0,Purple.png,1.0,84,,,,,,,,,,,,,,,,,
0.0,1.0,0.74582,0.0,2.0,2.0,2.0,1.0,quesadilla_07s.jpg,0.0,Red.png,1.0,84,,,,,,,,,,,,,,,,,
0.0,1.0,0.625465,0.0,3.0,3.0,3.0,1.0,chalice_10s.jpg,0.0,Orange.png,1.0,84,,,,,,,,,,,,,,,,,
0.0,1.0,0.6006,0.0,4.0,4.0,4.0,1.0,tulip_02s.jpg,0.0,Yellow.png,1.0,84,,,,,,,,,,,,,,,,,
1.0,0.0,1.94774,0.0,5.0,5.0,5.0,1.0,quesadilla_07s.jpg,0.0,Green.png,1.0,84,,,,,,,,,,,,,,,,,
0.0,1.0,1.37784,0.0,6.0,6.0,6.0,1.0,lamppost_09s.jpg,0.0,Blue.png,2.0,84,,,,,,,,,,,,,,,,,
0.0,1.0,1.665435,0.0,7.0,7.0,7.0,1.0,chopsticks_08s.jpg,0.0,Purple.png,2.0,84,,,,,,,,,,,,,,,,,
0.0,1.0,1.08247,0.0,8.0,8.0,8.0,1.0,refrigerator_07s.jpg,0.0,Red.png,2.0,84,,,,,,,,,,,,,,,,,
0.0,0.0,1.22538,0.0,9.0,9.0,9.0,1.0,chopsticks_08s.jpg,1.0,Orange.png,2.0,84,,,,,,,,,,,,,,,,,
0.0,1.0,1.250445,0.0,10.0,10.0,10.0,1.0,paper_towel_03s.jpg,0.0,Yellow.png,2.0,84,,,,,,,,,,,,,,,,,
0.0,1.0,1.40697,0.0,11.0,11.0,11.0,1.0,flask_04s.jpg,0.0,Green.png,2.0,84,,,,,,,,,,,,,,,,,
0.0,1.0,1.05676,0.0,12.0,12.0,12.0,1.0,pantyhose_07s.jpg,0.0,Blue.png,3.0,84,,,,,,,,,,,,,,,,,
1.0,1.0,1.543285,0.0,13.0,13.0,13.0,1.0,flask_04s.jpg,1.0,Purple.png,3.0,84,,,,,,,,,,,,,,,,,
1.0,0.0,2.143415,0.0,14.0,14.0,14.0,1.0,chopsticks_08s.jpg,0.0,Red.png,3.0,84,,,,,,,,,,,,,,,,,
0.0,1.0,1.44028,0.0,15.0,15.0,15.0,1.0,seahorse_13s.jpg,0.0,Orange.png,3.0,84,,,,,,,,,,,,,,,,,
0.0,1.0,1.32069,0.0,16.0,16.0,16.0,1.0,pencil_sharpener_09n.jpg,0.0,Yellow.png,3.0,84,,,,,,,,,,,,,,,,,
0.0,1.0,1.55951,0.0,17.0,17.0,17.0,1.0,clover_04s.jpg,0.0,Green.png,3.0,84,,,,,,,,,,,,,,,,,
1.0,1.0,1.89318,0.0,18.0,18.0,18.0,1.0,pencil_sharpener_09n.jpg,1.0,Blue.png,4.0,84,,,,,,,,,,,,,,,,,
0.0,1.0,1.642815,0.0,19.0,19.0,19.0,1.0,fishhook_06s.jpg,0.0,Purple.png,4.0,84,,,,,,,,,,,,,,,,,
1.0,0.0,2.265895,0.0,20.0,20.0,20.0,1.0,clover_04s.jpg,0.0,Red.png,4.0,84,,,,,,,,,,,,,,,,,
0.0,1.0,1.49648,0.0,21.0,21.0,21.0,1.0,stopwatch_04s.jpg,0.0,Orange.png,4.0,84,,,,,,,,,,,,,,,,,
0.0,1.0,1.783515,0.0,22.0,22.0,22.0,1.0,comic_book_02s.jpg,0.0,Yellow.png,4.0,84,,,,,,,,,,,,,,,,,
0.0,1.0,1.10555,0.0,23.0,23.0,23.0,1.0,lab_coat_11s.jpg,0.0,Green.png,4.0,84,,,,,,,,,,,,,,,,,
0.0,1.0,1.2243,0.0,24.0,24.0,24.0,1.0,bolo_tie_08s.jpg,0.0,Blue.png,5.0,84,,,,,,,,,,,,,,,,,
0.0,1.0,1.182425,0.0,25.0,25.0,25.0,1.0,teacup_07s.jpg,0.0,Purple.png,5.0,84,,,,,,,,,,,,,,,,,
0.0,1.0,2.43687,0.0,26.0,26.0,26.0,1.0,eyedropper_12s.jpg,0.0,Red.png,5.0,84,,,,,,,,,,,,,,,,,
0.0,1.0,1.31143,0.0,27.0,27.0,27.0,1.0,frame_06s.jpg,0.0,Orange.png,5.0,84,,,,,,,,,,,,,,,,,
0.0,1.0,1.22717,0.0,28.0,28.0,28.0,1.0,treadmill_06s.jpg,0.0,Yellow.png,5.0,84,,,,,,,,,,,,,,,,,
0.0,1.0,0.968165,0.0,29.0,29.0,29.0,1.0,mug_06s.jpg,0.0,Green.png,5.0,84,,,,,,,,,,,,,,,,,
1.0,0.0,2.077425,0.0,30.0,30.0,30.0,1.0,mug_06s.jpg,0.0,Blue.png,6.0,84,,,,,,,,,,,,,,,,,
1.0,1.0,2.13029,0.0,31.0,31.0,31.0,1.0,mug_06s.jpg,1.0,Purple.png,6.0,84,,,,,,,,,,,,,,,,,
0.0,1.0,1.700485,0.0,32.0,32.0,32.0,1.0,chip_04s.jpg,0.0,Red.png,6.0,84,,,,,,,,,,,,,,,,,
,0.0,,0.0,33.0,33.0,33.0,1.0,gazelle_10s.jpg,0.0,Orange.png,6.0,84,,,,,,,,,,,,,,,,,
1.0,1.0,1.284795,0.0,34.0,34.0,34.0,1.0,chip_04s.jpg,1.0,Yellow.png,6.0,84,,,,,,,,,,,,,,,,,
0.0,1.0,1.322985,0.0,35.0,35.0,35.0,1.0,quill_09s.jpg,0.0,Green.png,6.0,84,,,,,,,,,,,,,,,,,
,,,,,,,,,0.0,,,84,1.0,0.0,2.322715,0.0,0.0,0.0,0.0,1.0,bolo_tie_08s.jpg,stopwatch_04s.jpg,,,,,,,
,,,,,,,,,0.0,,,84,1.0,0.0,1.195505,0.0,1.0,1.0,1.0,1.0,lamppost_09s.jpg,chalice_10s.jpg,,,,,,,
,,,,,,,,,0.0,,,84,0.0,1.0,1.004655,0.0,2.0,2.0,2.0,1.0,eyedropper_12s.jpg,lab_coat_11s.jpg,,,,,,,
,,,,,,,,,1.0,,,84,1.0,1.0,0.926155,0.0,3.0,3.0,3.0,1.0,lava_02s.jpg,tulip_02s.jpg,,,,,,,
,,,,,,,,,0.0,,,84,1.0,0.0,1.19003,0.0,4.0,4.0,4.0,1.0,seahorse_13s.jpg,pantyhose_07s.jpg,,,,,,,
,,,,,,,,,1.0,,,84,0.0,0.0,1.26273,0.0,5.0,5.0,5.0,1.0,fishhook_06s.jpg,comic_book_02s.jpg,,,,,,,
,,,,,,,,,,,,84,,,,,,,,,,,0.0,8.0,8.0,8.0,1.0,new2backpresent_9_1.xlsx,new2back_compare_task_9_1.xlsx
