key_resp.keys,key_resp.corr,key_resp.rt,present_segment.thisRepN,present_segment.thisTrialN,present_segment.thisN,present_segment.thisIndex,present_segment.ran,pictures,answer,clock,segment,participant,key_resp_2.keys,key_resp_2.corr,key_resp_2.rt,compare_segment.thisRepN,compare_segment.thisTrialN,compare_segment.thisN,compare_segment.thisIndex,compare_segment.ran,item_a,item_b,clock_conditions.thisRepN,clock_conditions.thisTrialN,clock_conditions.thisN,clock_conditions.thisIndex,clock_conditions.ran,present,compare
0.0,1.0,1.951725,0.0,0.0,0.0,0.0,1.0,mirror_12s.jpg,0.0,Blue.png,1.0,27,,,,,,,,,,,,,,,,,
0.0,1.0,1.55907,0.0,1.0,1.0,1.0,1.0,polaroid_05s.jpg,0.0,Purple.png,1.0,27,,,,,,,,,,,,,,,,,
1.0,1.0,0.859725,0.0,2.0,2.0,2.0,1.0,polaroid_05s.jpg,1.0,Red.png,1.0,27,,,,,,,,,,,,,,,,,
0.0,1.0,0.73025,0.0,3.0,3.0,3.0,1.0,slingshot_07s.jpg,0.0,Orange.png,1.0,27,,,,,,,,,,,,,,,,,
1.0,1.0,0.959775,0.0,4.0,4.0,4.0,1.0,polaroid_05s.jpg,1.0,Yellow.png,1.0,27,,,,,,,,,,,,,,,,,
0.0,1.0,1.14797,0.0,5.0,5.0,5.0,1.0,kettle_08s.jpg,0.0,Green.png,1.0,27,,,,,,,,,,,,,,,,,
0.0,1.0,0.727525,0.0,6.0,6.0,6.0,1.0,crystal_ball_12s.jpg,0.0,Blue.png,2.0,27,,,,,,,,,,,,,,,,,
0.0,1.0,1.01346,0.0,7.0,7.0,7.0,1.0,iron_13s.jpg,0.0,Purple.png,2.0,27,,,,,,,,,,,,,,,,,
0.0,1.0,0.902015,0.0,8.0,8.0,8.0,1.0,saddle_06s.jpg,0.0,Red.png,2.0,27,,,,,,,,,,,,,,,,,
0.0,1.0,0.728125,0.0,9.0,9.0,9.0,1.0,mango_09s.jpg,0.0,Orange.png,2.0,27,,,,,,,,,,,,,,,,,
0.0,1.0,0.68905,0.0,10.0,10.0,10.0,1.0,ostrich_06s.jpg,0.0,Yellow.png,2.0,27,,,,,,,,,,,,,,,,,
1.0,1.0,1.03534,0.0,11.0,11.0,11.0,1.0,iron_13s.jpg,1.0,Green.png,2.0,27,,,,,,,,,,,,,,,,,
0.0,1.0,0.65722,0.0,12.0,12.0,12.0,1.0,stethoscope_01b.jpg,0.0,Blue.png,3.0,27,,,,,,,,,,,,,,,,,
0.0,1.0,0.498475,0.0,13.0,13.0,13.0,1.0,ruby_15s.jpg,0.0,Purple.png,3.0,27,,,,,,,,,,,,,,,,,
,0.0,,0.0,14.0,14.0,14.0,1.0,mango_09s.jpg,0.0,Red.png,3.0,27,,,,,,,,,,,,,,,,,
0.0,1.0,0.93373,0.0,15.0,15.0,15.0,1.0,target_11s.jpg,0.0,Orange.png,3.0,27,,,,,,,,,,,,,,,,,
1.0,1.0,1.119915,0.0,16.0,16.0,16.0,1.0,mango_09s.jpg,1.0,Yellow.png,3.0,27,,,,,,,,,,,,,,,,,
0.0,1.0,0.73114,0.0,17.0,17.0,17.0,1.0,compass_10n.jpg,0.0,Green.png,3.0,27,,,,,,,,,,,,,,,,,
0.0,1.0,0.7623,0.0,18.0,18.0,18.0,1.0,meatball_13s.jpg,0.0,Blue.png,4.0,27,,,,,,,,,,,,,,,,,
0.0,1.0,0.64654,0.0,19.0,19.0,19.0,1.0,stapler_01b.jpg,0.0,Purple.png,4.0,27,,,,,,,,,,,,,,,,,
1.0,1.0,0.918015,0.0,20.0,20.0,20.0,1.0,meatball_13s.jpg,1.0,Red.png,4.0,27,,,,,,,,,,,,,,,,,
0.0,1.0,0.643445,0.0,21.0,21.0,21.0,1.0,pump_11s.jpg,0.0,Orange.png,4.0,27,,,,,,,,,,,,,,,,,
0.0,1.0,0.647225,0.0,22.0,22.0,22.0,1.0,coral_08s.jpg,0.0,Yellow.png,4.0,27,,,,,,,,,,,,,,,,,
1.0,1.0,0.939445,0.0,23.0,23.0,23.0,1.0,meatball_13s.jpg,1.0,Green.png,4.0,27,,,,,,,,,,,,,,,,,
0.0,1.0,0.588685,0.0,24.0,24.0,24.0,1.0,peach_04s.jpg,0.0,Blue.png,5.0,27,,,,,,,,,,,,,,,,,
0.0,1.0,1.312885,0.0,25.0,25.0,25.0,1.0,meatball_13s.jpg,0.0,Purple.png,5.0,27,,,,,,,,,,,,,,,,,
0.0,1.0,0.54667,0.0,26.0,26.0,26.0,1.0,pie_08s.jpg,0.0,Red.png,5.0,27,,,,,,,,,,,,,,,,,
0.0,1.0,0.57908,0.0,27.0,27.0,27.0,1.0,rollerskate_03s.jpg,0.0,Orange.png,5.0,27,,,,,,,,,,,,,,,,,
0.0,1.0,0.72953,0.0,28.0,28.0,28.0,1.0,trampoline_13s.jpg,0.0,Yellow.png,5.0,27,,,,,,,,,,,,,,,,,
0.0,1.0,0.8978,0.0,29.0,29.0,29.0,1.0,undershirt_02s.jpg,0.0,Green.png,5.0,27,,,,,,,,,,,,,,,,,
0.0,1.0,0.697255,0.0,30.0,30.0,30.0,1.0,thread_08s.jpg,0.0,Blue.png,6.0,27,,,,,,,,,,,,,,,,,
0.0,1.0,0.564935,0.0,31.0,31.0,31.0,1.0,megaphone_03s.jpg,0.0,Purple.png,6.0,27,,,,,,,,,,,,,,,,,
0.0,1.0,0.657355,0.0,32.0,32.0,32.0,1.0,plaster_cast_13s.jpg,0.0,Red.png,6.0,27,,,,,,,,,,,,,,,,,
0.0,1.0,0.627495,0.0,33.0,33.0,33.0,1.0,diving_board_07s.jpg,0.0,Orange.png,6.0,27,,,,,,,,,,,,,,,,,
0.0,1.0,0.605075,0.0,34.0,34.0,34.0,1.0,kayak_08s.jpg,0.0,Yellow.png,6.0,27,,,,,,,,,,,,,,,,,
1.0,1.0,0.865185,0.0,35.0,35.0,35.0,1.0,diving_board_07s.jpg,1.0,Green.png,6.0,27,,,,,,,,,,,,,,,,,
,,,,,,,,,1.0,,,27,0.0,0.0,2.330065,0.0,0.0,0.0,0.0,1.0,stapler_01b.jpg,coral_08s.jpg,,,,,,,
,,,,,,,,,1.0,,,27,1.0,1.0,2.816955,0.0,1.0,1.0,1.0,1.0,slingshot_07s.jpg,crystal_ball_12s.jpg,,,,,,,
,,,,,,,,,0.0,,,27,0.0,1.0,3.36343,0.0,2.0,2.0,2.0,1.0,saddle_06s.jpg,kettle_08s.jpg,,,,,,,
,,,,,,,,,1.0,,,27,1.0,1.0,1.213815,0.0,3.0,3.0,3.0,1.0,pie_08s.jpg,undershirt_02s.jpg,,,,,,,
,,,,,,,,,1.0,,,27,1.0,1.0,1.68784,0.0,4.0,4.0,4.0,1.0,stethoscope_01b.jpg,target_11s.jpg,,,,,,,
,,,,,,,,,1.0,,,27,0.0,0.0,1.278475,0.0,5.0,5.0,5.0,1.0,ostrich_06s.jpg,ruby_15s.jpg,,,,,,,
,,,,,,,,,,,,27,,,,,,,,,,,0.0,0.0,0.0,0.0,1.0,newclockpresent_1_4.xlsx,newclock_compare_task_1_4.xlsx
0.0,1.0,1.646015,0.0,0.0,0.0,0.0,1.0,jetski_10s.jpg,0.0,Blue.png,1.0,27,,,,,,,,,,,,,,,,,
0.0,1.0,0.56709,0.0,1.0,1.0,1.0,1.0,tripod_01b.jpg,0.0,Purple.png,1.0,27,,,,,,,,,,,,,,,,,
0.0,1.0,0.69621,0.0,2.0,2.0,2.0,1.0,lab_coat_11s.jpg,0.0,Red.png,1.0,27,,,,,,,,,,,,,,,,,
0.0,1.0,0.69711,0.0,3.0,3.0,3.0,1.0,foam_03s.jpg,0.0,Orange.png,1.0,27,,,,,,,,,,,,,,,,,
0.0,1.0,0.746825,0.0,4.0,4.0,4.0,1.0,crate_05s.jpg,0.0,Yellow.png,1.0,27,,,,,,,,,,,,,,,,,
0.0,1.0,0.67901,0.0,5.0,5.0,5.0,1.0,margarita_03s.jpg,0.0,Green.png,1.0,27,,,,,,,,,,,,,,,,,
0.0,1.0,0.644955,0.0,6.0,6.0,6.0,1.0,joystick_01b.jpg,0.0,Blue.png,2.0,27,,,,,,,,,,,,,,,,,
0.0,1.0,0.54695,0.0,7.0,7.0,7.0,1.0,giraffe_11s.jpg,0.0,Purple.png,2.0,27,,,,,,,,,,,,,,,,,
0.0,1.0,0.613185,0.0,8.0,8.0,8.0,1.0,quilt_03s.jpg,0.0,Red.png,2.0,27,,,,,,,,,,,,,,,,,
1.0,1.0,0.680455,0.0,9.0,9.0,9.0,1.0,giraffe_11s.jpg,1.0,Orange.png,2.0,27,,,,,,,,,,,,,,,,,
0.0,1.0,0.54216,0.0,10.0,10.0,10.0,1.0,pincushion_10s.jpg,0.0,Yellow.png,2.0,27,,,,,,,,,,,,,,,,,
1.0,1.0,0.593585,0.0,11.0,11.0,11.0,1.0,giraffe_11s.jpg,1.0,Green.png,2.0,27,,,,,,,,,,,,,,,,,
0.0,1.0,1.080575,0.0,12.0,12.0,12.0,1.0,pincushion_10s.jpg,0.0,Blue.png,3.0,27,,,,,,,,,,,,,,,,,
0.0,1.0,1.21109,0.0,13.0,13.0,13.0,1.0,giraffe_11s.jpg,0.0,Purple.png,3.0,27,,,,,,,,,,,,,,,,,
0.0,1.0,0.765125,0.0,14.0,14.0,14.0,1.0,rolling_pin_02s.jpg,0.0,Red.png,3.0,27,,,,,,,,,,,,,,,,,
0.0,1.0,0.71531,0.0,15.0,15.0,15.0,1.0,ticktacktoe_08s.jpg,0.0,Orange.png,3.0,27,,,,,,,,,,,,,,,,,
,0.0,,0.0,16.0,16.0,16.0,1.0,giraffe_11s.jpg,1.0,Yellow.png,3.0,27,,,,,,,,,,,,,,,,,
1.0,1.0,1.130195,0.0,17.0,17.0,17.0,1.0,ticktacktoe_08s.jpg,1.0,Green.png,3.0,27,,,,,,,,,,,,,,,,,
0.0,1.0,0.54444,0.0,18.0,18.0,18.0,1.0,typewriter_11s.jpg,0.0,Blue.png,4.0,27,,,,,,,,,,,,,,,,,
0.0,1.0,0.482825,0.0,19.0,19.0,19.0,1.0,toothpaste_12s.jpg,0.0,Purple.png,4.0,27,,,,,,,,,,,,,,,,,
0.0,1.0,0.597045,0.0,20.0,20.0,20.0,1.0,hummingbird_05s.jpg,0.0,Red.png,4.0,27,,,,,,,,,,,,,,,,,
1.0,1.0,0.69902,0.0,21.0,21.0,21.0,1.0,toothpaste_12s.jpg,1.0,Orange.png,4.0,27,,,,,,,,,,,,,,,,,
1.0,1.0,1.04448,0.0,22.0,22.0,22.0,1.0,toothpaste_12s.jpg,1.0,Yellow.png,4.0,27,,,,,,,,,,,,,,,,,
0.0,1.0,0.74687,0.0,23.0,23.0,23.0,1.0,treadmill_06s.jpg,0.0,Green.png,4.0,27,,,,,,,,,,,,,,,,,
0.0,1.0,1.026085,0.0,24.0,24.0,24.0,1.0,typewriter_11s.jpg,0.0,Blue.png,5.0,27,,,,,,,,,,,,,,,,,
0.0,1.0,0.729895,0.0,25.0,25.0,25.0,1.0,penguin_16s.jpg,0.0,Purple.png,5.0,27,,,,,,,,,,,,,,,,,
0.0,1.0,0.863995,0.0,26.0,26.0,26.0,1.0,olive_05s.jpg,0.0,Red.png,5.0,27,,,,,,,,,,,,,,,,,
1.0,1.0,0.79692,0.0,27.0,27.0,27.0,1.0,penguin_16s.jpg,1.0,Orange.png,5.0,27,,,,,,,,,,,,,,,,,
1.0,1.0,0.71604,0.0,28.0,28.0,28.0,1.0,penguin_16s.jpg,1.0,Yellow.png,5.0,27,,,,,,,,,,,,,,,,,
0.0,1.0,0.69777,0.0,29.0,29.0,29.0,1.0,tab_09s.jpg,0.0,Green.png,5.0,27,,,,,,,,,,,,,,,,,
0.0,1.0,0.88395,0.0,30.0,30.0,30.0,1.0,frame_06s.jpg,0.0,Blue.png,6.0,27,,,,,,,,,,,,,,,,,
0.0,1.0,0.67172,0.0,31.0,31.0,31.0,1.0,mop_08s.jpg,0.0,Purple.png,6.0,27,,,,,,,,,,,,,,,,,
0.0,1.0,0.575865,0.0,32.0,32.0,32.0,1.0,memory_stick_11s.jpg,0.0,Red.png,6.0,27,,,,,,,,,,,,,,,,,
0.0,1.0,1.532405,0.0,33.0,33.0,33.0,1.0,olive_05s.jpg,0.0,Orange.png,6.0,27,,,,,,,,,,,,,,,,,
0.0,1.0,0.68107,0.0,34.0,34.0,34.0,1.0,ravioli_08s.jpg,0.0,Yellow.png,6.0,27,,,,,,,,,,,,,,,,,
0.0,1.0,0.950605,0.0,35.0,35.0,35.0,1.0,mousetrap_15n.jpg,0.0,Green.png,6.0,27,,,,,,,,,,,,,,,,,
,,,,,,,,,1.0,,,27,1.0,1.0,2.27339,0.0,0.0,0.0,0.0,1.0,hummingbird_05s.jpg,treadmill_06s.jpg,,,,,,,
,,,,,,,,,1.0,,,27,0.0,0.0,4.819705,0.0,1.0,1.0,1.0,1.0,margarita_03s.jpg,quilt_03s.jpg,,,,,,,
,,,,,,,,,0.0,,,27,1.0,0.0,1.594335,0.0,2.0,2.0,2.0,1.0,joystick_01b.jpg,foam_03s.jpg,,,,,,,
,,,,,,,,,0.0,,,27,0.0,1.0,1.91761,0.0,3.0,3.0,3.0,1.0,ravioli_08s.jpg,mop_08s.jpg,,,,,,,
,,,,,,,,,1.0,,,27,0.0,0.0,1.597575,0.0,4.0,4.0,4.0,1.0,tab_09s.jpg,memory_stick_11s.jpg,,,,,,,
,,,,,,,,,1.0,,,27,1.0,1.0,1.293255,0.0,5.0,5.0,5.0,1.0,tripod_01b.jpg,crate_05s.jpg,,,,,,,
,,,,,,,,,,,,27,,,,,,,,,,,0.0,1.0,1.0,1.0,1.0,newclockpresent_2_4.xlsx,newclock_compare_task_2_4.xlsx
0.0,1.0,1.89245,0.0,0.0,0.0,0.0,1.0,safety_pin_02s.jpg,0.0,Blue.png,1.0,27,,,,,,,,,,,,,,,,,
1.0,1.0,0.869985,0.0,1.0,1.0,1.0,1.0,safety_pin_02s.jpg,1.0,Purple.png,1.0,27,,,,,,,,,,,,,,,,,
0.0,1.0,0.53099,0.0,2.0,2.0,2.0,1.0,cardinal_07s.jpg,0.0,Red.png,1.0,27,,,,,,,,,,,,,,,,,
1.0,1.0,0.847955,0.0,3.0,3.0,3.0,1.0,safety_pin_02s.jpg,1.0,Orange.png,1.0,27,,,,,,,,,,,,,,,,,
0.0,1.0,0.610715,0.0,4.0,4.0,4.0,1.0,potholder_02s.jpg,0.0,Yellow.png,1.0,27,,,,,,,,,,,,,,,,,
1.0,1.0,0.861495,0.0,5.0,5.0,5.0,1.0,safety_pin_02s.jpg,1.0,Green.png,1.0,27,,,,,,,,,,,,,,,,,
0.0,1.0,0.97289,0.0,6.0,6.0,6.0,1.0,cardinal_07s.jpg,0.0,Blue.png,2.0,27,,,,,,,,,,,,,,,,,
0.0,1.0,0.71005,0.0,7.0,7.0,7.0,1.0,lion_18s.jpg,0.0,Purple.png,2.0,27,,,,,,,,,,,,,,,,,
0.0,1.0,0.89638,0.0,8.0,8.0,8.0,1.0,comic_book_02s.jpg,0.0,Red.png,2.0,27,,,,,,,,,,,,,,,,,
0.0,1.0,0.695445,0.0,9.0,9.0,9.0,1.0,lizard_10n.jpg,0.0,Orange.png,2.0,27,,,,,,,,,,,,,,,,,
0.0,1.0,0.761295,0.0,10.0,10.0,10.0,1.0,rice_12s.jpg,0.0,Yellow.png,2.0,27,,,,,,,,,,,,,,,,,
0.0,1.0,0.87761,0.0,11.0,11.0,11.0,1.0,bagel_15s.jpg,0.0,Green.png,2.0,27,,,,,,,,,,,,,,,,,
0.0,1.0,0.524,0.0,12.0,12.0,12.0,1.0,recliner_02s.jpg,0.0,Blue.png,3.0,27,,,,,,,,,,,,,,,,,
1.0,1.0,0.92902,0.0,13.0,13.0,13.0,1.0,recliner_02s.jpg,1.0,Purple.png,3.0,27,,,,,,,,,,,,,,,,,
0.0,1.0,0.842485,0.0,14.0,14.0,14.0,1.0,luggage_08s.jpg,0.0,Red.png,3.0,27,,,,,,,,,,,,,,,,,
1.0,1.0,0.79217,0.0,15.0,15.0,15.0,1.0,recliner_02s.jpg,1.0,Orange.png,3.0,27,,,,,,,,,,,,,,,,,
0.0,1.0,0.80552,0.0,16.0,16.0,16.0,1.0,onion_10s.jpg,0.0,Yellow.png,3.0,27,,,,,,,,,,,,,,,,,
0.0,1.0,0.647345,0.0,17.0,17.0,17.0,1.0,rosary_03s.jpg,0.0,Green.png,3.0,27,,,,,,,,,,,,,,,,,
0.0,1.0,1.14453,0.0,18.0,18.0,18.0,1.0,smokingpipe.jpg,0.0,Blue.png,4.0,27,,,,,,,,,,,,,,,,,
0.0,1.0,1.019435,0.0,19.0,19.0,19.0,1.0,roulette_wheel_04s.jpg,0.0,Purple.png,4.0,27,,,,,,,,,,,,,,,,,
1.0,1.0,0.746145,0.0,20.0,20.0,20.0,1.0,smokingpipe.jpg,1.0,Red.png,4.0,27,,,,,,,,,,,,,,,,,
0.0,1.0,0.64345,0.0,21.0,21.0,21.0,1.0,orchid_01b.jpg,0.0,Orange.png,4.0,27,,,,,,,,,,,,,,,,,
0.0,1.0,0.71051,0.0,22.0,22.0,22.0,1.0,buoy_04s.jpg,0.0,Yellow.png,4.0,27,,,,,,,,,,,,,,,,,
0.0,1.0,0.79675,0.0,23.0,23.0,23.0,1.0,stopwatch_04s.jpg,0.0,Green.png,4.0,27,,,,,,,,,,,,,,,,,
0.0,1.0,0.261455,0.0,24.0,24.0,24.0,1.0,knitting_needle_04s.jpg,0.0,Blue.png,5.0,27,,,,,,,,,,,,,,,,,
0.0,1.0,0.7523,0.0,25.0,25.0,25.0,1.0,prism_10s.jpg,0.0,Purple.png,5.0,27,,,,,,,,,,,,,,,,,
0.0,1.0,0.54243,0.0,26.0,26.0,26.0,1.0,teapot_03s.jpg,0.0,Red.png,5.0,27,,,,,,,,,,,,,,,,,
0.0,1.0,1.483285,0.0,27.0,27.0,27.0,1.0,fire_pit_10s.jpg,0.0,Orange.png,5.0,27,,,,,,,,,,,,,,,,,
1.0,1.0,1.199635,0.0,28.0,28.0,28.0,1.0,fire_pit_10s.jpg,1.0,Yellow.png,5.0,27,,,,,,,,,,,,,,,,,
1.0,1.0,1.061865,0.0,29.0,29.0,29.0,1.0,fire_pit_10s.jpg,1.0,Green.png,5.0,27,,,,,,,,,,,,,,,,,
0.0,1.0,0.589405,0.0,30.0,30.0,30.0,1.0,ironing_board_07s.jpg,0.0,Blue.png,6.0,27,,,,,,,,,,,,,,,,,
0.0,1.0,1.06531,0.0,31.0,31.0,31.0,1.0,fire_pit_10s.jpg,0.0,Purple.png,6.0,27,,,,,,,,,,,,,,,,,
0.0,1.0,0.62667,0.0,32.0,32.0,32.0,1.0,mattress_01s.jpg,0.0,Red.png,6.0,27,,,,,,,,,,,,,,,,,
1.0,1.0,0.829275,0.0,33.0,33.0,33.0,1.0,fire_pit_10s.jpg,1.0,Orange.png,6.0,27,,,,,,,,,,,,,,,,,
1.0,1.0,0.6571,0.0,34.0,34.0,34.0,1.0,mattress_01s.jpg,1.0,Yellow.png,6.0,27,,,,,,,,,,,,,,,,,
0.0,1.0,0.708365,0.0,35.0,35.0,35.0,1.0,ice-cream_cone_06s.jpg,0.0,Green.png,6.0,27,,,,,,,,,,,,,,,,,
,,,,,,,,,1.0,,,27,0.0,0.0,3.53037,0.0,0.0,0.0,0.0,1.0,roulette_wheel_04s.jpg,buoy_04s.jpg,,,,,,,
,,,,,,,,,0.0,,,27,1.0,0.0,1.979565,0.0,1.0,1.0,1.0,1.0,lion_18s.jpg,potholder_02s.jpg,,,,,,,
,,,,,,,,,0.0,,,27,0.0,1.0,1.898155,0.0,2.0,2.0,2.0,1.0,bagel_15s.jpg,comic_book_02s.jpg,,,,,,,
,,,,,,,,,1.0,,,27,1.0,1.0,2.6324,0.0,3.0,3.0,3.0,1.0,stopwatch_04s.jpg,teapot_03s.jpg,,,,,,,
,,,,,,,,,1.0,,,27,1.0,1.0,1.33427,0.0,4.0,4.0,4.0,1.0,luggage_08s.jpg,rosary_03s.jpg,,,,,,,
,,,,,,,,,1.0,,,27,0.0,0.0,2.14949,0.0,5.0,5.0,5.0,1.0,orchid_01b.jpg,knitting_needle_04s.jpg,,,,,,,
,,,,,,,,,,,,27,,,,,,,,,,,0.0,2.0,2.0,2.0,1.0,newclockpresent_3_4.xlsx,newclock_compare_task_3_4.xlsx
0.0,1.0,1.475395,0.0,0.0,0.0,0.0,1.0,smoothie_09s.jpg,0.0,Blue.png,1.0,27,,,,,,,,,,,,,,,,,
0.0,1.0,0.76065,0.0,1.0,1.0,1.0,1.0,raspberry_12s.jpg,0.0,Purple.png,1.0,27,,,,,,,,,,,,,,,,,
1.0,1.0,0.913135,0.0,2.0,2.0,2.0,1.0,raspberry_12s.jpg,1.0,Red.png,1.0,27,,,,,,,,,,,,,,,,,
0.0,1.0,0.728415,0.0,3.0,3.0,3.0,1.0,lamb_chop_07s.jpg,0.0,Orange.png,1.0,27,,,,,,,,,,,,,,,,,
1.0,1.0,1.171215,0.0,4.0,4.0,4.0,1.0,smoothie_09s.jpg,1.0,Yellow.png,1.0,27,,,,,,,,,,,,,,,,,
1.0,1.0,1.43072,0.0,5.0,5.0,5.0,1.0,raspberry_12s.jpg,1.0,Green.png,1.0,27,,,,,,,,,,,,,,,,,
0.0,1.0,0.71189,0.0,6.0,6.0,6.0,1.0,lava_02s.jpg,0.0,Blue.png,2.0,27,,,,,,,,,,,,,,,,,
0.0,1.0,0.68108,0.0,7.0,7.0,7.0,1.0,trident_07s.jpg,0.0,Purple.png,2.0,27,,,,,,,,,,,,,,,,,
1.0,1.0,0.627,0.0,8.0,8.0,8.0,1.0,trident_07s.jpg,1.0,Red.png,2.0,27,,,,,,,,,,,,,,,,,
1.0,1.0,0.679325,0.0,9.0,9.0,9.0,1.0,trident_07s.jpg,1.0,Orange.png,2.0,27,,,,,,,,,,,,,,,,,
0.0,1.0,0.844395,0.0,10.0,10.0,10.0,1.0,orangutan_03s.jpg,0.0,Yellow.png,2.0,27,,,,,,,,,,,,,,,,,
1.0,1.0,0.776865,0.0,11.0,11.0,11.0,1.0,trident_07s.jpg,1.0,Green.png,2.0,27,,,,,,,,,,,,,,,,,
0.0,1.0,0.99335,0.0,12.0,12.0,12.0,1.0,raspberry_12s.jpg,0.0,Blue.png,3.0,27,,,,,,,,,,,,,,,,,
0.0,1.0,0.911445,0.0,13.0,13.0,13.0,1.0,trident_07s.jpg,0.0,Purple.png,3.0,27,,,,,,,,,,,,,,,,,
0.0,1.0,0.72659,0.0,14.0,14.0,14.0,1.0,lavender_10s.jpg,0.0,Red.png,3.0,27,,,,,,,,,,,,,,,,,
0.0,1.0,0.746055,0.0,15.0,15.0,15.0,1.0,chip_04s.jpg,0.0,Orange.png,3.0,27,,,,,,,,,,,,,,,,,
0.0,1.0,0.77619,0.0,16.0,16.0,16.0,1.0,lamb_04s.jpg,0.0,Yellow.png,3.0,27,,,,,,,,,,,,,,,,,
0.0,1.0,1.00507,0.0,17.0,17.0,17.0,1.0,emerald_02s.jpg,0.0,Green.png,3.0,27,,,,,,,,,,,,,,,,,
0.0,1.0,0.76367,0.0,18.0,18.0,18.0,1.0,pineapple_12s.jpg,0.0,Blue.png,4.0,27,,,,,,,,,,,,,,,,,
0.0,1.0,0.63127,0.0,19.0,19.0,19.0,1.0,sundae_08s.jpg,0.0,Purple.png,4.0,27,,,,,,,,,,,,,,,,,
1.0,1.0,0.68381,0.0,20.0,20.0,20.0,1.0,sundae_08s.jpg,1.0,Red.png,4.0,27,,,,,,,,,,,,,,,,,
0.0,1.0,0.668335,0.0,21.0,21.0,21.0,1.0,squirrel_02s.jpg,0.0,Orange.png,4.0,27,,,,,,,,,,,,,,,,,
0.0,1.0,0.812275,0.0,22.0,22.0,22.0,1.0,roller_coaster_07s.jpg,0.0,Yellow.png,4.0,27,,,,,,,,,,,,,,,,,
1.0,1.0,1.21628,0.0,23.0,23.0,23.0,1.0,sundae_08s.jpg,1.0,Green.png,4.0,27,,,,,,,,,,,,,,,,,
0.0,1.0,0.557275,0.0,24.0,24.0,24.0,1.0,tweezers_03s.jpg,0.0,Blue.png,5.0,27,,,,,,,,,,,,,,,,,
0.0,1.0,1.24407,0.0,25.0,25.0,25.0,1.0,sundae_08s.jpg,0.0,Purple.png,5.0,27,,,,,,,,,,,,,,,,,
0.0,1.0,0.638905,0.0,26.0,26.0,26.0,1.0,rudder_02s.jpg,0.0,Red.png,5.0,27,,,,,,,,,,,,,,,,,
0.0,1.0,0.79717,0.0,27.0,27.0,27.0,1.0,rake_06s.jpg,0.0,Orange.png,5.0,27,,,,,,,,,,,,,,,,,
1.0,1.0,0.547545,0.0,28.0,28.0,28.0,1.0,rake_06s.jpg,1.0,Yellow.png,5.0,27,,,,,,,,,,,,,,,,,
1.0,1.0,0.72811,0.0,29.0,29.0,29.0,1.0,rake_06s.jpg,1.0,Green.png,5.0,27,,,,,,,,,,,,,,,,,
0.0,1.0,0.260805,0.0,30.0,30.0,30.0,1.0,cap_05s.jpg,0.0,Blue.png,6.0,27,,,,,,,,,,,,,,,,,
0.0,1.0,0.964175,0.0,31.0,31.0,31.0,1.0,paper_towel_03s.jpg,0.0,Purple.png,6.0,27,,,,,,,,,,,,,,,,,
0.0,1.0,0.547195,0.0,32.0,32.0,32.0,1.0,toaster_03s.jpg,0.0,Red.png,6.0,27,,,,,,,,,,,,,,,,,
0.0,1.0,0.548735,0.0,33.0,33.0,33.0,1.0,money_07s.jpg,0.0,Orange.png,6.0,27,,,,,,,,,,,,,,,,,
0.0,1.0,0.578295,0.0,34.0,34.0,34.0,1.0,pinwheel_06s.jpg,0.0,Yellow.png,6.0,27,,,,,,,,,,,,,,,,,
0.0,1.0,0.644525,0.0,35.0,35.0,35.0,1.0,lid_10s.jpg,0.0,Green.png,6.0,27,,,,,,,,,,,,,,,,,
,,,,,,,,,0.0,,,27,0.0,1.0,2.127565,0.0,0.0,0.0,0.0,1.0,tweezers_03s.jpg,squirrel_02s.jpg,,,,,,,
,,,,,,,,,1.0,,,27,1.0,1.0,5.21215,0.0,1.0,1.0,1.0,1.0,chip_04s.jpg,pineapple_12s.jpg,,,,,,,
,,,,,,,,,1.0,,,27,0.0,0.0,1.59918,0.0,2.0,2.0,2.0,1.0,lamb_chop_07s.jpg,lava_02s.jpg,,,,,,,
,,,,,,,,,0.0,,,27,0.0,1.0,1.711645,0.0,3.0,3.0,3.0,1.0,pinwheel_06s.jpg,paper_towel_03s.jpg,,,,,,,
,,,,,,,,,0.0,,,27,1.0,0.0,1.573925,0.0,4.0,4.0,4.0,1.0,emerald_02s.jpg,lavender_10s.jpg,,,,,,,
,,,,,,,,,0.0,,,27,0.0,1.0,1.57041,0.0,5.0,5.0,5.0,1.0,money_07s.jpg,cap_05s.jpg,,,,,,,
,,,,,,,,,,,,27,,,,,,,,,,,0.0,3.0,3.0,3.0,1.0,newclockpresent_4_4.xlsx,newclock_compare_task_4_4.xlsx
0.0,1.0,0.910515,0.0,0.0,0.0,0.0,1.0,fur_coat_11s.jpg,0.0,Blue.png,1.0,27,,,,,,,,,,,,,,,,,
0.0,1.0,0.527905,0.0,1.0,1.0,1.0,1.0,crayon_09s.jpg,0.0,Purple.png,1.0,27,,,,,,,,,,,,,,,,,
0.0,1.0,0.794775,0.0,2.0,2.0,2.0,1.0,cobra_05s.jpg,0.0,Red.png,1.0,27,,,,,,,,,,,,,,,,,
0.0,1.0,0.589645,0.0,3.0,3.0,3.0,1.0,raccoon_02s.jpg,0.0,Orange.png,1.0,27,,,,,,,,,,,,,,,,,
0.0,1.0,0.69318,0.0,4.0,4.0,4.0,1.0,soda_fountain_03s.jpg,0.0,Yellow.png,1.0,27,,,,,,,,,,,,,,,,,
1.0,1.0,0.80325,0.0,5.0,5.0,5.0,1.0,raccoon_02s.jpg,1.0,Green.png,1.0,27,,,,,,,,,,,,,,,,,
0.0,1.0,0.66499,0.0,6.0,6.0,6.0,1.0,feather02.jpg,0.0,Blue.png,2.0,27,,,,,,,,,,,,,,,,,
0.0,1.0,1.014805,0.0,7.0,7.0,7.0,1.0,raccoon_02s.jpg,0.0,Purple.png,2.0,27,,,,,,,,,,,,,,,,,
1.0,1.0,1.146635,0.0,8.0,8.0,8.0,1.0,feather02.jpg,1.0,Red.png,2.0,27,,,,,,,,,,,,,,,,,
0.0,1.0,0.69365,0.0,9.0,9.0,9.0,1.0,rug_09s.jpg,0.0,Orange.png,2.0,27,,,,,,,,,,,,,,,,,
1.0,1.0,0.97729,0.0,10.0,10.0,10.0,1.0,feather02.jpg,1.0,Yellow.png,2.0,27,,,,,,,,,,,,,,,,,
0.0,1.0,0.877425,0.0,11.0,11.0,11.0,1.0,cushion_08s.jpg,0.0,Green.png,2.0,27,,,,,,,,,,,,,,,,,
0.0,1.0,0.245125,0.0,12.0,12.0,12.0,1.0,feather02.jpg,0.0,Blue.png,3.0,27,,,,,,,,,,,,,,,,,
1.0,1.0,1.08503,0.0,13.0,13.0,13.0,1.0,feather02.jpg,1.0,Purple.png,3.0,27,,,,,,,,,,,,,,,,,
0.0,1.0,0.690605,0.0,14.0,14.0,14.0,1.0,ice_pack_09s.jpg,0.0,Red.png,3.0,27,,,,,,,,,,,,,,,,,
1.0,1.0,0.89756,0.0,15.0,15.0,15.0,1.0,ice_pack_09s.jpg,1.0,Orange.png,3.0,27,,,,,,,,,,,,,,,,,
0.0,1.0,0.7154,0.0,16.0,16.0,16.0,1.0,loom_05s.jpg,0.0,Yellow.png,3.0,27,,,,,,,,,,,,,,,,,
1.0,1.0,0.682465,0.0,17.0,17.0,17.0,1.0,ice_pack_09s.jpg,1.0,Green.png,3.0,27,,,,,,,,,,,,,,,,,
0.0,1.0,0.856575,0.0,18.0,18.0,18.0,1.0,ice_pack_09s.jpg,0.0,Blue.png,4.0,27,,,,,,,,,,,,,,,,,
1.0,1.0,0.77867,0.0,19.0,19.0,19.0,1.0,ice_pack_09s.jpg,1.0,Purple.png,4.0,27,,,,,,,,,,,,,,,,,
1.0,1.0,0.512645,0.0,20.0,20.0,20.0,1.0,ice_pack_09s.jpg,1.0,Red.png,4.0,27,,,,,,,,,,,,,,,,,
0.0,1.0,0.797995,0.0,21.0,21.0,21.0,1.0,blazer_02s.jpg,0.0,Orange.png,4.0,27,,,,,,,,,,,,,,,,,
0.0,1.0,0.77514,0.0,22.0,22.0,22.0,1.0,penlight_12s.jpg,0.0,Yellow.png,4.0,27,,,,,,,,,,,,,,,,,
0.0,1.0,0.78233,0.0,23.0,23.0,23.0,1.0,swan_11s.jpg,0.0,Green.png,4.0,27,,,,,,,,,,,,,,,,,
0.0,1.0,1.03395,0.0,24.0,24.0,24.0,1.0,plunger_08s.jpg,0.0,Blue.png,5.0,27,,,,,,,,,,,,,,,,,
0.0,1.0,0.73136,0.0,25.0,25.0,25.0,1.0,bottle_opener_11s.jpg,0.0,Purple.png,5.0,27,,,,,,,,,,,,,,,,,
0.0,1.0,0.696895,0.0,26.0,26.0,26.0,1.0,checkbook_11s.jpg,0.0,Red.png,5.0,27,,,,,,,,,,,,,,,,,
0.0,1.0,0.779495,0.0,27.0,27.0,27.0,1.0,ink_08s.jpg,0.0,Orange.png,5.0,27,,,,,,,,,,,,,,,,,
1.0,1.0,0.887515,0.0,28.0,28.0,28.0,1.0,plunger_08s.jpg,1.0,Yellow.png,5.0,27,,,,,,,,,,,,,,,,,
0.0,1.0,1.183145,0.0,29.0,29.0,29.0,1.0,pencil02a.jpg,0.0,Green.png,5.0,27,,,,,,,,,,,,,,,,,
0.0,1.0,0.74347,0.0,30.0,30.0,30.0,1.0,ginger_09s.jpg,0.0,Blue.png,6.0,27,,,,,,,,,,,,,,,,,
0.0,1.0,0.846295,0.0,31.0,31.0,31.0,1.0,taxi_15s.jpg,0.0,Purple.png,6.0,27,,,,,,,,,,,,,,,,,
0.0,1.0,0.59553,0.0,32.0,32.0,32.0,1.0,toy_04s.jpg,0.0,Red.png,6.0,27,,,,,,,,,,,,,,,,,
0.0,1.0,0.796475,0.0,33.0,33.0,33.0,1.0,blowfish_03s.jpg,0.0,Orange.png,6.0,27,,,,,,,,,,,,,,,,,
0.0,1.0,0.809315,0.0,34.0,34.0,34.0,1.0,toilet_paper_12s.jpg,0.0,Yellow.png,6.0,27,,,,,,,,,,,,,,,,,
0.0,1.0,0.94073,0.0,35.0,35.0,35.0,1.0,puddle_02s.jpg,0.0,Green.png,6.0,27,,,,,,,,,,,,,,,,,
,,,,,,,,,1.0,,,27,1.0,1.0,2.64532,0.0,0.0,0.0,0.0,1.0,ink_08s.jpg,ginger_09s.jpg,,,,,,,
,,,,,,,,,0.0,,,27,0.0,1.0,2.922415,0.0,1.0,1.0,1.0,1.0,puddle_02s.jpg,toy_04s.jpg,,,,,,,
,,,,,,,,,0.0,,,27,1.0,0.0,1.69481,0.0,2.0,2.0,2.0,1.0,bottle_opener_11s.jpg,penlight_12s.jpg,,,,,,,
,,,,,,,,,0.0,,,27,0.0,1.0,2.5841,0.0,3.0,3.0,3.0,1.0,checkbook_11s.jpg,swan_11s.jpg,,,,,,,
,,,,,,,,,1.0,,,27,1.0,1.0,1.616115,0.0,4.0,4.0,4.0,1.0,taxi_15s.jpg,toilet_paper_12s.jpg,,,,,,,
,,,,,,,,,1.0,,,27,1.0,1.0,1.549665,0.0,5.0,5.0,5.0,1.0,crayon_09s.jpg,soda_fountain_03s.jpg,,,,,,,
,,,,,,,,,,,,27,,,,,,,,,,,0.0,4.0,4.0,4.0,1.0,newclockpresent_5_4.xlsx,newclock_compare_task_5_4.xlsx
,0.0,,0.0,0.0,0.0,0.0,1.0,flask_04s.jpg,0.0,Blue.png,1.0,27,,,,,,,,,,,,,,,,,
0.0,1.0,1.245165,0.0,1.0,1.0,1.0,1.0,kimono_13s.jpg,0.0,Purple.png,1.0,27,,,,,,,,,,,,,,,,,
0.0,1.0,0.664825,0.0,2.0,2.0,2.0,1.0,limousine_12s.jpg,0.0,Red.png,1.0,27,,,,,,,,,,,,,,,,,
0.0,1.0,0.70698,0.0,3.0,3.0,3.0,1.0,lectern_08s.jpg,0.0,Orange.png,1.0,27,,,,,,,,,,,,,,,,,
1.0,1.0,0.789905,0.0,4.0,4.0,4.0,1.0,kimono_13s.jpg,1.0,Yellow.png,1.0,27,,,,,,,,,,,,,,,,,
0.0,1.0,1.469535,0.0,5.0,5.0,5.0,1.0,doily_13s.jpg,0.0,Green.png,1.0,27,,,,,,,,,,,,,,,,,
0.0,1.0,1.398185,0.0,6.0,6.0,6.0,1.0,kimono_13s.jpg,0.0,Blue.png,2.0,27,,,,,,,,,,,,,,,,,
0.0,1.0,1.784125,0.0,7.0,7.0,7.0,1.0,razor_blade_01b.jpg,0.0,Purple.png,2.0,27,,,,,,,,,,,,,,,,,
1.0,1.0,0.856455,0.0,8.0,8.0,8.0,1.0,razor_blade_01b.jpg,1.0,Red.png,2.0,27,,,,,,,,,,,,,,,,,
0.0,1.0,0.665465,0.0,9.0,9.0,9.0,1.0,champagne_18s.jpg,0.0,Orange.png,2.0,27,,,,,,,,,,,,,,,,,
0.0,1.0,0.797135,0.0,10.0,10.0,10.0,1.0,stamp1_11s.jpg,0.0,Yellow.png,2.0,27,,,,,,,,,,,,,,,,,
1.0,1.0,0.66272,0.0,11.0,11.0,11.0,1.0,champagne_18s.jpg,1.0,Green.png,2.0,27,,,,,,,,,,,,,,,,,
0.0,1.0,0.712965,0.0,12.0,12.0,12.0,1.0,crossbow_10s.jpg,0.0,Blue.png,3.0,27,,,,,,,,,,,,,,,,,
0.0,1.0,0.64273,0.0,13.0,13.0,13.0,1.0,briefcase_03s.jpg,0.0,Purple.png,3.0,27,,,,,,,,,,,,,,,,,
0.0,1.0,0.677875,0.0,14.0,14.0,14.0,1.0,jersey_02s.jpg,0.0,Red.png,3.0,27,,,,,,,,,,,,,,,,,
1.0,1.0,1.149475,0.0,15.0,15.0,15.0,1.0,briefcase_03s.jpg,1.0,Orange.png,3.0,27,,,,,,,,,,,,,,,,,
0.0,1.0,0.676,0.0,16.0,16.0,16.0,1.0,oil_02s.jpg,0.0,Yellow.png,3.0,27,,,,,,,,,,,,,,,,,
0.0,1.0,0.720645,0.0,17.0,17.0,17.0,1.0,tinsel_12s.jpg,0.0,Green.png,3.0,27,,,,,,,,,,,,,,,,,
0.0,1.0,0.275475,0.0,18.0,18.0,18.0,1.0,flask_04s.jpg,0.0,Blue.png,4.0,27,,,,,,,,,,,,,,,,,
0.0,1.0,0.82414,0.0,19.0,19.0,19.0,1.0,fork_04s.jpg,0.0,Purple.png,4.0,27,,,,,,,,,,,,,,,,,
0.0,1.0,0.631245,0.0,20.0,20.0,20.0,1.0,purse_05s.jpg,0.0,Red.png,4.0,27,,,,,,,,,,,,,,,,,
1.0,1.0,0.811905,0.0,21.0,21.0,21.0,1.0,flask_04s.jpg,1.0,Orange.png,4.0,27,,,,,,,,,,,,,,,,,
0.0,1.0,0.693645,0.0,22.0,22.0,22.0,1.0,sledgehammer_03s.jpg,0.0,Yellow.png,4.0,27,,,,,,,,,,,,,,,,,
0.0,1.0,0.76764,0.0,23.0,23.0,23.0,1.0,turf_03s.jpg,0.0,Green.png,4.0,27,,,,,,,,,,,,,,,,,
0.0,1.0,0.744735,0.0,24.0,24.0,24.0,1.0,omelet_07s.jpg,0.0,Blue.png,5.0,27,,,,,,,,,,,,,,,,,
0.0,1.0,1.04238,0.0,25.0,25.0,25.0,1.0,turf_03s.jpg,0.0,Purple.png,5.0,27,,,,,,,,,,,,,,,,,
0.0,1.0,0.72759,0.0,26.0,26.0,26.0,1.0,clover_04s.jpg,0.0,Red.png,5.0,27,,,,,,,,,,,,,,,,,
0.0,1.0,0.917085,0.0,27.0,27.0,27.0,1.0,lip_gloss_06s.jpg,0.0,Orange.png,5.0,27,,,,,,,,,,,,,,,,,
0.0,1.0,0.86206,0.0,28.0,28.0,28.0,1.0,amber_04s.jpg,0.0,Yellow.png,5.0,27,,,,,,,,,,,,,,,,,
0.0,1.0,1.24078,0.0,29.0,29.0,29.0,1.0,tortilla_06s.jpg,0.0,Green.png,5.0,27,,,,,,,,,,,,,,,,,
0.0,1.0,1.04749,0.0,30.0,30.0,30.0,1.0,razor_blade_01b.jpg,0.0,Blue.png,6.0,27,,,,,,,,,,,,,,,,,
0.0,1.0,0.41102,0.0,31.0,31.0,31.0,1.0,tape_measure_11s.jpg,0.0,Purple.png,6.0,27,,,,,,,,,,,,,,,,,
1.0,1.0,0.81013,0.0,32.0,32.0,32.0,1.0,razor_blade_01b.jpg,1.0,Red.png,6.0,27,,,,,,,,,,,,,,,,,
1.0,1.0,0.897455,0.0,33.0,33.0,33.0,1.0,razor_blade_01b.jpg,1.0,Orange.png,6.0,27,,,,,,,,,,,,,,,,,
0.0,1.0,0.66417,0.0,34.0,34.0,34.0,1.0,stingray_02s.jpg,0.0,Yellow.png,6.0,27,,,,,,,,,,,,,,,,,
0.0,1.0,0.666605,0.0,35.0,35.0,35.0,1.0,harpoon.jpg,0.0,Green.png,6.0,27,,,,,,,,,,,,,,,,,
,,,,,,,,,1.0,,,27,1.0,1.0,1.864555,0.0,0.0,0.0,0.0,1.0,oil_02s.jpg,fork_04s.jpg,,,,,,,
,,,,,,,,,0.0,,,27,0.0,1.0,1.625995,0.0,1.0,1.0,1.0,1.0,doily_13s.jpg,limousine_12s.jpg,,,,,,,
,,,,,,,,,0.0,,,27,1.0,0.0,2.94986,0.0,2.0,2.0,2.0,1.0,lip_gloss_06s.jpg,omelet_07s.jpg,,,,,,,
,,,,,,,,,0.0,,,27,0.0,1.0,2.497575,0.0,3.0,3.0,3.0,1.0,tape_measure_11s.jpg,amber_04s.jpg,,,,,,,
,,,,,,,,,0.0,,,27,0.0,1.0,2.731285,0.0,4.0,4.0,4.0,1.0,tortilla_06s.jpg,clover_04s.jpg,,,,,,,
,,,,,,,,,0.0,,,27,1.0,0.0,3.74953,0.0,5.0,5.0,5.0,1.0,purse_05s.jpg,tinsel_12s.jpg,,,,,,,
,,,,,,,,,,,,27,,,,,,,,,,,0.0,5.0,5.0,5.0,1.0,newclockpresent_6_4.xlsx,newclock_compare_task_6_4.xlsx
0.0,1.0,0.74717,0.0,0.0,0.0,0.0,1.0,butter_14s.jpg,0.0,Blue.png,1.0,27,,,,,,,,,,,,,,,,,
1.0,1.0,0.89343,0.0,1.0,1.0,1.0,1.0,butter_14s.jpg,1.0,Purple.png,1.0,27,,,,,,,,,,,,,,,,,
1.0,1.0,0.794105,0.0,2.0,2.0,2.0,1.0,butter_14s.jpg,1.0,Red.png,1.0,27,,,,,,,,,,,,,,,,,
0.0,1.0,0.698755,0.0,3.0,3.0,3.0,1.0,stamp2_08s.jpg,0.0,Orange.png,1.0,27,,,,,,,,,,,,,,,,,
0.0,1.0,0.64468,0.0,4.0,4.0,4.0,1.0,kangaroo_02s.jpg,0.0,Yellow.png,1.0,27,,,,,,,,,,,,,,,,,
0.0,1.0,1.00903,0.0,5.0,5.0,5.0,1.0,camcorder_10s.jpg,0.0,Green.png,1.0,27,,,,,,,,,,,,,,,,,
0.0,1.0,0.783435,0.0,6.0,6.0,6.0,1.0,bank_06s.jpg,0.0,Blue.png,2.0,27,,,,,,,,,,,,,,,,,
0.0,1.0,0.549,0.0,7.0,7.0,7.0,1.0,gear_07s.jpg,0.0,Purple.png,2.0,27,,,,,,,,,,,,,,,,,
1.0,1.0,0.881935,0.0,8.0,8.0,8.0,1.0,bank_06s.jpg,1.0,Red.png,2.0,27,,,,,,,,,,,,,,,,,
0.0,1.0,0.77959,0.0,9.0,9.0,9.0,1.0,funnel_01b.jpg,0.0,Orange.png,2.0,27,,,,,,,,,,,,,,,,,
0.0,1.0,0.62994,0.0,10.0,10.0,10.0,1.0,poinsettia_04s.jpg,0.0,Yellow.png,2.0,27,,,,,,,,,,,,,,,,,
1.0,1.0,0.862775,0.0,11.0,11.0,11.0,1.0,funnel_01b.jpg,1.0,Green.png,2.0,27,,,,,,,,,,,,,,,,,
0.0,1.0,0.644645,0.0,12.0,12.0,12.0,1.0,rooster_03s.jpg,0.0,Blue.png,3.0,27,,,,,,,,,,,,,,,,,
0.0,1.0,0.86278,0.0,13.0,13.0,13.0,1.0,denture_03s.jpg,0.0,Purple.png,3.0,27,,,,,,,,,,,,,,,,,
0.0,1.0,0.68161,0.0,14.0,14.0,14.0,1.0,bean_06s.jpg,0.0,Red.png,3.0,27,,,,,,,,,,,,,,,,,
0.0,1.0,0.59597,0.0,15.0,15.0,15.0,1.0,mud_13s.jpg,0.0,Orange.png,3.0,27,,,,,,,,,,,,,,,,,
0.0,1.0,0.582855,0.0,16.0,16.0,16.0,1.0,keyhole_03s.jpg,0.0,Yellow.png,3.0,27,,,,,,,,,,,,,,,,,
1.0,1.0,0.74596,0.0,17.0,17.0,17.0,1.0,bean_06s.jpg,1.0,Green.png,3.0,27,,,,,,,,,,,,,,,,,
0.0,1.0,0.847095,0.0,18.0,18.0,18.0,1.0,bank_06s.jpg,0.0,Blue.png,4.0,27,,,,,,,,,,,,,,,,,
0.0,1.0,0.67848,0.0,19.0,19.0,19.0,1.0,pomegranate_04s.jpg,0.0,Purple.png,4.0,27,,,,,,,,,,,,,,,,,
0.0,1.0,0.78403,0.0,20.0,20.0,20.0,1.0,chopsticks_08s.jpg,0.0,Red.png,4.0,27,,,,,,,,,,,,,,,,,
0.0,1.0,0.725865,0.0,21.0,21.0,21.0,1.0,contact_lens_15s.jpg,0.0,Orange.png,4.0,27,,,,,,,,,,,,,,,,,
0.0,1.0,0.680895,0.0,22.0,22.0,22.0,1.0,hydrant_10s.jpg,0.0,Yellow.png,4.0,27,,,,,,,,,,,,,,,,,
0.0,1.0,0.730665,0.0,23.0,23.0,23.0,1.0,gingerbread_man_03s.jpg,0.0,Green.png,4.0,27,,,,,,,,,,,,,,,,,
0.0,1.0,0.281675,0.0,24.0,24.0,24.0,1.0,camcorder_10s.jpg,0.0,Blue.png,5.0,27,,,,,,,,,,,,,,,,,
0.0,1.0,0.679505,0.0,25.0,25.0,25.0,1.0,teabag_12s.jpg,0.0,Purple.png,5.0,27,,,,,,,,,,,,,,,,,
0.0,1.0,0.88043,0.0,26.0,26.0,26.0,1.0,radiator_05s.jpg,0.0,Red.png,5.0,27,,,,,,,,,,,,,,,,,
0.0,1.0,0.608605,0.0,27.0,27.0,27.0,1.0,punch1_10s.jpg,0.0,Orange.png,5.0,27,,,,,,,,,,,,,,,,,
0.0,1.0,0.56478,0.0,28.0,28.0,28.0,1.0,mailbox_11s.jpg,0.0,Yellow.png,5.0,27,,,,,,,,,,,,,,,,,
0.0,1.0,0.644825,0.0,29.0,29.0,29.0,1.0,beaker_01b.jpg,0.0,Green.png,5.0,27,,,,,,,,,,,,,,,,,
0.0,1.0,0.726265,0.0,30.0,30.0,30.0,1.0,mailbox_11s.jpg,0.0,Blue.png,6.0,27,,,,,,,,,,,,,,,,,
0.0,1.0,0.521035,0.0,31.0,31.0,31.0,1.0,pipe1_10s.jpg,0.0,Purple.png,6.0,27,,,,,,,,,,,,,,,,,
1.0,1.0,0.778365,0.0,32.0,32.0,32.0,1.0,mailbox_11s.jpg,1.0,Red.png,6.0,27,,,,,,,,,,,,,,,,,
1.0,1.0,0.941845,0.0,33.0,33.0,33.0,1.0,pipe1_10s.jpg,1.0,Orange.png,6.0,27,,,,,,,,,,,,,,,,,
0.0,1.0,0.5621,0.0,34.0,34.0,34.0,1.0,eyedropper_12s.jpg,0.0,Yellow.png,6.0,27,,,,,,,,,,,,,,,,,
0.0,1.0,0.62389,0.0,35.0,35.0,35.0,1.0,rhubarb_03s.jpg,0.0,Green.png,6.0,27,,,,,,,,,,,,,,,,,
,,,,,,,,,0.0,,,27,0.0,1.0,1.761945,0.0,0.0,0.0,0.0,1.0,mud_13s.jpg,rooster_03s.jpg,,,,,,,
,,,,,,,,,1.0,,,27,1.0,1.0,1.73171,0.0,1.0,1.0,1.0,1.0,chopsticks_08s.jpg,gingerbread_man_03s.jpg,,,,,,,
,,,,,,,,,0.0,,,27,0.0,1.0,1.504295,0.0,2.0,2.0,2.0,1.0,beaker_01b.jpg,radiator_05s.jpg,,,,,,,
,,,,,,,,,0.0,,,27,1.0,0.0,1.3109,0.0,3.0,3.0,3.0,1.0,teabag_12s.jpg,hydrant_10s.jpg,,,,,,,
,,,,,,,,,0.0,,,27,1.0,0.0,2.16352,0.0,4.0,4.0,4.0,1.0,denture_03s.jpg,poinsettia_04s.jpg,,,,,,,
,,,,,,,,,1.0,,,27,0.0,0.0,1.36241,0.0,5.0,5.0,5.0,1.0,kangaroo_02s.jpg,gear_07s.jpg,,,,,,,
,,,,,,,,,,,,27,,,,,,,,,,,0.0,6.0,6.0,6.0,1.0,newclockpresent_7_4.xlsx,newclock_compare_task_7_4.xlsx
0.0,1.0,0.72433,0.0,0.0,0.0,0.0,1.0,lamppost_09s.jpg,0.0,Blue.png,1.0,27,,,,,,,,,,,,,,,,,
0.0,1.0,0.57758,0.0,1.0,1.0,1.0,1.0,jewel_01b.jpg,0.0,Purple.png,1.0,27,,,,,,,,,,,,,,,,,
0.0,1.0,0.67879,0.0,2.0,2.0,2.0,1.0,tuxedo_01b.jpg,0.0,Red.png,1.0,27,,,,,,,,,,,,,,,,,
0.0,1.0,0.557435,0.0,3.0,3.0,3.0,1.0,flip_flop_03s.jpg,0.0,Orange.png,1.0,27,,,,,,,,,,,,,,,,,
0.0,1.0,0.742375,0.0,4.0,4.0,4.0,1.0,medal_04s.jpg,0.0,Yellow.png,1.0,27,,,,,,,,,,,,,,,,,
1.0,1.0,0.829905,0.0,5.0,5.0,5.0,1.0,flip_flop_03s.jpg,1.0,Green.png,1.0,27,,,,,,,,,,,,,,,,,
0.0,1.0,0.810555,0.0,6.0,6.0,6.0,1.0,tuxedo_01b.jpg,0.0,Blue.png,2.0,27,,,,,,,,,,,,,,,,,
0.0,1.0,0.712825,0.0,7.0,7.0,7.0,1.0,flip_flop_03s.jpg,0.0,Purple.png,2.0,27,,,,,,,,,,,,,,,,,
0.0,1.0,0.545265,0.0,8.0,8.0,8.0,1.0,fireworks_18s.jpg,0.0,Red.png,2.0,27,,,,,,,,,,,,,,,,,
0.0,1.0,0.532325,0.0,9.0,9.0,9.0,1.0,squirt_gun_03s.jpg,0.0,Orange.png,2.0,27,,,,,,,,,,,,,,,,,
1.0,1.0,1.229015,0.0,10.0,10.0,10.0,1.0,flip_flop_03s.jpg,1.0,Yellow.png,2.0,27,,,,,,,,,,,,,,,,,
0.0,1.0,1.09376,0.0,11.0,11.0,11.0,1.0,puffin_19s.jpg,0.0,Green.png,2.0,27,,,,,,,,,,,,,,,,,
0.0,1.0,0.73492,0.0,12.0,12.0,12.0,1.0,tuxedo_01b.jpg,0.0,Blue.png,3.0,27,,,,,,,,,,,,,,,,,
1.0,1.0,0.78658,0.0,13.0,13.0,13.0,1.0,tuxedo_01b.jpg,1.0,Purple.png,3.0,27,,,,,,,,,,,,,,,,,
0.0,1.0,0.49057,0.0,14.0,14.0,14.0,1.0,snowman_02s.jpg,0.0,Red.png,3.0,27,,,,,,,,,,,,,,,,,
0.0,1.0,0.510545,0.0,15.0,15.0,15.0,1.0,cucumber_07s.jpg,0.0,Orange.png,3.0,27,,,,,,,,,,,,,,,,,
0.0,1.0,0.55949,0.0,16.0,16.0,16.0,1.0,plug_08s.jpg,0.0,Yellow.png,3.0,27,,,,,,,,,,,,,,,,,
1.0,1.0,0.80598,0.0,17.0,17.0,17.0,1.0,cucumber_07s.jpg,1.0,Green.png,3.0,27,,,,,,,,,,,,,,,,,
0.0,1.0,0.75904,0.0,18.0,18.0,18.0,1.0,puffin_19s.jpg,0.0,Blue.png,4.0,27,,,,,,,,,,,,,,,,,
0.0,1.0,0.613795,0.0,19.0,19.0,19.0,1.0,fondue_07s.jpg,0.0,Purple.png,4.0,27,,,,,,,,,,,,,,,,,
0.0,1.0,0.546135,0.0,20.0,20.0,20.0,1.0,lasagna_06s.jpg,0.0,Red.png,4.0,27,,,,,,,,,,,,,,,,,
0.0,1.0,0.524515,0.0,21.0,21.0,21.0,1.0,eiffeltower.jpg,0.0,Orange.png,4.0,27,,,,,,,,,,,,,,,,,
0.0,1.0,0.780895,0.0,22.0,22.0,22.0,1.0,outlet_10s.jpg,0.0,Yellow.png,4.0,27,,,,,,,,,,,,,,,,,
0.0,1.0,0.665335,0.0,23.0,23.0,23.0,1.0,cape_11s.jpg,0.0,Green.png,4.0,27,,,,,,,,,,,,,,,,,
0.0,1.0,0.24699,0.0,24.0,24.0,24.0,1.0,marshmallow_08s.jpg,0.0,Blue.png,5.0,27,,,,,,,,,,,,,,,,,
0.0,1.0,0.478655,0.0,25.0,25.0,25.0,1.0,racehorse_03s.jpg,0.0,Purple.png,5.0,27,,,,,,,,,,,,,,,,,
0.0,1.0,0.54117,0.0,26.0,26.0,26.0,1.0,aluminum_foil_08s.jpg,0.0,Red.png,5.0,27,,,,,,,,,,,,,,,,,
0.0,1.0,0.64532,0.0,27.0,27.0,27.0,1.0,spoon02a.jpg,0.0,Orange.png,5.0,27,,,,,,,,,,,,,,,,,
0.0,1.0,0.663935,0.0,28.0,28.0,28.0,1.0,padlock_07s.jpg,0.0,Yellow.png,5.0,27,,,,,,,,,,,,,,,,,
0.0,1.0,0.77851,0.0,29.0,29.0,29.0,1.0,solar_panel_02s.jpg,0.0,Green.png,5.0,27,,,,,,,,,,,,,,,,,
0.0,1.0,0.40162,0.0,30.0,30.0,30.0,1.0,turtleneck_11s.jpg,0.0,Blue.png,6.0,27,,,,,,,,,,,,,,,,,
0.0,1.0,0.66436,0.0,31.0,31.0,31.0,1.0,pocketknife_12s.jpg,0.0,Purple.png,6.0,27,,,,,,,,,,,,,,,,,
1.0,1.0,0.876645,0.0,32.0,32.0,32.0,1.0,pocketknife_12s.jpg,1.0,Red.png,6.0,27,,,,,,,,,,,,,,,,,
0.0,1.0,0.71278,0.0,33.0,33.0,33.0,1.0,quill_09s.jpg,0.0,Orange.png,6.0,27,,,,,,,,,,,,,,,,,
1.0,1.0,0.762455,0.0,34.0,34.0,34.0,1.0,quill_09s.jpg,1.0,Yellow.png,6.0,27,,,,,,,,,,,,,,,,,
1.0,1.0,0.915925,0.0,35.0,35.0,35.0,1.0,pocketknife_12s.jpg,1.0,Green.png,6.0,27,,,,,,,,,,,,,,,,,
,,,,,,,,,0.0,,,27,0.0,1.0,1.37714,0.0,0.0,0.0,0.0,1.0,cape_11s.jpg,lasagna_06s.jpg,,,,,,,
,,,,,,,,,0.0,,,27,1.0,0.0,3.007765,0.0,1.0,1.0,1.0,1.0,padlock_07s.jpg,racehorse_03s.jpg,,,,,,,
,,,,,,,,,1.0,,,27,1.0,1.0,1.582215,0.0,2.0,2.0,2.0,1.0,spoon02a.jpg,turtleneck_11s.jpg,,,,,,,
,,,,,,,,,0.0,,,27,0.0,1.0,1.31698,0.0,3.0,3.0,3.0,1.0,marshmallow_08s.jpg,eiffeltower.jpg,,,,,,,
,,,,,,,,,0.0,,,27,1.0,0.0,1.66666,0.0,4.0,4.0,4.0,1.0,medal_04s.jpg,jewel_01b.jpg,,,,,,,
,,,,,,,,,1.0,,,27,0.0,0.0,2.39615,0.0,5.0,5.0,5.0,1.0,plug_08s.jpg,fondue_07s.jpg,,,,,,,
,,,,,,,,,,,,27,,,,,,,,,,,0.0,7.0,7.0,7.0,1.0,newclockpresent_8_4.xlsx,newclock_compare_task_8_4.xlsx
0.0,1.0,0.68265,0.0,0.0,0.0,0.0,1.0,footprint_11s.jpg,0.0,Blue.png,1.0,27,,,,,,,,,,,,,,,,,
0.0,1.0,1.06305,0.0,1.0,1.0,1.0,1.0,coffee_filter_10s.jpg,0.0,Purple.png,1.0,27,,,,,,,,,,,,,,,,,
1.0,1.0,0.695285,0.0,2.0,2.0,2.0,1.0,coffee_filter_10s.jpg,1.0,Red.png,1.0,27,,,,,,,,,,,,,,,,,
1.0,1.0,0.548195,0.0,3.0,3.0,3.0,1.0,coffee_filter_10s.jpg,1.0,Orange.png,1.0,27,,,,,,,,,,,,,,,,,
1.0,1.0,0.602225,0.0,4.0,4.0,4.0,1.0,coffee_filter_10s.jpg,1.0,Yellow.png,1.0,27,,,,,,,,,,,,,,,,,
0.0,1.0,1.543815,0.0,5.0,5.0,5.0,1.0,gargoyle_08s.jpg,0.0,Green.png,1.0,27,,,,,,,,,,,,,,,,,
0.0,1.0,0.58167,0.0,6.0,6.0,6.0,1.0,candy_cane_06s.jpg,0.0,Blue.png,2.0,27,,,,,,,,,,,,,,,,,
0.0,1.0,0.520105,0.0,7.0,7.0,7.0,1.0,toad_09s.jpg,0.0,Purple.png,2.0,27,,,,,,,,,,,,,,,,,
1.0,1.0,0.71153,0.0,8.0,8.0,8.0,1.0,candy_cane_06s.jpg,1.0,Red.png,2.0,27,,,,,,,,,,,,,,,,,
0.0,1.0,0.545515,0.0,9.0,9.0,9.0,1.0,pumpkin_03s.jpg,0.0,Orange.png,2.0,27,,,,,,,,,,,,,,,,,
0.0,1.0,0.610175,0.0,10.0,10.0,10.0,1.0,dashboard_02s.jpg,0.0,Yellow.png,2.0,27,,,,,,,,,,,,,,,,,
0.0,1.0,0.63898,0.0,11.0,11.0,11.0,1.0,syringe_02s.jpg,0.0,Green.png,2.0,27,,,,,,,,,,,,,,,,,
0.0,1.0,0.54114,0.0,12.0,12.0,12.0,1.0,powder_07s.jpg,0.0,Blue.png,3.0,27,,,,,,,,,,,,,,,,,
1.0,1.0,0.627985,0.0,13.0,13.0,13.0,1.0,powder_07s.jpg,1.0,Purple.png,3.0,27,,,,,,,,,,,,,,,,,
1.0,1.0,0.57897,0.0,14.0,14.0,14.0,1.0,powder_07s.jpg,1.0,Red.png,3.0,27,,,,,,,,,,,,,,,,,
0.0,1.0,0.592125,0.0,15.0,15.0,15.0,1.0,sea_urchin_09s.jpg,0.0,Orange.png,3.0,27,,,,,,,,,,,,,,,,,
0.0,1.0,0.677485,0.0,16.0,16.0,16.0,1.0,throne_11s.jpg,0.0,Yellow.png,3.0,27,,,,,,,,,,,,,,,,,
1.0,1.0,0.84271,0.0,17.0,17.0,17.0,1.0,powder_07s.jpg,1.0,Green.png,3.0,27,,,,,,,,,,,,,,,,,
0.0,1.0,0.622385,0.0,18.0,18.0,18.0,1.0,chalice_10s.jpg,0.0,Blue.png,4.0,27,,,,,,,,,,,,,,,,,
0.0,1.0,0.684145,0.0,19.0,19.0,19.0,1.0,air_pump_05s.jpg,0.0,Purple.png,4.0,27,,,,,,,,,,,,,,,,,
0.0,1.0,0.607695,0.0,20.0,20.0,20.0,1.0,microwave_02s.jpg,0.0,Red.png,4.0,27,,,,,,,,,,,,,,,,,
0.0,1.0,0.626465,0.0,21.0,21.0,21.0,1.0,cereal_04s.jpg,0.0,Orange.png,4.0,27,,,,,,,,,,,,,,,,,
0.0,1.0,0.626405,0.0,22.0,22.0,22.0,1.0,mushroom_10n.jpg,0.0,Yellow.png,4.0,27,,,,,,,,,,,,,,,,,
0.0,1.0,0.951365,0.0,23.0,23.0,23.0,1.0,red_carpet_03s.jpg,0.0,Green.png,4.0,27,,,,,,,,,,,,,,,,,
0.0,1.0,0.965005,0.0,24.0,24.0,24.0,1.0,throne_11s.jpg,0.0,Blue.png,5.0,27,,,,,,,,,,,,,,,,,
0.0,1.0,0.86079,0.0,25.0,25.0,25.0,1.0,koala_13s.jpg,0.0,Purple.png,5.0,27,,,,,,,,,,,,,,,,,
1.0,1.0,1.11406,0.0,26.0,26.0,26.0,1.0,throne_11s.jpg,1.0,Red.png,5.0,27,,,,,,,,,,,,,,,,,
0.0,1.0,0.616455,0.0,27.0,27.0,27.0,1.0,rocket_02s.jpg,0.0,Orange.png,5.0,27,,,,,,,,,,,,,,,,,
0.0,1.0,0.693205,0.0,28.0,28.0,28.0,1.0,swordfish_05s.jpg,0.0,Yellow.png,5.0,27,,,,,,,,,,,,,,,,,
1.0,1.0,1.28022,0.0,29.0,29.0,29.0,1.0,rocket_02s.jpg,1.0,Green.png,5.0,27,,,,,,,,,,,,,,,,,
0.0,1.0,0.676225,0.0,30.0,30.0,30.0,1.0,icicle_04s.jpg,0.0,Blue.png,6.0,27,,,,,,,,,,,,,,,,,
0.0,1.0,0.566425,0.0,31.0,31.0,31.0,1.0,keyboard_05s.jpg,0.0,Purple.png,6.0,27,,,,,,,,,,,,,,,,,
0.0,1.0,0.861165,0.0,32.0,32.0,32.0,1.0,pocket_watch_16s.jpg,0.0,Red.png,6.0,27,,,,,,,,,,,,,,,,,
0.0,1.0,0.688965,0.0,33.0,33.0,33.0,1.0,tablet_04s.jpg,0.0,Orange.png,6.0,27,,,,,,,,,,,,,,,,,
0.0,1.0,0.675785,0.0,34.0,34.0,34.0,1.0,chocolate_01b.jpg,0.0,Yellow.png,6.0,27,,,,,,,,,,,,,,,,,
0.0,1.0,0.629325,0.0,35.0,35.0,35.0,1.0,light_switch_02s.jpg,0.0,Green.png,6.0,27,,,,,,,,,,,,,,,,,
,,,,,,,,,0.0,,,27,0.0,1.0,2.498095,0.0,0.0,0.0,0.0,1.0,chalice_10s.jpg,sea_urchin_09s.jpg,,,,,,,
,,,,,,,,,1.0,,,27,1.0,1.0,2.281935,0.0,1.0,1.0,1.0,1.0,swordfish_05s.jpg,keyboard_05s.jpg,,,,,,,
,,,,,,,,,0.0,,,27,0.0,1.0,1.561835,0.0,2.0,2.0,2.0,1.0,red_carpet_03s.jpg,microwave_02s.jpg,,,,,,,
,,,,,,,,,0.0,,,27,0.0,1.0,3.303075,0.0,3.0,3.0,3.0,1.0,dashboard_02s.jpg,toad_09s.jpg,,,,,,,
,,,,,,,,,0.0,,,27,1.0,0.0,1.26505,0.0,4.0,4.0,4.0,1.0,koala_13s.jpg,mushroom_10n.jpg,,,,,,,
,,,,,,,,,1.0,,,27,1.0,1.0,2.87856,0.0,5.0,5.0,5.0,1.0,icicle_04s.jpg,tablet_04s.jpg,,,,,,,
,,,,,,,,,,,,27,,,,,,,,,,,0.0,8.0,8.0,8.0,1.0,newclockpresent_9_4.xlsx,newclock_compare_task_9_4.xlsx
