key_resp.keys,key_resp.corr,key_resp.rt,present_segment.thisRepN,present_segment.thisTrialN,present_segment.thisN,present_segment.thisIndex,present_segment.ran,pictures,answer,clock,segment,participant,key_resp_2.keys,key_resp_2.corr,key_resp_2.rt,compare_segment.thisRepN,compare_segment.thisTrialN,compare_segment.thisN,compare_segment.thisIndex,compare_segment.ran,item_a,item_b,clock_conditions.thisRepN,clock_conditions.thisTrialN,clock_conditions.thisN,clock_conditions.thisIndex,clock_conditions.ran,present,compare
0.0,1.0,0.9507,0.0,0.0,0.0,0.0,1.0,mirror_12s.jpg,0.0,Blue.png,1.0,22,,,,,,,,,,,,,,,,,
0.0,1.0,0.7763,0.0,1.0,1.0,1.0,1.0,polaroid_05s.jpg,0.0,Purple.png,1.0,22,,,,,,,,,,,,,,,,,
1.0,1.0,0.7509,0.0,2.0,2.0,2.0,1.0,polaroid_05s.jpg,1.0,Red.png,1.0,22,,,,,,,,,,,,,,,,,
0.0,1.0,0.8512,0.0,3.0,3.0,3.0,1.0,slingshot_07s.jpg,0.0,Orange.png,1.0,22,,,,,,,,,,,,,,,,,
1.0,1.0,0.9054,0.0,4.0,4.0,4.0,1.0,polaroid_05s.jpg,1.0,Yellow.png,1.0,22,,,,,,,,,,,,,,,,,
0.0,1.0,0.7209,0.0,5.0,5.0,5.0,1.0,kettle_08s.jpg,0.0,Green.png,1.0,22,,,,,,,,,,,,,,,,,
0.0,1.0,0.6913,0.0,6.0,6.0,6.0,1.0,crystal_ball_12s.jpg,0.0,Blue.png,2.0,22,,,,,,,,,,,,,,,,,
0.0,1.0,0.6944,0.0,7.0,7.0,7.0,1.0,iron_13s.jpg,0.0,Purple.png,2.0,22,,,,,,,,,,,,,,,,,
0.0,1.0,0.6842,0.0,8.0,8.0,8.0,1.0,saddle_06s.jpg,0.0,Red.png,2.0,22,,,,,,,,,,,,,,,,,
0.0,1.0,0.7652,0.0,9.0,9.0,9.0,1.0,mango_09s.jpg,0.0,Orange.png,2.0,22,,,,,,,,,,,,,,,,,
0.0,1.0,1.5143,0.0,10.0,10.0,10.0,1.0,ostrich_06s.jpg,0.0,Yellow.png,2.0,22,,,,,,,,,,,,,,,,,
1.0,1.0,1.6996,0.0,11.0,11.0,11.0,1.0,iron_13s.jpg,1.0,Green.png,2.0,22,,,,,,,,,,,,,,,,,
0.0,1.0,0.8488,0.0,12.0,12.0,12.0,1.0,stethoscope_01b.jpg,0.0,Blue.png,3.0,22,,,,,,,,,,,,,,,,,
0.0,1.0,0.8231,0.0,13.0,13.0,13.0,1.0,ruby_15s.jpg,0.0,Purple.png,3.0,22,,,,,,,,,,,,,,,,,
0.0,1.0,1.3933,0.0,14.0,14.0,14.0,1.0,mango_09s.jpg,0.0,Red.png,3.0,22,,,,,,,,,,,,,,,,,
0.0,1.0,0.5743,0.0,15.0,15.0,15.0,1.0,target_11s.jpg,0.0,Orange.png,3.0,22,,,,,,,,,,,,,,,,,
1.0,1.0,1.0005,0.0,16.0,16.0,16.0,1.0,mango_09s.jpg,1.0,Yellow.png,3.0,22,,,,,,,,,,,,,,,,,
0.0,1.0,0.8159,0.0,17.0,17.0,17.0,1.0,compass_10n.jpg,0.0,Green.png,3.0,22,,,,,,,,,,,,,,,,,
0.0,1.0,0.6525,0.0,18.0,18.0,18.0,1.0,meatball_13s.jpg,0.0,Blue.png,4.0,22,,,,,,,,,,,,,,,,,
0.0,1.0,0.8441,0.0,19.0,19.0,19.0,1.0,stapler_01b.jpg,0.0,Purple.png,4.0,22,,,,,,,,,,,,,,,,,
1.0,1.0,0.8158,0.0,20.0,20.0,20.0,1.0,meatball_13s.jpg,1.0,Red.png,4.0,22,,,,,,,,,,,,,,,,,
0.0,1.0,0.8463,0.0,21.0,21.0,21.0,1.0,pump_11s.jpg,0.0,Orange.png,4.0,22,,,,,,,,,,,,,,,,,
0.0,1.0,0.6512,0.0,22.0,22.0,22.0,1.0,coral_08s.jpg,0.0,Yellow.png,4.0,22,,,,,,,,,,,,,,,,,
1.0,1.0,0.8443,0.0,23.0,23.0,23.0,1.0,meatball_13s.jpg,1.0,Green.png,4.0,22,,,,,,,,,,,,,,,,,
0.0,1.0,0.5082,0.0,24.0,24.0,24.0,1.0,peach_04s.jpg,0.0,Blue.png,5.0,22,,,,,,,,,,,,,,,,,
0.0,1.0,1.1138,0.0,25.0,25.0,25.0,1.0,meatball_13s.jpg,0.0,Purple.png,5.0,22,,,,,,,,,,,,,,,,,
0.0,1.0,0.674,0.0,26.0,26.0,26.0,1.0,pie_08s.jpg,0.0,Red.png,5.0,22,,,,,,,,,,,,,,,,,
0.0,1.0,0.7023,0.0,27.0,27.0,27.0,1.0,rollerskate_03s.jpg,0.0,Orange.png,5.0,22,,,,,,,,,,,,,,,,,
0.0,1.0,0.5964,0.0,28.0,28.0,28.0,1.0,trampoline_13s.jpg,0.0,Yellow.png,5.0,22,,,,,,,,,,,,,,,,,
0.0,1.0,0.691,0.0,29.0,29.0,29.0,1.0,undershirt_02s.jpg,0.0,Green.png,5.0,22,,,,,,,,,,,,,,,,,
0.0,1.0,0.5799,0.0,30.0,30.0,30.0,1.0,thread_08s.jpg,0.0,Blue.png,6.0,22,,,,,,,,,,,,,,,,,
0.0,1.0,0.7238,0.0,31.0,31.0,31.0,1.0,megaphone_03s.jpg,0.0,Purple.png,6.0,22,,,,,,,,,,,,,,,,,
0.0,1.0,0.7039,0.0,32.0,32.0,32.0,1.0,plaster_cast_13s.jpg,0.0,Red.png,6.0,22,,,,,,,,,,,,,,,,,
0.0,1.0,0.6094,0.0,33.0,33.0,33.0,1.0,diving_board_07s.jpg,0.0,Orange.png,6.0,22,,,,,,,,,,,,,,,,,
0.0,1.0,1.2769,0.0,34.0,34.0,34.0,1.0,kayak_08s.jpg,0.0,Yellow.png,6.0,22,,,,,,,,,,,,,,,,,
1.0,1.0,0.9611,0.0,35.0,35.0,35.0,1.0,diving_board_07s.jpg,1.0,Green.png,6.0,22,,,,,,,,,,,,,,,,,
,,,,,,,,,1.0,,,22,1.0,1.0,4.4252,0.0,0.0,0.0,0.0,1.0,stapler_01b.jpg,coral_08s.jpg,,,,,,,
,,,,,,,,,1.0,,,22,1.0,1.0,2.3629,0.0,1.0,1.0,1.0,1.0,slingshot_07s.jpg,crystal_ball_12s.jpg,,,,,,,
,,,,,,,,,0.0,,,22,1.0,0.0,2.7961,0.0,2.0,2.0,2.0,1.0,saddle_06s.jpg,kettle_08s.jpg,,,,,,,
,,,,,,,,,1.0,,,22,1.0,1.0,2.3187,0.0,3.0,3.0,3.0,1.0,pie_08s.jpg,undershirt_02s.jpg,,,,,,,
,,,,,,,,,1.0,,,22,0.0,0.0,5.5408,0.0,4.0,4.0,4.0,1.0,stethoscope_01b.jpg,target_11s.jpg,,,,,,,
,,,,,,,,,1.0,,,22,0.0,0.0,0.9299,0.0,5.0,5.0,5.0,1.0,ostrich_06s.jpg,ruby_15s.jpg,,,,,,,
,,,,,,,,,,,,22,,,,,,,,,,,0.0,0.0,0.0,0.0,1.0,newclockpresent_1_4.xlsx,newclock_compare_task_1_4.xlsx
0.0,1.0,1.1451,0.0,0.0,0.0,0.0,1.0,jetski_10s.jpg,0.0,Blue.png,1.0,22,,,,,,,,,,,,,,,,,
0.0,1.0,0.6658,0.0,1.0,1.0,1.0,1.0,tripod_01b.jpg,0.0,Purple.png,1.0,22,,,,,,,,,,,,,,,,,
0.0,1.0,0.7069,0.0,2.0,2.0,2.0,1.0,lab_coat_11s.jpg,0.0,Red.png,1.0,22,,,,,,,,,,,,,,,,,
0.0,1.0,0.9165,0.0,3.0,3.0,3.0,1.0,foam_03s.jpg,0.0,Orange.png,1.0,22,,,,,,,,,,,,,,,,,
0.0,1.0,1.2104,0.0,4.0,4.0,4.0,1.0,crate_05s.jpg,0.0,Yellow.png,1.0,22,,,,,,,,,,,,,,,,,
0.0,1.0,0.6343,0.0,5.0,5.0,5.0,1.0,margarita_03s.jpg,0.0,Green.png,1.0,22,,,,,,,,,,,,,,,,,
0.0,1.0,0.7507,0.0,6.0,6.0,6.0,1.0,joystick_01b.jpg,0.0,Blue.png,2.0,22,,,,,,,,,,,,,,,,,
0.0,1.0,0.5749,0.0,7.0,7.0,7.0,1.0,giraffe_11s.jpg,0.0,Purple.png,2.0,22,,,,,,,,,,,,,,,,,
0.0,1.0,0.6841,0.0,8.0,8.0,8.0,1.0,quilt_03s.jpg,0.0,Red.png,2.0,22,,,,,,,,,,,,,,,,,
0.0,0.0,1.2231,0.0,9.0,9.0,9.0,1.0,giraffe_11s.jpg,1.0,Orange.png,2.0,22,,,,,,,,,,,,,,,,,
0.0,1.0,0.6249,0.0,10.0,10.0,10.0,1.0,pincushion_10s.jpg,0.0,Yellow.png,2.0,22,,,,,,,,,,,,,,,,,
1.0,1.0,0.7475,0.0,11.0,11.0,11.0,1.0,giraffe_11s.jpg,1.0,Green.png,2.0,22,,,,,,,,,,,,,,,,,
0.0,1.0,0.4914,0.0,12.0,12.0,12.0,1.0,pincushion_10s.jpg,0.0,Blue.png,3.0,22,,,,,,,,,,,,,,,,,
0.0,1.0,0.9739,0.0,13.0,13.0,13.0,1.0,giraffe_11s.jpg,0.0,Purple.png,3.0,22,,,,,,,,,,,,,,,,,
0.0,1.0,0.6278,0.0,14.0,14.0,14.0,1.0,rolling_pin_02s.jpg,0.0,Red.png,3.0,22,,,,,,,,,,,,,,,,,
0.0,1.0,0.7504,0.0,15.0,15.0,15.0,1.0,ticktacktoe_08s.jpg,0.0,Orange.png,3.0,22,,,,,,,,,,,,,,,,,
1.0,1.0,2.4495,0.0,16.0,16.0,16.0,1.0,giraffe_11s.jpg,1.0,Yellow.png,3.0,22,,,,,,,,,,,,,,,,,
1.0,1.0,1.1153,0.0,17.0,17.0,17.0,1.0,ticktacktoe_08s.jpg,1.0,Green.png,3.0,22,,,,,,,,,,,,,,,,,
0.0,1.0,0.7144,0.0,18.0,18.0,18.0,1.0,typewriter_11s.jpg,0.0,Blue.png,4.0,22,,,,,,,,,,,,,,,,,
0.0,1.0,0.613,0.0,19.0,19.0,19.0,1.0,toothpaste_12s.jpg,0.0,Purple.png,4.0,22,,,,,,,,,,,,,,,,,
0.0,1.0,0.6704,0.0,20.0,20.0,20.0,1.0,hummingbird_05s.jpg,0.0,Red.png,4.0,22,,,,,,,,,,,,,,,,,
1.0,1.0,0.8445,0.0,21.0,21.0,21.0,1.0,toothpaste_12s.jpg,1.0,Orange.png,4.0,22,,,,,,,,,,,,,,,,,
1.0,1.0,0.8785,0.0,22.0,22.0,22.0,1.0,toothpaste_12s.jpg,1.0,Yellow.png,4.0,22,,,,,,,,,,,,,,,,,
0.0,1.0,0.7006,0.0,23.0,23.0,23.0,1.0,treadmill_06s.jpg,0.0,Green.png,4.0,22,,,,,,,,,,,,,,,,,
0.0,1.0,0.7122,0.0,24.0,24.0,24.0,1.0,typewriter_11s.jpg,0.0,Blue.png,5.0,22,,,,,,,,,,,,,,,,,
0.0,1.0,0.6689,0.0,25.0,25.0,25.0,1.0,penguin_16s.jpg,0.0,Purple.png,5.0,22,,,,,,,,,,,,,,,,,
0.0,1.0,0.8705,0.0,26.0,26.0,26.0,1.0,olive_05s.jpg,0.0,Red.png,5.0,22,,,,,,,,,,,,,,,,,
1.0,1.0,1.0731,0.0,27.0,27.0,27.0,1.0,penguin_16s.jpg,1.0,Orange.png,5.0,22,,,,,,,,,,,,,,,,,
1.0,1.0,0.8281,0.0,28.0,28.0,28.0,1.0,penguin_16s.jpg,1.0,Yellow.png,5.0,22,,,,,,,,,,,,,,,,,
0.0,1.0,0.8228,0.0,29.0,29.0,29.0,1.0,tab_09s.jpg,0.0,Green.png,5.0,22,,,,,,,,,,,,,,,,,
0.0,1.0,0.9793,0.0,30.0,30.0,30.0,1.0,frame_06s.jpg,0.0,Blue.png,6.0,22,,,,,,,,,,,,,,,,,
0.0,1.0,0.6126,0.0,31.0,31.0,31.0,1.0,mop_08s.jpg,0.0,Purple.png,6.0,22,,,,,,,,,,,,,,,,,
0.0,1.0,0.7951,0.0,32.0,32.0,32.0,1.0,memory_stick_11s.jpg,0.0,Red.png,6.0,22,,,,,,,,,,,,,,,,,
0.0,1.0,1.4725,0.0,33.0,33.0,33.0,1.0,olive_05s.jpg,0.0,Orange.png,6.0,22,,,,,,,,,,,,,,,,,
0.0,1.0,0.7408,0.0,34.0,34.0,34.0,1.0,ravioli_08s.jpg,0.0,Yellow.png,6.0,22,,,,,,,,,,,,,,,,,
0.0,1.0,0.7753,0.0,35.0,35.0,35.0,1.0,mousetrap_15n.jpg,0.0,Green.png,6.0,22,,,,,,,,,,,,,,,,,
,,,,,,,,,1.0,,,22,1.0,1.0,1.5501,0.0,0.0,0.0,0.0,1.0,hummingbird_05s.jpg,treadmill_06s.jpg,,,,,,,
,,,,,,,,,1.0,,,22,1.0,1.0,1.5679,0.0,1.0,1.0,1.0,1.0,margarita_03s.jpg,quilt_03s.jpg,,,,,,,
,,,,,,,,,0.0,,,22,0.0,1.0,1.8985,0.0,2.0,2.0,2.0,1.0,joystick_01b.jpg,foam_03s.jpg,,,,,,,
,,,,,,,,,0.0,,,22,1.0,0.0,5.607,0.0,3.0,3.0,3.0,1.0,ravioli_08s.jpg,mop_08s.jpg,,,,,,,
,,,,,,,,,1.0,,,22,1.0,1.0,2.7187,0.0,4.0,4.0,4.0,1.0,tab_09s.jpg,memory_stick_11s.jpg,,,,,,,
,,,,,,,,,1.0,,,22,0.0,0.0,1.0041,0.0,5.0,5.0,5.0,1.0,tripod_01b.jpg,crate_05s.jpg,,,,,,,
,,,,,,,,,,,,22,,,,,,,,,,,0.0,1.0,1.0,1.0,1.0,newclockpresent_2_4.xlsx,newclock_compare_task_2_4.xlsx
0.0,1.0,1.0957,0.0,0.0,0.0,0.0,1.0,safety_pin_02s.jpg,0.0,Blue.png,1.0,22,,,,,,,,,,,,,,,,,
1.0,1.0,0.8905,0.0,1.0,1.0,1.0,1.0,safety_pin_02s.jpg,1.0,Purple.png,1.0,22,,,,,,,,,,,,,,,,,
0.0,1.0,0.692,0.0,2.0,2.0,2.0,1.0,cardinal_07s.jpg,0.0,Red.png,1.0,22,,,,,,,,,,,,,,,,,
1.0,1.0,0.8503,0.0,3.0,3.0,3.0,1.0,safety_pin_02s.jpg,1.0,Orange.png,1.0,22,,,,,,,,,,,,,,,,,
0.0,1.0,0.7889,0.0,4.0,4.0,4.0,1.0,potholder_02s.jpg,0.0,Yellow.png,1.0,22,,,,,,,,,,,,,,,,,
1.0,1.0,0.7909,0.0,5.0,5.0,5.0,1.0,safety_pin_02s.jpg,1.0,Green.png,1.0,22,,,,,,,,,,,,,,,,,
0.0,1.0,1.0394,0.0,6.0,6.0,6.0,1.0,cardinal_07s.jpg,0.0,Blue.png,2.0,22,,,,,,,,,,,,,,,,,
0.0,1.0,1.2701,0.0,7.0,7.0,7.0,1.0,lion_18s.jpg,0.0,Purple.png,2.0,22,,,,,,,,,,,,,,,,,
0.0,1.0,0.7018,0.0,8.0,8.0,8.0,1.0,comic_book_02s.jpg,0.0,Red.png,2.0,22,,,,,,,,,,,,,,,,,
0.0,1.0,0.5541,0.0,9.0,9.0,9.0,1.0,lizard_10n.jpg,0.0,Orange.png,2.0,22,,,,,,,,,,,,,,,,,
0.0,1.0,0.6573,0.0,10.0,10.0,10.0,1.0,rice_12s.jpg,0.0,Yellow.png,2.0,22,,,,,,,,,,,,,,,,,
0.0,1.0,0.6959,0.0,11.0,11.0,11.0,1.0,bagel_15s.jpg,0.0,Green.png,2.0,22,,,,,,,,,,,,,,,,,
0.0,1.0,0.6252,0.0,12.0,12.0,12.0,1.0,recliner_02s.jpg,0.0,Blue.png,3.0,22,,,,,,,,,,,,,,,,,
1.0,1.0,1.2233,0.0,13.0,13.0,13.0,1.0,recliner_02s.jpg,1.0,Purple.png,3.0,22,,,,,,,,,,,,,,,,,
0.0,1.0,1.1602,0.0,14.0,14.0,14.0,1.0,luggage_08s.jpg,0.0,Red.png,3.0,22,,,,,,,,,,,,,,,,,
1.0,1.0,1.36,0.0,15.0,15.0,15.0,1.0,recliner_02s.jpg,1.0,Orange.png,3.0,22,,,,,,,,,,,,,,,,,
0.0,1.0,1.2719,0.0,16.0,16.0,16.0,1.0,onion_10s.jpg,0.0,Yellow.png,3.0,22,,,,,,,,,,,,,,,,,
0.0,1.0,1.2611,0.0,17.0,17.0,17.0,1.0,rosary_03s.jpg,0.0,Green.png,3.0,22,,,,,,,,,,,,,,,,,
0.0,1.0,1.1061,0.0,18.0,18.0,18.0,1.0,smokingpipe.jpg,0.0,Blue.png,4.0,22,,,,,,,,,,,,,,,,,
0.0,1.0,1.3392,0.0,19.0,19.0,19.0,1.0,roulette_wheel_04s.jpg,0.0,Purple.png,4.0,22,,,,,,,,,,,,,,,,,
0.0,0.0,1.938,0.0,20.0,20.0,20.0,1.0,smokingpipe.jpg,1.0,Red.png,4.0,22,,,,,,,,,,,,,,,,,
0.0,1.0,0.9102,0.0,21.0,21.0,21.0,1.0,orchid_01b.jpg,0.0,Orange.png,4.0,22,,,,,,,,,,,,,,,,,
0.0,1.0,0.5699,0.0,22.0,22.0,22.0,1.0,buoy_04s.jpg,0.0,Yellow.png,4.0,22,,,,,,,,,,,,,,,,,
0.0,1.0,0.9066,0.0,23.0,23.0,23.0,1.0,stopwatch_04s.jpg,0.0,Green.png,4.0,22,,,,,,,,,,,,,,,,,
0.0,1.0,0.6665,0.0,24.0,24.0,24.0,1.0,knitting_needle_04s.jpg,0.0,Blue.png,5.0,22,,,,,,,,,,,,,,,,,
0.0,1.0,0.7447,0.0,25.0,25.0,25.0,1.0,prism_10s.jpg,0.0,Purple.png,5.0,22,,,,,,,,,,,,,,,,,
0.0,1.0,0.5694,0.0,26.0,26.0,26.0,1.0,teapot_03s.jpg,0.0,Red.png,5.0,22,,,,,,,,,,,,,,,,,
0.0,1.0,0.589,0.0,27.0,27.0,27.0,1.0,fire_pit_10s.jpg,0.0,Orange.png,5.0,22,,,,,,,,,,,,,,,,,
1.0,1.0,1.3194,0.0,28.0,28.0,28.0,1.0,fire_pit_10s.jpg,1.0,Yellow.png,5.0,22,,,,,,,,,,,,,,,,,
1.0,1.0,1.0571,0.0,29.0,29.0,29.0,1.0,fire_pit_10s.jpg,1.0,Green.png,5.0,22,,,,,,,,,,,,,,,,,
0.0,1.0,0.358,0.0,30.0,30.0,30.0,1.0,ironing_board_07s.jpg,0.0,Blue.png,6.0,22,,,,,,,,,,,,,,,,,
0.0,1.0,1.3117,0.0,31.0,31.0,31.0,1.0,fire_pit_10s.jpg,0.0,Purple.png,6.0,22,,,,,,,,,,,,,,,,,
0.0,1.0,1.2437,0.0,32.0,32.0,32.0,1.0,mattress_01s.jpg,0.0,Red.png,6.0,22,,,,,,,,,,,,,,,,,
1.0,1.0,1.7035,0.0,33.0,33.0,33.0,1.0,fire_pit_10s.jpg,1.0,Orange.png,6.0,22,,,,,,,,,,,,,,,,,
1.0,1.0,1.6397,0.0,34.0,34.0,34.0,1.0,mattress_01s.jpg,1.0,Yellow.png,6.0,22,,,,,,,,,,,,,,,,,
0.0,1.0,1.0683,0.0,35.0,35.0,35.0,1.0,ice-cream_cone_06s.jpg,0.0,Green.png,6.0,22,,,,,,,,,,,,,,,,,
,,,,,,,,,1.0,,,22,1.0,1.0,2.5672,0.0,0.0,0.0,0.0,1.0,roulette_wheel_04s.jpg,buoy_04s.jpg,,,,,,,
,,,,,,,,,0.0,,,22,1.0,0.0,1.3498,0.0,1.0,1.0,1.0,1.0,lion_18s.jpg,potholder_02s.jpg,,,,,,,
,,,,,,,,,0.0,,,22,1.0,0.0,1.5786,0.0,2.0,2.0,2.0,1.0,bagel_15s.jpg,comic_book_02s.jpg,,,,,,,
,,,,,,,,,1.0,,,22,1.0,1.0,1.3126,0.0,3.0,3.0,3.0,1.0,stopwatch_04s.jpg,teapot_03s.jpg,,,,,,,
,,,,,,,,,1.0,,,22,1.0,1.0,5.4191,0.0,4.0,4.0,4.0,1.0,luggage_08s.jpg,rosary_03s.jpg,,,,,,,
,,,,,,,,,1.0,,,22,0.0,0.0,2.4016,0.0,5.0,5.0,5.0,1.0,orchid_01b.jpg,knitting_needle_04s.jpg,,,,,,,
,,,,,,,,,,,,22,,,,,,,,,,,0.0,2.0,2.0,2.0,1.0,newclockpresent_3_4.xlsx,newclock_compare_task_3_4.xlsx
0.0,1.0,1.2546,0.0,0.0,0.0,0.0,1.0,smoothie_09s.jpg,0.0,Blue.png,1.0,22,,,,,,,,,,,,,,,,,
0.0,1.0,0.5694,0.0,1.0,1.0,1.0,1.0,raspberry_12s.jpg,0.0,Purple.png,1.0,22,,,,,,,,,,,,,,,,,
1.0,1.0,1.4962,0.0,2.0,2.0,2.0,1.0,raspberry_12s.jpg,1.0,Red.png,1.0,22,,,,,,,,,,,,,,,,,
0.0,1.0,1.1735,0.0,3.0,3.0,3.0,1.0,lamb_chop_07s.jpg,0.0,Orange.png,1.0,22,,,,,,,,,,,,,,,,,
1.0,1.0,1.4944,0.0,4.0,4.0,4.0,1.0,smoothie_09s.jpg,1.0,Yellow.png,1.0,22,,,,,,,,,,,,,,,,,
1.0,1.0,1.8943,0.0,5.0,5.0,5.0,1.0,raspberry_12s.jpg,1.0,Green.png,1.0,22,,,,,,,,,,,,,,,,,
0.0,1.0,0.463,0.0,6.0,6.0,6.0,1.0,lava_02s.jpg,0.0,Blue.png,2.0,22,,,,,,,,,,,,,,,,,
0.0,1.0,1.0974,0.0,7.0,7.0,7.0,1.0,trident_07s.jpg,0.0,Purple.png,2.0,22,,,,,,,,,,,,,,,,,
1.0,1.0,1.4884,0.0,8.0,8.0,8.0,1.0,trident_07s.jpg,1.0,Red.png,2.0,22,,,,,,,,,,,,,,,,,
1.0,1.0,1.3558,0.0,9.0,9.0,9.0,1.0,trident_07s.jpg,1.0,Orange.png,2.0,22,,,,,,,,,,,,,,,,,
0.0,1.0,1.0717,0.0,10.0,10.0,10.0,1.0,orangutan_03s.jpg,0.0,Yellow.png,2.0,22,,,,,,,,,,,,,,,,,
1.0,1.0,1.5294,0.0,11.0,11.0,11.0,1.0,trident_07s.jpg,1.0,Green.png,2.0,22,,,,,,,,,,,,,,,,,
0.0,1.0,0.9857,0.0,12.0,12.0,12.0,1.0,raspberry_12s.jpg,0.0,Blue.png,3.0,22,,,,,,,,,,,,,,,,,
0.0,1.0,0.8004,0.0,13.0,13.0,13.0,1.0,trident_07s.jpg,0.0,Purple.png,3.0,22,,,,,,,,,,,,,,,,,
0.0,1.0,0.8562,0.0,14.0,14.0,14.0,1.0,lavender_10s.jpg,0.0,Red.png,3.0,22,,,,,,,,,,,,,,,,,
0.0,1.0,0.6475,0.0,15.0,15.0,15.0,1.0,chip_04s.jpg,0.0,Orange.png,3.0,22,,,,,,,,,,,,,,,,,
0.0,1.0,0.7356,0.0,16.0,16.0,16.0,1.0,lamb_04s.jpg,0.0,Yellow.png,3.0,22,,,,,,,,,,,,,,,,,
0.0,1.0,0.7045,0.0,17.0,17.0,17.0,1.0,emerald_02s.jpg,0.0,Green.png,3.0,22,,,,,,,,,,,,,,,,,
0.0,1.0,0.4836,0.0,18.0,18.0,18.0,1.0,pineapple_12s.jpg,0.0,Blue.png,4.0,22,,,,,,,,,,,,,,,,,
0.0,1.0,0.9149,0.0,19.0,19.0,19.0,1.0,sundae_08s.jpg,0.0,Purple.png,4.0,22,,,,,,,,,,,,,,,,,
1.0,1.0,1.24,0.0,20.0,20.0,20.0,1.0,sundae_08s.jpg,1.0,Red.png,4.0,22,,,,,,,,,,,,,,,,,
0.0,1.0,1.1527,0.0,21.0,21.0,21.0,1.0,squirrel_02s.jpg,0.0,Orange.png,4.0,22,,,,,,,,,,,,,,,,,
0.0,1.0,1.044,0.0,22.0,22.0,22.0,1.0,roller_coaster_07s.jpg,0.0,Yellow.png,4.0,22,,,,,,,,,,,,,,,,,
1.0,1.0,1.3034,0.0,23.0,23.0,23.0,1.0,sundae_08s.jpg,1.0,Green.png,4.0,22,,,,,,,,,,,,,,,,,
0.0,1.0,0.8704,0.0,24.0,24.0,24.0,1.0,tweezers_03s.jpg,0.0,Blue.png,5.0,22,,,,,,,,,,,,,,,,,
0.0,1.0,1.2091,0.0,25.0,25.0,25.0,1.0,sundae_08s.jpg,0.0,Purple.png,5.0,22,,,,,,,,,,,,,,,,,
0.0,1.0,1.2133,0.0,26.0,26.0,26.0,1.0,rudder_02s.jpg,0.0,Red.png,5.0,22,,,,,,,,,,,,,,,,,
0.0,1.0,1.1035,0.0,27.0,27.0,27.0,1.0,rake_06s.jpg,0.0,Orange.png,5.0,22,,,,,,,,,,,,,,,,,
1.0,1.0,1.3538,0.0,28.0,28.0,28.0,1.0,rake_06s.jpg,1.0,Yellow.png,5.0,22,,,,,,,,,,,,,,,,,
1.0,1.0,1.2845,0.0,29.0,29.0,29.0,1.0,rake_06s.jpg,1.0,Green.png,5.0,22,,,,,,,,,,,,,,,,,
0.0,1.0,1.3519,0.0,30.0,30.0,30.0,1.0,cap_05s.jpg,0.0,Blue.png,6.0,22,,,,,,,,,,,,,,,,,
0.0,1.0,1.0319,0.0,31.0,31.0,31.0,1.0,paper_towel_03s.jpg,0.0,Purple.png,6.0,22,,,,,,,,,,,,,,,,,
0.0,1.0,1.4433,0.0,32.0,32.0,32.0,1.0,toaster_03s.jpg,0.0,Red.png,6.0,22,,,,,,,,,,,,,,,,,
0.0,1.0,0.5636,0.0,33.0,33.0,33.0,1.0,money_07s.jpg,0.0,Orange.png,6.0,22,,,,,,,,,,,,,,,,,
0.0,1.0,0.5881,0.0,34.0,34.0,34.0,1.0,pinwheel_06s.jpg,0.0,Yellow.png,6.0,22,,,,,,,,,,,,,,,,,
0.0,1.0,0.5953,0.0,35.0,35.0,35.0,1.0,lid_10s.jpg,0.0,Green.png,6.0,22,,,,,,,,,,,,,,,,,
,,,,,,,,,0.0,,,22,0.0,1.0,3.6285,0.0,0.0,0.0,0.0,1.0,tweezers_03s.jpg,squirrel_02s.jpg,,,,,,,
,,,,,,,,,1.0,,,22,1.0,1.0,2.6125,0.0,1.0,1.0,1.0,1.0,chip_04s.jpg,pineapple_12s.jpg,,,,,,,
,,,,,,,,,1.0,,,22,1.0,1.0,1.0139,0.0,2.0,2.0,2.0,1.0,lamb_chop_07s.jpg,lava_02s.jpg,,,,,,,
,,,,,,,,,0.0,,,22,0.0,1.0,3.9737,0.0,3.0,3.0,3.0,1.0,pinwheel_06s.jpg,paper_towel_03s.jpg,,,,,,,
,,,,,,,,,0.0,,,22,0.0,1.0,2.946,0.0,4.0,4.0,4.0,1.0,emerald_02s.jpg,lavender_10s.jpg,,,,,,,
,,,,,,,,,0.0,,,22,0.0,1.0,1.7447,0.0,5.0,5.0,5.0,1.0,money_07s.jpg,cap_05s.jpg,,,,,,,
,,,,,,,,,,,,22,,,,,,,,,,,0.0,3.0,3.0,3.0,1.0,newclockpresent_4_4.xlsx,newclock_compare_task_4_4.xlsx
0.0,1.0,1.2626,0.0,0.0,0.0,0.0,1.0,fur_coat_11s.jpg,0.0,Blue.png,1.0,22,,,,,,,,,,,,,,,,,
0.0,1.0,0.5955,0.0,1.0,1.0,1.0,1.0,crayon_09s.jpg,0.0,Purple.png,1.0,22,,,,,,,,,,,,,,,,,
0.0,1.0,0.5846,0.0,2.0,2.0,2.0,1.0,cobra_05s.jpg,0.0,Red.png,1.0,22,,,,,,,,,,,,,,,,,
0.0,1.0,0.5993,0.0,3.0,3.0,3.0,1.0,raccoon_02s.jpg,0.0,Orange.png,1.0,22,,,,,,,,,,,,,,,,,
0.0,1.0,0.8637,0.0,4.0,4.0,4.0,1.0,soda_fountain_03s.jpg,0.0,Yellow.png,1.0,22,,,,,,,,,,,,,,,,,
1.0,1.0,1.4158,0.0,5.0,5.0,5.0,1.0,raccoon_02s.jpg,1.0,Green.png,1.0,22,,,,,,,,,,,,,,,,,
0.0,1.0,0.4228,0.0,6.0,6.0,6.0,1.0,feather02.jpg,0.0,Blue.png,2.0,22,,,,,,,,,,,,,,,,,
0.0,1.0,1.1264,0.0,7.0,7.0,7.0,1.0,raccoon_02s.jpg,0.0,Purple.png,2.0,22,,,,,,,,,,,,,,,,,
1.0,1.0,1.206,0.0,8.0,8.0,8.0,1.0,feather02.jpg,1.0,Red.png,2.0,22,,,,,,,,,,,,,,,,,
0.0,1.0,0.7373,0.0,9.0,9.0,9.0,1.0,rug_09s.jpg,0.0,Orange.png,2.0,22,,,,,,,,,,,,,,,,,
1.0,1.0,1.4358,0.0,10.0,10.0,10.0,1.0,feather02.jpg,1.0,Yellow.png,2.0,22,,,,,,,,,,,,,,,,,
0.0,1.0,0.7036,0.0,11.0,11.0,11.0,1.0,cushion_08s.jpg,0.0,Green.png,2.0,22,,,,,,,,,,,,,,,,,
0.0,1.0,0.9295,0.0,12.0,12.0,12.0,1.0,feather02.jpg,0.0,Blue.png,3.0,22,,,,,,,,,,,,,,,,,
1.0,1.0,2.17,0.0,13.0,13.0,13.0,1.0,feather02.jpg,1.0,Purple.png,3.0,22,,,,,,,,,,,,,,,,,
0.0,1.0,0.7453,0.0,14.0,14.0,14.0,1.0,ice_pack_09s.jpg,0.0,Red.png,3.0,22,,,,,,,,,,,,,,,,,
1.0,1.0,1.1416,0.0,15.0,15.0,15.0,1.0,ice_pack_09s.jpg,1.0,Orange.png,3.0,22,,,,,,,,,,,,,,,,,
0.0,1.0,1.603,0.0,16.0,16.0,16.0,1.0,loom_05s.jpg,0.0,Yellow.png,3.0,22,,,,,,,,,,,,,,,,,
1.0,1.0,1.3365,0.0,17.0,17.0,17.0,1.0,ice_pack_09s.jpg,1.0,Green.png,3.0,22,,,,,,,,,,,,,,,,,
0.0,1.0,1.1679,0.0,18.0,18.0,18.0,1.0,ice_pack_09s.jpg,0.0,Blue.png,4.0,22,,,,,,,,,,,,,,,,,
1.0,1.0,1.0843,0.0,19.0,19.0,19.0,1.0,ice_pack_09s.jpg,1.0,Purple.png,4.0,22,,,,,,,,,,,,,,,,,
1.0,1.0,1.1335,0.0,20.0,20.0,20.0,1.0,ice_pack_09s.jpg,1.0,Red.png,4.0,22,,,,,,,,,,,,,,,,,
0.0,1.0,1.0437,0.0,21.0,21.0,21.0,1.0,blazer_02s.jpg,0.0,Orange.png,4.0,22,,,,,,,,,,,,,,,,,
0.0,1.0,1.2736,0.0,22.0,22.0,22.0,1.0,penlight_12s.jpg,0.0,Yellow.png,4.0,22,,,,,,,,,,,,,,,,,
0.0,1.0,0.6447,0.0,23.0,23.0,23.0,1.0,swan_11s.jpg,0.0,Green.png,4.0,22,,,,,,,,,,,,,,,,,
0.0,1.0,1.1287,0.0,24.0,24.0,24.0,1.0,plunger_08s.jpg,0.0,Blue.png,5.0,22,,,,,,,,,,,,,,,,,
0.0,1.0,0.834,0.0,25.0,25.0,25.0,1.0,bottle_opener_11s.jpg,0.0,Purple.png,5.0,22,,,,,,,,,,,,,,,,,
0.0,1.0,0.7605,0.0,26.0,26.0,26.0,1.0,checkbook_11s.jpg,0.0,Red.png,5.0,22,,,,,,,,,,,,,,,,,
0.0,1.0,1.0117,0.0,27.0,27.0,27.0,1.0,ink_08s.jpg,0.0,Orange.png,5.0,22,,,,,,,,,,,,,,,,,
1.0,1.0,1.2574,0.0,28.0,28.0,28.0,1.0,plunger_08s.jpg,1.0,Yellow.png,5.0,22,,,,,,,,,,,,,,,,,
0.0,1.0,1.9195,0.0,29.0,29.0,29.0,1.0,pencil02a.jpg,0.0,Green.png,5.0,22,,,,,,,,,,,,,,,,,
0.0,1.0,0.5907,0.0,30.0,30.0,30.0,1.0,ginger_09s.jpg,0.0,Blue.png,6.0,22,,,,,,,,,,,,,,,,,
0.0,1.0,0.5229,0.0,31.0,31.0,31.0,1.0,taxi_15s.jpg,0.0,Purple.png,6.0,22,,,,,,,,,,,,,,,,,
0.0,1.0,1.0045,0.0,32.0,32.0,32.0,1.0,toy_04s.jpg,0.0,Red.png,6.0,22,,,,,,,,,,,,,,,,,
0.0,1.0,0.6855,0.0,33.0,33.0,33.0,1.0,blowfish_03s.jpg,0.0,Orange.png,6.0,22,,,,,,,,,,,,,,,,,
0.0,1.0,0.9208,0.0,34.0,34.0,34.0,1.0,toilet_paper_12s.jpg,0.0,Yellow.png,6.0,22,,,,,,,,,,,,,,,,,
0.0,1.0,0.6044,0.0,35.0,35.0,35.0,1.0,puddle_02s.jpg,0.0,Green.png,6.0,22,,,,,,,,,,,,,,,,,
,,,,,,,,,1.0,,,22,1.0,1.0,2.152,0.0,0.0,0.0,0.0,1.0,ink_08s.jpg,ginger_09s.jpg,,,,,,,
,,,,,,,,,0.0,,,22,0.0,1.0,1.7994,0.0,1.0,1.0,1.0,1.0,puddle_02s.jpg,toy_04s.jpg,,,,,,,
,,,,,,,,,0.0,,,22,1.0,0.0,2.6003,0.0,2.0,2.0,2.0,1.0,bottle_opener_11s.jpg,penlight_12s.jpg,,,,,,,
,,,,,,,,,0.0,,,22,0.0,1.0,2.2508,0.0,3.0,3.0,3.0,1.0,checkbook_11s.jpg,swan_11s.jpg,,,,,,,
,,,,,,,,,1.0,,,22,1.0,1.0,1.8665,0.0,4.0,4.0,4.0,1.0,taxi_15s.jpg,toilet_paper_12s.jpg,,,,,,,
,,,,,,,,,1.0,,,22,1.0,1.0,1.0007,0.0,5.0,5.0,5.0,1.0,crayon_09s.jpg,soda_fountain_03s.jpg,,,,,,,
,,,,,,,,,,,,22,,,,,,,,,,,0.0,4.0,4.0,4.0,1.0,newclockpresent_5_4.xlsx,newclock_compare_task_5_4.xlsx
0.0,1.0,1.2869,0.0,0.0,0.0,0.0,1.0,flask_04s.jpg,0.0,Blue.png,1.0,22,,,,,,,,,,,,,,,,,
0.0,1.0,0.8496,0.0,1.0,1.0,1.0,1.0,kimono_13s.jpg,0.0,Purple.png,1.0,22,,,,,,,,,,,,,,,,,
0.0,1.0,0.6456,0.0,2.0,2.0,2.0,1.0,limousine_12s.jpg,0.0,Red.png,1.0,22,,,,,,,,,,,,,,,,,
0.0,1.0,0.809,0.0,3.0,3.0,3.0,1.0,lectern_08s.jpg,0.0,Orange.png,1.0,22,,,,,,,,,,,,,,,,,
1.0,1.0,1.3726,0.0,4.0,4.0,4.0,1.0,kimono_13s.jpg,1.0,Yellow.png,1.0,22,,,,,,,,,,,,,,,,,
0.0,1.0,0.7606,0.0,5.0,5.0,5.0,1.0,doily_13s.jpg,0.0,Green.png,1.0,22,,,,,,,,,,,,,,,,,
0.0,1.0,1.2439,0.0,6.0,6.0,6.0,1.0,kimono_13s.jpg,0.0,Blue.png,2.0,22,,,,,,,,,,,,,,,,,
0.0,1.0,1.3369,0.0,7.0,7.0,7.0,1.0,razor_blade_01b.jpg,0.0,Purple.png,2.0,22,,,,,,,,,,,,,,,,,
1.0,1.0,1.2831,0.0,8.0,8.0,8.0,1.0,razor_blade_01b.jpg,1.0,Red.png,2.0,22,,,,,,,,,,,,,,,,,
0.0,1.0,1.456,0.0,9.0,9.0,9.0,1.0,champagne_18s.jpg,0.0,Orange.png,2.0,22,,,,,,,,,,,,,,,,,
0.0,1.0,1.4776,0.0,10.0,10.0,10.0,1.0,stamp1_11s.jpg,0.0,Yellow.png,2.0,22,,,,,,,,,,,,,,,,,
1.0,1.0,1.4058,0.0,11.0,11.0,11.0,1.0,champagne_18s.jpg,1.0,Green.png,2.0,22,,,,,,,,,,,,,,,,,
0.0,1.0,1.2547,0.0,12.0,12.0,12.0,1.0,crossbow_10s.jpg,0.0,Blue.png,3.0,22,,,,,,,,,,,,,,,,,
0.0,1.0,0.7442,0.0,13.0,13.0,13.0,1.0,briefcase_03s.jpg,0.0,Purple.png,3.0,22,,,,,,,,,,,,,,,,,
0.0,1.0,0.6234,0.0,14.0,14.0,14.0,1.0,jersey_02s.jpg,0.0,Red.png,3.0,22,,,,,,,,,,,,,,,,,
1.0,1.0,1.3906,0.0,15.0,15.0,15.0,1.0,briefcase_03s.jpg,1.0,Orange.png,3.0,22,,,,,,,,,,,,,,,,,
0.0,1.0,0.7945,0.0,16.0,16.0,16.0,1.0,oil_02s.jpg,0.0,Yellow.png,3.0,22,,,,,,,,,,,,,,,,,
0.0,1.0,1.2,0.0,17.0,17.0,17.0,1.0,tinsel_12s.jpg,0.0,Green.png,3.0,22,,,,,,,,,,,,,,,,,
0.0,1.0,1.14,0.0,18.0,18.0,18.0,1.0,flask_04s.jpg,0.0,Blue.png,4.0,22,,,,,,,,,,,,,,,,,
0.0,1.0,0.7584,0.0,19.0,19.0,19.0,1.0,fork_04s.jpg,0.0,Purple.png,4.0,22,,,,,,,,,,,,,,,,,
0.0,1.0,0.7105,0.0,20.0,20.0,20.0,1.0,purse_05s.jpg,0.0,Red.png,4.0,22,,,,,,,,,,,,,,,,,
1.0,1.0,1.4602,0.0,21.0,21.0,21.0,1.0,flask_04s.jpg,1.0,Orange.png,4.0,22,,,,,,,,,,,,,,,,,
0.0,1.0,0.9879,0.0,22.0,22.0,22.0,1.0,sledgehammer_03s.jpg,0.0,Yellow.png,4.0,22,,,,,,,,,,,,,,,,,
0.0,1.0,0.6349,0.0,23.0,23.0,23.0,1.0,turf_03s.jpg,0.0,Green.png,4.0,22,,,,,,,,,,,,,,,,,
0.0,1.0,0.546,0.0,24.0,24.0,24.0,1.0,omelet_07s.jpg,0.0,Blue.png,5.0,22,,,,,,,,,,,,,,,,,
0.0,1.0,1.0265,0.0,25.0,25.0,25.0,1.0,turf_03s.jpg,0.0,Purple.png,5.0,22,,,,,,,,,,,,,,,,,
0.0,1.0,0.7568,0.0,26.0,26.0,26.0,1.0,clover_04s.jpg,0.0,Red.png,5.0,22,,,,,,,,,,,,,,,,,
0.0,1.0,0.7696,0.0,27.0,27.0,27.0,1.0,lip_gloss_06s.jpg,0.0,Orange.png,5.0,22,,,,,,,,,,,,,,,,,
0.0,1.0,1.2673,0.0,28.0,28.0,28.0,1.0,amber_04s.jpg,0.0,Yellow.png,5.0,22,,,,,,,,,,,,,,,,,
0.0,1.0,0.7711,0.0,29.0,29.0,29.0,1.0,tortilla_06s.jpg,0.0,Green.png,5.0,22,,,,,,,,,,,,,,,,,
0.0,1.0,1.0503,0.0,30.0,30.0,30.0,1.0,razor_blade_01b.jpg,0.0,Blue.png,6.0,22,,,,,,,,,,,,,,,,,
0.0,1.0,0.7844,0.0,31.0,31.0,31.0,1.0,tape_measure_11s.jpg,0.0,Purple.png,6.0,22,,,,,,,,,,,,,,,,,
1.0,1.0,1.3433,0.0,32.0,32.0,32.0,1.0,razor_blade_01b.jpg,1.0,Red.png,6.0,22,,,,,,,,,,,,,,,,,
1.0,1.0,1.3505,0.0,33.0,33.0,33.0,1.0,razor_blade_01b.jpg,1.0,Orange.png,6.0,22,,,,,,,,,,,,,,,,,
0.0,1.0,0.8882,0.0,34.0,34.0,34.0,1.0,stingray_02s.jpg,0.0,Yellow.png,6.0,22,,,,,,,,,,,,,,,,,
0.0,1.0,2.0959,0.0,35.0,35.0,35.0,1.0,harpoon.jpg,0.0,Green.png,6.0,22,,,,,,,,,,,,,,,,,
,,,,,,,,,1.0,,,22,0.0,0.0,4.5136,0.0,0.0,0.0,0.0,1.0,oil_02s.jpg,fork_04s.jpg,,,,,,,
,,,,,,,,,0.0,,,22,1.0,0.0,1.0003,0.0,1.0,1.0,1.0,1.0,doily_13s.jpg,limousine_12s.jpg,,,,,,,
,,,,,,,,,0.0,,,22,0.0,1.0,3.9093,0.0,2.0,2.0,2.0,1.0,lip_gloss_06s.jpg,omelet_07s.jpg,,,,,,,
,,,,,,,,,0.0,,,22,1.0,0.0,1.2383,0.0,3.0,3.0,3.0,1.0,tape_measure_11s.jpg,amber_04s.jpg,,,,,,,
,,,,,,,,,0.0,,,22,0.0,1.0,1.8196,0.0,4.0,4.0,4.0,1.0,tortilla_06s.jpg,clover_04s.jpg,,,,,,,
,,,,,,,,,0.0,,,22,0.0,1.0,0.9888,0.0,5.0,5.0,5.0,1.0,purse_05s.jpg,tinsel_12s.jpg,,,,,,,
,,,,,,,,,,,,22,,,,,,,,,,,0.0,5.0,5.0,5.0,1.0,newclockpresent_6_4.xlsx,newclock_compare_task_6_4.xlsx
0.0,1.0,1.8165,0.0,0.0,0.0,0.0,1.0,butter_14s.jpg,0.0,Blue.png,1.0,22,,,,,,,,,,,,,,,,,
1.0,1.0,1.0213,0.0,1.0,1.0,1.0,1.0,butter_14s.jpg,1.0,Purple.png,1.0,22,,,,,,,,,,,,,,,,,
1.0,1.0,1.0278,0.0,2.0,2.0,2.0,1.0,butter_14s.jpg,1.0,Red.png,1.0,22,,,,,,,,,,,,,,,,,
0.0,1.0,1.0346,0.0,3.0,3.0,3.0,1.0,stamp2_08s.jpg,0.0,Orange.png,1.0,22,,,,,,,,,,,,,,,,,
0.0,1.0,1.1313,0.0,4.0,4.0,4.0,1.0,kangaroo_02s.jpg,0.0,Yellow.png,1.0,22,,,,,,,,,,,,,,,,,
0.0,1.0,1.0117,0.0,5.0,5.0,5.0,1.0,camcorder_10s.jpg,0.0,Green.png,1.0,22,,,,,,,,,,,,,,,,,
0.0,1.0,1.0254,0.0,6.0,6.0,6.0,1.0,bank_06s.jpg,0.0,Blue.png,2.0,22,,,,,,,,,,,,,,,,,
0.0,1.0,1.1204,0.0,7.0,7.0,7.0,1.0,gear_07s.jpg,0.0,Purple.png,2.0,22,,,,,,,,,,,,,,,,,
1.0,1.0,1.2793,0.0,8.0,8.0,8.0,1.0,bank_06s.jpg,1.0,Red.png,2.0,22,,,,,,,,,,,,,,,,,
0.0,1.0,1.0619,0.0,9.0,9.0,9.0,1.0,funnel_01b.jpg,0.0,Orange.png,2.0,22,,,,,,,,,,,,,,,,,
0.0,1.0,1.0621,0.0,10.0,10.0,10.0,1.0,poinsettia_04s.jpg,0.0,Yellow.png,2.0,22,,,,,,,,,,,,,,,,,
1.0,1.0,1.2441,0.0,11.0,11.0,11.0,1.0,funnel_01b.jpg,1.0,Green.png,2.0,22,,,,,,,,,,,,,,,,,
0.0,1.0,0.561,0.0,12.0,12.0,12.0,1.0,rooster_03s.jpg,0.0,Blue.png,3.0,22,,,,,,,,,,,,,,,,,
0.0,1.0,0.6749,0.0,13.0,13.0,13.0,1.0,denture_03s.jpg,0.0,Purple.png,3.0,22,,,,,,,,,,,,,,,,,
0.0,1.0,1.2705,0.0,14.0,14.0,14.0,1.0,bean_06s.jpg,0.0,Red.png,3.0,22,,,,,,,,,,,,,,,,,
0.0,1.0,0.789,0.0,15.0,15.0,15.0,1.0,mud_13s.jpg,0.0,Orange.png,3.0,22,,,,,,,,,,,,,,,,,
0.0,1.0,1.0936,0.0,16.0,16.0,16.0,1.0,keyhole_03s.jpg,0.0,Yellow.png,3.0,22,,,,,,,,,,,,,,,,,
1.0,1.0,1.3399,0.0,17.0,17.0,17.0,1.0,bean_06s.jpg,1.0,Green.png,3.0,22,,,,,,,,,,,,,,,,,
0.0,1.0,0.8946,0.0,18.0,18.0,18.0,1.0,bank_06s.jpg,0.0,Blue.png,4.0,22,,,,,,,,,,,,,,,,,
0.0,1.0,0.6575,0.0,19.0,19.0,19.0,1.0,pomegranate_04s.jpg,0.0,Purple.png,4.0,22,,,,,,,,,,,,,,,,,
0.0,1.0,1.3038,0.0,20.0,20.0,20.0,1.0,chopsticks_08s.jpg,0.0,Red.png,4.0,22,,,,,,,,,,,,,,,,,
0.0,1.0,0.8161,0.0,21.0,21.0,21.0,1.0,contact_lens_15s.jpg,0.0,Orange.png,4.0,22,,,,,,,,,,,,,,,,,
0.0,1.0,0.6457,0.0,22.0,22.0,22.0,1.0,hydrant_10s.jpg,0.0,Yellow.png,4.0,22,,,,,,,,,,,,,,,,,
0.0,1.0,0.6849,0.0,23.0,23.0,23.0,1.0,gingerbread_man_03s.jpg,0.0,Green.png,4.0,22,,,,,,,,,,,,,,,,,
0.0,1.0,0.8454,0.0,24.0,24.0,24.0,1.0,camcorder_10s.jpg,0.0,Blue.png,5.0,22,,,,,,,,,,,,,,,,,
0.0,1.0,0.9178,0.0,25.0,25.0,25.0,1.0,teabag_12s.jpg,0.0,Purple.png,5.0,22,,,,,,,,,,,,,,,,,
0.0,1.0,0.75,0.0,26.0,26.0,26.0,1.0,radiator_05s.jpg,0.0,Red.png,5.0,22,,,,,,,,,,,,,,,,,
0.0,1.0,1.1005,0.0,27.0,27.0,27.0,1.0,punch1_10s.jpg,0.0,Orange.png,5.0,22,,,,,,,,,,,,,,,,,
0.0,1.0,0.8938,0.0,28.0,28.0,28.0,1.0,mailbox_11s.jpg,0.0,Yellow.png,5.0,22,,,,,,,,,,,,,,,,,
0.0,1.0,0.6562,0.0,29.0,29.0,29.0,1.0,beaker_01b.jpg,0.0,Green.png,5.0,22,,,,,,,,,,,,,,,,,
0.0,1.0,0.9545,0.0,30.0,30.0,30.0,1.0,mailbox_11s.jpg,0.0,Blue.png,6.0,22,,,,,,,,,,,,,,,,,
0.0,1.0,0.7287,0.0,31.0,31.0,31.0,1.0,pipe1_10s.jpg,0.0,Purple.png,6.0,22,,,,,,,,,,,,,,,,,
1.0,1.0,1.4607,0.0,32.0,32.0,32.0,1.0,mailbox_11s.jpg,1.0,Red.png,6.0,22,,,,,,,,,,,,,,,,,
1.0,1.0,1.304,0.0,33.0,33.0,33.0,1.0,pipe1_10s.jpg,1.0,Orange.png,6.0,22,,,,,,,,,,,,,,,,,
0.0,1.0,1.401,0.0,34.0,34.0,34.0,1.0,eyedropper_12s.jpg,0.0,Yellow.png,6.0,22,,,,,,,,,,,,,,,,,
0.0,1.0,0.6737,0.0,35.0,35.0,35.0,1.0,rhubarb_03s.jpg,0.0,Green.png,6.0,22,,,,,,,,,,,,,,,,,
,,,,,,,,,0.0,,,22,0.0,1.0,4.314,0.0,0.0,0.0,0.0,1.0,mud_13s.jpg,rooster_03s.jpg,,,,,,,
,,,,,,,,,1.0,,,22,1.0,1.0,2.0833,0.0,1.0,1.0,1.0,1.0,chopsticks_08s.jpg,gingerbread_man_03s.jpg,,,,,,,
,,,,,,,,,0.0,,,22,1.0,0.0,1.5213,0.0,2.0,2.0,2.0,1.0,beaker_01b.jpg,radiator_05s.jpg,,,,,,,
,,,,,,,,,0.0,,,22,1.0,0.0,1.2694,0.0,3.0,3.0,3.0,1.0,teabag_12s.jpg,hydrant_10s.jpg,,,,,,,
,,,,,,,,,0.0,,,22,1.0,0.0,0.9004,0.0,4.0,4.0,4.0,1.0,denture_03s.jpg,poinsettia_04s.jpg,,,,,,,
,,,,,,,,,1.0,,,22,0.0,0.0,2.5809,0.0,5.0,5.0,5.0,1.0,kangaroo_02s.jpg,gear_07s.jpg,,,,,,,
,,,,,,,,,,,,22,,,,,,,,,,,0.0,6.0,6.0,6.0,1.0,newclockpresent_7_4.xlsx,newclock_compare_task_7_4.xlsx
0.0,1.0,1.0802,0.0,0.0,0.0,0.0,1.0,lamppost_09s.jpg,0.0,Blue.png,1.0,22,,,,,,,,,,,,,,,,,
0.0,1.0,0.5604,0.0,1.0,1.0,1.0,1.0,jewel_01b.jpg,0.0,Purple.png,1.0,22,,,,,,,,,,,,,,,,,
0.0,1.0,0.5307,0.0,2.0,2.0,2.0,1.0,tuxedo_01b.jpg,0.0,Red.png,1.0,22,,,,,,,,,,,,,,,,,
0.0,1.0,0.5887,0.0,3.0,3.0,3.0,1.0,flip_flop_03s.jpg,0.0,Orange.png,1.0,22,,,,,,,,,,,,,,,,,
0.0,1.0,0.7579,0.0,4.0,4.0,4.0,1.0,medal_04s.jpg,0.0,Yellow.png,1.0,22,,,,,,,,,,,,,,,,,
1.0,1.0,1.8987,0.0,5.0,5.0,5.0,1.0,flip_flop_03s.jpg,1.0,Green.png,1.0,22,,,,,,,,,,,,,,,,,
0.0,1.0,0.894,0.0,6.0,6.0,6.0,1.0,tuxedo_01b.jpg,0.0,Blue.png,2.0,22,,,,,,,,,,,,,,,,,
0.0,1.0,2.1679,0.0,7.0,7.0,7.0,1.0,flip_flop_03s.jpg,0.0,Purple.png,2.0,22,,,,,,,,,,,,,,,,,
0.0,1.0,0.8119,0.0,8.0,8.0,8.0,1.0,fireworks_18s.jpg,0.0,Red.png,2.0,22,,,,,,,,,,,,,,,,,
0.0,1.0,0.669,0.0,9.0,9.0,9.0,1.0,squirt_gun_03s.jpg,0.0,Orange.png,2.0,22,,,,,,,,,,,,,,,,,
1.0,1.0,1.6989,0.0,10.0,10.0,10.0,1.0,flip_flop_03s.jpg,1.0,Yellow.png,2.0,22,,,,,,,,,,,,,,,,,
0.0,1.0,0.5922,0.0,11.0,11.0,11.0,1.0,puffin_19s.jpg,0.0,Green.png,2.0,22,,,,,,,,,,,,,,,,,
0.0,1.0,0.9405,0.0,12.0,12.0,12.0,1.0,tuxedo_01b.jpg,0.0,Blue.png,3.0,22,,,,,,,,,,,,,,,,,
1.0,1.0,2.0946,0.0,13.0,13.0,13.0,1.0,tuxedo_01b.jpg,1.0,Purple.png,3.0,22,,,,,,,,,,,,,,,,,
0.0,1.0,1.7245,0.0,14.0,14.0,14.0,1.0,snowman_02s.jpg,0.0,Red.png,3.0,22,,,,,,,,,,,,,,,,,
0.0,1.0,1.0342,0.0,15.0,15.0,15.0,1.0,cucumber_07s.jpg,0.0,Orange.png,3.0,22,,,,,,,,,,,,,,,,,
0.0,1.0,0.7181,0.0,16.0,16.0,16.0,1.0,plug_08s.jpg,0.0,Yellow.png,3.0,22,,,,,,,,,,,,,,,,,
1.0,1.0,1.2729,0.0,17.0,17.0,17.0,1.0,cucumber_07s.jpg,1.0,Green.png,3.0,22,,,,,,,,,,,,,,,,,
0.0,1.0,0.8692,0.0,18.0,18.0,18.0,1.0,puffin_19s.jpg,0.0,Blue.png,4.0,22,,,,,,,,,,,,,,,,,
0.0,1.0,0.6063,0.0,19.0,19.0,19.0,1.0,fondue_07s.jpg,0.0,Purple.png,4.0,22,,,,,,,,,,,,,,,,,
0.0,1.0,0.5731,0.0,20.0,20.0,20.0,1.0,lasagna_06s.jpg,0.0,Red.png,4.0,22,,,,,,,,,,,,,,,,,
0.0,1.0,0.7854,0.0,21.0,21.0,21.0,1.0,eiffeltower.jpg,0.0,Orange.png,4.0,22,,,,,,,,,,,,,,,,,
1.0,0.0,2.2234,0.0,22.0,22.0,22.0,1.0,outlet_10s.jpg,0.0,Yellow.png,4.0,22,,,,,,,,,,,,,,,,,
0.0,1.0,0.8706,0.0,23.0,23.0,23.0,1.0,cape_11s.jpg,0.0,Green.png,4.0,22,,,,,,,,,,,,,,,,,
0.0,1.0,0.4189,0.0,24.0,24.0,24.0,1.0,marshmallow_08s.jpg,0.0,Blue.png,5.0,22,,,,,,,,,,,,,,,,,
0.0,1.0,0.5949,0.0,25.0,25.0,25.0,1.0,racehorse_03s.jpg,0.0,Purple.png,5.0,22,,,,,,,,,,,,,,,,,
0.0,1.0,1.1616,0.0,26.0,26.0,26.0,1.0,aluminum_foil_08s.jpg,0.0,Red.png,5.0,22,,,,,,,,,,,,,,,,,
0.0,1.0,0.7565,0.0,27.0,27.0,27.0,1.0,spoon02a.jpg,0.0,Orange.png,5.0,22,,,,,,,,,,,,,,,,,
0.0,1.0,0.8096,0.0,28.0,28.0,28.0,1.0,padlock_07s.jpg,0.0,Yellow.png,5.0,22,,,,,,,,,,,,,,,,,
0.0,1.0,0.8852,0.0,29.0,29.0,29.0,1.0,solar_panel_02s.jpg,0.0,Green.png,5.0,22,,,,,,,,,,,,,,,,,
0.0,1.0,0.6506,0.0,30.0,30.0,30.0,1.0,turtleneck_11s.jpg,0.0,Blue.png,6.0,22,,,,,,,,,,,,,,,,,
0.0,1.0,0.9331,0.0,31.0,31.0,31.0,1.0,pocketknife_12s.jpg,0.0,Purple.png,6.0,22,,,,,,,,,,,,,,,,,
1.0,1.0,1.2605,0.0,32.0,32.0,32.0,1.0,pocketknife_12s.jpg,1.0,Red.png,6.0,22,,,,,,,,,,,,,,,,,
0.0,1.0,0.8591,0.0,33.0,33.0,33.0,1.0,quill_09s.jpg,0.0,Orange.png,6.0,22,,,,,,,,,,,,,,,,,
1.0,1.0,1.377,0.0,34.0,34.0,34.0,1.0,quill_09s.jpg,1.0,Yellow.png,6.0,22,,,,,,,,,,,,,,,,,
1.0,1.0,1.1069,0.0,35.0,35.0,35.0,1.0,pocketknife_12s.jpg,1.0,Green.png,6.0,22,,,,,,,,,,,,,,,,,
,,,,,,,,,0.0,,,22,0.0,1.0,3.5828,0.0,0.0,0.0,0.0,1.0,cape_11s.jpg,lasagna_06s.jpg,,,,,,,
,,,,,,,,,0.0,,,22,0.0,1.0,2.8852,0.0,1.0,1.0,1.0,1.0,padlock_07s.jpg,racehorse_03s.jpg,,,,,,,
,,,,,,,,,1.0,,,22,0.0,0.0,1.5572,0.0,2.0,2.0,2.0,1.0,spoon02a.jpg,turtleneck_11s.jpg,,,,,,,
,,,,,,,,,0.0,,,22,1.0,0.0,1.6814,0.0,3.0,3.0,3.0,1.0,marshmallow_08s.jpg,eiffeltower.jpg,,,,,,,
,,,,,,,,,0.0,,,22,0.0,1.0,3.4285,0.0,4.0,4.0,4.0,1.0,medal_04s.jpg,jewel_01b.jpg,,,,,,,
,,,,,,,,,1.0,,,22,0.0,0.0,1.5953,0.0,5.0,5.0,5.0,1.0,plug_08s.jpg,fondue_07s.jpg,,,,,,,
,,,,,,,,,,,,22,,,,,,,,,,,0.0,7.0,7.0,7.0,1.0,newclockpresent_8_4.xlsx,newclock_compare_task_8_4.xlsx
0.0,1.0,1.1211,0.0,0.0,0.0,0.0,1.0,footprint_11s.jpg,0.0,Blue.png,1.0,22,,,,,,,,,,,,,,,,,
0.0,1.0,0.6019,0.0,1.0,1.0,1.0,1.0,coffee_filter_10s.jpg,0.0,Purple.png,1.0,22,,,,,,,,,,,,,,,,,
1.0,1.0,1.1904,0.0,2.0,2.0,2.0,1.0,coffee_filter_10s.jpg,1.0,Red.png,1.0,22,,,,,,,,,,,,,,,,,
1.0,1.0,1.2038,0.0,3.0,3.0,3.0,1.0,coffee_filter_10s.jpg,1.0,Orange.png,1.0,22,,,,,,,,,,,,,,,,,
1.0,1.0,1.2615,0.0,4.0,4.0,4.0,1.0,coffee_filter_10s.jpg,1.0,Yellow.png,1.0,22,,,,,,,,,,,,,,,,,
0.0,1.0,1.0175,0.0,5.0,5.0,5.0,1.0,gargoyle_08s.jpg,0.0,Green.png,1.0,22,,,,,,,,,,,,,,,,,
0.0,1.0,0.6581,0.0,6.0,6.0,6.0,1.0,candy_cane_06s.jpg,0.0,Blue.png,2.0,22,,,,,,,,,,,,,,,,,
0.0,1.0,0.5416,0.0,7.0,7.0,7.0,1.0,toad_09s.jpg,0.0,Purple.png,2.0,22,,,,,,,,,,,,,,,,,
1.0,1.0,1.3388,0.0,8.0,8.0,8.0,1.0,candy_cane_06s.jpg,1.0,Red.png,2.0,22,,,,,,,,,,,,,,,,,
0.0,1.0,0.6805,0.0,9.0,9.0,9.0,1.0,pumpkin_03s.jpg,0.0,Orange.png,2.0,22,,,,,,,,,,,,,,,,,
0.0,1.0,0.6852,0.0,10.0,10.0,10.0,1.0,dashboard_02s.jpg,0.0,Yellow.png,2.0,22,,,,,,,,,,,,,,,,,
0.0,1.0,0.8849,0.0,11.0,11.0,11.0,1.0,syringe_02s.jpg,0.0,Green.png,2.0,22,,,,,,,,,,,,,,,,,
0.0,1.0,1.4432,0.0,12.0,12.0,12.0,1.0,powder_07s.jpg,0.0,Blue.png,3.0,22,,,,,,,,,,,,,,,,,
1.0,1.0,1.2366,0.0,13.0,13.0,13.0,1.0,powder_07s.jpg,1.0,Purple.png,3.0,22,,,,,,,,,,,,,,,,,
1.0,1.0,1.2662,0.0,14.0,14.0,14.0,1.0,powder_07s.jpg,1.0,Red.png,3.0,22,,,,,,,,,,,,,,,,,
0.0,1.0,0.6385,0.0,15.0,15.0,15.0,1.0,sea_urchin_09s.jpg,0.0,Orange.png,3.0,22,,,,,,,,,,,,,,,,,
0.0,1.0,0.8307,0.0,16.0,16.0,16.0,1.0,throne_11s.jpg,0.0,Yellow.png,3.0,22,,,,,,,,,,,,,,,,,
1.0,1.0,1.277,0.0,17.0,17.0,17.0,1.0,powder_07s.jpg,1.0,Green.png,3.0,22,,,,,,,,,,,,,,,,,
0.0,1.0,0.6363,0.0,18.0,18.0,18.0,1.0,chalice_10s.jpg,0.0,Blue.png,4.0,22,,,,,,,,,,,,,,,,,
0.0,1.0,0.8934,0.0,19.0,19.0,19.0,1.0,air_pump_05s.jpg,0.0,Purple.png,4.0,22,,,,,,,,,,,,,,,,,
0.0,1.0,1.0404,0.0,20.0,20.0,20.0,1.0,microwave_02s.jpg,0.0,Red.png,4.0,22,,,,,,,,,,,,,,,,,
0.0,1.0,0.6997,0.0,21.0,21.0,21.0,1.0,cereal_04s.jpg,0.0,Orange.png,4.0,22,,,,,,,,,,,,,,,,,
0.0,1.0,0.8033,0.0,22.0,22.0,22.0,1.0,mushroom_10n.jpg,0.0,Yellow.png,4.0,22,,,,,,,,,,,,,,,,,
0.0,1.0,0.6366,0.0,23.0,23.0,23.0,1.0,red_carpet_03s.jpg,0.0,Green.png,4.0,22,,,,,,,,,,,,,,,,,
0.0,1.0,0.9612,0.0,24.0,24.0,24.0,1.0,throne_11s.jpg,0.0,Blue.png,5.0,22,,,,,,,,,,,,,,,,,
0.0,1.0,0.6504,0.0,25.0,25.0,25.0,1.0,koala_13s.jpg,0.0,Purple.png,5.0,22,,,,,,,,,,,,,,,,,
1.0,1.0,1.3765,0.0,26.0,26.0,26.0,1.0,throne_11s.jpg,1.0,Red.png,5.0,22,,,,,,,,,,,,,,,,,
0.0,1.0,0.6116,0.0,27.0,27.0,27.0,1.0,rocket_02s.jpg,0.0,Orange.png,5.0,22,,,,,,,,,,,,,,,,,
0.0,1.0,0.6059,0.0,28.0,28.0,28.0,1.0,swordfish_05s.jpg,0.0,Yellow.png,5.0,22,,,,,,,,,,,,,,,,,
1.0,1.0,1.8892,0.0,29.0,29.0,29.0,1.0,rocket_02s.jpg,1.0,Green.png,5.0,22,,,,,,,,,,,,,,,,,
0.0,1.0,0.6332,0.0,30.0,30.0,30.0,1.0,icicle_04s.jpg,0.0,Blue.png,6.0,22,,,,,,,,,,,,,,,,,
0.0,1.0,0.5295,0.0,31.0,31.0,31.0,1.0,keyboard_05s.jpg,0.0,Purple.png,6.0,22,,,,,,,,,,,,,,,,,
0.0,1.0,0.6384,0.0,32.0,32.0,32.0,1.0,pocket_watch_16s.jpg,0.0,Red.png,6.0,22,,,,,,,,,,,,,,,,,
0.0,1.0,0.5865,0.0,33.0,33.0,33.0,1.0,tablet_04s.jpg,0.0,Orange.png,6.0,22,,,,,,,,,,,,,,,,,
0.0,1.0,0.5374,0.0,34.0,34.0,34.0,1.0,chocolate_01b.jpg,0.0,Yellow.png,6.0,22,,,,,,,,,,,,,,,,,
0.0,1.0,0.9511,0.0,35.0,35.0,35.0,1.0,light_switch_02s.jpg,0.0,Green.png,6.0,22,,,,,,,,,,,,,,,,,
,,,,,,,,,0.0,,,22,0.0,1.0,2.4369,0.0,0.0,0.0,0.0,1.0,chalice_10s.jpg,sea_urchin_09s.jpg,,,,,,,
,,,,,,,,,1.0,,,22,0.0,0.0,3.7477,0.0,1.0,1.0,1.0,1.0,swordfish_05s.jpg,keyboard_05s.jpg,,,,,,,
,,,,,,,,,0.0,,,22,0.0,1.0,1.8599,0.0,2.0,2.0,2.0,1.0,red_carpet_03s.jpg,microwave_02s.jpg,,,,,,,
,,,,,,,,,0.0,,,22,0.0,1.0,0.8748,0.0,3.0,3.0,3.0,1.0,dashboard_02s.jpg,toad_09s.jpg,,,,,,,
,,,,,,,,,0.0,,,22,1.0,0.0,2.5759,0.0,4.0,4.0,4.0,1.0,koala_13s.jpg,mushroom_10n.jpg,,,,,,,
,,,,,,,,,1.0,,,22,1.0,1.0,2.3367,0.0,5.0,5.0,5.0,1.0,icicle_04s.jpg,tablet_04s.jpg,,,,,,,
,,,,,,,,,,,,22,,,,,,,,,,,0.0,8.0,8.0,8.0,1.0,newclockpresent_9_4.xlsx,newclock_compare_task_9_4.xlsx
