key_resp.keys,key_resp.corr,key_resp.rt,present_segment.thisRepN,present_segment.thisTrialN,present_segment.thisN,present_segment.thisIndex,present_segment.ran,pictures,answer,clock,segment,participant,key_resp_2.keys,key_resp_2.corr,key_resp_2.rt,compare_segment.thisRepN,compare_segment.thisTrialN,compare_segment.thisN,compare_segment.thisIndex,compare_segment.ran,item_a,item_b,clock_conditions.thisRepN,clock_conditions.thisTrialN,clock_conditions.thisN,clock_conditions.thisIndex,clock_conditions.ran,present,compare
0.0,1.0,1.54572,0.0,0.0,0.0,0.0,1.0,mirror_12s.jpg,0.0,Blue.png,1.0,65,,,,,,,,,,,,,,,,,
0.0,1.0,1.027525,0.0,1.0,1.0,1.0,1.0,polaroid_05s.jpg,0.0,Purple.png,1.0,65,,,,,,,,,,,,,,,,,
1.0,1.0,1.176865,0.0,2.0,2.0,2.0,1.0,polaroid_05s.jpg,1.0,Red.png,1.0,65,,,,,,,,,,,,,,,,,
0.0,1.0,1.719135,0.0,3.0,3.0,3.0,1.0,slingshot_07s.jpg,0.0,Orange.png,1.0,65,,,,,,,,,,,,,,,,,
1.0,1.0,1.89498,0.0,4.0,4.0,4.0,1.0,polaroid_05s.jpg,1.0,Yellow.png,1.0,65,,,,,,,,,,,,,,,,,
0.0,1.0,1.03414,0.0,5.0,5.0,5.0,1.0,kettle_08s.jpg,0.0,Green.png,1.0,65,,,,,,,,,,,,,,,,,
0.0,1.0,1.53805,0.0,6.0,6.0,6.0,1.0,crystal_ball_12s.jpg,0.0,Blue.png,2.0,65,,,,,,,,,,,,,,,,,
0.0,1.0,1.23042,0.0,7.0,7.0,7.0,1.0,iron_13s.jpg,0.0,Purple.png,2.0,65,,,,,,,,,,,,,,,,,
0.0,1.0,0.654275,0.0,8.0,8.0,8.0,1.0,saddle_06s.jpg,0.0,Red.png,2.0,65,,,,,,,,,,,,,,,,,
0.0,1.0,0.790735,0.0,9.0,9.0,9.0,1.0,mango_09s.jpg,0.0,Orange.png,2.0,65,,,,,,,,,,,,,,,,,
0.0,1.0,1.238545,0.0,10.0,10.0,10.0,1.0,ostrich_06s.jpg,0.0,Yellow.png,2.0,65,,,,,,,,,,,,,,,,,
1.0,1.0,1.586705,0.0,11.0,11.0,11.0,1.0,iron_13s.jpg,1.0,Green.png,2.0,65,,,,,,,,,,,,,,,,,
0.0,1.0,0.787075,0.0,12.0,12.0,12.0,1.0,stethoscope_01b.jpg,0.0,Blue.png,3.0,65,,,,,,,,,,,,,,,,,
0.0,1.0,0.924395,0.0,13.0,13.0,13.0,1.0,ruby_15s.jpg,0.0,Purple.png,3.0,65,,,,,,,,,,,,,,,,,
1.0,0.0,0.99253,0.0,14.0,14.0,14.0,1.0,mango_09s.jpg,0.0,Red.png,3.0,65,,,,,,,,,,,,,,,,,
0.0,1.0,0.64163,0.0,15.0,15.0,15.0,1.0,target_11s.jpg,0.0,Orange.png,3.0,65,,,,,,,,,,,,,,,,,
1.0,1.0,1.86708,0.0,16.0,16.0,16.0,1.0,mango_09s.jpg,1.0,Yellow.png,3.0,65,,,,,,,,,,,,,,,,,
0.0,1.0,0.79078,0.0,17.0,17.0,17.0,1.0,compass_10n.jpg,0.0,Green.png,3.0,65,,,,,,,,,,,,,,,,,
0.0,1.0,0.8869,0.0,18.0,18.0,18.0,1.0,meatball_13s.jpg,0.0,Blue.png,4.0,65,,,,,,,,,,,,,,,,,
0.0,1.0,0.77151,0.0,19.0,19.0,19.0,1.0,stapler_01b.jpg,0.0,Purple.png,4.0,65,,,,,,,,,,,,,,,,,
1.0,1.0,1.19108,0.0,20.0,20.0,20.0,1.0,meatball_13s.jpg,1.0,Red.png,4.0,65,,,,,,,,,,,,,,,,,
0.0,1.0,0.97141,0.0,21.0,21.0,21.0,1.0,pump_11s.jpg,0.0,Orange.png,4.0,65,,,,,,,,,,,,,,,,,
0.0,1.0,0.98103,0.0,22.0,22.0,22.0,1.0,coral_08s.jpg,0.0,Yellow.png,4.0,65,,,,,,,,,,,,,,,,,
1.0,1.0,0.670235,0.0,23.0,23.0,23.0,1.0,meatball_13s.jpg,1.0,Green.png,4.0,65,,,,,,,,,,,,,,,,,
0.0,1.0,0.72577,0.0,24.0,24.0,24.0,1.0,peach_04s.jpg,0.0,Blue.png,5.0,65,,,,,,,,,,,,,,,,,
1.0,0.0,0.645745,0.0,25.0,25.0,25.0,1.0,meatball_13s.jpg,0.0,Purple.png,5.0,65,,,,,,,,,,,,,,,,,
0.0,1.0,1.13096,0.0,26.0,26.0,26.0,1.0,pie_08s.jpg,0.0,Red.png,5.0,65,,,,,,,,,,,,,,,,,
0.0,1.0,2.391335,0.0,27.0,27.0,27.0,1.0,rollerskate_03s.jpg,0.0,Orange.png,5.0,65,,,,,,,,,,,,,,,,,
0.0,1.0,1.289765,0.0,28.0,28.0,28.0,1.0,trampoline_13s.jpg,0.0,Yellow.png,5.0,65,,,,,,,,,,,,,,,,,
0.0,1.0,1.004535,0.0,29.0,29.0,29.0,1.0,undershirt_02s.jpg,0.0,Green.png,5.0,65,,,,,,,,,,,,,,,,,
0.0,1.0,0.843185,0.0,30.0,30.0,30.0,1.0,thread_08s.jpg,0.0,Blue.png,6.0,65,,,,,,,,,,,,,,,,,
0.0,1.0,0.678475,0.0,31.0,31.0,31.0,1.0,megaphone_03s.jpg,0.0,Purple.png,6.0,65,,,,,,,,,,,,,,,,,
0.0,1.0,0.77095,0.0,32.0,32.0,32.0,1.0,plaster_cast_13s.jpg,0.0,Red.png,6.0,65,,,,,,,,,,,,,,,,,
0.0,1.0,1.52675,0.0,33.0,33.0,33.0,1.0,diving_board_07s.jpg,0.0,Orange.png,6.0,65,,,,,,,,,,,,,,,,,
0.0,1.0,0.783355,0.0,34.0,34.0,34.0,1.0,kayak_08s.jpg,0.0,Yellow.png,6.0,65,,,,,,,,,,,,,,,,,
1.0,1.0,0.846225,0.0,35.0,35.0,35.0,1.0,diving_board_07s.jpg,1.0,Green.png,6.0,65,,,,,,,,,,,,,,,,,
,,,,,,,,,1.0,,,65,1.0,1.0,1.25248,0.0,0.0,0.0,0.0,1.0,stapler_01b.jpg,coral_08s.jpg,,,,,,,
,,,,,,,,,1.0,,,65,0.0,0.0,1.740895,0.0,1.0,1.0,1.0,1.0,slingshot_07s.jpg,crystal_ball_12s.jpg,,,,,,,
,,,,,,,,,0.0,,,65,0.0,1.0,1.652335,0.0,2.0,2.0,2.0,1.0,saddle_06s.jpg,kettle_08s.jpg,,,,,,,
,,,,,,,,,1.0,,,65,1.0,1.0,1.948095,0.0,3.0,3.0,3.0,1.0,pie_08s.jpg,undershirt_02s.jpg,,,,,,,
,,,,,,,,,1.0,,,65,1.0,1.0,2.134095,0.0,4.0,4.0,4.0,1.0,stethoscope_01b.jpg,target_11s.jpg,,,,,,,
,,,,,,,,,1.0,,,65,1.0,1.0,1.66288,0.0,5.0,5.0,5.0,1.0,ostrich_06s.jpg,ruby_15s.jpg,,,,,,,
,,,,,,,,,,,,65,,,,,,,,,,,0.0,0.0,0.0,0.0,1.0,newclockpresent_1_4.xlsx,newclock_compare_task_1_4.xlsx
0.0,1.0,0.84983,0.0,0.0,0.0,0.0,1.0,jetski_10s.jpg,0.0,Blue.png,1.0,65,,,,,,,,,,,,,,,,,
0.0,1.0,0.79812,0.0,1.0,1.0,1.0,1.0,tripod_01b.jpg,0.0,Purple.png,1.0,65,,,,,,,,,,,,,,,,,
0.0,1.0,0.774785,0.0,2.0,2.0,2.0,1.0,lab_coat_11s.jpg,0.0,Red.png,1.0,65,,,,,,,,,,,,,,,,,
0.0,1.0,0.787925,0.0,3.0,3.0,3.0,1.0,foam_03s.jpg,0.0,Orange.png,1.0,65,,,,,,,,,,,,,,,,,
0.0,1.0,0.903415,0.0,4.0,4.0,4.0,1.0,crate_05s.jpg,0.0,Yellow.png,1.0,65,,,,,,,,,,,,,,,,,
0.0,1.0,0.584735,0.0,5.0,5.0,5.0,1.0,margarita_03s.jpg,0.0,Green.png,1.0,65,,,,,,,,,,,,,,,,,
0.0,1.0,0.593295,0.0,6.0,6.0,6.0,1.0,joystick_01b.jpg,0.0,Blue.png,2.0,65,,,,,,,,,,,,,,,,,
0.0,1.0,0.672745,0.0,7.0,7.0,7.0,1.0,giraffe_11s.jpg,0.0,Purple.png,2.0,65,,,,,,,,,,,,,,,,,
0.0,1.0,0.69832,0.0,8.0,8.0,8.0,1.0,quilt_03s.jpg,0.0,Red.png,2.0,65,,,,,,,,,,,,,,,,,
1.0,1.0,0.98767,0.0,9.0,9.0,9.0,1.0,giraffe_11s.jpg,1.0,Orange.png,2.0,65,,,,,,,,,,,,,,,,,
0.0,1.0,0.67192,0.0,10.0,10.0,10.0,1.0,pincushion_10s.jpg,0.0,Yellow.png,2.0,65,,,,,,,,,,,,,,,,,
1.0,1.0,0.67673,0.0,11.0,11.0,11.0,1.0,giraffe_11s.jpg,1.0,Green.png,2.0,65,,,,,,,,,,,,,,,,,
1.0,0.0,0.93082,0.0,12.0,12.0,12.0,1.0,pincushion_10s.jpg,0.0,Blue.png,3.0,65,,,,,,,,,,,,,,,,,
1.0,0.0,0.546005,0.0,13.0,13.0,13.0,1.0,giraffe_11s.jpg,0.0,Purple.png,3.0,65,,,,,,,,,,,,,,,,,
0.0,1.0,0.690825,0.0,14.0,14.0,14.0,1.0,rolling_pin_02s.jpg,0.0,Red.png,3.0,65,,,,,,,,,,,,,,,,,
0.0,1.0,0.59052,0.0,15.0,15.0,15.0,1.0,ticktacktoe_08s.jpg,0.0,Orange.png,3.0,65,,,,,,,,,,,,,,,,,
1.0,1.0,0.668865,0.0,16.0,16.0,16.0,1.0,giraffe_11s.jpg,1.0,Yellow.png,3.0,65,,,,,,,,,,,,,,,,,
1.0,1.0,0.91313,0.0,17.0,17.0,17.0,1.0,ticktacktoe_08s.jpg,1.0,Green.png,3.0,65,,,,,,,,,,,,,,,,,
0.0,1.0,0.69074,0.0,18.0,18.0,18.0,1.0,typewriter_11s.jpg,0.0,Blue.png,4.0,65,,,,,,,,,,,,,,,,,
0.0,1.0,0.910335,0.0,19.0,19.0,19.0,1.0,toothpaste_12s.jpg,0.0,Purple.png,4.0,65,,,,,,,,,,,,,,,,,
0.0,1.0,0.84707,0.0,20.0,20.0,20.0,1.0,hummingbird_05s.jpg,0.0,Red.png,4.0,65,,,,,,,,,,,,,,,,,
1.0,1.0,0.649645,0.0,21.0,21.0,21.0,1.0,toothpaste_12s.jpg,1.0,Orange.png,4.0,65,,,,,,,,,,,,,,,,,
1.0,1.0,0.635235,0.0,22.0,22.0,22.0,1.0,toothpaste_12s.jpg,1.0,Yellow.png,4.0,65,,,,,,,,,,,,,,,,,
0.0,1.0,0.62397,0.0,23.0,23.0,23.0,1.0,treadmill_06s.jpg,0.0,Green.png,4.0,65,,,,,,,,,,,,,,,,,
1.0,0.0,1.155665,0.0,24.0,24.0,24.0,1.0,typewriter_11s.jpg,0.0,Blue.png,5.0,65,,,,,,,,,,,,,,,,,
0.0,1.0,0.97169,0.0,25.0,25.0,25.0,1.0,penguin_16s.jpg,0.0,Purple.png,5.0,65,,,,,,,,,,,,,,,,,
0.0,1.0,0.8721,0.0,26.0,26.0,26.0,1.0,olive_05s.jpg,0.0,Red.png,5.0,65,,,,,,,,,,,,,,,,,
1.0,1.0,1.25752,0.0,27.0,27.0,27.0,1.0,penguin_16s.jpg,1.0,Orange.png,5.0,65,,,,,,,,,,,,,,,,,
1.0,1.0,0.99927,0.0,28.0,28.0,28.0,1.0,penguin_16s.jpg,1.0,Yellow.png,5.0,65,,,,,,,,,,,,,,,,,
0.0,1.0,1.745455,0.0,29.0,29.0,29.0,1.0,tab_09s.jpg,0.0,Green.png,5.0,65,,,,,,,,,,,,,,,,,
0.0,1.0,0.61862,0.0,30.0,30.0,30.0,1.0,frame_06s.jpg,0.0,Blue.png,6.0,65,,,,,,,,,,,,,,,,,
0.0,1.0,0.86529,0.0,31.0,31.0,31.0,1.0,mop_08s.jpg,0.0,Purple.png,6.0,65,,,,,,,,,,,,,,,,,
0.0,1.0,1.225825,0.0,32.0,32.0,32.0,1.0,memory_stick_11s.jpg,0.0,Red.png,6.0,65,,,,,,,,,,,,,,,,,
0.0,1.0,1.98793,0.0,33.0,33.0,33.0,1.0,olive_05s.jpg,0.0,Orange.png,6.0,65,,,,,,,,,,,,,,,,,
0.0,1.0,0.87647,0.0,34.0,34.0,34.0,1.0,ravioli_08s.jpg,0.0,Yellow.png,6.0,65,,,,,,,,,,,,,,,,,
0.0,1.0,1.243025,0.0,35.0,35.0,35.0,1.0,mousetrap_15n.jpg,0.0,Green.png,6.0,65,,,,,,,,,,,,,,,,,
,,,,,,,,,1.0,,,65,1.0,1.0,2.533995,0.0,0.0,0.0,0.0,1.0,hummingbird_05s.jpg,treadmill_06s.jpg,,,,,,,
,,,,,,,,,1.0,,,65,1.0,1.0,1.31898,0.0,1.0,1.0,1.0,1.0,margarita_03s.jpg,quilt_03s.jpg,,,,,,,
,,,,,,,,,0.0,,,65,0.0,1.0,1.39505,0.0,2.0,2.0,2.0,1.0,joystick_01b.jpg,foam_03s.jpg,,,,,,,
,,,,,,,,,0.0,,,65,0.0,1.0,1.38876,0.0,3.0,3.0,3.0,1.0,ravioli_08s.jpg,mop_08s.jpg,,,,,,,
,,,,,,,,,1.0,,,65,1.0,1.0,1.54543,0.0,4.0,4.0,4.0,1.0,tab_09s.jpg,memory_stick_11s.jpg,,,,,,,
,,,,,,,,,1.0,,,65,1.0,1.0,1.380815,0.0,5.0,5.0,5.0,1.0,tripod_01b.jpg,crate_05s.jpg,,,,,,,
,,,,,,,,,,,,65,,,,,,,,,,,0.0,1.0,1.0,1.0,1.0,newclockpresent_2_4.xlsx,newclock_compare_task_2_4.xlsx
0.0,1.0,1.00184,0.0,0.0,0.0,0.0,1.0,safety_pin_02s.jpg,0.0,Blue.png,1.0,65,,,,,,,,,,,,,,,,,
1.0,1.0,0.805825,0.0,1.0,1.0,1.0,1.0,safety_pin_02s.jpg,1.0,Purple.png,1.0,65,,,,,,,,,,,,,,,,,
0.0,1.0,0.51467,0.0,2.0,2.0,2.0,1.0,cardinal_07s.jpg,0.0,Red.png,1.0,65,,,,,,,,,,,,,,,,,
1.0,1.0,1.0003,0.0,3.0,3.0,3.0,1.0,safety_pin_02s.jpg,1.0,Orange.png,1.0,65,,,,,,,,,,,,,,,,,
0.0,1.0,0.51841,0.0,4.0,4.0,4.0,1.0,potholder_02s.jpg,0.0,Yellow.png,1.0,65,,,,,,,,,,,,,,,,,
1.0,1.0,1.047335,0.0,5.0,5.0,5.0,1.0,safety_pin_02s.jpg,1.0,Green.png,1.0,65,,,,,,,,,,,,,,,,,
0.0,1.0,2.328805,0.0,6.0,6.0,6.0,1.0,cardinal_07s.jpg,0.0,Blue.png,2.0,65,,,,,,,,,,,,,,,,,
0.0,1.0,0.801915,0.0,7.0,7.0,7.0,1.0,lion_18s.jpg,0.0,Purple.png,2.0,65,,,,,,,,,,,,,,,,,
0.0,1.0,0.76399,0.0,8.0,8.0,8.0,1.0,comic_book_02s.jpg,0.0,Red.png,2.0,65,,,,,,,,,,,,,,,,,
0.0,1.0,0.85983,0.0,9.0,9.0,9.0,1.0,lizard_10n.jpg,0.0,Orange.png,2.0,65,,,,,,,,,,,,,,,,,
0.0,1.0,0.821845,0.0,10.0,10.0,10.0,1.0,rice_12s.jpg,0.0,Yellow.png,2.0,65,,,,,,,,,,,,,,,,,
0.0,1.0,0.62279,0.0,11.0,11.0,11.0,1.0,bagel_15s.jpg,0.0,Green.png,2.0,65,,,,,,,,,,,,,,,,,
0.0,1.0,0.7477,0.0,12.0,12.0,12.0,1.0,recliner_02s.jpg,0.0,Blue.png,3.0,65,,,,,,,,,,,,,,,,,
1.0,1.0,1.068645,0.0,13.0,13.0,13.0,1.0,recliner_02s.jpg,1.0,Purple.png,3.0,65,,,,,,,,,,,,,,,,,
0.0,1.0,0.770195,0.0,14.0,14.0,14.0,1.0,luggage_08s.jpg,0.0,Red.png,3.0,65,,,,,,,,,,,,,,,,,
1.0,1.0,0.66384,0.0,15.0,15.0,15.0,1.0,recliner_02s.jpg,1.0,Orange.png,3.0,65,,,,,,,,,,,,,,,,,
0.0,1.0,1.059575,0.0,16.0,16.0,16.0,1.0,onion_10s.jpg,0.0,Yellow.png,3.0,65,,,,,,,,,,,,,,,,,
0.0,1.0,0.65766,0.0,17.0,17.0,17.0,1.0,rosary_03s.jpg,0.0,Green.png,3.0,65,,,,,,,,,,,,,,,,,
0.0,1.0,1.1062,0.0,18.0,18.0,18.0,1.0,smokingpipe.jpg,0.0,Blue.png,4.0,65,,,,,,,,,,,,,,,,,
0.0,1.0,0.7448,0.0,19.0,19.0,19.0,1.0,roulette_wheel_04s.jpg,0.0,Purple.png,4.0,65,,,,,,,,,,,,,,,,,
1.0,1.0,0.951935,0.0,20.0,20.0,20.0,1.0,smokingpipe.jpg,1.0,Red.png,4.0,65,,,,,,,,,,,,,,,,,
0.0,1.0,0.633965,0.0,21.0,21.0,21.0,1.0,orchid_01b.jpg,0.0,Orange.png,4.0,65,,,,,,,,,,,,,,,,,
0.0,1.0,0.66471,0.0,22.0,22.0,22.0,1.0,buoy_04s.jpg,0.0,Yellow.png,4.0,65,,,,,,,,,,,,,,,,,
0.0,1.0,0.839495,0.0,23.0,23.0,23.0,1.0,stopwatch_04s.jpg,0.0,Green.png,4.0,65,,,,,,,,,,,,,,,,,
0.0,1.0,0.660745,0.0,24.0,24.0,24.0,1.0,knitting_needle_04s.jpg,0.0,Blue.png,5.0,65,,,,,,,,,,,,,,,,,
0.0,1.0,1.00749,0.0,25.0,25.0,25.0,1.0,prism_10s.jpg,0.0,Purple.png,5.0,65,,,,,,,,,,,,,,,,,
0.0,1.0,0.892515,0.0,26.0,26.0,26.0,1.0,teapot_03s.jpg,0.0,Red.png,5.0,65,,,,,,,,,,,,,,,,,
0.0,1.0,1.84845,0.0,27.0,27.0,27.0,1.0,fire_pit_10s.jpg,0.0,Orange.png,5.0,65,,,,,,,,,,,,,,,,,
1.0,1.0,1.90167,0.0,28.0,28.0,28.0,1.0,fire_pit_10s.jpg,1.0,Yellow.png,5.0,65,,,,,,,,,,,,,,,,,
1.0,1.0,1.595585,0.0,29.0,29.0,29.0,1.0,fire_pit_10s.jpg,1.0,Green.png,5.0,65,,,,,,,,,,,,,,,,,
0.0,1.0,1.11747,0.0,30.0,30.0,30.0,1.0,ironing_board_07s.jpg,0.0,Blue.png,6.0,65,,,,,,,,,,,,,,,,,
0.0,1.0,1.294105,0.0,31.0,31.0,31.0,1.0,fire_pit_10s.jpg,0.0,Purple.png,6.0,65,,,,,,,,,,,,,,,,,
0.0,1.0,1.01804,0.0,32.0,32.0,32.0,1.0,mattress_01s.jpg,0.0,Red.png,6.0,65,,,,,,,,,,,,,,,,,
1.0,1.0,1.356605,0.0,33.0,33.0,33.0,1.0,fire_pit_10s.jpg,1.0,Orange.png,6.0,65,,,,,,,,,,,,,,,,,
0.0,0.0,1.79077,0.0,34.0,34.0,34.0,1.0,mattress_01s.jpg,1.0,Yellow.png,6.0,65,,,,,,,,,,,,,,,,,
0.0,1.0,1.491755,0.0,35.0,35.0,35.0,1.0,ice-cream_cone_06s.jpg,0.0,Green.png,6.0,65,,,,,,,,,,,,,,,,,
,,,,,,,,,1.0,,,65,0.0,0.0,2.185125,0.0,0.0,0.0,0.0,1.0,roulette_wheel_04s.jpg,buoy_04s.jpg,,,,,,,
,,,,,,,,,0.0,,,65,1.0,0.0,1.172965,0.0,1.0,1.0,1.0,1.0,lion_18s.jpg,potholder_02s.jpg,,,,,,,
,,,,,,,,,0.0,,,65,1.0,0.0,1.98443,0.0,2.0,2.0,2.0,1.0,bagel_15s.jpg,comic_book_02s.jpg,,,,,,,
,,,,,,,,,1.0,,,65,1.0,1.0,1.84653,0.0,3.0,3.0,3.0,1.0,stopwatch_04s.jpg,teapot_03s.jpg,,,,,,,
,,,,,,,,,1.0,,,65,1.0,1.0,1.227695,0.0,4.0,4.0,4.0,1.0,luggage_08s.jpg,rosary_03s.jpg,,,,,,,
,,,,,,,,,1.0,,,65,0.0,0.0,1.12946,0.0,5.0,5.0,5.0,1.0,orchid_01b.jpg,knitting_needle_04s.jpg,,,,,,,
,,,,,,,,,,,,65,,,,,,,,,,,0.0,2.0,2.0,2.0,1.0,newclockpresent_3_4.xlsx,newclock_compare_task_3_4.xlsx
0.0,1.0,0.91885,0.0,0.0,0.0,0.0,1.0,smoothie_09s.jpg,0.0,Blue.png,1.0,65,,,,,,,,,,,,,,,,,
0.0,1.0,0.7446,0.0,1.0,1.0,1.0,1.0,raspberry_12s.jpg,0.0,Purple.png,1.0,65,,,,,,,,,,,,,,,,,
1.0,1.0,0.839085,0.0,2.0,2.0,2.0,1.0,raspberry_12s.jpg,1.0,Red.png,1.0,65,,,,,,,,,,,,,,,,,
0.0,1.0,1.335495,0.0,3.0,3.0,3.0,1.0,lamb_chop_07s.jpg,0.0,Orange.png,1.0,65,,,,,,,,,,,,,,,,,
1.0,1.0,1.33774,0.0,4.0,4.0,4.0,1.0,smoothie_09s.jpg,1.0,Yellow.png,1.0,65,,,,,,,,,,,,,,,,,
1.0,1.0,0.82115,0.0,5.0,5.0,5.0,1.0,raspberry_12s.jpg,1.0,Green.png,1.0,65,,,,,,,,,,,,,,,,,
0.0,1.0,0.652875,0.0,6.0,6.0,6.0,1.0,lava_02s.jpg,0.0,Blue.png,2.0,65,,,,,,,,,,,,,,,,,
0.0,1.0,0.637535,0.0,7.0,7.0,7.0,1.0,trident_07s.jpg,0.0,Purple.png,2.0,65,,,,,,,,,,,,,,,,,
1.0,1.0,1.000195,0.0,8.0,8.0,8.0,1.0,trident_07s.jpg,1.0,Red.png,2.0,65,,,,,,,,,,,,,,,,,
1.0,1.0,0.830535,0.0,9.0,9.0,9.0,1.0,trident_07s.jpg,1.0,Orange.png,2.0,65,,,,,,,,,,,,,,,,,
0.0,1.0,0.780845,0.0,10.0,10.0,10.0,1.0,orangutan_03s.jpg,0.0,Yellow.png,2.0,65,,,,,,,,,,,,,,,,,
1.0,1.0,1.755735,0.0,11.0,11.0,11.0,1.0,trident_07s.jpg,1.0,Green.png,2.0,65,,,,,,,,,,,,,,,,,
0.0,1.0,1.46389,0.0,12.0,12.0,12.0,1.0,raspberry_12s.jpg,0.0,Blue.png,3.0,65,,,,,,,,,,,,,,,,,
0.0,1.0,1.28786,0.0,13.0,13.0,13.0,1.0,trident_07s.jpg,0.0,Purple.png,3.0,65,,,,,,,,,,,,,,,,,
0.0,1.0,0.942955,0.0,14.0,14.0,14.0,1.0,lavender_10s.jpg,0.0,Red.png,3.0,65,,,,,,,,,,,,,,,,,
0.0,1.0,0.78802,0.0,15.0,15.0,15.0,1.0,chip_04s.jpg,0.0,Orange.png,3.0,65,,,,,,,,,,,,,,,,,
0.0,1.0,0.827455,0.0,16.0,16.0,16.0,1.0,lamb_04s.jpg,0.0,Yellow.png,3.0,65,,,,,,,,,,,,,,,,,
0.0,1.0,1.16827,0.0,17.0,17.0,17.0,1.0,emerald_02s.jpg,0.0,Green.png,3.0,65,,,,,,,,,,,,,,,,,
0.0,1.0,0.673855,0.0,18.0,18.0,18.0,1.0,pineapple_12s.jpg,0.0,Blue.png,4.0,65,,,,,,,,,,,,,,,,,
0.0,1.0,0.6556,0.0,19.0,19.0,19.0,1.0,sundae_08s.jpg,0.0,Purple.png,4.0,65,,,,,,,,,,,,,,,,,
1.0,1.0,0.970815,0.0,20.0,20.0,20.0,1.0,sundae_08s.jpg,1.0,Red.png,4.0,65,,,,,,,,,,,,,,,,,
0.0,1.0,0.609405,0.0,21.0,21.0,21.0,1.0,squirrel_02s.jpg,0.0,Orange.png,4.0,65,,,,,,,,,,,,,,,,,
0.0,1.0,0.75472,0.0,22.0,22.0,22.0,1.0,roller_coaster_07s.jpg,0.0,Yellow.png,4.0,65,,,,,,,,,,,,,,,,,
1.0,1.0,1.093045,0.0,23.0,23.0,23.0,1.0,sundae_08s.jpg,1.0,Green.png,4.0,65,,,,,,,,,,,,,,,,,
0.0,1.0,1.073585,0.0,24.0,24.0,24.0,1.0,tweezers_03s.jpg,0.0,Blue.png,5.0,65,,,,,,,,,,,,,,,,,
1.0,0.0,1.07293,0.0,25.0,25.0,25.0,1.0,sundae_08s.jpg,0.0,Purple.png,5.0,65,,,,,,,,,,,,,,,,,
0.0,1.0,1.090575,0.0,26.0,26.0,26.0,1.0,rudder_02s.jpg,0.0,Red.png,5.0,65,,,,,,,,,,,,,,,,,
0.0,1.0,0.655645,0.0,27.0,27.0,27.0,1.0,rake_06s.jpg,0.0,Orange.png,5.0,65,,,,,,,,,,,,,,,,,
1.0,1.0,1.294325,0.0,28.0,28.0,28.0,1.0,rake_06s.jpg,1.0,Yellow.png,5.0,65,,,,,,,,,,,,,,,,,
1.0,1.0,0.665525,0.0,29.0,29.0,29.0,1.0,rake_06s.jpg,1.0,Green.png,5.0,65,,,,,,,,,,,,,,,,,
0.0,1.0,0.75474,0.0,30.0,30.0,30.0,1.0,cap_05s.jpg,0.0,Blue.png,6.0,65,,,,,,,,,,,,,,,,,
0.0,1.0,0.60287,0.0,31.0,31.0,31.0,1.0,paper_towel_03s.jpg,0.0,Purple.png,6.0,65,,,,,,,,,,,,,,,,,
0.0,1.0,0.70561,0.0,32.0,32.0,32.0,1.0,toaster_03s.jpg,0.0,Red.png,6.0,65,,,,,,,,,,,,,,,,,
0.0,1.0,0.961845,0.0,33.0,33.0,33.0,1.0,money_07s.jpg,0.0,Orange.png,6.0,65,,,,,,,,,,,,,,,,,
0.0,1.0,0.83583,0.0,34.0,34.0,34.0,1.0,pinwheel_06s.jpg,0.0,Yellow.png,6.0,65,,,,,,,,,,,,,,,,,
0.0,1.0,0.788145,0.0,35.0,35.0,35.0,1.0,lid_10s.jpg,0.0,Green.png,6.0,65,,,,,,,,,,,,,,,,,
,,,,,,,,,0.0,,,65,1.0,0.0,1.400795,0.0,0.0,0.0,0.0,1.0,tweezers_03s.jpg,squirrel_02s.jpg,,,,,,,
,,,,,,,,,1.0,,,65,0.0,0.0,1.397385,0.0,1.0,1.0,1.0,1.0,chip_04s.jpg,pineapple_12s.jpg,,,,,,,
,,,,,,,,,1.0,,,65,0.0,0.0,1.12487,0.0,2.0,2.0,2.0,1.0,lamb_chop_07s.jpg,lava_02s.jpg,,,,,,,
,,,,,,,,,0.0,,,65,1.0,0.0,1.31398,0.0,3.0,3.0,3.0,1.0,pinwheel_06s.jpg,paper_towel_03s.jpg,,,,,,,
,,,,,,,,,0.0,,,65,0.0,1.0,1.294875,0.0,4.0,4.0,4.0,1.0,emerald_02s.jpg,lavender_10s.jpg,,,,,,,
,,,,,,,,,0.0,,,65,0.0,1.0,2.018085,0.0,5.0,5.0,5.0,1.0,money_07s.jpg,cap_05s.jpg,,,,,,,
,,,,,,,,,,,,65,,,,,,,,,,,0.0,3.0,3.0,3.0,1.0,newclockpresent_4_4.xlsx,newclock_compare_task_4_4.xlsx
0.0,1.0,1.040865,0.0,0.0,0.0,0.0,1.0,fur_coat_11s.jpg,0.0,Blue.png,1.0,65,,,,,,,,,,,,,,,,,
0.0,1.0,1.54979,0.0,1.0,1.0,1.0,1.0,crayon_09s.jpg,0.0,Purple.png,1.0,65,,,,,,,,,,,,,,,,,
0.0,1.0,0.586265,0.0,2.0,2.0,2.0,1.0,cobra_05s.jpg,0.0,Red.png,1.0,65,,,,,,,,,,,,,,,,,
0.0,1.0,1.122125,0.0,3.0,3.0,3.0,1.0,raccoon_02s.jpg,0.0,Orange.png,1.0,65,,,,,,,,,,,,,,,,,
0.0,1.0,1.16083,0.0,4.0,4.0,4.0,1.0,soda_fountain_03s.jpg,0.0,Yellow.png,1.0,65,,,,,,,,,,,,,,,,,
1.0,1.0,1.14769,0.0,5.0,5.0,5.0,1.0,raccoon_02s.jpg,1.0,Green.png,1.0,65,,,,,,,,,,,,,,,,,
0.0,1.0,0.538025,0.0,6.0,6.0,6.0,1.0,feather02.jpg,0.0,Blue.png,2.0,65,,,,,,,,,,,,,,,,,
0.0,1.0,1.059695,0.0,7.0,7.0,7.0,1.0,raccoon_02s.jpg,0.0,Purple.png,2.0,65,,,,,,,,,,,,,,,,,
1.0,1.0,0.936775,0.0,8.0,8.0,8.0,1.0,feather02.jpg,1.0,Red.png,2.0,65,,,,,,,,,,,,,,,,,
0.0,1.0,0.56623,0.0,9.0,9.0,9.0,1.0,rug_09s.jpg,0.0,Orange.png,2.0,65,,,,,,,,,,,,,,,,,
1.0,1.0,1.21796,0.0,10.0,10.0,10.0,1.0,feather02.jpg,1.0,Yellow.png,2.0,65,,,,,,,,,,,,,,,,,
0.0,1.0,1.136035,0.0,11.0,11.0,11.0,1.0,cushion_08s.jpg,0.0,Green.png,2.0,65,,,,,,,,,,,,,,,,,
0.0,1.0,0.948215,0.0,12.0,12.0,12.0,1.0,feather02.jpg,0.0,Blue.png,3.0,65,,,,,,,,,,,,,,,,,
1.0,1.0,0.953855,0.0,13.0,13.0,13.0,1.0,feather02.jpg,1.0,Purple.png,3.0,65,,,,,,,,,,,,,,,,,
0.0,1.0,0.57836,0.0,14.0,14.0,14.0,1.0,ice_pack_09s.jpg,0.0,Red.png,3.0,65,,,,,,,,,,,,,,,,,
1.0,1.0,1.49531,0.0,15.0,15.0,15.0,1.0,ice_pack_09s.jpg,1.0,Orange.png,3.0,65,,,,,,,,,,,,,,,,,
0.0,1.0,0.722055,0.0,16.0,16.0,16.0,1.0,loom_05s.jpg,0.0,Yellow.png,3.0,65,,,,,,,,,,,,,,,,,
1.0,1.0,0.85846,0.0,17.0,17.0,17.0,1.0,ice_pack_09s.jpg,1.0,Green.png,3.0,65,,,,,,,,,,,,,,,,,
0.0,1.0,1.55243,0.0,18.0,18.0,18.0,1.0,ice_pack_09s.jpg,0.0,Blue.png,4.0,65,,,,,,,,,,,,,,,,,
1.0,1.0,0.72072,0.0,19.0,19.0,19.0,1.0,ice_pack_09s.jpg,1.0,Purple.png,4.0,65,,,,,,,,,,,,,,,,,
1.0,1.0,0.62131,0.0,20.0,20.0,20.0,1.0,ice_pack_09s.jpg,1.0,Red.png,4.0,65,,,,,,,,,,,,,,,,,
0.0,1.0,0.66661,0.0,21.0,21.0,21.0,1.0,blazer_02s.jpg,0.0,Orange.png,4.0,65,,,,,,,,,,,,,,,,,
0.0,1.0,0.990795,0.0,22.0,22.0,22.0,1.0,penlight_12s.jpg,0.0,Yellow.png,4.0,65,,,,,,,,,,,,,,,,,
0.0,1.0,0.634145,0.0,23.0,23.0,23.0,1.0,swan_11s.jpg,0.0,Green.png,4.0,65,,,,,,,,,,,,,,,,,
0.0,1.0,1.4743,0.0,24.0,24.0,24.0,1.0,plunger_08s.jpg,0.0,Blue.png,5.0,65,,,,,,,,,,,,,,,,,
0.0,1.0,0.697895,0.0,25.0,25.0,25.0,1.0,bottle_opener_11s.jpg,0.0,Purple.png,5.0,65,,,,,,,,,,,,,,,,,
0.0,1.0,0.81464,0.0,26.0,26.0,26.0,1.0,checkbook_11s.jpg,0.0,Red.png,5.0,65,,,,,,,,,,,,,,,,,
0.0,1.0,0.64086,0.0,27.0,27.0,27.0,1.0,ink_08s.jpg,0.0,Orange.png,5.0,65,,,,,,,,,,,,,,,,,
1.0,1.0,0.87475,0.0,28.0,28.0,28.0,1.0,plunger_08s.jpg,1.0,Yellow.png,5.0,65,,,,,,,,,,,,,,,,,
0.0,1.0,1.023535,0.0,29.0,29.0,29.0,1.0,pencil02a.jpg,0.0,Green.png,5.0,65,,,,,,,,,,,,,,,,,
0.0,1.0,1.02886,0.0,30.0,30.0,30.0,1.0,ginger_09s.jpg,0.0,Blue.png,6.0,65,,,,,,,,,,,,,,,,,
0.0,1.0,0.755725,0.0,31.0,31.0,31.0,1.0,taxi_15s.jpg,0.0,Purple.png,6.0,65,,,,,,,,,,,,,,,,,
0.0,1.0,0.690955,0.0,32.0,32.0,32.0,1.0,toy_04s.jpg,0.0,Red.png,6.0,65,,,,,,,,,,,,,,,,,
0.0,1.0,0.72246,0.0,33.0,33.0,33.0,1.0,blowfish_03s.jpg,0.0,Orange.png,6.0,65,,,,,,,,,,,,,,,,,
0.0,1.0,0.732035,0.0,34.0,34.0,34.0,1.0,toilet_paper_12s.jpg,0.0,Yellow.png,6.0,65,,,,,,,,,,,,,,,,,
0.0,1.0,0.802165,0.0,35.0,35.0,35.0,1.0,puddle_02s.jpg,0.0,Green.png,6.0,65,,,,,,,,,,,,,,,,,
,,,,,,,,,1.0,,,65,1.0,1.0,2.376455,0.0,0.0,0.0,0.0,1.0,ink_08s.jpg,ginger_09s.jpg,,,,,,,
,,,,,,,,,0.0,,,65,1.0,0.0,2.26541,0.0,1.0,1.0,1.0,1.0,puddle_02s.jpg,toy_04s.jpg,,,,,,,
,,,,,,,,,0.0,,,65,0.0,1.0,1.49058,0.0,2.0,2.0,2.0,1.0,bottle_opener_11s.jpg,penlight_12s.jpg,,,,,,,
,,,,,,,,,0.0,,,65,0.0,1.0,1.57029,0.0,3.0,3.0,3.0,1.0,checkbook_11s.jpg,swan_11s.jpg,,,,,,,
,,,,,,,,,1.0,,,65,1.0,1.0,2.364405,0.0,4.0,4.0,4.0,1.0,taxi_15s.jpg,toilet_paper_12s.jpg,,,,,,,
,,,,,,,,,1.0,,,65,0.0,0.0,1.581955,0.0,5.0,5.0,5.0,1.0,crayon_09s.jpg,soda_fountain_03s.jpg,,,,,,,
,,,,,,,,,,,,65,,,,,,,,,,,0.0,4.0,4.0,4.0,1.0,newclockpresent_5_4.xlsx,newclock_compare_task_5_4.xlsx
0.0,1.0,1.11136,0.0,0.0,0.0,0.0,1.0,flask_04s.jpg,0.0,Blue.png,1.0,65,,,,,,,,,,,,,,,,,
0.0,1.0,0.87967,0.0,1.0,1.0,1.0,1.0,kimono_13s.jpg,0.0,Purple.png,1.0,65,,,,,,,,,,,,,,,,,
0.0,1.0,0.574105,0.0,2.0,2.0,2.0,1.0,limousine_12s.jpg,0.0,Red.png,1.0,65,,,,,,,,,,,,,,,,,
0.0,1.0,0.690115,0.0,3.0,3.0,3.0,1.0,lectern_08s.jpg,0.0,Orange.png,1.0,65,,,,,,,,,,,,,,,,,
1.0,1.0,0.901975,0.0,4.0,4.0,4.0,1.0,kimono_13s.jpg,1.0,Yellow.png,1.0,65,,,,,,,,,,,,,,,,,
0.0,1.0,0.92222,0.0,5.0,5.0,5.0,1.0,doily_13s.jpg,0.0,Green.png,1.0,65,,,,,,,,,,,,,,,,,
0.0,1.0,0.800365,0.0,6.0,6.0,6.0,1.0,kimono_13s.jpg,0.0,Blue.png,2.0,65,,,,,,,,,,,,,,,,,
0.0,1.0,0.66431,0.0,7.0,7.0,7.0,1.0,razor_blade_01b.jpg,0.0,Purple.png,2.0,65,,,,,,,,,,,,,,,,,
1.0,1.0,0.98761,0.0,8.0,8.0,8.0,1.0,razor_blade_01b.jpg,1.0,Red.png,2.0,65,,,,,,,,,,,,,,,,,
0.0,1.0,0.71126,0.0,9.0,9.0,9.0,1.0,champagne_18s.jpg,0.0,Orange.png,2.0,65,,,,,,,,,,,,,,,,,
0.0,1.0,0.707045,0.0,10.0,10.0,10.0,1.0,stamp1_11s.jpg,0.0,Yellow.png,2.0,65,,,,,,,,,,,,,,,,,
1.0,1.0,0.806155,0.0,11.0,11.0,11.0,1.0,champagne_18s.jpg,1.0,Green.png,2.0,65,,,,,,,,,,,,,,,,,
0.0,1.0,0.66994,0.0,12.0,12.0,12.0,1.0,crossbow_10s.jpg,0.0,Blue.png,3.0,65,,,,,,,,,,,,,,,,,
0.0,1.0,0.60831,0.0,13.0,13.0,13.0,1.0,briefcase_03s.jpg,0.0,Purple.png,3.0,65,,,,,,,,,,,,,,,,,
0.0,1.0,0.806885,0.0,14.0,14.0,14.0,1.0,jersey_02s.jpg,0.0,Red.png,3.0,65,,,,,,,,,,,,,,,,,
1.0,1.0,0.77189,0.0,15.0,15.0,15.0,1.0,briefcase_03s.jpg,1.0,Orange.png,3.0,65,,,,,,,,,,,,,,,,,
0.0,1.0,0.6932,0.0,16.0,16.0,16.0,1.0,oil_02s.jpg,0.0,Yellow.png,3.0,65,,,,,,,,,,,,,,,,,
0.0,1.0,0.9195,0.0,17.0,17.0,17.0,1.0,tinsel_12s.jpg,0.0,Green.png,3.0,65,,,,,,,,,,,,,,,,,
0.0,1.0,1.321445,0.0,18.0,18.0,18.0,1.0,flask_04s.jpg,0.0,Blue.png,4.0,65,,,,,,,,,,,,,,,,,
0.0,1.0,0.784895,0.0,19.0,19.0,19.0,1.0,fork_04s.jpg,0.0,Purple.png,4.0,65,,,,,,,,,,,,,,,,,
0.0,1.0,0.675105,0.0,20.0,20.0,20.0,1.0,purse_05s.jpg,0.0,Red.png,4.0,65,,,,,,,,,,,,,,,,,
1.0,1.0,0.86238,0.0,21.0,21.0,21.0,1.0,flask_04s.jpg,1.0,Orange.png,4.0,65,,,,,,,,,,,,,,,,,
0.0,1.0,0.940295,0.0,22.0,22.0,22.0,1.0,sledgehammer_03s.jpg,0.0,Yellow.png,4.0,65,,,,,,,,,,,,,,,,,
0.0,1.0,1.04252,0.0,23.0,23.0,23.0,1.0,turf_03s.jpg,0.0,Green.png,4.0,65,,,,,,,,,,,,,,,,,
0.0,1.0,0.48502,0.0,24.0,24.0,24.0,1.0,omelet_07s.jpg,0.0,Blue.png,5.0,65,,,,,,,,,,,,,,,,,
0.0,1.0,0.920755,0.0,25.0,25.0,25.0,1.0,turf_03s.jpg,0.0,Purple.png,5.0,65,,,,,,,,,,,,,,,,,
0.0,1.0,0.836965,0.0,26.0,26.0,26.0,1.0,clover_04s.jpg,0.0,Red.png,5.0,65,,,,,,,,,,,,,,,,,
0.0,1.0,0.77966,0.0,27.0,27.0,27.0,1.0,lip_gloss_06s.jpg,0.0,Orange.png,5.0,65,,,,,,,,,,,,,,,,,
0.0,1.0,1.032795,0.0,28.0,28.0,28.0,1.0,amber_04s.jpg,0.0,Yellow.png,5.0,65,,,,,,,,,,,,,,,,,
0.0,1.0,1.457285,0.0,29.0,29.0,29.0,1.0,tortilla_06s.jpg,0.0,Green.png,5.0,65,,,,,,,,,,,,,,,,,
0.0,1.0,1.139095,0.0,30.0,30.0,30.0,1.0,razor_blade_01b.jpg,0.0,Blue.png,6.0,65,,,,,,,,,,,,,,,,,
0.0,1.0,0.718565,0.0,31.0,31.0,31.0,1.0,tape_measure_11s.jpg,0.0,Purple.png,6.0,65,,,,,,,,,,,,,,,,,
1.0,1.0,0.91199,0.0,32.0,32.0,32.0,1.0,razor_blade_01b.jpg,1.0,Red.png,6.0,65,,,,,,,,,,,,,,,,,
1.0,1.0,0.74765,0.0,33.0,33.0,33.0,1.0,razor_blade_01b.jpg,1.0,Orange.png,6.0,65,,,,,,,,,,,,,,,,,
0.0,1.0,1.038325,0.0,34.0,34.0,34.0,1.0,stingray_02s.jpg,0.0,Yellow.png,6.0,65,,,,,,,,,,,,,,,,,
0.0,1.0,0.833525,0.0,35.0,35.0,35.0,1.0,harpoon.jpg,0.0,Green.png,6.0,65,,,,,,,,,,,,,,,,,
,,,,,,,,,1.0,,,65,1.0,1.0,2.9954,0.0,0.0,0.0,0.0,1.0,oil_02s.jpg,fork_04s.jpg,,,,,,,
,,,,,,,,,0.0,,,65,0.0,1.0,1.023175,0.0,1.0,1.0,1.0,1.0,doily_13s.jpg,limousine_12s.jpg,,,,,,,
,,,,,,,,,0.0,,,65,1.0,0.0,2.12146,0.0,2.0,2.0,2.0,1.0,lip_gloss_06s.jpg,omelet_07s.jpg,,,,,,,
,,,,,,,,,0.0,,,65,1.0,0.0,1.795055,0.0,3.0,3.0,3.0,1.0,tape_measure_11s.jpg,amber_04s.jpg,,,,,,,
,,,,,,,,,0.0,,,65,0.0,1.0,2.86853,0.0,4.0,4.0,4.0,1.0,tortilla_06s.jpg,clover_04s.jpg,,,,,,,
,,,,,,,,,0.0,,,65,0.0,1.0,1.24815,0.0,5.0,5.0,5.0,1.0,purse_05s.jpg,tinsel_12s.jpg,,,,,,,
,,,,,,,,,,,,65,,,,,,,,,,,0.0,5.0,5.0,5.0,1.0,newclockpresent_6_4.xlsx,newclock_compare_task_6_4.xlsx
0.0,1.0,1.054215,0.0,0.0,0.0,0.0,1.0,butter_14s.jpg,0.0,Blue.png,1.0,65,,,,,,,,,,,,,,,,,
1.0,1.0,0.88309,0.0,1.0,1.0,1.0,1.0,butter_14s.jpg,1.0,Purple.png,1.0,65,,,,,,,,,,,,,,,,,
1.0,1.0,0.790055,0.0,2.0,2.0,2.0,1.0,butter_14s.jpg,1.0,Red.png,1.0,65,,,,,,,,,,,,,,,,,
0.0,1.0,0.622845,0.0,3.0,3.0,3.0,1.0,stamp2_08s.jpg,0.0,Orange.png,1.0,65,,,,,,,,,,,,,,,,,
0.0,1.0,0.775655,0.0,4.0,4.0,4.0,1.0,kangaroo_02s.jpg,0.0,Yellow.png,1.0,65,,,,,,,,,,,,,,,,,
0.0,1.0,0.859325,0.0,5.0,5.0,5.0,1.0,camcorder_10s.jpg,0.0,Green.png,1.0,65,,,,,,,,,,,,,,,,,
0.0,1.0,0.659095,0.0,6.0,6.0,6.0,1.0,bank_06s.jpg,0.0,Blue.png,2.0,65,,,,,,,,,,,,,,,,,
0.0,1.0,0.62551,0.0,7.0,7.0,7.0,1.0,gear_07s.jpg,0.0,Purple.png,2.0,65,,,,,,,,,,,,,,,,,
1.0,1.0,0.83772,0.0,8.0,8.0,8.0,1.0,bank_06s.jpg,1.0,Red.png,2.0,65,,,,,,,,,,,,,,,,,
0.0,1.0,0.753665,0.0,9.0,9.0,9.0,1.0,funnel_01b.jpg,0.0,Orange.png,2.0,65,,,,,,,,,,,,,,,,,
0.0,1.0,2.44279,0.0,10.0,10.0,10.0,1.0,poinsettia_04s.jpg,0.0,Yellow.png,2.0,65,,,,,,,,,,,,,,,,,
1.0,1.0,2.38565,0.0,11.0,11.0,11.0,1.0,funnel_01b.jpg,1.0,Green.png,2.0,65,,,,,,,,,,,,,,,,,
0.0,1.0,1.09155,0.0,12.0,12.0,12.0,1.0,rooster_03s.jpg,0.0,Blue.png,3.0,65,,,,,,,,,,,,,,,,,
0.0,1.0,1.28532,0.0,13.0,13.0,13.0,1.0,denture_03s.jpg,0.0,Purple.png,3.0,65,,,,,,,,,,,,,,,,,
0.0,1.0,1.549575,0.0,14.0,14.0,14.0,1.0,bean_06s.jpg,0.0,Red.png,3.0,65,,,,,,,,,,,,,,,,,
0.0,1.0,1.86976,0.0,15.0,15.0,15.0,1.0,mud_13s.jpg,0.0,Orange.png,3.0,65,,,,,,,,,,,,,,,,,
0.0,1.0,2.243355,0.0,16.0,16.0,16.0,1.0,keyhole_03s.jpg,0.0,Yellow.png,3.0,65,,,,,,,,,,,,,,,,,
1.0,1.0,2.351525,0.0,17.0,17.0,17.0,1.0,bean_06s.jpg,1.0,Green.png,3.0,65,,,,,,,,,,,,,,,,,
0.0,1.0,2.36862,0.0,18.0,18.0,18.0,1.0,bank_06s.jpg,0.0,Blue.png,4.0,65,,,,,,,,,,,,,,,,,
0.0,1.0,1.66063,0.0,19.0,19.0,19.0,1.0,pomegranate_04s.jpg,0.0,Purple.png,4.0,65,,,,,,,,,,,,,,,,,
0.0,1.0,1.853365,0.0,20.0,20.0,20.0,1.0,chopsticks_08s.jpg,0.0,Red.png,4.0,65,,,,,,,,,,,,,,,,,
0.0,1.0,2.384485,0.0,21.0,21.0,21.0,1.0,contact_lens_15s.jpg,0.0,Orange.png,4.0,65,,,,,,,,,,,,,,,,,
0.0,1.0,2.32605,0.0,22.0,22.0,22.0,1.0,hydrant_10s.jpg,0.0,Yellow.png,4.0,65,,,,,,,,,,,,,,,,,
0.0,1.0,2.348365,0.0,23.0,23.0,23.0,1.0,gingerbread_man_03s.jpg,0.0,Green.png,4.0,65,,,,,,,,,,,,,,,,,
0.0,1.0,1.64559,0.0,24.0,24.0,24.0,1.0,camcorder_10s.jpg,0.0,Blue.png,5.0,65,,,,,,,,,,,,,,,,,
0.0,1.0,2.42282,0.0,25.0,25.0,25.0,1.0,teabag_12s.jpg,0.0,Purple.png,5.0,65,,,,,,,,,,,,,,,,,
0.0,1.0,2.419765,0.0,26.0,26.0,26.0,1.0,radiator_05s.jpg,0.0,Red.png,5.0,65,,,,,,,,,,,,,,,,,
0.0,1.0,2.013515,0.0,27.0,27.0,27.0,1.0,punch1_10s.jpg,0.0,Orange.png,5.0,65,,,,,,,,,,,,,,,,,
0.0,1.0,2.339415,0.0,28.0,28.0,28.0,1.0,mailbox_11s.jpg,0.0,Yellow.png,5.0,65,,,,,,,,,,,,,,,,,
0.0,1.0,1.2421,0.0,29.0,29.0,29.0,1.0,beaker_01b.jpg,0.0,Green.png,5.0,65,,,,,,,,,,,,,,,,,
0.0,1.0,0.96657,0.0,30.0,30.0,30.0,1.0,mailbox_11s.jpg,0.0,Blue.png,6.0,65,,,,,,,,,,,,,,,,,
0.0,1.0,0.619055,0.0,31.0,31.0,31.0,1.0,pipe1_10s.jpg,0.0,Purple.png,6.0,65,,,,,,,,,,,,,,,,,
1.0,1.0,0.73972,0.0,32.0,32.0,32.0,1.0,mailbox_11s.jpg,1.0,Red.png,6.0,65,,,,,,,,,,,,,,,,,
1.0,1.0,1.490645,0.0,33.0,33.0,33.0,1.0,pipe1_10s.jpg,1.0,Orange.png,6.0,65,,,,,,,,,,,,,,,,,
0.0,1.0,1.669965,0.0,34.0,34.0,34.0,1.0,eyedropper_12s.jpg,0.0,Yellow.png,6.0,65,,,,,,,,,,,,,,,,,
0.0,1.0,1.725365,0.0,35.0,35.0,35.0,1.0,rhubarb_03s.jpg,0.0,Green.png,6.0,65,,,,,,,,,,,,,,,,,
,,,,,,,,,0.0,,,65,0.0,1.0,1.885975,0.0,0.0,0.0,0.0,1.0,mud_13s.jpg,rooster_03s.jpg,,,,,,,
,,,,,,,,,1.0,,,65,1.0,1.0,1.25026,0.0,1.0,1.0,1.0,1.0,chopsticks_08s.jpg,gingerbread_man_03s.jpg,,,,,,,
,,,,,,,,,0.0,,,65,1.0,0.0,2.476295,0.0,2.0,2.0,2.0,1.0,beaker_01b.jpg,radiator_05s.jpg,,,,,,,
,,,,,,,,,0.0,,,65,0.0,1.0,1.805905,0.0,3.0,3.0,3.0,1.0,teabag_12s.jpg,hydrant_10s.jpg,,,,,,,
,,,,,,,,,0.0,,,65,0.0,1.0,1.44497,0.0,4.0,4.0,4.0,1.0,denture_03s.jpg,poinsettia_04s.jpg,,,,,,,
,,,,,,,,,1.0,,,65,0.0,0.0,1.181025,0.0,5.0,5.0,5.0,1.0,kangaroo_02s.jpg,gear_07s.jpg,,,,,,,
,,,,,,,,,,,,65,,,,,,,,,,,0.0,6.0,6.0,6.0,1.0,newclockpresent_7_4.xlsx,newclock_compare_task_7_4.xlsx
0.0,1.0,1.29041,0.0,0.0,0.0,0.0,1.0,lamppost_09s.jpg,0.0,Blue.png,1.0,65,,,,,,,,,,,,,,,,,
0.0,1.0,1.188075,0.0,1.0,1.0,1.0,1.0,jewel_01b.jpg,0.0,Purple.png,1.0,65,,,,,,,,,,,,,,,,,
0.0,1.0,1.526065,0.0,2.0,2.0,2.0,1.0,tuxedo_01b.jpg,0.0,Red.png,1.0,65,,,,,,,,,,,,,,,,,
0.0,1.0,1.02877,0.0,3.0,3.0,3.0,1.0,flip_flop_03s.jpg,0.0,Orange.png,1.0,65,,,,,,,,,,,,,,,,,
0.0,1.0,0.939345,0.0,4.0,4.0,4.0,1.0,medal_04s.jpg,0.0,Yellow.png,1.0,65,,,,,,,,,,,,,,,,,
0.0,0.0,0.55858,0.0,5.0,5.0,5.0,1.0,flip_flop_03s.jpg,1.0,Green.png,1.0,65,,,,,,,,,,,,,,,,,
0.0,1.0,1.228025,0.0,6.0,6.0,6.0,1.0,tuxedo_01b.jpg,0.0,Blue.png,2.0,65,,,,,,,,,,,,,,,,,
0.0,1.0,2.0438,0.0,7.0,7.0,7.0,1.0,flip_flop_03s.jpg,0.0,Purple.png,2.0,65,,,,,,,,,,,,,,,,,
0.0,1.0,1.219495,0.0,8.0,8.0,8.0,1.0,fireworks_18s.jpg,0.0,Red.png,2.0,65,,,,,,,,,,,,,,,,,
0.0,1.0,1.669325,0.0,9.0,9.0,9.0,1.0,squirt_gun_03s.jpg,0.0,Orange.png,2.0,65,,,,,,,,,,,,,,,,,
1.0,1.0,1.373645,0.0,10.0,10.0,10.0,1.0,flip_flop_03s.jpg,1.0,Yellow.png,2.0,65,,,,,,,,,,,,,,,,,
0.0,1.0,1.30087,0.0,11.0,11.0,11.0,1.0,puffin_19s.jpg,0.0,Green.png,2.0,65,,,,,,,,,,,,,,,,,
0.0,1.0,0.704995,0.0,12.0,12.0,12.0,1.0,tuxedo_01b.jpg,0.0,Blue.png,3.0,65,,,,,,,,,,,,,,,,,
1.0,1.0,0.78831,0.0,13.0,13.0,13.0,1.0,tuxedo_01b.jpg,1.0,Purple.png,3.0,65,,,,,,,,,,,,,,,,,
0.0,1.0,0.63591,0.0,14.0,14.0,14.0,1.0,snowman_02s.jpg,0.0,Red.png,3.0,65,,,,,,,,,,,,,,,,,
0.0,1.0,1.327195,0.0,15.0,15.0,15.0,1.0,cucumber_07s.jpg,0.0,Orange.png,3.0,65,,,,,,,,,,,,,,,,,
0.0,1.0,0.87349,0.0,16.0,16.0,16.0,1.0,plug_08s.jpg,0.0,Yellow.png,3.0,65,,,,,,,,,,,,,,,,,
1.0,1.0,1.3708,0.0,17.0,17.0,17.0,1.0,cucumber_07s.jpg,1.0,Green.png,3.0,65,,,,,,,,,,,,,,,,,
0.0,1.0,1.554695,0.0,18.0,18.0,18.0,1.0,puffin_19s.jpg,0.0,Blue.png,4.0,65,,,,,,,,,,,,,,,,,
0.0,1.0,2.43521,0.0,19.0,19.0,19.0,1.0,fondue_07s.jpg,0.0,Purple.png,4.0,65,,,,,,,,,,,,,,,,,
0.0,1.0,1.30278,0.0,20.0,20.0,20.0,1.0,lasagna_06s.jpg,0.0,Red.png,4.0,65,,,,,,,,,,,,,,,,,
0.0,1.0,2.015695,0.0,21.0,21.0,21.0,1.0,eiffeltower.jpg,0.0,Orange.png,4.0,65,,,,,,,,,,,,,,,,,
0.0,1.0,2.10699,0.0,22.0,22.0,22.0,1.0,outlet_10s.jpg,0.0,Yellow.png,4.0,65,,,,,,,,,,,,,,,,,
0.0,1.0,2.3779,0.0,23.0,23.0,23.0,1.0,cape_11s.jpg,0.0,Green.png,4.0,65,,,,,,,,,,,,,,,,,
0.0,1.0,1.287015,0.0,24.0,24.0,24.0,1.0,marshmallow_08s.jpg,0.0,Blue.png,5.0,65,,,,,,,,,,,,,,,,,
0.0,1.0,1.409645,0.0,25.0,25.0,25.0,1.0,racehorse_03s.jpg,0.0,Purple.png,5.0,65,,,,,,,,,,,,,,,,,
0.0,1.0,2.29278,0.0,26.0,26.0,26.0,1.0,aluminum_foil_08s.jpg,0.0,Red.png,5.0,65,,,,,,,,,,,,,,,,,
0.0,1.0,1.98524,0.0,27.0,27.0,27.0,1.0,spoon02a.jpg,0.0,Orange.png,5.0,65,,,,,,,,,,,,,,,,,
0.0,1.0,2.00239,0.0,28.0,28.0,28.0,1.0,padlock_07s.jpg,0.0,Yellow.png,5.0,65,,,,,,,,,,,,,,,,,
0.0,1.0,1.37682,0.0,29.0,29.0,29.0,1.0,solar_panel_02s.jpg,0.0,Green.png,5.0,65,,,,,,,,,,,,,,,,,
0.0,1.0,1.94833,0.0,30.0,30.0,30.0,1.0,turtleneck_11s.jpg,0.0,Blue.png,6.0,65,,,,,,,,,,,,,,,,,
0.0,1.0,1.3074,0.0,31.0,31.0,31.0,1.0,pocketknife_12s.jpg,0.0,Purple.png,6.0,65,,,,,,,,,,,,,,,,,
1.0,1.0,1.40759,0.0,32.0,32.0,32.0,1.0,pocketknife_12s.jpg,1.0,Red.png,6.0,65,,,,,,,,,,,,,,,,,
0.0,1.0,1.153935,0.0,33.0,33.0,33.0,1.0,quill_09s.jpg,0.0,Orange.png,6.0,65,,,,,,,,,,,,,,,,,
1.0,1.0,0.99394,0.0,34.0,34.0,34.0,1.0,quill_09s.jpg,1.0,Yellow.png,6.0,65,,,,,,,,,,,,,,,,,
1.0,1.0,1.155625,0.0,35.0,35.0,35.0,1.0,pocketknife_12s.jpg,1.0,Green.png,6.0,65,,,,,,,,,,,,,,,,,
,,,,,,,,,0.0,,,65,1.0,0.0,1.275775,0.0,0.0,0.0,0.0,1.0,cape_11s.jpg,lasagna_06s.jpg,,,,,,,
,,,,,,,,,0.0,,,65,1.0,0.0,1.279645,0.0,1.0,1.0,1.0,1.0,padlock_07s.jpg,racehorse_03s.jpg,,,,,,,
,,,,,,,,,1.0,,,65,1.0,1.0,1.208445,0.0,2.0,2.0,2.0,1.0,spoon02a.jpg,turtleneck_11s.jpg,,,,,,,
,,,,,,,,,0.0,,,65,1.0,0.0,2.12324,0.0,3.0,3.0,3.0,1.0,marshmallow_08s.jpg,eiffeltower.jpg,,,,,,,
,,,,,,,,,0.0,,,65,1.0,0.0,1.245835,0.0,4.0,4.0,4.0,1.0,medal_04s.jpg,jewel_01b.jpg,,,,,,,
,,,,,,,,,1.0,,,65,0.0,0.0,1.397425,0.0,5.0,5.0,5.0,1.0,plug_08s.jpg,fondue_07s.jpg,,,,,,,
,,,,,,,,,,,,65,,,,,,,,,,,0.0,7.0,7.0,7.0,1.0,newclockpresent_8_4.xlsx,newclock_compare_task_8_4.xlsx
0.0,1.0,1.75619,0.0,0.0,0.0,0.0,1.0,footprint_11s.jpg,0.0,Blue.png,1.0,65,,,,,,,,,,,,,,,,,
0.0,1.0,1.379735,0.0,1.0,1.0,1.0,1.0,coffee_filter_10s.jpg,0.0,Purple.png,1.0,65,,,,,,,,,,,,,,,,,
1.0,1.0,0.98107,0.0,2.0,2.0,2.0,1.0,coffee_filter_10s.jpg,1.0,Red.png,1.0,65,,,,,,,,,,,,,,,,,
1.0,1.0,1.672995,0.0,3.0,3.0,3.0,1.0,coffee_filter_10s.jpg,1.0,Orange.png,1.0,65,,,,,,,,,,,,,,,,,
1.0,1.0,0.71508,0.0,4.0,4.0,4.0,1.0,coffee_filter_10s.jpg,1.0,Yellow.png,1.0,65,,,,,,,,,,,,,,,,,
0.0,1.0,2.239535,0.0,5.0,5.0,5.0,1.0,gargoyle_08s.jpg,0.0,Green.png,1.0,65,,,,,,,,,,,,,,,,,
0.0,1.0,1.320065,0.0,6.0,6.0,6.0,1.0,candy_cane_06s.jpg,0.0,Blue.png,2.0,65,,,,,,,,,,,,,,,,,
0.0,1.0,2.1634,0.0,7.0,7.0,7.0,1.0,toad_09s.jpg,0.0,Purple.png,2.0,65,,,,,,,,,,,,,,,,,
0.0,0.0,1.59696,0.0,8.0,8.0,8.0,1.0,candy_cane_06s.jpg,1.0,Red.png,2.0,65,,,,,,,,,,,,,,,,,
0.0,1.0,0.609655,0.0,9.0,9.0,9.0,1.0,pumpkin_03s.jpg,0.0,Orange.png,2.0,65,,,,,,,,,,,,,,,,,
0.0,1.0,1.91602,0.0,10.0,10.0,10.0,1.0,dashboard_02s.jpg,0.0,Yellow.png,2.0,65,,,,,,,,,,,,,,,,,
0.0,1.0,2.45556,0.0,11.0,11.0,11.0,1.0,syringe_02s.jpg,0.0,Green.png,2.0,65,,,,,,,,,,,,,,,,,
0.0,1.0,1.927785,0.0,12.0,12.0,12.0,1.0,powder_07s.jpg,0.0,Blue.png,3.0,65,,,,,,,,,,,,,,,,,
1.0,1.0,0.955455,0.0,13.0,13.0,13.0,1.0,powder_07s.jpg,1.0,Purple.png,3.0,65,,,,,,,,,,,,,,,,,
1.0,1.0,1.468705,0.0,14.0,14.0,14.0,1.0,powder_07s.jpg,1.0,Red.png,3.0,65,,,,,,,,,,,,,,,,,
0.0,1.0,1.046145,0.0,15.0,15.0,15.0,1.0,sea_urchin_09s.jpg,0.0,Orange.png,3.0,65,,,,,,,,,,,,,,,,,
0.0,1.0,0.60144,0.0,16.0,16.0,16.0,1.0,throne_11s.jpg,0.0,Yellow.png,3.0,65,,,,,,,,,,,,,,,,,
0.0,0.0,2.443005,0.0,17.0,17.0,17.0,1.0,powder_07s.jpg,1.0,Green.png,3.0,65,,,,,,,,,,,,,,,,,
0.0,1.0,0.59882,0.0,18.0,18.0,18.0,1.0,chalice_10s.jpg,0.0,Blue.png,4.0,65,,,,,,,,,,,,,,,,,
0.0,1.0,0.444865,0.0,19.0,19.0,19.0,1.0,air_pump_05s.jpg,0.0,Purple.png,4.0,65,,,,,,,,,,,,,,,,,
0.0,1.0,1.31344,0.0,20.0,20.0,20.0,1.0,microwave_02s.jpg,0.0,Red.png,4.0,65,,,,,,,,,,,,,,,,,
0.0,1.0,0.490745,0.0,21.0,21.0,21.0,1.0,cereal_04s.jpg,0.0,Orange.png,4.0,65,,,,,,,,,,,,,,,,,
0.0,1.0,2.302615,0.0,22.0,22.0,22.0,1.0,mushroom_10n.jpg,0.0,Yellow.png,4.0,65,,,,,,,,,,,,,,,,,
0.0,1.0,1.554465,0.0,23.0,23.0,23.0,1.0,red_carpet_03s.jpg,0.0,Green.png,4.0,65,,,,,,,,,,,,,,,,,
0.0,1.0,1.72887,0.0,24.0,24.0,24.0,1.0,throne_11s.jpg,0.0,Blue.png,5.0,65,,,,,,,,,,,,,,,,,
0.0,1.0,0.58476,0.0,25.0,25.0,25.0,1.0,koala_13s.jpg,0.0,Purple.png,5.0,65,,,,,,,,,,,,,,,,,
1.0,1.0,1.93663,0.0,26.0,26.0,26.0,1.0,throne_11s.jpg,1.0,Red.png,5.0,65,,,,,,,,,,,,,,,,,
0.0,1.0,0.572175,0.0,27.0,27.0,27.0,1.0,rocket_02s.jpg,0.0,Orange.png,5.0,65,,,,,,,,,,,,,,,,,
0.0,1.0,0.62782,0.0,28.0,28.0,28.0,1.0,swordfish_05s.jpg,0.0,Yellow.png,5.0,65,,,,,,,,,,,,,,,,,
0.0,0.0,2.35388,0.0,29.0,29.0,29.0,1.0,rocket_02s.jpg,1.0,Green.png,5.0,65,,,,,,,,,,,,,,,,,
0.0,1.0,0.858765,0.0,30.0,30.0,30.0,1.0,icicle_04s.jpg,0.0,Blue.png,6.0,65,,,,,,,,,,,,,,,,,
0.0,1.0,2.426725,0.0,31.0,31.0,31.0,1.0,keyboard_05s.jpg,0.0,Purple.png,6.0,65,,,,,,,,,,,,,,,,,
0.0,1.0,2.191205,0.0,32.0,32.0,32.0,1.0,pocket_watch_16s.jpg,0.0,Red.png,6.0,65,,,,,,,,,,,,,,,,,
0.0,1.0,2.2628,0.0,33.0,33.0,33.0,1.0,tablet_04s.jpg,0.0,Orange.png,6.0,65,,,,,,,,,,,,,,,,,
0.0,1.0,1.200455,0.0,34.0,34.0,34.0,1.0,chocolate_01b.jpg,0.0,Yellow.png,6.0,65,,,,,,,,,,,,,,,,,
0.0,1.0,0.63719,0.0,35.0,35.0,35.0,1.0,light_switch_02s.jpg,0.0,Green.png,6.0,65,,,,,,,,,,,,,,,,,
,,,,,,,,,0.0,,,65,1.0,0.0,1.8574,0.0,0.0,0.0,0.0,1.0,chalice_10s.jpg,sea_urchin_09s.jpg,,,,,,,
,,,,,,,,,1.0,,,65,0.0,0.0,1.15344,0.0,1.0,1.0,1.0,1.0,swordfish_05s.jpg,keyboard_05s.jpg,,,,,,,
,,,,,,,,,0.0,,,65,0.0,1.0,1.23446,0.0,2.0,2.0,2.0,1.0,red_carpet_03s.jpg,microwave_02s.jpg,,,,,,,
,,,,,,,,,0.0,,,65,1.0,0.0,1.23064,0.0,3.0,3.0,3.0,1.0,dashboard_02s.jpg,toad_09s.jpg,,,,,,,
,,,,,,,,,0.0,,,65,1.0,0.0,1.13985,0.0,4.0,4.0,4.0,1.0,koala_13s.jpg,mushroom_10n.jpg,,,,,,,
,,,,,,,,,1.0,,,65,0.0,0.0,1.238055,0.0,5.0,5.0,5.0,1.0,icicle_04s.jpg,tablet_04s.jpg,,,,,,,
,,,,,,,,,,,,65,,,,,,,,,,,0.0,8.0,8.0,8.0,1.0,newclockpresent_9_4.xlsx,newclock_compare_task_9_4.xlsx
