key_resp.keys,key_resp.corr,key_resp.rt,present_segment.thisRepN,present_segment.thisTrialN,present_segment.thisN,present_segment.thisIndex,present_segment.ran,pictures,answer,clock,segment,participant,key_resp_2.keys,key_resp_2.corr,key_resp_2.rt,compare_segment.thisRepN,compare_segment.thisTrialN,compare_segment.thisN,compare_segment.thisIndex,compare_segment.ran,item_a,item_b,clock_conditions.thisRepN,clock_conditions.thisTrialN,clock_conditions.thisN,clock_conditions.thisIndex,clock_conditions.ran,present,compare
0.0,1.0,1.83437,0.0,0.0,0.0,0.0,1.0,mailbox_11s.jpg,0.0,Blue.png,1.0,59,,,,,,,,,,,,,,,,,
0.0,1.0,1.048625,0.0,1.0,1.0,1.0,1.0,mailbox_11s.jpg,0.0,Purple.png,1.0,59,,,,,,,,,,,,,,,,,
0.0,1.0,0.52383,0.0,2.0,2.0,2.0,1.0,checkbook_11s.jpg,0.0,Red.png,1.0,59,,,,,,,,,,,,,,,,,
0.0,1.0,0.5847,0.0,3.0,3.0,3.0,1.0,rocking_chair_05s.jpg,0.0,Orange.png,1.0,59,,,,,,,,,,,,,,,,,
1.0,1.0,0.66995,0.0,4.0,4.0,4.0,1.0,checkbook_11s.jpg,1.0,Yellow.png,1.0,59,,,,,,,,,,,,,,,,,
1.0,1.0,1.921645,0.0,5.0,5.0,5.0,1.0,rocking_chair_05s.jpg,1.0,Green.png,1.0,59,,,,,,,,,,,,,,,,,
0.0,1.0,0.55192,0.0,6.0,6.0,6.0,1.0,eggshell_14s.jpg,0.0,Blue.png,2.0,59,,,,,,,,,,,,,,,,,
1.0,1.0,1.603965,0.0,7.0,7.0,7.0,1.0,rocking_chair_05s.jpg,1.0,Purple.png,2.0,59,,,,,,,,,,,,,,,,,
0.0,1.0,0.42104,0.0,8.0,8.0,8.0,1.0,powder_07s.jpg,0.0,Red.png,2.0,59,,,,,,,,,,,,,,,,,
0.0,1.0,0.45796,0.0,9.0,9.0,9.0,1.0,meatball_13s.jpg,0.0,Orange.png,2.0,59,,,,,,,,,,,,,,,,,
0.0,1.0,0.80274,0.0,10.0,10.0,10.0,1.0,rolling_pin_02s.jpg,0.0,Yellow.png,2.0,59,,,,,,,,,,,,,,,,,
0.0,1.0,0.57616,0.0,11.0,11.0,11.0,1.0,gingerbread_man_03s.jpg,0.0,Green.png,2.0,59,,,,,,,,,,,,,,,,,
0.0,1.0,0.864965,0.0,12.0,12.0,12.0,1.0,rocking_chair_05s.jpg,0.0,Blue.png,3.0,59,,,,,,,,,,,,,,,,,
0.0,1.0,0.477375,0.0,13.0,13.0,13.0,1.0,bowler_hat_10s.jpg,0.0,Purple.png,3.0,59,,,,,,,,,,,,,,,,,
1.0,1.0,0.89773,0.0,14.0,14.0,14.0,1.0,rocking_chair_05s.jpg,1.0,Red.png,3.0,59,,,,,,,,,,,,,,,,,
0.0,1.0,1.20931,0.0,15.0,15.0,15.0,1.0,rocking_chair_05s.jpg,0.0,Orange.png,3.0,59,,,,,,,,,,,,,,,,,
0.0,0.0,1.38126,0.0,16.0,16.0,16.0,1.0,rocking_chair_05s.jpg,1.0,Yellow.png,3.0,59,,,,,,,,,,,,,,,,,
0.0,1.0,0.564725,0.0,17.0,17.0,17.0,1.0,projector_08s.jpg,0.0,Green.png,3.0,59,,,,,,,,,,,,,,,,,
0.0,1.0,0.7171,0.0,18.0,18.0,18.0,1.0,checkbook_11s.jpg,0.0,Blue.png,4.0,59,,,,,,,,,,,,,,,,,
0.0,1.0,1.12653,0.0,19.0,19.0,19.0,1.0,checkbook_11s.jpg,0.0,Purple.png,4.0,59,,,,,,,,,,,,,,,,,
0.0,1.0,0.635495,0.0,20.0,20.0,20.0,1.0,crab_16s.jpg,0.0,Red.png,4.0,59,,,,,,,,,,,,,,,,,
1.0,1.0,0.479325,0.0,21.0,21.0,21.0,1.0,checkbook_11s.jpg,1.0,Orange.png,4.0,59,,,,,,,,,,,,,,,,,
0.0,1.0,0.50128,0.0,22.0,22.0,22.0,1.0,peanut_butter_08s.jpg,0.0,Yellow.png,4.0,59,,,,,,,,,,,,,,,,,
0.0,1.0,0.48019,0.0,23.0,23.0,23.0,1.0,breadstick_08s.jpg,0.0,Green.png,4.0,59,,,,,,,,,,,,,,,,,
0.0,1.0,0.638485,0.0,24.0,24.0,24.0,1.0,stethoscope_01b.jpg,0.0,Blue.png,5.0,59,,,,,,,,,,,,,,,,,
0.0,1.0,0.48991,0.0,25.0,25.0,25.0,1.0,pineapple_12s.jpg,0.0,Purple.png,5.0,59,,,,,,,,,,,,,,,,,
1.0,1.0,0.708685,0.0,26.0,26.0,26.0,1.0,stethoscope_01b.jpg,1.0,Red.png,5.0,59,,,,,,,,,,,,,,,,,
1.0,1.0,1.581985,0.0,27.0,27.0,27.0,1.0,pineapple_12s.jpg,1.0,Orange.png,5.0,59,,,,,,,,,,,,,,,,,
0.0,1.0,0.56035,0.0,28.0,28.0,28.0,1.0,air_pump_05s.jpg,0.0,Yellow.png,5.0,59,,,,,,,,,,,,,,,,,
0.0,1.0,0.42919,0.0,29.0,29.0,29.0,1.0,birdcage_08s.jpg,0.0,Green.png,5.0,59,,,,,,,,,,,,,,,,,
0.0,1.0,0.48151,0.0,30.0,30.0,30.0,1.0,kangaroo_02s.jpg,0.0,Blue.png,6.0,59,,,,,,,,,,,,,,,,,
0.0,1.0,0.54758,0.0,31.0,31.0,31.0,1.0,juicer2_06s.jpg,0.0,Purple.png,6.0,59,,,,,,,,,,,,,,,,,
0.0,1.0,0.626865,0.0,32.0,32.0,32.0,1.0,harpoon.jpg,0.0,Red.png,6.0,59,,,,,,,,,,,,,,,,,
0.0,1.0,0.540095,0.0,33.0,33.0,33.0,1.0,mirror_12s.jpg,0.0,Orange.png,6.0,59,,,,,,,,,,,,,,,,,
0.0,1.0,0.51991,0.0,34.0,34.0,34.0,1.0,gear_07s.jpg,0.0,Yellow.png,6.0,59,,,,,,,,,,,,,,,,,
0.0,1.0,0.50949,0.0,35.0,35.0,35.0,1.0,timer_03s.jpg,0.0,Green.png,6.0,59,,,,,,,,,,,,,,,,,
,,,,,,,,,1.0,,,59,1.0,1.0,2.304195,0.0,0.0,0.0,0.0,1.0,powder_07s.jpg,gingerbread_man_03s.jpg,,,,,,,
,,,,,,,,,1.0,,,59,1.0,1.0,2.864895,0.0,1.0,1.0,1.0,1.0,air_pump_05s.jpg,juicer2_06s.jpg,,,,,,,
,,,,,,,,,0.0,,,59,0.0,1.0,1.366095,0.0,2.0,2.0,2.0,1.0,crab_16s.jpg,projector_08s.jpg,,,,,,,
,,,,,,,,,0.0,,,59,1.0,0.0,1.43952,0.0,3.0,3.0,3.0,1.0,mirror_12s.jpg,kangaroo_02s.jpg,,,,,,,
,,,,,,,,,0.0,,,59,1.0,0.0,1.25941,0.0,4.0,4.0,4.0,1.0,bowler_hat_10s.jpg,rolling_pin_02s.jpg,,,,,,,
,,,,,,,,,1.0,,,59,1.0,1.0,1.367405,0.0,5.0,5.0,5.0,1.0,eggshell_14s.jpg,meatball_13s.jpg,,,,,,,
,,,,,,,,,,,,59,,,,,,,,,,,0.0,0.0,0.0,0.0,1.0,new2backpresent_1_1.xlsx,new2back_compare_task_1_1.xlsx
0.0,1.0,0.78719,0.0,0.0,0.0,0.0,1.0,trident_07s.jpg,0.0,Blue.png,1.0,59,,,,,,,,,,,,,,,,,
0.0,1.0,0.497095,0.0,1.0,1.0,1.0,1.0,rosary_03s.jpg,0.0,Purple.png,1.0,59,,,,,,,,,,,,,,,,,
0.0,1.0,0.522565,0.0,2.0,2.0,2.0,1.0,toilet_paper_12s.jpg,0.0,Red.png,1.0,59,,,,,,,,,,,,,,,,,
1.0,1.0,0.64212,0.0,3.0,3.0,3.0,1.0,rosary_03s.jpg,1.0,Orange.png,1.0,59,,,,,,,,,,,,,,,,,
1.0,1.0,1.74505,0.0,4.0,4.0,4.0,1.0,toilet_paper_12s.jpg,1.0,Yellow.png,1.0,59,,,,,,,,,,,,,,,,,
0.0,1.0,0.4303,0.0,5.0,5.0,5.0,1.0,potpourri_03s.jpg,0.0,Green.png,1.0,59,,,,,,,,,,,,,,,,,
0.0,1.0,0.476745,0.0,6.0,6.0,6.0,1.0,rocket_02s.jpg,0.0,Blue.png,2.0,59,,,,,,,,,,,,,,,,,
0.0,1.0,0.52683,0.0,7.0,7.0,7.0,1.0,piano_13n.jpg,0.0,Purple.png,2.0,59,,,,,,,,,,,,,,,,,
1.0,1.0,0.709545,0.0,8.0,8.0,8.0,1.0,rocket_02s.jpg,1.0,Red.png,2.0,59,,,,,,,,,,,,,,,,,
0.0,1.0,1.73712,0.0,9.0,9.0,9.0,1.0,rocket_02s.jpg,0.0,Orange.png,2.0,59,,,,,,,,,,,,,,,,,
0.0,1.0,0.645775,0.0,10.0,10.0,10.0,1.0,umbrella_15s.jpg,0.0,Yellow.png,2.0,59,,,,,,,,,,,,,,,,,
0.0,1.0,0.51089,0.0,11.0,11.0,11.0,1.0,touchpad_11s.jpg,0.0,Green.png,2.0,59,,,,,,,,,,,,,,,,,
1.0,0.0,0.69506,0.0,12.0,12.0,12.0,1.0,rocket_02s.jpg,0.0,Blue.png,3.0,59,,,,,,,,,,,,,,,,,
0.0,1.0,1.163055,0.0,13.0,13.0,13.0,1.0,rocket_02s.jpg,0.0,Purple.png,3.0,59,,,,,,,,,,,,,,,,,
1.0,1.0,0.81501,0.0,14.0,14.0,14.0,1.0,rocket_02s.jpg,1.0,Red.png,3.0,59,,,,,,,,,,,,,,,,,
0.0,1.0,0.69092,0.0,15.0,15.0,15.0,1.0,roller_coaster_07s.jpg,0.0,Orange.png,3.0,59,,,,,,,,,,,,,,,,,
0.0,1.0,0.4771,0.0,16.0,16.0,16.0,1.0,torch_02s.jpg,0.0,Yellow.png,3.0,59,,,,,,,,,,,,,,,,,
0.0,1.0,0.49323,0.0,17.0,17.0,17.0,1.0,lion_18s.jpg,0.0,Green.png,3.0,59,,,,,,,,,,,,,,,,,
0.0,1.0,0.53184,0.0,18.0,18.0,18.0,1.0,microwave_02s.jpg,0.0,Blue.png,4.0,59,,,,,,,,,,,,,,,,,
0.0,1.0,0.51279,0.0,19.0,19.0,19.0,1.0,denture_03s.jpg,0.0,Purple.png,4.0,59,,,,,,,,,,,,,,,,,
0.0,1.0,0.534015,0.0,20.0,20.0,20.0,1.0,fur_coat_11s.jpg,0.0,Red.png,4.0,59,,,,,,,,,,,,,,,,,
0.0,1.0,0.47697,0.0,21.0,21.0,21.0,1.0,pepper_mill_03s.jpg,0.0,Orange.png,4.0,59,,,,,,,,,,,,,,,,,
0.0,1.0,0.749285,0.0,22.0,22.0,22.0,1.0,antenna_01b.jpg,0.0,Yellow.png,4.0,59,,,,,,,,,,,,,,,,,
1.0,1.0,0.82607,0.0,23.0,23.0,23.0,1.0,pepper_mill_03s.jpg,1.0,Green.png,4.0,59,,,,,,,,,,,,,,,,,
0.0,1.0,0.84305,0.0,24.0,24.0,24.0,1.0,touchpad_11s.jpg,0.0,Blue.png,5.0,59,,,,,,,,,,,,,,,,,
0.0,1.0,0.495835,0.0,25.0,25.0,25.0,1.0,otter_05s.jpg,0.0,Purple.png,5.0,59,,,,,,,,,,,,,,,,,
0.0,1.0,0.54527,0.0,26.0,26.0,26.0,1.0,squirt_gun_03s.jpg,0.0,Red.png,5.0,59,,,,,,,,,,,,,,,,,
1.0,1.0,0.5321,0.0,27.0,27.0,27.0,1.0,otter_05s.jpg,1.0,Orange.png,5.0,59,,,,,,,,,,,,,,,,,
1.0,0.0,0.90979,0.0,28.0,28.0,28.0,1.0,touchpad_11s.jpg,0.0,Yellow.png,5.0,59,,,,,,,,,,,,,,,,,
0.0,1.0,1.526355,0.0,29.0,29.0,29.0,1.0,touchpad_11s.jpg,0.0,Green.png,5.0,59,,,,,,,,,,,,,,,,,
0.0,1.0,0.615185,0.0,30.0,30.0,30.0,1.0,kayak_08s.jpg,0.0,Blue.png,6.0,59,,,,,,,,,,,,,,,,,
0.0,1.0,0.879245,0.0,31.0,31.0,31.0,1.0,mascara_03s.jpg,0.0,Purple.png,6.0,59,,,,,,,,,,,,,,,,,
0.0,1.0,0.964085,0.0,32.0,32.0,32.0,1.0,ink_08s.jpg,0.0,Red.png,6.0,59,,,,,,,,,,,,,,,,,
1.0,0.0,0.72055,0.0,33.0,33.0,33.0,1.0,kayak_08s.jpg,0.0,Orange.png,6.0,59,,,,,,,,,,,,,,,,,
0.0,1.0,0.47624,0.0,34.0,34.0,34.0,1.0,towel_rack_04s.jpg,0.0,Yellow.png,6.0,59,,,,,,,,,,,,,,,,,
0.0,1.0,0.52643,0.0,35.0,35.0,35.0,1.0,jewel_01b.jpg,0.0,Green.png,6.0,59,,,,,,,,,,,,,,,,,
,,,,,,,,,1.0,,,59,1.0,1.0,1.6307,0.0,0.0,0.0,0.0,1.0,torch_02s.jpg,denture_03s.jpg,,,,,,,
,,,,,,,,,0.0,,,59,1.0,0.0,1.675965,0.0,1.0,1.0,1.0,1.0,towel_rack_04s.jpg,mascara_03s.jpg,,,,,,,
,,,,,,,,,1.0,,,59,0.0,0.0,1.475945,0.0,2.0,2.0,2.0,1.0,piano_13n.jpg,umbrella_15s.jpg,,,,,,,
,,,,,,,,,0.0,,,59,1.0,0.0,1.18861,0.0,3.0,3.0,3.0,1.0,fur_coat_11s.jpg,lion_18s.jpg,,,,,,,
,,,,,,,,,1.0,,,59,1.0,1.0,1.44215,0.0,4.0,4.0,4.0,1.0,roller_coaster_07s.jpg,microwave_02s.jpg,,,,,,,
,,,,,,,,,1.0,,,59,0.0,0.0,1.020335,0.0,5.0,5.0,5.0,1.0,ink_08s.jpg,jewel_01b.jpg,,,,,,,
,,,,,,,,,,,,59,,,,,,,,,,,0.0,1.0,1.0,1.0,1.0,new2backpresent_2_1.xlsx,new2back_compare_task_2_1.xlsx
0.0,1.0,1.025095,0.0,0.0,0.0,0.0,1.0,icemaker_10s.jpg,0.0,Blue.png,1.0,59,,,,,,,,,,,,,,,,,
0.0,1.0,0.92735,0.0,1.0,1.0,1.0,1.0,icemaker_10s.jpg,0.0,Purple.png,1.0,59,,,,,,,,,,,,,,,,,
0.0,1.0,0.532125,0.0,2.0,2.0,2.0,1.0,tile_08s.jpg,0.0,Red.png,1.0,59,,,,,,,,,,,,,,,,,
0.0,1.0,0.57257,0.0,3.0,3.0,3.0,1.0,fossil_06s.jpg,0.0,Orange.png,1.0,59,,,,,,,,,,,,,,,,,
0.0,1.0,0.84736,0.0,4.0,4.0,4.0,1.0,fossil_06s.jpg,0.0,Yellow.png,1.0,59,,,,,,,,,,,,,,,,,
0.0,1.0,0.580305,0.0,5.0,5.0,5.0,1.0,ravioli_08s.jpg,0.0,Green.png,1.0,59,,,,,,,,,,,,,,,,,
0.0,1.0,0.5147,0.0,6.0,6.0,6.0,1.0,top_hat_11s.jpg,0.0,Blue.png,2.0,59,,,,,,,,,,,,,,,,,
0.0,1.0,0.54404,0.0,7.0,7.0,7.0,1.0,raccoon_02s.jpg,0.0,Purple.png,2.0,59,,,,,,,,,,,,,,,,,
0.0,1.0,0.546375,0.0,8.0,8.0,8.0,1.0,snowman_02s.jpg,0.0,Red.png,2.0,59,,,,,,,,,,,,,,,,,
0.0,1.0,0.480395,0.0,9.0,9.0,9.0,1.0,peach_04s.jpg,0.0,Orange.png,2.0,59,,,,,,,,,,,,,,,,,
0.0,1.0,0.583095,0.0,10.0,10.0,10.0,1.0,beard_16s.jpg,0.0,Yellow.png,2.0,59,,,,,,,,,,,,,,,,,
0.0,1.0,0.548095,0.0,11.0,11.0,11.0,1.0,rollerskate_03s.jpg,0.0,Green.png,2.0,59,,,,,,,,,,,,,,,,,
0.0,1.0,0.54924,0.0,12.0,12.0,12.0,1.0,mango_09s.jpg,0.0,Blue.png,3.0,59,,,,,,,,,,,,,,,,,
0.0,1.0,1.219095,0.0,13.0,13.0,13.0,1.0,mango_09s.jpg,0.0,Purple.png,3.0,59,,,,,,,,,,,,,,,,,
0.0,1.0,0.52811,0.0,14.0,14.0,14.0,1.0,magnet_03s.jpg,0.0,Red.png,3.0,59,,,,,,,,,,,,,,,,,
1.0,1.0,0.690445,0.0,15.0,15.0,15.0,1.0,mango_09s.jpg,1.0,Orange.png,3.0,59,,,,,,,,,,,,,,,,,
0.0,1.0,2.230285,0.0,16.0,16.0,16.0,1.0,mango_09s.jpg,0.0,Yellow.png,3.0,59,,,,,,,,,,,,,,,,,
1.0,1.0,0.68101,0.0,17.0,17.0,17.0,1.0,mango_09s.jpg,1.0,Green.png,3.0,59,,,,,,,,,,,,,,,,,
0.0,1.0,0.446525,0.0,18.0,18.0,18.0,1.0,punch2_09s.jpg,0.0,Blue.png,4.0,59,,,,,,,,,,,,,,,,,
0.0,1.0,0.458755,0.0,19.0,19.0,19.0,1.0,jelly_bean_06s.jpg,0.0,Purple.png,4.0,59,,,,,,,,,,,,,,,,,
1.0,1.0,0.730645,0.0,20.0,20.0,20.0,1.0,punch2_09s.jpg,1.0,Red.png,4.0,59,,,,,,,,,,,,,,,,,
1.0,1.0,0.81038,0.0,21.0,21.0,21.0,1.0,jelly_bean_06s.jpg,1.0,Orange.png,4.0,59,,,,,,,,,,,,,,,,,
0.0,1.0,1.223035,0.0,22.0,22.0,22.0,1.0,jelly_bean_06s.jpg,0.0,Yellow.png,4.0,59,,,,,,,,,,,,,,,,,
0.0,1.0,0.53918,0.0,23.0,23.0,23.0,1.0,typewriter_11s.jpg,0.0,Green.png,4.0,59,,,,,,,,,,,,,,,,,
0.0,1.0,0.896745,0.0,24.0,24.0,24.0,1.0,icemaker_10s.jpg,0.0,Blue.png,5.0,59,,,,,,,,,,,,,,,,,
0.0,0.0,1.05741,0.0,25.0,25.0,25.0,1.0,typewriter_11s.jpg,1.0,Purple.png,5.0,59,,,,,,,,,,,,,,,,,
0.0,1.0,0.54975,0.0,26.0,26.0,26.0,1.0,key_07s.jpg,0.0,Red.png,5.0,59,,,,,,,,,,,,,,,,,
0.0,1.0,0.517175,0.0,27.0,27.0,27.0,1.0,foam_03s.jpg,0.0,Orange.png,5.0,59,,,,,,,,,,,,,,,,,
0.0,1.0,0.527765,0.0,28.0,28.0,28.0,1.0,candy_cane_06s.jpg,0.0,Yellow.png,5.0,59,,,,,,,,,,,,,,,,,
0.0,1.0,0.573425,0.0,29.0,29.0,29.0,1.0,puffin_19s.jpg,0.0,Green.png,5.0,59,,,,,,,,,,,,,,,,,
0.0,1.0,0.51278,0.0,30.0,30.0,30.0,1.0,outlet_10s.jpg,0.0,Blue.png,6.0,59,,,,,,,,,,,,,,,,,
0.0,1.0,0.477935,0.0,31.0,31.0,31.0,1.0,lasagna_06s.jpg,0.0,Purple.png,6.0,59,,,,,,,,,,,,,,,,,
0.0,1.0,0.81393,0.0,32.0,32.0,32.0,1.0,lasagna_06s.jpg,0.0,Red.png,6.0,59,,,,,,,,,,,,,,,,,
0.0,1.0,0.478075,0.0,33.0,33.0,33.0,1.0,marker_05s.jpg,0.0,Orange.png,6.0,59,,,,,,,,,,,,,,,,,
0.0,1.0,0.49728,0.0,34.0,34.0,34.0,1.0,cushion_08s.jpg,0.0,Yellow.png,6.0,59,,,,,,,,,,,,,,,,,
0.0,1.0,0.517995,0.0,35.0,35.0,35.0,1.0,badge_03s.jpg,0.0,Green.png,6.0,59,,,,,,,,,,,,,,,,,
,,,,,,,,,0.0,,,59,0.0,1.0,1.694785,0.0,0.0,0.0,0.0,1.0,beard_16s.jpg,raccoon_02s.jpg,,,,,,,
,,,,,,,,,0.0,,,59,0.0,1.0,1.7075,0.0,1.0,1.0,1.0,1.0,peach_04s.jpg,top_hat_11s.jpg,,,,,,,
,,,,,,,,,1.0,,,59,1.0,1.0,2.05746,0.0,2.0,2.0,2.0,1.0,rollerskate_03s.jpg,magnet_03s.jpg,,,,,,,
,,,,,,,,,1.0,,,59,1.0,1.0,1.38774,0.0,3.0,3.0,3.0,1.0,foam_03s.jpg,outlet_10s.jpg,,,,,,,
,,,,,,,,,0.0,,,59,1.0,0.0,1.45659,0.0,4.0,4.0,4.0,1.0,snowman_02s.jpg,ravioli_08s.jpg,,,,,,,
,,,,,,,,,0.0,,,59,0.0,1.0,1.24455,0.0,5.0,5.0,5.0,1.0,puffin_19s.jpg,key_07s.jpg,,,,,,,
,,,,,,,,,,,,59,,,,,,,,,,,0.0,2.0,2.0,2.0,1.0,new2backpresent_3_1.xlsx,new2back_compare_task_3_1.xlsx
0.0,1.0,1.84961,0.0,0.0,0.0,0.0,1.0,lollipop_08s.jpg,0.0,Blue.png,1.0,59,,,,,,,,,,,,,,,,,
0.0,1.0,0.959755,0.0,1.0,1.0,1.0,1.0,keyboard_05s.jpg,0.0,Purple.png,1.0,59,,,,,,,,,,,,,,,,,
0.0,1.0,0.61523,0.0,2.0,2.0,2.0,1.0,pomegranate_04s.jpg,0.0,Red.png,1.0,59,,,,,,,,,,,,,,,,,
0.0,1.0,0.47795,0.0,3.0,3.0,3.0,1.0,olive_05s.jpg,0.0,Orange.png,1.0,59,,,,,,,,,,,,,,,,,
0.0,1.0,0.768725,0.0,4.0,4.0,4.0,1.0,hummingbird_05s.jpg,0.0,Yellow.png,1.0,59,,,,,,,,,,,,,,,,,
0.0,1.0,0.62785,0.0,5.0,5.0,5.0,1.0,cucumber_07s.jpg,0.0,Green.png,1.0,59,,,,,,,,,,,,,,,,,
1.0,0.0,1.44404,0.0,6.0,6.0,6.0,1.0,olive_05s.jpg,0.0,Blue.png,2.0,59,,,,,,,,,,,,,,,,,
0.0,1.0,0.542905,0.0,7.0,7.0,7.0,1.0,pinwheel_06s.jpg,0.0,Purple.png,2.0,59,,,,,,,,,,,,,,,,,
1.0,1.0,0.99394,0.0,8.0,8.0,8.0,1.0,olive_05s.jpg,1.0,Red.png,2.0,59,,,,,,,,,,,,,,,,,
0.0,1.0,0.472035,0.0,9.0,9.0,9.0,1.0,orchid_01b.jpg,0.0,Orange.png,2.0,59,,,,,,,,,,,,,,,,,
1.0,1.0,0.706385,0.0,10.0,10.0,10.0,1.0,olive_05s.jpg,1.0,Yellow.png,2.0,59,,,,,,,,,,,,,,,,,
0.0,1.0,0.41664,0.0,11.0,11.0,11.0,1.0,lectern_08s.jpg,0.0,Green.png,2.0,59,,,,,,,,,,,,,,,,,
0.0,1.0,0.46095,0.0,12.0,12.0,12.0,1.0,margarita_03s.jpg,0.0,Blue.png,3.0,59,,,,,,,,,,,,,,,,,
0.0,1.0,1.34285,0.0,13.0,13.0,13.0,1.0,margarita_03s.jpg,0.0,Purple.png,3.0,59,,,,,,,,,,,,,,,,,
0.0,1.0,0.56996,0.0,14.0,14.0,14.0,1.0,swan_11s.jpg,0.0,Red.png,3.0,59,,,,,,,,,,,,,,,,,
0.0,1.0,0.527335,0.0,15.0,15.0,15.0,1.0,tripod_01b.jpg,0.0,Orange.png,3.0,59,,,,,,,,,,,,,,,,,
0.0,1.0,0.545385,0.0,16.0,16.0,16.0,1.0,mop_08s.jpg,0.0,Yellow.png,3.0,59,,,,,,,,,,,,,,,,,
0.0,1.0,0.531955,0.0,17.0,17.0,17.0,1.0,plaster_cast_13s.jpg,0.0,Green.png,3.0,59,,,,,,,,,,,,,,,,,
0.0,1.0,0.475655,0.0,18.0,18.0,18.0,1.0,gas_mask_11s.jpg,0.0,Blue.png,4.0,59,,,,,,,,,,,,,,,,,
0.0,1.0,0.51039,0.0,19.0,19.0,19.0,1.0,tinsel_12s.jpg,0.0,Purple.png,4.0,59,,,,,,,,,,,,,,,,,
0.0,1.0,0.43145,0.0,20.0,20.0,20.0,1.0,smokingpipe.jpg,0.0,Red.png,4.0,59,,,,,,,,,,,,,,,,,
0.0,1.0,0.496885,0.0,21.0,21.0,21.0,1.0,iron_13s.jpg,0.0,Orange.png,4.0,59,,,,,,,,,,,,,,,,,
0.0,1.0,0.711135,0.0,22.0,22.0,22.0,1.0,iron_13s.jpg,0.0,Yellow.png,4.0,59,,,,,,,,,,,,,,,,,
1.0,1.0,0.50118,0.0,23.0,23.0,23.0,1.0,iron_13s.jpg,1.0,Green.png,4.0,59,,,,,,,,,,,,,,,,,
0.0,1.0,0.645695,0.0,24.0,24.0,24.0,1.0,rhubarb_03s.jpg,0.0,Blue.png,5.0,59,,,,,,,,,,,,,,,,,
0.0,1.0,0.4584,0.0,25.0,25.0,25.0,1.0,tambourine_06s.jpg,0.0,Purple.png,5.0,59,,,,,,,,,,,,,,,,,
0.0,1.0,0.63245,0.0,26.0,26.0,26.0,1.0,tambourine_06s.jpg,0.0,Red.png,5.0,59,,,,,,,,,,,,,,,,,
0.0,1.0,0.478525,0.0,27.0,27.0,27.0,1.0,mousetrap_15n.jpg,0.0,Orange.png,5.0,59,,,,,,,,,,,,,,,,,
0.0,1.0,0.43989,0.0,28.0,28.0,28.0,1.0,ticktacktoe_08s.jpg,0.0,Yellow.png,5.0,59,,,,,,,,,,,,,,,,,
0.0,1.0,0.454175,0.0,29.0,29.0,29.0,1.0,sunflower_17s.jpg,0.0,Green.png,5.0,59,,,,,,,,,,,,,,,,,
0.0,1.0,0.69049,0.0,30.0,30.0,30.0,1.0,onion_10s.jpg,0.0,Blue.png,6.0,59,,,,,,,,,,,,,,,,,
0.0,1.0,0.407475,0.0,31.0,31.0,31.0,1.0,ant_12s.jpg,0.0,Purple.png,6.0,59,,,,,,,,,,,,,,,,,
0.0,1.0,0.532785,0.0,32.0,32.0,32.0,1.0,insole_11s.jpg,0.0,Red.png,6.0,59,,,,,,,,,,,,,,,,,
0.0,1.0,0.427245,0.0,33.0,33.0,33.0,1.0,keyboard_05s.jpg,0.0,Orange.png,6.0,59,,,,,,,,,,,,,,,,,
0.0,1.0,0.49533,0.0,34.0,34.0,34.0,1.0,aluminum_foil_08s.jpg,0.0,Yellow.png,6.0,59,,,,,,,,,,,,,,,,,
0.0,1.0,0.53619,0.0,35.0,35.0,35.0,1.0,money_07s.jpg,0.0,Green.png,6.0,59,,,,,,,,,,,,,,,,,
,,,,,,,,,0.0,,,59,0.0,1.0,1.755325,0.0,0.0,0.0,0.0,1.0,pinwheel_06s.jpg,hummingbird_05s.jpg,,,,,,,
,,,,,,,,,1.0,,,59,1.0,1.0,1.396785,0.0,1.0,1.0,1.0,1.0,mop_08s.jpg,tinsel_12s.jpg,,,,,,,
,,,,,,,,,1.0,,,59,0.0,0.0,1.406295,0.0,2.0,2.0,2.0,1.0,pomegranate_04s.jpg,cucumber_07s.jpg,,,,,,,
,,,,,,,,,0.0,,,59,0.0,1.0,1.107,0.0,3.0,3.0,3.0,1.0,aluminum_foil_08s.jpg,ant_12s.jpg,,,,,,,
,,,,,,,,,0.0,,,59,0.0,1.0,1.44405,0.0,4.0,4.0,4.0,1.0,gas_mask_11s.jpg,tripod_01b.jpg,,,,,,,
,,,,,,,,,0.0,,,59,0.0,1.0,1.62329,0.0,5.0,5.0,5.0,1.0,mousetrap_15n.jpg,rhubarb_03s.jpg,,,,,,,
,,,,,,,,,,,,59,,,,,,,,,,,0.0,3.0,3.0,3.0,1.0,new2backpresent_4_1.xlsx,new2back_compare_task_4_1.xlsx
0.0,1.0,0.74187,0.0,0.0,0.0,0.0,1.0,jalapeno_15s.jpg,0.0,Blue.png,1.0,59,,,,,,,,,,,,,,,,,
0.0,1.0,0.64383,0.0,1.0,1.0,1.0,1.0,pincushion_10s.jpg,0.0,Purple.png,1.0,59,,,,,,,,,,,,,,,,,
0.0,1.0,0.5605,0.0,2.0,2.0,2.0,1.0,fondue_07s.jpg,0.0,Red.png,1.0,59,,,,,,,,,,,,,,,,,
0.0,1.0,0.521505,0.0,3.0,3.0,3.0,1.0,safety_pin_02s.jpg,0.0,Orange.png,1.0,59,,,,,,,,,,,,,,,,,
0.0,1.0,0.458295,0.0,4.0,4.0,4.0,1.0,turf_03s.jpg,0.0,Yellow.png,1.0,59,,,,,,,,,,,,,,,,,
0.0,1.0,0.91785,0.0,5.0,5.0,5.0,1.0,jalapeno_15s.jpg,0.0,Green.png,1.0,59,,,,,,,,,,,,,,,,,
0.0,1.0,1.145095,0.0,6.0,6.0,6.0,1.0,jalapeno_15s.jpg,0.0,Blue.png,2.0,59,,,,,,,,,,,,,,,,,
1.0,1.0,0.7178,0.0,7.0,7.0,7.0,1.0,jalapeno_15s.jpg,1.0,Purple.png,2.0,59,,,,,,,,,,,,,,,,,
0.0,1.0,0.63083,0.0,8.0,8.0,8.0,1.0,spoon02a.jpg,0.0,Red.png,2.0,59,,,,,,,,,,,,,,,,,
0.0,1.0,0.47673,0.0,9.0,9.0,9.0,1.0,puppet_01b.jpg,0.0,Orange.png,2.0,59,,,,,,,,,,,,,,,,,
1.0,0.0,0.81336,0.0,10.0,10.0,10.0,1.0,jalapeno_15s.jpg,0.0,Yellow.png,2.0,59,,,,,,,,,,,,,,,,,
0.0,1.0,0.893745,0.0,11.0,11.0,11.0,1.0,jalapeno_15s.jpg,0.0,Green.png,2.0,59,,,,,,,,,,,,,,,,,
0.0,1.0,0.51184,0.0,12.0,12.0,12.0,1.0,popcorn_09s.jpg,0.0,Blue.png,3.0,59,,,,,,,,,,,,,,,,,
0.0,1.0,0.95164,0.0,13.0,13.0,13.0,1.0,popcorn_09s.jpg,0.0,Purple.png,3.0,59,,,,,,,,,,,,,,,,,
0.0,1.0,0.52143,0.0,14.0,14.0,14.0,1.0,swordfish_05s.jpg,0.0,Red.png,3.0,59,,,,,,,,,,,,,,,,,
1.0,1.0,0.74317,0.0,15.0,15.0,15.0,1.0,popcorn_09s.jpg,1.0,Orange.png,3.0,59,,,,,,,,,,,,,,,,,
0.0,1.0,0.665345,0.0,16.0,16.0,16.0,1.0,police_car_01s.jpg,0.0,Yellow.png,3.0,59,,,,,,,,,,,,,,,,,
0.0,1.0,0.537835,0.0,17.0,17.0,17.0,1.0,ginger_09s.jpg,0.0,Green.png,3.0,59,,,,,,,,,,,,,,,,,
0.0,1.0,0.495425,0.0,18.0,18.0,18.0,1.0,cap_05s.jpg,0.0,Blue.png,4.0,59,,,,,,,,,,,,,,,,,
0.0,1.0,0.600985,0.0,19.0,19.0,19.0,1.0,ice-cream_cone_06s.jpg,0.0,Purple.png,4.0,59,,,,,,,,,,,,,,,,,
0.0,1.0,0.49277,0.0,20.0,20.0,20.0,1.0,purse_05s.jpg,0.0,Red.png,4.0,59,,,,,,,,,,,,,,,,,
0.0,1.0,0.752295,0.0,21.0,21.0,21.0,1.0,squirrel_02s.jpg,0.0,Orange.png,4.0,59,,,,,,,,,,,,,,,,,
1.0,0.0,0.51304,0.0,22.0,22.0,22.0,1.0,cap_05s.jpg,0.0,Yellow.png,4.0,59,,,,,,,,,,,,,,,,,
0.0,1.0,0.433065,0.0,23.0,23.0,23.0,1.0,pie_08s.jpg,0.0,Green.png,4.0,59,,,,,,,,,,,,,,,,,
0.0,1.0,0.54508,0.0,24.0,24.0,24.0,1.0,thread_08s.jpg,0.0,Blue.png,5.0,59,,,,,,,,,,,,,,,,,
0.0,1.0,0.660535,0.0,25.0,25.0,25.0,1.0,punch1_10s.jpg,0.0,Purple.png,5.0,59,,,,,,,,,,,,,,,,,
0.0,1.0,0.49142,0.0,26.0,26.0,26.0,1.0,cereal_04s.jpg,0.0,Red.png,5.0,59,,,,,,,,,,,,,,,,,
0.0,1.0,0.54421,0.0,27.0,27.0,27.0,1.0,espresso_01b.jpg,0.0,Orange.png,5.0,59,,,,,,,,,,,,,,,,,
1.0,1.0,0.58189,0.0,28.0,28.0,28.0,1.0,cereal_04s.jpg,1.0,Yellow.png,5.0,59,,,,,,,,,,,,,,,,,
0.0,1.0,0.917685,0.0,29.0,29.0,29.0,1.0,cereal_04s.jpg,0.0,Green.png,5.0,59,,,,,,,,,,,,,,,,,
0.0,1.0,0.49838,0.0,30.0,30.0,30.0,1.0,tube_top_03s.jpg,0.0,Blue.png,6.0,59,,,,,,,,,,,,,,,,,
0.0,1.0,0.559765,0.0,31.0,31.0,31.0,1.0,pepper2_21s.jpg,0.0,Purple.png,6.0,59,,,,,,,,,,,,,,,,,
0.0,1.0,0.54132,0.0,32.0,32.0,32.0,1.0,jersey_02s.jpg,0.0,Red.png,6.0,59,,,,,,,,,,,,,,,,,
0.0,1.0,0.562195,0.0,33.0,33.0,33.0,1.0,mussel_11s.jpg,0.0,Orange.png,6.0,59,,,,,,,,,,,,,,,,,
0.0,1.0,0.76988,0.0,34.0,34.0,34.0,1.0,toaster_03s.jpg,0.0,Yellow.png,6.0,59,,,,,,,,,,,,,,,,,
0.0,1.0,0.660595,0.0,35.0,35.0,35.0,1.0,tie_03s.jpg,0.0,Green.png,6.0,59,,,,,,,,,,,,,,,,,
,,,,,,,,,0.0,,,59,1.0,0.0,1.809455,0.0,0.0,0.0,0.0,1.0,ice-cream_cone_06s.jpg,police_car_01s.jpg,,,,,,,
,,,,,,,,,0.0,,,59,1.0,0.0,1.64437,0.0,1.0,1.0,1.0,1.0,turf_03s.jpg,pincushion_10s.jpg,,,,,,,
,,,,,,,,,0.0,,,59,0.0,1.0,1.142475,0.0,2.0,2.0,2.0,1.0,purse_05s.jpg,ginger_09s.jpg,,,,,,,
,,,,,,,,,1.0,,,59,1.0,1.0,1.83747,0.0,3.0,3.0,3.0,1.0,jersey_02s.jpg,tie_03s.jpg,,,,,,,
,,,,,,,,,0.0,,,59,0.0,1.0,1.29923,0.0,4.0,4.0,4.0,1.0,toaster_03s.jpg,pepper2_21s.jpg,,,,,,,
,,,,,,,,,0.0,,,59,0.0,1.0,1.450765,0.0,5.0,5.0,5.0,1.0,thread_08s.jpg,squirrel_02s.jpg,,,,,,,
,,,,,,,,,,,,59,,,,,,,,,,,0.0,4.0,4.0,4.0,1.0,new2backpresent_5_1.xlsx,new2back_compare_task_5_1.xlsx
0.0,1.0,1.248905,0.0,0.0,0.0,0.0,1.0,omelet_07s.jpg,0.0,Blue.png,1.0,59,,,,,,,,,,,,,,,,,
0.0,1.0,0.55988,0.0,1.0,1.0,1.0,1.0,popsicle_02s.jpg,0.0,Purple.png,1.0,59,,,,,,,,,,,,,,,,,
0.0,1.0,0.89219,0.0,2.0,2.0,2.0,1.0,letter_opener_03s.jpg,0.0,Red.png,1.0,59,,,,,,,,,,,,,,,,,
0.0,1.0,0.537165,0.0,3.0,3.0,3.0,1.0,diving_board_07s.jpg,0.0,Orange.png,1.0,59,,,,,,,,,,,,,,,,,
0.0,1.0,0.866255,0.0,4.0,4.0,4.0,1.0,omelet_07s.jpg,0.0,Yellow.png,1.0,59,,,,,,,,,,,,,,,,,
0.0,1.0,1.134455,0.0,5.0,5.0,5.0,1.0,letter_opener_03s.jpg,0.0,Green.png,1.0,59,,,,,,,,,,,,,,,,,
1.0,1.0,0.473175,0.0,6.0,6.0,6.0,1.0,omelet_07s.jpg,1.0,Blue.png,2.0,59,,,,,,,,,,,,,,,,,
0.0,1.0,0.589845,0.0,7.0,7.0,7.0,1.0,cape_11s.jpg,0.0,Purple.png,2.0,59,,,,,,,,,,,,,,,,,
1.0,1.0,1.034325,0.0,8.0,8.0,8.0,1.0,omelet_07s.jpg,1.0,Red.png,2.0,59,,,,,,,,,,,,,,,,,
0.0,1.0,1.29252,0.0,9.0,9.0,9.0,1.0,lantern_04s.jpg,0.0,Orange.png,2.0,59,,,,,,,,,,,,,,,,,
0.0,1.0,0.46837,0.0,10.0,10.0,10.0,1.0,leotard_08s.jpg,0.0,Yellow.png,2.0,59,,,,,,,,,,,,,,,,,
0.0,1.0,0.5607,0.0,11.0,11.0,11.0,1.0,pacifier_09s.jpg,0.0,Green.png,2.0,59,,,,,,,,,,,,,,,,,
0.0,1.0,0.59536,0.0,12.0,12.0,12.0,1.0,rocking_horse_03s.jpg,0.0,Blue.png,3.0,59,,,,,,,,,,,,,,,,,
0.0,1.0,0.56538,0.0,13.0,13.0,13.0,1.0,cardinal_07s.jpg,0.0,Purple.png,3.0,59,,,,,,,,,,,,,,,,,
0.0,1.0,0.591465,0.0,14.0,14.0,14.0,1.0,hyena_16s.jpg,0.0,Red.png,3.0,59,,,,,,,,,,,,,,,,,
0.0,1.0,0.60874,0.0,15.0,15.0,15.0,1.0,oil_02s.jpg,0.0,Orange.png,3.0,59,,,,,,,,,,,,,,,,,
0.0,1.0,0.493595,0.0,16.0,16.0,16.0,1.0,marshmallow_08s.jpg,0.0,Yellow.png,3.0,59,,,,,,,,,,,,,,,,,
1.0,1.0,0.815065,0.0,17.0,17.0,17.0,1.0,oil_02s.jpg,1.0,Green.png,3.0,59,,,,,,,,,,,,,,,,,
0.0,1.0,0.786655,0.0,18.0,18.0,18.0,1.0,omelet_07s.jpg,0.0,Blue.png,4.0,59,,,,,,,,,,,,,,,,,
1.0,1.0,1.028605,0.0,19.0,19.0,19.0,1.0,oil_02s.jpg,1.0,Purple.png,4.0,59,,,,,,,,,,,,,,,,,
0.0,1.0,0.52556,0.0,20.0,20.0,20.0,1.0,knitting_needle_04s.jpg,0.0,Red.png,4.0,59,,,,,,,,,,,,,,,,,
0.0,0.0,1.012605,0.0,21.0,21.0,21.0,1.0,oil_02s.jpg,1.0,Orange.png,4.0,59,,,,,,,,,,,,,,,,,
0.0,1.0,0.526475,0.0,22.0,22.0,22.0,1.0,ice_pack_09s.jpg,0.0,Yellow.png,4.0,59,,,,,,,,,,,,,,,,,
0.0,1.0,0.75046,0.0,23.0,23.0,23.0,1.0,peppermint_07s.jpg,0.0,Green.png,4.0,59,,,,,,,,,,,,,,,,,
0.0,1.0,0.577705,0.0,24.0,24.0,24.0,1.0,submarine_11n.jpg,0.0,Blue.png,5.0,59,,,,,,,,,,,,,,,,,
0.0,1.0,0.553225,0.0,25.0,25.0,25.0,1.0,seagull_01b.jpg,0.0,Purple.png,5.0,59,,,,,,,,,,,,,,,,,
0.0,1.0,1.036545,0.0,26.0,26.0,26.0,1.0,omelet_07s.jpg,0.0,Red.png,5.0,59,,,,,,,,,,,,,,,,,
0.0,1.0,0.59779,0.0,27.0,27.0,27.0,1.0,bonsai_07s.jpg,0.0,Orange.png,5.0,59,,,,,,,,,,,,,,,,,
0.0,1.0,0.91185,0.0,28.0,28.0,28.0,1.0,bonsai_07s.jpg,0.0,Yellow.png,5.0,59,,,,,,,,,,,,,,,,,
0.0,1.0,1.194155,0.0,29.0,29.0,29.0,1.0,omelet_07s.jpg,0.0,Green.png,5.0,59,,,,,,,,,,,,,,,,,
1.0,1.0,0.74672,0.0,30.0,30.0,30.0,1.0,bonsai_07s.jpg,1.0,Blue.png,6.0,59,,,,,,,,,,,,,,,,,
0.0,1.0,0.462785,0.0,31.0,31.0,31.0,1.0,quilt_03s.jpg,0.0,Purple.png,6.0,59,,,,,,,,,,,,,,,,,
0.0,1.0,0.47978,0.0,32.0,32.0,32.0,1.0,incense_02s.jpg,0.0,Red.png,6.0,59,,,,,,,,,,,,,,,,,
1.0,1.0,0.72668,0.0,33.0,33.0,33.0,1.0,quilt_03s.jpg,1.0,Orange.png,6.0,59,,,,,,,,,,,,,,,,,
1.0,1.0,0.776735,0.0,34.0,34.0,34.0,1.0,incense_02s.jpg,1.0,Yellow.png,6.0,59,,,,,,,,,,,,,,,,,
0.0,1.0,0.76995,0.0,35.0,35.0,35.0,1.0,incense_02s.jpg,0.0,Green.png,6.0,59,,,,,,,,,,,,,,,,,
,,,,,,,,,1.0,,,59,0.0,0.0,1.985305,0.0,0.0,0.0,0.0,1.0,pacifier_09s.jpg,hyena_16s.jpg,,,,,,,
,,,,,,,,,0.0,,,59,1.0,0.0,1.490745,0.0,1.0,1.0,1.0,1.0,peppermint_07s.jpg,knitting_needle_04s.jpg,,,,,,,
,,,,,,,,,1.0,,,59,0.0,0.0,1.143475,0.0,2.0,2.0,2.0,1.0,ice_pack_09s.jpg,seagull_01b.jpg,,,,,,,
,,,,,,,,,0.0,,,59,1.0,0.0,1.81851,0.0,3.0,3.0,3.0,1.0,marshmallow_08s.jpg,cardinal_07s.jpg,,,,,,,
,,,,,,,,,1.0,,,59,1.0,1.0,1.440735,0.0,4.0,4.0,4.0,1.0,cape_11s.jpg,leotard_08s.jpg,,,,,,,
,,,,,,,,,1.0,,,59,1.0,1.0,1.85951,0.0,5.0,5.0,5.0,1.0,lantern_04s.jpg,rocking_horse_03s.jpg,,,,,,,
,,,,,,,,,,,,59,,,,,,,,,,,0.0,5.0,5.0,5.0,1.0,new2backpresent_6_1.xlsx,new2back_compare_task_6_1.xlsx
0.0,1.0,0.89926,0.0,0.0,0.0,0.0,1.0,petri_dish_12s.jpg,0.0,Blue.png,1.0,59,,,,,,,,,,,,,,,,,
0.0,1.0,1.30069,0.0,1.0,1.0,1.0,1.0,toothpaste_12s.jpg,0.0,Purple.png,1.0,59,,,,,,,,,,,,,,,,,
0.0,1.0,0.69315,0.0,2.0,2.0,2.0,1.0,medal_04s.jpg,0.0,Red.png,1.0,59,,,,,,,,,,,,,,,,,
0.0,1.0,1.02129,0.0,3.0,3.0,3.0,1.0,potholder_02s.jpg,0.0,Orange.png,1.0,59,,,,,,,,,,,,,,,,,
0.0,1.0,0.8778,0.0,4.0,4.0,4.0,1.0,puck_06s.jpg,0.0,Yellow.png,1.0,59,,,,,,,,,,,,,,,,,
0.0,1.0,0.58229,0.0,5.0,5.0,5.0,1.0,bagel_15s.jpg,0.0,Green.png,1.0,59,,,,,,,,,,,,,,,,,
0.0,1.0,0.691635,0.0,6.0,6.0,6.0,1.0,golf_club_03s.jpg,0.0,Blue.png,2.0,59,,,,,,,,,,,,,,,,,
0.0,1.0,0.84279,0.0,7.0,7.0,7.0,1.0,golf_club_03s.jpg,0.0,Purple.png,2.0,59,,,,,,,,,,,,,,,,,
1.0,1.0,0.55634,0.0,8.0,8.0,8.0,1.0,golf_club_03s.jpg,1.0,Red.png,2.0,59,,,,,,,,,,,,,,,,,
0.0,1.0,0.48361,0.0,9.0,9.0,9.0,1.0,inhaler_01b.jpg,0.0,Orange.png,2.0,59,,,,,,,,,,,,,,,,,
1.0,1.0,0.96625,0.0,10.0,10.0,10.0,1.0,golf_club_03s.jpg,1.0,Yellow.png,2.0,59,,,,,,,,,,,,,,,,,
0.0,1.0,0.647495,0.0,11.0,11.0,11.0,1.0,tiger_06s.jpg,0.0,Green.png,2.0,59,,,,,,,,,,,,,,,,,
0.0,1.0,0.737085,0.0,12.0,12.0,12.0,1.0,medal_04s.jpg,0.0,Blue.png,3.0,59,,,,,,,,,,,,,,,,,
0.0,1.0,1.57819,0.0,13.0,13.0,13.0,1.0,medal_04s.jpg,0.0,Purple.png,3.0,59,,,,,,,,,,,,,,,,,
1.0,1.0,1.45924,0.0,14.0,14.0,14.0,1.0,medal_04s.jpg,1.0,Red.png,3.0,59,,,,,,,,,,,,,,,,,
0.0,1.0,0.51408,0.0,15.0,15.0,15.0,1.0,licorice_06s.jpg,0.0,Orange.png,3.0,59,,,,,,,,,,,,,,,,,
1.0,1.0,1.04876,0.0,16.0,16.0,16.0,1.0,medal_04s.jpg,1.0,Yellow.png,3.0,59,,,,,,,,,,,,,,,,,
0.0,1.0,0.426065,0.0,17.0,17.0,17.0,1.0,frog_09s.jpg,0.0,Green.png,3.0,59,,,,,,,,,,,,,,,,,
0.0,1.0,0.460525,0.0,18.0,18.0,18.0,1.0,laser_pointer_02s.jpg,0.0,Blue.png,4.0,59,,,,,,,,,,,,,,,,,
0.0,1.0,0.550875,0.0,19.0,19.0,19.0,1.0,treasure_08s.jpg,0.0,Purple.png,4.0,59,,,,,,,,,,,,,,,,,
0.0,1.0,0.502885,0.0,20.0,20.0,20.0,1.0,padlock_07s.jpg,0.0,Red.png,4.0,59,,,,,,,,,,,,,,,,,
0.0,1.0,0.54374,0.0,21.0,21.0,21.0,1.0,panda_02s.jpg,0.0,Orange.png,4.0,59,,,,,,,,,,,,,,,,,
0.0,1.0,0.86424,0.0,22.0,22.0,22.0,1.0,plunger_08s.jpg,0.0,Yellow.png,4.0,59,,,,,,,,,,,,,,,,,
0.0,1.0,0.615835,0.0,23.0,23.0,23.0,1.0,pancake_12s.jpg,0.0,Green.png,4.0,59,,,,,,,,,,,,,,,,,
0.0,1.0,0.48104,0.0,24.0,24.0,24.0,1.0,fire_pit_10s.jpg,0.0,Blue.png,5.0,59,,,,,,,,,,,,,,,,,
0.0,1.0,0.613115,0.0,25.0,25.0,25.0,1.0,bubble_01b.jpg,0.0,Purple.png,5.0,59,,,,,,,,,,,,,,,,,
0.0,1.0,1.03099,0.0,26.0,26.0,26.0,1.0,bubble_01b.jpg,0.0,Red.png,5.0,59,,,,,,,,,,,,,,,,,
1.0,1.0,0.530135,0.0,27.0,27.0,27.0,1.0,bubble_01b.jpg,1.0,Orange.png,5.0,59,,,,,,,,,,,,,,,,,
1.0,1.0,0.54831,0.0,28.0,28.0,28.0,1.0,bubble_01b.jpg,1.0,Yellow.png,5.0,59,,,,,,,,,,,,,,,,,
0.0,1.0,0.39198,0.0,29.0,29.0,29.0,1.0,power_line_08s.jpg,0.0,Green.png,5.0,59,,,,,,,,,,,,,,,,,
0.0,1.0,0.47599,0.0,30.0,30.0,30.0,1.0,golf_club_03s.jpg,0.0,Blue.png,6.0,59,,,,,,,,,,,,,,,,,
0.0,1.0,0.879825,0.0,31.0,31.0,31.0,1.0,kilt_18s.jpg,0.0,Purple.png,6.0,59,,,,,,,,,,,,,,,,,
0.0,1.0,0.5151,0.0,32.0,32.0,32.0,1.0,tupperware_09s.jpg,0.0,Red.png,6.0,59,,,,,,,,,,,,,,,,,
0.0,1.0,0.59612,0.0,33.0,33.0,33.0,1.0,go-kart_10s.jpg,0.0,Orange.png,6.0,59,,,,,,,,,,,,,,,,,
0.0,1.0,0.543565,0.0,34.0,34.0,34.0,1.0,bottle_opener_11s.jpg,0.0,Yellow.png,6.0,59,,,,,,,,,,,,,,,,,
1.0,1.0,0.720445,0.0,35.0,35.0,35.0,1.0,go-kart_10s.jpg,1.0,Green.png,6.0,59,,,,,,,,,,,,,,,,,
,,,,,,,,,1.0,,,59,1.0,1.0,2.4873,0.0,0.0,0.0,0.0,1.0,toothpaste_12s.jpg,puck_06s.jpg,,,,,,,
,,,,,,,,,0.0,,,59,0.0,1.0,1.31653,0.0,1.0,1.0,1.0,1.0,padlock_07s.jpg,frog_09s.jpg,,,,,,,
,,,,,,,,,0.0,,,59,0.0,1.0,2.962395,0.0,2.0,2.0,2.0,1.0,plunger_08s.jpg,treasure_08s.jpg,,,,,,,
,,,,,,,,,1.0,,,59,1.0,1.0,1.66682,0.0,3.0,3.0,3.0,1.0,licorice_06s.jpg,laser_pointer_02s.jpg,,,,,,,
,,,,,,,,,1.0,,,59,1.0,1.0,1.09017,0.0,4.0,4.0,4.0,1.0,petri_dish_12s.jpg,potholder_02s.jpg,,,,,,,
,,,,,,,,,0.0,,,59,0.0,1.0,2.22437,0.0,5.0,5.0,5.0,1.0,tupperware_09s.jpg,power_line_08s.jpg,,,,,,,
,,,,,,,,,,,,59,,,,,,,,,,,0.0,6.0,6.0,6.0,1.0,new2backpresent_7_1.xlsx,new2back_compare_task_7_1.xlsx
0.0,1.0,1.427745,0.0,0.0,0.0,0.0,1.0,toad_09s.jpg,0.0,Blue.png,1.0,59,,,,,,,,,,,,,,,,,
0.0,1.0,0.711495,0.0,1.0,1.0,1.0,1.0,toad_09s.jpg,0.0,Purple.png,1.0,59,,,,,,,,,,,,,,,,,
1.0,1.0,0.79198,0.0,2.0,2.0,2.0,1.0,toad_09s.jpg,1.0,Red.png,1.0,59,,,,,,,,,,,,,,,,,
0.0,1.0,0.42707,0.0,3.0,3.0,3.0,1.0,lamb_04s.jpg,0.0,Orange.png,1.0,59,,,,,,,,,,,,,,,,,
1.0,1.0,0.81134,0.0,4.0,4.0,4.0,1.0,toad_09s.jpg,1.0,Yellow.png,1.0,59,,,,,,,,,,,,,,,,,
0.0,1.0,0.546775,0.0,5.0,5.0,5.0,1.0,possum_09s.jpg,0.0,Green.png,1.0,59,,,,,,,,,,,,,,,,,
0.0,1.0,0.47845,0.0,6.0,6.0,6.0,1.0,reindeer_08s.jpg,0.0,Blue.png,2.0,59,,,,,,,,,,,,,,,,,
0.0,1.0,0.861695,0.0,7.0,7.0,7.0,1.0,reindeer_08s.jpg,0.0,Purple.png,2.0,59,,,,,,,,,,,,,,,,,
0.0,1.0,0.50198,0.0,8.0,8.0,8.0,1.0,knot_01b.jpg,0.0,Red.png,2.0,59,,,,,,,,,,,,,,,,,
1.0,1.0,0.67877,0.0,9.0,9.0,9.0,1.0,reindeer_08s.jpg,1.0,Orange.png,2.0,59,,,,,,,,,,,,,,,,,
0.0,1.0,0.583125,0.0,10.0,10.0,10.0,1.0,pan_02s.jpg,0.0,Yellow.png,2.0,59,,,,,,,,,,,,,,,,,
0.0,1.0,0.460705,0.0,11.0,11.0,11.0,1.0,ladle_04s.jpg,0.0,Green.png,2.0,59,,,,,,,,,,,,,,,,,
0.0,1.0,0.455565,0.0,12.0,12.0,12.0,1.0,tuxedo_01b.jpg,0.0,Blue.png,3.0,59,,,,,,,,,,,,,,,,,
0.0,1.0,0.48124,0.0,13.0,13.0,13.0,1.0,lemonade_04s.jpg,0.0,Purple.png,3.0,59,,,,,,,,,,,,,,,,,
0.0,1.0,0.548055,0.0,14.0,14.0,14.0,1.0,cobra_05s.jpg,0.0,Red.png,3.0,59,,,,,,,,,,,,,,,,,
0.0,1.0,0.66149,0.0,15.0,15.0,15.0,1.0,pocketknife_12s.jpg,0.0,Orange.png,3.0,59,,,,,,,,,,,,,,,,,
0.0,1.0,0.53022,0.0,16.0,16.0,16.0,1.0,kettle_08s.jpg,0.0,Yellow.png,3.0,59,,,,,,,,,,,,,,,,,
0.0,1.0,0.569745,0.0,17.0,17.0,17.0,1.0,spider_web_03s.jpg,0.0,Green.png,3.0,59,,,,,,,,,,,,,,,,,
0.0,1.0,0.6327,0.0,18.0,18.0,18.0,1.0,pretzel_09s.jpg,0.0,Blue.png,4.0,59,,,,,,,,,,,,,,,,,
0.0,1.0,0.578805,0.0,19.0,19.0,19.0,1.0,rock_08s.jpg,0.0,Purple.png,4.0,59,,,,,,,,,,,,,,,,,
0.0,1.0,0.66113,0.0,20.0,20.0,20.0,1.0,boar_10s.jpg,0.0,Red.png,4.0,59,,,,,,,,,,,,,,,,,
0.0,1.0,0.51918,0.0,21.0,21.0,21.0,1.0,sunglasses_11s.jpg,0.0,Orange.png,4.0,59,,,,,,,,,,,,,,,,,
1.0,1.0,0.44317,0.0,22.0,22.0,22.0,1.0,boar_10s.jpg,1.0,Yellow.png,4.0,59,,,,,,,,,,,,,,,,,
0.0,1.0,0.44409,0.0,23.0,23.0,23.0,1.0,smoothie_09s.jpg,0.0,Green.png,4.0,59,,,,,,,,,,,,,,,,,
0.0,1.0,0.492585,0.0,24.0,24.0,24.0,1.0,latch_15s.jpg,0.0,Blue.png,5.0,59,,,,,,,,,,,,,,,,,
0.0,1.0,0.410665,0.0,25.0,25.0,25.0,1.0,amber_04s.jpg,0.0,Purple.png,5.0,59,,,,,,,,,,,,,,,,,
0.0,1.0,0.86354,0.0,26.0,26.0,26.0,1.0,amber_04s.jpg,0.0,Red.png,5.0,59,,,,,,,,,,,,,,,,,
0.0,1.0,0.485845,0.0,27.0,27.0,27.0,1.0,tennis_ball_06s.jpg,0.0,Orange.png,5.0,59,,,,,,,,,,,,,,,,,
1.0,1.0,0.44196,0.0,28.0,28.0,28.0,1.0,amber_04s.jpg,1.0,Yellow.png,5.0,59,,,,,,,,,,,,,,,,,
0.0,1.0,0.4547,0.0,29.0,29.0,29.0,1.0,milk_02s.jpg,0.0,Green.png,5.0,59,,,,,,,,,,,,,,,,,
0.0,1.0,0.44338,0.0,30.0,30.0,30.0,1.0,coat_rack_01b.jpg,0.0,Blue.png,6.0,59,,,,,,,,,,,,,,,,,
0.0,1.0,0.495385,0.0,31.0,31.0,31.0,1.0,thorn_13s.jpg,0.0,Purple.png,6.0,59,,,,,,,,,,,,,,,,,
1.0,1.0,0.60543,0.0,32.0,32.0,32.0,1.0,coat_rack_01b.jpg,1.0,Red.png,6.0,59,,,,,,,,,,,,,,,,,
0.0,1.0,0.45445,0.0,33.0,33.0,33.0,1.0,razor_blade_01b.jpg,0.0,Orange.png,6.0,59,,,,,,,,,,,,,,,,,
0.0,1.0,0.68633,0.0,34.0,34.0,34.0,1.0,lid_10s.jpg,0.0,Yellow.png,6.0,59,,,,,,,,,,,,,,,,,
1.0,0.0,0.77883,0.0,35.0,35.0,35.0,1.0,lid_10s.jpg,0.0,Green.png,6.0,59,,,,,,,,,,,,,,,,,
,,,,,,,,,0.0,,,59,0.0,1.0,2.849755,0.0,0.0,0.0,0.0,1.0,pocketknife_12s.jpg,tuxedo_01b.jpg,,,,,,,
,,,,,,,,,1.0,,,59,1.0,1.0,1.702375,0.0,1.0,1.0,1.0,1.0,possum_09s.jpg,knot_01b.jpg,,,,,,,
,,,,,,,,,1.0,,,59,0.0,0.0,1.45594,0.0,2.0,2.0,2.0,1.0,pan_02s.jpg,lemonade_04s.jpg,,,,,,,
,,,,,,,,,0.0,,,59,0.0,1.0,1.14436,0.0,3.0,3.0,3.0,1.0,tennis_ball_06s.jpg,latch_15s.jpg,,,,,,,
,,,,,,,,,0.0,,,59,0.0,1.0,1.65995,0.0,4.0,4.0,4.0,1.0,rock_08s.jpg,kettle_08s.jpg,,,,,,,
,,,,,,,,,1.0,,,59,1.0,1.0,1.87618,0.0,5.0,5.0,5.0,1.0,cobra_05s.jpg,spider_web_03s.jpg,,,,,,,
,,,,,,,,,,,,59,,,,,,,,,,,0.0,7.0,7.0,7.0,1.0,new2backpresent_8_1.xlsx,new2back_compare_task_8_1.xlsx
0.0,1.0,1.42121,0.0,0.0,0.0,0.0,1.0,recliner_02s.jpg,0.0,Blue.png,1.0,59,,,,,,,,,,,,,,,,,
0.0,1.0,0.5436,0.0,1.0,1.0,1.0,1.0,lava_02s.jpg,0.0,Purple.png,1.0,59,,,,,,,,,,,,,,,,,
0.0,1.0,0.581065,0.0,2.0,2.0,2.0,1.0,quesadilla_07s.jpg,0.0,Red.png,1.0,59,,,,,,,,,,,,,,,,,
0.0,1.0,0.74741,0.0,3.0,3.0,3.0,1.0,chalice_10s.jpg,0.0,Orange.png,1.0,59,,,,,,,,,,,,,,,,,
0.0,1.0,0.55532,0.0,4.0,4.0,4.0,1.0,tulip_02s.jpg,0.0,Yellow.png,1.0,59,,,,,,,,,,,,,,,,,
0.0,1.0,2.17637,0.0,5.0,5.0,5.0,1.0,quesadilla_07s.jpg,0.0,Green.png,1.0,59,,,,,,,,,,,,,,,,,
0.0,1.0,0.538795,0.0,6.0,6.0,6.0,1.0,lamppost_09s.jpg,0.0,Blue.png,2.0,59,,,,,,,,,,,,,,,,,
0.0,1.0,0.544575,0.0,7.0,7.0,7.0,1.0,chopsticks_08s.jpg,0.0,Purple.png,2.0,59,,,,,,,,,,,,,,,,,
0.0,1.0,0.530905,0.0,8.0,8.0,8.0,1.0,refrigerator_07s.jpg,0.0,Red.png,2.0,59,,,,,,,,,,,,,,,,,
1.0,1.0,0.42809,0.0,9.0,9.0,9.0,1.0,chopsticks_08s.jpg,1.0,Orange.png,2.0,59,,,,,,,,,,,,,,,,,
0.0,1.0,0.493795,0.0,10.0,10.0,10.0,1.0,paper_towel_03s.jpg,0.0,Yellow.png,2.0,59,,,,,,,,,,,,,,,,,
0.0,1.0,0.482725,0.0,11.0,11.0,11.0,1.0,flask_04s.jpg,0.0,Green.png,2.0,59,,,,,,,,,,,,,,,,,
0.0,1.0,0.51063,0.0,12.0,12.0,12.0,1.0,pantyhose_07s.jpg,0.0,Blue.png,3.0,59,,,,,,,,,,,,,,,,,
1.0,1.0,0.70648,0.0,13.0,13.0,13.0,1.0,flask_04s.jpg,1.0,Purple.png,3.0,59,,,,,,,,,,,,,,,,,
0.0,1.0,0.817865,0.0,14.0,14.0,14.0,1.0,chopsticks_08s.jpg,0.0,Red.png,3.0,59,,,,,,,,,,,,,,,,,
0.0,1.0,0.61114,0.0,15.0,15.0,15.0,1.0,seahorse_13s.jpg,0.0,Orange.png,3.0,59,,,,,,,,,,,,,,,,,
0.0,1.0,0.524155,0.0,16.0,16.0,16.0,1.0,pencil_sharpener_09n.jpg,0.0,Yellow.png,3.0,59,,,,,,,,,,,,,,,,,
0.0,1.0,0.519505,0.0,17.0,17.0,17.0,1.0,clover_04s.jpg,0.0,Green.png,3.0,59,,,,,,,,,,,,,,,,,
1.0,1.0,0.48033,0.0,18.0,18.0,18.0,1.0,pencil_sharpener_09n.jpg,1.0,Blue.png,4.0,59,,,,,,,,,,,,,,,,,
0.0,1.0,0.5322,0.0,19.0,19.0,19.0,1.0,fishhook_06s.jpg,0.0,Purple.png,4.0,59,,,,,,,,,,,,,,,,,
1.0,0.0,0.73464,0.0,20.0,20.0,20.0,1.0,clover_04s.jpg,0.0,Red.png,4.0,59,,,,,,,,,,,,,,,,,
0.0,1.0,0.46576,0.0,21.0,21.0,21.0,1.0,stopwatch_04s.jpg,0.0,Orange.png,4.0,59,,,,,,,,,,,,,,,,,
0.0,1.0,0.713835,0.0,22.0,22.0,22.0,1.0,comic_book_02s.jpg,0.0,Yellow.png,4.0,59,,,,,,,,,,,,,,,,,
0.0,1.0,0.47188,0.0,23.0,23.0,23.0,1.0,lab_coat_11s.jpg,0.0,Green.png,4.0,59,,,,,,,,,,,,,,,,,
0.0,1.0,0.430125,0.0,24.0,24.0,24.0,1.0,bolo_tie_08s.jpg,0.0,Blue.png,5.0,59,,,,,,,,,,,,,,,,,
0.0,1.0,0.51381,0.0,25.0,25.0,25.0,1.0,teacup_07s.jpg,0.0,Purple.png,5.0,59,,,,,,,,,,,,,,,,,
0.0,1.0,0.655965,0.0,26.0,26.0,26.0,1.0,eyedropper_12s.jpg,0.0,Red.png,5.0,59,,,,,,,,,,,,,,,,,
0.0,1.0,0.584555,0.0,27.0,27.0,27.0,1.0,frame_06s.jpg,0.0,Orange.png,5.0,59,,,,,,,,,,,,,,,,,
0.0,1.0,0.59853,0.0,28.0,28.0,28.0,1.0,treadmill_06s.jpg,0.0,Yellow.png,5.0,59,,,,,,,,,,,,,,,,,
0.0,1.0,0.509645,0.0,29.0,29.0,29.0,1.0,mug_06s.jpg,0.0,Green.png,5.0,59,,,,,,,,,,,,,,,,,
0.0,1.0,1.21229,0.0,30.0,30.0,30.0,1.0,mug_06s.jpg,0.0,Blue.png,6.0,59,,,,,,,,,,,,,,,,,
1.0,1.0,0.600115,0.0,31.0,31.0,31.0,1.0,mug_06s.jpg,1.0,Purple.png,6.0,59,,,,,,,,,,,,,,,,,
0.0,1.0,0.465505,0.0,32.0,32.0,32.0,1.0,chip_04s.jpg,0.0,Red.png,6.0,59,,,,,,,,,,,,,,,,,
0.0,1.0,0.57554,0.0,33.0,33.0,33.0,1.0,gazelle_10s.jpg,0.0,Orange.png,6.0,59,,,,,,,,,,,,,,,,,
1.0,1.0,0.69511,0.0,34.0,34.0,34.0,1.0,chip_04s.jpg,1.0,Yellow.png,6.0,59,,,,,,,,,,,,,,,,,
0.0,1.0,0.57931,0.0,35.0,35.0,35.0,1.0,quill_09s.jpg,0.0,Green.png,6.0,59,,,,,,,,,,,,,,,,,
,,,,,,,,,0.0,,,59,1.0,0.0,2.28103,0.0,0.0,0.0,0.0,1.0,bolo_tie_08s.jpg,stopwatch_04s.jpg,,,,,,,
,,,,,,,,,0.0,,,59,1.0,0.0,1.692125,0.0,1.0,1.0,1.0,1.0,lamppost_09s.jpg,chalice_10s.jpg,,,,,,,
,,,,,,,,,0.0,,,59,1.0,0.0,2.17203,0.0,2.0,2.0,2.0,1.0,eyedropper_12s.jpg,lab_coat_11s.jpg,,,,,,,
,,,,,,,,,1.0,,,59,1.0,1.0,1.91202,0.0,3.0,3.0,3.0,1.0,lava_02s.jpg,tulip_02s.jpg,,,,,,,
,,,,,,,,,0.0,,,59,0.0,1.0,1.24497,0.0,4.0,4.0,4.0,1.0,seahorse_13s.jpg,pantyhose_07s.jpg,,,,,,,
,,,,,,,,,1.0,,,59,1.0,1.0,1.81275,0.0,5.0,5.0,5.0,1.0,fishhook_06s.jpg,comic_book_02s.jpg,,,,,,,
,,,,,,,,,,,,59,,,,,,,,,,,0.0,8.0,8.0,8.0,1.0,new2backpresent_9_1.xlsx,new2back_compare_task_9_1.xlsx
