key_resp.keys,key_resp.corr,key_resp.rt,present_segment.thisRepN,present_segment.thisTrialN,present_segment.thisN,present_segment.thisIndex,present_segment.ran,pictures,answer,clock,segment,participant,key_resp_2.keys,key_resp_2.corr,key_resp_2.rt,compare_segment.thisRepN,compare_segment.thisTrialN,compare_segment.thisN,compare_segment.thisIndex,compare_segment.ran,item_a,item_b,clock_conditions.thisRepN,clock_conditions.thisTrialN,clock_conditions.thisN,clock_conditions.thisIndex,clock_conditions.ran,present,compare
0.0,1.0,0.65648,0.0,0.0,0.0,0.0,1.0,mirror_12s.jpg,0.0,Blue.png,1.0,93,,,,,,,,,,,,,,,,,
0.0,1.0,0.300385,0.0,1.0,1.0,1.0,1.0,polaroid_05s.jpg,0.0,Purple.png,1.0,93,,,,,,,,,,,,,,,,,
0.0,1.0,0.766395,0.0,2.0,2.0,2.0,1.0,polaroid_05s.jpg,0.0,Red.png,1.0,93,,,,,,,,,,,,,,,,,
0.0,1.0,0.87706,0.0,3.0,3.0,3.0,1.0,slingshot_07s.jpg,0.0,Orange.png,1.0,93,,,,,,,,,,,,,,,,,
1.0,1.0,0.49575,0.0,4.0,4.0,4.0,1.0,polaroid_05s.jpg,1.0,Yellow.png,1.0,93,,,,,,,,,,,,,,,,,
0.0,1.0,0.827095,0.0,5.0,5.0,5.0,1.0,kettle_08s.jpg,0.0,Green.png,1.0,93,,,,,,,,,,,,,,,,,
0.0,1.0,0.61903,0.0,6.0,6.0,6.0,1.0,crystal_ball_12s.jpg,0.0,Blue.png,2.0,93,,,,,,,,,,,,,,,,,
0.0,1.0,0.59882,0.0,7.0,7.0,7.0,1.0,iron_13s.jpg,0.0,Purple.png,2.0,93,,,,,,,,,,,,,,,,,
0.0,1.0,0.59016,0.0,8.0,8.0,8.0,1.0,saddle_06s.jpg,0.0,Red.png,2.0,93,,,,,,,,,,,,,,,,,
0.0,1.0,0.753715,0.0,9.0,9.0,9.0,1.0,mango_09s.jpg,0.0,Orange.png,2.0,93,,,,,,,,,,,,,,,,,
0.0,1.0,0.554685,0.0,10.0,10.0,10.0,1.0,ostrich_06s.jpg,0.0,Yellow.png,2.0,93,,,,,,,,,,,,,,,,,
0.0,1.0,1.191445,0.0,11.0,11.0,11.0,1.0,iron_13s.jpg,0.0,Green.png,2.0,93,,,,,,,,,,,,,,,,,
0.0,1.0,0.63117,0.0,12.0,12.0,12.0,1.0,stethoscope_01b.jpg,0.0,Blue.png,3.0,93,,,,,,,,,,,,,,,,,
0.0,1.0,0.683745,0.0,13.0,13.0,13.0,1.0,ruby_15s.jpg,0.0,Purple.png,3.0,93,,,,,,,,,,,,,,,,,
0.0,1.0,1.068285,0.0,14.0,14.0,14.0,1.0,mango_09s.jpg,0.0,Red.png,3.0,93,,,,,,,,,,,,,,,,,
0.0,1.0,0.61417,0.0,15.0,15.0,15.0,1.0,target_11s.jpg,0.0,Orange.png,3.0,93,,,,,,,,,,,,,,,,,
1.0,1.0,0.54113,0.0,16.0,16.0,16.0,1.0,mango_09s.jpg,1.0,Yellow.png,3.0,93,,,,,,,,,,,,,,,,,
0.0,1.0,0.700915,0.0,17.0,17.0,17.0,1.0,compass_10n.jpg,0.0,Green.png,3.0,93,,,,,,,,,,,,,,,,,
0.0,1.0,0.75235,0.0,18.0,18.0,18.0,1.0,meatball_13s.jpg,0.0,Blue.png,4.0,93,,,,,,,,,,,,,,,,,
0.0,1.0,1.2323,0.0,19.0,19.0,19.0,1.0,stapler_01b.jpg,0.0,Purple.png,4.0,93,,,,,,,,,,,,,,,,,
1.0,1.0,0.617915,0.0,20.0,20.0,20.0,1.0,meatball_13s.jpg,1.0,Red.png,4.0,93,,,,,,,,,,,,,,,,,
0.0,1.0,0.83042,0.0,21.0,21.0,21.0,1.0,pump_11s.jpg,0.0,Orange.png,4.0,93,,,,,,,,,,,,,,,,,
0.0,1.0,0.626625,0.0,22.0,22.0,22.0,1.0,coral_08s.jpg,0.0,Yellow.png,4.0,93,,,,,,,,,,,,,,,,,
1.0,0.0,0.983555,0.0,23.0,23.0,23.0,1.0,meatball_13s.jpg,0.0,Green.png,4.0,93,,,,,,,,,,,,,,,,,
0.0,1.0,0.601655,0.0,24.0,24.0,24.0,1.0,peach_04s.jpg,0.0,Blue.png,5.0,93,,,,,,,,,,,,,,,,,
0.0,0.0,1.57886,0.0,25.0,25.0,25.0,1.0,meatball_13s.jpg,1.0,Purple.png,5.0,93,,,,,,,,,,,,,,,,,
0.0,1.0,2.039555,0.0,26.0,26.0,26.0,1.0,pie_08s.jpg,0.0,Red.png,5.0,93,,,,,,,,,,,,,,,,,
0.0,1.0,0.778915,0.0,27.0,27.0,27.0,1.0,rollerskate_03s.jpg,0.0,Orange.png,5.0,93,,,,,,,,,,,,,,,,,
0.0,1.0,0.674525,0.0,28.0,28.0,28.0,1.0,trampoline_13s.jpg,0.0,Yellow.png,5.0,93,,,,,,,,,,,,,,,,,
0.0,1.0,0.70726,0.0,29.0,29.0,29.0,1.0,undershirt_02s.jpg,0.0,Green.png,5.0,93,,,,,,,,,,,,,,,,,
0.0,1.0,0.725705,0.0,30.0,30.0,30.0,1.0,thread_08s.jpg,0.0,Blue.png,6.0,93,,,,,,,,,,,,,,,,,
0.0,1.0,0.49244,0.0,31.0,31.0,31.0,1.0,megaphone_03s.jpg,0.0,Purple.png,6.0,93,,,,,,,,,,,,,,,,,
0.0,1.0,0.890295,0.0,32.0,32.0,32.0,1.0,plaster_cast_13s.jpg,0.0,Red.png,6.0,93,,,,,,,,,,,,,,,,,
0.0,1.0,0.55718,0.0,33.0,33.0,33.0,1.0,diving_board_07s.jpg,0.0,Orange.png,6.0,93,,,,,,,,,,,,,,,,,
0.0,1.0,0.56068,0.0,34.0,34.0,34.0,1.0,kayak_08s.jpg,0.0,Yellow.png,6.0,93,,,,,,,,,,,,,,,,,
1.0,1.0,1.006385,0.0,35.0,35.0,35.0,1.0,diving_board_07s.jpg,1.0,Green.png,6.0,93,,,,,,,,,,,,,,,,,
,,,,,,,,,1.0,,,93,1.0,1.0,2.111325,0.0,0.0,0.0,0.0,1.0,stapler_01b.jpg,coral_08s.jpg,,,,,,,
,,,,,,,,,1.0,,,93,1.0,1.0,1.574215,0.0,1.0,1.0,1.0,1.0,slingshot_07s.jpg,crystal_ball_12s.jpg,,,,,,,
,,,,,,,,,0.0,,,93,0.0,1.0,1.46563,0.0,2.0,2.0,2.0,1.0,saddle_06s.jpg,kettle_08s.jpg,,,,,,,
,,,,,,,,,1.0,,,93,0.0,0.0,1.402125,0.0,3.0,3.0,3.0,1.0,pie_08s.jpg,undershirt_02s.jpg,,,,,,,
,,,,,,,,,1.0,,,93,1.0,1.0,1.38914,0.0,4.0,4.0,4.0,1.0,stethoscope_01b.jpg,target_11s.jpg,,,,,,,
,,,,,,,,,1.0,,,93,1.0,1.0,1.129955,0.0,5.0,5.0,5.0,1.0,ostrich_06s.jpg,ruby_15s.jpg,,,,,,,
,,,,,,,,,,,,93,,,,,,,,,,,0.0,0.0,0.0,0.0,1.0,new2backpresent_1_4.xlsx,new2back_compare_task_1_4.xlsx
,0.0,,0.0,0.0,0.0,0.0,1.0,jetski_10s.jpg,0.0,Blue.png,1.0,93,,,,,,,,,,,,,,,,,
,0.0,,0.0,1.0,1.0,1.0,1.0,tripod_01b.jpg,0.0,Purple.png,1.0,93,,,,,,,,,,,,,,,,,
0.0,1.0,0.540205,0.0,2.0,2.0,2.0,1.0,lab_coat_11s.jpg,0.0,Red.png,1.0,93,,,,,,,,,,,,,,,,,
0.0,1.0,0.54077,0.0,3.0,3.0,3.0,1.0,foam_03s.jpg,0.0,Orange.png,1.0,93,,,,,,,,,,,,,,,,,
0.0,1.0,0.564705,0.0,4.0,4.0,4.0,1.0,crate_05s.jpg,0.0,Yellow.png,1.0,93,,,,,,,,,,,,,,,,,
0.0,1.0,0.563555,0.0,5.0,5.0,5.0,1.0,margarita_03s.jpg,0.0,Green.png,1.0,93,,,,,,,,,,,,,,,,,
0.0,1.0,0.733815,0.0,6.0,6.0,6.0,1.0,joystick_01b.jpg,0.0,Blue.png,2.0,93,,,,,,,,,,,,,,,,,
0.0,1.0,0.807345,0.0,7.0,7.0,7.0,1.0,giraffe_11s.jpg,0.0,Purple.png,2.0,93,,,,,,,,,,,,,,,,,
0.0,1.0,0.540225,0.0,8.0,8.0,8.0,1.0,quilt_03s.jpg,0.0,Red.png,2.0,93,,,,,,,,,,,,,,,,,
1.0,1.0,1.02416,0.0,9.0,9.0,9.0,1.0,giraffe_11s.jpg,1.0,Orange.png,2.0,93,,,,,,,,,,,,,,,,,
0.0,1.0,0.748195,0.0,10.0,10.0,10.0,1.0,pincushion_10s.jpg,0.0,Yellow.png,2.0,93,,,,,,,,,,,,,,,,,
1.0,1.0,2.2065,0.0,11.0,11.0,11.0,1.0,giraffe_11s.jpg,1.0,Green.png,2.0,93,,,,,,,,,,,,,,,,,
1.0,1.0,1.690085,0.0,12.0,12.0,12.0,1.0,pincushion_10s.jpg,1.0,Blue.png,3.0,93,,,,,,,,,,,,,,,,,
1.0,1.0,1.810525,0.0,13.0,13.0,13.0,1.0,giraffe_11s.jpg,1.0,Purple.png,3.0,93,,,,,,,,,,,,,,,,,
0.0,1.0,0.646625,0.0,14.0,14.0,14.0,1.0,rolling_pin_02s.jpg,0.0,Red.png,3.0,93,,,,,,,,,,,,,,,,,
0.0,1.0,0.57343,0.0,15.0,15.0,15.0,1.0,ticktacktoe_08s.jpg,0.0,Orange.png,3.0,93,,,,,,,,,,,,,,,,,
0.0,1.0,0.89132,0.0,16.0,16.0,16.0,1.0,giraffe_11s.jpg,0.0,Yellow.png,3.0,93,,,,,,,,,,,,,,,,,
1.0,1.0,1.62867,0.0,17.0,17.0,17.0,1.0,ticktacktoe_08s.jpg,1.0,Green.png,3.0,93,,,,,,,,,,,,,,,,,
0.0,1.0,1.243065,0.0,18.0,18.0,18.0,1.0,typewriter_11s.jpg,0.0,Blue.png,4.0,93,,,,,,,,,,,,,,,,,
0.0,1.0,0.86988,0.0,19.0,19.0,19.0,1.0,toothpaste_12s.jpg,0.0,Purple.png,4.0,93,,,,,,,,,,,,,,,,,
0.0,1.0,1.202845,0.0,20.0,20.0,20.0,1.0,hummingbird_05s.jpg,0.0,Red.png,4.0,93,,,,,,,,,,,,,,,,,
1.0,1.0,1.811345,0.0,21.0,21.0,21.0,1.0,toothpaste_12s.jpg,1.0,Orange.png,4.0,93,,,,,,,,,,,,,,,,,
0.0,1.0,1.56792,0.0,22.0,22.0,22.0,1.0,toothpaste_12s.jpg,0.0,Yellow.png,4.0,93,,,,,,,,,,,,,,,,,
0.0,1.0,1.107665,0.0,23.0,23.0,23.0,1.0,treadmill_06s.jpg,0.0,Green.png,4.0,93,,,,,,,,,,,,,,,,,
0.0,1.0,1.87365,0.0,24.0,24.0,24.0,1.0,typewriter_11s.jpg,0.0,Blue.png,5.0,93,,,,,,,,,,,,,,,,,
0.0,1.0,0.54637,0.0,25.0,25.0,25.0,1.0,penguin_16s.jpg,0.0,Purple.png,5.0,93,,,,,,,,,,,,,,,,,
0.0,1.0,1.75105,0.0,26.0,26.0,26.0,1.0,olive_05s.jpg,0.0,Red.png,5.0,93,,,,,,,,,,,,,,,,,
0.0,0.0,0.92453,0.0,27.0,27.0,27.0,1.0,penguin_16s.jpg,1.0,Orange.png,5.0,93,,,,,,,,,,,,,,,,,
1.0,0.0,0.802385,0.0,28.0,28.0,28.0,1.0,penguin_16s.jpg,0.0,Yellow.png,5.0,93,,,,,,,,,,,,,,,,,
0.0,1.0,0.964295,0.0,29.0,29.0,29.0,1.0,tab_09s.jpg,0.0,Green.png,5.0,93,,,,,,,,,,,,,,,,,
0.0,1.0,0.73632,0.0,30.0,30.0,30.0,1.0,frame_06s.jpg,0.0,Blue.png,6.0,93,,,,,,,,,,,,,,,,,
0.0,1.0,0.82769,0.0,31.0,31.0,31.0,1.0,mop_08s.jpg,0.0,Purple.png,6.0,93,,,,,,,,,,,,,,,,,
0.0,1.0,1.002605,0.0,32.0,32.0,32.0,1.0,memory_stick_11s.jpg,0.0,Red.png,6.0,93,,,,,,,,,,,,,,,,,
0.0,1.0,1.190465,0.0,33.0,33.0,33.0,1.0,olive_05s.jpg,0.0,Orange.png,6.0,93,,,,,,,,,,,,,,,,,
0.0,1.0,0.826245,0.0,34.0,34.0,34.0,1.0,ravioli_08s.jpg,0.0,Yellow.png,6.0,93,,,,,,,,,,,,,,,,,
0.0,1.0,0.70972,0.0,35.0,35.0,35.0,1.0,mousetrap_15n.jpg,0.0,Green.png,6.0,93,,,,,,,,,,,,,,,,,
,,,,,,,,,1.0,,,93,1.0,1.0,1.65116,0.0,0.0,0.0,0.0,1.0,hummingbird_05s.jpg,treadmill_06s.jpg,,,,,,,
,,,,,,,,,1.0,,,93,0.0,0.0,1.30349,0.0,1.0,1.0,1.0,1.0,margarita_03s.jpg,quilt_03s.jpg,,,,,,,
,,,,,,,,,0.0,,,93,0.0,1.0,1.15614,0.0,2.0,2.0,2.0,1.0,joystick_01b.jpg,foam_03s.jpg,,,,,,,
,,,,,,,,,0.0,,,93,0.0,1.0,1.678185,0.0,3.0,3.0,3.0,1.0,ravioli_08s.jpg,mop_08s.jpg,,,,,,,
,,,,,,,,,1.0,,,93,1.0,1.0,1.22045,0.0,4.0,4.0,4.0,1.0,tab_09s.jpg,memory_stick_11s.jpg,,,,,,,
,,,,,,,,,1.0,,,93,0.0,0.0,1.056895,0.0,5.0,5.0,5.0,1.0,tripod_01b.jpg,crate_05s.jpg,,,,,,,
,,,,,,,,,,,,93,,,,,,,,,,,0.0,1.0,1.0,1.0,1.0,new2backpresent_2_4.xlsx,new2back_compare_task_2_4.xlsx
0.0,1.0,1.61495,0.0,0.0,0.0,0.0,1.0,safety_pin_02s.jpg,0.0,Blue.png,1.0,93,,,,,,,,,,,,,,,,,
0.0,1.0,1.048675,0.0,1.0,1.0,1.0,1.0,safety_pin_02s.jpg,0.0,Purple.png,1.0,93,,,,,,,,,,,,,,,,,
0.0,1.0,0.79877,0.0,2.0,2.0,2.0,1.0,cardinal_07s.jpg,0.0,Red.png,1.0,93,,,,,,,,,,,,,,,,,
1.0,1.0,0.500925,0.0,3.0,3.0,3.0,1.0,safety_pin_02s.jpg,1.0,Orange.png,1.0,93,,,,,,,,,,,,,,,,,
0.0,1.0,0.75799,0.0,4.0,4.0,4.0,1.0,potholder_02s.jpg,0.0,Yellow.png,1.0,93,,,,,,,,,,,,,,,,,
1.0,1.0,1.21761,0.0,5.0,5.0,5.0,1.0,safety_pin_02s.jpg,1.0,Green.png,1.0,93,,,,,,,,,,,,,,,,,
0.0,1.0,2.41614,0.0,6.0,6.0,6.0,1.0,cardinal_07s.jpg,0.0,Blue.png,2.0,93,,,,,,,,,,,,,,,,,
0.0,1.0,0.923465,0.0,7.0,7.0,7.0,1.0,lion_18s.jpg,0.0,Purple.png,2.0,93,,,,,,,,,,,,,,,,,
0.0,1.0,0.47373,0.0,8.0,8.0,8.0,1.0,comic_book_02s.jpg,0.0,Red.png,2.0,93,,,,,,,,,,,,,,,,,
0.0,1.0,0.641095,0.0,9.0,9.0,9.0,1.0,lizard_10n.jpg,0.0,Orange.png,2.0,93,,,,,,,,,,,,,,,,,
0.0,1.0,0.674325,0.0,10.0,10.0,10.0,1.0,rice_12s.jpg,0.0,Yellow.png,2.0,93,,,,,,,,,,,,,,,,,
0.0,1.0,0.585465,0.0,11.0,11.0,11.0,1.0,bagel_15s.jpg,0.0,Green.png,2.0,93,,,,,,,,,,,,,,,,,
0.0,1.0,0.669415,0.0,12.0,12.0,12.0,1.0,recliner_02s.jpg,0.0,Blue.png,3.0,93,,,,,,,,,,,,,,,,,
0.0,1.0,2.000025,0.0,13.0,13.0,13.0,1.0,recliner_02s.jpg,0.0,Purple.png,3.0,93,,,,,,,,,,,,,,,,,
0.0,1.0,1.74036,0.0,14.0,14.0,14.0,1.0,luggage_08s.jpg,0.0,Red.png,3.0,93,,,,,,,,,,,,,,,,,
1.0,1.0,0.88478,0.0,15.0,15.0,15.0,1.0,recliner_02s.jpg,1.0,Orange.png,3.0,93,,,,,,,,,,,,,,,,,
0.0,1.0,0.65736,0.0,16.0,16.0,16.0,1.0,onion_10s.jpg,0.0,Yellow.png,3.0,93,,,,,,,,,,,,,,,,,
0.0,1.0,0.77403,0.0,17.0,17.0,17.0,1.0,rosary_03s.jpg,0.0,Green.png,3.0,93,,,,,,,,,,,,,,,,,
0.0,1.0,0.499605,0.0,18.0,18.0,18.0,1.0,smokingpipe.jpg,0.0,Blue.png,4.0,93,,,,,,,,,,,,,,,,,
0.0,1.0,0.547115,0.0,19.0,19.0,19.0,1.0,roulette_wheel_04s.jpg,0.0,Purple.png,4.0,93,,,,,,,,,,,,,,,,,
1.0,1.0,1.17337,0.0,20.0,20.0,20.0,1.0,smokingpipe.jpg,1.0,Red.png,4.0,93,,,,,,,,,,,,,,,,,
0.0,1.0,0.883275,0.0,21.0,21.0,21.0,1.0,orchid_01b.jpg,0.0,Orange.png,4.0,93,,,,,,,,,,,,,,,,,
0.0,1.0,0.745825,0.0,22.0,22.0,22.0,1.0,buoy_04s.jpg,0.0,Yellow.png,4.0,93,,,,,,,,,,,,,,,,,
0.0,1.0,0.581355,0.0,23.0,23.0,23.0,1.0,stopwatch_04s.jpg,0.0,Green.png,4.0,93,,,,,,,,,,,,,,,,,
0.0,1.0,0.60754,0.0,24.0,24.0,24.0,1.0,knitting_needle_04s.jpg,0.0,Blue.png,5.0,93,,,,,,,,,,,,,,,,,
0.0,1.0,0.61563,0.0,25.0,25.0,25.0,1.0,prism_10s.jpg,0.0,Purple.png,5.0,93,,,,,,,,,,,,,,,,,
0.0,1.0,0.49105,0.0,26.0,26.0,26.0,1.0,teapot_03s.jpg,0.0,Red.png,5.0,93,,,,,,,,,,,,,,,,,
0.0,1.0,0.63522,0.0,27.0,27.0,27.0,1.0,fire_pit_10s.jpg,0.0,Orange.png,5.0,93,,,,,,,,,,,,,,,,,
0.0,1.0,0.703155,0.0,28.0,28.0,28.0,1.0,fire_pit_10s.jpg,0.0,Yellow.png,5.0,93,,,,,,,,,,,,,,,,,
1.0,1.0,0.70758,0.0,29.0,29.0,29.0,1.0,fire_pit_10s.jpg,1.0,Green.png,5.0,93,,,,,,,,,,,,,,,,,
0.0,1.0,0.876685,0.0,30.0,30.0,30.0,1.0,ironing_board_07s.jpg,0.0,Blue.png,6.0,93,,,,,,,,,,,,,,,,,
1.0,1.0,1.17456,0.0,31.0,31.0,31.0,1.0,fire_pit_10s.jpg,1.0,Purple.png,6.0,93,,,,,,,,,,,,,,,,,
0.0,1.0,0.642995,0.0,32.0,32.0,32.0,1.0,mattress_01s.jpg,0.0,Red.png,6.0,93,,,,,,,,,,,,,,,,,
1.0,1.0,1.266985,0.0,33.0,33.0,33.0,1.0,fire_pit_10s.jpg,1.0,Orange.png,6.0,93,,,,,,,,,,,,,,,,,
1.0,1.0,1.440925,0.0,34.0,34.0,34.0,1.0,mattress_01s.jpg,1.0,Yellow.png,6.0,93,,,,,,,,,,,,,,,,,
0.0,1.0,0.673745,0.0,35.0,35.0,35.0,1.0,ice-cream_cone_06s.jpg,0.0,Green.png,6.0,93,,,,,,,,,,,,,,,,,
,,,,,,,,,1.0,,,93,0.0,0.0,2.16087,0.0,0.0,0.0,0.0,1.0,roulette_wheel_04s.jpg,buoy_04s.jpg,,,,,,,
,,,,,,,,,0.0,,,93,1.0,0.0,1.266845,0.0,1.0,1.0,1.0,1.0,lion_18s.jpg,potholder_02s.jpg,,,,,,,
,,,,,,,,,0.0,,,93,0.0,1.0,1.1663,0.0,2.0,2.0,2.0,1.0,bagel_15s.jpg,comic_book_02s.jpg,,,,,,,
,,,,,,,,,1.0,,,93,0.0,0.0,1.77419,0.0,3.0,3.0,3.0,1.0,stopwatch_04s.jpg,teapot_03s.jpg,,,,,,,
,,,,,,,,,1.0,,,93,1.0,1.0,1.163655,0.0,4.0,4.0,4.0,1.0,luggage_08s.jpg,rosary_03s.jpg,,,,,,,
,,,,,,,,,1.0,,,93,1.0,1.0,1.292915,0.0,5.0,5.0,5.0,1.0,orchid_01b.jpg,knitting_needle_04s.jpg,,,,,,,
,,,,,,,,,,,,93,,,,,,,,,,,0.0,2.0,2.0,2.0,1.0,new2backpresent_3_4.xlsx,new2back_compare_task_3_4.xlsx
0.0,1.0,0.987155,0.0,0.0,0.0,0.0,1.0,smoothie_09s.jpg,0.0,Blue.png,1.0,93,,,,,,,,,,,,,,,,,
0.0,1.0,0.992795,0.0,1.0,1.0,1.0,1.0,raspberry_12s.jpg,0.0,Purple.png,1.0,93,,,,,,,,,,,,,,,,,
0.0,1.0,0.756805,0.0,2.0,2.0,2.0,1.0,raspberry_12s.jpg,0.0,Red.png,1.0,93,,,,,,,,,,,,,,,,,
0.0,1.0,0.54915,0.0,3.0,3.0,3.0,1.0,lamb_chop_07s.jpg,0.0,Orange.png,1.0,93,,,,,,,,,,,,,,,,,
0.0,1.0,0.874935,0.0,4.0,4.0,4.0,1.0,smoothie_09s.jpg,0.0,Yellow.png,1.0,93,,,,,,,,,,,,,,,,,
0.0,1.0,1.14073,0.0,5.0,5.0,5.0,1.0,raspberry_12s.jpg,0.0,Green.png,1.0,93,,,,,,,,,,,,,,,,,
0.0,1.0,0.75086,0.0,6.0,6.0,6.0,1.0,lava_02s.jpg,0.0,Blue.png,2.0,93,,,,,,,,,,,,,,,,,
0.0,1.0,2.412505,0.0,7.0,7.0,7.0,1.0,trident_07s.jpg,0.0,Purple.png,2.0,93,,,,,,,,,,,,,,,,,
0.0,1.0,0.535145,0.0,8.0,8.0,8.0,1.0,trident_07s.jpg,0.0,Red.png,2.0,93,,,,,,,,,,,,,,,,,
1.0,1.0,0.68576,0.0,9.0,9.0,9.0,1.0,trident_07s.jpg,1.0,Orange.png,2.0,93,,,,,,,,,,,,,,,,,
0.0,1.0,0.548685,0.0,10.0,10.0,10.0,1.0,orangutan_03s.jpg,0.0,Yellow.png,2.0,93,,,,,,,,,,,,,,,,,
1.0,1.0,1.174925,0.0,11.0,11.0,11.0,1.0,trident_07s.jpg,1.0,Green.png,2.0,93,,,,,,,,,,,,,,,,,
0.0,1.0,0.695045,0.0,12.0,12.0,12.0,1.0,raspberry_12s.jpg,0.0,Blue.png,3.0,93,,,,,,,,,,,,,,,,,
1.0,1.0,1.4636,0.0,13.0,13.0,13.0,1.0,trident_07s.jpg,1.0,Purple.png,3.0,93,,,,,,,,,,,,,,,,,
0.0,1.0,2.4421,0.0,14.0,14.0,14.0,1.0,lavender_10s.jpg,0.0,Red.png,3.0,93,,,,,,,,,,,,,,,,,
0.0,1.0,0.623135,0.0,15.0,15.0,15.0,1.0,chip_04s.jpg,0.0,Orange.png,3.0,93,,,,,,,,,,,,,,,,,
0.0,1.0,0.634865,0.0,16.0,16.0,16.0,1.0,lamb_04s.jpg,0.0,Yellow.png,3.0,93,,,,,,,,,,,,,,,,,
0.0,1.0,2.406675,0.0,17.0,17.0,17.0,1.0,emerald_02s.jpg,0.0,Green.png,3.0,93,,,,,,,,,,,,,,,,,
0.0,1.0,0.46841,0.0,18.0,18.0,18.0,1.0,pineapple_12s.jpg,0.0,Blue.png,4.0,93,,,,,,,,,,,,,,,,,
0.0,1.0,0.62607,0.0,19.0,19.0,19.0,1.0,sundae_08s.jpg,0.0,Purple.png,4.0,93,,,,,,,,,,,,,,,,,
0.0,1.0,1.518135,0.0,20.0,20.0,20.0,1.0,sundae_08s.jpg,0.0,Red.png,4.0,93,,,,,,,,,,,,,,,,,
0.0,1.0,0.698825,0.0,21.0,21.0,21.0,1.0,squirrel_02s.jpg,0.0,Orange.png,4.0,93,,,,,,,,,,,,,,,,,
0.0,1.0,0.662695,0.0,22.0,22.0,22.0,1.0,roller_coaster_07s.jpg,0.0,Yellow.png,4.0,93,,,,,,,,,,,,,,,,,
0.0,1.0,2.28154,0.0,23.0,23.0,23.0,1.0,sundae_08s.jpg,0.0,Green.png,4.0,93,,,,,,,,,,,,,,,,,
0.0,1.0,0.626535,0.0,24.0,24.0,24.0,1.0,tweezers_03s.jpg,0.0,Blue.png,5.0,93,,,,,,,,,,,,,,,,,
1.0,1.0,1.04117,0.0,25.0,25.0,25.0,1.0,sundae_08s.jpg,1.0,Purple.png,5.0,93,,,,,,,,,,,,,,,,,
0.0,1.0,1.5261,0.0,26.0,26.0,26.0,1.0,rudder_02s.jpg,0.0,Red.png,5.0,93,,,,,,,,,,,,,,,,,
0.0,1.0,0.68299,0.0,27.0,27.0,27.0,1.0,rake_06s.jpg,0.0,Orange.png,5.0,93,,,,,,,,,,,,,,,,,
0.0,1.0,1.01543,0.0,28.0,28.0,28.0,1.0,rake_06s.jpg,0.0,Yellow.png,5.0,93,,,,,,,,,,,,,,,,,
1.0,1.0,0.730065,0.0,29.0,29.0,29.0,1.0,rake_06s.jpg,1.0,Green.png,5.0,93,,,,,,,,,,,,,,,,,
0.0,1.0,0.64705,0.0,30.0,30.0,30.0,1.0,cap_05s.jpg,0.0,Blue.png,6.0,93,,,,,,,,,,,,,,,,,
0.0,1.0,0.59784,0.0,31.0,31.0,31.0,1.0,paper_towel_03s.jpg,0.0,Purple.png,6.0,93,,,,,,,,,,,,,,,,,
0.0,1.0,0.84024,0.0,32.0,32.0,32.0,1.0,toaster_03s.jpg,0.0,Red.png,6.0,93,,,,,,,,,,,,,,,,,
0.0,1.0,0.62416,0.0,33.0,33.0,33.0,1.0,money_07s.jpg,0.0,Orange.png,6.0,93,,,,,,,,,,,,,,,,,
0.0,1.0,0.54178,0.0,34.0,34.0,34.0,1.0,pinwheel_06s.jpg,0.0,Yellow.png,6.0,93,,,,,,,,,,,,,,,,,
0.0,1.0,0.725735,0.0,35.0,35.0,35.0,1.0,lid_10s.jpg,0.0,Green.png,6.0,93,,,,,,,,,,,,,,,,,
,,,,,,,,,0.0,,,93,0.0,1.0,1.64159,0.0,0.0,0.0,0.0,1.0,tweezers_03s.jpg,squirrel_02s.jpg,,,,,,,
,,,,,,,,,1.0,,,93,1.0,1.0,1.296845,0.0,1.0,1.0,1.0,1.0,chip_04s.jpg,pineapple_12s.jpg,,,,,,,
,,,,,,,,,1.0,,,93,1.0,1.0,1.435885,0.0,2.0,2.0,2.0,1.0,lamb_chop_07s.jpg,lava_02s.jpg,,,,,,,
,,,,,,,,,0.0,,,93,0.0,1.0,1.058315,0.0,3.0,3.0,3.0,1.0,pinwheel_06s.jpg,paper_towel_03s.jpg,,,,,,,
,,,,,,,,,0.0,,,93,0.0,1.0,1.154145,0.0,4.0,4.0,4.0,1.0,emerald_02s.jpg,lavender_10s.jpg,,,,,,,
,,,,,,,,,0.0,,,93,1.0,0.0,1.22952,0.0,5.0,5.0,5.0,1.0,money_07s.jpg,cap_05s.jpg,,,,,,,
,,,,,,,,,,,,93,,,,,,,,,,,0.0,3.0,3.0,3.0,1.0,new2backpresent_4_4.xlsx,new2back_compare_task_4_4.xlsx
0.0,1.0,1.018585,0.0,0.0,0.0,0.0,1.0,fur_coat_11s.jpg,0.0,Blue.png,1.0,93,,,,,,,,,,,,,,,,,
0.0,1.0,0.81781,0.0,1.0,1.0,1.0,1.0,crayon_09s.jpg,0.0,Purple.png,1.0,93,,,,,,,,,,,,,,,,,
0.0,1.0,0.51418,0.0,2.0,2.0,2.0,1.0,cobra_05s.jpg,0.0,Red.png,1.0,93,,,,,,,,,,,,,,,,,
0.0,1.0,1.252555,0.0,3.0,3.0,3.0,1.0,raccoon_02s.jpg,0.0,Orange.png,1.0,93,,,,,,,,,,,,,,,,,
0.0,1.0,0.5915,0.0,4.0,4.0,4.0,1.0,soda_fountain_03s.jpg,0.0,Yellow.png,1.0,93,,,,,,,,,,,,,,,,,
0.0,0.0,1.24783,0.0,5.0,5.0,5.0,1.0,raccoon_02s.jpg,1.0,Green.png,1.0,93,,,,,,,,,,,,,,,,,
0.0,1.0,0.577105,0.0,6.0,6.0,6.0,1.0,feather02.jpg,0.0,Blue.png,2.0,93,,,,,,,,,,,,,,,,,
1.0,1.0,0.780745,0.0,7.0,7.0,7.0,1.0,raccoon_02s.jpg,1.0,Purple.png,2.0,93,,,,,,,,,,,,,,,,,
1.0,1.0,0.849695,0.0,8.0,8.0,8.0,1.0,feather02.jpg,1.0,Red.png,2.0,93,,,,,,,,,,,,,,,,,
0.0,1.0,0.575285,0.0,9.0,9.0,9.0,1.0,rug_09s.jpg,0.0,Orange.png,2.0,93,,,,,,,,,,,,,,,,,
1.0,1.0,1.264645,0.0,10.0,10.0,10.0,1.0,feather02.jpg,1.0,Yellow.png,2.0,93,,,,,,,,,,,,,,,,,
0.0,1.0,0.557055,0.0,11.0,11.0,11.0,1.0,cushion_08s.jpg,0.0,Green.png,2.0,93,,,,,,,,,,,,,,,,,
0.0,0.0,1.883565,0.0,12.0,12.0,12.0,1.0,feather02.jpg,1.0,Blue.png,3.0,93,,,,,,,,,,,,,,,,,
0.0,1.0,1.0126,0.0,13.0,13.0,13.0,1.0,feather02.jpg,0.0,Purple.png,3.0,93,,,,,,,,,,,,,,,,,
0.0,1.0,0.698465,0.0,14.0,14.0,14.0,1.0,ice_pack_09s.jpg,0.0,Red.png,3.0,93,,,,,,,,,,,,,,,,,
0.0,1.0,0.98019,0.0,15.0,15.0,15.0,1.0,ice_pack_09s.jpg,0.0,Orange.png,3.0,93,,,,,,,,,,,,,,,,,
0.0,1.0,1.779215,0.0,16.0,16.0,16.0,1.0,loom_05s.jpg,0.0,Yellow.png,3.0,93,,,,,,,,,,,,,,,,,
1.0,1.0,0.45092,0.0,17.0,17.0,17.0,1.0,ice_pack_09s.jpg,1.0,Green.png,3.0,93,,,,,,,,,,,,,,,,,
0.0,1.0,1.212985,0.0,18.0,18.0,18.0,1.0,ice_pack_09s.jpg,0.0,Blue.png,4.0,93,,,,,,,,,,,,,,,,,
1.0,1.0,0.860835,0.0,19.0,19.0,19.0,1.0,ice_pack_09s.jpg,1.0,Purple.png,4.0,93,,,,,,,,,,,,,,,,,
1.0,1.0,1.89426,0.0,20.0,20.0,20.0,1.0,ice_pack_09s.jpg,1.0,Red.png,4.0,93,,,,,,,,,,,,,,,,,
0.0,1.0,0.577745,0.0,21.0,21.0,21.0,1.0,blazer_02s.jpg,0.0,Orange.png,4.0,93,,,,,,,,,,,,,,,,,
0.0,1.0,1.1435,0.0,22.0,22.0,22.0,1.0,penlight_12s.jpg,0.0,Yellow.png,4.0,93,,,,,,,,,,,,,,,,,
0.0,1.0,0.640915,0.0,23.0,23.0,23.0,1.0,swan_11s.jpg,0.0,Green.png,4.0,93,,,,,,,,,,,,,,,,,
0.0,1.0,0.658345,0.0,24.0,24.0,24.0,1.0,plunger_08s.jpg,0.0,Blue.png,5.0,93,,,,,,,,,,,,,,,,,
0.0,1.0,0.599995,0.0,25.0,25.0,25.0,1.0,bottle_opener_11s.jpg,0.0,Purple.png,5.0,93,,,,,,,,,,,,,,,,,
0.0,1.0,0.69133,0.0,26.0,26.0,26.0,1.0,checkbook_11s.jpg,0.0,Red.png,5.0,93,,,,,,,,,,,,,,,,,
0.0,1.0,0.7006,0.0,27.0,27.0,27.0,1.0,ink_08s.jpg,0.0,Orange.png,5.0,93,,,,,,,,,,,,,,,,,
0.0,1.0,0.65266,0.0,28.0,28.0,28.0,1.0,plunger_08s.jpg,0.0,Yellow.png,5.0,93,,,,,,,,,,,,,,,,,
0.0,1.0,0.8972,0.0,29.0,29.0,29.0,1.0,pencil02a.jpg,0.0,Green.png,5.0,93,,,,,,,,,,,,,,,,,
0.0,1.0,0.532585,0.0,30.0,30.0,30.0,1.0,ginger_09s.jpg,0.0,Blue.png,6.0,93,,,,,,,,,,,,,,,,,
0.0,1.0,0.65657,0.0,31.0,31.0,31.0,1.0,taxi_15s.jpg,0.0,Purple.png,6.0,93,,,,,,,,,,,,,,,,,
0.0,1.0,0.53408,0.0,32.0,32.0,32.0,1.0,toy_04s.jpg,0.0,Red.png,6.0,93,,,,,,,,,,,,,,,,,
0.0,1.0,0.676895,0.0,33.0,33.0,33.0,1.0,blowfish_03s.jpg,0.0,Orange.png,6.0,93,,,,,,,,,,,,,,,,,
0.0,1.0,0.661125,0.0,34.0,34.0,34.0,1.0,toilet_paper_12s.jpg,0.0,Yellow.png,6.0,93,,,,,,,,,,,,,,,,,
0.0,1.0,0.618295,0.0,35.0,35.0,35.0,1.0,puddle_02s.jpg,0.0,Green.png,6.0,93,,,,,,,,,,,,,,,,,
,,,,,,,,,1.0,,,93,0.0,0.0,0.44363,0.0,0.0,0.0,0.0,1.0,ink_08s.jpg,ginger_09s.jpg,,,,,,,
,,,,,,,,,0.0,,,93,0.0,1.0,1.23494,0.0,1.0,1.0,1.0,1.0,puddle_02s.jpg,toy_04s.jpg,,,,,,,
,,,,,,,,,0.0,,,93,1.0,0.0,1.50242,0.0,2.0,2.0,2.0,1.0,bottle_opener_11s.jpg,penlight_12s.jpg,,,,,,,
,,,,,,,,,0.0,,,93,0.0,1.0,1.18962,0.0,3.0,3.0,3.0,1.0,checkbook_11s.jpg,swan_11s.jpg,,,,,,,
,,,,,,,,,1.0,,,93,1.0,1.0,1.064355,0.0,4.0,4.0,4.0,1.0,taxi_15s.jpg,toilet_paper_12s.jpg,,,,,,,
,,,,,,,,,1.0,,,93,0.0,0.0,0.94156,0.0,5.0,5.0,5.0,1.0,crayon_09s.jpg,soda_fountain_03s.jpg,,,,,,,
,,,,,,,,,,,,93,,,,,,,,,,,0.0,4.0,4.0,4.0,1.0,new2backpresent_5_4.xlsx,new2back_compare_task_5_4.xlsx
0.0,1.0,1.014595,0.0,0.0,0.0,0.0,1.0,flask_04s.jpg,0.0,Blue.png,1.0,93,,,,,,,,,,,,,,,,,
0.0,1.0,0.609745,0.0,1.0,1.0,1.0,1.0,kimono_13s.jpg,0.0,Purple.png,1.0,93,,,,,,,,,,,,,,,,,
0.0,1.0,0.47892,0.0,2.0,2.0,2.0,1.0,limousine_12s.jpg,0.0,Red.png,1.0,93,,,,,,,,,,,,,,,,,
0.0,1.0,0.56154,0.0,3.0,3.0,3.0,1.0,lectern_08s.jpg,0.0,Orange.png,1.0,93,,,,,,,,,,,,,,,,,
1.0,0.0,1.406825,0.0,4.0,4.0,4.0,1.0,kimono_13s.jpg,0.0,Yellow.png,1.0,93,,,,,,,,,,,,,,,,,
0.0,1.0,1.4096,0.0,5.0,5.0,5.0,1.0,doily_13s.jpg,0.0,Green.png,1.0,93,,,,,,,,,,,,,,,,,
,0.0,,0.0,6.0,6.0,6.0,1.0,kimono_13s.jpg,1.0,Blue.png,2.0,93,,,,,,,,,,,,,,,,,
0.0,1.0,0.95443,0.0,7.0,7.0,7.0,1.0,razor_blade_01b.jpg,0.0,Purple.png,2.0,93,,,,,,,,,,,,,,,,,
0.0,1.0,1.767,0.0,8.0,8.0,8.0,1.0,razor_blade_01b.jpg,0.0,Red.png,2.0,93,,,,,,,,,,,,,,,,,
0.0,1.0,1.810945,0.0,9.0,9.0,9.0,1.0,champagne_18s.jpg,0.0,Orange.png,2.0,93,,,,,,,,,,,,,,,,,
,0.0,,0.0,10.0,10.0,10.0,1.0,stamp1_11s.jpg,0.0,Yellow.png,2.0,93,,,,,,,,,,,,,,,,,
0.0,0.0,1.62448,0.0,11.0,11.0,11.0,1.0,champagne_18s.jpg,1.0,Green.png,2.0,93,,,,,,,,,,,,,,,,,
0.0,1.0,2.163775,0.0,12.0,12.0,12.0,1.0,crossbow_10s.jpg,0.0,Blue.png,3.0,93,,,,,,,,,,,,,,,,,
1.0,0.0,1.9514,0.0,13.0,13.0,13.0,1.0,briefcase_03s.jpg,0.0,Purple.png,3.0,93,,,,,,,,,,,,,,,,,
,0.0,,0.0,14.0,14.0,14.0,1.0,jersey_02s.jpg,0.0,Red.png,3.0,93,,,,,,,,,,,,,,,,,
0.0,0.0,1.7613,0.0,15.0,15.0,15.0,1.0,briefcase_03s.jpg,1.0,Orange.png,3.0,93,,,,,,,,,,,,,,,,,
0.0,1.0,1.417785,0.0,16.0,16.0,16.0,1.0,oil_02s.jpg,0.0,Yellow.png,3.0,93,,,,,,,,,,,,,,,,,
0.0,1.0,1.991415,0.0,17.0,17.0,17.0,1.0,tinsel_12s.jpg,0.0,Green.png,3.0,93,,,,,,,,,,,,,,,,,
0.0,1.0,1.858185,0.0,18.0,18.0,18.0,1.0,flask_04s.jpg,0.0,Blue.png,4.0,93,,,,,,,,,,,,,,,,,
0.0,1.0,0.67475,0.0,19.0,19.0,19.0,1.0,fork_04s.jpg,0.0,Purple.png,4.0,93,,,,,,,,,,,,,,,,,
0.0,1.0,0.65746,0.0,20.0,20.0,20.0,1.0,purse_05s.jpg,0.0,Red.png,4.0,93,,,,,,,,,,,,,,,,,
1.0,0.0,1.16616,0.0,21.0,21.0,21.0,1.0,flask_04s.jpg,0.0,Orange.png,4.0,93,,,,,,,,,,,,,,,,,
0.0,1.0,0.62852,0.0,22.0,22.0,22.0,1.0,sledgehammer_03s.jpg,0.0,Yellow.png,4.0,93,,,,,,,,,,,,,,,,,
0.0,1.0,1.22462,0.0,23.0,23.0,23.0,1.0,turf_03s.jpg,0.0,Green.png,4.0,93,,,,,,,,,,,,,,,,,
0.0,1.0,0.87651,0.0,24.0,24.0,24.0,1.0,omelet_07s.jpg,0.0,Blue.png,5.0,93,,,,,,,,,,,,,,,,,
1.0,1.0,0.931185,0.0,25.0,25.0,25.0,1.0,turf_03s.jpg,1.0,Purple.png,5.0,93,,,,,,,,,,,,,,,,,
0.0,1.0,1.266445,0.0,26.0,26.0,26.0,1.0,clover_04s.jpg,0.0,Red.png,5.0,93,,,,,,,,,,,,,,,,,
0.0,1.0,0.762565,0.0,27.0,27.0,27.0,1.0,lip_gloss_06s.jpg,0.0,Orange.png,5.0,93,,,,,,,,,,,,,,,,,
0.0,1.0,0.693585,0.0,28.0,28.0,28.0,1.0,amber_04s.jpg,0.0,Yellow.png,5.0,93,,,,,,,,,,,,,,,,,
0.0,1.0,1.32574,0.0,29.0,29.0,29.0,1.0,tortilla_06s.jpg,0.0,Green.png,5.0,93,,,,,,,,,,,,,,,,,
0.0,1.0,1.355705,0.0,30.0,30.0,30.0,1.0,razor_blade_01b.jpg,0.0,Blue.png,6.0,93,,,,,,,,,,,,,,,,,
0.0,1.0,1.074945,0.0,31.0,31.0,31.0,1.0,tape_measure_11s.jpg,0.0,Purple.png,6.0,93,,,,,,,,,,,,,,,,,
1.0,1.0,1.24722,0.0,32.0,32.0,32.0,1.0,razor_blade_01b.jpg,1.0,Red.png,6.0,93,,,,,,,,,,,,,,,,,
0.0,1.0,1.065935,0.0,33.0,33.0,33.0,1.0,razor_blade_01b.jpg,0.0,Orange.png,6.0,93,,,,,,,,,,,,,,,,,
0.0,1.0,0.98864,0.0,34.0,34.0,34.0,1.0,stingray_02s.jpg,0.0,Yellow.png,6.0,93,,,,,,,,,,,,,,,,,
0.0,1.0,0.58657,0.0,35.0,35.0,35.0,1.0,harpoon.jpg,0.0,Green.png,6.0,93,,,,,,,,,,,,,,,,,
,,,,,,,,,1.0,,,93,0.0,0.0,1.59836,0.0,0.0,0.0,0.0,1.0,oil_02s.jpg,fork_04s.jpg,,,,,,,
,,,,,,,,,0.0,,,93,0.0,1.0,1.53832,0.0,1.0,1.0,1.0,1.0,doily_13s.jpg,limousine_12s.jpg,,,,,,,
,,,,,,,,,0.0,,,93,1.0,0.0,1.331005,0.0,2.0,2.0,2.0,1.0,lip_gloss_06s.jpg,omelet_07s.jpg,,,,,,,
,,,,,,,,,0.0,,,93,1.0,0.0,1.383465,0.0,3.0,3.0,3.0,1.0,tape_measure_11s.jpg,amber_04s.jpg,,,,,,,
,,,,,,,,,0.0,,,93,0.0,1.0,1.17888,0.0,4.0,4.0,4.0,1.0,tortilla_06s.jpg,clover_04s.jpg,,,,,,,
,,,,,,,,,0.0,,,93,0.0,1.0,0.78715,0.0,5.0,5.0,5.0,1.0,purse_05s.jpg,tinsel_12s.jpg,,,,,,,
,,,,,,,,,,,,93,,,,,,,,,,,0.0,5.0,5.0,5.0,1.0,new2backpresent_6_4.xlsx,new2back_compare_task_6_4.xlsx
0.0,1.0,1.599095,0.0,0.0,0.0,0.0,1.0,butter_14s.jpg,0.0,Blue.png,1.0,93,,,,,,,,,,,,,,,,,
0.0,1.0,0.99065,0.0,1.0,1.0,1.0,1.0,butter_14s.jpg,0.0,Purple.png,1.0,93,,,,,,,,,,,,,,,,,
1.0,1.0,0.73013,0.0,2.0,2.0,2.0,1.0,butter_14s.jpg,1.0,Red.png,1.0,93,,,,,,,,,,,,,,,,,
0.0,1.0,0.67155,0.0,3.0,3.0,3.0,1.0,stamp2_08s.jpg,0.0,Orange.png,1.0,93,,,,,,,,,,,,,,,,,
0.0,1.0,1.168125,0.0,4.0,4.0,4.0,1.0,kangaroo_02s.jpg,0.0,Yellow.png,1.0,93,,,,,,,,,,,,,,,,,
0.0,1.0,0.61238,0.0,5.0,5.0,5.0,1.0,camcorder_10s.jpg,0.0,Green.png,1.0,93,,,,,,,,,,,,,,,,,
0.0,1.0,0.657105,0.0,6.0,6.0,6.0,1.0,bank_06s.jpg,0.0,Blue.png,2.0,93,,,,,,,,,,,,,,,,,
0.0,1.0,0.60709,0.0,7.0,7.0,7.0,1.0,gear_07s.jpg,0.0,Purple.png,2.0,93,,,,,,,,,,,,,,,,,
1.0,1.0,0.806715,0.0,8.0,8.0,8.0,1.0,bank_06s.jpg,1.0,Red.png,2.0,93,,,,,,,,,,,,,,,,,
0.0,1.0,0.62379,0.0,9.0,9.0,9.0,1.0,funnel_01b.jpg,0.0,Orange.png,2.0,93,,,,,,,,,,,,,,,,,
0.0,1.0,0.557225,0.0,10.0,10.0,10.0,1.0,poinsettia_04s.jpg,0.0,Yellow.png,2.0,93,,,,,,,,,,,,,,,,,
1.0,1.0,0.8416,0.0,11.0,11.0,11.0,1.0,funnel_01b.jpg,1.0,Green.png,2.0,93,,,,,,,,,,,,,,,,,
0.0,1.0,0.57037,0.0,12.0,12.0,12.0,1.0,rooster_03s.jpg,0.0,Blue.png,3.0,93,,,,,,,,,,,,,,,,,
0.0,1.0,0.62377,0.0,13.0,13.0,13.0,1.0,denture_03s.jpg,0.0,Purple.png,3.0,93,,,,,,,,,,,,,,,,,
0.0,1.0,0.640695,0.0,14.0,14.0,14.0,1.0,bean_06s.jpg,0.0,Red.png,3.0,93,,,,,,,,,,,,,,,,,
0.0,1.0,0.64024,0.0,15.0,15.0,15.0,1.0,mud_13s.jpg,0.0,Orange.png,3.0,93,,,,,,,,,,,,,,,,,
0.0,1.0,0.560415,0.0,16.0,16.0,16.0,1.0,keyhole_03s.jpg,0.0,Yellow.png,3.0,93,,,,,,,,,,,,,,,,,
1.0,0.0,2.367625,0.0,17.0,17.0,17.0,1.0,bean_06s.jpg,0.0,Green.png,3.0,93,,,,,,,,,,,,,,,,,
0.0,1.0,0.841045,0.0,18.0,18.0,18.0,1.0,bank_06s.jpg,0.0,Blue.png,4.0,93,,,,,,,,,,,,,,,,,
0.0,1.0,0.59977,0.0,19.0,19.0,19.0,1.0,pomegranate_04s.jpg,0.0,Purple.png,4.0,93,,,,,,,,,,,,,,,,,
0.0,1.0,0.672195,0.0,20.0,20.0,20.0,1.0,chopsticks_08s.jpg,0.0,Red.png,4.0,93,,,,,,,,,,,,,,,,,
0.0,1.0,0.6237,0.0,21.0,21.0,21.0,1.0,contact_lens_15s.jpg,0.0,Orange.png,4.0,93,,,,,,,,,,,,,,,,,
0.0,1.0,0.5522,0.0,22.0,22.0,22.0,1.0,hydrant_10s.jpg,0.0,Yellow.png,4.0,93,,,,,,,,,,,,,,,,,
0.0,1.0,0.67831,0.0,23.0,23.0,23.0,1.0,gingerbread_man_03s.jpg,0.0,Green.png,4.0,93,,,,,,,,,,,,,,,,,
0.0,1.0,0.609955,0.0,24.0,24.0,24.0,1.0,camcorder_10s.jpg,0.0,Blue.png,5.0,93,,,,,,,,,,,,,,,,,
0.0,1.0,0.54154,0.0,25.0,25.0,25.0,1.0,teabag_12s.jpg,0.0,Purple.png,5.0,93,,,,,,,,,,,,,,,,,
0.0,1.0,0.667405,0.0,26.0,26.0,26.0,1.0,radiator_05s.jpg,0.0,Red.png,5.0,93,,,,,,,,,,,,,,,,,
0.0,1.0,0.599975,0.0,27.0,27.0,27.0,1.0,punch1_10s.jpg,0.0,Orange.png,5.0,93,,,,,,,,,,,,,,,,,
0.0,1.0,0.56079,0.0,28.0,28.0,28.0,1.0,mailbox_11s.jpg,0.0,Yellow.png,5.0,93,,,,,,,,,,,,,,,,,
0.0,1.0,0.584445,0.0,29.0,29.0,29.0,1.0,beaker_01b.jpg,0.0,Green.png,5.0,93,,,,,,,,,,,,,,,,,
0.0,0.0,1.932645,0.0,30.0,30.0,30.0,1.0,mailbox_11s.jpg,1.0,Blue.png,6.0,93,,,,,,,,,,,,,,,,,
0.0,1.0,0.62782,0.0,31.0,31.0,31.0,1.0,pipe1_10s.jpg,0.0,Purple.png,6.0,93,,,,,,,,,,,,,,,,,
1.0,1.0,0.82371,0.0,32.0,32.0,32.0,1.0,mailbox_11s.jpg,1.0,Red.png,6.0,93,,,,,,,,,,,,,,,,,
1.0,1.0,1.38293,0.0,33.0,33.0,33.0,1.0,pipe1_10s.jpg,1.0,Orange.png,6.0,93,,,,,,,,,,,,,,,,,
0.0,1.0,0.63225,0.0,34.0,34.0,34.0,1.0,eyedropper_12s.jpg,0.0,Yellow.png,6.0,93,,,,,,,,,,,,,,,,,
0.0,1.0,0.607415,0.0,35.0,35.0,35.0,1.0,rhubarb_03s.jpg,0.0,Green.png,6.0,93,,,,,,,,,,,,,,,,,
,,,,,,,,,0.0,,,93,1.0,0.0,1.466535,0.0,0.0,0.0,0.0,1.0,mud_13s.jpg,rooster_03s.jpg,,,,,,,
,,,,,,,,,1.0,,,93,1.0,1.0,1.49991,0.0,1.0,1.0,1.0,1.0,chopsticks_08s.jpg,gingerbread_man_03s.jpg,,,,,,,
,,,,,,,,,0.0,,,93,0.0,1.0,1.03763,0.0,2.0,2.0,2.0,1.0,beaker_01b.jpg,radiator_05s.jpg,,,,,,,
,,,,,,,,,0.0,,,93,1.0,0.0,1.257965,0.0,3.0,3.0,3.0,1.0,teabag_12s.jpg,hydrant_10s.jpg,,,,,,,
,,,,,,,,,0.0,,,93,1.0,0.0,1.06669,0.0,4.0,4.0,4.0,1.0,denture_03s.jpg,poinsettia_04s.jpg,,,,,,,
,,,,,,,,,1.0,,,93,0.0,0.0,0.800195,0.0,5.0,5.0,5.0,1.0,kangaroo_02s.jpg,gear_07s.jpg,,,,,,,
,,,,,,,,,,,,93,,,,,,,,,,,0.0,6.0,6.0,6.0,1.0,new2backpresent_7_4.xlsx,new2back_compare_task_7_4.xlsx
0.0,1.0,1.333045,0.0,0.0,0.0,0.0,1.0,lamppost_09s.jpg,0.0,Blue.png,1.0,93,,,,,,,,,,,,,,,,,
0.0,1.0,0.66813,0.0,1.0,1.0,1.0,1.0,jewel_01b.jpg,0.0,Purple.png,1.0,93,,,,,,,,,,,,,,,,,
0.0,1.0,0.591495,0.0,2.0,2.0,2.0,1.0,tuxedo_01b.jpg,0.0,Red.png,1.0,93,,,,,,,,,,,,,,,,,
0.0,1.0,0.649905,0.0,3.0,3.0,3.0,1.0,flip_flop_03s.jpg,0.0,Orange.png,1.0,93,,,,,,,,,,,,,,,,,
,0.0,,0.0,4.0,4.0,4.0,1.0,medal_04s.jpg,0.0,Yellow.png,1.0,93,,,,,,,,,,,,,,,,,
0.0,0.0,2.44735,0.0,5.0,5.0,5.0,1.0,flip_flop_03s.jpg,1.0,Green.png,1.0,93,,,,,,,,,,,,,,,,,
0.0,1.0,1.173825,0.0,6.0,6.0,6.0,1.0,tuxedo_01b.jpg,0.0,Blue.png,2.0,93,,,,,,,,,,,,,,,,,
1.0,1.0,0.84286,0.0,7.0,7.0,7.0,1.0,flip_flop_03s.jpg,1.0,Purple.png,2.0,93,,,,,,,,,,,,,,,,,
0.0,1.0,0.684715,0.0,8.0,8.0,8.0,1.0,fireworks_18s.jpg,0.0,Red.png,2.0,93,,,,,,,,,,,,,,,,,
0.0,1.0,0.63325,0.0,9.0,9.0,9.0,1.0,squirt_gun_03s.jpg,0.0,Orange.png,2.0,93,,,,,,,,,,,,,,,,,
0.0,1.0,0.96354,0.0,10.0,10.0,10.0,1.0,flip_flop_03s.jpg,0.0,Yellow.png,2.0,93,,,,,,,,,,,,,,,,,
0.0,1.0,0.55952,0.0,11.0,11.0,11.0,1.0,puffin_19s.jpg,0.0,Green.png,2.0,93,,,,,,,,,,,,,,,,,
0.0,1.0,0.634295,0.0,12.0,12.0,12.0,1.0,tuxedo_01b.jpg,0.0,Blue.png,3.0,93,,,,,,,,,,,,,,,,,
1.0,0.0,0.77008,0.0,13.0,13.0,13.0,1.0,tuxedo_01b.jpg,0.0,Purple.png,3.0,93,,,,,,,,,,,,,,,,,
0.0,1.0,0.811665,0.0,14.0,14.0,14.0,1.0,snowman_02s.jpg,0.0,Red.png,3.0,93,,,,,,,,,,,,,,,,,
0.0,1.0,0.774725,0.0,15.0,15.0,15.0,1.0,cucumber_07s.jpg,0.0,Orange.png,3.0,93,,,,,,,,,,,,,,,,,
0.0,1.0,0.61794,0.0,16.0,16.0,16.0,1.0,plug_08s.jpg,0.0,Yellow.png,3.0,93,,,,,,,,,,,,,,,,,
1.0,1.0,0.923235,0.0,17.0,17.0,17.0,1.0,cucumber_07s.jpg,1.0,Green.png,3.0,93,,,,,,,,,,,,,,,,,
1.0,0.0,1.60629,0.0,18.0,18.0,18.0,1.0,puffin_19s.jpg,0.0,Blue.png,4.0,93,,,,,,,,,,,,,,,,,
0.0,1.0,0.59893,0.0,19.0,19.0,19.0,1.0,fondue_07s.jpg,0.0,Purple.png,4.0,93,,,,,,,,,,,,,,,,,
0.0,1.0,0.565615,0.0,20.0,20.0,20.0,1.0,lasagna_06s.jpg,0.0,Red.png,4.0,93,,,,,,,,,,,,,,,,,
0.0,1.0,0.540385,0.0,21.0,21.0,21.0,1.0,eiffeltower.jpg,0.0,Orange.png,4.0,93,,,,,,,,,,,,,,,,,
0.0,1.0,0.524885,0.0,22.0,22.0,22.0,1.0,outlet_10s.jpg,0.0,Yellow.png,4.0,93,,,,,,,,,,,,,,,,,
0.0,1.0,0.517405,0.0,23.0,23.0,23.0,1.0,cape_11s.jpg,0.0,Green.png,4.0,93,,,,,,,,,,,,,,,,,
0.0,1.0,0.429415,0.0,24.0,24.0,24.0,1.0,marshmallow_08s.jpg,0.0,Blue.png,5.0,93,,,,,,,,,,,,,,,,,
0.0,1.0,0.442305,0.0,25.0,25.0,25.0,1.0,racehorse_03s.jpg,0.0,Purple.png,5.0,93,,,,,,,,,,,,,,,,,
0.0,1.0,1.219165,0.0,26.0,26.0,26.0,1.0,aluminum_foil_08s.jpg,0.0,Red.png,5.0,93,,,,,,,,,,,,,,,,,
0.0,1.0,0.56172,0.0,27.0,27.0,27.0,1.0,spoon02a.jpg,0.0,Orange.png,5.0,93,,,,,,,,,,,,,,,,,
0.0,1.0,0.53392,0.0,28.0,28.0,28.0,1.0,padlock_07s.jpg,0.0,Yellow.png,5.0,93,,,,,,,,,,,,,,,,,
0.0,1.0,0.59547,0.0,29.0,29.0,29.0,1.0,solar_panel_02s.jpg,0.0,Green.png,5.0,93,,,,,,,,,,,,,,,,,
0.0,1.0,0.56652,0.0,30.0,30.0,30.0,1.0,turtleneck_11s.jpg,0.0,Blue.png,6.0,93,,,,,,,,,,,,,,,,,
0.0,1.0,0.699825,0.0,31.0,31.0,31.0,1.0,pocketknife_12s.jpg,0.0,Purple.png,6.0,93,,,,,,,,,,,,,,,,,
0.0,1.0,1.424335,0.0,32.0,32.0,32.0,1.0,pocketknife_12s.jpg,0.0,Red.png,6.0,93,,,,,,,,,,,,,,,,,
0.0,1.0,0.91867,0.0,33.0,33.0,33.0,1.0,quill_09s.jpg,0.0,Orange.png,6.0,93,,,,,,,,,,,,,,,,,
0.0,1.0,1.267325,0.0,34.0,34.0,34.0,1.0,quill_09s.jpg,0.0,Yellow.png,6.0,93,,,,,,,,,,,,,,,,,
1.0,0.0,0.66865,0.0,35.0,35.0,35.0,1.0,pocketknife_12s.jpg,0.0,Green.png,6.0,93,,,,,,,,,,,,,,,,,
,,,,,,,,,0.0,,,93,0.0,1.0,2.28778,0.0,0.0,0.0,0.0,1.0,cape_11s.jpg,lasagna_06s.jpg,,,,,,,
,,,,,,,,,0.0,,,93,1.0,0.0,1.32729,0.0,1.0,1.0,1.0,1.0,padlock_07s.jpg,racehorse_03s.jpg,,,,,,,
,,,,,,,,,1.0,,,93,0.0,0.0,0.605365,0.0,2.0,2.0,2.0,1.0,spoon02a.jpg,turtleneck_11s.jpg,,,,,,,
,,,,,,,,,0.0,,,93,1.0,0.0,0.21638,0.0,3.0,3.0,3.0,1.0,marshmallow_08s.jpg,eiffeltower.jpg,,,,,,,
,,,,,,,,,0.0,,,93,0.0,1.0,0.0682,0.0,4.0,4.0,4.0,1.0,medal_04s.jpg,jewel_01b.jpg,,,,,,,
,,,,,,,,,1.0,,,93,1.0,1.0,0.300685,0.0,5.0,5.0,5.0,1.0,plug_08s.jpg,fondue_07s.jpg,,,,,,,
,,,,,,,,,,,,93,,,,,,,,,,,0.0,7.0,7.0,7.0,1.0,new2backpresent_8_4.xlsx,new2back_compare_task_8_4.xlsx
0.0,1.0,1.68843,0.0,0.0,0.0,0.0,1.0,footprint_11s.jpg,0.0,Blue.png,1.0,93,,,,,,,,,,,,,,,,,
0.0,1.0,0.61096,0.0,1.0,1.0,1.0,1.0,coffee_filter_10s.jpg,0.0,Purple.png,1.0,93,,,,,,,,,,,,,,,,,
,0.0,,0.0,2.0,2.0,2.0,1.0,coffee_filter_10s.jpg,0.0,Red.png,1.0,93,,,,,,,,,,,,,,,,,
0.0,0.0,0.69995,0.0,3.0,3.0,3.0,1.0,coffee_filter_10s.jpg,1.0,Orange.png,1.0,93,,,,,,,,,,,,,,,,,
0.0,0.0,1.333265,0.0,4.0,4.0,4.0,1.0,coffee_filter_10s.jpg,1.0,Yellow.png,1.0,93,,,,,,,,,,,,,,,,,
0.0,1.0,1.954485,0.0,5.0,5.0,5.0,1.0,gargoyle_08s.jpg,0.0,Green.png,1.0,93,,,,,,,,,,,,,,,,,
,0.0,,0.0,6.0,6.0,6.0,1.0,candy_cane_06s.jpg,0.0,Blue.png,2.0,93,,,,,,,,,,,,,,,,,
0.0,1.0,0.6822,0.0,7.0,7.0,7.0,1.0,toad_09s.jpg,0.0,Purple.png,2.0,93,,,,,,,,,,,,,,,,,
,0.0,,0.0,8.0,8.0,8.0,1.0,candy_cane_06s.jpg,1.0,Red.png,2.0,93,,,,,,,,,,,,,,,,,
0.0,1.0,1.482905,0.0,9.0,9.0,9.0,1.0,pumpkin_03s.jpg,0.0,Orange.png,2.0,93,,,,,,,,,,,,,,,,,
,0.0,,0.0,10.0,10.0,10.0,1.0,dashboard_02s.jpg,0.0,Yellow.png,2.0,93,,,,,,,,,,,,,,,,,
,0.0,,0.0,11.0,11.0,11.0,1.0,syringe_02s.jpg,0.0,Green.png,2.0,93,,,,,,,,,,,,,,,,,
,0.0,,0.0,12.0,12.0,12.0,1.0,powder_07s.jpg,0.0,Blue.png,3.0,93,,,,,,,,,,,,,,,,,
,0.0,,0.0,13.0,13.0,13.0,1.0,powder_07s.jpg,0.0,Purple.png,3.0,93,,,,,,,,,,,,,,,,,
,0.0,,0.0,14.0,14.0,14.0,1.0,powder_07s.jpg,1.0,Red.png,3.0,93,,,,,,,,,,,,,,,,,
,0.0,,0.0,15.0,15.0,15.0,1.0,sea_urchin_09s.jpg,0.0,Orange.png,3.0,93,,,,,,,,,,,,,,,,,
0.0,1.0,2.03491,0.0,16.0,16.0,16.0,1.0,throne_11s.jpg,0.0,Yellow.png,3.0,93,,,,,,,,,,,,,,,,,
0.0,1.0,2.022415,0.0,17.0,17.0,17.0,1.0,powder_07s.jpg,0.0,Green.png,3.0,93,,,,,,,,,,,,,,,,,
0.0,1.0,0.599725,0.0,18.0,18.0,18.0,1.0,chalice_10s.jpg,0.0,Blue.png,4.0,93,,,,,,,,,,,,,,,,,
0.0,1.0,1.628885,0.0,19.0,19.0,19.0,1.0,air_pump_05s.jpg,0.0,Purple.png,4.0,93,,,,,,,,,,,,,,,,,
0.0,1.0,0.613065,0.0,20.0,20.0,20.0,1.0,microwave_02s.jpg,0.0,Red.png,4.0,93,,,,,,,,,,,,,,,,,
0.0,1.0,0.5377,0.0,21.0,21.0,21.0,1.0,cereal_04s.jpg,0.0,Orange.png,4.0,93,,,,,,,,,,,,,,,,,
,0.0,,0.0,22.0,22.0,22.0,1.0,mushroom_10n.jpg,0.0,Yellow.png,4.0,93,,,,,,,,,,,,,,,,,
0.0,1.0,0.623535,0.0,23.0,23.0,23.0,1.0,red_carpet_03s.jpg,0.0,Green.png,4.0,93,,,,,,,,,,,,,,,,,
0.0,1.0,2.077065,0.0,24.0,24.0,24.0,1.0,throne_11s.jpg,0.0,Blue.png,5.0,93,,,,,,,,,,,,,,,,,
,0.0,,0.0,25.0,25.0,25.0,1.0,koala_13s.jpg,0.0,Purple.png,5.0,93,,,,,,,,,,,,,,,,,
0.0,0.0,0.55954,0.0,26.0,26.0,26.0,1.0,throne_11s.jpg,1.0,Red.png,5.0,93,,,,,,,,,,,,,,,,,
0.0,1.0,1.03502,0.0,27.0,27.0,27.0,1.0,rocket_02s.jpg,0.0,Orange.png,5.0,93,,,,,,,,,,,,,,,,,
0.0,1.0,0.534975,0.0,28.0,28.0,28.0,1.0,swordfish_05s.jpg,0.0,Yellow.png,5.0,93,,,,,,,,,,,,,,,,,
0.0,0.0,1.31661,0.0,29.0,29.0,29.0,1.0,rocket_02s.jpg,1.0,Green.png,5.0,93,,,,,,,,,,,,,,,,,
0.0,1.0,1.08281,0.0,30.0,30.0,30.0,1.0,icicle_04s.jpg,0.0,Blue.png,6.0,93,,,,,,,,,,,,,,,,,
,0.0,,0.0,31.0,31.0,31.0,1.0,keyboard_05s.jpg,0.0,Purple.png,6.0,93,,,,,,,,,,,,,,,,,
0.0,1.0,0.606825,0.0,32.0,32.0,32.0,1.0,pocket_watch_16s.jpg,0.0,Red.png,6.0,93,,,,,,,,,,,,,,,,,
0.0,1.0,0.31696,0.0,33.0,33.0,33.0,1.0,tablet_04s.jpg,0.0,Orange.png,6.0,93,,,,,,,,,,,,,,,,,
0.0,1.0,0.673605,0.0,34.0,34.0,34.0,1.0,chocolate_01b.jpg,0.0,Yellow.png,6.0,93,,,,,,,,,,,,,,,,,
0.0,1.0,0.457195,0.0,35.0,35.0,35.0,1.0,light_switch_02s.jpg,0.0,Green.png,6.0,93,,,,,,,,,,,,,,,,,
,,,,,,,,,0.0,,,93,0.0,1.0,1.322965,0.0,0.0,0.0,0.0,1.0,chalice_10s.jpg,sea_urchin_09s.jpg,,,,,,,
,,,,,,,,,1.0,,,93,1.0,1.0,0.285115,0.0,1.0,1.0,1.0,1.0,swordfish_05s.jpg,keyboard_05s.jpg,,,,,,,
,,,,,,,,,0.0,,,93,0.0,1.0,0.18874,0.0,2.0,2.0,2.0,1.0,red_carpet_03s.jpg,microwave_02s.jpg,,,,,,,
,,,,,,,,,0.0,,,93,1.0,0.0,0.05932,0.0,3.0,3.0,3.0,1.0,dashboard_02s.jpg,toad_09s.jpg,,,,,,,
,,,,,,,,,0.0,,,93,0.0,1.0,0.00071,0.0,4.0,4.0,4.0,1.0,koala_13s.jpg,mushroom_10n.jpg,,,,,,,
,,,,,,,,,1.0,,,93,0.0,0.0,0.416985,0.0,5.0,5.0,5.0,1.0,icicle_04s.jpg,tablet_04s.jpg,,,,,,,
,,,,,,,,,,,,93,,,,,,,,,,,0.0,8.0,8.0,8.0,1.0,new2backpresent_9_4.xlsx,new2back_compare_task_9_4.xlsx
