key_resp.keys,key_resp.corr,present_segment.thisRepN,present_segment.thisTrialN,present_segment.thisN,present_segment.thisIndex,present_segment.ran,pictures,answer,clock,segment,participant,key_resp.rt,key_resp_2.keys,key_resp_2.corr,key_resp_2.rt,compare_segment.thisRepN,compare_segment.thisTrialN,compare_segment.thisN,compare_segment.thisIndex,compare_segment.ran,item_a,item_b,clock_conditions.thisRepN,clock_conditions.thisTrialN,clock_conditions.thisN,clock_conditions.thisIndex,clock_conditions.ran,present,compare
,0.0,0.0,0.0,0.0,0.0,1.0,mailbox_11s.jpg,0.0,Blue.png,1.0,46,,,,,,,,,,,,,,,,,,
1.0,1.0,0.0,1.0,1.0,1.0,1.0,mailbox_11s.jpg,1.0,Purple.png,1.0,46,1.05396,,,,,,,,,,,,,,,,,
0.0,1.0,0.0,2.0,2.0,2.0,1.0,checkbook_11s.jpg,0.0,Red.png,1.0,46,1.298665,,,,,,,,,,,,,,,,,
0.0,1.0,0.0,3.0,3.0,3.0,1.0,rocking_chair_05s.jpg,0.0,Orange.png,1.0,46,0.722315,,,,,,,,,,,,,,,,,
1.0,1.0,0.0,4.0,4.0,4.0,1.0,checkbook_11s.jpg,1.0,Yellow.png,1.0,46,1.22043,,,,,,,,,,,,,,,,,
1.0,1.0,0.0,5.0,5.0,5.0,1.0,rocking_chair_05s.jpg,1.0,Green.png,1.0,46,1.024665,,,,,,,,,,,,,,,,,
0.0,1.0,0.0,6.0,6.0,6.0,1.0,eggshell_14s.jpg,0.0,Blue.png,2.0,46,0.741885,,,,,,,,,,,,,,,,,
,0.0,0.0,7.0,7.0,7.0,1.0,rocking_chair_05s.jpg,0.0,Purple.png,2.0,46,,,,,,,,,,,,,,,,,,
0.0,1.0,0.0,8.0,8.0,8.0,1.0,powder_07s.jpg,0.0,Red.png,2.0,46,1.99205,,,,,,,,,,,,,,,,,
0.0,1.0,0.0,9.0,9.0,9.0,1.0,meatball_13s.jpg,0.0,Orange.png,2.0,46,1.25664,,,,,,,,,,,,,,,,,
0.0,1.0,0.0,10.0,10.0,10.0,1.0,rolling_pin_02s.jpg,0.0,Yellow.png,2.0,46,2.01936,,,,,,,,,,,,,,,,,
0.0,1.0,0.0,11.0,11.0,11.0,1.0,gingerbread_man_03s.jpg,0.0,Green.png,2.0,46,0.823075,,,,,,,,,,,,,,,,,
1.0,0.0,0.0,12.0,12.0,12.0,1.0,rocking_chair_05s.jpg,0.0,Blue.png,3.0,46,1.359455,,,,,,,,,,,,,,,,,
0.0,1.0,0.0,13.0,13.0,13.0,1.0,bowler_hat_10s.jpg,0.0,Purple.png,3.0,46,2.31781,,,,,,,,,,,,,,,,,
,0.0,0.0,14.0,14.0,14.0,1.0,rocking_chair_05s.jpg,1.0,Red.png,3.0,46,,,,,,,,,,,,,,,,,,
0.0,0.0,0.0,15.0,15.0,15.0,1.0,rocking_chair_05s.jpg,1.0,Orange.png,3.0,46,0.493135,,,,,,,,,,,,,,,,,
1.0,1.0,0.0,16.0,16.0,16.0,1.0,rocking_chair_05s.jpg,1.0,Yellow.png,3.0,46,0.66724,,,,,,,,,,,,,,,,,
0.0,1.0,0.0,17.0,17.0,17.0,1.0,projector_08s.jpg,0.0,Green.png,3.0,46,1.07687,,,,,,,,,,,,,,,,,
0.0,1.0,0.0,18.0,18.0,18.0,1.0,checkbook_11s.jpg,0.0,Blue.png,4.0,46,1.16685,,,,,,,,,,,,,,,,,
,0.0,0.0,19.0,19.0,19.0,1.0,checkbook_11s.jpg,1.0,Purple.png,4.0,46,,,,,,,,,,,,,,,,,,
0.0,1.0,0.0,20.0,20.0,20.0,1.0,crab_16s.jpg,0.0,Red.png,4.0,46,1.25463,,,,,,,,,,,,,,,,,
1.0,1.0,0.0,21.0,21.0,21.0,1.0,checkbook_11s.jpg,1.0,Orange.png,4.0,46,1.426165,,,,,,,,,,,,,,,,,
0.0,1.0,0.0,22.0,22.0,22.0,1.0,peanut_butter_08s.jpg,0.0,Yellow.png,4.0,46,0.791885,,,,,,,,,,,,,,,,,
0.0,1.0,0.0,23.0,23.0,23.0,1.0,breadstick_08s.jpg,0.0,Green.png,4.0,46,0.784315,,,,,,,,,,,,,,,,,
0.0,1.0,0.0,24.0,24.0,24.0,1.0,stethoscope_01b.jpg,0.0,Blue.png,5.0,46,1.234295,,,,,,,,,,,,,,,,,
0.0,1.0,0.0,25.0,25.0,25.0,1.0,pineapple_12s.jpg,0.0,Purple.png,5.0,46,0.71609,,,,,,,,,,,,,,,,,
0.0,0.0,0.0,26.0,26.0,26.0,1.0,stethoscope_01b.jpg,1.0,Red.png,5.0,46,1.09794,,,,,,,,,,,,,,,,,
0.0,0.0,0.0,27.0,27.0,27.0,1.0,pineapple_12s.jpg,1.0,Orange.png,5.0,46,0.70126,,,,,,,,,,,,,,,,,
0.0,1.0,0.0,28.0,28.0,28.0,1.0,air_pump_05s.jpg,0.0,Yellow.png,5.0,46,1.022155,,,,,,,,,,,,,,,,,
0.0,1.0,0.0,29.0,29.0,29.0,1.0,birdcage_08s.jpg,0.0,Green.png,5.0,46,1.754905,,,,,,,,,,,,,,,,,
0.0,1.0,0.0,30.0,30.0,30.0,1.0,kangaroo_02s.jpg,0.0,Blue.png,6.0,46,0.733645,,,,,,,,,,,,,,,,,
0.0,1.0,0.0,31.0,31.0,31.0,1.0,juicer2_06s.jpg,0.0,Purple.png,6.0,46,0.721825,,,,,,,,,,,,,,,,,
0.0,1.0,0.0,32.0,32.0,32.0,1.0,harpoon.jpg,0.0,Red.png,6.0,46,0.87566,,,,,,,,,,,,,,,,,
0.0,1.0,0.0,33.0,33.0,33.0,1.0,mirror_12s.jpg,0.0,Orange.png,6.0,46,0.81628,,,,,,,,,,,,,,,,,
0.0,1.0,0.0,34.0,34.0,34.0,1.0,gear_07s.jpg,0.0,Yellow.png,6.0,46,0.570725,,,,,,,,,,,,,,,,,
0.0,1.0,0.0,35.0,35.0,35.0,1.0,timer_03s.jpg,0.0,Green.png,6.0,46,0.61648,,,,,,,,,,,,,,,,,
,,,,,,,,1.0,,,46,,1.0,1.0,1.712935,0.0,0.0,0.0,0.0,1.0,powder_07s.jpg,gingerbread_man_03s.jpg,,,,,,,
,,,,,,,,1.0,,,46,,0.0,0.0,1.187855,0.0,1.0,1.0,1.0,1.0,air_pump_05s.jpg,juicer2_06s.jpg,,,,,,,
,,,,,,,,0.0,,,46,,1.0,0.0,0.996935,0.0,2.0,2.0,2.0,1.0,crab_16s.jpg,projector_08s.jpg,,,,,,,
,,,,,,,,0.0,,,46,,0.0,1.0,1.04913,0.0,3.0,3.0,3.0,1.0,mirror_12s.jpg,kangaroo_02s.jpg,,,,,,,
,,,,,,,,0.0,,,46,,1.0,0.0,1.07284,0.0,4.0,4.0,4.0,1.0,bowler_hat_10s.jpg,rolling_pin_02s.jpg,,,,,,,
,,,,,,,,1.0,,,46,,0.0,0.0,1.066535,0.0,5.0,5.0,5.0,1.0,eggshell_14s.jpg,meatball_13s.jpg,,,,,,,
,,,,,,,,,,,46,,,,,,,,,,,,0.0,0.0,0.0,0.0,1.0,newclockpresent_1_1.xlsx,newclock_compare_task_1_1.xlsx
0.0,1.0,0.0,0.0,0.0,0.0,1.0,trident_07s.jpg,0.0,Blue.png,1.0,46,1.530055,,,,,,,,,,,,,,,,,
0.0,1.0,0.0,1.0,1.0,1.0,1.0,rosary_03s.jpg,0.0,Purple.png,1.0,46,1.101015,,,,,,,,,,,,,,,,,
0.0,1.0,0.0,2.0,2.0,2.0,1.0,toilet_paper_12s.jpg,0.0,Red.png,1.0,46,1.07508,,,,,,,,,,,,,,,,,
0.0,0.0,0.0,3.0,3.0,3.0,1.0,rosary_03s.jpg,1.0,Orange.png,1.0,46,1.151865,,,,,,,,,,,,,,,,,
1.0,1.0,0.0,4.0,4.0,4.0,1.0,toilet_paper_12s.jpg,1.0,Yellow.png,1.0,46,0.867815,,,,,,,,,,,,,,,,,
0.0,1.0,0.0,5.0,5.0,5.0,1.0,potpourri_03s.jpg,0.0,Green.png,1.0,46,0.80193,,,,,,,,,,,,,,,,,
0.0,1.0,0.0,6.0,6.0,6.0,1.0,rocket_02s.jpg,0.0,Blue.png,2.0,46,0.691365,,,,,,,,,,,,,,,,,
0.0,1.0,0.0,7.0,7.0,7.0,1.0,piano_13n.jpg,0.0,Purple.png,2.0,46,0.96864,,,,,,,,,,,,,,,,,
1.0,1.0,0.0,8.0,8.0,8.0,1.0,rocket_02s.jpg,1.0,Red.png,2.0,46,0.884195,,,,,,,,,,,,,,,,,
1.0,1.0,0.0,9.0,9.0,9.0,1.0,rocket_02s.jpg,1.0,Orange.png,2.0,46,1.38334,,,,,,,,,,,,,,,,,
0.0,1.0,0.0,10.0,10.0,10.0,1.0,umbrella_15s.jpg,0.0,Yellow.png,2.0,46,0.876245,,,,,,,,,,,,,,,,,
0.0,1.0,0.0,11.0,11.0,11.0,1.0,touchpad_11s.jpg,0.0,Green.png,2.0,46,0.992345,,,,,,,,,,,,,,,,,
1.0,0.0,0.0,12.0,12.0,12.0,1.0,rocket_02s.jpg,0.0,Blue.png,3.0,46,0.868755,,,,,,,,,,,,,,,,,
0.0,0.0,0.0,13.0,13.0,13.0,1.0,rocket_02s.jpg,1.0,Purple.png,3.0,46,1.16734,,,,,,,,,,,,,,,,,
1.0,1.0,0.0,14.0,14.0,14.0,1.0,rocket_02s.jpg,1.0,Red.png,3.0,46,0.68845,,,,,,,,,,,,,,,,,
0.0,1.0,0.0,15.0,15.0,15.0,1.0,roller_coaster_07s.jpg,0.0,Orange.png,3.0,46,1.02169,,,,,,,,,,,,,,,,,
0.0,1.0,0.0,16.0,16.0,16.0,1.0,torch_02s.jpg,0.0,Yellow.png,3.0,46,1.70059,,,,,,,,,,,,,,,,,
0.0,1.0,0.0,17.0,17.0,17.0,1.0,lion_18s.jpg,0.0,Green.png,3.0,46,0.986085,,,,,,,,,,,,,,,,,
0.0,1.0,0.0,18.0,18.0,18.0,1.0,microwave_02s.jpg,0.0,Blue.png,4.0,46,1.80388,,,,,,,,,,,,,,,,,
0.0,1.0,0.0,19.0,19.0,19.0,1.0,denture_03s.jpg,0.0,Purple.png,4.0,46,0.993345,,,,,,,,,,,,,,,,,
0.0,1.0,0.0,20.0,20.0,20.0,1.0,fur_coat_11s.jpg,0.0,Red.png,4.0,46,1.005365,,,,,,,,,,,,,,,,,
0.0,1.0,0.0,21.0,21.0,21.0,1.0,pepper_mill_03s.jpg,0.0,Orange.png,4.0,46,0.572005,,,,,,,,,,,,,,,,,
0.0,1.0,0.0,22.0,22.0,22.0,1.0,antenna_01b.jpg,0.0,Yellow.png,4.0,46,0.75158,,,,,,,,,,,,,,,,,
1.0,1.0,0.0,23.0,23.0,23.0,1.0,pepper_mill_03s.jpg,1.0,Green.png,4.0,46,1.350175,,,,,,,,,,,,,,,,,
0.0,1.0,0.0,24.0,24.0,24.0,1.0,touchpad_11s.jpg,0.0,Blue.png,5.0,46,1.5792,,,,,,,,,,,,,,,,,
0.0,1.0,0.0,25.0,25.0,25.0,1.0,otter_05s.jpg,0.0,Purple.png,5.0,46,0.81476,,,,,,,,,,,,,,,,,
0.0,1.0,0.0,26.0,26.0,26.0,1.0,squirt_gun_03s.jpg,0.0,Red.png,5.0,46,1.28363,,,,,,,,,,,,,,,,,
1.0,1.0,0.0,27.0,27.0,27.0,1.0,otter_05s.jpg,1.0,Orange.png,5.0,46,0.90829,,,,,,,,,,,,,,,,,
0.0,0.0,0.0,28.0,28.0,28.0,1.0,touchpad_11s.jpg,1.0,Yellow.png,5.0,46,0.842535,,,,,,,,,,,,,,,,,
1.0,1.0,0.0,29.0,29.0,29.0,1.0,touchpad_11s.jpg,1.0,Green.png,5.0,46,0.750665,,,,,,,,,,,,,,,,,
0.0,1.0,0.0,30.0,30.0,30.0,1.0,kayak_08s.jpg,0.0,Blue.png,6.0,46,2.03648,,,,,,,,,,,,,,,,,
0.0,1.0,0.0,31.0,31.0,31.0,1.0,mascara_03s.jpg,0.0,Purple.png,6.0,46,0.78912,,,,,,,,,,,,,,,,,
0.0,1.0,0.0,32.0,32.0,32.0,1.0,ink_08s.jpg,0.0,Red.png,6.0,46,0.699975,,,,,,,,,,,,,,,,,
1.0,1.0,0.0,33.0,33.0,33.0,1.0,kayak_08s.jpg,1.0,Orange.png,6.0,46,0.86635,,,,,,,,,,,,,,,,,
0.0,1.0,0.0,34.0,34.0,34.0,1.0,towel_rack_04s.jpg,0.0,Yellow.png,6.0,46,1.149985,,,,,,,,,,,,,,,,,
0.0,1.0,0.0,35.0,35.0,35.0,1.0,jewel_01b.jpg,0.0,Green.png,6.0,46,0.87015,,,,,,,,,,,,,,,,,
,,,,,,,,1.0,,,46,,1.0,1.0,1.45084,0.0,0.0,0.0,0.0,1.0,torch_02s.jpg,denture_03s.jpg,,,,,,,
,,,,,,,,0.0,,,46,,0.0,1.0,1.35656,0.0,1.0,1.0,1.0,1.0,towel_rack_04s.jpg,mascara_03s.jpg,,,,,,,
,,,,,,,,1.0,,,46,,1.0,1.0,0.754775,0.0,2.0,2.0,2.0,1.0,piano_13n.jpg,umbrella_15s.jpg,,,,,,,
,,,,,,,,0.0,,,46,,0.0,1.0,1.15912,0.0,3.0,3.0,3.0,1.0,fur_coat_11s.jpg,lion_18s.jpg,,,,,,,
,,,,,,,,1.0,,,46,,0.0,0.0,0.817395,0.0,4.0,4.0,4.0,1.0,roller_coaster_07s.jpg,microwave_02s.jpg,,,,,,,
,,,,,,,,1.0,,,46,,0.0,0.0,0.787445,0.0,5.0,5.0,5.0,1.0,ink_08s.jpg,jewel_01b.jpg,,,,,,,
,,,,,,,,,,,46,,,,,,,,,,,,0.0,1.0,1.0,1.0,1.0,newclockpresent_2_1.xlsx,newclock_compare_task_2_1.xlsx
,0.0,0.0,0.0,0.0,0.0,1.0,icemaker_10s.jpg,0.0,Blue.png,1.0,46,,,,,,,,,,,,,,,,,,
0.0,0.0,0.0,1.0,1.0,1.0,1.0,icemaker_10s.jpg,1.0,Purple.png,1.0,46,1.053115,,,,,,,,,,,,,,,,,
0.0,1.0,0.0,2.0,2.0,2.0,1.0,tile_08s.jpg,0.0,Red.png,1.0,46,0.933705,,,,,,,,,,,,,,,,,
0.0,1.0,0.0,3.0,3.0,3.0,1.0,fossil_06s.jpg,0.0,Orange.png,1.0,46,1.220725,,,,,,,,,,,,,,,,,
1.0,1.0,0.0,4.0,4.0,4.0,1.0,fossil_06s.jpg,1.0,Yellow.png,1.0,46,0.987385,,,,,,,,,,,,,,,,,
0.0,1.0,0.0,5.0,5.0,5.0,1.0,ravioli_08s.jpg,0.0,Green.png,1.0,46,0.75862,,,,,,,,,,,,,,,,,
0.0,1.0,0.0,6.0,6.0,6.0,1.0,top_hat_11s.jpg,0.0,Blue.png,2.0,46,2.267055,,,,,,,,,,,,,,,,,
0.0,1.0,0.0,7.0,7.0,7.0,1.0,raccoon_02s.jpg,0.0,Purple.png,2.0,46,1.62261,,,,,,,,,,,,,,,,,
0.0,1.0,0.0,8.0,8.0,8.0,1.0,snowman_02s.jpg,0.0,Red.png,2.0,46,0.99142,,,,,,,,,,,,,,,,,
0.0,1.0,0.0,9.0,9.0,9.0,1.0,peach_04s.jpg,0.0,Orange.png,2.0,46,0.66943,,,,,,,,,,,,,,,,,
0.0,1.0,0.0,10.0,10.0,10.0,1.0,beard_16s.jpg,0.0,Yellow.png,2.0,46,0.723995,,,,,,,,,,,,,,,,,
0.0,1.0,0.0,11.0,11.0,11.0,1.0,rollerskate_03s.jpg,0.0,Green.png,2.0,46,0.40519,,,,,,,,,,,,,,,,,
0.0,1.0,0.0,12.0,12.0,12.0,1.0,mango_09s.jpg,0.0,Blue.png,3.0,46,0.776375,,,,,,,,,,,,,,,,,
,0.0,0.0,13.0,13.0,13.0,1.0,mango_09s.jpg,1.0,Purple.png,3.0,46,,,,,,,,,,,,,,,,,,
0.0,1.0,0.0,14.0,14.0,14.0,1.0,magnet_03s.jpg,0.0,Red.png,3.0,46,2.124055,,,,,,,,,,,,,,,,,
0.0,0.0,0.0,15.0,15.0,15.0,1.0,mango_09s.jpg,1.0,Orange.png,3.0,46,1.50052,,,,,,,,,,,,,,,,,
,0.0,0.0,16.0,16.0,16.0,1.0,mango_09s.jpg,1.0,Yellow.png,3.0,46,,,,,,,,,,,,,,,,,,
0.0,0.0,0.0,17.0,17.0,17.0,1.0,mango_09s.jpg,1.0,Green.png,3.0,46,1.893235,,,,,,,,,,,,,,,,,
,0.0,0.0,18.0,18.0,18.0,1.0,punch2_09s.jpg,0.0,Blue.png,4.0,46,,,,,,,,,,,,,,,,,,
0.0,1.0,0.0,19.0,19.0,19.0,1.0,jelly_bean_06s.jpg,0.0,Purple.png,4.0,46,0.63389,,,,,,,,,,,,,,,,,
0.0,0.0,0.0,20.0,20.0,20.0,1.0,punch2_09s.jpg,1.0,Red.png,4.0,46,0.80619,,,,,,,,,,,,,,,,,
1.0,1.0,0.0,21.0,21.0,21.0,1.0,jelly_bean_06s.jpg,1.0,Orange.png,4.0,46,0.30002,,,,,,,,,,,,,,,,,
0.0,0.0,0.0,22.0,22.0,22.0,1.0,jelly_bean_06s.jpg,1.0,Yellow.png,4.0,46,0.340685,,,,,,,,,,,,,,,,,
0.0,1.0,0.0,23.0,23.0,23.0,1.0,typewriter_11s.jpg,0.0,Green.png,4.0,46,0.90789,,,,,,,,,,,,,,,,,
1.0,0.0,0.0,24.0,24.0,24.0,1.0,icemaker_10s.jpg,0.0,Blue.png,5.0,46,1.020465,,,,,,,,,,,,,,,,,
0.0,1.0,0.0,25.0,25.0,25.0,1.0,typewriter_11s.jpg,0.0,Purple.png,5.0,46,0.874475,,,,,,,,,,,,,,,,,
1.0,0.0,0.0,26.0,26.0,26.0,1.0,key_07s.jpg,0.0,Red.png,5.0,46,0.849185,,,,,,,,,,,,,,,,,
0.0,1.0,0.0,27.0,27.0,27.0,1.0,foam_03s.jpg,0.0,Orange.png,5.0,46,0.8532,,,,,,,,,,,,,,,,,
0.0,1.0,0.0,28.0,28.0,28.0,1.0,candy_cane_06s.jpg,0.0,Yellow.png,5.0,46,0.700265,,,,,,,,,,,,,,,,,
0.0,1.0,0.0,29.0,29.0,29.0,1.0,puffin_19s.jpg,0.0,Green.png,5.0,46,0.53314,,,,,,,,,,,,,,,,,
0.0,1.0,0.0,30.0,30.0,30.0,1.0,outlet_10s.jpg,0.0,Blue.png,6.0,46,0.8008,,,,,,,,,,,,,,,,,
0.0,1.0,0.0,31.0,31.0,31.0,1.0,lasagna_06s.jpg,0.0,Purple.png,6.0,46,0.9836,,,,,,,,,,,,,,,,,
0.0,0.0,0.0,32.0,32.0,32.0,1.0,lasagna_06s.jpg,1.0,Red.png,6.0,46,0.47144,,,,,,,,,,,,,,,,,
1.0,0.0,0.0,33.0,33.0,33.0,1.0,marker_05s.jpg,0.0,Orange.png,6.0,46,1.974505,,,,,,,,,,,,,,,,,
0.0,1.0,0.0,34.0,34.0,34.0,1.0,cushion_08s.jpg,0.0,Yellow.png,6.0,46,0.5543,,,,,,,,,,,,,,,,,
0.0,1.0,0.0,35.0,35.0,35.0,1.0,badge_03s.jpg,0.0,Green.png,6.0,46,0.816665,,,,,,,,,,,,,,,,,
,,,,,,,,0.0,,,46,,1.0,0.0,1.733545,0.0,0.0,0.0,0.0,1.0,beard_16s.jpg,raccoon_02s.jpg,,,,,,,
,,,,,,,,0.0,,,46,,1.0,0.0,1.08745,0.0,1.0,1.0,1.0,1.0,peach_04s.jpg,top_hat_11s.jpg,,,,,,,
,,,,,,,,1.0,,,46,,1.0,1.0,1.01679,0.0,2.0,2.0,2.0,1.0,rollerskate_03s.jpg,magnet_03s.jpg,,,,,,,
,,,,,,,,1.0,,,46,,1.0,1.0,0.966925,0.0,3.0,3.0,3.0,1.0,foam_03s.jpg,outlet_10s.jpg,,,,,,,
,,,,,,,,0.0,,,46,,0.0,1.0,0.5245,0.0,4.0,4.0,4.0,1.0,snowman_02s.jpg,ravioli_08s.jpg,,,,,,,
,,,,,,,,0.0,,,46,,1.0,0.0,0.53395,0.0,5.0,5.0,5.0,1.0,puffin_19s.jpg,key_07s.jpg,,,,,,,
,,,,,,,,,,,46,,,,,,,,,,,,0.0,2.0,2.0,2.0,1.0,newclockpresent_3_1.xlsx,newclock_compare_task_3_1.xlsx
0.0,1.0,0.0,0.0,0.0,0.0,1.0,lollipop_08s.jpg,0.0,Blue.png,1.0,46,2.256675,,,,,,,,,,,,,,,,,
0.0,1.0,0.0,1.0,1.0,1.0,1.0,keyboard_05s.jpg,0.0,Purple.png,1.0,46,1.36687,,,,,,,,,,,,,,,,,
0.0,1.0,0.0,2.0,2.0,2.0,1.0,pomegranate_04s.jpg,0.0,Red.png,1.0,46,1.30039,,,,,,,,,,,,,,,,,
0.0,1.0,0.0,3.0,3.0,3.0,1.0,olive_05s.jpg,0.0,Orange.png,1.0,46,1.64138,,,,,,,,,,,,,,,,,
0.0,1.0,0.0,4.0,4.0,4.0,1.0,hummingbird_05s.jpg,0.0,Yellow.png,1.0,46,0.73346,,,,,,,,,,,,,,,,,
0.0,1.0,0.0,5.0,5.0,5.0,1.0,cucumber_07s.jpg,0.0,Green.png,1.0,46,0.875185,,,,,,,,,,,,,,,,,
0.0,1.0,0.0,6.0,6.0,6.0,1.0,olive_05s.jpg,0.0,Blue.png,2.0,46,1.066735,,,,,,,,,,,,,,,,,
0.0,1.0,0.0,7.0,7.0,7.0,1.0,pinwheel_06s.jpg,0.0,Purple.png,2.0,46,1.722335,,,,,,,,,,,,,,,,,
1.0,1.0,0.0,8.0,8.0,8.0,1.0,olive_05s.jpg,1.0,Red.png,2.0,46,0.94339,,,,,,,,,,,,,,,,,
0.0,1.0,0.0,9.0,9.0,9.0,1.0,orchid_01b.jpg,0.0,Orange.png,2.0,46,0.8074,,,,,,,,,,,,,,,,,
1.0,1.0,0.0,10.0,10.0,10.0,1.0,olive_05s.jpg,1.0,Yellow.png,2.0,46,1.171395,,,,,,,,,,,,,,,,,
0.0,1.0,0.0,11.0,11.0,11.0,1.0,lectern_08s.jpg,0.0,Green.png,2.0,46,0.739715,,,,,,,,,,,,,,,,,
0.0,1.0,0.0,12.0,12.0,12.0,1.0,margarita_03s.jpg,0.0,Blue.png,3.0,46,0.92521,,,,,,,,,,,,,,,,,
1.0,1.0,0.0,13.0,13.0,13.0,1.0,margarita_03s.jpg,1.0,Purple.png,3.0,46,1.05505,,,,,,,,,,,,,,,,,
0.0,1.0,0.0,14.0,14.0,14.0,1.0,swan_11s.jpg,0.0,Red.png,3.0,46,0.983365,,,,,,,,,,,,,,,,,
0.0,1.0,0.0,15.0,15.0,15.0,1.0,tripod_01b.jpg,0.0,Orange.png,3.0,46,0.86688,,,,,,,,,,,,,,,,,
0.0,1.0,0.0,16.0,16.0,16.0,1.0,mop_08s.jpg,0.0,Yellow.png,3.0,46,0.699555,,,,,,,,,,,,,,,,,
0.0,1.0,0.0,17.0,17.0,17.0,1.0,plaster_cast_13s.jpg,0.0,Green.png,3.0,46,0.72556,,,,,,,,,,,,,,,,,
0.0,1.0,0.0,18.0,18.0,18.0,1.0,gas_mask_11s.jpg,0.0,Blue.png,4.0,46,0.666955,,,,,,,,,,,,,,,,,
0.0,1.0,0.0,19.0,19.0,19.0,1.0,tinsel_12s.jpg,0.0,Purple.png,4.0,46,0.77267,,,,,,,,,,,,,,,,,
0.0,1.0,0.0,20.0,20.0,20.0,1.0,smokingpipe.jpg,0.0,Red.png,4.0,46,0.789995,,,,,,,,,,,,,,,,,
0.0,1.0,0.0,21.0,21.0,21.0,1.0,iron_13s.jpg,0.0,Orange.png,4.0,46,0.968955,,,,,,,,,,,,,,,,,
1.0,1.0,0.0,22.0,22.0,22.0,1.0,iron_13s.jpg,1.0,Yellow.png,4.0,46,0.783685,,,,,,,,,,,,,,,,,
1.0,1.0,0.0,23.0,23.0,23.0,1.0,iron_13s.jpg,1.0,Green.png,4.0,46,1.034795,,,,,,,,,,,,,,,,,
0.0,1.0,0.0,24.0,24.0,24.0,1.0,rhubarb_03s.jpg,0.0,Blue.png,5.0,46,0.78915,,,,,,,,,,,,,,,,,
0.0,1.0,0.0,25.0,25.0,25.0,1.0,tambourine_06s.jpg,0.0,Purple.png,5.0,46,1.21674,,,,,,,,,,,,,,,,,
1.0,1.0,0.0,26.0,26.0,26.0,1.0,tambourine_06s.jpg,1.0,Red.png,5.0,46,0.80146,,,,,,,,,,,,,,,,,
0.0,1.0,0.0,27.0,27.0,27.0,1.0,mousetrap_15n.jpg,0.0,Orange.png,5.0,46,1.58347,,,,,,,,,,,,,,,,,
0.0,1.0,0.0,28.0,28.0,28.0,1.0,ticktacktoe_08s.jpg,0.0,Yellow.png,5.0,46,1.789465,,,,,,,,,,,,,,,,,
0.0,1.0,0.0,29.0,29.0,29.0,1.0,sunflower_17s.jpg,0.0,Green.png,5.0,46,0.983465,,,,,,,,,,,,,,,,,
0.0,1.0,0.0,30.0,30.0,30.0,1.0,onion_10s.jpg,0.0,Blue.png,6.0,46,1.30029,,,,,,,,,,,,,,,,,
0.0,1.0,0.0,31.0,31.0,31.0,1.0,ant_12s.jpg,0.0,Purple.png,6.0,46,0.874065,,,,,,,,,,,,,,,,,
0.0,1.0,0.0,32.0,32.0,32.0,1.0,insole_11s.jpg,0.0,Red.png,6.0,46,1.133765,,,,,,,,,,,,,,,,,
0.0,1.0,0.0,33.0,33.0,33.0,1.0,keyboard_05s.jpg,0.0,Orange.png,6.0,46,0.983205,,,,,,,,,,,,,,,,,
0.0,1.0,0.0,34.0,34.0,34.0,1.0,aluminum_foil_08s.jpg,0.0,Yellow.png,6.0,46,0.89106,,,,,,,,,,,,,,,,,
0.0,1.0,0.0,35.0,35.0,35.0,1.0,money_07s.jpg,0.0,Green.png,6.0,46,0.6541,,,,,,,,,,,,,,,,,
,,,,,,,,0.0,,,46,,1.0,0.0,1.41685,0.0,0.0,0.0,0.0,1.0,pinwheel_06s.jpg,hummingbird_05s.jpg,,,,,,,
,,,,,,,,1.0,,,46,,1.0,1.0,1.490985,0.0,1.0,1.0,1.0,1.0,mop_08s.jpg,tinsel_12s.jpg,,,,,,,
,,,,,,,,1.0,,,46,,1.0,1.0,0.73316,0.0,2.0,2.0,2.0,1.0,pomegranate_04s.jpg,cucumber_07s.jpg,,,,,,,
,,,,,,,,0.0,,,46,,1.0,0.0,0.76906,0.0,3.0,3.0,3.0,1.0,aluminum_foil_08s.jpg,ant_12s.jpg,,,,,,,
,,,,,,,,0.0,,,46,,1.0,0.0,0.801205,0.0,4.0,4.0,4.0,1.0,gas_mask_11s.jpg,tripod_01b.jpg,,,,,,,
,,,,,,,,0.0,,,46,,0.0,1.0,0.919575,0.0,5.0,5.0,5.0,1.0,mousetrap_15n.jpg,rhubarb_03s.jpg,,,,,,,
,,,,,,,,,,,46,,,,,,,,,,,,0.0,3.0,3.0,3.0,1.0,newclockpresent_4_1.xlsx,newclock_compare_task_4_1.xlsx
,0.0,0.0,0.0,0.0,0.0,1.0,jalapeno_15s.jpg,0.0,Blue.png,1.0,46,,,,,,,,,,,,,,,,,,
0.0,1.0,0.0,1.0,1.0,1.0,1.0,pincushion_10s.jpg,0.0,Purple.png,1.0,46,1.07687,,,,,,,,,,,,,,,,,
0.0,1.0,0.0,2.0,2.0,2.0,1.0,fondue_07s.jpg,0.0,Red.png,1.0,46,1.199765,,,,,,,,,,,,,,,,,
0.0,1.0,0.0,3.0,3.0,3.0,1.0,safety_pin_02s.jpg,0.0,Orange.png,1.0,46,1.74705,,,,,,,,,,,,,,,,,
0.0,1.0,0.0,4.0,4.0,4.0,1.0,turf_03s.jpg,0.0,Yellow.png,1.0,46,1.19519,,,,,,,,,,,,,,,,,
0.0,0.0,0.0,5.0,5.0,5.0,1.0,jalapeno_15s.jpg,1.0,Green.png,1.0,46,0.879085,,,,,,,,,,,,,,,,,
0.0,1.0,0.0,6.0,6.0,6.0,1.0,jalapeno_15s.jpg,0.0,Blue.png,2.0,46,0.808075,,,,,,,,,,,,,,,,,
0.0,0.0,0.0,7.0,7.0,7.0,1.0,jalapeno_15s.jpg,1.0,Purple.png,2.0,46,0.92279,,,,,,,,,,,,,,,,,
0.0,1.0,0.0,8.0,8.0,8.0,1.0,spoon02a.jpg,0.0,Red.png,2.0,46,0.87336,,,,,,,,,,,,,,,,,
0.0,1.0,0.0,9.0,9.0,9.0,1.0,puppet_01b.jpg,0.0,Orange.png,2.0,46,0.87701,,,,,,,,,,,,,,,,,
0.0,0.0,0.0,10.0,10.0,10.0,1.0,jalapeno_15s.jpg,1.0,Yellow.png,2.0,46,1.54824,,,,,,,,,,,,,,,,,
1.0,1.0,0.0,11.0,11.0,11.0,1.0,jalapeno_15s.jpg,1.0,Green.png,2.0,46,1.049785,,,,,,,,,,,,,,,,,
0.0,1.0,0.0,12.0,12.0,12.0,1.0,popcorn_09s.jpg,0.0,Blue.png,3.0,46,0.840875,,,,,,,,,,,,,,,,,
1.0,1.0,0.0,13.0,13.0,13.0,1.0,popcorn_09s.jpg,1.0,Purple.png,3.0,46,1.01916,,,,,,,,,,,,,,,,,
0.0,1.0,0.0,14.0,14.0,14.0,1.0,swordfish_05s.jpg,0.0,Red.png,3.0,46,0.71717,,,,,,,,,,,,,,,,,
1.0,1.0,0.0,15.0,15.0,15.0,1.0,popcorn_09s.jpg,1.0,Orange.png,3.0,46,0.759945,,,,,,,,,,,,,,,,,
0.0,1.0,0.0,16.0,16.0,16.0,1.0,police_car_01s.jpg,0.0,Yellow.png,3.0,46,0.673745,,,,,,,,,,,,,,,,,
0.0,1.0,0.0,17.0,17.0,17.0,1.0,ginger_09s.jpg,0.0,Green.png,3.0,46,1.25083,,,,,,,,,,,,,,,,,
0.0,1.0,0.0,18.0,18.0,18.0,1.0,cap_05s.jpg,0.0,Blue.png,4.0,46,2.29974,,,,,,,,,,,,,,,,,
,0.0,0.0,19.0,19.0,19.0,1.0,ice-cream_cone_06s.jpg,0.0,Purple.png,4.0,46,,,,,,,,,,,,,,,,,,
0.0,1.0,0.0,20.0,20.0,20.0,1.0,purse_05s.jpg,0.0,Red.png,4.0,46,1.374935,,,,,,,,,,,,,,,,,
0.0,1.0,0.0,21.0,21.0,21.0,1.0,squirrel_02s.jpg,0.0,Orange.png,4.0,46,1.706985,,,,,,,,,,,,,,,,,
,0.0,0.0,22.0,22.0,22.0,1.0,cap_05s.jpg,1.0,Yellow.png,4.0,46,,,,,,,,,,,,,,,,,,
0.0,1.0,0.0,23.0,23.0,23.0,1.0,pie_08s.jpg,0.0,Green.png,4.0,46,2.242085,,,,,,,,,,,,,,,,,
0.0,1.0,0.0,24.0,24.0,24.0,1.0,thread_08s.jpg,0.0,Blue.png,5.0,46,0.783525,,,,,,,,,,,,,,,,,
0.0,1.0,0.0,25.0,25.0,25.0,1.0,punch1_10s.jpg,0.0,Purple.png,5.0,46,1.091775,,,,,,,,,,,,,,,,,
0.0,1.0,0.0,26.0,26.0,26.0,1.0,cereal_04s.jpg,0.0,Red.png,5.0,46,0.84264,,,,,,,,,,,,,,,,,
0.0,1.0,0.0,27.0,27.0,27.0,1.0,espresso_01b.jpg,0.0,Orange.png,5.0,46,0.786315,,,,,,,,,,,,,,,,,
0.0,0.0,0.0,28.0,28.0,28.0,1.0,cereal_04s.jpg,1.0,Yellow.png,5.0,46,0.70011,,,,,,,,,,,,,,,,,
1.0,1.0,0.0,29.0,29.0,29.0,1.0,cereal_04s.jpg,1.0,Green.png,5.0,46,1.640985,,,,,,,,,,,,,,,,,
0.0,1.0,0.0,30.0,30.0,30.0,1.0,tube_top_03s.jpg,0.0,Blue.png,6.0,46,0.58447,,,,,,,,,,,,,,,,,
0.0,1.0,0.0,31.0,31.0,31.0,1.0,pepper2_21s.jpg,0.0,Purple.png,6.0,46,0.61994,,,,,,,,,,,,,,,,,
1.0,0.0,0.0,32.0,32.0,32.0,1.0,jersey_02s.jpg,0.0,Red.png,6.0,46,0.799965,,,,,,,,,,,,,,,,,
0.0,1.0,0.0,33.0,33.0,33.0,1.0,mussel_11s.jpg,0.0,Orange.png,6.0,46,0.77322,,,,,,,,,,,,,,,,,
0.0,1.0,0.0,34.0,34.0,34.0,1.0,toaster_03s.jpg,0.0,Yellow.png,6.0,46,1.637165,,,,,,,,,,,,,,,,,
0.0,1.0,0.0,35.0,35.0,35.0,1.0,tie_03s.jpg,0.0,Green.png,6.0,46,0.684205,,,,,,,,,,,,,,,,,
,,,,,,,,0.0,,,46,,0.0,1.0,1.31662,0.0,0.0,0.0,0.0,1.0,ice-cream_cone_06s.jpg,police_car_01s.jpg,,,,,,,
,,,,,,,,0.0,,,46,,1.0,0.0,1.32036,0.0,1.0,1.0,1.0,1.0,turf_03s.jpg,pincushion_10s.jpg,,,,,,,
,,,,,,,,0.0,,,46,,1.0,0.0,1.088915,0.0,2.0,2.0,2.0,1.0,purse_05s.jpg,ginger_09s.jpg,,,,,,,
,,,,,,,,1.0,,,46,,1.0,1.0,0.967505,0.0,3.0,3.0,3.0,1.0,jersey_02s.jpg,tie_03s.jpg,,,,,,,
,,,,,,,,0.0,,,46,,0.0,1.0,1.13374,0.0,4.0,4.0,4.0,1.0,toaster_03s.jpg,pepper2_21s.jpg,,,,,,,
,,,,,,,,0.0,,,46,,1.0,0.0,2.32509,0.0,5.0,5.0,5.0,1.0,thread_08s.jpg,squirrel_02s.jpg,,,,,,,
,,,,,,,,,,,46,,,,,,,,,,,,0.0,4.0,4.0,4.0,1.0,newclockpresent_5_1.xlsx,newclock_compare_task_5_1.xlsx
,0.0,0.0,0.0,0.0,0.0,1.0,omelet_07s.jpg,0.0,Blue.png,1.0,46,,,,,,,,,,,,,,,,,,
0.0,1.0,0.0,1.0,1.0,1.0,1.0,popsicle_02s.jpg,0.0,Purple.png,1.0,46,0.653925,,,,,,,,,,,,,,,,,
1.0,0.0,0.0,2.0,2.0,2.0,1.0,letter_opener_03s.jpg,0.0,Red.png,1.0,46,0.710125,,,,,,,,,,,,,,,,,
0.0,1.0,0.0,3.0,3.0,3.0,1.0,diving_board_07s.jpg,0.0,Orange.png,1.0,46,0.46661,,,,,,,,,,,,,,,,,
0.0,0.0,0.0,4.0,4.0,4.0,1.0,omelet_07s.jpg,1.0,Yellow.png,1.0,46,0.35037,,,,,,,,,,,,,,,,,
0.0,0.0,0.0,5.0,5.0,5.0,1.0,letter_opener_03s.jpg,1.0,Green.png,1.0,46,1.31729,,,,,,,,,,,,,,,,,
0.0,1.0,0.0,6.0,6.0,6.0,1.0,omelet_07s.jpg,0.0,Blue.png,2.0,46,0.601335,,,,,,,,,,,,,,,,,
0.0,1.0,0.0,7.0,7.0,7.0,1.0,cape_11s.jpg,0.0,Purple.png,2.0,46,0.94977,,,,,,,,,,,,,,,,,
1.0,1.0,0.0,8.0,8.0,8.0,1.0,omelet_07s.jpg,1.0,Red.png,2.0,46,1.392565,,,,,,,,,,,,,,,,,
0.0,1.0,0.0,9.0,9.0,9.0,1.0,lantern_04s.jpg,0.0,Orange.png,2.0,46,1.33549,,,,,,,,,,,,,,,,,
0.0,1.0,0.0,10.0,10.0,10.0,1.0,leotard_08s.jpg,0.0,Yellow.png,2.0,46,0.86732,,,,,,,,,,,,,,,,,
0.0,1.0,0.0,11.0,11.0,11.0,1.0,pacifier_09s.jpg,0.0,Green.png,2.0,46,1.600295,,,,,,,,,,,,,,,,,
0.0,1.0,0.0,12.0,12.0,12.0,1.0,rocking_horse_03s.jpg,0.0,Blue.png,3.0,46,0.850795,,,,,,,,,,,,,,,,,
0.0,1.0,0.0,13.0,13.0,13.0,1.0,cardinal_07s.jpg,0.0,Purple.png,3.0,46,0.83451,,,,,,,,,,,,,,,,,
0.0,1.0,0.0,14.0,14.0,14.0,1.0,hyena_16s.jpg,0.0,Red.png,3.0,46,1.07632,,,,,,,,,,,,,,,,,
0.0,1.0,0.0,15.0,15.0,15.0,1.0,oil_02s.jpg,0.0,Orange.png,3.0,46,0.83937,,,,,,,,,,,,,,,,,
,0.0,0.0,16.0,16.0,16.0,1.0,marshmallow_08s.jpg,0.0,Yellow.png,3.0,46,,,,,,,,,,,,,,,,,,
0.0,0.0,0.0,17.0,17.0,17.0,1.0,oil_02s.jpg,1.0,Green.png,3.0,46,0.567625,,,,,,,,,,,,,,,,,
1.0,0.0,0.0,18.0,18.0,18.0,1.0,omelet_07s.jpg,0.0,Blue.png,4.0,46,1.170135,,,,,,,,,,,,,,,,,
1.0,0.0,0.0,19.0,19.0,19.0,1.0,oil_02s.jpg,0.0,Purple.png,4.0,46,0.88637,,,,,,,,,,,,,,,,,
0.0,1.0,0.0,20.0,20.0,20.0,1.0,knitting_needle_04s.jpg,0.0,Red.png,4.0,46,0.825875,,,,,,,,,,,,,,,,,
1.0,1.0,0.0,21.0,21.0,21.0,1.0,oil_02s.jpg,1.0,Orange.png,4.0,46,0.91792,,,,,,,,,,,,,,,,,
0.0,1.0,0.0,22.0,22.0,22.0,1.0,ice_pack_09s.jpg,0.0,Yellow.png,4.0,46,0.62253,,,,,,,,,,,,,,,,,
0.0,1.0,0.0,23.0,23.0,23.0,1.0,peppermint_07s.jpg,0.0,Green.png,4.0,46,0.766775,,,,,,,,,,,,,,,,,
,0.0,0.0,24.0,24.0,24.0,1.0,submarine_11n.jpg,0.0,Blue.png,5.0,46,,,,,,,,,,,,,,,,,,
0.0,1.0,0.0,25.0,25.0,25.0,1.0,seagull_01b.jpg,0.0,Purple.png,5.0,46,0.98768,,,,,,,,,,,,,,,,,
1.0,0.0,0.0,26.0,26.0,26.0,1.0,omelet_07s.jpg,0.0,Red.png,5.0,46,1.01671,,,,,,,,,,,,,,,,,
0.0,1.0,0.0,27.0,27.0,27.0,1.0,bonsai_07s.jpg,0.0,Orange.png,5.0,46,0.950345,,,,,,,,,,,,,,,,,
1.0,1.0,0.0,28.0,28.0,28.0,1.0,bonsai_07s.jpg,1.0,Yellow.png,5.0,46,1.158415,,,,,,,,,,,,,,,,,
1.0,1.0,0.0,29.0,29.0,29.0,1.0,omelet_07s.jpg,1.0,Green.png,5.0,46,0.86884,,,,,,,,,,,,,,,,,
0.0,1.0,0.0,30.0,30.0,30.0,1.0,bonsai_07s.jpg,0.0,Blue.png,6.0,46,0.902865,,,,,,,,,,,,,,,,,
0.0,1.0,0.0,31.0,31.0,31.0,1.0,quilt_03s.jpg,0.0,Purple.png,6.0,46,1.06614,,,,,,,,,,,,,,,,,
0.0,1.0,0.0,32.0,32.0,32.0,1.0,incense_02s.jpg,0.0,Red.png,6.0,46,0.80754,,,,,,,,,,,,,,,,,
1.0,1.0,0.0,33.0,33.0,33.0,1.0,quilt_03s.jpg,1.0,Orange.png,6.0,46,0.866735,,,,,,,,,,,,,,,,,
1.0,1.0,0.0,34.0,34.0,34.0,1.0,incense_02s.jpg,1.0,Yellow.png,6.0,46,1.00658,,,,,,,,,,,,,,,,,
1.0,1.0,0.0,35.0,35.0,35.0,1.0,incense_02s.jpg,1.0,Green.png,6.0,46,0.68328,,,,,,,,,,,,,,,,,
,,,,,,,,1.0,,,46,,1.0,1.0,1.223135,0.0,0.0,0.0,0.0,1.0,pacifier_09s.jpg,hyena_16s.jpg,,,,,,,
,,,,,,,,0.0,,,46,,1.0,0.0,0.985585,0.0,1.0,1.0,1.0,1.0,peppermint_07s.jpg,knitting_needle_04s.jpg,,,,,,,
,,,,,,,,1.0,,,46,,1.0,1.0,0.87265,0.0,2.0,2.0,2.0,1.0,ice_pack_09s.jpg,seagull_01b.jpg,,,,,,,
,,,,,,,,0.0,,,46,,0.0,1.0,1.33795,0.0,3.0,3.0,3.0,1.0,marshmallow_08s.jpg,cardinal_07s.jpg,,,,,,,
,,,,,,,,1.0,,,46,,1.0,1.0,1.01721,0.0,4.0,4.0,4.0,1.0,cape_11s.jpg,leotard_08s.jpg,,,,,,,
,,,,,,,,1.0,,,46,,1.0,1.0,1.259515,0.0,5.0,5.0,5.0,1.0,lantern_04s.jpg,rocking_horse_03s.jpg,,,,,,,
,,,,,,,,,,,46,,,,,,,,,,,,0.0,5.0,5.0,5.0,1.0,newclockpresent_6_1.xlsx,newclock_compare_task_6_1.xlsx
0.0,1.0,0.0,0.0,0.0,0.0,1.0,petri_dish_12s.jpg,0.0,Blue.png,1.0,46,1.187495,,,,,,,,,,,,,,,,,
0.0,1.0,0.0,1.0,1.0,1.0,1.0,toothpaste_12s.jpg,0.0,Purple.png,1.0,46,2.223125,,,,,,,,,,,,,,,,,
0.0,1.0,0.0,2.0,2.0,2.0,1.0,medal_04s.jpg,0.0,Red.png,1.0,46,0.71058,,,,,,,,,,,,,,,,,
0.0,1.0,0.0,3.0,3.0,3.0,1.0,potholder_02s.jpg,0.0,Orange.png,1.0,46,1.18912,,,,,,,,,,,,,,,,,
0.0,1.0,0.0,4.0,4.0,4.0,1.0,puck_06s.jpg,0.0,Yellow.png,1.0,46,0.798745,,,,,,,,,,,,,,,,,
0.0,1.0,0.0,5.0,5.0,5.0,1.0,bagel_15s.jpg,0.0,Green.png,1.0,46,0.6538,,,,,,,,,,,,,,,,,
0.0,1.0,0.0,6.0,6.0,6.0,1.0,golf_club_03s.jpg,0.0,Blue.png,2.0,46,0.672395,,,,,,,,,,,,,,,,,
1.0,1.0,0.0,7.0,7.0,7.0,1.0,golf_club_03s.jpg,1.0,Purple.png,2.0,46,1.050385,,,,,,,,,,,,,,,,,
1.0,1.0,0.0,8.0,8.0,8.0,1.0,golf_club_03s.jpg,1.0,Red.png,2.0,46,0.808235,,,,,,,,,,,,,,,,,
0.0,1.0,0.0,9.0,9.0,9.0,1.0,inhaler_01b.jpg,0.0,Orange.png,2.0,46,0.807345,,,,,,,,,,,,,,,,,
1.0,1.0,0.0,10.0,10.0,10.0,1.0,golf_club_03s.jpg,1.0,Yellow.png,2.0,46,0.950865,,,,,,,,,,,,,,,,,
0.0,1.0,0.0,11.0,11.0,11.0,1.0,tiger_06s.jpg,0.0,Green.png,2.0,46,0.67899,,,,,,,,,,,,,,,,,
1.0,0.0,0.0,12.0,12.0,12.0,1.0,medal_04s.jpg,0.0,Blue.png,3.0,46,1.747095,,,,,,,,,,,,,,,,,
0.0,0.0,0.0,13.0,13.0,13.0,1.0,medal_04s.jpg,1.0,Purple.png,3.0,46,1.010095,,,,,,,,,,,,,,,,,
1.0,1.0,0.0,14.0,14.0,14.0,1.0,medal_04s.jpg,1.0,Red.png,3.0,46,0.685045,,,,,,,,,,,,,,,,,
0.0,1.0,0.0,15.0,15.0,15.0,1.0,licorice_06s.jpg,0.0,Orange.png,3.0,46,1.064785,,,,,,,,,,,,,,,,,
1.0,1.0,0.0,16.0,16.0,16.0,1.0,medal_04s.jpg,1.0,Yellow.png,3.0,46,1.141275,,,,,,,,,,,,,,,,,
0.0,1.0,0.0,17.0,17.0,17.0,1.0,frog_09s.jpg,0.0,Green.png,3.0,46,0.762095,,,,,,,,,,,,,,,,,
0.0,1.0,0.0,18.0,18.0,18.0,1.0,laser_pointer_02s.jpg,0.0,Blue.png,4.0,46,1.074815,,,,,,,,,,,,,,,,,
0.0,1.0,0.0,19.0,19.0,19.0,1.0,treasure_08s.jpg,0.0,Purple.png,4.0,46,0.663895,,,,,,,,,,,,,,,,,
0.0,1.0,0.0,20.0,20.0,20.0,1.0,padlock_07s.jpg,0.0,Red.png,4.0,46,0.830895,,,,,,,,,,,,,,,,,
0.0,1.0,0.0,21.0,21.0,21.0,1.0,panda_02s.jpg,0.0,Orange.png,4.0,46,1.072515,,,,,,,,,,,,,,,,,
0.0,1.0,0.0,22.0,22.0,22.0,1.0,plunger_08s.jpg,0.0,Yellow.png,4.0,46,1.095745,,,,,,,,,,,,,,,,,
0.0,1.0,0.0,23.0,23.0,23.0,1.0,pancake_12s.jpg,0.0,Green.png,4.0,46,0.75802,,,,,,,,,,,,,,,,,
0.0,1.0,0.0,24.0,24.0,24.0,1.0,fire_pit_10s.jpg,0.0,Blue.png,5.0,46,0.62895,,,,,,,,,,,,,,,,,
0.0,1.0,0.0,25.0,25.0,25.0,1.0,bubble_01b.jpg,0.0,Purple.png,5.0,46,0.549645,,,,,,,,,,,,,,,,,
0.0,0.0,0.0,26.0,26.0,26.0,1.0,bubble_01b.jpg,1.0,Red.png,5.0,46,0.47054,,,,,,,,,,,,,,,,,
1.0,1.0,0.0,27.0,27.0,27.0,1.0,bubble_01b.jpg,1.0,Orange.png,5.0,46,0.557465,,,,,,,,,,,,,,,,,
1.0,1.0,0.0,28.0,28.0,28.0,1.0,bubble_01b.jpg,1.0,Yellow.png,5.0,46,0.67629,,,,,,,,,,,,,,,,,
0.0,1.0,0.0,29.0,29.0,29.0,1.0,power_line_08s.jpg,0.0,Green.png,5.0,46,0.893035,,,,,,,,,,,,,,,,,
1.0,0.0,0.0,30.0,30.0,30.0,1.0,golf_club_03s.jpg,0.0,Blue.png,6.0,46,1.400005,,,,,,,,,,,,,,,,,
0.0,1.0,0.0,31.0,31.0,31.0,1.0,kilt_18s.jpg,0.0,Purple.png,6.0,46,0.444545,,,,,,,,,,,,,,,,,
0.0,1.0,0.0,32.0,32.0,32.0,1.0,tupperware_09s.jpg,0.0,Red.png,6.0,46,0.78535,,,,,,,,,,,,,,,,,
0.0,1.0,0.0,33.0,33.0,33.0,1.0,go-kart_10s.jpg,0.0,Orange.png,6.0,46,0.994145,,,,,,,,,,,,,,,,,
,0.0,0.0,34.0,34.0,34.0,1.0,bottle_opener_11s.jpg,0.0,Yellow.png,6.0,46,,,,,,,,,,,,,,,,,,
1.0,1.0,0.0,35.0,35.0,35.0,1.0,go-kart_10s.jpg,1.0,Green.png,6.0,46,2.17535,,,,,,,,,,,,,,,,,
,,,,,,,,1.0,,,46,,1.0,1.0,1.2715,0.0,0.0,0.0,0.0,1.0,toothpaste_12s.jpg,puck_06s.jpg,,,,,,,
,,,,,,,,0.0,,,46,,1.0,0.0,1.767035,0.0,1.0,1.0,1.0,1.0,padlock_07s.jpg,frog_09s.jpg,,,,,,,
,,,,,,,,0.0,,,46,,0.0,1.0,1.446785,0.0,2.0,2.0,2.0,1.0,plunger_08s.jpg,treasure_08s.jpg,,,,,,,
,,,,,,,,1.0,,,46,,0.0,0.0,1.747485,0.0,3.0,3.0,3.0,1.0,licorice_06s.jpg,laser_pointer_02s.jpg,,,,,,,
,,,,,,,,1.0,,,46,,1.0,1.0,2.11806,0.0,4.0,4.0,4.0,1.0,petri_dish_12s.jpg,potholder_02s.jpg,,,,,,,
,,,,,,,,0.0,,,46,,0.0,1.0,1.730915,0.0,5.0,5.0,5.0,1.0,tupperware_09s.jpg,power_line_08s.jpg,,,,,,,
,,,,,,,,,,,46,,,,,,,,,,,,0.0,6.0,6.0,6.0,1.0,newclockpresent_7_1.xlsx,newclock_compare_task_7_1.xlsx
,0.0,0.0,0.0,0.0,0.0,1.0,toad_09s.jpg,0.0,Blue.png,1.0,46,,,,,,,,,,,,,,,,,,
1.0,1.0,0.0,1.0,1.0,1.0,1.0,toad_09s.jpg,1.0,Purple.png,1.0,46,1.37657,,,,,,,,,,,,,,,,,
0.0,0.0,0.0,2.0,2.0,2.0,1.0,toad_09s.jpg,1.0,Red.png,1.0,46,1.116815,,,,,,,,,,,,,,,,,
0.0,1.0,0.0,3.0,3.0,3.0,1.0,lamb_04s.jpg,0.0,Orange.png,1.0,46,1.775905,,,,,,,,,,,,,,,,,
1.0,1.0,0.0,4.0,4.0,4.0,1.0,toad_09s.jpg,1.0,Yellow.png,1.0,46,1.350655,,,,,,,,,,,,,,,,,
0.0,1.0,0.0,5.0,5.0,5.0,1.0,possum_09s.jpg,0.0,Green.png,1.0,46,1.299985,,,,,,,,,,,,,,,,,
0.0,1.0,0.0,6.0,6.0,6.0,1.0,reindeer_08s.jpg,0.0,Blue.png,2.0,46,1.72737,,,,,,,,,,,,,,,,,
1.0,1.0,0.0,7.0,7.0,7.0,1.0,reindeer_08s.jpg,1.0,Purple.png,2.0,46,0.99838,,,,,,,,,,,,,,,,,
0.0,1.0,0.0,8.0,8.0,8.0,1.0,knot_01b.jpg,0.0,Red.png,2.0,46,1.163715,,,,,,,,,,,,,,,,,
1.0,1.0,0.0,9.0,9.0,9.0,1.0,reindeer_08s.jpg,1.0,Orange.png,2.0,46,1.017685,,,,,,,,,,,,,,,,,
0.0,1.0,0.0,10.0,10.0,10.0,1.0,pan_02s.jpg,0.0,Yellow.png,2.0,46,0.71083,,,,,,,,,,,,,,,,,
0.0,1.0,0.0,11.0,11.0,11.0,1.0,ladle_04s.jpg,0.0,Green.png,2.0,46,0.927955,,,,,,,,,,,,,,,,,
0.0,1.0,0.0,12.0,12.0,12.0,1.0,tuxedo_01b.jpg,0.0,Blue.png,3.0,46,0.67734,,,,,,,,,,,,,,,,,
0.0,1.0,0.0,13.0,13.0,13.0,1.0,lemonade_04s.jpg,0.0,Purple.png,3.0,46,0.650275,,,,,,,,,,,,,,,,,
0.0,1.0,0.0,14.0,14.0,14.0,1.0,cobra_05s.jpg,0.0,Red.png,3.0,46,0.866125,,,,,,,,,,,,,,,,,
0.0,1.0,0.0,15.0,15.0,15.0,1.0,pocketknife_12s.jpg,0.0,Orange.png,3.0,46,1.195485,,,,,,,,,,,,,,,,,
0.0,1.0,0.0,16.0,16.0,16.0,1.0,kettle_08s.jpg,0.0,Yellow.png,3.0,46,1.015085,,,,,,,,,,,,,,,,,
0.0,1.0,0.0,17.0,17.0,17.0,1.0,spider_web_03s.jpg,0.0,Green.png,3.0,46,0.67016,,,,,,,,,,,,,,,,,
0.0,1.0,0.0,18.0,18.0,18.0,1.0,pretzel_09s.jpg,0.0,Blue.png,4.0,46,0.78411,,,,,,,,,,,,,,,,,
0.0,1.0,0.0,19.0,19.0,19.0,1.0,rock_08s.jpg,0.0,Purple.png,4.0,46,0.89511,,,,,,,,,,,,,,,,,
,0.0,0.0,20.0,20.0,20.0,1.0,boar_10s.jpg,0.0,Red.png,4.0,46,,,,,,,,,,,,,,,,,,
0.0,1.0,0.0,21.0,21.0,21.0,1.0,sunglasses_11s.jpg,0.0,Orange.png,4.0,46,0.878075,,,,,,,,,,,,,,,,,
1.0,1.0,0.0,22.0,22.0,22.0,1.0,boar_10s.jpg,1.0,Yellow.png,4.0,46,1.032435,,,,,,,,,,,,,,,,,
0.0,1.0,0.0,23.0,23.0,23.0,1.0,smoothie_09s.jpg,0.0,Green.png,4.0,46,0.69504,,,,,,,,,,,,,,,,,
0.0,1.0,0.0,24.0,24.0,24.0,1.0,latch_15s.jpg,0.0,Blue.png,5.0,46,1.196885,,,,,,,,,,,,,,,,,
0.0,1.0,0.0,25.0,25.0,25.0,1.0,amber_04s.jpg,0.0,Purple.png,5.0,46,0.78717,,,,,,,,,,,,,,,,,
0.0,0.0,0.0,26.0,26.0,26.0,1.0,amber_04s.jpg,1.0,Red.png,5.0,46,0.73911,,,,,,,,,,,,,,,,,
0.0,1.0,0.0,27.0,27.0,27.0,1.0,tennis_ball_06s.jpg,0.0,Orange.png,5.0,46,0.905,,,,,,,,,,,,,,,,,
1.0,1.0,0.0,28.0,28.0,28.0,1.0,amber_04s.jpg,1.0,Yellow.png,5.0,46,0.71113,,,,,,,,,,,,,,,,,
0.0,1.0,0.0,29.0,29.0,29.0,1.0,milk_02s.jpg,0.0,Green.png,5.0,46,0.92746,,,,,,,,,,,,,,,,,
0.0,1.0,0.0,30.0,30.0,30.0,1.0,coat_rack_01b.jpg,0.0,Blue.png,6.0,46,0.954315,,,,,,,,,,,,,,,,,
0.0,1.0,0.0,31.0,31.0,31.0,1.0,thorn_13s.jpg,0.0,Purple.png,6.0,46,0.915945,,,,,,,,,,,,,,,,,
0.0,0.0,0.0,32.0,32.0,32.0,1.0,coat_rack_01b.jpg,1.0,Red.png,6.0,46,0.764235,,,,,,,,,,,,,,,,,
0.0,1.0,0.0,33.0,33.0,33.0,1.0,razor_blade_01b.jpg,0.0,Orange.png,6.0,46,1.163705,,,,,,,,,,,,,,,,,
0.0,1.0,0.0,34.0,34.0,34.0,1.0,lid_10s.jpg,0.0,Yellow.png,6.0,46,0.54195,,,,,,,,,,,,,,,,,
1.0,1.0,0.0,35.0,35.0,35.0,1.0,lid_10s.jpg,1.0,Green.png,6.0,46,1.67075,,,,,,,,,,,,,,,,,
,,,,,,,,0.0,,,46,,1.0,0.0,1.142335,0.0,0.0,0.0,0.0,1.0,pocketknife_12s.jpg,tuxedo_01b.jpg,,,,,,,
,,,,,,,,1.0,,,46,,1.0,1.0,1.32261,0.0,1.0,1.0,1.0,1.0,possum_09s.jpg,knot_01b.jpg,,,,,,,
,,,,,,,,1.0,,,46,,0.0,0.0,0.763915,0.0,2.0,2.0,2.0,1.0,pan_02s.jpg,lemonade_04s.jpg,,,,,,,
,,,,,,,,0.0,,,46,,1.0,0.0,0.89515,0.0,3.0,3.0,3.0,1.0,tennis_ball_06s.jpg,latch_15s.jpg,,,,,,,
,,,,,,,,0.0,,,46,,0.0,1.0,1.67071,0.0,4.0,4.0,4.0,1.0,rock_08s.jpg,kettle_08s.jpg,,,,,,,
,,,,,,,,1.0,,,46,,0.0,0.0,1.43609,0.0,5.0,5.0,5.0,1.0,cobra_05s.jpg,spider_web_03s.jpg,,,,,,,
,,,,,,,,,,,46,,,,,,,,,,,,0.0,7.0,7.0,7.0,1.0,newclockpresent_8_1.xlsx,newclock_compare_task_8_1.xlsx
0.0,1.0,0.0,0.0,0.0,0.0,1.0,recliner_02s.jpg,0.0,Blue.png,1.0,46,1.58069,,,,,,,,,,,,,,,,,
0.0,1.0,0.0,1.0,1.0,1.0,1.0,lava_02s.jpg,0.0,Purple.png,1.0,46,0.88374,,,,,,,,,,,,,,,,,
0.0,1.0,0.0,2.0,2.0,2.0,1.0,quesadilla_07s.jpg,0.0,Red.png,1.0,46,0.65006,,,,,,,,,,,,,,,,,
,0.0,0.0,3.0,3.0,3.0,1.0,chalice_10s.jpg,0.0,Orange.png,1.0,46,,,,,,,,,,,,,,,,,,
0.0,1.0,0.0,4.0,4.0,4.0,1.0,tulip_02s.jpg,0.0,Yellow.png,1.0,46,0.783005,,,,,,,,,,,,,,,,,
1.0,1.0,0.0,5.0,5.0,5.0,1.0,quesadilla_07s.jpg,1.0,Green.png,1.0,46,1.051075,,,,,,,,,,,,,,,,,
0.0,1.0,0.0,6.0,6.0,6.0,1.0,lamppost_09s.jpg,0.0,Blue.png,2.0,46,0.75925,,,,,,,,,,,,,,,,,
0.0,1.0,0.0,7.0,7.0,7.0,1.0,chopsticks_08s.jpg,0.0,Purple.png,2.0,46,0.776265,,,,,,,,,,,,,,,,,
0.0,1.0,0.0,8.0,8.0,8.0,1.0,refrigerator_07s.jpg,0.0,Red.png,2.0,46,0.88918,,,,,,,,,,,,,,,,,
1.0,1.0,0.0,9.0,9.0,9.0,1.0,chopsticks_08s.jpg,1.0,Orange.png,2.0,46,0.78378,,,,,,,,,,,,,,,,,
0.0,1.0,0.0,10.0,10.0,10.0,1.0,paper_towel_03s.jpg,0.0,Yellow.png,2.0,46,0.722605,,,,,,,,,,,,,,,,,
0.0,1.0,0.0,11.0,11.0,11.0,1.0,flask_04s.jpg,0.0,Green.png,2.0,46,0.951615,,,,,,,,,,,,,,,,,
0.0,1.0,0.0,12.0,12.0,12.0,1.0,pantyhose_07s.jpg,0.0,Blue.png,3.0,46,1.569385,,,,,,,,,,,,,,,,,
,0.0,0.0,13.0,13.0,13.0,1.0,flask_04s.jpg,0.0,Purple.png,3.0,46,,,,,,,,,,,,,,,,,,
0.0,1.0,0.0,14.0,14.0,14.0,1.0,chopsticks_08s.jpg,0.0,Red.png,3.0,46,2.184035,,,,,,,,,,,,,,,,,
,0.0,0.0,15.0,15.0,15.0,1.0,seahorse_13s.jpg,0.0,Orange.png,3.0,46,,,,,,,,,,,,,,,,,,
0.0,1.0,0.0,16.0,16.0,16.0,1.0,pencil_sharpener_09n.jpg,0.0,Yellow.png,3.0,46,0.600355,,,,,,,,,,,,,,,,,
0.0,1.0,0.0,17.0,17.0,17.0,1.0,clover_04s.jpg,0.0,Green.png,3.0,46,0.875735,,,,,,,,,,,,,,,,,
0.0,1.0,0.0,18.0,18.0,18.0,1.0,pencil_sharpener_09n.jpg,0.0,Blue.png,4.0,46,1.51747,,,,,,,,,,,,,,,,,
0.0,1.0,0.0,19.0,19.0,19.0,1.0,fishhook_06s.jpg,0.0,Purple.png,4.0,46,0.966835,,,,,,,,,,,,,,,,,
1.0,0.0,0.0,20.0,20.0,20.0,1.0,clover_04s.jpg,0.0,Red.png,4.0,46,1.422585,,,,,,,,,,,,,,,,,
0.0,1.0,0.0,21.0,21.0,21.0,1.0,stopwatch_04s.jpg,0.0,Orange.png,4.0,46,0.783785,,,,,,,,,,,,,,,,,
0.0,1.0,0.0,22.0,22.0,22.0,1.0,comic_book_02s.jpg,0.0,Yellow.png,4.0,46,0.98533,,,,,,,,,,,,,,,,,
0.0,1.0,0.0,23.0,23.0,23.0,1.0,lab_coat_11s.jpg,0.0,Green.png,4.0,46,0.800245,,,,,,,,,,,,,,,,,
0.0,1.0,0.0,24.0,24.0,24.0,1.0,bolo_tie_08s.jpg,0.0,Blue.png,5.0,46,0.917495,,,,,,,,,,,,,,,,,
0.0,1.0,0.0,25.0,25.0,25.0,1.0,teacup_07s.jpg,0.0,Purple.png,5.0,46,0.42478,,,,,,,,,,,,,,,,,
0.0,1.0,0.0,26.0,26.0,26.0,1.0,eyedropper_12s.jpg,0.0,Red.png,5.0,46,0.60099,,,,,,,,,,,,,,,,,
0.0,1.0,0.0,27.0,27.0,27.0,1.0,frame_06s.jpg,0.0,Orange.png,5.0,46,0.818205,,,,,,,,,,,,,,,,,
0.0,1.0,0.0,28.0,28.0,28.0,1.0,treadmill_06s.jpg,0.0,Yellow.png,5.0,46,0.823515,,,,,,,,,,,,,,,,,
0.0,1.0,0.0,29.0,29.0,29.0,1.0,mug_06s.jpg,0.0,Green.png,5.0,46,0.70831,,,,,,,,,,,,,,,,,
0.0,1.0,0.0,30.0,30.0,30.0,1.0,mug_06s.jpg,0.0,Blue.png,6.0,46,0.935965,,,,,,,,,,,,,,,,,
1.0,1.0,0.0,31.0,31.0,31.0,1.0,mug_06s.jpg,1.0,Purple.png,6.0,46,0.726125,,,,,,,,,,,,,,,,,
0.0,1.0,0.0,32.0,32.0,32.0,1.0,chip_04s.jpg,0.0,Red.png,6.0,46,0.80753,,,,,,,,,,,,,,,,,
0.0,1.0,0.0,33.0,33.0,33.0,1.0,gazelle_10s.jpg,0.0,Orange.png,6.0,46,0.95132,,,,,,,,,,,,,,,,,
1.0,1.0,0.0,34.0,34.0,34.0,1.0,chip_04s.jpg,1.0,Yellow.png,6.0,46,1.88457,,,,,,,,,,,,,,,,,
0.0,1.0,0.0,35.0,35.0,35.0,1.0,quill_09s.jpg,0.0,Green.png,6.0,46,2.306995,,,,,,,,,,,,,,,,,
,,,,,,,,0.0,,,46,,1.0,0.0,1.151245,0.0,0.0,0.0,0.0,1.0,bolo_tie_08s.jpg,stopwatch_04s.jpg,,,,,,,
,,,,,,,,0.0,,,46,,0.0,1.0,0.667105,0.0,1.0,1.0,1.0,1.0,lamppost_09s.jpg,chalice_10s.jpg,,,,,,,
,,,,,,,,0.0,,,46,,1.0,0.0,0.667755,0.0,2.0,2.0,2.0,1.0,eyedropper_12s.jpg,lab_coat_11s.jpg,,,,,,,
,,,,,,,,1.0,,,46,,0.0,0.0,0.41713,0.0,3.0,3.0,3.0,1.0,lava_02s.jpg,tulip_02s.jpg,,,,,,,
,,,,,,,,0.0,,,46,,1.0,0.0,0.483765,0.0,4.0,4.0,4.0,1.0,seahorse_13s.jpg,pantyhose_07s.jpg,,,,,,,
,,,,,,,,1.0,,,46,,0.0,0.0,0.79366,0.0,5.0,5.0,5.0,1.0,fishhook_06s.jpg,comic_book_02s.jpg,,,,,,,
,,,,,,,,,,,46,,,,,,,,,,,,0.0,8.0,8.0,8.0,1.0,newclockpresent_9_1.xlsx,newclock_compare_task_9_1.xlsx
