key_resp.keys,key_resp.corr,key_resp.rt,present_segment.thisRepN,present_segment.thisTrialN,present_segment.thisN,present_segment.thisIndex,present_segment.ran,pictures,answer,clock,segment,participant,key_resp_2.keys,key_resp_2.corr,key_resp_2.rt,compare_segment.thisRepN,compare_segment.thisTrialN,compare_segment.thisN,compare_segment.thisIndex,compare_segment.ran,item_a,item_b,clock_conditions.thisRepN,clock_conditions.thisTrialN,clock_conditions.thisN,clock_conditions.thisIndex,clock_conditions.ran,present,compare
0.0,1.0,1.08715,0.0,0.0,0.0,0.0,1.0,mirror_12s.jpg,0.0,Blue.png,1.0,91,,,,,,,,,,,,,,,,,
0.0,1.0,0.861695,0.0,1.0,1.0,1.0,1.0,polaroid_05s.jpg,0.0,Purple.png,1.0,91,,,,,,,,,,,,,,,,,
1.0,1.0,0.837005,0.0,2.0,2.0,2.0,1.0,polaroid_05s.jpg,1.0,Red.png,1.0,91,,,,,,,,,,,,,,,,,
0.0,1.0,0.657675,0.0,3.0,3.0,3.0,1.0,slingshot_07s.jpg,0.0,Orange.png,1.0,91,,,,,,,,,,,,,,,,,
1.0,1.0,1.16989,0.0,4.0,4.0,4.0,1.0,polaroid_05s.jpg,1.0,Yellow.png,1.0,91,,,,,,,,,,,,,,,,,
0.0,1.0,0.72369,0.0,5.0,5.0,5.0,1.0,kettle_08s.jpg,0.0,Green.png,1.0,91,,,,,,,,,,,,,,,,,
0.0,1.0,0.573985,0.0,6.0,6.0,6.0,1.0,crystal_ball_12s.jpg,0.0,Blue.png,2.0,91,,,,,,,,,,,,,,,,,
0.0,1.0,0.79409,0.0,7.0,7.0,7.0,1.0,iron_13s.jpg,0.0,Purple.png,2.0,91,,,,,,,,,,,,,,,,,
0.0,1.0,0.76952,0.0,8.0,8.0,8.0,1.0,saddle_06s.jpg,0.0,Red.png,2.0,91,,,,,,,,,,,,,,,,,
0.0,1.0,0.8041,0.0,9.0,9.0,9.0,1.0,mango_09s.jpg,0.0,Orange.png,2.0,91,,,,,,,,,,,,,,,,,
0.0,1.0,0.786745,0.0,10.0,10.0,10.0,1.0,ostrich_06s.jpg,0.0,Yellow.png,2.0,91,,,,,,,,,,,,,,,,,
1.0,1.0,0.75983,0.0,11.0,11.0,11.0,1.0,iron_13s.jpg,1.0,Green.png,2.0,91,,,,,,,,,,,,,,,,,
0.0,1.0,0.835245,0.0,12.0,12.0,12.0,1.0,stethoscope_01b.jpg,0.0,Blue.png,3.0,91,,,,,,,,,,,,,,,,,
0.0,1.0,0.644885,0.0,13.0,13.0,13.0,1.0,ruby_15s.jpg,0.0,Purple.png,3.0,91,,,,,,,,,,,,,,,,,
0.0,1.0,0.822135,0.0,14.0,14.0,14.0,1.0,mango_09s.jpg,0.0,Red.png,3.0,91,,,,,,,,,,,,,,,,,
0.0,1.0,0.688225,0.0,15.0,15.0,15.0,1.0,target_11s.jpg,0.0,Orange.png,3.0,91,,,,,,,,,,,,,,,,,
1.0,1.0,0.86873,0.0,16.0,16.0,16.0,1.0,mango_09s.jpg,1.0,Yellow.png,3.0,91,,,,,,,,,,,,,,,,,
0.0,1.0,0.662555,0.0,17.0,17.0,17.0,1.0,compass_10n.jpg,0.0,Green.png,3.0,91,,,,,,,,,,,,,,,,,
0.0,1.0,0.490005,0.0,18.0,18.0,18.0,1.0,meatball_13s.jpg,0.0,Blue.png,4.0,91,,,,,,,,,,,,,,,,,
0.0,1.0,0.551225,0.0,19.0,19.0,19.0,1.0,stapler_01b.jpg,0.0,Purple.png,4.0,91,,,,,,,,,,,,,,,,,
1.0,1.0,0.86098,0.0,20.0,20.0,20.0,1.0,meatball_13s.jpg,1.0,Red.png,4.0,91,,,,,,,,,,,,,,,,,
0.0,1.0,0.79973,0.0,21.0,21.0,21.0,1.0,pump_11s.jpg,0.0,Orange.png,4.0,91,,,,,,,,,,,,,,,,,
0.0,1.0,1.702425,0.0,22.0,22.0,22.0,1.0,coral_08s.jpg,0.0,Yellow.png,4.0,91,,,,,,,,,,,,,,,,,
1.0,1.0,0.884335,0.0,23.0,23.0,23.0,1.0,meatball_13s.jpg,1.0,Green.png,4.0,91,,,,,,,,,,,,,,,,,
0.0,1.0,0.59059,0.0,24.0,24.0,24.0,1.0,peach_04s.jpg,0.0,Blue.png,5.0,91,,,,,,,,,,,,,,,,,
0.0,1.0,1.16797,0.0,25.0,25.0,25.0,1.0,meatball_13s.jpg,0.0,Purple.png,5.0,91,,,,,,,,,,,,,,,,,
0.0,1.0,0.77755,0.0,26.0,26.0,26.0,1.0,pie_08s.jpg,0.0,Red.png,5.0,91,,,,,,,,,,,,,,,,,
0.0,1.0,0.794695,0.0,27.0,27.0,27.0,1.0,rollerskate_03s.jpg,0.0,Orange.png,5.0,91,,,,,,,,,,,,,,,,,
0.0,1.0,0.88414,0.0,28.0,28.0,28.0,1.0,trampoline_13s.jpg,0.0,Yellow.png,5.0,91,,,,,,,,,,,,,,,,,
0.0,1.0,0.69351,0.0,29.0,29.0,29.0,1.0,undershirt_02s.jpg,0.0,Green.png,5.0,91,,,,,,,,,,,,,,,,,
0.0,1.0,0.51433,0.0,30.0,30.0,30.0,1.0,thread_08s.jpg,0.0,Blue.png,6.0,91,,,,,,,,,,,,,,,,,
0.0,1.0,0.80413,0.0,31.0,31.0,31.0,1.0,megaphone_03s.jpg,0.0,Purple.png,6.0,91,,,,,,,,,,,,,,,,,
0.0,1.0,0.69944,0.0,32.0,32.0,32.0,1.0,plaster_cast_13s.jpg,0.0,Red.png,6.0,91,,,,,,,,,,,,,,,,,
0.0,1.0,0.709005,0.0,33.0,33.0,33.0,1.0,diving_board_07s.jpg,0.0,Orange.png,6.0,91,,,,,,,,,,,,,,,,,
0.0,1.0,0.788495,0.0,34.0,34.0,34.0,1.0,kayak_08s.jpg,0.0,Yellow.png,6.0,91,,,,,,,,,,,,,,,,,
1.0,1.0,0.83901,0.0,35.0,35.0,35.0,1.0,diving_board_07s.jpg,1.0,Green.png,6.0,91,,,,,,,,,,,,,,,,,
,,,,,,,,,1.0,,,91,1.0,1.0,2.01022,0.0,0.0,0.0,0.0,1.0,stapler_01b.jpg,coral_08s.jpg,,,,,,,
,,,,,,,,,1.0,,,91,0.0,0.0,2.787475,0.0,1.0,1.0,1.0,1.0,slingshot_07s.jpg,crystal_ball_12s.jpg,,,,,,,
,,,,,,,,,0.0,,,91,0.0,1.0,2.04489,0.0,2.0,2.0,2.0,1.0,saddle_06s.jpg,kettle_08s.jpg,,,,,,,
,,,,,,,,,1.0,,,91,1.0,1.0,1.490515,0.0,3.0,3.0,3.0,1.0,pie_08s.jpg,undershirt_02s.jpg,,,,,,,
,,,,,,,,,1.0,,,91,1.0,1.0,1.60543,0.0,4.0,4.0,4.0,1.0,stethoscope_01b.jpg,target_11s.jpg,,,,,,,
,,,,,,,,,1.0,,,91,0.0,0.0,2.287645,0.0,5.0,5.0,5.0,1.0,ostrich_06s.jpg,ruby_15s.jpg,,,,,,,
,,,,,,,,,,,,91,,,,,,,,,,,0.0,0.0,0.0,0.0,1.0,newclockpresent_1_4.xlsx,newclock_compare_task_1_4.xlsx
0.0,1.0,1.256235,0.0,0.0,0.0,0.0,1.0,jetski_10s.jpg,0.0,Blue.png,1.0,91,,,,,,,,,,,,,,,,,
0.0,1.0,0.67956,0.0,1.0,1.0,1.0,1.0,tripod_01b.jpg,0.0,Purple.png,1.0,91,,,,,,,,,,,,,,,,,
0.0,1.0,0.75019,0.0,2.0,2.0,2.0,1.0,lab_coat_11s.jpg,0.0,Red.png,1.0,91,,,,,,,,,,,,,,,,,
0.0,1.0,1.07101,0.0,3.0,3.0,3.0,1.0,foam_03s.jpg,0.0,Orange.png,1.0,91,,,,,,,,,,,,,,,,,
0.0,1.0,0.7163,0.0,4.0,4.0,4.0,1.0,crate_05s.jpg,0.0,Yellow.png,1.0,91,,,,,,,,,,,,,,,,,
0.0,1.0,0.97273,0.0,5.0,5.0,5.0,1.0,margarita_03s.jpg,0.0,Green.png,1.0,91,,,,,,,,,,,,,,,,,
0.0,1.0,1.030745,0.0,6.0,6.0,6.0,1.0,joystick_01b.jpg,0.0,Blue.png,2.0,91,,,,,,,,,,,,,,,,,
0.0,1.0,0.646545,0.0,7.0,7.0,7.0,1.0,giraffe_11s.jpg,0.0,Purple.png,2.0,91,,,,,,,,,,,,,,,,,
0.0,1.0,0.65418,0.0,8.0,8.0,8.0,1.0,quilt_03s.jpg,0.0,Red.png,2.0,91,,,,,,,,,,,,,,,,,
1.0,1.0,0.94689,0.0,9.0,9.0,9.0,1.0,giraffe_11s.jpg,1.0,Orange.png,2.0,91,,,,,,,,,,,,,,,,,
0.0,1.0,1.20466,0.0,10.0,10.0,10.0,1.0,pincushion_10s.jpg,0.0,Yellow.png,2.0,91,,,,,,,,,,,,,,,,,
1.0,1.0,0.73993,0.0,11.0,11.0,11.0,1.0,giraffe_11s.jpg,1.0,Green.png,2.0,91,,,,,,,,,,,,,,,,,
0.0,1.0,1.54339,0.0,12.0,12.0,12.0,1.0,pincushion_10s.jpg,0.0,Blue.png,3.0,91,,,,,,,,,,,,,,,,,
0.0,1.0,0.54911,0.0,13.0,13.0,13.0,1.0,giraffe_11s.jpg,0.0,Purple.png,3.0,91,,,,,,,,,,,,,,,,,
0.0,1.0,0.820675,0.0,14.0,14.0,14.0,1.0,rolling_pin_02s.jpg,0.0,Red.png,3.0,91,,,,,,,,,,,,,,,,,
0.0,1.0,0.765365,0.0,15.0,15.0,15.0,1.0,ticktacktoe_08s.jpg,0.0,Orange.png,3.0,91,,,,,,,,,,,,,,,,,
1.0,1.0,0.710585,0.0,16.0,16.0,16.0,1.0,giraffe_11s.jpg,1.0,Yellow.png,3.0,91,,,,,,,,,,,,,,,,,
1.0,1.0,0.902265,0.0,17.0,17.0,17.0,1.0,ticktacktoe_08s.jpg,1.0,Green.png,3.0,91,,,,,,,,,,,,,,,,,
0.0,1.0,0.57313,0.0,18.0,18.0,18.0,1.0,typewriter_11s.jpg,0.0,Blue.png,4.0,91,,,,,,,,,,,,,,,,,
0.0,1.0,0.71527,0.0,19.0,19.0,19.0,1.0,toothpaste_12s.jpg,0.0,Purple.png,4.0,91,,,,,,,,,,,,,,,,,
0.0,1.0,0.880985,0.0,20.0,20.0,20.0,1.0,hummingbird_05s.jpg,0.0,Red.png,4.0,91,,,,,,,,,,,,,,,,,
1.0,1.0,0.92703,0.0,21.0,21.0,21.0,1.0,toothpaste_12s.jpg,1.0,Orange.png,4.0,91,,,,,,,,,,,,,,,,,
1.0,1.0,1.061485,0.0,22.0,22.0,22.0,1.0,toothpaste_12s.jpg,1.0,Yellow.png,4.0,91,,,,,,,,,,,,,,,,,
0.0,1.0,0.78616,0.0,23.0,23.0,23.0,1.0,treadmill_06s.jpg,0.0,Green.png,4.0,91,,,,,,,,,,,,,,,,,
0.0,1.0,0.59818,0.0,24.0,24.0,24.0,1.0,typewriter_11s.jpg,0.0,Blue.png,5.0,91,,,,,,,,,,,,,,,,,
0.0,1.0,0.811795,0.0,25.0,25.0,25.0,1.0,penguin_16s.jpg,0.0,Purple.png,5.0,91,,,,,,,,,,,,,,,,,
0.0,1.0,0.718845,0.0,26.0,26.0,26.0,1.0,olive_05s.jpg,0.0,Red.png,5.0,91,,,,,,,,,,,,,,,,,
1.0,1.0,0.760485,0.0,27.0,27.0,27.0,1.0,penguin_16s.jpg,1.0,Orange.png,5.0,91,,,,,,,,,,,,,,,,,
1.0,1.0,0.77855,0.0,28.0,28.0,28.0,1.0,penguin_16s.jpg,1.0,Yellow.png,5.0,91,,,,,,,,,,,,,,,,,
0.0,1.0,0.81999,0.0,29.0,29.0,29.0,1.0,tab_09s.jpg,0.0,Green.png,5.0,91,,,,,,,,,,,,,,,,,
0.0,1.0,0.72304,0.0,30.0,30.0,30.0,1.0,frame_06s.jpg,0.0,Blue.png,6.0,91,,,,,,,,,,,,,,,,,
0.0,1.0,0.980235,0.0,31.0,31.0,31.0,1.0,mop_08s.jpg,0.0,Purple.png,6.0,91,,,,,,,,,,,,,,,,,
0.0,1.0,0.593885,0.0,32.0,32.0,32.0,1.0,memory_stick_11s.jpg,0.0,Red.png,6.0,91,,,,,,,,,,,,,,,,,
0.0,1.0,0.881895,0.0,33.0,33.0,33.0,1.0,olive_05s.jpg,0.0,Orange.png,6.0,91,,,,,,,,,,,,,,,,,
0.0,1.0,0.759665,0.0,34.0,34.0,34.0,1.0,ravioli_08s.jpg,0.0,Yellow.png,6.0,91,,,,,,,,,,,,,,,,,
0.0,1.0,0.83414,0.0,35.0,35.0,35.0,1.0,mousetrap_15n.jpg,0.0,Green.png,6.0,91,,,,,,,,,,,,,,,,,
,,,,,,,,,1.0,,,91,1.0,1.0,1.72049,0.0,0.0,0.0,0.0,1.0,hummingbird_05s.jpg,treadmill_06s.jpg,,,,,,,
,,,,,,,,,1.0,,,91,1.0,1.0,3.227315,0.0,1.0,1.0,1.0,1.0,margarita_03s.jpg,quilt_03s.jpg,,,,,,,
,,,,,,,,,0.0,,,91,1.0,0.0,2.79662,0.0,2.0,2.0,2.0,1.0,joystick_01b.jpg,foam_03s.jpg,,,,,,,
,,,,,,,,,0.0,,,91,0.0,1.0,1.396815,0.0,3.0,3.0,3.0,1.0,ravioli_08s.jpg,mop_08s.jpg,,,,,,,
,,,,,,,,,1.0,,,91,1.0,1.0,1.614215,0.0,4.0,4.0,4.0,1.0,tab_09s.jpg,memory_stick_11s.jpg,,,,,,,
,,,,,,,,,1.0,,,91,1.0,1.0,1.753405,0.0,5.0,5.0,5.0,1.0,tripod_01b.jpg,crate_05s.jpg,,,,,,,
,,,,,,,,,,,,91,,,,,,,,,,,0.0,1.0,1.0,1.0,1.0,newclockpresent_2_4.xlsx,newclock_compare_task_2_4.xlsx
0.0,1.0,1.26174,0.0,0.0,0.0,0.0,1.0,safety_pin_02s.jpg,0.0,Blue.png,1.0,91,,,,,,,,,,,,,,,,,
1.0,1.0,1.01747,0.0,1.0,1.0,1.0,1.0,safety_pin_02s.jpg,1.0,Purple.png,1.0,91,,,,,,,,,,,,,,,,,
0.0,1.0,0.62441,0.0,2.0,2.0,2.0,1.0,cardinal_07s.jpg,0.0,Red.png,1.0,91,,,,,,,,,,,,,,,,,
1.0,1.0,1.069015,0.0,3.0,3.0,3.0,1.0,safety_pin_02s.jpg,1.0,Orange.png,1.0,91,,,,,,,,,,,,,,,,,
0.0,1.0,0.683895,0.0,4.0,4.0,4.0,1.0,potholder_02s.jpg,0.0,Yellow.png,1.0,91,,,,,,,,,,,,,,,,,
1.0,1.0,0.96187,0.0,5.0,5.0,5.0,1.0,safety_pin_02s.jpg,1.0,Green.png,1.0,91,,,,,,,,,,,,,,,,,
0.0,1.0,0.879735,0.0,6.0,6.0,6.0,1.0,cardinal_07s.jpg,0.0,Blue.png,2.0,91,,,,,,,,,,,,,,,,,
0.0,1.0,0.655875,0.0,7.0,7.0,7.0,1.0,lion_18s.jpg,0.0,Purple.png,2.0,91,,,,,,,,,,,,,,,,,
0.0,1.0,0.78423,0.0,8.0,8.0,8.0,1.0,comic_book_02s.jpg,0.0,Red.png,2.0,91,,,,,,,,,,,,,,,,,
0.0,1.0,0.692175,0.0,9.0,9.0,9.0,1.0,lizard_10n.jpg,0.0,Orange.png,2.0,91,,,,,,,,,,,,,,,,,
0.0,1.0,0.716235,0.0,10.0,10.0,10.0,1.0,rice_12s.jpg,0.0,Yellow.png,2.0,91,,,,,,,,,,,,,,,,,
0.0,1.0,0.71319,0.0,11.0,11.0,11.0,1.0,bagel_15s.jpg,0.0,Green.png,2.0,91,,,,,,,,,,,,,,,,,
0.0,1.0,0.627945,0.0,12.0,12.0,12.0,1.0,recliner_02s.jpg,0.0,Blue.png,3.0,91,,,,,,,,,,,,,,,,,
1.0,1.0,0.984185,0.0,13.0,13.0,13.0,1.0,recliner_02s.jpg,1.0,Purple.png,3.0,91,,,,,,,,,,,,,,,,,
0.0,1.0,0.93337,0.0,14.0,14.0,14.0,1.0,luggage_08s.jpg,0.0,Red.png,3.0,91,,,,,,,,,,,,,,,,,
1.0,1.0,0.80601,0.0,15.0,15.0,15.0,1.0,recliner_02s.jpg,1.0,Orange.png,3.0,91,,,,,,,,,,,,,,,,,
0.0,1.0,0.54414,0.0,16.0,16.0,16.0,1.0,onion_10s.jpg,0.0,Yellow.png,3.0,91,,,,,,,,,,,,,,,,,
0.0,1.0,1.010565,0.0,17.0,17.0,17.0,1.0,rosary_03s.jpg,0.0,Green.png,3.0,91,,,,,,,,,,,,,,,,,
0.0,1.0,0.73035,0.0,18.0,18.0,18.0,1.0,smokingpipe.jpg,0.0,Blue.png,4.0,91,,,,,,,,,,,,,,,,,
0.0,1.0,0.750905,0.0,19.0,19.0,19.0,1.0,roulette_wheel_04s.jpg,0.0,Purple.png,4.0,91,,,,,,,,,,,,,,,,,
1.0,1.0,0.93356,0.0,20.0,20.0,20.0,1.0,smokingpipe.jpg,1.0,Red.png,4.0,91,,,,,,,,,,,,,,,,,
0.0,1.0,0.820015,0.0,21.0,21.0,21.0,1.0,orchid_01b.jpg,0.0,Orange.png,4.0,91,,,,,,,,,,,,,,,,,
0.0,1.0,0.748935,0.0,22.0,22.0,22.0,1.0,buoy_04s.jpg,0.0,Yellow.png,4.0,91,,,,,,,,,,,,,,,,,
0.0,1.0,0.79038,0.0,23.0,23.0,23.0,1.0,stopwatch_04s.jpg,0.0,Green.png,4.0,91,,,,,,,,,,,,,,,,,
0.0,1.0,0.84299,0.0,24.0,24.0,24.0,1.0,knitting_needle_04s.jpg,0.0,Blue.png,5.0,91,,,,,,,,,,,,,,,,,
0.0,1.0,0.94405,0.0,25.0,25.0,25.0,1.0,prism_10s.jpg,0.0,Purple.png,5.0,91,,,,,,,,,,,,,,,,,
0.0,1.0,0.669245,0.0,26.0,26.0,26.0,1.0,teapot_03s.jpg,0.0,Red.png,5.0,91,,,,,,,,,,,,,,,,,
0.0,1.0,0.68929,0.0,27.0,27.0,27.0,1.0,fire_pit_10s.jpg,0.0,Orange.png,5.0,91,,,,,,,,,,,,,,,,,
1.0,1.0,0.760075,0.0,28.0,28.0,28.0,1.0,fire_pit_10s.jpg,1.0,Yellow.png,5.0,91,,,,,,,,,,,,,,,,,
1.0,1.0,0.76128,0.0,29.0,29.0,29.0,1.0,fire_pit_10s.jpg,1.0,Green.png,5.0,91,,,,,,,,,,,,,,,,,
0.0,1.0,0.628685,0.0,30.0,30.0,30.0,1.0,ironing_board_07s.jpg,0.0,Blue.png,6.0,91,,,,,,,,,,,,,,,,,
0.0,1.0,0.683615,0.0,31.0,31.0,31.0,1.0,fire_pit_10s.jpg,0.0,Purple.png,6.0,91,,,,,,,,,,,,,,,,,
0.0,1.0,0.792515,0.0,32.0,32.0,32.0,1.0,mattress_01s.jpg,0.0,Red.png,6.0,91,,,,,,,,,,,,,,,,,
1.0,1.0,0.688365,0.0,33.0,33.0,33.0,1.0,fire_pit_10s.jpg,1.0,Orange.png,6.0,91,,,,,,,,,,,,,,,,,
1.0,1.0,1.03947,0.0,34.0,34.0,34.0,1.0,mattress_01s.jpg,1.0,Yellow.png,6.0,91,,,,,,,,,,,,,,,,,
0.0,1.0,0.683915,0.0,35.0,35.0,35.0,1.0,ice-cream_cone_06s.jpg,0.0,Green.png,6.0,91,,,,,,,,,,,,,,,,,
,,,,,,,,,1.0,,,91,1.0,1.0,3.806615,0.0,0.0,0.0,0.0,1.0,roulette_wheel_04s.jpg,buoy_04s.jpg,,,,,,,
,,,,,,,,,0.0,,,91,0.0,1.0,1.778125,0.0,1.0,1.0,1.0,1.0,lion_18s.jpg,potholder_02s.jpg,,,,,,,
,,,,,,,,,0.0,,,91,0.0,1.0,1.958365,0.0,2.0,2.0,2.0,1.0,bagel_15s.jpg,comic_book_02s.jpg,,,,,,,
,,,,,,,,,1.0,,,91,1.0,1.0,2.84877,0.0,3.0,3.0,3.0,1.0,stopwatch_04s.jpg,teapot_03s.jpg,,,,,,,
,,,,,,,,,1.0,,,91,1.0,1.0,2.9592,0.0,4.0,4.0,4.0,1.0,luggage_08s.jpg,rosary_03s.jpg,,,,,,,
,,,,,,,,,1.0,,,91,1.0,1.0,1.976955,0.0,5.0,5.0,5.0,1.0,orchid_01b.jpg,knitting_needle_04s.jpg,,,,,,,
,,,,,,,,,,,,91,,,,,,,,,,,0.0,2.0,2.0,2.0,1.0,newclockpresent_3_4.xlsx,newclock_compare_task_3_4.xlsx
0.0,1.0,1.25861,0.0,0.0,0.0,0.0,1.0,smoothie_09s.jpg,0.0,Blue.png,1.0,91,,,,,,,,,,,,,,,,,
0.0,1.0,0.830245,0.0,1.0,1.0,1.0,1.0,raspberry_12s.jpg,0.0,Purple.png,1.0,91,,,,,,,,,,,,,,,,,
1.0,1.0,0.85871,0.0,2.0,2.0,2.0,1.0,raspberry_12s.jpg,1.0,Red.png,1.0,91,,,,,,,,,,,,,,,,,
0.0,1.0,0.6694,0.0,3.0,3.0,3.0,1.0,lamb_chop_07s.jpg,0.0,Orange.png,1.0,91,,,,,,,,,,,,,,,,,
1.0,1.0,0.89991,0.0,4.0,4.0,4.0,1.0,smoothie_09s.jpg,1.0,Yellow.png,1.0,91,,,,,,,,,,,,,,,,,
1.0,1.0,1.029815,0.0,5.0,5.0,5.0,1.0,raspberry_12s.jpg,1.0,Green.png,1.0,91,,,,,,,,,,,,,,,,,
0.0,1.0,0.41905,0.0,6.0,6.0,6.0,1.0,lava_02s.jpg,0.0,Blue.png,2.0,91,,,,,,,,,,,,,,,,,
0.0,1.0,0.850205,0.0,7.0,7.0,7.0,1.0,trident_07s.jpg,0.0,Purple.png,2.0,91,,,,,,,,,,,,,,,,,
1.0,1.0,0.70939,0.0,8.0,8.0,8.0,1.0,trident_07s.jpg,1.0,Red.png,2.0,91,,,,,,,,,,,,,,,,,
1.0,1.0,0.68695,0.0,9.0,9.0,9.0,1.0,trident_07s.jpg,1.0,Orange.png,2.0,91,,,,,,,,,,,,,,,,,
0.0,1.0,0.75161,0.0,10.0,10.0,10.0,1.0,orangutan_03s.jpg,0.0,Yellow.png,2.0,91,,,,,,,,,,,,,,,,,
1.0,1.0,0.786805,0.0,11.0,11.0,11.0,1.0,trident_07s.jpg,1.0,Green.png,2.0,91,,,,,,,,,,,,,,,,,
0.0,1.0,0.539925,0.0,12.0,12.0,12.0,1.0,raspberry_12s.jpg,0.0,Blue.png,3.0,91,,,,,,,,,,,,,,,,,
0.0,1.0,1.198285,0.0,13.0,13.0,13.0,1.0,trident_07s.jpg,0.0,Purple.png,3.0,91,,,,,,,,,,,,,,,,,
0.0,1.0,0.815085,0.0,14.0,14.0,14.0,1.0,lavender_10s.jpg,0.0,Red.png,3.0,91,,,,,,,,,,,,,,,,,
0.0,1.0,0.71232,0.0,15.0,15.0,15.0,1.0,chip_04s.jpg,0.0,Orange.png,3.0,91,,,,,,,,,,,,,,,,,
0.0,1.0,0.652235,0.0,16.0,16.0,16.0,1.0,lamb_04s.jpg,0.0,Yellow.png,3.0,91,,,,,,,,,,,,,,,,,
0.0,1.0,0.77659,0.0,17.0,17.0,17.0,1.0,emerald_02s.jpg,0.0,Green.png,3.0,91,,,,,,,,,,,,,,,,,
0.0,1.0,0.571305,0.0,18.0,18.0,18.0,1.0,pineapple_12s.jpg,0.0,Blue.png,4.0,91,,,,,,,,,,,,,,,,,
0.0,1.0,0.719935,0.0,19.0,19.0,19.0,1.0,sundae_08s.jpg,0.0,Purple.png,4.0,91,,,,,,,,,,,,,,,,,
1.0,1.0,0.960975,0.0,20.0,20.0,20.0,1.0,sundae_08s.jpg,1.0,Red.png,4.0,91,,,,,,,,,,,,,,,,,
0.0,1.0,0.810245,0.0,21.0,21.0,21.0,1.0,squirrel_02s.jpg,0.0,Orange.png,4.0,91,,,,,,,,,,,,,,,,,
0.0,1.0,0.67689,0.0,22.0,22.0,22.0,1.0,roller_coaster_07s.jpg,0.0,Yellow.png,4.0,91,,,,,,,,,,,,,,,,,
1.0,1.0,0.779005,0.0,23.0,23.0,23.0,1.0,sundae_08s.jpg,1.0,Green.png,4.0,91,,,,,,,,,,,,,,,,,
0.0,1.0,0.75346,0.0,24.0,24.0,24.0,1.0,tweezers_03s.jpg,0.0,Blue.png,5.0,91,,,,,,,,,,,,,,,,,
0.0,1.0,0.69066,0.0,25.0,25.0,25.0,1.0,sundae_08s.jpg,0.0,Purple.png,5.0,91,,,,,,,,,,,,,,,,,
0.0,1.0,0.918315,0.0,26.0,26.0,26.0,1.0,rudder_02s.jpg,0.0,Red.png,5.0,91,,,,,,,,,,,,,,,,,
0.0,1.0,0.82695,0.0,27.0,27.0,27.0,1.0,rake_06s.jpg,0.0,Orange.png,5.0,91,,,,,,,,,,,,,,,,,
1.0,1.0,0.726255,0.0,28.0,28.0,28.0,1.0,rake_06s.jpg,1.0,Yellow.png,5.0,91,,,,,,,,,,,,,,,,,
1.0,1.0,1.01502,0.0,29.0,29.0,29.0,1.0,rake_06s.jpg,1.0,Green.png,5.0,91,,,,,,,,,,,,,,,,,
0.0,1.0,1.33316,0.0,30.0,30.0,30.0,1.0,cap_05s.jpg,0.0,Blue.png,6.0,91,,,,,,,,,,,,,,,,,
0.0,1.0,0.68783,0.0,31.0,31.0,31.0,1.0,paper_towel_03s.jpg,0.0,Purple.png,6.0,91,,,,,,,,,,,,,,,,,
0.0,1.0,0.816255,0.0,32.0,32.0,32.0,1.0,toaster_03s.jpg,0.0,Red.png,6.0,91,,,,,,,,,,,,,,,,,
0.0,1.0,0.661665,0.0,33.0,33.0,33.0,1.0,money_07s.jpg,0.0,Orange.png,6.0,91,,,,,,,,,,,,,,,,,
0.0,1.0,0.728105,0.0,34.0,34.0,34.0,1.0,pinwheel_06s.jpg,0.0,Yellow.png,6.0,91,,,,,,,,,,,,,,,,,
0.0,1.0,0.72669,0.0,35.0,35.0,35.0,1.0,lid_10s.jpg,0.0,Green.png,6.0,91,,,,,,,,,,,,,,,,,
,,,,,,,,,0.0,,,91,0.0,1.0,2.25713,0.0,0.0,0.0,0.0,1.0,tweezers_03s.jpg,squirrel_02s.jpg,,,,,,,
,,,,,,,,,1.0,,,91,0.0,0.0,2.03018,0.0,1.0,1.0,1.0,1.0,chip_04s.jpg,pineapple_12s.jpg,,,,,,,
,,,,,,,,,1.0,,,91,0.0,0.0,2.78502,0.0,2.0,2.0,2.0,1.0,lamb_chop_07s.jpg,lava_02s.jpg,,,,,,,
,,,,,,,,,0.0,,,91,0.0,1.0,1.94139,0.0,3.0,3.0,3.0,1.0,pinwheel_06s.jpg,paper_towel_03s.jpg,,,,,,,
,,,,,,,,,0.0,,,91,0.0,1.0,1.6413,0.0,4.0,4.0,4.0,1.0,emerald_02s.jpg,lavender_10s.jpg,,,,,,,
,,,,,,,,,0.0,,,91,0.0,1.0,1.43132,0.0,5.0,5.0,5.0,1.0,money_07s.jpg,cap_05s.jpg,,,,,,,
,,,,,,,,,,,,91,,,,,,,,,,,0.0,3.0,3.0,3.0,1.0,newclockpresent_4_4.xlsx,newclock_compare_task_4_4.xlsx
0.0,1.0,1.92909,0.0,0.0,0.0,0.0,1.0,fur_coat_11s.jpg,0.0,Blue.png,1.0,91,,,,,,,,,,,,,,,,,
0.0,1.0,0.663025,0.0,1.0,1.0,1.0,1.0,crayon_09s.jpg,0.0,Purple.png,1.0,91,,,,,,,,,,,,,,,,,
0.0,1.0,2.079625,0.0,2.0,2.0,2.0,1.0,cobra_05s.jpg,0.0,Red.png,1.0,91,,,,,,,,,,,,,,,,,
0.0,1.0,0.67187,0.0,3.0,3.0,3.0,1.0,raccoon_02s.jpg,0.0,Orange.png,1.0,91,,,,,,,,,,,,,,,,,
0.0,1.0,0.763515,0.0,4.0,4.0,4.0,1.0,soda_fountain_03s.jpg,0.0,Yellow.png,1.0,91,,,,,,,,,,,,,,,,,
1.0,1.0,0.67427,0.0,5.0,5.0,5.0,1.0,raccoon_02s.jpg,1.0,Green.png,1.0,91,,,,,,,,,,,,,,,,,
0.0,1.0,0.498635,0.0,6.0,6.0,6.0,1.0,feather02.jpg,0.0,Blue.png,2.0,91,,,,,,,,,,,,,,,,,
0.0,1.0,0.59357,0.0,7.0,7.0,7.0,1.0,raccoon_02s.jpg,0.0,Purple.png,2.0,91,,,,,,,,,,,,,,,,,
1.0,1.0,1.42961,0.0,8.0,8.0,8.0,1.0,feather02.jpg,1.0,Red.png,2.0,91,,,,,,,,,,,,,,,,,
0.0,1.0,0.68745,0.0,9.0,9.0,9.0,1.0,rug_09s.jpg,0.0,Orange.png,2.0,91,,,,,,,,,,,,,,,,,
1.0,1.0,0.763145,0.0,10.0,10.0,10.0,1.0,feather02.jpg,1.0,Yellow.png,2.0,91,,,,,,,,,,,,,,,,,
0.0,1.0,0.738155,0.0,11.0,11.0,11.0,1.0,cushion_08s.jpg,0.0,Green.png,2.0,91,,,,,,,,,,,,,,,,,
0.0,1.0,1.108365,0.0,12.0,12.0,12.0,1.0,feather02.jpg,0.0,Blue.png,3.0,91,,,,,,,,,,,,,,,,,
1.0,1.0,0.757375,0.0,13.0,13.0,13.0,1.0,feather02.jpg,1.0,Purple.png,3.0,91,,,,,,,,,,,,,,,,,
0.0,1.0,0.715825,0.0,14.0,14.0,14.0,1.0,ice_pack_09s.jpg,0.0,Red.png,3.0,91,,,,,,,,,,,,,,,,,
1.0,1.0,0.797105,0.0,15.0,15.0,15.0,1.0,ice_pack_09s.jpg,1.0,Orange.png,3.0,91,,,,,,,,,,,,,,,,,
0.0,1.0,0.96066,0.0,16.0,16.0,16.0,1.0,loom_05s.jpg,0.0,Yellow.png,3.0,91,,,,,,,,,,,,,,,,,
1.0,1.0,0.856245,0.0,17.0,17.0,17.0,1.0,ice_pack_09s.jpg,1.0,Green.png,3.0,91,,,,,,,,,,,,,,,,,
0.0,1.0,1.08309,0.0,18.0,18.0,18.0,1.0,ice_pack_09s.jpg,0.0,Blue.png,4.0,91,,,,,,,,,,,,,,,,,
1.0,1.0,0.865175,0.0,19.0,19.0,19.0,1.0,ice_pack_09s.jpg,1.0,Purple.png,4.0,91,,,,,,,,,,,,,,,,,
1.0,1.0,0.677425,0.0,20.0,20.0,20.0,1.0,ice_pack_09s.jpg,1.0,Red.png,4.0,91,,,,,,,,,,,,,,,,,
0.0,1.0,0.635395,0.0,21.0,21.0,21.0,1.0,blazer_02s.jpg,0.0,Orange.png,4.0,91,,,,,,,,,,,,,,,,,
0.0,1.0,0.765265,0.0,22.0,22.0,22.0,1.0,penlight_12s.jpg,0.0,Yellow.png,4.0,91,,,,,,,,,,,,,,,,,
0.0,1.0,0.77652,0.0,23.0,23.0,23.0,1.0,swan_11s.jpg,0.0,Green.png,4.0,91,,,,,,,,,,,,,,,,,
0.0,1.0,0.77717,0.0,24.0,24.0,24.0,1.0,plunger_08s.jpg,0.0,Blue.png,5.0,91,,,,,,,,,,,,,,,,,
0.0,1.0,0.753835,0.0,25.0,25.0,25.0,1.0,bottle_opener_11s.jpg,0.0,Purple.png,5.0,91,,,,,,,,,,,,,,,,,
0.0,1.0,0.773545,0.0,26.0,26.0,26.0,1.0,checkbook_11s.jpg,0.0,Red.png,5.0,91,,,,,,,,,,,,,,,,,
0.0,1.0,0.754185,0.0,27.0,27.0,27.0,1.0,ink_08s.jpg,0.0,Orange.png,5.0,91,,,,,,,,,,,,,,,,,
1.0,1.0,0.89298,0.0,28.0,28.0,28.0,1.0,plunger_08s.jpg,1.0,Yellow.png,5.0,91,,,,,,,,,,,,,,,,,
0.0,1.0,0.68474,0.0,29.0,29.0,29.0,1.0,pencil02a.jpg,0.0,Green.png,5.0,91,,,,,,,,,,,,,,,,,
0.0,1.0,0.35277,0.0,30.0,30.0,30.0,1.0,ginger_09s.jpg,0.0,Blue.png,6.0,91,,,,,,,,,,,,,,,,,
0.0,1.0,0.57382,0.0,31.0,31.0,31.0,1.0,taxi_15s.jpg,0.0,Purple.png,6.0,91,,,,,,,,,,,,,,,,,
0.0,1.0,0.591625,0.0,32.0,32.0,32.0,1.0,toy_04s.jpg,0.0,Red.png,6.0,91,,,,,,,,,,,,,,,,,
0.0,1.0,0.676455,0.0,33.0,33.0,33.0,1.0,blowfish_03s.jpg,0.0,Orange.png,6.0,91,,,,,,,,,,,,,,,,,
0.0,1.0,0.77879,0.0,34.0,34.0,34.0,1.0,toilet_paper_12s.jpg,0.0,Yellow.png,6.0,91,,,,,,,,,,,,,,,,,
0.0,1.0,0.69528,0.0,35.0,35.0,35.0,1.0,puddle_02s.jpg,0.0,Green.png,6.0,91,,,,,,,,,,,,,,,,,
,,,,,,,,,1.0,,,91,0.0,0.0,1.536525,0.0,0.0,0.0,0.0,1.0,ink_08s.jpg,ginger_09s.jpg,,,,,,,
,,,,,,,,,0.0,,,91,0.0,1.0,1.46624,0.0,1.0,1.0,1.0,1.0,puddle_02s.jpg,toy_04s.jpg,,,,,,,
,,,,,,,,,0.0,,,91,0.0,1.0,3.95562,0.0,2.0,2.0,2.0,1.0,bottle_opener_11s.jpg,penlight_12s.jpg,,,,,,,
,,,,,,,,,0.0,,,91,1.0,0.0,1.70905,0.0,3.0,3.0,3.0,1.0,checkbook_11s.jpg,swan_11s.jpg,,,,,,,
,,,,,,,,,1.0,,,91,1.0,1.0,1.510395,0.0,4.0,4.0,4.0,1.0,taxi_15s.jpg,toilet_paper_12s.jpg,,,,,,,
,,,,,,,,,1.0,,,91,1.0,1.0,1.61525,0.0,5.0,5.0,5.0,1.0,crayon_09s.jpg,soda_fountain_03s.jpg,,,,,,,
,,,,,,,,,,,,91,,,,,,,,,,,0.0,4.0,4.0,4.0,1.0,newclockpresent_5_4.xlsx,newclock_compare_task_5_4.xlsx
0.0,1.0,1.179915,0.0,0.0,0.0,0.0,1.0,flask_04s.jpg,0.0,Blue.png,1.0,91,,,,,,,,,,,,,,,,,
0.0,1.0,1.51785,0.0,1.0,1.0,1.0,1.0,kimono_13s.jpg,0.0,Purple.png,1.0,91,,,,,,,,,,,,,,,,,
0.0,1.0,0.721535,0.0,2.0,2.0,2.0,1.0,limousine_12s.jpg,0.0,Red.png,1.0,91,,,,,,,,,,,,,,,,,
0.0,1.0,0.621115,0.0,3.0,3.0,3.0,1.0,lectern_08s.jpg,0.0,Orange.png,1.0,91,,,,,,,,,,,,,,,,,
1.0,1.0,0.83475,0.0,4.0,4.0,4.0,1.0,kimono_13s.jpg,1.0,Yellow.png,1.0,91,,,,,,,,,,,,,,,,,
0.0,1.0,0.904655,0.0,5.0,5.0,5.0,1.0,doily_13s.jpg,0.0,Green.png,1.0,91,,,,,,,,,,,,,,,,,
0.0,1.0,0.58024,0.0,6.0,6.0,6.0,1.0,kimono_13s.jpg,0.0,Blue.png,2.0,91,,,,,,,,,,,,,,,,,
0.0,1.0,0.72405,0.0,7.0,7.0,7.0,1.0,razor_blade_01b.jpg,0.0,Purple.png,2.0,91,,,,,,,,,,,,,,,,,
1.0,1.0,0.614345,0.0,8.0,8.0,8.0,1.0,razor_blade_01b.jpg,1.0,Red.png,2.0,91,,,,,,,,,,,,,,,,,
0.0,1.0,0.60098,0.0,9.0,9.0,9.0,1.0,champagne_18s.jpg,0.0,Orange.png,2.0,91,,,,,,,,,,,,,,,,,
0.0,1.0,0.626965,0.0,10.0,10.0,10.0,1.0,stamp1_11s.jpg,0.0,Yellow.png,2.0,91,,,,,,,,,,,,,,,,,
1.0,1.0,0.66587,0.0,11.0,11.0,11.0,1.0,champagne_18s.jpg,1.0,Green.png,2.0,91,,,,,,,,,,,,,,,,,
0.0,1.0,0.4328,0.0,12.0,12.0,12.0,1.0,crossbow_10s.jpg,0.0,Blue.png,3.0,91,,,,,,,,,,,,,,,,,
0.0,1.0,0.645225,0.0,13.0,13.0,13.0,1.0,briefcase_03s.jpg,0.0,Purple.png,3.0,91,,,,,,,,,,,,,,,,,
0.0,1.0,0.691,0.0,14.0,14.0,14.0,1.0,jersey_02s.jpg,0.0,Red.png,3.0,91,,,,,,,,,,,,,,,,,
1.0,1.0,0.71917,0.0,15.0,15.0,15.0,1.0,briefcase_03s.jpg,1.0,Orange.png,3.0,91,,,,,,,,,,,,,,,,,
0.0,1.0,1.017995,0.0,16.0,16.0,16.0,1.0,oil_02s.jpg,0.0,Yellow.png,3.0,91,,,,,,,,,,,,,,,,,
0.0,1.0,0.809945,0.0,17.0,17.0,17.0,1.0,tinsel_12s.jpg,0.0,Green.png,3.0,91,,,,,,,,,,,,,,,,,
0.0,1.0,0.953365,0.0,18.0,18.0,18.0,1.0,flask_04s.jpg,0.0,Blue.png,4.0,91,,,,,,,,,,,,,,,,,
0.0,1.0,0.59528,0.0,19.0,19.0,19.0,1.0,fork_04s.jpg,0.0,Purple.png,4.0,91,,,,,,,,,,,,,,,,,
0.0,1.0,0.759875,0.0,20.0,20.0,20.0,1.0,purse_05s.jpg,0.0,Red.png,4.0,91,,,,,,,,,,,,,,,,,
1.0,1.0,0.779015,0.0,21.0,21.0,21.0,1.0,flask_04s.jpg,1.0,Orange.png,4.0,91,,,,,,,,,,,,,,,,,
0.0,1.0,0.61133,0.0,22.0,22.0,22.0,1.0,sledgehammer_03s.jpg,0.0,Yellow.png,4.0,91,,,,,,,,,,,,,,,,,
0.0,1.0,1.28838,0.0,23.0,23.0,23.0,1.0,turf_03s.jpg,0.0,Green.png,4.0,91,,,,,,,,,,,,,,,,,
0.0,1.0,0.763495,0.0,24.0,24.0,24.0,1.0,omelet_07s.jpg,0.0,Blue.png,5.0,91,,,,,,,,,,,,,,,,,
0.0,1.0,0.799685,0.0,25.0,25.0,25.0,1.0,turf_03s.jpg,0.0,Purple.png,5.0,91,,,,,,,,,,,,,,,,,
0.0,1.0,0.647095,0.0,26.0,26.0,26.0,1.0,clover_04s.jpg,0.0,Red.png,5.0,91,,,,,,,,,,,,,,,,,
0.0,1.0,0.81174,0.0,27.0,27.0,27.0,1.0,lip_gloss_06s.jpg,0.0,Orange.png,5.0,91,,,,,,,,,,,,,,,,,
0.0,1.0,0.713945,0.0,28.0,28.0,28.0,1.0,amber_04s.jpg,0.0,Yellow.png,5.0,91,,,,,,,,,,,,,,,,,
0.0,1.0,0.828405,0.0,29.0,29.0,29.0,1.0,tortilla_06s.jpg,0.0,Green.png,5.0,91,,,,,,,,,,,,,,,,,
0.0,1.0,0.64617,0.0,30.0,30.0,30.0,1.0,razor_blade_01b.jpg,0.0,Blue.png,6.0,91,,,,,,,,,,,,,,,,,
0.0,1.0,0.586565,0.0,31.0,31.0,31.0,1.0,tape_measure_11s.jpg,0.0,Purple.png,6.0,91,,,,,,,,,,,,,,,,,
1.0,1.0,0.90893,0.0,32.0,32.0,32.0,1.0,razor_blade_01b.jpg,1.0,Red.png,6.0,91,,,,,,,,,,,,,,,,,
1.0,1.0,1.20868,0.0,33.0,33.0,33.0,1.0,razor_blade_01b.jpg,1.0,Orange.png,6.0,91,,,,,,,,,,,,,,,,,
0.0,1.0,0.56426,0.0,34.0,34.0,34.0,1.0,stingray_02s.jpg,0.0,Yellow.png,6.0,91,,,,,,,,,,,,,,,,,
0.0,1.0,0.779925,0.0,35.0,35.0,35.0,1.0,harpoon.jpg,0.0,Green.png,6.0,91,,,,,,,,,,,,,,,,,
,,,,,,,,,1.0,,,91,1.0,1.0,3.167115,0.0,0.0,0.0,0.0,1.0,oil_02s.jpg,fork_04s.jpg,,,,,,,
,,,,,,,,,0.0,,,91,0.0,1.0,1.547655,0.0,1.0,1.0,1.0,1.0,doily_13s.jpg,limousine_12s.jpg,,,,,,,
,,,,,,,,,0.0,,,91,0.0,1.0,1.49361,0.0,2.0,2.0,2.0,1.0,lip_gloss_06s.jpg,omelet_07s.jpg,,,,,,,
,,,,,,,,,0.0,,,91,0.0,1.0,3.53468,0.0,3.0,3.0,3.0,1.0,tape_measure_11s.jpg,amber_04s.jpg,,,,,,,
,,,,,,,,,0.0,,,91,0.0,1.0,1.269045,0.0,4.0,4.0,4.0,1.0,tortilla_06s.jpg,clover_04s.jpg,,,,,,,
,,,,,,,,,0.0,,,91,0.0,1.0,1.51475,0.0,5.0,5.0,5.0,1.0,purse_05s.jpg,tinsel_12s.jpg,,,,,,,
,,,,,,,,,,,,91,,,,,,,,,,,0.0,5.0,5.0,5.0,1.0,newclockpresent_6_4.xlsx,newclock_compare_task_6_4.xlsx
0.0,1.0,0.817675,0.0,0.0,0.0,0.0,1.0,butter_14s.jpg,0.0,Blue.png,1.0,91,,,,,,,,,,,,,,,,,
1.0,1.0,0.85597,0.0,1.0,1.0,1.0,1.0,butter_14s.jpg,1.0,Purple.png,1.0,91,,,,,,,,,,,,,,,,,
1.0,1.0,0.720885,0.0,2.0,2.0,2.0,1.0,butter_14s.jpg,1.0,Red.png,1.0,91,,,,,,,,,,,,,,,,,
0.0,1.0,0.53052,0.0,3.0,3.0,3.0,1.0,stamp2_08s.jpg,0.0,Orange.png,1.0,91,,,,,,,,,,,,,,,,,
0.0,1.0,0.953545,0.0,4.0,4.0,4.0,1.0,kangaroo_02s.jpg,0.0,Yellow.png,1.0,91,,,,,,,,,,,,,,,,,
0.0,1.0,1.03216,0.0,5.0,5.0,5.0,1.0,camcorder_10s.jpg,0.0,Green.png,1.0,91,,,,,,,,,,,,,,,,,
0.0,1.0,0.9436,0.0,6.0,6.0,6.0,1.0,bank_06s.jpg,0.0,Blue.png,2.0,91,,,,,,,,,,,,,,,,,
0.0,1.0,0.759155,0.0,7.0,7.0,7.0,1.0,gear_07s.jpg,0.0,Purple.png,2.0,91,,,,,,,,,,,,,,,,,
1.0,1.0,0.733045,0.0,8.0,8.0,8.0,1.0,bank_06s.jpg,1.0,Red.png,2.0,91,,,,,,,,,,,,,,,,,
0.0,1.0,0.546455,0.0,9.0,9.0,9.0,1.0,funnel_01b.jpg,0.0,Orange.png,2.0,91,,,,,,,,,,,,,,,,,
0.0,1.0,0.787895,0.0,10.0,10.0,10.0,1.0,poinsettia_04s.jpg,0.0,Yellow.png,2.0,91,,,,,,,,,,,,,,,,,
1.0,1.0,0.908065,0.0,11.0,11.0,11.0,1.0,funnel_01b.jpg,1.0,Green.png,2.0,91,,,,,,,,,,,,,,,,,
0.0,1.0,0.58935,0.0,12.0,12.0,12.0,1.0,rooster_03s.jpg,0.0,Blue.png,3.0,91,,,,,,,,,,,,,,,,,
0.0,1.0,0.590015,0.0,13.0,13.0,13.0,1.0,denture_03s.jpg,0.0,Purple.png,3.0,91,,,,,,,,,,,,,,,,,
0.0,1.0,0.634875,0.0,14.0,14.0,14.0,1.0,bean_06s.jpg,0.0,Red.png,3.0,91,,,,,,,,,,,,,,,,,
0.0,1.0,0.66855,0.0,15.0,15.0,15.0,1.0,mud_13s.jpg,0.0,Orange.png,3.0,91,,,,,,,,,,,,,,,,,
0.0,1.0,0.690745,0.0,16.0,16.0,16.0,1.0,keyhole_03s.jpg,0.0,Yellow.png,3.0,91,,,,,,,,,,,,,,,,,
1.0,1.0,0.680915,0.0,17.0,17.0,17.0,1.0,bean_06s.jpg,1.0,Green.png,3.0,91,,,,,,,,,,,,,,,,,
0.0,1.0,0.815585,0.0,18.0,18.0,18.0,1.0,bank_06s.jpg,0.0,Blue.png,4.0,91,,,,,,,,,,,,,,,,,
0.0,1.0,0.615085,0.0,19.0,19.0,19.0,1.0,pomegranate_04s.jpg,0.0,Purple.png,4.0,91,,,,,,,,,,,,,,,,,
0.0,1.0,0.674645,0.0,20.0,20.0,20.0,1.0,chopsticks_08s.jpg,0.0,Red.png,4.0,91,,,,,,,,,,,,,,,,,
0.0,1.0,0.652805,0.0,21.0,21.0,21.0,1.0,contact_lens_15s.jpg,0.0,Orange.png,4.0,91,,,,,,,,,,,,,,,,,
0.0,1.0,0.688855,0.0,22.0,22.0,22.0,1.0,hydrant_10s.jpg,0.0,Yellow.png,4.0,91,,,,,,,,,,,,,,,,,
0.0,1.0,0.648285,0.0,23.0,23.0,23.0,1.0,gingerbread_man_03s.jpg,0.0,Green.png,4.0,91,,,,,,,,,,,,,,,,,
0.0,1.0,0.381,0.0,24.0,24.0,24.0,1.0,camcorder_10s.jpg,0.0,Blue.png,5.0,91,,,,,,,,,,,,,,,,,
0.0,1.0,0.676595,0.0,25.0,25.0,25.0,1.0,teabag_12s.jpg,0.0,Purple.png,5.0,91,,,,,,,,,,,,,,,,,
0.0,1.0,0.750635,0.0,26.0,26.0,26.0,1.0,radiator_05s.jpg,0.0,Red.png,5.0,91,,,,,,,,,,,,,,,,,
0.0,1.0,0.71458,0.0,27.0,27.0,27.0,1.0,punch1_10s.jpg,0.0,Orange.png,5.0,91,,,,,,,,,,,,,,,,,
0.0,1.0,0.76507,0.0,28.0,28.0,28.0,1.0,mailbox_11s.jpg,0.0,Yellow.png,5.0,91,,,,,,,,,,,,,,,,,
0.0,1.0,0.639925,0.0,29.0,29.0,29.0,1.0,beaker_01b.jpg,0.0,Green.png,5.0,91,,,,,,,,,,,,,,,,,
0.0,1.0,0.355535,0.0,30.0,30.0,30.0,1.0,mailbox_11s.jpg,0.0,Blue.png,6.0,91,,,,,,,,,,,,,,,,,
0.0,1.0,0.599665,0.0,31.0,31.0,31.0,1.0,pipe1_10s.jpg,0.0,Purple.png,6.0,91,,,,,,,,,,,,,,,,,
1.0,1.0,0.80316,0.0,32.0,32.0,32.0,1.0,mailbox_11s.jpg,1.0,Red.png,6.0,91,,,,,,,,,,,,,,,,,
1.0,1.0,0.62028,0.0,33.0,33.0,33.0,1.0,pipe1_10s.jpg,1.0,Orange.png,6.0,91,,,,,,,,,,,,,,,,,
0.0,1.0,0.641685,0.0,34.0,34.0,34.0,1.0,eyedropper_12s.jpg,0.0,Yellow.png,6.0,91,,,,,,,,,,,,,,,,,
0.0,1.0,0.6098,0.0,35.0,35.0,35.0,1.0,rhubarb_03s.jpg,0.0,Green.png,6.0,91,,,,,,,,,,,,,,,,,
,,,,,,,,,0.0,,,91,0.0,1.0,2.06745,0.0,0.0,0.0,0.0,1.0,mud_13s.jpg,rooster_03s.jpg,,,,,,,
,,,,,,,,,1.0,,,91,1.0,1.0,3.071225,0.0,1.0,1.0,1.0,1.0,chopsticks_08s.jpg,gingerbread_man_03s.jpg,,,,,,,
,,,,,,,,,0.0,,,91,0.0,1.0,1.997165,0.0,2.0,2.0,2.0,1.0,beaker_01b.jpg,radiator_05s.jpg,,,,,,,
,,,,,,,,,0.0,,,91,1.0,0.0,1.913665,0.0,3.0,3.0,3.0,1.0,teabag_12s.jpg,hydrant_10s.jpg,,,,,,,
,,,,,,,,,0.0,,,91,0.0,1.0,3.140005,0.0,4.0,4.0,4.0,1.0,denture_03s.jpg,poinsettia_04s.jpg,,,,,,,
,,,,,,,,,1.0,,,91,0.0,0.0,1.375055,0.0,5.0,5.0,5.0,1.0,kangaroo_02s.jpg,gear_07s.jpg,,,,,,,
,,,,,,,,,,,,91,,,,,,,,,,,0.0,6.0,6.0,6.0,1.0,newclockpresent_7_4.xlsx,newclock_compare_task_7_4.xlsx
0.0,1.0,0.839485,0.0,0.0,0.0,0.0,1.0,lamppost_09s.jpg,0.0,Blue.png,1.0,91,,,,,,,,,,,,,,,,,
0.0,1.0,0.641125,0.0,1.0,1.0,1.0,1.0,jewel_01b.jpg,0.0,Purple.png,1.0,91,,,,,,,,,,,,,,,,,
0.0,1.0,0.80788,0.0,2.0,2.0,2.0,1.0,tuxedo_01b.jpg,0.0,Red.png,1.0,91,,,,,,,,,,,,,,,,,
0.0,1.0,0.704615,0.0,3.0,3.0,3.0,1.0,flip_flop_03s.jpg,0.0,Orange.png,1.0,91,,,,,,,,,,,,,,,,,
0.0,1.0,0.633715,0.0,4.0,4.0,4.0,1.0,medal_04s.jpg,0.0,Yellow.png,1.0,91,,,,,,,,,,,,,,,,,
1.0,1.0,0.81602,0.0,5.0,5.0,5.0,1.0,flip_flop_03s.jpg,1.0,Green.png,1.0,91,,,,,,,,,,,,,,,,,
0.0,1.0,0.366265,0.0,6.0,6.0,6.0,1.0,tuxedo_01b.jpg,0.0,Blue.png,2.0,91,,,,,,,,,,,,,,,,,
0.0,1.0,0.90999,0.0,7.0,7.0,7.0,1.0,flip_flop_03s.jpg,0.0,Purple.png,2.0,91,,,,,,,,,,,,,,,,,
0.0,1.0,0.632565,0.0,8.0,8.0,8.0,1.0,fireworks_18s.jpg,0.0,Red.png,2.0,91,,,,,,,,,,,,,,,,,
0.0,1.0,0.628855,0.0,9.0,9.0,9.0,1.0,squirt_gun_03s.jpg,0.0,Orange.png,2.0,91,,,,,,,,,,,,,,,,,
1.0,1.0,0.71845,0.0,10.0,10.0,10.0,1.0,flip_flop_03s.jpg,1.0,Yellow.png,2.0,91,,,,,,,,,,,,,,,,,
0.0,1.0,0.608125,0.0,11.0,11.0,11.0,1.0,puffin_19s.jpg,0.0,Green.png,2.0,91,,,,,,,,,,,,,,,,,
0.0,1.0,0.709195,0.0,12.0,12.0,12.0,1.0,tuxedo_01b.jpg,0.0,Blue.png,3.0,91,,,,,,,,,,,,,,,,,
1.0,1.0,0.718905,0.0,13.0,13.0,13.0,1.0,tuxedo_01b.jpg,1.0,Purple.png,3.0,91,,,,,,,,,,,,,,,,,
0.0,1.0,0.703815,0.0,14.0,14.0,14.0,1.0,snowman_02s.jpg,0.0,Red.png,3.0,91,,,,,,,,,,,,,,,,,
0.0,1.0,0.689805,0.0,15.0,15.0,15.0,1.0,cucumber_07s.jpg,0.0,Orange.png,3.0,91,,,,,,,,,,,,,,,,,
0.0,1.0,0.79404,0.0,16.0,16.0,16.0,1.0,plug_08s.jpg,0.0,Yellow.png,3.0,91,,,,,,,,,,,,,,,,,
1.0,1.0,0.812295,0.0,17.0,17.0,17.0,1.0,cucumber_07s.jpg,1.0,Green.png,3.0,91,,,,,,,,,,,,,,,,,
0.0,1.0,0.720455,0.0,18.0,18.0,18.0,1.0,puffin_19s.jpg,0.0,Blue.png,4.0,91,,,,,,,,,,,,,,,,,
0.0,1.0,0.882505,0.0,19.0,19.0,19.0,1.0,fondue_07s.jpg,0.0,Purple.png,4.0,91,,,,,,,,,,,,,,,,,
0.0,1.0,0.656865,0.0,20.0,20.0,20.0,1.0,lasagna_06s.jpg,0.0,Red.png,4.0,91,,,,,,,,,,,,,,,,,
0.0,1.0,0.684995,0.0,21.0,21.0,21.0,1.0,eiffeltower.jpg,0.0,Orange.png,4.0,91,,,,,,,,,,,,,,,,,
0.0,1.0,0.67643,0.0,22.0,22.0,22.0,1.0,outlet_10s.jpg,0.0,Yellow.png,4.0,91,,,,,,,,,,,,,,,,,
0.0,1.0,0.75935,0.0,23.0,23.0,23.0,1.0,cape_11s.jpg,0.0,Green.png,4.0,91,,,,,,,,,,,,,,,,,
0.0,1.0,0.39725,0.0,24.0,24.0,24.0,1.0,marshmallow_08s.jpg,0.0,Blue.png,5.0,91,,,,,,,,,,,,,,,,,
0.0,1.0,0.63185,0.0,25.0,25.0,25.0,1.0,racehorse_03s.jpg,0.0,Purple.png,5.0,91,,,,,,,,,,,,,,,,,
0.0,1.0,0.58465,0.0,26.0,26.0,26.0,1.0,aluminum_foil_08s.jpg,0.0,Red.png,5.0,91,,,,,,,,,,,,,,,,,
0.0,1.0,0.681775,0.0,27.0,27.0,27.0,1.0,spoon02a.jpg,0.0,Orange.png,5.0,91,,,,,,,,,,,,,,,,,
0.0,1.0,0.643835,0.0,28.0,28.0,28.0,1.0,padlock_07s.jpg,0.0,Yellow.png,5.0,91,,,,,,,,,,,,,,,,,
0.0,1.0,0.763145,0.0,29.0,29.0,29.0,1.0,solar_panel_02s.jpg,0.0,Green.png,5.0,91,,,,,,,,,,,,,,,,,
0.0,1.0,0.72961,0.0,30.0,30.0,30.0,1.0,turtleneck_11s.jpg,0.0,Blue.png,6.0,91,,,,,,,,,,,,,,,,,
0.0,1.0,0.6545,0.0,31.0,31.0,31.0,1.0,pocketknife_12s.jpg,0.0,Purple.png,6.0,91,,,,,,,,,,,,,,,,,
1.0,1.0,0.769375,0.0,32.0,32.0,32.0,1.0,pocketknife_12s.jpg,1.0,Red.png,6.0,91,,,,,,,,,,,,,,,,,
0.0,1.0,0.677895,0.0,33.0,33.0,33.0,1.0,quill_09s.jpg,0.0,Orange.png,6.0,91,,,,,,,,,,,,,,,,,
1.0,1.0,1.04072,0.0,34.0,34.0,34.0,1.0,quill_09s.jpg,1.0,Yellow.png,6.0,91,,,,,,,,,,,,,,,,,
1.0,1.0,0.876205,0.0,35.0,35.0,35.0,1.0,pocketknife_12s.jpg,1.0,Green.png,6.0,91,,,,,,,,,,,,,,,,,
,,,,,,,,,0.0,,,91,0.0,1.0,1.281055,0.0,0.0,0.0,0.0,1.0,cape_11s.jpg,lasagna_06s.jpg,,,,,,,
,,,,,,,,,0.0,,,91,0.0,1.0,1.32947,0.0,1.0,1.0,1.0,1.0,padlock_07s.jpg,racehorse_03s.jpg,,,,,,,
,,,,,,,,,1.0,,,91,0.0,0.0,3.892635,0.0,2.0,2.0,2.0,1.0,spoon02a.jpg,turtleneck_11s.jpg,,,,,,,
,,,,,,,,,0.0,,,91,1.0,0.0,1.63207,0.0,3.0,3.0,3.0,1.0,marshmallow_08s.jpg,eiffeltower.jpg,,,,,,,
,,,,,,,,,0.0,,,91,0.0,1.0,1.563265,0.0,4.0,4.0,4.0,1.0,medal_04s.jpg,jewel_01b.jpg,,,,,,,
,,,,,,,,,1.0,,,91,0.0,0.0,2.64039,0.0,5.0,5.0,5.0,1.0,plug_08s.jpg,fondue_07s.jpg,,,,,,,
,,,,,,,,,,,,91,,,,,,,,,,,0.0,7.0,7.0,7.0,1.0,newclockpresent_8_4.xlsx,newclock_compare_task_8_4.xlsx
0.0,1.0,2.188685,0.0,0.0,0.0,0.0,1.0,footprint_11s.jpg,0.0,Blue.png,1.0,91,,,,,,,,,,,,,,,,,
0.0,1.0,0.766315,0.0,1.0,1.0,1.0,1.0,coffee_filter_10s.jpg,0.0,Purple.png,1.0,91,,,,,,,,,,,,,,,,,
1.0,1.0,0.793275,0.0,2.0,2.0,2.0,1.0,coffee_filter_10s.jpg,1.0,Red.png,1.0,91,,,,,,,,,,,,,,,,,
1.0,1.0,1.055915,0.0,3.0,3.0,3.0,1.0,coffee_filter_10s.jpg,1.0,Orange.png,1.0,91,,,,,,,,,,,,,,,,,
1.0,1.0,0.594075,0.0,4.0,4.0,4.0,1.0,coffee_filter_10s.jpg,1.0,Yellow.png,1.0,91,,,,,,,,,,,,,,,,,
0.0,1.0,0.610265,0.0,5.0,5.0,5.0,1.0,gargoyle_08s.jpg,0.0,Green.png,1.0,91,,,,,,,,,,,,,,,,,
0.0,1.0,0.398165,0.0,6.0,6.0,6.0,1.0,candy_cane_06s.jpg,0.0,Blue.png,2.0,91,,,,,,,,,,,,,,,,,
0.0,1.0,0.85545,0.0,7.0,7.0,7.0,1.0,toad_09s.jpg,0.0,Purple.png,2.0,91,,,,,,,,,,,,,,,,,
1.0,1.0,0.542885,0.0,8.0,8.0,8.0,1.0,candy_cane_06s.jpg,1.0,Red.png,2.0,91,,,,,,,,,,,,,,,,,
0.0,1.0,0.65907,0.0,9.0,9.0,9.0,1.0,pumpkin_03s.jpg,0.0,Orange.png,2.0,91,,,,,,,,,,,,,,,,,
0.0,1.0,0.640055,0.0,10.0,10.0,10.0,1.0,dashboard_02s.jpg,0.0,Yellow.png,2.0,91,,,,,,,,,,,,,,,,,
0.0,1.0,0.89799,0.0,11.0,11.0,11.0,1.0,syringe_02s.jpg,0.0,Green.png,2.0,91,,,,,,,,,,,,,,,,,
0.0,1.0,0.79504,0.0,12.0,12.0,12.0,1.0,powder_07s.jpg,0.0,Blue.png,3.0,91,,,,,,,,,,,,,,,,,
1.0,1.0,0.8657,0.0,13.0,13.0,13.0,1.0,powder_07s.jpg,1.0,Purple.png,3.0,91,,,,,,,,,,,,,,,,,
1.0,1.0,0.562155,0.0,14.0,14.0,14.0,1.0,powder_07s.jpg,1.0,Red.png,3.0,91,,,,,,,,,,,,,,,,,
0.0,1.0,1.15896,0.0,15.0,15.0,15.0,1.0,sea_urchin_09s.jpg,0.0,Orange.png,3.0,91,,,,,,,,,,,,,,,,,
0.0,1.0,0.72229,0.0,16.0,16.0,16.0,1.0,throne_11s.jpg,0.0,Yellow.png,3.0,91,,,,,,,,,,,,,,,,,
1.0,1.0,0.694675,0.0,17.0,17.0,17.0,1.0,powder_07s.jpg,1.0,Green.png,3.0,91,,,,,,,,,,,,,,,,,
0.0,1.0,1.69317,0.0,18.0,18.0,18.0,1.0,chalice_10s.jpg,0.0,Blue.png,4.0,91,,,,,,,,,,,,,,,,,
0.0,1.0,0.89984,0.0,19.0,19.0,19.0,1.0,air_pump_05s.jpg,0.0,Purple.png,4.0,91,,,,,,,,,,,,,,,,,
0.0,1.0,0.876675,0.0,20.0,20.0,20.0,1.0,microwave_02s.jpg,0.0,Red.png,4.0,91,,,,,,,,,,,,,,,,,
0.0,1.0,0.657155,0.0,21.0,21.0,21.0,1.0,cereal_04s.jpg,0.0,Orange.png,4.0,91,,,,,,,,,,,,,,,,,
0.0,1.0,0.64523,0.0,22.0,22.0,22.0,1.0,mushroom_10n.jpg,0.0,Yellow.png,4.0,91,,,,,,,,,,,,,,,,,
0.0,1.0,0.75587,0.0,23.0,23.0,23.0,1.0,red_carpet_03s.jpg,0.0,Green.png,4.0,91,,,,,,,,,,,,,,,,,
0.0,1.0,0.86731,0.0,24.0,24.0,24.0,1.0,throne_11s.jpg,0.0,Blue.png,5.0,91,,,,,,,,,,,,,,,,,
0.0,1.0,0.683595,0.0,25.0,25.0,25.0,1.0,koala_13s.jpg,0.0,Purple.png,5.0,91,,,,,,,,,,,,,,,,,
1.0,1.0,0.745495,0.0,26.0,26.0,26.0,1.0,throne_11s.jpg,1.0,Red.png,5.0,91,,,,,,,,,,,,,,,,,
0.0,1.0,0.7982,0.0,27.0,27.0,27.0,1.0,rocket_02s.jpg,0.0,Orange.png,5.0,91,,,,,,,,,,,,,,,,,
0.0,1.0,0.731715,0.0,28.0,28.0,28.0,1.0,swordfish_05s.jpg,0.0,Yellow.png,5.0,91,,,,,,,,,,,,,,,,,
1.0,1.0,0.722565,0.0,29.0,29.0,29.0,1.0,rocket_02s.jpg,1.0,Green.png,5.0,91,,,,,,,,,,,,,,,,,
0.0,1.0,0.577075,0.0,30.0,30.0,30.0,1.0,icicle_04s.jpg,0.0,Blue.png,6.0,91,,,,,,,,,,,,,,,,,
0.0,1.0,0.61355,0.0,31.0,31.0,31.0,1.0,keyboard_05s.jpg,0.0,Purple.png,6.0,91,,,,,,,,,,,,,,,,,
0.0,1.0,0.687385,0.0,32.0,32.0,32.0,1.0,pocket_watch_16s.jpg,0.0,Red.png,6.0,91,,,,,,,,,,,,,,,,,
0.0,1.0,0.62699,0.0,33.0,33.0,33.0,1.0,tablet_04s.jpg,0.0,Orange.png,6.0,91,,,,,,,,,,,,,,,,,
0.0,1.0,0.804565,0.0,34.0,34.0,34.0,1.0,chocolate_01b.jpg,0.0,Yellow.png,6.0,91,,,,,,,,,,,,,,,,,
0.0,1.0,0.63372,0.0,35.0,35.0,35.0,1.0,light_switch_02s.jpg,0.0,Green.png,6.0,91,,,,,,,,,,,,,,,,,
,,,,,,,,,0.0,,,91,1.0,0.0,5.765225,0.0,0.0,0.0,0.0,1.0,chalice_10s.jpg,sea_urchin_09s.jpg,,,,,,,
,,,,,,,,,1.0,,,91,1.0,1.0,2.630355,0.0,1.0,1.0,1.0,1.0,swordfish_05s.jpg,keyboard_05s.jpg,,,,,,,
,,,,,,,,,0.0,,,91,0.0,1.0,1.90587,0.0,2.0,2.0,2.0,1.0,red_carpet_03s.jpg,microwave_02s.jpg,,,,,,,
,,,,,,,,,0.0,,,91,0.0,1.0,1.67159,0.0,3.0,3.0,3.0,1.0,dashboard_02s.jpg,toad_09s.jpg,,,,,,,
,,,,,,,,,0.0,,,91,1.0,0.0,4.633535,0.0,4.0,4.0,4.0,1.0,koala_13s.jpg,mushroom_10n.jpg,,,,,,,
,,,,,,,,,1.0,,,91,1.0,1.0,1.503545,0.0,5.0,5.0,5.0,1.0,icicle_04s.jpg,tablet_04s.jpg,,,,,,,
,,,,,,,,,,,,91,,,,,,,,,,,0.0,8.0,8.0,8.0,1.0,newclockpresent_9_4.xlsx,newclock_compare_task_9_4.xlsx
