key_resp.keys,key_resp.corr,key_resp.rt,present_segment.thisRepN,present_segment.thisTrialN,present_segment.thisN,present_segment.thisIndex,present_segment.ran,pictures,answer,clock,segment,participant,key_resp_2.keys,key_resp_2.corr,key_resp_2.rt,compare_segment.thisRepN,compare_segment.thisTrialN,compare_segment.thisN,compare_segment.thisIndex,compare_segment.ran,item_a,item_b,clock_conditions.thisRepN,clock_conditions.thisTrialN,clock_conditions.thisN,clock_conditions.thisIndex,clock_conditions.ran,present,compare
0.0,1.0,1.16582,0.0,0.0,0.0,0.0,1.0,insole_11s.jpg,0.0,Blue.png,1.0,15,,,,,,,,,,,,,,,,,
0.0,1.0,0.6433,0.0,1.0,1.0,1.0,1.0,tupperware_09s.jpg,0.0,Purple.png,1.0,15,,,,,,,,,,,,,,,,,
1.0,1.0,1.092895,0.0,2.0,2.0,2.0,1.0,tupperware_09s.jpg,1.0,Red.png,1.0,15,,,,,,,,,,,,,,,,,
0.0,1.0,1.05295,0.0,3.0,3.0,3.0,1.0,fox_13s.jpg,0.0,Orange.png,1.0,15,,,,,,,,,,,,,,,,,
0.0,0.0,1.486875,0.0,4.0,4.0,4.0,1.0,tupperware_09s.jpg,1.0,Yellow.png,1.0,15,,,,,,,,,,,,,,,,,
0.0,1.0,1.06068,0.0,5.0,5.0,5.0,1.0,lavender_10s.jpg,0.0,Green.png,1.0,15,,,,,,,,,,,,,,,,,
1.0,0.0,2.34654,0.0,6.0,6.0,6.0,1.0,tupperware_09s.jpg,0.0,Blue.png,2.0,15,,,,,,,,,,,,,,,,,
0.0,1.0,0.87175,0.0,7.0,7.0,7.0,1.0,poinsettia_04s.jpg,0.0,Purple.png,2.0,15,,,,,,,,,,,,,,,,,
0.0,1.0,0.846085,0.0,8.0,8.0,8.0,1.0,margarita_03s.jpg,0.0,Red.png,2.0,15,,,,,,,,,,,,,,,,,
0.0,1.0,0.97013,0.0,9.0,9.0,9.0,1.0,toothpaste_12s.jpg,0.0,Orange.png,2.0,15,,,,,,,,,,,,,,,,,
0.0,1.0,1.03113,0.0,10.0,10.0,10.0,1.0,ladder_15s.jpg,0.0,Yellow.png,2.0,15,,,,,,,,,,,,,,,,,
0.0,1.0,1.27482,0.0,11.0,11.0,11.0,1.0,pocketknife_12s.jpg,0.0,Green.png,2.0,15,,,,,,,,,,,,,,,,,
1.0,0.0,0.84596,0.0,12.0,12.0,12.0,1.0,spoon02a.jpg,0.0,Blue.png,3.0,15,,,,,,,,,,,,,,,,,
1.0,0.0,1.249735,0.0,13.0,13.0,13.0,1.0,mango_09s.jpg,0.0,Purple.png,3.0,15,,,,,,,,,,,,,,,,,
1.0,0.0,0.88532,0.0,14.0,14.0,14.0,1.0,chalice_10s.jpg,0.0,Red.png,3.0,15,,,,,,,,,,,,,,,,,
1.0,0.0,1.03691,0.0,15.0,15.0,15.0,1.0,pocketknife_12s.jpg,0.0,Orange.png,3.0,15,,,,,,,,,,,,,,,,,
0.0,1.0,0.62931,0.0,16.0,16.0,16.0,1.0,abacus_12s.jpg,0.0,Yellow.png,3.0,15,,,,,,,,,,,,,,,,,
,0.0,,0.0,17.0,17.0,17.0,1.0,abacus_12s.jpg,1.0,Green.png,3.0,15,,,,,,,,,,,,,,,,,
1.0,0.0,0.78515,0.0,18.0,18.0,18.0,1.0,abacus_12s.jpg,0.0,Blue.png,4.0,15,,,,,,,,,,,,,,,,,
0.0,0.0,0.733335,0.0,19.0,19.0,19.0,1.0,abacus_12s.jpg,1.0,Purple.png,4.0,15,,,,,,,,,,,,,,,,,
0.0,1.0,0.878315,0.0,20.0,20.0,20.0,1.0,sushi_08s.jpg,0.0,Red.png,4.0,15,,,,,,,,,,,,,,,,,
0.0,1.0,0.79992,0.0,21.0,21.0,21.0,1.0,funnel_01b.jpg,0.0,Orange.png,4.0,15,,,,,,,,,,,,,,,,,
0.0,1.0,1.07464,0.0,22.0,22.0,22.0,1.0,rooster_03s.jpg,0.0,Yellow.png,4.0,15,,,,,,,,,,,,,,,,,
0.0,1.0,0.510245,0.0,23.0,23.0,23.0,1.0,ukulele_02s.jpg,0.0,Green.png,4.0,15,,,,,,,,,,,,,,,,,
0.0,1.0,0.62249,0.0,24.0,24.0,24.0,1.0,pocketknife_12s.jpg,0.0,Blue.png,5.0,15,,,,,,,,,,,,,,,,,
1.0,1.0,1.59041,0.0,25.0,25.0,25.0,1.0,pocketknife_12s.jpg,1.0,Purple.png,5.0,15,,,,,,,,,,,,,,,,,
1.0,1.0,1.430935,0.0,26.0,26.0,26.0,1.0,pocketknife_12s.jpg,1.0,Red.png,5.0,15,,,,,,,,,,,,,,,,,
0.0,1.0,0.766305,0.0,27.0,27.0,27.0,1.0,stapler_01b.jpg,0.0,Orange.png,5.0,15,,,,,,,,,,,,,,,,,
0.0,1.0,0.932985,0.0,28.0,28.0,28.0,1.0,birthday_cake_09s.jpg,0.0,Yellow.png,5.0,15,,,,,,,,,,,,,,,,,
0.0,1.0,0.99994,0.0,29.0,29.0,29.0,1.0,meatball_13s.jpg,0.0,Green.png,5.0,15,,,,,,,,,,,,,,,,,
0.0,1.0,0.70015,0.0,30.0,30.0,30.0,1.0,cape_11s.jpg,0.0,Blue.png,6.0,15,,,,,,,,,,,,,,,,,
0.0,0.0,1.48357,0.0,31.0,31.0,31.0,1.0,cape_11s.jpg,1.0,Purple.png,6.0,15,,,,,,,,,,,,,,,,,
0.0,1.0,0.83327,0.0,32.0,32.0,32.0,1.0,lizard_10n.jpg,0.0,Red.png,6.0,15,,,,,,,,,,,,,,,,,
0.0,1.0,0.95009,0.0,33.0,33.0,33.0,1.0,refrigerator_07s.jpg,0.0,Orange.png,6.0,15,,,,,,,,,,,,,,,,,
1.0,1.0,1.1498,0.0,34.0,34.0,34.0,1.0,refrigerator_07s.jpg,1.0,Yellow.png,6.0,15,,,,,,,,,,,,,,,,,
0.0,1.0,0.683235,0.0,35.0,35.0,35.0,1.0,touchpad_11s.jpg,0.0,Green.png,6.0,15,,,,,,,,,,,,,,,,,
,,,,,,,,,1.0,,,15,0.0,0.0,1.92605,0.0,0.0,0.0,0.0,1.0,lavender_10s.jpg,margarita_03s.jpg,,,,,,,
,,,,,,,,,1.0,,,15,1.0,1.0,1.79259,0.0,1.0,1.0,1.0,1.0,toothpaste_12s.jpg,spoon02a.jpg,,,,,,,
,,,,,,,,,1.0,,,15,1.0,1.0,1.468445,0.0,2.0,2.0,2.0,1.0,ladder_15s.jpg,mango_09s.jpg,,,,,,,
,,,,,,,,,0.0,,,15,0.0,1.0,1.986705,0.0,3.0,3.0,3.0,1.0,fox_13s.jpg,insole_11s.jpg,,,,,,,
,,,,,,,,,0.0,,,15,1.0,0.0,1.18381,0.0,4.0,4.0,4.0,1.0,ukulele_02s.jpg,sushi_08s.jpg,,,,,,,
,,,,,,,,,0.0,,,15,0.0,1.0,1.63438,0.0,5.0,5.0,5.0,1.0,touchpad_11s.jpg,lizard_10n.jpg,,,,,,,
,,,,,,,,,,,,15,,,,,,,,,,,0.0,0.0,0.0,0.0,1.0,newclockpresent_1_2.xlsx,newclock_compare_task_1_2.xlsx
0.0,1.0,0.936595,0.0,0.0,0.0,0.0,1.0,juicer2_06s.jpg,0.0,Blue.png,1.0,15,,,,,,,,,,,,,,,,,
1.0,1.0,2.03518,0.0,1.0,1.0,1.0,1.0,juicer2_06s.jpg,1.0,Purple.png,1.0,15,,,,,,,,,,,,,,,,,
0.0,1.0,0.880175,0.0,2.0,2.0,2.0,1.0,tambourine_06s.jpg,0.0,Red.png,1.0,15,,,,,,,,,,,,,,,,,
0.0,1.0,0.692205,0.0,3.0,3.0,3.0,1.0,luggage_08s.jpg,0.0,Orange.png,1.0,15,,,,,,,,,,,,,,,,,
1.0,1.0,1.05108,0.0,4.0,4.0,4.0,1.0,tambourine_06s.jpg,1.0,Yellow.png,1.0,15,,,,,,,,,,,,,,,,,
0.0,1.0,0.589945,0.0,5.0,5.0,5.0,1.0,towel_rack_04s.jpg,0.0,Green.png,1.0,15,,,,,,,,,,,,,,,,,
0.0,1.0,0.87786,0.0,6.0,6.0,6.0,1.0,crayon_09s.jpg,0.0,Blue.png,2.0,15,,,,,,,,,,,,,,,,,
0.0,1.0,0.751955,0.0,7.0,7.0,7.0,1.0,gargoyle_08s.jpg,0.0,Purple.png,2.0,15,,,,,,,,,,,,,,,,,
0.0,1.0,0.62086,0.0,8.0,8.0,8.0,1.0,boar_10s.jpg,0.0,Red.png,2.0,15,,,,,,,,,,,,,,,,,
1.0,1.0,1.23738,0.0,9.0,9.0,9.0,1.0,gargoyle_08s.jpg,1.0,Orange.png,2.0,15,,,,,,,,,,,,,,,,,
0.0,1.0,0.69185,0.0,10.0,10.0,10.0,1.0,limousine_12s.jpg,0.0,Yellow.png,2.0,15,,,,,,,,,,,,,,,,,
0.0,1.0,0.61309,0.0,11.0,11.0,11.0,1.0,outlet_10s.jpg,0.0,Green.png,2.0,15,,,,,,,,,,,,,,,,,
0.0,1.0,0.661335,0.0,12.0,12.0,12.0,1.0,comic_book_02s.jpg,0.0,Blue.png,3.0,15,,,,,,,,,,,,,,,,,
0.0,1.0,0.944535,0.0,13.0,13.0,13.0,1.0,mask_09s.jpg,0.0,Purple.png,3.0,15,,,,,,,,,,,,,,,,,
0.0,1.0,0.645495,0.0,14.0,14.0,14.0,1.0,lasagna_06s.jpg,0.0,Red.png,3.0,15,,,,,,,,,,,,,,,,,
0.0,1.0,0.53414,0.0,15.0,15.0,15.0,1.0,diving_board_07s.jpg,0.0,Orange.png,3.0,15,,,,,,,,,,,,,,,,,
0.0,1.0,0.825575,0.0,16.0,16.0,16.0,1.0,lion_18s.jpg,0.0,Yellow.png,3.0,15,,,,,,,,,,,,,,,,,
1.0,1.0,0.84247,0.0,17.0,17.0,17.0,1.0,diving_board_07s.jpg,1.0,Green.png,3.0,15,,,,,,,,,,,,,,,,,
1.0,0.0,1.09948,0.0,18.0,18.0,18.0,1.0,lion_18s.jpg,0.0,Blue.png,4.0,15,,,,,,,,,,,,,,,,,
0.0,1.0,1.283065,0.0,19.0,19.0,19.0,1.0,medal_04s.jpg,0.0,Purple.png,4.0,15,,,,,,,,,,,,,,,,,
0.0,1.0,0.858635,0.0,20.0,20.0,20.0,1.0,incense_02s.jpg,0.0,Red.png,4.0,15,,,,,,,,,,,,,,,,,
0.0,1.0,0.72824,0.0,21.0,21.0,21.0,1.0,tape_06s.jpg,0.0,Orange.png,4.0,15,,,,,,,,,,,,,,,,,
1.0,1.0,0.822215,0.0,22.0,22.0,22.0,1.0,medal_04s.jpg,1.0,Yellow.png,4.0,15,,,,,,,,,,,,,,,,,
1.0,0.0,1.698475,0.0,23.0,23.0,23.0,1.0,buoy_04s.jpg,0.0,Green.png,4.0,15,,,,,,,,,,,,,,,,,
1.0,0.0,1.291865,0.0,24.0,24.0,24.0,1.0,limousine_12s.jpg,0.0,Blue.png,5.0,15,,,,,,,,,,,,,,,,,
0.0,1.0,1.750785,0.0,25.0,25.0,25.0,1.0,jewel_01b.jpg,0.0,Purple.png,5.0,15,,,,,,,,,,,,,,,,,
0.0,1.0,1.029925,0.0,26.0,26.0,26.0,1.0,parachute_03s.jpg,0.0,Red.png,5.0,15,,,,,,,,,,,,,,,,,
0.0,1.0,0.793935,0.0,27.0,27.0,27.0,1.0,mannequin_05s.jpg,0.0,Orange.png,5.0,15,,,,,,,,,,,,,,,,,
0.0,1.0,0.9519,0.0,28.0,28.0,28.0,1.0,snowman_02s.jpg,0.0,Yellow.png,5.0,15,,,,,,,,,,,,,,,,,
0.0,1.0,0.934625,0.0,29.0,29.0,29.0,1.0,fossil_06s.jpg,0.0,Green.png,5.0,15,,,,,,,,,,,,,,,,,
0.0,1.0,0.727725,0.0,30.0,30.0,30.0,1.0,perfume_06s.jpg,0.0,Blue.png,6.0,15,,,,,,,,,,,,,,,,,
0.0,1.0,0.65073,0.0,31.0,31.0,31.0,1.0,fossil_06s.jpg,0.0,Purple.png,6.0,15,,,,,,,,,,,,,,,,,
0.0,1.0,0.865605,0.0,32.0,32.0,32.0,1.0,pancake_12s.jpg,0.0,Red.png,6.0,15,,,,,,,,,,,,,,,,,
0.0,1.0,1.066865,0.0,33.0,33.0,33.0,1.0,tie_03s.jpg,0.0,Orange.png,6.0,15,,,,,,,,,,,,,,,,,
1.0,1.0,0.817,0.0,34.0,34.0,34.0,1.0,pancake_12s.jpg,1.0,Yellow.png,6.0,15,,,,,,,,,,,,,,,,,
0.0,1.0,0.91229,0.0,35.0,35.0,35.0,1.0,padlock_07s.jpg,0.0,Green.png,6.0,15,,,,,,,,,,,,,,,,,
,,,,,,,,,0.0,,,15,1.0,0.0,1.778645,0.0,0.0,0.0,0.0,1.0,crayon_09s.jpg,luggage_08s.jpg,,,,,,,
,,,,,,,,,1.0,,,15,0.0,0.0,1.33186,0.0,1.0,1.0,1.0,1.0,towel_rack_04s.jpg,boar_10s.jpg,,,,,,,
,,,,,,,,,0.0,,,15,1.0,0.0,1.104565,0.0,2.0,2.0,2.0,1.0,lasagna_06s.jpg,outlet_10s.jpg,,,,,,,
,,,,,,,,,1.0,,,15,0.0,0.0,1.233945,0.0,3.0,3.0,3.0,1.0,jewel_01b.jpg,snowman_02s.jpg,,,,,,,
,,,,,,,,,0.0,,,15,1.0,0.0,1.33086,0.0,4.0,4.0,4.0,1.0,buoy_04s.jpg,incense_02s.jpg,,,,,,,
,,,,,,,,,0.0,,,15,0.0,1.0,1.47905,0.0,5.0,5.0,5.0,1.0,tie_03s.jpg,perfume_06s.jpg,,,,,,,
,,,,,,,,,,,,15,,,,,,,,,,,0.0,1.0,1.0,1.0,1.0,newclockpresent_2_2.xlsx,newclock_compare_task_2_2.xlsx
0.0,1.0,1.277725,0.0,0.0,0.0,0.0,1.0,surfboard_11s.jpg,0.0,Blue.png,1.0,15,,,,,,,,,,,,,,,,,
1.0,1.0,0.937815,0.0,1.0,1.0,1.0,1.0,surfboard_11s.jpg,1.0,Purple.png,1.0,15,,,,,,,,,,,,,,,,,
1.0,1.0,0.8131,0.0,2.0,2.0,2.0,1.0,surfboard_11s.jpg,1.0,Red.png,1.0,15,,,,,,,,,,,,,,,,,
0.0,1.0,0.67612,0.0,3.0,3.0,3.0,1.0,badge_03s.jpg,0.0,Orange.png,1.0,15,,,,,,,,,,,,,,,,,
1.0,1.0,0.75405,0.0,4.0,4.0,4.0,1.0,surfboard_11s.jpg,1.0,Yellow.png,1.0,15,,,,,,,,,,,,,,,,,
1.0,1.0,1.00115,0.0,5.0,5.0,5.0,1.0,surfboard_11s.jpg,1.0,Green.png,1.0,15,,,,,,,,,,,,,,,,,
1.0,0.0,0.966495,0.0,6.0,6.0,6.0,1.0,surfboard_11s.jpg,0.0,Blue.png,2.0,15,,,,,,,,,,,,,,,,,
0.0,1.0,0.81694,0.0,7.0,7.0,7.0,1.0,playpen_11s.jpg,0.0,Purple.png,2.0,15,,,,,,,,,,,,,,,,,
1.0,1.0,0.666875,0.0,8.0,8.0,8.0,1.0,surfboard_11s.jpg,1.0,Red.png,2.0,15,,,,,,,,,,,,,,,,,
0.0,1.0,1.155075,0.0,9.0,9.0,9.0,1.0,popcorn_09s.jpg,0.0,Orange.png,2.0,15,,,,,,,,,,,,,,,,,
1.0,1.0,0.61711,0.0,10.0,10.0,10.0,1.0,surfboard_11s.jpg,1.0,Yellow.png,2.0,15,,,,,,,,,,,,,,,,,
0.0,0.0,0.528485,0.0,11.0,11.0,11.0,1.0,popcorn_09s.jpg,1.0,Green.png,2.0,15,,,,,,,,,,,,,,,,,
0.0,1.0,1.168185,0.0,12.0,12.0,12.0,1.0,lollipop_08s.jpg,0.0,Blue.png,3.0,15,,,,,,,,,,,,,,,,,
1.0,0.0,0.736125,0.0,13.0,13.0,13.0,1.0,popcorn_09s.jpg,0.0,Purple.png,3.0,15,,,,,,,,,,,,,,,,,
0.0,1.0,0.883645,0.0,14.0,14.0,14.0,1.0,fire_pit_10s.jpg,0.0,Red.png,3.0,15,,,,,,,,,,,,,,,,,
0.0,1.0,0.610065,0.0,15.0,15.0,15.0,1.0,joystick_01b.jpg,0.0,Orange.png,3.0,15,,,,,,,,,,,,,,,,,
0.0,1.0,0.83114,0.0,16.0,16.0,16.0,1.0,panda_02s.jpg,0.0,Yellow.png,3.0,15,,,,,,,,,,,,,,,,,
0.0,1.0,1.21143,0.0,17.0,17.0,17.0,1.0,sundae_08s.jpg,0.0,Green.png,3.0,15,,,,,,,,,,,,,,,,,
0.0,1.0,0.89663,0.0,18.0,18.0,18.0,1.0,boomerang_06s.jpg,0.0,Blue.png,4.0,15,,,,,,,,,,,,,,,,,
0.0,1.0,0.648935,0.0,19.0,19.0,19.0,1.0,bagel_15s.jpg,0.0,Purple.png,4.0,15,,,,,,,,,,,,,,,,,
0.0,1.0,0.727035,0.0,20.0,20.0,20.0,1.0,powder_07s.jpg,0.0,Red.png,4.0,15,,,,,,,,,,,,,,,,,
0.0,1.0,0.656635,0.0,21.0,21.0,21.0,1.0,lipstick_02s.jpg,0.0,Orange.png,4.0,15,,,,,,,,,,,,,,,,,
0.0,0.0,0.69435,0.0,22.0,22.0,22.0,1.0,bagel_15s.jpg,1.0,Yellow.png,4.0,15,,,,,,,,,,,,,,,,,
0.0,1.0,0.669515,0.0,23.0,23.0,23.0,1.0,ladle_04s.jpg,0.0,Green.png,4.0,15,,,,,,,,,,,,,,,,,
0.0,1.0,0.64819,0.0,24.0,24.0,24.0,1.0,megaphone_03s.jpg,0.0,Blue.png,5.0,15,,,,,,,,,,,,,,,,,
0.0,1.0,1.182215,0.0,25.0,25.0,25.0,1.0,puck_06s.jpg,0.0,Purple.png,5.0,15,,,,,,,,,,,,,,,,,
1.0,0.0,1.081025,0.0,26.0,26.0,26.0,1.0,cardinal_07s.jpg,0.0,Red.png,5.0,15,,,,,,,,,,,,,,,,,
1.0,1.0,1.058585,0.0,27.0,27.0,27.0,1.0,puck_06s.jpg,1.0,Orange.png,5.0,15,,,,,,,,,,,,,,,,,
0.0,1.0,0.85985,0.0,28.0,28.0,28.0,1.0,bee_20s.jpg,0.0,Yellow.png,5.0,15,,,,,,,,,,,,,,,,,
0.0,1.0,1.19849,0.0,29.0,29.0,29.0,1.0,toilet_paper_12s.jpg,0.0,Green.png,5.0,15,,,,,,,,,,,,,,,,,
0.0,1.0,1.05657,0.0,30.0,30.0,30.0,1.0,mud_13s.jpg,0.0,Blue.png,6.0,15,,,,,,,,,,,,,,,,,
0.0,1.0,0.914175,0.0,31.0,31.0,31.0,1.0,measuring_cup_02s.jpg,0.0,Purple.png,6.0,15,,,,,,,,,,,,,,,,,
0.0,1.0,0.904365,0.0,32.0,32.0,32.0,1.0,ostrich_06s.jpg,0.0,Red.png,6.0,15,,,,,,,,,,,,,,,,,
0.0,1.0,0.89493,0.0,33.0,33.0,33.0,1.0,raspberry_12s.jpg,0.0,Orange.png,6.0,15,,,,,,,,,,,,,,,,,
1.0,1.0,0.87902,0.0,34.0,34.0,34.0,1.0,mud_13s.jpg,1.0,Yellow.png,6.0,15,,,,,,,,,,,,,,,,,
0.0,1.0,0.808895,0.0,35.0,35.0,35.0,1.0,radiator_05s.jpg,0.0,Green.png,6.0,15,,,,,,,,,,,,,,,,,
,,,,,,,,,0.0,,,15,1.0,0.0,1.745905,0.0,0.0,0.0,0.0,1.0,measuring_cup_02s.jpg,bee_20s.jpg,,,,,,,
,,,,,,,,,1.0,,,15,0.0,0.0,1.48909,0.0,1.0,1.0,1.0,1.0,lipstick_02s.jpg,megaphone_03s.jpg,,,,,,,
,,,,,,,,,0.0,,,15,1.0,0.0,1.414325,0.0,2.0,2.0,2.0,1.0,boomerang_06s.jpg,joystick_01b.jpg,,,,,,,
,,,,,,,,,0.0,,,15,1.0,0.0,1.582585,0.0,3.0,3.0,3.0,1.0,sundae_08s.jpg,fire_pit_10s.jpg,,,,,,,
,,,,,,,,,0.0,,,15,0.0,1.0,1.560905,0.0,4.0,4.0,4.0,1.0,radiator_05s.jpg,ostrich_06s.jpg,,,,,,,
,,,,,,,,,0.0,,,15,1.0,0.0,1.335455,0.0,5.0,5.0,5.0,1.0,ladle_04s.jpg,powder_07s.jpg,,,,,,,
,,,,,,,,,,,,15,,,,,,,,,,,0.0,2.0,2.0,2.0,1.0,newclockpresent_3_2.xlsx,newclock_compare_task_3_2.xlsx
0.0,1.0,0.818555,0.0,0.0,0.0,0.0,1.0,glasses01a.jpg,0.0,Blue.png,1.0,15,,,,,,,,,,,,,,,,,
0.0,1.0,0.750135,0.0,1.0,1.0,1.0,1.0,piano_13n.jpg,0.0,Purple.png,1.0,15,,,,,,,,,,,,,,,,,
0.0,1.0,0.56265,0.0,2.0,2.0,2.0,1.0,candy_cane_06s.jpg,0.0,Red.png,1.0,15,,,,,,,,,,,,,,,,,
0.0,1.0,0.60539,0.0,3.0,3.0,3.0,1.0,cushion_08s.jpg,0.0,Orange.png,1.0,15,,,,,,,,,,,,,,,,,
1.0,1.0,0.757905,0.0,4.0,4.0,4.0,1.0,candy_cane_06s.jpg,1.0,Yellow.png,1.0,15,,,,,,,,,,,,,,,,,
1.0,1.0,2.13273,0.0,5.0,5.0,5.0,1.0,candy_cane_06s.jpg,1.0,Green.png,1.0,15,,,,,,,,,,,,,,,,,
0.0,1.0,0.825955,0.0,6.0,6.0,6.0,1.0,rosary_03s.jpg,0.0,Blue.png,2.0,15,,,,,,,,,,,,,,,,,
1.0,1.0,0.817075,0.0,7.0,7.0,7.0,1.0,rosary_03s.jpg,1.0,Purple.png,2.0,15,,,,,,,,,,,,,,,,,
1.0,1.0,1.05104,0.0,8.0,8.0,8.0,1.0,rosary_03s.jpg,1.0,Red.png,2.0,15,,,,,,,,,,,,,,,,,
1.0,1.0,0.90674,0.0,9.0,9.0,9.0,1.0,rosary_03s.jpg,1.0,Orange.png,2.0,15,,,,,,,,,,,,,,,,,
0.0,1.0,0.96511,0.0,10.0,10.0,10.0,1.0,kangaroo_02s.jpg,0.0,Yellow.png,2.0,15,,,,,,,,,,,,,,,,,
1.0,1.0,0.86509,0.0,11.0,11.0,11.0,1.0,kangaroo_02s.jpg,1.0,Green.png,2.0,15,,,,,,,,,,,,,,,,,
1.0,0.0,1.095585,0.0,12.0,12.0,12.0,1.0,kangaroo_02s.jpg,0.0,Blue.png,3.0,15,,,,,,,,,,,,,,,,,
1.0,1.0,0.949855,0.0,13.0,13.0,13.0,1.0,kangaroo_02s.jpg,1.0,Purple.png,3.0,15,,,,,,,,,,,,,,,,,
0.0,1.0,1.06221,0.0,14.0,14.0,14.0,1.0,ironing_board_07s.jpg,0.0,Red.png,3.0,15,,,,,,,,,,,,,,,,,
1.0,1.0,1.31847,0.0,15.0,15.0,15.0,1.0,kangaroo_02s.jpg,1.0,Orange.png,3.0,15,,,,,,,,,,,,,,,,,
0.0,1.0,0.739345,0.0,16.0,16.0,16.0,1.0,punch2_09s.jpg,0.0,Yellow.png,3.0,15,,,,,,,,,,,,,,,,,
1.0,1.0,0.94951,0.0,17.0,17.0,17.0,1.0,ironing_board_07s.jpg,1.0,Green.png,3.0,15,,,,,,,,,,,,,,,,,
0.0,1.0,0.70038,0.0,18.0,18.0,18.0,1.0,owl_15s.jpg,0.0,Blue.png,4.0,15,,,,,,,,,,,,,,,,,
0.0,1.0,1.563815,0.0,19.0,19.0,19.0,1.0,teabag_12s.jpg,0.0,Purple.png,4.0,15,,,,,,,,,,,,,,,,,
1.0,1.0,1.49352,0.0,20.0,20.0,20.0,1.0,owl_15s.jpg,1.0,Red.png,4.0,15,,,,,,,,,,,,,,,,,
0.0,1.0,0.87793,0.0,21.0,21.0,21.0,1.0,otter_05s.jpg,0.0,Orange.png,4.0,15,,,,,,,,,,,,,,,,,
1.0,1.0,0.830715,0.0,22.0,22.0,22.0,1.0,owl_15s.jpg,1.0,Yellow.png,4.0,15,,,,,,,,,,,,,,,,,
0.0,1.0,1.190705,0.0,23.0,23.0,23.0,1.0,mold2_04s.jpg,0.0,Green.png,4.0,15,,,,,,,,,,,,,,,,,
0.0,1.0,0.820855,0.0,24.0,24.0,24.0,1.0,mattress_01s.jpg,0.0,Blue.png,5.0,15,,,,,,,,,,,,,,,,,
0.0,1.0,1.40853,0.0,25.0,25.0,25.0,1.0,police_car_01s.jpg,0.0,Purple.png,5.0,15,,,,,,,,,,,,,,,,,
0.0,1.0,1.200635,0.0,26.0,26.0,26.0,1.0,stethoscope_01b.jpg,0.0,Red.png,5.0,15,,,,,,,,,,,,,,,,,
1.0,1.0,0.849045,0.0,27.0,27.0,27.0,1.0,police_car_01s.jpg,1.0,Orange.png,5.0,15,,,,,,,,,,,,,,,,,
0.0,1.0,0.74788,0.0,28.0,28.0,28.0,1.0,sparkler_02s.jpg,0.0,Yellow.png,5.0,15,,,,,,,,,,,,,,,,,
0.0,1.0,1.059125,0.0,29.0,29.0,29.0,1.0,pacifier_09s.jpg,0.0,Green.png,5.0,15,,,,,,,,,,,,,,,,,
0.0,1.0,0.870885,0.0,30.0,30.0,30.0,1.0,machine_gun_09s.jpg,0.0,Blue.png,6.0,15,,,,,,,,,,,,,,,,,
0.0,1.0,0.77641,0.0,31.0,31.0,31.0,1.0,ram_05s.jpg,0.0,Purple.png,6.0,15,,,,,,,,,,,,,,,,,
0.0,1.0,0.859165,0.0,32.0,32.0,32.0,1.0,keyboard_05s.jpg,0.0,Red.png,6.0,15,,,,,,,,,,,,,,,,,
0.0,1.0,0.64161,0.0,33.0,33.0,33.0,1.0,leash_10s.jpg,0.0,Orange.png,6.0,15,,,,,,,,,,,,,,,,,
0.0,1.0,0.628065,0.0,34.0,34.0,34.0,1.0,pan_02s.jpg,0.0,Yellow.png,6.0,15,,,,,,,,,,,,,,,,,
0.0,1.0,0.868775,0.0,35.0,35.0,35.0,1.0,mixer_12s.jpg,0.0,Green.png,6.0,15,,,,,,,,,,,,,,,,,
,,,,,,,,,0.0,,,15,1.0,0.0,1.08149,0.0,0.0,0.0,0.0,1.0,teabag_12s.jpg,punch2_09s.jpg,,,,,,,
,,,,,,,,,0.0,,,15,0.0,1.0,1.834495,0.0,1.0,1.0,1.0,1.0,mattress_01s.jpg,otter_05s.jpg,,,,,,,
,,,,,,,,,0.0,,,15,1.0,0.0,1.276225,0.0,2.0,2.0,2.0,1.0,stethoscope_01b.jpg,mold2_04s.jpg,,,,,,,
,,,,,,,,,1.0,,,15,0.0,0.0,1.589035,0.0,3.0,3.0,3.0,1.0,glasses01a.jpg,cushion_08s.jpg,,,,,,,
,,,,,,,,,1.0,,,15,0.0,0.0,1.563755,0.0,4.0,4.0,4.0,1.0,machine_gun_09s.jpg,leash_10s.jpg,,,,,,,
,,,,,,,,,0.0,,,15,1.0,0.0,1.1475,0.0,5.0,5.0,5.0,1.0,pan_02s.jpg,ram_05s.jpg,,,,,,,
,,,,,,,,,,,,15,,,,,,,,,,,0.0,3.0,3.0,3.0,1.0,newclockpresent_4_2.xlsx,newclock_compare_task_4_2.xlsx
0.0,1.0,0.63588,0.0,0.0,0.0,0.0,1.0,golf_club_03s.jpg,0.0,Blue.png,1.0,15,,,,,,,,,,,,,,,,,
1.0,1.0,0.832715,0.0,1.0,1.0,1.0,1.0,golf_club_03s.jpg,1.0,Purple.png,1.0,15,,,,,,,,,,,,,,,,,
1.0,1.0,0.76357,0.0,2.0,2.0,2.0,1.0,golf_club_03s.jpg,1.0,Red.png,1.0,15,,,,,,,,,,,,,,,,,
0.0,1.0,0.777285,0.0,3.0,3.0,3.0,1.0,turnstile_08s.jpg,0.0,Orange.png,1.0,15,,,,,,,,,,,,,,,,,
1.0,1.0,0.693145,0.0,4.0,4.0,4.0,1.0,golf_club_03s.jpg,1.0,Yellow.png,1.0,15,,,,,,,,,,,,,,,,,
0.0,1.0,0.733765,0.0,5.0,5.0,5.0,1.0,milk_02s.jpg,0.0,Green.png,1.0,15,,,,,,,,,,,,,,,,,
0.0,1.0,0.59143,0.0,6.0,6.0,6.0,1.0,orange_12s.jpg,0.0,Blue.png,2.0,15,,,,,,,,,,,,,,,,,
1.0,0.0,1.248415,0.0,7.0,7.0,7.0,1.0,milk_02s.jpg,0.0,Purple.png,2.0,15,,,,,,,,,,,,,,,,,
0.0,1.0,0.785875,0.0,8.0,8.0,8.0,1.0,latch_15s.jpg,0.0,Red.png,2.0,15,,,,,,,,,,,,,,,,,
0.0,1.0,0.697975,0.0,9.0,9.0,9.0,1.0,bank_06s.jpg,0.0,Orange.png,2.0,15,,,,,,,,,,,,,,,,,
1.0,1.0,0.758875,0.0,10.0,10.0,10.0,1.0,milk_02s.jpg,1.0,Yellow.png,2.0,15,,,,,,,,,,,,,,,,,
0.0,1.0,0.565365,0.0,11.0,11.0,11.0,1.0,crab_16s.jpg,0.0,Green.png,2.0,15,,,,,,,,,,,,,,,,,
0.0,1.0,0.645625,0.0,12.0,12.0,12.0,1.0,birdcage_08s.jpg,0.0,Blue.png,3.0,15,,,,,,,,,,,,,,,,,
0.0,1.0,0.60079,0.0,13.0,13.0,13.0,1.0,spider_web_03s.jpg,0.0,Purple.png,3.0,15,,,,,,,,,,,,,,,,,
0.0,1.0,1.18861,0.0,14.0,14.0,14.0,1.0,knitting_needle_04s.jpg,0.0,Red.png,3.0,15,,,,,,,,,,,,,,,,,
0.0,1.0,1.43487,0.0,15.0,15.0,15.0,1.0,sugar_cube_11s.jpg,0.0,Orange.png,3.0,15,,,,,,,,,,,,,,,,,
0.0,1.0,0.715035,0.0,16.0,16.0,16.0,1.0,light_switch_02s.jpg,0.0,Yellow.png,3.0,15,,,,,,,,,,,,,,,,,
0.0,1.0,0.70279,0.0,17.0,17.0,17.0,1.0,gear_07s.jpg,0.0,Green.png,3.0,15,,,,,,,,,,,,,,,,,
0.0,1.0,0.984945,0.0,18.0,18.0,18.0,1.0,tongs_08s.jpg,0.0,Blue.png,4.0,15,,,,,,,,,,,,,,,,,
0.0,1.0,0.73346,0.0,19.0,19.0,19.0,1.0,recliner_02s.jpg,0.0,Purple.png,4.0,15,,,,,,,,,,,,,,,,,
0.0,1.0,1.338335,0.0,20.0,20.0,20.0,1.0,orangutan_03s.jpg,0.0,Red.png,4.0,15,,,,,,,,,,,,,,,,,
1.0,0.0,1.10087,0.0,21.0,21.0,21.0,1.0,golf_club_03s.jpg,0.0,Orange.png,4.0,15,,,,,,,,,,,,,,,,,
0.0,1.0,0.78938,0.0,22.0,22.0,22.0,1.0,lava_02s.jpg,0.0,Yellow.png,4.0,15,,,,,,,,,,,,,,,,,
0.0,1.0,1.195945,0.0,23.0,23.0,23.0,1.0,toilet_07s.jpg,0.0,Green.png,4.0,15,,,,,,,,,,,,,,,,,
1.0,0.0,0.894625,0.0,24.0,24.0,24.0,1.0,turnstile_08s.jpg,0.0,Blue.png,5.0,15,,,,,,,,,,,,,,,,,
1.0,1.0,0.724915,0.0,25.0,25.0,25.0,1.0,turnstile_08s.jpg,1.0,Purple.png,5.0,15,,,,,,,,,,,,,,,,,
0.0,1.0,0.649405,0.0,26.0,26.0,26.0,1.0,teacup_07s.jpg,0.0,Red.png,5.0,15,,,,,,,,,,,,,,,,,
1.0,1.0,0.86223,0.0,27.0,27.0,27.0,1.0,turnstile_08s.jpg,1.0,Orange.png,5.0,15,,,,,,,,,,,,,,,,,
1.0,1.0,0.586765,0.0,28.0,28.0,28.0,1.0,turnstile_08s.jpg,1.0,Yellow.png,5.0,15,,,,,,,,,,,,,,,,,
0.0,1.0,0.78201,0.0,29.0,29.0,29.0,1.0,antenna_01b.jpg,0.0,Green.png,5.0,15,,,,,,,,,,,,,,,,,
0.0,1.0,2.306815,0.0,30.0,30.0,30.0,1.0,keyhole_03s.jpg,0.0,Blue.png,6.0,15,,,,,,,,,,,,,,,,,
0.0,1.0,1.816525,0.0,31.0,31.0,31.0,1.0,air_pump_05s.jpg,0.0,Purple.png,6.0,15,,,,,,,,,,,,,,,,,
0.0,1.0,1.2565,0.0,32.0,32.0,32.0,1.0,eggshell_14s.jpg,0.0,Red.png,6.0,15,,,,,,,,,,,,,,,,,
0.0,1.0,0.88209,0.0,33.0,33.0,33.0,1.0,eyedropper_12s.jpg,0.0,Orange.png,6.0,15,,,,,,,,,,,,,,,,,
0.0,1.0,1.076985,0.0,34.0,34.0,34.0,1.0,machete_06s.jpg,0.0,Yellow.png,6.0,15,,,,,,,,,,,,,,,,,
1.0,1.0,1.14944,0.0,35.0,35.0,35.0,1.0,eyedropper_12s.jpg,1.0,Green.png,6.0,15,,,,,,,,,,,,,,,,,
,,,,,,,,,1.0,,,15,1.0,1.0,0.929625,0.0,0.0,0.0,0.0,1.0,sugar_cube_11s.jpg,tongs_08s.jpg,,,,,,,
,,,,,,,,,1.0,,,15,0.0,0.0,1.222555,0.0,1.0,1.0,1.0,1.0,antenna_01b.jpg,eggshell_14s.jpg,,,,,,,
,,,,,,,,,1.0,,,15,1.0,1.0,1.272055,0.0,2.0,2.0,2.0,1.0,bank_06s.jpg,birdcage_08s.jpg,,,,,,,
,,,,,,,,,1.0,,,15,0.0,0.0,1.560755,0.0,3.0,3.0,3.0,1.0,air_pump_05s.jpg,machete_06s.jpg,,,,,,,
,,,,,,,,,1.0,,,15,1.0,1.0,1.144165,0.0,4.0,4.0,4.0,1.0,latch_15s.jpg,crab_16s.jpg,,,,,,,
,,,,,,,,,1.0,,,15,0.0,0.0,1.94529,0.0,5.0,5.0,5.0,1.0,spider_web_03s.jpg,light_switch_02s.jpg,,,,,,,
,,,,,,,,,,,,15,,,,,,,,,,,0.0,4.0,4.0,4.0,1.0,newclockpresent_5_2.xlsx,newclock_compare_task_5_2.xlsx
0.0,1.0,0.835115,0.0,0.0,0.0,0.0,1.0,gazelle_10s.jpg,0.0,Blue.png,1.0,15,,,,,,,,,,,,,,,,,
0.0,1.0,2.37647,0.0,1.0,1.0,1.0,1.0,saddle_06s.jpg,0.0,Purple.png,1.0,15,,,,,,,,,,,,,,,,,
1.0,1.0,0.82724,0.0,2.0,2.0,2.0,1.0,saddle_06s.jpg,1.0,Red.png,1.0,15,,,,,,,,,,,,,,,,,
0.0,1.0,0.636415,0.0,3.0,3.0,3.0,1.0,kimono_13s.jpg,0.0,Orange.png,1.0,15,,,,,,,,,,,,,,,,,
0.0,1.0,0.779345,0.0,4.0,4.0,4.0,1.0,timer_03s.jpg,0.0,Yellow.png,1.0,15,,,,,,,,,,,,,,,,,
0.0,1.0,1.106605,0.0,5.0,5.0,5.0,1.0,tulip_02s.jpg,0.0,Green.png,1.0,15,,,,,,,,,,,,,,,,,
0.0,1.0,0.735835,0.0,6.0,6.0,6.0,1.0,prism_10s.jpg,0.0,Blue.png,2.0,15,,,,,,,,,,,,,,,,,
0.0,1.0,0.59929,0.0,7.0,7.0,7.0,1.0,razor_12s.jpg,0.0,Purple.png,2.0,15,,,,,,,,,,,,,,,,,
0.0,1.0,0.96607,0.0,8.0,8.0,8.0,1.0,blazer_02s.jpg,0.0,Red.png,2.0,15,,,,,,,,,,,,,,,,,
1.0,1.0,0.883,0.0,9.0,9.0,9.0,1.0,razor_12s.jpg,1.0,Orange.png,2.0,15,,,,,,,,,,,,,,,,,
0.0,1.0,0.63317,0.0,10.0,10.0,10.0,1.0,lamb_chop_07s.jpg,0.0,Yellow.png,2.0,15,,,,,,,,,,,,,,,,,
1.0,1.0,0.68299,0.0,11.0,11.0,11.0,1.0,razor_12s.jpg,1.0,Green.png,2.0,15,,,,,,,,,,,,,,,,,
1.0,0.0,0.916275,0.0,12.0,12.0,12.0,1.0,lamb_chop_07s.jpg,0.0,Blue.png,3.0,15,,,,,,,,,,,,,,,,,
1.0,1.0,1.08274,0.0,13.0,13.0,13.0,1.0,lamb_chop_07s.jpg,1.0,Purple.png,3.0,15,,,,,,,,,,,,,,,,,
1.0,0.0,1.33297,0.0,14.0,14.0,14.0,1.0,timer_03s.jpg,0.0,Red.png,3.0,15,,,,,,,,,,,,,,,,,
1.0,1.0,0.94981,0.0,15.0,15.0,15.0,1.0,lamb_chop_07s.jpg,1.0,Orange.png,3.0,15,,,,,,,,,,,,,,,,,
0.0,1.0,0.782815,0.0,16.0,16.0,16.0,1.0,glue_01s.jpg,0.0,Yellow.png,3.0,15,,,,,,,,,,,,,,,,,
0.0,1.0,1.23309,0.0,17.0,17.0,17.0,1.0,solar_panel_02s.jpg,0.0,Green.png,3.0,15,,,,,,,,,,,,,,,,,
0.0,1.0,0.666155,0.0,18.0,18.0,18.0,1.0,muffin_12n.jpg,0.0,Blue.png,4.0,15,,,,,,,,,,,,,,,,,
0.0,1.0,0.716115,0.0,19.0,19.0,19.0,1.0,pepper2_21s.jpg,0.0,Purple.png,4.0,15,,,,,,,,,,,,,,,,,
0.0,1.0,0.831895,0.0,20.0,20.0,20.0,1.0,marker_05s.jpg,0.0,Red.png,4.0,15,,,,,,,,,,,,,,,,,
0.0,1.0,1.03375,0.0,21.0,21.0,21.0,1.0,soccer_ball_12s.jpg,0.0,Orange.png,4.0,15,,,,,,,,,,,,,,,,,
0.0,1.0,1.06663,0.0,22.0,22.0,22.0,1.0,amber_04s.jpg,0.0,Yellow.png,4.0,15,,,,,,,,,,,,,,,,,
0.0,1.0,0.74689,0.0,23.0,23.0,23.0,1.0,stopwatch_04s.jpg,0.0,Green.png,4.0,15,,,,,,,,,,,,,,,,,
1.0,0.0,0.898805,0.0,24.0,24.0,24.0,1.0,amber_04s.jpg,0.0,Blue.png,5.0,15,,,,,,,,,,,,,,,,,
0.0,1.0,0.816985,0.0,25.0,25.0,25.0,1.0,racehorse_03s.jpg,0.0,Purple.png,5.0,15,,,,,,,,,,,,,,,,,
1.0,1.0,0.983815,0.0,26.0,26.0,26.0,1.0,amber_04s.jpg,1.0,Red.png,5.0,15,,,,,,,,,,,,,,,,,
0.0,1.0,0.733335,0.0,27.0,27.0,27.0,1.0,duck_01b.jpg,0.0,Orange.png,5.0,15,,,,,,,,,,,,,,,,,
1.0,1.0,0.999535,0.0,28.0,28.0,28.0,1.0,amber_04s.jpg,1.0,Yellow.png,5.0,15,,,,,,,,,,,,,,,,,
1.0,1.0,1.182815,0.0,29.0,29.0,29.0,1.0,duck_01b.jpg,1.0,Green.png,5.0,15,,,,,,,,,,,,,,,,,
1.0,0.0,1.45016,0.0,30.0,30.0,30.0,1.0,duck_01b.jpg,0.0,Blue.png,6.0,15,,,,,,,,,,,,,,,,,
1.0,1.0,1.084165,0.0,31.0,31.0,31.0,1.0,duck_01b.jpg,1.0,Purple.png,6.0,15,,,,,,,,,,,,,,,,,
0.0,1.0,0.73395,0.0,32.0,32.0,32.0,1.0,magnet_03s.jpg,0.0,Red.png,6.0,15,,,,,,,,,,,,,,,,,
1.0,1.0,0.64453,0.0,33.0,33.0,33.0,1.0,duck_01b.jpg,1.0,Orange.png,6.0,15,,,,,,,,,,,,,,,,,
0.0,1.0,0.675235,0.0,34.0,34.0,34.0,1.0,swimming_pool_17s.jpg,0.0,Yellow.png,6.0,15,,,,,,,,,,,,,,,,,
0.0,1.0,0.87833,0.0,35.0,35.0,35.0,1.0,roulette_wheel_04s.jpg,0.0,Green.png,6.0,15,,,,,,,,,,,,,,,,,
,,,,,,,,,0.0,,,15,1.0,0.0,1.374615,0.0,0.0,0.0,0.0,1.0,blazer_02s.jpg,tulip_02s.jpg,,,,,,,
,,,,,,,,,1.0,,,15,0.0,0.0,0.9921,0.0,1.0,1.0,1.0,1.0,glue_01s.jpg,pepper2_21s.jpg,,,,,,,
,,,,,,,,,1.0,,,15,1.0,1.0,0.93396,0.0,2.0,2.0,2.0,1.0,kimono_13s.jpg,prism_10s.jpg,,,,,,,
,,,,,,,,,0.0,,,15,0.0,1.0,0.773525,0.0,3.0,3.0,3.0,1.0,soccer_ball_12s.jpg,muffin_12n.jpg,,,,,,,
,,,,,,,,,1.0,,,15,1.0,1.0,0.80558,0.0,4.0,4.0,4.0,1.0,magnet_03s.jpg,roulette_wheel_04s.jpg,,,,,,,
,,,,,,,,,0.0,,,15,0.0,1.0,0.81805,0.0,5.0,5.0,5.0,1.0,stopwatch_04s.jpg,marker_05s.jpg,,,,,,,
,,,,,,,,,,,,15,,,,,,,,,,,0.0,5.0,5.0,5.0,1.0,newclockpresent_6_2.xlsx,newclock_compare_task_6_2.xlsx
0.0,1.0,0.694755,0.0,0.0,0.0,0.0,1.0,slingshot_07s.jpg,0.0,Blue.png,1.0,15,,,,,,,,,,,,,,,,,
1.0,1.0,0.68384,0.0,1.0,1.0,1.0,1.0,slingshot_07s.jpg,1.0,Purple.png,1.0,15,,,,,,,,,,,,,,,,,
0.0,1.0,0.934805,0.0,2.0,2.0,2.0,1.0,aluminum_foil_08s.jpg,0.0,Red.png,1.0,15,,,,,,,,,,,,,,,,,
0.0,1.0,0.86796,0.0,3.0,3.0,3.0,1.0,ink_08s.jpg,0.0,Orange.png,1.0,15,,,,,,,,,,,,,,,,,
1.0,1.0,0.759085,0.0,4.0,4.0,4.0,1.0,aluminum_foil_08s.jpg,1.0,Yellow.png,1.0,15,,,,,,,,,,,,,,,,,
1.0,1.0,0.653715,0.0,5.0,5.0,5.0,1.0,slingshot_07s.jpg,1.0,Green.png,1.0,15,,,,,,,,,,,,,,,,,
1.0,0.0,0.68868,0.0,6.0,6.0,6.0,1.0,aluminum_foil_08s.jpg,0.0,Blue.png,2.0,15,,,,,,,,,,,,,,,,,
1.0,1.0,0.654435,0.0,7.0,7.0,7.0,1.0,aluminum_foil_08s.jpg,1.0,Purple.png,2.0,15,,,,,,,,,,,,,,,,,
0.0,1.0,0.82787,0.0,8.0,8.0,8.0,1.0,ice-cream_cone_06s.jpg,0.0,Red.png,2.0,15,,,,,,,,,,,,,,,,,
1.0,0.0,0.86733,0.0,9.0,9.0,9.0,1.0,ink_08s.jpg,0.0,Orange.png,2.0,15,,,,,,,,,,,,,,,,,
0.0,1.0,0.86304,0.0,10.0,10.0,10.0,1.0,emerald_02s.jpg,0.0,Yellow.png,2.0,15,,,,,,,,,,,,,,,,,
0.0,1.0,1.250285,0.0,11.0,11.0,11.0,1.0,bathtub_23s.jpg,0.0,Green.png,2.0,15,,,,,,,,,,,,,,,,,
0.0,1.0,0.70121,0.0,12.0,12.0,12.0,1.0,bubble_01b.jpg,0.0,Blue.png,3.0,15,,,,,,,,,,,,,,,,,
0.0,1.0,0.769985,0.0,13.0,13.0,13.0,1.0,mirror_12s.jpg,0.0,Purple.png,3.0,15,,,,,,,,,,,,,,,,,
0.0,1.0,0.88234,0.0,14.0,14.0,14.0,1.0,swing_set_15s.jpg,0.0,Red.png,3.0,15,,,,,,,,,,,,,,,,,
0.0,1.0,0.882375,0.0,15.0,15.0,15.0,1.0,pinwheel_06s.jpg,0.0,Orange.png,3.0,15,,,,,,,,,,,,,,,,,
0.0,0.0,0.840535,0.0,16.0,16.0,16.0,1.0,swing_set_15s.jpg,1.0,Yellow.png,3.0,15,,,,,,,,,,,,,,,,,
1.0,1.0,0.66308,0.0,17.0,17.0,17.0,1.0,pinwheel_06s.jpg,1.0,Green.png,3.0,15,,,,,,,,,,,,,,,,,
1.0,0.0,0.67489,0.0,18.0,18.0,18.0,1.0,ink_08s.jpg,0.0,Blue.png,4.0,15,,,,,,,,,,,,,,,,,
0.0,1.0,0.76475,0.0,19.0,19.0,19.0,1.0,plunger_08s.jpg,0.0,Purple.png,4.0,15,,,,,,,,,,,,,,,,,
1.0,1.0,0.5949,0.0,20.0,20.0,20.0,1.0,ink_08s.jpg,1.0,Red.png,4.0,15,,,,,,,,,,,,,,,,,
1.0,1.0,0.54443,0.0,21.0,21.0,21.0,1.0,ink_08s.jpg,1.0,Orange.png,4.0,15,,,,,,,,,,,,,,,,,
0.0,1.0,0.7825,0.0,22.0,22.0,22.0,1.0,metronome_03s.jpg,0.0,Yellow.png,4.0,15,,,,,,,,,,,,,,,,,
0.0,1.0,0.74259,0.0,23.0,23.0,23.0,1.0,puppy_08s.jpg,0.0,Green.png,4.0,15,,,,,,,,,,,,,,,,,
0.0,1.0,0.71373,0.0,24.0,24.0,24.0,1.0,treasure_08s.jpg,0.0,Blue.png,5.0,15,,,,,,,,,,,,,,,,,
0.0,1.0,0.703,0.0,25.0,25.0,25.0,1.0,penguin_16s.jpg,0.0,Purple.png,5.0,15,,,,,,,,,,,,,,,,,
0.0,1.0,0.520585,0.0,26.0,26.0,26.0,1.0,bacon_05s.jpg,0.0,Red.png,5.0,15,,,,,,,,,,,,,,,,,
0.0,1.0,0.65842,0.0,27.0,27.0,27.0,1.0,giraffe_11s.jpg,0.0,Orange.png,5.0,15,,,,,,,,,,,,,,,,,
0.0,1.0,1.14823,0.0,28.0,28.0,28.0,1.0,rug_09s.jpg,0.0,Yellow.png,5.0,15,,,,,,,,,,,,,,,,,
0.0,1.0,0.633105,0.0,29.0,29.0,29.0,1.0,lamp_08s.jpg,0.0,Green.png,5.0,15,,,,,,,,,,,,,,,,,
1.0,0.0,0.901785,0.0,30.0,30.0,30.0,1.0,metronome_03s.jpg,0.0,Blue.png,6.0,15,,,,,,,,,,,,,,,,,
1.0,1.0,0.65962,0.0,31.0,31.0,31.0,1.0,metronome_03s.jpg,1.0,Purple.png,6.0,15,,,,,,,,,,,,,,,,,
0.0,1.0,0.742805,0.0,32.0,32.0,32.0,1.0,lip_gloss_06s.jpg,0.0,Red.png,6.0,15,,,,,,,,,,,,,,,,,
1.0,1.0,1.18591,0.0,33.0,33.0,33.0,1.0,metronome_03s.jpg,1.0,Orange.png,6.0,15,,,,,,,,,,,,,,,,,
0.0,1.0,0.995905,0.0,34.0,34.0,34.0,1.0,laser_pointer_02s.jpg,0.0,Yellow.png,6.0,15,,,,,,,,,,,,,,,,,
1.0,1.0,0.80408,0.0,35.0,35.0,35.0,1.0,metronome_03s.jpg,1.0,Green.png,6.0,15,,,,,,,,,,,,,,,,,
,,,,,,,,,1.0,,,15,0.0,0.0,1.55008,0.0,0.0,0.0,0.0,1.0,emerald_02s.jpg,mirror_12s.jpg,,,,,,,
,,,,,,,,,1.0,,,15,1.0,1.0,1.23525,0.0,1.0,1.0,1.0,1.0,puppy_08s.jpg,bacon_05s.jpg,,,,,,,
,,,,,,,,,0.0,,,15,0.0,1.0,0.86571,0.0,2.0,2.0,2.0,1.0,lip_gloss_06s.jpg,lamp_08s.jpg,,,,,,,
,,,,,,,,,0.0,,,15,1.0,0.0,0.44358,0.0,3.0,3.0,3.0,1.0,bathtub_23s.jpg,ice-cream_cone_06s.jpg,,,,,,,
,,,,,,,,,0.0,,,15,0.0,1.0,0.218895,0.0,4.0,4.0,4.0,1.0,giraffe_11s.jpg,treasure_08s.jpg,,,,,,,
,,,,,,,,,0.0,,,15,1.0,0.0,0.110055,0.0,5.0,5.0,5.0,1.0,rug_09s.jpg,penguin_16s.jpg,,,,,,,
,,,,,,,,,,,,15,,,,,,,,,,,0.0,6.0,6.0,6.0,1.0,newclockpresent_7_2.xlsx,newclock_compare_task_7_2.xlsx
0.0,1.0,0.83902,0.0,0.0,0.0,0.0,1.0,ant_12s.jpg,0.0,Blue.png,1.0,15,,,,,,,,,,,,,,,,,
1.0,1.0,0.96791,0.0,1.0,1.0,1.0,1.0,ant_12s.jpg,1.0,Purple.png,1.0,15,,,,,,,,,,,,,,,,,
0.0,1.0,0.63298,0.0,2.0,2.0,2.0,1.0,ticktacktoe_08s.jpg,0.0,Red.png,1.0,15,,,,,,,,,,,,,,,,,
0.0,1.0,0.75295,0.0,3.0,3.0,3.0,1.0,frog_09s.jpg,0.0,Orange.png,1.0,15,,,,,,,,,,,,,,,,,
1.0,1.0,0.721945,0.0,4.0,4.0,4.0,1.0,ticktacktoe_08s.jpg,1.0,Yellow.png,1.0,15,,,,,,,,,,,,,,,,,
0.0,1.0,0.85527,0.0,5.0,5.0,5.0,1.0,feather02.jpg,0.0,Green.png,1.0,15,,,,,,,,,,,,,,,,,
0.0,1.0,0.66056,0.0,6.0,6.0,6.0,1.0,gas_mask_11s.jpg,0.0,Blue.png,2.0,15,,,,,,,,,,,,,,,,,
1.0,1.0,0.716505,0.0,7.0,7.0,7.0,1.0,gas_mask_11s.jpg,1.0,Purple.png,2.0,15,,,,,,,,,,,,,,,,,
0.0,1.0,0.765085,0.0,8.0,8.0,8.0,1.0,mop_08s.jpg,0.0,Red.png,2.0,15,,,,,,,,,,,,,,,,,
1.0,1.0,0.723295,0.0,9.0,9.0,9.0,1.0,gas_mask_11s.jpg,1.0,Orange.png,2.0,15,,,,,,,,,,,,,,,,,
0.0,1.0,0.600855,0.0,10.0,10.0,10.0,1.0,pea_11s.jpg,0.0,Yellow.png,2.0,15,,,,,,,,,,,,,,,,,
0.0,1.0,0.81003,0.0,11.0,11.0,11.0,1.0,bowler_hat_10s.jpg,0.0,Green.png,2.0,15,,,,,,,,,,,,,,,,,
0.0,1.0,0.88245,0.0,12.0,12.0,12.0,1.0,pencil_sharpener_09n.jpg,0.0,Blue.png,3.0,15,,,,,,,,,,,,,,,,,
0.0,1.0,1.157015,0.0,13.0,13.0,13.0,1.0,rice_12s.jpg,0.0,Purple.png,3.0,15,,,,,,,,,,,,,,,,,
0.0,1.0,0.79421,0.0,14.0,14.0,14.0,1.0,stamp1_11s.jpg,0.0,Red.png,3.0,15,,,,,,,,,,,,,,,,,
0.0,1.0,0.71158,0.0,15.0,15.0,15.0,1.0,jersey_02s.jpg,0.0,Orange.png,3.0,15,,,,,,,,,,,,,,,,,
0.0,1.0,0.86417,0.0,16.0,16.0,16.0,1.0,tiara_05s.jpg,0.0,Yellow.png,3.0,15,,,,,,,,,,,,,,,,,
0.0,1.0,0.58568,0.0,17.0,17.0,17.0,1.0,target_11s.jpg,0.0,Green.png,3.0,15,,,,,,,,,,,,,,,,,
0.0,1.0,1.435395,0.0,18.0,18.0,18.0,1.0,dirt_bike_11s.jpg,0.0,Blue.png,4.0,15,,,,,,,,,,,,,,,,,
0.0,1.0,1.14969,0.0,19.0,19.0,19.0,1.0,doily_13s.jpg,0.0,Purple.png,4.0,15,,,,,,,,,,,,,,,,,
0.0,1.0,1.309885,0.0,20.0,20.0,20.0,1.0,sunglasses_11s.jpg,0.0,Red.png,4.0,15,,,,,,,,,,,,,,,,,
0.0,1.0,1.19484,0.0,21.0,21.0,21.0,1.0,compass_10n.jpg,0.0,Orange.png,4.0,15,,,,,,,,,,,,,,,,,
1.0,1.0,0.94731,0.0,22.0,22.0,22.0,1.0,sunglasses_11s.jpg,1.0,Yellow.png,4.0,15,,,,,,,,,,,,,,,,,
1.0,1.0,1.285385,0.0,23.0,23.0,23.0,1.0,sunglasses_11s.jpg,1.0,Green.png,4.0,15,,,,,,,,,,,,,,,,,
0.0,1.0,1.545285,0.0,24.0,24.0,24.0,1.0,seagull_01b.jpg,0.0,Blue.png,5.0,15,,,,,,,,,,,,,,,,,
0.0,1.0,1.511635,0.0,25.0,25.0,25.0,1.0,footprint_11s.jpg,0.0,Purple.png,5.0,15,,,,,,,,,,,,,,,,,
,0.0,,0.0,26.0,26.0,26.0,1.0,projector_08s.jpg,0.0,Red.png,5.0,15,,,,,,,,,,,,,,,,,
1.0,1.0,1.250595,0.0,27.0,27.0,27.0,1.0,projector_08s.jpg,1.0,Orange.png,5.0,15,,,,,,,,,,,,,,,,,
0.0,1.0,0.89797,0.0,28.0,28.0,28.0,1.0,money_07s.jpg,0.0,Yellow.png,5.0,15,,,,,,,,,,,,,,,,,
1.0,0.0,1.03478,0.0,29.0,29.0,29.0,1.0,flip_flop_03s.jpg,0.0,Green.png,5.0,15,,,,,,,,,,,,,,,,,
0.0,1.0,0.724815,0.0,30.0,30.0,30.0,1.0,ring_03s.jpg,0.0,Blue.png,6.0,15,,,,,,,,,,,,,,,,,
1.0,0.0,0.88669,0.0,31.0,31.0,31.0,1.0,flip_flop_03s.jpg,0.0,Purple.png,6.0,15,,,,,,,,,,,,,,,,,
1.0,1.0,0.88967,0.0,32.0,32.0,32.0,1.0,flip_flop_03s.jpg,1.0,Red.png,6.0,15,,,,,,,,,,,,,,,,,
1.0,1.0,0.704965,0.0,33.0,33.0,33.0,1.0,flip_flop_03s.jpg,1.0,Orange.png,6.0,15,,,,,,,,,,,,,,,,,
0.0,1.0,0.701535,0.0,34.0,34.0,34.0,1.0,screwdriver02a.jpg,0.0,Yellow.png,6.0,15,,,,,,,,,,,,,,,,,
1.0,1.0,0.68752,0.0,35.0,35.0,35.0,1.0,screwdriver02a.jpg,1.0,Green.png,6.0,15,,,,,,,,,,,,,,,,,
,,,,,,,,,0.0,,,15,1.0,0.0,1.101715,0.0,0.0,0.0,0.0,1.0,mop_08s.jpg,feather02.jpg,,,,,,,
,,,,,,,,,1.0,,,15,0.0,0.0,0.384635,0.0,1.0,1.0,1.0,1.0,pea_11s.jpg,rice_12s.jpg,,,,,,,
,,,,,,,,,1.0,,,15,1.0,1.0,0.213425,0.0,2.0,2.0,2.0,1.0,tiara_05s.jpg,doily_13s.jpg,,,,,,,
,,,,,,,,,1.0,,,15,0.0,0.0,0.207075,0.0,3.0,3.0,3.0,1.0,footprint_11s.jpg,money_07s.jpg,,,,,,,
,,,,,,,,,1.0,,,15,1.0,1.0,0.180965,0.0,4.0,4.0,4.0,1.0,pencil_sharpener_09n.jpg,jersey_02s.jpg,,,,,,,
,,,,,,,,,1.0,,,15,0.0,0.0,0.20473,0.0,5.0,5.0,5.0,1.0,stamp1_11s.jpg,target_11s.jpg,,,,,,,
,,,,,,,,,,,,15,,,,,,,,,,,0.0,7.0,7.0,7.0,1.0,newclockpresent_8_2.xlsx,newclock_compare_task_8_2.xlsx
0.0,1.0,0.766,0.0,0.0,0.0,0.0,1.0,quilt_03s.jpg,0.0,Blue.png,1.0,15,,,,,,,,,,,,,,,,,
0.0,1.0,0.64947,0.0,1.0,1.0,1.0,1.0,stingray_02s.jpg,0.0,Purple.png,1.0,15,,,,,,,,,,,,,,,,,
0.0,1.0,0.80364,0.0,2.0,2.0,2.0,1.0,mousetrap_15n.jpg,0.0,Red.png,1.0,15,,,,,,,,,,,,,,,,,
0.0,1.0,0.531475,0.0,3.0,3.0,3.0,1.0,dashboard_02s.jpg,0.0,Orange.png,1.0,15,,,,,,,,,,,,,,,,,
1.0,1.0,0.98419,0.0,4.0,4.0,4.0,1.0,quilt_03s.jpg,1.0,Yellow.png,1.0,15,,,,,,,,,,,,,,,,,
1.0,1.0,0.66963,0.0,5.0,5.0,5.0,1.0,quilt_03s.jpg,1.0,Green.png,1.0,15,,,,,,,,,,,,,,,,,
0.0,1.0,0.97757,0.0,6.0,6.0,6.0,1.0,thorn_13s.jpg,0.0,Blue.png,2.0,15,,,,,,,,,,,,,,,,,
0.0,1.0,0.72322,0.0,7.0,7.0,7.0,1.0,mitten_10s.jpg,0.0,Purple.png,2.0,15,,,,,,,,,,,,,,,,,
0.0,1.0,0.67995,0.0,8.0,8.0,8.0,1.0,fondue_07s.jpg,0.0,Red.png,2.0,15,,,,,,,,,,,,,,,,,
0.0,1.0,0.67535,0.0,9.0,9.0,9.0,1.0,peach_04s.jpg,0.0,Orange.png,2.0,15,,,,,,,,,,,,,,,,,
0.0,1.0,0.78508,0.0,10.0,10.0,10.0,1.0,stump_02s.jpg,0.0,Yellow.png,2.0,15,,,,,,,,,,,,,,,,,
0.0,1.0,0.738785,0.0,11.0,11.0,11.0,1.0,rabbit_03s.jpg,0.0,Green.png,2.0,15,,,,,,,,,,,,,,,,,
0.0,1.0,0.656375,0.0,12.0,12.0,12.0,1.0,champagne_18s.jpg,0.0,Blue.png,3.0,15,,,,,,,,,,,,,,,,,
1.0,0.0,1.05011,0.0,13.0,13.0,13.0,1.0,rabbit_03s.jpg,0.0,Purple.png,3.0,15,,,,,,,,,,,,,,,,,
0.0,1.0,0.70398,0.0,14.0,14.0,14.0,1.0,denture_03s.jpg,0.0,Red.png,3.0,15,,,,,,,,,,,,,,,,,
1.0,1.0,1.331705,0.0,15.0,15.0,15.0,1.0,rabbit_03s.jpg,1.0,Orange.png,3.0,15,,,,,,,,,,,,,,,,,
0.0,1.0,0.67487,0.0,16.0,16.0,16.0,1.0,turtleneck_11s.jpg,0.0,Yellow.png,3.0,15,,,,,,,,,,,,,,,,,
1.0,1.0,0.61231,0.0,17.0,17.0,17.0,1.0,rabbit_03s.jpg,1.0,Green.png,3.0,15,,,,,,,,,,,,,,,,,
0.0,1.0,1.237225,0.0,18.0,18.0,18.0,1.0,typewriter_11s.jpg,0.0,Blue.png,4.0,15,,,,,,,,,,,,,,,,,
0.0,1.0,1.757415,0.0,19.0,19.0,19.0,1.0,thread_08s.jpg,0.0,Purple.png,4.0,15,,,,,,,,,,,,,,,,,
0.0,1.0,1.483735,0.0,20.0,20.0,20.0,1.0,bean_06s.jpg,0.0,Red.png,4.0,15,,,,,,,,,,,,,,,,,
0.0,1.0,0.716645,0.0,21.0,21.0,21.0,1.0,rolling_pin_02s.jpg,0.0,Orange.png,4.0,15,,,,,,,,,,,,,,,,,
0.0,1.0,0.852385,0.0,22.0,22.0,22.0,1.0,tattoo_14s.jpg,0.0,Yellow.png,4.0,15,,,,,,,,,,,,,,,,,
0.0,1.0,0.67438,0.0,23.0,23.0,23.0,1.0,eiffeltower.jpg,0.0,Green.png,4.0,15,,,,,,,,,,,,,,,,,
1.0,0.0,0.723735,0.0,24.0,24.0,24.0,1.0,fondue_07s.jpg,0.0,Blue.png,5.0,15,,,,,,,,,,,,,,,,,
1.0,1.0,0.62994,0.0,25.0,25.0,25.0,1.0,fondue_07s.jpg,1.0,Purple.png,5.0,15,,,,,,,,,,,,,,,,,
0.0,1.0,0.68084,0.0,26.0,26.0,26.0,1.0,omelet_07s.jpg,0.0,Red.png,5.0,15,,,,,,,,,,,,,,,,,
1.0,1.0,0.75612,0.0,27.0,27.0,27.0,1.0,fondue_07s.jpg,1.0,Orange.png,5.0,15,,,,,,,,,,,,,,,,,
0.0,1.0,0.83726,0.0,28.0,28.0,28.0,1.0,radio_09s.jpg,0.0,Yellow.png,5.0,15,,,,,,,,,,,,,,,,,
1.0,1.0,0.509115,0.0,29.0,29.0,29.0,1.0,fondue_07s.jpg,1.0,Green.png,5.0,15,,,,,,,,,,,,,,,,,
0.0,1.0,0.62342,0.0,30.0,30.0,30.0,1.0,roller_coaster_07s.jpg,0.0,Blue.png,6.0,15,,,,,,,,,,,,,,,,,
0.0,1.0,0.57776,0.0,31.0,31.0,31.0,1.0,loveseat_08s.jpg,0.0,Purple.png,6.0,15,,,,,,,,,,,,,,,,,
0.0,0.0,1.11845,0.0,32.0,32.0,32.0,1.0,roller_coaster_07s.jpg,1.0,Red.png,6.0,15,,,,,,,,,,,,,,,,,
1.0,1.0,0.70255,0.0,33.0,33.0,33.0,1.0,roller_coaster_07s.jpg,1.0,Orange.png,6.0,15,,,,,,,,,,,,,,,,,
1.0,1.0,0.809275,0.0,34.0,34.0,34.0,1.0,roller_coaster_07s.jpg,1.0,Yellow.png,6.0,15,,,,,,,,,,,,,,,,,
1.0,1.0,0.509565,0.0,35.0,35.0,35.0,1.0,roller_coaster_07s.jpg,1.0,Green.png,6.0,15,,,,,,,,,,,,,,,,,
,,,,,,,,,0.0,,,15,1.0,0.0,1.322185,0.0,0.0,0.0,0.0,1.0,loveseat_08s.jpg,radio_09s.jpg,,,,,,,
,,,,,,,,,1.0,,,15,0.0,0.0,1.603185,0.0,1.0,1.0,1.0,1.0,dashboard_02s.jpg,thorn_13s.jpg,,,,,,,
,,,,,,,,,0.0,,,15,0.0,1.0,1.235075,0.0,2.0,2.0,2.0,1.0,champagne_18s.jpg,peach_04s.jpg,,,,,,,
,,,,,,,,,1.0,,,15,0.0,0.0,1.344105,0.0,3.0,3.0,3.0,1.0,mitten_10s.jpg,stump_02s.jpg,,,,,,,
,,,,,,,,,1.0,,,15,1.0,1.0,0.5778,0.0,4.0,4.0,4.0,1.0,typewriter_11s.jpg,rolling_pin_02s.jpg,,,,,,,
,,,,,,,,,1.0,,,15,1.0,1.0,1.101645,0.0,5.0,5.0,5.0,1.0,thread_08s.jpg,tattoo_14s.jpg,,,,,,,
,,,,,,,,,,,,15,,,,,,,,,,,0.0,8.0,8.0,8.0,1.0,newclockpresent_9_2.xlsx,newclock_compare_task_9_2.xlsx
