key_resp.keys,key_resp.corr,key_resp.rt,present_segment.thisRepN,present_segment.thisTrialN,present_segment.thisN,present_segment.thisIndex,present_segment.ran,pictures,answer,clock,segment,participant,key_resp_2.keys,key_resp_2.corr,key_resp_2.rt,compare_segment.thisRepN,compare_segment.thisTrialN,compare_segment.thisN,compare_segment.thisIndex,compare_segment.ran,item_a,item_b,clock_conditions.thisRepN,clock_conditions.thisTrialN,clock_conditions.thisN,clock_conditions.thisIndex,clock_conditions.ran,present,compare
0.0,1.0,0.559815,0.0,0.0,0.0,0.0,1.0,insole_11s.jpg,0.0,Blue.png,1.0,118,,,,,,,,,,,,,,,,,
0.0,1.0,0.568845,0.0,1.0,1.0,1.0,1.0,tupperware_09s.jpg,0.0,Purple.png,1.0,118,,,,,,,,,,,,,,,,,
0.0,1.0,1.100005,0.0,2.0,2.0,2.0,1.0,tupperware_09s.jpg,0.0,Red.png,1.0,118,,,,,,,,,,,,,,,,,
0.0,1.0,0.73308,0.0,3.0,3.0,3.0,1.0,fox_13s.jpg,0.0,Orange.png,1.0,118,,,,,,,,,,,,,,,,,
1.0,1.0,0.935015,0.0,4.0,4.0,4.0,1.0,tupperware_09s.jpg,1.0,Yellow.png,1.0,118,,,,,,,,,,,,,,,,,
0.0,1.0,0.79272,0.0,5.0,5.0,5.0,1.0,lavender_10s.jpg,0.0,Green.png,1.0,118,,,,,,,,,,,,,,,,,
1.0,1.0,0.535215,0.0,6.0,6.0,6.0,1.0,tupperware_09s.jpg,1.0,Blue.png,2.0,118,,,,,,,,,,,,,,,,,
0.0,1.0,1.18441,0.0,7.0,7.0,7.0,1.0,poinsettia_04s.jpg,0.0,Purple.png,2.0,118,,,,,,,,,,,,,,,,,
0.0,1.0,0.64995,0.0,8.0,8.0,8.0,1.0,margarita_03s.jpg,0.0,Red.png,2.0,118,,,,,,,,,,,,,,,,,
0.0,1.0,0.833435,0.0,9.0,9.0,9.0,1.0,toothpaste_12s.jpg,0.0,Orange.png,2.0,118,,,,,,,,,,,,,,,,,
0.0,1.0,0.950075,0.0,10.0,10.0,10.0,1.0,ladder_15s.jpg,0.0,Yellow.png,2.0,118,,,,,,,,,,,,,,,,,
0.0,1.0,1.382115,0.0,11.0,11.0,11.0,1.0,pocketknife_12s.jpg,0.0,Green.png,2.0,118,,,,,,,,,,,,,,,,,
0.0,1.0,0.93367,0.0,12.0,12.0,12.0,1.0,spoon02a.jpg,0.0,Blue.png,3.0,118,,,,,,,,,,,,,,,,,
0.0,1.0,0.85019,0.0,13.0,13.0,13.0,1.0,mango_09s.jpg,0.0,Purple.png,3.0,118,,,,,,,,,,,,,,,,,
0.0,1.0,1.07627,0.0,14.0,14.0,14.0,1.0,chalice_10s.jpg,0.0,Red.png,3.0,118,,,,,,,,,,,,,,,,,
0.0,1.0,0.983615,0.0,15.0,15.0,15.0,1.0,pocketknife_12s.jpg,0.0,Orange.png,3.0,118,,,,,,,,,,,,,,,,,
0.0,1.0,0.726515,0.0,16.0,16.0,16.0,1.0,abacus_12s.jpg,0.0,Yellow.png,3.0,118,,,,,,,,,,,,,,,,,
0.0,1.0,1.009255,0.0,17.0,17.0,17.0,1.0,abacus_12s.jpg,0.0,Green.png,3.0,118,,,,,,,,,,,,,,,,,
1.0,1.0,1.292685,0.0,18.0,18.0,18.0,1.0,abacus_12s.jpg,1.0,Blue.png,4.0,118,,,,,,,,,,,,,,,,,
1.0,1.0,1.59989,0.0,19.0,19.0,19.0,1.0,abacus_12s.jpg,1.0,Purple.png,4.0,118,,,,,,,,,,,,,,,,,
0.0,1.0,0.66658,0.0,20.0,20.0,20.0,1.0,sushi_08s.jpg,0.0,Red.png,4.0,118,,,,,,,,,,,,,,,,,
0.0,1.0,0.76818,0.0,21.0,21.0,21.0,1.0,funnel_01b.jpg,0.0,Orange.png,4.0,118,,,,,,,,,,,,,,,,,
0.0,1.0,0.76843,0.0,22.0,22.0,22.0,1.0,rooster_03s.jpg,0.0,Yellow.png,4.0,118,,,,,,,,,,,,,,,,,
0.0,1.0,0.717385,0.0,23.0,23.0,23.0,1.0,ukulele_02s.jpg,0.0,Green.png,4.0,118,,,,,,,,,,,,,,,,,
0.0,1.0,1.009195,0.0,24.0,24.0,24.0,1.0,pocketknife_12s.jpg,0.0,Blue.png,5.0,118,,,,,,,,,,,,,,,,,
0.0,1.0,1.05932,0.0,25.0,25.0,25.0,1.0,pocketknife_12s.jpg,0.0,Purple.png,5.0,118,,,,,,,,,,,,,,,,,
1.0,1.0,0.634035,0.0,26.0,26.0,26.0,1.0,pocketknife_12s.jpg,1.0,Red.png,5.0,118,,,,,,,,,,,,,,,,,
0.0,1.0,0.667065,0.0,27.0,27.0,27.0,1.0,stapler_01b.jpg,0.0,Orange.png,5.0,118,,,,,,,,,,,,,,,,,
0.0,1.0,0.695745,0.0,28.0,28.0,28.0,1.0,birthday_cake_09s.jpg,0.0,Yellow.png,5.0,118,,,,,,,,,,,,,,,,,
0.0,1.0,0.64517,0.0,29.0,29.0,29.0,1.0,meatball_13s.jpg,0.0,Green.png,5.0,118,,,,,,,,,,,,,,,,,
0.0,1.0,0.52657,0.0,30.0,30.0,30.0,1.0,cape_11s.jpg,0.0,Blue.png,6.0,118,,,,,,,,,,,,,,,,,
0.0,1.0,1.490735,0.0,31.0,31.0,31.0,1.0,cape_11s.jpg,0.0,Purple.png,6.0,118,,,,,,,,,,,,,,,,,
0.0,1.0,1.117135,0.0,32.0,32.0,32.0,1.0,lizard_10n.jpg,0.0,Red.png,6.0,118,,,,,,,,,,,,,,,,,
0.0,1.0,0.700405,0.0,33.0,33.0,33.0,1.0,refrigerator_07s.jpg,0.0,Orange.png,6.0,118,,,,,,,,,,,,,,,,,
0.0,1.0,1.208805,0.0,34.0,34.0,34.0,1.0,refrigerator_07s.jpg,0.0,Yellow.png,6.0,118,,,,,,,,,,,,,,,,,
0.0,1.0,0.884935,0.0,35.0,35.0,35.0,1.0,touchpad_11s.jpg,0.0,Green.png,6.0,118,,,,,,,,,,,,,,,,,
,,,,,,,,,1.0,,,118,1.0,1.0,2.617035,0.0,0.0,0.0,0.0,1.0,lavender_10s.jpg,margarita_03s.jpg,,,,,,,
,,,,,,,,,1.0,,,118,0.0,0.0,3.442125,0.0,1.0,1.0,1.0,1.0,toothpaste_12s.jpg,spoon02a.jpg,,,,,,,
,,,,,,,,,1.0,,,118,0.0,0.0,2.36721,0.0,2.0,2.0,2.0,1.0,ladder_15s.jpg,mango_09s.jpg,,,,,,,
,,,,,,,,,0.0,,,118,0.0,1.0,1.96277,0.0,3.0,3.0,3.0,1.0,fox_13s.jpg,insole_11s.jpg,,,,,,,
,,,,,,,,,0.0,,,118,1.0,0.0,1.689315,0.0,4.0,4.0,4.0,1.0,ukulele_02s.jpg,sushi_08s.jpg,,,,,,,
,,,,,,,,,0.0,,,118,0.0,1.0,4.09956,0.0,5.0,5.0,5.0,1.0,touchpad_11s.jpg,lizard_10n.jpg,,,,,,,
,,,,,,,,,,,,118,,,,,,,,,,,0.0,0.0,0.0,0.0,1.0,new2backpresent_1_2.xlsx,new2back_compare_task_1_2.xlsx
0.0,1.0,1.414315,0.0,0.0,0.0,0.0,1.0,juicer2_06s.jpg,0.0,Blue.png,1.0,118,,,,,,,,,,,,,,,,,
0.0,1.0,0.86767,0.0,1.0,1.0,1.0,1.0,juicer2_06s.jpg,0.0,Purple.png,1.0,118,,,,,,,,,,,,,,,,,
0.0,1.0,0.637625,0.0,2.0,2.0,2.0,1.0,tambourine_06s.jpg,0.0,Red.png,1.0,118,,,,,,,,,,,,,,,,,
0.0,1.0,0.904205,0.0,3.0,3.0,3.0,1.0,luggage_08s.jpg,0.0,Orange.png,1.0,118,,,,,,,,,,,,,,,,,
1.0,1.0,1.087015,0.0,4.0,4.0,4.0,1.0,tambourine_06s.jpg,1.0,Yellow.png,1.0,118,,,,,,,,,,,,,,,,,
0.0,1.0,0.649995,0.0,5.0,5.0,5.0,1.0,towel_rack_04s.jpg,0.0,Green.png,1.0,118,,,,,,,,,,,,,,,,,
0.0,1.0,0.56724,0.0,6.0,6.0,6.0,1.0,crayon_09s.jpg,0.0,Blue.png,2.0,118,,,,,,,,,,,,,,,,,
0.0,1.0,0.65042,0.0,7.0,7.0,7.0,1.0,gargoyle_08s.jpg,0.0,Purple.png,2.0,118,,,,,,,,,,,,,,,,,
0.0,1.0,0.584345,0.0,8.0,8.0,8.0,1.0,boar_10s.jpg,0.0,Red.png,2.0,118,,,,,,,,,,,,,,,,,
1.0,1.0,1.053565,0.0,9.0,9.0,9.0,1.0,gargoyle_08s.jpg,1.0,Orange.png,2.0,118,,,,,,,,,,,,,,,,,
0.0,1.0,0.58153,0.0,10.0,10.0,10.0,1.0,limousine_12s.jpg,0.0,Yellow.png,2.0,118,,,,,,,,,,,,,,,,,
0.0,1.0,0.75362,0.0,11.0,11.0,11.0,1.0,outlet_10s.jpg,0.0,Green.png,2.0,118,,,,,,,,,,,,,,,,,
0.0,1.0,0.989775,0.0,12.0,12.0,12.0,1.0,comic_book_02s.jpg,0.0,Blue.png,3.0,118,,,,,,,,,,,,,,,,,
0.0,1.0,0.794125,0.0,13.0,13.0,13.0,1.0,mask_09s.jpg,0.0,Purple.png,3.0,118,,,,,,,,,,,,,,,,,
0.0,1.0,1.0175,0.0,14.0,14.0,14.0,1.0,lasagna_06s.jpg,0.0,Red.png,3.0,118,,,,,,,,,,,,,,,,,
0.0,1.0,0.750505,0.0,15.0,15.0,15.0,1.0,diving_board_07s.jpg,0.0,Orange.png,3.0,118,,,,,,,,,,,,,,,,,
0.0,1.0,0.71755,0.0,16.0,16.0,16.0,1.0,lion_18s.jpg,0.0,Yellow.png,3.0,118,,,,,,,,,,,,,,,,,
1.0,1.0,0.69218,0.0,17.0,17.0,17.0,1.0,diving_board_07s.jpg,1.0,Green.png,3.0,118,,,,,,,,,,,,,,,,,
1.0,1.0,1.055735,0.0,18.0,18.0,18.0,1.0,lion_18s.jpg,1.0,Blue.png,4.0,118,,,,,,,,,,,,,,,,,
0.0,1.0,0.78762,0.0,19.0,19.0,19.0,1.0,medal_04s.jpg,0.0,Purple.png,4.0,118,,,,,,,,,,,,,,,,,
0.0,1.0,0.76093,0.0,20.0,20.0,20.0,1.0,incense_02s.jpg,0.0,Red.png,4.0,118,,,,,,,,,,,,,,,,,
0.0,1.0,0.71667,0.0,21.0,21.0,21.0,1.0,tape_06s.jpg,0.0,Orange.png,4.0,118,,,,,,,,,,,,,,,,,
0.0,1.0,1.206555,0.0,22.0,22.0,22.0,1.0,medal_04s.jpg,0.0,Yellow.png,4.0,118,,,,,,,,,,,,,,,,,
0.0,1.0,0.850255,0.0,23.0,23.0,23.0,1.0,buoy_04s.jpg,0.0,Green.png,4.0,118,,,,,,,,,,,,,,,,,
0.0,1.0,1.175205,0.0,24.0,24.0,24.0,1.0,limousine_12s.jpg,0.0,Blue.png,5.0,118,,,,,,,,,,,,,,,,,
0.0,1.0,0.90557,0.0,25.0,25.0,25.0,1.0,jewel_01b.jpg,0.0,Purple.png,5.0,118,,,,,,,,,,,,,,,,,
0.0,1.0,0.74249,0.0,26.0,26.0,26.0,1.0,parachute_03s.jpg,0.0,Red.png,5.0,118,,,,,,,,,,,,,,,,,
0.0,1.0,0.89406,0.0,27.0,27.0,27.0,1.0,mannequin_05s.jpg,0.0,Orange.png,5.0,118,,,,,,,,,,,,,,,,,
0.0,1.0,0.737325,0.0,28.0,28.0,28.0,1.0,snowman_02s.jpg,0.0,Yellow.png,5.0,118,,,,,,,,,,,,,,,,,
0.0,1.0,0.70862,0.0,29.0,29.0,29.0,1.0,fossil_06s.jpg,0.0,Green.png,5.0,118,,,,,,,,,,,,,,,,,
0.0,1.0,0.719015,0.0,30.0,30.0,30.0,1.0,perfume_06s.jpg,0.0,Blue.png,6.0,118,,,,,,,,,,,,,,,,,
1.0,1.0,0.957495,0.0,31.0,31.0,31.0,1.0,fossil_06s.jpg,1.0,Purple.png,6.0,118,,,,,,,,,,,,,,,,,
0.0,1.0,0.95173,0.0,32.0,32.0,32.0,1.0,pancake_12s.jpg,0.0,Red.png,6.0,118,,,,,,,,,,,,,,,,,
0.0,1.0,0.955455,0.0,33.0,33.0,33.0,1.0,tie_03s.jpg,0.0,Orange.png,6.0,118,,,,,,,,,,,,,,,,,
1.0,1.0,1.505775,0.0,34.0,34.0,34.0,1.0,pancake_12s.jpg,1.0,Yellow.png,6.0,118,,,,,,,,,,,,,,,,,
0.0,1.0,0.756355,0.0,35.0,35.0,35.0,1.0,padlock_07s.jpg,0.0,Green.png,6.0,118,,,,,,,,,,,,,,,,,
,,,,,,,,,0.0,,,118,0.0,1.0,1.668105,0.0,0.0,0.0,0.0,1.0,crayon_09s.jpg,luggage_08s.jpg,,,,,,,
,,,,,,,,,1.0,,,118,1.0,1.0,1.56822,0.0,1.0,1.0,1.0,1.0,towel_rack_04s.jpg,boar_10s.jpg,,,,,,,
,,,,,,,,,0.0,,,118,1.0,0.0,1.9841,0.0,2.0,2.0,2.0,1.0,lasagna_06s.jpg,outlet_10s.jpg,,,,,,,
,,,,,,,,,1.0,,,118,1.0,1.0,2.04352,0.0,3.0,3.0,3.0,1.0,jewel_01b.jpg,snowman_02s.jpg,,,,,,,
,,,,,,,,,0.0,,,118,0.0,1.0,1.98335,0.0,4.0,4.0,4.0,1.0,buoy_04s.jpg,incense_02s.jpg,,,,,,,
,,,,,,,,,0.0,,,118,1.0,0.0,1.41632,0.0,5.0,5.0,5.0,1.0,tie_03s.jpg,perfume_06s.jpg,,,,,,,
,,,,,,,,,,,,118,,,,,,,,,,,0.0,1.0,1.0,1.0,1.0,new2backpresent_2_2.xlsx,new2back_compare_task_2_2.xlsx
,0.0,,0.0,0.0,0.0,0.0,1.0,surfboard_11s.jpg,0.0,Blue.png,1.0,118,,,,,,,,,,,,,,,,,
0.0,1.0,1.01911,0.0,1.0,1.0,1.0,1.0,surfboard_11s.jpg,0.0,Purple.png,1.0,118,,,,,,,,,,,,,,,,,
1.0,1.0,0.916955,0.0,2.0,2.0,2.0,1.0,surfboard_11s.jpg,1.0,Red.png,1.0,118,,,,,,,,,,,,,,,,,
0.0,1.0,0.585075,0.0,3.0,3.0,3.0,1.0,badge_03s.jpg,0.0,Orange.png,1.0,118,,,,,,,,,,,,,,,,,
1.0,1.0,0.984565,0.0,4.0,4.0,4.0,1.0,surfboard_11s.jpg,1.0,Yellow.png,1.0,118,,,,,,,,,,,,,,,,,
0.0,1.0,1.976695,0.0,5.0,5.0,5.0,1.0,surfboard_11s.jpg,0.0,Green.png,1.0,118,,,,,,,,,,,,,,,,,
1.0,1.0,0.767755,0.0,6.0,6.0,6.0,1.0,surfboard_11s.jpg,1.0,Blue.png,2.0,118,,,,,,,,,,,,,,,,,
0.0,1.0,0.700325,0.0,7.0,7.0,7.0,1.0,playpen_11s.jpg,0.0,Purple.png,2.0,118,,,,,,,,,,,,,,,,,
1.0,1.0,0.93339,0.0,8.0,8.0,8.0,1.0,surfboard_11s.jpg,1.0,Red.png,2.0,118,,,,,,,,,,,,,,,,,
0.0,1.0,0.73655,0.0,9.0,9.0,9.0,1.0,popcorn_09s.jpg,0.0,Orange.png,2.0,118,,,,,,,,,,,,,,,,,
1.0,1.0,0.726895,0.0,10.0,10.0,10.0,1.0,surfboard_11s.jpg,1.0,Yellow.png,2.0,118,,,,,,,,,,,,,,,,,
0.0,0.0,1.300855,0.0,11.0,11.0,11.0,1.0,popcorn_09s.jpg,1.0,Green.png,2.0,118,,,,,,,,,,,,,,,,,
0.0,1.0,1.53328,0.0,12.0,12.0,12.0,1.0,lollipop_08s.jpg,0.0,Blue.png,3.0,118,,,,,,,,,,,,,,,,,
1.0,1.0,1.34568,0.0,13.0,13.0,13.0,1.0,popcorn_09s.jpg,1.0,Purple.png,3.0,118,,,,,,,,,,,,,,,,,
0.0,1.0,1.072765,0.0,14.0,14.0,14.0,1.0,fire_pit_10s.jpg,0.0,Red.png,3.0,118,,,,,,,,,,,,,,,,,
0.0,1.0,1.03458,0.0,15.0,15.0,15.0,1.0,joystick_01b.jpg,0.0,Orange.png,3.0,118,,,,,,,,,,,,,,,,,
0.0,1.0,0.856705,0.0,16.0,16.0,16.0,1.0,panda_02s.jpg,0.0,Yellow.png,3.0,118,,,,,,,,,,,,,,,,,
0.0,1.0,1.01783,0.0,17.0,17.0,17.0,1.0,sundae_08s.jpg,0.0,Green.png,3.0,118,,,,,,,,,,,,,,,,,
0.0,1.0,1.100315,0.0,18.0,18.0,18.0,1.0,boomerang_06s.jpg,0.0,Blue.png,4.0,118,,,,,,,,,,,,,,,,,
0.0,1.0,0.8451,0.0,19.0,19.0,19.0,1.0,bagel_15s.jpg,0.0,Purple.png,4.0,118,,,,,,,,,,,,,,,,,
0.0,1.0,0.93848,0.0,20.0,20.0,20.0,1.0,powder_07s.jpg,0.0,Red.png,4.0,118,,,,,,,,,,,,,,,,,
0.0,1.0,0.91799,0.0,21.0,21.0,21.0,1.0,lipstick_02s.jpg,0.0,Orange.png,4.0,118,,,,,,,,,,,,,,,,,
0.0,1.0,1.333915,0.0,22.0,22.0,22.0,1.0,bagel_15s.jpg,0.0,Yellow.png,4.0,118,,,,,,,,,,,,,,,,,
0.0,1.0,0.869245,0.0,23.0,23.0,23.0,1.0,ladle_04s.jpg,0.0,Green.png,4.0,118,,,,,,,,,,,,,,,,,
0.0,1.0,0.90057,0.0,24.0,24.0,24.0,1.0,megaphone_03s.jpg,0.0,Blue.png,5.0,118,,,,,,,,,,,,,,,,,
0.0,1.0,0.829375,0.0,25.0,25.0,25.0,1.0,puck_06s.jpg,0.0,Purple.png,5.0,118,,,,,,,,,,,,,,,,,
0.0,1.0,1.02444,0.0,26.0,26.0,26.0,1.0,cardinal_07s.jpg,0.0,Red.png,5.0,118,,,,,,,,,,,,,,,,,
1.0,1.0,0.97616,0.0,27.0,27.0,27.0,1.0,puck_06s.jpg,1.0,Orange.png,5.0,118,,,,,,,,,,,,,,,,,
0.0,1.0,1.104275,0.0,28.0,28.0,28.0,1.0,bee_20s.jpg,0.0,Yellow.png,5.0,118,,,,,,,,,,,,,,,,,
0.0,1.0,1.40772,0.0,29.0,29.0,29.0,1.0,toilet_paper_12s.jpg,0.0,Green.png,5.0,118,,,,,,,,,,,,,,,,,
0.0,1.0,0.86273,0.0,30.0,30.0,30.0,1.0,mud_13s.jpg,0.0,Blue.png,6.0,118,,,,,,,,,,,,,,,,,
0.0,1.0,1.10923,0.0,31.0,31.0,31.0,1.0,measuring_cup_02s.jpg,0.0,Purple.png,6.0,118,,,,,,,,,,,,,,,,,
0.0,1.0,0.95738,0.0,32.0,32.0,32.0,1.0,ostrich_06s.jpg,0.0,Red.png,6.0,118,,,,,,,,,,,,,,,,,
0.0,1.0,0.634475,0.0,33.0,33.0,33.0,1.0,raspberry_12s.jpg,0.0,Orange.png,6.0,118,,,,,,,,,,,,,,,,,
0.0,1.0,1.35367,0.0,34.0,34.0,34.0,1.0,mud_13s.jpg,0.0,Yellow.png,6.0,118,,,,,,,,,,,,,,,,,
0.0,1.0,1.00033,0.0,35.0,35.0,35.0,1.0,radiator_05s.jpg,0.0,Green.png,6.0,118,,,,,,,,,,,,,,,,,
,,,,,,,,,0.0,,,118,0.0,1.0,1.636695,0.0,0.0,0.0,0.0,1.0,measuring_cup_02s.jpg,bee_20s.jpg,,,,,,,
,,,,,,,,,1.0,,,118,1.0,1.0,2.306835,0.0,1.0,1.0,1.0,1.0,lipstick_02s.jpg,megaphone_03s.jpg,,,,,,,
,,,,,,,,,0.0,,,118,1.0,0.0,1.309315,0.0,2.0,2.0,2.0,1.0,boomerang_06s.jpg,joystick_01b.jpg,,,,,,,
,,,,,,,,,0.0,,,118,0.0,1.0,1.36639,0.0,3.0,3.0,3.0,1.0,sundae_08s.jpg,fire_pit_10s.jpg,,,,,,,
,,,,,,,,,0.0,,,118,0.0,1.0,2.667505,0.0,4.0,4.0,4.0,1.0,radiator_05s.jpg,ostrich_06s.jpg,,,,,,,
,,,,,,,,,0.0,,,118,1.0,0.0,2.492335,0.0,5.0,5.0,5.0,1.0,ladle_04s.jpg,powder_07s.jpg,,,,,,,
,,,,,,,,,,,,118,,,,,,,,,,,0.0,2.0,2.0,2.0,1.0,new2backpresent_3_2.xlsx,new2back_compare_task_3_2.xlsx
0.0,1.0,1.31028,0.0,0.0,0.0,0.0,1.0,glasses01a.jpg,0.0,Blue.png,1.0,118,,,,,,,,,,,,,,,,,
0.0,1.0,0.91039,0.0,1.0,1.0,1.0,1.0,piano_13n.jpg,0.0,Purple.png,1.0,118,,,,,,,,,,,,,,,,,
0.0,1.0,0.81023,0.0,2.0,2.0,2.0,1.0,candy_cane_06s.jpg,0.0,Red.png,1.0,118,,,,,,,,,,,,,,,,,
0.0,1.0,0.70079,0.0,3.0,3.0,3.0,1.0,cushion_08s.jpg,0.0,Orange.png,1.0,118,,,,,,,,,,,,,,,,,
1.0,1.0,0.872855,0.0,4.0,4.0,4.0,1.0,candy_cane_06s.jpg,1.0,Yellow.png,1.0,118,,,,,,,,,,,,,,,,,
0.0,1.0,1.4171,0.0,5.0,5.0,5.0,1.0,candy_cane_06s.jpg,0.0,Green.png,1.0,118,,,,,,,,,,,,,,,,,
0.0,1.0,1.216715,0.0,6.0,6.0,6.0,1.0,rosary_03s.jpg,0.0,Blue.png,2.0,118,,,,,,,,,,,,,,,,,
0.0,1.0,1.40086,0.0,7.0,7.0,7.0,1.0,rosary_03s.jpg,0.0,Purple.png,2.0,118,,,,,,,,,,,,,,,,,
1.0,1.0,1.13325,0.0,8.0,8.0,8.0,1.0,rosary_03s.jpg,1.0,Red.png,2.0,118,,,,,,,,,,,,,,,,,
1.0,1.0,1.000475,0.0,9.0,9.0,9.0,1.0,rosary_03s.jpg,1.0,Orange.png,2.0,118,,,,,,,,,,,,,,,,,
0.0,1.0,0.646015,0.0,10.0,10.0,10.0,1.0,kangaroo_02s.jpg,0.0,Yellow.png,2.0,118,,,,,,,,,,,,,,,,,
0.0,1.0,1.450605,0.0,11.0,11.0,11.0,1.0,kangaroo_02s.jpg,0.0,Green.png,2.0,118,,,,,,,,,,,,,,,,,
1.0,1.0,0.7094,0.0,12.0,12.0,12.0,1.0,kangaroo_02s.jpg,1.0,Blue.png,3.0,118,,,,,,,,,,,,,,,,,
1.0,1.0,0.5964,0.0,13.0,13.0,13.0,1.0,kangaroo_02s.jpg,1.0,Purple.png,3.0,118,,,,,,,,,,,,,,,,,
0.0,1.0,0.61067,0.0,14.0,14.0,14.0,1.0,ironing_board_07s.jpg,0.0,Red.png,3.0,118,,,,,,,,,,,,,,,,,
1.0,1.0,0.58371,0.0,15.0,15.0,15.0,1.0,kangaroo_02s.jpg,1.0,Orange.png,3.0,118,,,,,,,,,,,,,,,,,
0.0,1.0,0.59281,0.0,16.0,16.0,16.0,1.0,punch2_09s.jpg,0.0,Yellow.png,3.0,118,,,,,,,,,,,,,,,,,
0.0,1.0,0.966675,0.0,17.0,17.0,17.0,1.0,ironing_board_07s.jpg,0.0,Green.png,3.0,118,,,,,,,,,,,,,,,,,
0.0,1.0,0.88658,0.0,18.0,18.0,18.0,1.0,owl_15s.jpg,0.0,Blue.png,4.0,118,,,,,,,,,,,,,,,,,
0.0,1.0,1.489725,0.0,19.0,19.0,19.0,1.0,teabag_12s.jpg,0.0,Purple.png,4.0,118,,,,,,,,,,,,,,,,,
1.0,1.0,1.027005,0.0,20.0,20.0,20.0,1.0,owl_15s.jpg,1.0,Red.png,4.0,118,,,,,,,,,,,,,,,,,
0.0,1.0,0.90065,0.0,21.0,21.0,21.0,1.0,otter_05s.jpg,0.0,Orange.png,4.0,118,,,,,,,,,,,,,,,,,
1.0,1.0,1.2003,0.0,22.0,22.0,22.0,1.0,owl_15s.jpg,1.0,Yellow.png,4.0,118,,,,,,,,,,,,,,,,,
0.0,1.0,0.934655,0.0,23.0,23.0,23.0,1.0,mold2_04s.jpg,0.0,Green.png,4.0,118,,,,,,,,,,,,,,,,,
0.0,1.0,0.975405,0.0,24.0,24.0,24.0,1.0,mattress_01s.jpg,0.0,Blue.png,5.0,118,,,,,,,,,,,,,,,,,
0.0,1.0,0.950765,0.0,25.0,25.0,25.0,1.0,police_car_01s.jpg,0.0,Purple.png,5.0,118,,,,,,,,,,,,,,,,,
0.0,1.0,0.841115,0.0,26.0,26.0,26.0,1.0,stethoscope_01b.jpg,0.0,Red.png,5.0,118,,,,,,,,,,,,,,,,,
1.0,1.0,0.76708,0.0,27.0,27.0,27.0,1.0,police_car_01s.jpg,1.0,Orange.png,5.0,118,,,,,,,,,,,,,,,,,
0.0,1.0,1.80048,0.0,28.0,28.0,28.0,1.0,sparkler_02s.jpg,0.0,Yellow.png,5.0,118,,,,,,,,,,,,,,,,,
0.0,1.0,0.917695,0.0,29.0,29.0,29.0,1.0,pacifier_09s.jpg,0.0,Green.png,5.0,118,,,,,,,,,,,,,,,,,
0.0,1.0,0.91739,0.0,30.0,30.0,30.0,1.0,machine_gun_09s.jpg,0.0,Blue.png,6.0,118,,,,,,,,,,,,,,,,,
0.0,1.0,0.844305,0.0,31.0,31.0,31.0,1.0,ram_05s.jpg,0.0,Purple.png,6.0,118,,,,,,,,,,,,,,,,,
0.0,1.0,0.967185,0.0,32.0,32.0,32.0,1.0,keyboard_05s.jpg,0.0,Red.png,6.0,118,,,,,,,,,,,,,,,,,
0.0,1.0,1.8439,0.0,33.0,33.0,33.0,1.0,leash_10s.jpg,0.0,Orange.png,6.0,118,,,,,,,,,,,,,,,,,
0.0,1.0,0.72838,0.0,34.0,34.0,34.0,1.0,pan_02s.jpg,0.0,Yellow.png,6.0,118,,,,,,,,,,,,,,,,,
0.0,1.0,0.733835,0.0,35.0,35.0,35.0,1.0,mixer_12s.jpg,0.0,Green.png,6.0,118,,,,,,,,,,,,,,,,,
,,,,,,,,,0.0,,,118,1.0,0.0,1.7212,0.0,0.0,0.0,0.0,1.0,teabag_12s.jpg,punch2_09s.jpg,,,,,,,
,,,,,,,,,0.0,,,118,0.0,1.0,1.26723,0.0,1.0,1.0,1.0,1.0,mattress_01s.jpg,otter_05s.jpg,,,,,,,
,,,,,,,,,0.0,,,118,0.0,1.0,1.333125,0.0,2.0,2.0,2.0,1.0,stethoscope_01b.jpg,mold2_04s.jpg,,,,,,,
,,,,,,,,,1.0,,,118,0.0,0.0,1.206085,0.0,3.0,3.0,3.0,1.0,glasses01a.jpg,cushion_08s.jpg,,,,,,,
,,,,,,,,,1.0,,,118,1.0,1.0,1.160695,0.0,4.0,4.0,4.0,1.0,machine_gun_09s.jpg,leash_10s.jpg,,,,,,,
,,,,,,,,,0.0,,,118,0.0,1.0,1.202385,0.0,5.0,5.0,5.0,1.0,pan_02s.jpg,ram_05s.jpg,,,,,,,
,,,,,,,,,,,,118,,,,,,,,,,,0.0,3.0,3.0,3.0,1.0,new2backpresent_4_2.xlsx,new2back_compare_task_4_2.xlsx
0.0,1.0,1.192775,0.0,0.0,0.0,0.0,1.0,golf_club_03s.jpg,0.0,Blue.png,1.0,118,,,,,,,,,,,,,,,,,
0.0,1.0,1.1497,0.0,1.0,1.0,1.0,1.0,golf_club_03s.jpg,0.0,Purple.png,1.0,118,,,,,,,,,,,,,,,,,
1.0,1.0,0.85505,0.0,2.0,2.0,2.0,1.0,golf_club_03s.jpg,1.0,Red.png,1.0,118,,,,,,,,,,,,,,,,,
0.0,1.0,0.602405,0.0,3.0,3.0,3.0,1.0,turnstile_08s.jpg,0.0,Orange.png,1.0,118,,,,,,,,,,,,,,,,,
1.0,1.0,1.183995,0.0,4.0,4.0,4.0,1.0,golf_club_03s.jpg,1.0,Yellow.png,1.0,118,,,,,,,,,,,,,,,,,
0.0,1.0,0.526185,0.0,5.0,5.0,5.0,1.0,milk_02s.jpg,0.0,Green.png,1.0,118,,,,,,,,,,,,,,,,,
0.0,1.0,0.80892,0.0,6.0,6.0,6.0,1.0,orange_12s.jpg,0.0,Blue.png,2.0,118,,,,,,,,,,,,,,,,,
1.0,1.0,1.5672,0.0,7.0,7.0,7.0,1.0,milk_02s.jpg,1.0,Purple.png,2.0,118,,,,,,,,,,,,,,,,,
0.0,1.0,0.651245,0.0,8.0,8.0,8.0,1.0,latch_15s.jpg,0.0,Red.png,2.0,118,,,,,,,,,,,,,,,,,
0.0,1.0,1.19584,0.0,9.0,9.0,9.0,1.0,bank_06s.jpg,0.0,Orange.png,2.0,118,,,,,,,,,,,,,,,,,
0.0,1.0,1.33485,0.0,10.0,10.0,10.0,1.0,milk_02s.jpg,0.0,Yellow.png,2.0,118,,,,,,,,,,,,,,,,,
0.0,1.0,0.76745,0.0,11.0,11.0,11.0,1.0,crab_16s.jpg,0.0,Green.png,2.0,118,,,,,,,,,,,,,,,,,
0.0,1.0,0.845005,0.0,12.0,12.0,12.0,1.0,birdcage_08s.jpg,0.0,Blue.png,3.0,118,,,,,,,,,,,,,,,,,
0.0,1.0,0.842975,0.0,13.0,13.0,13.0,1.0,spider_web_03s.jpg,0.0,Purple.png,3.0,118,,,,,,,,,,,,,,,,,
0.0,1.0,0.944475,0.0,14.0,14.0,14.0,1.0,knitting_needle_04s.jpg,0.0,Red.png,3.0,118,,,,,,,,,,,,,,,,,
0.0,1.0,0.770775,0.0,15.0,15.0,15.0,1.0,sugar_cube_11s.jpg,0.0,Orange.png,3.0,118,,,,,,,,,,,,,,,,,
0.0,1.0,0.846295,0.0,16.0,16.0,16.0,1.0,light_switch_02s.jpg,0.0,Yellow.png,3.0,118,,,,,,,,,,,,,,,,,
0.0,1.0,0.81254,0.0,17.0,17.0,17.0,1.0,gear_07s.jpg,0.0,Green.png,3.0,118,,,,,,,,,,,,,,,,,
0.0,1.0,0.96658,0.0,18.0,18.0,18.0,1.0,tongs_08s.jpg,0.0,Blue.png,4.0,118,,,,,,,,,,,,,,,,,
0.0,1.0,0.927115,0.0,19.0,19.0,19.0,1.0,recliner_02s.jpg,0.0,Purple.png,4.0,118,,,,,,,,,,,,,,,,,
0.0,1.0,1.01943,0.0,20.0,20.0,20.0,1.0,orangutan_03s.jpg,0.0,Red.png,4.0,118,,,,,,,,,,,,,,,,,
0.0,1.0,0.85519,0.0,21.0,21.0,21.0,1.0,golf_club_03s.jpg,0.0,Orange.png,4.0,118,,,,,,,,,,,,,,,,,
0.0,1.0,0.722945,0.0,22.0,22.0,22.0,1.0,lava_02s.jpg,0.0,Yellow.png,4.0,118,,,,,,,,,,,,,,,,,
0.0,1.0,0.785895,0.0,23.0,23.0,23.0,1.0,toilet_07s.jpg,0.0,Green.png,4.0,118,,,,,,,,,,,,,,,,,
0.0,1.0,1.10713,0.0,24.0,24.0,24.0,1.0,turnstile_08s.jpg,0.0,Blue.png,5.0,118,,,,,,,,,,,,,,,,,
0.0,1.0,0.967085,0.0,25.0,25.0,25.0,1.0,turnstile_08s.jpg,0.0,Purple.png,5.0,118,,,,,,,,,,,,,,,,,
0.0,1.0,0.967565,0.0,26.0,26.0,26.0,1.0,teacup_07s.jpg,0.0,Red.png,5.0,118,,,,,,,,,,,,,,,,,
1.0,1.0,0.60483,0.0,27.0,27.0,27.0,1.0,turnstile_08s.jpg,1.0,Orange.png,5.0,118,,,,,,,,,,,,,,,,,
0.0,1.0,0.906345,0.0,28.0,28.0,28.0,1.0,turnstile_08s.jpg,0.0,Yellow.png,5.0,118,,,,,,,,,,,,,,,,,
0.0,1.0,0.9393,0.0,29.0,29.0,29.0,1.0,antenna_01b.jpg,0.0,Green.png,5.0,118,,,,,,,,,,,,,,,,,
0.0,1.0,0.733785,0.0,30.0,30.0,30.0,1.0,keyhole_03s.jpg,0.0,Blue.png,6.0,118,,,,,,,,,,,,,,,,,
0.0,1.0,0.800195,0.0,31.0,31.0,31.0,1.0,air_pump_05s.jpg,0.0,Purple.png,6.0,118,,,,,,,,,,,,,,,,,
0.0,1.0,0.750445,0.0,32.0,32.0,32.0,1.0,eggshell_14s.jpg,0.0,Red.png,6.0,118,,,,,,,,,,,,,,,,,
0.0,1.0,1.152215,0.0,33.0,33.0,33.0,1.0,eyedropper_12s.jpg,0.0,Orange.png,6.0,118,,,,,,,,,,,,,,,,,
0.0,1.0,0.771515,0.0,34.0,34.0,34.0,1.0,machete_06s.jpg,0.0,Yellow.png,6.0,118,,,,,,,,,,,,,,,,,
1.0,1.0,1.117015,0.0,35.0,35.0,35.0,1.0,eyedropper_12s.jpg,1.0,Green.png,6.0,118,,,,,,,,,,,,,,,,,
,,,,,,,,,1.0,,,118,0.0,0.0,1.724285,0.0,0.0,0.0,0.0,1.0,sugar_cube_11s.jpg,tongs_08s.jpg,,,,,,,
,,,,,,,,,1.0,,,118,1.0,1.0,1.466435,0.0,1.0,1.0,1.0,1.0,antenna_01b.jpg,eggshell_14s.jpg,,,,,,,
,,,,,,,,,1.0,,,118,1.0,1.0,1.228595,0.0,2.0,2.0,2.0,1.0,bank_06s.jpg,birdcage_08s.jpg,,,,,,,
,,,,,,,,,1.0,,,118,0.0,0.0,1.471445,0.0,3.0,3.0,3.0,1.0,air_pump_05s.jpg,machete_06s.jpg,,,,,,,
,,,,,,,,,1.0,,,118,0.0,0.0,1.41249,0.0,4.0,4.0,4.0,1.0,latch_15s.jpg,crab_16s.jpg,,,,,,,
,,,,,,,,,1.0,,,118,1.0,1.0,1.089345,0.0,5.0,5.0,5.0,1.0,spider_web_03s.jpg,light_switch_02s.jpg,,,,,,,
,,,,,,,,,,,,118,,,,,,,,,,,0.0,4.0,4.0,4.0,1.0,new2backpresent_5_2.xlsx,new2back_compare_task_5_2.xlsx
0.0,1.0,1.470495,0.0,0.0,0.0,0.0,1.0,gazelle_10s.jpg,0.0,Blue.png,1.0,118,,,,,,,,,,,,,,,,,
0.0,1.0,0.7925,0.0,1.0,1.0,1.0,1.0,saddle_06s.jpg,0.0,Purple.png,1.0,118,,,,,,,,,,,,,,,,,
0.0,1.0,1.050095,0.0,2.0,2.0,2.0,1.0,saddle_06s.jpg,0.0,Red.png,1.0,118,,,,,,,,,,,,,,,,,
0.0,1.0,0.671705,0.0,3.0,3.0,3.0,1.0,kimono_13s.jpg,0.0,Orange.png,1.0,118,,,,,,,,,,,,,,,,,
0.0,1.0,0.618245,0.0,4.0,4.0,4.0,1.0,timer_03s.jpg,0.0,Yellow.png,1.0,118,,,,,,,,,,,,,,,,,
0.0,1.0,0.8125,0.0,5.0,5.0,5.0,1.0,tulip_02s.jpg,0.0,Green.png,1.0,118,,,,,,,,,,,,,,,,,
0.0,1.0,0.737915,0.0,6.0,6.0,6.0,1.0,prism_10s.jpg,0.0,Blue.png,2.0,118,,,,,,,,,,,,,,,,,
0.0,1.0,0.75641,0.0,7.0,7.0,7.0,1.0,razor_12s.jpg,0.0,Purple.png,2.0,118,,,,,,,,,,,,,,,,,
0.0,1.0,0.984975,0.0,8.0,8.0,8.0,1.0,blazer_02s.jpg,0.0,Red.png,2.0,118,,,,,,,,,,,,,,,,,
1.0,1.0,0.650735,0.0,9.0,9.0,9.0,1.0,razor_12s.jpg,1.0,Orange.png,2.0,118,,,,,,,,,,,,,,,,,
0.0,1.0,0.567235,0.0,10.0,10.0,10.0,1.0,lamb_chop_07s.jpg,0.0,Yellow.png,2.0,118,,,,,,,,,,,,,,,,,
1.0,1.0,0.90061,0.0,11.0,11.0,11.0,1.0,razor_12s.jpg,1.0,Green.png,2.0,118,,,,,,,,,,,,,,,,,
0.0,0.0,1.271935,0.0,12.0,12.0,12.0,1.0,lamb_chop_07s.jpg,1.0,Blue.png,3.0,118,,,,,,,,,,,,,,,,,
1.0,0.0,1.44058,0.0,13.0,13.0,13.0,1.0,lamb_chop_07s.jpg,0.0,Purple.png,3.0,118,,,,,,,,,,,,,,,,,
0.0,1.0,1.16743,0.0,14.0,14.0,14.0,1.0,timer_03s.jpg,0.0,Red.png,3.0,118,,,,,,,,,,,,,,,,,
1.0,1.0,1.02238,0.0,15.0,15.0,15.0,1.0,lamb_chop_07s.jpg,1.0,Orange.png,3.0,118,,,,,,,,,,,,,,,,,
0.0,1.0,0.560925,0.0,16.0,16.0,16.0,1.0,glue_01s.jpg,0.0,Yellow.png,3.0,118,,,,,,,,,,,,,,,,,
0.0,1.0,0.540125,0.0,17.0,17.0,17.0,1.0,solar_panel_02s.jpg,0.0,Green.png,3.0,118,,,,,,,,,,,,,,,,,
0.0,1.0,0.85731,0.0,18.0,18.0,18.0,1.0,muffin_12n.jpg,0.0,Blue.png,4.0,118,,,,,,,,,,,,,,,,,
0.0,1.0,0.56313,0.0,19.0,19.0,19.0,1.0,pepper2_21s.jpg,0.0,Purple.png,4.0,118,,,,,,,,,,,,,,,,,
0.0,1.0,0.81708,0.0,20.0,20.0,20.0,1.0,marker_05s.jpg,0.0,Red.png,4.0,118,,,,,,,,,,,,,,,,,
0.0,1.0,0.61654,0.0,21.0,21.0,21.0,1.0,soccer_ball_12s.jpg,0.0,Orange.png,4.0,118,,,,,,,,,,,,,,,,,
0.0,1.0,1.290045,0.0,22.0,22.0,22.0,1.0,amber_04s.jpg,0.0,Yellow.png,4.0,118,,,,,,,,,,,,,,,,,
0.0,1.0,1.201015,0.0,23.0,23.0,23.0,1.0,stopwatch_04s.jpg,0.0,Green.png,4.0,118,,,,,,,,,,,,,,,,,
1.0,1.0,1.11774,0.0,24.0,24.0,24.0,1.0,amber_04s.jpg,1.0,Blue.png,5.0,118,,,,,,,,,,,,,,,,,
0.0,1.0,0.584135,0.0,25.0,25.0,25.0,1.0,racehorse_03s.jpg,0.0,Purple.png,5.0,118,,,,,,,,,,,,,,,,,
1.0,1.0,0.800045,0.0,26.0,26.0,26.0,1.0,amber_04s.jpg,1.0,Red.png,5.0,118,,,,,,,,,,,,,,,,,
0.0,1.0,0.7187,0.0,27.0,27.0,27.0,1.0,duck_01b.jpg,0.0,Orange.png,5.0,118,,,,,,,,,,,,,,,,,
1.0,1.0,0.53583,0.0,28.0,28.0,28.0,1.0,amber_04s.jpg,1.0,Yellow.png,5.0,118,,,,,,,,,,,,,,,,,
1.0,1.0,1.06318,0.0,29.0,29.0,29.0,1.0,duck_01b.jpg,1.0,Green.png,5.0,118,,,,,,,,,,,,,,,,,
0.0,1.0,1.05801,0.0,30.0,30.0,30.0,1.0,duck_01b.jpg,0.0,Blue.png,6.0,118,,,,,,,,,,,,,,,,,
1.0,1.0,0.94181,0.0,31.0,31.0,31.0,1.0,duck_01b.jpg,1.0,Purple.png,6.0,118,,,,,,,,,,,,,,,,,
0.0,1.0,0.637845,0.0,32.0,32.0,32.0,1.0,magnet_03s.jpg,0.0,Red.png,6.0,118,,,,,,,,,,,,,,,,,
1.0,1.0,0.89227,0.0,33.0,33.0,33.0,1.0,duck_01b.jpg,1.0,Orange.png,6.0,118,,,,,,,,,,,,,,,,,
0.0,1.0,1.116975,0.0,34.0,34.0,34.0,1.0,swimming_pool_17s.jpg,0.0,Yellow.png,6.0,118,,,,,,,,,,,,,,,,,
0.0,1.0,1.00155,0.0,35.0,35.0,35.0,1.0,roulette_wheel_04s.jpg,0.0,Green.png,6.0,118,,,,,,,,,,,,,,,,,
,,,,,,,,,0.0,,,118,1.0,0.0,1.56626,0.0,0.0,0.0,0.0,1.0,blazer_02s.jpg,tulip_02s.jpg,,,,,,,
,,,,,,,,,1.0,,,118,0.0,0.0,1.96725,0.0,1.0,1.0,1.0,1.0,glue_01s.jpg,pepper2_21s.jpg,,,,,,,
,,,,,,,,,1.0,,,118,1.0,1.0,1.040255,0.0,2.0,2.0,2.0,1.0,kimono_13s.jpg,prism_10s.jpg,,,,,,,
,,,,,,,,,0.0,,,118,1.0,0.0,1.20712,0.0,3.0,3.0,3.0,1.0,soccer_ball_12s.jpg,muffin_12n.jpg,,,,,,,
,,,,,,,,,1.0,,,118,0.0,0.0,1.336185,0.0,4.0,4.0,4.0,1.0,magnet_03s.jpg,roulette_wheel_04s.jpg,,,,,,,
,,,,,,,,,0.0,,,118,1.0,0.0,1.38412,0.0,5.0,5.0,5.0,1.0,stopwatch_04s.jpg,marker_05s.jpg,,,,,,,
,,,,,,,,,,,,118,,,,,,,,,,,0.0,5.0,5.0,5.0,1.0,new2backpresent_6_2.xlsx,new2back_compare_task_6_2.xlsx
0.0,1.0,0.656725,0.0,0.0,0.0,0.0,1.0,slingshot_07s.jpg,0.0,Blue.png,1.0,118,,,,,,,,,,,,,,,,,
0.0,1.0,1.376105,0.0,1.0,1.0,1.0,1.0,slingshot_07s.jpg,0.0,Purple.png,1.0,118,,,,,,,,,,,,,,,,,
0.0,1.0,0.66372,0.0,2.0,2.0,2.0,1.0,aluminum_foil_08s.jpg,0.0,Red.png,1.0,118,,,,,,,,,,,,,,,,,
0.0,1.0,0.79319,0.0,3.0,3.0,3.0,1.0,ink_08s.jpg,0.0,Orange.png,1.0,118,,,,,,,,,,,,,,,,,
1.0,1.0,1.178475,0.0,4.0,4.0,4.0,1.0,aluminum_foil_08s.jpg,1.0,Yellow.png,1.0,118,,,,,,,,,,,,,,,,,
0.0,1.0,1.081355,0.0,5.0,5.0,5.0,1.0,slingshot_07s.jpg,0.0,Green.png,1.0,118,,,,,,,,,,,,,,,,,
1.0,1.0,0.733395,0.0,6.0,6.0,6.0,1.0,aluminum_foil_08s.jpg,1.0,Blue.png,2.0,118,,,,,,,,,,,,,,,,,
0.0,1.0,0.972195,0.0,7.0,7.0,7.0,1.0,aluminum_foil_08s.jpg,0.0,Purple.png,2.0,118,,,,,,,,,,,,,,,,,
0.0,1.0,0.80198,0.0,8.0,8.0,8.0,1.0,ice-cream_cone_06s.jpg,0.0,Red.png,2.0,118,,,,,,,,,,,,,,,,,
0.0,1.0,1.27587,0.0,9.0,9.0,9.0,1.0,ink_08s.jpg,0.0,Orange.png,2.0,118,,,,,,,,,,,,,,,,,
0.0,1.0,0.899315,0.0,10.0,10.0,10.0,1.0,emerald_02s.jpg,0.0,Yellow.png,2.0,118,,,,,,,,,,,,,,,,,
0.0,1.0,0.84759,0.0,11.0,11.0,11.0,1.0,bathtub_23s.jpg,0.0,Green.png,2.0,118,,,,,,,,,,,,,,,,,
0.0,1.0,0.765905,0.0,12.0,12.0,12.0,1.0,bubble_01b.jpg,0.0,Blue.png,3.0,118,,,,,,,,,,,,,,,,,
0.0,1.0,0.77708,0.0,13.0,13.0,13.0,1.0,mirror_12s.jpg,0.0,Purple.png,3.0,118,,,,,,,,,,,,,,,,,
0.0,1.0,1.05889,0.0,14.0,14.0,14.0,1.0,swing_set_15s.jpg,0.0,Red.png,3.0,118,,,,,,,,,,,,,,,,,
0.0,1.0,1.25959,0.0,15.0,15.0,15.0,1.0,pinwheel_06s.jpg,0.0,Orange.png,3.0,118,,,,,,,,,,,,,,,,,
1.0,1.0,1.052125,0.0,16.0,16.0,16.0,1.0,swing_set_15s.jpg,1.0,Yellow.png,3.0,118,,,,,,,,,,,,,,,,,
1.0,1.0,0.6758,0.0,17.0,17.0,17.0,1.0,pinwheel_06s.jpg,1.0,Green.png,3.0,118,,,,,,,,,,,,,,,,,
0.0,1.0,0.6594,0.0,18.0,18.0,18.0,1.0,ink_08s.jpg,0.0,Blue.png,4.0,118,,,,,,,,,,,,,,,,,
0.0,1.0,0.69495,0.0,19.0,19.0,19.0,1.0,plunger_08s.jpg,0.0,Purple.png,4.0,118,,,,,,,,,,,,,,,,,
1.0,1.0,0.85965,0.0,20.0,20.0,20.0,1.0,ink_08s.jpg,1.0,Red.png,4.0,118,,,,,,,,,,,,,,,,,
0.0,1.0,0.93258,0.0,21.0,21.0,21.0,1.0,ink_08s.jpg,0.0,Orange.png,4.0,118,,,,,,,,,,,,,,,,,
0.0,1.0,0.676505,0.0,22.0,22.0,22.0,1.0,metronome_03s.jpg,0.0,Yellow.png,4.0,118,,,,,,,,,,,,,,,,,
0.0,1.0,0.684635,0.0,23.0,23.0,23.0,1.0,puppy_08s.jpg,0.0,Green.png,4.0,118,,,,,,,,,,,,,,,,,
0.0,1.0,0.7693,0.0,24.0,24.0,24.0,1.0,treasure_08s.jpg,0.0,Blue.png,5.0,118,,,,,,,,,,,,,,,,,
0.0,1.0,0.734625,0.0,25.0,25.0,25.0,1.0,penguin_16s.jpg,0.0,Purple.png,5.0,118,,,,,,,,,,,,,,,,,
0.0,1.0,0.70132,0.0,26.0,26.0,26.0,1.0,bacon_05s.jpg,0.0,Red.png,5.0,118,,,,,,,,,,,,,,,,,
0.0,1.0,0.900875,0.0,27.0,27.0,27.0,1.0,giraffe_11s.jpg,0.0,Orange.png,5.0,118,,,,,,,,,,,,,,,,,
0.0,1.0,1.159415,0.0,28.0,28.0,28.0,1.0,rug_09s.jpg,0.0,Yellow.png,5.0,118,,,,,,,,,,,,,,,,,
0.0,1.0,1.01563,0.0,29.0,29.0,29.0,1.0,lamp_08s.jpg,0.0,Green.png,5.0,118,,,,,,,,,,,,,,,,,
0.0,1.0,0.814475,0.0,30.0,30.0,30.0,1.0,metronome_03s.jpg,0.0,Blue.png,6.0,118,,,,,,,,,,,,,,,,,
0.0,1.0,1.41928,0.0,31.0,31.0,31.0,1.0,metronome_03s.jpg,0.0,Purple.png,6.0,118,,,,,,,,,,,,,,,,,
0.0,1.0,0.816255,0.0,32.0,32.0,32.0,1.0,lip_gloss_06s.jpg,0.0,Red.png,6.0,118,,,,,,,,,,,,,,,,,
1.0,1.0,0.56857,0.0,33.0,33.0,33.0,1.0,metronome_03s.jpg,1.0,Orange.png,6.0,118,,,,,,,,,,,,,,,,,
0.0,1.0,0.534365,0.0,34.0,34.0,34.0,1.0,laser_pointer_02s.jpg,0.0,Yellow.png,6.0,118,,,,,,,,,,,,,,,,,
1.0,1.0,0.887885,0.0,35.0,35.0,35.0,1.0,metronome_03s.jpg,1.0,Green.png,6.0,118,,,,,,,,,,,,,,,,,
,,,,,,,,,1.0,,,118,1.0,1.0,1.193405,0.0,0.0,0.0,0.0,1.0,emerald_02s.jpg,mirror_12s.jpg,,,,,,,
,,,,,,,,,1.0,,,118,1.0,1.0,1.31967,0.0,1.0,1.0,1.0,1.0,puppy_08s.jpg,bacon_05s.jpg,,,,,,,
,,,,,,,,,0.0,,,118,1.0,0.0,1.43922,0.0,2.0,2.0,2.0,1.0,lip_gloss_06s.jpg,lamp_08s.jpg,,,,,,,
,,,,,,,,,0.0,,,118,1.0,0.0,1.663575,0.0,3.0,3.0,3.0,1.0,bathtub_23s.jpg,ice-cream_cone_06s.jpg,,,,,,,
,,,,,,,,,0.0,,,118,0.0,1.0,1.34844,0.0,4.0,4.0,4.0,1.0,giraffe_11s.jpg,treasure_08s.jpg,,,,,,,
,,,,,,,,,0.0,,,118,0.0,1.0,1.803635,0.0,5.0,5.0,5.0,1.0,rug_09s.jpg,penguin_16s.jpg,,,,,,,
,,,,,,,,,,,,118,,,,,,,,,,,0.0,6.0,6.0,6.0,1.0,new2backpresent_7_2.xlsx,new2back_compare_task_7_2.xlsx
0.0,1.0,0.63852,0.0,0.0,0.0,0.0,1.0,ant_12s.jpg,0.0,Blue.png,1.0,118,,,,,,,,,,,,,,,,,
0.0,1.0,0.597545,0.0,1.0,1.0,1.0,1.0,ant_12s.jpg,0.0,Purple.png,1.0,118,,,,,,,,,,,,,,,,,
0.0,1.0,1.27634,0.0,2.0,2.0,2.0,1.0,ticktacktoe_08s.jpg,0.0,Red.png,1.0,118,,,,,,,,,,,,,,,,,
0.0,1.0,0.912425,0.0,3.0,3.0,3.0,1.0,frog_09s.jpg,0.0,Orange.png,1.0,118,,,,,,,,,,,,,,,,,
1.0,1.0,1.00099,0.0,4.0,4.0,4.0,1.0,ticktacktoe_08s.jpg,1.0,Yellow.png,1.0,118,,,,,,,,,,,,,,,,,
0.0,1.0,0.912005,0.0,5.0,5.0,5.0,1.0,feather02.jpg,0.0,Green.png,1.0,118,,,,,,,,,,,,,,,,,
0.0,1.0,1.32672,0.0,6.0,6.0,6.0,1.0,gas_mask_11s.jpg,0.0,Blue.png,2.0,118,,,,,,,,,,,,,,,,,
0.0,1.0,1.335235,0.0,7.0,7.0,7.0,1.0,gas_mask_11s.jpg,0.0,Purple.png,2.0,118,,,,,,,,,,,,,,,,,
0.0,1.0,1.32622,0.0,8.0,8.0,8.0,1.0,mop_08s.jpg,0.0,Red.png,2.0,118,,,,,,,,,,,,,,,,,
1.0,1.0,0.84562,0.0,9.0,9.0,9.0,1.0,gas_mask_11s.jpg,1.0,Orange.png,2.0,118,,,,,,,,,,,,,,,,,
0.0,1.0,0.75955,0.0,10.0,10.0,10.0,1.0,pea_11s.jpg,0.0,Yellow.png,2.0,118,,,,,,,,,,,,,,,,,
0.0,1.0,0.726015,0.0,11.0,11.0,11.0,1.0,bowler_hat_10s.jpg,0.0,Green.png,2.0,118,,,,,,,,,,,,,,,,,
0.0,1.0,1.458675,0.0,12.0,12.0,12.0,1.0,pencil_sharpener_09n.jpg,0.0,Blue.png,3.0,118,,,,,,,,,,,,,,,,,
0.0,1.0,0.75197,0.0,13.0,13.0,13.0,1.0,rice_12s.jpg,0.0,Purple.png,3.0,118,,,,,,,,,,,,,,,,,
0.0,1.0,1.21529,0.0,14.0,14.0,14.0,1.0,stamp1_11s.jpg,0.0,Red.png,3.0,118,,,,,,,,,,,,,,,,,
0.0,1.0,0.765405,0.0,15.0,15.0,15.0,1.0,jersey_02s.jpg,0.0,Orange.png,3.0,118,,,,,,,,,,,,,,,,,
0.0,1.0,1.247065,0.0,16.0,16.0,16.0,1.0,tiara_05s.jpg,0.0,Yellow.png,3.0,118,,,,,,,,,,,,,,,,,
0.0,1.0,1.91955,0.0,17.0,17.0,17.0,1.0,target_11s.jpg,0.0,Green.png,3.0,118,,,,,,,,,,,,,,,,,
0.0,1.0,1.96497,0.0,18.0,18.0,18.0,1.0,dirt_bike_11s.jpg,0.0,Blue.png,4.0,118,,,,,,,,,,,,,,,,,
0.0,1.0,0.88681,0.0,19.0,19.0,19.0,1.0,doily_13s.jpg,0.0,Purple.png,4.0,118,,,,,,,,,,,,,,,,,
0.0,1.0,1.142785,0.0,20.0,20.0,20.0,1.0,sunglasses_11s.jpg,0.0,Red.png,4.0,118,,,,,,,,,,,,,,,,,
0.0,1.0,1.109235,0.0,21.0,21.0,21.0,1.0,compass_10n.jpg,0.0,Orange.png,4.0,118,,,,,,,,,,,,,,,,,
1.0,1.0,1.132595,0.0,22.0,22.0,22.0,1.0,sunglasses_11s.jpg,1.0,Yellow.png,4.0,118,,,,,,,,,,,,,,,,,
0.0,1.0,1.34334,0.0,23.0,23.0,23.0,1.0,sunglasses_11s.jpg,0.0,Green.png,4.0,118,,,,,,,,,,,,,,,,,
0.0,1.0,0.843335,0.0,24.0,24.0,24.0,1.0,seagull_01b.jpg,0.0,Blue.png,5.0,118,,,,,,,,,,,,,,,,,
0.0,1.0,0.85026,0.0,25.0,25.0,25.0,1.0,footprint_11s.jpg,0.0,Purple.png,5.0,118,,,,,,,,,,,,,,,,,
0.0,1.0,0.928455,0.0,26.0,26.0,26.0,1.0,projector_08s.jpg,0.0,Red.png,5.0,118,,,,,,,,,,,,,,,,,
0.0,1.0,1.452075,0.0,27.0,27.0,27.0,1.0,projector_08s.jpg,0.0,Orange.png,5.0,118,,,,,,,,,,,,,,,,,
0.0,1.0,0.95048,0.0,28.0,28.0,28.0,1.0,money_07s.jpg,0.0,Yellow.png,5.0,118,,,,,,,,,,,,,,,,,
0.0,1.0,1.017275,0.0,29.0,29.0,29.0,1.0,flip_flop_03s.jpg,0.0,Green.png,5.0,118,,,,,,,,,,,,,,,,,
0.0,1.0,0.791525,0.0,30.0,30.0,30.0,1.0,ring_03s.jpg,0.0,Blue.png,6.0,118,,,,,,,,,,,,,,,,,
1.0,1.0,1.131835,0.0,31.0,31.0,31.0,1.0,flip_flop_03s.jpg,1.0,Purple.png,6.0,118,,,,,,,,,,,,,,,,,
0.0,1.0,1.986455,0.0,32.0,32.0,32.0,1.0,flip_flop_03s.jpg,0.0,Red.png,6.0,118,,,,,,,,,,,,,,,,,
1.0,1.0,0.76074,0.0,33.0,33.0,33.0,1.0,flip_flop_03s.jpg,1.0,Orange.png,6.0,118,,,,,,,,,,,,,,,,,
0.0,1.0,0.826395,0.0,34.0,34.0,34.0,1.0,screwdriver02a.jpg,0.0,Yellow.png,6.0,118,,,,,,,,,,,,,,,,,
0.0,1.0,1.20179,0.0,35.0,35.0,35.0,1.0,screwdriver02a.jpg,0.0,Green.png,6.0,118,,,,,,,,,,,,,,,,,
,,,,,,,,,0.0,,,118,1.0,0.0,1.116525,0.0,0.0,0.0,0.0,1.0,mop_08s.jpg,feather02.jpg,,,,,,,
,,,,,,,,,1.0,,,118,0.0,0.0,1.117795,0.0,1.0,1.0,1.0,1.0,pea_11s.jpg,rice_12s.jpg,,,,,,,
,,,,,,,,,1.0,,,118,0.0,0.0,1.087615,0.0,2.0,2.0,2.0,1.0,tiara_05s.jpg,doily_13s.jpg,,,,,,,
,,,,,,,,,1.0,,,118,0.0,0.0,1.44529,0.0,3.0,3.0,3.0,1.0,footprint_11s.jpg,money_07s.jpg,,,,,,,
,,,,,,,,,1.0,,,118,1.0,1.0,1.08128,0.0,4.0,4.0,4.0,1.0,pencil_sharpener_09n.jpg,jersey_02s.jpg,,,,,,,
,,,,,,,,,1.0,,,118,1.0,1.0,1.203455,0.0,5.0,5.0,5.0,1.0,stamp1_11s.jpg,target_11s.jpg,,,,,,,
,,,,,,,,,,,,118,,,,,,,,,,,0.0,7.0,7.0,7.0,1.0,new2backpresent_8_2.xlsx,new2back_compare_task_8_2.xlsx
0.0,1.0,1.045355,0.0,0.0,0.0,0.0,1.0,quilt_03s.jpg,0.0,Blue.png,1.0,118,,,,,,,,,,,,,,,,,
0.0,1.0,0.708185,0.0,1.0,1.0,1.0,1.0,stingray_02s.jpg,0.0,Purple.png,1.0,118,,,,,,,,,,,,,,,,,
0.0,1.0,0.667045,0.0,2.0,2.0,2.0,1.0,mousetrap_15n.jpg,0.0,Red.png,1.0,118,,,,,,,,,,,,,,,,,
0.0,1.0,0.70009,0.0,3.0,3.0,3.0,1.0,dashboard_02s.jpg,0.0,Orange.png,1.0,118,,,,,,,,,,,,,,,,,
0.0,1.0,0.859095,0.0,4.0,4.0,4.0,1.0,quilt_03s.jpg,0.0,Yellow.png,1.0,118,,,,,,,,,,,,,,,,,
0.0,1.0,1.043265,0.0,5.0,5.0,5.0,1.0,quilt_03s.jpg,0.0,Green.png,1.0,118,,,,,,,,,,,,,,,,,
0.0,1.0,0.82795,0.0,6.0,6.0,6.0,1.0,thorn_13s.jpg,0.0,Blue.png,2.0,118,,,,,,,,,,,,,,,,,
0.0,1.0,0.692635,0.0,7.0,7.0,7.0,1.0,mitten_10s.jpg,0.0,Purple.png,2.0,118,,,,,,,,,,,,,,,,,
0.0,1.0,0.72425,0.0,8.0,8.0,8.0,1.0,fondue_07s.jpg,0.0,Red.png,2.0,118,,,,,,,,,,,,,,,,,
0.0,1.0,0.70919,0.0,9.0,9.0,9.0,1.0,peach_04s.jpg,0.0,Orange.png,2.0,118,,,,,,,,,,,,,,,,,
0.0,1.0,0.65568,0.0,10.0,10.0,10.0,1.0,stump_02s.jpg,0.0,Yellow.png,2.0,118,,,,,,,,,,,,,,,,,
0.0,1.0,1.08596,0.0,11.0,11.0,11.0,1.0,rabbit_03s.jpg,0.0,Green.png,2.0,118,,,,,,,,,,,,,,,,,
0.0,1.0,0.885435,0.0,12.0,12.0,12.0,1.0,champagne_18s.jpg,0.0,Blue.png,3.0,118,,,,,,,,,,,,,,,,,
1.0,1.0,1.07473,0.0,13.0,13.0,13.0,1.0,rabbit_03s.jpg,1.0,Purple.png,3.0,118,,,,,,,,,,,,,,,,,
0.0,1.0,0.743275,0.0,14.0,14.0,14.0,1.0,denture_03s.jpg,0.0,Red.png,3.0,118,,,,,,,,,,,,,,,,,
1.0,1.0,0.778595,0.0,15.0,15.0,15.0,1.0,rabbit_03s.jpg,1.0,Orange.png,3.0,118,,,,,,,,,,,,,,,,,
0.0,1.0,1.010805,0.0,16.0,16.0,16.0,1.0,turtleneck_11s.jpg,0.0,Yellow.png,3.0,118,,,,,,,,,,,,,,,,,
1.0,1.0,1.3703,0.0,17.0,17.0,17.0,1.0,rabbit_03s.jpg,1.0,Green.png,3.0,118,,,,,,,,,,,,,,,,,
0.0,1.0,1.27736,0.0,18.0,18.0,18.0,1.0,typewriter_11s.jpg,0.0,Blue.png,4.0,118,,,,,,,,,,,,,,,,,
0.0,1.0,0.67578,0.0,19.0,19.0,19.0,1.0,thread_08s.jpg,0.0,Purple.png,4.0,118,,,,,,,,,,,,,,,,,
0.0,1.0,0.83491,0.0,20.0,20.0,20.0,1.0,bean_06s.jpg,0.0,Red.png,4.0,118,,,,,,,,,,,,,,,,,
0.0,1.0,0.710305,0.0,21.0,21.0,21.0,1.0,rolling_pin_02s.jpg,0.0,Orange.png,4.0,118,,,,,,,,,,,,,,,,,
,0.0,,0.0,22.0,22.0,22.0,1.0,tattoo_14s.jpg,0.0,Yellow.png,4.0,118,,,,,,,,,,,,,,,,,
0.0,1.0,1.886355,0.0,23.0,23.0,23.0,1.0,eiffeltower.jpg,0.0,Green.png,4.0,118,,,,,,,,,,,,,,,,,
0.0,1.0,1.08354,0.0,24.0,24.0,24.0,1.0,fondue_07s.jpg,0.0,Blue.png,5.0,118,,,,,,,,,,,,,,,,,
1.0,0.0,1.94943,0.0,25.0,25.0,25.0,1.0,fondue_07s.jpg,0.0,Purple.png,5.0,118,,,,,,,,,,,,,,,,,
0.0,1.0,1.201925,0.0,26.0,26.0,26.0,1.0,omelet_07s.jpg,0.0,Red.png,5.0,118,,,,,,,,,,,,,,,,,
1.0,1.0,0.9965,0.0,27.0,27.0,27.0,1.0,fondue_07s.jpg,1.0,Orange.png,5.0,118,,,,,,,,,,,,,,,,,
0.0,1.0,0.83533,0.0,28.0,28.0,28.0,1.0,radio_09s.jpg,0.0,Yellow.png,5.0,118,,,,,,,,,,,,,,,,,
1.0,1.0,0.89271,0.0,29.0,29.0,29.0,1.0,fondue_07s.jpg,1.0,Green.png,5.0,118,,,,,,,,,,,,,,,,,
0.0,1.0,0.870465,0.0,30.0,30.0,30.0,1.0,roller_coaster_07s.jpg,0.0,Blue.png,6.0,118,,,,,,,,,,,,,,,,,
0.0,1.0,0.71339,0.0,31.0,31.0,31.0,1.0,loveseat_08s.jpg,0.0,Purple.png,6.0,118,,,,,,,,,,,,,,,,,
1.0,1.0,1.048835,0.0,32.0,32.0,32.0,1.0,roller_coaster_07s.jpg,1.0,Red.png,6.0,118,,,,,,,,,,,,,,,,,
0.0,1.0,1.03123,0.0,33.0,33.0,33.0,1.0,roller_coaster_07s.jpg,0.0,Orange.png,6.0,118,,,,,,,,,,,,,,,,,
1.0,1.0,0.519835,0.0,34.0,34.0,34.0,1.0,roller_coaster_07s.jpg,1.0,Yellow.png,6.0,118,,,,,,,,,,,,,,,,,
1.0,1.0,0.62676,0.0,35.0,35.0,35.0,1.0,roller_coaster_07s.jpg,1.0,Green.png,6.0,118,,,,,,,,,,,,,,,,,
,,,,,,,,,0.0,,,118,0.0,1.0,0.956735,0.0,0.0,0.0,0.0,1.0,loveseat_08s.jpg,radio_09s.jpg,,,,,,,
,,,,,,,,,1.0,,,118,0.0,0.0,1.17207,0.0,1.0,1.0,1.0,1.0,dashboard_02s.jpg,thorn_13s.jpg,,,,,,,
,,,,,,,,,0.0,,,118,1.0,0.0,1.104825,0.0,2.0,2.0,2.0,1.0,champagne_18s.jpg,peach_04s.jpg,,,,,,,
,,,,,,,,,1.0,,,118,1.0,1.0,1.112585,0.0,3.0,3.0,3.0,1.0,mitten_10s.jpg,stump_02s.jpg,,,,,,,
,,,,,,,,,1.0,,,118,0.0,0.0,1.052215,0.0,4.0,4.0,4.0,1.0,typewriter_11s.jpg,rolling_pin_02s.jpg,,,,,,,
,,,,,,,,,1.0,,,118,1.0,1.0,1.178275,0.0,5.0,5.0,5.0,1.0,thread_08s.jpg,tattoo_14s.jpg,,,,,,,
,,,,,,,,,,,,118,,,,,,,,,,,0.0,8.0,8.0,8.0,1.0,new2backpresent_9_2.xlsx,new2back_compare_task_9_2.xlsx
