key_resp.keys,key_resp.corr,key_resp.rt,present_segment.thisRepN,present_segment.thisTrialN,present_segment.thisN,present_segment.thisIndex,present_segment.ran,pictures,answer,clock,segment,participant,key_resp_2.keys,key_resp_2.corr,key_resp_2.rt,compare_segment.thisRepN,compare_segment.thisTrialN,compare_segment.thisN,compare_segment.thisIndex,compare_segment.ran,item_a,item_b,clock_conditions.thisRepN,clock_conditions.thisTrialN,clock_conditions.thisN,clock_conditions.thisIndex,clock_conditions.ran,present,compare
0.0,1.0,1.727,0.0,0.0,0.0,0.0,1.0,mirror_12s.jpg,0.0,Blue.png,1.0,74,,,,,,,,,,,,,,,,,
,0.0,,0.0,1.0,1.0,1.0,1.0,polaroid_05s.jpg,0.0,Purple.png,1.0,74,,,,,,,,,,,,,,,,,
0.0,1.0,1.026,0.0,2.0,2.0,2.0,1.0,polaroid_05s.jpg,0.0,Red.png,1.0,74,,,,,,,,,,,,,,,,,
0.0,1.0,0.724,0.0,3.0,3.0,3.0,1.0,slingshot_07s.jpg,0.0,Orange.png,1.0,74,,,,,,,,,,,,,,,,,
1.0,1.0,0.74,0.0,4.0,4.0,4.0,1.0,polaroid_05s.jpg,1.0,Yellow.png,1.0,74,,,,,,,,,,,,,,,,,
0.0,1.0,0.855,0.0,5.0,5.0,5.0,1.0,kettle_08s.jpg,0.0,Green.png,1.0,74,,,,,,,,,,,,,,,,,
0.0,1.0,0.858,0.0,6.0,6.0,6.0,1.0,crystal_ball_12s.jpg,0.0,Blue.png,2.0,74,,,,,,,,,,,,,,,,,
0.0,1.0,1.726,0.0,7.0,7.0,7.0,1.0,iron_13s.jpg,0.0,Purple.png,2.0,74,,,,,,,,,,,,,,,,,
0.0,1.0,1.06,0.0,8.0,8.0,8.0,1.0,saddle_06s.jpg,0.0,Red.png,2.0,74,,,,,,,,,,,,,,,,,
0.0,1.0,0.748,0.0,9.0,9.0,9.0,1.0,mango_09s.jpg,0.0,Orange.png,2.0,74,,,,,,,,,,,,,,,,,
0.0,1.0,0.799,0.0,10.0,10.0,10.0,1.0,ostrich_06s.jpg,0.0,Yellow.png,2.0,74,,,,,,,,,,,,,,,,,
1.0,0.0,0.927,0.0,11.0,11.0,11.0,1.0,iron_13s.jpg,0.0,Green.png,2.0,74,,,,,,,,,,,,,,,,,
0.0,1.0,1.17,0.0,12.0,12.0,12.0,1.0,stethoscope_01b.jpg,0.0,Blue.png,3.0,74,,,,,,,,,,,,,,,,,
0.0,1.0,1.49,0.0,13.0,13.0,13.0,1.0,ruby_15s.jpg,0.0,Purple.png,3.0,74,,,,,,,,,,,,,,,,,
1.0,0.0,1.215,0.0,14.0,14.0,14.0,1.0,mango_09s.jpg,0.0,Red.png,3.0,74,,,,,,,,,,,,,,,,,
0.0,1.0,1.422,0.0,15.0,15.0,15.0,1.0,target_11s.jpg,0.0,Orange.png,3.0,74,,,,,,,,,,,,,,,,,
1.0,1.0,0.899,0.0,16.0,16.0,16.0,1.0,mango_09s.jpg,1.0,Yellow.png,3.0,74,,,,,,,,,,,,,,,,,
0.0,1.0,1.078,0.0,17.0,17.0,17.0,1.0,compass_10n.jpg,0.0,Green.png,3.0,74,,,,,,,,,,,,,,,,,
0.0,1.0,0.918,0.0,18.0,18.0,18.0,1.0,meatball_13s.jpg,0.0,Blue.png,4.0,74,,,,,,,,,,,,,,,,,
0.0,1.0,1.555,0.0,19.0,19.0,19.0,1.0,stapler_01b.jpg,0.0,Purple.png,4.0,74,,,,,,,,,,,,,,,,,
1.0,1.0,1.097,0.0,20.0,20.0,20.0,1.0,meatball_13s.jpg,1.0,Red.png,4.0,74,,,,,,,,,,,,,,,,,
0.0,1.0,1.315,0.0,21.0,21.0,21.0,1.0,pump_11s.jpg,0.0,Orange.png,4.0,74,,,,,,,,,,,,,,,,,
0.0,1.0,1.104,0.0,22.0,22.0,22.0,1.0,coral_08s.jpg,0.0,Yellow.png,4.0,74,,,,,,,,,,,,,,,,,
1.0,0.0,1.125,0.0,23.0,23.0,23.0,1.0,meatball_13s.jpg,0.0,Green.png,4.0,74,,,,,,,,,,,,,,,,,
0.0,1.0,1.441,0.0,24.0,24.0,24.0,1.0,peach_04s.jpg,0.0,Blue.png,5.0,74,,,,,,,,,,,,,,,,,
1.0,1.0,1.398,0.0,25.0,25.0,25.0,1.0,meatball_13s.jpg,1.0,Purple.png,5.0,74,,,,,,,,,,,,,,,,,
0.0,1.0,1.084,0.0,26.0,26.0,26.0,1.0,pie_08s.jpg,0.0,Red.png,5.0,74,,,,,,,,,,,,,,,,,
0.0,1.0,1.008,0.0,27.0,27.0,27.0,1.0,rollerskate_03s.jpg,0.0,Orange.png,5.0,74,,,,,,,,,,,,,,,,,
0.0,1.0,1.127,0.0,28.0,28.0,28.0,1.0,trampoline_13s.jpg,0.0,Yellow.png,5.0,74,,,,,,,,,,,,,,,,,
0.0,1.0,1.529,0.0,29.0,29.0,29.0,1.0,undershirt_02s.jpg,0.0,Green.png,5.0,74,,,,,,,,,,,,,,,,,
0.0,1.0,1.248,0.0,30.0,30.0,30.0,1.0,thread_08s.jpg,0.0,Blue.png,6.0,74,,,,,,,,,,,,,,,,,
0.0,1.0,1.859,0.0,31.0,31.0,31.0,1.0,megaphone_03s.jpg,0.0,Purple.png,6.0,74,,,,,,,,,,,,,,,,,
0.0,1.0,1.917,0.0,32.0,32.0,32.0,1.0,plaster_cast_13s.jpg,0.0,Red.png,6.0,74,,,,,,,,,,,,,,,,,
0.0,1.0,1.16,0.0,33.0,33.0,33.0,1.0,diving_board_07s.jpg,0.0,Orange.png,6.0,74,,,,,,,,,,,,,,,,,
0.0,1.0,1.724,0.0,34.0,34.0,34.0,1.0,kayak_08s.jpg,0.0,Yellow.png,6.0,74,,,,,,,,,,,,,,,,,
1.0,1.0,1.842,0.0,35.0,35.0,35.0,1.0,diving_board_07s.jpg,1.0,Green.png,6.0,74,,,,,,,,,,,,,,,,,
,,,,,,,,,1.0,,,74,1.0,1.0,2.692,0.0,0.0,0.0,0.0,1.0,stapler_01b.jpg,coral_08s.jpg,,,,,,,
,,,,,,,,,1.0,,,74,1.0,1.0,3.172,0.0,1.0,1.0,1.0,1.0,slingshot_07s.jpg,crystal_ball_12s.jpg,,,,,,,
,,,,,,,,,0.0,,,74,0.0,1.0,2.872,0.0,2.0,2.0,2.0,1.0,saddle_06s.jpg,kettle_08s.jpg,,,,,,,
,,,,,,,,,1.0,,,74,1.0,1.0,3.588,0.0,3.0,3.0,3.0,1.0,pie_08s.jpg,undershirt_02s.jpg,,,,,,,
,,,,,,,,,1.0,,,74,0.0,0.0,1.544,0.0,4.0,4.0,4.0,1.0,stethoscope_01b.jpg,target_11s.jpg,,,,,,,
,,,,,,,,,1.0,,,74,0.0,0.0,3.322,0.0,5.0,5.0,5.0,1.0,ostrich_06s.jpg,ruby_15s.jpg,,,,,,,
,,,,,,,,,,,,74,,,,,,,,,,,0.0,0.0,0.0,0.0,1.0,new2backpresent_1_4.xlsx,new2back_compare_task_1_4.xlsx
,0.0,,0.0,0.0,0.0,0.0,1.0,jetski_10s.jpg,0.0,Blue.png,1.0,74,,,,,,,,,,,,,,,,,
0.0,1.0,1.482,0.0,1.0,1.0,1.0,1.0,tripod_01b.jpg,0.0,Purple.png,1.0,74,,,,,,,,,,,,,,,,,
0.0,1.0,0.815,0.0,2.0,2.0,2.0,1.0,lab_coat_11s.jpg,0.0,Red.png,1.0,74,,,,,,,,,,,,,,,,,
0.0,1.0,0.763,0.0,3.0,3.0,3.0,1.0,foam_03s.jpg,0.0,Orange.png,1.0,74,,,,,,,,,,,,,,,,,
0.0,1.0,0.694,0.0,4.0,4.0,4.0,1.0,crate_05s.jpg,0.0,Yellow.png,1.0,74,,,,,,,,,,,,,,,,,
0.0,1.0,0.598,0.0,5.0,5.0,5.0,1.0,margarita_03s.jpg,0.0,Green.png,1.0,74,,,,,,,,,,,,,,,,,
0.0,1.0,1.277,0.0,6.0,6.0,6.0,1.0,joystick_01b.jpg,0.0,Blue.png,2.0,74,,,,,,,,,,,,,,,,,
0.0,1.0,1.047,0.0,7.0,7.0,7.0,1.0,giraffe_11s.jpg,0.0,Purple.png,2.0,74,,,,,,,,,,,,,,,,,
0.0,1.0,0.991,0.0,8.0,8.0,8.0,1.0,quilt_03s.jpg,0.0,Red.png,2.0,74,,,,,,,,,,,,,,,,,
1.0,1.0,1.281,0.0,9.0,9.0,9.0,1.0,giraffe_11s.jpg,1.0,Orange.png,2.0,74,,,,,,,,,,,,,,,,,
0.0,1.0,1.227,0.0,10.0,10.0,10.0,1.0,pincushion_10s.jpg,0.0,Yellow.png,2.0,74,,,,,,,,,,,,,,,,,
1.0,1.0,1.261,0.0,11.0,11.0,11.0,1.0,giraffe_11s.jpg,1.0,Green.png,2.0,74,,,,,,,,,,,,,,,,,
1.0,1.0,1.381,0.0,12.0,12.0,12.0,1.0,pincushion_10s.jpg,1.0,Blue.png,3.0,74,,,,,,,,,,,,,,,,,
1.0,1.0,1.33,0.0,13.0,13.0,13.0,1.0,giraffe_11s.jpg,1.0,Purple.png,3.0,74,,,,,,,,,,,,,,,,,
0.0,1.0,0.843,0.0,14.0,14.0,14.0,1.0,rolling_pin_02s.jpg,0.0,Red.png,3.0,74,,,,,,,,,,,,,,,,,
0.0,1.0,1.008,0.0,15.0,15.0,15.0,1.0,ticktacktoe_08s.jpg,0.0,Orange.png,3.0,74,,,,,,,,,,,,,,,,,
1.0,0.0,0.925,0.0,16.0,16.0,16.0,1.0,giraffe_11s.jpg,0.0,Yellow.png,3.0,74,,,,,,,,,,,,,,,,,
1.0,1.0,0.836,0.0,17.0,17.0,17.0,1.0,ticktacktoe_08s.jpg,1.0,Green.png,3.0,74,,,,,,,,,,,,,,,,,
0.0,1.0,1.203,0.0,18.0,18.0,18.0,1.0,typewriter_11s.jpg,0.0,Blue.png,4.0,74,,,,,,,,,,,,,,,,,
0.0,1.0,1.835,0.0,19.0,19.0,19.0,1.0,toothpaste_12s.jpg,0.0,Purple.png,4.0,74,,,,,,,,,,,,,,,,,
0.0,1.0,1.414,0.0,20.0,20.0,20.0,1.0,hummingbird_05s.jpg,0.0,Red.png,4.0,74,,,,,,,,,,,,,,,,,
1.0,1.0,1.578,0.0,21.0,21.0,21.0,1.0,toothpaste_12s.jpg,1.0,Orange.png,4.0,74,,,,,,,,,,,,,,,,,
1.0,0.0,1.859,0.0,22.0,22.0,22.0,1.0,toothpaste_12s.jpg,0.0,Yellow.png,4.0,74,,,,,,,,,,,,,,,,,
0.0,1.0,1.363,0.0,23.0,23.0,23.0,1.0,treadmill_06s.jpg,0.0,Green.png,4.0,74,,,,,,,,,,,,,,,,,
1.0,0.0,1.538,0.0,24.0,24.0,24.0,1.0,typewriter_11s.jpg,0.0,Blue.png,5.0,74,,,,,,,,,,,,,,,,,
,0.0,,0.0,25.0,25.0,25.0,1.0,penguin_16s.jpg,0.0,Purple.png,5.0,74,,,,,,,,,,,,,,,,,
0.0,1.0,1.945,0.0,26.0,26.0,26.0,1.0,olive_05s.jpg,0.0,Red.png,5.0,74,,,,,,,,,,,,,,,,,
1.0,1.0,1.097,0.0,27.0,27.0,27.0,1.0,penguin_16s.jpg,1.0,Orange.png,5.0,74,,,,,,,,,,,,,,,,,
1.0,0.0,1.106,0.0,28.0,28.0,28.0,1.0,penguin_16s.jpg,0.0,Yellow.png,5.0,74,,,,,,,,,,,,,,,,,
0.0,1.0,1.325,0.0,29.0,29.0,29.0,1.0,tab_09s.jpg,0.0,Green.png,5.0,74,,,,,,,,,,,,,,,,,
0.0,1.0,1.337,0.0,30.0,30.0,30.0,1.0,frame_06s.jpg,0.0,Blue.png,6.0,74,,,,,,,,,,,,,,,,,
0.0,1.0,0.995,0.0,31.0,31.0,31.0,1.0,mop_08s.jpg,0.0,Purple.png,6.0,74,,,,,,,,,,,,,,,,,
0.0,1.0,1.144,0.0,32.0,32.0,32.0,1.0,memory_stick_11s.jpg,0.0,Red.png,6.0,74,,,,,,,,,,,,,,,,,
1.0,0.0,1.313,0.0,33.0,33.0,33.0,1.0,olive_05s.jpg,0.0,Orange.png,6.0,74,,,,,,,,,,,,,,,,,
0.0,1.0,1.647,0.0,34.0,34.0,34.0,1.0,ravioli_08s.jpg,0.0,Yellow.png,6.0,74,,,,,,,,,,,,,,,,,
0.0,1.0,1.109,0.0,35.0,35.0,35.0,1.0,mousetrap_15n.jpg,0.0,Green.png,6.0,74,,,,,,,,,,,,,,,,,
,,,,,,,,,1.0,,,74,1.0,1.0,2.184,0.0,0.0,0.0,0.0,1.0,hummingbird_05s.jpg,treadmill_06s.jpg,,,,,,,
,,,,,,,,,1.0,,,74,0.0,0.0,2.715,0.0,1.0,1.0,1.0,1.0,margarita_03s.jpg,quilt_03s.jpg,,,,,,,
,,,,,,,,,0.0,,,74,0.0,1.0,1.58,0.0,2.0,2.0,2.0,1.0,joystick_01b.jpg,foam_03s.jpg,,,,,,,
,,,,,,,,,0.0,,,74,0.0,1.0,2.781,0.0,3.0,3.0,3.0,1.0,ravioli_08s.jpg,mop_08s.jpg,,,,,,,
,,,,,,,,,1.0,,,74,1.0,1.0,2.051,0.0,4.0,4.0,4.0,1.0,tab_09s.jpg,memory_stick_11s.jpg,,,,,,,
,,,,,,,,,1.0,,,74,0.0,0.0,1.507,0.0,5.0,5.0,5.0,1.0,tripod_01b.jpg,crate_05s.jpg,,,,,,,
,,,,,,,,,,,,74,,,,,,,,,,,0.0,1.0,1.0,1.0,1.0,new2backpresent_2_4.xlsx,new2back_compare_task_2_4.xlsx
0.0,1.0,2.136,0.0,0.0,0.0,0.0,1.0,safety_pin_02s.jpg,0.0,Blue.png,1.0,74,,,,,,,,,,,,,,,,,
0.0,1.0,0.664,0.0,1.0,1.0,1.0,1.0,safety_pin_02s.jpg,0.0,Purple.png,1.0,74,,,,,,,,,,,,,,,,,
0.0,1.0,0.808,0.0,2.0,2.0,2.0,1.0,cardinal_07s.jpg,0.0,Red.png,1.0,74,,,,,,,,,,,,,,,,,
1.0,1.0,0.984,0.0,3.0,3.0,3.0,1.0,safety_pin_02s.jpg,1.0,Orange.png,1.0,74,,,,,,,,,,,,,,,,,
0.0,1.0,1.147,0.0,4.0,4.0,4.0,1.0,potholder_02s.jpg,0.0,Yellow.png,1.0,74,,,,,,,,,,,,,,,,,
1.0,1.0,1.182,0.0,5.0,5.0,5.0,1.0,safety_pin_02s.jpg,1.0,Green.png,1.0,74,,,,,,,,,,,,,,,,,
1.0,0.0,0.809,0.0,6.0,6.0,6.0,1.0,cardinal_07s.jpg,0.0,Blue.png,2.0,74,,,,,,,,,,,,,,,,,
0.0,1.0,1.342,0.0,7.0,7.0,7.0,1.0,lion_18s.jpg,0.0,Purple.png,2.0,74,,,,,,,,,,,,,,,,,
0.0,1.0,1.261,0.0,8.0,8.0,8.0,1.0,comic_book_02s.jpg,0.0,Red.png,2.0,74,,,,,,,,,,,,,,,,,
0.0,1.0,1.031,0.0,9.0,9.0,9.0,1.0,lizard_10n.jpg,0.0,Orange.png,2.0,74,,,,,,,,,,,,,,,,,
0.0,1.0,1.074,0.0,10.0,10.0,10.0,1.0,rice_12s.jpg,0.0,Yellow.png,2.0,74,,,,,,,,,,,,,,,,,
,0.0,,0.0,11.0,11.0,11.0,1.0,bagel_15s.jpg,0.0,Green.png,2.0,74,,,,,,,,,,,,,,,,,
0.0,1.0,0.645,0.0,12.0,12.0,12.0,1.0,recliner_02s.jpg,0.0,Blue.png,3.0,74,,,,,,,,,,,,,,,,,
1.0,0.0,1.278,0.0,13.0,13.0,13.0,1.0,recliner_02s.jpg,0.0,Purple.png,3.0,74,,,,,,,,,,,,,,,,,
0.0,1.0,0.961,0.0,14.0,14.0,14.0,1.0,luggage_08s.jpg,0.0,Red.png,3.0,74,,,,,,,,,,,,,,,,,
1.0,1.0,0.78,0.0,15.0,15.0,15.0,1.0,recliner_02s.jpg,1.0,Orange.png,3.0,74,,,,,,,,,,,,,,,,,
0.0,1.0,0.741,0.0,16.0,16.0,16.0,1.0,onion_10s.jpg,0.0,Yellow.png,3.0,74,,,,,,,,,,,,,,,,,
0.0,1.0,0.876,0.0,17.0,17.0,17.0,1.0,rosary_03s.jpg,0.0,Green.png,3.0,74,,,,,,,,,,,,,,,,,
0.0,1.0,1.142,0.0,18.0,18.0,18.0,1.0,smokingpipe.jpg,0.0,Blue.png,4.0,74,,,,,,,,,,,,,,,,,
0.0,1.0,1.293,0.0,19.0,19.0,19.0,1.0,roulette_wheel_04s.jpg,0.0,Purple.png,4.0,74,,,,,,,,,,,,,,,,,
1.0,1.0,1.196,0.0,20.0,20.0,20.0,1.0,smokingpipe.jpg,1.0,Red.png,4.0,74,,,,,,,,,,,,,,,,,
0.0,1.0,1.03,0.0,21.0,21.0,21.0,1.0,orchid_01b.jpg,0.0,Orange.png,4.0,74,,,,,,,,,,,,,,,,,
0.0,1.0,1.441,0.0,22.0,22.0,22.0,1.0,buoy_04s.jpg,0.0,Yellow.png,4.0,74,,,,,,,,,,,,,,,,,
0.0,1.0,1.032,0.0,23.0,23.0,23.0,1.0,stopwatch_04s.jpg,0.0,Green.png,4.0,74,,,,,,,,,,,,,,,,,
0.0,1.0,1.917,0.0,24.0,24.0,24.0,1.0,knitting_needle_04s.jpg,0.0,Blue.png,5.0,74,,,,,,,,,,,,,,,,,
0.0,1.0,1.115,0.0,25.0,25.0,25.0,1.0,prism_10s.jpg,0.0,Purple.png,5.0,74,,,,,,,,,,,,,,,,,
1.0,0.0,0.774,0.0,26.0,26.0,26.0,1.0,teapot_03s.jpg,0.0,Red.png,5.0,74,,,,,,,,,,,,,,,,,
0.0,1.0,1.041,0.0,27.0,27.0,27.0,1.0,fire_pit_10s.jpg,0.0,Orange.png,5.0,74,,,,,,,,,,,,,,,,,
1.0,0.0,1.263,0.0,28.0,28.0,28.0,1.0,fire_pit_10s.jpg,0.0,Yellow.png,5.0,74,,,,,,,,,,,,,,,,,
1.0,1.0,0.731,0.0,29.0,29.0,29.0,1.0,fire_pit_10s.jpg,1.0,Green.png,5.0,74,,,,,,,,,,,,,,,,,
0.0,1.0,1.449,0.0,30.0,30.0,30.0,1.0,ironing_board_07s.jpg,0.0,Blue.png,6.0,74,,,,,,,,,,,,,,,,,
1.0,1.0,1.409,0.0,31.0,31.0,31.0,1.0,fire_pit_10s.jpg,1.0,Purple.png,6.0,74,,,,,,,,,,,,,,,,,
0.0,1.0,1.531,0.0,32.0,32.0,32.0,1.0,mattress_01s.jpg,0.0,Red.png,6.0,74,,,,,,,,,,,,,,,,,
1.0,1.0,1.445,0.0,33.0,33.0,33.0,1.0,fire_pit_10s.jpg,1.0,Orange.png,6.0,74,,,,,,,,,,,,,,,,,
1.0,1.0,0.918,0.0,34.0,34.0,34.0,1.0,mattress_01s.jpg,1.0,Yellow.png,6.0,74,,,,,,,,,,,,,,,,,
0.0,1.0,1.051,0.0,35.0,35.0,35.0,1.0,ice-cream_cone_06s.jpg,0.0,Green.png,6.0,74,,,,,,,,,,,,,,,,,
,,,,,,,,,1.0,,,74,0.0,0.0,2.285,0.0,0.0,0.0,0.0,1.0,roulette_wheel_04s.jpg,buoy_04s.jpg,,,,,,,
,,,,,,,,,0.0,,,74,1.0,0.0,1.741,0.0,1.0,1.0,1.0,1.0,lion_18s.jpg,potholder_02s.jpg,,,,,,,
,,,,,,,,,0.0,,,74,0.0,1.0,1.421,0.0,2.0,2.0,2.0,1.0,bagel_15s.jpg,comic_book_02s.jpg,,,,,,,
,,,,,,,,,1.0,,,74,1.0,1.0,1.84,0.0,3.0,3.0,3.0,1.0,stopwatch_04s.jpg,teapot_03s.jpg,,,,,,,
,,,,,,,,,1.0,,,74,0.0,0.0,1.118,0.0,4.0,4.0,4.0,1.0,luggage_08s.jpg,rosary_03s.jpg,,,,,,,
,,,,,,,,,1.0,,,74,0.0,0.0,0.986,0.0,5.0,5.0,5.0,1.0,orchid_01b.jpg,knitting_needle_04s.jpg,,,,,,,
,,,,,,,,,,,,74,,,,,,,,,,,0.0,2.0,2.0,2.0,1.0,new2backpresent_3_4.xlsx,new2back_compare_task_3_4.xlsx
0.0,1.0,1.193,0.0,0.0,0.0,0.0,1.0,smoothie_09s.jpg,0.0,Blue.png,1.0,74,,,,,,,,,,,,,,,,,
0.0,1.0,0.898,0.0,1.0,1.0,1.0,1.0,raspberry_12s.jpg,0.0,Purple.png,1.0,74,,,,,,,,,,,,,,,,,
1.0,0.0,1.816,0.0,2.0,2.0,2.0,1.0,raspberry_12s.jpg,0.0,Red.png,1.0,74,,,,,,,,,,,,,,,,,
0.0,1.0,0.575,0.0,3.0,3.0,3.0,1.0,lamb_chop_07s.jpg,0.0,Orange.png,1.0,74,,,,,,,,,,,,,,,,,
0.0,1.0,0.746,0.0,4.0,4.0,4.0,1.0,smoothie_09s.jpg,0.0,Yellow.png,1.0,74,,,,,,,,,,,,,,,,,
1.0,0.0,1.182,0.0,5.0,5.0,5.0,1.0,raspberry_12s.jpg,0.0,Green.png,1.0,74,,,,,,,,,,,,,,,,,
0.0,1.0,0.928,0.0,6.0,6.0,6.0,1.0,lava_02s.jpg,0.0,Blue.png,2.0,74,,,,,,,,,,,,,,,,,
0.0,1.0,0.805,0.0,7.0,7.0,7.0,1.0,trident_07s.jpg,0.0,Purple.png,2.0,74,,,,,,,,,,,,,,,,,
1.0,0.0,1.212,0.0,8.0,8.0,8.0,1.0,trident_07s.jpg,0.0,Red.png,2.0,74,,,,,,,,,,,,,,,,,
1.0,1.0,1.548,0.0,9.0,9.0,9.0,1.0,trident_07s.jpg,1.0,Orange.png,2.0,74,,,,,,,,,,,,,,,,,
0.0,1.0,0.934,0.0,10.0,10.0,10.0,1.0,orangutan_03s.jpg,0.0,Yellow.png,2.0,74,,,,,,,,,,,,,,,,,
1.0,1.0,0.982,0.0,11.0,11.0,11.0,1.0,trident_07s.jpg,1.0,Green.png,2.0,74,,,,,,,,,,,,,,,,,
1.0,0.0,1.575,0.0,12.0,12.0,12.0,1.0,raspberry_12s.jpg,0.0,Blue.png,3.0,74,,,,,,,,,,,,,,,,,
1.0,1.0,1.398,0.0,13.0,13.0,13.0,1.0,trident_07s.jpg,1.0,Purple.png,3.0,74,,,,,,,,,,,,,,,,,
0.0,1.0,1.335,0.0,14.0,14.0,14.0,1.0,lavender_10s.jpg,0.0,Red.png,3.0,74,,,,,,,,,,,,,,,,,
0.0,1.0,2.006,0.0,15.0,15.0,15.0,1.0,chip_04s.jpg,0.0,Orange.png,3.0,74,,,,,,,,,,,,,,,,,
0.0,1.0,2.084,0.0,16.0,16.0,16.0,1.0,lamb_04s.jpg,0.0,Yellow.png,3.0,74,,,,,,,,,,,,,,,,,
0.0,1.0,1.275,0.0,17.0,17.0,17.0,1.0,emerald_02s.jpg,0.0,Green.png,3.0,74,,,,,,,,,,,,,,,,,
0.0,1.0,1.136,0.0,18.0,18.0,18.0,1.0,pineapple_12s.jpg,0.0,Blue.png,4.0,74,,,,,,,,,,,,,,,,,
0.0,1.0,1.132,0.0,19.0,19.0,19.0,1.0,sundae_08s.jpg,0.0,Purple.png,4.0,74,,,,,,,,,,,,,,,,,
1.0,0.0,1.893,0.0,20.0,20.0,20.0,1.0,sundae_08s.jpg,0.0,Red.png,4.0,74,,,,,,,,,,,,,,,,,
0.0,1.0,1.109,0.0,21.0,21.0,21.0,1.0,squirrel_02s.jpg,0.0,Orange.png,4.0,74,,,,,,,,,,,,,,,,,
0.0,1.0,1.05,0.0,22.0,22.0,22.0,1.0,roller_coaster_07s.jpg,0.0,Yellow.png,4.0,74,,,,,,,,,,,,,,,,,
1.0,0.0,1.011,0.0,23.0,23.0,23.0,1.0,sundae_08s.jpg,0.0,Green.png,4.0,74,,,,,,,,,,,,,,,,,
0.0,1.0,1.061,0.0,24.0,24.0,24.0,1.0,tweezers_03s.jpg,0.0,Blue.png,5.0,74,,,,,,,,,,,,,,,,,
1.0,1.0,1.036,0.0,25.0,25.0,25.0,1.0,sundae_08s.jpg,1.0,Purple.png,5.0,74,,,,,,,,,,,,,,,,,
0.0,1.0,0.881,0.0,26.0,26.0,26.0,1.0,rudder_02s.jpg,0.0,Red.png,5.0,74,,,,,,,,,,,,,,,,,
0.0,1.0,1.387,0.0,27.0,27.0,27.0,1.0,rake_06s.jpg,0.0,Orange.png,5.0,74,,,,,,,,,,,,,,,,,
1.0,0.0,1.03,0.0,28.0,28.0,28.0,1.0,rake_06s.jpg,0.0,Yellow.png,5.0,74,,,,,,,,,,,,,,,,,
1.0,1.0,1.808,0.0,29.0,29.0,29.0,1.0,rake_06s.jpg,1.0,Green.png,5.0,74,,,,,,,,,,,,,,,,,
0.0,1.0,1.563,0.0,30.0,30.0,30.0,1.0,cap_05s.jpg,0.0,Blue.png,6.0,74,,,,,,,,,,,,,,,,,
,0.0,,0.0,31.0,31.0,31.0,1.0,paper_towel_03s.jpg,0.0,Purple.png,6.0,74,,,,,,,,,,,,,,,,,
0.0,1.0,1.144,0.0,32.0,32.0,32.0,1.0,toaster_03s.jpg,0.0,Red.png,6.0,74,,,,,,,,,,,,,,,,,
0.0,1.0,1.153,0.0,33.0,33.0,33.0,1.0,money_07s.jpg,0.0,Orange.png,6.0,74,,,,,,,,,,,,,,,,,
0.0,1.0,0.991,0.0,34.0,34.0,34.0,1.0,pinwheel_06s.jpg,0.0,Yellow.png,6.0,74,,,,,,,,,,,,,,,,,
0.0,1.0,0.935,0.0,35.0,35.0,35.0,1.0,lid_10s.jpg,0.0,Green.png,6.0,74,,,,,,,,,,,,,,,,,
,,,,,,,,,0.0,,,74,0.0,1.0,3.171,0.0,0.0,0.0,0.0,1.0,tweezers_03s.jpg,squirrel_02s.jpg,,,,,,,
,,,,,,,,,1.0,,,74,0.0,0.0,4.992,0.0,1.0,1.0,1.0,1.0,chip_04s.jpg,pineapple_12s.jpg,,,,,,,
,,,,,,,,,1.0,,,74,1.0,1.0,1.768,0.0,2.0,2.0,2.0,1.0,lamb_chop_07s.jpg,lava_02s.jpg,,,,,,,
,,,,,,,,,0.0,,,74,1.0,0.0,1.744,0.0,3.0,3.0,3.0,1.0,pinwheel_06s.jpg,paper_towel_03s.jpg,,,,,,,
,,,,,,,,,0.0,,,74,0.0,1.0,1.271,0.0,4.0,4.0,4.0,1.0,emerald_02s.jpg,lavender_10s.jpg,,,,,,,
,,,,,,,,,0.0,,,74,0.0,1.0,1.597,0.0,5.0,5.0,5.0,1.0,money_07s.jpg,cap_05s.jpg,,,,,,,
,,,,,,,,,,,,74,,,,,,,,,,,0.0,3.0,3.0,3.0,1.0,new2backpresent_4_4.xlsx,new2back_compare_task_4_4.xlsx
0.0,1.0,1.377,0.0,0.0,0.0,0.0,1.0,fur_coat_11s.jpg,0.0,Blue.png,1.0,74,,,,,,,,,,,,,,,,,
0.0,1.0,0.725,0.0,1.0,1.0,1.0,1.0,crayon_09s.jpg,0.0,Purple.png,1.0,74,,,,,,,,,,,,,,,,,
0.0,1.0,0.993,0.0,2.0,2.0,2.0,1.0,cobra_05s.jpg,0.0,Red.png,1.0,74,,,,,,,,,,,,,,,,,
0.0,1.0,2.297,0.0,3.0,3.0,3.0,1.0,raccoon_02s.jpg,0.0,Orange.png,1.0,74,,,,,,,,,,,,,,,,,
0.0,1.0,0.992,0.0,4.0,4.0,4.0,1.0,soda_fountain_03s.jpg,0.0,Yellow.png,1.0,74,,,,,,,,,,,,,,,,,
1.0,1.0,1.161,0.0,5.0,5.0,5.0,1.0,raccoon_02s.jpg,1.0,Green.png,1.0,74,,,,,,,,,,,,,,,,,
0.0,1.0,0.737,0.0,6.0,6.0,6.0,1.0,feather02.jpg,0.0,Blue.png,2.0,74,,,,,,,,,,,,,,,,,
1.0,1.0,0.867,0.0,7.0,7.0,7.0,1.0,raccoon_02s.jpg,1.0,Purple.png,2.0,74,,,,,,,,,,,,,,,,,
0.0,0.0,1.21,0.0,8.0,8.0,8.0,1.0,feather02.jpg,1.0,Red.png,2.0,74,,,,,,,,,,,,,,,,,
0.0,1.0,1.851,0.0,9.0,9.0,9.0,1.0,rug_09s.jpg,0.0,Orange.png,2.0,74,,,,,,,,,,,,,,,,,
1.0,1.0,1.275,0.0,10.0,10.0,10.0,1.0,feather02.jpg,1.0,Yellow.png,2.0,74,,,,,,,,,,,,,,,,,
0.0,1.0,0.764,0.0,11.0,11.0,11.0,1.0,cushion_08s.jpg,0.0,Green.png,2.0,74,,,,,,,,,,,,,,,,,
1.0,1.0,1.387,0.0,12.0,12.0,12.0,1.0,feather02.jpg,1.0,Blue.png,3.0,74,,,,,,,,,,,,,,,,,
1.0,0.0,1.124,0.0,13.0,13.0,13.0,1.0,feather02.jpg,0.0,Purple.png,3.0,74,,,,,,,,,,,,,,,,,
0.0,1.0,1.074,0.0,14.0,14.0,14.0,1.0,ice_pack_09s.jpg,0.0,Red.png,3.0,74,,,,,,,,,,,,,,,,,
1.0,0.0,0.985,0.0,15.0,15.0,15.0,1.0,ice_pack_09s.jpg,0.0,Orange.png,3.0,74,,,,,,,,,,,,,,,,,
0.0,1.0,0.902,0.0,16.0,16.0,16.0,1.0,loom_05s.jpg,0.0,Yellow.png,3.0,74,,,,,,,,,,,,,,,,,
1.0,1.0,1.431,0.0,17.0,17.0,17.0,1.0,ice_pack_09s.jpg,1.0,Green.png,3.0,74,,,,,,,,,,,,,,,,,
1.0,0.0,1.243,0.0,18.0,18.0,18.0,1.0,ice_pack_09s.jpg,0.0,Blue.png,4.0,74,,,,,,,,,,,,,,,,,
1.0,1.0,0.955,0.0,19.0,19.0,19.0,1.0,ice_pack_09s.jpg,1.0,Purple.png,4.0,74,,,,,,,,,,,,,,,,,
1.0,1.0,1.125,0.0,20.0,20.0,20.0,1.0,ice_pack_09s.jpg,1.0,Red.png,4.0,74,,,,,,,,,,,,,,,,,
0.0,1.0,1.044,0.0,21.0,21.0,21.0,1.0,blazer_02s.jpg,0.0,Orange.png,4.0,74,,,,,,,,,,,,,,,,,
0.0,1.0,1.461,0.0,22.0,22.0,22.0,1.0,penlight_12s.jpg,0.0,Yellow.png,4.0,74,,,,,,,,,,,,,,,,,
0.0,1.0,0.863,0.0,23.0,23.0,23.0,1.0,swan_11s.jpg,0.0,Green.png,4.0,74,,,,,,,,,,,,,,,,,
0.0,1.0,0.773,0.0,24.0,24.0,24.0,1.0,plunger_08s.jpg,0.0,Blue.png,5.0,74,,,,,,,,,,,,,,,,,
0.0,1.0,0.698,0.0,25.0,25.0,25.0,1.0,bottle_opener_11s.jpg,0.0,Purple.png,5.0,74,,,,,,,,,,,,,,,,,
0.0,1.0,0.584,0.0,26.0,26.0,26.0,1.0,checkbook_11s.jpg,0.0,Red.png,5.0,74,,,,,,,,,,,,,,,,,
0.0,1.0,0.726,0.0,27.0,27.0,27.0,1.0,ink_08s.jpg,0.0,Orange.png,5.0,74,,,,,,,,,,,,,,,,,
1.0,0.0,1.718,0.0,28.0,28.0,28.0,1.0,plunger_08s.jpg,0.0,Yellow.png,5.0,74,,,,,,,,,,,,,,,,,
0.0,1.0,1.324,0.0,29.0,29.0,29.0,1.0,pencil02a.jpg,0.0,Green.png,5.0,74,,,,,,,,,,,,,,,,,
0.0,1.0,1.096,0.0,30.0,30.0,30.0,1.0,ginger_09s.jpg,0.0,Blue.png,6.0,74,,,,,,,,,,,,,,,,,
0.0,1.0,1.243,0.0,31.0,31.0,31.0,1.0,taxi_15s.jpg,0.0,Purple.png,6.0,74,,,,,,,,,,,,,,,,,
0.0,1.0,1.701,0.0,32.0,32.0,32.0,1.0,toy_04s.jpg,0.0,Red.png,6.0,74,,,,,,,,,,,,,,,,,
0.0,1.0,0.9,0.0,33.0,33.0,33.0,1.0,blowfish_03s.jpg,0.0,Orange.png,6.0,74,,,,,,,,,,,,,,,,,
0.0,1.0,0.978,0.0,34.0,34.0,34.0,1.0,toilet_paper_12s.jpg,0.0,Yellow.png,6.0,74,,,,,,,,,,,,,,,,,
0.0,1.0,1.142,0.0,35.0,35.0,35.0,1.0,puddle_02s.jpg,0.0,Green.png,6.0,74,,,,,,,,,,,,,,,,,
,,,,,,,,,1.0,,,74,1.0,1.0,2.232,0.0,0.0,0.0,0.0,1.0,ink_08s.jpg,ginger_09s.jpg,,,,,,,
,,,,,,,,,0.0,,,74,0.0,1.0,1.259,0.0,1.0,1.0,1.0,1.0,puddle_02s.jpg,toy_04s.jpg,,,,,,,
,,,,,,,,,0.0,,,74,1.0,0.0,1.972,0.0,2.0,2.0,2.0,1.0,bottle_opener_11s.jpg,penlight_12s.jpg,,,,,,,
,,,,,,,,,0.0,,,74,1.0,0.0,2.572,0.0,3.0,3.0,3.0,1.0,checkbook_11s.jpg,swan_11s.jpg,,,,,,,
,,,,,,,,,1.0,,,74,1.0,1.0,1.864,0.0,4.0,4.0,4.0,1.0,taxi_15s.jpg,toilet_paper_12s.jpg,,,,,,,
,,,,,,,,,1.0,,,74,1.0,1.0,1.757,0.0,5.0,5.0,5.0,1.0,crayon_09s.jpg,soda_fountain_03s.jpg,,,,,,,
,,,,,,,,,,,,74,,,,,,,,,,,0.0,4.0,4.0,4.0,1.0,new2backpresent_5_4.xlsx,new2back_compare_task_5_4.xlsx
0.0,1.0,1.688,0.0,0.0,0.0,0.0,1.0,flask_04s.jpg,0.0,Blue.png,1.0,74,,,,,,,,,,,,,,,,,
0.0,1.0,1.594,0.0,1.0,1.0,1.0,1.0,kimono_13s.jpg,0.0,Purple.png,1.0,74,,,,,,,,,,,,,,,,,
0.0,1.0,1.244,0.0,2.0,2.0,2.0,1.0,limousine_12s.jpg,0.0,Red.png,1.0,74,,,,,,,,,,,,,,,,,
0.0,1.0,1.033,0.0,3.0,3.0,3.0,1.0,lectern_08s.jpg,0.0,Orange.png,1.0,74,,,,,,,,,,,,,,,,,
1.0,0.0,1.238,0.0,4.0,4.0,4.0,1.0,kimono_13s.jpg,0.0,Yellow.png,1.0,74,,,,,,,,,,,,,,,,,
0.0,1.0,0.913,0.0,5.0,5.0,5.0,1.0,doily_13s.jpg,0.0,Green.png,1.0,74,,,,,,,,,,,,,,,,,
1.0,1.0,1.236,0.0,6.0,6.0,6.0,1.0,kimono_13s.jpg,1.0,Blue.png,2.0,74,,,,,,,,,,,,,,,,,
0.0,1.0,0.931,0.0,7.0,7.0,7.0,1.0,razor_blade_01b.jpg,0.0,Purple.png,2.0,74,,,,,,,,,,,,,,,,,
1.0,0.0,1.473,0.0,8.0,8.0,8.0,1.0,razor_blade_01b.jpg,0.0,Red.png,2.0,74,,,,,,,,,,,,,,,,,
0.0,1.0,1.378,0.0,9.0,9.0,9.0,1.0,champagne_18s.jpg,0.0,Orange.png,2.0,74,,,,,,,,,,,,,,,,,
0.0,1.0,1.15,0.0,10.0,10.0,10.0,1.0,stamp1_11s.jpg,0.0,Yellow.png,2.0,74,,,,,,,,,,,,,,,,,
,0.0,,0.0,11.0,11.0,11.0,1.0,champagne_18s.jpg,1.0,Green.png,2.0,74,,,,,,,,,,,,,,,,,
1.0,0.0,1.844,0.0,12.0,12.0,12.0,1.0,crossbow_10s.jpg,0.0,Blue.png,3.0,74,,,,,,,,,,,,,,,,,
0.0,1.0,1.372,0.0,13.0,13.0,13.0,1.0,briefcase_03s.jpg,0.0,Purple.png,3.0,74,,,,,,,,,,,,,,,,,
0.0,1.0,0.871,0.0,14.0,14.0,14.0,1.0,jersey_02s.jpg,0.0,Red.png,3.0,74,,,,,,,,,,,,,,,,,
1.0,1.0,1.184,0.0,15.0,15.0,15.0,1.0,briefcase_03s.jpg,1.0,Orange.png,3.0,74,,,,,,,,,,,,,,,,,
0.0,1.0,1.624,0.0,16.0,16.0,16.0,1.0,oil_02s.jpg,0.0,Yellow.png,3.0,74,,,,,,,,,,,,,,,,,
0.0,1.0,2.429,0.0,17.0,17.0,17.0,1.0,tinsel_12s.jpg,0.0,Green.png,3.0,74,,,,,,,,,,,,,,,,,
1.0,0.0,1.36,0.0,18.0,18.0,18.0,1.0,flask_04s.jpg,0.0,Blue.png,4.0,74,,,,,,,,,,,,,,,,,
0.0,1.0,1.407,0.0,19.0,19.0,19.0,1.0,fork_04s.jpg,0.0,Purple.png,4.0,74,,,,,,,,,,,,,,,,,
0.0,1.0,1.598,0.0,20.0,20.0,20.0,1.0,purse_05s.jpg,0.0,Red.png,4.0,74,,,,,,,,,,,,,,,,,
1.0,0.0,1.083,0.0,21.0,21.0,21.0,1.0,flask_04s.jpg,0.0,Orange.png,4.0,74,,,,,,,,,,,,,,,,,
0.0,1.0,1.123,0.0,22.0,22.0,22.0,1.0,sledgehammer_03s.jpg,0.0,Yellow.png,4.0,74,,,,,,,,,,,,,,,,,
0.0,1.0,0.975,0.0,23.0,23.0,23.0,1.0,turf_03s.jpg,0.0,Green.png,4.0,74,,,,,,,,,,,,,,,,,
0.0,1.0,1.773,0.0,24.0,24.0,24.0,1.0,omelet_07s.jpg,0.0,Blue.png,5.0,74,,,,,,,,,,,,,,,,,
1.0,1.0,1.459,0.0,25.0,25.0,25.0,1.0,turf_03s.jpg,1.0,Purple.png,5.0,74,,,,,,,,,,,,,,,,,
0.0,1.0,0.808,0.0,26.0,26.0,26.0,1.0,clover_04s.jpg,0.0,Red.png,5.0,74,,,,,,,,,,,,,,,,,
0.0,1.0,1.364,0.0,27.0,27.0,27.0,1.0,lip_gloss_06s.jpg,0.0,Orange.png,5.0,74,,,,,,,,,,,,,,,,,
0.0,1.0,0.825,0.0,28.0,28.0,28.0,1.0,amber_04s.jpg,0.0,Yellow.png,5.0,74,,,,,,,,,,,,,,,,,
0.0,1.0,0.957,0.0,29.0,29.0,29.0,1.0,tortilla_06s.jpg,0.0,Green.png,5.0,74,,,,,,,,,,,,,,,,,
1.0,0.0,1.222,0.0,30.0,30.0,30.0,1.0,razor_blade_01b.jpg,0.0,Blue.png,6.0,74,,,,,,,,,,,,,,,,,
0.0,1.0,0.925,0.0,31.0,31.0,31.0,1.0,tape_measure_11s.jpg,0.0,Purple.png,6.0,74,,,,,,,,,,,,,,,,,
1.0,1.0,1.095,0.0,32.0,32.0,32.0,1.0,razor_blade_01b.jpg,1.0,Red.png,6.0,74,,,,,,,,,,,,,,,,,
1.0,0.0,1.014,0.0,33.0,33.0,33.0,1.0,razor_blade_01b.jpg,0.0,Orange.png,6.0,74,,,,,,,,,,,,,,,,,
0.0,1.0,0.91,0.0,34.0,34.0,34.0,1.0,stingray_02s.jpg,0.0,Yellow.png,6.0,74,,,,,,,,,,,,,,,,,
0.0,1.0,1.106,0.0,35.0,35.0,35.0,1.0,harpoon.jpg,0.0,Green.png,6.0,74,,,,,,,,,,,,,,,,,
,,,,,,,,,1.0,,,74,1.0,1.0,2.353,0.0,0.0,0.0,0.0,1.0,oil_02s.jpg,fork_04s.jpg,,,,,,,
,,,,,,,,,0.0,,,74,1.0,0.0,1.656,0.0,1.0,1.0,1.0,1.0,doily_13s.jpg,limousine_12s.jpg,,,,,,,
,,,,,,,,,0.0,,,74,0.0,1.0,1.908,0.0,2.0,2.0,2.0,1.0,lip_gloss_06s.jpg,omelet_07s.jpg,,,,,,,
,,,,,,,,,0.0,,,74,1.0,0.0,1.942,0.0,3.0,3.0,3.0,1.0,tape_measure_11s.jpg,amber_04s.jpg,,,,,,,
,,,,,,,,,0.0,,,74,0.0,1.0,2.371,0.0,4.0,4.0,4.0,1.0,tortilla_06s.jpg,clover_04s.jpg,,,,,,,
,,,,,,,,,0.0,,,74,1.0,0.0,3.004,0.0,5.0,5.0,5.0,1.0,purse_05s.jpg,tinsel_12s.jpg,,,,,,,
,,,,,,,,,,,,74,,,,,,,,,,,0.0,5.0,5.0,5.0,1.0,new2backpresent_6_4.xlsx,new2back_compare_task_6_4.xlsx
0.0,1.0,1.147,0.0,0.0,0.0,0.0,1.0,butter_14s.jpg,0.0,Blue.png,1.0,74,,,,,,,,,,,,,,,,,
0.0,1.0,1.141,0.0,1.0,1.0,1.0,1.0,butter_14s.jpg,0.0,Purple.png,1.0,74,,,,,,,,,,,,,,,,,
1.0,1.0,1.045,0.0,2.0,2.0,2.0,1.0,butter_14s.jpg,1.0,Red.png,1.0,74,,,,,,,,,,,,,,,,,
0.0,1.0,0.925,0.0,3.0,3.0,3.0,1.0,stamp2_08s.jpg,0.0,Orange.png,1.0,74,,,,,,,,,,,,,,,,,
0.0,1.0,0.771,0.0,4.0,4.0,4.0,1.0,kangaroo_02s.jpg,0.0,Yellow.png,1.0,74,,,,,,,,,,,,,,,,,
0.0,1.0,0.572,0.0,5.0,5.0,5.0,1.0,camcorder_10s.jpg,0.0,Green.png,1.0,74,,,,,,,,,,,,,,,,,
0.0,1.0,2.073,0.0,6.0,6.0,6.0,1.0,bank_06s.jpg,0.0,Blue.png,2.0,74,,,,,,,,,,,,,,,,,
0.0,1.0,2.097,0.0,7.0,7.0,7.0,1.0,gear_07s.jpg,0.0,Purple.png,2.0,74,,,,,,,,,,,,,,,,,
1.0,1.0,1.5,0.0,8.0,8.0,8.0,1.0,bank_06s.jpg,1.0,Red.png,2.0,74,,,,,,,,,,,,,,,,,
0.0,1.0,0.914,0.0,9.0,9.0,9.0,1.0,funnel_01b.jpg,0.0,Orange.png,2.0,74,,,,,,,,,,,,,,,,,
0.0,1.0,1.162,0.0,10.0,10.0,10.0,1.0,poinsettia_04s.jpg,0.0,Yellow.png,2.0,74,,,,,,,,,,,,,,,,,
1.0,1.0,1.009,0.0,11.0,11.0,11.0,1.0,funnel_01b.jpg,1.0,Green.png,2.0,74,,,,,,,,,,,,,,,,,
0.0,1.0,0.825,0.0,12.0,12.0,12.0,1.0,rooster_03s.jpg,0.0,Blue.png,3.0,74,,,,,,,,,,,,,,,,,
,0.0,,0.0,13.0,13.0,13.0,1.0,denture_03s.jpg,0.0,Purple.png,3.0,74,,,,,,,,,,,,,,,,,
0.0,1.0,1.364,0.0,14.0,14.0,14.0,1.0,bean_06s.jpg,0.0,Red.png,3.0,74,,,,,,,,,,,,,,,,,
0.0,1.0,1.717,0.0,15.0,15.0,15.0,1.0,mud_13s.jpg,0.0,Orange.png,3.0,74,,,,,,,,,,,,,,,,,
0.0,1.0,1.107,0.0,16.0,16.0,16.0,1.0,keyhole_03s.jpg,0.0,Yellow.png,3.0,74,,,,,,,,,,,,,,,,,
1.0,0.0,1.131,0.0,17.0,17.0,17.0,1.0,bean_06s.jpg,0.0,Green.png,3.0,74,,,,,,,,,,,,,,,,,
0.0,1.0,1.363,0.0,18.0,18.0,18.0,1.0,bank_06s.jpg,0.0,Blue.png,4.0,74,,,,,,,,,,,,,,,,,
0.0,1.0,1.453,0.0,19.0,19.0,19.0,1.0,pomegranate_04s.jpg,0.0,Purple.png,4.0,74,,,,,,,,,,,,,,,,,
0.0,1.0,1.165,0.0,20.0,20.0,20.0,1.0,chopsticks_08s.jpg,0.0,Red.png,4.0,74,,,,,,,,,,,,,,,,,
0.0,1.0,1.366,0.0,21.0,21.0,21.0,1.0,contact_lens_15s.jpg,0.0,Orange.png,4.0,74,,,,,,,,,,,,,,,,,
0.0,1.0,0.93,0.0,22.0,22.0,22.0,1.0,hydrant_10s.jpg,0.0,Yellow.png,4.0,74,,,,,,,,,,,,,,,,,
0.0,1.0,0.666,0.0,23.0,23.0,23.0,1.0,gingerbread_man_03s.jpg,0.0,Green.png,4.0,74,,,,,,,,,,,,,,,,,
1.0,0.0,1.253,0.0,24.0,24.0,24.0,1.0,camcorder_10s.jpg,0.0,Blue.png,5.0,74,,,,,,,,,,,,,,,,,
0.0,1.0,1.242,0.0,25.0,25.0,25.0,1.0,teabag_12s.jpg,0.0,Purple.png,5.0,74,,,,,,,,,,,,,,,,,
0.0,1.0,0.667,0.0,26.0,26.0,26.0,1.0,radiator_05s.jpg,0.0,Red.png,5.0,74,,,,,,,,,,,,,,,,,
0.0,1.0,0.973,0.0,27.0,27.0,27.0,1.0,punch1_10s.jpg,0.0,Orange.png,5.0,74,,,,,,,,,,,,,,,,,
0.0,1.0,0.721,0.0,28.0,28.0,28.0,1.0,mailbox_11s.jpg,0.0,Yellow.png,5.0,74,,,,,,,,,,,,,,,,,
0.0,1.0,1.294,0.0,29.0,29.0,29.0,1.0,beaker_01b.jpg,0.0,Green.png,5.0,74,,,,,,,,,,,,,,,,,
0.0,0.0,0.997,0.0,30.0,30.0,30.0,1.0,mailbox_11s.jpg,1.0,Blue.png,6.0,74,,,,,,,,,,,,,,,,,
1.0,0.0,1.375,0.0,31.0,31.0,31.0,1.0,pipe1_10s.jpg,0.0,Purple.png,6.0,74,,,,,,,,,,,,,,,,,
1.0,1.0,1.064,0.0,32.0,32.0,32.0,1.0,mailbox_11s.jpg,1.0,Red.png,6.0,74,,,,,,,,,,,,,,,,,
1.0,1.0,1.377,0.0,33.0,33.0,33.0,1.0,pipe1_10s.jpg,1.0,Orange.png,6.0,74,,,,,,,,,,,,,,,,,
0.0,1.0,1.523,0.0,34.0,34.0,34.0,1.0,eyedropper_12s.jpg,0.0,Yellow.png,6.0,74,,,,,,,,,,,,,,,,,
0.0,1.0,0.638,0.0,35.0,35.0,35.0,1.0,rhubarb_03s.jpg,0.0,Green.png,6.0,74,,,,,,,,,,,,,,,,,
,,,,,,,,,0.0,,,74,0.0,1.0,2.514,0.0,0.0,0.0,0.0,1.0,mud_13s.jpg,rooster_03s.jpg,,,,,,,
,,,,,,,,,1.0,,,74,0.0,0.0,2.253,0.0,1.0,1.0,1.0,1.0,chopsticks_08s.jpg,gingerbread_man_03s.jpg,,,,,,,
,,,,,,,,,0.0,,,74,1.0,0.0,2.633,0.0,2.0,2.0,2.0,1.0,beaker_01b.jpg,radiator_05s.jpg,,,,,,,
,,,,,,,,,0.0,,,74,1.0,0.0,2.105,0.0,3.0,3.0,3.0,1.0,teabag_12s.jpg,hydrant_10s.jpg,,,,,,,
,,,,,,,,,0.0,,,74,0.0,1.0,1.633,0.0,4.0,4.0,4.0,1.0,denture_03s.jpg,poinsettia_04s.jpg,,,,,,,
,,,,,,,,,1.0,,,74,0.0,0.0,1.838,0.0,5.0,5.0,5.0,1.0,kangaroo_02s.jpg,gear_07s.jpg,,,,,,,
,,,,,,,,,,,,74,,,,,,,,,,,0.0,6.0,6.0,6.0,1.0,new2backpresent_7_4.xlsx,new2back_compare_task_7_4.xlsx
0.0,1.0,1.126,0.0,0.0,0.0,0.0,1.0,lamppost_09s.jpg,0.0,Blue.png,1.0,74,,,,,,,,,,,,,,,,,
0.0,1.0,0.897,0.0,1.0,1.0,1.0,1.0,jewel_01b.jpg,0.0,Purple.png,1.0,74,,,,,,,,,,,,,,,,,
0.0,1.0,1.165,0.0,2.0,2.0,2.0,1.0,tuxedo_01b.jpg,0.0,Red.png,1.0,74,,,,,,,,,,,,,,,,,
0.0,1.0,0.828,0.0,3.0,3.0,3.0,1.0,flip_flop_03s.jpg,0.0,Orange.png,1.0,74,,,,,,,,,,,,,,,,,
0.0,1.0,0.973,0.0,4.0,4.0,4.0,1.0,medal_04s.jpg,0.0,Yellow.png,1.0,74,,,,,,,,,,,,,,,,,
1.0,1.0,1.35,0.0,5.0,5.0,5.0,1.0,flip_flop_03s.jpg,1.0,Green.png,1.0,74,,,,,,,,,,,,,,,,,
1.0,0.0,1.147,0.0,6.0,6.0,6.0,1.0,tuxedo_01b.jpg,0.0,Blue.png,2.0,74,,,,,,,,,,,,,,,,,
1.0,1.0,1.146,0.0,7.0,7.0,7.0,1.0,flip_flop_03s.jpg,1.0,Purple.png,2.0,74,,,,,,,,,,,,,,,,,
0.0,1.0,1.211,0.0,8.0,8.0,8.0,1.0,fireworks_18s.jpg,0.0,Red.png,2.0,74,,,,,,,,,,,,,,,,,
0.0,1.0,1.227,0.0,9.0,9.0,9.0,1.0,squirt_gun_03s.jpg,0.0,Orange.png,2.0,74,,,,,,,,,,,,,,,,,
1.0,0.0,0.985,0.0,10.0,10.0,10.0,1.0,flip_flop_03s.jpg,0.0,Yellow.png,2.0,74,,,,,,,,,,,,,,,,,
0.0,1.0,1.029,0.0,11.0,11.0,11.0,1.0,puffin_19s.jpg,0.0,Green.png,2.0,74,,,,,,,,,,,,,,,,,
1.0,0.0,1.081,0.0,12.0,12.0,12.0,1.0,tuxedo_01b.jpg,0.0,Blue.png,3.0,74,,,,,,,,,,,,,,,,,
1.0,0.0,0.966,0.0,13.0,13.0,13.0,1.0,tuxedo_01b.jpg,0.0,Purple.png,3.0,74,,,,,,,,,,,,,,,,,
0.0,1.0,1.097,0.0,14.0,14.0,14.0,1.0,snowman_02s.jpg,0.0,Red.png,3.0,74,,,,,,,,,,,,,,,,,
0.0,1.0,0.989,0.0,15.0,15.0,15.0,1.0,cucumber_07s.jpg,0.0,Orange.png,3.0,74,,,,,,,,,,,,,,,,,
0.0,1.0,1.258,0.0,16.0,16.0,16.0,1.0,plug_08s.jpg,0.0,Yellow.png,3.0,74,,,,,,,,,,,,,,,,,
1.0,1.0,1.196,0.0,17.0,17.0,17.0,1.0,cucumber_07s.jpg,1.0,Green.png,3.0,74,,,,,,,,,,,,,,,,,
1.0,0.0,1.183,0.0,18.0,18.0,18.0,1.0,puffin_19s.jpg,0.0,Blue.png,4.0,74,,,,,,,,,,,,,,,,,
0.0,1.0,1.032,0.0,19.0,19.0,19.0,1.0,fondue_07s.jpg,0.0,Purple.png,4.0,74,,,,,,,,,,,,,,,,,
0.0,1.0,1.358,0.0,20.0,20.0,20.0,1.0,lasagna_06s.jpg,0.0,Red.png,4.0,74,,,,,,,,,,,,,,,,,
0.0,1.0,0.873,0.0,21.0,21.0,21.0,1.0,eiffeltower.jpg,0.0,Orange.png,4.0,74,,,,,,,,,,,,,,,,,
0.0,1.0,1.125,0.0,22.0,22.0,22.0,1.0,outlet_10s.jpg,0.0,Yellow.png,4.0,74,,,,,,,,,,,,,,,,,
0.0,1.0,0.935,0.0,23.0,23.0,23.0,1.0,cape_11s.jpg,0.0,Green.png,4.0,74,,,,,,,,,,,,,,,,,
0.0,1.0,2.159,0.0,24.0,24.0,24.0,1.0,marshmallow_08s.jpg,0.0,Blue.png,5.0,74,,,,,,,,,,,,,,,,,
0.0,1.0,1.366,0.0,25.0,25.0,25.0,1.0,racehorse_03s.jpg,0.0,Purple.png,5.0,74,,,,,,,,,,,,,,,,,
0.0,1.0,0.967,0.0,26.0,26.0,26.0,1.0,aluminum_foil_08s.jpg,0.0,Red.png,5.0,74,,,,,,,,,,,,,,,,,
0.0,1.0,1.027,0.0,27.0,27.0,27.0,1.0,spoon02a.jpg,0.0,Orange.png,5.0,74,,,,,,,,,,,,,,,,,
0.0,1.0,1.443,0.0,28.0,28.0,28.0,1.0,padlock_07s.jpg,0.0,Yellow.png,5.0,74,,,,,,,,,,,,,,,,,
0.0,1.0,0.576,0.0,29.0,29.0,29.0,1.0,solar_panel_02s.jpg,0.0,Green.png,5.0,74,,,,,,,,,,,,,,,,,
0.0,1.0,0.66,0.0,30.0,30.0,30.0,1.0,turtleneck_11s.jpg,0.0,Blue.png,6.0,74,,,,,,,,,,,,,,,,,
1.0,0.0,1.309,0.0,31.0,31.0,31.0,1.0,pocketknife_12s.jpg,0.0,Purple.png,6.0,74,,,,,,,,,,,,,,,,,
1.0,0.0,1.198,0.0,32.0,32.0,32.0,1.0,pocketknife_12s.jpg,0.0,Red.png,6.0,74,,,,,,,,,,,,,,,,,
0.0,1.0,1.041,0.0,33.0,33.0,33.0,1.0,quill_09s.jpg,0.0,Orange.png,6.0,74,,,,,,,,,,,,,,,,,
1.0,0.0,1.728,0.0,34.0,34.0,34.0,1.0,quill_09s.jpg,0.0,Yellow.png,6.0,74,,,,,,,,,,,,,,,,,
1.0,0.0,1.426,0.0,35.0,35.0,35.0,1.0,pocketknife_12s.jpg,0.0,Green.png,6.0,74,,,,,,,,,,,,,,,,,
,,,,,,,,,0.0,,,74,0.0,1.0,2.399,0.0,0.0,0.0,0.0,1.0,cape_11s.jpg,lasagna_06s.jpg,,,,,,,
,,,,,,,,,0.0,,,74,0.0,1.0,2.072,0.0,1.0,1.0,1.0,1.0,padlock_07s.jpg,racehorse_03s.jpg,,,,,,,
,,,,,,,,,1.0,,,74,1.0,1.0,1.843,0.0,2.0,2.0,2.0,1.0,spoon02a.jpg,turtleneck_11s.jpg,,,,,,,
,,,,,,,,,0.0,,,74,1.0,0.0,2.726,0.0,3.0,3.0,3.0,1.0,marshmallow_08s.jpg,eiffeltower.jpg,,,,,,,
,,,,,,,,,0.0,,,74,1.0,0.0,2.441,0.0,4.0,4.0,4.0,1.0,medal_04s.jpg,jewel_01b.jpg,,,,,,,
,,,,,,,,,1.0,,,74,1.0,1.0,2.535,0.0,5.0,5.0,5.0,1.0,plug_08s.jpg,fondue_07s.jpg,,,,,,,
,,,,,,,,,,,,74,,,,,,,,,,,0.0,7.0,7.0,7.0,1.0,new2backpresent_8_4.xlsx,new2back_compare_task_8_4.xlsx
0.0,1.0,1.948,0.0,0.0,0.0,0.0,1.0,footprint_11s.jpg,0.0,Blue.png,1.0,74,,,,,,,,,,,,,,,,,
0.0,1.0,0.876,0.0,1.0,1.0,1.0,1.0,coffee_filter_10s.jpg,0.0,Purple.png,1.0,74,,,,,,,,,,,,,,,,,
1.0,0.0,1.216,0.0,2.0,2.0,2.0,1.0,coffee_filter_10s.jpg,0.0,Red.png,1.0,74,,,,,,,,,,,,,,,,,
1.0,1.0,0.944,0.0,3.0,3.0,3.0,1.0,coffee_filter_10s.jpg,1.0,Orange.png,1.0,74,,,,,,,,,,,,,,,,,
1.0,1.0,1.161,0.0,4.0,4.0,4.0,1.0,coffee_filter_10s.jpg,1.0,Yellow.png,1.0,74,,,,,,,,,,,,,,,,,
0.0,1.0,0.95,0.0,5.0,5.0,5.0,1.0,gargoyle_08s.jpg,0.0,Green.png,1.0,74,,,,,,,,,,,,,,,,,
0.0,1.0,1.374,0.0,6.0,6.0,6.0,1.0,candy_cane_06s.jpg,0.0,Blue.png,2.0,74,,,,,,,,,,,,,,,,,
0.0,1.0,0.923,0.0,7.0,7.0,7.0,1.0,toad_09s.jpg,0.0,Purple.png,2.0,74,,,,,,,,,,,,,,,,,
0.0,0.0,0.974,0.0,8.0,8.0,8.0,1.0,candy_cane_06s.jpg,1.0,Red.png,2.0,74,,,,,,,,,,,,,,,,,
0.0,1.0,1.139,0.0,9.0,9.0,9.0,1.0,pumpkin_03s.jpg,0.0,Orange.png,2.0,74,,,,,,,,,,,,,,,,,
0.0,1.0,1.029,0.0,10.0,10.0,10.0,1.0,dashboard_02s.jpg,0.0,Yellow.png,2.0,74,,,,,,,,,,,,,,,,,
0.0,1.0,1.139,0.0,11.0,11.0,11.0,1.0,syringe_02s.jpg,0.0,Green.png,2.0,74,,,,,,,,,,,,,,,,,
0.0,1.0,1.026,0.0,12.0,12.0,12.0,1.0,powder_07s.jpg,0.0,Blue.png,3.0,74,,,,,,,,,,,,,,,,,
1.0,0.0,2.18,0.0,13.0,13.0,13.0,1.0,powder_07s.jpg,0.0,Purple.png,3.0,74,,,,,,,,,,,,,,,,,
1.0,1.0,1.866,0.0,14.0,14.0,14.0,1.0,powder_07s.jpg,1.0,Red.png,3.0,74,,,,,,,,,,,,,,,,,
0.0,1.0,1.15,0.0,15.0,15.0,15.0,1.0,sea_urchin_09s.jpg,0.0,Orange.png,3.0,74,,,,,,,,,,,,,,,,,
0.0,1.0,0.788,0.0,16.0,16.0,16.0,1.0,throne_11s.jpg,0.0,Yellow.png,3.0,74,,,,,,,,,,,,,,,,,
1.0,0.0,1.105,0.0,17.0,17.0,17.0,1.0,powder_07s.jpg,0.0,Green.png,3.0,74,,,,,,,,,,,,,,,,,
0.0,1.0,0.852,0.0,18.0,18.0,18.0,1.0,chalice_10s.jpg,0.0,Blue.png,4.0,74,,,,,,,,,,,,,,,,,
0.0,1.0,1.332,0.0,19.0,19.0,19.0,1.0,air_pump_05s.jpg,0.0,Purple.png,4.0,74,,,,,,,,,,,,,,,,,
0.0,1.0,1.355,0.0,20.0,20.0,20.0,1.0,microwave_02s.jpg,0.0,Red.png,4.0,74,,,,,,,,,,,,,,,,,
0.0,1.0,1.004,0.0,21.0,21.0,21.0,1.0,cereal_04s.jpg,0.0,Orange.png,4.0,74,,,,,,,,,,,,,,,,,
0.0,1.0,0.897,0.0,22.0,22.0,22.0,1.0,mushroom_10n.jpg,0.0,Yellow.png,4.0,74,,,,,,,,,,,,,,,,,
0.0,1.0,1.176,0.0,23.0,23.0,23.0,1.0,red_carpet_03s.jpg,0.0,Green.png,4.0,74,,,,,,,,,,,,,,,,,
1.0,0.0,1.344,0.0,24.0,24.0,24.0,1.0,throne_11s.jpg,0.0,Blue.png,5.0,74,,,,,,,,,,,,,,,,,
0.0,1.0,1.93,0.0,25.0,25.0,25.0,1.0,koala_13s.jpg,0.0,Purple.png,5.0,74,,,,,,,,,,,,,,,,,
1.0,1.0,0.951,0.0,26.0,26.0,26.0,1.0,throne_11s.jpg,1.0,Red.png,5.0,74,,,,,,,,,,,,,,,,,
0.0,1.0,1.193,0.0,27.0,27.0,27.0,1.0,rocket_02s.jpg,0.0,Orange.png,5.0,74,,,,,,,,,,,,,,,,,
0.0,1.0,1.312,0.0,28.0,28.0,28.0,1.0,swordfish_05s.jpg,0.0,Yellow.png,5.0,74,,,,,,,,,,,,,,,,,
0.0,0.0,1.279,0.0,29.0,29.0,29.0,1.0,rocket_02s.jpg,1.0,Green.png,5.0,74,,,,,,,,,,,,,,,,,
0.0,1.0,0.894,0.0,30.0,30.0,30.0,1.0,icicle_04s.jpg,0.0,Blue.png,6.0,74,,,,,,,,,,,,,,,,,
0.0,1.0,1.595,0.0,31.0,31.0,31.0,1.0,keyboard_05s.jpg,0.0,Purple.png,6.0,74,,,,,,,,,,,,,,,,,
0.0,1.0,1.447,0.0,32.0,32.0,32.0,1.0,pocket_watch_16s.jpg,0.0,Red.png,6.0,74,,,,,,,,,,,,,,,,,
0.0,1.0,1.563,0.0,33.0,33.0,33.0,1.0,tablet_04s.jpg,0.0,Orange.png,6.0,74,,,,,,,,,,,,,,,,,
0.0,1.0,0.907,0.0,34.0,34.0,34.0,1.0,chocolate_01b.jpg,0.0,Yellow.png,6.0,74,,,,,,,,,,,,,,,,,
0.0,1.0,1.008,0.0,35.0,35.0,35.0,1.0,light_switch_02s.jpg,0.0,Green.png,6.0,74,,,,,,,,,,,,,,,,,
,,,,,,,,,0.0,,,74,0.0,1.0,2.995,0.0,0.0,0.0,0.0,1.0,chalice_10s.jpg,sea_urchin_09s.jpg,,,,,,,
,,,,,,,,,1.0,,,74,1.0,1.0,2.402,0.0,1.0,1.0,1.0,1.0,swordfish_05s.jpg,keyboard_05s.jpg,,,,,,,
,,,,,,,,,0.0,,,74,1.0,0.0,3.78,0.0,2.0,2.0,2.0,1.0,red_carpet_03s.jpg,microwave_02s.jpg,,,,,,,
,,,,,,,,,0.0,,,74,0.0,1.0,0.304,0.0,3.0,3.0,3.0,1.0,dashboard_02s.jpg,toad_09s.jpg,,,,,,,
,,,,,,,,,0.0,,,74,0.0,1.0,1.326,0.0,4.0,4.0,4.0,1.0,koala_13s.jpg,mushroom_10n.jpg,,,,,,,
,,,,,,,,,1.0,,,74,0.0,0.0,1.356,0.0,5.0,5.0,5.0,1.0,icicle_04s.jpg,tablet_04s.jpg,,,,,,,
,,,,,,,,,,,,74,,,,,,,,,,,0.0,8.0,8.0,8.0,1.0,new2backpresent_9_4.xlsx,new2back_compare_task_9_4.xlsx
