key_resp.keys,key_resp.corr,key_resp.rt,present_segment.thisRepN,present_segment.thisTrialN,present_segment.thisN,present_segment.thisIndex,present_segment.ran,pictures,answer,clock,segment,participant,key_resp_2.keys,key_resp_2.corr,key_resp_2.rt,compare_segment.thisRepN,compare_segment.thisTrialN,compare_segment.thisN,compare_segment.thisIndex,compare_segment.ran,item_a,item_b,clock_conditions.thisRepN,clock_conditions.thisTrialN,clock_conditions.thisN,clock_conditions.thisIndex,clock_conditions.ran,present,compare
0.0,1.0,1.895105,0.0,0.0,0.0,0.0,1.0,lamppost_09s.jpg,0.0,Blue.png,1.0,10,,,,,,,,,,,,,,,,,
0.0,1.0,1.38386,0.0,1.0,1.0,1.0,1.0,mushroom_10n.jpg,0.0,Purple.png,1.0,10,,,,,,,,,,,,,,,,,
1.0,1.0,1.503595,0.0,2.0,2.0,2.0,1.0,mushroom_10n.jpg,1.0,Red.png,1.0,10,,,,,,,,,,,,,,,,,
0.0,1.0,1.394445,0.0,3.0,3.0,3.0,1.0,megaphone_03s.jpg,0.0,Orange.png,1.0,10,,,,,,,,,,,,,,,,,
0.0,1.0,1.909535,0.0,4.0,4.0,4.0,1.0,popsicle_02s.jpg,0.0,Yellow.png,1.0,10,,,,,,,,,,,,,,,,,
0.0,1.0,1.527265,0.0,5.0,5.0,5.0,1.0,kangaroo_02s.jpg,0.0,Green.png,1.0,10,,,,,,,,,,,,,,,,,
1.0,0.0,1.430615,0.0,6.0,6.0,6.0,1.0,kangaroo_02s.jpg,0.0,Blue.png,2.0,10,,,,,,,,,,,,,,,,,
,0.0,,0.0,7.0,7.0,7.0,1.0,ivy_12s.jpg,0.0,Purple.png,2.0,10,,,,,,,,,,,,,,,,,
0.0,0.0,1.97802,0.0,8.0,8.0,8.0,1.0,kangaroo_02s.jpg,1.0,Red.png,2.0,10,,,,,,,,,,,,,,,,,
,0.0,,0.0,9.0,9.0,9.0,1.0,peanut_butter_08s.jpg,0.0,Orange.png,2.0,10,,,,,,,,,,,,,,,,,
0.0,1.0,1.3057,0.0,10.0,10.0,10.0,1.0,spoon02a.jpg,0.0,Yellow.png,2.0,10,,,,,,,,,,,,,,,,,
0.0,1.0,1.30615,0.0,11.0,11.0,11.0,1.0,air_pump_05s.jpg,0.0,Green.png,2.0,10,,,,,,,,,,,,,,,,,
0.0,1.0,1.90017,0.0,12.0,12.0,12.0,1.0,powder_07s.jpg,0.0,Blue.png,3.0,10,,,,,,,,,,,,,,,,,
0.0,1.0,2.249005,0.0,13.0,13.0,13.0,1.0,sunglasses_11s.jpg,0.0,Purple.png,3.0,10,,,,,,,,,,,,,,,,,
0.0,1.0,1.078615,0.0,14.0,14.0,14.0,1.0,timer_03s.jpg,0.0,Red.png,3.0,10,,,,,,,,,,,,,,,,,
1.0,1.0,1.356575,0.0,15.0,15.0,15.0,1.0,sunglasses_11s.jpg,1.0,Orange.png,3.0,10,,,,,,,,,,,,,,,,,
0.0,1.0,1.202155,0.0,16.0,16.0,16.0,1.0,stethoscope_01b.jpg,0.0,Yellow.png,3.0,10,,,,,,,,,,,,,,,,,
1.0,1.0,1.47461,0.0,17.0,17.0,17.0,1.0,sunglasses_11s.jpg,1.0,Green.png,3.0,10,,,,,,,,,,,,,,,,,
0.0,1.0,1.97851,0.0,18.0,18.0,18.0,1.0,sunglasses_11s.jpg,0.0,Blue.png,4.0,10,,,,,,,,,,,,,,,,,
1.0,1.0,1.738775,0.0,19.0,19.0,19.0,1.0,sunglasses_11s.jpg,1.0,Purple.png,4.0,10,,,,,,,,,,,,,,,,,
0.0,1.0,1.53104,0.0,20.0,20.0,20.0,1.0,radiator_05s.jpg,0.0,Red.png,4.0,10,,,,,,,,,,,,,,,,,
1.0,1.0,1.487775,0.0,21.0,21.0,21.0,1.0,radiator_05s.jpg,1.0,Orange.png,4.0,10,,,,,,,,,,,,,,,,,
1.0,1.0,1.70028,0.0,22.0,22.0,22.0,1.0,sunglasses_11s.jpg,1.0,Yellow.png,4.0,10,,,,,,,,,,,,,,,,,
1.0,1.0,1.55261,0.0,23.0,23.0,23.0,1.0,radiator_05s.jpg,1.0,Green.png,4.0,10,,,,,,,,,,,,,,,,,
0.0,1.0,1.07504,0.0,24.0,24.0,24.0,1.0,stump_02s.jpg,0.0,Blue.png,5.0,10,,,,,,,,,,,,,,,,,
0.0,1.0,1.67943,0.0,25.0,25.0,25.0,1.0,jet_15s.jpg,0.0,Purple.png,5.0,10,,,,,,,,,,,,,,,,,
0.0,1.0,1.924715,0.0,26.0,26.0,26.0,1.0,bubble_01b.jpg,0.0,Red.png,5.0,10,,,,,,,,,,,,,,,,,
0.0,1.0,1.255625,0.0,27.0,27.0,27.0,1.0,footprint_11s.jpg,0.0,Orange.png,5.0,10,,,,,,,,,,,,,,,,,
0.0,1.0,1.126785,0.0,28.0,28.0,28.0,1.0,knitting_needle_04s.jpg,0.0,Yellow.png,5.0,10,,,,,,,,,,,,,,,,,
1.0,1.0,2.25409,0.0,29.0,29.0,29.0,1.0,bubble_01b.jpg,1.0,Green.png,5.0,10,,,,,,,,,,,,,,,,,
0.0,1.0,1.382785,0.0,30.0,30.0,30.0,1.0,lizard_10n.jpg,0.0,Blue.png,6.0,10,,,,,,,,,,,,,,,,,
1.0,0.0,1.03933,0.0,31.0,31.0,31.0,1.0,bubble_01b.jpg,0.0,Purple.png,6.0,10,,,,,,,,,,,,,,,,,
0.0,1.0,1.208135,0.0,32.0,32.0,32.0,1.0,frame_06s.jpg,0.0,Red.png,6.0,10,,,,,,,,,,,,,,,,,
0.0,1.0,1.43923,0.0,33.0,33.0,33.0,1.0,tube_top_03s.jpg,0.0,Orange.png,6.0,10,,,,,,,,,,,,,,,,,
1.0,1.0,0.970985,0.0,34.0,34.0,34.0,1.0,bubble_01b.jpg,1.0,Yellow.png,6.0,10,,,,,,,,,,,,,,,,,
1.0,1.0,1.22089,0.0,35.0,35.0,35.0,1.0,bubble_01b.jpg,1.0,Green.png,6.0,10,,,,,,,,,,,,,,,,,
,,,,,,,,,0.0,,,10,1.0,0.0,2.65541,0.0,0.0,0.0,0.0,1.0,powder_07s.jpg,peanut_butter_08s.jpg,,,,,,,
,,,,,,,,,0.0,,,10,0.0,1.0,1.587925,0.0,1.0,1.0,1.0,1.0,ivy_12s.jpg,popsicle_02s.jpg,,,,,,,
,,,,,,,,,0.0,,,10,1.0,0.0,1.548965,0.0,2.0,2.0,2.0,1.0,megaphone_03s.jpg,lamppost_09s.jpg,,,,,,,
,,,,,,,,,0.0,,,10,0.0,1.0,1.37606,0.0,3.0,3.0,3.0,1.0,footprint_11s.jpg,stump_02s.jpg,,,,,,,
,,,,,,,,,1.0,,,10,1.0,1.0,1.967505,0.0,4.0,4.0,4.0,1.0,jet_15s.jpg,knitting_needle_04s.jpg,,,,,,,
,,,,,,,,,1.0,,,10,1.0,1.0,1.690965,0.0,5.0,5.0,5.0,1.0,air_pump_05s.jpg,timer_03s.jpg,,,,,,,
,,,,,,,,,,,,10,,,,,,,,,,,0.0,0.0,0.0,0.0,1.0,newclockpresent_1_3.xlsx,newclock_compare_task_1_3.xlsx
0.0,1.0,1.39524,0.0,0.0,0.0,0.0,1.0,mirror_12s.jpg,0.0,Blue.png,1.0,10,,,,,,,,,,,,,,,,,
0.0,1.0,1.487575,0.0,1.0,1.0,1.0,1.0,rake_06s.jpg,0.0,Purple.png,1.0,10,,,,,,,,,,,,,,,,,
0.0,1.0,1.28152,0.0,2.0,2.0,2.0,1.0,rhubarb_03s.jpg,0.0,Red.png,1.0,10,,,,,,,,,,,,,,,,,
0.0,0.0,1.477805,0.0,3.0,3.0,3.0,1.0,mirror_12s.jpg,1.0,Orange.png,1.0,10,,,,,,,,,,,,,,,,,
0.0,1.0,1.823535,0.0,4.0,4.0,4.0,1.0,tomato_sauce_09s.jpg,0.0,Yellow.png,1.0,10,,,,,,,,,,,,,,,,,
1.0,1.0,1.377765,0.0,5.0,5.0,5.0,1.0,mirror_12s.jpg,1.0,Green.png,1.0,10,,,,,,,,,,,,,,,,,
0.0,1.0,1.79948,0.0,6.0,6.0,6.0,1.0,medal_04s.jpg,0.0,Blue.png,2.0,10,,,,,,,,,,,,,,,,,
0.0,1.0,1.349285,0.0,7.0,7.0,7.0,1.0,fountain_pen_06s.jpg,0.0,Purple.png,2.0,10,,,,,,,,,,,,,,,,,
0.0,1.0,1.09911,0.0,8.0,8.0,8.0,1.0,rudder_02s.jpg,0.0,Red.png,2.0,10,,,,,,,,,,,,,,,,,
1.0,1.0,1.05456,0.0,9.0,9.0,9.0,1.0,fountain_pen_06s.jpg,1.0,Orange.png,2.0,10,,,,,,,,,,,,,,,,,
1.0,1.0,1.452795,0.0,10.0,10.0,10.0,1.0,medal_04s.jpg,1.0,Yellow.png,2.0,10,,,,,,,,,,,,,,,,,
0.0,1.0,1.049825,0.0,11.0,11.0,11.0,1.0,owl_15s.jpg,0.0,Green.png,2.0,10,,,,,,,,,,,,,,,,,
0.0,1.0,1.22199,0.0,12.0,12.0,12.0,1.0,swan_11s.jpg,0.0,Blue.png,3.0,10,,,,,,,,,,,,,,,,,
0.0,1.0,2.209875,0.0,13.0,13.0,13.0,1.0,penguin_16s.jpg,0.0,Purple.png,3.0,10,,,,,,,,,,,,,,,,,
0.0,1.0,1.11031,0.0,14.0,14.0,14.0,1.0,piano_13n.jpg,0.0,Red.png,3.0,10,,,,,,,,,,,,,,,,,
1.0,1.0,1.105585,0.0,15.0,15.0,15.0,1.0,penguin_16s.jpg,1.0,Orange.png,3.0,10,,,,,,,,,,,,,,,,,
0.0,1.0,0.678125,0.0,16.0,16.0,16.0,1.0,feather02.jpg,0.0,Yellow.png,3.0,10,,,,,,,,,,,,,,,,,
0.0,1.0,0.92299,0.0,17.0,17.0,17.0,1.0,boar_10s.jpg,0.0,Green.png,3.0,10,,,,,,,,,,,,,,,,,
0.0,1.0,1.29786,0.0,18.0,18.0,18.0,1.0,keyboard_05s.jpg,0.0,Blue.png,4.0,10,,,,,,,,,,,,,,,,,
0.0,1.0,1.481075,0.0,19.0,19.0,19.0,1.0,gas_mask_11s.jpg,0.0,Purple.png,4.0,10,,,,,,,,,,,,,,,,,
0.0,1.0,1.27285,0.0,20.0,20.0,20.0,1.0,pocketknife_12s.jpg,0.0,Red.png,4.0,10,,,,,,,,,,,,,,,,,
0.0,0.0,1.69325,0.0,21.0,21.0,21.0,1.0,keyboard_05s.jpg,1.0,Orange.png,4.0,10,,,,,,,,,,,,,,,,,
0.0,1.0,1.37518,0.0,22.0,22.0,22.0,1.0,roulette_wheel_04s.jpg,0.0,Yellow.png,4.0,10,,,,,,,,,,,,,,,,,
1.0,1.0,0.975475,0.0,23.0,23.0,23.0,1.0,roulette_wheel_04s.jpg,1.0,Green.png,4.0,10,,,,,,,,,,,,,,,,,
0.0,1.0,1.22938,0.0,24.0,24.0,24.0,1.0,keyboard_05s.jpg,0.0,Blue.png,5.0,10,,,,,,,,,,,,,,,,,
0.0,1.0,1.75331,0.0,25.0,25.0,25.0,1.0,roulette_wheel_04s.jpg,0.0,Purple.png,5.0,10,,,,,,,,,,,,,,,,,
0.0,1.0,1.07859,0.0,26.0,26.0,26.0,1.0,limousine_12s.jpg,0.0,Red.png,5.0,10,,,,,,,,,,,,,,,,,
0.0,1.0,1.51,0.0,27.0,27.0,27.0,1.0,tape_06s.jpg,0.0,Orange.png,5.0,10,,,,,,,,,,,,,,,,,
0.0,1.0,0.95401,0.0,28.0,28.0,28.0,1.0,quesadilla_07s.jpg,0.0,Yellow.png,5.0,10,,,,,,,,,,,,,,,,,
0.0,1.0,1.12429,0.0,29.0,29.0,29.0,1.0,breadstick_08s.jpg,0.0,Green.png,5.0,10,,,,,,,,,,,,,,,,,
0.0,1.0,1.0782,0.0,30.0,30.0,30.0,1.0,sundae_08s.jpg,0.0,Blue.png,6.0,10,,,,,,,,,,,,,,,,,
0.0,1.0,0.974295,0.0,31.0,31.0,31.0,1.0,sushi_08s.jpg,0.0,Purple.png,6.0,10,,,,,,,,,,,,,,,,,
0.0,1.0,1.05513,0.0,32.0,32.0,32.0,1.0,abacus_12s.jpg,0.0,Red.png,6.0,10,,,,,,,,,,,,,,,,,
0.0,1.0,1.37517,0.0,33.0,33.0,33.0,1.0,peppermint_07s.jpg,0.0,Orange.png,6.0,10,,,,,,,,,,,,,,,,,
0.0,1.0,1.395035,0.0,34.0,34.0,34.0,1.0,marshmallow_08s.jpg,0.0,Yellow.png,6.0,10,,,,,,,,,,,,,,,,,
1.0,1.0,1.090855,0.0,35.0,35.0,35.0,1.0,sundae_08s.jpg,1.0,Green.png,6.0,10,,,,,,,,,,,,,,,,,
,,,,,,,,,1.0,,,10,1.0,1.0,2.50953,0.0,0.0,0.0,0.0,1.0,rudder_02s.jpg,owl_15s.jpg,,,,,,,
,,,,,,,,,1.0,,,10,1.0,1.0,1.778875,0.0,1.0,1.0,1.0,1.0,boar_10s.jpg,pocketknife_12s.jpg,,,,,,,
,,,,,,,,,1.0,,,10,1.0,1.0,2.316305,0.0,2.0,2.0,2.0,1.0,limousine_12s.jpg,breadstick_08s.jpg,,,,,,,
,,,,,,,,,0.0,,,10,0.0,1.0,1.827495,0.0,3.0,3.0,3.0,1.0,sushi_08s.jpg,quesadilla_07s.jpg,,,,,,,
,,,,,,,,,1.0,,,10,1.0,1.0,2.07071,0.0,4.0,4.0,4.0,1.0,feather02.jpg,gas_mask_11s.jpg,,,,,,,
,,,,,,,,,0.0,,,10,1.0,0.0,2.165805,0.0,5.0,5.0,5.0,1.0,tomato_sauce_09s.jpg,rake_06s.jpg,,,,,,,
,,,,,,,,,,,,10,,,,,,,,,,,0.0,1.0,1.0,1.0,1.0,newclockpresent_2_3.xlsx,newclock_compare_task_2_3.xlsx
0.0,1.0,2.10617,0.0,0.0,0.0,0.0,1.0,lip_gloss_06s.jpg,0.0,Blue.png,1.0,10,,,,,,,,,,,,,,,,,
1.0,1.0,1.25825,0.0,1.0,1.0,1.0,1.0,lip_gloss_06s.jpg,1.0,Purple.png,1.0,10,,,,,,,,,,,,,,,,,
0.0,1.0,1.22504,0.0,2.0,2.0,2.0,1.0,memory_stick_11s.jpg,0.0,Red.png,1.0,10,,,,,,,,,,,,,,,,,
0.0,1.0,1.373955,0.0,3.0,3.0,3.0,1.0,torch_02s.jpg,0.0,Orange.png,1.0,10,,,,,,,,,,,,,,,,,
1.0,1.0,0.92767,0.0,4.0,4.0,4.0,1.0,lip_gloss_06s.jpg,1.0,Yellow.png,1.0,10,,,,,,,,,,,,,,,,,
0.0,1.0,1.32691,0.0,5.0,5.0,5.0,1.0,triangle_10s.jpg,0.0,Green.png,1.0,10,,,,,,,,,,,,,,,,,
0.0,1.0,1.13145,0.0,6.0,6.0,6.0,1.0,lip_gloss_06s.jpg,0.0,Blue.png,2.0,10,,,,,,,,,,,,,,,,,
1.0,1.0,1.55122,0.0,7.0,7.0,7.0,1.0,lip_gloss_06s.jpg,1.0,Purple.png,2.0,10,,,,,,,,,,,,,,,,,
0.0,1.0,1.55189,0.0,8.0,8.0,8.0,1.0,prism_10s.jpg,0.0,Red.png,2.0,10,,,,,,,,,,,,,,,,,
0.0,1.0,1.004025,0.0,9.0,9.0,9.0,1.0,soccer_ball_12s.jpg,0.0,Orange.png,2.0,10,,,,,,,,,,,,,,,,,
1.0,1.0,1.363005,0.0,10.0,10.0,10.0,1.0,lip_gloss_06s.jpg,1.0,Yellow.png,2.0,10,,,,,,,,,,,,,,,,,
0.0,1.0,1.19855,0.0,11.0,11.0,11.0,1.0,petri_dish_12s.jpg,0.0,Green.png,2.0,10,,,,,,,,,,,,,,,,,
0.0,1.0,0.99356,0.0,12.0,12.0,12.0,1.0,crystal_ball_12s.jpg,0.0,Blue.png,3.0,10,,,,,,,,,,,,,,,,,
0.0,1.0,0.999155,0.0,13.0,13.0,13.0,1.0,trampoline_13s.jpg,0.0,Purple.png,3.0,10,,,,,,,,,,,,,,,,,
0.0,1.0,1.895955,0.0,14.0,14.0,14.0,1.0,joystick_01b.jpg,0.0,Red.png,3.0,10,,,,,,,,,,,,,,,,,
0.0,0.0,1.42772,0.0,15.0,15.0,15.0,1.0,trampoline_13s.jpg,1.0,Orange.png,3.0,10,,,,,,,,,,,,,,,,,
0.0,1.0,0.84554,0.0,16.0,16.0,16.0,1.0,sparkler_02s.jpg,0.0,Yellow.png,3.0,10,,,,,,,,,,,,,,,,,
0.0,1.0,1.447175,0.0,17.0,17.0,17.0,1.0,kayak_08s.jpg,0.0,Green.png,3.0,10,,,,,,,,,,,,,,,,,
0.0,1.0,1.47878,0.0,18.0,18.0,18.0,1.0,foam_03s.jpg,0.0,Blue.png,4.0,10,,,,,,,,,,,,,,,,,
0.0,1.0,1.161165,0.0,19.0,19.0,19.0,1.0,dirt_bike_11s.jpg,0.0,Purple.png,4.0,10,,,,,,,,,,,,,,,,,
0.0,1.0,1.973635,0.0,20.0,20.0,20.0,1.0,tortilla_06s.jpg,0.0,Red.png,4.0,10,,,,,,,,,,,,,,,,,
1.0,1.0,1.17062,0.0,21.0,21.0,21.0,1.0,dirt_bike_11s.jpg,1.0,Orange.png,4.0,10,,,,,,,,,,,,,,,,,
0.0,1.0,1.219625,0.0,22.0,22.0,22.0,1.0,otter_05s.jpg,0.0,Yellow.png,4.0,10,,,,,,,,,,,,,,,,,
0.0,1.0,1.04461,0.0,23.0,23.0,23.0,1.0,playpen_11s.jpg,0.0,Green.png,4.0,10,,,,,,,,,,,,,,,,,
0.0,1.0,0.895145,0.0,24.0,24.0,24.0,1.0,pear_02s.jpg,0.0,Blue.png,5.0,10,,,,,,,,,,,,,,,,,
0.0,1.0,1.03923,0.0,25.0,25.0,25.0,1.0,omelet_07s.jpg,0.0,Purple.png,5.0,10,,,,,,,,,,,,,,,,,
0.0,1.0,1.12726,0.0,26.0,26.0,26.0,1.0,camcorder_10s.jpg,0.0,Red.png,5.0,10,,,,,,,,,,,,,,,,,
1.0,1.0,1.094415,0.0,27.0,27.0,27.0,1.0,omelet_07s.jpg,1.0,Orange.png,5.0,10,,,,,,,,,,,,,,,,,
0.0,1.0,1.15452,0.0,28.0,28.0,28.0,1.0,possum_09s.jpg,0.0,Yellow.png,5.0,10,,,,,,,,,,,,,,,,,
1.0,1.0,1.050955,0.0,29.0,29.0,29.0,1.0,omelet_07s.jpg,1.0,Green.png,5.0,10,,,,,,,,,,,,,,,,,
0.0,1.0,1.048595,0.0,30.0,30.0,30.0,1.0,plaster_cast_13s.jpg,0.0,Blue.png,6.0,10,,,,,,,,,,,,,,,,,
0.0,1.0,1.689665,0.0,31.0,31.0,31.0,1.0,ram_05s.jpg,0.0,Purple.png,6.0,10,,,,,,,,,,,,,,,,,
0.0,1.0,0.998975,0.0,32.0,32.0,32.0,1.0,plug_08s.jpg,0.0,Red.png,6.0,10,,,,,,,,,,,,,,,,,
1.0,1.0,1.326735,0.0,33.0,33.0,33.0,1.0,plaster_cast_13s.jpg,1.0,Orange.png,6.0,10,,,,,,,,,,,,,,,,,
0.0,1.0,0.950005,0.0,34.0,34.0,34.0,1.0,lavender_10s.jpg,0.0,Yellow.png,6.0,10,,,,,,,,,,,,,,,,,
1.0,1.0,1.3986,0.0,35.0,35.0,35.0,1.0,plug_08s.jpg,1.0,Green.png,6.0,10,,,,,,,,,,,,,,,,,
,,,,,,,,,1.0,,,10,0.0,0.0,2.61735,0.0,0.0,0.0,0.0,1.0,playpen_11s.jpg,camcorder_10s.jpg,,,,,,,
,,,,,,,,,0.0,,,10,1.0,0.0,1.367505,0.0,1.0,1.0,1.0,1.0,kayak_08s.jpg,joystick_01b.jpg,,,,,,,
,,,,,,,,,1.0,,,10,1.0,1.0,1.9905,0.0,2.0,2.0,2.0,1.0,possum_09s.jpg,ram_05s.jpg,,,,,,,
,,,,,,,,,1.0,,,10,0.0,0.0,1.766315,0.0,3.0,3.0,3.0,1.0,soccer_ball_12s.jpg,crystal_ball_12s.jpg,,,,,,,
,,,,,,,,,1.0,,,10,0.0,0.0,1.73766,0.0,4.0,4.0,4.0,1.0,memory_stick_11s.jpg,triangle_10s.jpg,,,,,,,
,,,,,,,,,0.0,,,10,0.0,1.0,1.818205,0.0,5.0,5.0,5.0,1.0,petri_dish_12s.jpg,prism_10s.jpg,,,,,,,
,,,,,,,,,,,,10,,,,,,,,,,,0.0,2.0,2.0,2.0,1.0,newclockpresent_3_3.xlsx,newclock_compare_task_3_3.xlsx
0.0,1.0,1.946825,0.0,0.0,0.0,0.0,1.0,towel_rack_04s.jpg,0.0,Blue.png,1.0,10,,,,,,,,,,,,,,,,,
0.0,1.0,0.83167,0.0,1.0,1.0,1.0,1.0,iron_13s.jpg,0.0,Purple.png,1.0,10,,,,,,,,,,,,,,,,,
1.0,1.0,1.1701,0.0,2.0,2.0,2.0,1.0,iron_13s.jpg,1.0,Red.png,1.0,10,,,,,,,,,,,,,,,,,
0.0,1.0,0.971655,0.0,3.0,3.0,3.0,1.0,icemaker_10s.jpg,0.0,Orange.png,1.0,10,,,,,,,,,,,,,,,,,
0.0,1.0,1.14363,0.0,4.0,4.0,4.0,1.0,teacup_07s.jpg,0.0,Yellow.png,1.0,10,,,,,,,,,,,,,,,,,
1.0,1.0,1.07351,0.0,5.0,5.0,5.0,1.0,iron_13s.jpg,1.0,Green.png,1.0,10,,,,,,,,,,,,,,,,,
0.0,1.0,2.20148,0.0,6.0,6.0,6.0,1.0,teacup_07s.jpg,0.0,Blue.png,2.0,10,,,,,,,,,,,,,,,,,
0.0,1.0,1.81943,0.0,7.0,7.0,7.0,1.0,iron_13s.jpg,0.0,Purple.png,2.0,10,,,,,,,,,,,,,,,,,
0.0,0.0,1.822385,0.0,8.0,8.0,8.0,1.0,teacup_07s.jpg,1.0,Red.png,2.0,10,,,,,,,,,,,,,,,,,
0.0,1.0,1.149495,0.0,9.0,9.0,9.0,1.0,pincushion_10s.jpg,0.0,Orange.png,2.0,10,,,,,,,,,,,,,,,,,
1.0,1.0,1.277335,0.0,10.0,10.0,10.0,1.0,teacup_07s.jpg,1.0,Yellow.png,2.0,10,,,,,,,,,,,,,,,,,
0.0,1.0,1.928495,0.0,11.0,11.0,11.0,1.0,lamb_04s.jpg,0.0,Green.png,2.0,10,,,,,,,,,,,,,,,,,
0.0,1.0,1.621315,0.0,12.0,12.0,12.0,1.0,blowfish_03s.jpg,0.0,Blue.png,3.0,10,,,,,,,,,,,,,,,,,
0.0,1.0,1.1726,0.0,13.0,13.0,13.0,1.0,gear_07s.jpg,0.0,Purple.png,3.0,10,,,,,,,,,,,,,,,,,
0.0,1.0,0.807525,0.0,14.0,14.0,14.0,1.0,rug_09s.jpg,0.0,Red.png,3.0,10,,,,,,,,,,,,,,,,,
1.0,1.0,1.24056,0.0,15.0,15.0,15.0,1.0,gear_07s.jpg,1.0,Orange.png,3.0,10,,,,,,,,,,,,,,,,,
0.0,1.0,0.875405,0.0,16.0,16.0,16.0,1.0,binder_21s.jpg,0.0,Yellow.png,3.0,10,,,,,,,,,,,,,,,,,
0.0,1.0,1.222255,0.0,17.0,17.0,17.0,1.0,bacon_05s.jpg,0.0,Green.png,3.0,10,,,,,,,,,,,,,,,,,
0.0,1.0,1.620445,0.0,18.0,18.0,18.0,1.0,rocking_horse_03s.jpg,0.0,Blue.png,4.0,10,,,,,,,,,,,,,,,,,
0.0,1.0,2.06387,0.0,19.0,19.0,19.0,1.0,bacon_05s.jpg,0.0,Purple.png,4.0,10,,,,,,,,,,,,,,,,,
0.0,1.0,2.05234,0.0,20.0,20.0,20.0,1.0,perfume_06s.jpg,0.0,Red.png,4.0,10,,,,,,,,,,,,,,,,,
0.0,1.0,1.470795,0.0,21.0,21.0,21.0,1.0,raccoon_02s.jpg,0.0,Orange.png,4.0,10,,,,,,,,,,,,,,,,,
0.0,1.0,0.91933,0.0,22.0,22.0,22.0,1.0,mixer_12s.jpg,0.0,Yellow.png,4.0,10,,,,,,,,,,,,,,,,,
0.0,1.0,1.37577,0.0,23.0,23.0,23.0,1.0,slingshot_07s.jpg,0.0,Green.png,4.0,10,,,,,,,,,,,,,,,,,
0.0,1.0,1.150775,0.0,24.0,24.0,24.0,1.0,smokingpipe.jpg,0.0,Blue.png,5.0,10,,,,,,,,,,,,,,,,,
0.0,1.0,1.245115,0.0,25.0,25.0,25.0,1.0,film_03s.jpg,0.0,Purple.png,5.0,10,,,,,,,,,,,,,,,,,
1.0,1.0,1.12613,0.0,26.0,26.0,26.0,1.0,film_03s.jpg,1.0,Red.png,5.0,10,,,,,,,,,,,,,,,,,
1.0,1.0,1.513885,0.0,27.0,27.0,27.0,1.0,film_03s.jpg,1.0,Orange.png,5.0,10,,,,,,,,,,,,,,,,,
1.0,1.0,1.460555,0.0,28.0,28.0,28.0,1.0,film_03s.jpg,1.0,Yellow.png,5.0,10,,,,,,,,,,,,,,,,,
0.0,1.0,1.648575,0.0,29.0,29.0,29.0,1.0,insole_11s.jpg,0.0,Green.png,5.0,10,,,,,,,,,,,,,,,,,
0.0,1.0,1.69844,0.0,30.0,30.0,30.0,1.0,soda_fountain_03s.jpg,0.0,Blue.png,6.0,10,,,,,,,,,,,,,,,,,
1.0,1.0,1.82582,0.0,31.0,31.0,31.0,1.0,soda_fountain_03s.jpg,1.0,Purple.png,6.0,10,,,,,,,,,,,,,,,,,
0.0,1.0,1.150325,0.0,32.0,32.0,32.0,1.0,coconut_08s.jpg,0.0,Red.png,6.0,10,,,,,,,,,,,,,,,,,
0.0,1.0,1.196225,0.0,33.0,33.0,33.0,1.0,hydrant_10s.jpg,0.0,Orange.png,6.0,10,,,,,,,,,,,,,,,,,
1.0,1.0,1.62704,0.0,34.0,34.0,34.0,1.0,hydrant_10s.jpg,1.0,Yellow.png,6.0,10,,,,,,,,,,,,,,,,,
1.0,1.0,1.310025,0.0,35.0,35.0,35.0,1.0,hydrant_10s.jpg,1.0,Green.png,6.0,10,,,,,,,,,,,,,,,,,
,,,,,,,,,0.0,,,10,1.0,0.0,2.08169,0.0,0.0,0.0,0.0,1.0,slingshot_07s.jpg,perfume_06s.jpg,,,,,,,
,,,,,,,,,0.0,,,10,1.0,0.0,1.66865,0.0,1.0,1.0,1.0,1.0,blowfish_03s.jpg,pincushion_10s.jpg,,,,,,,
,,,,,,,,,0.0,,,10,1.0,0.0,2.295625,0.0,2.0,2.0,2.0,1.0,rug_09s.jpg,lamb_04s.jpg,,,,,,,
,,,,,,,,,1.0,,,10,1.0,1.0,2.564865,0.0,3.0,3.0,3.0,1.0,insole_11s.jpg,coconut_08s.jpg,,,,,,,
,,,,,,,,,0.0,,,10,1.0,0.0,1.639135,0.0,4.0,4.0,4.0,1.0,icemaker_10s.jpg,towel_rack_04s.jpg,,,,,,,
,,,,,,,,,0.0,,,10,0.0,1.0,1.98881,0.0,5.0,5.0,5.0,1.0,raccoon_02s.jpg,rocking_horse_03s.jpg,,,,,,,
,,,,,,,,,,,,10,,,,,,,,,,,0.0,3.0,3.0,3.0,1.0,newclockpresent_4_3.xlsx,newclock_compare_task_4_3.xlsx
0.0,1.0,1.455375,0.0,0.0,0.0,0.0,1.0,birthday_cake_09s.jpg,0.0,Blue.png,1.0,10,,,,,,,,,,,,,,,,,
,0.0,,0.0,1.0,1.0,1.0,1.0,laser_pointer_02s.jpg,0.0,Purple.png,1.0,10,,,,,,,,,,,,,,,,,
0.0,1.0,1.21232,0.0,2.0,2.0,2.0,1.0,amber_04s.jpg,0.0,Red.png,1.0,10,,,,,,,,,,,,,,,,,
1.0,1.0,1.00427,0.0,3.0,3.0,3.0,1.0,amber_04s.jpg,1.0,Orange.png,1.0,10,,,,,,,,,,,,,,,,,
1.0,1.0,0.968645,0.0,4.0,4.0,4.0,1.0,amber_04s.jpg,1.0,Yellow.png,1.0,10,,,,,,,,,,,,,,,,,
1.0,1.0,0.89336,0.0,5.0,5.0,5.0,1.0,amber_04s.jpg,1.0,Green.png,1.0,10,,,,,,,,,,,,,,,,,
0.0,1.0,0.975835,0.0,6.0,6.0,6.0,1.0,mask_09s.jpg,0.0,Blue.png,2.0,10,,,,,,,,,,,,,,,,,
1.0,1.0,1.1695,0.0,7.0,7.0,7.0,1.0,mask_09s.jpg,1.0,Purple.png,2.0,10,,,,,,,,,,,,,,,,,
0.0,1.0,1.869285,0.0,8.0,8.0,8.0,1.0,amber_04s.jpg,0.0,Red.png,2.0,10,,,,,,,,,,,,,,,,,
1.0,0.0,1.05911,0.0,9.0,9.0,9.0,1.0,swordfish_05s.jpg,0.0,Orange.png,2.0,10,,,,,,,,,,,,,,,,,
0.0,1.0,1.02179,0.0,10.0,10.0,10.0,1.0,beard_16s.jpg,0.0,Yellow.png,2.0,10,,,,,,,,,,,,,,,,,
1.0,1.0,1.1743,0.0,11.0,11.0,11.0,1.0,swordfish_05s.jpg,1.0,Green.png,2.0,10,,,,,,,,,,,,,,,,,
0.0,1.0,2.19182,0.0,12.0,12.0,12.0,1.0,amber_04s.jpg,0.0,Blue.png,3.0,10,,,,,,,,,,,,,,,,,
0.0,1.0,2.12723,0.0,13.0,13.0,13.0,1.0,rope_16s.jpg,0.0,Purple.png,3.0,10,,,,,,,,,,,,,,,,,
0.0,1.0,0.805725,0.0,14.0,14.0,14.0,1.0,swing_set_15s.jpg,0.0,Red.png,3.0,10,,,,,,,,,,,,,,,,,
0.0,1.0,1.47399,0.0,15.0,15.0,15.0,1.0,totem_pole_05s.jpg,0.0,Orange.png,3.0,10,,,,,,,,,,,,,,,,,
0.0,1.0,1.8181,0.0,16.0,16.0,16.0,1.0,beaker_01b.jpg,0.0,Yellow.png,3.0,10,,,,,,,,,,,,,,,,,
0.0,1.0,1.38772,0.0,17.0,17.0,17.0,1.0,ostrich_06s.jpg,0.0,Green.png,3.0,10,,,,,,,,,,,,,,,,,
0.0,1.0,1.402305,0.0,18.0,18.0,18.0,1.0,ostrich_06s.jpg,0.0,Blue.png,4.0,10,,,,,,,,,,,,,,,,,
0.0,1.0,2.080225,0.0,19.0,19.0,19.0,1.0,syringe_02s.jpg,0.0,Purple.png,4.0,10,,,,,,,,,,,,,,,,,
0.0,1.0,0.706905,0.0,20.0,20.0,20.0,1.0,mold2_04s.jpg,0.0,Red.png,4.0,10,,,,,,,,,,,,,,,,,
0.0,0.0,1.636465,0.0,21.0,21.0,21.0,1.0,ostrich_06s.jpg,1.0,Orange.png,4.0,10,,,,,,,,,,,,,,,,,
0.0,1.0,1.12401,0.0,22.0,22.0,22.0,1.0,mousetrap_15n.jpg,0.0,Yellow.png,4.0,10,,,,,,,,,,,,,,,,,
0.0,1.0,1.857915,0.0,23.0,23.0,23.0,1.0,paper_towel_03s.jpg,0.0,Green.png,4.0,10,,,,,,,,,,,,,,,,,
0.0,1.0,1.133785,0.0,24.0,24.0,24.0,1.0,swordfish_05s.jpg,0.0,Blue.png,5.0,10,,,,,,,,,,,,,,,,,
0.0,1.0,1.77845,0.0,25.0,25.0,25.0,1.0,pump_11s.jpg,0.0,Purple.png,5.0,10,,,,,,,,,,,,,,,,,
0.0,0.0,1.8035,0.0,26.0,26.0,26.0,1.0,swordfish_05s.jpg,1.0,Red.png,5.0,10,,,,,,,,,,,,,,,,,
1.0,1.0,1.053305,0.0,27.0,27.0,27.0,1.0,swordfish_05s.jpg,1.0,Orange.png,5.0,10,,,,,,,,,,,,,,,,,
,0.0,,0.0,28.0,28.0,28.0,1.0,pump_11s.jpg,1.0,Yellow.png,5.0,10,,,,,,,,,,,,,,,,,
0.0,1.0,1.239945,0.0,29.0,29.0,29.0,1.0,pepper2_21s.jpg,0.0,Green.png,5.0,10,,,,,,,,,,,,,,,,,
0.0,1.0,0.94552,0.0,30.0,30.0,30.0,1.0,champagne_18s.jpg,0.0,Blue.png,6.0,10,,,,,,,,,,,,,,,,,
0.0,1.0,1.29322,0.0,31.0,31.0,31.0,1.0,piggy_bank_02s.jpg,0.0,Purple.png,6.0,10,,,,,,,,,,,,,,,,,
0.0,1.0,0.850975,0.0,32.0,32.0,32.0,1.0,fondue_07s.jpg,0.0,Red.png,6.0,10,,,,,,,,,,,,,,,,,
0.0,1.0,1.1258,0.0,33.0,33.0,33.0,1.0,metronome_03s.jpg,0.0,Orange.png,6.0,10,,,,,,,,,,,,,,,,,
0.0,1.0,1.055735,0.0,34.0,34.0,34.0,1.0,butter_14s.jpg,0.0,Yellow.png,6.0,10,,,,,,,,,,,,,,,,,
0.0,1.0,1.1723,0.0,35.0,35.0,35.0,1.0,submarine_11n.jpg,0.0,Green.png,6.0,10,,,,,,,,,,,,,,,,,
,,,,,,,,,1.0,,,10,1.0,1.0,1.449815,0.0,0.0,0.0,0.0,1.0,beard_16s.jpg,rope_16s.jpg,,,,,,,
,,,,,,,,,0.0,,,10,1.0,0.0,2.227255,0.0,1.0,1.0,1.0,1.0,fondue_07s.jpg,pepper2_21s.jpg,,,,,,,
,,,,,,,,,0.0,,,10,1.0,0.0,2.16865,0.0,2.0,2.0,2.0,1.0,metronome_03s.jpg,champagne_18s.jpg,,,,,,,
,,,,,,,,,1.0,,,10,0.0,0.0,1.89269,0.0,3.0,3.0,3.0,1.0,beaker_01b.jpg,syringe_02s.jpg,,,,,,,
,,,,,,,,,1.0,,,10,0.0,0.0,2.19157,0.0,4.0,4.0,4.0,1.0,mold2_04s.jpg,paper_towel_03s.jpg,,,,,,,
,,,,,,,,,0.0,,,10,0.0,1.0,1.94152,0.0,5.0,5.0,5.0,1.0,butter_14s.jpg,piggy_bank_02s.jpg,,,,,,,
,,,,,,,,,,,,10,,,,,,,,,,,0.0,4.0,4.0,4.0,1.0,newclockpresent_5_3.xlsx,newclock_compare_task_5_3.xlsx
0.0,1.0,1.550865,0.0,0.0,0.0,0.0,1.0,teabag_12s.jpg,0.0,Blue.png,1.0,10,,,,,,,,,,,,,,,,,
0.0,0.0,1.90651,0.0,1.0,1.0,1.0,1.0,teabag_12s.jpg,1.0,Purple.png,1.0,10,,,,,,,,,,,,,,,,,
0.0,1.0,1.157655,0.0,2.0,2.0,2.0,1.0,cereal_04s.jpg,0.0,Red.png,1.0,10,,,,,,,,,,,,,,,,,
0.0,1.0,0.824955,0.0,3.0,3.0,3.0,1.0,pocket_watch_16s.jpg,0.0,Orange.png,1.0,10,,,,,,,,,,,,,,,,,
0.0,1.0,1.298385,0.0,4.0,4.0,4.0,1.0,cucumber_07s.jpg,0.0,Yellow.png,1.0,10,,,,,,,,,,,,,,,,,
0.0,0.0,0.85884,0.0,5.0,5.0,5.0,1.0,teabag_12s.jpg,1.0,Green.png,1.0,10,,,,,,,,,,,,,,,,,
0.0,1.0,1.04905,0.0,6.0,6.0,6.0,1.0,recliner_02s.jpg,0.0,Blue.png,2.0,10,,,,,,,,,,,,,,,,,
0.0,1.0,0.790455,0.0,7.0,7.0,7.0,1.0,tupperware_09s.jpg,0.0,Purple.png,2.0,10,,,,,,,,,,,,,,,,,
0.0,1.0,1.16897,0.0,8.0,8.0,8.0,1.0,ticktacktoe_08s.jpg,0.0,Red.png,2.0,10,,,,,,,,,,,,,,,,,
0.0,1.0,0.852115,0.0,9.0,9.0,9.0,1.0,peach_04s.jpg,0.0,Orange.png,2.0,10,,,,,,,,,,,,,,,,,
0.0,1.0,1.18097,0.0,10.0,10.0,10.0,1.0,taxi_15s.jpg,0.0,Yellow.png,2.0,10,,,,,,,,,,,,,,,,,
1.0,1.0,1.05663,0.0,11.0,11.0,11.0,1.0,peach_04s.jpg,1.0,Green.png,2.0,10,,,,,,,,,,,,,,,,,
0.0,1.0,0.880915,0.0,12.0,12.0,12.0,1.0,letter_opener_03s.jpg,0.0,Blue.png,3.0,10,,,,,,,,,,,,,,,,,
1.0,1.0,1.760675,0.0,13.0,13.0,13.0,1.0,letter_opener_03s.jpg,1.0,Purple.png,3.0,10,,,,,,,,,,,,,,,,,
1.0,1.0,1.17562,0.0,14.0,14.0,14.0,1.0,letter_opener_03s.jpg,1.0,Red.png,3.0,10,,,,,,,,,,,,,,,,,
0.0,1.0,1.31366,0.0,15.0,15.0,15.0,1.0,latte_06s.jpg,0.0,Orange.png,3.0,10,,,,,,,,,,,,,,,,,
0.0,0.0,2.2939,0.0,16.0,16.0,16.0,1.0,letter_opener_03s.jpg,1.0,Yellow.png,3.0,10,,,,,,,,,,,,,,,,,
0.0,1.0,1.02449,0.0,17.0,17.0,17.0,1.0,icicle_04s.jpg,0.0,Green.png,3.0,10,,,,,,,,,,,,,,,,,
0.0,1.0,0.9213,0.0,18.0,18.0,18.0,1.0,taxi_15s.jpg,0.0,Blue.png,4.0,10,,,,,,,,,,,,,,,,,
0.0,1.0,1.543855,0.0,19.0,19.0,19.0,1.0,chopsticks_08s.jpg,0.0,Purple.png,4.0,10,,,,,,,,,,,,,,,,,
0.0,1.0,1.502135,0.0,20.0,20.0,20.0,1.0,doily_13s.jpg,0.0,Red.png,4.0,10,,,,,,,,,,,,,,,,,
0.0,1.0,1.33858,0.0,21.0,21.0,21.0,1.0,pretzel_09s.jpg,0.0,Orange.png,4.0,10,,,,,,,,,,,,,,,,,
0.0,1.0,1.45026,0.0,22.0,22.0,22.0,1.0,tie_03s.jpg,0.0,Yellow.png,4.0,10,,,,,,,,,,,,,,,,,
0.0,1.0,1.172025,0.0,23.0,23.0,23.0,1.0,pepper_mill_03s.jpg,0.0,Green.png,4.0,10,,,,,,,,,,,,,,,,,
0.0,1.0,0.94578,0.0,24.0,24.0,24.0,1.0,bee_20s.jpg,0.0,Blue.png,5.0,10,,,,,,,,,,,,,,,,,
0.0,1.0,1.226265,0.0,25.0,25.0,25.0,1.0,pepper_mill_03s.jpg,0.0,Purple.png,5.0,10,,,,,,,,,,,,,,,,,
0.0,0.0,2.36169,0.0,26.0,26.0,26.0,1.0,bee_20s.jpg,1.0,Red.png,5.0,10,,,,,,,,,,,,,,,,,
0.0,1.0,1.07289,0.0,27.0,27.0,27.0,1.0,tinsel_12s.jpg,0.0,Orange.png,5.0,10,,,,,,,,,,,,,,,,,
0.0,1.0,1.0721,0.0,28.0,28.0,28.0,1.0,fireworks_18s.jpg,0.0,Yellow.png,5.0,10,,,,,,,,,,,,,,,,,
0.0,1.0,0.770495,0.0,29.0,29.0,29.0,1.0,key_07s.jpg,0.0,Green.png,5.0,10,,,,,,,,,,,,,,,,,
0.0,1.0,0.77611,0.0,30.0,30.0,30.0,1.0,frog_09s.jpg,0.0,Blue.png,6.0,10,,,,,,,,,,,,,,,,,
0.0,1.0,1.39737,0.0,31.0,31.0,31.0,1.0,key_07s.jpg,0.0,Purple.png,6.0,10,,,,,,,,,,,,,,,,,
0.0,1.0,1.84504,0.0,32.0,32.0,32.0,1.0,rolling_pin_02s.jpg,0.0,Red.png,6.0,10,,,,,,,,,,,,,,,,,
0.0,1.0,1.020925,0.0,33.0,33.0,33.0,1.0,coral_08s.jpg,0.0,Orange.png,6.0,10,,,,,,,,,,,,,,,,,
1.0,1.0,1.422815,0.0,34.0,34.0,34.0,1.0,key_07s.jpg,1.0,Yellow.png,6.0,10,,,,,,,,,,,,,,,,,
0.0,1.0,0.97681,0.0,35.0,35.0,35.0,1.0,margarita_03s.jpg,0.0,Green.png,6.0,10,,,,,,,,,,,,,,,,,
,,,,,,,,,0.0,,,10,0.0,1.0,1.598145,0.0,0.0,0.0,0.0,1.0,recliner_02s.jpg,pocket_watch_16s.jpg,,,,,,,
,,,,,,,,,0.0,,,10,0.0,1.0,1.521285,0.0,1.0,1.0,1.0,1.0,tie_03s.jpg,chopsticks_08s.jpg,,,,,,,
,,,,,,,,,1.0,,,10,1.0,1.0,1.61127,0.0,2.0,2.0,2.0,1.0,icicle_04s.jpg,doily_13s.jpg,,,,,,,
,,,,,,,,,1.0,,,10,1.0,1.0,1.717415,0.0,3.0,3.0,3.0,1.0,rolling_pin_02s.jpg,margarita_03s.jpg,,,,,,,
,,,,,,,,,1.0,,,10,1.0,1.0,1.93884,0.0,4.0,4.0,4.0,1.0,cucumber_07s.jpg,tupperware_09s.jpg,,,,,,,
,,,,,,,,,0.0,,,10,1.0,0.0,2.06559,0.0,5.0,5.0,5.0,1.0,coral_08s.jpg,frog_09s.jpg,,,,,,,
,,,,,,,,,,,,10,,,,,,,,,,,0.0,5.0,5.0,5.0,1.0,newclockpresent_6_3.xlsx,newclock_compare_task_6_3.xlsx
0.0,1.0,0.86946,0.0,0.0,0.0,0.0,1.0,polar_bear_02s.jpg,0.0,Blue.png,1.0,10,,,,,,,,,,,,,,,,,
0.0,1.0,1.636035,0.0,1.0,1.0,1.0,1.0,screwdriver02a.jpg,0.0,Purple.png,1.0,10,,,,,,,,,,,,,,,,,
0.0,0.0,1.05019,0.0,2.0,2.0,2.0,1.0,screwdriver02a.jpg,1.0,Red.png,1.0,10,,,,,,,,,,,,,,,,,
0.0,1.0,0.941535,0.0,3.0,3.0,3.0,1.0,phone_01b.jpg,0.0,Orange.png,1.0,10,,,,,,,,,,,,,,,,,
0.0,1.0,1.870495,0.0,4.0,4.0,4.0,1.0,eyedropper_12s.jpg,0.0,Yellow.png,1.0,10,,,,,,,,,,,,,,,,,
0.0,1.0,1.39982,0.0,5.0,5.0,5.0,1.0,mailbox_11s.jpg,0.0,Green.png,1.0,10,,,,,,,,,,,,,,,,,
0.0,1.0,0.927475,0.0,6.0,6.0,6.0,1.0,mascara_03s.jpg,0.0,Blue.png,2.0,10,,,,,,,,,,,,,,,,,
1.0,0.0,1.50977,0.0,7.0,7.0,7.0,1.0,mailbox_11s.jpg,0.0,Purple.png,2.0,10,,,,,,,,,,,,,,,,,
0.0,1.0,1.729745,0.0,8.0,8.0,8.0,1.0,eiffeltower.jpg,0.0,Red.png,2.0,10,,,,,,,,,,,,,,,,,
0.0,1.0,1.847135,0.0,9.0,9.0,9.0,1.0,bagel_15s.jpg,0.0,Orange.png,2.0,10,,,,,,,,,,,,,,,,,
0.0,1.0,1.089295,0.0,10.0,10.0,10.0,1.0,thumbtack_14s.jpg,0.0,Yellow.png,2.0,10,,,,,,,,,,,,,,,,,
0.0,1.0,1.042805,0.0,11.0,11.0,11.0,1.0,checkbook_11s.jpg,0.0,Green.png,2.0,10,,,,,,,,,,,,,,,,,
0.0,1.0,1.024555,0.0,12.0,12.0,12.0,1.0,phone_01b.jpg,0.0,Blue.png,3.0,10,,,,,,,,,,,,,,,,,
0.0,1.0,1.389115,0.0,13.0,13.0,13.0,1.0,crossbow_10s.jpg,0.0,Purple.png,3.0,10,,,,,,,,,,,,,,,,,
0.0,1.0,0.829115,0.0,14.0,14.0,14.0,1.0,fire_pit_10s.jpg,0.0,Red.png,3.0,10,,,,,,,,,,,,,,,,,
1.0,1.0,2.177905,0.0,15.0,15.0,15.0,1.0,phone_01b.jpg,1.0,Orange.png,3.0,10,,,,,,,,,,,,,,,,,
0.0,1.0,0.99497,0.0,16.0,16.0,16.0,1.0,basket_05s.jpg,0.0,Yellow.png,3.0,10,,,,,,,,,,,,,,,,,
0.0,1.0,0.942855,0.0,17.0,17.0,17.0,1.0,tablet_04s.jpg,0.0,Green.png,3.0,10,,,,,,,,,,,,,,,,,
0.0,1.0,1.084005,0.0,18.0,18.0,18.0,1.0,eyedropper_12s.jpg,0.0,Blue.png,4.0,10,,,,,,,,,,,,,,,,,
0.0,1.0,0.882655,0.0,19.0,19.0,19.0,1.0,milk_02s.jpg,0.0,Purple.png,4.0,10,,,,,,,,,,,,,,,,,
0.0,1.0,0.91725,0.0,20.0,20.0,20.0,1.0,pomegranate_04s.jpg,0.0,Red.png,4.0,10,,,,,,,,,,,,,,,,,
0.0,1.0,1.64875,0.0,21.0,21.0,21.0,1.0,mug_06s.jpg,0.0,Orange.png,4.0,10,,,,,,,,,,,,,,,,,
1.0,1.0,1.321655,0.0,22.0,22.0,22.0,1.0,eyedropper_12s.jpg,1.0,Yellow.png,4.0,10,,,,,,,,,,,,,,,,,
0.0,1.0,1.57072,0.0,23.0,23.0,23.0,1.0,laundry_basket_11s.jpg,0.0,Green.png,4.0,10,,,,,,,,,,,,,,,,,
0.0,1.0,1.221215,0.0,24.0,24.0,24.0,1.0,eyedropper_12s.jpg,0.0,Blue.png,5.0,10,,,,,,,,,,,,,,,,,
1.0,0.0,1.179105,0.0,25.0,25.0,25.0,1.0,laundry_basket_11s.jpg,0.0,Purple.png,5.0,10,,,,,,,,,,,,,,,,,
0.0,1.0,1.275385,0.0,26.0,26.0,26.0,1.0,magnet_03s.jpg,0.0,Red.png,5.0,10,,,,,,,,,,,,,,,,,
1.0,1.0,1.228085,0.0,27.0,27.0,27.0,1.0,laundry_basket_11s.jpg,1.0,Orange.png,5.0,10,,,,,,,,,,,,,,,,,
1.0,1.0,1.09913,0.0,28.0,28.0,28.0,1.0,laundry_basket_11s.jpg,1.0,Yellow.png,5.0,10,,,,,,,,,,,,,,,,,
0.0,1.0,0.92,0.0,29.0,29.0,29.0,1.0,tambourine_06s.jpg,0.0,Green.png,5.0,10,,,,,,,,,,,,,,,,,
0.0,1.0,0.831255,0.0,30.0,30.0,30.0,1.0,lab_coat_11s.jpg,0.0,Blue.png,6.0,10,,,,,,,,,,,,,,,,,
1.0,1.0,1.09781,0.0,31.0,31.0,31.0,1.0,lab_coat_11s.jpg,1.0,Purple.png,6.0,10,,,,,,,,,,,,,,,,,
1.0,1.0,0.984955,0.0,32.0,32.0,32.0,1.0,lab_coat_11s.jpg,1.0,Red.png,6.0,10,,,,,,,,,,,,,,,,,
1.0,1.0,1.124295,0.0,33.0,33.0,33.0,1.0,lab_coat_11s.jpg,1.0,Orange.png,6.0,10,,,,,,,,,,,,,,,,,
0.0,1.0,0.77967,0.0,34.0,34.0,34.0,1.0,cap_05s.jpg,0.0,Yellow.png,6.0,10,,,,,,,,,,,,,,,,,
0.0,1.0,1.122495,0.0,35.0,35.0,35.0,1.0,puck_06s.jpg,0.0,Green.png,6.0,10,,,,,,,,,,,,,,,,,
,,,,,,,,,1.0,,,10,1.0,1.0,1.729835,0.0,0.0,0.0,0.0,1.0,mascara_03s.jpg,bagel_15s.jpg,,,,,,,
,,,,,,,,,0.0,,,10,0.0,1.0,2.18266,0.0,1.0,1.0,1.0,1.0,checkbook_11s.jpg,eiffeltower.jpg,,,,,,,
,,,,,,,,,1.0,,,10,1.0,1.0,1.47124,0.0,2.0,2.0,2.0,1.0,thumbtack_14s.jpg,crossbow_10s.jpg,,,,,,,
,,,,,,,,,0.0,,,10,0.0,1.0,1.89076,0.0,3.0,3.0,3.0,1.0,milk_02s.jpg,basket_05s.jpg,,,,,,,
,,,,,,,,,1.0,,,10,0.0,0.0,1.775645,0.0,4.0,4.0,4.0,1.0,tablet_04s.jpg,pomegranate_04s.jpg,,,,,,,
,,,,,,,,,0.0,,,10,0.0,1.0,1.49404,0.0,5.0,5.0,5.0,1.0,tambourine_06s.jpg,magnet_03s.jpg,,,,,,,
,,,,,,,,,,,,10,,,,,,,,,,,0.0,6.0,6.0,6.0,1.0,newclockpresent_7_3.xlsx,newclock_compare_task_7_3.xlsx
0.0,1.0,1.172465,0.0,0.0,0.0,0.0,1.0,projector_08s.jpg,0.0,Blue.png,1.0,10,,,,,,,,,,,,,,,,,
1.0,1.0,0.933595,0.0,1.0,1.0,1.0,1.0,projector_08s.jpg,1.0,Purple.png,1.0,10,,,,,,,,,,,,,,,,,
1.0,1.0,0.978945,0.0,2.0,2.0,2.0,1.0,projector_08s.jpg,1.0,Red.png,1.0,10,,,,,,,,,,,,,,,,,
0.0,1.0,1.57949,0.0,3.0,3.0,3.0,1.0,pumpkin_03s.jpg,0.0,Orange.png,1.0,10,,,,,,,,,,,,,,,,,
0.0,1.0,1.325075,0.0,4.0,4.0,4.0,1.0,orangutan_03s.jpg,0.0,Yellow.png,1.0,10,,,,,,,,,,,,,,,,,
1.0,1.0,1.115385,0.0,5.0,5.0,5.0,1.0,projector_08s.jpg,1.0,Green.png,1.0,10,,,,,,,,,,,,,,,,,
0.0,1.0,0.850875,0.0,6.0,6.0,6.0,1.0,rollerskate_03s.jpg,0.0,Blue.png,2.0,10,,,,,,,,,,,,,,,,,
0.0,1.0,1.625915,0.0,7.0,7.0,7.0,1.0,projector_08s.jpg,0.0,Purple.png,2.0,10,,,,,,,,,,,,,,,,,
0.0,1.0,1.47786,0.0,8.0,8.0,8.0,1.0,racehorse_03s.jpg,0.0,Red.png,2.0,10,,,,,,,,,,,,,,,,,
1.0,1.0,1.777035,0.0,9.0,9.0,9.0,1.0,projector_08s.jpg,1.0,Orange.png,2.0,10,,,,,,,,,,,,,,,,,
0.0,1.0,1.6343,0.0,10.0,10.0,10.0,1.0,toy_04s.jpg,0.0,Yellow.png,2.0,10,,,,,,,,,,,,,,,,,
1.0,1.0,1.150625,0.0,11.0,11.0,11.0,1.0,projector_08s.jpg,1.0,Green.png,2.0,10,,,,,,,,,,,,,,,,,
0.0,1.0,0.97426,0.0,12.0,12.0,12.0,1.0,toy_04s.jpg,0.0,Blue.png,3.0,10,,,,,,,,,,,,,,,,,
1.0,1.0,1.051675,0.0,13.0,13.0,13.0,1.0,toy_04s.jpg,1.0,Purple.png,3.0,10,,,,,,,,,,,,,,,,,
0.0,1.0,0.79762,0.0,14.0,14.0,14.0,1.0,loveseat_08s.jpg,0.0,Red.png,3.0,10,,,,,,,,,,,,,,,,,
1.0,1.0,1.06565,0.0,15.0,15.0,15.0,1.0,toy_04s.jpg,1.0,Orange.png,3.0,10,,,,,,,,,,,,,,,,,
1.0,1.0,1.476425,0.0,16.0,16.0,16.0,1.0,toy_04s.jpg,1.0,Yellow.png,3.0,10,,,,,,,,,,,,,,,,,
0.0,1.0,1.045255,0.0,17.0,17.0,17.0,1.0,muffin_12n.jpg,0.0,Green.png,3.0,10,,,,,,,,,,,,,,,,,
0.0,1.0,0.79508,0.0,18.0,18.0,18.0,1.0,oil_02s.jpg,0.0,Blue.png,4.0,10,,,,,,,,,,,,,,,,,
0.0,1.0,0.79855,0.0,19.0,19.0,19.0,1.0,ring_03s.jpg,0.0,Purple.png,4.0,10,,,,,,,,,,,,,,,,,
1.0,1.0,1.048105,0.0,20.0,20.0,20.0,1.0,ring_03s.jpg,1.0,Red.png,4.0,10,,,,,,,,,,,,,,,,,
0.0,1.0,1.319335,0.0,21.0,21.0,21.0,1.0,harpoon.jpg,0.0,Orange.png,4.0,10,,,,,,,,,,,,,,,,,
0.0,1.0,0.77041,0.0,22.0,22.0,22.0,1.0,swimming_pool_17s.jpg,0.0,Yellow.png,4.0,10,,,,,,,,,,,,,,,,,
0.0,1.0,1.07041,0.0,23.0,23.0,23.0,1.0,ironing_board_07s.jpg,0.0,Green.png,4.0,10,,,,,,,,,,,,,,,,,
0.0,1.0,0.89558,0.0,24.0,24.0,24.0,1.0,projector_08s.jpg,0.0,Blue.png,5.0,10,,,,,,,,,,,,,,,,,
0.0,1.0,1.85095,0.0,25.0,25.0,25.0,1.0,rabbit_03s.jpg,0.0,Purple.png,5.0,10,,,,,,,,,,,,,,,,,
0.0,1.0,1.648755,0.0,26.0,26.0,26.0,1.0,spacesuit_02s.jpg,0.0,Red.png,5.0,10,,,,,,,,,,,,,,,,,
0.0,1.0,1.449325,0.0,27.0,27.0,27.0,1.0,toy_04s.jpg,0.0,Orange.png,5.0,10,,,,,,,,,,,,,,,,,
0.0,1.0,0.911945,0.0,28.0,28.0,28.0,1.0,mannequin_05s.jpg,0.0,Yellow.png,5.0,10,,,,,,,,,,,,,,,,,
1.0,1.0,1.012775,0.0,29.0,29.0,29.0,1.0,toy_04s.jpg,1.0,Green.png,5.0,10,,,,,,,,,,,,,,,,,
0.0,1.0,0.773065,0.0,30.0,30.0,30.0,1.0,dashboard_02s.jpg,0.0,Blue.png,6.0,10,,,,,,,,,,,,,,,,,
0.0,1.0,1.500955,0.0,31.0,31.0,31.0,1.0,exhaust_pipe_10s.jpg,0.0,Purple.png,6.0,10,,,,,,,,,,,,,,,,,
0.0,1.0,0.698195,0.0,32.0,32.0,32.0,1.0,telephone_pole_05s.jpg,0.0,Red.png,6.0,10,,,,,,,,,,,,,,,,,
0.0,1.0,1.35195,0.0,33.0,33.0,33.0,1.0,orangutan_03s.jpg,0.0,Orange.png,6.0,10,,,,,,,,,,,,,,,,,
0.0,1.0,0.990195,0.0,34.0,34.0,34.0,1.0,tuxedo_01b.jpg,0.0,Yellow.png,6.0,10,,,,,,,,,,,,,,,,,
0.0,1.0,0.89808,0.0,35.0,35.0,35.0,1.0,crate_05s.jpg,0.0,Green.png,6.0,10,,,,,,,,,,,,,,,,,
,,,,,,,,,1.0,,,10,0.0,0.0,1.77188,0.0,0.0,0.0,0.0,1.0,oil_02s.jpg,harpoon.jpg,,,,,,,
,,,,,,,,,1.0,,,10,0.0,0.0,1.795135,0.0,1.0,1.0,1.0,1.0,swimming_pool_17s.jpg,rabbit_03s.jpg,,,,,,,
,,,,,,,,,0.0,,,10,0.0,1.0,2.422425,0.0,2.0,2.0,2.0,1.0,rollerskate_03s.jpg,pumpkin_03s.jpg,,,,,,,
,,,,,,,,,0.0,,,10,1.0,0.0,2.538705,0.0,3.0,3.0,3.0,1.0,muffin_12n.jpg,loveseat_08s.jpg,,,,,,,
,,,,,,,,,0.0,,,10,1.0,0.0,2.33923,0.0,4.0,4.0,4.0,1.0,spacesuit_02s.jpg,ironing_board_07s.jpg,,,,,,,
,,,,,,,,,1.0,,,10,0.0,0.0,1.6651,0.0,5.0,5.0,5.0,1.0,telephone_pole_05s.jpg,crate_05s.jpg,,,,,,,
,,,,,,,,,,,,10,,,,,,,,,,,0.0,7.0,7.0,7.0,1.0,newclockpresent_8_3.xlsx,newclock_compare_task_8_3.xlsx
,0.0,,0.0,0.0,0.0,0.0,1.0,plunger_08s.jpg,0.0,Blue.png,1.0,10,,,,,,,,,,,,,,,,,
0.0,1.0,0.80798,0.0,1.0,1.0,1.0,1.0,mango_09s.jpg,0.0,Purple.png,1.0,10,,,,,,,,,,,,,,,,,
0.0,1.0,1.162565,0.0,2.0,2.0,2.0,1.0,panda_02s.jpg,0.0,Red.png,1.0,10,,,,,,,,,,,,,,,,,
0.0,1.0,0.95117,0.0,3.0,3.0,3.0,1.0,spatula04.jpg,0.0,Orange.png,1.0,10,,,,,,,,,,,,,,,,,
0.0,1.0,1.078345,0.0,4.0,4.0,4.0,1.0,tuba_12s.jpg,0.0,Yellow.png,1.0,10,,,,,,,,,,,,,,,,,
0.0,1.0,1.03611,0.0,5.0,5.0,5.0,1.0,lipstick_02s.jpg,0.0,Green.png,1.0,10,,,,,,,,,,,,,,,,,
0.0,1.0,0.846685,0.0,6.0,6.0,6.0,1.0,tuba_12s.jpg,0.0,Blue.png,2.0,10,,,,,,,,,,,,,,,,,
0.0,1.0,0.77431,0.0,7.0,7.0,7.0,1.0,jelly_bean_06s.jpg,0.0,Purple.png,2.0,10,,,,,,,,,,,,,,,,,
0.0,1.0,1.03958,0.0,8.0,8.0,8.0,1.0,penlight_12s.jpg,0.0,Red.png,2.0,10,,,,,,,,,,,,,,,,,
0.0,1.0,0.82301,0.0,9.0,9.0,9.0,1.0,rooster_03s.jpg,0.0,Orange.png,2.0,10,,,,,,,,,,,,,,,,,
0.0,1.0,1.04843,0.0,10.0,10.0,10.0,1.0,raft_09s.jpg,0.0,Yellow.png,2.0,10,,,,,,,,,,,,,,,,,
0.0,1.0,0.82699,0.0,11.0,11.0,11.0,1.0,briefcase_03s.jpg,0.0,Green.png,2.0,10,,,,,,,,,,,,,,,,,
0.0,1.0,0.95051,0.0,12.0,12.0,12.0,1.0,fossil_06s.jpg,0.0,Blue.png,3.0,10,,,,,,,,,,,,,,,,,
0.0,0.0,0.77793,0.0,13.0,13.0,13.0,1.0,fossil_06s.jpg,1.0,Purple.png,3.0,10,,,,,,,,,,,,,,,,,
0.0,1.0,1.04806,0.0,14.0,14.0,14.0,1.0,emerald_02s.jpg,0.0,Red.png,3.0,10,,,,,,,,,,,,,,,,,
1.0,1.0,1.094535,0.0,15.0,15.0,15.0,1.0,fossil_06s.jpg,1.0,Orange.png,3.0,10,,,,,,,,,,,,,,,,,
0.0,1.0,0.670955,0.0,16.0,16.0,16.0,1.0,tiara_05s.jpg,0.0,Yellow.png,3.0,10,,,,,,,,,,,,,,,,,
1.0,1.0,1.02858,0.0,17.0,17.0,17.0,1.0,fossil_06s.jpg,1.0,Green.png,3.0,10,,,,,,,,,,,,,,,,,
0.0,1.0,0.7256,0.0,18.0,18.0,18.0,1.0,rooster_03s.jpg,0.0,Blue.png,4.0,10,,,,,,,,,,,,,,,,,
0.0,0.0,1.771385,0.0,19.0,19.0,19.0,1.0,rooster_03s.jpg,1.0,Purple.png,4.0,10,,,,,,,,,,,,,,,,,
0.0,1.0,1.1021,0.0,20.0,20.0,20.0,1.0,squirrel_02s.jpg,0.0,Red.png,4.0,10,,,,,,,,,,,,,,,,,
0.0,1.0,0.99666,0.0,21.0,21.0,21.0,1.0,plunger_08s.jpg,0.0,Orange.png,4.0,10,,,,,,,,,,,,,,,,,
0.0,0.0,1.08744,0.0,22.0,22.0,22.0,1.0,rooster_03s.jpg,1.0,Yellow.png,4.0,10,,,,,,,,,,,,,,,,,
0.0,1.0,1.22323,0.0,23.0,23.0,23.0,1.0,pencil_sharpener_09n.jpg,0.0,Green.png,4.0,10,,,,,,,,,,,,,,,,,
0.0,1.0,0.868015,0.0,24.0,24.0,24.0,1.0,latch_15s.jpg,0.0,Blue.png,5.0,10,,,,,,,,,,,,,,,,,
0.0,1.0,2.07902,0.0,25.0,25.0,25.0,1.0,pipe1_10s.jpg,0.0,Purple.png,5.0,10,,,,,,,,,,,,,,,,,
0.0,1.0,0.96426,0.0,26.0,26.0,26.0,1.0,padlock_07s.jpg,0.0,Red.png,5.0,10,,,,,,,,,,,,,,,,,
1.0,1.0,1.17362,0.0,27.0,27.0,27.0,1.0,padlock_07s.jpg,1.0,Orange.png,5.0,10,,,,,,,,,,,,,,,,,
0.0,1.0,1.675925,0.0,28.0,28.0,28.0,1.0,mosquito_12s.jpg,0.0,Yellow.png,5.0,10,,,,,,,,,,,,,,,,,
0.0,1.0,1.296395,0.0,29.0,29.0,29.0,1.0,chalice_10s.jpg,0.0,Green.png,5.0,10,,,,,,,,,,,,,,,,,
0.0,1.0,0.948975,0.0,30.0,30.0,30.0,1.0,turf_03s.jpg,0.0,Blue.png,6.0,10,,,,,,,,,,,,,,,,,
0.0,1.0,1.84582,0.0,31.0,31.0,31.0,1.0,smoothie_09s.jpg,0.0,Purple.png,6.0,10,,,,,,,,,,,,,,,,,
0.0,1.0,1.019825,0.0,32.0,32.0,32.0,1.0,comic_book_02s.jpg,0.0,Red.png,6.0,10,,,,,,,,,,,,,,,,,
0.0,1.0,1.87294,0.0,33.0,33.0,33.0,1.0,stopwatch_04s.jpg,0.0,Orange.png,6.0,10,,,,,,,,,,,,,,,,,
0.0,0.0,0.74476,0.0,34.0,34.0,34.0,1.0,turf_03s.jpg,1.0,Yellow.png,6.0,10,,,,,,,,,,,,,,,,,
0.0,1.0,1.47586,0.0,35.0,35.0,35.0,1.0,turnstile_08s.jpg,0.0,Green.png,6.0,10,,,,,,,,,,,,,,,,,
,,,,,,,,,1.0,,,10,1.0,1.0,2.06145,0.0,0.0,0.0,0.0,1.0,jelly_bean_06s.jpg,raft_09s.jpg,,,,,,,
,,,,,,,,,1.0,,,10,0.0,0.0,2.349025,0.0,1.0,1.0,1.0,1.0,chalice_10s.jpg,comic_book_02s.jpg,,,,,,,
,,,,,,,,,0.0,,,10,0.0,1.0,2.10306,0.0,2.0,2.0,2.0,1.0,lipstick_02s.jpg,panda_02s.jpg,,,,,,,
,,,,,,,,,1.0,,,10,0.0,0.0,1.84369,0.0,3.0,3.0,3.0,1.0,briefcase_03s.jpg,emerald_02s.jpg,,,,,,,
,,,,,,,,,1.0,,,10,0.0,0.0,2.069745,0.0,4.0,4.0,4.0,1.0,mosquito_12s.jpg,smoothie_09s.jpg,,,,,,,
,,,,,,,,,1.0,,,10,0.0,0.0,2.541835,0.0,5.0,5.0,5.0,1.0,squirrel_02s.jpg,pencil_sharpener_09n.jpg,,,,,,,
,,,,,,,,,,,,10,,,,,,,,,,,0.0,8.0,8.0,8.0,1.0,newclockpresent_9_3.xlsx,newclock_compare_task_9_3.xlsx
