key_resp.keys,key_resp.corr,key_resp.rt,present_segment.thisRepN,present_segment.thisTrialN,present_segment.thisN,present_segment.thisIndex,present_segment.ran,pictures,answer,clock,segment,participant,key_resp_2.keys,key_resp_2.corr,key_resp_2.rt,compare_segment.thisRepN,compare_segment.thisTrialN,compare_segment.thisN,compare_segment.thisIndex,compare_segment.ran,item_a,item_b,clock_conditions.thisRepN,clock_conditions.thisTrialN,clock_conditions.thisN,clock_conditions.thisIndex,clock_conditions.ran,present,compare
0.0,1.0,0.939,0.0,0.0,0.0,0.0,1.0,mailbox_11s.jpg,0.0,Blue.png,1.0,21,,,,,,,,,,,,,,,,,
0.0,1.0,0.988,0.0,1.0,1.0,1.0,1.0,mailbox_11s.jpg,0.0,Purple.png,1.0,21,,,,,,,,,,,,,,,,,
0.0,1.0,0.767,0.0,2.0,2.0,2.0,1.0,checkbook_11s.jpg,0.0,Red.png,1.0,21,,,,,,,,,,,,,,,,,
0.0,1.0,0.789,0.0,3.0,3.0,3.0,1.0,rocking_chair_05s.jpg,0.0,Orange.png,1.0,21,,,,,,,,,,,,,,,,,
1.0,1.0,0.997,0.0,4.0,4.0,4.0,1.0,checkbook_11s.jpg,1.0,Yellow.png,1.0,21,,,,,,,,,,,,,,,,,
1.0,1.0,0.824,0.0,5.0,5.0,5.0,1.0,rocking_chair_05s.jpg,1.0,Green.png,1.0,21,,,,,,,,,,,,,,,,,
0.0,1.0,0.594,0.0,6.0,6.0,6.0,1.0,eggshell_14s.jpg,0.0,Blue.png,2.0,21,,,,,,,,,,,,,,,,,
1.0,1.0,0.489,0.0,7.0,7.0,7.0,1.0,rocking_chair_05s.jpg,1.0,Purple.png,2.0,21,,,,,,,,,,,,,,,,,
0.0,1.0,0.596,0.0,8.0,8.0,8.0,1.0,powder_07s.jpg,0.0,Red.png,2.0,21,,,,,,,,,,,,,,,,,
0.0,1.0,0.652,0.0,9.0,9.0,9.0,1.0,meatball_13s.jpg,0.0,Orange.png,2.0,21,,,,,,,,,,,,,,,,,
0.0,1.0,0.709,0.0,10.0,10.0,10.0,1.0,rolling_pin_02s.jpg,0.0,Yellow.png,2.0,21,,,,,,,,,,,,,,,,,
0.0,1.0,0.764,0.0,11.0,11.0,11.0,1.0,gingerbread_man_03s.jpg,0.0,Green.png,2.0,21,,,,,,,,,,,,,,,,,
0.0,1.0,0.817,0.0,12.0,12.0,12.0,1.0,rocking_chair_05s.jpg,0.0,Blue.png,3.0,21,,,,,,,,,,,,,,,,,
0.0,1.0,0.602,0.0,13.0,13.0,13.0,1.0,bowler_hat_10s.jpg,0.0,Purple.png,3.0,21,,,,,,,,,,,,,,,,,
1.0,1.0,0.515,0.0,14.0,14.0,14.0,1.0,rocking_chair_05s.jpg,1.0,Red.png,3.0,21,,,,,,,,,,,,,,,,,
0.0,1.0,0.735,0.0,15.0,15.0,15.0,1.0,rocking_chair_05s.jpg,0.0,Orange.png,3.0,21,,,,,,,,,,,,,,,,,
1.0,1.0,0.499,0.0,16.0,16.0,16.0,1.0,rocking_chair_05s.jpg,1.0,Yellow.png,3.0,21,,,,,,,,,,,,,,,,,
0.0,1.0,0.999,0.0,17.0,17.0,17.0,1.0,projector_08s.jpg,0.0,Green.png,3.0,21,,,,,,,,,,,,,,,,,
0.0,1.0,1.048,0.0,18.0,18.0,18.0,1.0,checkbook_11s.jpg,0.0,Blue.png,4.0,21,,,,,,,,,,,,,,,,,
0.0,1.0,1.268,0.0,19.0,19.0,19.0,1.0,checkbook_11s.jpg,0.0,Purple.png,4.0,21,,,,,,,,,,,,,,,,,
0.0,1.0,0.733,0.0,20.0,20.0,20.0,1.0,crab_16s.jpg,0.0,Red.png,4.0,21,,,,,,,,,,,,,,,,,
1.0,1.0,0.685,0.0,21.0,21.0,21.0,1.0,checkbook_11s.jpg,1.0,Orange.png,4.0,21,,,,,,,,,,,,,,,,,
0.0,1.0,0.739,0.0,22.0,22.0,22.0,1.0,peanut_butter_08s.jpg,0.0,Yellow.png,4.0,21,,,,,,,,,,,,,,,,,
0.0,1.0,0.804,0.0,23.0,23.0,23.0,1.0,breadstick_08s.jpg,0.0,Green.png,4.0,21,,,,,,,,,,,,,,,,,
0.0,1.0,0.631,0.0,24.0,24.0,24.0,1.0,stethoscope_01b.jpg,0.0,Blue.png,5.0,21,,,,,,,,,,,,,,,,,
0.0,1.0,0.572,0.0,25.0,25.0,25.0,1.0,pineapple_12s.jpg,0.0,Purple.png,5.0,21,,,,,,,,,,,,,,,,,
1.0,1.0,0.629,0.0,26.0,26.0,26.0,1.0,stethoscope_01b.jpg,1.0,Red.png,5.0,21,,,,,,,,,,,,,,,,,
1.0,1.0,0.637,0.0,27.0,27.0,27.0,1.0,pineapple_12s.jpg,1.0,Orange.png,5.0,21,,,,,,,,,,,,,,,,,
0.0,1.0,0.633,0.0,28.0,28.0,28.0,1.0,air_pump_05s.jpg,0.0,Yellow.png,5.0,21,,,,,,,,,,,,,,,,,
0.0,1.0,0.638,0.0,29.0,29.0,29.0,1.0,birdcage_08s.jpg,0.0,Green.png,5.0,21,,,,,,,,,,,,,,,,,
0.0,1.0,0.753,0.0,30.0,30.0,30.0,1.0,kangaroo_02s.jpg,0.0,Blue.png,6.0,21,,,,,,,,,,,,,,,,,
0.0,1.0,0.57,0.0,31.0,31.0,31.0,1.0,juicer2_06s.jpg,0.0,Purple.png,6.0,21,,,,,,,,,,,,,,,,,
0.0,1.0,0.578,0.0,32.0,32.0,32.0,1.0,harpoon.jpg,0.0,Red.png,6.0,21,,,,,,,,,,,,,,,,,
0.0,1.0,0.558,0.0,33.0,33.0,33.0,1.0,mirror_12s.jpg,0.0,Orange.png,6.0,21,,,,,,,,,,,,,,,,,
0.0,1.0,0.566,0.0,34.0,34.0,34.0,1.0,gear_07s.jpg,0.0,Yellow.png,6.0,21,,,,,,,,,,,,,,,,,
0.0,1.0,0.623,0.0,35.0,35.0,35.0,1.0,timer_03s.jpg,0.0,Green.png,6.0,21,,,,,,,,,,,,,,,,,
,,,,,,,,,1.0,,,21,0.0,0.0,1.755,0.0,0.0,0.0,0.0,1.0,powder_07s.jpg,gingerbread_man_03s.jpg,,,,,,,
,,,,,,,,,1.0,,,21,1.0,1.0,2.065,0.0,1.0,1.0,1.0,1.0,air_pump_05s.jpg,juicer2_06s.jpg,,,,,,,
,,,,,,,,,0.0,,,21,0.0,1.0,1.433,0.0,2.0,2.0,2.0,1.0,crab_16s.jpg,projector_08s.jpg,,,,,,,
,,,,,,,,,0.0,,,21,0.0,1.0,1.522,0.0,3.0,3.0,3.0,1.0,mirror_12s.jpg,kangaroo_02s.jpg,,,,,,,
,,,,,,,,,0.0,,,21,1.0,0.0,2.69,0.0,4.0,4.0,4.0,1.0,bowler_hat_10s.jpg,rolling_pin_02s.jpg,,,,,,,
,,,,,,,,,1.0,,,21,1.0,1.0,1.766,0.0,5.0,5.0,5.0,1.0,eggshell_14s.jpg,meatball_13s.jpg,,,,,,,
,,,,,,,,,,,,21,,,,,,,,,,,0.0,0.0,0.0,0.0,1.0,new2backpresent_1_1.xlsx,new2back_compare_task_1_1.xlsx
0.0,1.0,0.917,0.0,0.0,0.0,0.0,1.0,trident_07s.jpg,0.0,Blue.png,1.0,21,,,,,,,,,,,,,,,,,
0.0,1.0,0.861,0.0,1.0,1.0,1.0,1.0,rosary_03s.jpg,0.0,Purple.png,1.0,21,,,,,,,,,,,,,,,,,
0.0,1.0,0.567,0.0,2.0,2.0,2.0,1.0,toilet_paper_12s.jpg,0.0,Red.png,1.0,21,,,,,,,,,,,,,,,,,
1.0,1.0,0.573,0.0,3.0,3.0,3.0,1.0,rosary_03s.jpg,1.0,Orange.png,1.0,21,,,,,,,,,,,,,,,,,
1.0,1.0,0.496,0.0,4.0,4.0,4.0,1.0,toilet_paper_12s.jpg,1.0,Yellow.png,1.0,21,,,,,,,,,,,,,,,,,
0.0,1.0,0.562,0.0,5.0,5.0,5.0,1.0,potpourri_03s.jpg,0.0,Green.png,1.0,21,,,,,,,,,,,,,,,,,
0.0,1.0,0.596,0.0,6.0,6.0,6.0,1.0,rocket_02s.jpg,0.0,Blue.png,2.0,21,,,,,,,,,,,,,,,,,
0.0,1.0,0.63,0.0,7.0,7.0,7.0,1.0,piano_13n.jpg,0.0,Purple.png,2.0,21,,,,,,,,,,,,,,,,,
1.0,1.0,0.866,0.0,8.0,8.0,8.0,1.0,rocket_02s.jpg,1.0,Red.png,2.0,21,,,,,,,,,,,,,,,,,
0.0,1.0,1.79,0.0,9.0,9.0,9.0,1.0,rocket_02s.jpg,0.0,Orange.png,2.0,21,,,,,,,,,,,,,,,,,
0.0,1.0,1.255,0.0,10.0,10.0,10.0,1.0,umbrella_15s.jpg,0.0,Yellow.png,2.0,21,,,,,,,,,,,,,,,,,
0.0,1.0,0.637,0.0,11.0,11.0,11.0,1.0,touchpad_11s.jpg,0.0,Green.png,2.0,21,,,,,,,,,,,,,,,,,
0.0,1.0,0.802,0.0,12.0,12.0,12.0,1.0,rocket_02s.jpg,0.0,Blue.png,3.0,21,,,,,,,,,,,,,,,,,
0.0,1.0,1.352,0.0,13.0,13.0,13.0,1.0,rocket_02s.jpg,0.0,Purple.png,3.0,21,,,,,,,,,,,,,,,,,
1.0,1.0,0.687,0.0,14.0,14.0,14.0,1.0,rocket_02s.jpg,1.0,Red.png,3.0,21,,,,,,,,,,,,,,,,,
0.0,1.0,1.098,0.0,15.0,15.0,15.0,1.0,roller_coaster_07s.jpg,0.0,Orange.png,3.0,21,,,,,,,,,,,,,,,,,
0.0,1.0,0.634,0.0,16.0,16.0,16.0,1.0,torch_02s.jpg,0.0,Yellow.png,3.0,21,,,,,,,,,,,,,,,,,
0.0,1.0,0.611,0.0,17.0,17.0,17.0,1.0,lion_18s.jpg,0.0,Green.png,3.0,21,,,,,,,,,,,,,,,,,
0.0,1.0,0.63,0.0,18.0,18.0,18.0,1.0,microwave_02s.jpg,0.0,Blue.png,4.0,21,,,,,,,,,,,,,,,,,
0.0,1.0,0.578,0.0,19.0,19.0,19.0,1.0,denture_03s.jpg,0.0,Purple.png,4.0,21,,,,,,,,,,,,,,,,,
0.0,1.0,0.798,0.0,20.0,20.0,20.0,1.0,fur_coat_11s.jpg,0.0,Red.png,4.0,21,,,,,,,,,,,,,,,,,
0.0,1.0,0.556,0.0,21.0,21.0,21.0,1.0,pepper_mill_03s.jpg,0.0,Orange.png,4.0,21,,,,,,,,,,,,,,,,,
0.0,1.0,0.505,0.0,22.0,22.0,22.0,1.0,antenna_01b.jpg,0.0,Yellow.png,4.0,21,,,,,,,,,,,,,,,,,
0.0,0.0,0.994,0.0,23.0,23.0,23.0,1.0,pepper_mill_03s.jpg,1.0,Green.png,4.0,21,,,,,,,,,,,,,,,,,
0.0,1.0,1.067,0.0,24.0,24.0,24.0,1.0,touchpad_11s.jpg,0.0,Blue.png,5.0,21,,,,,,,,,,,,,,,,,
0.0,1.0,0.92,0.0,25.0,25.0,25.0,1.0,otter_05s.jpg,0.0,Purple.png,5.0,21,,,,,,,,,,,,,,,,,
0.0,1.0,0.905,0.0,26.0,26.0,26.0,1.0,squirt_gun_03s.jpg,0.0,Red.png,5.0,21,,,,,,,,,,,,,,,,,
1.0,1.0,0.564,0.0,27.0,27.0,27.0,1.0,otter_05s.jpg,1.0,Orange.png,5.0,21,,,,,,,,,,,,,,,,,
0.0,1.0,0.94,0.0,28.0,28.0,28.0,1.0,touchpad_11s.jpg,0.0,Yellow.png,5.0,21,,,,,,,,,,,,,,,,,
0.0,1.0,0.994,0.0,29.0,29.0,29.0,1.0,touchpad_11s.jpg,0.0,Green.png,5.0,21,,,,,,,,,,,,,,,,,
0.0,1.0,0.704,0.0,30.0,30.0,30.0,1.0,kayak_08s.jpg,0.0,Blue.png,6.0,21,,,,,,,,,,,,,,,,,
0.0,1.0,0.654,0.0,31.0,31.0,31.0,1.0,mascara_03s.jpg,0.0,Purple.png,6.0,21,,,,,,,,,,,,,,,,,
0.0,1.0,0.643,0.0,32.0,32.0,32.0,1.0,ink_08s.jpg,0.0,Red.png,6.0,21,,,,,,,,,,,,,,,,,
0.0,1.0,1.182,0.0,33.0,33.0,33.0,1.0,kayak_08s.jpg,0.0,Orange.png,6.0,21,,,,,,,,,,,,,,,,,
0.0,1.0,0.689,0.0,34.0,34.0,34.0,1.0,towel_rack_04s.jpg,0.0,Yellow.png,6.0,21,,,,,,,,,,,,,,,,,
0.0,1.0,0.625,0.0,35.0,35.0,35.0,1.0,jewel_01b.jpg,0.0,Green.png,6.0,21,,,,,,,,,,,,,,,,,
,,,,,,,,,1.0,,,21,1.0,1.0,2.086,0.0,0.0,0.0,0.0,1.0,torch_02s.jpg,denture_03s.jpg,,,,,,,
,,,,,,,,,0.0,,,21,0.0,1.0,1.879,0.0,1.0,1.0,1.0,1.0,towel_rack_04s.jpg,mascara_03s.jpg,,,,,,,
,,,,,,,,,1.0,,,21,1.0,1.0,1.915,0.0,2.0,2.0,2.0,1.0,piano_13n.jpg,umbrella_15s.jpg,,,,,,,
,,,,,,,,,0.0,,,21,0.0,1.0,1.875,0.0,3.0,3.0,3.0,1.0,fur_coat_11s.jpg,lion_18s.jpg,,,,,,,
,,,,,,,,,1.0,,,21,0.0,0.0,1.299,0.0,4.0,4.0,4.0,1.0,roller_coaster_07s.jpg,microwave_02s.jpg,,,,,,,
,,,,,,,,,1.0,,,21,1.0,1.0,1.309,0.0,5.0,5.0,5.0,1.0,ink_08s.jpg,jewel_01b.jpg,,,,,,,
,,,,,,,,,,,,21,,,,,,,,,,,0.0,1.0,1.0,1.0,1.0,new2backpresent_2_1.xlsx,new2back_compare_task_2_1.xlsx
0.0,1.0,0.756,0.0,0.0,0.0,0.0,1.0,icemaker_10s.jpg,0.0,Blue.png,1.0,21,,,,,,,,,,,,,,,,,
0.0,1.0,0.977,0.0,1.0,1.0,1.0,1.0,icemaker_10s.jpg,0.0,Purple.png,1.0,21,,,,,,,,,,,,,,,,,
0.0,1.0,0.912,0.0,2.0,2.0,2.0,1.0,tile_08s.jpg,0.0,Red.png,1.0,21,,,,,,,,,,,,,,,,,
0.0,1.0,0.693,0.0,3.0,3.0,3.0,1.0,fossil_06s.jpg,0.0,Orange.png,1.0,21,,,,,,,,,,,,,,,,,
0.0,1.0,0.804,0.0,4.0,4.0,4.0,1.0,fossil_06s.jpg,0.0,Yellow.png,1.0,21,,,,,,,,,,,,,,,,,
0.0,1.0,0.801,0.0,5.0,5.0,5.0,1.0,ravioli_08s.jpg,0.0,Green.png,1.0,21,,,,,,,,,,,,,,,,,
0.0,1.0,1.084,0.0,6.0,6.0,6.0,1.0,top_hat_11s.jpg,0.0,Blue.png,2.0,21,,,,,,,,,,,,,,,,,
0.0,1.0,0.628,0.0,7.0,7.0,7.0,1.0,raccoon_02s.jpg,0.0,Purple.png,2.0,21,,,,,,,,,,,,,,,,,
0.0,1.0,0.518,0.0,8.0,8.0,8.0,1.0,snowman_02s.jpg,0.0,Red.png,2.0,21,,,,,,,,,,,,,,,,,
0.0,1.0,0.683,0.0,9.0,9.0,9.0,1.0,peach_04s.jpg,0.0,Orange.png,2.0,21,,,,,,,,,,,,,,,,,
0.0,1.0,0.637,0.0,10.0,10.0,10.0,1.0,beard_16s.jpg,0.0,Yellow.png,2.0,21,,,,,,,,,,,,,,,,,
0.0,1.0,0.583,0.0,11.0,11.0,11.0,1.0,rollerskate_03s.jpg,0.0,Green.png,2.0,21,,,,,,,,,,,,,,,,,
0.0,1.0,0.583,0.0,12.0,12.0,12.0,1.0,mango_09s.jpg,0.0,Blue.png,3.0,21,,,,,,,,,,,,,,,,,
0.0,1.0,1.128,0.0,13.0,13.0,13.0,1.0,mango_09s.jpg,0.0,Purple.png,3.0,21,,,,,,,,,,,,,,,,,
0.0,1.0,0.694,0.0,14.0,14.0,14.0,1.0,magnet_03s.jpg,0.0,Red.png,3.0,21,,,,,,,,,,,,,,,,,
1.0,1.0,0.873,0.0,15.0,15.0,15.0,1.0,mango_09s.jpg,1.0,Orange.png,3.0,21,,,,,,,,,,,,,,,,,
0.0,1.0,0.933,0.0,16.0,16.0,16.0,1.0,mango_09s.jpg,0.0,Yellow.png,3.0,21,,,,,,,,,,,,,,,,,
1.0,1.0,0.689,0.0,17.0,17.0,17.0,1.0,mango_09s.jpg,1.0,Green.png,3.0,21,,,,,,,,,,,,,,,,,
0.0,1.0,1.22,0.0,18.0,18.0,18.0,1.0,punch2_09s.jpg,0.0,Blue.png,4.0,21,,,,,,,,,,,,,,,,,
0.0,1.0,0.565,0.0,19.0,19.0,19.0,1.0,jelly_bean_06s.jpg,0.0,Purple.png,4.0,21,,,,,,,,,,,,,,,,,
1.0,1.0,0.917,0.0,20.0,20.0,20.0,1.0,punch2_09s.jpg,1.0,Red.png,4.0,21,,,,,,,,,,,,,,,,,
1.0,1.0,0.701,0.0,21.0,21.0,21.0,1.0,jelly_bean_06s.jpg,1.0,Orange.png,4.0,21,,,,,,,,,,,,,,,,,
0.0,1.0,0.949,0.0,22.0,22.0,22.0,1.0,jelly_bean_06s.jpg,0.0,Yellow.png,4.0,21,,,,,,,,,,,,,,,,,
0.0,1.0,0.751,0.0,23.0,23.0,23.0,1.0,typewriter_11s.jpg,0.0,Green.png,4.0,21,,,,,,,,,,,,,,,,,
0.0,1.0,0.586,0.0,24.0,24.0,24.0,1.0,icemaker_10s.jpg,0.0,Blue.png,5.0,21,,,,,,,,,,,,,,,,,
1.0,1.0,0.514,0.0,25.0,25.0,25.0,1.0,typewriter_11s.jpg,1.0,Purple.png,5.0,21,,,,,,,,,,,,,,,,,
0.0,1.0,0.802,0.0,26.0,26.0,26.0,1.0,key_07s.jpg,0.0,Red.png,5.0,21,,,,,,,,,,,,,,,,,
0.0,1.0,0.634,0.0,27.0,27.0,27.0,1.0,foam_03s.jpg,0.0,Orange.png,5.0,21,,,,,,,,,,,,,,,,,
0.0,1.0,0.522,0.0,28.0,28.0,28.0,1.0,candy_cane_06s.jpg,0.0,Yellow.png,5.0,21,,,,,,,,,,,,,,,,,
0.0,1.0,0.69,0.0,29.0,29.0,29.0,1.0,puffin_19s.jpg,0.0,Green.png,5.0,21,,,,,,,,,,,,,,,,,
0.0,1.0,0.566,0.0,30.0,30.0,30.0,1.0,outlet_10s.jpg,0.0,Blue.png,6.0,21,,,,,,,,,,,,,,,,,
0.0,1.0,0.565,0.0,31.0,31.0,31.0,1.0,lasagna_06s.jpg,0.0,Purple.png,6.0,21,,,,,,,,,,,,,,,,,
0.0,1.0,0.683,0.0,32.0,32.0,32.0,1.0,lasagna_06s.jpg,0.0,Red.png,6.0,21,,,,,,,,,,,,,,,,,
0.0,1.0,0.632,0.0,33.0,33.0,33.0,1.0,marker_05s.jpg,0.0,Orange.png,6.0,21,,,,,,,,,,,,,,,,,
0.0,1.0,0.57,0.0,34.0,34.0,34.0,1.0,cushion_08s.jpg,0.0,Yellow.png,6.0,21,,,,,,,,,,,,,,,,,
0.0,1.0,0.582,0.0,35.0,35.0,35.0,1.0,badge_03s.jpg,0.0,Green.png,6.0,21,,,,,,,,,,,,,,,,,
,,,,,,,,,0.0,,,21,0.0,1.0,1.707,0.0,0.0,0.0,0.0,1.0,beard_16s.jpg,raccoon_02s.jpg,,,,,,,
,,,,,,,,,0.0,,,21,0.0,1.0,1.788,0.0,1.0,1.0,1.0,1.0,peach_04s.jpg,top_hat_11s.jpg,,,,,,,
,,,,,,,,,1.0,,,21,1.0,1.0,2.047,0.0,2.0,2.0,2.0,1.0,rollerskate_03s.jpg,magnet_03s.jpg,,,,,,,
,,,,,,,,,1.0,,,21,1.0,1.0,1.618,0.0,3.0,3.0,3.0,1.0,foam_03s.jpg,outlet_10s.jpg,,,,,,,
,,,,,,,,,0.0,,,21,1.0,0.0,1.131,0.0,4.0,4.0,4.0,1.0,snowman_02s.jpg,ravioli_08s.jpg,,,,,,,
,,,,,,,,,0.0,,,21,0.0,1.0,1.864,0.0,5.0,5.0,5.0,1.0,puffin_19s.jpg,key_07s.jpg,,,,,,,
,,,,,,,,,,,,21,,,,,,,,,,,0.0,2.0,2.0,2.0,1.0,new2backpresent_3_1.xlsx,new2back_compare_task_3_1.xlsx
0.0,1.0,0.747,0.0,0.0,0.0,0.0,1.0,lollipop_08s.jpg,0.0,Blue.png,1.0,21,,,,,,,,,,,,,,,,,
0.0,1.0,0.488,0.0,1.0,1.0,1.0,1.0,keyboard_05s.jpg,0.0,Purple.png,1.0,21,,,,,,,,,,,,,,,,,
0.0,1.0,0.561,0.0,2.0,2.0,2.0,1.0,pomegranate_04s.jpg,0.0,Red.png,1.0,21,,,,,,,,,,,,,,,,,
0.0,1.0,0.678,0.0,3.0,3.0,3.0,1.0,olive_05s.jpg,0.0,Orange.png,1.0,21,,,,,,,,,,,,,,,,,
0.0,1.0,0.577,0.0,4.0,4.0,4.0,1.0,hummingbird_05s.jpg,0.0,Yellow.png,1.0,21,,,,,,,,,,,,,,,,,
0.0,1.0,0.567,0.0,5.0,5.0,5.0,1.0,cucumber_07s.jpg,0.0,Green.png,1.0,21,,,,,,,,,,,,,,,,,
0.0,1.0,0.75,0.0,6.0,6.0,6.0,1.0,olive_05s.jpg,0.0,Blue.png,2.0,21,,,,,,,,,,,,,,,,,
0.0,1.0,0.744,0.0,7.0,7.0,7.0,1.0,pinwheel_06s.jpg,0.0,Purple.png,2.0,21,,,,,,,,,,,,,,,,,
1.0,1.0,0.625,0.0,8.0,8.0,8.0,1.0,olive_05s.jpg,1.0,Red.png,2.0,21,,,,,,,,,,,,,,,,,
0.0,1.0,0.565,0.0,9.0,9.0,9.0,1.0,orchid_01b.jpg,0.0,Orange.png,2.0,21,,,,,,,,,,,,,,,,,
1.0,1.0,0.563,0.0,10.0,10.0,10.0,1.0,olive_05s.jpg,1.0,Yellow.png,2.0,21,,,,,,,,,,,,,,,,,
0.0,1.0,0.56,0.0,11.0,11.0,11.0,1.0,lectern_08s.jpg,0.0,Green.png,2.0,21,,,,,,,,,,,,,,,,,
0.0,1.0,0.735,0.0,12.0,12.0,12.0,1.0,margarita_03s.jpg,0.0,Blue.png,3.0,21,,,,,,,,,,,,,,,,,
0.0,1.0,0.74,0.0,13.0,13.0,13.0,1.0,margarita_03s.jpg,0.0,Purple.png,3.0,21,,,,,,,,,,,,,,,,,
0.0,1.0,0.61,0.0,14.0,14.0,14.0,1.0,swan_11s.jpg,0.0,Red.png,3.0,21,,,,,,,,,,,,,,,,,
0.0,1.0,0.568,0.0,15.0,15.0,15.0,1.0,tripod_01b.jpg,0.0,Orange.png,3.0,21,,,,,,,,,,,,,,,,,
0.0,1.0,0.503,0.0,16.0,16.0,16.0,1.0,mop_08s.jpg,0.0,Yellow.png,3.0,21,,,,,,,,,,,,,,,,,
0.0,1.0,0.58,0.0,17.0,17.0,17.0,1.0,plaster_cast_13s.jpg,0.0,Green.png,3.0,21,,,,,,,,,,,,,,,,,
0.0,1.0,0.565,0.0,18.0,18.0,18.0,1.0,gas_mask_11s.jpg,0.0,Blue.png,4.0,21,,,,,,,,,,,,,,,,,
0.0,1.0,0.751,0.0,19.0,19.0,19.0,1.0,tinsel_12s.jpg,0.0,Purple.png,4.0,21,,,,,,,,,,,,,,,,,
0.0,1.0,0.922,0.0,20.0,20.0,20.0,1.0,smokingpipe.jpg,0.0,Red.png,4.0,21,,,,,,,,,,,,,,,,,
0.0,1.0,0.584,0.0,21.0,21.0,21.0,1.0,iron_13s.jpg,0.0,Orange.png,4.0,21,,,,,,,,,,,,,,,,,
0.0,1.0,0.698,0.0,22.0,22.0,22.0,1.0,iron_13s.jpg,0.0,Yellow.png,4.0,21,,,,,,,,,,,,,,,,,
1.0,1.0,0.517,0.0,23.0,23.0,23.0,1.0,iron_13s.jpg,1.0,Green.png,4.0,21,,,,,,,,,,,,,,,,,
0.0,1.0,0.618,0.0,24.0,24.0,24.0,1.0,rhubarb_03s.jpg,0.0,Blue.png,5.0,21,,,,,,,,,,,,,,,,,
0.0,1.0,0.583,0.0,25.0,25.0,25.0,1.0,tambourine_06s.jpg,0.0,Purple.png,5.0,21,,,,,,,,,,,,,,,,,
0.0,1.0,0.811,0.0,26.0,26.0,26.0,1.0,tambourine_06s.jpg,0.0,Red.png,5.0,21,,,,,,,,,,,,,,,,,
0.0,1.0,0.632,0.0,27.0,27.0,27.0,1.0,mousetrap_15n.jpg,0.0,Orange.png,5.0,21,,,,,,,,,,,,,,,,,
0.0,1.0,0.558,0.0,28.0,28.0,28.0,1.0,ticktacktoe_08s.jpg,0.0,Yellow.png,5.0,21,,,,,,,,,,,,,,,,,
0.0,1.0,0.829,0.0,29.0,29.0,29.0,1.0,sunflower_17s.jpg,0.0,Green.png,5.0,21,,,,,,,,,,,,,,,,,
0.0,1.0,0.567,0.0,30.0,30.0,30.0,1.0,onion_10s.jpg,0.0,Blue.png,6.0,21,,,,,,,,,,,,,,,,,
0.0,1.0,0.509,0.0,31.0,31.0,31.0,1.0,ant_12s.jpg,0.0,Purple.png,6.0,21,,,,,,,,,,,,,,,,,
0.0,1.0,0.818,0.0,32.0,32.0,32.0,1.0,insole_11s.jpg,0.0,Red.png,6.0,21,,,,,,,,,,,,,,,,,
0.0,1.0,0.922,0.0,33.0,33.0,33.0,1.0,keyboard_05s.jpg,0.0,Orange.png,6.0,21,,,,,,,,,,,,,,,,,
0.0,1.0,0.642,0.0,34.0,34.0,34.0,1.0,aluminum_foil_08s.jpg,0.0,Yellow.png,6.0,21,,,,,,,,,,,,,,,,,
0.0,1.0,0.634,0.0,35.0,35.0,35.0,1.0,money_07s.jpg,0.0,Green.png,6.0,21,,,,,,,,,,,,,,,,,
,,,,,,,,,0.0,,,21,1.0,0.0,1.518,0.0,0.0,0.0,0.0,1.0,pinwheel_06s.jpg,hummingbird_05s.jpg,,,,,,,
,,,,,,,,,1.0,,,21,1.0,1.0,1.527,0.0,1.0,1.0,1.0,1.0,mop_08s.jpg,tinsel_12s.jpg,,,,,,,
,,,,,,,,,1.0,,,21,1.0,1.0,0.958,0.0,2.0,2.0,2.0,1.0,pomegranate_04s.jpg,cucumber_07s.jpg,,,,,,,
,,,,,,,,,0.0,,,21,0.0,1.0,1.362,0.0,3.0,3.0,3.0,1.0,aluminum_foil_08s.jpg,ant_12s.jpg,,,,,,,
,,,,,,,,,0.0,,,21,0.0,1.0,1.112,0.0,4.0,4.0,4.0,1.0,gas_mask_11s.jpg,tripod_01b.jpg,,,,,,,
,,,,,,,,,0.0,,,21,0.0,1.0,2.179,0.0,5.0,5.0,5.0,1.0,mousetrap_15n.jpg,rhubarb_03s.jpg,,,,,,,
,,,,,,,,,,,,21,,,,,,,,,,,0.0,3.0,3.0,3.0,1.0,new2backpresent_4_1.xlsx,new2back_compare_task_4_1.xlsx
0.0,1.0,0.46,0.0,0.0,0.0,0.0,1.0,jalapeno_15s.jpg,0.0,Blue.png,1.0,21,,,,,,,,,,,,,,,,,
0.0,1.0,0.641,0.0,1.0,1.0,1.0,1.0,pincushion_10s.jpg,0.0,Purple.png,1.0,21,,,,,,,,,,,,,,,,,
0.0,1.0,0.626,0.0,2.0,2.0,2.0,1.0,fondue_07s.jpg,0.0,Red.png,1.0,21,,,,,,,,,,,,,,,,,
0.0,1.0,0.689,0.0,3.0,3.0,3.0,1.0,safety_pin_02s.jpg,0.0,Orange.png,1.0,21,,,,,,,,,,,,,,,,,
0.0,1.0,0.686,0.0,4.0,4.0,4.0,1.0,turf_03s.jpg,0.0,Yellow.png,1.0,21,,,,,,,,,,,,,,,,,
0.0,1.0,0.777,0.0,5.0,5.0,5.0,1.0,jalapeno_15s.jpg,0.0,Green.png,1.0,21,,,,,,,,,,,,,,,,,
0.0,1.0,0.699,0.0,6.0,6.0,6.0,1.0,jalapeno_15s.jpg,0.0,Blue.png,2.0,21,,,,,,,,,,,,,,,,,
1.0,1.0,0.504,0.0,7.0,7.0,7.0,1.0,jalapeno_15s.jpg,1.0,Purple.png,2.0,21,,,,,,,,,,,,,,,,,
0.0,1.0,0.623,0.0,8.0,8.0,8.0,1.0,spoon02a.jpg,0.0,Red.png,2.0,21,,,,,,,,,,,,,,,,,
0.0,1.0,0.569,0.0,9.0,9.0,9.0,1.0,puppet_01b.jpg,0.0,Orange.png,2.0,21,,,,,,,,,,,,,,,,,
0.0,1.0,0.564,0.0,10.0,10.0,10.0,1.0,jalapeno_15s.jpg,0.0,Yellow.png,2.0,21,,,,,,,,,,,,,,,,,
0.0,1.0,0.564,0.0,11.0,11.0,11.0,1.0,jalapeno_15s.jpg,0.0,Green.png,2.0,21,,,,,,,,,,,,,,,,,
0.0,1.0,0.623,0.0,12.0,12.0,12.0,1.0,popcorn_09s.jpg,0.0,Blue.png,3.0,21,,,,,,,,,,,,,,,,,
0.0,1.0,0.824,0.0,13.0,13.0,13.0,1.0,popcorn_09s.jpg,0.0,Purple.png,3.0,21,,,,,,,,,,,,,,,,,
0.0,1.0,0.639,0.0,14.0,14.0,14.0,1.0,swordfish_05s.jpg,0.0,Red.png,3.0,21,,,,,,,,,,,,,,,,,
1.0,1.0,0.893,0.0,15.0,15.0,15.0,1.0,popcorn_09s.jpg,1.0,Orange.png,3.0,21,,,,,,,,,,,,,,,,,
0.0,1.0,0.569,0.0,16.0,16.0,16.0,1.0,police_car_01s.jpg,0.0,Yellow.png,3.0,21,,,,,,,,,,,,,,,,,
0.0,1.0,0.759,0.0,17.0,17.0,17.0,1.0,ginger_09s.jpg,0.0,Green.png,3.0,21,,,,,,,,,,,,,,,,,
0.0,1.0,0.636,0.0,18.0,18.0,18.0,1.0,cap_05s.jpg,0.0,Blue.png,4.0,21,,,,,,,,,,,,,,,,,
0.0,1.0,0.581,0.0,19.0,19.0,19.0,1.0,ice-cream_cone_06s.jpg,0.0,Purple.png,4.0,21,,,,,,,,,,,,,,,,,
0.0,1.0,0.624,0.0,20.0,20.0,20.0,1.0,purse_05s.jpg,0.0,Red.png,4.0,21,,,,,,,,,,,,,,,,,
0.0,1.0,0.563,0.0,21.0,21.0,21.0,1.0,squirrel_02s.jpg,0.0,Orange.png,4.0,21,,,,,,,,,,,,,,,,,
0.0,1.0,0.92,0.0,22.0,22.0,22.0,1.0,cap_05s.jpg,0.0,Yellow.png,4.0,21,,,,,,,,,,,,,,,,,
0.0,1.0,0.558,0.0,23.0,23.0,23.0,1.0,pie_08s.jpg,0.0,Green.png,4.0,21,,,,,,,,,,,,,,,,,
0.0,1.0,0.557,0.0,24.0,24.0,24.0,1.0,thread_08s.jpg,0.0,Blue.png,5.0,21,,,,,,,,,,,,,,,,,
0.0,1.0,0.566,0.0,25.0,25.0,25.0,1.0,punch1_10s.jpg,0.0,Purple.png,5.0,21,,,,,,,,,,,,,,,,,
0.0,1.0,0.562,0.0,26.0,26.0,26.0,1.0,cereal_04s.jpg,0.0,Red.png,5.0,21,,,,,,,,,,,,,,,,,
0.0,1.0,0.619,0.0,27.0,27.0,27.0,1.0,espresso_01b.jpg,0.0,Orange.png,5.0,21,,,,,,,,,,,,,,,,,
1.0,1.0,0.764,0.0,28.0,28.0,28.0,1.0,cereal_04s.jpg,1.0,Yellow.png,5.0,21,,,,,,,,,,,,,,,,,
0.0,1.0,0.884,0.0,29.0,29.0,29.0,1.0,cereal_04s.jpg,0.0,Green.png,5.0,21,,,,,,,,,,,,,,,,,
0.0,1.0,0.62,0.0,30.0,30.0,30.0,1.0,tube_top_03s.jpg,0.0,Blue.png,6.0,21,,,,,,,,,,,,,,,,,
0.0,1.0,0.7,0.0,31.0,31.0,31.0,1.0,pepper2_21s.jpg,0.0,Purple.png,6.0,21,,,,,,,,,,,,,,,,,
0.0,1.0,0.565,0.0,32.0,32.0,32.0,1.0,jersey_02s.jpg,0.0,Red.png,6.0,21,,,,,,,,,,,,,,,,,
0.0,1.0,0.683,0.0,33.0,33.0,33.0,1.0,mussel_11s.jpg,0.0,Orange.png,6.0,21,,,,,,,,,,,,,,,,,
0.0,1.0,0.624,0.0,34.0,34.0,34.0,1.0,toaster_03s.jpg,0.0,Yellow.png,6.0,21,,,,,,,,,,,,,,,,,
0.0,1.0,0.572,0.0,35.0,35.0,35.0,1.0,tie_03s.jpg,0.0,Green.png,6.0,21,,,,,,,,,,,,,,,,,
,,,,,,,,,0.0,,,21,0.0,1.0,1.857,0.0,0.0,0.0,0.0,1.0,ice-cream_cone_06s.jpg,police_car_01s.jpg,,,,,,,
,,,,,,,,,0.0,,,21,0.0,1.0,1.725,0.0,1.0,1.0,1.0,1.0,turf_03s.jpg,pincushion_10s.jpg,,,,,,,
,,,,,,,,,0.0,,,21,1.0,0.0,5.617,0.0,2.0,2.0,2.0,1.0,purse_05s.jpg,ginger_09s.jpg,,,,,,,
,,,,,,,,,1.0,,,21,0.0,0.0,1.612,0.0,3.0,3.0,3.0,1.0,jersey_02s.jpg,tie_03s.jpg,,,,,,,
,,,,,,,,,0.0,,,21,1.0,0.0,1.775,0.0,4.0,4.0,4.0,1.0,toaster_03s.jpg,pepper2_21s.jpg,,,,,,,
,,,,,,,,,0.0,,,21,1.0,0.0,1.919,0.0,5.0,5.0,5.0,1.0,thread_08s.jpg,squirrel_02s.jpg,,,,,,,
,,,,,,,,,,,,21,,,,,,,,,,,0.0,4.0,4.0,4.0,1.0,new2backpresent_5_1.xlsx,new2back_compare_task_5_1.xlsx
0.0,1.0,0.848,0.0,0.0,0.0,0.0,1.0,omelet_07s.jpg,0.0,Blue.png,1.0,21,,,,,,,,,,,,,,,,,
0.0,1.0,1.203,0.0,1.0,1.0,1.0,1.0,popsicle_02s.jpg,0.0,Purple.png,1.0,21,,,,,,,,,,,,,,,,,
0.0,1.0,0.662,0.0,2.0,2.0,2.0,1.0,letter_opener_03s.jpg,0.0,Red.png,1.0,21,,,,,,,,,,,,,,,,,
0.0,1.0,0.728,0.0,3.0,3.0,3.0,1.0,diving_board_07s.jpg,0.0,Orange.png,1.0,21,,,,,,,,,,,,,,,,,
0.0,1.0,0.752,0.0,4.0,4.0,4.0,1.0,omelet_07s.jpg,0.0,Yellow.png,1.0,21,,,,,,,,,,,,,,,,,
0.0,1.0,0.81,0.0,5.0,5.0,5.0,1.0,letter_opener_03s.jpg,0.0,Green.png,1.0,21,,,,,,,,,,,,,,,,,
1.0,1.0,0.958,0.0,6.0,6.0,6.0,1.0,omelet_07s.jpg,1.0,Blue.png,2.0,21,,,,,,,,,,,,,,,,,
0.0,1.0,0.56,0.0,7.0,7.0,7.0,1.0,cape_11s.jpg,0.0,Purple.png,2.0,21,,,,,,,,,,,,,,,,,
1.0,1.0,0.581,0.0,8.0,8.0,8.0,1.0,omelet_07s.jpg,1.0,Red.png,2.0,21,,,,,,,,,,,,,,,,,
0.0,1.0,0.636,0.0,9.0,9.0,9.0,1.0,lantern_04s.jpg,0.0,Orange.png,2.0,21,,,,,,,,,,,,,,,,,
0.0,1.0,0.552,0.0,10.0,10.0,10.0,1.0,leotard_08s.jpg,0.0,Yellow.png,2.0,21,,,,,,,,,,,,,,,,,
0.0,1.0,0.616,0.0,11.0,11.0,11.0,1.0,pacifier_09s.jpg,0.0,Green.png,2.0,21,,,,,,,,,,,,,,,,,
0.0,1.0,0.525,0.0,12.0,12.0,12.0,1.0,rocking_horse_03s.jpg,0.0,Blue.png,3.0,21,,,,,,,,,,,,,,,,,
0.0,1.0,0.529,0.0,13.0,13.0,13.0,1.0,cardinal_07s.jpg,0.0,Purple.png,3.0,21,,,,,,,,,,,,,,,,,
0.0,1.0,0.575,0.0,14.0,14.0,14.0,1.0,hyena_16s.jpg,0.0,Red.png,3.0,21,,,,,,,,,,,,,,,,,
0.0,1.0,0.714,0.0,15.0,15.0,15.0,1.0,oil_02s.jpg,0.0,Orange.png,3.0,21,,,,,,,,,,,,,,,,,
0.0,1.0,0.567,0.0,16.0,16.0,16.0,1.0,marshmallow_08s.jpg,0.0,Yellow.png,3.0,21,,,,,,,,,,,,,,,,,
1.0,1.0,1.015,0.0,17.0,17.0,17.0,1.0,oil_02s.jpg,1.0,Green.png,3.0,21,,,,,,,,,,,,,,,,,
0.0,1.0,0.71,0.0,18.0,18.0,18.0,1.0,omelet_07s.jpg,0.0,Blue.png,4.0,21,,,,,,,,,,,,,,,,,
1.0,1.0,0.674,0.0,19.0,19.0,19.0,1.0,oil_02s.jpg,1.0,Purple.png,4.0,21,,,,,,,,,,,,,,,,,
0.0,1.0,0.574,0.0,20.0,20.0,20.0,1.0,knitting_needle_04s.jpg,0.0,Red.png,4.0,21,,,,,,,,,,,,,,,,,
1.0,1.0,0.478,0.0,21.0,21.0,21.0,1.0,oil_02s.jpg,1.0,Orange.png,4.0,21,,,,,,,,,,,,,,,,,
0.0,1.0,0.602,0.0,22.0,22.0,22.0,1.0,ice_pack_09s.jpg,0.0,Yellow.png,4.0,21,,,,,,,,,,,,,,,,,
0.0,1.0,0.692,0.0,23.0,23.0,23.0,1.0,peppermint_07s.jpg,0.0,Green.png,4.0,21,,,,,,,,,,,,,,,,,
0.0,1.0,0.631,0.0,24.0,24.0,24.0,1.0,submarine_11n.jpg,0.0,Blue.png,5.0,21,,,,,,,,,,,,,,,,,
0.0,1.0,0.7,0.0,25.0,25.0,25.0,1.0,seagull_01b.jpg,0.0,Purple.png,5.0,21,,,,,,,,,,,,,,,,,
0.0,1.0,0.634,0.0,26.0,26.0,26.0,1.0,omelet_07s.jpg,0.0,Red.png,5.0,21,,,,,,,,,,,,,,,,,
0.0,1.0,0.692,0.0,27.0,27.0,27.0,1.0,bonsai_07s.jpg,0.0,Orange.png,5.0,21,,,,,,,,,,,,,,,,,
0.0,1.0,0.627,0.0,28.0,28.0,28.0,1.0,bonsai_07s.jpg,0.0,Yellow.png,5.0,21,,,,,,,,,,,,,,,,,
0.0,1.0,0.806,0.0,29.0,29.0,29.0,1.0,omelet_07s.jpg,0.0,Green.png,5.0,21,,,,,,,,,,,,,,,,,
1.0,1.0,0.623,0.0,30.0,30.0,30.0,1.0,bonsai_07s.jpg,1.0,Blue.png,6.0,21,,,,,,,,,,,,,,,,,
0.0,1.0,0.599,0.0,31.0,31.0,31.0,1.0,quilt_03s.jpg,0.0,Purple.png,6.0,21,,,,,,,,,,,,,,,,,
0.0,1.0,0.595,0.0,32.0,32.0,32.0,1.0,incense_02s.jpg,0.0,Red.png,6.0,21,,,,,,,,,,,,,,,,,
1.0,1.0,0.855,0.0,33.0,33.0,33.0,1.0,quilt_03s.jpg,1.0,Orange.png,6.0,21,,,,,,,,,,,,,,,,,
1.0,1.0,2.083,0.0,34.0,34.0,34.0,1.0,incense_02s.jpg,1.0,Yellow.png,6.0,21,,,,,,,,,,,,,,,,,
0.0,1.0,0.986,0.0,35.0,35.0,35.0,1.0,incense_02s.jpg,0.0,Green.png,6.0,21,,,,,,,,,,,,,,,,,
,,,,,,,,,1.0,,,21,0.0,0.0,3.179,0.0,0.0,0.0,0.0,1.0,pacifier_09s.jpg,hyena_16s.jpg,,,,,,,
,,,,,,,,,0.0,,,21,1.0,0.0,1.347,0.0,1.0,1.0,1.0,1.0,peppermint_07s.jpg,knitting_needle_04s.jpg,,,,,,,
,,,,,,,,,1.0,,,21,1.0,1.0,1.236,0.0,2.0,2.0,2.0,1.0,ice_pack_09s.jpg,seagull_01b.jpg,,,,,,,
,,,,,,,,,0.0,,,21,0.0,1.0,2.74,0.0,3.0,3.0,3.0,1.0,marshmallow_08s.jpg,cardinal_07s.jpg,,,,,,,
,,,,,,,,,1.0,,,21,1.0,1.0,1.482,0.0,4.0,4.0,4.0,1.0,cape_11s.jpg,leotard_08s.jpg,,,,,,,
,,,,,,,,,1.0,,,21,1.0,1.0,1.722,0.0,5.0,5.0,5.0,1.0,lantern_04s.jpg,rocking_horse_03s.jpg,,,,,,,
,,,,,,,,,,,,21,,,,,,,,,,,0.0,5.0,5.0,5.0,1.0,new2backpresent_6_1.xlsx,new2back_compare_task_6_1.xlsx
0.0,1.0,0.745,0.0,0.0,0.0,0.0,1.0,petri_dish_12s.jpg,0.0,Blue.png,1.0,21,,,,,,,,,,,,,,,,,
0.0,1.0,0.654,0.0,1.0,1.0,1.0,1.0,toothpaste_12s.jpg,0.0,Purple.png,1.0,21,,,,,,,,,,,,,,,,,
0.0,1.0,0.502,0.0,2.0,2.0,2.0,1.0,medal_04s.jpg,0.0,Red.png,1.0,21,,,,,,,,,,,,,,,,,
0.0,1.0,0.638,0.0,3.0,3.0,3.0,1.0,potholder_02s.jpg,0.0,Orange.png,1.0,21,,,,,,,,,,,,,,,,,
0.0,1.0,0.572,0.0,4.0,4.0,4.0,1.0,puck_06s.jpg,0.0,Yellow.png,1.0,21,,,,,,,,,,,,,,,,,
0.0,1.0,0.612,0.0,5.0,5.0,5.0,1.0,bagel_15s.jpg,0.0,Green.png,1.0,21,,,,,,,,,,,,,,,,,
0.0,1.0,0.511,0.0,6.0,6.0,6.0,1.0,golf_club_03s.jpg,0.0,Blue.png,2.0,21,,,,,,,,,,,,,,,,,
0.0,1.0,0.754,0.0,7.0,7.0,7.0,1.0,golf_club_03s.jpg,0.0,Purple.png,2.0,21,,,,,,,,,,,,,,,,,
1.0,1.0,0.499,0.0,8.0,8.0,8.0,1.0,golf_club_03s.jpg,1.0,Red.png,2.0,21,,,,,,,,,,,,,,,,,
0.0,1.0,0.641,0.0,9.0,9.0,9.0,1.0,inhaler_01b.jpg,0.0,Orange.png,2.0,21,,,,,,,,,,,,,,,,,
1.0,1.0,0.473,0.0,10.0,10.0,10.0,1.0,golf_club_03s.jpg,1.0,Yellow.png,2.0,21,,,,,,,,,,,,,,,,,
0.0,1.0,0.684,0.0,11.0,11.0,11.0,1.0,tiger_06s.jpg,0.0,Green.png,2.0,21,,,,,,,,,,,,,,,,,
0.0,1.0,0.632,0.0,12.0,12.0,12.0,1.0,medal_04s.jpg,0.0,Blue.png,3.0,21,,,,,,,,,,,,,,,,,
0.0,1.0,0.449,0.0,13.0,13.0,13.0,1.0,medal_04s.jpg,0.0,Purple.png,3.0,21,,,,,,,,,,,,,,,,,
1.0,1.0,0.688,0.0,14.0,14.0,14.0,1.0,medal_04s.jpg,1.0,Red.png,3.0,21,,,,,,,,,,,,,,,,,
0.0,1.0,0.588,0.0,15.0,15.0,15.0,1.0,licorice_06s.jpg,0.0,Orange.png,3.0,21,,,,,,,,,,,,,,,,,
1.0,1.0,0.644,0.0,16.0,16.0,16.0,1.0,medal_04s.jpg,1.0,Yellow.png,3.0,21,,,,,,,,,,,,,,,,,
0.0,1.0,0.621,0.0,17.0,17.0,17.0,1.0,frog_09s.jpg,0.0,Green.png,3.0,21,,,,,,,,,,,,,,,,,
1.0,0.0,0.676,0.0,18.0,18.0,18.0,1.0,laser_pointer_02s.jpg,0.0,Blue.png,4.0,21,,,,,,,,,,,,,,,,,
0.0,1.0,0.767,0.0,19.0,19.0,19.0,1.0,treasure_08s.jpg,0.0,Purple.png,4.0,21,,,,,,,,,,,,,,,,,
0.0,1.0,0.623,0.0,20.0,20.0,20.0,1.0,padlock_07s.jpg,0.0,Red.png,4.0,21,,,,,,,,,,,,,,,,,
0.0,1.0,0.594,0.0,21.0,21.0,21.0,1.0,panda_02s.jpg,0.0,Orange.png,4.0,21,,,,,,,,,,,,,,,,,
0.0,1.0,1.002,0.0,22.0,22.0,22.0,1.0,plunger_08s.jpg,0.0,Yellow.png,4.0,21,,,,,,,,,,,,,,,,,
0.0,1.0,0.688,0.0,23.0,23.0,23.0,1.0,pancake_12s.jpg,0.0,Green.png,4.0,21,,,,,,,,,,,,,,,,,
0.0,1.0,0.579,0.0,24.0,24.0,24.0,1.0,fire_pit_10s.jpg,0.0,Blue.png,5.0,21,,,,,,,,,,,,,,,,,
0.0,1.0,0.684,0.0,25.0,25.0,25.0,1.0,bubble_01b.jpg,0.0,Purple.png,5.0,21,,,,,,,,,,,,,,,,,
0.0,1.0,0.877,0.0,26.0,26.0,26.0,1.0,bubble_01b.jpg,0.0,Red.png,5.0,21,,,,,,,,,,,,,,,,,
1.0,1.0,0.521,0.0,27.0,27.0,27.0,1.0,bubble_01b.jpg,1.0,Orange.png,5.0,21,,,,,,,,,,,,,,,,,
1.0,1.0,0.637,0.0,28.0,28.0,28.0,1.0,bubble_01b.jpg,1.0,Yellow.png,5.0,21,,,,,,,,,,,,,,,,,
0.0,1.0,0.626,0.0,29.0,29.0,29.0,1.0,power_line_08s.jpg,0.0,Green.png,5.0,21,,,,,,,,,,,,,,,,,
0.0,1.0,0.619,0.0,30.0,30.0,30.0,1.0,golf_club_03s.jpg,0.0,Blue.png,6.0,21,,,,,,,,,,,,,,,,,
0.0,1.0,0.917,0.0,31.0,31.0,31.0,1.0,kilt_18s.jpg,0.0,Purple.png,6.0,21,,,,,,,,,,,,,,,,,
0.0,1.0,0.681,0.0,32.0,32.0,32.0,1.0,tupperware_09s.jpg,0.0,Red.png,6.0,21,,,,,,,,,,,,,,,,,
0.0,1.0,0.626,0.0,33.0,33.0,33.0,1.0,go-kart_10s.jpg,0.0,Orange.png,6.0,21,,,,,,,,,,,,,,,,,
0.0,1.0,0.569,0.0,34.0,34.0,34.0,1.0,bottle_opener_11s.jpg,0.0,Yellow.png,6.0,21,,,,,,,,,,,,,,,,,
1.0,1.0,0.869,0.0,35.0,35.0,35.0,1.0,go-kart_10s.jpg,1.0,Green.png,6.0,21,,,,,,,,,,,,,,,,,
,,,,,,,,,1.0,,,21,1.0,1.0,1.56,0.0,0.0,0.0,0.0,1.0,toothpaste_12s.jpg,puck_06s.jpg,,,,,,,
,,,,,,,,,0.0,,,21,0.0,1.0,3.45,0.0,1.0,1.0,1.0,1.0,padlock_07s.jpg,frog_09s.jpg,,,,,,,
,,,,,,,,,0.0,,,21,1.0,0.0,2.433,0.0,2.0,2.0,2.0,1.0,plunger_08s.jpg,treasure_08s.jpg,,,,,,,
,,,,,,,,,1.0,,,21,1.0,1.0,1.244,0.0,3.0,3.0,3.0,1.0,licorice_06s.jpg,laser_pointer_02s.jpg,,,,,,,
,,,,,,,,,1.0,,,21,1.0,1.0,1.18,0.0,4.0,4.0,4.0,1.0,petri_dish_12s.jpg,potholder_02s.jpg,,,,,,,
,,,,,,,,,0.0,,,21,0.0,1.0,1.803,0.0,5.0,5.0,5.0,1.0,tupperware_09s.jpg,power_line_08s.jpg,,,,,,,
,,,,,,,,,,,,21,,,,,,,,,,,0.0,6.0,6.0,6.0,1.0,new2backpresent_7_1.xlsx,new2back_compare_task_7_1.xlsx
0.0,1.0,0.581,0.0,0.0,0.0,0.0,1.0,toad_09s.jpg,0.0,Blue.png,1.0,21,,,,,,,,,,,,,,,,,
0.0,1.0,0.637,0.0,1.0,1.0,1.0,1.0,toad_09s.jpg,0.0,Purple.png,1.0,21,,,,,,,,,,,,,,,,,
1.0,1.0,0.638,0.0,2.0,2.0,2.0,1.0,toad_09s.jpg,1.0,Red.png,1.0,21,,,,,,,,,,,,,,,,,
0.0,1.0,0.629,0.0,3.0,3.0,3.0,1.0,lamb_04s.jpg,0.0,Orange.png,1.0,21,,,,,,,,,,,,,,,,,
1.0,1.0,0.686,0.0,4.0,4.0,4.0,1.0,toad_09s.jpg,1.0,Yellow.png,1.0,21,,,,,,,,,,,,,,,,,
0.0,1.0,0.652,0.0,5.0,5.0,5.0,1.0,possum_09s.jpg,0.0,Green.png,1.0,21,,,,,,,,,,,,,,,,,
0.0,1.0,0.585,0.0,6.0,6.0,6.0,1.0,reindeer_08s.jpg,0.0,Blue.png,2.0,21,,,,,,,,,,,,,,,,,
0.0,1.0,0.697,0.0,7.0,7.0,7.0,1.0,reindeer_08s.jpg,0.0,Purple.png,2.0,21,,,,,,,,,,,,,,,,,
0.0,1.0,0.695,0.0,8.0,8.0,8.0,1.0,knot_01b.jpg,0.0,Red.png,2.0,21,,,,,,,,,,,,,,,,,
1.0,1.0,0.697,0.0,9.0,9.0,9.0,1.0,reindeer_08s.jpg,1.0,Orange.png,2.0,21,,,,,,,,,,,,,,,,,
0.0,1.0,0.521,0.0,10.0,10.0,10.0,1.0,pan_02s.jpg,0.0,Yellow.png,2.0,21,,,,,,,,,,,,,,,,,
0.0,1.0,0.56,0.0,11.0,11.0,11.0,1.0,ladle_04s.jpg,0.0,Green.png,2.0,21,,,,,,,,,,,,,,,,,
0.0,1.0,0.703,0.0,12.0,12.0,12.0,1.0,tuxedo_01b.jpg,0.0,Blue.png,3.0,21,,,,,,,,,,,,,,,,,
0.0,1.0,0.634,0.0,13.0,13.0,13.0,1.0,lemonade_04s.jpg,0.0,Purple.png,3.0,21,,,,,,,,,,,,,,,,,
0.0,1.0,0.694,0.0,14.0,14.0,14.0,1.0,cobra_05s.jpg,0.0,Red.png,3.0,21,,,,,,,,,,,,,,,,,
0.0,1.0,0.739,0.0,15.0,15.0,15.0,1.0,pocketknife_12s.jpg,0.0,Orange.png,3.0,21,,,,,,,,,,,,,,,,,
0.0,1.0,0.636,0.0,16.0,16.0,16.0,1.0,kettle_08s.jpg,0.0,Yellow.png,3.0,21,,,,,,,,,,,,,,,,,
0.0,1.0,0.626,0.0,17.0,17.0,17.0,1.0,spider_web_03s.jpg,0.0,Green.png,3.0,21,,,,,,,,,,,,,,,,,
0.0,1.0,0.628,0.0,18.0,18.0,18.0,1.0,pretzel_09s.jpg,0.0,Blue.png,4.0,21,,,,,,,,,,,,,,,,,
0.0,1.0,0.571,0.0,19.0,19.0,19.0,1.0,rock_08s.jpg,0.0,Purple.png,4.0,21,,,,,,,,,,,,,,,,,
0.0,1.0,0.692,0.0,20.0,20.0,20.0,1.0,boar_10s.jpg,0.0,Red.png,4.0,21,,,,,,,,,,,,,,,,,
0.0,1.0,0.565,0.0,21.0,21.0,21.0,1.0,sunglasses_11s.jpg,0.0,Orange.png,4.0,21,,,,,,,,,,,,,,,,,
1.0,1.0,0.585,0.0,22.0,22.0,22.0,1.0,boar_10s.jpg,1.0,Yellow.png,4.0,21,,,,,,,,,,,,,,,,,
0.0,1.0,0.937,0.0,23.0,23.0,23.0,1.0,smoothie_09s.jpg,0.0,Green.png,4.0,21,,,,,,,,,,,,,,,,,
0.0,1.0,0.581,0.0,24.0,24.0,24.0,1.0,latch_15s.jpg,0.0,Blue.png,5.0,21,,,,,,,,,,,,,,,,,
0.0,1.0,0.577,0.0,25.0,25.0,25.0,1.0,amber_04s.jpg,0.0,Purple.png,5.0,21,,,,,,,,,,,,,,,,,
0.0,1.0,0.668,0.0,26.0,26.0,26.0,1.0,amber_04s.jpg,0.0,Red.png,5.0,21,,,,,,,,,,,,,,,,,
0.0,1.0,0.648,0.0,27.0,27.0,27.0,1.0,tennis_ball_06s.jpg,0.0,Orange.png,5.0,21,,,,,,,,,,,,,,,,,
1.0,1.0,0.635,0.0,28.0,28.0,28.0,1.0,amber_04s.jpg,1.0,Yellow.png,5.0,21,,,,,,,,,,,,,,,,,
0.0,1.0,0.565,0.0,29.0,29.0,29.0,1.0,milk_02s.jpg,0.0,Green.png,5.0,21,,,,,,,,,,,,,,,,,
0.0,1.0,0.648,0.0,30.0,30.0,30.0,1.0,coat_rack_01b.jpg,0.0,Blue.png,6.0,21,,,,,,,,,,,,,,,,,
0.0,1.0,0.802,0.0,31.0,31.0,31.0,1.0,thorn_13s.jpg,0.0,Purple.png,6.0,21,,,,,,,,,,,,,,,,,
1.0,1.0,0.786,0.0,32.0,32.0,32.0,1.0,coat_rack_01b.jpg,1.0,Red.png,6.0,21,,,,,,,,,,,,,,,,,
0.0,1.0,0.575,0.0,33.0,33.0,33.0,1.0,razor_blade_01b.jpg,0.0,Orange.png,6.0,21,,,,,,,,,,,,,,,,,
0.0,1.0,0.866,0.0,34.0,34.0,34.0,1.0,lid_10s.jpg,0.0,Yellow.png,6.0,21,,,,,,,,,,,,,,,,,
0.0,1.0,0.815,0.0,35.0,35.0,35.0,1.0,lid_10s.jpg,0.0,Green.png,6.0,21,,,,,,,,,,,,,,,,,
,,,,,,,,,0.0,,,21,0.0,1.0,1.999,0.0,0.0,0.0,0.0,1.0,pocketknife_12s.jpg,tuxedo_01b.jpg,,,,,,,
,,,,,,,,,1.0,,,21,1.0,1.0,1.295,0.0,1.0,1.0,1.0,1.0,possum_09s.jpg,knot_01b.jpg,,,,,,,
,,,,,,,,,1.0,,,21,1.0,1.0,1.954,0.0,2.0,2.0,2.0,1.0,pan_02s.jpg,lemonade_04s.jpg,,,,,,,
,,,,,,,,,0.0,,,21,1.0,0.0,2.014,0.0,3.0,3.0,3.0,1.0,tennis_ball_06s.jpg,latch_15s.jpg,,,,,,,
,,,,,,,,,0.0,,,21,0.0,1.0,1.279,0.0,4.0,4.0,4.0,1.0,rock_08s.jpg,kettle_08s.jpg,,,,,,,
,,,,,,,,,1.0,,,21,1.0,1.0,1.738,0.0,5.0,5.0,5.0,1.0,cobra_05s.jpg,spider_web_03s.jpg,,,,,,,
,,,,,,,,,,,,21,,,,,,,,,,,0.0,7.0,7.0,7.0,1.0,new2backpresent_8_1.xlsx,new2back_compare_task_8_1.xlsx
0.0,1.0,0.819,0.0,0.0,0.0,0.0,1.0,recliner_02s.jpg,0.0,Blue.png,1.0,21,,,,,,,,,,,,,,,,,
0.0,1.0,0.62,0.0,1.0,1.0,1.0,1.0,lava_02s.jpg,0.0,Purple.png,1.0,21,,,,,,,,,,,,,,,,,
0.0,1.0,0.616,0.0,2.0,2.0,2.0,1.0,quesadilla_07s.jpg,0.0,Red.png,1.0,21,,,,,,,,,,,,,,,,,
0.0,1.0,0.457,0.0,3.0,3.0,3.0,1.0,chalice_10s.jpg,0.0,Orange.png,1.0,21,,,,,,,,,,,,,,,,,
0.0,1.0,0.564,0.0,4.0,4.0,4.0,1.0,tulip_02s.jpg,0.0,Yellow.png,1.0,21,,,,,,,,,,,,,,,,,
0.0,1.0,0.946,0.0,5.0,5.0,5.0,1.0,quesadilla_07s.jpg,0.0,Green.png,1.0,21,,,,,,,,,,,,,,,,,
0.0,1.0,0.579,0.0,6.0,6.0,6.0,1.0,lamppost_09s.jpg,0.0,Blue.png,2.0,21,,,,,,,,,,,,,,,,,
0.0,1.0,0.51,0.0,7.0,7.0,7.0,1.0,chopsticks_08s.jpg,0.0,Purple.png,2.0,21,,,,,,,,,,,,,,,,,
0.0,1.0,0.756,0.0,8.0,8.0,8.0,1.0,refrigerator_07s.jpg,0.0,Red.png,2.0,21,,,,,,,,,,,,,,,,,
1.0,1.0,0.572,0.0,9.0,9.0,9.0,1.0,chopsticks_08s.jpg,1.0,Orange.png,2.0,21,,,,,,,,,,,,,,,,,
0.0,1.0,0.566,0.0,10.0,10.0,10.0,1.0,paper_towel_03s.jpg,0.0,Yellow.png,2.0,21,,,,,,,,,,,,,,,,,
0.0,1.0,0.569,0.0,11.0,11.0,11.0,1.0,flask_04s.jpg,0.0,Green.png,2.0,21,,,,,,,,,,,,,,,,,
0.0,1.0,0.562,0.0,12.0,12.0,12.0,1.0,pantyhose_07s.jpg,0.0,Blue.png,3.0,21,,,,,,,,,,,,,,,,,
1.0,1.0,0.715,0.0,13.0,13.0,13.0,1.0,flask_04s.jpg,1.0,Purple.png,3.0,21,,,,,,,,,,,,,,,,,
0.0,1.0,0.824,0.0,14.0,14.0,14.0,1.0,chopsticks_08s.jpg,0.0,Red.png,3.0,21,,,,,,,,,,,,,,,,,
0.0,1.0,0.528,0.0,15.0,15.0,15.0,1.0,seahorse_13s.jpg,0.0,Orange.png,3.0,21,,,,,,,,,,,,,,,,,
0.0,1.0,0.526,0.0,16.0,16.0,16.0,1.0,pencil_sharpener_09n.jpg,0.0,Yellow.png,3.0,21,,,,,,,,,,,,,,,,,
0.0,1.0,0.559,0.0,17.0,17.0,17.0,1.0,clover_04s.jpg,0.0,Green.png,3.0,21,,,,,,,,,,,,,,,,,
1.0,1.0,0.624,0.0,18.0,18.0,18.0,1.0,pencil_sharpener_09n.jpg,1.0,Blue.png,4.0,21,,,,,,,,,,,,,,,,,
0.0,1.0,0.571,0.0,19.0,19.0,19.0,1.0,fishhook_06s.jpg,0.0,Purple.png,4.0,21,,,,,,,,,,,,,,,,,
0.0,1.0,0.873,0.0,20.0,20.0,20.0,1.0,clover_04s.jpg,0.0,Red.png,4.0,21,,,,,,,,,,,,,,,,,
0.0,1.0,0.74,0.0,21.0,21.0,21.0,1.0,stopwatch_04s.jpg,0.0,Orange.png,4.0,21,,,,,,,,,,,,,,,,,
0.0,1.0,0.638,0.0,22.0,22.0,22.0,1.0,comic_book_02s.jpg,0.0,Yellow.png,4.0,21,,,,,,,,,,,,,,,,,
0.0,1.0,0.588,0.0,23.0,23.0,23.0,1.0,lab_coat_11s.jpg,0.0,Green.png,4.0,21,,,,,,,,,,,,,,,,,
0.0,1.0,0.572,0.0,24.0,24.0,24.0,1.0,bolo_tie_08s.jpg,0.0,Blue.png,5.0,21,,,,,,,,,,,,,,,,,
0.0,1.0,0.652,0.0,25.0,25.0,25.0,1.0,teacup_07s.jpg,0.0,Purple.png,5.0,21,,,,,,,,,,,,,,,,,
0.0,1.0,0.753,0.0,26.0,26.0,26.0,1.0,eyedropper_12s.jpg,0.0,Red.png,5.0,21,,,,,,,,,,,,,,,,,
0.0,1.0,0.516,0.0,27.0,27.0,27.0,1.0,frame_06s.jpg,0.0,Orange.png,5.0,21,,,,,,,,,,,,,,,,,
0.0,1.0,0.559,0.0,28.0,28.0,28.0,1.0,treadmill_06s.jpg,0.0,Yellow.png,5.0,21,,,,,,,,,,,,,,,,,
0.0,1.0,0.764,0.0,29.0,29.0,29.0,1.0,mug_06s.jpg,0.0,Green.png,5.0,21,,,,,,,,,,,,,,,,,
0.0,1.0,1.065,0.0,30.0,30.0,30.0,1.0,mug_06s.jpg,0.0,Blue.png,6.0,21,,,,,,,,,,,,,,,,,
1.0,1.0,0.504,0.0,31.0,31.0,31.0,1.0,mug_06s.jpg,1.0,Purple.png,6.0,21,,,,,,,,,,,,,,,,,
0.0,1.0,0.75,0.0,32.0,32.0,32.0,1.0,chip_04s.jpg,0.0,Red.png,6.0,21,,,,,,,,,,,,,,,,,
0.0,1.0,0.588,0.0,33.0,33.0,33.0,1.0,gazelle_10s.jpg,0.0,Orange.png,6.0,21,,,,,,,,,,,,,,,,,
1.0,1.0,0.568,0.0,34.0,34.0,34.0,1.0,chip_04s.jpg,1.0,Yellow.png,6.0,21,,,,,,,,,,,,,,,,,
0.0,1.0,0.519,0.0,35.0,35.0,35.0,1.0,quill_09s.jpg,0.0,Green.png,6.0,21,,,,,,,,,,,,,,,,,
,,,,,,,,,0.0,,,21,1.0,0.0,1.722,0.0,0.0,0.0,0.0,1.0,bolo_tie_08s.jpg,stopwatch_04s.jpg,,,,,,,
,,,,,,,,,0.0,,,21,0.0,1.0,2.942,0.0,1.0,1.0,1.0,1.0,lamppost_09s.jpg,chalice_10s.jpg,,,,,,,
,,,,,,,,,0.0,,,21,0.0,1.0,1.773,0.0,2.0,2.0,2.0,1.0,eyedropper_12s.jpg,lab_coat_11s.jpg,,,,,,,
,,,,,,,,,1.0,,,21,1.0,1.0,0.913,0.0,3.0,3.0,3.0,1.0,lava_02s.jpg,tulip_02s.jpg,,,,,,,
,,,,,,,,,0.0,,,21,1.0,0.0,1.727,0.0,4.0,4.0,4.0,1.0,seahorse_13s.jpg,pantyhose_07s.jpg,,,,,,,
,,,,,,,,,1.0,,,21,1.0,1.0,1.879,0.0,5.0,5.0,5.0,1.0,fishhook_06s.jpg,comic_book_02s.jpg,,,,,,,
,,,,,,,,,,,,21,,,,,,,,,,,0.0,8.0,8.0,8.0,1.0,new2backpresent_9_1.xlsx,new2back_compare_task_9_1.xlsx
