key_resp.keys,key_resp.corr,key_resp.rt,present_segment.thisRepN,present_segment.thisTrialN,present_segment.thisN,present_segment.thisIndex,present_segment.ran,pictures,answer,clock,segment,participant,key_resp_2.keys,key_resp_2.corr,key_resp_2.rt,compare_segment.thisRepN,compare_segment.thisTrialN,compare_segment.thisN,compare_segment.thisIndex,compare_segment.ran,item_a,item_b,clock_conditions.thisRepN,clock_conditions.thisTrialN,clock_conditions.thisN,clock_conditions.thisIndex,clock_conditions.ran,present,compare
0.0,1.0,1.97662,0.0,0.0,0.0,0.0,1.0,mirror_12s.jpg,0.0,Blue.png,1.0,102,,,,,,,,,,,,,,,,,
0.0,1.0,0.89542,0.0,1.0,1.0,1.0,1.0,polaroid_05s.jpg,0.0,Purple.png,1.0,102,,,,,,,,,,,,,,,,,
0.0,1.0,0.99417,0.0,2.0,2.0,2.0,1.0,polaroid_05s.jpg,0.0,Red.png,1.0,102,,,,,,,,,,,,,,,,,
0.0,1.0,0.452325,0.0,3.0,3.0,3.0,1.0,slingshot_07s.jpg,0.0,Orange.png,1.0,102,,,,,,,,,,,,,,,,,
1.0,1.0,0.75158,0.0,4.0,4.0,4.0,1.0,polaroid_05s.jpg,1.0,Yellow.png,1.0,102,,,,,,,,,,,,,,,,,
0.0,1.0,0.88741,0.0,5.0,5.0,5.0,1.0,kettle_08s.jpg,0.0,Green.png,1.0,102,,,,,,,,,,,,,,,,,
0.0,1.0,1.12954,0.0,6.0,6.0,6.0,1.0,crystal_ball_12s.jpg,0.0,Blue.png,2.0,102,,,,,,,,,,,,,,,,,
0.0,1.0,1.52023,0.0,7.0,7.0,7.0,1.0,iron_13s.jpg,0.0,Purple.png,2.0,102,,,,,,,,,,,,,,,,,
0.0,1.0,1.078365,0.0,8.0,8.0,8.0,1.0,saddle_06s.jpg,0.0,Red.png,2.0,102,,,,,,,,,,,,,,,,,
0.0,1.0,1.289015,0.0,9.0,9.0,9.0,1.0,mango_09s.jpg,0.0,Orange.png,2.0,102,,,,,,,,,,,,,,,,,
0.0,1.0,0.964185,0.0,10.0,10.0,10.0,1.0,ostrich_06s.jpg,0.0,Yellow.png,2.0,102,,,,,,,,,,,,,,,,,
0.0,1.0,1.6213,0.0,11.0,11.0,11.0,1.0,iron_13s.jpg,0.0,Green.png,2.0,102,,,,,,,,,,,,,,,,,
0.0,1.0,2.4141,0.0,12.0,12.0,12.0,1.0,stethoscope_01b.jpg,0.0,Blue.png,3.0,102,,,,,,,,,,,,,,,,,
0.0,1.0,1.40422,0.0,13.0,13.0,13.0,1.0,ruby_15s.jpg,0.0,Purple.png,3.0,102,,,,,,,,,,,,,,,,,
0.0,1.0,1.094075,0.0,14.0,14.0,14.0,1.0,mango_09s.jpg,0.0,Red.png,3.0,102,,,,,,,,,,,,,,,,,
0.0,1.0,2.210065,0.0,15.0,15.0,15.0,1.0,target_11s.jpg,0.0,Orange.png,3.0,102,,,,,,,,,,,,,,,,,
1.0,1.0,0.995725,0.0,16.0,16.0,16.0,1.0,mango_09s.jpg,1.0,Yellow.png,3.0,102,,,,,,,,,,,,,,,,,
0.0,1.0,0.69356,0.0,17.0,17.0,17.0,1.0,compass_10n.jpg,0.0,Green.png,3.0,102,,,,,,,,,,,,,,,,,
0.0,1.0,1.009425,0.0,18.0,18.0,18.0,1.0,meatball_13s.jpg,0.0,Blue.png,4.0,102,,,,,,,,,,,,,,,,,
0.0,1.0,0.71724,0.0,19.0,19.0,19.0,1.0,stapler_01b.jpg,0.0,Purple.png,4.0,102,,,,,,,,,,,,,,,,,
1.0,1.0,0.72731,0.0,20.0,20.0,20.0,1.0,meatball_13s.jpg,1.0,Red.png,4.0,102,,,,,,,,,,,,,,,,,
0.0,1.0,0.677095,0.0,21.0,21.0,21.0,1.0,pump_11s.jpg,0.0,Orange.png,4.0,102,,,,,,,,,,,,,,,,,
0.0,1.0,1.027185,0.0,22.0,22.0,22.0,1.0,coral_08s.jpg,0.0,Yellow.png,4.0,102,,,,,,,,,,,,,,,,,
0.0,1.0,1.224415,0.0,23.0,23.0,23.0,1.0,meatball_13s.jpg,0.0,Green.png,4.0,102,,,,,,,,,,,,,,,,,
0.0,1.0,2.16684,0.0,24.0,24.0,24.0,1.0,peach_04s.jpg,0.0,Blue.png,5.0,102,,,,,,,,,,,,,,,,,
1.0,1.0,0.70298,0.0,25.0,25.0,25.0,1.0,meatball_13s.jpg,1.0,Purple.png,5.0,102,,,,,,,,,,,,,,,,,
0.0,1.0,1.86069,0.0,26.0,26.0,26.0,1.0,pie_08s.jpg,0.0,Red.png,5.0,102,,,,,,,,,,,,,,,,,
0.0,1.0,0.709395,0.0,27.0,27.0,27.0,1.0,rollerskate_03s.jpg,0.0,Orange.png,5.0,102,,,,,,,,,,,,,,,,,
0.0,1.0,0.854235,0.0,28.0,28.0,28.0,1.0,trampoline_13s.jpg,0.0,Yellow.png,5.0,102,,,,,,,,,,,,,,,,,
0.0,1.0,0.72249,0.0,29.0,29.0,29.0,1.0,undershirt_02s.jpg,0.0,Green.png,5.0,102,,,,,,,,,,,,,,,,,
0.0,1.0,1.05263,0.0,30.0,30.0,30.0,1.0,thread_08s.jpg,0.0,Blue.png,6.0,102,,,,,,,,,,,,,,,,,
0.0,1.0,1.30771,0.0,31.0,31.0,31.0,1.0,megaphone_03s.jpg,0.0,Purple.png,6.0,102,,,,,,,,,,,,,,,,,
0.0,1.0,0.949855,0.0,32.0,32.0,32.0,1.0,plaster_cast_13s.jpg,0.0,Red.png,6.0,102,,,,,,,,,,,,,,,,,
0.0,1.0,0.7759,0.0,33.0,33.0,33.0,1.0,diving_board_07s.jpg,0.0,Orange.png,6.0,102,,,,,,,,,,,,,,,,,
0.0,1.0,1.076735,0.0,34.0,34.0,34.0,1.0,kayak_08s.jpg,0.0,Yellow.png,6.0,102,,,,,,,,,,,,,,,,,
1.0,1.0,1.67537,0.0,35.0,35.0,35.0,1.0,diving_board_07s.jpg,1.0,Green.png,6.0,102,,,,,,,,,,,,,,,,,
,,,,,,,,,1.0,,,102,1.0,1.0,2.904695,0.0,0.0,0.0,0.0,1.0,stapler_01b.jpg,coral_08s.jpg,,,,,,,
,,,,,,,,,1.0,,,102,0.0,0.0,3.987715,0.0,1.0,1.0,1.0,1.0,slingshot_07s.jpg,crystal_ball_12s.jpg,,,,,,,
,,,,,,,,,0.0,,,102,0.0,1.0,3.89372,0.0,2.0,2.0,2.0,1.0,saddle_06s.jpg,kettle_08s.jpg,,,,,,,
,,,,,,,,,1.0,,,102,1.0,1.0,1.54663,0.0,3.0,3.0,3.0,1.0,pie_08s.jpg,undershirt_02s.jpg,,,,,,,
,,,,,,,,,1.0,,,102,0.0,0.0,1.62,0.0,4.0,4.0,4.0,1.0,stethoscope_01b.jpg,target_11s.jpg,,,,,,,
,,,,,,,,,1.0,,,102,1.0,1.0,8.415475,0.0,5.0,5.0,5.0,1.0,ostrich_06s.jpg,ruby_15s.jpg,,,,,,,
,,,,,,,,,,,,102,,,,,,,,,,,0.0,0.0,0.0,0.0,1.0,new2backpresent_1_4.xlsx,new2back_compare_task_1_4.xlsx
0.0,1.0,2.09445,0.0,0.0,0.0,0.0,1.0,jetski_10s.jpg,0.0,Blue.png,1.0,102,,,,,,,,,,,,,,,,,
0.0,1.0,0.737305,0.0,1.0,1.0,1.0,1.0,tripod_01b.jpg,0.0,Purple.png,1.0,102,,,,,,,,,,,,,,,,,
,0.0,,0.0,2.0,2.0,2.0,1.0,lab_coat_11s.jpg,0.0,Red.png,1.0,102,,,,,,,,,,,,,,,,,
0.0,1.0,0.789205,0.0,3.0,3.0,3.0,1.0,foam_03s.jpg,0.0,Orange.png,1.0,102,,,,,,,,,,,,,,,,,
0.0,1.0,0.99243,0.0,4.0,4.0,4.0,1.0,crate_05s.jpg,0.0,Yellow.png,1.0,102,,,,,,,,,,,,,,,,,
0.0,1.0,1.53097,0.0,5.0,5.0,5.0,1.0,margarita_03s.jpg,0.0,Green.png,1.0,102,,,,,,,,,,,,,,,,,
0.0,1.0,1.0977,0.0,6.0,6.0,6.0,1.0,joystick_01b.jpg,0.0,Blue.png,2.0,102,,,,,,,,,,,,,,,,,
0.0,1.0,0.911955,0.0,7.0,7.0,7.0,1.0,giraffe_11s.jpg,0.0,Purple.png,2.0,102,,,,,,,,,,,,,,,,,
0.0,1.0,0.66443,0.0,8.0,8.0,8.0,1.0,quilt_03s.jpg,0.0,Red.png,2.0,102,,,,,,,,,,,,,,,,,
1.0,1.0,0.667785,0.0,9.0,9.0,9.0,1.0,giraffe_11s.jpg,1.0,Orange.png,2.0,102,,,,,,,,,,,,,,,,,
0.0,1.0,0.842375,0.0,10.0,10.0,10.0,1.0,pincushion_10s.jpg,0.0,Yellow.png,2.0,102,,,,,,,,,,,,,,,,,
1.0,1.0,0.49574,0.0,11.0,11.0,11.0,1.0,giraffe_11s.jpg,1.0,Green.png,2.0,102,,,,,,,,,,,,,,,,,
1.0,1.0,0.910615,0.0,12.0,12.0,12.0,1.0,pincushion_10s.jpg,1.0,Blue.png,3.0,102,,,,,,,,,,,,,,,,,
1.0,1.0,1.446355,0.0,13.0,13.0,13.0,1.0,giraffe_11s.jpg,1.0,Purple.png,3.0,102,,,,,,,,,,,,,,,,,
0.0,1.0,0.910845,0.0,14.0,14.0,14.0,1.0,rolling_pin_02s.jpg,0.0,Red.png,3.0,102,,,,,,,,,,,,,,,,,
0.0,1.0,1.414135,0.0,15.0,15.0,15.0,1.0,ticktacktoe_08s.jpg,0.0,Orange.png,3.0,102,,,,,,,,,,,,,,,,,
1.0,0.0,0.84465,0.0,16.0,16.0,16.0,1.0,giraffe_11s.jpg,0.0,Yellow.png,3.0,102,,,,,,,,,,,,,,,,,
1.0,1.0,1.342835,0.0,17.0,17.0,17.0,1.0,ticktacktoe_08s.jpg,1.0,Green.png,3.0,102,,,,,,,,,,,,,,,,,
0.0,1.0,0.779995,0.0,18.0,18.0,18.0,1.0,typewriter_11s.jpg,0.0,Blue.png,4.0,102,,,,,,,,,,,,,,,,,
0.0,1.0,0.720495,0.0,19.0,19.0,19.0,1.0,toothpaste_12s.jpg,0.0,Purple.png,4.0,102,,,,,,,,,,,,,,,,,
0.0,1.0,0.670895,0.0,20.0,20.0,20.0,1.0,hummingbird_05s.jpg,0.0,Red.png,4.0,102,,,,,,,,,,,,,,,,,
1.0,1.0,1.23615,0.0,21.0,21.0,21.0,1.0,toothpaste_12s.jpg,1.0,Orange.png,4.0,102,,,,,,,,,,,,,,,,,
0.0,1.0,1.952255,0.0,22.0,22.0,22.0,1.0,toothpaste_12s.jpg,0.0,Yellow.png,4.0,102,,,,,,,,,,,,,,,,,
0.0,1.0,0.915365,0.0,23.0,23.0,23.0,1.0,treadmill_06s.jpg,0.0,Green.png,4.0,102,,,,,,,,,,,,,,,,,
0.0,1.0,2.034805,0.0,24.0,24.0,24.0,1.0,typewriter_11s.jpg,0.0,Blue.png,5.0,102,,,,,,,,,,,,,,,,,
0.0,1.0,0.795715,0.0,25.0,25.0,25.0,1.0,penguin_16s.jpg,0.0,Purple.png,5.0,102,,,,,,,,,,,,,,,,,
0.0,1.0,1.09526,0.0,26.0,26.0,26.0,1.0,olive_05s.jpg,0.0,Red.png,5.0,102,,,,,,,,,,,,,,,,,
1.0,1.0,0.54248,0.0,27.0,27.0,27.0,1.0,penguin_16s.jpg,1.0,Orange.png,5.0,102,,,,,,,,,,,,,,,,,
0.0,1.0,1.817425,0.0,28.0,28.0,28.0,1.0,penguin_16s.jpg,0.0,Yellow.png,5.0,102,,,,,,,,,,,,,,,,,
0.0,1.0,0.87759,0.0,29.0,29.0,29.0,1.0,tab_09s.jpg,0.0,Green.png,5.0,102,,,,,,,,,,,,,,,,,
0.0,1.0,0.675665,0.0,30.0,30.0,30.0,1.0,frame_06s.jpg,0.0,Blue.png,6.0,102,,,,,,,,,,,,,,,,,
0.0,1.0,0.894135,0.0,31.0,31.0,31.0,1.0,mop_08s.jpg,0.0,Purple.png,6.0,102,,,,,,,,,,,,,,,,,
0.0,1.0,0.675455,0.0,32.0,32.0,32.0,1.0,memory_stick_11s.jpg,0.0,Red.png,6.0,102,,,,,,,,,,,,,,,,,
0.0,1.0,1.269955,0.0,33.0,33.0,33.0,1.0,olive_05s.jpg,0.0,Orange.png,6.0,102,,,,,,,,,,,,,,,,,
0.0,1.0,1.690895,0.0,34.0,34.0,34.0,1.0,ravioli_08s.jpg,0.0,Yellow.png,6.0,102,,,,,,,,,,,,,,,,,
0.0,1.0,2.01191,0.0,35.0,35.0,35.0,1.0,mousetrap_15n.jpg,0.0,Green.png,6.0,102,,,,,,,,,,,,,,,,,
,,,,,,,,,1.0,,,102,1.0,1.0,1.355845,0.0,0.0,0.0,0.0,1.0,hummingbird_05s.jpg,treadmill_06s.jpg,,,,,,,
,,,,,,,,,1.0,,,102,1.0,1.0,1.9457,0.0,1.0,1.0,1.0,1.0,margarita_03s.jpg,quilt_03s.jpg,,,,,,,
,,,,,,,,,0.0,,,102,0.0,1.0,1.42627,0.0,2.0,2.0,2.0,1.0,joystick_01b.jpg,foam_03s.jpg,,,,,,,
,,,,,,,,,0.0,,,102,1.0,0.0,1.75891,0.0,3.0,3.0,3.0,1.0,ravioli_08s.jpg,mop_08s.jpg,,,,,,,
,,,,,,,,,1.0,,,102,1.0,1.0,1.45713,0.0,4.0,4.0,4.0,1.0,tab_09s.jpg,memory_stick_11s.jpg,,,,,,,
,,,,,,,,,1.0,,,102,1.0,1.0,2.624435,0.0,5.0,5.0,5.0,1.0,tripod_01b.jpg,crate_05s.jpg,,,,,,,
,,,,,,,,,,,,102,,,,,,,,,,,0.0,1.0,1.0,1.0,1.0,new2backpresent_2_4.xlsx,new2back_compare_task_2_4.xlsx
0.0,1.0,1.251845,0.0,0.0,0.0,0.0,1.0,safety_pin_02s.jpg,0.0,Blue.png,1.0,102,,,,,,,,,,,,,,,,,
0.0,1.0,0.929195,0.0,1.0,1.0,1.0,1.0,safety_pin_02s.jpg,0.0,Purple.png,1.0,102,,,,,,,,,,,,,,,,,
0.0,1.0,1.026405,0.0,2.0,2.0,2.0,1.0,cardinal_07s.jpg,0.0,Red.png,1.0,102,,,,,,,,,,,,,,,,,
1.0,1.0,0.742535,0.0,3.0,3.0,3.0,1.0,safety_pin_02s.jpg,1.0,Orange.png,1.0,102,,,,,,,,,,,,,,,,,
0.0,1.0,0.650725,0.0,4.0,4.0,4.0,1.0,potholder_02s.jpg,0.0,Yellow.png,1.0,102,,,,,,,,,,,,,,,,,
1.0,1.0,1.38108,0.0,5.0,5.0,5.0,1.0,safety_pin_02s.jpg,1.0,Green.png,1.0,102,,,,,,,,,,,,,,,,,
0.0,1.0,1.493815,0.0,6.0,6.0,6.0,1.0,cardinal_07s.jpg,0.0,Blue.png,2.0,102,,,,,,,,,,,,,,,,,
0.0,1.0,0.759075,0.0,7.0,7.0,7.0,1.0,lion_18s.jpg,0.0,Purple.png,2.0,102,,,,,,,,,,,,,,,,,
0.0,1.0,1.00874,0.0,8.0,8.0,8.0,1.0,comic_book_02s.jpg,0.0,Red.png,2.0,102,,,,,,,,,,,,,,,,,
0.0,1.0,1.07691,0.0,9.0,9.0,9.0,1.0,lizard_10n.jpg,0.0,Orange.png,2.0,102,,,,,,,,,,,,,,,,,
0.0,1.0,0.952425,0.0,10.0,10.0,10.0,1.0,rice_12s.jpg,0.0,Yellow.png,2.0,102,,,,,,,,,,,,,,,,,
0.0,1.0,1.347475,0.0,11.0,11.0,11.0,1.0,bagel_15s.jpg,0.0,Green.png,2.0,102,,,,,,,,,,,,,,,,,
0.0,1.0,0.893435,0.0,12.0,12.0,12.0,1.0,recliner_02s.jpg,0.0,Blue.png,3.0,102,,,,,,,,,,,,,,,,,
0.0,1.0,1.826855,0.0,13.0,13.0,13.0,1.0,recliner_02s.jpg,0.0,Purple.png,3.0,102,,,,,,,,,,,,,,,,,
0.0,1.0,1.24144,0.0,14.0,14.0,14.0,1.0,luggage_08s.jpg,0.0,Red.png,3.0,102,,,,,,,,,,,,,,,,,
1.0,1.0,1.03349,0.0,15.0,15.0,15.0,1.0,recliner_02s.jpg,1.0,Orange.png,3.0,102,,,,,,,,,,,,,,,,,
0.0,1.0,0.68604,0.0,16.0,16.0,16.0,1.0,onion_10s.jpg,0.0,Yellow.png,3.0,102,,,,,,,,,,,,,,,,,
0.0,1.0,1.1248,0.0,17.0,17.0,17.0,1.0,rosary_03s.jpg,0.0,Green.png,3.0,102,,,,,,,,,,,,,,,,,
0.0,1.0,1.0628,0.0,18.0,18.0,18.0,1.0,smokingpipe.jpg,0.0,Blue.png,4.0,102,,,,,,,,,,,,,,,,,
0.0,1.0,0.9739,0.0,19.0,19.0,19.0,1.0,roulette_wheel_04s.jpg,0.0,Purple.png,4.0,102,,,,,,,,,,,,,,,,,
1.0,1.0,0.83088,0.0,20.0,20.0,20.0,1.0,smokingpipe.jpg,1.0,Red.png,4.0,102,,,,,,,,,,,,,,,,,
0.0,1.0,0.80334,0.0,21.0,21.0,21.0,1.0,orchid_01b.jpg,0.0,Orange.png,4.0,102,,,,,,,,,,,,,,,,,
0.0,1.0,0.82547,0.0,22.0,22.0,22.0,1.0,buoy_04s.jpg,0.0,Yellow.png,4.0,102,,,,,,,,,,,,,,,,,
0.0,1.0,0.846155,0.0,23.0,23.0,23.0,1.0,stopwatch_04s.jpg,0.0,Green.png,4.0,102,,,,,,,,,,,,,,,,,
0.0,1.0,0.942325,0.0,24.0,24.0,24.0,1.0,knitting_needle_04s.jpg,0.0,Blue.png,5.0,102,,,,,,,,,,,,,,,,,
0.0,1.0,1.95037,0.0,25.0,25.0,25.0,1.0,prism_10s.jpg,0.0,Purple.png,5.0,102,,,,,,,,,,,,,,,,,
0.0,1.0,1.027115,0.0,26.0,26.0,26.0,1.0,teapot_03s.jpg,0.0,Red.png,5.0,102,,,,,,,,,,,,,,,,,
0.0,1.0,1.24911,0.0,27.0,27.0,27.0,1.0,fire_pit_10s.jpg,0.0,Orange.png,5.0,102,,,,,,,,,,,,,,,,,
0.0,1.0,1.33571,0.0,28.0,28.0,28.0,1.0,fire_pit_10s.jpg,0.0,Yellow.png,5.0,102,,,,,,,,,,,,,,,,,
1.0,1.0,0.85292,0.0,29.0,29.0,29.0,1.0,fire_pit_10s.jpg,1.0,Green.png,5.0,102,,,,,,,,,,,,,,,,,
0.0,1.0,0.60433,0.0,30.0,30.0,30.0,1.0,ironing_board_07s.jpg,0.0,Blue.png,6.0,102,,,,,,,,,,,,,,,,,
1.0,1.0,0.5355,0.0,31.0,31.0,31.0,1.0,fire_pit_10s.jpg,1.0,Purple.png,6.0,102,,,,,,,,,,,,,,,,,
0.0,1.0,0.863975,0.0,32.0,32.0,32.0,1.0,mattress_01s.jpg,0.0,Red.png,6.0,102,,,,,,,,,,,,,,,,,
1.0,1.0,0.51846,0.0,33.0,33.0,33.0,1.0,fire_pit_10s.jpg,1.0,Orange.png,6.0,102,,,,,,,,,,,,,,,,,
1.0,1.0,1.00249,0.0,34.0,34.0,34.0,1.0,mattress_01s.jpg,1.0,Yellow.png,6.0,102,,,,,,,,,,,,,,,,,
0.0,1.0,1.43477,0.0,35.0,35.0,35.0,1.0,ice-cream_cone_06s.jpg,0.0,Green.png,6.0,102,,,,,,,,,,,,,,,,,
,,,,,,,,,1.0,,,102,1.0,1.0,1.31089,0.0,0.0,0.0,0.0,1.0,roulette_wheel_04s.jpg,buoy_04s.jpg,,,,,,,
,,,,,,,,,0.0,,,102,1.0,0.0,1.56093,0.0,1.0,1.0,1.0,1.0,lion_18s.jpg,potholder_02s.jpg,,,,,,,
,,,,,,,,,0.0,,,102,0.0,1.0,4.757545,0.0,2.0,2.0,2.0,1.0,bagel_15s.jpg,comic_book_02s.jpg,,,,,,,
,,,,,,,,,1.0,,,102,1.0,1.0,1.26317,0.0,3.0,3.0,3.0,1.0,stopwatch_04s.jpg,teapot_03s.jpg,,,,,,,
,,,,,,,,,1.0,,,102,1.0,1.0,1.873325,0.0,4.0,4.0,4.0,1.0,luggage_08s.jpg,rosary_03s.jpg,,,,,,,
,,,,,,,,,1.0,,,102,1.0,1.0,1.309685,0.0,5.0,5.0,5.0,1.0,orchid_01b.jpg,knitting_needle_04s.jpg,,,,,,,
,,,,,,,,,,,,102,,,,,,,,,,,0.0,2.0,2.0,2.0,1.0,new2backpresent_3_4.xlsx,new2back_compare_task_3_4.xlsx
0.0,1.0,0.91618,0.0,0.0,0.0,0.0,1.0,smoothie_09s.jpg,0.0,Blue.png,1.0,102,,,,,,,,,,,,,,,,,
0.0,1.0,0.62092,0.0,1.0,1.0,1.0,1.0,raspberry_12s.jpg,0.0,Purple.png,1.0,102,,,,,,,,,,,,,,,,,
0.0,1.0,1.010745,0.0,2.0,2.0,2.0,1.0,raspberry_12s.jpg,0.0,Red.png,1.0,102,,,,,,,,,,,,,,,,,
0.0,1.0,0.592785,0.0,3.0,3.0,3.0,1.0,lamb_chop_07s.jpg,0.0,Orange.png,1.0,102,,,,,,,,,,,,,,,,,
0.0,1.0,1.064565,0.0,4.0,4.0,4.0,1.0,smoothie_09s.jpg,0.0,Yellow.png,1.0,102,,,,,,,,,,,,,,,,,
0.0,1.0,1.493775,0.0,5.0,5.0,5.0,1.0,raspberry_12s.jpg,0.0,Green.png,1.0,102,,,,,,,,,,,,,,,,,
0.0,1.0,1.176715,0.0,6.0,6.0,6.0,1.0,lava_02s.jpg,0.0,Blue.png,2.0,102,,,,,,,,,,,,,,,,,
0.0,1.0,1.91859,0.0,7.0,7.0,7.0,1.0,trident_07s.jpg,0.0,Purple.png,2.0,102,,,,,,,,,,,,,,,,,
0.0,1.0,1.05497,0.0,8.0,8.0,8.0,1.0,trident_07s.jpg,0.0,Red.png,2.0,102,,,,,,,,,,,,,,,,,
1.0,1.0,0.968145,0.0,9.0,9.0,9.0,1.0,trident_07s.jpg,1.0,Orange.png,2.0,102,,,,,,,,,,,,,,,,,
0.0,1.0,0.50612,0.0,10.0,10.0,10.0,1.0,orangutan_03s.jpg,0.0,Yellow.png,2.0,102,,,,,,,,,,,,,,,,,
1.0,1.0,0.79395,0.0,11.0,11.0,11.0,1.0,trident_07s.jpg,1.0,Green.png,2.0,102,,,,,,,,,,,,,,,,,
0.0,1.0,1.012515,0.0,12.0,12.0,12.0,1.0,raspberry_12s.jpg,0.0,Blue.png,3.0,102,,,,,,,,,,,,,,,,,
1.0,1.0,2.27724,0.0,13.0,13.0,13.0,1.0,trident_07s.jpg,1.0,Purple.png,3.0,102,,,,,,,,,,,,,,,,,
0.0,1.0,0.732655,0.0,14.0,14.0,14.0,1.0,lavender_10s.jpg,0.0,Red.png,3.0,102,,,,,,,,,,,,,,,,,
0.0,1.0,1.24218,0.0,15.0,15.0,15.0,1.0,chip_04s.jpg,0.0,Orange.png,3.0,102,,,,,,,,,,,,,,,,,
0.0,1.0,1.31027,0.0,16.0,16.0,16.0,1.0,lamb_04s.jpg,0.0,Yellow.png,3.0,102,,,,,,,,,,,,,,,,,
0.0,1.0,0.82612,0.0,17.0,17.0,17.0,1.0,emerald_02s.jpg,0.0,Green.png,3.0,102,,,,,,,,,,,,,,,,,
0.0,1.0,0.88478,0.0,18.0,18.0,18.0,1.0,pineapple_12s.jpg,0.0,Blue.png,4.0,102,,,,,,,,,,,,,,,,,
0.0,1.0,0.786335,0.0,19.0,19.0,19.0,1.0,sundae_08s.jpg,0.0,Purple.png,4.0,102,,,,,,,,,,,,,,,,,
0.0,1.0,1.64927,0.0,20.0,20.0,20.0,1.0,sundae_08s.jpg,0.0,Red.png,4.0,102,,,,,,,,,,,,,,,,,
0.0,1.0,0.783535,0.0,21.0,21.0,21.0,1.0,squirrel_02s.jpg,0.0,Orange.png,4.0,102,,,,,,,,,,,,,,,,,
0.0,1.0,1.23226,0.0,22.0,22.0,22.0,1.0,roller_coaster_07s.jpg,0.0,Yellow.png,4.0,102,,,,,,,,,,,,,,,,,
0.0,1.0,1.79699,0.0,23.0,23.0,23.0,1.0,sundae_08s.jpg,0.0,Green.png,4.0,102,,,,,,,,,,,,,,,,,
0.0,1.0,1.93053,0.0,24.0,24.0,24.0,1.0,tweezers_03s.jpg,0.0,Blue.png,5.0,102,,,,,,,,,,,,,,,,,
1.0,1.0,1.38721,0.0,25.0,25.0,25.0,1.0,sundae_08s.jpg,1.0,Purple.png,5.0,102,,,,,,,,,,,,,,,,,
0.0,1.0,1.892305,0.0,26.0,26.0,26.0,1.0,rudder_02s.jpg,0.0,Red.png,5.0,102,,,,,,,,,,,,,,,,,
0.0,1.0,1.32512,0.0,27.0,27.0,27.0,1.0,rake_06s.jpg,0.0,Orange.png,5.0,102,,,,,,,,,,,,,,,,,
0.0,1.0,1.191215,0.0,28.0,28.0,28.0,1.0,rake_06s.jpg,0.0,Yellow.png,5.0,102,,,,,,,,,,,,,,,,,
1.0,1.0,0.564895,0.0,29.0,29.0,29.0,1.0,rake_06s.jpg,1.0,Green.png,5.0,102,,,,,,,,,,,,,,,,,
0.0,1.0,0.782945,0.0,30.0,30.0,30.0,1.0,cap_05s.jpg,0.0,Blue.png,6.0,102,,,,,,,,,,,,,,,,,
0.0,1.0,1.2603,0.0,31.0,31.0,31.0,1.0,paper_towel_03s.jpg,0.0,Purple.png,6.0,102,,,,,,,,,,,,,,,,,
0.0,1.0,1.091965,0.0,32.0,32.0,32.0,1.0,toaster_03s.jpg,0.0,Red.png,6.0,102,,,,,,,,,,,,,,,,,
0.0,1.0,0.90268,0.0,33.0,33.0,33.0,1.0,money_07s.jpg,0.0,Orange.png,6.0,102,,,,,,,,,,,,,,,,,
0.0,1.0,1.808335,0.0,34.0,34.0,34.0,1.0,pinwheel_06s.jpg,0.0,Yellow.png,6.0,102,,,,,,,,,,,,,,,,,
0.0,1.0,1.692995,0.0,35.0,35.0,35.0,1.0,lid_10s.jpg,0.0,Green.png,6.0,102,,,,,,,,,,,,,,,,,
,,,,,,,,,0.0,,,102,0.0,1.0,1.235245,0.0,0.0,0.0,0.0,1.0,tweezers_03s.jpg,squirrel_02s.jpg,,,,,,,
,,,,,,,,,1.0,,,102,0.0,0.0,1.408775,0.0,1.0,1.0,1.0,1.0,chip_04s.jpg,pineapple_12s.jpg,,,,,,,
,,,,,,,,,1.0,,,102,0.0,0.0,1.194805,0.0,2.0,2.0,2.0,1.0,lamb_chop_07s.jpg,lava_02s.jpg,,,,,,,
,,,,,,,,,0.0,,,102,0.0,1.0,1.70758,0.0,3.0,3.0,3.0,1.0,pinwheel_06s.jpg,paper_towel_03s.jpg,,,,,,,
,,,,,,,,,0.0,,,102,0.0,1.0,1.325005,0.0,4.0,4.0,4.0,1.0,emerald_02s.jpg,lavender_10s.jpg,,,,,,,
,,,,,,,,,0.0,,,102,0.0,1.0,2.861045,0.0,5.0,5.0,5.0,1.0,money_07s.jpg,cap_05s.jpg,,,,,,,
,,,,,,,,,,,,102,,,,,,,,,,,0.0,3.0,3.0,3.0,1.0,new2backpresent_4_4.xlsx,new2back_compare_task_4_4.xlsx
0.0,1.0,1.329345,0.0,0.0,0.0,0.0,1.0,fur_coat_11s.jpg,0.0,Blue.png,1.0,102,,,,,,,,,,,,,,,,,
0.0,1.0,0.686095,0.0,1.0,1.0,1.0,1.0,crayon_09s.jpg,0.0,Purple.png,1.0,102,,,,,,,,,,,,,,,,,
0.0,1.0,1.21022,0.0,2.0,2.0,2.0,1.0,cobra_05s.jpg,0.0,Red.png,1.0,102,,,,,,,,,,,,,,,,,
0.0,1.0,1.243995,0.0,3.0,3.0,3.0,1.0,raccoon_02s.jpg,0.0,Orange.png,1.0,102,,,,,,,,,,,,,,,,,
0.0,1.0,1.57563,0.0,4.0,4.0,4.0,1.0,soda_fountain_03s.jpg,0.0,Yellow.png,1.0,102,,,,,,,,,,,,,,,,,
1.0,1.0,0.534425,0.0,5.0,5.0,5.0,1.0,raccoon_02s.jpg,1.0,Green.png,1.0,102,,,,,,,,,,,,,,,,,
0.0,1.0,1.72986,0.0,6.0,6.0,6.0,1.0,feather02.jpg,0.0,Blue.png,2.0,102,,,,,,,,,,,,,,,,,
1.0,1.0,1.1731,0.0,7.0,7.0,7.0,1.0,raccoon_02s.jpg,1.0,Purple.png,2.0,102,,,,,,,,,,,,,,,,,
1.0,1.0,1.631885,0.0,8.0,8.0,8.0,1.0,feather02.jpg,1.0,Red.png,2.0,102,,,,,,,,,,,,,,,,,
0.0,1.0,2.13122,0.0,9.0,9.0,9.0,1.0,rug_09s.jpg,0.0,Orange.png,2.0,102,,,,,,,,,,,,,,,,,
1.0,1.0,0.719345,0.0,10.0,10.0,10.0,1.0,feather02.jpg,1.0,Yellow.png,2.0,102,,,,,,,,,,,,,,,,,
0.0,1.0,2.14468,0.0,11.0,11.0,11.0,1.0,cushion_08s.jpg,0.0,Green.png,2.0,102,,,,,,,,,,,,,,,,,
1.0,1.0,1.47139,0.0,12.0,12.0,12.0,1.0,feather02.jpg,1.0,Blue.png,3.0,102,,,,,,,,,,,,,,,,,
0.0,1.0,1.897485,0.0,13.0,13.0,13.0,1.0,feather02.jpg,0.0,Purple.png,3.0,102,,,,,,,,,,,,,,,,,
0.0,1.0,1.442645,0.0,14.0,14.0,14.0,1.0,ice_pack_09s.jpg,0.0,Red.png,3.0,102,,,,,,,,,,,,,,,,,
0.0,1.0,1.022145,0.0,15.0,15.0,15.0,1.0,ice_pack_09s.jpg,0.0,Orange.png,3.0,102,,,,,,,,,,,,,,,,,
0.0,1.0,0.871105,0.0,16.0,16.0,16.0,1.0,loom_05s.jpg,0.0,Yellow.png,3.0,102,,,,,,,,,,,,,,,,,
1.0,1.0,0.51358,0.0,17.0,17.0,17.0,1.0,ice_pack_09s.jpg,1.0,Green.png,3.0,102,,,,,,,,,,,,,,,,,
0.0,1.0,2.076285,0.0,18.0,18.0,18.0,1.0,ice_pack_09s.jpg,0.0,Blue.png,4.0,102,,,,,,,,,,,,,,,,,
1.0,1.0,0.931365,0.0,19.0,19.0,19.0,1.0,ice_pack_09s.jpg,1.0,Purple.png,4.0,102,,,,,,,,,,,,,,,,,
1.0,1.0,0.800805,0.0,20.0,20.0,20.0,1.0,ice_pack_09s.jpg,1.0,Red.png,4.0,102,,,,,,,,,,,,,,,,,
0.0,1.0,0.59668,0.0,21.0,21.0,21.0,1.0,blazer_02s.jpg,0.0,Orange.png,4.0,102,,,,,,,,,,,,,,,,,
0.0,1.0,0.929385,0.0,22.0,22.0,22.0,1.0,penlight_12s.jpg,0.0,Yellow.png,4.0,102,,,,,,,,,,,,,,,,,
0.0,1.0,0.77638,0.0,23.0,23.0,23.0,1.0,swan_11s.jpg,0.0,Green.png,4.0,102,,,,,,,,,,,,,,,,,
0.0,1.0,1.116095,0.0,24.0,24.0,24.0,1.0,plunger_08s.jpg,0.0,Blue.png,5.0,102,,,,,,,,,,,,,,,,,
0.0,1.0,0.90999,0.0,25.0,25.0,25.0,1.0,bottle_opener_11s.jpg,0.0,Purple.png,5.0,102,,,,,,,,,,,,,,,,,
0.0,1.0,1.195765,0.0,26.0,26.0,26.0,1.0,checkbook_11s.jpg,0.0,Red.png,5.0,102,,,,,,,,,,,,,,,,,
0.0,1.0,1.445795,0.0,27.0,27.0,27.0,1.0,ink_08s.jpg,0.0,Orange.png,5.0,102,,,,,,,,,,,,,,,,,
0.0,1.0,1.069355,0.0,28.0,28.0,28.0,1.0,plunger_08s.jpg,0.0,Yellow.png,5.0,102,,,,,,,,,,,,,,,,,
0.0,1.0,1.62447,0.0,29.0,29.0,29.0,1.0,pencil02a.jpg,0.0,Green.png,5.0,102,,,,,,,,,,,,,,,,,
0.0,1.0,1.57318,0.0,30.0,30.0,30.0,1.0,ginger_09s.jpg,0.0,Blue.png,6.0,102,,,,,,,,,,,,,,,,,
0.0,1.0,1.51039,0.0,31.0,31.0,31.0,1.0,taxi_15s.jpg,0.0,Purple.png,6.0,102,,,,,,,,,,,,,,,,,
0.0,1.0,1.46418,0.0,32.0,32.0,32.0,1.0,toy_04s.jpg,0.0,Red.png,6.0,102,,,,,,,,,,,,,,,,,
0.0,1.0,0.862485,0.0,33.0,33.0,33.0,1.0,blowfish_03s.jpg,0.0,Orange.png,6.0,102,,,,,,,,,,,,,,,,,
0.0,1.0,1.101495,0.0,34.0,34.0,34.0,1.0,toilet_paper_12s.jpg,0.0,Yellow.png,6.0,102,,,,,,,,,,,,,,,,,
0.0,1.0,1.39429,0.0,35.0,35.0,35.0,1.0,puddle_02s.jpg,0.0,Green.png,6.0,102,,,,,,,,,,,,,,,,,
,,,,,,,,,1.0,,,102,1.0,1.0,2.789465,0.0,0.0,0.0,0.0,1.0,ink_08s.jpg,ginger_09s.jpg,,,,,,,
,,,,,,,,,0.0,,,102,0.0,1.0,3.361015,0.0,1.0,1.0,1.0,1.0,puddle_02s.jpg,toy_04s.jpg,,,,,,,
,,,,,,,,,0.0,,,102,1.0,0.0,2.02807,0.0,2.0,2.0,2.0,1.0,bottle_opener_11s.jpg,penlight_12s.jpg,,,,,,,
,,,,,,,,,0.0,,,102,0.0,1.0,1.563815,0.0,3.0,3.0,3.0,1.0,checkbook_11s.jpg,swan_11s.jpg,,,,,,,
,,,,,,,,,1.0,,,102,1.0,1.0,3.097035,0.0,4.0,4.0,4.0,1.0,taxi_15s.jpg,toilet_paper_12s.jpg,,,,,,,
,,,,,,,,,1.0,,,102,1.0,1.0,1.67877,0.0,5.0,5.0,5.0,1.0,crayon_09s.jpg,soda_fountain_03s.jpg,,,,,,,
,,,,,,,,,,,,102,,,,,,,,,,,0.0,4.0,4.0,4.0,1.0,new2backpresent_5_4.xlsx,new2back_compare_task_5_4.xlsx
0.0,1.0,1.284085,0.0,0.0,0.0,0.0,1.0,flask_04s.jpg,0.0,Blue.png,1.0,102,,,,,,,,,,,,,,,,,
0.0,1.0,0.80637,0.0,1.0,1.0,1.0,1.0,kimono_13s.jpg,0.0,Purple.png,1.0,102,,,,,,,,,,,,,,,,,
0.0,1.0,0.77598,0.0,2.0,2.0,2.0,1.0,limousine_12s.jpg,0.0,Red.png,1.0,102,,,,,,,,,,,,,,,,,
0.0,1.0,1.317445,0.0,3.0,3.0,3.0,1.0,lectern_08s.jpg,0.0,Orange.png,1.0,102,,,,,,,,,,,,,,,,,
0.0,1.0,1.617105,0.0,4.0,4.0,4.0,1.0,kimono_13s.jpg,0.0,Yellow.png,1.0,102,,,,,,,,,,,,,,,,,
0.0,1.0,1.74139,0.0,5.0,5.0,5.0,1.0,doily_13s.jpg,0.0,Green.png,1.0,102,,,,,,,,,,,,,,,,,
1.0,1.0,0.77956,0.0,6.0,6.0,6.0,1.0,kimono_13s.jpg,1.0,Blue.png,2.0,102,,,,,,,,,,,,,,,,,
0.0,1.0,2.0222,0.0,7.0,7.0,7.0,1.0,razor_blade_01b.jpg,0.0,Purple.png,2.0,102,,,,,,,,,,,,,,,,,
0.0,1.0,1.613485,0.0,8.0,8.0,8.0,1.0,razor_blade_01b.jpg,0.0,Red.png,2.0,102,,,,,,,,,,,,,,,,,
0.0,1.0,1.008175,0.0,9.0,9.0,9.0,1.0,champagne_18s.jpg,0.0,Orange.png,2.0,102,,,,,,,,,,,,,,,,,
0.0,1.0,1.556155,0.0,10.0,10.0,10.0,1.0,stamp1_11s.jpg,0.0,Yellow.png,2.0,102,,,,,,,,,,,,,,,,,
1.0,1.0,0.541505,0.0,11.0,11.0,11.0,1.0,champagne_18s.jpg,1.0,Green.png,2.0,102,,,,,,,,,,,,,,,,,
0.0,1.0,1.821785,0.0,12.0,12.0,12.0,1.0,crossbow_10s.jpg,0.0,Blue.png,3.0,102,,,,,,,,,,,,,,,,,
0.0,1.0,1.191475,0.0,13.0,13.0,13.0,1.0,briefcase_03s.jpg,0.0,Purple.png,3.0,102,,,,,,,,,,,,,,,,,
0.0,1.0,1.444445,0.0,14.0,14.0,14.0,1.0,jersey_02s.jpg,0.0,Red.png,3.0,102,,,,,,,,,,,,,,,,,
1.0,1.0,1.108445,0.0,15.0,15.0,15.0,1.0,briefcase_03s.jpg,1.0,Orange.png,3.0,102,,,,,,,,,,,,,,,,,
0.0,1.0,1.545575,0.0,16.0,16.0,16.0,1.0,oil_02s.jpg,0.0,Yellow.png,3.0,102,,,,,,,,,,,,,,,,,
0.0,1.0,1.851295,0.0,17.0,17.0,17.0,1.0,tinsel_12s.jpg,0.0,Green.png,3.0,102,,,,,,,,,,,,,,,,,
0.0,1.0,1.15627,0.0,18.0,18.0,18.0,1.0,flask_04s.jpg,0.0,Blue.png,4.0,102,,,,,,,,,,,,,,,,,
0.0,1.0,1.35231,0.0,19.0,19.0,19.0,1.0,fork_04s.jpg,0.0,Purple.png,4.0,102,,,,,,,,,,,,,,,,,
0.0,1.0,1.34429,0.0,20.0,20.0,20.0,1.0,purse_05s.jpg,0.0,Red.png,4.0,102,,,,,,,,,,,,,,,,,
0.0,1.0,2.128145,0.0,21.0,21.0,21.0,1.0,flask_04s.jpg,0.0,Orange.png,4.0,102,,,,,,,,,,,,,,,,,
0.0,1.0,1.945535,0.0,22.0,22.0,22.0,1.0,sledgehammer_03s.jpg,0.0,Yellow.png,4.0,102,,,,,,,,,,,,,,,,,
0.0,1.0,1.24985,0.0,23.0,23.0,23.0,1.0,turf_03s.jpg,0.0,Green.png,4.0,102,,,,,,,,,,,,,,,,,
0.0,1.0,2.231685,0.0,24.0,24.0,24.0,1.0,omelet_07s.jpg,0.0,Blue.png,5.0,102,,,,,,,,,,,,,,,,,
1.0,1.0,0.89317,0.0,25.0,25.0,25.0,1.0,turf_03s.jpg,1.0,Purple.png,5.0,102,,,,,,,,,,,,,,,,,
0.0,1.0,1.634885,0.0,26.0,26.0,26.0,1.0,clover_04s.jpg,0.0,Red.png,5.0,102,,,,,,,,,,,,,,,,,
0.0,1.0,1.46905,0.0,27.0,27.0,27.0,1.0,lip_gloss_06s.jpg,0.0,Orange.png,5.0,102,,,,,,,,,,,,,,,,,
0.0,1.0,1.635315,0.0,28.0,28.0,28.0,1.0,amber_04s.jpg,0.0,Yellow.png,5.0,102,,,,,,,,,,,,,,,,,
0.0,1.0,1.668185,0.0,29.0,29.0,29.0,1.0,tortilla_06s.jpg,0.0,Green.png,5.0,102,,,,,,,,,,,,,,,,,
0.0,1.0,1.17539,0.0,30.0,30.0,30.0,1.0,razor_blade_01b.jpg,0.0,Blue.png,6.0,102,,,,,,,,,,,,,,,,,
0.0,1.0,1.07577,0.0,31.0,31.0,31.0,1.0,tape_measure_11s.jpg,0.0,Purple.png,6.0,102,,,,,,,,,,,,,,,,,
1.0,1.0,0.802745,0.0,32.0,32.0,32.0,1.0,razor_blade_01b.jpg,1.0,Red.png,6.0,102,,,,,,,,,,,,,,,,,
0.0,1.0,1.55832,0.0,33.0,33.0,33.0,1.0,razor_blade_01b.jpg,0.0,Orange.png,6.0,102,,,,,,,,,,,,,,,,,
0.0,1.0,1.671795,0.0,34.0,34.0,34.0,1.0,stingray_02s.jpg,0.0,Yellow.png,6.0,102,,,,,,,,,,,,,,,,,
0.0,1.0,1.03691,0.0,35.0,35.0,35.0,1.0,harpoon.jpg,0.0,Green.png,6.0,102,,,,,,,,,,,,,,,,,
,,,,,,,,,1.0,,,102,1.0,1.0,1.62386,0.0,0.0,0.0,0.0,1.0,oil_02s.jpg,fork_04s.jpg,,,,,,,
,,,,,,,,,0.0,,,102,0.0,1.0,1.450315,0.0,1.0,1.0,1.0,1.0,doily_13s.jpg,limousine_12s.jpg,,,,,,,
,,,,,,,,,0.0,,,102,0.0,1.0,2.561325,0.0,2.0,2.0,2.0,1.0,lip_gloss_06s.jpg,omelet_07s.jpg,,,,,,,
,,,,,,,,,0.0,,,102,1.0,0.0,1.82505,0.0,3.0,3.0,3.0,1.0,tape_measure_11s.jpg,amber_04s.jpg,,,,,,,
,,,,,,,,,0.0,,,102,0.0,1.0,1.707105,0.0,4.0,4.0,4.0,1.0,tortilla_06s.jpg,clover_04s.jpg,,,,,,,
,,,,,,,,,0.0,,,102,0.0,1.0,2.19152,0.0,5.0,5.0,5.0,1.0,purse_05s.jpg,tinsel_12s.jpg,,,,,,,
,,,,,,,,,,,,102,,,,,,,,,,,0.0,5.0,5.0,5.0,1.0,new2backpresent_6_4.xlsx,new2back_compare_task_6_4.xlsx
0.0,1.0,1.082715,0.0,0.0,0.0,0.0,1.0,butter_14s.jpg,0.0,Blue.png,1.0,102,,,,,,,,,,,,,,,,,
0.0,1.0,1.001045,0.0,1.0,1.0,1.0,1.0,butter_14s.jpg,0.0,Purple.png,1.0,102,,,,,,,,,,,,,,,,,
1.0,1.0,0.843645,0.0,2.0,2.0,2.0,1.0,butter_14s.jpg,1.0,Red.png,1.0,102,,,,,,,,,,,,,,,,,
0.0,1.0,0.52137,0.0,3.0,3.0,3.0,1.0,stamp2_08s.jpg,0.0,Orange.png,1.0,102,,,,,,,,,,,,,,,,,
0.0,1.0,0.7746,0.0,4.0,4.0,4.0,1.0,kangaroo_02s.jpg,0.0,Yellow.png,1.0,102,,,,,,,,,,,,,,,,,
0.0,1.0,0.79585,0.0,5.0,5.0,5.0,1.0,camcorder_10s.jpg,0.0,Green.png,1.0,102,,,,,,,,,,,,,,,,,
0.0,1.0,1.69231,0.0,6.0,6.0,6.0,1.0,bank_06s.jpg,0.0,Blue.png,2.0,102,,,,,,,,,,,,,,,,,
0.0,1.0,1.117075,0.0,7.0,7.0,7.0,1.0,gear_07s.jpg,0.0,Purple.png,2.0,102,,,,,,,,,,,,,,,,,
1.0,1.0,0.827405,0.0,8.0,8.0,8.0,1.0,bank_06s.jpg,1.0,Red.png,2.0,102,,,,,,,,,,,,,,,,,
0.0,1.0,1.544035,0.0,9.0,9.0,9.0,1.0,funnel_01b.jpg,0.0,Orange.png,2.0,102,,,,,,,,,,,,,,,,,
0.0,1.0,0.9289,0.0,10.0,10.0,10.0,1.0,poinsettia_04s.jpg,0.0,Yellow.png,2.0,102,,,,,,,,,,,,,,,,,
1.0,1.0,0.52665,0.0,11.0,11.0,11.0,1.0,funnel_01b.jpg,1.0,Green.png,2.0,102,,,,,,,,,,,,,,,,,
0.0,1.0,1.580425,0.0,12.0,12.0,12.0,1.0,rooster_03s.jpg,0.0,Blue.png,3.0,102,,,,,,,,,,,,,,,,,
0.0,1.0,1.09298,0.0,13.0,13.0,13.0,1.0,denture_03s.jpg,0.0,Purple.png,3.0,102,,,,,,,,,,,,,,,,,
0.0,1.0,0.89302,0.0,14.0,14.0,14.0,1.0,bean_06s.jpg,0.0,Red.png,3.0,102,,,,,,,,,,,,,,,,,
0.0,1.0,1.19799,0.0,15.0,15.0,15.0,1.0,mud_13s.jpg,0.0,Orange.png,3.0,102,,,,,,,,,,,,,,,,,
0.0,1.0,1.127405,0.0,16.0,16.0,16.0,1.0,keyhole_03s.jpg,0.0,Yellow.png,3.0,102,,,,,,,,,,,,,,,,,
,0.0,,0.0,17.0,17.0,17.0,1.0,bean_06s.jpg,0.0,Green.png,3.0,102,,,,,,,,,,,,,,,,,
0.0,1.0,0.968255,0.0,18.0,18.0,18.0,1.0,bank_06s.jpg,0.0,Blue.png,4.0,102,,,,,,,,,,,,,,,,,
0.0,1.0,1.59778,0.0,19.0,19.0,19.0,1.0,pomegranate_04s.jpg,0.0,Purple.png,4.0,102,,,,,,,,,,,,,,,,,
0.0,1.0,0.97623,0.0,20.0,20.0,20.0,1.0,chopsticks_08s.jpg,0.0,Red.png,4.0,102,,,,,,,,,,,,,,,,,
0.0,1.0,0.785135,0.0,21.0,21.0,21.0,1.0,contact_lens_15s.jpg,0.0,Orange.png,4.0,102,,,,,,,,,,,,,,,,,
0.0,1.0,1.148335,0.0,22.0,22.0,22.0,1.0,hydrant_10s.jpg,0.0,Yellow.png,4.0,102,,,,,,,,,,,,,,,,,
0.0,1.0,0.86677,0.0,23.0,23.0,23.0,1.0,gingerbread_man_03s.jpg,0.0,Green.png,4.0,102,,,,,,,,,,,,,,,,,
0.0,1.0,1.28721,0.0,24.0,24.0,24.0,1.0,camcorder_10s.jpg,0.0,Blue.png,5.0,102,,,,,,,,,,,,,,,,,
0.0,1.0,1.57727,0.0,25.0,25.0,25.0,1.0,teabag_12s.jpg,0.0,Purple.png,5.0,102,,,,,,,,,,,,,,,,,
0.0,1.0,1.52871,0.0,26.0,26.0,26.0,1.0,radiator_05s.jpg,0.0,Red.png,5.0,102,,,,,,,,,,,,,,,,,
0.0,1.0,2.003235,0.0,27.0,27.0,27.0,1.0,punch1_10s.jpg,0.0,Orange.png,5.0,102,,,,,,,,,,,,,,,,,
0.0,1.0,1.154155,0.0,28.0,28.0,28.0,1.0,mailbox_11s.jpg,0.0,Yellow.png,5.0,102,,,,,,,,,,,,,,,,,
0.0,1.0,1.78071,0.0,29.0,29.0,29.0,1.0,beaker_01b.jpg,0.0,Green.png,5.0,102,,,,,,,,,,,,,,,,,
1.0,1.0,1.0237,0.0,30.0,30.0,30.0,1.0,mailbox_11s.jpg,1.0,Blue.png,6.0,102,,,,,,,,,,,,,,,,,
0.0,1.0,1.157335,0.0,31.0,31.0,31.0,1.0,pipe1_10s.jpg,0.0,Purple.png,6.0,102,,,,,,,,,,,,,,,,,
1.0,1.0,0.710225,0.0,32.0,32.0,32.0,1.0,mailbox_11s.jpg,1.0,Red.png,6.0,102,,,,,,,,,,,,,,,,,
1.0,1.0,1.316855,0.0,33.0,33.0,33.0,1.0,pipe1_10s.jpg,1.0,Orange.png,6.0,102,,,,,,,,,,,,,,,,,
0.0,1.0,0.826385,0.0,34.0,34.0,34.0,1.0,eyedropper_12s.jpg,0.0,Yellow.png,6.0,102,,,,,,,,,,,,,,,,,
0.0,1.0,0.759045,0.0,35.0,35.0,35.0,1.0,rhubarb_03s.jpg,0.0,Green.png,6.0,102,,,,,,,,,,,,,,,,,
,,,,,,,,,0.0,,,102,0.0,1.0,2.877705,0.0,0.0,0.0,0.0,1.0,mud_13s.jpg,rooster_03s.jpg,,,,,,,
,,,,,,,,,1.0,,,102,1.0,1.0,1.582175,0.0,1.0,1.0,1.0,1.0,chopsticks_08s.jpg,gingerbread_man_03s.jpg,,,,,,,
,,,,,,,,,0.0,,,102,1.0,0.0,2.09998,0.0,2.0,2.0,2.0,1.0,beaker_01b.jpg,radiator_05s.jpg,,,,,,,
,,,,,,,,,0.0,,,102,0.0,1.0,1.535085,0.0,3.0,3.0,3.0,1.0,teabag_12s.jpg,hydrant_10s.jpg,,,,,,,
,,,,,,,,,0.0,,,102,1.0,0.0,1.451215,0.0,4.0,4.0,4.0,1.0,denture_03s.jpg,poinsettia_04s.jpg,,,,,,,
,,,,,,,,,1.0,,,102,1.0,1.0,0.917945,0.0,5.0,5.0,5.0,1.0,kangaroo_02s.jpg,gear_07s.jpg,,,,,,,
,,,,,,,,,,,,102,,,,,,,,,,,0.0,6.0,6.0,6.0,1.0,new2backpresent_7_4.xlsx,new2back_compare_task_7_4.xlsx
0.0,1.0,1.369945,0.0,0.0,0.0,0.0,1.0,lamppost_09s.jpg,0.0,Blue.png,1.0,102,,,,,,,,,,,,,,,,,
0.0,1.0,0.618155,0.0,1.0,1.0,1.0,1.0,jewel_01b.jpg,0.0,Purple.png,1.0,102,,,,,,,,,,,,,,,,,
0.0,1.0,1.199445,0.0,2.0,2.0,2.0,1.0,tuxedo_01b.jpg,0.0,Red.png,1.0,102,,,,,,,,,,,,,,,,,
0.0,1.0,0.863385,0.0,3.0,3.0,3.0,1.0,flip_flop_03s.jpg,0.0,Orange.png,1.0,102,,,,,,,,,,,,,,,,,
0.0,1.0,1.140065,0.0,4.0,4.0,4.0,1.0,medal_04s.jpg,0.0,Yellow.png,1.0,102,,,,,,,,,,,,,,,,,
1.0,1.0,0.828225,0.0,5.0,5.0,5.0,1.0,flip_flop_03s.jpg,1.0,Green.png,1.0,102,,,,,,,,,,,,,,,,,
0.0,1.0,1.06998,0.0,6.0,6.0,6.0,1.0,tuxedo_01b.jpg,0.0,Blue.png,2.0,102,,,,,,,,,,,,,,,,,
1.0,1.0,0.593785,0.0,7.0,7.0,7.0,1.0,flip_flop_03s.jpg,1.0,Purple.png,2.0,102,,,,,,,,,,,,,,,,,
0.0,1.0,0.909625,0.0,8.0,8.0,8.0,1.0,fireworks_18s.jpg,0.0,Red.png,2.0,102,,,,,,,,,,,,,,,,,
0.0,1.0,1.234545,0.0,9.0,9.0,9.0,1.0,squirt_gun_03s.jpg,0.0,Orange.png,2.0,102,,,,,,,,,,,,,,,,,
0.0,1.0,1.060435,0.0,10.0,10.0,10.0,1.0,flip_flop_03s.jpg,0.0,Yellow.png,2.0,102,,,,,,,,,,,,,,,,,
0.0,1.0,1.30054,0.0,11.0,11.0,11.0,1.0,puffin_19s.jpg,0.0,Green.png,2.0,102,,,,,,,,,,,,,,,,,
0.0,1.0,1.717965,0.0,12.0,12.0,12.0,1.0,tuxedo_01b.jpg,0.0,Blue.png,3.0,102,,,,,,,,,,,,,,,,,
,0.0,,0.0,13.0,13.0,13.0,1.0,tuxedo_01b.jpg,0.0,Purple.png,3.0,102,,,,,,,,,,,,,,,,,
0.0,1.0,1.05056,0.0,14.0,14.0,14.0,1.0,snowman_02s.jpg,0.0,Red.png,3.0,102,,,,,,,,,,,,,,,,,
0.0,1.0,0.926425,0.0,15.0,15.0,15.0,1.0,cucumber_07s.jpg,0.0,Orange.png,3.0,102,,,,,,,,,,,,,,,,,
0.0,1.0,0.96573,0.0,16.0,16.0,16.0,1.0,plug_08s.jpg,0.0,Yellow.png,3.0,102,,,,,,,,,,,,,,,,,
0.0,0.0,1.525015,0.0,17.0,17.0,17.0,1.0,cucumber_07s.jpg,1.0,Green.png,3.0,102,,,,,,,,,,,,,,,,,
0.0,1.0,1.7794,0.0,18.0,18.0,18.0,1.0,puffin_19s.jpg,0.0,Blue.png,4.0,102,,,,,,,,,,,,,,,,,
0.0,1.0,1.4534,0.0,19.0,19.0,19.0,1.0,fondue_07s.jpg,0.0,Purple.png,4.0,102,,,,,,,,,,,,,,,,,
0.0,1.0,0.884645,0.0,20.0,20.0,20.0,1.0,lasagna_06s.jpg,0.0,Red.png,4.0,102,,,,,,,,,,,,,,,,,
0.0,1.0,1.174675,0.0,21.0,21.0,21.0,1.0,eiffeltower.jpg,0.0,Orange.png,4.0,102,,,,,,,,,,,,,,,,,
0.0,1.0,1.251915,0.0,22.0,22.0,22.0,1.0,outlet_10s.jpg,0.0,Yellow.png,4.0,102,,,,,,,,,,,,,,,,,
0.0,1.0,1.61088,0.0,23.0,23.0,23.0,1.0,cape_11s.jpg,0.0,Green.png,4.0,102,,,,,,,,,,,,,,,,,
0.0,1.0,2.06479,0.0,24.0,24.0,24.0,1.0,marshmallow_08s.jpg,0.0,Blue.png,5.0,102,,,,,,,,,,,,,,,,,
0.0,1.0,1.09707,0.0,25.0,25.0,25.0,1.0,racehorse_03s.jpg,0.0,Purple.png,5.0,102,,,,,,,,,,,,,,,,,
0.0,1.0,1.0969,0.0,26.0,26.0,26.0,1.0,aluminum_foil_08s.jpg,0.0,Red.png,5.0,102,,,,,,,,,,,,,,,,,
0.0,1.0,0.79464,0.0,27.0,27.0,27.0,1.0,spoon02a.jpg,0.0,Orange.png,5.0,102,,,,,,,,,,,,,,,,,
0.0,1.0,1.163895,0.0,28.0,28.0,28.0,1.0,padlock_07s.jpg,0.0,Yellow.png,5.0,102,,,,,,,,,,,,,,,,,
0.0,1.0,0.87816,0.0,29.0,29.0,29.0,1.0,solar_panel_02s.jpg,0.0,Green.png,5.0,102,,,,,,,,,,,,,,,,,
0.0,1.0,0.90917,0.0,30.0,30.0,30.0,1.0,turtleneck_11s.jpg,0.0,Blue.png,6.0,102,,,,,,,,,,,,,,,,,
0.0,1.0,1.217285,0.0,31.0,31.0,31.0,1.0,pocketknife_12s.jpg,0.0,Purple.png,6.0,102,,,,,,,,,,,,,,,,,
0.0,1.0,0.99262,0.0,32.0,32.0,32.0,1.0,pocketknife_12s.jpg,0.0,Red.png,6.0,102,,,,,,,,,,,,,,,,,
0.0,1.0,1.525345,0.0,33.0,33.0,33.0,1.0,quill_09s.jpg,0.0,Orange.png,6.0,102,,,,,,,,,,,,,,,,,
0.0,1.0,0.96194,0.0,34.0,34.0,34.0,1.0,quill_09s.jpg,0.0,Yellow.png,6.0,102,,,,,,,,,,,,,,,,,
0.0,1.0,1.87556,0.0,35.0,35.0,35.0,1.0,pocketknife_12s.jpg,0.0,Green.png,6.0,102,,,,,,,,,,,,,,,,,
,,,,,,,,,0.0,,,102,0.0,1.0,2.98542,0.0,0.0,0.0,0.0,1.0,cape_11s.jpg,lasagna_06s.jpg,,,,,,,
,,,,,,,,,0.0,,,102,0.0,1.0,2.57155,0.0,1.0,1.0,1.0,1.0,padlock_07s.jpg,racehorse_03s.jpg,,,,,,,
,,,,,,,,,1.0,,,102,1.0,1.0,1.30366,0.0,2.0,2.0,2.0,1.0,spoon02a.jpg,turtleneck_11s.jpg,,,,,,,
,,,,,,,,,0.0,,,102,1.0,0.0,2.090855,0.0,3.0,3.0,3.0,1.0,marshmallow_08s.jpg,eiffeltower.jpg,,,,,,,
,,,,,,,,,0.0,,,102,1.0,0.0,1.357585,0.0,4.0,4.0,4.0,1.0,medal_04s.jpg,jewel_01b.jpg,,,,,,,
,,,,,,,,,1.0,,,102,1.0,1.0,2.53628,0.0,5.0,5.0,5.0,1.0,plug_08s.jpg,fondue_07s.jpg,,,,,,,
,,,,,,,,,,,,102,,,,,,,,,,,0.0,7.0,7.0,7.0,1.0,new2backpresent_8_4.xlsx,new2back_compare_task_8_4.xlsx
0.0,1.0,1.008155,0.0,0.0,0.0,0.0,1.0,footprint_11s.jpg,0.0,Blue.png,1.0,102,,,,,,,,,,,,,,,,,
0.0,1.0,0.47664,0.0,1.0,1.0,1.0,1.0,coffee_filter_10s.jpg,0.0,Purple.png,1.0,102,,,,,,,,,,,,,,,,,
0.0,1.0,1.092155,0.0,2.0,2.0,2.0,1.0,coffee_filter_10s.jpg,0.0,Red.png,1.0,102,,,,,,,,,,,,,,,,,
1.0,1.0,0.739295,0.0,3.0,3.0,3.0,1.0,coffee_filter_10s.jpg,1.0,Orange.png,1.0,102,,,,,,,,,,,,,,,,,
1.0,1.0,0.67151,0.0,4.0,4.0,4.0,1.0,coffee_filter_10s.jpg,1.0,Yellow.png,1.0,102,,,,,,,,,,,,,,,,,
0.0,1.0,1.061565,0.0,5.0,5.0,5.0,1.0,gargoyle_08s.jpg,0.0,Green.png,1.0,102,,,,,,,,,,,,,,,,,
0.0,1.0,0.95031,0.0,6.0,6.0,6.0,1.0,candy_cane_06s.jpg,0.0,Blue.png,2.0,102,,,,,,,,,,,,,,,,,
0.0,1.0,1.075975,0.0,7.0,7.0,7.0,1.0,toad_09s.jpg,0.0,Purple.png,2.0,102,,,,,,,,,,,,,,,,,
1.0,1.0,0.628735,0.0,8.0,8.0,8.0,1.0,candy_cane_06s.jpg,1.0,Red.png,2.0,102,,,,,,,,,,,,,,,,,
0.0,1.0,1.493785,0.0,9.0,9.0,9.0,1.0,pumpkin_03s.jpg,0.0,Orange.png,2.0,102,,,,,,,,,,,,,,,,,
0.0,1.0,1.02455,0.0,10.0,10.0,10.0,1.0,dashboard_02s.jpg,0.0,Yellow.png,2.0,102,,,,,,,,,,,,,,,,,
0.0,1.0,1.197865,0.0,11.0,11.0,11.0,1.0,syringe_02s.jpg,0.0,Green.png,2.0,102,,,,,,,,,,,,,,,,,
0.0,1.0,1.37572,0.0,12.0,12.0,12.0,1.0,powder_07s.jpg,0.0,Blue.png,3.0,102,,,,,,,,,,,,,,,,,
0.0,1.0,1.08602,0.0,13.0,13.0,13.0,1.0,powder_07s.jpg,0.0,Purple.png,3.0,102,,,,,,,,,,,,,,,,,
1.0,1.0,0.766915,0.0,14.0,14.0,14.0,1.0,powder_07s.jpg,1.0,Red.png,3.0,102,,,,,,,,,,,,,,,,,
0.0,1.0,0.70869,0.0,15.0,15.0,15.0,1.0,sea_urchin_09s.jpg,0.0,Orange.png,3.0,102,,,,,,,,,,,,,,,,,
0.0,1.0,1.393425,0.0,16.0,16.0,16.0,1.0,throne_11s.jpg,0.0,Yellow.png,3.0,102,,,,,,,,,,,,,,,,,
0.0,1.0,1.13261,0.0,17.0,17.0,17.0,1.0,powder_07s.jpg,0.0,Green.png,3.0,102,,,,,,,,,,,,,,,,,
0.0,1.0,1.5436,0.0,18.0,18.0,18.0,1.0,chalice_10s.jpg,0.0,Blue.png,4.0,102,,,,,,,,,,,,,,,,,
0.0,1.0,1.903835,0.0,19.0,19.0,19.0,1.0,air_pump_05s.jpg,0.0,Purple.png,4.0,102,,,,,,,,,,,,,,,,,
0.0,1.0,1.377675,0.0,20.0,20.0,20.0,1.0,microwave_02s.jpg,0.0,Red.png,4.0,102,,,,,,,,,,,,,,,,,
0.0,1.0,1.193175,0.0,21.0,21.0,21.0,1.0,cereal_04s.jpg,0.0,Orange.png,4.0,102,,,,,,,,,,,,,,,,,
0.0,1.0,1.085445,0.0,22.0,22.0,22.0,1.0,mushroom_10n.jpg,0.0,Yellow.png,4.0,102,,,,,,,,,,,,,,,,,
0.0,1.0,0.953845,0.0,23.0,23.0,23.0,1.0,red_carpet_03s.jpg,0.0,Green.png,4.0,102,,,,,,,,,,,,,,,,,
0.0,1.0,1.2039,0.0,24.0,24.0,24.0,1.0,throne_11s.jpg,0.0,Blue.png,5.0,102,,,,,,,,,,,,,,,,,
0.0,1.0,1.077925,0.0,25.0,25.0,25.0,1.0,koala_13s.jpg,0.0,Purple.png,5.0,102,,,,,,,,,,,,,,,,,
,0.0,,0.0,26.0,26.0,26.0,1.0,throne_11s.jpg,1.0,Red.png,5.0,102,,,,,,,,,,,,,,,,,
0.0,1.0,2.126755,0.0,27.0,27.0,27.0,1.0,rocket_02s.jpg,0.0,Orange.png,5.0,102,,,,,,,,,,,,,,,,,
0.0,1.0,0.99453,0.0,28.0,28.0,28.0,1.0,swordfish_05s.jpg,0.0,Yellow.png,5.0,102,,,,,,,,,,,,,,,,,
1.0,1.0,0.87651,0.0,29.0,29.0,29.0,1.0,rocket_02s.jpg,1.0,Green.png,5.0,102,,,,,,,,,,,,,,,,,
0.0,1.0,0.783335,0.0,30.0,30.0,30.0,1.0,icicle_04s.jpg,0.0,Blue.png,6.0,102,,,,,,,,,,,,,,,,,
0.0,1.0,0.863715,0.0,31.0,31.0,31.0,1.0,keyboard_05s.jpg,0.0,Purple.png,6.0,102,,,,,,,,,,,,,,,,,
0.0,1.0,0.608555,0.0,32.0,32.0,32.0,1.0,pocket_watch_16s.jpg,0.0,Red.png,6.0,102,,,,,,,,,,,,,,,,,
0.0,1.0,1.217995,0.0,33.0,33.0,33.0,1.0,tablet_04s.jpg,0.0,Orange.png,6.0,102,,,,,,,,,,,,,,,,,
0.0,1.0,1.11005,0.0,34.0,34.0,34.0,1.0,chocolate_01b.jpg,0.0,Yellow.png,6.0,102,,,,,,,,,,,,,,,,,
0.0,1.0,0.68551,0.0,35.0,35.0,35.0,1.0,light_switch_02s.jpg,0.0,Green.png,6.0,102,,,,,,,,,,,,,,,,,
,,,,,,,,,0.0,,,102,0.0,1.0,1.964075,0.0,0.0,0.0,0.0,1.0,chalice_10s.jpg,sea_urchin_09s.jpg,,,,,,,
,,,,,,,,,1.0,,,102,1.0,1.0,2.505745,0.0,1.0,1.0,1.0,1.0,swordfish_05s.jpg,keyboard_05s.jpg,,,,,,,
,,,,,,,,,0.0,,,102,0.0,1.0,1.56777,0.0,2.0,2.0,2.0,1.0,red_carpet_03s.jpg,microwave_02s.jpg,,,,,,,
,,,,,,,,,0.0,,,102,0.0,1.0,1.5731,0.0,3.0,3.0,3.0,1.0,dashboard_02s.jpg,toad_09s.jpg,,,,,,,
,,,,,,,,,0.0,,,102,0.0,1.0,1.708235,0.0,4.0,4.0,4.0,1.0,koala_13s.jpg,mushroom_10n.jpg,,,,,,,
,,,,,,,,,1.0,,,102,1.0,1.0,1.740015,0.0,5.0,5.0,5.0,1.0,icicle_04s.jpg,tablet_04s.jpg,,,,,,,
,,,,,,,,,,,,102,,,,,,,,,,,0.0,8.0,8.0,8.0,1.0,new2backpresent_9_4.xlsx,new2back_compare_task_9_4.xlsx
