key_resp.keys,key_resp.corr,key_resp.rt,present_segment.thisRepN,present_segment.thisTrialN,present_segment.thisN,present_segment.thisIndex,present_segment.ran,pictures,answer,clock,segment,participant,key_resp_2.keys,key_resp_2.corr,key_resp_2.rt,compare_segment.thisRepN,compare_segment.thisTrialN,compare_segment.thisN,compare_segment.thisIndex,compare_segment.ran,item_a,item_b,clock_conditions.thisRepN,clock_conditions.thisTrialN,clock_conditions.thisN,clock_conditions.thisIndex,clock_conditions.ran,present,compare
0.0,1.0,2.430355,0.0,0.0,0.0,0.0,1.0,mailbox_11s.jpg,0.0,Blue.png,1.0,107,,,,,,,,,,,,,,,,,
0.0,1.0,1.41909,0.0,1.0,1.0,1.0,1.0,mailbox_11s.jpg,0.0,Purple.png,1.0,107,,,,,,,,,,,,,,,,,
0.0,1.0,2.001415,0.0,2.0,2.0,2.0,1.0,checkbook_11s.jpg,0.0,Red.png,1.0,107,,,,,,,,,,,,,,,,,
0.0,1.0,1.194875,0.0,3.0,3.0,3.0,1.0,rocking_chair_05s.jpg,0.0,Orange.png,1.0,107,,,,,,,,,,,,,,,,,
1.0,1.0,2.18054,0.0,4.0,4.0,4.0,1.0,checkbook_11s.jpg,1.0,Yellow.png,1.0,107,,,,,,,,,,,,,,,,,
1.0,1.0,1.833845,0.0,5.0,5.0,5.0,1.0,rocking_chair_05s.jpg,1.0,Green.png,1.0,107,,,,,,,,,,,,,,,,,
0.0,1.0,1.007505,0.0,6.0,6.0,6.0,1.0,eggshell_14s.jpg,0.0,Blue.png,2.0,107,,,,,,,,,,,,,,,,,
1.0,1.0,1.510235,0.0,7.0,7.0,7.0,1.0,rocking_chair_05s.jpg,1.0,Purple.png,2.0,107,,,,,,,,,,,,,,,,,
0.0,1.0,1.33377,0.0,8.0,8.0,8.0,1.0,powder_07s.jpg,0.0,Red.png,2.0,107,,,,,,,,,,,,,,,,,
0.0,1.0,0.612725,0.0,9.0,9.0,9.0,1.0,meatball_13s.jpg,0.0,Orange.png,2.0,107,,,,,,,,,,,,,,,,,
0.0,1.0,0.486835,0.0,10.0,10.0,10.0,1.0,rolling_pin_02s.jpg,0.0,Yellow.png,2.0,107,,,,,,,,,,,,,,,,,
0.0,1.0,0.675225,0.0,11.0,11.0,11.0,1.0,gingerbread_man_03s.jpg,0.0,Green.png,2.0,107,,,,,,,,,,,,,,,,,
0.0,1.0,1.229805,0.0,12.0,12.0,12.0,1.0,rocking_chair_05s.jpg,0.0,Blue.png,3.0,107,,,,,,,,,,,,,,,,,
0.0,1.0,0.827925,0.0,13.0,13.0,13.0,1.0,bowler_hat_10s.jpg,0.0,Purple.png,3.0,107,,,,,,,,,,,,,,,,,
1.0,1.0,0.812905,0.0,14.0,14.0,14.0,1.0,rocking_chair_05s.jpg,1.0,Red.png,3.0,107,,,,,,,,,,,,,,,,,
0.0,1.0,0.92577,0.0,15.0,15.0,15.0,1.0,rocking_chair_05s.jpg,0.0,Orange.png,3.0,107,,,,,,,,,,,,,,,,,
1.0,1.0,1.47212,0.0,16.0,16.0,16.0,1.0,rocking_chair_05s.jpg,1.0,Yellow.png,3.0,107,,,,,,,,,,,,,,,,,
0.0,1.0,0.46141,0.0,17.0,17.0,17.0,1.0,projector_08s.jpg,0.0,Green.png,3.0,107,,,,,,,,,,,,,,,,,
0.0,1.0,1.27106,0.0,18.0,18.0,18.0,1.0,checkbook_11s.jpg,0.0,Blue.png,4.0,107,,,,,,,,,,,,,,,,,
0.0,1.0,1.326405,0.0,19.0,19.0,19.0,1.0,checkbook_11s.jpg,0.0,Purple.png,4.0,107,,,,,,,,,,,,,,,,,
0.0,1.0,0.86166,0.0,20.0,20.0,20.0,1.0,crab_16s.jpg,0.0,Red.png,4.0,107,,,,,,,,,,,,,,,,,
1.0,1.0,0.84081,0.0,21.0,21.0,21.0,1.0,checkbook_11s.jpg,1.0,Orange.png,4.0,107,,,,,,,,,,,,,,,,,
0.0,1.0,0.54213,0.0,22.0,22.0,22.0,1.0,peanut_butter_08s.jpg,0.0,Yellow.png,4.0,107,,,,,,,,,,,,,,,,,
0.0,1.0,0.632525,0.0,23.0,23.0,23.0,1.0,breadstick_08s.jpg,0.0,Green.png,4.0,107,,,,,,,,,,,,,,,,,
0.0,1.0,0.468135,0.0,24.0,24.0,24.0,1.0,stethoscope_01b.jpg,0.0,Blue.png,5.0,107,,,,,,,,,,,,,,,,,
0.0,1.0,0.541625,0.0,25.0,25.0,25.0,1.0,pineapple_12s.jpg,0.0,Purple.png,5.0,107,,,,,,,,,,,,,,,,,
1.0,1.0,0.63475,0.0,26.0,26.0,26.0,1.0,stethoscope_01b.jpg,1.0,Red.png,5.0,107,,,,,,,,,,,,,,,,,
1.0,1.0,1.57019,0.0,27.0,27.0,27.0,1.0,pineapple_12s.jpg,1.0,Orange.png,5.0,107,,,,,,,,,,,,,,,,,
0.0,1.0,0.632295,0.0,28.0,28.0,28.0,1.0,air_pump_05s.jpg,0.0,Yellow.png,5.0,107,,,,,,,,,,,,,,,,,
0.0,1.0,0.444865,0.0,29.0,29.0,29.0,1.0,birdcage_08s.jpg,0.0,Green.png,5.0,107,,,,,,,,,,,,,,,,,
0.0,1.0,0.509665,0.0,30.0,30.0,30.0,1.0,kangaroo_02s.jpg,0.0,Blue.png,6.0,107,,,,,,,,,,,,,,,,,
0.0,1.0,0.542115,0.0,31.0,31.0,31.0,1.0,juicer2_06s.jpg,0.0,Purple.png,6.0,107,,,,,,,,,,,,,,,,,
0.0,1.0,0.46552,0.0,32.0,32.0,32.0,1.0,harpoon.jpg,0.0,Red.png,6.0,107,,,,,,,,,,,,,,,,,
0.0,1.0,0.58452,0.0,33.0,33.0,33.0,1.0,mirror_12s.jpg,0.0,Orange.png,6.0,107,,,,,,,,,,,,,,,,,
0.0,1.0,0.466085,0.0,34.0,34.0,34.0,1.0,gear_07s.jpg,0.0,Yellow.png,6.0,107,,,,,,,,,,,,,,,,,
0.0,1.0,0.472505,0.0,35.0,35.0,35.0,1.0,timer_03s.jpg,0.0,Green.png,6.0,107,,,,,,,,,,,,,,,,,
,,,,,,,,,1.0,,,107,1.0,1.0,1.94102,0.0,0.0,0.0,0.0,1.0,powder_07s.jpg,gingerbread_man_03s.jpg,,,,,,,
,,,,,,,,,1.0,,,107,0.0,0.0,2.702075,0.0,1.0,1.0,1.0,1.0,air_pump_05s.jpg,juicer2_06s.jpg,,,,,,,
,,,,,,,,,0.0,,,107,0.0,1.0,2.68765,0.0,2.0,2.0,2.0,1.0,crab_16s.jpg,projector_08s.jpg,,,,,,,
,,,,,,,,,0.0,,,107,1.0,0.0,2.203565,0.0,3.0,3.0,3.0,1.0,mirror_12s.jpg,kangaroo_02s.jpg,,,,,,,
,,,,,,,,,0.0,,,107,0.0,1.0,1.09177,0.0,4.0,4.0,4.0,1.0,bowler_hat_10s.jpg,rolling_pin_02s.jpg,,,,,,,
,,,,,,,,,1.0,,,107,1.0,1.0,2.125535,0.0,5.0,5.0,5.0,1.0,eggshell_14s.jpg,meatball_13s.jpg,,,,,,,
,,,,,,,,,,,,107,,,,,,,,,,,0.0,0.0,0.0,0.0,1.0,new2backpresent_1_1.xlsx,new2back_compare_task_1_1.xlsx
0.0,1.0,1.12283,0.0,0.0,0.0,0.0,1.0,trident_07s.jpg,0.0,Blue.png,1.0,107,,,,,,,,,,,,,,,,,
0.0,1.0,0.3105,0.0,1.0,1.0,1.0,1.0,rosary_03s.jpg,0.0,Purple.png,1.0,107,,,,,,,,,,,,,,,,,
0.0,1.0,0.51378,0.0,2.0,2.0,2.0,1.0,toilet_paper_12s.jpg,0.0,Red.png,1.0,107,,,,,,,,,,,,,,,,,
1.0,1.0,0.49691,0.0,3.0,3.0,3.0,1.0,rosary_03s.jpg,1.0,Orange.png,1.0,107,,,,,,,,,,,,,,,,,
1.0,1.0,0.62125,0.0,4.0,4.0,4.0,1.0,toilet_paper_12s.jpg,1.0,Yellow.png,1.0,107,,,,,,,,,,,,,,,,,
0.0,1.0,0.82699,0.0,5.0,5.0,5.0,1.0,potpourri_03s.jpg,0.0,Green.png,1.0,107,,,,,,,,,,,,,,,,,
0.0,1.0,0.490035,0.0,6.0,6.0,6.0,1.0,rocket_02s.jpg,0.0,Blue.png,2.0,107,,,,,,,,,,,,,,,,,
0.0,1.0,0.489395,0.0,7.0,7.0,7.0,1.0,piano_13n.jpg,0.0,Purple.png,2.0,107,,,,,,,,,,,,,,,,,
1.0,1.0,0.71661,0.0,8.0,8.0,8.0,1.0,rocket_02s.jpg,1.0,Red.png,2.0,107,,,,,,,,,,,,,,,,,
0.0,1.0,2.02816,0.0,9.0,9.0,9.0,1.0,rocket_02s.jpg,0.0,Orange.png,2.0,107,,,,,,,,,,,,,,,,,
0.0,1.0,0.59878,0.0,10.0,10.0,10.0,1.0,umbrella_15s.jpg,0.0,Yellow.png,2.0,107,,,,,,,,,,,,,,,,,
0.0,1.0,0.585105,0.0,11.0,11.0,11.0,1.0,touchpad_11s.jpg,0.0,Green.png,2.0,107,,,,,,,,,,,,,,,,,
0.0,1.0,1.187625,0.0,12.0,12.0,12.0,1.0,rocket_02s.jpg,0.0,Blue.png,3.0,107,,,,,,,,,,,,,,,,,
0.0,1.0,1.8486,0.0,13.0,13.0,13.0,1.0,rocket_02s.jpg,0.0,Purple.png,3.0,107,,,,,,,,,,,,,,,,,
1.0,1.0,0.462725,0.0,14.0,14.0,14.0,1.0,rocket_02s.jpg,1.0,Red.png,3.0,107,,,,,,,,,,,,,,,,,
0.0,1.0,0.659935,0.0,15.0,15.0,15.0,1.0,roller_coaster_07s.jpg,0.0,Orange.png,3.0,107,,,,,,,,,,,,,,,,,
0.0,1.0,0.54907,0.0,16.0,16.0,16.0,1.0,torch_02s.jpg,0.0,Yellow.png,3.0,107,,,,,,,,,,,,,,,,,
0.0,1.0,0.481705,0.0,17.0,17.0,17.0,1.0,lion_18s.jpg,0.0,Green.png,3.0,107,,,,,,,,,,,,,,,,,
0.0,1.0,0.55759,0.0,18.0,18.0,18.0,1.0,microwave_02s.jpg,0.0,Blue.png,4.0,107,,,,,,,,,,,,,,,,,
0.0,1.0,0.51035,0.0,19.0,19.0,19.0,1.0,denture_03s.jpg,0.0,Purple.png,4.0,107,,,,,,,,,,,,,,,,,
0.0,1.0,0.584715,0.0,20.0,20.0,20.0,1.0,fur_coat_11s.jpg,0.0,Red.png,4.0,107,,,,,,,,,,,,,,,,,
0.0,1.0,0.5515,0.0,21.0,21.0,21.0,1.0,pepper_mill_03s.jpg,0.0,Orange.png,4.0,107,,,,,,,,,,,,,,,,,
0.0,1.0,0.738125,0.0,22.0,22.0,22.0,1.0,antenna_01b.jpg,0.0,Yellow.png,4.0,107,,,,,,,,,,,,,,,,,
1.0,1.0,0.389395,0.0,23.0,23.0,23.0,1.0,pepper_mill_03s.jpg,1.0,Green.png,4.0,107,,,,,,,,,,,,,,,,,
0.0,1.0,0.793875,0.0,24.0,24.0,24.0,1.0,touchpad_11s.jpg,0.0,Blue.png,5.0,107,,,,,,,,,,,,,,,,,
0.0,1.0,0.788225,0.0,25.0,25.0,25.0,1.0,otter_05s.jpg,0.0,Purple.png,5.0,107,,,,,,,,,,,,,,,,,
0.0,1.0,0.570335,0.0,26.0,26.0,26.0,1.0,squirt_gun_03s.jpg,0.0,Red.png,5.0,107,,,,,,,,,,,,,,,,,
1.0,1.0,0.52907,0.0,27.0,27.0,27.0,1.0,otter_05s.jpg,1.0,Orange.png,5.0,107,,,,,,,,,,,,,,,,,
0.0,1.0,1.80056,0.0,28.0,28.0,28.0,1.0,touchpad_11s.jpg,0.0,Yellow.png,5.0,107,,,,,,,,,,,,,,,,,
0.0,1.0,0.920885,0.0,29.0,29.0,29.0,1.0,touchpad_11s.jpg,0.0,Green.png,5.0,107,,,,,,,,,,,,,,,,,
0.0,1.0,0.6321,0.0,30.0,30.0,30.0,1.0,kayak_08s.jpg,0.0,Blue.png,6.0,107,,,,,,,,,,,,,,,,,
0.0,1.0,0.586345,0.0,31.0,31.0,31.0,1.0,mascara_03s.jpg,0.0,Purple.png,6.0,107,,,,,,,,,,,,,,,,,
0.0,1.0,0.599075,0.0,32.0,32.0,32.0,1.0,ink_08s.jpg,0.0,Red.png,6.0,107,,,,,,,,,,,,,,,,,
0.0,1.0,1.17461,0.0,33.0,33.0,33.0,1.0,kayak_08s.jpg,0.0,Orange.png,6.0,107,,,,,,,,,,,,,,,,,
0.0,1.0,0.4658,0.0,34.0,34.0,34.0,1.0,towel_rack_04s.jpg,0.0,Yellow.png,6.0,107,,,,,,,,,,,,,,,,,
0.0,1.0,0.569395,0.0,35.0,35.0,35.0,1.0,jewel_01b.jpg,0.0,Green.png,6.0,107,,,,,,,,,,,,,,,,,
,,,,,,,,,1.0,,,107,1.0,1.0,1.63591,0.0,0.0,0.0,0.0,1.0,torch_02s.jpg,denture_03s.jpg,,,,,,,
,,,,,,,,,0.0,,,107,0.0,1.0,1.723645,0.0,1.0,1.0,1.0,1.0,towel_rack_04s.jpg,mascara_03s.jpg,,,,,,,
,,,,,,,,,1.0,,,107,1.0,1.0,1.28514,0.0,2.0,2.0,2.0,1.0,piano_13n.jpg,umbrella_15s.jpg,,,,,,,
,,,,,,,,,0.0,,,107,0.0,1.0,1.49419,0.0,3.0,3.0,3.0,1.0,fur_coat_11s.jpg,lion_18s.jpg,,,,,,,
,,,,,,,,,1.0,,,107,1.0,1.0,1.36564,0.0,4.0,4.0,4.0,1.0,roller_coaster_07s.jpg,microwave_02s.jpg,,,,,,,
,,,,,,,,,1.0,,,107,1.0,1.0,1.13279,0.0,5.0,5.0,5.0,1.0,ink_08s.jpg,jewel_01b.jpg,,,,,,,
,,,,,,,,,,,,107,,,,,,,,,,,0.0,1.0,1.0,1.0,1.0,new2backpresent_2_1.xlsx,new2back_compare_task_2_1.xlsx
0.0,1.0,1.02249,0.0,0.0,0.0,0.0,1.0,icemaker_10s.jpg,0.0,Blue.png,1.0,107,,,,,,,,,,,,,,,,,
0.0,1.0,1.25352,0.0,1.0,1.0,1.0,1.0,icemaker_10s.jpg,0.0,Purple.png,1.0,107,,,,,,,,,,,,,,,,,
0.0,1.0,0.746355,0.0,2.0,2.0,2.0,1.0,tile_08s.jpg,0.0,Red.png,1.0,107,,,,,,,,,,,,,,,,,
0.0,1.0,0.71211,0.0,3.0,3.0,3.0,1.0,fossil_06s.jpg,0.0,Orange.png,1.0,107,,,,,,,,,,,,,,,,,
0.0,1.0,0.9597,0.0,4.0,4.0,4.0,1.0,fossil_06s.jpg,0.0,Yellow.png,1.0,107,,,,,,,,,,,,,,,,,
0.0,1.0,0.705265,0.0,5.0,5.0,5.0,1.0,ravioli_08s.jpg,0.0,Green.png,1.0,107,,,,,,,,,,,,,,,,,
0.0,1.0,0.500235,0.0,6.0,6.0,6.0,1.0,top_hat_11s.jpg,0.0,Blue.png,2.0,107,,,,,,,,,,,,,,,,,
0.0,1.0,0.49686,0.0,7.0,7.0,7.0,1.0,raccoon_02s.jpg,0.0,Purple.png,2.0,107,,,,,,,,,,,,,,,,,
0.0,1.0,0.475235,0.0,8.0,8.0,8.0,1.0,snowman_02s.jpg,0.0,Red.png,2.0,107,,,,,,,,,,,,,,,,,
0.0,1.0,0.499885,0.0,9.0,9.0,9.0,1.0,peach_04s.jpg,0.0,Orange.png,2.0,107,,,,,,,,,,,,,,,,,
0.0,1.0,0.69091,0.0,10.0,10.0,10.0,1.0,beard_16s.jpg,0.0,Yellow.png,2.0,107,,,,,,,,,,,,,,,,,
0.0,1.0,0.593585,0.0,11.0,11.0,11.0,1.0,rollerskate_03s.jpg,0.0,Green.png,2.0,107,,,,,,,,,,,,,,,,,
0.0,1.0,0.53509,0.0,12.0,12.0,12.0,1.0,mango_09s.jpg,0.0,Blue.png,3.0,107,,,,,,,,,,,,,,,,,
0.0,1.0,0.765555,0.0,13.0,13.0,13.0,1.0,mango_09s.jpg,0.0,Purple.png,3.0,107,,,,,,,,,,,,,,,,,
0.0,1.0,0.5279,0.0,14.0,14.0,14.0,1.0,magnet_03s.jpg,0.0,Red.png,3.0,107,,,,,,,,,,,,,,,,,
1.0,1.0,0.75083,0.0,15.0,15.0,15.0,1.0,mango_09s.jpg,1.0,Orange.png,3.0,107,,,,,,,,,,,,,,,,,
0.0,1.0,1.284815,0.0,16.0,16.0,16.0,1.0,mango_09s.jpg,0.0,Yellow.png,3.0,107,,,,,,,,,,,,,,,,,
,0.0,,0.0,17.0,17.0,17.0,1.0,mango_09s.jpg,1.0,Green.png,3.0,107,,,,,,,,,,,,,,,,,
0.0,1.0,0.67381,0.0,18.0,18.0,18.0,1.0,punch2_09s.jpg,0.0,Blue.png,4.0,107,,,,,,,,,,,,,,,,,
0.0,1.0,0.590795,0.0,19.0,19.0,19.0,1.0,jelly_bean_06s.jpg,0.0,Purple.png,4.0,107,,,,,,,,,,,,,,,,,
1.0,1.0,0.384215,0.0,20.0,20.0,20.0,1.0,punch2_09s.jpg,1.0,Red.png,4.0,107,,,,,,,,,,,,,,,,,
1.0,1.0,1.154005,0.0,21.0,21.0,21.0,1.0,jelly_bean_06s.jpg,1.0,Orange.png,4.0,107,,,,,,,,,,,,,,,,,
0.0,1.0,0.88893,0.0,22.0,22.0,22.0,1.0,jelly_bean_06s.jpg,0.0,Yellow.png,4.0,107,,,,,,,,,,,,,,,,,
0.0,1.0,0.62546,0.0,23.0,23.0,23.0,1.0,typewriter_11s.jpg,0.0,Green.png,4.0,107,,,,,,,,,,,,,,,,,
0.0,1.0,0.804955,0.0,24.0,24.0,24.0,1.0,icemaker_10s.jpg,0.0,Blue.png,5.0,107,,,,,,,,,,,,,,,,,
1.0,1.0,0.75875,0.0,25.0,25.0,25.0,1.0,typewriter_11s.jpg,1.0,Purple.png,5.0,107,,,,,,,,,,,,,,,,,
0.0,1.0,0.433855,0.0,26.0,26.0,26.0,1.0,key_07s.jpg,0.0,Red.png,5.0,107,,,,,,,,,,,,,,,,,
0.0,1.0,1.75018,0.0,27.0,27.0,27.0,1.0,foam_03s.jpg,0.0,Orange.png,5.0,107,,,,,,,,,,,,,,,,,
0.0,1.0,1.2915,0.0,28.0,28.0,28.0,1.0,candy_cane_06s.jpg,0.0,Yellow.png,5.0,107,,,,,,,,,,,,,,,,,
0.0,1.0,0.9398,0.0,29.0,29.0,29.0,1.0,puffin_19s.jpg,0.0,Green.png,5.0,107,,,,,,,,,,,,,,,,,
0.0,1.0,0.932025,0.0,30.0,30.0,30.0,1.0,outlet_10s.jpg,0.0,Blue.png,6.0,107,,,,,,,,,,,,,,,,,
0.0,1.0,1.00309,0.0,31.0,31.0,31.0,1.0,lasagna_06s.jpg,0.0,Purple.png,6.0,107,,,,,,,,,,,,,,,,,
0.0,1.0,1.160315,0.0,32.0,32.0,32.0,1.0,lasagna_06s.jpg,0.0,Red.png,6.0,107,,,,,,,,,,,,,,,,,
0.0,1.0,0.86129,0.0,33.0,33.0,33.0,1.0,marker_05s.jpg,0.0,Orange.png,6.0,107,,,,,,,,,,,,,,,,,
0.0,1.0,1.069325,0.0,34.0,34.0,34.0,1.0,cushion_08s.jpg,0.0,Yellow.png,6.0,107,,,,,,,,,,,,,,,,,
0.0,1.0,1.013955,0.0,35.0,35.0,35.0,1.0,badge_03s.jpg,0.0,Green.png,6.0,107,,,,,,,,,,,,,,,,,
,,,,,,,,,0.0,,,107,1.0,0.0,3.00561,0.0,0.0,0.0,0.0,1.0,beard_16s.jpg,raccoon_02s.jpg,,,,,,,
,,,,,,,,,0.0,,,107,0.0,1.0,1.513245,0.0,1.0,1.0,1.0,1.0,peach_04s.jpg,top_hat_11s.jpg,,,,,,,
,,,,,,,,,1.0,,,107,1.0,1.0,1.453235,0.0,2.0,2.0,2.0,1.0,rollerskate_03s.jpg,magnet_03s.jpg,,,,,,,
,,,,,,,,,1.0,,,107,1.0,1.0,1.162705,0.0,3.0,3.0,3.0,1.0,foam_03s.jpg,outlet_10s.jpg,,,,,,,
,,,,,,,,,0.0,,,107,0.0,1.0,2.042225,0.0,4.0,4.0,4.0,1.0,snowman_02s.jpg,ravioli_08s.jpg,,,,,,,
,,,,,,,,,0.0,,,107,0.0,1.0,1.493125,0.0,5.0,5.0,5.0,1.0,puffin_19s.jpg,key_07s.jpg,,,,,,,
,,,,,,,,,,,,107,,,,,,,,,,,0.0,2.0,2.0,2.0,1.0,new2backpresent_3_1.xlsx,new2back_compare_task_3_1.xlsx
0.0,1.0,1.290305,0.0,0.0,0.0,0.0,1.0,lollipop_08s.jpg,0.0,Blue.png,1.0,107,,,,,,,,,,,,,,,,,
0.0,1.0,0.35743,0.0,1.0,1.0,1.0,1.0,keyboard_05s.jpg,0.0,Purple.png,1.0,107,,,,,,,,,,,,,,,,,
0.0,1.0,0.458685,0.0,2.0,2.0,2.0,1.0,pomegranate_04s.jpg,0.0,Red.png,1.0,107,,,,,,,,,,,,,,,,,
0.0,1.0,0.52797,0.0,3.0,3.0,3.0,1.0,olive_05s.jpg,0.0,Orange.png,1.0,107,,,,,,,,,,,,,,,,,
0.0,1.0,0.7292,0.0,4.0,4.0,4.0,1.0,hummingbird_05s.jpg,0.0,Yellow.png,1.0,107,,,,,,,,,,,,,,,,,
0.0,1.0,0.52267,0.0,5.0,5.0,5.0,1.0,cucumber_07s.jpg,0.0,Green.png,1.0,107,,,,,,,,,,,,,,,,,
0.0,1.0,0.95501,0.0,6.0,6.0,6.0,1.0,olive_05s.jpg,0.0,Blue.png,2.0,107,,,,,,,,,,,,,,,,,
0.0,1.0,0.78465,0.0,7.0,7.0,7.0,1.0,pinwheel_06s.jpg,0.0,Purple.png,2.0,107,,,,,,,,,,,,,,,,,
1.0,1.0,1.228735,0.0,8.0,8.0,8.0,1.0,olive_05s.jpg,1.0,Red.png,2.0,107,,,,,,,,,,,,,,,,,
0.0,1.0,1.11773,0.0,9.0,9.0,9.0,1.0,orchid_01b.jpg,0.0,Orange.png,2.0,107,,,,,,,,,,,,,,,,,
1.0,1.0,0.82657,0.0,10.0,10.0,10.0,1.0,olive_05s.jpg,1.0,Yellow.png,2.0,107,,,,,,,,,,,,,,,,,
0.0,1.0,0.411545,0.0,11.0,11.0,11.0,1.0,lectern_08s.jpg,0.0,Green.png,2.0,107,,,,,,,,,,,,,,,,,
0.0,1.0,0.604455,0.0,12.0,12.0,12.0,1.0,margarita_03s.jpg,0.0,Blue.png,3.0,107,,,,,,,,,,,,,,,,,
0.0,1.0,1.17031,0.0,13.0,13.0,13.0,1.0,margarita_03s.jpg,0.0,Purple.png,3.0,107,,,,,,,,,,,,,,,,,
0.0,1.0,0.661045,0.0,14.0,14.0,14.0,1.0,swan_11s.jpg,0.0,Red.png,3.0,107,,,,,,,,,,,,,,,,,
0.0,1.0,0.42475,0.0,15.0,15.0,15.0,1.0,tripod_01b.jpg,0.0,Orange.png,3.0,107,,,,,,,,,,,,,,,,,
0.0,1.0,0.610835,0.0,16.0,16.0,16.0,1.0,mop_08s.jpg,0.0,Yellow.png,3.0,107,,,,,,,,,,,,,,,,,
0.0,1.0,0.60417,0.0,17.0,17.0,17.0,1.0,plaster_cast_13s.jpg,0.0,Green.png,3.0,107,,,,,,,,,,,,,,,,,
0.0,1.0,0.52778,0.0,18.0,18.0,18.0,1.0,gas_mask_11s.jpg,0.0,Blue.png,4.0,107,,,,,,,,,,,,,,,,,
0.0,1.0,0.48629,0.0,19.0,19.0,19.0,1.0,tinsel_12s.jpg,0.0,Purple.png,4.0,107,,,,,,,,,,,,,,,,,
0.0,1.0,0.489875,0.0,20.0,20.0,20.0,1.0,smokingpipe.jpg,0.0,Red.png,4.0,107,,,,,,,,,,,,,,,,,
0.0,1.0,0.6819,0.0,21.0,21.0,21.0,1.0,iron_13s.jpg,0.0,Orange.png,4.0,107,,,,,,,,,,,,,,,,,
0.0,1.0,2.11395,0.0,22.0,22.0,22.0,1.0,iron_13s.jpg,0.0,Yellow.png,4.0,107,,,,,,,,,,,,,,,,,
1.0,1.0,0.634455,0.0,23.0,23.0,23.0,1.0,iron_13s.jpg,1.0,Green.png,4.0,107,,,,,,,,,,,,,,,,,
0.0,1.0,0.563055,0.0,24.0,24.0,24.0,1.0,rhubarb_03s.jpg,0.0,Blue.png,5.0,107,,,,,,,,,,,,,,,,,
0.0,1.0,0.404065,0.0,25.0,25.0,25.0,1.0,tambourine_06s.jpg,0.0,Purple.png,5.0,107,,,,,,,,,,,,,,,,,
0.0,1.0,0.737945,0.0,26.0,26.0,26.0,1.0,tambourine_06s.jpg,0.0,Red.png,5.0,107,,,,,,,,,,,,,,,,,
0.0,1.0,0.56995,0.0,27.0,27.0,27.0,1.0,mousetrap_15n.jpg,0.0,Orange.png,5.0,107,,,,,,,,,,,,,,,,,
0.0,1.0,0.639035,0.0,28.0,28.0,28.0,1.0,ticktacktoe_08s.jpg,0.0,Yellow.png,5.0,107,,,,,,,,,,,,,,,,,
0.0,1.0,0.50183,0.0,29.0,29.0,29.0,1.0,sunflower_17s.jpg,0.0,Green.png,5.0,107,,,,,,,,,,,,,,,,,
0.0,1.0,0.61149,0.0,30.0,30.0,30.0,1.0,onion_10s.jpg,0.0,Blue.png,6.0,107,,,,,,,,,,,,,,,,,
0.0,1.0,0.891335,0.0,31.0,31.0,31.0,1.0,ant_12s.jpg,0.0,Purple.png,6.0,107,,,,,,,,,,,,,,,,,
0.0,1.0,0.99965,0.0,32.0,32.0,32.0,1.0,insole_11s.jpg,0.0,Red.png,6.0,107,,,,,,,,,,,,,,,,,
0.0,1.0,0.99671,0.0,33.0,33.0,33.0,1.0,keyboard_05s.jpg,0.0,Orange.png,6.0,107,,,,,,,,,,,,,,,,,
0.0,1.0,0.88912,0.0,34.0,34.0,34.0,1.0,aluminum_foil_08s.jpg,0.0,Yellow.png,6.0,107,,,,,,,,,,,,,,,,,
0.0,1.0,0.90969,0.0,35.0,35.0,35.0,1.0,money_07s.jpg,0.0,Green.png,6.0,107,,,,,,,,,,,,,,,,,
,,,,,,,,,0.0,,,107,0.0,1.0,1.362245,0.0,0.0,0.0,0.0,1.0,pinwheel_06s.jpg,hummingbird_05s.jpg,,,,,,,
,,,,,,,,,1.0,,,107,1.0,1.0,1.38656,0.0,1.0,1.0,1.0,1.0,mop_08s.jpg,tinsel_12s.jpg,,,,,,,
,,,,,,,,,1.0,,,107,1.0,1.0,1.237105,0.0,2.0,2.0,2.0,1.0,pomegranate_04s.jpg,cucumber_07s.jpg,,,,,,,
,,,,,,,,,0.0,,,107,0.0,1.0,1.66041,0.0,3.0,3.0,3.0,1.0,aluminum_foil_08s.jpg,ant_12s.jpg,,,,,,,
,,,,,,,,,0.0,,,107,0.0,1.0,1.24644,0.0,4.0,4.0,4.0,1.0,gas_mask_11s.jpg,tripod_01b.jpg,,,,,,,
,,,,,,,,,0.0,,,107,0.0,1.0,1.267545,0.0,5.0,5.0,5.0,1.0,mousetrap_15n.jpg,rhubarb_03s.jpg,,,,,,,
,,,,,,,,,,,,107,,,,,,,,,,,0.0,3.0,3.0,3.0,1.0,new2backpresent_4_1.xlsx,new2back_compare_task_4_1.xlsx
0.0,1.0,1.07157,0.0,0.0,0.0,0.0,1.0,jalapeno_15s.jpg,0.0,Blue.png,1.0,107,,,,,,,,,,,,,,,,,
0.0,1.0,0.426645,0.0,1.0,1.0,1.0,1.0,pincushion_10s.jpg,0.0,Purple.png,1.0,107,,,,,,,,,,,,,,,,,
0.0,1.0,0.41976,0.0,2.0,2.0,2.0,1.0,fondue_07s.jpg,0.0,Red.png,1.0,107,,,,,,,,,,,,,,,,,
0.0,1.0,0.521665,0.0,3.0,3.0,3.0,1.0,safety_pin_02s.jpg,0.0,Orange.png,1.0,107,,,,,,,,,,,,,,,,,
0.0,1.0,0.53505,0.0,4.0,4.0,4.0,1.0,turf_03s.jpg,0.0,Yellow.png,1.0,107,,,,,,,,,,,,,,,,,
0.0,1.0,0.8616,0.0,5.0,5.0,5.0,1.0,jalapeno_15s.jpg,0.0,Green.png,1.0,107,,,,,,,,,,,,,,,,,
0.0,1.0,1.44439,0.0,6.0,6.0,6.0,1.0,jalapeno_15s.jpg,0.0,Blue.png,2.0,107,,,,,,,,,,,,,,,,,
1.0,1.0,0.576765,0.0,7.0,7.0,7.0,1.0,jalapeno_15s.jpg,1.0,Purple.png,2.0,107,,,,,,,,,,,,,,,,,
0.0,1.0,0.56996,0.0,8.0,8.0,8.0,1.0,spoon02a.jpg,0.0,Red.png,2.0,107,,,,,,,,,,,,,,,,,
0.0,1.0,0.729125,0.0,9.0,9.0,9.0,1.0,puppet_01b.jpg,0.0,Orange.png,2.0,107,,,,,,,,,,,,,,,,,
0.0,1.0,1.600265,0.0,10.0,10.0,10.0,1.0,jalapeno_15s.jpg,0.0,Yellow.png,2.0,107,,,,,,,,,,,,,,,,,
0.0,1.0,2.44446,0.0,11.0,11.0,11.0,1.0,jalapeno_15s.jpg,0.0,Green.png,2.0,107,,,,,,,,,,,,,,,,,
0.0,1.0,1.305915,0.0,12.0,12.0,12.0,1.0,popcorn_09s.jpg,0.0,Blue.png,3.0,107,,,,,,,,,,,,,,,,,
0.0,1.0,0.57022,0.0,13.0,13.0,13.0,1.0,popcorn_09s.jpg,0.0,Purple.png,3.0,107,,,,,,,,,,,,,,,,,
0.0,1.0,0.80637,0.0,14.0,14.0,14.0,1.0,swordfish_05s.jpg,0.0,Red.png,3.0,107,,,,,,,,,,,,,,,,,
1.0,1.0,0.388885,0.0,15.0,15.0,15.0,1.0,popcorn_09s.jpg,1.0,Orange.png,3.0,107,,,,,,,,,,,,,,,,,
0.0,1.0,0.7778,0.0,16.0,16.0,16.0,1.0,police_car_01s.jpg,0.0,Yellow.png,3.0,107,,,,,,,,,,,,,,,,,
0.0,1.0,0.54855,0.0,17.0,17.0,17.0,1.0,ginger_09s.jpg,0.0,Green.png,3.0,107,,,,,,,,,,,,,,,,,
0.0,1.0,0.618145,0.0,18.0,18.0,18.0,1.0,cap_05s.jpg,0.0,Blue.png,4.0,107,,,,,,,,,,,,,,,,,
0.0,1.0,0.60398,0.0,19.0,19.0,19.0,1.0,ice-cream_cone_06s.jpg,0.0,Purple.png,4.0,107,,,,,,,,,,,,,,,,,
0.0,1.0,0.528835,0.0,20.0,20.0,20.0,1.0,purse_05s.jpg,0.0,Red.png,4.0,107,,,,,,,,,,,,,,,,,
0.0,1.0,0.51511,0.0,21.0,21.0,21.0,1.0,squirrel_02s.jpg,0.0,Orange.png,4.0,107,,,,,,,,,,,,,,,,,
0.0,1.0,0.94748,0.0,22.0,22.0,22.0,1.0,cap_05s.jpg,0.0,Yellow.png,4.0,107,,,,,,,,,,,,,,,,,
0.0,1.0,0.57651,0.0,23.0,23.0,23.0,1.0,pie_08s.jpg,0.0,Green.png,4.0,107,,,,,,,,,,,,,,,,,
0.0,1.0,0.521925,0.0,24.0,24.0,24.0,1.0,thread_08s.jpg,0.0,Blue.png,5.0,107,,,,,,,,,,,,,,,,,
0.0,1.0,0.673785,0.0,25.0,25.0,25.0,1.0,punch1_10s.jpg,0.0,Purple.png,5.0,107,,,,,,,,,,,,,,,,,
0.0,1.0,0.7286,0.0,26.0,26.0,26.0,1.0,cereal_04s.jpg,0.0,Red.png,5.0,107,,,,,,,,,,,,,,,,,
0.0,1.0,0.555835,0.0,27.0,27.0,27.0,1.0,espresso_01b.jpg,0.0,Orange.png,5.0,107,,,,,,,,,,,,,,,,,
1.0,1.0,0.826335,0.0,28.0,28.0,28.0,1.0,cereal_04s.jpg,1.0,Yellow.png,5.0,107,,,,,,,,,,,,,,,,,
0.0,1.0,1.946715,0.0,29.0,29.0,29.0,1.0,cereal_04s.jpg,0.0,Green.png,5.0,107,,,,,,,,,,,,,,,,,
0.0,1.0,0.555525,0.0,30.0,30.0,30.0,1.0,tube_top_03s.jpg,0.0,Blue.png,6.0,107,,,,,,,,,,,,,,,,,
0.0,1.0,0.583315,0.0,31.0,31.0,31.0,1.0,pepper2_21s.jpg,0.0,Purple.png,6.0,107,,,,,,,,,,,,,,,,,
0.0,1.0,0.500595,0.0,32.0,32.0,32.0,1.0,jersey_02s.jpg,0.0,Red.png,6.0,107,,,,,,,,,,,,,,,,,
0.0,1.0,0.572985,0.0,33.0,33.0,33.0,1.0,mussel_11s.jpg,0.0,Orange.png,6.0,107,,,,,,,,,,,,,,,,,
0.0,1.0,0.494275,0.0,34.0,34.0,34.0,1.0,toaster_03s.jpg,0.0,Yellow.png,6.0,107,,,,,,,,,,,,,,,,,
0.0,1.0,0.56981,0.0,35.0,35.0,35.0,1.0,tie_03s.jpg,0.0,Green.png,6.0,107,,,,,,,,,,,,,,,,,
,,,,,,,,,0.0,,,107,0.0,1.0,1.999335,0.0,0.0,0.0,0.0,1.0,ice-cream_cone_06s.jpg,police_car_01s.jpg,,,,,,,
,,,,,,,,,0.0,,,107,0.0,1.0,1.337275,0.0,1.0,1.0,1.0,1.0,turf_03s.jpg,pincushion_10s.jpg,,,,,,,
,,,,,,,,,0.0,,,107,0.0,1.0,1.226765,0.0,2.0,2.0,2.0,1.0,purse_05s.jpg,ginger_09s.jpg,,,,,,,
,,,,,,,,,1.0,,,107,1.0,1.0,1.11221,0.0,3.0,3.0,3.0,1.0,jersey_02s.jpg,tie_03s.jpg,,,,,,,
,,,,,,,,,0.0,,,107,0.0,1.0,1.319205,0.0,4.0,4.0,4.0,1.0,toaster_03s.jpg,pepper2_21s.jpg,,,,,,,
,,,,,,,,,0.0,,,107,0.0,1.0,1.60444,0.0,5.0,5.0,5.0,1.0,thread_08s.jpg,squirrel_02s.jpg,,,,,,,
,,,,,,,,,,,,107,,,,,,,,,,,0.0,4.0,4.0,4.0,1.0,new2backpresent_5_1.xlsx,new2back_compare_task_5_1.xlsx
0.0,1.0,0.601735,0.0,0.0,0.0,0.0,1.0,omelet_07s.jpg,0.0,Blue.png,1.0,107,,,,,,,,,,,,,,,,,
0.0,1.0,0.348095,0.0,1.0,1.0,1.0,1.0,popsicle_02s.jpg,0.0,Purple.png,1.0,107,,,,,,,,,,,,,,,,,
0.0,1.0,1.76454,0.0,2.0,2.0,2.0,1.0,letter_opener_03s.jpg,0.0,Red.png,1.0,107,,,,,,,,,,,,,,,,,
0.0,1.0,0.58419,0.0,3.0,3.0,3.0,1.0,diving_board_07s.jpg,0.0,Orange.png,1.0,107,,,,,,,,,,,,,,,,,
0.0,1.0,0.731125,0.0,4.0,4.0,4.0,1.0,omelet_07s.jpg,0.0,Yellow.png,1.0,107,,,,,,,,,,,,,,,,,
0.0,1.0,0.75033,0.0,5.0,5.0,5.0,1.0,letter_opener_03s.jpg,0.0,Green.png,1.0,107,,,,,,,,,,,,,,,,,
1.0,1.0,0.43419,0.0,6.0,6.0,6.0,1.0,omelet_07s.jpg,1.0,Blue.png,2.0,107,,,,,,,,,,,,,,,,,
0.0,1.0,0.571205,0.0,7.0,7.0,7.0,1.0,cape_11s.jpg,0.0,Purple.png,2.0,107,,,,,,,,,,,,,,,,,
1.0,1.0,2.07014,0.0,8.0,8.0,8.0,1.0,omelet_07s.jpg,1.0,Red.png,2.0,107,,,,,,,,,,,,,,,,,
0.0,1.0,0.663495,0.0,9.0,9.0,9.0,1.0,lantern_04s.jpg,0.0,Orange.png,2.0,107,,,,,,,,,,,,,,,,,
0.0,1.0,0.644935,0.0,10.0,10.0,10.0,1.0,leotard_08s.jpg,0.0,Yellow.png,2.0,107,,,,,,,,,,,,,,,,,
0.0,1.0,0.597915,0.0,11.0,11.0,11.0,1.0,pacifier_09s.jpg,0.0,Green.png,2.0,107,,,,,,,,,,,,,,,,,
0.0,1.0,0.539045,0.0,12.0,12.0,12.0,1.0,rocking_horse_03s.jpg,0.0,Blue.png,3.0,107,,,,,,,,,,,,,,,,,
0.0,1.0,0.46162,0.0,13.0,13.0,13.0,1.0,cardinal_07s.jpg,0.0,Purple.png,3.0,107,,,,,,,,,,,,,,,,,
0.0,1.0,0.499835,0.0,14.0,14.0,14.0,1.0,hyena_16s.jpg,0.0,Red.png,3.0,107,,,,,,,,,,,,,,,,,
0.0,1.0,0.507405,0.0,15.0,15.0,15.0,1.0,oil_02s.jpg,0.0,Orange.png,3.0,107,,,,,,,,,,,,,,,,,
0.0,1.0,0.465595,0.0,16.0,16.0,16.0,1.0,marshmallow_08s.jpg,0.0,Yellow.png,3.0,107,,,,,,,,,,,,,,,,,
,0.0,,0.0,17.0,17.0,17.0,1.0,oil_02s.jpg,1.0,Green.png,3.0,107,,,,,,,,,,,,,,,,,
0.0,1.0,1.118075,0.0,18.0,18.0,18.0,1.0,omelet_07s.jpg,0.0,Blue.png,4.0,107,,,,,,,,,,,,,,,,,
1.0,1.0,1.028085,0.0,19.0,19.0,19.0,1.0,oil_02s.jpg,1.0,Purple.png,4.0,107,,,,,,,,,,,,,,,,,
0.0,1.0,0.593515,0.0,20.0,20.0,20.0,1.0,knitting_needle_04s.jpg,0.0,Red.png,4.0,107,,,,,,,,,,,,,,,,,
1.0,1.0,0.69829,0.0,21.0,21.0,21.0,1.0,oil_02s.jpg,1.0,Orange.png,4.0,107,,,,,,,,,,,,,,,,,
0.0,1.0,0.584265,0.0,22.0,22.0,22.0,1.0,ice_pack_09s.jpg,0.0,Yellow.png,4.0,107,,,,,,,,,,,,,,,,,
0.0,1.0,0.4591,0.0,23.0,23.0,23.0,1.0,peppermint_07s.jpg,0.0,Green.png,4.0,107,,,,,,,,,,,,,,,,,
0.0,1.0,0.516105,0.0,24.0,24.0,24.0,1.0,submarine_11n.jpg,0.0,Blue.png,5.0,107,,,,,,,,,,,,,,,,,
0.0,1.0,0.51787,0.0,25.0,25.0,25.0,1.0,seagull_01b.jpg,0.0,Purple.png,5.0,107,,,,,,,,,,,,,,,,,
0.0,1.0,0.612905,0.0,26.0,26.0,26.0,1.0,omelet_07s.jpg,0.0,Red.png,5.0,107,,,,,,,,,,,,,,,,,
0.0,1.0,0.493835,0.0,27.0,27.0,27.0,1.0,bonsai_07s.jpg,0.0,Orange.png,5.0,107,,,,,,,,,,,,,,,,,
0.0,1.0,0.87907,0.0,28.0,28.0,28.0,1.0,bonsai_07s.jpg,0.0,Yellow.png,5.0,107,,,,,,,,,,,,,,,,,
0.0,1.0,1.228955,0.0,29.0,29.0,29.0,1.0,omelet_07s.jpg,0.0,Green.png,5.0,107,,,,,,,,,,,,,,,,,
1.0,1.0,1.341775,0.0,30.0,30.0,30.0,1.0,bonsai_07s.jpg,1.0,Blue.png,6.0,107,,,,,,,,,,,,,,,,,
0.0,1.0,0.411895,0.0,31.0,31.0,31.0,1.0,quilt_03s.jpg,0.0,Purple.png,6.0,107,,,,,,,,,,,,,,,,,
0.0,1.0,0.535075,0.0,32.0,32.0,32.0,1.0,incense_02s.jpg,0.0,Red.png,6.0,107,,,,,,,,,,,,,,,,,
1.0,1.0,1.25237,0.0,33.0,33.0,33.0,1.0,quilt_03s.jpg,1.0,Orange.png,6.0,107,,,,,,,,,,,,,,,,,
1.0,1.0,1.166485,0.0,34.0,34.0,34.0,1.0,incense_02s.jpg,1.0,Yellow.png,6.0,107,,,,,,,,,,,,,,,,,
0.0,1.0,0.94461,0.0,35.0,35.0,35.0,1.0,incense_02s.jpg,0.0,Green.png,6.0,107,,,,,,,,,,,,,,,,,
,,,,,,,,,1.0,,,107,1.0,1.0,2.91788,0.0,0.0,0.0,0.0,1.0,pacifier_09s.jpg,hyena_16s.jpg,,,,,,,
,,,,,,,,,0.0,,,107,1.0,0.0,1.398065,0.0,1.0,1.0,1.0,1.0,peppermint_07s.jpg,knitting_needle_04s.jpg,,,,,,,
,,,,,,,,,1.0,,,107,1.0,1.0,1.54977,0.0,2.0,2.0,2.0,1.0,ice_pack_09s.jpg,seagull_01b.jpg,,,,,,,
,,,,,,,,,0.0,,,107,0.0,1.0,1.51843,0.0,3.0,3.0,3.0,1.0,marshmallow_08s.jpg,cardinal_07s.jpg,,,,,,,
,,,,,,,,,1.0,,,107,1.0,1.0,1.10718,0.0,4.0,4.0,4.0,1.0,cape_11s.jpg,leotard_08s.jpg,,,,,,,
,,,,,,,,,1.0,,,107,1.0,1.0,1.066195,0.0,5.0,5.0,5.0,1.0,lantern_04s.jpg,rocking_horse_03s.jpg,,,,,,,
,,,,,,,,,,,,107,,,,,,,,,,,0.0,5.0,5.0,5.0,1.0,new2backpresent_6_1.xlsx,new2back_compare_task_6_1.xlsx
0.0,1.0,2.3282,0.0,0.0,0.0,0.0,1.0,petri_dish_12s.jpg,0.0,Blue.png,1.0,107,,,,,,,,,,,,,,,,,
0.0,1.0,0.993615,0.0,1.0,1.0,1.0,1.0,toothpaste_12s.jpg,0.0,Purple.png,1.0,107,,,,,,,,,,,,,,,,,
0.0,1.0,1.132135,0.0,2.0,2.0,2.0,1.0,medal_04s.jpg,0.0,Red.png,1.0,107,,,,,,,,,,,,,,,,,
0.0,1.0,0.865355,0.0,3.0,3.0,3.0,1.0,potholder_02s.jpg,0.0,Orange.png,1.0,107,,,,,,,,,,,,,,,,,
0.0,1.0,0.523785,0.0,4.0,4.0,4.0,1.0,puck_06s.jpg,0.0,Yellow.png,1.0,107,,,,,,,,,,,,,,,,,
0.0,1.0,0.556055,0.0,5.0,5.0,5.0,1.0,bagel_15s.jpg,0.0,Green.png,1.0,107,,,,,,,,,,,,,,,,,
0.0,1.0,0.808425,0.0,6.0,6.0,6.0,1.0,golf_club_03s.jpg,0.0,Blue.png,2.0,107,,,,,,,,,,,,,,,,,
0.0,1.0,1.236585,0.0,7.0,7.0,7.0,1.0,golf_club_03s.jpg,0.0,Purple.png,2.0,107,,,,,,,,,,,,,,,,,
1.0,1.0,0.868525,0.0,8.0,8.0,8.0,1.0,golf_club_03s.jpg,1.0,Red.png,2.0,107,,,,,,,,,,,,,,,,,
0.0,1.0,0.382675,0.0,9.0,9.0,9.0,1.0,inhaler_01b.jpg,0.0,Orange.png,2.0,107,,,,,,,,,,,,,,,,,
1.0,1.0,2.333675,0.0,10.0,10.0,10.0,1.0,golf_club_03s.jpg,1.0,Yellow.png,2.0,107,,,,,,,,,,,,,,,,,
0.0,1.0,0.612465,0.0,11.0,11.0,11.0,1.0,tiger_06s.jpg,0.0,Green.png,2.0,107,,,,,,,,,,,,,,,,,
0.0,1.0,0.844685,0.0,12.0,12.0,12.0,1.0,medal_04s.jpg,0.0,Blue.png,3.0,107,,,,,,,,,,,,,,,,,
0.0,1.0,1.21514,0.0,13.0,13.0,13.0,1.0,medal_04s.jpg,0.0,Purple.png,3.0,107,,,,,,,,,,,,,,,,,
1.0,1.0,0.82622,0.0,14.0,14.0,14.0,1.0,medal_04s.jpg,1.0,Red.png,3.0,107,,,,,,,,,,,,,,,,,
0.0,1.0,0.701995,0.0,15.0,15.0,15.0,1.0,licorice_06s.jpg,0.0,Orange.png,3.0,107,,,,,,,,,,,,,,,,,
1.0,1.0,1.02087,0.0,16.0,16.0,16.0,1.0,medal_04s.jpg,1.0,Yellow.png,3.0,107,,,,,,,,,,,,,,,,,
0.0,1.0,0.58054,0.0,17.0,17.0,17.0,1.0,frog_09s.jpg,0.0,Green.png,3.0,107,,,,,,,,,,,,,,,,,
0.0,1.0,0.777665,0.0,18.0,18.0,18.0,1.0,laser_pointer_02s.jpg,0.0,Blue.png,4.0,107,,,,,,,,,,,,,,,,,
0.0,1.0,0.465115,0.0,19.0,19.0,19.0,1.0,treasure_08s.jpg,0.0,Purple.png,4.0,107,,,,,,,,,,,,,,,,,
0.0,1.0,0.646445,0.0,20.0,20.0,20.0,1.0,padlock_07s.jpg,0.0,Red.png,4.0,107,,,,,,,,,,,,,,,,,
0.0,1.0,0.736405,0.0,21.0,21.0,21.0,1.0,panda_02s.jpg,0.0,Orange.png,4.0,107,,,,,,,,,,,,,,,,,
0.0,1.0,0.584515,0.0,22.0,22.0,22.0,1.0,plunger_08s.jpg,0.0,Yellow.png,4.0,107,,,,,,,,,,,,,,,,,
0.0,1.0,0.516375,0.0,23.0,23.0,23.0,1.0,pancake_12s.jpg,0.0,Green.png,4.0,107,,,,,,,,,,,,,,,,,
0.0,1.0,0.458735,0.0,24.0,24.0,24.0,1.0,fire_pit_10s.jpg,0.0,Blue.png,5.0,107,,,,,,,,,,,,,,,,,
0.0,1.0,0.54542,0.0,25.0,25.0,25.0,1.0,bubble_01b.jpg,0.0,Purple.png,5.0,107,,,,,,,,,,,,,,,,,
0.0,1.0,0.941315,0.0,26.0,26.0,26.0,1.0,bubble_01b.jpg,0.0,Red.png,5.0,107,,,,,,,,,,,,,,,,,
1.0,1.0,0.701885,0.0,27.0,27.0,27.0,1.0,bubble_01b.jpg,1.0,Orange.png,5.0,107,,,,,,,,,,,,,,,,,
1.0,1.0,1.006905,0.0,28.0,28.0,28.0,1.0,bubble_01b.jpg,1.0,Yellow.png,5.0,107,,,,,,,,,,,,,,,,,
0.0,1.0,0.515215,0.0,29.0,29.0,29.0,1.0,power_line_08s.jpg,0.0,Green.png,5.0,107,,,,,,,,,,,,,,,,,
0.0,1.0,0.91314,0.0,30.0,30.0,30.0,1.0,golf_club_03s.jpg,0.0,Blue.png,6.0,107,,,,,,,,,,,,,,,,,
0.0,1.0,0.63821,0.0,31.0,31.0,31.0,1.0,kilt_18s.jpg,0.0,Purple.png,6.0,107,,,,,,,,,,,,,,,,,
0.0,1.0,0.6394,0.0,32.0,32.0,32.0,1.0,tupperware_09s.jpg,0.0,Red.png,6.0,107,,,,,,,,,,,,,,,,,
0.0,1.0,0.55036,0.0,33.0,33.0,33.0,1.0,go-kart_10s.jpg,0.0,Orange.png,6.0,107,,,,,,,,,,,,,,,,,
0.0,1.0,1.028365,0.0,34.0,34.0,34.0,1.0,bottle_opener_11s.jpg,0.0,Yellow.png,6.0,107,,,,,,,,,,,,,,,,,
1.0,1.0,0.808005,0.0,35.0,35.0,35.0,1.0,go-kart_10s.jpg,1.0,Green.png,6.0,107,,,,,,,,,,,,,,,,,
,,,,,,,,,1.0,,,107,1.0,1.0,2.11187,0.0,0.0,0.0,0.0,1.0,toothpaste_12s.jpg,puck_06s.jpg,,,,,,,
,,,,,,,,,0.0,,,107,1.0,0.0,2.340825,0.0,1.0,1.0,1.0,1.0,padlock_07s.jpg,frog_09s.jpg,,,,,,,
,,,,,,,,,0.0,,,107,1.0,0.0,1.142365,0.0,2.0,2.0,2.0,1.0,plunger_08s.jpg,treasure_08s.jpg,,,,,,,
,,,,,,,,,1.0,,,107,1.0,1.0,1.201765,0.0,3.0,3.0,3.0,1.0,licorice_06s.jpg,laser_pointer_02s.jpg,,,,,,,
,,,,,,,,,1.0,,,107,1.0,1.0,0.86173,0.0,4.0,4.0,4.0,1.0,petri_dish_12s.jpg,potholder_02s.jpg,,,,,,,
,,,,,,,,,0.0,,,107,0.0,1.0,1.03865,0.0,5.0,5.0,5.0,1.0,tupperware_09s.jpg,power_line_08s.jpg,,,,,,,
,,,,,,,,,,,,107,,,,,,,,,,,0.0,6.0,6.0,6.0,1.0,new2backpresent_7_1.xlsx,new2back_compare_task_7_1.xlsx
0.0,1.0,1.18708,0.0,0.0,0.0,0.0,1.0,toad_09s.jpg,0.0,Blue.png,1.0,107,,,,,,,,,,,,,,,,,
0.0,1.0,0.828705,0.0,1.0,1.0,1.0,1.0,toad_09s.jpg,0.0,Purple.png,1.0,107,,,,,,,,,,,,,,,,,
1.0,1.0,1.16648,0.0,2.0,2.0,2.0,1.0,toad_09s.jpg,1.0,Red.png,1.0,107,,,,,,,,,,,,,,,,,
0.0,1.0,0.480845,0.0,3.0,3.0,3.0,1.0,lamb_04s.jpg,0.0,Orange.png,1.0,107,,,,,,,,,,,,,,,,,
1.0,1.0,0.87542,0.0,4.0,4.0,4.0,1.0,toad_09s.jpg,1.0,Yellow.png,1.0,107,,,,,,,,,,,,,,,,,
0.0,1.0,0.569765,0.0,5.0,5.0,5.0,1.0,possum_09s.jpg,0.0,Green.png,1.0,107,,,,,,,,,,,,,,,,,
0.0,1.0,0.529065,0.0,6.0,6.0,6.0,1.0,reindeer_08s.jpg,0.0,Blue.png,2.0,107,,,,,,,,,,,,,,,,,
0.0,1.0,1.014335,0.0,7.0,7.0,7.0,1.0,reindeer_08s.jpg,0.0,Purple.png,2.0,107,,,,,,,,,,,,,,,,,
0.0,1.0,0.6425,0.0,8.0,8.0,8.0,1.0,knot_01b.jpg,0.0,Red.png,2.0,107,,,,,,,,,,,,,,,,,
1.0,1.0,2.113945,0.0,9.0,9.0,9.0,1.0,reindeer_08s.jpg,1.0,Orange.png,2.0,107,,,,,,,,,,,,,,,,,
0.0,1.0,0.70971,0.0,10.0,10.0,10.0,1.0,pan_02s.jpg,0.0,Yellow.png,2.0,107,,,,,,,,,,,,,,,,,
0.0,1.0,0.58369,0.0,11.0,11.0,11.0,1.0,ladle_04s.jpg,0.0,Green.png,2.0,107,,,,,,,,,,,,,,,,,
0.0,1.0,0.780335,0.0,12.0,12.0,12.0,1.0,tuxedo_01b.jpg,0.0,Blue.png,3.0,107,,,,,,,,,,,,,,,,,
0.0,1.0,0.584395,0.0,13.0,13.0,13.0,1.0,lemonade_04s.jpg,0.0,Purple.png,3.0,107,,,,,,,,,,,,,,,,,
0.0,1.0,0.663505,0.0,14.0,14.0,14.0,1.0,cobra_05s.jpg,0.0,Red.png,3.0,107,,,,,,,,,,,,,,,,,
0.0,1.0,0.68765,0.0,15.0,15.0,15.0,1.0,pocketknife_12s.jpg,0.0,Orange.png,3.0,107,,,,,,,,,,,,,,,,,
0.0,1.0,0.6126,0.0,16.0,16.0,16.0,1.0,kettle_08s.jpg,0.0,Yellow.png,3.0,107,,,,,,,,,,,,,,,,,
0.0,1.0,0.430575,0.0,17.0,17.0,17.0,1.0,spider_web_03s.jpg,0.0,Green.png,3.0,107,,,,,,,,,,,,,,,,,
0.0,1.0,1.30581,0.0,18.0,18.0,18.0,1.0,pretzel_09s.jpg,0.0,Blue.png,4.0,107,,,,,,,,,,,,,,,,,
0.0,1.0,1.892075,0.0,19.0,19.0,19.0,1.0,rock_08s.jpg,0.0,Purple.png,4.0,107,,,,,,,,,,,,,,,,,
0.0,1.0,0.669145,0.0,20.0,20.0,20.0,1.0,boar_10s.jpg,0.0,Red.png,4.0,107,,,,,,,,,,,,,,,,,
0.0,1.0,0.53546,0.0,21.0,21.0,21.0,1.0,sunglasses_11s.jpg,0.0,Orange.png,4.0,107,,,,,,,,,,,,,,,,,
0.0,0.0,1.961185,0.0,22.0,22.0,22.0,1.0,boar_10s.jpg,1.0,Yellow.png,4.0,107,,,,,,,,,,,,,,,,,
0.0,1.0,0.590845,0.0,23.0,23.0,23.0,1.0,smoothie_09s.jpg,0.0,Green.png,4.0,107,,,,,,,,,,,,,,,,,
0.0,1.0,0.502445,0.0,24.0,24.0,24.0,1.0,latch_15s.jpg,0.0,Blue.png,5.0,107,,,,,,,,,,,,,,,,,
0.0,1.0,0.507435,0.0,25.0,25.0,25.0,1.0,amber_04s.jpg,0.0,Purple.png,5.0,107,,,,,,,,,,,,,,,,,
0.0,1.0,0.668685,0.0,26.0,26.0,26.0,1.0,amber_04s.jpg,0.0,Red.png,5.0,107,,,,,,,,,,,,,,,,,
0.0,1.0,0.52952,0.0,27.0,27.0,27.0,1.0,tennis_ball_06s.jpg,0.0,Orange.png,5.0,107,,,,,,,,,,,,,,,,,
1.0,1.0,0.653585,0.0,28.0,28.0,28.0,1.0,amber_04s.jpg,1.0,Yellow.png,5.0,107,,,,,,,,,,,,,,,,,
0.0,1.0,0.53651,0.0,29.0,29.0,29.0,1.0,milk_02s.jpg,0.0,Green.png,5.0,107,,,,,,,,,,,,,,,,,
0.0,1.0,0.702285,0.0,30.0,30.0,30.0,1.0,coat_rack_01b.jpg,0.0,Blue.png,6.0,107,,,,,,,,,,,,,,,,,
0.0,1.0,0.56232,0.0,31.0,31.0,31.0,1.0,thorn_13s.jpg,0.0,Purple.png,6.0,107,,,,,,,,,,,,,,,,,
1.0,1.0,0.84735,0.0,32.0,32.0,32.0,1.0,coat_rack_01b.jpg,1.0,Red.png,6.0,107,,,,,,,,,,,,,,,,,
0.0,1.0,2.32182,0.0,33.0,33.0,33.0,1.0,razor_blade_01b.jpg,0.0,Orange.png,6.0,107,,,,,,,,,,,,,,,,,
0.0,1.0,0.70092,0.0,34.0,34.0,34.0,1.0,lid_10s.jpg,0.0,Yellow.png,6.0,107,,,,,,,,,,,,,,,,,
0.0,1.0,0.701455,0.0,35.0,35.0,35.0,1.0,lid_10s.jpg,0.0,Green.png,6.0,107,,,,,,,,,,,,,,,,,
,,,,,,,,,0.0,,,107,0.0,1.0,1.749485,0.0,0.0,0.0,0.0,1.0,pocketknife_12s.jpg,tuxedo_01b.jpg,,,,,,,
,,,,,,,,,1.0,,,107,1.0,1.0,1.298745,0.0,1.0,1.0,1.0,1.0,possum_09s.jpg,knot_01b.jpg,,,,,,,
,,,,,,,,,1.0,,,107,0.0,0.0,1.10443,0.0,2.0,2.0,2.0,1.0,pan_02s.jpg,lemonade_04s.jpg,,,,,,,
,,,,,,,,,0.0,,,107,0.0,1.0,1.34368,0.0,3.0,3.0,3.0,1.0,tennis_ball_06s.jpg,latch_15s.jpg,,,,,,,
,,,,,,,,,0.0,,,107,1.0,0.0,1.189095,0.0,4.0,4.0,4.0,1.0,rock_08s.jpg,kettle_08s.jpg,,,,,,,
,,,,,,,,,1.0,,,107,0.0,0.0,2.6951,0.0,5.0,5.0,5.0,1.0,cobra_05s.jpg,spider_web_03s.jpg,,,,,,,
,,,,,,,,,,,,107,,,,,,,,,,,0.0,7.0,7.0,7.0,1.0,new2backpresent_8_1.xlsx,new2back_compare_task_8_1.xlsx
0.0,1.0,1.13333,0.0,0.0,0.0,0.0,1.0,recliner_02s.jpg,0.0,Blue.png,1.0,107,,,,,,,,,,,,,,,,,
0.0,1.0,0.277715,0.0,1.0,1.0,1.0,1.0,lava_02s.jpg,0.0,Purple.png,1.0,107,,,,,,,,,,,,,,,,,
0.0,1.0,0.438105,0.0,2.0,2.0,2.0,1.0,quesadilla_07s.jpg,0.0,Red.png,1.0,107,,,,,,,,,,,,,,,,,
0.0,1.0,0.49308,0.0,3.0,3.0,3.0,1.0,chalice_10s.jpg,0.0,Orange.png,1.0,107,,,,,,,,,,,,,,,,,
0.0,1.0,0.52132,0.0,4.0,4.0,4.0,1.0,tulip_02s.jpg,0.0,Yellow.png,1.0,107,,,,,,,,,,,,,,,,,
0.0,1.0,0.988755,0.0,5.0,5.0,5.0,1.0,quesadilla_07s.jpg,0.0,Green.png,1.0,107,,,,,,,,,,,,,,,,,
0.0,1.0,0.655215,0.0,6.0,6.0,6.0,1.0,lamppost_09s.jpg,0.0,Blue.png,2.0,107,,,,,,,,,,,,,,,,,
0.0,1.0,0.558125,0.0,7.0,7.0,7.0,1.0,chopsticks_08s.jpg,0.0,Purple.png,2.0,107,,,,,,,,,,,,,,,,,
0.0,1.0,0.544515,0.0,8.0,8.0,8.0,1.0,refrigerator_07s.jpg,0.0,Red.png,2.0,107,,,,,,,,,,,,,,,,,
1.0,1.0,0.971415,0.0,9.0,9.0,9.0,1.0,chopsticks_08s.jpg,1.0,Orange.png,2.0,107,,,,,,,,,,,,,,,,,
0.0,1.0,0.465175,0.0,10.0,10.0,10.0,1.0,paper_towel_03s.jpg,0.0,Yellow.png,2.0,107,,,,,,,,,,,,,,,,,
0.0,1.0,0.54284,0.0,11.0,11.0,11.0,1.0,flask_04s.jpg,0.0,Green.png,2.0,107,,,,,,,,,,,,,,,,,
0.0,1.0,0.61903,0.0,12.0,12.0,12.0,1.0,pantyhose_07s.jpg,0.0,Blue.png,3.0,107,,,,,,,,,,,,,,,,,
1.0,1.0,1.50001,0.0,13.0,13.0,13.0,1.0,flask_04s.jpg,1.0,Purple.png,3.0,107,,,,,,,,,,,,,,,,,
0.0,1.0,1.201545,0.0,14.0,14.0,14.0,1.0,chopsticks_08s.jpg,0.0,Red.png,3.0,107,,,,,,,,,,,,,,,,,
0.0,1.0,0.494645,0.0,15.0,15.0,15.0,1.0,seahorse_13s.jpg,0.0,Orange.png,3.0,107,,,,,,,,,,,,,,,,,
0.0,1.0,0.53768,0.0,16.0,16.0,16.0,1.0,pencil_sharpener_09n.jpg,0.0,Yellow.png,3.0,107,,,,,,,,,,,,,,,,,
0.0,1.0,0.506625,0.0,17.0,17.0,17.0,1.0,clover_04s.jpg,0.0,Green.png,3.0,107,,,,,,,,,,,,,,,,,
1.0,1.0,0.646685,0.0,18.0,18.0,18.0,1.0,pencil_sharpener_09n.jpg,1.0,Blue.png,4.0,107,,,,,,,,,,,,,,,,,
0.0,1.0,0.51591,0.0,19.0,19.0,19.0,1.0,fishhook_06s.jpg,0.0,Purple.png,4.0,107,,,,,,,,,,,,,,,,,
1.0,0.0,2.205015,0.0,20.0,20.0,20.0,1.0,clover_04s.jpg,0.0,Red.png,4.0,107,,,,,,,,,,,,,,,,,
0.0,1.0,0.472325,0.0,21.0,21.0,21.0,1.0,stopwatch_04s.jpg,0.0,Orange.png,4.0,107,,,,,,,,,,,,,,,,,
0.0,1.0,0.632385,0.0,22.0,22.0,22.0,1.0,comic_book_02s.jpg,0.0,Yellow.png,4.0,107,,,,,,,,,,,,,,,,,
0.0,1.0,0.618765,0.0,23.0,23.0,23.0,1.0,lab_coat_11s.jpg,0.0,Green.png,4.0,107,,,,,,,,,,,,,,,,,
0.0,1.0,0.473695,0.0,24.0,24.0,24.0,1.0,bolo_tie_08s.jpg,0.0,Blue.png,5.0,107,,,,,,,,,,,,,,,,,
0.0,1.0,0.426705,0.0,25.0,25.0,25.0,1.0,teacup_07s.jpg,0.0,Purple.png,5.0,107,,,,,,,,,,,,,,,,,
0.0,1.0,0.50294,0.0,26.0,26.0,26.0,1.0,eyedropper_12s.jpg,0.0,Red.png,5.0,107,,,,,,,,,,,,,,,,,
0.0,1.0,0.451575,0.0,27.0,27.0,27.0,1.0,frame_06s.jpg,0.0,Orange.png,5.0,107,,,,,,,,,,,,,,,,,
0.0,1.0,1.35748,0.0,28.0,28.0,28.0,1.0,treadmill_06s.jpg,0.0,Yellow.png,5.0,107,,,,,,,,,,,,,,,,,
0.0,1.0,0.43058,0.0,29.0,29.0,29.0,1.0,mug_06s.jpg,0.0,Green.png,5.0,107,,,,,,,,,,,,,,,,,
0.0,1.0,1.30787,0.0,30.0,30.0,30.0,1.0,mug_06s.jpg,0.0,Blue.png,6.0,107,,,,,,,,,,,,,,,,,
1.0,1.0,1.014385,0.0,31.0,31.0,31.0,1.0,mug_06s.jpg,1.0,Purple.png,6.0,107,,,,,,,,,,,,,,,,,
0.0,1.0,0.480025,0.0,32.0,32.0,32.0,1.0,chip_04s.jpg,0.0,Red.png,6.0,107,,,,,,,,,,,,,,,,,
0.0,1.0,0.5496,0.0,33.0,33.0,33.0,1.0,gazelle_10s.jpg,0.0,Orange.png,6.0,107,,,,,,,,,,,,,,,,,
1.0,1.0,1.09726,0.0,34.0,34.0,34.0,1.0,chip_04s.jpg,1.0,Yellow.png,6.0,107,,,,,,,,,,,,,,,,,
0.0,1.0,0.972625,0.0,35.0,35.0,35.0,1.0,quill_09s.jpg,0.0,Green.png,6.0,107,,,,,,,,,,,,,,,,,
,,,,,,,,,0.0,,,107,1.0,0.0,1.951815,0.0,0.0,0.0,0.0,1.0,bolo_tie_08s.jpg,stopwatch_04s.jpg,,,,,,,
,,,,,,,,,0.0,,,107,0.0,1.0,0.95518,0.0,1.0,1.0,1.0,1.0,lamppost_09s.jpg,chalice_10s.jpg,,,,,,,
,,,,,,,,,0.0,,,107,0.0,1.0,1.931265,0.0,2.0,2.0,2.0,1.0,eyedropper_12s.jpg,lab_coat_11s.jpg,,,,,,,
,,,,,,,,,1.0,,,107,1.0,1.0,0.85872,0.0,3.0,3.0,3.0,1.0,lava_02s.jpg,tulip_02s.jpg,,,,,,,
,,,,,,,,,0.0,,,107,0.0,1.0,1.237675,0.0,4.0,4.0,4.0,1.0,seahorse_13s.jpg,pantyhose_07s.jpg,,,,,,,
,,,,,,,,,1.0,,,107,1.0,1.0,1.181345,0.0,5.0,5.0,5.0,1.0,fishhook_06s.jpg,comic_book_02s.jpg,,,,,,,
,,,,,,,,,,,,107,,,,,,,,,,,0.0,8.0,8.0,8.0,1.0,new2backpresent_9_1.xlsx,new2back_compare_task_9_1.xlsx
