key_resp.keys,key_resp.corr,key_resp.rt,present_segment.thisRepN,present_segment.thisTrialN,present_segment.thisN,present_segment.thisIndex,present_segment.ran,pictures,answer,clock,segment,participant,key_resp_2.keys,key_resp_2.corr,key_resp_2.rt,compare_segment.thisRepN,compare_segment.thisTrialN,compare_segment.thisN,compare_segment.thisIndex,compare_segment.ran,item_a,item_b,clock_conditions.thisRepN,clock_conditions.thisTrialN,clock_conditions.thisN,clock_conditions.thisIndex,clock_conditions.ran,present,compare
1.0,0.0,2.398485,0.0,0.0,0.0,0.0,1.0,mirror_12s.jpg,0.0,Blue.png,1.0,54,,,,,,,,,,,,,,,,,
,0.0,,0.0,1.0,1.0,1.0,1.0,polaroid_05s.jpg,0.0,Purple.png,1.0,54,,,,,,,,,,,,,,,,,
1.0,0.0,1.700745,0.0,2.0,2.0,2.0,1.0,polaroid_05s.jpg,0.0,Red.png,1.0,54,,,,,,,,,,,,,,,,,
0.0,1.0,2.23217,0.0,3.0,3.0,3.0,1.0,slingshot_07s.jpg,0.0,Orange.png,1.0,54,,,,,,,,,,,,,,,,,
1.0,1.0,2.115785,0.0,4.0,4.0,4.0,1.0,polaroid_05s.jpg,1.0,Yellow.png,1.0,54,,,,,,,,,,,,,,,,,
0.0,1.0,2.310605,0.0,5.0,5.0,5.0,1.0,kettle_08s.jpg,0.0,Green.png,1.0,54,,,,,,,,,,,,,,,,,
,0.0,,0.0,6.0,6.0,6.0,1.0,crystal_ball_12s.jpg,0.0,Blue.png,2.0,54,,,,,,,,,,,,,,,,,
0.0,1.0,2.243815,0.0,7.0,7.0,7.0,1.0,iron_13s.jpg,0.0,Purple.png,2.0,54,,,,,,,,,,,,,,,,,
0.0,1.0,2.320075,0.0,8.0,8.0,8.0,1.0,saddle_06s.jpg,0.0,Red.png,2.0,54,,,,,,,,,,,,,,,,,
0.0,1.0,2.07634,0.0,9.0,9.0,9.0,1.0,mango_09s.jpg,0.0,Orange.png,2.0,54,,,,,,,,,,,,,,,,,
0.0,1.0,2.01967,0.0,10.0,10.0,10.0,1.0,ostrich_06s.jpg,0.0,Yellow.png,2.0,54,,,,,,,,,,,,,,,,,
1.0,0.0,2.36575,0.0,11.0,11.0,11.0,1.0,iron_13s.jpg,0.0,Green.png,2.0,54,,,,,,,,,,,,,,,,,
0.0,1.0,1.991525,0.0,12.0,12.0,12.0,1.0,stethoscope_01b.jpg,0.0,Blue.png,3.0,54,,,,,,,,,,,,,,,,,
0.0,1.0,1.373725,0.0,13.0,13.0,13.0,1.0,ruby_15s.jpg,0.0,Purple.png,3.0,54,,,,,,,,,,,,,,,,,
1.0,0.0,1.867165,0.0,14.0,14.0,14.0,1.0,mango_09s.jpg,0.0,Red.png,3.0,54,,,,,,,,,,,,,,,,,
0.0,1.0,2.31701,0.0,15.0,15.0,15.0,1.0,target_11s.jpg,0.0,Orange.png,3.0,54,,,,,,,,,,,,,,,,,
1.0,1.0,2.347095,0.0,16.0,16.0,16.0,1.0,mango_09s.jpg,1.0,Yellow.png,3.0,54,,,,,,,,,,,,,,,,,
0.0,1.0,1.80152,0.0,17.0,17.0,17.0,1.0,compass_10n.jpg,0.0,Green.png,3.0,54,,,,,,,,,,,,,,,,,
0.0,1.0,2.424935,0.0,18.0,18.0,18.0,1.0,meatball_13s.jpg,0.0,Blue.png,4.0,54,,,,,,,,,,,,,,,,,
1.0,0.0,2.383785,0.0,19.0,19.0,19.0,1.0,stapler_01b.jpg,0.0,Purple.png,4.0,54,,,,,,,,,,,,,,,,,
1.0,1.0,2.39961,0.0,20.0,20.0,20.0,1.0,meatball_13s.jpg,1.0,Red.png,4.0,54,,,,,,,,,,,,,,,,,
0.0,1.0,2.41454,0.0,21.0,21.0,21.0,1.0,pump_11s.jpg,0.0,Orange.png,4.0,54,,,,,,,,,,,,,,,,,
0.0,1.0,2.201795,0.0,22.0,22.0,22.0,1.0,coral_08s.jpg,0.0,Yellow.png,4.0,54,,,,,,,,,,,,,,,,,
1.0,0.0,2.32794,0.0,23.0,23.0,23.0,1.0,meatball_13s.jpg,0.0,Green.png,4.0,54,,,,,,,,,,,,,,,,,
0.0,1.0,1.966055,0.0,24.0,24.0,24.0,1.0,peach_04s.jpg,0.0,Blue.png,5.0,54,,,,,,,,,,,,,,,,,
1.0,1.0,2.31805,0.0,25.0,25.0,25.0,1.0,meatball_13s.jpg,1.0,Purple.png,5.0,54,,,,,,,,,,,,,,,,,
0.0,1.0,2.101015,0.0,26.0,26.0,26.0,1.0,pie_08s.jpg,0.0,Red.png,5.0,54,,,,,,,,,,,,,,,,,
0.0,1.0,2.390905,0.0,27.0,27.0,27.0,1.0,rollerskate_03s.jpg,0.0,Orange.png,5.0,54,,,,,,,,,,,,,,,,,
0.0,1.0,2.310795,0.0,28.0,28.0,28.0,1.0,trampoline_13s.jpg,0.0,Yellow.png,5.0,54,,,,,,,,,,,,,,,,,
0.0,1.0,2.331735,0.0,29.0,29.0,29.0,1.0,undershirt_02s.jpg,0.0,Green.png,5.0,54,,,,,,,,,,,,,,,,,
0.0,1.0,2.27568,0.0,30.0,30.0,30.0,1.0,thread_08s.jpg,0.0,Blue.png,6.0,54,,,,,,,,,,,,,,,,,
0.0,1.0,2.158195,0.0,31.0,31.0,31.0,1.0,megaphone_03s.jpg,0.0,Purple.png,6.0,54,,,,,,,,,,,,,,,,,
0.0,1.0,1.984295,0.0,32.0,32.0,32.0,1.0,plaster_cast_13s.jpg,0.0,Red.png,6.0,54,,,,,,,,,,,,,,,,,
0.0,1.0,2.04985,0.0,33.0,33.0,33.0,1.0,diving_board_07s.jpg,0.0,Orange.png,6.0,54,,,,,,,,,,,,,,,,,
0.0,1.0,2.249665,0.0,34.0,34.0,34.0,1.0,kayak_08s.jpg,0.0,Yellow.png,6.0,54,,,,,,,,,,,,,,,,,
1.0,1.0,2.36621,0.0,35.0,35.0,35.0,1.0,diving_board_07s.jpg,1.0,Green.png,6.0,54,,,,,,,,,,,,,,,,,
,,,,,,,,,1.0,,,54,1.0,1.0,1.55883,0.0,0.0,0.0,0.0,1.0,stapler_01b.jpg,coral_08s.jpg,,,,,,,
,,,,,,,,,1.0,,,54,0.0,0.0,2.890345,0.0,1.0,1.0,1.0,1.0,slingshot_07s.jpg,crystal_ball_12s.jpg,,,,,,,
,,,,,,,,,0.0,,,54,1.0,0.0,1.998385,0.0,2.0,2.0,2.0,1.0,saddle_06s.jpg,kettle_08s.jpg,,,,,,,
,,,,,,,,,1.0,,,54,0.0,0.0,3.184825,0.0,3.0,3.0,3.0,1.0,pie_08s.jpg,undershirt_02s.jpg,,,,,,,
,,,,,,,,,1.0,,,54,0.0,0.0,2.01784,0.0,4.0,4.0,4.0,1.0,stethoscope_01b.jpg,target_11s.jpg,,,,,,,
,,,,,,,,,1.0,,,54,1.0,1.0,2.701205,0.0,5.0,5.0,5.0,1.0,ostrich_06s.jpg,ruby_15s.jpg,,,,,,,
,,,,,,,,,,,,54,,,,,,,,,,,0.0,0.0,0.0,0.0,1.0,new2backpresent_1_4.xlsx,new2back_compare_task_1_4.xlsx
1.0,0.0,2.112335,0.0,0.0,0.0,0.0,1.0,jetski_10s.jpg,0.0,Blue.png,1.0,54,,,,,,,,,,,,,,,,,
0.0,1.0,2.10279,0.0,1.0,1.0,1.0,1.0,tripod_01b.jpg,0.0,Purple.png,1.0,54,,,,,,,,,,,,,,,,,
0.0,1.0,2.28341,0.0,2.0,2.0,2.0,1.0,lab_coat_11s.jpg,0.0,Red.png,1.0,54,,,,,,,,,,,,,,,,,
0.0,1.0,2.17182,0.0,3.0,3.0,3.0,1.0,foam_03s.jpg,0.0,Orange.png,1.0,54,,,,,,,,,,,,,,,,,
0.0,1.0,2.315725,0.0,4.0,4.0,4.0,1.0,crate_05s.jpg,0.0,Yellow.png,1.0,54,,,,,,,,,,,,,,,,,
0.0,1.0,2.056825,0.0,5.0,5.0,5.0,1.0,margarita_03s.jpg,0.0,Green.png,1.0,54,,,,,,,,,,,,,,,,,
0.0,1.0,1.92064,0.0,6.0,6.0,6.0,1.0,joystick_01b.jpg,0.0,Blue.png,2.0,54,,,,,,,,,,,,,,,,,
0.0,1.0,2.3926,0.0,7.0,7.0,7.0,1.0,giraffe_11s.jpg,0.0,Purple.png,2.0,54,,,,,,,,,,,,,,,,,
0.0,1.0,2.42426,0.0,8.0,8.0,8.0,1.0,quilt_03s.jpg,0.0,Red.png,2.0,54,,,,,,,,,,,,,,,,,
1.0,1.0,2.352355,0.0,9.0,9.0,9.0,1.0,giraffe_11s.jpg,1.0,Orange.png,2.0,54,,,,,,,,,,,,,,,,,
0.0,1.0,2.15026,0.0,10.0,10.0,10.0,1.0,pincushion_10s.jpg,0.0,Yellow.png,2.0,54,,,,,,,,,,,,,,,,,
1.0,1.0,2.166975,0.0,11.0,11.0,11.0,1.0,giraffe_11s.jpg,1.0,Green.png,2.0,54,,,,,,,,,,,,,,,,,
1.0,1.0,2.32577,0.0,12.0,12.0,12.0,1.0,pincushion_10s.jpg,1.0,Blue.png,3.0,54,,,,,,,,,,,,,,,,,
1.0,1.0,2.06384,0.0,13.0,13.0,13.0,1.0,giraffe_11s.jpg,1.0,Purple.png,3.0,54,,,,,,,,,,,,,,,,,
0.0,1.0,2.357585,0.0,14.0,14.0,14.0,1.0,rolling_pin_02s.jpg,0.0,Red.png,3.0,54,,,,,,,,,,,,,,,,,
0.0,1.0,2.273285,0.0,15.0,15.0,15.0,1.0,ticktacktoe_08s.jpg,0.0,Orange.png,3.0,54,,,,,,,,,,,,,,,,,
1.0,0.0,1.90224,0.0,16.0,16.0,16.0,1.0,giraffe_11s.jpg,0.0,Yellow.png,3.0,54,,,,,,,,,,,,,,,,,
1.0,1.0,2.38442,0.0,17.0,17.0,17.0,1.0,ticktacktoe_08s.jpg,1.0,Green.png,3.0,54,,,,,,,,,,,,,,,,,
0.0,1.0,1.99033,0.0,18.0,18.0,18.0,1.0,typewriter_11s.jpg,0.0,Blue.png,4.0,54,,,,,,,,,,,,,,,,,
0.0,1.0,2.29248,0.0,19.0,19.0,19.0,1.0,toothpaste_12s.jpg,0.0,Purple.png,4.0,54,,,,,,,,,,,,,,,,,
0.0,1.0,2.31673,0.0,20.0,20.0,20.0,1.0,hummingbird_05s.jpg,0.0,Red.png,4.0,54,,,,,,,,,,,,,,,,,
1.0,1.0,2.36709,0.0,21.0,21.0,21.0,1.0,toothpaste_12s.jpg,1.0,Orange.png,4.0,54,,,,,,,,,,,,,,,,,
1.0,0.0,2.341185,0.0,22.0,22.0,22.0,1.0,toothpaste_12s.jpg,0.0,Yellow.png,4.0,54,,,,,,,,,,,,,,,,,
0.0,1.0,2.21917,0.0,23.0,23.0,23.0,1.0,treadmill_06s.jpg,0.0,Green.png,4.0,54,,,,,,,,,,,,,,,,,
1.0,0.0,2.359725,0.0,24.0,24.0,24.0,1.0,typewriter_11s.jpg,0.0,Blue.png,5.0,54,,,,,,,,,,,,,,,,,
0.0,1.0,2.161815,0.0,25.0,25.0,25.0,1.0,penguin_16s.jpg,0.0,Purple.png,5.0,54,,,,,,,,,,,,,,,,,
0.0,1.0,2.41607,0.0,26.0,26.0,26.0,1.0,olive_05s.jpg,0.0,Red.png,5.0,54,,,,,,,,,,,,,,,,,
1.0,1.0,2.40305,0.0,27.0,27.0,27.0,1.0,penguin_16s.jpg,1.0,Orange.png,5.0,54,,,,,,,,,,,,,,,,,
1.0,0.0,2.36547,0.0,28.0,28.0,28.0,1.0,penguin_16s.jpg,0.0,Yellow.png,5.0,54,,,,,,,,,,,,,,,,,
0.0,1.0,2.224965,0.0,29.0,29.0,29.0,1.0,tab_09s.jpg,0.0,Green.png,5.0,54,,,,,,,,,,,,,,,,,
0.0,1.0,2.32308,0.0,30.0,30.0,30.0,1.0,frame_06s.jpg,0.0,Blue.png,6.0,54,,,,,,,,,,,,,,,,,
0.0,1.0,2.223375,0.0,31.0,31.0,31.0,1.0,mop_08s.jpg,0.0,Purple.png,6.0,54,,,,,,,,,,,,,,,,,
0.0,1.0,1.80004,0.0,32.0,32.0,32.0,1.0,memory_stick_11s.jpg,0.0,Red.png,6.0,54,,,,,,,,,,,,,,,,,
1.0,0.0,1.896235,0.0,33.0,33.0,33.0,1.0,olive_05s.jpg,0.0,Orange.png,6.0,54,,,,,,,,,,,,,,,,,
0.0,1.0,1.678025,0.0,34.0,34.0,34.0,1.0,ravioli_08s.jpg,0.0,Yellow.png,6.0,54,,,,,,,,,,,,,,,,,
0.0,1.0,1.88384,0.0,35.0,35.0,35.0,1.0,mousetrap_15n.jpg,0.0,Green.png,6.0,54,,,,,,,,,,,,,,,,,
,,,,,,,,,1.0,,,54,0.0,0.0,2.695325,0.0,0.0,0.0,0.0,1.0,hummingbird_05s.jpg,treadmill_06s.jpg,,,,,,,
,,,,,,,,,1.0,,,54,1.0,1.0,7.42618,0.0,1.0,1.0,1.0,1.0,margarita_03s.jpg,quilt_03s.jpg,,,,,,,
,,,,,,,,,0.0,,,54,0.0,1.0,2.83496,0.0,2.0,2.0,2.0,1.0,joystick_01b.jpg,foam_03s.jpg,,,,,,,
,,,,,,,,,0.0,,,54,0.0,1.0,1.71861,0.0,3.0,3.0,3.0,1.0,ravioli_08s.jpg,mop_08s.jpg,,,,,,,
,,,,,,,,,1.0,,,54,0.0,0.0,2.41715,0.0,4.0,4.0,4.0,1.0,tab_09s.jpg,memory_stick_11s.jpg,,,,,,,
,,,,,,,,,1.0,,,54,0.0,0.0,4.39315,0.0,5.0,5.0,5.0,1.0,tripod_01b.jpg,crate_05s.jpg,,,,,,,
,,,,,,,,,,,,54,,,,,,,,,,,0.0,1.0,1.0,1.0,1.0,new2backpresent_2_4.xlsx,new2back_compare_task_2_4.xlsx
0.0,1.0,0.990195,0.0,0.0,0.0,0.0,1.0,safety_pin_02s.jpg,0.0,Blue.png,1.0,54,,,,,,,,,,,,,,,,,
1.0,0.0,2.41689,0.0,1.0,1.0,1.0,1.0,safety_pin_02s.jpg,0.0,Purple.png,1.0,54,,,,,,,,,,,,,,,,,
0.0,1.0,2.382295,0.0,2.0,2.0,2.0,1.0,cardinal_07s.jpg,0.0,Red.png,1.0,54,,,,,,,,,,,,,,,,,
1.0,1.0,2.35474,0.0,3.0,3.0,3.0,1.0,safety_pin_02s.jpg,1.0,Orange.png,1.0,54,,,,,,,,,,,,,,,,,
0.0,1.0,2.128835,0.0,4.0,4.0,4.0,1.0,potholder_02s.jpg,0.0,Yellow.png,1.0,54,,,,,,,,,,,,,,,,,
1.0,1.0,2.28635,0.0,5.0,5.0,5.0,1.0,safety_pin_02s.jpg,1.0,Green.png,1.0,54,,,,,,,,,,,,,,,,,
1.0,0.0,1.93288,0.0,6.0,6.0,6.0,1.0,cardinal_07s.jpg,0.0,Blue.png,2.0,54,,,,,,,,,,,,,,,,,
0.0,1.0,1.800865,0.0,7.0,7.0,7.0,1.0,lion_18s.jpg,0.0,Purple.png,2.0,54,,,,,,,,,,,,,,,,,
0.0,1.0,1.866935,0.0,8.0,8.0,8.0,1.0,comic_book_02s.jpg,0.0,Red.png,2.0,54,,,,,,,,,,,,,,,,,
0.0,1.0,1.939495,0.0,9.0,9.0,9.0,1.0,lizard_10n.jpg,0.0,Orange.png,2.0,54,,,,,,,,,,,,,,,,,
0.0,1.0,2.34593,0.0,10.0,10.0,10.0,1.0,rice_12s.jpg,0.0,Yellow.png,2.0,54,,,,,,,,,,,,,,,,,
0.0,1.0,2.325845,0.0,11.0,11.0,11.0,1.0,bagel_15s.jpg,0.0,Green.png,2.0,54,,,,,,,,,,,,,,,,,
0.0,1.0,2.197105,0.0,12.0,12.0,12.0,1.0,recliner_02s.jpg,0.0,Blue.png,3.0,54,,,,,,,,,,,,,,,,,
1.0,0.0,2.329755,0.0,13.0,13.0,13.0,1.0,recliner_02s.jpg,0.0,Purple.png,3.0,54,,,,,,,,,,,,,,,,,
0.0,1.0,2.01991,0.0,14.0,14.0,14.0,1.0,luggage_08s.jpg,0.0,Red.png,3.0,54,,,,,,,,,,,,,,,,,
1.0,1.0,2.459815,0.0,15.0,15.0,15.0,1.0,recliner_02s.jpg,1.0,Orange.png,3.0,54,,,,,,,,,,,,,,,,,
0.0,1.0,2.411,0.0,16.0,16.0,16.0,1.0,onion_10s.jpg,0.0,Yellow.png,3.0,54,,,,,,,,,,,,,,,,,
0.0,1.0,2.31928,0.0,17.0,17.0,17.0,1.0,rosary_03s.jpg,0.0,Green.png,3.0,54,,,,,,,,,,,,,,,,,
0.0,1.0,1.92008,0.0,18.0,18.0,18.0,1.0,smokingpipe.jpg,0.0,Blue.png,4.0,54,,,,,,,,,,,,,,,,,
0.0,1.0,1.90154,0.0,19.0,19.0,19.0,1.0,roulette_wheel_04s.jpg,0.0,Purple.png,4.0,54,,,,,,,,,,,,,,,,,
1.0,1.0,2.26476,0.0,20.0,20.0,20.0,1.0,smokingpipe.jpg,1.0,Red.png,4.0,54,,,,,,,,,,,,,,,,,
0.0,1.0,2.28187,0.0,21.0,21.0,21.0,1.0,orchid_01b.jpg,0.0,Orange.png,4.0,54,,,,,,,,,,,,,,,,,
0.0,1.0,1.989765,0.0,22.0,22.0,22.0,1.0,buoy_04s.jpg,0.0,Yellow.png,4.0,54,,,,,,,,,,,,,,,,,
0.0,1.0,2.10933,0.0,23.0,23.0,23.0,1.0,stopwatch_04s.jpg,0.0,Green.png,4.0,54,,,,,,,,,,,,,,,,,
0.0,1.0,1.9695,0.0,24.0,24.0,24.0,1.0,knitting_needle_04s.jpg,0.0,Blue.png,5.0,54,,,,,,,,,,,,,,,,,
0.0,1.0,1.959555,0.0,25.0,25.0,25.0,1.0,prism_10s.jpg,0.0,Purple.png,5.0,54,,,,,,,,,,,,,,,,,
0.0,1.0,1.77669,0.0,26.0,26.0,26.0,1.0,teapot_03s.jpg,0.0,Red.png,5.0,54,,,,,,,,,,,,,,,,,
0.0,1.0,2.276965,0.0,27.0,27.0,27.0,1.0,fire_pit_10s.jpg,0.0,Orange.png,5.0,54,,,,,,,,,,,,,,,,,
0.0,1.0,2.004785,0.0,28.0,28.0,28.0,1.0,fire_pit_10s.jpg,0.0,Yellow.png,5.0,54,,,,,,,,,,,,,,,,,
1.0,1.0,2.025385,0.0,29.0,29.0,29.0,1.0,fire_pit_10s.jpg,1.0,Green.png,5.0,54,,,,,,,,,,,,,,,,,
0.0,1.0,2.28062,0.0,30.0,30.0,30.0,1.0,ironing_board_07s.jpg,0.0,Blue.png,6.0,54,,,,,,,,,,,,,,,,,
1.0,1.0,2.05063,0.0,31.0,31.0,31.0,1.0,fire_pit_10s.jpg,1.0,Purple.png,6.0,54,,,,,,,,,,,,,,,,,
0.0,1.0,2.120275,0.0,32.0,32.0,32.0,1.0,mattress_01s.jpg,0.0,Red.png,6.0,54,,,,,,,,,,,,,,,,,
1.0,1.0,1.915195,0.0,33.0,33.0,33.0,1.0,fire_pit_10s.jpg,1.0,Orange.png,6.0,54,,,,,,,,,,,,,,,,,
1.0,1.0,1.95333,0.0,34.0,34.0,34.0,1.0,mattress_01s.jpg,1.0,Yellow.png,6.0,54,,,,,,,,,,,,,,,,,
0.0,1.0,2.27042,0.0,35.0,35.0,35.0,1.0,ice-cream_cone_06s.jpg,0.0,Green.png,6.0,54,,,,,,,,,,,,,,,,,
,,,,,,,,,1.0,,,54,0.0,0.0,4.39726,0.0,0.0,0.0,0.0,1.0,roulette_wheel_04s.jpg,buoy_04s.jpg,,,,,,,
,,,,,,,,,0.0,,,54,1.0,0.0,4.307165,0.0,1.0,1.0,1.0,1.0,lion_18s.jpg,potholder_02s.jpg,,,,,,,
,,,,,,,,,0.0,,,54,0.0,1.0,1.440855,0.0,2.0,2.0,2.0,1.0,bagel_15s.jpg,comic_book_02s.jpg,,,,,,,
,,,,,,,,,1.0,,,54,0.0,0.0,3.018615,0.0,3.0,3.0,3.0,1.0,stopwatch_04s.jpg,teapot_03s.jpg,,,,,,,
,,,,,,,,,1.0,,,54,1.0,1.0,1.424825,0.0,4.0,4.0,4.0,1.0,luggage_08s.jpg,rosary_03s.jpg,,,,,,,
,,,,,,,,,1.0,,,54,0.0,0.0,1.08525,0.0,5.0,5.0,5.0,1.0,orchid_01b.jpg,knitting_needle_04s.jpg,,,,,,,
,,,,,,,,,,,,54,,,,,,,,,,,0.0,2.0,2.0,2.0,1.0,new2backpresent_3_4.xlsx,new2back_compare_task_3_4.xlsx
0.0,1.0,2.387035,0.0,0.0,0.0,0.0,1.0,smoothie_09s.jpg,0.0,Blue.png,1.0,54,,,,,,,,,,,,,,,,,
0.0,1.0,2.151215,0.0,1.0,1.0,1.0,1.0,raspberry_12s.jpg,0.0,Purple.png,1.0,54,,,,,,,,,,,,,,,,,
1.0,0.0,2.002385,0.0,2.0,2.0,2.0,1.0,raspberry_12s.jpg,0.0,Red.png,1.0,54,,,,,,,,,,,,,,,,,
0.0,1.0,2.179555,0.0,3.0,3.0,3.0,1.0,lamb_chop_07s.jpg,0.0,Orange.png,1.0,54,,,,,,,,,,,,,,,,,
0.0,1.0,1.747225,0.0,4.0,4.0,4.0,1.0,smoothie_09s.jpg,0.0,Yellow.png,1.0,54,,,,,,,,,,,,,,,,,
1.0,0.0,1.917725,0.0,5.0,5.0,5.0,1.0,raspberry_12s.jpg,0.0,Green.png,1.0,54,,,,,,,,,,,,,,,,,
0.0,1.0,2.283985,0.0,6.0,6.0,6.0,1.0,lava_02s.jpg,0.0,Blue.png,2.0,54,,,,,,,,,,,,,,,,,
0.0,1.0,1.858805,0.0,7.0,7.0,7.0,1.0,trident_07s.jpg,0.0,Purple.png,2.0,54,,,,,,,,,,,,,,,,,
1.0,0.0,2.39032,0.0,8.0,8.0,8.0,1.0,trident_07s.jpg,0.0,Red.png,2.0,54,,,,,,,,,,,,,,,,,
1.0,1.0,1.850235,0.0,9.0,9.0,9.0,1.0,trident_07s.jpg,1.0,Orange.png,2.0,54,,,,,,,,,,,,,,,,,
0.0,1.0,2.168265,0.0,10.0,10.0,10.0,1.0,orangutan_03s.jpg,0.0,Yellow.png,2.0,54,,,,,,,,,,,,,,,,,
1.0,1.0,1.9419,0.0,11.0,11.0,11.0,1.0,trident_07s.jpg,1.0,Green.png,2.0,54,,,,,,,,,,,,,,,,,
1.0,0.0,2.32349,0.0,12.0,12.0,12.0,1.0,raspberry_12s.jpg,0.0,Blue.png,3.0,54,,,,,,,,,,,,,,,,,
1.0,1.0,2.01686,0.0,13.0,13.0,13.0,1.0,trident_07s.jpg,1.0,Purple.png,3.0,54,,,,,,,,,,,,,,,,,
0.0,1.0,2.11566,0.0,14.0,14.0,14.0,1.0,lavender_10s.jpg,0.0,Red.png,3.0,54,,,,,,,,,,,,,,,,,
0.0,1.0,1.903745,0.0,15.0,15.0,15.0,1.0,chip_04s.jpg,0.0,Orange.png,3.0,54,,,,,,,,,,,,,,,,,
,0.0,,0.0,16.0,16.0,16.0,1.0,lamb_04s.jpg,0.0,Yellow.png,3.0,54,,,,,,,,,,,,,,,,,
0.0,1.0,1.752845,0.0,17.0,17.0,17.0,1.0,emerald_02s.jpg,0.0,Green.png,3.0,54,,,,,,,,,,,,,,,,,
0.0,1.0,2.07498,0.0,18.0,18.0,18.0,1.0,pineapple_12s.jpg,0.0,Blue.png,4.0,54,,,,,,,,,,,,,,,,,
0.0,1.0,2.34787,0.0,19.0,19.0,19.0,1.0,sundae_08s.jpg,0.0,Purple.png,4.0,54,,,,,,,,,,,,,,,,,
1.0,0.0,2.414045,0.0,20.0,20.0,20.0,1.0,sundae_08s.jpg,0.0,Red.png,4.0,54,,,,,,,,,,,,,,,,,
0.0,1.0,1.949555,0.0,21.0,21.0,21.0,1.0,squirrel_02s.jpg,0.0,Orange.png,4.0,54,,,,,,,,,,,,,,,,,
0.0,1.0,1.6837,0.0,22.0,22.0,22.0,1.0,roller_coaster_07s.jpg,0.0,Yellow.png,4.0,54,,,,,,,,,,,,,,,,,
1.0,0.0,2.12102,0.0,23.0,23.0,23.0,1.0,sundae_08s.jpg,0.0,Green.png,4.0,54,,,,,,,,,,,,,,,,,
0.0,1.0,2.3469,0.0,24.0,24.0,24.0,1.0,tweezers_03s.jpg,0.0,Blue.png,5.0,54,,,,,,,,,,,,,,,,,
1.0,1.0,2.0372,0.0,25.0,25.0,25.0,1.0,sundae_08s.jpg,1.0,Purple.png,5.0,54,,,,,,,,,,,,,,,,,
0.0,1.0,2.37141,0.0,26.0,26.0,26.0,1.0,rudder_02s.jpg,0.0,Red.png,5.0,54,,,,,,,,,,,,,,,,,
0.0,1.0,2.431885,0.0,27.0,27.0,27.0,1.0,rake_06s.jpg,0.0,Orange.png,5.0,54,,,,,,,,,,,,,,,,,
1.0,0.0,2.112055,0.0,28.0,28.0,28.0,1.0,rake_06s.jpg,0.0,Yellow.png,5.0,54,,,,,,,,,,,,,,,,,
1.0,1.0,1.846375,0.0,29.0,29.0,29.0,1.0,rake_06s.jpg,1.0,Green.png,5.0,54,,,,,,,,,,,,,,,,,
0.0,1.0,2.29599,0.0,30.0,30.0,30.0,1.0,cap_05s.jpg,0.0,Blue.png,6.0,54,,,,,,,,,,,,,,,,,
0.0,1.0,2.246875,0.0,31.0,31.0,31.0,1.0,paper_towel_03s.jpg,0.0,Purple.png,6.0,54,,,,,,,,,,,,,,,,,
0.0,1.0,1.844405,0.0,32.0,32.0,32.0,1.0,toaster_03s.jpg,0.0,Red.png,6.0,54,,,,,,,,,,,,,,,,,
0.0,1.0,1.81915,0.0,33.0,33.0,33.0,1.0,money_07s.jpg,0.0,Orange.png,6.0,54,,,,,,,,,,,,,,,,,
0.0,1.0,2.45578,0.0,34.0,34.0,34.0,1.0,pinwheel_06s.jpg,0.0,Yellow.png,6.0,54,,,,,,,,,,,,,,,,,
0.0,1.0,1.777635,0.0,35.0,35.0,35.0,1.0,lid_10s.jpg,0.0,Green.png,6.0,54,,,,,,,,,,,,,,,,,
,,,,,,,,,0.0,,,54,0.0,1.0,6.120285,0.0,0.0,0.0,0.0,1.0,tweezers_03s.jpg,squirrel_02s.jpg,,,,,,,
,,,,,,,,,1.0,,,54,1.0,1.0,2.617085,0.0,1.0,1.0,1.0,1.0,chip_04s.jpg,pineapple_12s.jpg,,,,,,,
,,,,,,,,,1.0,,,54,0.0,0.0,2.409245,0.0,2.0,2.0,2.0,1.0,lamb_chop_07s.jpg,lava_02s.jpg,,,,,,,
,,,,,,,,,0.0,,,54,0.0,1.0,2.333935,0.0,3.0,3.0,3.0,1.0,pinwheel_06s.jpg,paper_towel_03s.jpg,,,,,,,
,,,,,,,,,0.0,,,54,1.0,0.0,2.63166,0.0,4.0,4.0,4.0,1.0,emerald_02s.jpg,lavender_10s.jpg,,,,,,,
,,,,,,,,,0.0,,,54,0.0,1.0,1.857345,0.0,5.0,5.0,5.0,1.0,money_07s.jpg,cap_05s.jpg,,,,,,,
,,,,,,,,,,,,54,,,,,,,,,,,0.0,3.0,3.0,3.0,1.0,new2backpresent_4_4.xlsx,new2back_compare_task_4_4.xlsx
0.0,1.0,2.267575,0.0,0.0,0.0,0.0,1.0,fur_coat_11s.jpg,0.0,Blue.png,1.0,54,,,,,,,,,,,,,,,,,
0.0,1.0,1.82987,0.0,1.0,1.0,1.0,1.0,crayon_09s.jpg,0.0,Purple.png,1.0,54,,,,,,,,,,,,,,,,,
0.0,1.0,2.09215,0.0,2.0,2.0,2.0,1.0,cobra_05s.jpg,0.0,Red.png,1.0,54,,,,,,,,,,,,,,,,,
0.0,1.0,2.08733,0.0,3.0,3.0,3.0,1.0,raccoon_02s.jpg,0.0,Orange.png,1.0,54,,,,,,,,,,,,,,,,,
0.0,1.0,1.81015,0.0,4.0,4.0,4.0,1.0,soda_fountain_03s.jpg,0.0,Yellow.png,1.0,54,,,,,,,,,,,,,,,,,
1.0,1.0,2.24142,0.0,5.0,5.0,5.0,1.0,raccoon_02s.jpg,1.0,Green.png,1.0,54,,,,,,,,,,,,,,,,,
0.0,1.0,1.717585,0.0,6.0,6.0,6.0,1.0,feather02.jpg,0.0,Blue.png,2.0,54,,,,,,,,,,,,,,,,,
1.0,1.0,1.723925,0.0,7.0,7.0,7.0,1.0,raccoon_02s.jpg,1.0,Purple.png,2.0,54,,,,,,,,,,,,,,,,,
1.0,1.0,2.275905,0.0,8.0,8.0,8.0,1.0,feather02.jpg,1.0,Red.png,2.0,54,,,,,,,,,,,,,,,,,
0.0,1.0,2.24707,0.0,9.0,9.0,9.0,1.0,rug_09s.jpg,0.0,Orange.png,2.0,54,,,,,,,,,,,,,,,,,
1.0,1.0,1.649905,0.0,10.0,10.0,10.0,1.0,feather02.jpg,1.0,Yellow.png,2.0,54,,,,,,,,,,,,,,,,,
0.0,1.0,2.09218,0.0,11.0,11.0,11.0,1.0,cushion_08s.jpg,0.0,Green.png,2.0,54,,,,,,,,,,,,,,,,,
1.0,1.0,1.647745,0.0,12.0,12.0,12.0,1.0,feather02.jpg,1.0,Blue.png,3.0,54,,,,,,,,,,,,,,,,,
1.0,0.0,1.91248,0.0,13.0,13.0,13.0,1.0,feather02.jpg,0.0,Purple.png,3.0,54,,,,,,,,,,,,,,,,,
0.0,1.0,1.654275,0.0,14.0,14.0,14.0,1.0,ice_pack_09s.jpg,0.0,Red.png,3.0,54,,,,,,,,,,,,,,,,,
1.0,0.0,2.16671,0.0,15.0,15.0,15.0,1.0,ice_pack_09s.jpg,0.0,Orange.png,3.0,54,,,,,,,,,,,,,,,,,
0.0,1.0,2.199895,0.0,16.0,16.0,16.0,1.0,loom_05s.jpg,0.0,Yellow.png,3.0,54,,,,,,,,,,,,,,,,,
1.0,1.0,1.753805,0.0,17.0,17.0,17.0,1.0,ice_pack_09s.jpg,1.0,Green.png,3.0,54,,,,,,,,,,,,,,,,,
1.0,0.0,2.030415,0.0,18.0,18.0,18.0,1.0,ice_pack_09s.jpg,0.0,Blue.png,4.0,54,,,,,,,,,,,,,,,,,
1.0,1.0,1.6654,0.0,19.0,19.0,19.0,1.0,ice_pack_09s.jpg,1.0,Purple.png,4.0,54,,,,,,,,,,,,,,,,,
1.0,1.0,1.91704,0.0,20.0,20.0,20.0,1.0,ice_pack_09s.jpg,1.0,Red.png,4.0,54,,,,,,,,,,,,,,,,,
0.0,1.0,2.144645,0.0,21.0,21.0,21.0,1.0,blazer_02s.jpg,0.0,Orange.png,4.0,54,,,,,,,,,,,,,,,,,
0.0,1.0,1.60143,0.0,22.0,22.0,22.0,1.0,penlight_12s.jpg,0.0,Yellow.png,4.0,54,,,,,,,,,,,,,,,,,
0.0,1.0,1.98201,0.0,23.0,23.0,23.0,1.0,swan_11s.jpg,0.0,Green.png,4.0,54,,,,,,,,,,,,,,,,,
0.0,1.0,2.21688,0.0,24.0,24.0,24.0,1.0,plunger_08s.jpg,0.0,Blue.png,5.0,54,,,,,,,,,,,,,,,,,
0.0,1.0,2.299125,0.0,25.0,25.0,25.0,1.0,bottle_opener_11s.jpg,0.0,Purple.png,5.0,54,,,,,,,,,,,,,,,,,
0.0,1.0,2.233045,0.0,26.0,26.0,26.0,1.0,checkbook_11s.jpg,0.0,Red.png,5.0,54,,,,,,,,,,,,,,,,,
0.0,1.0,2.023665,0.0,27.0,27.0,27.0,1.0,ink_08s.jpg,0.0,Orange.png,5.0,54,,,,,,,,,,,,,,,,,
1.0,0.0,1.89922,0.0,28.0,28.0,28.0,1.0,plunger_08s.jpg,0.0,Yellow.png,5.0,54,,,,,,,,,,,,,,,,,
0.0,1.0,2.39912,0.0,29.0,29.0,29.0,1.0,pencil02a.jpg,0.0,Green.png,5.0,54,,,,,,,,,,,,,,,,,
0.0,1.0,1.89182,0.0,30.0,30.0,30.0,1.0,ginger_09s.jpg,0.0,Blue.png,6.0,54,,,,,,,,,,,,,,,,,
0.0,1.0,2.29881,0.0,31.0,31.0,31.0,1.0,taxi_15s.jpg,0.0,Purple.png,6.0,54,,,,,,,,,,,,,,,,,
0.0,1.0,2.034535,0.0,32.0,32.0,32.0,1.0,toy_04s.jpg,0.0,Red.png,6.0,54,,,,,,,,,,,,,,,,,
0.0,1.0,1.808775,0.0,33.0,33.0,33.0,1.0,blowfish_03s.jpg,0.0,Orange.png,6.0,54,,,,,,,,,,,,,,,,,
0.0,1.0,2.024025,0.0,34.0,34.0,34.0,1.0,toilet_paper_12s.jpg,0.0,Yellow.png,6.0,54,,,,,,,,,,,,,,,,,
0.0,1.0,1.744195,0.0,35.0,35.0,35.0,1.0,puddle_02s.jpg,0.0,Green.png,6.0,54,,,,,,,,,,,,,,,,,
,,,,,,,,,1.0,,,54,1.0,1.0,3.03982,0.0,0.0,0.0,0.0,1.0,ink_08s.jpg,ginger_09s.jpg,,,,,,,
,,,,,,,,,0.0,,,54,1.0,0.0,1.41605,0.0,1.0,1.0,1.0,1.0,puddle_02s.jpg,toy_04s.jpg,,,,,,,
,,,,,,,,,0.0,,,54,1.0,0.0,1.633,0.0,2.0,2.0,2.0,1.0,bottle_opener_11s.jpg,penlight_12s.jpg,,,,,,,
,,,,,,,,,0.0,,,54,1.0,0.0,1.71737,0.0,3.0,3.0,3.0,1.0,checkbook_11s.jpg,swan_11s.jpg,,,,,,,
,,,,,,,,,1.0,,,54,0.0,0.0,1.729425,0.0,4.0,4.0,4.0,1.0,taxi_15s.jpg,toilet_paper_12s.jpg,,,,,,,
,,,,,,,,,1.0,,,54,0.0,0.0,2.22888,0.0,5.0,5.0,5.0,1.0,crayon_09s.jpg,soda_fountain_03s.jpg,,,,,,,
,,,,,,,,,,,,54,,,,,,,,,,,0.0,4.0,4.0,4.0,1.0,new2backpresent_5_4.xlsx,new2back_compare_task_5_4.xlsx
0.0,1.0,1.768895,0.0,0.0,0.0,0.0,1.0,flask_04s.jpg,0.0,Blue.png,1.0,54,,,,,,,,,,,,,,,,,
0.0,1.0,1.6914,0.0,1.0,1.0,1.0,1.0,kimono_13s.jpg,0.0,Purple.png,1.0,54,,,,,,,,,,,,,,,,,
0.0,1.0,1.221925,0.0,2.0,2.0,2.0,1.0,limousine_12s.jpg,0.0,Red.png,1.0,54,,,,,,,,,,,,,,,,,
0.0,1.0,2.194075,0.0,3.0,3.0,3.0,1.0,lectern_08s.jpg,0.0,Orange.png,1.0,54,,,,,,,,,,,,,,,,,
1.0,0.0,2.43103,0.0,4.0,4.0,4.0,1.0,kimono_13s.jpg,0.0,Yellow.png,1.0,54,,,,,,,,,,,,,,,,,
0.0,1.0,2.24321,0.0,5.0,5.0,5.0,1.0,doily_13s.jpg,0.0,Green.png,1.0,54,,,,,,,,,,,,,,,,,
1.0,1.0,2.127,0.0,6.0,6.0,6.0,1.0,kimono_13s.jpg,1.0,Blue.png,2.0,54,,,,,,,,,,,,,,,,,
0.0,1.0,2.27171,0.0,7.0,7.0,7.0,1.0,razor_blade_01b.jpg,0.0,Purple.png,2.0,54,,,,,,,,,,,,,,,,,
1.0,0.0,2.06935,0.0,8.0,8.0,8.0,1.0,razor_blade_01b.jpg,0.0,Red.png,2.0,54,,,,,,,,,,,,,,,,,
0.0,1.0,2.067765,0.0,9.0,9.0,9.0,1.0,champagne_18s.jpg,0.0,Orange.png,2.0,54,,,,,,,,,,,,,,,,,
0.0,1.0,2.01094,0.0,10.0,10.0,10.0,1.0,stamp1_11s.jpg,0.0,Yellow.png,2.0,54,,,,,,,,,,,,,,,,,
1.0,1.0,2.283375,0.0,11.0,11.0,11.0,1.0,champagne_18s.jpg,1.0,Green.png,2.0,54,,,,,,,,,,,,,,,,,
0.0,1.0,2.330985,0.0,12.0,12.0,12.0,1.0,crossbow_10s.jpg,0.0,Blue.png,3.0,54,,,,,,,,,,,,,,,,,
0.0,1.0,2.28566,0.0,13.0,13.0,13.0,1.0,briefcase_03s.jpg,0.0,Purple.png,3.0,54,,,,,,,,,,,,,,,,,
0.0,1.0,2.33033,0.0,14.0,14.0,14.0,1.0,jersey_02s.jpg,0.0,Red.png,3.0,54,,,,,,,,,,,,,,,,,
0.0,0.0,2.448115,0.0,15.0,15.0,15.0,1.0,briefcase_03s.jpg,1.0,Orange.png,3.0,54,,,,,,,,,,,,,,,,,
0.0,1.0,2.316905,0.0,16.0,16.0,16.0,1.0,oil_02s.jpg,0.0,Yellow.png,3.0,54,,,,,,,,,,,,,,,,,
0.0,1.0,1.86613,0.0,17.0,17.0,17.0,1.0,tinsel_12s.jpg,0.0,Green.png,3.0,54,,,,,,,,,,,,,,,,,
0.0,1.0,2.17853,0.0,18.0,18.0,18.0,1.0,flask_04s.jpg,0.0,Blue.png,4.0,54,,,,,,,,,,,,,,,,,
0.0,1.0,2.048165,0.0,19.0,19.0,19.0,1.0,fork_04s.jpg,0.0,Purple.png,4.0,54,,,,,,,,,,,,,,,,,
0.0,1.0,2.325115,0.0,20.0,20.0,20.0,1.0,purse_05s.jpg,0.0,Red.png,4.0,54,,,,,,,,,,,,,,,,,
1.0,0.0,2.17412,0.0,21.0,21.0,21.0,1.0,flask_04s.jpg,0.0,Orange.png,4.0,54,,,,,,,,,,,,,,,,,
0.0,1.0,2.222105,0.0,22.0,22.0,22.0,1.0,sledgehammer_03s.jpg,0.0,Yellow.png,4.0,54,,,,,,,,,,,,,,,,,
0.0,1.0,2.167605,0.0,23.0,23.0,23.0,1.0,turf_03s.jpg,0.0,Green.png,4.0,54,,,,,,,,,,,,,,,,,
0.0,1.0,2.393945,0.0,24.0,24.0,24.0,1.0,omelet_07s.jpg,0.0,Blue.png,5.0,54,,,,,,,,,,,,,,,,,
1.0,1.0,1.866925,0.0,25.0,25.0,25.0,1.0,turf_03s.jpg,1.0,Purple.png,5.0,54,,,,,,,,,,,,,,,,,
0.0,1.0,2.23147,0.0,26.0,26.0,26.0,1.0,clover_04s.jpg,0.0,Red.png,5.0,54,,,,,,,,,,,,,,,,,
0.0,1.0,1.982595,0.0,27.0,27.0,27.0,1.0,lip_gloss_06s.jpg,0.0,Orange.png,5.0,54,,,,,,,,,,,,,,,,,
0.0,1.0,2.23708,0.0,28.0,28.0,28.0,1.0,amber_04s.jpg,0.0,Yellow.png,5.0,54,,,,,,,,,,,,,,,,,
0.0,1.0,2.390355,0.0,29.0,29.0,29.0,1.0,tortilla_06s.jpg,0.0,Green.png,5.0,54,,,,,,,,,,,,,,,,,
1.0,0.0,1.868795,0.0,30.0,30.0,30.0,1.0,razor_blade_01b.jpg,0.0,Blue.png,6.0,54,,,,,,,,,,,,,,,,,
0.0,1.0,2.432065,0.0,31.0,31.0,31.0,1.0,tape_measure_11s.jpg,0.0,Purple.png,6.0,54,,,,,,,,,,,,,,,,,
1.0,1.0,1.66733,0.0,32.0,32.0,32.0,1.0,razor_blade_01b.jpg,1.0,Red.png,6.0,54,,,,,,,,,,,,,,,,,
1.0,0.0,1.55851,0.0,33.0,33.0,33.0,1.0,razor_blade_01b.jpg,0.0,Orange.png,6.0,54,,,,,,,,,,,,,,,,,
0.0,1.0,1.415715,0.0,34.0,34.0,34.0,1.0,stingray_02s.jpg,0.0,Yellow.png,6.0,54,,,,,,,,,,,,,,,,,
0.0,1.0,1.825315,0.0,35.0,35.0,35.0,1.0,harpoon.jpg,0.0,Green.png,6.0,54,,,,,,,,,,,,,,,,,
,,,,,,,,,1.0,,,54,0.0,0.0,3.08367,0.0,0.0,0.0,0.0,1.0,oil_02s.jpg,fork_04s.jpg,,,,,,,
,,,,,,,,,0.0,,,54,0.0,1.0,1.99952,0.0,1.0,1.0,1.0,1.0,doily_13s.jpg,limousine_12s.jpg,,,,,,,
,,,,,,,,,0.0,,,54,0.0,1.0,2.654015,0.0,2.0,2.0,2.0,1.0,lip_gloss_06s.jpg,omelet_07s.jpg,,,,,,,
,,,,,,,,,0.0,,,54,1.0,0.0,1.33179,0.0,3.0,3.0,3.0,1.0,tape_measure_11s.jpg,amber_04s.jpg,,,,,,,
,,,,,,,,,0.0,,,54,1.0,0.0,4.318435,0.0,4.0,4.0,4.0,1.0,tortilla_06s.jpg,clover_04s.jpg,,,,,,,
,,,,,,,,,0.0,,,54,0.0,1.0,1.43406,0.0,5.0,5.0,5.0,1.0,purse_05s.jpg,tinsel_12s.jpg,,,,,,,
,,,,,,,,,,,,54,,,,,,,,,,,0.0,5.0,5.0,5.0,1.0,new2backpresent_6_4.xlsx,new2back_compare_task_6_4.xlsx
0.0,1.0,1.561825,0.0,0.0,0.0,0.0,1.0,butter_14s.jpg,0.0,Blue.png,1.0,54,,,,,,,,,,,,,,,,,
1.0,0.0,2.009345,0.0,1.0,1.0,1.0,1.0,butter_14s.jpg,0.0,Purple.png,1.0,54,,,,,,,,,,,,,,,,,
1.0,1.0,1.52936,0.0,2.0,2.0,2.0,1.0,butter_14s.jpg,1.0,Red.png,1.0,54,,,,,,,,,,,,,,,,,
0.0,1.0,2.3377,0.0,3.0,3.0,3.0,1.0,stamp2_08s.jpg,0.0,Orange.png,1.0,54,,,,,,,,,,,,,,,,,
0.0,1.0,2.21575,0.0,4.0,4.0,4.0,1.0,kangaroo_02s.jpg,0.0,Yellow.png,1.0,54,,,,,,,,,,,,,,,,,
0.0,1.0,2.188665,0.0,5.0,5.0,5.0,1.0,camcorder_10s.jpg,0.0,Green.png,1.0,54,,,,,,,,,,,,,,,,,
0.0,1.0,2.058495,0.0,6.0,6.0,6.0,1.0,bank_06s.jpg,0.0,Blue.png,2.0,54,,,,,,,,,,,,,,,,,
0.0,1.0,2.10767,0.0,7.0,7.0,7.0,1.0,gear_07s.jpg,0.0,Purple.png,2.0,54,,,,,,,,,,,,,,,,,
1.0,1.0,1.66839,0.0,8.0,8.0,8.0,1.0,bank_06s.jpg,1.0,Red.png,2.0,54,,,,,,,,,,,,,,,,,
0.0,1.0,1.847015,0.0,9.0,9.0,9.0,1.0,funnel_01b.jpg,0.0,Orange.png,2.0,54,,,,,,,,,,,,,,,,,
0.0,1.0,2.029915,0.0,10.0,10.0,10.0,1.0,poinsettia_04s.jpg,0.0,Yellow.png,2.0,54,,,,,,,,,,,,,,,,,
1.0,1.0,1.799065,0.0,11.0,11.0,11.0,1.0,funnel_01b.jpg,1.0,Green.png,2.0,54,,,,,,,,,,,,,,,,,
0.0,1.0,1.276855,0.0,12.0,12.0,12.0,1.0,rooster_03s.jpg,0.0,Blue.png,3.0,54,,,,,,,,,,,,,,,,,
0.0,1.0,1.683845,0.0,13.0,13.0,13.0,1.0,denture_03s.jpg,0.0,Purple.png,3.0,54,,,,,,,,,,,,,,,,,
0.0,1.0,1.519485,0.0,14.0,14.0,14.0,1.0,bean_06s.jpg,0.0,Red.png,3.0,54,,,,,,,,,,,,,,,,,
0.0,1.0,1.5674,0.0,15.0,15.0,15.0,1.0,mud_13s.jpg,0.0,Orange.png,3.0,54,,,,,,,,,,,,,,,,,
0.0,1.0,1.519075,0.0,16.0,16.0,16.0,1.0,keyhole_03s.jpg,0.0,Yellow.png,3.0,54,,,,,,,,,,,,,,,,,
1.0,0.0,1.823065,0.0,17.0,17.0,17.0,1.0,bean_06s.jpg,0.0,Green.png,3.0,54,,,,,,,,,,,,,,,,,
1.0,0.0,1.60049,0.0,18.0,18.0,18.0,1.0,bank_06s.jpg,0.0,Blue.png,4.0,54,,,,,,,,,,,,,,,,,
0.0,1.0,1.52212,0.0,19.0,19.0,19.0,1.0,pomegranate_04s.jpg,0.0,Purple.png,4.0,54,,,,,,,,,,,,,,,,,
0.0,1.0,2.41386,0.0,20.0,20.0,20.0,1.0,chopsticks_08s.jpg,0.0,Red.png,4.0,54,,,,,,,,,,,,,,,,,
0.0,1.0,2.435275,0.0,21.0,21.0,21.0,1.0,contact_lens_15s.jpg,0.0,Orange.png,4.0,54,,,,,,,,,,,,,,,,,
0.0,1.0,1.655035,0.0,22.0,22.0,22.0,1.0,hydrant_10s.jpg,0.0,Yellow.png,4.0,54,,,,,,,,,,,,,,,,,
0.0,1.0,1.376085,0.0,23.0,23.0,23.0,1.0,gingerbread_man_03s.jpg,0.0,Green.png,4.0,54,,,,,,,,,,,,,,,,,
0.0,1.0,1.010515,0.0,24.0,24.0,24.0,1.0,camcorder_10s.jpg,0.0,Blue.png,5.0,54,,,,,,,,,,,,,,,,,
0.0,1.0,1.57867,0.0,25.0,25.0,25.0,1.0,teabag_12s.jpg,0.0,Purple.png,5.0,54,,,,,,,,,,,,,,,,,
0.0,1.0,1.867645,0.0,26.0,26.0,26.0,1.0,radiator_05s.jpg,0.0,Red.png,5.0,54,,,,,,,,,,,,,,,,,
0.0,1.0,2.257745,0.0,27.0,27.0,27.0,1.0,punch1_10s.jpg,0.0,Orange.png,5.0,54,,,,,,,,,,,,,,,,,
0.0,1.0,1.826145,0.0,28.0,28.0,28.0,1.0,mailbox_11s.jpg,0.0,Yellow.png,5.0,54,,,,,,,,,,,,,,,,,
0.0,1.0,2.010935,0.0,29.0,29.0,29.0,1.0,beaker_01b.jpg,0.0,Green.png,5.0,54,,,,,,,,,,,,,,,,,
1.0,1.0,1.68228,0.0,30.0,30.0,30.0,1.0,mailbox_11s.jpg,1.0,Blue.png,6.0,54,,,,,,,,,,,,,,,,,
0.0,1.0,1.641345,0.0,31.0,31.0,31.0,1.0,pipe1_10s.jpg,0.0,Purple.png,6.0,54,,,,,,,,,,,,,,,,,
1.0,1.0,1.691605,0.0,32.0,32.0,32.0,1.0,mailbox_11s.jpg,1.0,Red.png,6.0,54,,,,,,,,,,,,,,,,,
1.0,1.0,1.975035,0.0,33.0,33.0,33.0,1.0,pipe1_10s.jpg,1.0,Orange.png,6.0,54,,,,,,,,,,,,,,,,,
0.0,1.0,1.691655,0.0,34.0,34.0,34.0,1.0,eyedropper_12s.jpg,0.0,Yellow.png,6.0,54,,,,,,,,,,,,,,,,,
0.0,1.0,1.65042,0.0,35.0,35.0,35.0,1.0,rhubarb_03s.jpg,0.0,Green.png,6.0,54,,,,,,,,,,,,,,,,,
,,,,,,,,,0.0,,,54,0.0,1.0,3.407385,0.0,0.0,0.0,0.0,1.0,mud_13s.jpg,rooster_03s.jpg,,,,,,,
,,,,,,,,,1.0,,,54,0.0,0.0,3.27783,0.0,1.0,1.0,1.0,1.0,chopsticks_08s.jpg,gingerbread_man_03s.jpg,,,,,,,
,,,,,,,,,0.0,,,54,1.0,0.0,3.013275,0.0,2.0,2.0,2.0,1.0,beaker_01b.jpg,radiator_05s.jpg,,,,,,,
,,,,,,,,,0.0,,,54,0.0,1.0,2.031515,0.0,3.0,3.0,3.0,1.0,teabag_12s.jpg,hydrant_10s.jpg,,,,,,,
,,,,,,,,,0.0,,,54,0.0,1.0,2.54302,0.0,4.0,4.0,4.0,1.0,denture_03s.jpg,poinsettia_04s.jpg,,,,,,,
,,,,,,,,,1.0,,,54,0.0,0.0,2.033465,0.0,5.0,5.0,5.0,1.0,kangaroo_02s.jpg,gear_07s.jpg,,,,,,,
,,,,,,,,,,,,54,,,,,,,,,,,0.0,6.0,6.0,6.0,1.0,new2backpresent_7_4.xlsx,new2back_compare_task_7_4.xlsx
0.0,1.0,1.43707,0.0,0.0,0.0,0.0,1.0,lamppost_09s.jpg,0.0,Blue.png,1.0,54,,,,,,,,,,,,,,,,,
0.0,1.0,1.543445,0.0,1.0,1.0,1.0,1.0,jewel_01b.jpg,0.0,Purple.png,1.0,54,,,,,,,,,,,,,,,,,
0.0,1.0,2.204245,0.0,2.0,2.0,2.0,1.0,tuxedo_01b.jpg,0.0,Red.png,1.0,54,,,,,,,,,,,,,,,,,
0.0,1.0,1.430925,0.0,3.0,3.0,3.0,1.0,flip_flop_03s.jpg,0.0,Orange.png,1.0,54,,,,,,,,,,,,,,,,,
0.0,1.0,1.73804,0.0,4.0,4.0,4.0,1.0,medal_04s.jpg,0.0,Yellow.png,1.0,54,,,,,,,,,,,,,,,,,
0.0,0.0,1.47636,0.0,5.0,5.0,5.0,1.0,flip_flop_03s.jpg,1.0,Green.png,1.0,54,,,,,,,,,,,,,,,,,
0.0,1.0,1.49809,0.0,6.0,6.0,6.0,1.0,tuxedo_01b.jpg,0.0,Blue.png,2.0,54,,,,,,,,,,,,,,,,,
0.0,0.0,1.2998,0.0,7.0,7.0,7.0,1.0,flip_flop_03s.jpg,1.0,Purple.png,2.0,54,,,,,,,,,,,,,,,,,
0.0,1.0,1.33271,0.0,8.0,8.0,8.0,1.0,fireworks_18s.jpg,0.0,Red.png,2.0,54,,,,,,,,,,,,,,,,,
0.0,1.0,1.58663,0.0,9.0,9.0,9.0,1.0,squirt_gun_03s.jpg,0.0,Orange.png,2.0,54,,,,,,,,,,,,,,,,,
1.0,0.0,2.14023,0.0,10.0,10.0,10.0,1.0,flip_flop_03s.jpg,0.0,Yellow.png,2.0,54,,,,,,,,,,,,,,,,,
0.0,1.0,1.8145,0.0,11.0,11.0,11.0,1.0,puffin_19s.jpg,0.0,Green.png,2.0,54,,,,,,,,,,,,,,,,,
1.0,0.0,2.33224,0.0,12.0,12.0,12.0,1.0,tuxedo_01b.jpg,0.0,Blue.png,3.0,54,,,,,,,,,,,,,,,,,
1.0,0.0,1.898975,0.0,13.0,13.0,13.0,1.0,tuxedo_01b.jpg,0.0,Purple.png,3.0,54,,,,,,,,,,,,,,,,,
0.0,1.0,1.777795,0.0,14.0,14.0,14.0,1.0,snowman_02s.jpg,0.0,Red.png,3.0,54,,,,,,,,,,,,,,,,,
0.0,1.0,1.48535,0.0,15.0,15.0,15.0,1.0,cucumber_07s.jpg,0.0,Orange.png,3.0,54,,,,,,,,,,,,,,,,,
0.0,1.0,1.76321,0.0,16.0,16.0,16.0,1.0,plug_08s.jpg,0.0,Yellow.png,3.0,54,,,,,,,,,,,,,,,,,
0.0,0.0,2.285725,0.0,17.0,17.0,17.0,1.0,cucumber_07s.jpg,1.0,Green.png,3.0,54,,,,,,,,,,,,,,,,,
1.0,0.0,2.41569,0.0,18.0,18.0,18.0,1.0,puffin_19s.jpg,0.0,Blue.png,4.0,54,,,,,,,,,,,,,,,,,
0.0,1.0,1.679745,0.0,19.0,19.0,19.0,1.0,fondue_07s.jpg,0.0,Purple.png,4.0,54,,,,,,,,,,,,,,,,,
0.0,1.0,2.28302,0.0,20.0,20.0,20.0,1.0,lasagna_06s.jpg,0.0,Red.png,4.0,54,,,,,,,,,,,,,,,,,
0.0,1.0,2.189985,0.0,21.0,21.0,21.0,1.0,eiffeltower.jpg,0.0,Orange.png,4.0,54,,,,,,,,,,,,,,,,,
0.0,1.0,2.19734,0.0,22.0,22.0,22.0,1.0,outlet_10s.jpg,0.0,Yellow.png,4.0,54,,,,,,,,,,,,,,,,,
0.0,1.0,1.86161,0.0,23.0,23.0,23.0,1.0,cape_11s.jpg,0.0,Green.png,4.0,54,,,,,,,,,,,,,,,,,
0.0,1.0,2.05836,0.0,24.0,24.0,24.0,1.0,marshmallow_08s.jpg,0.0,Blue.png,5.0,54,,,,,,,,,,,,,,,,,
0.0,1.0,2.32539,0.0,25.0,25.0,25.0,1.0,racehorse_03s.jpg,0.0,Purple.png,5.0,54,,,,,,,,,,,,,,,,,
0.0,1.0,2.150225,0.0,26.0,26.0,26.0,1.0,aluminum_foil_08s.jpg,0.0,Red.png,5.0,54,,,,,,,,,,,,,,,,,
0.0,1.0,1.767315,0.0,27.0,27.0,27.0,1.0,spoon02a.jpg,0.0,Orange.png,5.0,54,,,,,,,,,,,,,,,,,
0.0,1.0,1.79738,0.0,28.0,28.0,28.0,1.0,padlock_07s.jpg,0.0,Yellow.png,5.0,54,,,,,,,,,,,,,,,,,
0.0,1.0,1.799495,0.0,29.0,29.0,29.0,1.0,solar_panel_02s.jpg,0.0,Green.png,5.0,54,,,,,,,,,,,,,,,,,
0.0,1.0,1.75696,0.0,30.0,30.0,30.0,1.0,turtleneck_11s.jpg,0.0,Blue.png,6.0,54,,,,,,,,,,,,,,,,,
0.0,1.0,1.94962,0.0,31.0,31.0,31.0,1.0,pocketknife_12s.jpg,0.0,Purple.png,6.0,54,,,,,,,,,,,,,,,,,
1.0,0.0,2.138095,0.0,32.0,32.0,32.0,1.0,pocketknife_12s.jpg,0.0,Red.png,6.0,54,,,,,,,,,,,,,,,,,
0.0,1.0,2.11186,0.0,33.0,33.0,33.0,1.0,quill_09s.jpg,0.0,Orange.png,6.0,54,,,,,,,,,,,,,,,,,
1.0,0.0,2.16777,0.0,34.0,34.0,34.0,1.0,quill_09s.jpg,0.0,Yellow.png,6.0,54,,,,,,,,,,,,,,,,,
1.0,0.0,2.365095,0.0,35.0,35.0,35.0,1.0,pocketknife_12s.jpg,0.0,Green.png,6.0,54,,,,,,,,,,,,,,,,,
,,,,,,,,,0.0,,,54,0.0,1.0,14.53002,0.0,0.0,0.0,0.0,1.0,cape_11s.jpg,lasagna_06s.jpg,,,,,,,
,,,,,,,,,0.0,,,54,0.0,1.0,4.59865,0.0,1.0,1.0,1.0,1.0,padlock_07s.jpg,racehorse_03s.jpg,,,,,,,
,,,,,,,,,1.0,,,54,0.0,0.0,3.02389,0.0,2.0,2.0,2.0,1.0,spoon02a.jpg,turtleneck_11s.jpg,,,,,,,
,,,,,,,,,0.0,,,54,1.0,0.0,1.79767,0.0,3.0,3.0,3.0,1.0,marshmallow_08s.jpg,eiffeltower.jpg,,,,,,,
,,,,,,,,,0.0,,,54,0.0,1.0,3.433855,0.0,4.0,4.0,4.0,1.0,medal_04s.jpg,jewel_01b.jpg,,,,,,,
,,,,,,,,,1.0,,,54,1.0,1.0,2.10193,0.0,5.0,5.0,5.0,1.0,plug_08s.jpg,fondue_07s.jpg,,,,,,,
,,,,,,,,,,,,54,,,,,,,,,,,0.0,7.0,7.0,7.0,1.0,new2backpresent_8_4.xlsx,new2back_compare_task_8_4.xlsx
0.0,1.0,2.286375,0.0,0.0,0.0,0.0,1.0,footprint_11s.jpg,0.0,Blue.png,1.0,54,,,,,,,,,,,,,,,,,
0.0,1.0,2.213455,0.0,1.0,1.0,1.0,1.0,coffee_filter_10s.jpg,0.0,Purple.png,1.0,54,,,,,,,,,,,,,,,,,
1.0,0.0,2.425625,0.0,2.0,2.0,2.0,1.0,coffee_filter_10s.jpg,0.0,Red.png,1.0,54,,,,,,,,,,,,,,,,,
1.0,1.0,2.36387,0.0,3.0,3.0,3.0,1.0,coffee_filter_10s.jpg,1.0,Orange.png,1.0,54,,,,,,,,,,,,,,,,,
1.0,1.0,2.20184,0.0,4.0,4.0,4.0,1.0,coffee_filter_10s.jpg,1.0,Yellow.png,1.0,54,,,,,,,,,,,,,,,,,
0.0,1.0,2.18345,0.0,5.0,5.0,5.0,1.0,gargoyle_08s.jpg,0.0,Green.png,1.0,54,,,,,,,,,,,,,,,,,
0.0,1.0,2.081835,0.0,6.0,6.0,6.0,1.0,candy_cane_06s.jpg,0.0,Blue.png,2.0,54,,,,,,,,,,,,,,,,,
0.0,1.0,2.05937,0.0,7.0,7.0,7.0,1.0,toad_09s.jpg,0.0,Purple.png,2.0,54,,,,,,,,,,,,,,,,,
1.0,1.0,2.36799,0.0,8.0,8.0,8.0,1.0,candy_cane_06s.jpg,1.0,Red.png,2.0,54,,,,,,,,,,,,,,,,,
0.0,1.0,2.337945,0.0,9.0,9.0,9.0,1.0,pumpkin_03s.jpg,0.0,Orange.png,2.0,54,,,,,,,,,,,,,,,,,
0.0,1.0,2.32865,0.0,10.0,10.0,10.0,1.0,dashboard_02s.jpg,0.0,Yellow.png,2.0,54,,,,,,,,,,,,,,,,,
0.0,1.0,2.218885,0.0,11.0,11.0,11.0,1.0,syringe_02s.jpg,0.0,Green.png,2.0,54,,,,,,,,,,,,,,,,,
0.0,1.0,2.070435,0.0,12.0,12.0,12.0,1.0,powder_07s.jpg,0.0,Blue.png,3.0,54,,,,,,,,,,,,,,,,,
1.0,0.0,2.390025,0.0,13.0,13.0,13.0,1.0,powder_07s.jpg,0.0,Purple.png,3.0,54,,,,,,,,,,,,,,,,,
1.0,1.0,2.34475,0.0,14.0,14.0,14.0,1.0,powder_07s.jpg,1.0,Red.png,3.0,54,,,,,,,,,,,,,,,,,
0.0,1.0,2.45514,0.0,15.0,15.0,15.0,1.0,sea_urchin_09s.jpg,0.0,Orange.png,3.0,54,,,,,,,,,,,,,,,,,
0.0,1.0,1.984195,0.0,16.0,16.0,16.0,1.0,throne_11s.jpg,0.0,Yellow.png,3.0,54,,,,,,,,,,,,,,,,,
1.0,0.0,2.38547,0.0,17.0,17.0,17.0,1.0,powder_07s.jpg,0.0,Green.png,3.0,54,,,,,,,,,,,,,,,,,
0.0,1.0,2.288365,0.0,18.0,18.0,18.0,1.0,chalice_10s.jpg,0.0,Blue.png,4.0,54,,,,,,,,,,,,,,,,,
0.0,1.0,2.458915,0.0,19.0,19.0,19.0,1.0,air_pump_05s.jpg,0.0,Purple.png,4.0,54,,,,,,,,,,,,,,,,,
0.0,1.0,1.781805,0.0,20.0,20.0,20.0,1.0,microwave_02s.jpg,0.0,Red.png,4.0,54,,,,,,,,,,,,,,,,,
0.0,1.0,1.66369,0.0,21.0,21.0,21.0,1.0,cereal_04s.jpg,0.0,Orange.png,4.0,54,,,,,,,,,,,,,,,,,
0.0,1.0,1.921085,0.0,22.0,22.0,22.0,1.0,mushroom_10n.jpg,0.0,Yellow.png,4.0,54,,,,,,,,,,,,,,,,,
0.0,1.0,2.24544,0.0,23.0,23.0,23.0,1.0,red_carpet_03s.jpg,0.0,Green.png,4.0,54,,,,,,,,,,,,,,,,,
1.0,0.0,2.37672,0.0,24.0,24.0,24.0,1.0,throne_11s.jpg,0.0,Blue.png,5.0,54,,,,,,,,,,,,,,,,,
0.0,1.0,2.045995,0.0,25.0,25.0,25.0,1.0,koala_13s.jpg,0.0,Purple.png,5.0,54,,,,,,,,,,,,,,,,,
1.0,1.0,1.99652,0.0,26.0,26.0,26.0,1.0,throne_11s.jpg,1.0,Red.png,5.0,54,,,,,,,,,,,,,,,,,
0.0,1.0,2.01193,0.0,27.0,27.0,27.0,1.0,rocket_02s.jpg,0.0,Orange.png,5.0,54,,,,,,,,,,,,,,,,,
0.0,1.0,1.399795,0.0,28.0,28.0,28.0,1.0,swordfish_05s.jpg,0.0,Yellow.png,5.0,54,,,,,,,,,,,,,,,,,
0.0,0.0,2.291785,0.0,29.0,29.0,29.0,1.0,rocket_02s.jpg,1.0,Green.png,5.0,54,,,,,,,,,,,,,,,,,
0.0,1.0,2.35389,0.0,30.0,30.0,30.0,1.0,icicle_04s.jpg,0.0,Blue.png,6.0,54,,,,,,,,,,,,,,,,,
0.0,1.0,2.452195,0.0,31.0,31.0,31.0,1.0,keyboard_05s.jpg,0.0,Purple.png,6.0,54,,,,,,,,,,,,,,,,,
0.0,1.0,1.15768,0.0,32.0,32.0,32.0,1.0,pocket_watch_16s.jpg,0.0,Red.png,6.0,54,,,,,,,,,,,,,,,,,
0.0,1.0,1.552505,0.0,33.0,33.0,33.0,1.0,tablet_04s.jpg,0.0,Orange.png,6.0,54,,,,,,,,,,,,,,,,,
0.0,1.0,1.936105,0.0,34.0,34.0,34.0,1.0,chocolate_01b.jpg,0.0,Yellow.png,6.0,54,,,,,,,,,,,,,,,,,
0.0,1.0,1.93789,0.0,35.0,35.0,35.0,1.0,light_switch_02s.jpg,0.0,Green.png,6.0,54,,,,,,,,,,,,,,,,,
,,,,,,,,,0.0,,,54,0.0,1.0,3.59866,0.0,0.0,0.0,0.0,1.0,chalice_10s.jpg,sea_urchin_09s.jpg,,,,,,,
,,,,,,,,,1.0,,,54,1.0,1.0,2.624835,0.0,1.0,1.0,1.0,1.0,swordfish_05s.jpg,keyboard_05s.jpg,,,,,,,
,,,,,,,,,0.0,,,54,0.0,1.0,1.949975,0.0,2.0,2.0,2.0,1.0,red_carpet_03s.jpg,microwave_02s.jpg,,,,,,,
,,,,,,,,,0.0,,,54,0.0,1.0,2.725415,0.0,3.0,3.0,3.0,1.0,dashboard_02s.jpg,toad_09s.jpg,,,,,,,
,,,,,,,,,0.0,,,54,1.0,0.0,1.94282,0.0,4.0,4.0,4.0,1.0,koala_13s.jpg,mushroom_10n.jpg,,,,,,,
,,,,,,,,,1.0,,,54,0.0,0.0,1.191195,0.0,5.0,5.0,5.0,1.0,icicle_04s.jpg,tablet_04s.jpg,,,,,,,
,,,,,,,,,,,,54,,,,,,,,,,,0.0,8.0,8.0,8.0,1.0,new2backpresent_9_4.xlsx,new2back_compare_task_9_4.xlsx
