key_resp.keys,key_resp.corr,key_resp.rt,present_segment.thisRepN,present_segment.thisTrialN,present_segment.thisN,present_segment.thisIndex,present_segment.ran,pictures,answer,clock,segment,participant,key_resp_2.keys,key_resp_2.corr,key_resp_2.rt,compare_segment.thisRepN,compare_segment.thisTrialN,compare_segment.thisN,compare_segment.thisIndex,compare_segment.ran,item_a,item_b,clock_conditions.thisRepN,clock_conditions.thisTrialN,clock_conditions.thisN,clock_conditions.thisIndex,clock_conditions.ran,present,compare
0.0,1.0,1.23916,0.0,0.0,0.0,0.0,1.0,mirror_12s.jpg,0.0,Blue.png,1.0,115,,,,,,,,,,,,,,,,,
0.0,1.0,1.05909,0.0,1.0,1.0,1.0,1.0,polaroid_05s.jpg,0.0,Purple.png,1.0,115,,,,,,,,,,,,,,,,,
0.0,1.0,1.47889,0.0,2.0,2.0,2.0,1.0,polaroid_05s.jpg,0.0,Red.png,1.0,115,,,,,,,,,,,,,,,,,
0.0,1.0,1.619535,0.0,3.0,3.0,3.0,1.0,slingshot_07s.jpg,0.0,Orange.png,1.0,115,,,,,,,,,,,,,,,,,
1.0,1.0,1.190525,0.0,4.0,4.0,4.0,1.0,polaroid_05s.jpg,1.0,Yellow.png,1.0,115,,,,,,,,,,,,,,,,,
0.0,1.0,0.78945,0.0,5.0,5.0,5.0,1.0,kettle_08s.jpg,0.0,Green.png,1.0,115,,,,,,,,,,,,,,,,,
0.0,1.0,0.98238,0.0,6.0,6.0,6.0,1.0,crystal_ball_12s.jpg,0.0,Blue.png,2.0,115,,,,,,,,,,,,,,,,,
0.0,1.0,1.775155,0.0,7.0,7.0,7.0,1.0,iron_13s.jpg,0.0,Purple.png,2.0,115,,,,,,,,,,,,,,,,,
0.0,1.0,1.02507,0.0,8.0,8.0,8.0,1.0,saddle_06s.jpg,0.0,Red.png,2.0,115,,,,,,,,,,,,,,,,,
0.0,1.0,1.78914,0.0,9.0,9.0,9.0,1.0,mango_09s.jpg,0.0,Orange.png,2.0,115,,,,,,,,,,,,,,,,,
0.0,1.0,0.97599,0.0,10.0,10.0,10.0,1.0,ostrich_06s.jpg,0.0,Yellow.png,2.0,115,,,,,,,,,,,,,,,,,
0.0,1.0,2.258175,0.0,11.0,11.0,11.0,1.0,iron_13s.jpg,0.0,Green.png,2.0,115,,,,,,,,,,,,,,,,,
,0.0,,0.0,12.0,12.0,12.0,1.0,stethoscope_01b.jpg,0.0,Blue.png,3.0,115,,,,,,,,,,,,,,,,,
0.0,1.0,0.67825,0.0,13.0,13.0,13.0,1.0,ruby_15s.jpg,0.0,Purple.png,3.0,115,,,,,,,,,,,,,,,,,
1.0,0.0,0.92979,0.0,14.0,14.0,14.0,1.0,mango_09s.jpg,0.0,Red.png,3.0,115,,,,,,,,,,,,,,,,,
0.0,1.0,1.05751,0.0,15.0,15.0,15.0,1.0,target_11s.jpg,0.0,Orange.png,3.0,115,,,,,,,,,,,,,,,,,
1.0,1.0,1.413485,0.0,16.0,16.0,16.0,1.0,mango_09s.jpg,1.0,Yellow.png,3.0,115,,,,,,,,,,,,,,,,,
0.0,1.0,1.01891,0.0,17.0,17.0,17.0,1.0,compass_10n.jpg,0.0,Green.png,3.0,115,,,,,,,,,,,,,,,,,
0.0,1.0,0.74702,0.0,18.0,18.0,18.0,1.0,meatball_13s.jpg,0.0,Blue.png,4.0,115,,,,,,,,,,,,,,,,,
0.0,1.0,0.69895,0.0,19.0,19.0,19.0,1.0,stapler_01b.jpg,0.0,Purple.png,4.0,115,,,,,,,,,,,,,,,,,
1.0,1.0,1.72617,0.0,20.0,20.0,20.0,1.0,meatball_13s.jpg,1.0,Red.png,4.0,115,,,,,,,,,,,,,,,,,
0.0,1.0,1.119025,0.0,21.0,21.0,21.0,1.0,pump_11s.jpg,0.0,Orange.png,4.0,115,,,,,,,,,,,,,,,,,
0.0,1.0,1.22178,0.0,22.0,22.0,22.0,1.0,coral_08s.jpg,0.0,Yellow.png,4.0,115,,,,,,,,,,,,,,,,,
,0.0,,0.0,23.0,23.0,23.0,1.0,meatball_13s.jpg,0.0,Green.png,4.0,115,,,,,,,,,,,,,,,,,
0.0,1.0,2.38324,0.0,24.0,24.0,24.0,1.0,peach_04s.jpg,0.0,Blue.png,5.0,115,,,,,,,,,,,,,,,,,
1.0,1.0,0.700925,0.0,25.0,25.0,25.0,1.0,meatball_13s.jpg,1.0,Purple.png,5.0,115,,,,,,,,,,,,,,,,,
0.0,1.0,0.659425,0.0,26.0,26.0,26.0,1.0,pie_08s.jpg,0.0,Red.png,5.0,115,,,,,,,,,,,,,,,,,
0.0,1.0,1.27676,0.0,27.0,27.0,27.0,1.0,rollerskate_03s.jpg,0.0,Orange.png,5.0,115,,,,,,,,,,,,,,,,,
0.0,1.0,1.62599,0.0,28.0,28.0,28.0,1.0,trampoline_13s.jpg,0.0,Yellow.png,5.0,115,,,,,,,,,,,,,,,,,
0.0,1.0,1.097495,0.0,29.0,29.0,29.0,1.0,undershirt_02s.jpg,0.0,Green.png,5.0,115,,,,,,,,,,,,,,,,,
0.0,1.0,2.309305,0.0,30.0,30.0,30.0,1.0,thread_08s.jpg,0.0,Blue.png,6.0,115,,,,,,,,,,,,,,,,,
0.0,1.0,1.472255,0.0,31.0,31.0,31.0,1.0,megaphone_03s.jpg,0.0,Purple.png,6.0,115,,,,,,,,,,,,,,,,,
0.0,1.0,1.621655,0.0,32.0,32.0,32.0,1.0,plaster_cast_13s.jpg,0.0,Red.png,6.0,115,,,,,,,,,,,,,,,,,
0.0,1.0,1.67706,0.0,33.0,33.0,33.0,1.0,diving_board_07s.jpg,0.0,Orange.png,6.0,115,,,,,,,,,,,,,,,,,
0.0,1.0,1.466215,0.0,34.0,34.0,34.0,1.0,kayak_08s.jpg,0.0,Yellow.png,6.0,115,,,,,,,,,,,,,,,,,
1.0,1.0,1.06319,0.0,35.0,35.0,35.0,1.0,diving_board_07s.jpg,1.0,Green.png,6.0,115,,,,,,,,,,,,,,,,,
,,,,,,,,,1.0,,,115,1.0,1.0,2.59302,0.0,0.0,0.0,0.0,1.0,stapler_01b.jpg,coral_08s.jpg,,,,,,,
,,,,,,,,,1.0,,,115,1.0,1.0,1.54804,0.0,1.0,1.0,1.0,1.0,slingshot_07s.jpg,crystal_ball_12s.jpg,,,,,,,
,,,,,,,,,0.0,,,115,1.0,0.0,1.688145,0.0,2.0,2.0,2.0,1.0,saddle_06s.jpg,kettle_08s.jpg,,,,,,,
,,,,,,,,,1.0,,,115,1.0,1.0,1.971665,0.0,3.0,3.0,3.0,1.0,pie_08s.jpg,undershirt_02s.jpg,,,,,,,
,,,,,,,,,1.0,,,115,0.0,0.0,0.984825,0.0,4.0,4.0,4.0,1.0,stethoscope_01b.jpg,target_11s.jpg,,,,,,,
,,,,,,,,,1.0,,,115,1.0,1.0,1.776265,0.0,5.0,5.0,5.0,1.0,ostrich_06s.jpg,ruby_15s.jpg,,,,,,,
,,,,,,,,,,,,115,,,,,,,,,,,0.0,0.0,0.0,0.0,1.0,new2backpresent_1_4.xlsx,new2back_compare_task_1_4.xlsx
0.0,1.0,1.30353,0.0,0.0,0.0,0.0,1.0,jetski_10s.jpg,0.0,Blue.png,1.0,115,,,,,,,,,,,,,,,,,
0.0,1.0,0.9507,0.0,1.0,1.0,1.0,1.0,tripod_01b.jpg,0.0,Purple.png,1.0,115,,,,,,,,,,,,,,,,,
0.0,1.0,1.218945,0.0,2.0,2.0,2.0,1.0,lab_coat_11s.jpg,0.0,Red.png,1.0,115,,,,,,,,,,,,,,,,,
0.0,1.0,1.718105,0.0,3.0,3.0,3.0,1.0,foam_03s.jpg,0.0,Orange.png,1.0,115,,,,,,,,,,,,,,,,,
0.0,1.0,1.83802,0.0,4.0,4.0,4.0,1.0,crate_05s.jpg,0.0,Yellow.png,1.0,115,,,,,,,,,,,,,,,,,
0.0,1.0,1.806185,0.0,5.0,5.0,5.0,1.0,margarita_03s.jpg,0.0,Green.png,1.0,115,,,,,,,,,,,,,,,,,
0.0,1.0,1.39479,0.0,6.0,6.0,6.0,1.0,joystick_01b.jpg,0.0,Blue.png,2.0,115,,,,,,,,,,,,,,,,,
0.0,1.0,0.90948,0.0,7.0,7.0,7.0,1.0,giraffe_11s.jpg,0.0,Purple.png,2.0,115,,,,,,,,,,,,,,,,,
0.0,1.0,0.83304,0.0,8.0,8.0,8.0,1.0,quilt_03s.jpg,0.0,Red.png,2.0,115,,,,,,,,,,,,,,,,,
1.0,1.0,0.55948,0.0,9.0,9.0,9.0,1.0,giraffe_11s.jpg,1.0,Orange.png,2.0,115,,,,,,,,,,,,,,,,,
0.0,1.0,0.668675,0.0,10.0,10.0,10.0,1.0,pincushion_10s.jpg,0.0,Yellow.png,2.0,115,,,,,,,,,,,,,,,,,
1.0,1.0,0.63351,0.0,11.0,11.0,11.0,1.0,giraffe_11s.jpg,1.0,Green.png,2.0,115,,,,,,,,,,,,,,,,,
1.0,1.0,1.58505,0.0,12.0,12.0,12.0,1.0,pincushion_10s.jpg,1.0,Blue.png,3.0,115,,,,,,,,,,,,,,,,,
,0.0,,0.0,13.0,13.0,13.0,1.0,giraffe_11s.jpg,1.0,Purple.png,3.0,115,,,,,,,,,,,,,,,,,
0.0,1.0,0.70451,0.0,14.0,14.0,14.0,1.0,rolling_pin_02s.jpg,0.0,Red.png,3.0,115,,,,,,,,,,,,,,,,,
0.0,1.0,0.873655,0.0,15.0,15.0,15.0,1.0,ticktacktoe_08s.jpg,0.0,Orange.png,3.0,115,,,,,,,,,,,,,,,,,
0.0,1.0,1.20779,0.0,16.0,16.0,16.0,1.0,giraffe_11s.jpg,0.0,Yellow.png,3.0,115,,,,,,,,,,,,,,,,,
1.0,1.0,1.112805,0.0,17.0,17.0,17.0,1.0,ticktacktoe_08s.jpg,1.0,Green.png,3.0,115,,,,,,,,,,,,,,,,,
0.0,1.0,1.31714,0.0,18.0,18.0,18.0,1.0,typewriter_11s.jpg,0.0,Blue.png,4.0,115,,,,,,,,,,,,,,,,,
0.0,1.0,0.653055,0.0,19.0,19.0,19.0,1.0,toothpaste_12s.jpg,0.0,Purple.png,4.0,115,,,,,,,,,,,,,,,,,
0.0,1.0,1.55115,0.0,20.0,20.0,20.0,1.0,hummingbird_05s.jpg,0.0,Red.png,4.0,115,,,,,,,,,,,,,,,,,
1.0,1.0,0.801505,0.0,21.0,21.0,21.0,1.0,toothpaste_12s.jpg,1.0,Orange.png,4.0,115,,,,,,,,,,,,,,,,,
0.0,1.0,2.130685,0.0,22.0,22.0,22.0,1.0,toothpaste_12s.jpg,0.0,Yellow.png,4.0,115,,,,,,,,,,,,,,,,,
0.0,1.0,1.71888,0.0,23.0,23.0,23.0,1.0,treadmill_06s.jpg,0.0,Green.png,4.0,115,,,,,,,,,,,,,,,,,
0.0,1.0,1.052125,0.0,24.0,24.0,24.0,1.0,typewriter_11s.jpg,0.0,Blue.png,5.0,115,,,,,,,,,,,,,,,,,
0.0,1.0,0.824925,0.0,25.0,25.0,25.0,1.0,penguin_16s.jpg,0.0,Purple.png,5.0,115,,,,,,,,,,,,,,,,,
0.0,1.0,1.63471,0.0,26.0,26.0,26.0,1.0,olive_05s.jpg,0.0,Red.png,5.0,115,,,,,,,,,,,,,,,,,
1.0,1.0,0.592595,0.0,27.0,27.0,27.0,1.0,penguin_16s.jpg,1.0,Orange.png,5.0,115,,,,,,,,,,,,,,,,,
,0.0,,0.0,28.0,28.0,28.0,1.0,penguin_16s.jpg,0.0,Yellow.png,5.0,115,,,,,,,,,,,,,,,,,
0.0,1.0,0.643505,0.0,29.0,29.0,29.0,1.0,tab_09s.jpg,0.0,Green.png,5.0,115,,,,,,,,,,,,,,,,,
0.0,1.0,0.650095,0.0,30.0,30.0,30.0,1.0,frame_06s.jpg,0.0,Blue.png,6.0,115,,,,,,,,,,,,,,,,,
0.0,1.0,0.686705,0.0,31.0,31.0,31.0,1.0,mop_08s.jpg,0.0,Purple.png,6.0,115,,,,,,,,,,,,,,,,,
0.0,1.0,0.80171,0.0,32.0,32.0,32.0,1.0,memory_stick_11s.jpg,0.0,Red.png,6.0,115,,,,,,,,,,,,,,,,,
0.0,1.0,0.97736,0.0,33.0,33.0,33.0,1.0,olive_05s.jpg,0.0,Orange.png,6.0,115,,,,,,,,,,,,,,,,,
,0.0,,0.0,34.0,34.0,34.0,1.0,ravioli_08s.jpg,0.0,Yellow.png,6.0,115,,,,,,,,,,,,,,,,,
0.0,1.0,0.76044,0.0,35.0,35.0,35.0,1.0,mousetrap_15n.jpg,0.0,Green.png,6.0,115,,,,,,,,,,,,,,,,,
,,,,,,,,,1.0,,,115,1.0,1.0,2.136945,0.0,0.0,0.0,0.0,1.0,hummingbird_05s.jpg,treadmill_06s.jpg,,,,,,,
,,,,,,,,,1.0,,,115,1.0,1.0,1.645845,0.0,1.0,1.0,1.0,1.0,margarita_03s.jpg,quilt_03s.jpg,,,,,,,
,,,,,,,,,0.0,,,115,0.0,1.0,1.28668,0.0,2.0,2.0,2.0,1.0,joystick_01b.jpg,foam_03s.jpg,,,,,,,
,,,,,,,,,0.0,,,115,0.0,1.0,0.94702,0.0,3.0,3.0,3.0,1.0,ravioli_08s.jpg,mop_08s.jpg,,,,,,,
,,,,,,,,,1.0,,,115,0.0,0.0,1.402265,0.0,4.0,4.0,4.0,1.0,tab_09s.jpg,memory_stick_11s.jpg,,,,,,,
,,,,,,,,,1.0,,,115,1.0,1.0,1.35389,0.0,5.0,5.0,5.0,1.0,tripod_01b.jpg,crate_05s.jpg,,,,,,,
,,,,,,,,,,,,115,,,,,,,,,,,0.0,1.0,1.0,1.0,1.0,new2backpresent_2_4.xlsx,new2back_compare_task_2_4.xlsx
0.0,1.0,0.900925,0.0,0.0,0.0,0.0,1.0,safety_pin_02s.jpg,0.0,Blue.png,1.0,115,,,,,,,,,,,,,,,,,
0.0,1.0,1.57144,0.0,1.0,1.0,1.0,1.0,safety_pin_02s.jpg,0.0,Purple.png,1.0,115,,,,,,,,,,,,,,,,,
0.0,1.0,1.033505,0.0,2.0,2.0,2.0,1.0,cardinal_07s.jpg,0.0,Red.png,1.0,115,,,,,,,,,,,,,,,,,
1.0,1.0,0.984565,0.0,3.0,3.0,3.0,1.0,safety_pin_02s.jpg,1.0,Orange.png,1.0,115,,,,,,,,,,,,,,,,,
0.0,1.0,0.81974,0.0,4.0,4.0,4.0,1.0,potholder_02s.jpg,0.0,Yellow.png,1.0,115,,,,,,,,,,,,,,,,,
0.0,0.0,1.923955,0.0,5.0,5.0,5.0,1.0,safety_pin_02s.jpg,1.0,Green.png,1.0,115,,,,,,,,,,,,,,,,,
0.0,1.0,2.02019,0.0,6.0,6.0,6.0,1.0,cardinal_07s.jpg,0.0,Blue.png,2.0,115,,,,,,,,,,,,,,,,,
0.0,1.0,0.917225,0.0,7.0,7.0,7.0,1.0,lion_18s.jpg,0.0,Purple.png,2.0,115,,,,,,,,,,,,,,,,,
0.0,1.0,1.80131,0.0,8.0,8.0,8.0,1.0,comic_book_02s.jpg,0.0,Red.png,2.0,115,,,,,,,,,,,,,,,,,
0.0,1.0,1.52296,0.0,9.0,9.0,9.0,1.0,lizard_10n.jpg,0.0,Orange.png,2.0,115,,,,,,,,,,,,,,,,,
0.0,1.0,1.351025,0.0,10.0,10.0,10.0,1.0,rice_12s.jpg,0.0,Yellow.png,2.0,115,,,,,,,,,,,,,,,,,
0.0,1.0,0.751035,0.0,11.0,11.0,11.0,1.0,bagel_15s.jpg,0.0,Green.png,2.0,115,,,,,,,,,,,,,,,,,
0.0,1.0,1.578595,0.0,12.0,12.0,12.0,1.0,recliner_02s.jpg,0.0,Blue.png,3.0,115,,,,,,,,,,,,,,,,,
0.0,1.0,1.37177,0.0,13.0,13.0,13.0,1.0,recliner_02s.jpg,0.0,Purple.png,3.0,115,,,,,,,,,,,,,,,,,
0.0,1.0,1.250855,0.0,14.0,14.0,14.0,1.0,luggage_08s.jpg,0.0,Red.png,3.0,115,,,,,,,,,,,,,,,,,
1.0,1.0,0.540505,0.0,15.0,15.0,15.0,1.0,recliner_02s.jpg,1.0,Orange.png,3.0,115,,,,,,,,,,,,,,,,,
0.0,1.0,0.88901,0.0,16.0,16.0,16.0,1.0,onion_10s.jpg,0.0,Yellow.png,3.0,115,,,,,,,,,,,,,,,,,
0.0,1.0,0.667315,0.0,17.0,17.0,17.0,1.0,rosary_03s.jpg,0.0,Green.png,3.0,115,,,,,,,,,,,,,,,,,
0.0,1.0,1.553095,0.0,18.0,18.0,18.0,1.0,smokingpipe.jpg,0.0,Blue.png,4.0,115,,,,,,,,,,,,,,,,,
0.0,1.0,0.641965,0.0,19.0,19.0,19.0,1.0,roulette_wheel_04s.jpg,0.0,Purple.png,4.0,115,,,,,,,,,,,,,,,,,
1.0,1.0,1.0783,0.0,20.0,20.0,20.0,1.0,smokingpipe.jpg,1.0,Red.png,4.0,115,,,,,,,,,,,,,,,,,
0.0,1.0,0.72613,0.0,21.0,21.0,21.0,1.0,orchid_01b.jpg,0.0,Orange.png,4.0,115,,,,,,,,,,,,,,,,,
0.0,1.0,1.02516,0.0,22.0,22.0,22.0,1.0,buoy_04s.jpg,0.0,Yellow.png,4.0,115,,,,,,,,,,,,,,,,,
0.0,1.0,0.634845,0.0,23.0,23.0,23.0,1.0,stopwatch_04s.jpg,0.0,Green.png,4.0,115,,,,,,,,,,,,,,,,,
0.0,1.0,1.685505,0.0,24.0,24.0,24.0,1.0,knitting_needle_04s.jpg,0.0,Blue.png,5.0,115,,,,,,,,,,,,,,,,,
0.0,1.0,1.12095,0.0,25.0,25.0,25.0,1.0,prism_10s.jpg,0.0,Purple.png,5.0,115,,,,,,,,,,,,,,,,,
0.0,1.0,1.237865,0.0,26.0,26.0,26.0,1.0,teapot_03s.jpg,0.0,Red.png,5.0,115,,,,,,,,,,,,,,,,,
0.0,1.0,0.900885,0.0,27.0,27.0,27.0,1.0,fire_pit_10s.jpg,0.0,Orange.png,5.0,115,,,,,,,,,,,,,,,,,
0.0,1.0,1.60881,0.0,28.0,28.0,28.0,1.0,fire_pit_10s.jpg,0.0,Yellow.png,5.0,115,,,,,,,,,,,,,,,,,
1.0,1.0,0.503995,0.0,29.0,29.0,29.0,1.0,fire_pit_10s.jpg,1.0,Green.png,5.0,115,,,,,,,,,,,,,,,,,
0.0,1.0,1.1061,0.0,30.0,30.0,30.0,1.0,ironing_board_07s.jpg,0.0,Blue.png,6.0,115,,,,,,,,,,,,,,,,,
1.0,1.0,1.41792,0.0,31.0,31.0,31.0,1.0,fire_pit_10s.jpg,1.0,Purple.png,6.0,115,,,,,,,,,,,,,,,,,
0.0,1.0,0.783565,0.0,32.0,32.0,32.0,1.0,mattress_01s.jpg,0.0,Red.png,6.0,115,,,,,,,,,,,,,,,,,
1.0,1.0,1.539105,0.0,33.0,33.0,33.0,1.0,fire_pit_10s.jpg,1.0,Orange.png,6.0,115,,,,,,,,,,,,,,,,,
1.0,1.0,1.924165,0.0,34.0,34.0,34.0,1.0,mattress_01s.jpg,1.0,Yellow.png,6.0,115,,,,,,,,,,,,,,,,,
0.0,1.0,0.976595,0.0,35.0,35.0,35.0,1.0,ice-cream_cone_06s.jpg,0.0,Green.png,6.0,115,,,,,,,,,,,,,,,,,
,,,,,,,,,1.0,,,115,1.0,1.0,2.31871,0.0,0.0,0.0,0.0,1.0,roulette_wheel_04s.jpg,buoy_04s.jpg,,,,,,,
,,,,,,,,,0.0,,,115,1.0,0.0,1.279845,0.0,1.0,1.0,1.0,1.0,lion_18s.jpg,potholder_02s.jpg,,,,,,,
,,,,,,,,,0.0,,,115,1.0,0.0,1.302295,0.0,2.0,2.0,2.0,1.0,bagel_15s.jpg,comic_book_02s.jpg,,,,,,,
,,,,,,,,,1.0,,,115,0.0,0.0,1.218295,0.0,3.0,3.0,3.0,1.0,stopwatch_04s.jpg,teapot_03s.jpg,,,,,,,
,,,,,,,,,1.0,,,115,1.0,1.0,1.59049,0.0,4.0,4.0,4.0,1.0,luggage_08s.jpg,rosary_03s.jpg,,,,,,,
,,,,,,,,,1.0,,,115,1.0,1.0,1.17807,0.0,5.0,5.0,5.0,1.0,orchid_01b.jpg,knitting_needle_04s.jpg,,,,,,,
,,,,,,,,,,,,115,,,,,,,,,,,0.0,2.0,2.0,2.0,1.0,new2backpresent_3_4.xlsx,new2back_compare_task_3_4.xlsx
0.0,1.0,1.601385,0.0,0.0,0.0,0.0,1.0,smoothie_09s.jpg,0.0,Blue.png,1.0,115,,,,,,,,,,,,,,,,,
0.0,1.0,0.85221,0.0,1.0,1.0,1.0,1.0,raspberry_12s.jpg,0.0,Purple.png,1.0,115,,,,,,,,,,,,,,,,,
1.0,0.0,0.80155,0.0,2.0,2.0,2.0,1.0,raspberry_12s.jpg,0.0,Red.png,1.0,115,,,,,,,,,,,,,,,,,
0.0,1.0,0.95387,0.0,3.0,3.0,3.0,1.0,lamb_chop_07s.jpg,0.0,Orange.png,1.0,115,,,,,,,,,,,,,,,,,
0.0,1.0,1.30407,0.0,4.0,4.0,4.0,1.0,smoothie_09s.jpg,0.0,Yellow.png,1.0,115,,,,,,,,,,,,,,,,,
0.0,1.0,1.70163,0.0,5.0,5.0,5.0,1.0,raspberry_12s.jpg,0.0,Green.png,1.0,115,,,,,,,,,,,,,,,,,
0.0,1.0,0.971335,0.0,6.0,6.0,6.0,1.0,lava_02s.jpg,0.0,Blue.png,2.0,115,,,,,,,,,,,,,,,,,
0.0,1.0,1.079625,0.0,7.0,7.0,7.0,1.0,trident_07s.jpg,0.0,Purple.png,2.0,115,,,,,,,,,,,,,,,,,
0.0,1.0,1.31185,0.0,8.0,8.0,8.0,1.0,trident_07s.jpg,0.0,Red.png,2.0,115,,,,,,,,,,,,,,,,,
1.0,1.0,0.557315,0.0,9.0,9.0,9.0,1.0,trident_07s.jpg,1.0,Orange.png,2.0,115,,,,,,,,,,,,,,,,,
0.0,1.0,0.958475,0.0,10.0,10.0,10.0,1.0,orangutan_03s.jpg,0.0,Yellow.png,2.0,115,,,,,,,,,,,,,,,,,
1.0,1.0,1.45101,0.0,11.0,11.0,11.0,1.0,trident_07s.jpg,1.0,Green.png,2.0,115,,,,,,,,,,,,,,,,,
0.0,1.0,1.40143,0.0,12.0,12.0,12.0,1.0,raspberry_12s.jpg,0.0,Blue.png,3.0,115,,,,,,,,,,,,,,,,,
1.0,1.0,1.301135,0.0,13.0,13.0,13.0,1.0,trident_07s.jpg,1.0,Purple.png,3.0,115,,,,,,,,,,,,,,,,,
0.0,1.0,0.60196,0.0,14.0,14.0,14.0,1.0,lavender_10s.jpg,0.0,Red.png,3.0,115,,,,,,,,,,,,,,,,,
0.0,1.0,0.637905,0.0,15.0,15.0,15.0,1.0,chip_04s.jpg,0.0,Orange.png,3.0,115,,,,,,,,,,,,,,,,,
0.0,1.0,1.2055,0.0,16.0,16.0,16.0,1.0,lamb_04s.jpg,0.0,Yellow.png,3.0,115,,,,,,,,,,,,,,,,,
0.0,1.0,1.25096,0.0,17.0,17.0,17.0,1.0,emerald_02s.jpg,0.0,Green.png,3.0,115,,,,,,,,,,,,,,,,,
0.0,1.0,1.4629,0.0,18.0,18.0,18.0,1.0,pineapple_12s.jpg,0.0,Blue.png,4.0,115,,,,,,,,,,,,,,,,,
0.0,1.0,1.252105,0.0,19.0,19.0,19.0,1.0,sundae_08s.jpg,0.0,Purple.png,4.0,115,,,,,,,,,,,,,,,,,
0.0,1.0,1.234565,0.0,20.0,20.0,20.0,1.0,sundae_08s.jpg,0.0,Red.png,4.0,115,,,,,,,,,,,,,,,,,
0.0,1.0,1.001455,0.0,21.0,21.0,21.0,1.0,squirrel_02s.jpg,0.0,Orange.png,4.0,115,,,,,,,,,,,,,,,,,
0.0,1.0,1.168045,0.0,22.0,22.0,22.0,1.0,roller_coaster_07s.jpg,0.0,Yellow.png,4.0,115,,,,,,,,,,,,,,,,,
0.0,1.0,1.29287,0.0,23.0,23.0,23.0,1.0,sundae_08s.jpg,0.0,Green.png,4.0,115,,,,,,,,,,,,,,,,,
,0.0,,0.0,24.0,24.0,24.0,1.0,tweezers_03s.jpg,0.0,Blue.png,5.0,115,,,,,,,,,,,,,,,,,
1.0,1.0,0.850715,0.0,25.0,25.0,25.0,1.0,sundae_08s.jpg,1.0,Purple.png,5.0,115,,,,,,,,,,,,,,,,,
0.0,1.0,0.786485,0.0,26.0,26.0,26.0,1.0,rudder_02s.jpg,0.0,Red.png,5.0,115,,,,,,,,,,,,,,,,,
0.0,1.0,0.728515,0.0,27.0,27.0,27.0,1.0,rake_06s.jpg,0.0,Orange.png,5.0,115,,,,,,,,,,,,,,,,,
1.0,0.0,0.638185,0.0,28.0,28.0,28.0,1.0,rake_06s.jpg,0.0,Yellow.png,5.0,115,,,,,,,,,,,,,,,,,
1.0,1.0,0.58387,0.0,29.0,29.0,29.0,1.0,rake_06s.jpg,1.0,Green.png,5.0,115,,,,,,,,,,,,,,,,,
0.0,1.0,0.54993,0.0,30.0,30.0,30.0,1.0,cap_05s.jpg,0.0,Blue.png,6.0,115,,,,,,,,,,,,,,,,,
0.0,1.0,0.600405,0.0,31.0,31.0,31.0,1.0,paper_towel_03s.jpg,0.0,Purple.png,6.0,115,,,,,,,,,,,,,,,,,
0.0,1.0,1.200825,0.0,32.0,32.0,32.0,1.0,toaster_03s.jpg,0.0,Red.png,6.0,115,,,,,,,,,,,,,,,,,
0.0,1.0,1.28418,0.0,33.0,33.0,33.0,1.0,money_07s.jpg,0.0,Orange.png,6.0,115,,,,,,,,,,,,,,,,,
0.0,1.0,1.12235,0.0,34.0,34.0,34.0,1.0,pinwheel_06s.jpg,0.0,Yellow.png,6.0,115,,,,,,,,,,,,,,,,,
0.0,1.0,1.66834,0.0,35.0,35.0,35.0,1.0,lid_10s.jpg,0.0,Green.png,6.0,115,,,,,,,,,,,,,,,,,
,,,,,,,,,0.0,,,115,0.0,1.0,2.43072,0.0,0.0,0.0,0.0,1.0,tweezers_03s.jpg,squirrel_02s.jpg,,,,,,,
,,,,,,,,,1.0,,,115,0.0,0.0,1.09388,0.0,1.0,1.0,1.0,1.0,chip_04s.jpg,pineapple_12s.jpg,,,,,,,
,,,,,,,,,1.0,,,115,1.0,1.0,1.65803,0.0,2.0,2.0,2.0,1.0,lamb_chop_07s.jpg,lava_02s.jpg,,,,,,,
,,,,,,,,,0.0,,,115,0.0,1.0,1.130785,0.0,3.0,3.0,3.0,1.0,pinwheel_06s.jpg,paper_towel_03s.jpg,,,,,,,
,,,,,,,,,0.0,,,115,0.0,1.0,1.54048,0.0,4.0,4.0,4.0,1.0,emerald_02s.jpg,lavender_10s.jpg,,,,,,,
,,,,,,,,,0.0,,,115,0.0,1.0,1.30661,0.0,5.0,5.0,5.0,1.0,money_07s.jpg,cap_05s.jpg,,,,,,,
,,,,,,,,,,,,115,,,,,,,,,,,0.0,3.0,3.0,3.0,1.0,new2backpresent_4_4.xlsx,new2back_compare_task_4_4.xlsx
0.0,1.0,1.092435,0.0,0.0,0.0,0.0,1.0,fur_coat_11s.jpg,0.0,Blue.png,1.0,115,,,,,,,,,,,,,,,,,
0.0,1.0,1.424135,0.0,1.0,1.0,1.0,1.0,crayon_09s.jpg,0.0,Purple.png,1.0,115,,,,,,,,,,,,,,,,,
0.0,1.0,1.704235,0.0,2.0,2.0,2.0,1.0,cobra_05s.jpg,0.0,Red.png,1.0,115,,,,,,,,,,,,,,,,,
0.0,1.0,1.4514,0.0,3.0,3.0,3.0,1.0,raccoon_02s.jpg,0.0,Orange.png,1.0,115,,,,,,,,,,,,,,,,,
0.0,1.0,1.3407,0.0,4.0,4.0,4.0,1.0,soda_fountain_03s.jpg,0.0,Yellow.png,1.0,115,,,,,,,,,,,,,,,,,
1.0,1.0,0.919985,0.0,5.0,5.0,5.0,1.0,raccoon_02s.jpg,1.0,Green.png,1.0,115,,,,,,,,,,,,,,,,,
0.0,1.0,1.509165,0.0,6.0,6.0,6.0,1.0,feather02.jpg,0.0,Blue.png,2.0,115,,,,,,,,,,,,,,,,,
1.0,1.0,1.04285,0.0,7.0,7.0,7.0,1.0,raccoon_02s.jpg,1.0,Purple.png,2.0,115,,,,,,,,,,,,,,,,,
1.0,1.0,1.087645,0.0,8.0,8.0,8.0,1.0,feather02.jpg,1.0,Red.png,2.0,115,,,,,,,,,,,,,,,,,
0.0,1.0,1.386625,0.0,9.0,9.0,9.0,1.0,rug_09s.jpg,0.0,Orange.png,2.0,115,,,,,,,,,,,,,,,,,
1.0,1.0,0.900825,0.0,10.0,10.0,10.0,1.0,feather02.jpg,1.0,Yellow.png,2.0,115,,,,,,,,,,,,,,,,,
0.0,1.0,1.334755,0.0,11.0,11.0,11.0,1.0,cushion_08s.jpg,0.0,Green.png,2.0,115,,,,,,,,,,,,,,,,,
1.0,1.0,1.118065,0.0,12.0,12.0,12.0,1.0,feather02.jpg,1.0,Blue.png,3.0,115,,,,,,,,,,,,,,,,,
1.0,0.0,1.04376,0.0,13.0,13.0,13.0,1.0,feather02.jpg,0.0,Purple.png,3.0,115,,,,,,,,,,,,,,,,,
0.0,1.0,1.084105,0.0,14.0,14.0,14.0,1.0,ice_pack_09s.jpg,0.0,Red.png,3.0,115,,,,,,,,,,,,,,,,,
0.0,1.0,2.0019,0.0,15.0,15.0,15.0,1.0,ice_pack_09s.jpg,0.0,Orange.png,3.0,115,,,,,,,,,,,,,,,,,
0.0,1.0,1.120395,0.0,16.0,16.0,16.0,1.0,loom_05s.jpg,0.0,Yellow.png,3.0,115,,,,,,,,,,,,,,,,,
1.0,1.0,0.55393,0.0,17.0,17.0,17.0,1.0,ice_pack_09s.jpg,1.0,Green.png,3.0,115,,,,,,,,,,,,,,,,,
0.0,1.0,1.75896,0.0,18.0,18.0,18.0,1.0,ice_pack_09s.jpg,0.0,Blue.png,4.0,115,,,,,,,,,,,,,,,,,
1.0,1.0,0.64612,0.0,19.0,19.0,19.0,1.0,ice_pack_09s.jpg,1.0,Purple.png,4.0,115,,,,,,,,,,,,,,,,,
1.0,1.0,0.6219,0.0,20.0,20.0,20.0,1.0,ice_pack_09s.jpg,1.0,Red.png,4.0,115,,,,,,,,,,,,,,,,,
0.0,1.0,0.55082,0.0,21.0,21.0,21.0,1.0,blazer_02s.jpg,0.0,Orange.png,4.0,115,,,,,,,,,,,,,,,,,
0.0,1.0,0.866495,0.0,22.0,22.0,22.0,1.0,penlight_12s.jpg,0.0,Yellow.png,4.0,115,,,,,,,,,,,,,,,,,
0.0,1.0,1.006625,0.0,23.0,23.0,23.0,1.0,swan_11s.jpg,0.0,Green.png,4.0,115,,,,,,,,,,,,,,,,,
0.0,1.0,0.64314,0.0,24.0,24.0,24.0,1.0,plunger_08s.jpg,0.0,Blue.png,5.0,115,,,,,,,,,,,,,,,,,
0.0,1.0,0.888815,0.0,25.0,25.0,25.0,1.0,bottle_opener_11s.jpg,0.0,Purple.png,5.0,115,,,,,,,,,,,,,,,,,
0.0,1.0,1.05087,0.0,26.0,26.0,26.0,1.0,checkbook_11s.jpg,0.0,Red.png,5.0,115,,,,,,,,,,,,,,,,,
0.0,1.0,0.705745,0.0,27.0,27.0,27.0,1.0,ink_08s.jpg,0.0,Orange.png,5.0,115,,,,,,,,,,,,,,,,,
0.0,1.0,1.12126,0.0,28.0,28.0,28.0,1.0,plunger_08s.jpg,0.0,Yellow.png,5.0,115,,,,,,,,,,,,,,,,,
0.0,1.0,0.87379,0.0,29.0,29.0,29.0,1.0,pencil02a.jpg,0.0,Green.png,5.0,115,,,,,,,,,,,,,,,,,
0.0,1.0,2.14114,0.0,30.0,30.0,30.0,1.0,ginger_09s.jpg,0.0,Blue.png,6.0,115,,,,,,,,,,,,,,,,,
0.0,1.0,1.134385,0.0,31.0,31.0,31.0,1.0,taxi_15s.jpg,0.0,Purple.png,6.0,115,,,,,,,,,,,,,,,,,
0.0,1.0,0.86856,0.0,32.0,32.0,32.0,1.0,toy_04s.jpg,0.0,Red.png,6.0,115,,,,,,,,,,,,,,,,,
0.0,1.0,1.218775,0.0,33.0,33.0,33.0,1.0,blowfish_03s.jpg,0.0,Orange.png,6.0,115,,,,,,,,,,,,,,,,,
0.0,1.0,1.25149,0.0,34.0,34.0,34.0,1.0,toilet_paper_12s.jpg,0.0,Yellow.png,6.0,115,,,,,,,,,,,,,,,,,
0.0,1.0,1.48535,0.0,35.0,35.0,35.0,1.0,puddle_02s.jpg,0.0,Green.png,6.0,115,,,,,,,,,,,,,,,,,
,,,,,,,,,1.0,,,115,0.0,0.0,1.98564,0.0,0.0,0.0,0.0,1.0,ink_08s.jpg,ginger_09s.jpg,,,,,,,
,,,,,,,,,0.0,,,115,1.0,0.0,1.15185,0.0,1.0,1.0,1.0,1.0,puddle_02s.jpg,toy_04s.jpg,,,,,,,
,,,,,,,,,0.0,,,115,1.0,0.0,1.29601,0.0,2.0,2.0,2.0,1.0,bottle_opener_11s.jpg,penlight_12s.jpg,,,,,,,
,,,,,,,,,0.0,,,115,0.0,1.0,1.251735,0.0,3.0,3.0,3.0,1.0,checkbook_11s.jpg,swan_11s.jpg,,,,,,,
,,,,,,,,,1.0,,,115,1.0,1.0,1.419565,0.0,4.0,4.0,4.0,1.0,taxi_15s.jpg,toilet_paper_12s.jpg,,,,,,,
,,,,,,,,,1.0,,,115,0.0,0.0,1.468745,0.0,5.0,5.0,5.0,1.0,crayon_09s.jpg,soda_fountain_03s.jpg,,,,,,,
,,,,,,,,,,,,115,,,,,,,,,,,0.0,4.0,4.0,4.0,1.0,new2backpresent_5_4.xlsx,new2back_compare_task_5_4.xlsx
0.0,1.0,0.9013,0.0,0.0,0.0,0.0,1.0,flask_04s.jpg,0.0,Blue.png,1.0,115,,,,,,,,,,,,,,,,,
0.0,1.0,1.037825,0.0,1.0,1.0,1.0,1.0,kimono_13s.jpg,0.0,Purple.png,1.0,115,,,,,,,,,,,,,,,,,
0.0,1.0,0.66167,0.0,2.0,2.0,2.0,1.0,limousine_12s.jpg,0.0,Red.png,1.0,115,,,,,,,,,,,,,,,,,
0.0,1.0,1.020325,0.0,3.0,3.0,3.0,1.0,lectern_08s.jpg,0.0,Orange.png,1.0,115,,,,,,,,,,,,,,,,,
0.0,1.0,2.30218,0.0,4.0,4.0,4.0,1.0,kimono_13s.jpg,0.0,Yellow.png,1.0,115,,,,,,,,,,,,,,,,,
0.0,1.0,0.853885,0.0,5.0,5.0,5.0,1.0,doily_13s.jpg,0.0,Green.png,1.0,115,,,,,,,,,,,,,,,,,
1.0,1.0,0.77635,0.0,6.0,6.0,6.0,1.0,kimono_13s.jpg,1.0,Blue.png,2.0,115,,,,,,,,,,,,,,,,,
0.0,1.0,0.78425,0.0,7.0,7.0,7.0,1.0,razor_blade_01b.jpg,0.0,Purple.png,2.0,115,,,,,,,,,,,,,,,,,
0.0,1.0,1.26782,0.0,8.0,8.0,8.0,1.0,razor_blade_01b.jpg,0.0,Red.png,2.0,115,,,,,,,,,,,,,,,,,
0.0,1.0,1.008405,0.0,9.0,9.0,9.0,1.0,champagne_18s.jpg,0.0,Orange.png,2.0,115,,,,,,,,,,,,,,,,,
0.0,1.0,0.81735,0.0,10.0,10.0,10.0,1.0,stamp1_11s.jpg,0.0,Yellow.png,2.0,115,,,,,,,,,,,,,,,,,
1.0,1.0,0.836235,0.0,11.0,11.0,11.0,1.0,champagne_18s.jpg,1.0,Green.png,2.0,115,,,,,,,,,,,,,,,,,
0.0,1.0,1.640675,0.0,12.0,12.0,12.0,1.0,crossbow_10s.jpg,0.0,Blue.png,3.0,115,,,,,,,,,,,,,,,,,
0.0,1.0,1.21772,0.0,13.0,13.0,13.0,1.0,briefcase_03s.jpg,0.0,Purple.png,3.0,115,,,,,,,,,,,,,,,,,
0.0,1.0,1.428735,0.0,14.0,14.0,14.0,1.0,jersey_02s.jpg,0.0,Red.png,3.0,115,,,,,,,,,,,,,,,,,
1.0,1.0,0.956595,0.0,15.0,15.0,15.0,1.0,briefcase_03s.jpg,1.0,Orange.png,3.0,115,,,,,,,,,,,,,,,,,
0.0,1.0,1.52288,0.0,16.0,16.0,16.0,1.0,oil_02s.jpg,0.0,Yellow.png,3.0,115,,,,,,,,,,,,,,,,,
0.0,1.0,1.08538,0.0,17.0,17.0,17.0,1.0,tinsel_12s.jpg,0.0,Green.png,3.0,115,,,,,,,,,,,,,,,,,
0.0,1.0,0.91696,0.0,18.0,18.0,18.0,1.0,flask_04s.jpg,0.0,Blue.png,4.0,115,,,,,,,,,,,,,,,,,
0.0,1.0,0.668505,0.0,19.0,19.0,19.0,1.0,fork_04s.jpg,0.0,Purple.png,4.0,115,,,,,,,,,,,,,,,,,
0.0,1.0,1.177905,0.0,20.0,20.0,20.0,1.0,purse_05s.jpg,0.0,Red.png,4.0,115,,,,,,,,,,,,,,,,,
0.0,1.0,1.22313,0.0,21.0,21.0,21.0,1.0,flask_04s.jpg,0.0,Orange.png,4.0,115,,,,,,,,,,,,,,,,,
0.0,1.0,2.446135,0.0,22.0,22.0,22.0,1.0,sledgehammer_03s.jpg,0.0,Yellow.png,4.0,115,,,,,,,,,,,,,,,,,
0.0,1.0,1.36981,0.0,23.0,23.0,23.0,1.0,turf_03s.jpg,0.0,Green.png,4.0,115,,,,,,,,,,,,,,,,,
0.0,1.0,0.889085,0.0,24.0,24.0,24.0,1.0,omelet_07s.jpg,0.0,Blue.png,5.0,115,,,,,,,,,,,,,,,,,
1.0,1.0,0.86702,0.0,25.0,25.0,25.0,1.0,turf_03s.jpg,1.0,Purple.png,5.0,115,,,,,,,,,,,,,,,,,
0.0,1.0,0.9949,0.0,26.0,26.0,26.0,1.0,clover_04s.jpg,0.0,Red.png,5.0,115,,,,,,,,,,,,,,,,,
0.0,1.0,0.986555,0.0,27.0,27.0,27.0,1.0,lip_gloss_06s.jpg,0.0,Orange.png,5.0,115,,,,,,,,,,,,,,,,,
0.0,1.0,0.620675,0.0,28.0,28.0,28.0,1.0,amber_04s.jpg,0.0,Yellow.png,5.0,115,,,,,,,,,,,,,,,,,
0.0,1.0,0.694175,0.0,29.0,29.0,29.0,1.0,tortilla_06s.jpg,0.0,Green.png,5.0,115,,,,,,,,,,,,,,,,,
0.0,1.0,0.919315,0.0,30.0,30.0,30.0,1.0,razor_blade_01b.jpg,0.0,Blue.png,6.0,115,,,,,,,,,,,,,,,,,
0.0,1.0,1.134145,0.0,31.0,31.0,31.0,1.0,tape_measure_11s.jpg,0.0,Purple.png,6.0,115,,,,,,,,,,,,,,,,,
1.0,1.0,1.355115,0.0,32.0,32.0,32.0,1.0,razor_blade_01b.jpg,1.0,Red.png,6.0,115,,,,,,,,,,,,,,,,,
0.0,1.0,1.995615,0.0,33.0,33.0,33.0,1.0,razor_blade_01b.jpg,0.0,Orange.png,6.0,115,,,,,,,,,,,,,,,,,
0.0,1.0,0.969145,0.0,34.0,34.0,34.0,1.0,stingray_02s.jpg,0.0,Yellow.png,6.0,115,,,,,,,,,,,,,,,,,
0.0,1.0,1.351795,0.0,35.0,35.0,35.0,1.0,harpoon.jpg,0.0,Green.png,6.0,115,,,,,,,,,,,,,,,,,
,,,,,,,,,1.0,,,115,1.0,1.0,1.885615,0.0,0.0,0.0,0.0,1.0,oil_02s.jpg,fork_04s.jpg,,,,,,,
,,,,,,,,,0.0,,,115,1.0,0.0,1.80217,0.0,1.0,1.0,1.0,1.0,doily_13s.jpg,limousine_12s.jpg,,,,,,,
,,,,,,,,,0.0,,,115,0.0,1.0,1.52655,0.0,2.0,2.0,2.0,1.0,lip_gloss_06s.jpg,omelet_07s.jpg,,,,,,,
,,,,,,,,,0.0,,,115,1.0,0.0,1.456155,0.0,3.0,3.0,3.0,1.0,tape_measure_11s.jpg,amber_04s.jpg,,,,,,,
,,,,,,,,,0.0,,,115,1.0,0.0,1.526845,0.0,4.0,4.0,4.0,1.0,tortilla_06s.jpg,clover_04s.jpg,,,,,,,
,,,,,,,,,0.0,,,115,0.0,1.0,1.57311,0.0,5.0,5.0,5.0,1.0,purse_05s.jpg,tinsel_12s.jpg,,,,,,,
,,,,,,,,,,,,115,,,,,,,,,,,0.0,5.0,5.0,5.0,1.0,new2backpresent_6_4.xlsx,new2back_compare_task_6_4.xlsx
0.0,1.0,0.990695,0.0,0.0,0.0,0.0,1.0,butter_14s.jpg,0.0,Blue.png,1.0,115,,,,,,,,,,,,,,,,,
0.0,1.0,1.263305,0.0,1.0,1.0,1.0,1.0,butter_14s.jpg,0.0,Purple.png,1.0,115,,,,,,,,,,,,,,,,,
1.0,1.0,0.47597,0.0,2.0,2.0,2.0,1.0,butter_14s.jpg,1.0,Red.png,1.0,115,,,,,,,,,,,,,,,,,
0.0,1.0,0.900585,0.0,3.0,3.0,3.0,1.0,stamp2_08s.jpg,0.0,Orange.png,1.0,115,,,,,,,,,,,,,,,,,
0.0,1.0,0.634065,0.0,4.0,4.0,4.0,1.0,kangaroo_02s.jpg,0.0,Yellow.png,1.0,115,,,,,,,,,,,,,,,,,
0.0,1.0,0.68457,0.0,5.0,5.0,5.0,1.0,camcorder_10s.jpg,0.0,Green.png,1.0,115,,,,,,,,,,,,,,,,,
0.0,1.0,1.018385,0.0,6.0,6.0,6.0,1.0,bank_06s.jpg,0.0,Blue.png,2.0,115,,,,,,,,,,,,,,,,,
0.0,1.0,1.221225,0.0,7.0,7.0,7.0,1.0,gear_07s.jpg,0.0,Purple.png,2.0,115,,,,,,,,,,,,,,,,,
1.0,1.0,1.67246,0.0,8.0,8.0,8.0,1.0,bank_06s.jpg,1.0,Red.png,2.0,115,,,,,,,,,,,,,,,,,
0.0,1.0,0.939075,0.0,9.0,9.0,9.0,1.0,funnel_01b.jpg,0.0,Orange.png,2.0,115,,,,,,,,,,,,,,,,,
0.0,1.0,0.73683,0.0,10.0,10.0,10.0,1.0,poinsettia_04s.jpg,0.0,Yellow.png,2.0,115,,,,,,,,,,,,,,,,,
1.0,1.0,0.98401,0.0,11.0,11.0,11.0,1.0,funnel_01b.jpg,1.0,Green.png,2.0,115,,,,,,,,,,,,,,,,,
0.0,1.0,0.82262,0.0,12.0,12.0,12.0,1.0,rooster_03s.jpg,0.0,Blue.png,3.0,115,,,,,,,,,,,,,,,,,
0.0,1.0,0.600775,0.0,13.0,13.0,13.0,1.0,denture_03s.jpg,0.0,Purple.png,3.0,115,,,,,,,,,,,,,,,,,
0.0,1.0,1.31821,0.0,14.0,14.0,14.0,1.0,bean_06s.jpg,0.0,Red.png,3.0,115,,,,,,,,,,,,,,,,,
0.0,1.0,0.927945,0.0,15.0,15.0,15.0,1.0,mud_13s.jpg,0.0,Orange.png,3.0,115,,,,,,,,,,,,,,,,,
0.0,1.0,0.7097,0.0,16.0,16.0,16.0,1.0,keyhole_03s.jpg,0.0,Yellow.png,3.0,115,,,,,,,,,,,,,,,,,
0.0,1.0,1.2347,0.0,17.0,17.0,17.0,1.0,bean_06s.jpg,0.0,Green.png,3.0,115,,,,,,,,,,,,,,,,,
0.0,1.0,1.06038,0.0,18.0,18.0,18.0,1.0,bank_06s.jpg,0.0,Blue.png,4.0,115,,,,,,,,,,,,,,,,,
0.0,1.0,0.80588,0.0,19.0,19.0,19.0,1.0,pomegranate_04s.jpg,0.0,Purple.png,4.0,115,,,,,,,,,,,,,,,,,
0.0,1.0,1.054575,0.0,20.0,20.0,20.0,1.0,chopsticks_08s.jpg,0.0,Red.png,4.0,115,,,,,,,,,,,,,,,,,
0.0,1.0,0.776135,0.0,21.0,21.0,21.0,1.0,contact_lens_15s.jpg,0.0,Orange.png,4.0,115,,,,,,,,,,,,,,,,,
0.0,1.0,1.25926,0.0,22.0,22.0,22.0,1.0,hydrant_10s.jpg,0.0,Yellow.png,4.0,115,,,,,,,,,,,,,,,,,
0.0,1.0,0.973485,0.0,23.0,23.0,23.0,1.0,gingerbread_man_03s.jpg,0.0,Green.png,4.0,115,,,,,,,,,,,,,,,,,
0.0,1.0,1.070995,0.0,24.0,24.0,24.0,1.0,camcorder_10s.jpg,0.0,Blue.png,5.0,115,,,,,,,,,,,,,,,,,
0.0,1.0,0.93873,0.0,25.0,25.0,25.0,1.0,teabag_12s.jpg,0.0,Purple.png,5.0,115,,,,,,,,,,,,,,,,,
0.0,1.0,1.34334,0.0,26.0,26.0,26.0,1.0,radiator_05s.jpg,0.0,Red.png,5.0,115,,,,,,,,,,,,,,,,,
0.0,1.0,1.221725,0.0,27.0,27.0,27.0,1.0,punch1_10s.jpg,0.0,Orange.png,5.0,115,,,,,,,,,,,,,,,,,
0.0,1.0,0.775315,0.0,28.0,28.0,28.0,1.0,mailbox_11s.jpg,0.0,Yellow.png,5.0,115,,,,,,,,,,,,,,,,,
0.0,1.0,0.55507,0.0,29.0,29.0,29.0,1.0,beaker_01b.jpg,0.0,Green.png,5.0,115,,,,,,,,,,,,,,,,,
1.0,1.0,0.65745,0.0,30.0,30.0,30.0,1.0,mailbox_11s.jpg,1.0,Blue.png,6.0,115,,,,,,,,,,,,,,,,,
0.0,1.0,0.818995,0.0,31.0,31.0,31.0,1.0,pipe1_10s.jpg,0.0,Purple.png,6.0,115,,,,,,,,,,,,,,,,,
1.0,1.0,0.995875,0.0,32.0,32.0,32.0,1.0,mailbox_11s.jpg,1.0,Red.png,6.0,115,,,,,,,,,,,,,,,,,
1.0,1.0,1.175145,0.0,33.0,33.0,33.0,1.0,pipe1_10s.jpg,1.0,Orange.png,6.0,115,,,,,,,,,,,,,,,,,
0.0,1.0,0.9285,0.0,34.0,34.0,34.0,1.0,eyedropper_12s.jpg,0.0,Yellow.png,6.0,115,,,,,,,,,,,,,,,,,
0.0,1.0,0.868895,0.0,35.0,35.0,35.0,1.0,rhubarb_03s.jpg,0.0,Green.png,6.0,115,,,,,,,,,,,,,,,,,
,,,,,,,,,0.0,,,115,0.0,1.0,1.290775,0.0,0.0,0.0,0.0,1.0,mud_13s.jpg,rooster_03s.jpg,,,,,,,
,,,,,,,,,1.0,,,115,1.0,1.0,1.25206,0.0,1.0,1.0,1.0,1.0,chopsticks_08s.jpg,gingerbread_man_03s.jpg,,,,,,,
,,,,,,,,,0.0,,,115,1.0,0.0,1.237805,0.0,2.0,2.0,2.0,1.0,beaker_01b.jpg,radiator_05s.jpg,,,,,,,
,,,,,,,,,0.0,,,115,0.0,1.0,1.793005,0.0,3.0,3.0,3.0,1.0,teabag_12s.jpg,hydrant_10s.jpg,,,,,,,
,,,,,,,,,0.0,,,115,0.0,1.0,1.552335,0.0,4.0,4.0,4.0,1.0,denture_03s.jpg,poinsettia_04s.jpg,,,,,,,
,,,,,,,,,1.0,,,115,0.0,0.0,1.15156,0.0,5.0,5.0,5.0,1.0,kangaroo_02s.jpg,gear_07s.jpg,,,,,,,
,,,,,,,,,,,,115,,,,,,,,,,,0.0,6.0,6.0,6.0,1.0,new2backpresent_7_4.xlsx,new2back_compare_task_7_4.xlsx
0.0,1.0,1.32257,0.0,0.0,0.0,0.0,1.0,lamppost_09s.jpg,0.0,Blue.png,1.0,115,,,,,,,,,,,,,,,,,
0.0,1.0,0.68484,0.0,1.0,1.0,1.0,1.0,jewel_01b.jpg,0.0,Purple.png,1.0,115,,,,,,,,,,,,,,,,,
0.0,1.0,0.62522,0.0,2.0,2.0,2.0,1.0,tuxedo_01b.jpg,0.0,Red.png,1.0,115,,,,,,,,,,,,,,,,,
0.0,1.0,0.789235,0.0,3.0,3.0,3.0,1.0,flip_flop_03s.jpg,0.0,Orange.png,1.0,115,,,,,,,,,,,,,,,,,
0.0,1.0,0.900935,0.0,4.0,4.0,4.0,1.0,medal_04s.jpg,0.0,Yellow.png,1.0,115,,,,,,,,,,,,,,,,,
1.0,1.0,0.61232,0.0,5.0,5.0,5.0,1.0,flip_flop_03s.jpg,1.0,Green.png,1.0,115,,,,,,,,,,,,,,,,,
0.0,1.0,0.750485,0.0,6.0,6.0,6.0,1.0,tuxedo_01b.jpg,0.0,Blue.png,2.0,115,,,,,,,,,,,,,,,,,
1.0,1.0,0.528455,0.0,7.0,7.0,7.0,1.0,flip_flop_03s.jpg,1.0,Purple.png,2.0,115,,,,,,,,,,,,,,,,,
0.0,1.0,1.118415,0.0,8.0,8.0,8.0,1.0,fireworks_18s.jpg,0.0,Red.png,2.0,115,,,,,,,,,,,,,,,,,
0.0,1.0,1.31763,0.0,9.0,9.0,9.0,1.0,squirt_gun_03s.jpg,0.0,Orange.png,2.0,115,,,,,,,,,,,,,,,,,
0.0,1.0,0.800455,0.0,10.0,10.0,10.0,1.0,flip_flop_03s.jpg,0.0,Yellow.png,2.0,115,,,,,,,,,,,,,,,,,
0.0,1.0,0.906055,0.0,11.0,11.0,11.0,1.0,puffin_19s.jpg,0.0,Green.png,2.0,115,,,,,,,,,,,,,,,,,
0.0,1.0,1.070495,0.0,12.0,12.0,12.0,1.0,tuxedo_01b.jpg,0.0,Blue.png,3.0,115,,,,,,,,,,,,,,,,,
0.0,1.0,0.83641,0.0,13.0,13.0,13.0,1.0,tuxedo_01b.jpg,0.0,Purple.png,3.0,115,,,,,,,,,,,,,,,,,
0.0,1.0,0.97981,0.0,14.0,14.0,14.0,1.0,snowman_02s.jpg,0.0,Red.png,3.0,115,,,,,,,,,,,,,,,,,
0.0,1.0,0.78429,0.0,15.0,15.0,15.0,1.0,cucumber_07s.jpg,0.0,Orange.png,3.0,115,,,,,,,,,,,,,,,,,
0.0,1.0,0.78518,0.0,16.0,16.0,16.0,1.0,plug_08s.jpg,0.0,Yellow.png,3.0,115,,,,,,,,,,,,,,,,,
1.0,1.0,1.2509,0.0,17.0,17.0,17.0,1.0,cucumber_07s.jpg,1.0,Green.png,3.0,115,,,,,,,,,,,,,,,,,
0.0,1.0,0.650555,0.0,18.0,18.0,18.0,1.0,puffin_19s.jpg,0.0,Blue.png,4.0,115,,,,,,,,,,,,,,,,,
0.0,1.0,0.7845,0.0,19.0,19.0,19.0,1.0,fondue_07s.jpg,0.0,Purple.png,4.0,115,,,,,,,,,,,,,,,,,
0.0,1.0,0.71006,0.0,20.0,20.0,20.0,1.0,lasagna_06s.jpg,0.0,Red.png,4.0,115,,,,,,,,,,,,,,,,,
0.0,1.0,0.63372,0.0,21.0,21.0,21.0,1.0,eiffeltower.jpg,0.0,Orange.png,4.0,115,,,,,,,,,,,,,,,,,
0.0,1.0,0.9089,0.0,22.0,22.0,22.0,1.0,outlet_10s.jpg,0.0,Yellow.png,4.0,115,,,,,,,,,,,,,,,,,
0.0,1.0,0.578615,0.0,23.0,23.0,23.0,1.0,cape_11s.jpg,0.0,Green.png,4.0,115,,,,,,,,,,,,,,,,,
0.0,1.0,0.7842,0.0,24.0,24.0,24.0,1.0,marshmallow_08s.jpg,0.0,Blue.png,5.0,115,,,,,,,,,,,,,,,,,
0.0,1.0,0.76903,0.0,25.0,25.0,25.0,1.0,racehorse_03s.jpg,0.0,Purple.png,5.0,115,,,,,,,,,,,,,,,,,
0.0,1.0,0.92674,0.0,26.0,26.0,26.0,1.0,aluminum_foil_08s.jpg,0.0,Red.png,5.0,115,,,,,,,,,,,,,,,,,
0.0,1.0,0.67512,0.0,27.0,27.0,27.0,1.0,spoon02a.jpg,0.0,Orange.png,5.0,115,,,,,,,,,,,,,,,,,
0.0,1.0,0.978875,0.0,28.0,28.0,28.0,1.0,padlock_07s.jpg,0.0,Yellow.png,5.0,115,,,,,,,,,,,,,,,,,
0.0,1.0,1.056675,0.0,29.0,29.0,29.0,1.0,solar_panel_02s.jpg,0.0,Green.png,5.0,115,,,,,,,,,,,,,,,,,
0.0,1.0,0.67005,0.0,30.0,30.0,30.0,1.0,turtleneck_11s.jpg,0.0,Blue.png,6.0,115,,,,,,,,,,,,,,,,,
0.0,1.0,0.8619,0.0,31.0,31.0,31.0,1.0,pocketknife_12s.jpg,0.0,Purple.png,6.0,115,,,,,,,,,,,,,,,,,
0.0,1.0,0.818375,0.0,32.0,32.0,32.0,1.0,pocketknife_12s.jpg,0.0,Red.png,6.0,115,,,,,,,,,,,,,,,,,
0.0,1.0,1.48455,0.0,33.0,33.0,33.0,1.0,quill_09s.jpg,0.0,Orange.png,6.0,115,,,,,,,,,,,,,,,,,
0.0,1.0,1.444325,0.0,34.0,34.0,34.0,1.0,quill_09s.jpg,0.0,Yellow.png,6.0,115,,,,,,,,,,,,,,,,,
1.0,0.0,0.50494,0.0,35.0,35.0,35.0,1.0,pocketknife_12s.jpg,0.0,Green.png,6.0,115,,,,,,,,,,,,,,,,,
,,,,,,,,,0.0,,,115,0.0,1.0,2.25084,0.0,0.0,0.0,0.0,1.0,cape_11s.jpg,lasagna_06s.jpg,,,,,,,
,,,,,,,,,0.0,,,115,0.0,1.0,1.618875,0.0,1.0,1.0,1.0,1.0,padlock_07s.jpg,racehorse_03s.jpg,,,,,,,
,,,,,,,,,1.0,,,115,1.0,1.0,1.20291,0.0,2.0,2.0,2.0,1.0,spoon02a.jpg,turtleneck_11s.jpg,,,,,,,
,,,,,,,,,0.0,,,115,0.0,1.0,1.341315,0.0,3.0,3.0,3.0,1.0,marshmallow_08s.jpg,eiffeltower.jpg,,,,,,,
,,,,,,,,,0.0,,,115,0.0,1.0,1.71332,0.0,4.0,4.0,4.0,1.0,medal_04s.jpg,jewel_01b.jpg,,,,,,,
,,,,,,,,,1.0,,,115,1.0,1.0,1.3938,0.0,5.0,5.0,5.0,1.0,plug_08s.jpg,fondue_07s.jpg,,,,,,,
,,,,,,,,,,,,115,,,,,,,,,,,0.0,7.0,7.0,7.0,1.0,new2backpresent_8_4.xlsx,new2back_compare_task_8_4.xlsx
0.0,1.0,1.15713,0.0,0.0,0.0,0.0,1.0,footprint_11s.jpg,0.0,Blue.png,1.0,115,,,,,,,,,,,,,,,,,
0.0,1.0,1.42878,0.0,1.0,1.0,1.0,1.0,coffee_filter_10s.jpg,0.0,Purple.png,1.0,115,,,,,,,,,,,,,,,,,
0.0,1.0,1.25327,0.0,2.0,2.0,2.0,1.0,coffee_filter_10s.jpg,0.0,Red.png,1.0,115,,,,,,,,,,,,,,,,,
1.0,1.0,0.62489,0.0,3.0,3.0,3.0,1.0,coffee_filter_10s.jpg,1.0,Orange.png,1.0,115,,,,,,,,,,,,,,,,,
1.0,1.0,0.93465,0.0,4.0,4.0,4.0,1.0,coffee_filter_10s.jpg,1.0,Yellow.png,1.0,115,,,,,,,,,,,,,,,,,
0.0,1.0,0.77353,0.0,5.0,5.0,5.0,1.0,gargoyle_08s.jpg,0.0,Green.png,1.0,115,,,,,,,,,,,,,,,,,
0.0,1.0,0.634365,0.0,6.0,6.0,6.0,1.0,candy_cane_06s.jpg,0.0,Blue.png,2.0,115,,,,,,,,,,,,,,,,,
0.0,1.0,0.63413,0.0,7.0,7.0,7.0,1.0,toad_09s.jpg,0.0,Purple.png,2.0,115,,,,,,,,,,,,,,,,,
1.0,1.0,1.059085,0.0,8.0,8.0,8.0,1.0,candy_cane_06s.jpg,1.0,Red.png,2.0,115,,,,,,,,,,,,,,,,,
0.0,1.0,0.60883,0.0,9.0,9.0,9.0,1.0,pumpkin_03s.jpg,0.0,Orange.png,2.0,115,,,,,,,,,,,,,,,,,
0.0,1.0,0.88504,0.0,10.0,10.0,10.0,1.0,dashboard_02s.jpg,0.0,Yellow.png,2.0,115,,,,,,,,,,,,,,,,,
0.0,1.0,1.093735,0.0,11.0,11.0,11.0,1.0,syringe_02s.jpg,0.0,Green.png,2.0,115,,,,,,,,,,,,,,,,,
0.0,1.0,1.18981,0.0,12.0,12.0,12.0,1.0,powder_07s.jpg,0.0,Blue.png,3.0,115,,,,,,,,,,,,,,,,,
0.0,1.0,0.983875,0.0,13.0,13.0,13.0,1.0,powder_07s.jpg,0.0,Purple.png,3.0,115,,,,,,,,,,,,,,,,,
1.0,1.0,1.37814,0.0,14.0,14.0,14.0,1.0,powder_07s.jpg,1.0,Red.png,3.0,115,,,,,,,,,,,,,,,,,
0.0,1.0,1.718865,0.0,15.0,15.0,15.0,1.0,sea_urchin_09s.jpg,0.0,Orange.png,3.0,115,,,,,,,,,,,,,,,,,
0.0,1.0,0.90953,0.0,16.0,16.0,16.0,1.0,throne_11s.jpg,0.0,Yellow.png,3.0,115,,,,,,,,,,,,,,,,,
0.0,1.0,1.405535,0.0,17.0,17.0,17.0,1.0,powder_07s.jpg,0.0,Green.png,3.0,115,,,,,,,,,,,,,,,,,
0.0,1.0,0.767235,0.0,18.0,18.0,18.0,1.0,chalice_10s.jpg,0.0,Blue.png,4.0,115,,,,,,,,,,,,,,,,,
0.0,1.0,0.57059,0.0,19.0,19.0,19.0,1.0,air_pump_05s.jpg,0.0,Purple.png,4.0,115,,,,,,,,,,,,,,,,,
0.0,1.0,0.83571,0.0,20.0,20.0,20.0,1.0,microwave_02s.jpg,0.0,Red.png,4.0,115,,,,,,,,,,,,,,,,,
0.0,1.0,0.803745,0.0,21.0,21.0,21.0,1.0,cereal_04s.jpg,0.0,Orange.png,4.0,115,,,,,,,,,,,,,,,,,
0.0,1.0,1.20556,0.0,22.0,22.0,22.0,1.0,mushroom_10n.jpg,0.0,Yellow.png,4.0,115,,,,,,,,,,,,,,,,,
0.0,1.0,0.891985,0.0,23.0,23.0,23.0,1.0,red_carpet_03s.jpg,0.0,Green.png,4.0,115,,,,,,,,,,,,,,,,,
0.0,1.0,1.089895,0.0,24.0,24.0,24.0,1.0,throne_11s.jpg,0.0,Blue.png,5.0,115,,,,,,,,,,,,,,,,,
0.0,1.0,0.650745,0.0,25.0,25.0,25.0,1.0,koala_13s.jpg,0.0,Purple.png,5.0,115,,,,,,,,,,,,,,,,,
1.0,1.0,0.800475,0.0,26.0,26.0,26.0,1.0,throne_11s.jpg,1.0,Red.png,5.0,115,,,,,,,,,,,,,,,,,
0.0,1.0,0.77615,0.0,27.0,27.0,27.0,1.0,rocket_02s.jpg,0.0,Orange.png,5.0,115,,,,,,,,,,,,,,,,,
0.0,1.0,0.68416,0.0,28.0,28.0,28.0,1.0,swordfish_05s.jpg,0.0,Yellow.png,5.0,115,,,,,,,,,,,,,,,,,
1.0,1.0,1.00432,0.0,29.0,29.0,29.0,1.0,rocket_02s.jpg,1.0,Green.png,5.0,115,,,,,,,,,,,,,,,,,
0.0,1.0,0.7534,0.0,30.0,30.0,30.0,1.0,icicle_04s.jpg,0.0,Blue.png,6.0,115,,,,,,,,,,,,,,,,,
0.0,1.0,0.589115,0.0,31.0,31.0,31.0,1.0,keyboard_05s.jpg,0.0,Purple.png,6.0,115,,,,,,,,,,,,,,,,,
0.0,1.0,0.800815,0.0,32.0,32.0,32.0,1.0,pocket_watch_16s.jpg,0.0,Red.png,6.0,115,,,,,,,,,,,,,,,,,
0.0,1.0,0.75965,0.0,33.0,33.0,33.0,1.0,tablet_04s.jpg,0.0,Orange.png,6.0,115,,,,,,,,,,,,,,,,,
0.0,1.0,0.684025,0.0,34.0,34.0,34.0,1.0,chocolate_01b.jpg,0.0,Yellow.png,6.0,115,,,,,,,,,,,,,,,,,
0.0,1.0,1.334755,0.0,35.0,35.0,35.0,1.0,light_switch_02s.jpg,0.0,Green.png,6.0,115,,,,,,,,,,,,,,,,,
,,,,,,,,,0.0,,,115,0.0,1.0,1.467955,0.0,0.0,0.0,0.0,1.0,chalice_10s.jpg,sea_urchin_09s.jpg,,,,,,,
,,,,,,,,,1.0,,,115,0.0,0.0,1.575485,0.0,1.0,1.0,1.0,1.0,swordfish_05s.jpg,keyboard_05s.jpg,,,,,,,
,,,,,,,,,0.0,,,115,1.0,0.0,1.33899,0.0,2.0,2.0,2.0,1.0,red_carpet_03s.jpg,microwave_02s.jpg,,,,,,,
,,,,,,,,,0.0,,,115,1.0,0.0,1.31913,0.0,3.0,3.0,3.0,1.0,dashboard_02s.jpg,toad_09s.jpg,,,,,,,
,,,,,,,,,0.0,,,115,0.0,1.0,1.991685,0.0,4.0,4.0,4.0,1.0,koala_13s.jpg,mushroom_10n.jpg,,,,,,,
,,,,,,,,,1.0,,,115,1.0,1.0,1.335115,0.0,5.0,5.0,5.0,1.0,icicle_04s.jpg,tablet_04s.jpg,,,,,,,
,,,,,,,,,,,,115,,,,,,,,,,,0.0,8.0,8.0,8.0,1.0,new2backpresent_9_4.xlsx,new2back_compare_task_9_4.xlsx
