key_resp.keys,key_resp.corr,key_resp.rt,present_segment.thisRepN,present_segment.thisTrialN,present_segment.thisN,present_segment.thisIndex,present_segment.ran,pictures,answer,clock,segment,participant,key_resp_2.keys,key_resp_2.corr,key_resp_2.rt,compare_segment.thisRepN,compare_segment.thisTrialN,compare_segment.thisN,compare_segment.thisIndex,compare_segment.ran,item_a,item_b,clock_conditions.thisRepN,clock_conditions.thisTrialN,clock_conditions.thisN,clock_conditions.thisIndex,clock_conditions.ran,present,compare
0.0,1.0,0.82457,0.0,0.0,0.0,0.0,1.0,mailbox_11s.jpg,0.0,Blue.png,1.0,51,,,,,,,,,,,,,,,,,
0.0,1.0,2.20611,0.0,1.0,1.0,1.0,1.0,mailbox_11s.jpg,0.0,Purple.png,1.0,51,,,,,,,,,,,,,,,,,
0.0,1.0,1.494675,0.0,2.0,2.0,2.0,1.0,checkbook_11s.jpg,0.0,Red.png,1.0,51,,,,,,,,,,,,,,,,,
0.0,1.0,1.65594,0.0,3.0,3.0,3.0,1.0,rocking_chair_05s.jpg,0.0,Orange.png,1.0,51,,,,,,,,,,,,,,,,,
1.0,1.0,0.88961,0.0,4.0,4.0,4.0,1.0,checkbook_11s.jpg,1.0,Yellow.png,1.0,51,,,,,,,,,,,,,,,,,
,0.0,,0.0,5.0,5.0,5.0,1.0,rocking_chair_05s.jpg,1.0,Green.png,1.0,51,,,,,,,,,,,,,,,,,
0.0,1.0,0.944685,0.0,6.0,6.0,6.0,1.0,eggshell_14s.jpg,0.0,Blue.png,2.0,51,,,,,,,,,,,,,,,,,
1.0,1.0,1.308485,0.0,7.0,7.0,7.0,1.0,rocking_chair_05s.jpg,1.0,Purple.png,2.0,51,,,,,,,,,,,,,,,,,
0.0,1.0,0.90889,0.0,8.0,8.0,8.0,1.0,powder_07s.jpg,0.0,Red.png,2.0,51,,,,,,,,,,,,,,,,,
0.0,1.0,1.292405,0.0,9.0,9.0,9.0,1.0,meatball_13s.jpg,0.0,Orange.png,2.0,51,,,,,,,,,,,,,,,,,
0.0,1.0,0.81485,0.0,10.0,10.0,10.0,1.0,rolling_pin_02s.jpg,0.0,Yellow.png,2.0,51,,,,,,,,,,,,,,,,,
0.0,1.0,1.196835,0.0,11.0,11.0,11.0,1.0,gingerbread_man_03s.jpg,0.0,Green.png,2.0,51,,,,,,,,,,,,,,,,,
0.0,1.0,1.03116,0.0,12.0,12.0,12.0,1.0,rocking_chair_05s.jpg,0.0,Blue.png,3.0,51,,,,,,,,,,,,,,,,,
0.0,1.0,1.059915,0.0,13.0,13.0,13.0,1.0,bowler_hat_10s.jpg,0.0,Purple.png,3.0,51,,,,,,,,,,,,,,,,,
1.0,1.0,0.92789,0.0,14.0,14.0,14.0,1.0,rocking_chair_05s.jpg,1.0,Red.png,3.0,51,,,,,,,,,,,,,,,,,
1.0,0.0,2.144255,0.0,15.0,15.0,15.0,1.0,rocking_chair_05s.jpg,0.0,Orange.png,3.0,51,,,,,,,,,,,,,,,,,
1.0,1.0,1.71058,0.0,16.0,16.0,16.0,1.0,rocking_chair_05s.jpg,1.0,Yellow.png,3.0,51,,,,,,,,,,,,,,,,,
0.0,1.0,1.194575,0.0,17.0,17.0,17.0,1.0,projector_08s.jpg,0.0,Green.png,3.0,51,,,,,,,,,,,,,,,,,
0.0,1.0,1.161715,0.0,18.0,18.0,18.0,1.0,checkbook_11s.jpg,0.0,Blue.png,4.0,51,,,,,,,,,,,,,,,,,
0.0,1.0,1.84431,0.0,19.0,19.0,19.0,1.0,checkbook_11s.jpg,0.0,Purple.png,4.0,51,,,,,,,,,,,,,,,,,
0.0,1.0,1.078025,0.0,20.0,20.0,20.0,1.0,crab_16s.jpg,0.0,Red.png,4.0,51,,,,,,,,,,,,,,,,,
1.0,1.0,0.881325,0.0,21.0,21.0,21.0,1.0,checkbook_11s.jpg,1.0,Orange.png,4.0,51,,,,,,,,,,,,,,,,,
0.0,1.0,0.9809,0.0,22.0,22.0,22.0,1.0,peanut_butter_08s.jpg,0.0,Yellow.png,4.0,51,,,,,,,,,,,,,,,,,
0.0,1.0,1.16287,0.0,23.0,23.0,23.0,1.0,breadstick_08s.jpg,0.0,Green.png,4.0,51,,,,,,,,,,,,,,,,,
0.0,1.0,1.04567,0.0,24.0,24.0,24.0,1.0,stethoscope_01b.jpg,0.0,Blue.png,5.0,51,,,,,,,,,,,,,,,,,
0.0,1.0,1.22734,0.0,25.0,25.0,25.0,1.0,pineapple_12s.jpg,0.0,Purple.png,5.0,51,,,,,,,,,,,,,,,,,
1.0,1.0,1.0942,0.0,26.0,26.0,26.0,1.0,stethoscope_01b.jpg,1.0,Red.png,5.0,51,,,,,,,,,,,,,,,,,
,0.0,,0.0,27.0,27.0,27.0,1.0,pineapple_12s.jpg,1.0,Orange.png,5.0,51,,,,,,,,,,,,,,,,,
0.0,1.0,1.964545,0.0,28.0,28.0,28.0,1.0,air_pump_05s.jpg,0.0,Yellow.png,5.0,51,,,,,,,,,,,,,,,,,
0.0,1.0,1.210275,0.0,29.0,29.0,29.0,1.0,birdcage_08s.jpg,0.0,Green.png,5.0,51,,,,,,,,,,,,,,,,,
0.0,1.0,0.91054,0.0,30.0,30.0,30.0,1.0,kangaroo_02s.jpg,0.0,Blue.png,6.0,51,,,,,,,,,,,,,,,,,
0.0,1.0,0.998825,0.0,31.0,31.0,31.0,1.0,juicer2_06s.jpg,0.0,Purple.png,6.0,51,,,,,,,,,,,,,,,,,
0.0,1.0,0.894695,0.0,32.0,32.0,32.0,1.0,harpoon.jpg,0.0,Red.png,6.0,51,,,,,,,,,,,,,,,,,
0.0,1.0,0.97792,0.0,33.0,33.0,33.0,1.0,mirror_12s.jpg,0.0,Orange.png,6.0,51,,,,,,,,,,,,,,,,,
0.0,1.0,0.8628,0.0,34.0,34.0,34.0,1.0,gear_07s.jpg,0.0,Yellow.png,6.0,51,,,,,,,,,,,,,,,,,
0.0,1.0,1.009775,0.0,35.0,35.0,35.0,1.0,timer_03s.jpg,0.0,Green.png,6.0,51,,,,,,,,,,,,,,,,,
,,,,,,,,,1.0,,,51,1.0,1.0,1.77226,0.0,0.0,0.0,0.0,1.0,powder_07s.jpg,gingerbread_man_03s.jpg,,,,,,,
,,,,,,,,,1.0,,,51,1.0,1.0,3.98134,0.0,1.0,1.0,1.0,1.0,air_pump_05s.jpg,juicer2_06s.jpg,,,,,,,
,,,,,,,,,0.0,,,51,0.0,1.0,2.315355,0.0,2.0,2.0,2.0,1.0,crab_16s.jpg,projector_08s.jpg,,,,,,,
,,,,,,,,,0.0,,,51,1.0,0.0,4.433415,0.0,3.0,3.0,3.0,1.0,mirror_12s.jpg,kangaroo_02s.jpg,,,,,,,
,,,,,,,,,0.0,,,51,1.0,0.0,1.330995,0.0,4.0,4.0,4.0,1.0,bowler_hat_10s.jpg,rolling_pin_02s.jpg,,,,,,,
,,,,,,,,,1.0,,,51,1.0,1.0,1.398105,0.0,5.0,5.0,5.0,1.0,eggshell_14s.jpg,meatball_13s.jpg,,,,,,,
,,,,,,,,,,,,51,,,,,,,,,,,0.0,0.0,0.0,0.0,1.0,new2backpresent_1_1.xlsx,new2back_compare_task_1_1.xlsx
0.0,1.0,1.61722,0.0,0.0,0.0,0.0,1.0,trident_07s.jpg,0.0,Blue.png,1.0,51,,,,,,,,,,,,,,,,,
0.0,1.0,1.03008,0.0,1.0,1.0,1.0,1.0,rosary_03s.jpg,0.0,Purple.png,1.0,51,,,,,,,,,,,,,,,,,
0.0,1.0,0.74525,0.0,2.0,2.0,2.0,1.0,toilet_paper_12s.jpg,0.0,Red.png,1.0,51,,,,,,,,,,,,,,,,,
0.0,0.0,0.47916,0.0,3.0,3.0,3.0,1.0,rosary_03s.jpg,1.0,Orange.png,1.0,51,,,,,,,,,,,,,,,,,
1.0,1.0,0.73284,0.0,4.0,4.0,4.0,1.0,toilet_paper_12s.jpg,1.0,Yellow.png,1.0,51,,,,,,,,,,,,,,,,,
0.0,1.0,0.879065,0.0,5.0,5.0,5.0,1.0,potpourri_03s.jpg,0.0,Green.png,1.0,51,,,,,,,,,,,,,,,,,
0.0,1.0,1.278915,0.0,6.0,6.0,6.0,1.0,rocket_02s.jpg,0.0,Blue.png,2.0,51,,,,,,,,,,,,,,,,,
0.0,1.0,1.11191,0.0,7.0,7.0,7.0,1.0,piano_13n.jpg,0.0,Purple.png,2.0,51,,,,,,,,,,,,,,,,,
1.0,1.0,1.043445,0.0,8.0,8.0,8.0,1.0,rocket_02s.jpg,1.0,Red.png,2.0,51,,,,,,,,,,,,,,,,,
1.0,0.0,1.6606,0.0,9.0,9.0,9.0,1.0,rocket_02s.jpg,0.0,Orange.png,2.0,51,,,,,,,,,,,,,,,,,
0.0,1.0,1.611065,0.0,10.0,10.0,10.0,1.0,umbrella_15s.jpg,0.0,Yellow.png,2.0,51,,,,,,,,,,,,,,,,,
0.0,1.0,1.36602,0.0,11.0,11.0,11.0,1.0,touchpad_11s.jpg,0.0,Green.png,2.0,51,,,,,,,,,,,,,,,,,
0.0,1.0,1.077525,0.0,12.0,12.0,12.0,1.0,rocket_02s.jpg,0.0,Blue.png,3.0,51,,,,,,,,,,,,,,,,,
0.0,1.0,1.28244,0.0,13.0,13.0,13.0,1.0,rocket_02s.jpg,0.0,Purple.png,3.0,51,,,,,,,,,,,,,,,,,
1.0,1.0,0.9943,0.0,14.0,14.0,14.0,1.0,rocket_02s.jpg,1.0,Red.png,3.0,51,,,,,,,,,,,,,,,,,
0.0,1.0,1.14884,0.0,15.0,15.0,15.0,1.0,roller_coaster_07s.jpg,0.0,Orange.png,3.0,51,,,,,,,,,,,,,,,,,
0.0,1.0,1.727285,0.0,16.0,16.0,16.0,1.0,torch_02s.jpg,0.0,Yellow.png,3.0,51,,,,,,,,,,,,,,,,,
0.0,1.0,1.581235,0.0,17.0,17.0,17.0,1.0,lion_18s.jpg,0.0,Green.png,3.0,51,,,,,,,,,,,,,,,,,
0.0,1.0,1.328815,0.0,18.0,18.0,18.0,1.0,microwave_02s.jpg,0.0,Blue.png,4.0,51,,,,,,,,,,,,,,,,,
0.0,1.0,1.112955,0.0,19.0,19.0,19.0,1.0,denture_03s.jpg,0.0,Purple.png,4.0,51,,,,,,,,,,,,,,,,,
0.0,1.0,1.21055,0.0,20.0,20.0,20.0,1.0,fur_coat_11s.jpg,0.0,Red.png,4.0,51,,,,,,,,,,,,,,,,,
0.0,1.0,1.031265,0.0,21.0,21.0,21.0,1.0,pepper_mill_03s.jpg,0.0,Orange.png,4.0,51,,,,,,,,,,,,,,,,,
0.0,1.0,1.28015,0.0,22.0,22.0,22.0,1.0,antenna_01b.jpg,0.0,Yellow.png,4.0,51,,,,,,,,,,,,,,,,,
1.0,1.0,0.83189,0.0,23.0,23.0,23.0,1.0,pepper_mill_03s.jpg,1.0,Green.png,4.0,51,,,,,,,,,,,,,,,,,
0.0,1.0,1.37774,0.0,24.0,24.0,24.0,1.0,touchpad_11s.jpg,0.0,Blue.png,5.0,51,,,,,,,,,,,,,,,,,
0.0,1.0,1.23266,0.0,25.0,25.0,25.0,1.0,otter_05s.jpg,0.0,Purple.png,5.0,51,,,,,,,,,,,,,,,,,
0.0,1.0,1.27722,0.0,26.0,26.0,26.0,1.0,squirt_gun_03s.jpg,0.0,Red.png,5.0,51,,,,,,,,,,,,,,,,,
1.0,1.0,0.913275,0.0,27.0,27.0,27.0,1.0,otter_05s.jpg,1.0,Orange.png,5.0,51,,,,,,,,,,,,,,,,,
0.0,1.0,0.7467,0.0,28.0,28.0,28.0,1.0,touchpad_11s.jpg,0.0,Yellow.png,5.0,51,,,,,,,,,,,,,,,,,
0.0,1.0,1.701425,0.0,29.0,29.0,29.0,1.0,touchpad_11s.jpg,0.0,Green.png,5.0,51,,,,,,,,,,,,,,,,,
0.0,1.0,1.277675,0.0,30.0,30.0,30.0,1.0,kayak_08s.jpg,0.0,Blue.png,6.0,51,,,,,,,,,,,,,,,,,
0.0,1.0,1.363475,0.0,31.0,31.0,31.0,1.0,mascara_03s.jpg,0.0,Purple.png,6.0,51,,,,,,,,,,,,,,,,,
0.0,1.0,1.12842,0.0,32.0,32.0,32.0,1.0,ink_08s.jpg,0.0,Red.png,6.0,51,,,,,,,,,,,,,,,,,
0.0,1.0,1.16552,0.0,33.0,33.0,33.0,1.0,kayak_08s.jpg,0.0,Orange.png,6.0,51,,,,,,,,,,,,,,,,,
0.0,1.0,1.264475,0.0,34.0,34.0,34.0,1.0,towel_rack_04s.jpg,0.0,Yellow.png,6.0,51,,,,,,,,,,,,,,,,,
0.0,1.0,1.178195,0.0,35.0,35.0,35.0,1.0,jewel_01b.jpg,0.0,Green.png,6.0,51,,,,,,,,,,,,,,,,,
,,,,,,,,,1.0,,,51,1.0,1.0,1.845385,0.0,0.0,0.0,0.0,1.0,torch_02s.jpg,denture_03s.jpg,,,,,,,
,,,,,,,,,0.0,,,51,0.0,1.0,1.48159,0.0,1.0,1.0,1.0,1.0,towel_rack_04s.jpg,mascara_03s.jpg,,,,,,,
,,,,,,,,,1.0,,,51,1.0,1.0,1.230275,0.0,2.0,2.0,2.0,1.0,piano_13n.jpg,umbrella_15s.jpg,,,,,,,
,,,,,,,,,0.0,,,51,1.0,0.0,1.197875,0.0,3.0,3.0,3.0,1.0,fur_coat_11s.jpg,lion_18s.jpg,,,,,,,
,,,,,,,,,1.0,,,51,1.0,1.0,1.2968,0.0,4.0,4.0,4.0,1.0,roller_coaster_07s.jpg,microwave_02s.jpg,,,,,,,
,,,,,,,,,1.0,,,51,1.0,1.0,1.366365,0.0,5.0,5.0,5.0,1.0,ink_08s.jpg,jewel_01b.jpg,,,,,,,
,,,,,,,,,,,,51,,,,,,,,,,,0.0,1.0,1.0,1.0,1.0,new2backpresent_2_1.xlsx,new2back_compare_task_2_1.xlsx
0.0,1.0,1.257355,0.0,0.0,0.0,0.0,1.0,icemaker_10s.jpg,0.0,Blue.png,1.0,51,,,,,,,,,,,,,,,,,
0.0,1.0,1.37665,0.0,1.0,1.0,1.0,1.0,icemaker_10s.jpg,0.0,Purple.png,1.0,51,,,,,,,,,,,,,,,,,
0.0,1.0,1.07847,0.0,2.0,2.0,2.0,1.0,tile_08s.jpg,0.0,Red.png,1.0,51,,,,,,,,,,,,,,,,,
0.0,1.0,1.00888,0.0,3.0,3.0,3.0,1.0,fossil_06s.jpg,0.0,Orange.png,1.0,51,,,,,,,,,,,,,,,,,
0.0,1.0,1.5657,0.0,4.0,4.0,4.0,1.0,fossil_06s.jpg,0.0,Yellow.png,1.0,51,,,,,,,,,,,,,,,,,
0.0,1.0,0.89949,0.0,5.0,5.0,5.0,1.0,ravioli_08s.jpg,0.0,Green.png,1.0,51,,,,,,,,,,,,,,,,,
0.0,1.0,1.229505,0.0,6.0,6.0,6.0,1.0,top_hat_11s.jpg,0.0,Blue.png,2.0,51,,,,,,,,,,,,,,,,,
0.0,1.0,0.96164,0.0,7.0,7.0,7.0,1.0,raccoon_02s.jpg,0.0,Purple.png,2.0,51,,,,,,,,,,,,,,,,,
0.0,1.0,0.96249,0.0,8.0,8.0,8.0,1.0,snowman_02s.jpg,0.0,Red.png,2.0,51,,,,,,,,,,,,,,,,,
0.0,1.0,1.248935,0.0,9.0,9.0,9.0,1.0,peach_04s.jpg,0.0,Orange.png,2.0,51,,,,,,,,,,,,,,,,,
0.0,1.0,0.995625,0.0,10.0,10.0,10.0,1.0,beard_16s.jpg,0.0,Yellow.png,2.0,51,,,,,,,,,,,,,,,,,
0.0,1.0,1.145205,0.0,11.0,11.0,11.0,1.0,rollerskate_03s.jpg,0.0,Green.png,2.0,51,,,,,,,,,,,,,,,,,
0.0,1.0,1.02898,0.0,12.0,12.0,12.0,1.0,mango_09s.jpg,0.0,Blue.png,3.0,51,,,,,,,,,,,,,,,,,
0.0,1.0,1.727265,0.0,13.0,13.0,13.0,1.0,mango_09s.jpg,0.0,Purple.png,3.0,51,,,,,,,,,,,,,,,,,
0.0,1.0,1.628535,0.0,14.0,14.0,14.0,1.0,magnet_03s.jpg,0.0,Red.png,3.0,51,,,,,,,,,,,,,,,,,
1.0,1.0,1.497585,0.0,15.0,15.0,15.0,1.0,mango_09s.jpg,1.0,Orange.png,3.0,51,,,,,,,,,,,,,,,,,
1.0,0.0,2.330735,0.0,16.0,16.0,16.0,1.0,mango_09s.jpg,0.0,Yellow.png,3.0,51,,,,,,,,,,,,,,,,,
1.0,1.0,1.861825,0.0,17.0,17.0,17.0,1.0,mango_09s.jpg,1.0,Green.png,3.0,51,,,,,,,,,,,,,,,,,
0.0,1.0,1.26272,0.0,18.0,18.0,18.0,1.0,punch2_09s.jpg,0.0,Blue.png,4.0,51,,,,,,,,,,,,,,,,,
0.0,1.0,1.21627,0.0,19.0,19.0,19.0,1.0,jelly_bean_06s.jpg,0.0,Purple.png,4.0,51,,,,,,,,,,,,,,,,,
1.0,1.0,2.21469,0.0,20.0,20.0,20.0,1.0,punch2_09s.jpg,1.0,Red.png,4.0,51,,,,,,,,,,,,,,,,,
1.0,1.0,1.512415,0.0,21.0,21.0,21.0,1.0,jelly_bean_06s.jpg,1.0,Orange.png,4.0,51,,,,,,,,,,,,,,,,,
0.0,1.0,1.78325,0.0,22.0,22.0,22.0,1.0,jelly_bean_06s.jpg,0.0,Yellow.png,4.0,51,,,,,,,,,,,,,,,,,
0.0,1.0,1.044095,0.0,23.0,23.0,23.0,1.0,typewriter_11s.jpg,0.0,Green.png,4.0,51,,,,,,,,,,,,,,,,,
0.0,1.0,0.96291,0.0,24.0,24.0,24.0,1.0,icemaker_10s.jpg,0.0,Blue.png,5.0,51,,,,,,,,,,,,,,,,,
1.0,1.0,1.194705,0.0,25.0,25.0,25.0,1.0,typewriter_11s.jpg,1.0,Purple.png,5.0,51,,,,,,,,,,,,,,,,,
0.0,1.0,0.91263,0.0,26.0,26.0,26.0,1.0,key_07s.jpg,0.0,Red.png,5.0,51,,,,,,,,,,,,,,,,,
0.0,1.0,1.06246,0.0,27.0,27.0,27.0,1.0,foam_03s.jpg,0.0,Orange.png,5.0,51,,,,,,,,,,,,,,,,,
0.0,1.0,0.71214,0.0,28.0,28.0,28.0,1.0,candy_cane_06s.jpg,0.0,Yellow.png,5.0,51,,,,,,,,,,,,,,,,,
0.0,1.0,0.89809,0.0,29.0,29.0,29.0,1.0,puffin_19s.jpg,0.0,Green.png,5.0,51,,,,,,,,,,,,,,,,,
0.0,1.0,0.99731,0.0,30.0,30.0,30.0,1.0,outlet_10s.jpg,0.0,Blue.png,6.0,51,,,,,,,,,,,,,,,,,
0.0,1.0,0.71081,0.0,31.0,31.0,31.0,1.0,lasagna_06s.jpg,0.0,Purple.png,6.0,51,,,,,,,,,,,,,,,,,
0.0,1.0,1.52965,0.0,32.0,32.0,32.0,1.0,lasagna_06s.jpg,0.0,Red.png,6.0,51,,,,,,,,,,,,,,,,,
0.0,1.0,0.75998,0.0,33.0,33.0,33.0,1.0,marker_05s.jpg,0.0,Orange.png,6.0,51,,,,,,,,,,,,,,,,,
0.0,1.0,0.74693,0.0,34.0,34.0,34.0,1.0,cushion_08s.jpg,0.0,Yellow.png,6.0,51,,,,,,,,,,,,,,,,,
0.0,1.0,0.847315,0.0,35.0,35.0,35.0,1.0,badge_03s.jpg,0.0,Green.png,6.0,51,,,,,,,,,,,,,,,,,
,,,,,,,,,0.0,,,51,1.0,0.0,2.79136,0.0,0.0,0.0,0.0,1.0,beard_16s.jpg,raccoon_02s.jpg,,,,,,,
,,,,,,,,,0.0,,,51,0.0,1.0,2.01535,0.0,1.0,1.0,1.0,1.0,peach_04s.jpg,top_hat_11s.jpg,,,,,,,
,,,,,,,,,1.0,,,51,1.0,1.0,1.18751,0.0,2.0,2.0,2.0,1.0,rollerskate_03s.jpg,magnet_03s.jpg,,,,,,,
,,,,,,,,,1.0,,,51,1.0,1.0,1.346845,0.0,3.0,3.0,3.0,1.0,foam_03s.jpg,outlet_10s.jpg,,,,,,,
,,,,,,,,,0.0,,,51,1.0,0.0,1.282035,0.0,4.0,4.0,4.0,1.0,snowman_02s.jpg,ravioli_08s.jpg,,,,,,,
,,,,,,,,,0.0,,,51,1.0,0.0,1.012995,0.0,5.0,5.0,5.0,1.0,puffin_19s.jpg,key_07s.jpg,,,,,,,
,,,,,,,,,,,,51,,,,,,,,,,,0.0,2.0,2.0,2.0,1.0,new2backpresent_3_1.xlsx,new2back_compare_task_3_1.xlsx
0.0,1.0,2.139955,0.0,0.0,0.0,0.0,1.0,lollipop_08s.jpg,0.0,Blue.png,1.0,51,,,,,,,,,,,,,,,,,
0.0,1.0,0.64352,0.0,1.0,1.0,1.0,1.0,keyboard_05s.jpg,0.0,Purple.png,1.0,51,,,,,,,,,,,,,,,,,
0.0,1.0,1.53335,0.0,2.0,2.0,2.0,1.0,pomegranate_04s.jpg,0.0,Red.png,1.0,51,,,,,,,,,,,,,,,,,
0.0,1.0,1.04705,0.0,3.0,3.0,3.0,1.0,olive_05s.jpg,0.0,Orange.png,1.0,51,,,,,,,,,,,,,,,,,
0.0,1.0,0.81255,0.0,4.0,4.0,4.0,1.0,hummingbird_05s.jpg,0.0,Yellow.png,1.0,51,,,,,,,,,,,,,,,,,
0.0,1.0,0.52726,0.0,5.0,5.0,5.0,1.0,cucumber_07s.jpg,0.0,Green.png,1.0,51,,,,,,,,,,,,,,,,,
0.0,1.0,0.84788,0.0,6.0,6.0,6.0,1.0,olive_05s.jpg,0.0,Blue.png,2.0,51,,,,,,,,,,,,,,,,,
0.0,1.0,1.127425,0.0,7.0,7.0,7.0,1.0,pinwheel_06s.jpg,0.0,Purple.png,2.0,51,,,,,,,,,,,,,,,,,
0.0,0.0,2.443485,0.0,8.0,8.0,8.0,1.0,olive_05s.jpg,1.0,Red.png,2.0,51,,,,,,,,,,,,,,,,,
0.0,1.0,1.210115,0.0,9.0,9.0,9.0,1.0,orchid_01b.jpg,0.0,Orange.png,2.0,51,,,,,,,,,,,,,,,,,
,0.0,,0.0,10.0,10.0,10.0,1.0,olive_05s.jpg,1.0,Yellow.png,2.0,51,,,,,,,,,,,,,,,,,
0.0,1.0,0.79529,0.0,11.0,11.0,11.0,1.0,lectern_08s.jpg,0.0,Green.png,2.0,51,,,,,,,,,,,,,,,,,
0.0,1.0,1.04634,0.0,12.0,12.0,12.0,1.0,margarita_03s.jpg,0.0,Blue.png,3.0,51,,,,,,,,,,,,,,,,,
0.0,1.0,1.07647,0.0,13.0,13.0,13.0,1.0,margarita_03s.jpg,0.0,Purple.png,3.0,51,,,,,,,,,,,,,,,,,
0.0,1.0,0.93241,0.0,14.0,14.0,14.0,1.0,swan_11s.jpg,0.0,Red.png,3.0,51,,,,,,,,,,,,,,,,,
0.0,1.0,0.77721,0.0,15.0,15.0,15.0,1.0,tripod_01b.jpg,0.0,Orange.png,3.0,51,,,,,,,,,,,,,,,,,
0.0,1.0,0.944985,0.0,16.0,16.0,16.0,1.0,mop_08s.jpg,0.0,Yellow.png,3.0,51,,,,,,,,,,,,,,,,,
0.0,1.0,1.04982,0.0,17.0,17.0,17.0,1.0,plaster_cast_13s.jpg,0.0,Green.png,3.0,51,,,,,,,,,,,,,,,,,
0.0,1.0,0.894425,0.0,18.0,18.0,18.0,1.0,gas_mask_11s.jpg,0.0,Blue.png,4.0,51,,,,,,,,,,,,,,,,,
0.0,1.0,1.012035,0.0,19.0,19.0,19.0,1.0,tinsel_12s.jpg,0.0,Purple.png,4.0,51,,,,,,,,,,,,,,,,,
0.0,1.0,1.094405,0.0,20.0,20.0,20.0,1.0,smokingpipe.jpg,0.0,Red.png,4.0,51,,,,,,,,,,,,,,,,,
0.0,1.0,0.97891,0.0,21.0,21.0,21.0,1.0,iron_13s.jpg,0.0,Orange.png,4.0,51,,,,,,,,,,,,,,,,,
0.0,1.0,1.178945,0.0,22.0,22.0,22.0,1.0,iron_13s.jpg,0.0,Yellow.png,4.0,51,,,,,,,,,,,,,,,,,
1.0,1.0,1.31299,0.0,23.0,23.0,23.0,1.0,iron_13s.jpg,1.0,Green.png,4.0,51,,,,,,,,,,,,,,,,,
0.0,1.0,1.500435,0.0,24.0,24.0,24.0,1.0,rhubarb_03s.jpg,0.0,Blue.png,5.0,51,,,,,,,,,,,,,,,,,
0.0,1.0,1.34449,0.0,25.0,25.0,25.0,1.0,tambourine_06s.jpg,0.0,Purple.png,5.0,51,,,,,,,,,,,,,,,,,
0.0,1.0,1.51253,0.0,26.0,26.0,26.0,1.0,tambourine_06s.jpg,0.0,Red.png,5.0,51,,,,,,,,,,,,,,,,,
0.0,1.0,1.127045,0.0,27.0,27.0,27.0,1.0,mousetrap_15n.jpg,0.0,Orange.png,5.0,51,,,,,,,,,,,,,,,,,
0.0,1.0,1.21195,0.0,28.0,28.0,28.0,1.0,ticktacktoe_08s.jpg,0.0,Yellow.png,5.0,51,,,,,,,,,,,,,,,,,
0.0,1.0,1.01097,0.0,29.0,29.0,29.0,1.0,sunflower_17s.jpg,0.0,Green.png,5.0,51,,,,,,,,,,,,,,,,,
0.0,1.0,1.56226,0.0,30.0,30.0,30.0,1.0,onion_10s.jpg,0.0,Blue.png,6.0,51,,,,,,,,,,,,,,,,,
0.0,1.0,1.146505,0.0,31.0,31.0,31.0,1.0,ant_12s.jpg,0.0,Purple.png,6.0,51,,,,,,,,,,,,,,,,,
0.0,1.0,1.679985,0.0,32.0,32.0,32.0,1.0,insole_11s.jpg,0.0,Red.png,6.0,51,,,,,,,,,,,,,,,,,
0.0,1.0,1.07621,0.0,33.0,33.0,33.0,1.0,keyboard_05s.jpg,0.0,Orange.png,6.0,51,,,,,,,,,,,,,,,,,
0.0,1.0,1.330255,0.0,34.0,34.0,34.0,1.0,aluminum_foil_08s.jpg,0.0,Yellow.png,6.0,51,,,,,,,,,,,,,,,,,
0.0,1.0,0.89376,0.0,35.0,35.0,35.0,1.0,money_07s.jpg,0.0,Green.png,6.0,51,,,,,,,,,,,,,,,,,
,,,,,,,,,0.0,,,51,1.0,0.0,1.743355,0.0,0.0,0.0,0.0,1.0,pinwheel_06s.jpg,hummingbird_05s.jpg,,,,,,,
,,,,,,,,,1.0,,,51,1.0,1.0,1.248,0.0,1.0,1.0,1.0,1.0,mop_08s.jpg,tinsel_12s.jpg,,,,,,,
,,,,,,,,,1.0,,,51,1.0,1.0,1.29675,0.0,2.0,2.0,2.0,1.0,pomegranate_04s.jpg,cucumber_07s.jpg,,,,,,,
,,,,,,,,,0.0,,,51,1.0,0.0,1.915245,0.0,3.0,3.0,3.0,1.0,aluminum_foil_08s.jpg,ant_12s.jpg,,,,,,,
,,,,,,,,,0.0,,,51,0.0,1.0,2.2864,0.0,4.0,4.0,4.0,1.0,gas_mask_11s.jpg,tripod_01b.jpg,,,,,,,
,,,,,,,,,0.0,,,51,1.0,0.0,1.631225,0.0,5.0,5.0,5.0,1.0,mousetrap_15n.jpg,rhubarb_03s.jpg,,,,,,,
,,,,,,,,,,,,51,,,,,,,,,,,0.0,3.0,3.0,3.0,1.0,new2backpresent_4_1.xlsx,new2back_compare_task_4_1.xlsx
0.0,1.0,1.224385,0.0,0.0,0.0,0.0,1.0,jalapeno_15s.jpg,0.0,Blue.png,1.0,51,,,,,,,,,,,,,,,,,
0.0,1.0,1.464325,0.0,1.0,1.0,1.0,1.0,pincushion_10s.jpg,0.0,Purple.png,1.0,51,,,,,,,,,,,,,,,,,
0.0,1.0,1.17642,0.0,2.0,2.0,2.0,1.0,fondue_07s.jpg,0.0,Red.png,1.0,51,,,,,,,,,,,,,,,,,
0.0,1.0,1.16473,0.0,3.0,3.0,3.0,1.0,safety_pin_02s.jpg,0.0,Orange.png,1.0,51,,,,,,,,,,,,,,,,,
0.0,1.0,1.23175,0.0,4.0,4.0,4.0,1.0,turf_03s.jpg,0.0,Yellow.png,1.0,51,,,,,,,,,,,,,,,,,
0.0,1.0,1.129015,0.0,5.0,5.0,5.0,1.0,jalapeno_15s.jpg,0.0,Green.png,1.0,51,,,,,,,,,,,,,,,,,
0.0,1.0,1.399215,0.0,6.0,6.0,6.0,1.0,jalapeno_15s.jpg,0.0,Blue.png,2.0,51,,,,,,,,,,,,,,,,,
1.0,1.0,1.064515,0.0,7.0,7.0,7.0,1.0,jalapeno_15s.jpg,1.0,Purple.png,2.0,51,,,,,,,,,,,,,,,,,
0.0,1.0,0.966485,0.0,8.0,8.0,8.0,1.0,spoon02a.jpg,0.0,Red.png,2.0,51,,,,,,,,,,,,,,,,,
0.0,1.0,1.050885,0.0,9.0,9.0,9.0,1.0,puppet_01b.jpg,0.0,Orange.png,2.0,51,,,,,,,,,,,,,,,,,
0.0,1.0,1.1944,0.0,10.0,10.0,10.0,1.0,jalapeno_15s.jpg,0.0,Yellow.png,2.0,51,,,,,,,,,,,,,,,,,
0.0,1.0,1.14706,0.0,11.0,11.0,11.0,1.0,jalapeno_15s.jpg,0.0,Green.png,2.0,51,,,,,,,,,,,,,,,,,
0.0,1.0,0.843805,0.0,12.0,12.0,12.0,1.0,popcorn_09s.jpg,0.0,Blue.png,3.0,51,,,,,,,,,,,,,,,,,
0.0,1.0,0.91411,0.0,13.0,13.0,13.0,1.0,popcorn_09s.jpg,0.0,Purple.png,3.0,51,,,,,,,,,,,,,,,,,
0.0,1.0,0.86019,0.0,14.0,14.0,14.0,1.0,swordfish_05s.jpg,0.0,Red.png,3.0,51,,,,,,,,,,,,,,,,,
1.0,1.0,1.229375,0.0,15.0,15.0,15.0,1.0,popcorn_09s.jpg,1.0,Orange.png,3.0,51,,,,,,,,,,,,,,,,,
0.0,1.0,0.844785,0.0,16.0,16.0,16.0,1.0,police_car_01s.jpg,0.0,Yellow.png,3.0,51,,,,,,,,,,,,,,,,,
0.0,1.0,0.716185,0.0,17.0,17.0,17.0,1.0,ginger_09s.jpg,0.0,Green.png,3.0,51,,,,,,,,,,,,,,,,,
0.0,1.0,0.745125,0.0,18.0,18.0,18.0,1.0,cap_05s.jpg,0.0,Blue.png,4.0,51,,,,,,,,,,,,,,,,,
0.0,1.0,1.29828,0.0,19.0,19.0,19.0,1.0,ice-cream_cone_06s.jpg,0.0,Purple.png,4.0,51,,,,,,,,,,,,,,,,,
0.0,1.0,0.96582,0.0,20.0,20.0,20.0,1.0,purse_05s.jpg,0.0,Red.png,4.0,51,,,,,,,,,,,,,,,,,
0.0,1.0,0.751015,0.0,21.0,21.0,21.0,1.0,squirrel_02s.jpg,0.0,Orange.png,4.0,51,,,,,,,,,,,,,,,,,
0.0,1.0,1.277305,0.0,22.0,22.0,22.0,1.0,cap_05s.jpg,0.0,Yellow.png,4.0,51,,,,,,,,,,,,,,,,,
0.0,1.0,0.934265,0.0,23.0,23.0,23.0,1.0,pie_08s.jpg,0.0,Green.png,4.0,51,,,,,,,,,,,,,,,,,
0.0,1.0,0.762085,0.0,24.0,24.0,24.0,1.0,thread_08s.jpg,0.0,Blue.png,5.0,51,,,,,,,,,,,,,,,,,
0.0,1.0,1.31455,0.0,25.0,25.0,25.0,1.0,punch1_10s.jpg,0.0,Purple.png,5.0,51,,,,,,,,,,,,,,,,,
0.0,1.0,1.363635,0.0,26.0,26.0,26.0,1.0,cereal_04s.jpg,0.0,Red.png,5.0,51,,,,,,,,,,,,,,,,,
0.0,1.0,0.96424,0.0,27.0,27.0,27.0,1.0,espresso_01b.jpg,0.0,Orange.png,5.0,51,,,,,,,,,,,,,,,,,
1.0,1.0,1.310535,0.0,28.0,28.0,28.0,1.0,cereal_04s.jpg,1.0,Yellow.png,5.0,51,,,,,,,,,,,,,,,,,
0.0,1.0,2.06618,0.0,29.0,29.0,29.0,1.0,cereal_04s.jpg,0.0,Green.png,5.0,51,,,,,,,,,,,,,,,,,
0.0,1.0,1.92724,0.0,30.0,30.0,30.0,1.0,tube_top_03s.jpg,0.0,Blue.png,6.0,51,,,,,,,,,,,,,,,,,
0.0,1.0,1.214065,0.0,31.0,31.0,31.0,1.0,pepper2_21s.jpg,0.0,Purple.png,6.0,51,,,,,,,,,,,,,,,,,
0.0,1.0,1.12985,0.0,32.0,32.0,32.0,1.0,jersey_02s.jpg,0.0,Red.png,6.0,51,,,,,,,,,,,,,,,,,
0.0,1.0,0.84802,0.0,33.0,33.0,33.0,1.0,mussel_11s.jpg,0.0,Orange.png,6.0,51,,,,,,,,,,,,,,,,,
0.0,1.0,1.143205,0.0,34.0,34.0,34.0,1.0,toaster_03s.jpg,0.0,Yellow.png,6.0,51,,,,,,,,,,,,,,,,,
0.0,1.0,1.23469,0.0,35.0,35.0,35.0,1.0,tie_03s.jpg,0.0,Green.png,6.0,51,,,,,,,,,,,,,,,,,
,,,,,,,,,0.0,,,51,1.0,0.0,1.907435,0.0,0.0,0.0,0.0,1.0,ice-cream_cone_06s.jpg,police_car_01s.jpg,,,,,,,
,,,,,,,,,0.0,,,51,1.0,0.0,1.83347,0.0,1.0,1.0,1.0,1.0,turf_03s.jpg,pincushion_10s.jpg,,,,,,,
,,,,,,,,,0.0,,,51,1.0,0.0,1.664075,0.0,2.0,2.0,2.0,1.0,purse_05s.jpg,ginger_09s.jpg,,,,,,,
,,,,,,,,,1.0,,,51,1.0,1.0,1.300595,0.0,3.0,3.0,3.0,1.0,jersey_02s.jpg,tie_03s.jpg,,,,,,,
,,,,,,,,,0.0,,,51,0.0,1.0,1.38778,0.0,4.0,4.0,4.0,1.0,toaster_03s.jpg,pepper2_21s.jpg,,,,,,,
,,,,,,,,,0.0,,,51,0.0,1.0,2.015295,0.0,5.0,5.0,5.0,1.0,thread_08s.jpg,squirrel_02s.jpg,,,,,,,
,,,,,,,,,,,,51,,,,,,,,,,,0.0,4.0,4.0,4.0,1.0,new2backpresent_5_1.xlsx,new2back_compare_task_5_1.xlsx
0.0,1.0,1.254795,0.0,0.0,0.0,0.0,1.0,omelet_07s.jpg,0.0,Blue.png,1.0,51,,,,,,,,,,,,,,,,,
0.0,1.0,0.87776,0.0,1.0,1.0,1.0,1.0,popsicle_02s.jpg,0.0,Purple.png,1.0,51,,,,,,,,,,,,,,,,,
0.0,1.0,1.447605,0.0,2.0,2.0,2.0,1.0,letter_opener_03s.jpg,0.0,Red.png,1.0,51,,,,,,,,,,,,,,,,,
0.0,1.0,0.862175,0.0,3.0,3.0,3.0,1.0,diving_board_07s.jpg,0.0,Orange.png,1.0,51,,,,,,,,,,,,,,,,,
0.0,1.0,1.06011,0.0,4.0,4.0,4.0,1.0,omelet_07s.jpg,0.0,Yellow.png,1.0,51,,,,,,,,,,,,,,,,,
0.0,1.0,1.112505,0.0,5.0,5.0,5.0,1.0,letter_opener_03s.jpg,0.0,Green.png,1.0,51,,,,,,,,,,,,,,,,,
1.0,1.0,1.331925,0.0,6.0,6.0,6.0,1.0,omelet_07s.jpg,1.0,Blue.png,2.0,51,,,,,,,,,,,,,,,,,
0.0,1.0,1.076515,0.0,7.0,7.0,7.0,1.0,cape_11s.jpg,0.0,Purple.png,2.0,51,,,,,,,,,,,,,,,,,
1.0,1.0,1.949875,0.0,8.0,8.0,8.0,1.0,omelet_07s.jpg,1.0,Red.png,2.0,51,,,,,,,,,,,,,,,,,
0.0,1.0,1.960985,0.0,9.0,9.0,9.0,1.0,lantern_04s.jpg,0.0,Orange.png,2.0,51,,,,,,,,,,,,,,,,,
0.0,1.0,1.3804,0.0,10.0,10.0,10.0,1.0,leotard_08s.jpg,0.0,Yellow.png,2.0,51,,,,,,,,,,,,,,,,,
0.0,1.0,0.827405,0.0,11.0,11.0,11.0,1.0,pacifier_09s.jpg,0.0,Green.png,2.0,51,,,,,,,,,,,,,,,,,
0.0,1.0,1.00935,0.0,12.0,12.0,12.0,1.0,rocking_horse_03s.jpg,0.0,Blue.png,3.0,51,,,,,,,,,,,,,,,,,
0.0,1.0,0.86153,0.0,13.0,13.0,13.0,1.0,cardinal_07s.jpg,0.0,Purple.png,3.0,51,,,,,,,,,,,,,,,,,
0.0,1.0,0.96048,0.0,14.0,14.0,14.0,1.0,hyena_16s.jpg,0.0,Red.png,3.0,51,,,,,,,,,,,,,,,,,
0.0,1.0,0.646245,0.0,15.0,15.0,15.0,1.0,oil_02s.jpg,0.0,Orange.png,3.0,51,,,,,,,,,,,,,,,,,
0.0,1.0,1.02885,0.0,16.0,16.0,16.0,1.0,marshmallow_08s.jpg,0.0,Yellow.png,3.0,51,,,,,,,,,,,,,,,,,
1.0,1.0,1.227135,0.0,17.0,17.0,17.0,1.0,oil_02s.jpg,1.0,Green.png,3.0,51,,,,,,,,,,,,,,,,,
0.0,1.0,1.393985,0.0,18.0,18.0,18.0,1.0,omelet_07s.jpg,0.0,Blue.png,4.0,51,,,,,,,,,,,,,,,,,
1.0,1.0,1.39351,0.0,19.0,19.0,19.0,1.0,oil_02s.jpg,1.0,Purple.png,4.0,51,,,,,,,,,,,,,,,,,
0.0,1.0,1.54453,0.0,20.0,20.0,20.0,1.0,knitting_needle_04s.jpg,0.0,Red.png,4.0,51,,,,,,,,,,,,,,,,,
1.0,1.0,1.281025,0.0,21.0,21.0,21.0,1.0,oil_02s.jpg,1.0,Orange.png,4.0,51,,,,,,,,,,,,,,,,,
0.0,1.0,2.19419,0.0,22.0,22.0,22.0,1.0,ice_pack_09s.jpg,0.0,Yellow.png,4.0,51,,,,,,,,,,,,,,,,,
0.0,1.0,1.02951,0.0,23.0,23.0,23.0,1.0,peppermint_07s.jpg,0.0,Green.png,4.0,51,,,,,,,,,,,,,,,,,
0.0,1.0,0.828885,0.0,24.0,24.0,24.0,1.0,submarine_11n.jpg,0.0,Blue.png,5.0,51,,,,,,,,,,,,,,,,,
0.0,1.0,0.93992,0.0,25.0,25.0,25.0,1.0,seagull_01b.jpg,0.0,Purple.png,5.0,51,,,,,,,,,,,,,,,,,
0.0,1.0,1.29641,0.0,26.0,26.0,26.0,1.0,omelet_07s.jpg,0.0,Red.png,5.0,51,,,,,,,,,,,,,,,,,
0.0,1.0,1.24372,0.0,27.0,27.0,27.0,1.0,bonsai_07s.jpg,0.0,Orange.png,5.0,51,,,,,,,,,,,,,,,,,
0.0,1.0,1.062285,0.0,28.0,28.0,28.0,1.0,bonsai_07s.jpg,0.0,Yellow.png,5.0,51,,,,,,,,,,,,,,,,,
0.0,1.0,1.1938,0.0,29.0,29.0,29.0,1.0,omelet_07s.jpg,0.0,Green.png,5.0,51,,,,,,,,,,,,,,,,,
1.0,1.0,1.245275,0.0,30.0,30.0,30.0,1.0,bonsai_07s.jpg,1.0,Blue.png,6.0,51,,,,,,,,,,,,,,,,,
0.0,1.0,1.242965,0.0,31.0,31.0,31.0,1.0,quilt_03s.jpg,0.0,Purple.png,6.0,51,,,,,,,,,,,,,,,,,
0.0,1.0,1.144,0.0,32.0,32.0,32.0,1.0,incense_02s.jpg,0.0,Red.png,6.0,51,,,,,,,,,,,,,,,,,
1.0,1.0,1.32935,0.0,33.0,33.0,33.0,1.0,quilt_03s.jpg,1.0,Orange.png,6.0,51,,,,,,,,,,,,,,,,,
1.0,1.0,1.49381,0.0,34.0,34.0,34.0,1.0,incense_02s.jpg,1.0,Yellow.png,6.0,51,,,,,,,,,,,,,,,,,
0.0,1.0,1.94525,0.0,35.0,35.0,35.0,1.0,incense_02s.jpg,0.0,Green.png,6.0,51,,,,,,,,,,,,,,,,,
,,,,,,,,,1.0,,,51,1.0,1.0,2.594995,0.0,0.0,0.0,0.0,1.0,pacifier_09s.jpg,hyena_16s.jpg,,,,,,,
,,,,,,,,,0.0,,,51,1.0,0.0,1.53196,0.0,1.0,1.0,1.0,1.0,peppermint_07s.jpg,knitting_needle_04s.jpg,,,,,,,
,,,,,,,,,1.0,,,51,1.0,1.0,0.89652,0.0,2.0,2.0,2.0,1.0,ice_pack_09s.jpg,seagull_01b.jpg,,,,,,,
,,,,,,,,,0.0,,,51,1.0,0.0,0.948355,0.0,3.0,3.0,3.0,1.0,marshmallow_08s.jpg,cardinal_07s.jpg,,,,,,,
,,,,,,,,,1.0,,,51,0.0,0.0,1.55092,0.0,4.0,4.0,4.0,1.0,cape_11s.jpg,leotard_08s.jpg,,,,,,,
,,,,,,,,,1.0,,,51,0.0,0.0,1.09982,0.0,5.0,5.0,5.0,1.0,lantern_04s.jpg,rocking_horse_03s.jpg,,,,,,,
,,,,,,,,,,,,51,,,,,,,,,,,0.0,5.0,5.0,5.0,1.0,new2backpresent_6_1.xlsx,new2back_compare_task_6_1.xlsx
0.0,1.0,0.900775,0.0,0.0,0.0,0.0,1.0,petri_dish_12s.jpg,0.0,Blue.png,1.0,51,,,,,,,,,,,,,,,,,
0.0,1.0,1.577425,0.0,1.0,1.0,1.0,1.0,toothpaste_12s.jpg,0.0,Purple.png,1.0,51,,,,,,,,,,,,,,,,,
0.0,1.0,1.242205,0.0,2.0,2.0,2.0,1.0,medal_04s.jpg,0.0,Red.png,1.0,51,,,,,,,,,,,,,,,,,
0.0,1.0,0.896325,0.0,3.0,3.0,3.0,1.0,potholder_02s.jpg,0.0,Orange.png,1.0,51,,,,,,,,,,,,,,,,,
0.0,1.0,1.061075,0.0,4.0,4.0,4.0,1.0,puck_06s.jpg,0.0,Yellow.png,1.0,51,,,,,,,,,,,,,,,,,
0.0,1.0,0.844055,0.0,5.0,5.0,5.0,1.0,bagel_15s.jpg,0.0,Green.png,1.0,51,,,,,,,,,,,,,,,,,
0.0,1.0,0.877545,0.0,6.0,6.0,6.0,1.0,golf_club_03s.jpg,0.0,Blue.png,2.0,51,,,,,,,,,,,,,,,,,
0.0,1.0,1.34377,0.0,7.0,7.0,7.0,1.0,golf_club_03s.jpg,0.0,Purple.png,2.0,51,,,,,,,,,,,,,,,,,
1.0,1.0,0.79318,0.0,8.0,8.0,8.0,1.0,golf_club_03s.jpg,1.0,Red.png,2.0,51,,,,,,,,,,,,,,,,,
0.0,1.0,0.97761,0.0,9.0,9.0,9.0,1.0,inhaler_01b.jpg,0.0,Orange.png,2.0,51,,,,,,,,,,,,,,,,,
1.0,1.0,1.077525,0.0,10.0,10.0,10.0,1.0,golf_club_03s.jpg,1.0,Yellow.png,2.0,51,,,,,,,,,,,,,,,,,
0.0,1.0,0.76074,0.0,11.0,11.0,11.0,1.0,tiger_06s.jpg,0.0,Green.png,2.0,51,,,,,,,,,,,,,,,,,
0.0,1.0,1.111125,0.0,12.0,12.0,12.0,1.0,medal_04s.jpg,0.0,Blue.png,3.0,51,,,,,,,,,,,,,,,,,
0.0,1.0,1.26136,0.0,13.0,13.0,13.0,1.0,medal_04s.jpg,0.0,Purple.png,3.0,51,,,,,,,,,,,,,,,,,
1.0,1.0,0.942995,0.0,14.0,14.0,14.0,1.0,medal_04s.jpg,1.0,Red.png,3.0,51,,,,,,,,,,,,,,,,,
0.0,1.0,1.02713,0.0,15.0,15.0,15.0,1.0,licorice_06s.jpg,0.0,Orange.png,3.0,51,,,,,,,,,,,,,,,,,
1.0,1.0,0.966445,0.0,16.0,16.0,16.0,1.0,medal_04s.jpg,1.0,Yellow.png,3.0,51,,,,,,,,,,,,,,,,,
0.0,1.0,1.310255,0.0,17.0,17.0,17.0,1.0,frog_09s.jpg,0.0,Green.png,3.0,51,,,,,,,,,,,,,,,,,
0.0,1.0,1.07641,0.0,18.0,18.0,18.0,1.0,laser_pointer_02s.jpg,0.0,Blue.png,4.0,51,,,,,,,,,,,,,,,,,
0.0,1.0,0.795485,0.0,19.0,19.0,19.0,1.0,treasure_08s.jpg,0.0,Purple.png,4.0,51,,,,,,,,,,,,,,,,,
0.0,1.0,0.85984,0.0,20.0,20.0,20.0,1.0,padlock_07s.jpg,0.0,Red.png,4.0,51,,,,,,,,,,,,,,,,,
0.0,1.0,1.07664,0.0,21.0,21.0,21.0,1.0,panda_02s.jpg,0.0,Orange.png,4.0,51,,,,,,,,,,,,,,,,,
0.0,1.0,1.126965,0.0,22.0,22.0,22.0,1.0,plunger_08s.jpg,0.0,Yellow.png,4.0,51,,,,,,,,,,,,,,,,,
0.0,1.0,0.825675,0.0,23.0,23.0,23.0,1.0,pancake_12s.jpg,0.0,Green.png,4.0,51,,,,,,,,,,,,,,,,,
0.0,1.0,0.781335,0.0,24.0,24.0,24.0,1.0,fire_pit_10s.jpg,0.0,Blue.png,5.0,51,,,,,,,,,,,,,,,,,
0.0,1.0,0.80942,0.0,25.0,25.0,25.0,1.0,bubble_01b.jpg,0.0,Purple.png,5.0,51,,,,,,,,,,,,,,,,,
0.0,1.0,1.178425,0.0,26.0,26.0,26.0,1.0,bubble_01b.jpg,0.0,Red.png,5.0,51,,,,,,,,,,,,,,,,,
1.0,1.0,0.86622,0.0,27.0,27.0,27.0,1.0,bubble_01b.jpg,1.0,Orange.png,5.0,51,,,,,,,,,,,,,,,,,
1.0,1.0,1.145705,0.0,28.0,28.0,28.0,1.0,bubble_01b.jpg,1.0,Yellow.png,5.0,51,,,,,,,,,,,,,,,,,
0.0,1.0,0.742905,0.0,29.0,29.0,29.0,1.0,power_line_08s.jpg,0.0,Green.png,5.0,51,,,,,,,,,,,,,,,,,
0.0,1.0,1.210735,0.0,30.0,30.0,30.0,1.0,golf_club_03s.jpg,0.0,Blue.png,6.0,51,,,,,,,,,,,,,,,,,
0.0,1.0,1.214455,0.0,31.0,31.0,31.0,1.0,kilt_18s.jpg,0.0,Purple.png,6.0,51,,,,,,,,,,,,,,,,,
0.0,1.0,0.84396,0.0,32.0,32.0,32.0,1.0,tupperware_09s.jpg,0.0,Red.png,6.0,51,,,,,,,,,,,,,,,,,
0.0,1.0,1.11414,0.0,33.0,33.0,33.0,1.0,go-kart_10s.jpg,0.0,Orange.png,6.0,51,,,,,,,,,,,,,,,,,
0.0,1.0,1.11053,0.0,34.0,34.0,34.0,1.0,bottle_opener_11s.jpg,0.0,Yellow.png,6.0,51,,,,,,,,,,,,,,,,,
1.0,1.0,1.17711,0.0,35.0,35.0,35.0,1.0,go-kart_10s.jpg,1.0,Green.png,6.0,51,,,,,,,,,,,,,,,,,
,,,,,,,,,1.0,,,51,1.0,1.0,1.57727,0.0,0.0,0.0,0.0,1.0,toothpaste_12s.jpg,puck_06s.jpg,,,,,,,
,,,,,,,,,0.0,,,51,1.0,0.0,1.234005,0.0,1.0,1.0,1.0,1.0,padlock_07s.jpg,frog_09s.jpg,,,,,,,
,,,,,,,,,0.0,,,51,1.0,0.0,1.069925,0.0,2.0,2.0,2.0,1.0,plunger_08s.jpg,treasure_08s.jpg,,,,,,,
,,,,,,,,,1.0,,,51,1.0,1.0,1.93082,0.0,3.0,3.0,3.0,1.0,licorice_06s.jpg,laser_pointer_02s.jpg,,,,,,,
,,,,,,,,,1.0,,,51,1.0,1.0,1.535305,0.0,4.0,4.0,4.0,1.0,petri_dish_12s.jpg,potholder_02s.jpg,,,,,,,
,,,,,,,,,0.0,,,51,1.0,0.0,1.36666,0.0,5.0,5.0,5.0,1.0,tupperware_09s.jpg,power_line_08s.jpg,,,,,,,
,,,,,,,,,,,,51,,,,,,,,,,,0.0,6.0,6.0,6.0,1.0,new2backpresent_7_1.xlsx,new2back_compare_task_7_1.xlsx
0.0,1.0,0.93722,0.0,0.0,0.0,0.0,1.0,toad_09s.jpg,0.0,Blue.png,1.0,51,,,,,,,,,,,,,,,,,
0.0,1.0,1.62995,0.0,1.0,1.0,1.0,1.0,toad_09s.jpg,0.0,Purple.png,1.0,51,,,,,,,,,,,,,,,,,
1.0,1.0,0.843525,0.0,2.0,2.0,2.0,1.0,toad_09s.jpg,1.0,Red.png,1.0,51,,,,,,,,,,,,,,,,,
0.0,1.0,0.68156,0.0,3.0,3.0,3.0,1.0,lamb_04s.jpg,0.0,Orange.png,1.0,51,,,,,,,,,,,,,,,,,
1.0,1.0,1.04546,0.0,4.0,4.0,4.0,1.0,toad_09s.jpg,1.0,Yellow.png,1.0,51,,,,,,,,,,,,,,,,,
0.0,1.0,0.97729,0.0,5.0,5.0,5.0,1.0,possum_09s.jpg,0.0,Green.png,1.0,51,,,,,,,,,,,,,,,,,
0.0,1.0,0.82798,0.0,6.0,6.0,6.0,1.0,reindeer_08s.jpg,0.0,Blue.png,2.0,51,,,,,,,,,,,,,,,,,
0.0,1.0,1.076815,0.0,7.0,7.0,7.0,1.0,reindeer_08s.jpg,0.0,Purple.png,2.0,51,,,,,,,,,,,,,,,,,
0.0,1.0,1.044435,0.0,8.0,8.0,8.0,1.0,knot_01b.jpg,0.0,Red.png,2.0,51,,,,,,,,,,,,,,,,,
1.0,1.0,0.961015,0.0,9.0,9.0,9.0,1.0,reindeer_08s.jpg,1.0,Orange.png,2.0,51,,,,,,,,,,,,,,,,,
0.0,1.0,0.91037,0.0,10.0,10.0,10.0,1.0,pan_02s.jpg,0.0,Yellow.png,2.0,51,,,,,,,,,,,,,,,,,
0.0,1.0,1.26189,0.0,11.0,11.0,11.0,1.0,ladle_04s.jpg,0.0,Green.png,2.0,51,,,,,,,,,,,,,,,,,
0.0,1.0,1.07701,0.0,12.0,12.0,12.0,1.0,tuxedo_01b.jpg,0.0,Blue.png,3.0,51,,,,,,,,,,,,,,,,,
0.0,1.0,1.128705,0.0,13.0,13.0,13.0,1.0,lemonade_04s.jpg,0.0,Purple.png,3.0,51,,,,,,,,,,,,,,,,,
0.0,1.0,1.028345,0.0,14.0,14.0,14.0,1.0,cobra_05s.jpg,0.0,Red.png,3.0,51,,,,,,,,,,,,,,,,,
0.0,1.0,1.13104,0.0,15.0,15.0,15.0,1.0,pocketknife_12s.jpg,0.0,Orange.png,3.0,51,,,,,,,,,,,,,,,,,
0.0,1.0,1.577615,0.0,16.0,16.0,16.0,1.0,kettle_08s.jpg,0.0,Yellow.png,3.0,51,,,,,,,,,,,,,,,,,
0.0,1.0,1.16339,0.0,17.0,17.0,17.0,1.0,spider_web_03s.jpg,0.0,Green.png,3.0,51,,,,,,,,,,,,,,,,,
0.0,1.0,1.098375,0.0,18.0,18.0,18.0,1.0,pretzel_09s.jpg,0.0,Blue.png,4.0,51,,,,,,,,,,,,,,,,,
0.0,1.0,0.91149,0.0,19.0,19.0,19.0,1.0,rock_08s.jpg,0.0,Purple.png,4.0,51,,,,,,,,,,,,,,,,,
0.0,1.0,1.077145,0.0,20.0,20.0,20.0,1.0,boar_10s.jpg,0.0,Red.png,4.0,51,,,,,,,,,,,,,,,,,
0.0,1.0,1.194075,0.0,21.0,21.0,21.0,1.0,sunglasses_11s.jpg,0.0,Orange.png,4.0,51,,,,,,,,,,,,,,,,,
1.0,1.0,1.14897,0.0,22.0,22.0,22.0,1.0,boar_10s.jpg,1.0,Yellow.png,4.0,51,,,,,,,,,,,,,,,,,
0.0,1.0,1.360155,0.0,23.0,23.0,23.0,1.0,smoothie_09s.jpg,0.0,Green.png,4.0,51,,,,,,,,,,,,,,,,,
0.0,1.0,1.180945,0.0,24.0,24.0,24.0,1.0,latch_15s.jpg,0.0,Blue.png,5.0,51,,,,,,,,,,,,,,,,,
0.0,1.0,1.16091,0.0,25.0,25.0,25.0,1.0,amber_04s.jpg,0.0,Purple.png,5.0,51,,,,,,,,,,,,,,,,,
0.0,1.0,1.34812,0.0,26.0,26.0,26.0,1.0,amber_04s.jpg,0.0,Red.png,5.0,51,,,,,,,,,,,,,,,,,
0.0,1.0,1.693325,0.0,27.0,27.0,27.0,1.0,tennis_ball_06s.jpg,0.0,Orange.png,5.0,51,,,,,,,,,,,,,,,,,
1.0,1.0,1.128265,0.0,28.0,28.0,28.0,1.0,amber_04s.jpg,1.0,Yellow.png,5.0,51,,,,,,,,,,,,,,,,,
0.0,1.0,0.863265,0.0,29.0,29.0,29.0,1.0,milk_02s.jpg,0.0,Green.png,5.0,51,,,,,,,,,,,,,,,,,
0.0,1.0,1.246955,0.0,30.0,30.0,30.0,1.0,coat_rack_01b.jpg,0.0,Blue.png,6.0,51,,,,,,,,,,,,,,,,,
0.0,1.0,1.96271,0.0,31.0,31.0,31.0,1.0,thorn_13s.jpg,0.0,Purple.png,6.0,51,,,,,,,,,,,,,,,,,
1.0,1.0,1.527185,0.0,32.0,32.0,32.0,1.0,coat_rack_01b.jpg,1.0,Red.png,6.0,51,,,,,,,,,,,,,,,,,
0.0,1.0,1.31222,0.0,33.0,33.0,33.0,1.0,razor_blade_01b.jpg,0.0,Orange.png,6.0,51,,,,,,,,,,,,,,,,,
0.0,1.0,1.31305,0.0,34.0,34.0,34.0,1.0,lid_10s.jpg,0.0,Yellow.png,6.0,51,,,,,,,,,,,,,,,,,
0.0,1.0,1.293735,0.0,35.0,35.0,35.0,1.0,lid_10s.jpg,0.0,Green.png,6.0,51,,,,,,,,,,,,,,,,,
,,,,,,,,,0.0,,,51,1.0,0.0,3.805535,0.0,0.0,0.0,0.0,1.0,pocketknife_12s.jpg,tuxedo_01b.jpg,,,,,,,
,,,,,,,,,1.0,,,51,1.0,1.0,1.636795,0.0,1.0,1.0,1.0,1.0,possum_09s.jpg,knot_01b.jpg,,,,,,,
,,,,,,,,,1.0,,,51,1.0,1.0,1.617845,0.0,2.0,2.0,2.0,1.0,pan_02s.jpg,lemonade_04s.jpg,,,,,,,
,,,,,,,,,0.0,,,51,1.0,0.0,1.334865,0.0,3.0,3.0,3.0,1.0,tennis_ball_06s.jpg,latch_15s.jpg,,,,,,,
,,,,,,,,,0.0,,,51,1.0,0.0,1.400375,0.0,4.0,4.0,4.0,1.0,rock_08s.jpg,kettle_08s.jpg,,,,,,,
,,,,,,,,,1.0,,,51,1.0,1.0,1.08414,0.0,5.0,5.0,5.0,1.0,cobra_05s.jpg,spider_web_03s.jpg,,,,,,,
,,,,,,,,,,,,51,,,,,,,,,,,0.0,7.0,7.0,7.0,1.0,new2backpresent_8_1.xlsx,new2back_compare_task_8_1.xlsx
0.0,1.0,1.19047,0.0,0.0,0.0,0.0,1.0,recliner_02s.jpg,0.0,Blue.png,1.0,51,,,,,,,,,,,,,,,,,
0.0,1.0,0.96303,0.0,1.0,1.0,1.0,1.0,lava_02s.jpg,0.0,Purple.png,1.0,51,,,,,,,,,,,,,,,,,
0.0,1.0,0.87803,0.0,2.0,2.0,2.0,1.0,quesadilla_07s.jpg,0.0,Red.png,1.0,51,,,,,,,,,,,,,,,,,
0.0,1.0,0.762415,0.0,3.0,3.0,3.0,1.0,chalice_10s.jpg,0.0,Orange.png,1.0,51,,,,,,,,,,,,,,,,,
0.0,1.0,0.67758,0.0,4.0,4.0,4.0,1.0,tulip_02s.jpg,0.0,Yellow.png,1.0,51,,,,,,,,,,,,,,,,,
0.0,1.0,1.12923,0.0,5.0,5.0,5.0,1.0,quesadilla_07s.jpg,0.0,Green.png,1.0,51,,,,,,,,,,,,,,,,,
0.0,1.0,0.482085,0.0,6.0,6.0,6.0,1.0,lamppost_09s.jpg,0.0,Blue.png,2.0,51,,,,,,,,,,,,,,,,,
0.0,1.0,0.560895,0.0,7.0,7.0,7.0,1.0,chopsticks_08s.jpg,0.0,Purple.png,2.0,51,,,,,,,,,,,,,,,,,
0.0,1.0,0.51377,0.0,8.0,8.0,8.0,1.0,refrigerator_07s.jpg,0.0,Red.png,2.0,51,,,,,,,,,,,,,,,,,
1.0,1.0,1.182055,0.0,9.0,9.0,9.0,1.0,chopsticks_08s.jpg,1.0,Orange.png,2.0,51,,,,,,,,,,,,,,,,,
0.0,1.0,0.894575,0.0,10.0,10.0,10.0,1.0,paper_towel_03s.jpg,0.0,Yellow.png,2.0,51,,,,,,,,,,,,,,,,,
0.0,1.0,1.061955,0.0,11.0,11.0,11.0,1.0,flask_04s.jpg,0.0,Green.png,2.0,51,,,,,,,,,,,,,,,,,
0.0,1.0,0.82592,0.0,12.0,12.0,12.0,1.0,pantyhose_07s.jpg,0.0,Blue.png,3.0,51,,,,,,,,,,,,,,,,,
1.0,1.0,1.145885,0.0,13.0,13.0,13.0,1.0,flask_04s.jpg,1.0,Purple.png,3.0,51,,,,,,,,,,,,,,,,,
0.0,1.0,0.94522,0.0,14.0,14.0,14.0,1.0,chopsticks_08s.jpg,0.0,Red.png,3.0,51,,,,,,,,,,,,,,,,,
0.0,1.0,1.19475,0.0,15.0,15.0,15.0,1.0,seahorse_13s.jpg,0.0,Orange.png,3.0,51,,,,,,,,,,,,,,,,,
0.0,1.0,0.94413,0.0,16.0,16.0,16.0,1.0,pencil_sharpener_09n.jpg,0.0,Yellow.png,3.0,51,,,,,,,,,,,,,,,,,
0.0,1.0,0.879615,0.0,17.0,17.0,17.0,1.0,clover_04s.jpg,0.0,Green.png,3.0,51,,,,,,,,,,,,,,,,,
1.0,1.0,1.01034,0.0,18.0,18.0,18.0,1.0,pencil_sharpener_09n.jpg,1.0,Blue.png,4.0,51,,,,,,,,,,,,,,,,,
0.0,1.0,0.81202,0.0,19.0,19.0,19.0,1.0,fishhook_06s.jpg,0.0,Purple.png,4.0,51,,,,,,,,,,,,,,,,,
0.0,1.0,1.210415,0.0,20.0,20.0,20.0,1.0,clover_04s.jpg,0.0,Red.png,4.0,51,,,,,,,,,,,,,,,,,
0.0,1.0,0.860905,0.0,21.0,21.0,21.0,1.0,stopwatch_04s.jpg,0.0,Orange.png,4.0,51,,,,,,,,,,,,,,,,,
0.0,1.0,0.97728,0.0,22.0,22.0,22.0,1.0,comic_book_02s.jpg,0.0,Yellow.png,4.0,51,,,,,,,,,,,,,,,,,
0.0,1.0,0.76639,0.0,23.0,23.0,23.0,1.0,lab_coat_11s.jpg,0.0,Green.png,4.0,51,,,,,,,,,,,,,,,,,
0.0,1.0,1.029415,0.0,24.0,24.0,24.0,1.0,bolo_tie_08s.jpg,0.0,Blue.png,5.0,51,,,,,,,,,,,,,,,,,
0.0,1.0,1.178515,0.0,25.0,25.0,25.0,1.0,teacup_07s.jpg,0.0,Purple.png,5.0,51,,,,,,,,,,,,,,,,,
0.0,1.0,1.26148,0.0,26.0,26.0,26.0,1.0,eyedropper_12s.jpg,0.0,Red.png,5.0,51,,,,,,,,,,,,,,,,,
0.0,1.0,1.04529,0.0,27.0,27.0,27.0,1.0,frame_06s.jpg,0.0,Orange.png,5.0,51,,,,,,,,,,,,,,,,,
0.0,1.0,0.99382,0.0,28.0,28.0,28.0,1.0,treadmill_06s.jpg,0.0,Yellow.png,5.0,51,,,,,,,,,,,,,,,,,
0.0,1.0,1.146535,0.0,29.0,29.0,29.0,1.0,mug_06s.jpg,0.0,Green.png,5.0,51,,,,,,,,,,,,,,,,,
0.0,1.0,1.27884,0.0,30.0,30.0,30.0,1.0,mug_06s.jpg,0.0,Blue.png,6.0,51,,,,,,,,,,,,,,,,,
1.0,1.0,1.07813,0.0,31.0,31.0,31.0,1.0,mug_06s.jpg,1.0,Purple.png,6.0,51,,,,,,,,,,,,,,,,,
0.0,1.0,0.70978,0.0,32.0,32.0,32.0,1.0,chip_04s.jpg,0.0,Red.png,6.0,51,,,,,,,,,,,,,,,,,
0.0,1.0,0.662355,0.0,33.0,33.0,33.0,1.0,gazelle_10s.jpg,0.0,Orange.png,6.0,51,,,,,,,,,,,,,,,,,
1.0,1.0,1.226985,0.0,34.0,34.0,34.0,1.0,chip_04s.jpg,1.0,Yellow.png,6.0,51,,,,,,,,,,,,,,,,,
0.0,1.0,1.195165,0.0,35.0,35.0,35.0,1.0,quill_09s.jpg,0.0,Green.png,6.0,51,,,,,,,,,,,,,,,,,
,,,,,,,,,0.0,,,51,1.0,0.0,2.112405,0.0,0.0,0.0,0.0,1.0,bolo_tie_08s.jpg,stopwatch_04s.jpg,,,,,,,
,,,,,,,,,0.0,,,51,0.0,1.0,1.43186,0.0,1.0,1.0,1.0,1.0,lamppost_09s.jpg,chalice_10s.jpg,,,,,,,
,,,,,,,,,0.0,,,51,1.0,0.0,1.19726,0.0,2.0,2.0,2.0,1.0,eyedropper_12s.jpg,lab_coat_11s.jpg,,,,,,,
,,,,,,,,,1.0,,,51,1.0,1.0,0.96411,0.0,3.0,3.0,3.0,1.0,lava_02s.jpg,tulip_02s.jpg,,,,,,,
,,,,,,,,,0.0,,,51,1.0,0.0,1.49914,0.0,4.0,4.0,4.0,1.0,seahorse_13s.jpg,pantyhose_07s.jpg,,,,,,,
,,,,,,,,,1.0,,,51,1.0,1.0,0.95034,0.0,5.0,5.0,5.0,1.0,fishhook_06s.jpg,comic_book_02s.jpg,,,,,,,
,,,,,,,,,,,,51,,,,,,,,,,,0.0,8.0,8.0,8.0,1.0,new2backpresent_9_1.xlsx,new2back_compare_task_9_1.xlsx
