key_resp.keys,key_resp.corr,key_resp.rt,present_segment.thisRepN,present_segment.thisTrialN,present_segment.thisN,present_segment.thisIndex,present_segment.ran,pictures,answer,clock,segment,participant,key_resp_2.keys,key_resp_2.corr,key_resp_2.rt,compare_segment.thisRepN,compare_segment.thisTrialN,compare_segment.thisN,compare_segment.thisIndex,compare_segment.ran,item_a,item_b,clock_conditions.thisRepN,clock_conditions.thisTrialN,clock_conditions.thisN,clock_conditions.thisIndex,clock_conditions.ran,present,compare
0.0,1.0,1.76524,0.0,0.0,0.0,0.0,1.0,mailbox_11s.jpg,0.0,Blue.png,1.0,12,,,,,,,,,,,,,,,,,
0.0,1.0,1.02963,0.0,1.0,1.0,1.0,1.0,mailbox_11s.jpg,0.0,Purple.png,1.0,12,,,,,,,,,,,,,,,,,
0.0,1.0,1.059985,0.0,2.0,2.0,2.0,1.0,checkbook_11s.jpg,0.0,Red.png,1.0,12,,,,,,,,,,,,,,,,,
0.0,1.0,0.679615,0.0,3.0,3.0,3.0,1.0,rocking_chair_05s.jpg,0.0,Orange.png,1.0,12,,,,,,,,,,,,,,,,,
,0.0,,0.0,4.0,4.0,4.0,1.0,checkbook_11s.jpg,1.0,Yellow.png,1.0,12,,,,,,,,,,,,,,,,,
1.0,1.0,0.861205,0.0,5.0,5.0,5.0,1.0,rocking_chair_05s.jpg,1.0,Green.png,1.0,12,,,,,,,,,,,,,,,,,
0.0,1.0,0.450285,0.0,6.0,6.0,6.0,1.0,eggshell_14s.jpg,0.0,Blue.png,2.0,12,,,,,,,,,,,,,,,,,
1.0,1.0,0.60241,0.0,7.0,7.0,7.0,1.0,rocking_chair_05s.jpg,1.0,Purple.png,2.0,12,,,,,,,,,,,,,,,,,
0.0,1.0,0.35839,0.0,8.0,8.0,8.0,1.0,powder_07s.jpg,0.0,Red.png,2.0,12,,,,,,,,,,,,,,,,,
0.0,1.0,1.538605,0.0,9.0,9.0,9.0,1.0,meatball_13s.jpg,0.0,Orange.png,2.0,12,,,,,,,,,,,,,,,,,
0.0,1.0,0.83022,0.0,10.0,10.0,10.0,1.0,rolling_pin_02s.jpg,0.0,Yellow.png,2.0,12,,,,,,,,,,,,,,,,,
0.0,1.0,0.35726,0.0,11.0,11.0,11.0,1.0,gingerbread_man_03s.jpg,0.0,Green.png,2.0,12,,,,,,,,,,,,,,,,,
0.0,1.0,0.93653,0.0,12.0,12.0,12.0,1.0,rocking_chair_05s.jpg,0.0,Blue.png,3.0,12,,,,,,,,,,,,,,,,,
0.0,1.0,0.41664,0.0,13.0,13.0,13.0,1.0,bowler_hat_10s.jpg,0.0,Purple.png,3.0,12,,,,,,,,,,,,,,,,,
1.0,1.0,0.5565,0.0,14.0,14.0,14.0,1.0,rocking_chair_05s.jpg,1.0,Red.png,3.0,12,,,,,,,,,,,,,,,,,
0.0,1.0,1.21334,0.0,15.0,15.0,15.0,1.0,rocking_chair_05s.jpg,0.0,Orange.png,3.0,12,,,,,,,,,,,,,,,,,
1.0,1.0,0.59434,0.0,16.0,16.0,16.0,1.0,rocking_chair_05s.jpg,1.0,Yellow.png,3.0,12,,,,,,,,,,,,,,,,,
0.0,1.0,0.55154,0.0,17.0,17.0,17.0,1.0,projector_08s.jpg,0.0,Green.png,3.0,12,,,,,,,,,,,,,,,,,
0.0,1.0,0.53392,0.0,18.0,18.0,18.0,1.0,checkbook_11s.jpg,0.0,Blue.png,4.0,12,,,,,,,,,,,,,,,,,
0.0,1.0,1.465755,0.0,19.0,19.0,19.0,1.0,checkbook_11s.jpg,0.0,Purple.png,4.0,12,,,,,,,,,,,,,,,,,
0.0,1.0,0.76028,0.0,20.0,20.0,20.0,1.0,crab_16s.jpg,0.0,Red.png,4.0,12,,,,,,,,,,,,,,,,,
1.0,1.0,0.653345,0.0,21.0,21.0,21.0,1.0,checkbook_11s.jpg,1.0,Orange.png,4.0,12,,,,,,,,,,,,,,,,,
0.0,1.0,1.29956,0.0,22.0,22.0,22.0,1.0,peanut_butter_08s.jpg,0.0,Yellow.png,4.0,12,,,,,,,,,,,,,,,,,
0.0,1.0,0.486685,0.0,23.0,23.0,23.0,1.0,breadstick_08s.jpg,0.0,Green.png,4.0,12,,,,,,,,,,,,,,,,,
0.0,1.0,0.427075,0.0,24.0,24.0,24.0,1.0,stethoscope_01b.jpg,0.0,Blue.png,5.0,12,,,,,,,,,,,,,,,,,
0.0,1.0,0.37928,0.0,25.0,25.0,25.0,1.0,pineapple_12s.jpg,0.0,Purple.png,5.0,12,,,,,,,,,,,,,,,,,
1.0,1.0,1.22261,0.0,26.0,26.0,26.0,1.0,stethoscope_01b.jpg,1.0,Red.png,5.0,12,,,,,,,,,,,,,,,,,
1.0,1.0,1.631705,0.0,27.0,27.0,27.0,1.0,pineapple_12s.jpg,1.0,Orange.png,5.0,12,,,,,,,,,,,,,,,,,
0.0,1.0,0.745005,0.0,28.0,28.0,28.0,1.0,air_pump_05s.jpg,0.0,Yellow.png,5.0,12,,,,,,,,,,,,,,,,,
0.0,1.0,0.56482,0.0,29.0,29.0,29.0,1.0,birdcage_08s.jpg,0.0,Green.png,5.0,12,,,,,,,,,,,,,,,,,
0.0,1.0,1.72126,0.0,30.0,30.0,30.0,1.0,kangaroo_02s.jpg,0.0,Blue.png,6.0,12,,,,,,,,,,,,,,,,,
0.0,1.0,0.431515,0.0,31.0,31.0,31.0,1.0,juicer2_06s.jpg,0.0,Purple.png,6.0,12,,,,,,,,,,,,,,,,,
0.0,1.0,0.5648,0.0,32.0,32.0,32.0,1.0,harpoon.jpg,0.0,Red.png,6.0,12,,,,,,,,,,,,,,,,,
0.0,1.0,0.47889,0.0,33.0,33.0,33.0,1.0,mirror_12s.jpg,0.0,Orange.png,6.0,12,,,,,,,,,,,,,,,,,
0.0,1.0,0.478365,0.0,34.0,34.0,34.0,1.0,gear_07s.jpg,0.0,Yellow.png,6.0,12,,,,,,,,,,,,,,,,,
0.0,1.0,0.612465,0.0,35.0,35.0,35.0,1.0,timer_03s.jpg,0.0,Green.png,6.0,12,,,,,,,,,,,,,,,,,
,,,,,,,,,1.0,,,12,0.0,0.0,1.980405,0.0,0.0,0.0,0.0,1.0,powder_07s.jpg,gingerbread_man_03s.jpg,,,,,,,
,,,,,,,,,1.0,,,12,0.0,0.0,5.02789,0.0,1.0,1.0,1.0,1.0,air_pump_05s.jpg,juicer2_06s.jpg,,,,,,,
,,,,,,,,,0.0,,,12,0.0,1.0,4.51071,0.0,2.0,2.0,2.0,1.0,crab_16s.jpg,projector_08s.jpg,,,,,,,
,,,,,,,,,0.0,,,12,0.0,1.0,3.347915,0.0,3.0,3.0,3.0,1.0,mirror_12s.jpg,kangaroo_02s.jpg,,,,,,,
,,,,,,,,,0.0,,,12,1.0,0.0,1.89541,0.0,4.0,4.0,4.0,1.0,bowler_hat_10s.jpg,rolling_pin_02s.jpg,,,,,,,
,,,,,,,,,1.0,,,12,1.0,1.0,2.567635,0.0,5.0,5.0,5.0,1.0,eggshell_14s.jpg,meatball_13s.jpg,,,,,,,
,,,,,,,,,,,,12,,,,,,,,,,,0.0,0.0,0.0,0.0,1.0,new2backpresent_1_1.xlsx,new2back_compare_task_1_1.xlsx
,0.0,,0.0,0.0,0.0,0.0,1.0,trident_07s.jpg,0.0,Blue.png,1.0,12,,,,,,,,,,,,,,,,,
0.0,1.0,1.004215,0.0,1.0,1.0,1.0,1.0,rosary_03s.jpg,0.0,Purple.png,1.0,12,,,,,,,,,,,,,,,,,
0.0,1.0,0.854805,0.0,2.0,2.0,2.0,1.0,toilet_paper_12s.jpg,0.0,Red.png,1.0,12,,,,,,,,,,,,,,,,,
1.0,1.0,0.81233,0.0,3.0,3.0,3.0,1.0,rosary_03s.jpg,1.0,Orange.png,1.0,12,,,,,,,,,,,,,,,,,
1.0,1.0,0.736965,0.0,4.0,4.0,4.0,1.0,toilet_paper_12s.jpg,1.0,Yellow.png,1.0,12,,,,,,,,,,,,,,,,,
0.0,1.0,0.580345,0.0,5.0,5.0,5.0,1.0,potpourri_03s.jpg,0.0,Green.png,1.0,12,,,,,,,,,,,,,,,,,
0.0,1.0,0.55562,0.0,6.0,6.0,6.0,1.0,rocket_02s.jpg,0.0,Blue.png,2.0,12,,,,,,,,,,,,,,,,,
0.0,1.0,0.581655,0.0,7.0,7.0,7.0,1.0,piano_13n.jpg,0.0,Purple.png,2.0,12,,,,,,,,,,,,,,,,,
1.0,1.0,0.64473,0.0,8.0,8.0,8.0,1.0,rocket_02s.jpg,1.0,Red.png,2.0,12,,,,,,,,,,,,,,,,,
0.0,1.0,2.398815,0.0,9.0,9.0,9.0,1.0,rocket_02s.jpg,0.0,Orange.png,2.0,12,,,,,,,,,,,,,,,,,
0.0,1.0,0.687535,0.0,10.0,10.0,10.0,1.0,umbrella_15s.jpg,0.0,Yellow.png,2.0,12,,,,,,,,,,,,,,,,,
0.0,1.0,0.548805,0.0,11.0,11.0,11.0,1.0,touchpad_11s.jpg,0.0,Green.png,2.0,12,,,,,,,,,,,,,,,,,
0.0,1.0,0.601875,0.0,12.0,12.0,12.0,1.0,rocket_02s.jpg,0.0,Blue.png,3.0,12,,,,,,,,,,,,,,,,,
0.0,1.0,0.770015,0.0,13.0,13.0,13.0,1.0,rocket_02s.jpg,0.0,Purple.png,3.0,12,,,,,,,,,,,,,,,,,
1.0,1.0,0.785155,0.0,14.0,14.0,14.0,1.0,rocket_02s.jpg,1.0,Red.png,3.0,12,,,,,,,,,,,,,,,,,
0.0,1.0,1.482565,0.0,15.0,15.0,15.0,1.0,roller_coaster_07s.jpg,0.0,Orange.png,3.0,12,,,,,,,,,,,,,,,,,
0.0,1.0,0.5633,0.0,16.0,16.0,16.0,1.0,torch_02s.jpg,0.0,Yellow.png,3.0,12,,,,,,,,,,,,,,,,,
0.0,1.0,0.746335,0.0,17.0,17.0,17.0,1.0,lion_18s.jpg,0.0,Green.png,3.0,12,,,,,,,,,,,,,,,,,
0.0,1.0,0.61985,0.0,18.0,18.0,18.0,1.0,microwave_02s.jpg,0.0,Blue.png,4.0,12,,,,,,,,,,,,,,,,,
0.0,1.0,0.584545,0.0,19.0,19.0,19.0,1.0,denture_03s.jpg,0.0,Purple.png,4.0,12,,,,,,,,,,,,,,,,,
0.0,1.0,0.56997,0.0,20.0,20.0,20.0,1.0,fur_coat_11s.jpg,0.0,Red.png,4.0,12,,,,,,,,,,,,,,,,,
0.0,1.0,0.595605,0.0,21.0,21.0,21.0,1.0,pepper_mill_03s.jpg,0.0,Orange.png,4.0,12,,,,,,,,,,,,,,,,,
0.0,1.0,0.577505,0.0,22.0,22.0,22.0,1.0,antenna_01b.jpg,0.0,Yellow.png,4.0,12,,,,,,,,,,,,,,,,,
1.0,1.0,0.65311,0.0,23.0,23.0,23.0,1.0,pepper_mill_03s.jpg,1.0,Green.png,4.0,12,,,,,,,,,,,,,,,,,
0.0,1.0,0.433475,0.0,24.0,24.0,24.0,1.0,touchpad_11s.jpg,0.0,Blue.png,5.0,12,,,,,,,,,,,,,,,,,
0.0,1.0,0.59704,0.0,25.0,25.0,25.0,1.0,otter_05s.jpg,0.0,Purple.png,5.0,12,,,,,,,,,,,,,,,,,
0.0,1.0,0.78347,0.0,26.0,26.0,26.0,1.0,squirt_gun_03s.jpg,0.0,Red.png,5.0,12,,,,,,,,,,,,,,,,,
1.0,1.0,0.550935,0.0,27.0,27.0,27.0,1.0,otter_05s.jpg,1.0,Orange.png,5.0,12,,,,,,,,,,,,,,,,,
0.0,1.0,0.718555,0.0,28.0,28.0,28.0,1.0,touchpad_11s.jpg,0.0,Yellow.png,5.0,12,,,,,,,,,,,,,,,,,
1.0,0.0,1.057895,0.0,29.0,29.0,29.0,1.0,touchpad_11s.jpg,0.0,Green.png,5.0,12,,,,,,,,,,,,,,,,,
0.0,1.0,0.664695,0.0,30.0,30.0,30.0,1.0,kayak_08s.jpg,0.0,Blue.png,6.0,12,,,,,,,,,,,,,,,,,
0.0,1.0,0.575095,0.0,31.0,31.0,31.0,1.0,mascara_03s.jpg,0.0,Purple.png,6.0,12,,,,,,,,,,,,,,,,,
0.0,1.0,0.493375,0.0,32.0,32.0,32.0,1.0,ink_08s.jpg,0.0,Red.png,6.0,12,,,,,,,,,,,,,,,,,
0.0,1.0,0.46359,0.0,33.0,33.0,33.0,1.0,kayak_08s.jpg,0.0,Orange.png,6.0,12,,,,,,,,,,,,,,,,,
0.0,1.0,0.505625,0.0,34.0,34.0,34.0,1.0,towel_rack_04s.jpg,0.0,Yellow.png,6.0,12,,,,,,,,,,,,,,,,,
0.0,1.0,0.631005,0.0,35.0,35.0,35.0,1.0,jewel_01b.jpg,0.0,Green.png,6.0,12,,,,,,,,,,,,,,,,,
,,,,,,,,,1.0,,,12,0.0,0.0,1.70031,0.0,0.0,0.0,0.0,1.0,torch_02s.jpg,denture_03s.jpg,,,,,,,
,,,,,,,,,0.0,,,12,0.0,1.0,5.03766,0.0,1.0,1.0,1.0,1.0,towel_rack_04s.jpg,mascara_03s.jpg,,,,,,,
,,,,,,,,,1.0,,,12,1.0,1.0,2.487065,0.0,2.0,2.0,2.0,1.0,piano_13n.jpg,umbrella_15s.jpg,,,,,,,
,,,,,,,,,0.0,,,12,1.0,0.0,6.593395,0.0,3.0,3.0,3.0,1.0,fur_coat_11s.jpg,lion_18s.jpg,,,,,,,
,,,,,,,,,1.0,,,12,1.0,1.0,1.287335,0.0,4.0,4.0,4.0,1.0,roller_coaster_07s.jpg,microwave_02s.jpg,,,,,,,
,,,,,,,,,1.0,,,12,1.0,1.0,1.206815,0.0,5.0,5.0,5.0,1.0,ink_08s.jpg,jewel_01b.jpg,,,,,,,
,,,,,,,,,,,,12,,,,,,,,,,,0.0,1.0,1.0,1.0,1.0,new2backpresent_2_1.xlsx,new2back_compare_task_2_1.xlsx
0.0,1.0,1.02124,0.0,0.0,0.0,0.0,1.0,icemaker_10s.jpg,0.0,Blue.png,1.0,12,,,,,,,,,,,,,,,,,
0.0,1.0,1.04977,0.0,1.0,1.0,1.0,1.0,icemaker_10s.jpg,0.0,Purple.png,1.0,12,,,,,,,,,,,,,,,,,
0.0,1.0,0.82516,0.0,2.0,2.0,2.0,1.0,tile_08s.jpg,0.0,Red.png,1.0,12,,,,,,,,,,,,,,,,,
0.0,1.0,0.764165,0.0,3.0,3.0,3.0,1.0,fossil_06s.jpg,0.0,Orange.png,1.0,12,,,,,,,,,,,,,,,,,
0.0,1.0,1.546635,0.0,4.0,4.0,4.0,1.0,fossil_06s.jpg,0.0,Yellow.png,1.0,12,,,,,,,,,,,,,,,,,
0.0,1.0,0.981225,0.0,5.0,5.0,5.0,1.0,ravioli_08s.jpg,0.0,Green.png,1.0,12,,,,,,,,,,,,,,,,,
0.0,1.0,1.580095,0.0,6.0,6.0,6.0,1.0,top_hat_11s.jpg,0.0,Blue.png,2.0,12,,,,,,,,,,,,,,,,,
0.0,1.0,0.435025,0.0,7.0,7.0,7.0,1.0,raccoon_02s.jpg,0.0,Purple.png,2.0,12,,,,,,,,,,,,,,,,,
0.0,1.0,0.45294,0.0,8.0,8.0,8.0,1.0,snowman_02s.jpg,0.0,Red.png,2.0,12,,,,,,,,,,,,,,,,,
0.0,1.0,0.497135,0.0,9.0,9.0,9.0,1.0,peach_04s.jpg,0.0,Orange.png,2.0,12,,,,,,,,,,,,,,,,,
0.0,1.0,0.65115,0.0,10.0,10.0,10.0,1.0,beard_16s.jpg,0.0,Yellow.png,2.0,12,,,,,,,,,,,,,,,,,
0.0,1.0,0.428045,0.0,11.0,11.0,11.0,1.0,rollerskate_03s.jpg,0.0,Green.png,2.0,12,,,,,,,,,,,,,,,,,
0.0,1.0,0.598435,0.0,12.0,12.0,12.0,1.0,mango_09s.jpg,0.0,Blue.png,3.0,12,,,,,,,,,,,,,,,,,
0.0,1.0,0.845285,0.0,13.0,13.0,13.0,1.0,mango_09s.jpg,0.0,Purple.png,3.0,12,,,,,,,,,,,,,,,,,
0.0,1.0,0.611785,0.0,14.0,14.0,14.0,1.0,magnet_03s.jpg,0.0,Red.png,3.0,12,,,,,,,,,,,,,,,,,
1.0,1.0,0.669955,0.0,15.0,15.0,15.0,1.0,mango_09s.jpg,1.0,Orange.png,3.0,12,,,,,,,,,,,,,,,,,
0.0,1.0,2.455895,0.0,16.0,16.0,16.0,1.0,mango_09s.jpg,0.0,Yellow.png,3.0,12,,,,,,,,,,,,,,,,,
0.0,0.0,2.251635,0.0,17.0,17.0,17.0,1.0,mango_09s.jpg,1.0,Green.png,3.0,12,,,,,,,,,,,,,,,,,
0.0,1.0,0.46517,0.0,18.0,18.0,18.0,1.0,punch2_09s.jpg,0.0,Blue.png,4.0,12,,,,,,,,,,,,,,,,,
0.0,1.0,0.918875,0.0,19.0,19.0,19.0,1.0,jelly_bean_06s.jpg,0.0,Purple.png,4.0,12,,,,,,,,,,,,,,,,,
1.0,1.0,0.59611,0.0,20.0,20.0,20.0,1.0,punch2_09s.jpg,1.0,Red.png,4.0,12,,,,,,,,,,,,,,,,,
1.0,1.0,1.548335,0.0,21.0,21.0,21.0,1.0,jelly_bean_06s.jpg,1.0,Orange.png,4.0,12,,,,,,,,,,,,,,,,,
0.0,1.0,2.16579,0.0,22.0,22.0,22.0,1.0,jelly_bean_06s.jpg,0.0,Yellow.png,4.0,12,,,,,,,,,,,,,,,,,
0.0,1.0,2.07991,0.0,23.0,23.0,23.0,1.0,typewriter_11s.jpg,0.0,Green.png,4.0,12,,,,,,,,,,,,,,,,,
0.0,1.0,0.59798,0.0,24.0,24.0,24.0,1.0,icemaker_10s.jpg,0.0,Blue.png,5.0,12,,,,,,,,,,,,,,,,,
1.0,1.0,0.61397,0.0,25.0,25.0,25.0,1.0,typewriter_11s.jpg,1.0,Purple.png,5.0,12,,,,,,,,,,,,,,,,,
0.0,1.0,0.413835,0.0,26.0,26.0,26.0,1.0,key_07s.jpg,0.0,Red.png,5.0,12,,,,,,,,,,,,,,,,,
0.0,1.0,0.68827,0.0,27.0,27.0,27.0,1.0,foam_03s.jpg,0.0,Orange.png,5.0,12,,,,,,,,,,,,,,,,,
0.0,1.0,0.60474,0.0,28.0,28.0,28.0,1.0,candy_cane_06s.jpg,0.0,Yellow.png,5.0,12,,,,,,,,,,,,,,,,,
0.0,1.0,0.971415,0.0,29.0,29.0,29.0,1.0,puffin_19s.jpg,0.0,Green.png,5.0,12,,,,,,,,,,,,,,,,,
0.0,1.0,0.667005,0.0,30.0,30.0,30.0,1.0,outlet_10s.jpg,0.0,Blue.png,6.0,12,,,,,,,,,,,,,,,,,
0.0,1.0,0.7295,0.0,31.0,31.0,31.0,1.0,lasagna_06s.jpg,0.0,Purple.png,6.0,12,,,,,,,,,,,,,,,,,
0.0,1.0,1.51346,0.0,32.0,32.0,32.0,1.0,lasagna_06s.jpg,0.0,Red.png,6.0,12,,,,,,,,,,,,,,,,,
0.0,1.0,1.15118,0.0,33.0,33.0,33.0,1.0,marker_05s.jpg,0.0,Orange.png,6.0,12,,,,,,,,,,,,,,,,,
0.0,1.0,1.429235,0.0,34.0,34.0,34.0,1.0,cushion_08s.jpg,0.0,Yellow.png,6.0,12,,,,,,,,,,,,,,,,,
0.0,1.0,0.635485,0.0,35.0,35.0,35.0,1.0,badge_03s.jpg,0.0,Green.png,6.0,12,,,,,,,,,,,,,,,,,
,,,,,,,,,0.0,,,12,0.0,1.0,1.84664,0.0,0.0,0.0,0.0,1.0,beard_16s.jpg,raccoon_02s.jpg,,,,,,,
,,,,,,,,,0.0,,,12,1.0,0.0,1.99582,0.0,1.0,1.0,1.0,1.0,peach_04s.jpg,top_hat_11s.jpg,,,,,,,
,,,,,,,,,1.0,,,12,1.0,1.0,1.81988,0.0,2.0,2.0,2.0,1.0,rollerskate_03s.jpg,magnet_03s.jpg,,,,,,,
,,,,,,,,,1.0,,,12,1.0,1.0,8.454705,0.0,3.0,3.0,3.0,1.0,foam_03s.jpg,outlet_10s.jpg,,,,,,,
,,,,,,,,,0.0,,,12,0.0,1.0,1.969765,0.0,4.0,4.0,4.0,1.0,snowman_02s.jpg,ravioli_08s.jpg,,,,,,,
,,,,,,,,,0.0,,,12,1.0,0.0,4.525715,0.0,5.0,5.0,5.0,1.0,puffin_19s.jpg,key_07s.jpg,,,,,,,
,,,,,,,,,,,,12,,,,,,,,,,,0.0,2.0,2.0,2.0,1.0,new2backpresent_3_1.xlsx,new2back_compare_task_3_1.xlsx
0.0,1.0,1.825385,0.0,0.0,0.0,0.0,1.0,lollipop_08s.jpg,0.0,Blue.png,1.0,12,,,,,,,,,,,,,,,,,
0.0,1.0,0.747075,0.0,1.0,1.0,1.0,1.0,keyboard_05s.jpg,0.0,Purple.png,1.0,12,,,,,,,,,,,,,,,,,
0.0,1.0,0.675795,0.0,2.0,2.0,2.0,1.0,pomegranate_04s.jpg,0.0,Red.png,1.0,12,,,,,,,,,,,,,,,,,
0.0,1.0,0.57998,0.0,3.0,3.0,3.0,1.0,olive_05s.jpg,0.0,Orange.png,1.0,12,,,,,,,,,,,,,,,,,
0.0,1.0,0.414085,0.0,4.0,4.0,4.0,1.0,hummingbird_05s.jpg,0.0,Yellow.png,1.0,12,,,,,,,,,,,,,,,,,
0.0,1.0,0.629925,0.0,5.0,5.0,5.0,1.0,cucumber_07s.jpg,0.0,Green.png,1.0,12,,,,,,,,,,,,,,,,,
0.0,1.0,0.97026,0.0,6.0,6.0,6.0,1.0,olive_05s.jpg,0.0,Blue.png,2.0,12,,,,,,,,,,,,,,,,,
0.0,1.0,0.617855,0.0,7.0,7.0,7.0,1.0,pinwheel_06s.jpg,0.0,Purple.png,2.0,12,,,,,,,,,,,,,,,,,
1.0,1.0,0.795375,0.0,8.0,8.0,8.0,1.0,olive_05s.jpg,1.0,Red.png,2.0,12,,,,,,,,,,,,,,,,,
0.0,1.0,0.58427,0.0,9.0,9.0,9.0,1.0,orchid_01b.jpg,0.0,Orange.png,2.0,12,,,,,,,,,,,,,,,,,
1.0,1.0,0.958895,0.0,10.0,10.0,10.0,1.0,olive_05s.jpg,1.0,Yellow.png,2.0,12,,,,,,,,,,,,,,,,,
0.0,1.0,0.702155,0.0,11.0,11.0,11.0,1.0,lectern_08s.jpg,0.0,Green.png,2.0,12,,,,,,,,,,,,,,,,,
0.0,1.0,0.704805,0.0,12.0,12.0,12.0,1.0,margarita_03s.jpg,0.0,Blue.png,3.0,12,,,,,,,,,,,,,,,,,
0.0,1.0,0.99537,0.0,13.0,13.0,13.0,1.0,margarita_03s.jpg,0.0,Purple.png,3.0,12,,,,,,,,,,,,,,,,,
0.0,1.0,0.96974,0.0,14.0,14.0,14.0,1.0,swan_11s.jpg,0.0,Red.png,3.0,12,,,,,,,,,,,,,,,,,
0.0,1.0,0.894095,0.0,15.0,15.0,15.0,1.0,tripod_01b.jpg,0.0,Orange.png,3.0,12,,,,,,,,,,,,,,,,,
0.0,1.0,0.499795,0.0,16.0,16.0,16.0,1.0,mop_08s.jpg,0.0,Yellow.png,3.0,12,,,,,,,,,,,,,,,,,
0.0,1.0,1.20374,0.0,17.0,17.0,17.0,1.0,plaster_cast_13s.jpg,0.0,Green.png,3.0,12,,,,,,,,,,,,,,,,,
0.0,1.0,0.92659,0.0,18.0,18.0,18.0,1.0,gas_mask_11s.jpg,0.0,Blue.png,4.0,12,,,,,,,,,,,,,,,,,
0.0,1.0,0.71998,0.0,19.0,19.0,19.0,1.0,tinsel_12s.jpg,0.0,Purple.png,4.0,12,,,,,,,,,,,,,,,,,
0.0,1.0,0.54406,0.0,20.0,20.0,20.0,1.0,smokingpipe.jpg,0.0,Red.png,4.0,12,,,,,,,,,,,,,,,,,
0.0,1.0,0.594325,0.0,21.0,21.0,21.0,1.0,iron_13s.jpg,0.0,Orange.png,4.0,12,,,,,,,,,,,,,,,,,
0.0,1.0,0.73738,0.0,22.0,22.0,22.0,1.0,iron_13s.jpg,0.0,Yellow.png,4.0,12,,,,,,,,,,,,,,,,,
1.0,1.0,0.663515,0.0,23.0,23.0,23.0,1.0,iron_13s.jpg,1.0,Green.png,4.0,12,,,,,,,,,,,,,,,,,
0.0,1.0,0.86537,0.0,24.0,24.0,24.0,1.0,rhubarb_03s.jpg,0.0,Blue.png,5.0,12,,,,,,,,,,,,,,,,,
0.0,1.0,0.546365,0.0,25.0,25.0,25.0,1.0,tambourine_06s.jpg,0.0,Purple.png,5.0,12,,,,,,,,,,,,,,,,,
0.0,1.0,1.013895,0.0,26.0,26.0,26.0,1.0,tambourine_06s.jpg,0.0,Red.png,5.0,12,,,,,,,,,,,,,,,,,
0.0,1.0,0.68292,0.0,27.0,27.0,27.0,1.0,mousetrap_15n.jpg,0.0,Orange.png,5.0,12,,,,,,,,,,,,,,,,,
0.0,1.0,1.077705,0.0,28.0,28.0,28.0,1.0,ticktacktoe_08s.jpg,0.0,Yellow.png,5.0,12,,,,,,,,,,,,,,,,,
0.0,1.0,0.577435,0.0,29.0,29.0,29.0,1.0,sunflower_17s.jpg,0.0,Green.png,5.0,12,,,,,,,,,,,,,,,,,
0.0,1.0,0.469845,0.0,30.0,30.0,30.0,1.0,onion_10s.jpg,0.0,Blue.png,6.0,12,,,,,,,,,,,,,,,,,
0.0,1.0,0.701305,0.0,31.0,31.0,31.0,1.0,ant_12s.jpg,0.0,Purple.png,6.0,12,,,,,,,,,,,,,,,,,
0.0,1.0,0.63779,0.0,32.0,32.0,32.0,1.0,insole_11s.jpg,0.0,Red.png,6.0,12,,,,,,,,,,,,,,,,,
0.0,1.0,0.59468,0.0,33.0,33.0,33.0,1.0,keyboard_05s.jpg,0.0,Orange.png,6.0,12,,,,,,,,,,,,,,,,,
0.0,1.0,0.648435,0.0,34.0,34.0,34.0,1.0,aluminum_foil_08s.jpg,0.0,Yellow.png,6.0,12,,,,,,,,,,,,,,,,,
0.0,1.0,0.528665,0.0,35.0,35.0,35.0,1.0,money_07s.jpg,0.0,Green.png,6.0,12,,,,,,,,,,,,,,,,,
,,,,,,,,,0.0,,,12,0.0,1.0,1.86234,0.0,0.0,0.0,0.0,1.0,pinwheel_06s.jpg,hummingbird_05s.jpg,,,,,,,
,,,,,,,,,1.0,,,12,1.0,1.0,2.408725,0.0,1.0,1.0,1.0,1.0,mop_08s.jpg,tinsel_12s.jpg,,,,,,,
,,,,,,,,,1.0,,,12,1.0,1.0,1.31405,0.0,2.0,2.0,2.0,1.0,pomegranate_04s.jpg,cucumber_07s.jpg,,,,,,,
,,,,,,,,,0.0,,,12,0.0,1.0,1.162405,0.0,3.0,3.0,3.0,1.0,aluminum_foil_08s.jpg,ant_12s.jpg,,,,,,,
,,,,,,,,,0.0,,,12,0.0,1.0,3.159145,0.0,4.0,4.0,4.0,1.0,gas_mask_11s.jpg,tripod_01b.jpg,,,,,,,
,,,,,,,,,0.0,,,12,0.0,1.0,2.50805,0.0,5.0,5.0,5.0,1.0,mousetrap_15n.jpg,rhubarb_03s.jpg,,,,,,,
,,,,,,,,,,,,12,,,,,,,,,,,0.0,3.0,3.0,3.0,1.0,new2backpresent_4_1.xlsx,new2back_compare_task_4_1.xlsx
0.0,1.0,1.1067,0.0,0.0,0.0,0.0,1.0,jalapeno_15s.jpg,0.0,Blue.png,1.0,12,,,,,,,,,,,,,,,,,
0.0,1.0,0.844655,0.0,1.0,1.0,1.0,1.0,pincushion_10s.jpg,0.0,Purple.png,1.0,12,,,,,,,,,,,,,,,,,
0.0,1.0,0.60018,0.0,2.0,2.0,2.0,1.0,fondue_07s.jpg,0.0,Red.png,1.0,12,,,,,,,,,,,,,,,,,
0.0,1.0,0.6347,0.0,3.0,3.0,3.0,1.0,safety_pin_02s.jpg,0.0,Orange.png,1.0,12,,,,,,,,,,,,,,,,,
0.0,1.0,0.62702,0.0,4.0,4.0,4.0,1.0,turf_03s.jpg,0.0,Yellow.png,1.0,12,,,,,,,,,,,,,,,,,
0.0,1.0,0.415305,0.0,5.0,5.0,5.0,1.0,jalapeno_15s.jpg,0.0,Green.png,1.0,12,,,,,,,,,,,,,,,,,
0.0,1.0,0.614975,0.0,6.0,6.0,6.0,1.0,jalapeno_15s.jpg,0.0,Blue.png,2.0,12,,,,,,,,,,,,,,,,,
1.0,1.0,0.55042,0.0,7.0,7.0,7.0,1.0,jalapeno_15s.jpg,1.0,Purple.png,2.0,12,,,,,,,,,,,,,,,,,
0.0,1.0,1.17918,0.0,8.0,8.0,8.0,1.0,spoon02a.jpg,0.0,Red.png,2.0,12,,,,,,,,,,,,,,,,,
0.0,1.0,0.48299,0.0,9.0,9.0,9.0,1.0,puppet_01b.jpg,0.0,Orange.png,2.0,12,,,,,,,,,,,,,,,,,
0.0,1.0,0.51877,0.0,10.0,10.0,10.0,1.0,jalapeno_15s.jpg,0.0,Yellow.png,2.0,12,,,,,,,,,,,,,,,,,
0.0,1.0,0.944985,0.0,11.0,11.0,11.0,1.0,jalapeno_15s.jpg,0.0,Green.png,2.0,12,,,,,,,,,,,,,,,,,
0.0,1.0,0.54757,0.0,12.0,12.0,12.0,1.0,popcorn_09s.jpg,0.0,Blue.png,3.0,12,,,,,,,,,,,,,,,,,
0.0,1.0,0.996775,0.0,13.0,13.0,13.0,1.0,popcorn_09s.jpg,0.0,Purple.png,3.0,12,,,,,,,,,,,,,,,,,
0.0,1.0,0.682315,0.0,14.0,14.0,14.0,1.0,swordfish_05s.jpg,0.0,Red.png,3.0,12,,,,,,,,,,,,,,,,,
1.0,1.0,1.146225,0.0,15.0,15.0,15.0,1.0,popcorn_09s.jpg,1.0,Orange.png,3.0,12,,,,,,,,,,,,,,,,,
0.0,1.0,1.039195,0.0,16.0,16.0,16.0,1.0,police_car_01s.jpg,0.0,Yellow.png,3.0,12,,,,,,,,,,,,,,,,,
0.0,1.0,0.87645,0.0,17.0,17.0,17.0,1.0,ginger_09s.jpg,0.0,Green.png,3.0,12,,,,,,,,,,,,,,,,,
0.0,1.0,0.58371,0.0,18.0,18.0,18.0,1.0,cap_05s.jpg,0.0,Blue.png,4.0,12,,,,,,,,,,,,,,,,,
0.0,1.0,0.543145,0.0,19.0,19.0,19.0,1.0,ice-cream_cone_06s.jpg,0.0,Purple.png,4.0,12,,,,,,,,,,,,,,,,,
0.0,1.0,0.483745,0.0,20.0,20.0,20.0,1.0,purse_05s.jpg,0.0,Red.png,4.0,12,,,,,,,,,,,,,,,,,
0.0,1.0,0.462165,0.0,21.0,21.0,21.0,1.0,squirrel_02s.jpg,0.0,Orange.png,4.0,12,,,,,,,,,,,,,,,,,
0.0,1.0,0.76426,0.0,22.0,22.0,22.0,1.0,cap_05s.jpg,0.0,Yellow.png,4.0,12,,,,,,,,,,,,,,,,,
0.0,1.0,0.57867,0.0,23.0,23.0,23.0,1.0,pie_08s.jpg,0.0,Green.png,4.0,12,,,,,,,,,,,,,,,,,
0.0,1.0,0.52992,0.0,24.0,24.0,24.0,1.0,thread_08s.jpg,0.0,Blue.png,5.0,12,,,,,,,,,,,,,,,,,
0.0,1.0,0.56226,0.0,25.0,25.0,25.0,1.0,punch1_10s.jpg,0.0,Purple.png,5.0,12,,,,,,,,,,,,,,,,,
0.0,1.0,0.351225,0.0,26.0,26.0,26.0,1.0,cereal_04s.jpg,0.0,Red.png,5.0,12,,,,,,,,,,,,,,,,,
0.0,1.0,0.32637,0.0,27.0,27.0,27.0,1.0,espresso_01b.jpg,0.0,Orange.png,5.0,12,,,,,,,,,,,,,,,,,
1.0,1.0,0.72862,0.0,28.0,28.0,28.0,1.0,cereal_04s.jpg,1.0,Yellow.png,5.0,12,,,,,,,,,,,,,,,,,
0.0,1.0,1.833055,0.0,29.0,29.0,29.0,1.0,cereal_04s.jpg,0.0,Green.png,5.0,12,,,,,,,,,,,,,,,,,
0.0,1.0,0.66155,0.0,30.0,30.0,30.0,1.0,tube_top_03s.jpg,0.0,Blue.png,6.0,12,,,,,,,,,,,,,,,,,
0.0,1.0,0.60863,0.0,31.0,31.0,31.0,1.0,pepper2_21s.jpg,0.0,Purple.png,6.0,12,,,,,,,,,,,,,,,,,
0.0,1.0,0.598655,0.0,32.0,32.0,32.0,1.0,jersey_02s.jpg,0.0,Red.png,6.0,12,,,,,,,,,,,,,,,,,
0.0,1.0,0.51415,0.0,33.0,33.0,33.0,1.0,mussel_11s.jpg,0.0,Orange.png,6.0,12,,,,,,,,,,,,,,,,,
0.0,1.0,0.60971,0.0,34.0,34.0,34.0,1.0,toaster_03s.jpg,0.0,Yellow.png,6.0,12,,,,,,,,,,,,,,,,,
0.0,1.0,0.456525,0.0,35.0,35.0,35.0,1.0,tie_03s.jpg,0.0,Green.png,6.0,12,,,,,,,,,,,,,,,,,
,,,,,,,,,0.0,,,12,0.0,1.0,1.753745,0.0,0.0,0.0,0.0,1.0,ice-cream_cone_06s.jpg,police_car_01s.jpg,,,,,,,
,,,,,,,,,0.0,,,12,0.0,1.0,2.63795,0.0,1.0,1.0,1.0,1.0,turf_03s.jpg,pincushion_10s.jpg,,,,,,,
,,,,,,,,,0.0,,,12,1.0,0.0,1.561505,0.0,2.0,2.0,2.0,1.0,purse_05s.jpg,ginger_09s.jpg,,,,,,,
,,,,,,,,,1.0,,,12,0.0,0.0,2.143615,0.0,3.0,3.0,3.0,1.0,jersey_02s.jpg,tie_03s.jpg,,,,,,,
,,,,,,,,,0.0,,,12,0.0,1.0,2.89313,0.0,4.0,4.0,4.0,1.0,toaster_03s.jpg,pepper2_21s.jpg,,,,,,,
,,,,,,,,,0.0,,,12,0.0,1.0,1.86663,0.0,5.0,5.0,5.0,1.0,thread_08s.jpg,squirrel_02s.jpg,,,,,,,
,,,,,,,,,,,,12,,,,,,,,,,,0.0,4.0,4.0,4.0,1.0,new2backpresent_5_1.xlsx,new2back_compare_task_5_1.xlsx
0.0,1.0,1.073785,0.0,0.0,0.0,0.0,1.0,omelet_07s.jpg,0.0,Blue.png,1.0,12,,,,,,,,,,,,,,,,,
0.0,1.0,0.76834,0.0,1.0,1.0,1.0,1.0,popsicle_02s.jpg,0.0,Purple.png,1.0,12,,,,,,,,,,,,,,,,,
0.0,1.0,0.97272,0.0,2.0,2.0,2.0,1.0,letter_opener_03s.jpg,0.0,Red.png,1.0,12,,,,,,,,,,,,,,,,,
0.0,1.0,0.71788,0.0,3.0,3.0,3.0,1.0,diving_board_07s.jpg,0.0,Orange.png,1.0,12,,,,,,,,,,,,,,,,,
0.0,1.0,0.69467,0.0,4.0,4.0,4.0,1.0,omelet_07s.jpg,0.0,Yellow.png,1.0,12,,,,,,,,,,,,,,,,,
0.0,1.0,0.466105,0.0,5.0,5.0,5.0,1.0,letter_opener_03s.jpg,0.0,Green.png,1.0,12,,,,,,,,,,,,,,,,,
1.0,1.0,0.753115,0.0,6.0,6.0,6.0,1.0,omelet_07s.jpg,1.0,Blue.png,2.0,12,,,,,,,,,,,,,,,,,
0.0,1.0,0.597365,0.0,7.0,7.0,7.0,1.0,cape_11s.jpg,0.0,Purple.png,2.0,12,,,,,,,,,,,,,,,,,
1.0,1.0,0.529895,0.0,8.0,8.0,8.0,1.0,omelet_07s.jpg,1.0,Red.png,2.0,12,,,,,,,,,,,,,,,,,
0.0,1.0,0.535905,0.0,9.0,9.0,9.0,1.0,lantern_04s.jpg,0.0,Orange.png,2.0,12,,,,,,,,,,,,,,,,,
0.0,1.0,0.795545,0.0,10.0,10.0,10.0,1.0,leotard_08s.jpg,0.0,Yellow.png,2.0,12,,,,,,,,,,,,,,,,,
0.0,1.0,0.565255,0.0,11.0,11.0,11.0,1.0,pacifier_09s.jpg,0.0,Green.png,2.0,12,,,,,,,,,,,,,,,,,
0.0,1.0,0.435715,0.0,12.0,12.0,12.0,1.0,rocking_horse_03s.jpg,0.0,Blue.png,3.0,12,,,,,,,,,,,,,,,,,
0.0,1.0,0.583475,0.0,13.0,13.0,13.0,1.0,cardinal_07s.jpg,0.0,Purple.png,3.0,12,,,,,,,,,,,,,,,,,
0.0,1.0,0.719585,0.0,14.0,14.0,14.0,1.0,hyena_16s.jpg,0.0,Red.png,3.0,12,,,,,,,,,,,,,,,,,
0.0,1.0,0.441055,0.0,15.0,15.0,15.0,1.0,oil_02s.jpg,0.0,Orange.png,3.0,12,,,,,,,,,,,,,,,,,
0.0,1.0,0.46893,0.0,16.0,16.0,16.0,1.0,marshmallow_08s.jpg,0.0,Yellow.png,3.0,12,,,,,,,,,,,,,,,,,
0.0,0.0,1.01798,0.0,17.0,17.0,17.0,1.0,oil_02s.jpg,1.0,Green.png,3.0,12,,,,,,,,,,,,,,,,,
0.0,1.0,0.694925,0.0,18.0,18.0,18.0,1.0,omelet_07s.jpg,0.0,Blue.png,4.0,12,,,,,,,,,,,,,,,,,
0.0,0.0,0.753025,0.0,19.0,19.0,19.0,1.0,oil_02s.jpg,1.0,Purple.png,4.0,12,,,,,,,,,,,,,,,,,
0.0,1.0,0.635875,0.0,20.0,20.0,20.0,1.0,knitting_needle_04s.jpg,0.0,Red.png,4.0,12,,,,,,,,,,,,,,,,,
1.0,1.0,0.97077,0.0,21.0,21.0,21.0,1.0,oil_02s.jpg,1.0,Orange.png,4.0,12,,,,,,,,,,,,,,,,,
0.0,1.0,0.648295,0.0,22.0,22.0,22.0,1.0,ice_pack_09s.jpg,0.0,Yellow.png,4.0,12,,,,,,,,,,,,,,,,,
0.0,1.0,0.80359,0.0,23.0,23.0,23.0,1.0,peppermint_07s.jpg,0.0,Green.png,4.0,12,,,,,,,,,,,,,,,,,
0.0,1.0,0.569105,0.0,24.0,24.0,24.0,1.0,submarine_11n.jpg,0.0,Blue.png,5.0,12,,,,,,,,,,,,,,,,,
0.0,1.0,0.622775,0.0,25.0,25.0,25.0,1.0,seagull_01b.jpg,0.0,Purple.png,5.0,12,,,,,,,,,,,,,,,,,
0.0,1.0,0.525745,0.0,26.0,26.0,26.0,1.0,omelet_07s.jpg,0.0,Red.png,5.0,12,,,,,,,,,,,,,,,,,
0.0,1.0,0.54896,0.0,27.0,27.0,27.0,1.0,bonsai_07s.jpg,0.0,Orange.png,5.0,12,,,,,,,,,,,,,,,,,
0.0,1.0,0.728895,0.0,28.0,28.0,28.0,1.0,bonsai_07s.jpg,0.0,Yellow.png,5.0,12,,,,,,,,,,,,,,,,,
0.0,1.0,0.563345,0.0,29.0,29.0,29.0,1.0,omelet_07s.jpg,0.0,Green.png,5.0,12,,,,,,,,,,,,,,,,,
1.0,1.0,1.03688,0.0,30.0,30.0,30.0,1.0,bonsai_07s.jpg,1.0,Blue.png,6.0,12,,,,,,,,,,,,,,,,,
0.0,1.0,0.66185,0.0,31.0,31.0,31.0,1.0,quilt_03s.jpg,0.0,Purple.png,6.0,12,,,,,,,,,,,,,,,,,
0.0,1.0,0.5257,0.0,32.0,32.0,32.0,1.0,incense_02s.jpg,0.0,Red.png,6.0,12,,,,,,,,,,,,,,,,,
1.0,1.0,0.71896,0.0,33.0,33.0,33.0,1.0,quilt_03s.jpg,1.0,Orange.png,6.0,12,,,,,,,,,,,,,,,,,
1.0,1.0,0.909615,0.0,34.0,34.0,34.0,1.0,incense_02s.jpg,1.0,Yellow.png,6.0,12,,,,,,,,,,,,,,,,,
0.0,1.0,0.531695,0.0,35.0,35.0,35.0,1.0,incense_02s.jpg,0.0,Green.png,6.0,12,,,,,,,,,,,,,,,,,
,,,,,,,,,1.0,,,12,1.0,1.0,2.00351,0.0,0.0,0.0,0.0,1.0,pacifier_09s.jpg,hyena_16s.jpg,,,,,,,
,,,,,,,,,0.0,,,12,1.0,0.0,4.184425,0.0,1.0,1.0,1.0,1.0,peppermint_07s.jpg,knitting_needle_04s.jpg,,,,,,,
,,,,,,,,,1.0,,,12,0.0,0.0,2.558525,0.0,2.0,2.0,2.0,1.0,ice_pack_09s.jpg,seagull_01b.jpg,,,,,,,
,,,,,,,,,0.0,,,12,1.0,0.0,1.098185,0.0,3.0,3.0,3.0,1.0,marshmallow_08s.jpg,cardinal_07s.jpg,,,,,,,
,,,,,,,,,1.0,,,12,1.0,1.0,2.76027,0.0,4.0,4.0,4.0,1.0,cape_11s.jpg,leotard_08s.jpg,,,,,,,
,,,,,,,,,1.0,,,12,1.0,1.0,1.401545,0.0,5.0,5.0,5.0,1.0,lantern_04s.jpg,rocking_horse_03s.jpg,,,,,,,
,,,,,,,,,,,,12,,,,,,,,,,,0.0,5.0,5.0,5.0,1.0,new2backpresent_6_1.xlsx,new2back_compare_task_6_1.xlsx
0.0,1.0,1.13683,0.0,0.0,0.0,0.0,1.0,petri_dish_12s.jpg,0.0,Blue.png,1.0,12,,,,,,,,,,,,,,,,,
0.0,1.0,1.61761,0.0,1.0,1.0,1.0,1.0,toothpaste_12s.jpg,0.0,Purple.png,1.0,12,,,,,,,,,,,,,,,,,
0.0,1.0,0.39797,0.0,2.0,2.0,2.0,1.0,medal_04s.jpg,0.0,Red.png,1.0,12,,,,,,,,,,,,,,,,,
0.0,1.0,0.395535,0.0,3.0,3.0,3.0,1.0,potholder_02s.jpg,0.0,Orange.png,1.0,12,,,,,,,,,,,,,,,,,
0.0,1.0,0.502915,0.0,4.0,4.0,4.0,1.0,puck_06s.jpg,0.0,Yellow.png,1.0,12,,,,,,,,,,,,,,,,,
0.0,1.0,0.41105,0.0,5.0,5.0,5.0,1.0,bagel_15s.jpg,0.0,Green.png,1.0,12,,,,,,,,,,,,,,,,,
0.0,1.0,0.42775,0.0,6.0,6.0,6.0,1.0,golf_club_03s.jpg,0.0,Blue.png,2.0,12,,,,,,,,,,,,,,,,,
0.0,1.0,0.72864,0.0,7.0,7.0,7.0,1.0,golf_club_03s.jpg,0.0,Purple.png,2.0,12,,,,,,,,,,,,,,,,,
1.0,1.0,0.66595,0.0,8.0,8.0,8.0,1.0,golf_club_03s.jpg,1.0,Red.png,2.0,12,,,,,,,,,,,,,,,,,
0.0,1.0,0.566715,0.0,9.0,9.0,9.0,1.0,inhaler_01b.jpg,0.0,Orange.png,2.0,12,,,,,,,,,,,,,,,,,
1.0,1.0,0.614525,0.0,10.0,10.0,10.0,1.0,golf_club_03s.jpg,1.0,Yellow.png,2.0,12,,,,,,,,,,,,,,,,,
0.0,1.0,0.4993,0.0,11.0,11.0,11.0,1.0,tiger_06s.jpg,0.0,Green.png,2.0,12,,,,,,,,,,,,,,,,,
0.0,1.0,0.516245,0.0,12.0,12.0,12.0,1.0,medal_04s.jpg,0.0,Blue.png,3.0,12,,,,,,,,,,,,,,,,,
0.0,1.0,0.566465,0.0,13.0,13.0,13.0,1.0,medal_04s.jpg,0.0,Purple.png,3.0,12,,,,,,,,,,,,,,,,,
1.0,1.0,0.6001,0.0,14.0,14.0,14.0,1.0,medal_04s.jpg,1.0,Red.png,3.0,12,,,,,,,,,,,,,,,,,
0.0,1.0,0.86708,0.0,15.0,15.0,15.0,1.0,licorice_06s.jpg,0.0,Orange.png,3.0,12,,,,,,,,,,,,,,,,,
1.0,1.0,0.681665,0.0,16.0,16.0,16.0,1.0,medal_04s.jpg,1.0,Yellow.png,3.0,12,,,,,,,,,,,,,,,,,
0.0,1.0,0.467555,0.0,17.0,17.0,17.0,1.0,frog_09s.jpg,0.0,Green.png,3.0,12,,,,,,,,,,,,,,,,,
0.0,1.0,0.6954,0.0,18.0,18.0,18.0,1.0,laser_pointer_02s.jpg,0.0,Blue.png,4.0,12,,,,,,,,,,,,,,,,,
0.0,1.0,0.761855,0.0,19.0,19.0,19.0,1.0,treasure_08s.jpg,0.0,Purple.png,4.0,12,,,,,,,,,,,,,,,,,
0.0,1.0,0.63644,0.0,20.0,20.0,20.0,1.0,padlock_07s.jpg,0.0,Red.png,4.0,12,,,,,,,,,,,,,,,,,
0.0,1.0,0.494285,0.0,21.0,21.0,21.0,1.0,panda_02s.jpg,0.0,Orange.png,4.0,12,,,,,,,,,,,,,,,,,
0.0,1.0,0.558085,0.0,22.0,22.0,22.0,1.0,plunger_08s.jpg,0.0,Yellow.png,4.0,12,,,,,,,,,,,,,,,,,
0.0,1.0,0.4148,0.0,23.0,23.0,23.0,1.0,pancake_12s.jpg,0.0,Green.png,4.0,12,,,,,,,,,,,,,,,,,
0.0,1.0,0.356325,0.0,24.0,24.0,24.0,1.0,fire_pit_10s.jpg,0.0,Blue.png,5.0,12,,,,,,,,,,,,,,,,,
0.0,1.0,0.443705,0.0,25.0,25.0,25.0,1.0,bubble_01b.jpg,0.0,Purple.png,5.0,12,,,,,,,,,,,,,,,,,
0.0,1.0,0.359445,0.0,26.0,26.0,26.0,1.0,bubble_01b.jpg,0.0,Red.png,5.0,12,,,,,,,,,,,,,,,,,
1.0,1.0,0.521125,0.0,27.0,27.0,27.0,1.0,bubble_01b.jpg,1.0,Orange.png,5.0,12,,,,,,,,,,,,,,,,,
1.0,1.0,1.41739,0.0,28.0,28.0,28.0,1.0,bubble_01b.jpg,1.0,Yellow.png,5.0,12,,,,,,,,,,,,,,,,,
0.0,1.0,0.617035,0.0,29.0,29.0,29.0,1.0,power_line_08s.jpg,0.0,Green.png,5.0,12,,,,,,,,,,,,,,,,,
0.0,1.0,0.68556,0.0,30.0,30.0,30.0,1.0,golf_club_03s.jpg,0.0,Blue.png,6.0,12,,,,,,,,,,,,,,,,,
0.0,1.0,0.647505,0.0,31.0,31.0,31.0,1.0,kilt_18s.jpg,0.0,Purple.png,6.0,12,,,,,,,,,,,,,,,,,
0.0,1.0,0.679625,0.0,32.0,32.0,32.0,1.0,tupperware_09s.jpg,0.0,Red.png,6.0,12,,,,,,,,,,,,,,,,,
0.0,1.0,0.51512,0.0,33.0,33.0,33.0,1.0,go-kart_10s.jpg,0.0,Orange.png,6.0,12,,,,,,,,,,,,,,,,,
0.0,1.0,0.620325,0.0,34.0,34.0,34.0,1.0,bottle_opener_11s.jpg,0.0,Yellow.png,6.0,12,,,,,,,,,,,,,,,,,
1.0,1.0,0.69467,0.0,35.0,35.0,35.0,1.0,go-kart_10s.jpg,1.0,Green.png,6.0,12,,,,,,,,,,,,,,,,,
,,,,,,,,,1.0,,,12,1.0,1.0,2.04141,0.0,0.0,0.0,0.0,1.0,toothpaste_12s.jpg,puck_06s.jpg,,,,,,,
,,,,,,,,,0.0,,,12,0.0,1.0,6.596235,0.0,1.0,1.0,1.0,1.0,padlock_07s.jpg,frog_09s.jpg,,,,,,,
,,,,,,,,,0.0,,,12,1.0,0.0,2.15954,0.0,2.0,2.0,2.0,1.0,plunger_08s.jpg,treasure_08s.jpg,,,,,,,
,,,,,,,,,1.0,,,12,1.0,1.0,1.342895,0.0,3.0,3.0,3.0,1.0,licorice_06s.jpg,laser_pointer_02s.jpg,,,,,,,
,,,,,,,,,1.0,,,12,1.0,1.0,0.96873,0.0,4.0,4.0,4.0,1.0,petri_dish_12s.jpg,potholder_02s.jpg,,,,,,,
,,,,,,,,,0.0,,,12,0.0,1.0,3.9369,0.0,5.0,5.0,5.0,1.0,tupperware_09s.jpg,power_line_08s.jpg,,,,,,,
,,,,,,,,,,,,12,,,,,,,,,,,0.0,6.0,6.0,6.0,1.0,new2backpresent_7_1.xlsx,new2back_compare_task_7_1.xlsx
0.0,1.0,1.371435,0.0,0.0,0.0,0.0,1.0,toad_09s.jpg,0.0,Blue.png,1.0,12,,,,,,,,,,,,,,,,,
0.0,1.0,0.930685,0.0,1.0,1.0,1.0,1.0,toad_09s.jpg,0.0,Purple.png,1.0,12,,,,,,,,,,,,,,,,,
1.0,1.0,0.86812,0.0,2.0,2.0,2.0,1.0,toad_09s.jpg,1.0,Red.png,1.0,12,,,,,,,,,,,,,,,,,
0.0,1.0,0.48428,0.0,3.0,3.0,3.0,1.0,lamb_04s.jpg,0.0,Orange.png,1.0,12,,,,,,,,,,,,,,,,,
1.0,1.0,0.62906,0.0,4.0,4.0,4.0,1.0,toad_09s.jpg,1.0,Yellow.png,1.0,12,,,,,,,,,,,,,,,,,
0.0,1.0,0.434625,0.0,5.0,5.0,5.0,1.0,possum_09s.jpg,0.0,Green.png,1.0,12,,,,,,,,,,,,,,,,,
0.0,1.0,0.48201,0.0,6.0,6.0,6.0,1.0,reindeer_08s.jpg,0.0,Blue.png,2.0,12,,,,,,,,,,,,,,,,,
0.0,1.0,0.69485,0.0,7.0,7.0,7.0,1.0,reindeer_08s.jpg,0.0,Purple.png,2.0,12,,,,,,,,,,,,,,,,,
0.0,1.0,0.631815,0.0,8.0,8.0,8.0,1.0,knot_01b.jpg,0.0,Red.png,2.0,12,,,,,,,,,,,,,,,,,
1.0,1.0,0.684595,0.0,9.0,9.0,9.0,1.0,reindeer_08s.jpg,1.0,Orange.png,2.0,12,,,,,,,,,,,,,,,,,
0.0,1.0,0.704725,0.0,10.0,10.0,10.0,1.0,pan_02s.jpg,0.0,Yellow.png,2.0,12,,,,,,,,,,,,,,,,,
0.0,1.0,0.398235,0.0,11.0,11.0,11.0,1.0,ladle_04s.jpg,0.0,Green.png,2.0,12,,,,,,,,,,,,,,,,,
0.0,1.0,0.41528,0.0,12.0,12.0,12.0,1.0,tuxedo_01b.jpg,0.0,Blue.png,3.0,12,,,,,,,,,,,,,,,,,
0.0,1.0,0.566065,0.0,13.0,13.0,13.0,1.0,lemonade_04s.jpg,0.0,Purple.png,3.0,12,,,,,,,,,,,,,,,,,
0.0,1.0,0.520285,0.0,14.0,14.0,14.0,1.0,cobra_05s.jpg,0.0,Red.png,3.0,12,,,,,,,,,,,,,,,,,
0.0,1.0,0.487875,0.0,15.0,15.0,15.0,1.0,pocketknife_12s.jpg,0.0,Orange.png,3.0,12,,,,,,,,,,,,,,,,,
0.0,1.0,0.749175,0.0,16.0,16.0,16.0,1.0,kettle_08s.jpg,0.0,Yellow.png,3.0,12,,,,,,,,,,,,,,,,,
0.0,1.0,0.378715,0.0,17.0,17.0,17.0,1.0,spider_web_03s.jpg,0.0,Green.png,3.0,12,,,,,,,,,,,,,,,,,
0.0,1.0,0.43381,0.0,18.0,18.0,18.0,1.0,pretzel_09s.jpg,0.0,Blue.png,4.0,12,,,,,,,,,,,,,,,,,
0.0,1.0,0.358835,0.0,19.0,19.0,19.0,1.0,rock_08s.jpg,0.0,Purple.png,4.0,12,,,,,,,,,,,,,,,,,
0.0,1.0,0.356095,0.0,20.0,20.0,20.0,1.0,boar_10s.jpg,0.0,Red.png,4.0,12,,,,,,,,,,,,,,,,,
0.0,1.0,0.44478,0.0,21.0,21.0,21.0,1.0,sunglasses_11s.jpg,0.0,Orange.png,4.0,12,,,,,,,,,,,,,,,,,
1.0,1.0,2.11334,0.0,22.0,22.0,22.0,1.0,boar_10s.jpg,1.0,Yellow.png,4.0,12,,,,,,,,,,,,,,,,,
0.0,1.0,0.625505,0.0,23.0,23.0,23.0,1.0,smoothie_09s.jpg,0.0,Green.png,4.0,12,,,,,,,,,,,,,,,,,
0.0,1.0,0.40934,0.0,24.0,24.0,24.0,1.0,latch_15s.jpg,0.0,Blue.png,5.0,12,,,,,,,,,,,,,,,,,
0.0,1.0,0.6178,0.0,25.0,25.0,25.0,1.0,amber_04s.jpg,0.0,Purple.png,5.0,12,,,,,,,,,,,,,,,,,
0.0,1.0,0.70441,0.0,26.0,26.0,26.0,1.0,amber_04s.jpg,0.0,Red.png,5.0,12,,,,,,,,,,,,,,,,,
0.0,1.0,0.52007,0.0,27.0,27.0,27.0,1.0,tennis_ball_06s.jpg,0.0,Orange.png,5.0,12,,,,,,,,,,,,,,,,,
1.0,1.0,0.64718,0.0,28.0,28.0,28.0,1.0,amber_04s.jpg,1.0,Yellow.png,5.0,12,,,,,,,,,,,,,,,,,
0.0,1.0,0.531355,0.0,29.0,29.0,29.0,1.0,milk_02s.jpg,0.0,Green.png,5.0,12,,,,,,,,,,,,,,,,,
0.0,1.0,0.42566,0.0,30.0,30.0,30.0,1.0,coat_rack_01b.jpg,0.0,Blue.png,6.0,12,,,,,,,,,,,,,,,,,
0.0,1.0,0.49471,0.0,31.0,31.0,31.0,1.0,thorn_13s.jpg,0.0,Purple.png,6.0,12,,,,,,,,,,,,,,,,,
1.0,1.0,0.729215,0.0,32.0,32.0,32.0,1.0,coat_rack_01b.jpg,1.0,Red.png,6.0,12,,,,,,,,,,,,,,,,,
0.0,1.0,0.450875,0.0,33.0,33.0,33.0,1.0,razor_blade_01b.jpg,0.0,Orange.png,6.0,12,,,,,,,,,,,,,,,,,
0.0,1.0,1.67496,0.0,34.0,34.0,34.0,1.0,lid_10s.jpg,0.0,Yellow.png,6.0,12,,,,,,,,,,,,,,,,,
0.0,1.0,0.75489,0.0,35.0,35.0,35.0,1.0,lid_10s.jpg,0.0,Green.png,6.0,12,,,,,,,,,,,,,,,,,
,,,,,,,,,0.0,,,12,0.0,1.0,1.514245,0.0,0.0,0.0,0.0,1.0,pocketknife_12s.jpg,tuxedo_01b.jpg,,,,,,,
,,,,,,,,,1.0,,,12,1.0,1.0,1.018625,0.0,1.0,1.0,1.0,1.0,possum_09s.jpg,knot_01b.jpg,,,,,,,
,,,,,,,,,1.0,,,12,1.0,1.0,1.83562,0.0,2.0,2.0,2.0,1.0,pan_02s.jpg,lemonade_04s.jpg,,,,,,,
,,,,,,,,,0.0,,,12,0.0,1.0,1.89354,0.0,3.0,3.0,3.0,1.0,tennis_ball_06s.jpg,latch_15s.jpg,,,,,,,
,,,,,,,,,0.0,,,12,1.0,0.0,1.18533,0.0,4.0,4.0,4.0,1.0,rock_08s.jpg,kettle_08s.jpg,,,,,,,
,,,,,,,,,1.0,,,12,1.0,1.0,1.56996,0.0,5.0,5.0,5.0,1.0,cobra_05s.jpg,spider_web_03s.jpg,,,,,,,
,,,,,,,,,,,,12,,,,,,,,,,,0.0,7.0,7.0,7.0,1.0,new2backpresent_8_1.xlsx,new2back_compare_task_8_1.xlsx
0.0,1.0,1.06991,0.0,0.0,0.0,0.0,1.0,recliner_02s.jpg,0.0,Blue.png,1.0,12,,,,,,,,,,,,,,,,,
0.0,1.0,0.92491,0.0,1.0,1.0,1.0,1.0,lava_02s.jpg,0.0,Purple.png,1.0,12,,,,,,,,,,,,,,,,,
0.0,1.0,0.61857,0.0,2.0,2.0,2.0,1.0,quesadilla_07s.jpg,0.0,Red.png,1.0,12,,,,,,,,,,,,,,,,,
0.0,1.0,0.492105,0.0,3.0,3.0,3.0,1.0,chalice_10s.jpg,0.0,Orange.png,1.0,12,,,,,,,,,,,,,,,,,
0.0,1.0,0.48052,0.0,4.0,4.0,4.0,1.0,tulip_02s.jpg,0.0,Yellow.png,1.0,12,,,,,,,,,,,,,,,,,
0.0,1.0,0.46872,0.0,5.0,5.0,5.0,1.0,quesadilla_07s.jpg,0.0,Green.png,1.0,12,,,,,,,,,,,,,,,,,
0.0,1.0,0.514375,0.0,6.0,6.0,6.0,1.0,lamppost_09s.jpg,0.0,Blue.png,2.0,12,,,,,,,,,,,,,,,,,
0.0,1.0,0.38904,0.0,7.0,7.0,7.0,1.0,chopsticks_08s.jpg,0.0,Purple.png,2.0,12,,,,,,,,,,,,,,,,,
0.0,1.0,0.393295,0.0,8.0,8.0,8.0,1.0,refrigerator_07s.jpg,0.0,Red.png,2.0,12,,,,,,,,,,,,,,,,,
1.0,1.0,0.763795,0.0,9.0,9.0,9.0,1.0,chopsticks_08s.jpg,1.0,Orange.png,2.0,12,,,,,,,,,,,,,,,,,
0.0,1.0,0.433865,0.0,10.0,10.0,10.0,1.0,paper_towel_03s.jpg,0.0,Yellow.png,2.0,12,,,,,,,,,,,,,,,,,
0.0,1.0,0.361495,0.0,11.0,11.0,11.0,1.0,flask_04s.jpg,0.0,Green.png,2.0,12,,,,,,,,,,,,,,,,,
0.0,1.0,0.481985,0.0,12.0,12.0,12.0,1.0,pantyhose_07s.jpg,0.0,Blue.png,3.0,12,,,,,,,,,,,,,,,,,
1.0,1.0,0.767075,0.0,13.0,13.0,13.0,1.0,flask_04s.jpg,1.0,Purple.png,3.0,12,,,,,,,,,,,,,,,,,
0.0,1.0,0.461685,0.0,14.0,14.0,14.0,1.0,chopsticks_08s.jpg,0.0,Red.png,3.0,12,,,,,,,,,,,,,,,,,
0.0,1.0,0.499155,0.0,15.0,15.0,15.0,1.0,seahorse_13s.jpg,0.0,Orange.png,3.0,12,,,,,,,,,,,,,,,,,
0.0,1.0,0.382255,0.0,16.0,16.0,16.0,1.0,pencil_sharpener_09n.jpg,0.0,Yellow.png,3.0,12,,,,,,,,,,,,,,,,,
0.0,1.0,0.67055,0.0,17.0,17.0,17.0,1.0,clover_04s.jpg,0.0,Green.png,3.0,12,,,,,,,,,,,,,,,,,
1.0,1.0,0.56313,0.0,18.0,18.0,18.0,1.0,pencil_sharpener_09n.jpg,1.0,Blue.png,4.0,12,,,,,,,,,,,,,,,,,
0.0,1.0,1.140725,0.0,19.0,19.0,19.0,1.0,fishhook_06s.jpg,0.0,Purple.png,4.0,12,,,,,,,,,,,,,,,,,
0.0,1.0,0.472675,0.0,20.0,20.0,20.0,1.0,clover_04s.jpg,0.0,Red.png,4.0,12,,,,,,,,,,,,,,,,,
0.0,1.0,0.493545,0.0,21.0,21.0,21.0,1.0,stopwatch_04s.jpg,0.0,Orange.png,4.0,12,,,,,,,,,,,,,,,,,
0.0,1.0,0.435075,0.0,22.0,22.0,22.0,1.0,comic_book_02s.jpg,0.0,Yellow.png,4.0,12,,,,,,,,,,,,,,,,,
0.0,1.0,0.46101,0.0,23.0,23.0,23.0,1.0,lab_coat_11s.jpg,0.0,Green.png,4.0,12,,,,,,,,,,,,,,,,,
0.0,1.0,0.45136,0.0,24.0,24.0,24.0,1.0,bolo_tie_08s.jpg,0.0,Blue.png,5.0,12,,,,,,,,,,,,,,,,,
0.0,1.0,0.36049,0.0,25.0,25.0,25.0,1.0,teacup_07s.jpg,0.0,Purple.png,5.0,12,,,,,,,,,,,,,,,,,
0.0,1.0,0.359505,0.0,26.0,26.0,26.0,1.0,eyedropper_12s.jpg,0.0,Red.png,5.0,12,,,,,,,,,,,,,,,,,
0.0,1.0,0.37034,0.0,27.0,27.0,27.0,1.0,frame_06s.jpg,0.0,Orange.png,5.0,12,,,,,,,,,,,,,,,,,
0.0,1.0,0.47227,0.0,28.0,28.0,28.0,1.0,treadmill_06s.jpg,0.0,Yellow.png,5.0,12,,,,,,,,,,,,,,,,,
0.0,1.0,0.63356,0.0,29.0,29.0,29.0,1.0,mug_06s.jpg,0.0,Green.png,5.0,12,,,,,,,,,,,,,,,,,
0.0,1.0,1.036725,0.0,30.0,30.0,30.0,1.0,mug_06s.jpg,0.0,Blue.png,6.0,12,,,,,,,,,,,,,,,,,
1.0,1.0,0.7835,0.0,31.0,31.0,31.0,1.0,mug_06s.jpg,1.0,Purple.png,6.0,12,,,,,,,,,,,,,,,,,
0.0,1.0,0.89808,0.0,32.0,32.0,32.0,1.0,chip_04s.jpg,0.0,Red.png,6.0,12,,,,,,,,,,,,,,,,,
0.0,1.0,0.777875,0.0,33.0,33.0,33.0,1.0,gazelle_10s.jpg,0.0,Orange.png,6.0,12,,,,,,,,,,,,,,,,,
1.0,1.0,1.146135,0.0,34.0,34.0,34.0,1.0,chip_04s.jpg,1.0,Yellow.png,6.0,12,,,,,,,,,,,,,,,,,
0.0,1.0,0.7643,0.0,35.0,35.0,35.0,1.0,quill_09s.jpg,0.0,Green.png,6.0,12,,,,,,,,,,,,,,,,,
,,,,,,,,,0.0,,,12,0.0,1.0,1.85837,0.0,0.0,0.0,0.0,1.0,bolo_tie_08s.jpg,stopwatch_04s.jpg,,,,,,,
,,,,,,,,,0.0,,,12,1.0,0.0,0.874885,0.0,1.0,1.0,1.0,1.0,lamppost_09s.jpg,chalice_10s.jpg,,,,,,,
,,,,,,,,,0.0,,,12,0.0,1.0,2.335545,0.0,2.0,2.0,2.0,1.0,eyedropper_12s.jpg,lab_coat_11s.jpg,,,,,,,
,,,,,,,,,1.0,,,12,1.0,1.0,0.82281,0.0,3.0,3.0,3.0,1.0,lava_02s.jpg,tulip_02s.jpg,,,,,,,
,,,,,,,,,0.0,,,12,0.0,1.0,2.475055,0.0,4.0,4.0,4.0,1.0,seahorse_13s.jpg,pantyhose_07s.jpg,,,,,,,
,,,,,,,,,1.0,,,12,1.0,1.0,1.924745,0.0,5.0,5.0,5.0,1.0,fishhook_06s.jpg,comic_book_02s.jpg,,,,,,,
,,,,,,,,,,,,12,,,,,,,,,,,0.0,8.0,8.0,8.0,1.0,new2backpresent_9_1.xlsx,new2back_compare_task_9_1.xlsx
