key_resp.keys,key_resp.corr,key_resp.rt,present_segment.thisRepN,present_segment.thisTrialN,present_segment.thisN,present_segment.thisIndex,present_segment.ran,pictures,answer,clock,segment,participant,key_resp_2.keys,key_resp_2.corr,key_resp_2.rt,compare_segment.thisRepN,compare_segment.thisTrialN,compare_segment.thisN,compare_segment.thisIndex,compare_segment.ran,item_a,item_b,clock_conditions.thisRepN,clock_conditions.thisTrialN,clock_conditions.thisN,clock_conditions.thisIndex,clock_conditions.ran,present,compare
0.0,1.0,0.639,0.0,0.0,0.0,0.0,1.0,insole_11s.jpg,0.0,Blue.png,1.0,26,,,,,,,,,,,,,,,,,
0.0,1.0,1.45508,0.0,1.0,1.0,1.0,1.0,tupperware_09s.jpg,0.0,Purple.png,1.0,26,,,,,,,,,,,,,,,,,
0.0,1.0,0.971585,0.0,2.0,2.0,2.0,1.0,tupperware_09s.jpg,0.0,Red.png,1.0,26,,,,,,,,,,,,,,,,,
0.0,1.0,0.906815,0.0,3.0,3.0,3.0,1.0,fox_13s.jpg,0.0,Orange.png,1.0,26,,,,,,,,,,,,,,,,,
1.0,1.0,1.486975,0.0,4.0,4.0,4.0,1.0,tupperware_09s.jpg,1.0,Yellow.png,1.0,26,,,,,,,,,,,,,,,,,
0.0,1.0,1.25024,0.0,5.0,5.0,5.0,1.0,lavender_10s.jpg,0.0,Green.png,1.0,26,,,,,,,,,,,,,,,,,
1.0,1.0,1.113885,0.0,6.0,6.0,6.0,1.0,tupperware_09s.jpg,1.0,Blue.png,2.0,26,,,,,,,,,,,,,,,,,
0.0,1.0,1.301115,0.0,7.0,7.0,7.0,1.0,poinsettia_04s.jpg,0.0,Purple.png,2.0,26,,,,,,,,,,,,,,,,,
0.0,1.0,1.21252,0.0,8.0,8.0,8.0,1.0,margarita_03s.jpg,0.0,Red.png,2.0,26,,,,,,,,,,,,,,,,,
0.0,1.0,1.03055,0.0,9.0,9.0,9.0,1.0,toothpaste_12s.jpg,0.0,Orange.png,2.0,26,,,,,,,,,,,,,,,,,
0.0,1.0,1.46668,0.0,10.0,10.0,10.0,1.0,ladder_15s.jpg,0.0,Yellow.png,2.0,26,,,,,,,,,,,,,,,,,
0.0,1.0,0.94258,0.0,11.0,11.0,11.0,1.0,pocketknife_12s.jpg,0.0,Green.png,2.0,26,,,,,,,,,,,,,,,,,
0.0,1.0,1.033215,0.0,12.0,12.0,12.0,1.0,spoon02a.jpg,0.0,Blue.png,3.0,26,,,,,,,,,,,,,,,,,
0.0,1.0,1.29469,0.0,13.0,13.0,13.0,1.0,mango_09s.jpg,0.0,Purple.png,3.0,26,,,,,,,,,,,,,,,,,
0.0,1.0,1.0776,0.0,14.0,14.0,14.0,1.0,chalice_10s.jpg,0.0,Red.png,3.0,26,,,,,,,,,,,,,,,,,
0.0,1.0,1.295015,0.0,15.0,15.0,15.0,1.0,pocketknife_12s.jpg,0.0,Orange.png,3.0,26,,,,,,,,,,,,,,,,,
0.0,1.0,1.546495,0.0,16.0,16.0,16.0,1.0,abacus_12s.jpg,0.0,Yellow.png,3.0,26,,,,,,,,,,,,,,,,,
0.0,1.0,1.603255,0.0,17.0,17.0,17.0,1.0,abacus_12s.jpg,0.0,Green.png,3.0,26,,,,,,,,,,,,,,,,,
1.0,1.0,0.767055,0.0,18.0,18.0,18.0,1.0,abacus_12s.jpg,1.0,Blue.png,4.0,26,,,,,,,,,,,,,,,,,
1.0,1.0,1.67363,0.0,19.0,19.0,19.0,1.0,abacus_12s.jpg,1.0,Purple.png,4.0,26,,,,,,,,,,,,,,,,,
0.0,1.0,1.33861,0.0,20.0,20.0,20.0,1.0,sushi_08s.jpg,0.0,Red.png,4.0,26,,,,,,,,,,,,,,,,,
0.0,1.0,1.24226,0.0,21.0,21.0,21.0,1.0,funnel_01b.jpg,0.0,Orange.png,4.0,26,,,,,,,,,,,,,,,,,
0.0,1.0,1.58184,0.0,22.0,22.0,22.0,1.0,rooster_03s.jpg,0.0,Yellow.png,4.0,26,,,,,,,,,,,,,,,,,
0.0,1.0,1.476035,0.0,23.0,23.0,23.0,1.0,ukulele_02s.jpg,0.0,Green.png,4.0,26,,,,,,,,,,,,,,,,,
0.0,1.0,1.480715,0.0,24.0,24.0,24.0,1.0,pocketknife_12s.jpg,0.0,Blue.png,5.0,26,,,,,,,,,,,,,,,,,
0.0,1.0,1.61869,0.0,25.0,25.0,25.0,1.0,pocketknife_12s.jpg,0.0,Purple.png,5.0,26,,,,,,,,,,,,,,,,,
1.0,1.0,1.14187,0.0,26.0,26.0,26.0,1.0,pocketknife_12s.jpg,1.0,Red.png,5.0,26,,,,,,,,,,,,,,,,,
0.0,1.0,1.217985,0.0,27.0,27.0,27.0,1.0,stapler_01b.jpg,0.0,Orange.png,5.0,26,,,,,,,,,,,,,,,,,
0.0,1.0,1.123625,0.0,28.0,28.0,28.0,1.0,birthday_cake_09s.jpg,0.0,Yellow.png,5.0,26,,,,,,,,,,,,,,,,,
0.0,1.0,1.093065,0.0,29.0,29.0,29.0,1.0,meatball_13s.jpg,0.0,Green.png,5.0,26,,,,,,,,,,,,,,,,,
0.0,1.0,1.329785,0.0,30.0,30.0,30.0,1.0,cape_11s.jpg,0.0,Blue.png,6.0,26,,,,,,,,,,,,,,,,,
0.0,1.0,1.494135,0.0,31.0,31.0,31.0,1.0,cape_11s.jpg,0.0,Purple.png,6.0,26,,,,,,,,,,,,,,,,,
0.0,1.0,1.393485,0.0,32.0,32.0,32.0,1.0,lizard_10n.jpg,0.0,Red.png,6.0,26,,,,,,,,,,,,,,,,,
0.0,1.0,1.439825,0.0,33.0,33.0,33.0,1.0,refrigerator_07s.jpg,0.0,Orange.png,6.0,26,,,,,,,,,,,,,,,,,
0.0,1.0,1.648365,0.0,34.0,34.0,34.0,1.0,refrigerator_07s.jpg,0.0,Yellow.png,6.0,26,,,,,,,,,,,,,,,,,
0.0,1.0,1.539695,0.0,35.0,35.0,35.0,1.0,touchpad_11s.jpg,0.0,Green.png,6.0,26,,,,,,,,,,,,,,,,,
,,,,,,,,,1.0,,,26,1.0,1.0,1.948805,0.0,0.0,0.0,0.0,1.0,lavender_10s.jpg,margarita_03s.jpg,,,,,,,
,,,,,,,,,1.0,,,26,1.0,1.0,2.29001,0.0,1.0,1.0,1.0,1.0,toothpaste_12s.jpg,spoon02a.jpg,,,,,,,
,,,,,,,,,1.0,,,26,1.0,1.0,1.910375,0.0,2.0,2.0,2.0,1.0,ladder_15s.jpg,mango_09s.jpg,,,,,,,
,,,,,,,,,0.0,,,26,0.0,1.0,1.466245,0.0,3.0,3.0,3.0,1.0,fox_13s.jpg,insole_11s.jpg,,,,,,,
,,,,,,,,,0.0,,,26,0.0,1.0,1.825715,0.0,4.0,4.0,4.0,1.0,ukulele_02s.jpg,sushi_08s.jpg,,,,,,,
,,,,,,,,,0.0,,,26,0.0,1.0,2.52996,0.0,5.0,5.0,5.0,1.0,touchpad_11s.jpg,lizard_10n.jpg,,,,,,,
,,,,,,,,,,,,26,,,,,,,,,,,0.0,0.0,0.0,0.0,1.0,new2backpresent_1_2.xlsx,new2back_compare_task_1_2.xlsx
0.0,1.0,1.703285,0.0,0.0,0.0,0.0,1.0,juicer2_06s.jpg,0.0,Blue.png,1.0,26,,,,,,,,,,,,,,,,,
0.0,1.0,1.09974,0.0,1.0,1.0,1.0,1.0,juicer2_06s.jpg,0.0,Purple.png,1.0,26,,,,,,,,,,,,,,,,,
0.0,1.0,1.390735,0.0,2.0,2.0,2.0,1.0,tambourine_06s.jpg,0.0,Red.png,1.0,26,,,,,,,,,,,,,,,,,
0.0,1.0,1.04244,0.0,3.0,3.0,3.0,1.0,luggage_08s.jpg,0.0,Orange.png,1.0,26,,,,,,,,,,,,,,,,,
1.0,1.0,2.05152,0.0,4.0,4.0,4.0,1.0,tambourine_06s.jpg,1.0,Yellow.png,1.0,26,,,,,,,,,,,,,,,,,
0.0,1.0,1.98946,0.0,5.0,5.0,5.0,1.0,towel_rack_04s.jpg,0.0,Green.png,1.0,26,,,,,,,,,,,,,,,,,
0.0,1.0,1.062955,0.0,6.0,6.0,6.0,1.0,crayon_09s.jpg,0.0,Blue.png,2.0,26,,,,,,,,,,,,,,,,,
0.0,1.0,1.365725,0.0,7.0,7.0,7.0,1.0,gargoyle_08s.jpg,0.0,Purple.png,2.0,26,,,,,,,,,,,,,,,,,
0.0,1.0,1.75837,0.0,8.0,8.0,8.0,1.0,boar_10s.jpg,0.0,Red.png,2.0,26,,,,,,,,,,,,,,,,,
1.0,1.0,1.201025,0.0,9.0,9.0,9.0,1.0,gargoyle_08s.jpg,1.0,Orange.png,2.0,26,,,,,,,,,,,,,,,,,
0.0,1.0,1.178005,0.0,10.0,10.0,10.0,1.0,limousine_12s.jpg,0.0,Yellow.png,2.0,26,,,,,,,,,,,,,,,,,
0.0,1.0,1.76858,0.0,11.0,11.0,11.0,1.0,outlet_10s.jpg,0.0,Green.png,2.0,26,,,,,,,,,,,,,,,,,
0.0,1.0,1.130385,0.0,12.0,12.0,12.0,1.0,comic_book_02s.jpg,0.0,Blue.png,3.0,26,,,,,,,,,,,,,,,,,
0.0,1.0,1.398205,0.0,13.0,13.0,13.0,1.0,mask_09s.jpg,0.0,Purple.png,3.0,26,,,,,,,,,,,,,,,,,
0.0,1.0,1.4187,0.0,14.0,14.0,14.0,1.0,lasagna_06s.jpg,0.0,Red.png,3.0,26,,,,,,,,,,,,,,,,,
0.0,1.0,1.96865,0.0,15.0,15.0,15.0,1.0,diving_board_07s.jpg,0.0,Orange.png,3.0,26,,,,,,,,,,,,,,,,,
0.0,1.0,1.98873,0.0,16.0,16.0,16.0,1.0,lion_18s.jpg,0.0,Yellow.png,3.0,26,,,,,,,,,,,,,,,,,
1.0,1.0,1.05601,0.0,17.0,17.0,17.0,1.0,diving_board_07s.jpg,1.0,Green.png,3.0,26,,,,,,,,,,,,,,,,,
1.0,1.0,1.822695,0.0,18.0,18.0,18.0,1.0,lion_18s.jpg,1.0,Blue.png,4.0,26,,,,,,,,,,,,,,,,,
0.0,1.0,1.730795,0.0,19.0,19.0,19.0,1.0,medal_04s.jpg,0.0,Purple.png,4.0,26,,,,,,,,,,,,,,,,,
0.0,1.0,1.4238,0.0,20.0,20.0,20.0,1.0,incense_02s.jpg,0.0,Red.png,4.0,26,,,,,,,,,,,,,,,,,
0.0,1.0,1.37301,0.0,21.0,21.0,21.0,1.0,tape_06s.jpg,0.0,Orange.png,4.0,26,,,,,,,,,,,,,,,,,
0.0,1.0,1.921075,0.0,22.0,22.0,22.0,1.0,medal_04s.jpg,0.0,Yellow.png,4.0,26,,,,,,,,,,,,,,,,,
0.0,1.0,1.989705,0.0,23.0,23.0,23.0,1.0,buoy_04s.jpg,0.0,Green.png,4.0,26,,,,,,,,,,,,,,,,,
0.0,1.0,1.54063,0.0,24.0,24.0,24.0,1.0,limousine_12s.jpg,0.0,Blue.png,5.0,26,,,,,,,,,,,,,,,,,
0.0,1.0,1.56139,0.0,25.0,25.0,25.0,1.0,jewel_01b.jpg,0.0,Purple.png,5.0,26,,,,,,,,,,,,,,,,,
0.0,1.0,1.58659,0.0,26.0,26.0,26.0,1.0,parachute_03s.jpg,0.0,Red.png,5.0,26,,,,,,,,,,,,,,,,,
0.0,1.0,1.244215,0.0,27.0,27.0,27.0,1.0,mannequin_05s.jpg,0.0,Orange.png,5.0,26,,,,,,,,,,,,,,,,,
0.0,1.0,1.35203,0.0,28.0,28.0,28.0,1.0,snowman_02s.jpg,0.0,Yellow.png,5.0,26,,,,,,,,,,,,,,,,,
0.0,1.0,1.71926,0.0,29.0,29.0,29.0,1.0,fossil_06s.jpg,0.0,Green.png,5.0,26,,,,,,,,,,,,,,,,,
0.0,1.0,1.33139,0.0,30.0,30.0,30.0,1.0,perfume_06s.jpg,0.0,Blue.png,6.0,26,,,,,,,,,,,,,,,,,
1.0,1.0,1.379135,0.0,31.0,31.0,31.0,1.0,fossil_06s.jpg,1.0,Purple.png,6.0,26,,,,,,,,,,,,,,,,,
0.0,1.0,1.649185,0.0,32.0,32.0,32.0,1.0,pancake_12s.jpg,0.0,Red.png,6.0,26,,,,,,,,,,,,,,,,,
0.0,1.0,2.075515,0.0,33.0,33.0,33.0,1.0,tie_03s.jpg,0.0,Orange.png,6.0,26,,,,,,,,,,,,,,,,,
1.0,1.0,1.184255,0.0,34.0,34.0,34.0,1.0,pancake_12s.jpg,1.0,Yellow.png,6.0,26,,,,,,,,,,,,,,,,,
0.0,1.0,1.367665,0.0,35.0,35.0,35.0,1.0,padlock_07s.jpg,0.0,Green.png,6.0,26,,,,,,,,,,,,,,,,,
,,,,,,,,,0.0,,,26,1.0,0.0,1.18763,0.0,0.0,0.0,0.0,1.0,crayon_09s.jpg,luggage_08s.jpg,,,,,,,
,,,,,,,,,1.0,,,26,0.0,0.0,1.660745,0.0,1.0,1.0,1.0,1.0,towel_rack_04s.jpg,boar_10s.jpg,,,,,,,
,,,,,,,,,0.0,,,26,1.0,0.0,1.819415,0.0,2.0,2.0,2.0,1.0,lasagna_06s.jpg,outlet_10s.jpg,,,,,,,
,,,,,,,,,1.0,,,26,1.0,1.0,2.256185,0.0,3.0,3.0,3.0,1.0,jewel_01b.jpg,snowman_02s.jpg,,,,,,,
,,,,,,,,,0.0,,,26,0.0,1.0,1.6771,0.0,4.0,4.0,4.0,1.0,buoy_04s.jpg,incense_02s.jpg,,,,,,,
,,,,,,,,,0.0,,,26,0.0,1.0,1.576805,0.0,5.0,5.0,5.0,1.0,tie_03s.jpg,perfume_06s.jpg,,,,,,,
,,,,,,,,,,,,26,,,,,,,,,,,0.0,1.0,1.0,1.0,1.0,new2backpresent_2_2.xlsx,new2back_compare_task_2_2.xlsx
0.0,1.0,1.370865,0.0,0.0,0.0,0.0,1.0,surfboard_11s.jpg,0.0,Blue.png,1.0,26,,,,,,,,,,,,,,,,,
0.0,1.0,1.44309,0.0,1.0,1.0,1.0,1.0,surfboard_11s.jpg,0.0,Purple.png,1.0,26,,,,,,,,,,,,,,,,,
1.0,1.0,0.841885,0.0,2.0,2.0,2.0,1.0,surfboard_11s.jpg,1.0,Red.png,1.0,26,,,,,,,,,,,,,,,,,
0.0,1.0,1.74698,0.0,3.0,3.0,3.0,1.0,badge_03s.jpg,0.0,Orange.png,1.0,26,,,,,,,,,,,,,,,,,
1.0,1.0,1.075475,0.0,4.0,4.0,4.0,1.0,surfboard_11s.jpg,1.0,Yellow.png,1.0,26,,,,,,,,,,,,,,,,,
0.0,1.0,1.736315,0.0,5.0,5.0,5.0,1.0,surfboard_11s.jpg,0.0,Green.png,1.0,26,,,,,,,,,,,,,,,,,
1.0,1.0,0.998645,0.0,6.0,6.0,6.0,1.0,surfboard_11s.jpg,1.0,Blue.png,2.0,26,,,,,,,,,,,,,,,,,
0.0,1.0,2.098385,0.0,7.0,7.0,7.0,1.0,playpen_11s.jpg,0.0,Purple.png,2.0,26,,,,,,,,,,,,,,,,,
1.0,1.0,1.14216,0.0,8.0,8.0,8.0,1.0,surfboard_11s.jpg,1.0,Red.png,2.0,26,,,,,,,,,,,,,,,,,
0.0,1.0,1.523005,0.0,9.0,9.0,9.0,1.0,popcorn_09s.jpg,0.0,Orange.png,2.0,26,,,,,,,,,,,,,,,,,
1.0,1.0,1.20102,0.0,10.0,10.0,10.0,1.0,surfboard_11s.jpg,1.0,Yellow.png,2.0,26,,,,,,,,,,,,,,,,,
1.0,1.0,1.910475,0.0,11.0,11.0,11.0,1.0,popcorn_09s.jpg,1.0,Green.png,2.0,26,,,,,,,,,,,,,,,,,
0.0,1.0,1.613965,0.0,12.0,12.0,12.0,1.0,lollipop_08s.jpg,0.0,Blue.png,3.0,26,,,,,,,,,,,,,,,,,
1.0,1.0,0.93547,0.0,13.0,13.0,13.0,1.0,popcorn_09s.jpg,1.0,Purple.png,3.0,26,,,,,,,,,,,,,,,,,
0.0,1.0,1.901525,0.0,14.0,14.0,14.0,1.0,fire_pit_10s.jpg,0.0,Red.png,3.0,26,,,,,,,,,,,,,,,,,
0.0,1.0,1.69763,0.0,15.0,15.0,15.0,1.0,joystick_01b.jpg,0.0,Orange.png,3.0,26,,,,,,,,,,,,,,,,,
0.0,1.0,1.48577,0.0,16.0,16.0,16.0,1.0,panda_02s.jpg,0.0,Yellow.png,3.0,26,,,,,,,,,,,,,,,,,
0.0,1.0,1.79253,0.0,17.0,17.0,17.0,1.0,sundae_08s.jpg,0.0,Green.png,3.0,26,,,,,,,,,,,,,,,,,
0.0,1.0,1.7637,0.0,18.0,18.0,18.0,1.0,boomerang_06s.jpg,0.0,Blue.png,4.0,26,,,,,,,,,,,,,,,,,
0.0,1.0,1.94952,0.0,19.0,19.0,19.0,1.0,bagel_15s.jpg,0.0,Purple.png,4.0,26,,,,,,,,,,,,,,,,,
0.0,1.0,1.65163,0.0,20.0,20.0,20.0,1.0,powder_07s.jpg,0.0,Red.png,4.0,26,,,,,,,,,,,,,,,,,
0.0,1.0,1.597395,0.0,21.0,21.0,21.0,1.0,lipstick_02s.jpg,0.0,Orange.png,4.0,26,,,,,,,,,,,,,,,,,
0.0,1.0,1.851585,0.0,22.0,22.0,22.0,1.0,bagel_15s.jpg,0.0,Yellow.png,4.0,26,,,,,,,,,,,,,,,,,
0.0,1.0,2.010775,0.0,23.0,23.0,23.0,1.0,ladle_04s.jpg,0.0,Green.png,4.0,26,,,,,,,,,,,,,,,,,
0.0,1.0,1.548165,0.0,24.0,24.0,24.0,1.0,megaphone_03s.jpg,0.0,Blue.png,5.0,26,,,,,,,,,,,,,,,,,
0.0,1.0,1.75414,0.0,25.0,25.0,25.0,1.0,puck_06s.jpg,0.0,Purple.png,5.0,26,,,,,,,,,,,,,,,,,
0.0,1.0,1.37564,0.0,26.0,26.0,26.0,1.0,cardinal_07s.jpg,0.0,Red.png,5.0,26,,,,,,,,,,,,,,,,,
0.0,0.0,1.710155,0.0,27.0,27.0,27.0,1.0,puck_06s.jpg,1.0,Orange.png,5.0,26,,,,,,,,,,,,,,,,,
0.0,1.0,2.151935,0.0,28.0,28.0,28.0,1.0,bee_20s.jpg,0.0,Yellow.png,5.0,26,,,,,,,,,,,,,,,,,
,0.0,,0.0,29.0,29.0,29.0,1.0,toilet_paper_12s.jpg,0.0,Green.png,5.0,26,,,,,,,,,,,,,,,,,
0.0,1.0,1.735245,0.0,30.0,30.0,30.0,1.0,mud_13s.jpg,0.0,Blue.png,6.0,26,,,,,,,,,,,,,,,,,
0.0,1.0,1.03493,0.0,31.0,31.0,31.0,1.0,measuring_cup_02s.jpg,0.0,Purple.png,6.0,26,,,,,,,,,,,,,,,,,
0.0,1.0,1.561065,0.0,32.0,32.0,32.0,1.0,ostrich_06s.jpg,0.0,Red.png,6.0,26,,,,,,,,,,,,,,,,,
0.0,1.0,1.664415,0.0,33.0,33.0,33.0,1.0,raspberry_12s.jpg,0.0,Orange.png,6.0,26,,,,,,,,,,,,,,,,,
0.0,1.0,1.55509,0.0,34.0,34.0,34.0,1.0,mud_13s.jpg,0.0,Yellow.png,6.0,26,,,,,,,,,,,,,,,,,
0.0,1.0,1.450945,0.0,35.0,35.0,35.0,1.0,radiator_05s.jpg,0.0,Green.png,6.0,26,,,,,,,,,,,,,,,,,
,,,,,,,,,0.0,,,26,1.0,0.0,0.946465,0.0,0.0,0.0,0.0,1.0,measuring_cup_02s.jpg,bee_20s.jpg,,,,,,,
,,,,,,,,,1.0,,,26,1.0,1.0,1.97725,0.0,1.0,1.0,1.0,1.0,lipstick_02s.jpg,megaphone_03s.jpg,,,,,,,
,,,,,,,,,0.0,,,26,0.0,1.0,1.68125,0.0,2.0,2.0,2.0,1.0,boomerang_06s.jpg,joystick_01b.jpg,,,,,,,
,,,,,,,,,0.0,,,26,0.0,1.0,1.524275,0.0,3.0,3.0,3.0,1.0,sundae_08s.jpg,fire_pit_10s.jpg,,,,,,,
,,,,,,,,,0.0,,,26,0.0,1.0,2.53614,0.0,4.0,4.0,4.0,1.0,radiator_05s.jpg,ostrich_06s.jpg,,,,,,,
,,,,,,,,,0.0,,,26,0.0,1.0,3.07435,0.0,5.0,5.0,5.0,1.0,ladle_04s.jpg,powder_07s.jpg,,,,,,,
,,,,,,,,,,,,26,,,,,,,,,,,0.0,2.0,2.0,2.0,1.0,new2backpresent_3_2.xlsx,new2back_compare_task_3_2.xlsx
0.0,1.0,1.215115,0.0,0.0,0.0,0.0,1.0,glasses01a.jpg,0.0,Blue.png,1.0,26,,,,,,,,,,,,,,,,,
0.0,1.0,1.558955,0.0,1.0,1.0,1.0,1.0,piano_13n.jpg,0.0,Purple.png,1.0,26,,,,,,,,,,,,,,,,,
0.0,1.0,1.41534,0.0,2.0,2.0,2.0,1.0,candy_cane_06s.jpg,0.0,Red.png,1.0,26,,,,,,,,,,,,,,,,,
0.0,1.0,1.236205,0.0,3.0,3.0,3.0,1.0,cushion_08s.jpg,0.0,Orange.png,1.0,26,,,,,,,,,,,,,,,,,
1.0,1.0,1.142665,0.0,4.0,4.0,4.0,1.0,candy_cane_06s.jpg,1.0,Yellow.png,1.0,26,,,,,,,,,,,,,,,,,
0.0,1.0,1.880485,0.0,5.0,5.0,5.0,1.0,candy_cane_06s.jpg,0.0,Green.png,1.0,26,,,,,,,,,,,,,,,,,
0.0,1.0,1.904545,0.0,6.0,6.0,6.0,1.0,rosary_03s.jpg,0.0,Blue.png,2.0,26,,,,,,,,,,,,,,,,,
0.0,1.0,2.34848,0.0,7.0,7.0,7.0,1.0,rosary_03s.jpg,0.0,Purple.png,2.0,26,,,,,,,,,,,,,,,,,
1.0,1.0,1.20483,0.0,8.0,8.0,8.0,1.0,rosary_03s.jpg,1.0,Red.png,2.0,26,,,,,,,,,,,,,,,,,
1.0,1.0,0.984195,0.0,9.0,9.0,9.0,1.0,rosary_03s.jpg,1.0,Orange.png,2.0,26,,,,,,,,,,,,,,,,,
0.0,1.0,1.58963,0.0,10.0,10.0,10.0,1.0,kangaroo_02s.jpg,0.0,Yellow.png,2.0,26,,,,,,,,,,,,,,,,,
0.0,1.0,1.6278,0.0,11.0,11.0,11.0,1.0,kangaroo_02s.jpg,0.0,Green.png,2.0,26,,,,,,,,,,,,,,,,,
1.0,1.0,1.466185,0.0,12.0,12.0,12.0,1.0,kangaroo_02s.jpg,1.0,Blue.png,3.0,26,,,,,,,,,,,,,,,,,
1.0,1.0,1.418345,0.0,13.0,13.0,13.0,1.0,kangaroo_02s.jpg,1.0,Purple.png,3.0,26,,,,,,,,,,,,,,,,,
0.0,1.0,1.556215,0.0,14.0,14.0,14.0,1.0,ironing_board_07s.jpg,0.0,Red.png,3.0,26,,,,,,,,,,,,,,,,,
1.0,1.0,1.50543,0.0,15.0,15.0,15.0,1.0,kangaroo_02s.jpg,1.0,Orange.png,3.0,26,,,,,,,,,,,,,,,,,
,0.0,,0.0,16.0,16.0,16.0,1.0,punch2_09s.jpg,0.0,Yellow.png,3.0,26,,,,,,,,,,,,,,,,,
1.0,0.0,2.156775,0.0,17.0,17.0,17.0,1.0,ironing_board_07s.jpg,0.0,Green.png,3.0,26,,,,,,,,,,,,,,,,,
0.0,1.0,1.63803,0.0,18.0,18.0,18.0,1.0,owl_15s.jpg,0.0,Blue.png,4.0,26,,,,,,,,,,,,,,,,,
0.0,1.0,1.877985,0.0,19.0,19.0,19.0,1.0,teabag_12s.jpg,0.0,Purple.png,4.0,26,,,,,,,,,,,,,,,,,
1.0,1.0,1.01745,0.0,20.0,20.0,20.0,1.0,owl_15s.jpg,1.0,Red.png,4.0,26,,,,,,,,,,,,,,,,,
0.0,1.0,1.297045,0.0,21.0,21.0,21.0,1.0,otter_05s.jpg,0.0,Orange.png,4.0,26,,,,,,,,,,,,,,,,,
1.0,1.0,1.416905,0.0,22.0,22.0,22.0,1.0,owl_15s.jpg,1.0,Yellow.png,4.0,26,,,,,,,,,,,,,,,,,
0.0,1.0,1.78168,0.0,23.0,23.0,23.0,1.0,mold2_04s.jpg,0.0,Green.png,4.0,26,,,,,,,,,,,,,,,,,
0.0,1.0,1.68519,0.0,24.0,24.0,24.0,1.0,mattress_01s.jpg,0.0,Blue.png,5.0,26,,,,,,,,,,,,,,,,,
0.0,1.0,1.25686,0.0,25.0,25.0,25.0,1.0,police_car_01s.jpg,0.0,Purple.png,5.0,26,,,,,,,,,,,,,,,,,
0.0,1.0,1.32415,0.0,26.0,26.0,26.0,1.0,stethoscope_01b.jpg,0.0,Red.png,5.0,26,,,,,,,,,,,,,,,,,
1.0,1.0,1.48337,0.0,27.0,27.0,27.0,1.0,police_car_01s.jpg,1.0,Orange.png,5.0,26,,,,,,,,,,,,,,,,,
0.0,1.0,1.49283,0.0,28.0,28.0,28.0,1.0,sparkler_02s.jpg,0.0,Yellow.png,5.0,26,,,,,,,,,,,,,,,,,
0.0,1.0,1.572795,0.0,29.0,29.0,29.0,1.0,pacifier_09s.jpg,0.0,Green.png,5.0,26,,,,,,,,,,,,,,,,,
0.0,1.0,1.189135,0.0,30.0,30.0,30.0,1.0,machine_gun_09s.jpg,0.0,Blue.png,6.0,26,,,,,,,,,,,,,,,,,
0.0,1.0,1.86364,0.0,31.0,31.0,31.0,1.0,ram_05s.jpg,0.0,Purple.png,6.0,26,,,,,,,,,,,,,,,,,
0.0,1.0,1.37629,0.0,32.0,32.0,32.0,1.0,keyboard_05s.jpg,0.0,Red.png,6.0,26,,,,,,,,,,,,,,,,,
0.0,1.0,1.771975,0.0,33.0,33.0,33.0,1.0,leash_10s.jpg,0.0,Orange.png,6.0,26,,,,,,,,,,,,,,,,,
0.0,1.0,1.216215,0.0,34.0,34.0,34.0,1.0,pan_02s.jpg,0.0,Yellow.png,6.0,26,,,,,,,,,,,,,,,,,
0.0,1.0,1.2941,0.0,35.0,35.0,35.0,1.0,mixer_12s.jpg,0.0,Green.png,6.0,26,,,,,,,,,,,,,,,,,
,,,,,,,,,0.0,,,26,0.0,1.0,1.51037,0.0,0.0,0.0,0.0,1.0,teabag_12s.jpg,punch2_09s.jpg,,,,,,,
,,,,,,,,,0.0,,,26,0.0,1.0,1.728545,0.0,1.0,1.0,1.0,1.0,mattress_01s.jpg,otter_05s.jpg,,,,,,,
,,,,,,,,,0.0,,,26,1.0,0.0,3.05287,0.0,2.0,2.0,2.0,1.0,stethoscope_01b.jpg,mold2_04s.jpg,,,,,,,
,,,,,,,,,1.0,,,26,1.0,1.0,1.232575,0.0,3.0,3.0,3.0,1.0,glasses01a.jpg,cushion_08s.jpg,,,,,,,
,,,,,,,,,1.0,,,26,1.0,1.0,2.50386,0.0,4.0,4.0,4.0,1.0,machine_gun_09s.jpg,leash_10s.jpg,,,,,,,
,,,,,,,,,0.0,,,26,0.0,1.0,2.465175,0.0,5.0,5.0,5.0,1.0,pan_02s.jpg,ram_05s.jpg,,,,,,,
,,,,,,,,,,,,26,,,,,,,,,,,0.0,3.0,3.0,3.0,1.0,new2backpresent_4_2.xlsx,new2back_compare_task_4_2.xlsx
0.0,1.0,1.158565,0.0,0.0,0.0,0.0,1.0,golf_club_03s.jpg,0.0,Blue.png,1.0,26,,,,,,,,,,,,,,,,,
0.0,1.0,1.611665,0.0,1.0,1.0,1.0,1.0,golf_club_03s.jpg,0.0,Purple.png,1.0,26,,,,,,,,,,,,,,,,,
1.0,1.0,0.9302,0.0,2.0,2.0,2.0,1.0,golf_club_03s.jpg,1.0,Red.png,1.0,26,,,,,,,,,,,,,,,,,
0.0,1.0,1.078775,0.0,3.0,3.0,3.0,1.0,turnstile_08s.jpg,0.0,Orange.png,1.0,26,,,,,,,,,,,,,,,,,
1.0,1.0,1.232205,0.0,4.0,4.0,4.0,1.0,golf_club_03s.jpg,1.0,Yellow.png,1.0,26,,,,,,,,,,,,,,,,,
0.0,1.0,1.299235,0.0,5.0,5.0,5.0,1.0,milk_02s.jpg,0.0,Green.png,1.0,26,,,,,,,,,,,,,,,,,
0.0,1.0,1.500655,0.0,6.0,6.0,6.0,1.0,orange_12s.jpg,0.0,Blue.png,2.0,26,,,,,,,,,,,,,,,,,
1.0,1.0,1.468925,0.0,7.0,7.0,7.0,1.0,milk_02s.jpg,1.0,Purple.png,2.0,26,,,,,,,,,,,,,,,,,
0.0,1.0,1.407145,0.0,8.0,8.0,8.0,1.0,latch_15s.jpg,0.0,Red.png,2.0,26,,,,,,,,,,,,,,,,,
0.0,1.0,1.61021,0.0,9.0,9.0,9.0,1.0,bank_06s.jpg,0.0,Orange.png,2.0,26,,,,,,,,,,,,,,,,,
0.0,1.0,1.55713,0.0,10.0,10.0,10.0,1.0,milk_02s.jpg,0.0,Yellow.png,2.0,26,,,,,,,,,,,,,,,,,
0.0,1.0,1.553015,0.0,11.0,11.0,11.0,1.0,crab_16s.jpg,0.0,Green.png,2.0,26,,,,,,,,,,,,,,,,,
0.0,1.0,1.898475,0.0,12.0,12.0,12.0,1.0,birdcage_08s.jpg,0.0,Blue.png,3.0,26,,,,,,,,,,,,,,,,,
0.0,1.0,1.422795,0.0,13.0,13.0,13.0,1.0,spider_web_03s.jpg,0.0,Purple.png,3.0,26,,,,,,,,,,,,,,,,,
0.0,1.0,1.18415,0.0,14.0,14.0,14.0,1.0,knitting_needle_04s.jpg,0.0,Red.png,3.0,26,,,,,,,,,,,,,,,,,
0.0,1.0,1.23571,0.0,15.0,15.0,15.0,1.0,sugar_cube_11s.jpg,0.0,Orange.png,3.0,26,,,,,,,,,,,,,,,,,
0.0,1.0,1.10831,0.0,16.0,16.0,16.0,1.0,light_switch_02s.jpg,0.0,Yellow.png,3.0,26,,,,,,,,,,,,,,,,,
0.0,1.0,1.18847,0.0,17.0,17.0,17.0,1.0,gear_07s.jpg,0.0,Green.png,3.0,26,,,,,,,,,,,,,,,,,
0.0,1.0,1.31364,0.0,18.0,18.0,18.0,1.0,tongs_08s.jpg,0.0,Blue.png,4.0,26,,,,,,,,,,,,,,,,,
0.0,1.0,1.825065,0.0,19.0,19.0,19.0,1.0,recliner_02s.jpg,0.0,Purple.png,4.0,26,,,,,,,,,,,,,,,,,
0.0,1.0,1.34876,0.0,20.0,20.0,20.0,1.0,orangutan_03s.jpg,0.0,Red.png,4.0,26,,,,,,,,,,,,,,,,,
0.0,1.0,1.228135,0.0,21.0,21.0,21.0,1.0,golf_club_03s.jpg,0.0,Orange.png,4.0,26,,,,,,,,,,,,,,,,,
0.0,1.0,1.473425,0.0,22.0,22.0,22.0,1.0,lava_02s.jpg,0.0,Yellow.png,4.0,26,,,,,,,,,,,,,,,,,
0.0,1.0,1.347915,0.0,23.0,23.0,23.0,1.0,toilet_07s.jpg,0.0,Green.png,4.0,26,,,,,,,,,,,,,,,,,
0.0,1.0,1.440165,0.0,24.0,24.0,24.0,1.0,turnstile_08s.jpg,0.0,Blue.png,5.0,26,,,,,,,,,,,,,,,,,
1.0,0.0,2.462415,0.0,25.0,25.0,25.0,1.0,turnstile_08s.jpg,0.0,Purple.png,5.0,26,,,,,,,,,,,,,,,,,
0.0,1.0,2.174135,0.0,26.0,26.0,26.0,1.0,teacup_07s.jpg,0.0,Red.png,5.0,26,,,,,,,,,,,,,,,,,
1.0,1.0,0.9089,0.0,27.0,27.0,27.0,1.0,turnstile_08s.jpg,1.0,Orange.png,5.0,26,,,,,,,,,,,,,,,,,
0.0,1.0,1.396775,0.0,28.0,28.0,28.0,1.0,turnstile_08s.jpg,0.0,Yellow.png,5.0,26,,,,,,,,,,,,,,,,,
0.0,1.0,1.76177,0.0,29.0,29.0,29.0,1.0,antenna_01b.jpg,0.0,Green.png,5.0,26,,,,,,,,,,,,,,,,,
0.0,1.0,1.127545,0.0,30.0,30.0,30.0,1.0,keyhole_03s.jpg,0.0,Blue.png,6.0,26,,,,,,,,,,,,,,,,,
0.0,1.0,1.28179,0.0,31.0,31.0,31.0,1.0,air_pump_05s.jpg,0.0,Purple.png,6.0,26,,,,,,,,,,,,,,,,,
0.0,1.0,1.09156,0.0,32.0,32.0,32.0,1.0,eggshell_14s.jpg,0.0,Red.png,6.0,26,,,,,,,,,,,,,,,,,
0.0,1.0,1.135735,0.0,33.0,33.0,33.0,1.0,eyedropper_12s.jpg,0.0,Orange.png,6.0,26,,,,,,,,,,,,,,,,,
0.0,1.0,1.646855,0.0,34.0,34.0,34.0,1.0,machete_06s.jpg,0.0,Yellow.png,6.0,26,,,,,,,,,,,,,,,,,
1.0,1.0,1.137575,0.0,35.0,35.0,35.0,1.0,eyedropper_12s.jpg,1.0,Green.png,6.0,26,,,,,,,,,,,,,,,,,
,,,,,,,,,1.0,,,26,1.0,1.0,1.478255,0.0,0.0,0.0,0.0,1.0,sugar_cube_11s.jpg,tongs_08s.jpg,,,,,,,
,,,,,,,,,1.0,,,26,0.0,0.0,2.10363,0.0,1.0,1.0,1.0,1.0,antenna_01b.jpg,eggshell_14s.jpg,,,,,,,
,,,,,,,,,1.0,,,26,0.0,0.0,3.01771,0.0,2.0,2.0,2.0,1.0,bank_06s.jpg,birdcage_08s.jpg,,,,,,,
,,,,,,,,,1.0,,,26,1.0,1.0,2.163875,0.0,3.0,3.0,3.0,1.0,air_pump_05s.jpg,machete_06s.jpg,,,,,,,
,,,,,,,,,1.0,,,26,0.0,0.0,1.386525,0.0,4.0,4.0,4.0,1.0,latch_15s.jpg,crab_16s.jpg,,,,,,,
,,,,,,,,,1.0,,,26,0.0,0.0,2.47847,0.0,5.0,5.0,5.0,1.0,spider_web_03s.jpg,light_switch_02s.jpg,,,,,,,
,,,,,,,,,,,,26,,,,,,,,,,,0.0,4.0,4.0,4.0,1.0,new2backpresent_5_2.xlsx,new2back_compare_task_5_2.xlsx
0.0,1.0,1.218705,0.0,0.0,0.0,0.0,1.0,gazelle_10s.jpg,0.0,Blue.png,1.0,26,,,,,,,,,,,,,,,,,
0.0,1.0,0.900685,0.0,1.0,1.0,1.0,1.0,saddle_06s.jpg,0.0,Purple.png,1.0,26,,,,,,,,,,,,,,,,,
0.0,1.0,1.01323,0.0,2.0,2.0,2.0,1.0,saddle_06s.jpg,0.0,Red.png,1.0,26,,,,,,,,,,,,,,,,,
0.0,1.0,1.3468,0.0,3.0,3.0,3.0,1.0,kimono_13s.jpg,0.0,Orange.png,1.0,26,,,,,,,,,,,,,,,,,
0.0,1.0,0.75878,0.0,4.0,4.0,4.0,1.0,timer_03s.jpg,0.0,Yellow.png,1.0,26,,,,,,,,,,,,,,,,,
0.0,1.0,1.273635,0.0,5.0,5.0,5.0,1.0,tulip_02s.jpg,0.0,Green.png,1.0,26,,,,,,,,,,,,,,,,,
0.0,1.0,0.806145,0.0,6.0,6.0,6.0,1.0,prism_10s.jpg,0.0,Blue.png,2.0,26,,,,,,,,,,,,,,,,,
0.0,1.0,0.999055,0.0,7.0,7.0,7.0,1.0,razor_12s.jpg,0.0,Purple.png,2.0,26,,,,,,,,,,,,,,,,,
0.0,1.0,1.19749,0.0,8.0,8.0,8.0,1.0,blazer_02s.jpg,0.0,Red.png,2.0,26,,,,,,,,,,,,,,,,,
1.0,1.0,1.20634,0.0,9.0,9.0,9.0,1.0,razor_12s.jpg,1.0,Orange.png,2.0,26,,,,,,,,,,,,,,,,,
0.0,1.0,1.28592,0.0,10.0,10.0,10.0,1.0,lamb_chop_07s.jpg,0.0,Yellow.png,2.0,26,,,,,,,,,,,,,,,,,
1.0,1.0,0.783945,0.0,11.0,11.0,11.0,1.0,razor_12s.jpg,1.0,Green.png,2.0,26,,,,,,,,,,,,,,,,,
1.0,1.0,1.0755,0.0,12.0,12.0,12.0,1.0,lamb_chop_07s.jpg,1.0,Blue.png,3.0,26,,,,,,,,,,,,,,,,,
0.0,1.0,1.231225,0.0,13.0,13.0,13.0,1.0,lamb_chop_07s.jpg,0.0,Purple.png,3.0,26,,,,,,,,,,,,,,,,,
0.0,1.0,1.230725,0.0,14.0,14.0,14.0,1.0,timer_03s.jpg,0.0,Red.png,3.0,26,,,,,,,,,,,,,,,,,
1.0,1.0,1.171775,0.0,15.0,15.0,15.0,1.0,lamb_chop_07s.jpg,1.0,Orange.png,3.0,26,,,,,,,,,,,,,,,,,
0.0,1.0,0.78354,0.0,16.0,16.0,16.0,1.0,glue_01s.jpg,0.0,Yellow.png,3.0,26,,,,,,,,,,,,,,,,,
0.0,1.0,0.96169,0.0,17.0,17.0,17.0,1.0,solar_panel_02s.jpg,0.0,Green.png,3.0,26,,,,,,,,,,,,,,,,,
0.0,1.0,0.84775,0.0,18.0,18.0,18.0,1.0,muffin_12n.jpg,0.0,Blue.png,4.0,26,,,,,,,,,,,,,,,,,
0.0,1.0,1.219865,0.0,19.0,19.0,19.0,1.0,pepper2_21s.jpg,0.0,Purple.png,4.0,26,,,,,,,,,,,,,,,,,
0.0,1.0,1.28932,0.0,20.0,20.0,20.0,1.0,marker_05s.jpg,0.0,Red.png,4.0,26,,,,,,,,,,,,,,,,,
0.0,1.0,0.885845,0.0,21.0,21.0,21.0,1.0,soccer_ball_12s.jpg,0.0,Orange.png,4.0,26,,,,,,,,,,,,,,,,,
0.0,1.0,0.921835,0.0,22.0,22.0,22.0,1.0,amber_04s.jpg,0.0,Yellow.png,4.0,26,,,,,,,,,,,,,,,,,
0.0,1.0,1.11508,0.0,23.0,23.0,23.0,1.0,stopwatch_04s.jpg,0.0,Green.png,4.0,26,,,,,,,,,,,,,,,,,
1.0,1.0,0.65876,0.0,24.0,24.0,24.0,1.0,amber_04s.jpg,1.0,Blue.png,5.0,26,,,,,,,,,,,,,,,,,
0.0,1.0,1.05494,0.0,25.0,25.0,25.0,1.0,racehorse_03s.jpg,0.0,Purple.png,5.0,26,,,,,,,,,,,,,,,,,
1.0,1.0,0.9754,0.0,26.0,26.0,26.0,1.0,amber_04s.jpg,1.0,Red.png,5.0,26,,,,,,,,,,,,,,,,,
0.0,1.0,0.816815,0.0,27.0,27.0,27.0,1.0,duck_01b.jpg,0.0,Orange.png,5.0,26,,,,,,,,,,,,,,,,,
1.0,1.0,0.82234,0.0,28.0,28.0,28.0,1.0,amber_04s.jpg,1.0,Yellow.png,5.0,26,,,,,,,,,,,,,,,,,
1.0,1.0,0.57512,0.0,29.0,29.0,29.0,1.0,duck_01b.jpg,1.0,Green.png,5.0,26,,,,,,,,,,,,,,,,,
0.0,1.0,1.034945,0.0,30.0,30.0,30.0,1.0,duck_01b.jpg,0.0,Blue.png,6.0,26,,,,,,,,,,,,,,,,,
1.0,1.0,1.025795,0.0,31.0,31.0,31.0,1.0,duck_01b.jpg,1.0,Purple.png,6.0,26,,,,,,,,,,,,,,,,,
0.0,1.0,0.99263,0.0,32.0,32.0,32.0,1.0,magnet_03s.jpg,0.0,Red.png,6.0,26,,,,,,,,,,,,,,,,,
1.0,1.0,0.529545,0.0,33.0,33.0,33.0,1.0,duck_01b.jpg,1.0,Orange.png,6.0,26,,,,,,,,,,,,,,,,,
0.0,1.0,1.69274,0.0,34.0,34.0,34.0,1.0,swimming_pool_17s.jpg,0.0,Yellow.png,6.0,26,,,,,,,,,,,,,,,,,
0.0,1.0,1.082755,0.0,35.0,35.0,35.0,1.0,roulette_wheel_04s.jpg,0.0,Green.png,6.0,26,,,,,,,,,,,,,,,,,
,,,,,,,,,0.0,,,26,1.0,0.0,1.69387,0.0,0.0,0.0,0.0,1.0,blazer_02s.jpg,tulip_02s.jpg,,,,,,,
,,,,,,,,,1.0,,,26,0.0,0.0,1.769265,0.0,1.0,1.0,1.0,1.0,glue_01s.jpg,pepper2_21s.jpg,,,,,,,
,,,,,,,,,1.0,,,26,0.0,0.0,1.524935,0.0,2.0,2.0,2.0,1.0,kimono_13s.jpg,prism_10s.jpg,,,,,,,
,,,,,,,,,0.0,,,26,1.0,0.0,1.674815,0.0,3.0,3.0,3.0,1.0,soccer_ball_12s.jpg,muffin_12n.jpg,,,,,,,
,,,,,,,,,1.0,,,26,0.0,0.0,1.41853,0.0,4.0,4.0,4.0,1.0,magnet_03s.jpg,roulette_wheel_04s.jpg,,,,,,,
,,,,,,,,,0.0,,,26,0.0,1.0,1.54328,0.0,5.0,5.0,5.0,1.0,stopwatch_04s.jpg,marker_05s.jpg,,,,,,,
,,,,,,,,,,,,26,,,,,,,,,,,0.0,5.0,5.0,5.0,1.0,new2backpresent_6_2.xlsx,new2back_compare_task_6_2.xlsx
0.0,1.0,1.314285,0.0,0.0,0.0,0.0,1.0,slingshot_07s.jpg,0.0,Blue.png,1.0,26,,,,,,,,,,,,,,,,,
0.0,1.0,0.985745,0.0,1.0,1.0,1.0,1.0,slingshot_07s.jpg,0.0,Purple.png,1.0,26,,,,,,,,,,,,,,,,,
0.0,1.0,1.08202,0.0,2.0,2.0,2.0,1.0,aluminum_foil_08s.jpg,0.0,Red.png,1.0,26,,,,,,,,,,,,,,,,,
0.0,1.0,1.01024,0.0,3.0,3.0,3.0,1.0,ink_08s.jpg,0.0,Orange.png,1.0,26,,,,,,,,,,,,,,,,,
1.0,1.0,0.709485,0.0,4.0,4.0,4.0,1.0,aluminum_foil_08s.jpg,1.0,Yellow.png,1.0,26,,,,,,,,,,,,,,,,,
0.0,1.0,1.55226,0.0,5.0,5.0,5.0,1.0,slingshot_07s.jpg,0.0,Green.png,1.0,26,,,,,,,,,,,,,,,,,
1.0,1.0,0.973785,0.0,6.0,6.0,6.0,1.0,aluminum_foil_08s.jpg,1.0,Blue.png,2.0,26,,,,,,,,,,,,,,,,,
0.0,1.0,1.302595,0.0,7.0,7.0,7.0,1.0,aluminum_foil_08s.jpg,0.0,Purple.png,2.0,26,,,,,,,,,,,,,,,,,
0.0,1.0,1.44724,0.0,8.0,8.0,8.0,1.0,ice-cream_cone_06s.jpg,0.0,Red.png,2.0,26,,,,,,,,,,,,,,,,,
0.0,1.0,1.009165,0.0,9.0,9.0,9.0,1.0,ink_08s.jpg,0.0,Orange.png,2.0,26,,,,,,,,,,,,,,,,,
0.0,1.0,1.12693,0.0,10.0,10.0,10.0,1.0,emerald_02s.jpg,0.0,Yellow.png,2.0,26,,,,,,,,,,,,,,,,,
0.0,1.0,1.06438,0.0,11.0,11.0,11.0,1.0,bathtub_23s.jpg,0.0,Green.png,2.0,26,,,,,,,,,,,,,,,,,
0.0,1.0,1.019375,0.0,12.0,12.0,12.0,1.0,bubble_01b.jpg,0.0,Blue.png,3.0,26,,,,,,,,,,,,,,,,,
0.0,1.0,0.994015,0.0,13.0,13.0,13.0,1.0,mirror_12s.jpg,0.0,Purple.png,3.0,26,,,,,,,,,,,,,,,,,
0.0,1.0,1.1508,0.0,14.0,14.0,14.0,1.0,swing_set_15s.jpg,0.0,Red.png,3.0,26,,,,,,,,,,,,,,,,,
0.0,1.0,1.019655,0.0,15.0,15.0,15.0,1.0,pinwheel_06s.jpg,0.0,Orange.png,3.0,26,,,,,,,,,,,,,,,,,
1.0,1.0,1.88845,0.0,16.0,16.0,16.0,1.0,swing_set_15s.jpg,1.0,Yellow.png,3.0,26,,,,,,,,,,,,,,,,,
1.0,1.0,1.96878,0.0,17.0,17.0,17.0,1.0,pinwheel_06s.jpg,1.0,Green.png,3.0,26,,,,,,,,,,,,,,,,,
0.0,1.0,0.87526,0.0,18.0,18.0,18.0,1.0,ink_08s.jpg,0.0,Blue.png,4.0,26,,,,,,,,,,,,,,,,,
0.0,1.0,1.067465,0.0,19.0,19.0,19.0,1.0,plunger_08s.jpg,0.0,Purple.png,4.0,26,,,,,,,,,,,,,,,,,
1.0,1.0,0.490245,0.0,20.0,20.0,20.0,1.0,ink_08s.jpg,1.0,Red.png,4.0,26,,,,,,,,,,,,,,,,,
0.0,1.0,1.451235,0.0,21.0,21.0,21.0,1.0,ink_08s.jpg,0.0,Orange.png,4.0,26,,,,,,,,,,,,,,,,,
0.0,1.0,0.984925,0.0,22.0,22.0,22.0,1.0,metronome_03s.jpg,0.0,Yellow.png,4.0,26,,,,,,,,,,,,,,,,,
0.0,1.0,0.97864,0.0,23.0,23.0,23.0,1.0,puppy_08s.jpg,0.0,Green.png,4.0,26,,,,,,,,,,,,,,,,,
0.0,1.0,1.15915,0.0,24.0,24.0,24.0,1.0,treasure_08s.jpg,0.0,Blue.png,5.0,26,,,,,,,,,,,,,,,,,
0.0,1.0,1.105155,0.0,25.0,25.0,25.0,1.0,penguin_16s.jpg,0.0,Purple.png,5.0,26,,,,,,,,,,,,,,,,,
0.0,1.0,1.288455,0.0,26.0,26.0,26.0,1.0,bacon_05s.jpg,0.0,Red.png,5.0,26,,,,,,,,,,,,,,,,,
0.0,1.0,0.92542,0.0,27.0,27.0,27.0,1.0,giraffe_11s.jpg,0.0,Orange.png,5.0,26,,,,,,,,,,,,,,,,,
0.0,1.0,0.577405,0.0,28.0,28.0,28.0,1.0,rug_09s.jpg,0.0,Yellow.png,5.0,26,,,,,,,,,,,,,,,,,
0.0,1.0,1.03392,0.0,29.0,29.0,29.0,1.0,lamp_08s.jpg,0.0,Green.png,5.0,26,,,,,,,,,,,,,,,,,
0.0,1.0,1.21438,0.0,30.0,30.0,30.0,1.0,metronome_03s.jpg,0.0,Blue.png,6.0,26,,,,,,,,,,,,,,,,,
0.0,1.0,1.409185,0.0,31.0,31.0,31.0,1.0,metronome_03s.jpg,0.0,Purple.png,6.0,26,,,,,,,,,,,,,,,,,
0.0,1.0,1.321955,0.0,32.0,32.0,32.0,1.0,lip_gloss_06s.jpg,0.0,Red.png,6.0,26,,,,,,,,,,,,,,,,,
1.0,1.0,0.689035,0.0,33.0,33.0,33.0,1.0,metronome_03s.jpg,1.0,Orange.png,6.0,26,,,,,,,,,,,,,,,,,
0.0,1.0,1.125915,0.0,34.0,34.0,34.0,1.0,laser_pointer_02s.jpg,0.0,Yellow.png,6.0,26,,,,,,,,,,,,,,,,,
1.0,1.0,0.47387,0.0,35.0,35.0,35.0,1.0,metronome_03s.jpg,1.0,Green.png,6.0,26,,,,,,,,,,,,,,,,,
,,,,,,,,,1.0,,,26,1.0,1.0,2.28167,0.0,0.0,0.0,0.0,1.0,emerald_02s.jpg,mirror_12s.jpg,,,,,,,
,,,,,,,,,1.0,,,26,0.0,0.0,1.790725,0.0,1.0,1.0,1.0,1.0,puppy_08s.jpg,bacon_05s.jpg,,,,,,,
,,,,,,,,,0.0,,,26,0.0,1.0,3.246975,0.0,2.0,2.0,2.0,1.0,lip_gloss_06s.jpg,lamp_08s.jpg,,,,,,,
,,,,,,,,,0.0,,,26,1.0,0.0,1.73247,0.0,3.0,3.0,3.0,1.0,bathtub_23s.jpg,ice-cream_cone_06s.jpg,,,,,,,
,,,,,,,,,0.0,,,26,0.0,1.0,1.62654,0.0,4.0,4.0,4.0,1.0,giraffe_11s.jpg,treasure_08s.jpg,,,,,,,
,,,,,,,,,0.0,,,26,0.0,1.0,2.076355,0.0,5.0,5.0,5.0,1.0,rug_09s.jpg,penguin_16s.jpg,,,,,,,
,,,,,,,,,,,,26,,,,,,,,,,,0.0,6.0,6.0,6.0,1.0,new2backpresent_7_2.xlsx,new2back_compare_task_7_2.xlsx
0.0,1.0,2.03242,0.0,0.0,0.0,0.0,1.0,ant_12s.jpg,0.0,Blue.png,1.0,26,,,,,,,,,,,,,,,,,
0.0,1.0,1.07286,0.0,1.0,1.0,1.0,1.0,ant_12s.jpg,0.0,Purple.png,1.0,26,,,,,,,,,,,,,,,,,
0.0,1.0,1.245535,0.0,2.0,2.0,2.0,1.0,ticktacktoe_08s.jpg,0.0,Red.png,1.0,26,,,,,,,,,,,,,,,,,
0.0,1.0,0.865695,0.0,3.0,3.0,3.0,1.0,frog_09s.jpg,0.0,Orange.png,1.0,26,,,,,,,,,,,,,,,,,
1.0,1.0,1.186585,0.0,4.0,4.0,4.0,1.0,ticktacktoe_08s.jpg,1.0,Yellow.png,1.0,26,,,,,,,,,,,,,,,,,
0.0,1.0,1.04187,0.0,5.0,5.0,5.0,1.0,feather02.jpg,0.0,Green.png,1.0,26,,,,,,,,,,,,,,,,,
0.0,1.0,0.89942,0.0,6.0,6.0,6.0,1.0,gas_mask_11s.jpg,0.0,Blue.png,2.0,26,,,,,,,,,,,,,,,,,
0.0,1.0,0.9668,0.0,7.0,7.0,7.0,1.0,gas_mask_11s.jpg,0.0,Purple.png,2.0,26,,,,,,,,,,,,,,,,,
0.0,1.0,0.858375,0.0,8.0,8.0,8.0,1.0,mop_08s.jpg,0.0,Red.png,2.0,26,,,,,,,,,,,,,,,,,
1.0,1.0,0.50569,0.0,9.0,9.0,9.0,1.0,gas_mask_11s.jpg,1.0,Orange.png,2.0,26,,,,,,,,,,,,,,,,,
0.0,1.0,0.56356,0.0,10.0,10.0,10.0,1.0,pea_11s.jpg,0.0,Yellow.png,2.0,26,,,,,,,,,,,,,,,,,
0.0,1.0,0.679405,0.0,11.0,11.0,11.0,1.0,bowler_hat_10s.jpg,0.0,Green.png,2.0,26,,,,,,,,,,,,,,,,,
0.0,1.0,0.725265,0.0,12.0,12.0,12.0,1.0,pencil_sharpener_09n.jpg,0.0,Blue.png,3.0,26,,,,,,,,,,,,,,,,,
0.0,1.0,0.7027,0.0,13.0,13.0,13.0,1.0,rice_12s.jpg,0.0,Purple.png,3.0,26,,,,,,,,,,,,,,,,,
0.0,1.0,0.726405,0.0,14.0,14.0,14.0,1.0,stamp1_11s.jpg,0.0,Red.png,3.0,26,,,,,,,,,,,,,,,,,
0.0,1.0,0.832665,0.0,15.0,15.0,15.0,1.0,jersey_02s.jpg,0.0,Orange.png,3.0,26,,,,,,,,,,,,,,,,,
0.0,1.0,1.32998,0.0,16.0,16.0,16.0,1.0,tiara_05s.jpg,0.0,Yellow.png,3.0,26,,,,,,,,,,,,,,,,,
0.0,1.0,1.171165,0.0,17.0,17.0,17.0,1.0,target_11s.jpg,0.0,Green.png,3.0,26,,,,,,,,,,,,,,,,,
0.0,1.0,0.742025,0.0,18.0,18.0,18.0,1.0,dirt_bike_11s.jpg,0.0,Blue.png,4.0,26,,,,,,,,,,,,,,,,,
0.0,1.0,1.068305,0.0,19.0,19.0,19.0,1.0,doily_13s.jpg,0.0,Purple.png,4.0,26,,,,,,,,,,,,,,,,,
0.0,1.0,0.8849,0.0,20.0,20.0,20.0,1.0,sunglasses_11s.jpg,0.0,Red.png,4.0,26,,,,,,,,,,,,,,,,,
0.0,1.0,0.725545,0.0,21.0,21.0,21.0,1.0,compass_10n.jpg,0.0,Orange.png,4.0,26,,,,,,,,,,,,,,,,,
1.0,1.0,1.696865,0.0,22.0,22.0,22.0,1.0,sunglasses_11s.jpg,1.0,Yellow.png,4.0,26,,,,,,,,,,,,,,,,,
0.0,1.0,1.054835,0.0,23.0,23.0,23.0,1.0,sunglasses_11s.jpg,0.0,Green.png,4.0,26,,,,,,,,,,,,,,,,,
0.0,1.0,0.67183,0.0,24.0,24.0,24.0,1.0,seagull_01b.jpg,0.0,Blue.png,5.0,26,,,,,,,,,,,,,,,,,
0.0,1.0,0.741875,0.0,25.0,25.0,25.0,1.0,footprint_11s.jpg,0.0,Purple.png,5.0,26,,,,,,,,,,,,,,,,,
0.0,1.0,0.81702,0.0,26.0,26.0,26.0,1.0,projector_08s.jpg,0.0,Red.png,5.0,26,,,,,,,,,,,,,,,,,
1.0,0.0,2.46988,0.0,27.0,27.0,27.0,1.0,projector_08s.jpg,0.0,Orange.png,5.0,26,,,,,,,,,,,,,,,,,
0.0,1.0,1.83501,0.0,28.0,28.0,28.0,1.0,money_07s.jpg,0.0,Yellow.png,5.0,26,,,,,,,,,,,,,,,,,
0.0,1.0,0.49074,0.0,29.0,29.0,29.0,1.0,flip_flop_03s.jpg,0.0,Green.png,5.0,26,,,,,,,,,,,,,,,,,
0.0,1.0,0.610155,0.0,30.0,30.0,30.0,1.0,ring_03s.jpg,0.0,Blue.png,6.0,26,,,,,,,,,,,,,,,,,
1.0,1.0,1.17247,0.0,31.0,31.0,31.0,1.0,flip_flop_03s.jpg,1.0,Purple.png,6.0,26,,,,,,,,,,,,,,,,,
0.0,1.0,0.871665,0.0,32.0,32.0,32.0,1.0,flip_flop_03s.jpg,0.0,Red.png,6.0,26,,,,,,,,,,,,,,,,,
1.0,1.0,1.08909,0.0,33.0,33.0,33.0,1.0,flip_flop_03s.jpg,1.0,Orange.png,6.0,26,,,,,,,,,,,,,,,,,
0.0,1.0,0.776255,0.0,34.0,34.0,34.0,1.0,screwdriver02a.jpg,0.0,Yellow.png,6.0,26,,,,,,,,,,,,,,,,,
0.0,1.0,0.825275,0.0,35.0,35.0,35.0,1.0,screwdriver02a.jpg,0.0,Green.png,6.0,26,,,,,,,,,,,,,,,,,
,,,,,,,,,0.0,,,26,0.0,1.0,1.909725,0.0,0.0,0.0,0.0,1.0,mop_08s.jpg,feather02.jpg,,,,,,,
,,,,,,,,,1.0,,,26,1.0,1.0,2.21975,0.0,1.0,1.0,1.0,1.0,pea_11s.jpg,rice_12s.jpg,,,,,,,
,,,,,,,,,1.0,,,26,1.0,1.0,1.657775,0.0,2.0,2.0,2.0,1.0,tiara_05s.jpg,doily_13s.jpg,,,,,,,
,,,,,,,,,1.0,,,26,1.0,1.0,1.7394,0.0,3.0,3.0,3.0,1.0,footprint_11s.jpg,money_07s.jpg,,,,,,,
,,,,,,,,,1.0,,,26,1.0,1.0,1.46417,0.0,4.0,4.0,4.0,1.0,pencil_sharpener_09n.jpg,jersey_02s.jpg,,,,,,,
,,,,,,,,,1.0,,,26,0.0,0.0,1.57259,0.0,5.0,5.0,5.0,1.0,stamp1_11s.jpg,target_11s.jpg,,,,,,,
,,,,,,,,,,,,26,,,,,,,,,,,0.0,7.0,7.0,7.0,1.0,new2backpresent_8_2.xlsx,new2back_compare_task_8_2.xlsx
0.0,1.0,1.249895,0.0,0.0,0.0,0.0,1.0,quilt_03s.jpg,0.0,Blue.png,1.0,26,,,,,,,,,,,,,,,,,
0.0,1.0,0.64993,0.0,1.0,1.0,1.0,1.0,stingray_02s.jpg,0.0,Purple.png,1.0,26,,,,,,,,,,,,,,,,,
0.0,1.0,1.02604,0.0,2.0,2.0,2.0,1.0,mousetrap_15n.jpg,0.0,Red.png,1.0,26,,,,,,,,,,,,,,,,,
0.0,1.0,0.99264,0.0,3.0,3.0,3.0,1.0,dashboard_02s.jpg,0.0,Orange.png,1.0,26,,,,,,,,,,,,,,,,,
0.0,1.0,1.17332,0.0,4.0,4.0,4.0,1.0,quilt_03s.jpg,0.0,Yellow.png,1.0,26,,,,,,,,,,,,,,,,,
,0.0,,0.0,5.0,5.0,5.0,1.0,quilt_03s.jpg,0.0,Green.png,1.0,26,,,,,,,,,,,,,,,,,
0.0,1.0,0.856115,0.0,6.0,6.0,6.0,1.0,thorn_13s.jpg,0.0,Blue.png,2.0,26,,,,,,,,,,,,,,,,,
0.0,1.0,0.752465,0.0,7.0,7.0,7.0,1.0,mitten_10s.jpg,0.0,Purple.png,2.0,26,,,,,,,,,,,,,,,,,
0.0,1.0,0.521455,0.0,8.0,8.0,8.0,1.0,fondue_07s.jpg,0.0,Red.png,2.0,26,,,,,,,,,,,,,,,,,
0.0,1.0,0.616585,0.0,9.0,9.0,9.0,1.0,peach_04s.jpg,0.0,Orange.png,2.0,26,,,,,,,,,,,,,,,,,
0.0,1.0,0.640275,0.0,10.0,10.0,10.0,1.0,stump_02s.jpg,0.0,Yellow.png,2.0,26,,,,,,,,,,,,,,,,,
0.0,1.0,0.50401,0.0,11.0,11.0,11.0,1.0,rabbit_03s.jpg,0.0,Green.png,2.0,26,,,,,,,,,,,,,,,,,
0.0,1.0,0.44992,0.0,12.0,12.0,12.0,1.0,champagne_18s.jpg,0.0,Blue.png,3.0,26,,,,,,,,,,,,,,,,,
0.0,0.0,0.426785,0.0,13.0,13.0,13.0,1.0,rabbit_03s.jpg,1.0,Purple.png,3.0,26,,,,,,,,,,,,,,,,,
0.0,1.0,0.492675,0.0,14.0,14.0,14.0,1.0,denture_03s.jpg,0.0,Red.png,3.0,26,,,,,,,,,,,,,,,,,
0.0,0.0,1.384805,0.0,15.0,15.0,15.0,1.0,rabbit_03s.jpg,1.0,Orange.png,3.0,26,,,,,,,,,,,,,,,,,
0.0,1.0,0.61245,0.0,16.0,16.0,16.0,1.0,turtleneck_11s.jpg,0.0,Yellow.png,3.0,26,,,,,,,,,,,,,,,,,
1.0,1.0,0.44696,0.0,17.0,17.0,17.0,1.0,rabbit_03s.jpg,1.0,Green.png,3.0,26,,,,,,,,,,,,,,,,,
0.0,1.0,0.534265,0.0,18.0,18.0,18.0,1.0,typewriter_11s.jpg,0.0,Blue.png,4.0,26,,,,,,,,,,,,,,,,,
0.0,1.0,0.62495,0.0,19.0,19.0,19.0,1.0,thread_08s.jpg,0.0,Purple.png,4.0,26,,,,,,,,,,,,,,,,,
0.0,1.0,0.52706,0.0,20.0,20.0,20.0,1.0,bean_06s.jpg,0.0,Red.png,4.0,26,,,,,,,,,,,,,,,,,
0.0,1.0,0.81758,0.0,21.0,21.0,21.0,1.0,rolling_pin_02s.jpg,0.0,Orange.png,4.0,26,,,,,,,,,,,,,,,,,
0.0,1.0,0.772735,0.0,22.0,22.0,22.0,1.0,tattoo_14s.jpg,0.0,Yellow.png,4.0,26,,,,,,,,,,,,,,,,,
0.0,1.0,0.72666,0.0,23.0,23.0,23.0,1.0,eiffeltower.jpg,0.0,Green.png,4.0,26,,,,,,,,,,,,,,,,,
0.0,1.0,0.968015,0.0,24.0,24.0,24.0,1.0,fondue_07s.jpg,0.0,Blue.png,5.0,26,,,,,,,,,,,,,,,,,
0.0,1.0,0.866915,0.0,25.0,25.0,25.0,1.0,fondue_07s.jpg,0.0,Purple.png,5.0,26,,,,,,,,,,,,,,,,,
0.0,1.0,0.77918,0.0,26.0,26.0,26.0,1.0,omelet_07s.jpg,0.0,Red.png,5.0,26,,,,,,,,,,,,,,,,,
1.0,1.0,0.969365,0.0,27.0,27.0,27.0,1.0,fondue_07s.jpg,1.0,Orange.png,5.0,26,,,,,,,,,,,,,,,,,
0.0,1.0,0.65184,0.0,28.0,28.0,28.0,1.0,radio_09s.jpg,0.0,Yellow.png,5.0,26,,,,,,,,,,,,,,,,,
1.0,1.0,0.468135,0.0,29.0,29.0,29.0,1.0,fondue_07s.jpg,1.0,Green.png,5.0,26,,,,,,,,,,,,,,,,,
0.0,1.0,0.96886,0.0,30.0,30.0,30.0,1.0,roller_coaster_07s.jpg,0.0,Blue.png,6.0,26,,,,,,,,,,,,,,,,,
0.0,1.0,0.49418,0.0,31.0,31.0,31.0,1.0,loveseat_08s.jpg,0.0,Purple.png,6.0,26,,,,,,,,,,,,,,,,,
1.0,1.0,0.545465,0.0,32.0,32.0,32.0,1.0,roller_coaster_07s.jpg,1.0,Red.png,6.0,26,,,,,,,,,,,,,,,,,
0.0,1.0,1.171885,0.0,33.0,33.0,33.0,1.0,roller_coaster_07s.jpg,0.0,Orange.png,6.0,26,,,,,,,,,,,,,,,,,
1.0,1.0,0.4103,0.0,34.0,34.0,34.0,1.0,roller_coaster_07s.jpg,1.0,Yellow.png,6.0,26,,,,,,,,,,,,,,,,,
1.0,1.0,1.25773,0.0,35.0,35.0,35.0,1.0,roller_coaster_07s.jpg,1.0,Green.png,6.0,26,,,,,,,,,,,,,,,,,
,,,,,,,,,0.0,,,26,1.0,0.0,1.360015,0.0,0.0,0.0,0.0,1.0,loveseat_08s.jpg,radio_09s.jpg,,,,,,,
,,,,,,,,,1.0,,,26,0.0,0.0,1.251545,0.0,1.0,1.0,1.0,1.0,dashboard_02s.jpg,thorn_13s.jpg,,,,,,,
,,,,,,,,,0.0,,,26,0.0,1.0,1.4421,0.0,2.0,2.0,2.0,1.0,champagne_18s.jpg,peach_04s.jpg,,,,,,,
,,,,,,,,,1.0,,,26,1.0,1.0,1.720575,0.0,3.0,3.0,3.0,1.0,mitten_10s.jpg,stump_02s.jpg,,,,,,,
,,,,,,,,,1.0,,,26,0.0,0.0,5.11084,0.0,4.0,4.0,4.0,1.0,typewriter_11s.jpg,rolling_pin_02s.jpg,,,,,,,
,,,,,,,,,1.0,,,26,1.0,1.0,3.58646,0.0,5.0,5.0,5.0,1.0,thread_08s.jpg,tattoo_14s.jpg,,,,,,,
,,,,,,,,,,,,26,,,,,,,,,,,0.0,8.0,8.0,8.0,1.0,new2backpresent_9_2.xlsx,new2back_compare_task_9_2.xlsx
