key_resp.keys,key_resp.corr,key_resp.rt,present_segment.thisRepN,present_segment.thisTrialN,present_segment.thisN,present_segment.thisIndex,present_segment.ran,pictures,answer,clock,segment,participant,key_resp_2.keys,key_resp_2.corr,key_resp_2.rt,compare_segment.thisRepN,compare_segment.thisTrialN,compare_segment.thisN,compare_segment.thisIndex,compare_segment.ran,item_a,item_b,clock_conditions.thisRepN,clock_conditions.thisTrialN,clock_conditions.thisN,clock_conditions.thisIndex,clock_conditions.ran,present,compare
0.0,1.0,0.89584,0.0,0.0,0.0,0.0,1.0,mirror_12s.jpg,0.0,Blue.png,1.0,32,,,,,,,,,,,,,,,,,
0.0,1.0,0.804795,0.0,1.0,1.0,1.0,1.0,polaroid_05s.jpg,0.0,Purple.png,1.0,32,,,,,,,,,,,,,,,,,
1.0,1.0,1.731465,0.0,2.0,2.0,2.0,1.0,polaroid_05s.jpg,1.0,Red.png,1.0,32,,,,,,,,,,,,,,,,,
0.0,1.0,0.92081,0.0,3.0,3.0,3.0,1.0,slingshot_07s.jpg,0.0,Orange.png,1.0,32,,,,,,,,,,,,,,,,,
1.0,1.0,0.966965,0.0,4.0,4.0,4.0,1.0,polaroid_05s.jpg,1.0,Yellow.png,1.0,32,,,,,,,,,,,,,,,,,
0.0,1.0,1.359655,0.0,5.0,5.0,5.0,1.0,kettle_08s.jpg,0.0,Green.png,1.0,32,,,,,,,,,,,,,,,,,
0.0,1.0,1.389135,0.0,6.0,6.0,6.0,1.0,crystal_ball_12s.jpg,0.0,Blue.png,2.0,32,,,,,,,,,,,,,,,,,
0.0,1.0,0.962545,0.0,7.0,7.0,7.0,1.0,iron_13s.jpg,0.0,Purple.png,2.0,32,,,,,,,,,,,,,,,,,
0.0,1.0,0.66451,0.0,8.0,8.0,8.0,1.0,saddle_06s.jpg,0.0,Red.png,2.0,32,,,,,,,,,,,,,,,,,
0.0,1.0,1.36511,0.0,9.0,9.0,9.0,1.0,mango_09s.jpg,0.0,Orange.png,2.0,32,,,,,,,,,,,,,,,,,
0.0,1.0,1.04467,0.0,10.0,10.0,10.0,1.0,ostrich_06s.jpg,0.0,Yellow.png,2.0,32,,,,,,,,,,,,,,,,,
1.0,1.0,1.47331,0.0,11.0,11.0,11.0,1.0,iron_13s.jpg,1.0,Green.png,2.0,32,,,,,,,,,,,,,,,,,
0.0,1.0,1.01652,0.0,12.0,12.0,12.0,1.0,stethoscope_01b.jpg,0.0,Blue.png,3.0,32,,,,,,,,,,,,,,,,,
0.0,1.0,0.91889,0.0,13.0,13.0,13.0,1.0,ruby_15s.jpg,0.0,Purple.png,3.0,32,,,,,,,,,,,,,,,,,
1.0,0.0,1.00416,0.0,14.0,14.0,14.0,1.0,mango_09s.jpg,0.0,Red.png,3.0,32,,,,,,,,,,,,,,,,,
0.0,1.0,0.730045,0.0,15.0,15.0,15.0,1.0,target_11s.jpg,0.0,Orange.png,3.0,32,,,,,,,,,,,,,,,,,
1.0,1.0,0.904435,0.0,16.0,16.0,16.0,1.0,mango_09s.jpg,1.0,Yellow.png,3.0,32,,,,,,,,,,,,,,,,,
0.0,1.0,0.957375,0.0,17.0,17.0,17.0,1.0,compass_10n.jpg,0.0,Green.png,3.0,32,,,,,,,,,,,,,,,,,
0.0,1.0,1.139955,0.0,18.0,18.0,18.0,1.0,meatball_13s.jpg,0.0,Blue.png,4.0,32,,,,,,,,,,,,,,,,,
0.0,1.0,1.088755,0.0,19.0,19.0,19.0,1.0,stapler_01b.jpg,0.0,Purple.png,4.0,32,,,,,,,,,,,,,,,,,
1.0,1.0,0.80691,0.0,20.0,20.0,20.0,1.0,meatball_13s.jpg,1.0,Red.png,4.0,32,,,,,,,,,,,,,,,,,
0.0,1.0,0.909895,0.0,21.0,21.0,21.0,1.0,pump_11s.jpg,0.0,Orange.png,4.0,32,,,,,,,,,,,,,,,,,
0.0,1.0,1.010495,0.0,22.0,22.0,22.0,1.0,coral_08s.jpg,0.0,Yellow.png,4.0,32,,,,,,,,,,,,,,,,,
1.0,1.0,1.12139,0.0,23.0,23.0,23.0,1.0,meatball_13s.jpg,1.0,Green.png,4.0,32,,,,,,,,,,,,,,,,,
0.0,1.0,0.87837,0.0,24.0,24.0,24.0,1.0,peach_04s.jpg,0.0,Blue.png,5.0,32,,,,,,,,,,,,,,,,,
1.0,0.0,1.71656,0.0,25.0,25.0,25.0,1.0,meatball_13s.jpg,0.0,Purple.png,5.0,32,,,,,,,,,,,,,,,,,
0.0,1.0,0.915695,0.0,26.0,26.0,26.0,1.0,pie_08s.jpg,0.0,Red.png,5.0,32,,,,,,,,,,,,,,,,,
0.0,1.0,1.03969,0.0,27.0,27.0,27.0,1.0,rollerskate_03s.jpg,0.0,Orange.png,5.0,32,,,,,,,,,,,,,,,,,
0.0,1.0,1.3837,0.0,28.0,28.0,28.0,1.0,trampoline_13s.jpg,0.0,Yellow.png,5.0,32,,,,,,,,,,,,,,,,,
0.0,1.0,1.989345,0.0,29.0,29.0,29.0,1.0,undershirt_02s.jpg,0.0,Green.png,5.0,32,,,,,,,,,,,,,,,,,
0.0,1.0,0.995545,0.0,30.0,30.0,30.0,1.0,thread_08s.jpg,0.0,Blue.png,6.0,32,,,,,,,,,,,,,,,,,
0.0,1.0,1.00783,0.0,31.0,31.0,31.0,1.0,megaphone_03s.jpg,0.0,Purple.png,6.0,32,,,,,,,,,,,,,,,,,
0.0,1.0,1.07822,0.0,32.0,32.0,32.0,1.0,plaster_cast_13s.jpg,0.0,Red.png,6.0,32,,,,,,,,,,,,,,,,,
0.0,1.0,1.54843,0.0,33.0,33.0,33.0,1.0,diving_board_07s.jpg,0.0,Orange.png,6.0,32,,,,,,,,,,,,,,,,,
0.0,1.0,1.70611,0.0,34.0,34.0,34.0,1.0,kayak_08s.jpg,0.0,Yellow.png,6.0,32,,,,,,,,,,,,,,,,,
1.0,1.0,0.87826,0.0,35.0,35.0,35.0,1.0,diving_board_07s.jpg,1.0,Green.png,6.0,32,,,,,,,,,,,,,,,,,
,,,,,,,,,1.0,,,32,0.0,0.0,4.197555,0.0,0.0,0.0,0.0,1.0,stapler_01b.jpg,coral_08s.jpg,,,,,,,
,,,,,,,,,1.0,,,32,0.0,0.0,2.07316,0.0,1.0,1.0,1.0,1.0,slingshot_07s.jpg,crystal_ball_12s.jpg,,,,,,,
,,,,,,,,,0.0,,,32,0.0,1.0,1.49132,0.0,2.0,2.0,2.0,1.0,saddle_06s.jpg,kettle_08s.jpg,,,,,,,
,,,,,,,,,1.0,,,32,1.0,1.0,1.692345,0.0,3.0,3.0,3.0,1.0,pie_08s.jpg,undershirt_02s.jpg,,,,,,,
,,,,,,,,,1.0,,,32,1.0,1.0,2.088535,0.0,4.0,4.0,4.0,1.0,stethoscope_01b.jpg,target_11s.jpg,,,,,,,
,,,,,,,,,1.0,,,32,1.0,1.0,2.38992,0.0,5.0,5.0,5.0,1.0,ostrich_06s.jpg,ruby_15s.jpg,,,,,,,
,,,,,,,,,,,,32,,,,,,,,,,,0.0,0.0,0.0,0.0,1.0,newclockpresent_1_4.xlsx,newclock_compare_task_1_4.xlsx
1.0,0.0,2.07866,0.0,0.0,0.0,0.0,1.0,jetski_10s.jpg,0.0,Blue.png,1.0,32,,,,,,,,,,,,,,,,,
0.0,1.0,1.06635,0.0,1.0,1.0,1.0,1.0,tripod_01b.jpg,0.0,Purple.png,1.0,32,,,,,,,,,,,,,,,,,
0.0,1.0,2.07955,0.0,2.0,2.0,2.0,1.0,lab_coat_11s.jpg,0.0,Red.png,1.0,32,,,,,,,,,,,,,,,,,
0.0,1.0,1.068795,0.0,3.0,3.0,3.0,1.0,foam_03s.jpg,0.0,Orange.png,1.0,32,,,,,,,,,,,,,,,,,
0.0,1.0,0.954925,0.0,4.0,4.0,4.0,1.0,crate_05s.jpg,0.0,Yellow.png,1.0,32,,,,,,,,,,,,,,,,,
,0.0,,0.0,5.0,5.0,5.0,1.0,margarita_03s.jpg,0.0,Green.png,1.0,32,,,,,,,,,,,,,,,,,
0.0,1.0,0.88821,0.0,6.0,6.0,6.0,1.0,joystick_01b.jpg,0.0,Blue.png,2.0,32,,,,,,,,,,,,,,,,,
0.0,1.0,1.02805,0.0,7.0,7.0,7.0,1.0,giraffe_11s.jpg,0.0,Purple.png,2.0,32,,,,,,,,,,,,,,,,,
0.0,1.0,0.96184,0.0,8.0,8.0,8.0,1.0,quilt_03s.jpg,0.0,Red.png,2.0,32,,,,,,,,,,,,,,,,,
1.0,1.0,1.168115,0.0,9.0,9.0,9.0,1.0,giraffe_11s.jpg,1.0,Orange.png,2.0,32,,,,,,,,,,,,,,,,,
0.0,1.0,0.71817,0.0,10.0,10.0,10.0,1.0,pincushion_10s.jpg,0.0,Yellow.png,2.0,32,,,,,,,,,,,,,,,,,
1.0,1.0,1.036395,0.0,11.0,11.0,11.0,1.0,giraffe_11s.jpg,1.0,Green.png,2.0,32,,,,,,,,,,,,,,,,,
1.0,0.0,1.120185,0.0,12.0,12.0,12.0,1.0,pincushion_10s.jpg,0.0,Blue.png,3.0,32,,,,,,,,,,,,,,,,,
1.0,0.0,1.63177,0.0,13.0,13.0,13.0,1.0,giraffe_11s.jpg,0.0,Purple.png,3.0,32,,,,,,,,,,,,,,,,,
0.0,1.0,0.969625,0.0,14.0,14.0,14.0,1.0,rolling_pin_02s.jpg,0.0,Red.png,3.0,32,,,,,,,,,,,,,,,,,
0.0,1.0,0.722235,0.0,15.0,15.0,15.0,1.0,ticktacktoe_08s.jpg,0.0,Orange.png,3.0,32,,,,,,,,,,,,,,,,,
1.0,1.0,1.05722,0.0,16.0,16.0,16.0,1.0,giraffe_11s.jpg,1.0,Yellow.png,3.0,32,,,,,,,,,,,,,,,,,
1.0,1.0,1.01734,0.0,17.0,17.0,17.0,1.0,ticktacktoe_08s.jpg,1.0,Green.png,3.0,32,,,,,,,,,,,,,,,,,
0.0,1.0,0.83504,0.0,18.0,18.0,18.0,1.0,typewriter_11s.jpg,0.0,Blue.png,4.0,32,,,,,,,,,,,,,,,,,
0.0,1.0,0.8187,0.0,19.0,19.0,19.0,1.0,toothpaste_12s.jpg,0.0,Purple.png,4.0,32,,,,,,,,,,,,,,,,,
0.0,1.0,0.815425,0.0,20.0,20.0,20.0,1.0,hummingbird_05s.jpg,0.0,Red.png,4.0,32,,,,,,,,,,,,,,,,,
1.0,1.0,0.9966,0.0,21.0,21.0,21.0,1.0,toothpaste_12s.jpg,1.0,Orange.png,4.0,32,,,,,,,,,,,,,,,,,
1.0,1.0,0.803315,0.0,22.0,22.0,22.0,1.0,toothpaste_12s.jpg,1.0,Yellow.png,4.0,32,,,,,,,,,,,,,,,,,
0.0,1.0,1.745355,0.0,23.0,23.0,23.0,1.0,treadmill_06s.jpg,0.0,Green.png,4.0,32,,,,,,,,,,,,,,,,,
1.0,0.0,2.045985,0.0,24.0,24.0,24.0,1.0,typewriter_11s.jpg,0.0,Blue.png,5.0,32,,,,,,,,,,,,,,,,,
0.0,1.0,0.908255,0.0,25.0,25.0,25.0,1.0,penguin_16s.jpg,0.0,Purple.png,5.0,32,,,,,,,,,,,,,,,,,
0.0,1.0,1.25785,0.0,26.0,26.0,26.0,1.0,olive_05s.jpg,0.0,Red.png,5.0,32,,,,,,,,,,,,,,,,,
1.0,1.0,1.05753,0.0,27.0,27.0,27.0,1.0,penguin_16s.jpg,1.0,Orange.png,5.0,32,,,,,,,,,,,,,,,,,
1.0,1.0,0.93367,0.0,28.0,28.0,28.0,1.0,penguin_16s.jpg,1.0,Yellow.png,5.0,32,,,,,,,,,,,,,,,,,
0.0,1.0,0.93909,0.0,29.0,29.0,29.0,1.0,tab_09s.jpg,0.0,Green.png,5.0,32,,,,,,,,,,,,,,,,,
0.0,1.0,0.896395,0.0,30.0,30.0,30.0,1.0,frame_06s.jpg,0.0,Blue.png,6.0,32,,,,,,,,,,,,,,,,,
0.0,1.0,0.838635,0.0,31.0,31.0,31.0,1.0,mop_08s.jpg,0.0,Purple.png,6.0,32,,,,,,,,,,,,,,,,,
0.0,1.0,0.85265,0.0,32.0,32.0,32.0,1.0,memory_stick_11s.jpg,0.0,Red.png,6.0,32,,,,,,,,,,,,,,,,,
1.0,0.0,0.95458,0.0,33.0,33.0,33.0,1.0,olive_05s.jpg,0.0,Orange.png,6.0,32,,,,,,,,,,,,,,,,,
0.0,1.0,0.807745,0.0,34.0,34.0,34.0,1.0,ravioli_08s.jpg,0.0,Yellow.png,6.0,32,,,,,,,,,,,,,,,,,
0.0,1.0,0.822215,0.0,35.0,35.0,35.0,1.0,mousetrap_15n.jpg,0.0,Green.png,6.0,32,,,,,,,,,,,,,,,,,
,,,,,,,,,1.0,,,32,0.0,0.0,1.19566,0.0,0.0,0.0,0.0,1.0,hummingbird_05s.jpg,treadmill_06s.jpg,,,,,,,
,,,,,,,,,1.0,,,32,1.0,1.0,1.236235,0.0,1.0,1.0,1.0,1.0,margarita_03s.jpg,quilt_03s.jpg,,,,,,,
,,,,,,,,,0.0,,,32,0.0,1.0,1.16968,0.0,2.0,2.0,2.0,1.0,joystick_01b.jpg,foam_03s.jpg,,,,,,,
,,,,,,,,,0.0,,,32,0.0,1.0,1.33089,0.0,3.0,3.0,3.0,1.0,ravioli_08s.jpg,mop_08s.jpg,,,,,,,
,,,,,,,,,1.0,,,32,0.0,0.0,2.03352,0.0,4.0,4.0,4.0,1.0,tab_09s.jpg,memory_stick_11s.jpg,,,,,,,
,,,,,,,,,1.0,,,32,0.0,0.0,0.963145,0.0,5.0,5.0,5.0,1.0,tripod_01b.jpg,crate_05s.jpg,,,,,,,
,,,,,,,,,,,,32,,,,,,,,,,,0.0,1.0,1.0,1.0,1.0,newclockpresent_2_4.xlsx,newclock_compare_task_2_4.xlsx
0.0,1.0,1.91966,0.0,0.0,0.0,0.0,1.0,safety_pin_02s.jpg,0.0,Blue.png,1.0,32,,,,,,,,,,,,,,,,,
1.0,1.0,1.099265,0.0,1.0,1.0,1.0,1.0,safety_pin_02s.jpg,1.0,Purple.png,1.0,32,,,,,,,,,,,,,,,,,
0.0,1.0,0.91278,0.0,2.0,2.0,2.0,1.0,cardinal_07s.jpg,0.0,Red.png,1.0,32,,,,,,,,,,,,,,,,,
1.0,1.0,1.239755,0.0,3.0,3.0,3.0,1.0,safety_pin_02s.jpg,1.0,Orange.png,1.0,32,,,,,,,,,,,,,,,,,
0.0,1.0,0.844275,0.0,4.0,4.0,4.0,1.0,potholder_02s.jpg,0.0,Yellow.png,1.0,32,,,,,,,,,,,,,,,,,
1.0,1.0,0.930685,0.0,5.0,5.0,5.0,1.0,safety_pin_02s.jpg,1.0,Green.png,1.0,32,,,,,,,,,,,,,,,,,
1.0,0.0,2.00094,0.0,6.0,6.0,6.0,1.0,cardinal_07s.jpg,0.0,Blue.png,2.0,32,,,,,,,,,,,,,,,,,
0.0,1.0,0.62911,0.0,7.0,7.0,7.0,1.0,lion_18s.jpg,0.0,Purple.png,2.0,32,,,,,,,,,,,,,,,,,
0.0,1.0,0.636515,0.0,8.0,8.0,8.0,1.0,comic_book_02s.jpg,0.0,Red.png,2.0,32,,,,,,,,,,,,,,,,,
0.0,1.0,0.649695,0.0,9.0,9.0,9.0,1.0,lizard_10n.jpg,0.0,Orange.png,2.0,32,,,,,,,,,,,,,,,,,
0.0,1.0,1.7425,0.0,10.0,10.0,10.0,1.0,rice_12s.jpg,0.0,Yellow.png,2.0,32,,,,,,,,,,,,,,,,,
0.0,1.0,1.03766,0.0,11.0,11.0,11.0,1.0,bagel_15s.jpg,0.0,Green.png,2.0,32,,,,,,,,,,,,,,,,,
0.0,1.0,1.33035,0.0,12.0,12.0,12.0,1.0,recliner_02s.jpg,0.0,Blue.png,3.0,32,,,,,,,,,,,,,,,,,
1.0,1.0,0.96884,0.0,13.0,13.0,13.0,1.0,recliner_02s.jpg,1.0,Purple.png,3.0,32,,,,,,,,,,,,,,,,,
0.0,1.0,0.815085,0.0,14.0,14.0,14.0,1.0,luggage_08s.jpg,0.0,Red.png,3.0,32,,,,,,,,,,,,,,,,,
1.0,1.0,1.052565,0.0,15.0,15.0,15.0,1.0,recliner_02s.jpg,1.0,Orange.png,3.0,32,,,,,,,,,,,,,,,,,
0.0,1.0,1.09816,0.0,16.0,16.0,16.0,1.0,onion_10s.jpg,0.0,Yellow.png,3.0,32,,,,,,,,,,,,,,,,,
0.0,1.0,0.86236,0.0,17.0,17.0,17.0,1.0,rosary_03s.jpg,0.0,Green.png,3.0,32,,,,,,,,,,,,,,,,,
0.0,1.0,0.95606,0.0,18.0,18.0,18.0,1.0,smokingpipe.jpg,0.0,Blue.png,4.0,32,,,,,,,,,,,,,,,,,
0.0,1.0,1.195615,0.0,19.0,19.0,19.0,1.0,roulette_wheel_04s.jpg,0.0,Purple.png,4.0,32,,,,,,,,,,,,,,,,,
1.0,1.0,1.064525,0.0,20.0,20.0,20.0,1.0,smokingpipe.jpg,1.0,Red.png,4.0,32,,,,,,,,,,,,,,,,,
0.0,1.0,0.89442,0.0,21.0,21.0,21.0,1.0,orchid_01b.jpg,0.0,Orange.png,4.0,32,,,,,,,,,,,,,,,,,
0.0,1.0,2.03061,0.0,22.0,22.0,22.0,1.0,buoy_04s.jpg,0.0,Yellow.png,4.0,32,,,,,,,,,,,,,,,,,
0.0,1.0,0.92204,0.0,23.0,23.0,23.0,1.0,stopwatch_04s.jpg,0.0,Green.png,4.0,32,,,,,,,,,,,,,,,,,
0.0,1.0,0.90587,0.0,24.0,24.0,24.0,1.0,knitting_needle_04s.jpg,0.0,Blue.png,5.0,32,,,,,,,,,,,,,,,,,
0.0,1.0,0.96044,0.0,25.0,25.0,25.0,1.0,prism_10s.jpg,0.0,Purple.png,5.0,32,,,,,,,,,,,,,,,,,
0.0,1.0,1.004315,0.0,26.0,26.0,26.0,1.0,teapot_03s.jpg,0.0,Red.png,5.0,32,,,,,,,,,,,,,,,,,
0.0,1.0,0.90719,0.0,27.0,27.0,27.0,1.0,fire_pit_10s.jpg,0.0,Orange.png,5.0,32,,,,,,,,,,,,,,,,,
1.0,1.0,1.23396,0.0,28.0,28.0,28.0,1.0,fire_pit_10s.jpg,1.0,Yellow.png,5.0,32,,,,,,,,,,,,,,,,,
1.0,1.0,0.886515,0.0,29.0,29.0,29.0,1.0,fire_pit_10s.jpg,1.0,Green.png,5.0,32,,,,,,,,,,,,,,,,,
0.0,1.0,1.13217,0.0,30.0,30.0,30.0,1.0,ironing_board_07s.jpg,0.0,Blue.png,6.0,32,,,,,,,,,,,,,,,,,
1.0,0.0,0.867785,0.0,31.0,31.0,31.0,1.0,fire_pit_10s.jpg,0.0,Purple.png,6.0,32,,,,,,,,,,,,,,,,,
0.0,1.0,1.200325,0.0,32.0,32.0,32.0,1.0,mattress_01s.jpg,0.0,Red.png,6.0,32,,,,,,,,,,,,,,,,,
1.0,1.0,0.948075,0.0,33.0,33.0,33.0,1.0,fire_pit_10s.jpg,1.0,Orange.png,6.0,32,,,,,,,,,,,,,,,,,
1.0,1.0,1.851485,0.0,34.0,34.0,34.0,1.0,mattress_01s.jpg,1.0,Yellow.png,6.0,32,,,,,,,,,,,,,,,,,
0.0,1.0,1.44116,0.0,35.0,35.0,35.0,1.0,ice-cream_cone_06s.jpg,0.0,Green.png,6.0,32,,,,,,,,,,,,,,,,,
,,,,,,,,,1.0,,,32,0.0,0.0,1.77371,0.0,0.0,0.0,0.0,1.0,roulette_wheel_04s.jpg,buoy_04s.jpg,,,,,,,
,,,,,,,,,0.0,,,32,0.0,1.0,1.0582,0.0,1.0,1.0,1.0,1.0,lion_18s.jpg,potholder_02s.jpg,,,,,,,
,,,,,,,,,0.0,,,32,0.0,1.0,1.249575,0.0,2.0,2.0,2.0,1.0,bagel_15s.jpg,comic_book_02s.jpg,,,,,,,
,,,,,,,,,1.0,,,32,1.0,1.0,1.42417,0.0,3.0,3.0,3.0,1.0,stopwatch_04s.jpg,teapot_03s.jpg,,,,,,,
,,,,,,,,,1.0,,,32,1.0,1.0,1.300305,0.0,4.0,4.0,4.0,1.0,luggage_08s.jpg,rosary_03s.jpg,,,,,,,
,,,,,,,,,1.0,,,32,1.0,1.0,1.79464,0.0,5.0,5.0,5.0,1.0,orchid_01b.jpg,knitting_needle_04s.jpg,,,,,,,
,,,,,,,,,,,,32,,,,,,,,,,,0.0,2.0,2.0,2.0,1.0,newclockpresent_3_4.xlsx,newclock_compare_task_3_4.xlsx
0.0,1.0,1.233705,0.0,0.0,0.0,0.0,1.0,smoothie_09s.jpg,0.0,Blue.png,1.0,32,,,,,,,,,,,,,,,,,
0.0,1.0,1.774085,0.0,1.0,1.0,1.0,1.0,raspberry_12s.jpg,0.0,Purple.png,1.0,32,,,,,,,,,,,,,,,,,
1.0,1.0,1.603895,0.0,2.0,2.0,2.0,1.0,raspberry_12s.jpg,1.0,Red.png,1.0,32,,,,,,,,,,,,,,,,,
0.0,1.0,1.36828,0.0,3.0,3.0,3.0,1.0,lamb_chop_07s.jpg,0.0,Orange.png,1.0,32,,,,,,,,,,,,,,,,,
1.0,1.0,1.367095,0.0,4.0,4.0,4.0,1.0,smoothie_09s.jpg,1.0,Yellow.png,1.0,32,,,,,,,,,,,,,,,,,
1.0,1.0,0.99693,0.0,5.0,5.0,5.0,1.0,raspberry_12s.jpg,1.0,Green.png,1.0,32,,,,,,,,,,,,,,,,,
0.0,1.0,1.033315,0.0,6.0,6.0,6.0,1.0,lava_02s.jpg,0.0,Blue.png,2.0,32,,,,,,,,,,,,,,,,,
0.0,1.0,0.951835,0.0,7.0,7.0,7.0,1.0,trident_07s.jpg,0.0,Purple.png,2.0,32,,,,,,,,,,,,,,,,,
1.0,1.0,0.904375,0.0,8.0,8.0,8.0,1.0,trident_07s.jpg,1.0,Red.png,2.0,32,,,,,,,,,,,,,,,,,
1.0,1.0,0.757595,0.0,9.0,9.0,9.0,1.0,trident_07s.jpg,1.0,Orange.png,2.0,32,,,,,,,,,,,,,,,,,
0.0,1.0,0.884205,0.0,10.0,10.0,10.0,1.0,orangutan_03s.jpg,0.0,Yellow.png,2.0,32,,,,,,,,,,,,,,,,,
1.0,1.0,0.96175,0.0,11.0,11.0,11.0,1.0,trident_07s.jpg,1.0,Green.png,2.0,32,,,,,,,,,,,,,,,,,
1.0,0.0,0.887105,0.0,12.0,12.0,12.0,1.0,raspberry_12s.jpg,0.0,Blue.png,3.0,32,,,,,,,,,,,,,,,,,
1.0,0.0,0.69273,0.0,13.0,13.0,13.0,1.0,trident_07s.jpg,0.0,Purple.png,3.0,32,,,,,,,,,,,,,,,,,
0.0,1.0,0.99405,0.0,14.0,14.0,14.0,1.0,lavender_10s.jpg,0.0,Red.png,3.0,32,,,,,,,,,,,,,,,,,
0.0,1.0,0.91992,0.0,15.0,15.0,15.0,1.0,chip_04s.jpg,0.0,Orange.png,3.0,32,,,,,,,,,,,,,,,,,
0.0,1.0,0.974825,0.0,16.0,16.0,16.0,1.0,lamb_04s.jpg,0.0,Yellow.png,3.0,32,,,,,,,,,,,,,,,,,
0.0,1.0,0.795765,0.0,17.0,17.0,17.0,1.0,emerald_02s.jpg,0.0,Green.png,3.0,32,,,,,,,,,,,,,,,,,
0.0,1.0,0.690285,0.0,18.0,18.0,18.0,1.0,pineapple_12s.jpg,0.0,Blue.png,4.0,32,,,,,,,,,,,,,,,,,
0.0,1.0,1.04736,0.0,19.0,19.0,19.0,1.0,sundae_08s.jpg,0.0,Purple.png,4.0,32,,,,,,,,,,,,,,,,,
1.0,1.0,0.87753,0.0,20.0,20.0,20.0,1.0,sundae_08s.jpg,1.0,Red.png,4.0,32,,,,,,,,,,,,,,,,,
0.0,1.0,0.99506,0.0,21.0,21.0,21.0,1.0,squirrel_02s.jpg,0.0,Orange.png,4.0,32,,,,,,,,,,,,,,,,,
0.0,1.0,0.83301,0.0,22.0,22.0,22.0,1.0,roller_coaster_07s.jpg,0.0,Yellow.png,4.0,32,,,,,,,,,,,,,,,,,
1.0,1.0,0.855735,0.0,23.0,23.0,23.0,1.0,sundae_08s.jpg,1.0,Green.png,4.0,32,,,,,,,,,,,,,,,,,
0.0,1.0,1.076645,0.0,24.0,24.0,24.0,1.0,tweezers_03s.jpg,0.0,Blue.png,5.0,32,,,,,,,,,,,,,,,,,
1.0,0.0,0.970605,0.0,25.0,25.0,25.0,1.0,sundae_08s.jpg,0.0,Purple.png,5.0,32,,,,,,,,,,,,,,,,,
0.0,1.0,0.98328,0.0,26.0,26.0,26.0,1.0,rudder_02s.jpg,0.0,Red.png,5.0,32,,,,,,,,,,,,,,,,,
0.0,1.0,2.2308,0.0,27.0,27.0,27.0,1.0,rake_06s.jpg,0.0,Orange.png,5.0,32,,,,,,,,,,,,,,,,,
1.0,1.0,1.06879,0.0,28.0,28.0,28.0,1.0,rake_06s.jpg,1.0,Yellow.png,5.0,32,,,,,,,,,,,,,,,,,
1.0,1.0,1.09549,0.0,29.0,29.0,29.0,1.0,rake_06s.jpg,1.0,Green.png,5.0,32,,,,,,,,,,,,,,,,,
0.0,1.0,1.161545,0.0,30.0,30.0,30.0,1.0,cap_05s.jpg,0.0,Blue.png,6.0,32,,,,,,,,,,,,,,,,,
0.0,1.0,0.84702,0.0,31.0,31.0,31.0,1.0,paper_towel_03s.jpg,0.0,Purple.png,6.0,32,,,,,,,,,,,,,,,,,
0.0,1.0,0.91094,0.0,32.0,32.0,32.0,1.0,toaster_03s.jpg,0.0,Red.png,6.0,32,,,,,,,,,,,,,,,,,
0.0,1.0,0.90624,0.0,33.0,33.0,33.0,1.0,money_07s.jpg,0.0,Orange.png,6.0,32,,,,,,,,,,,,,,,,,
0.0,1.0,0.920095,0.0,34.0,34.0,34.0,1.0,pinwheel_06s.jpg,0.0,Yellow.png,6.0,32,,,,,,,,,,,,,,,,,
0.0,1.0,0.9981,0.0,35.0,35.0,35.0,1.0,lid_10s.jpg,0.0,Green.png,6.0,32,,,,,,,,,,,,,,,,,
,,,,,,,,,0.0,,,32,0.0,1.0,1.92762,0.0,0.0,0.0,0.0,1.0,tweezers_03s.jpg,squirrel_02s.jpg,,,,,,,
,,,,,,,,,1.0,,,32,1.0,1.0,1.55866,0.0,1.0,1.0,1.0,1.0,chip_04s.jpg,pineapple_12s.jpg,,,,,,,
,,,,,,,,,1.0,,,32,0.0,0.0,1.83462,0.0,2.0,2.0,2.0,1.0,lamb_chop_07s.jpg,lava_02s.jpg,,,,,,,
,,,,,,,,,0.0,,,32,0.0,1.0,1.747615,0.0,3.0,3.0,3.0,1.0,pinwheel_06s.jpg,paper_towel_03s.jpg,,,,,,,
,,,,,,,,,0.0,,,32,1.0,0.0,2.190795,0.0,4.0,4.0,4.0,1.0,emerald_02s.jpg,lavender_10s.jpg,,,,,,,
,,,,,,,,,0.0,,,32,1.0,0.0,1.410335,0.0,5.0,5.0,5.0,1.0,money_07s.jpg,cap_05s.jpg,,,,,,,
,,,,,,,,,,,,32,,,,,,,,,,,0.0,3.0,3.0,3.0,1.0,newclockpresent_4_4.xlsx,newclock_compare_task_4_4.xlsx
0.0,1.0,1.09994,0.0,0.0,0.0,0.0,1.0,fur_coat_11s.jpg,0.0,Blue.png,1.0,32,,,,,,,,,,,,,,,,,
0.0,1.0,1.056215,0.0,1.0,1.0,1.0,1.0,crayon_09s.jpg,0.0,Purple.png,1.0,32,,,,,,,,,,,,,,,,,
0.0,1.0,1.886745,0.0,2.0,2.0,2.0,1.0,cobra_05s.jpg,0.0,Red.png,1.0,32,,,,,,,,,,,,,,,,,
0.0,1.0,1.0677,0.0,3.0,3.0,3.0,1.0,raccoon_02s.jpg,0.0,Orange.png,1.0,32,,,,,,,,,,,,,,,,,
0.0,1.0,0.79519,0.0,4.0,4.0,4.0,1.0,soda_fountain_03s.jpg,0.0,Yellow.png,1.0,32,,,,,,,,,,,,,,,,,
1.0,1.0,1.08049,0.0,5.0,5.0,5.0,1.0,raccoon_02s.jpg,1.0,Green.png,1.0,32,,,,,,,,,,,,,,,,,
0.0,1.0,1.35072,0.0,6.0,6.0,6.0,1.0,feather02.jpg,0.0,Blue.png,2.0,32,,,,,,,,,,,,,,,,,
1.0,0.0,0.83623,0.0,7.0,7.0,7.0,1.0,raccoon_02s.jpg,0.0,Purple.png,2.0,32,,,,,,,,,,,,,,,,,
1.0,1.0,1.362385,0.0,8.0,8.0,8.0,1.0,feather02.jpg,1.0,Red.png,2.0,32,,,,,,,,,,,,,,,,,
0.0,1.0,1.608505,0.0,9.0,9.0,9.0,1.0,rug_09s.jpg,0.0,Orange.png,2.0,32,,,,,,,,,,,,,,,,,
1.0,1.0,2.05346,0.0,10.0,10.0,10.0,1.0,feather02.jpg,1.0,Yellow.png,2.0,32,,,,,,,,,,,,,,,,,
0.0,1.0,2.08318,0.0,11.0,11.0,11.0,1.0,cushion_08s.jpg,0.0,Green.png,2.0,32,,,,,,,,,,,,,,,,,
1.0,0.0,1.43239,0.0,12.0,12.0,12.0,1.0,feather02.jpg,0.0,Blue.png,3.0,32,,,,,,,,,,,,,,,,,
1.0,1.0,0.9676,0.0,13.0,13.0,13.0,1.0,feather02.jpg,1.0,Purple.png,3.0,32,,,,,,,,,,,,,,,,,
0.0,1.0,1.074335,0.0,14.0,14.0,14.0,1.0,ice_pack_09s.jpg,0.0,Red.png,3.0,32,,,,,,,,,,,,,,,,,
1.0,1.0,1.7135,0.0,15.0,15.0,15.0,1.0,ice_pack_09s.jpg,1.0,Orange.png,3.0,32,,,,,,,,,,,,,,,,,
,0.0,,0.0,16.0,16.0,16.0,1.0,loom_05s.jpg,0.0,Yellow.png,3.0,32,,,,,,,,,,,,,,,,,
1.0,1.0,1.27755,0.0,17.0,17.0,17.0,1.0,ice_pack_09s.jpg,1.0,Green.png,3.0,32,,,,,,,,,,,,,,,,,
1.0,0.0,0.930525,0.0,18.0,18.0,18.0,1.0,ice_pack_09s.jpg,0.0,Blue.png,4.0,32,,,,,,,,,,,,,,,,,
,0.0,,0.0,19.0,19.0,19.0,1.0,ice_pack_09s.jpg,1.0,Purple.png,4.0,32,,,,,,,,,,,,,,,,,
1.0,1.0,2.355035,0.0,20.0,20.0,20.0,1.0,ice_pack_09s.jpg,1.0,Red.png,4.0,32,,,,,,,,,,,,,,,,,
,0.0,,0.0,21.0,21.0,21.0,1.0,blazer_02s.jpg,0.0,Orange.png,4.0,32,,,,,,,,,,,,,,,,,
0.0,1.0,1.711425,0.0,22.0,22.0,22.0,1.0,penlight_12s.jpg,0.0,Yellow.png,4.0,32,,,,,,,,,,,,,,,,,
0.0,1.0,1.548315,0.0,23.0,23.0,23.0,1.0,swan_11s.jpg,0.0,Green.png,4.0,32,,,,,,,,,,,,,,,,,
0.0,1.0,1.10014,0.0,24.0,24.0,24.0,1.0,plunger_08s.jpg,0.0,Blue.png,5.0,32,,,,,,,,,,,,,,,,,
0.0,1.0,1.16177,0.0,25.0,25.0,25.0,1.0,bottle_opener_11s.jpg,0.0,Purple.png,5.0,32,,,,,,,,,,,,,,,,,
0.0,1.0,1.255545,0.0,26.0,26.0,26.0,1.0,checkbook_11s.jpg,0.0,Red.png,5.0,32,,,,,,,,,,,,,,,,,
0.0,1.0,1.19831,0.0,27.0,27.0,27.0,1.0,ink_08s.jpg,0.0,Orange.png,5.0,32,,,,,,,,,,,,,,,,,
1.0,1.0,1.076425,0.0,28.0,28.0,28.0,1.0,plunger_08s.jpg,1.0,Yellow.png,5.0,32,,,,,,,,,,,,,,,,,
0.0,1.0,0.896415,0.0,29.0,29.0,29.0,1.0,pencil02a.jpg,0.0,Green.png,5.0,32,,,,,,,,,,,,,,,,,
0.0,1.0,1.022755,0.0,30.0,30.0,30.0,1.0,ginger_09s.jpg,0.0,Blue.png,6.0,32,,,,,,,,,,,,,,,,,
0.0,1.0,1.188885,0.0,31.0,31.0,31.0,1.0,taxi_15s.jpg,0.0,Purple.png,6.0,32,,,,,,,,,,,,,,,,,
0.0,1.0,0.929725,0.0,32.0,32.0,32.0,1.0,toy_04s.jpg,0.0,Red.png,6.0,32,,,,,,,,,,,,,,,,,
0.0,1.0,1.046465,0.0,33.0,33.0,33.0,1.0,blowfish_03s.jpg,0.0,Orange.png,6.0,32,,,,,,,,,,,,,,,,,
0.0,1.0,1.10177,0.0,34.0,34.0,34.0,1.0,toilet_paper_12s.jpg,0.0,Yellow.png,6.0,32,,,,,,,,,,,,,,,,,
0.0,1.0,0.987145,0.0,35.0,35.0,35.0,1.0,puddle_02s.jpg,0.0,Green.png,6.0,32,,,,,,,,,,,,,,,,,
,,,,,,,,,1.0,,,32,1.0,1.0,2.26169,0.0,0.0,0.0,0.0,1.0,ink_08s.jpg,ginger_09s.jpg,,,,,,,
,,,,,,,,,0.0,,,32,0.0,1.0,2.330335,0.0,1.0,1.0,1.0,1.0,puddle_02s.jpg,toy_04s.jpg,,,,,,,
,,,,,,,,,0.0,,,32,0.0,1.0,1.495115,0.0,2.0,2.0,2.0,1.0,bottle_opener_11s.jpg,penlight_12s.jpg,,,,,,,
,,,,,,,,,0.0,,,32,1.0,0.0,1.465035,0.0,3.0,3.0,3.0,1.0,checkbook_11s.jpg,swan_11s.jpg,,,,,,,
,,,,,,,,,1.0,,,32,1.0,1.0,1.30841,0.0,4.0,4.0,4.0,1.0,taxi_15s.jpg,toilet_paper_12s.jpg,,,,,,,
,,,,,,,,,1.0,,,32,1.0,1.0,1.083705,0.0,5.0,5.0,5.0,1.0,crayon_09s.jpg,soda_fountain_03s.jpg,,,,,,,
,,,,,,,,,,,,32,,,,,,,,,,,0.0,4.0,4.0,4.0,1.0,newclockpresent_5_4.xlsx,newclock_compare_task_5_4.xlsx
0.0,1.0,1.36629,0.0,0.0,0.0,0.0,1.0,flask_04s.jpg,0.0,Blue.png,1.0,32,,,,,,,,,,,,,,,,,
0.0,1.0,0.955665,0.0,1.0,1.0,1.0,1.0,kimono_13s.jpg,0.0,Purple.png,1.0,32,,,,,,,,,,,,,,,,,
0.0,1.0,2.27588,0.0,2.0,2.0,2.0,1.0,limousine_12s.jpg,0.0,Red.png,1.0,32,,,,,,,,,,,,,,,,,
0.0,1.0,1.10397,0.0,3.0,3.0,3.0,1.0,lectern_08s.jpg,0.0,Orange.png,1.0,32,,,,,,,,,,,,,,,,,
1.0,1.0,0.989465,0.0,4.0,4.0,4.0,1.0,kimono_13s.jpg,1.0,Yellow.png,1.0,32,,,,,,,,,,,,,,,,,
0.0,1.0,1.619965,0.0,5.0,5.0,5.0,1.0,doily_13s.jpg,0.0,Green.png,1.0,32,,,,,,,,,,,,,,,,,
1.0,0.0,1.329615,0.0,6.0,6.0,6.0,1.0,kimono_13s.jpg,0.0,Blue.png,2.0,32,,,,,,,,,,,,,,,,,
0.0,1.0,1.71027,0.0,7.0,7.0,7.0,1.0,razor_blade_01b.jpg,0.0,Purple.png,2.0,32,,,,,,,,,,,,,,,,,
1.0,1.0,1.2074,0.0,8.0,8.0,8.0,1.0,razor_blade_01b.jpg,1.0,Red.png,2.0,32,,,,,,,,,,,,,,,,,
0.0,1.0,2.180155,0.0,9.0,9.0,9.0,1.0,champagne_18s.jpg,0.0,Orange.png,2.0,32,,,,,,,,,,,,,,,,,
0.0,1.0,1.13747,0.0,10.0,10.0,10.0,1.0,stamp1_11s.jpg,0.0,Yellow.png,2.0,32,,,,,,,,,,,,,,,,,
1.0,1.0,1.038795,0.0,11.0,11.0,11.0,1.0,champagne_18s.jpg,1.0,Green.png,2.0,32,,,,,,,,,,,,,,,,,
0.0,1.0,1.524865,0.0,12.0,12.0,12.0,1.0,crossbow_10s.jpg,0.0,Blue.png,3.0,32,,,,,,,,,,,,,,,,,
0.0,1.0,0.8985,0.0,13.0,13.0,13.0,1.0,briefcase_03s.jpg,0.0,Purple.png,3.0,32,,,,,,,,,,,,,,,,,
0.0,1.0,1.75102,0.0,14.0,14.0,14.0,1.0,jersey_02s.jpg,0.0,Red.png,3.0,32,,,,,,,,,,,,,,,,,
1.0,1.0,0.757815,0.0,15.0,15.0,15.0,1.0,briefcase_03s.jpg,1.0,Orange.png,3.0,32,,,,,,,,,,,,,,,,,
0.0,1.0,1.02757,0.0,16.0,16.0,16.0,1.0,oil_02s.jpg,0.0,Yellow.png,3.0,32,,,,,,,,,,,,,,,,,
0.0,1.0,1.95391,0.0,17.0,17.0,17.0,1.0,tinsel_12s.jpg,0.0,Green.png,3.0,32,,,,,,,,,,,,,,,,,
1.0,0.0,1.039135,0.0,18.0,18.0,18.0,1.0,flask_04s.jpg,0.0,Blue.png,4.0,32,,,,,,,,,,,,,,,,,
0.0,1.0,1.556445,0.0,19.0,19.0,19.0,1.0,fork_04s.jpg,0.0,Purple.png,4.0,32,,,,,,,,,,,,,,,,,
0.0,1.0,0.8836,0.0,20.0,20.0,20.0,1.0,purse_05s.jpg,0.0,Red.png,4.0,32,,,,,,,,,,,,,,,,,
1.0,1.0,1.11278,0.0,21.0,21.0,21.0,1.0,flask_04s.jpg,1.0,Orange.png,4.0,32,,,,,,,,,,,,,,,,,
0.0,1.0,1.671445,0.0,22.0,22.0,22.0,1.0,sledgehammer_03s.jpg,0.0,Yellow.png,4.0,32,,,,,,,,,,,,,,,,,
,0.0,,0.0,23.0,23.0,23.0,1.0,turf_03s.jpg,0.0,Green.png,4.0,32,,,,,,,,,,,,,,,,,
0.0,1.0,1.542775,0.0,24.0,24.0,24.0,1.0,omelet_07s.jpg,0.0,Blue.png,5.0,32,,,,,,,,,,,,,,,,,
0.0,1.0,1.78882,0.0,25.0,25.0,25.0,1.0,turf_03s.jpg,0.0,Purple.png,5.0,32,,,,,,,,,,,,,,,,,
0.0,1.0,0.8898,0.0,26.0,26.0,26.0,1.0,clover_04s.jpg,0.0,Red.png,5.0,32,,,,,,,,,,,,,,,,,
0.0,1.0,1.03391,0.0,27.0,27.0,27.0,1.0,lip_gloss_06s.jpg,0.0,Orange.png,5.0,32,,,,,,,,,,,,,,,,,
0.0,1.0,1.325635,0.0,28.0,28.0,28.0,1.0,amber_04s.jpg,0.0,Yellow.png,5.0,32,,,,,,,,,,,,,,,,,
0.0,1.0,0.802755,0.0,29.0,29.0,29.0,1.0,tortilla_06s.jpg,0.0,Green.png,5.0,32,,,,,,,,,,,,,,,,,
1.0,0.0,0.85728,0.0,30.0,30.0,30.0,1.0,razor_blade_01b.jpg,0.0,Blue.png,6.0,32,,,,,,,,,,,,,,,,,
0.0,1.0,0.966535,0.0,31.0,31.0,31.0,1.0,tape_measure_11s.jpg,0.0,Purple.png,6.0,32,,,,,,,,,,,,,,,,,
1.0,1.0,0.782175,0.0,32.0,32.0,32.0,1.0,razor_blade_01b.jpg,1.0,Red.png,6.0,32,,,,,,,,,,,,,,,,,
1.0,1.0,0.794685,0.0,33.0,33.0,33.0,1.0,razor_blade_01b.jpg,1.0,Orange.png,6.0,32,,,,,,,,,,,,,,,,,
0.0,1.0,0.80048,0.0,34.0,34.0,34.0,1.0,stingray_02s.jpg,0.0,Yellow.png,6.0,32,,,,,,,,,,,,,,,,,
0.0,1.0,0.781805,0.0,35.0,35.0,35.0,1.0,harpoon.jpg,0.0,Green.png,6.0,32,,,,,,,,,,,,,,,,,
,,,,,,,,,1.0,,,32,1.0,1.0,1.54781,0.0,0.0,0.0,0.0,1.0,oil_02s.jpg,fork_04s.jpg,,,,,,,
,,,,,,,,,0.0,,,32,0.0,1.0,2.121725,0.0,1.0,1.0,1.0,1.0,doily_13s.jpg,limousine_12s.jpg,,,,,,,
,,,,,,,,,0.0,,,32,1.0,0.0,1.844725,0.0,2.0,2.0,2.0,1.0,lip_gloss_06s.jpg,omelet_07s.jpg,,,,,,,
,,,,,,,,,0.0,,,32,0.0,1.0,3.16505,0.0,3.0,3.0,3.0,1.0,tape_measure_11s.jpg,amber_04s.jpg,,,,,,,
,,,,,,,,,0.0,,,32,1.0,0.0,2.262635,0.0,4.0,4.0,4.0,1.0,tortilla_06s.jpg,clover_04s.jpg,,,,,,,
,,,,,,,,,0.0,,,32,0.0,1.0,1.647785,0.0,5.0,5.0,5.0,1.0,purse_05s.jpg,tinsel_12s.jpg,,,,,,,
,,,,,,,,,,,,32,,,,,,,,,,,0.0,5.0,5.0,5.0,1.0,newclockpresent_6_4.xlsx,newclock_compare_task_6_4.xlsx
0.0,1.0,1.14226,0.0,0.0,0.0,0.0,1.0,butter_14s.jpg,0.0,Blue.png,1.0,32,,,,,,,,,,,,,,,,,
1.0,1.0,2.099855,0.0,1.0,1.0,1.0,1.0,butter_14s.jpg,1.0,Purple.png,1.0,32,,,,,,,,,,,,,,,,,
1.0,1.0,2.267385,0.0,2.0,2.0,2.0,1.0,butter_14s.jpg,1.0,Red.png,1.0,32,,,,,,,,,,,,,,,,,
0.0,1.0,1.342665,0.0,3.0,3.0,3.0,1.0,stamp2_08s.jpg,0.0,Orange.png,1.0,32,,,,,,,,,,,,,,,,,
0.0,1.0,0.948625,0.0,4.0,4.0,4.0,1.0,kangaroo_02s.jpg,0.0,Yellow.png,1.0,32,,,,,,,,,,,,,,,,,
0.0,1.0,1.155455,0.0,5.0,5.0,5.0,1.0,camcorder_10s.jpg,0.0,Green.png,1.0,32,,,,,,,,,,,,,,,,,
0.0,1.0,1.400225,0.0,6.0,6.0,6.0,1.0,bank_06s.jpg,0.0,Blue.png,2.0,32,,,,,,,,,,,,,,,,,
0.0,1.0,0.773555,0.0,7.0,7.0,7.0,1.0,gear_07s.jpg,0.0,Purple.png,2.0,32,,,,,,,,,,,,,,,,,
1.0,1.0,0.916945,0.0,8.0,8.0,8.0,1.0,bank_06s.jpg,1.0,Red.png,2.0,32,,,,,,,,,,,,,,,,,
0.0,1.0,1.075205,0.0,9.0,9.0,9.0,1.0,funnel_01b.jpg,0.0,Orange.png,2.0,32,,,,,,,,,,,,,,,,,
0.0,1.0,1.37655,0.0,10.0,10.0,10.0,1.0,poinsettia_04s.jpg,0.0,Yellow.png,2.0,32,,,,,,,,,,,,,,,,,
1.0,1.0,0.949475,0.0,11.0,11.0,11.0,1.0,funnel_01b.jpg,1.0,Green.png,2.0,32,,,,,,,,,,,,,,,,,
0.0,1.0,1.965275,0.0,12.0,12.0,12.0,1.0,rooster_03s.jpg,0.0,Blue.png,3.0,32,,,,,,,,,,,,,,,,,
0.0,1.0,1.200575,0.0,13.0,13.0,13.0,1.0,denture_03s.jpg,0.0,Purple.png,3.0,32,,,,,,,,,,,,,,,,,
0.0,1.0,1.279705,0.0,14.0,14.0,14.0,1.0,bean_06s.jpg,0.0,Red.png,3.0,32,,,,,,,,,,,,,,,,,
0.0,1.0,1.25356,0.0,15.0,15.0,15.0,1.0,mud_13s.jpg,0.0,Orange.png,3.0,32,,,,,,,,,,,,,,,,,
0.0,1.0,1.07508,0.0,16.0,16.0,16.0,1.0,keyhole_03s.jpg,0.0,Yellow.png,3.0,32,,,,,,,,,,,,,,,,,
1.0,1.0,0.88978,0.0,17.0,17.0,17.0,1.0,bean_06s.jpg,1.0,Green.png,3.0,32,,,,,,,,,,,,,,,,,
1.0,0.0,1.893335,0.0,18.0,18.0,18.0,1.0,bank_06s.jpg,0.0,Blue.png,4.0,32,,,,,,,,,,,,,,,,,
0.0,1.0,1.637325,0.0,19.0,19.0,19.0,1.0,pomegranate_04s.jpg,0.0,Purple.png,4.0,32,,,,,,,,,,,,,,,,,
0.0,1.0,1.09948,0.0,20.0,20.0,20.0,1.0,chopsticks_08s.jpg,0.0,Red.png,4.0,32,,,,,,,,,,,,,,,,,
0.0,1.0,0.95452,0.0,21.0,21.0,21.0,1.0,contact_lens_15s.jpg,0.0,Orange.png,4.0,32,,,,,,,,,,,,,,,,,
0.0,1.0,1.64034,0.0,22.0,22.0,22.0,1.0,hydrant_10s.jpg,0.0,Yellow.png,4.0,32,,,,,,,,,,,,,,,,,
0.0,1.0,0.909705,0.0,23.0,23.0,23.0,1.0,gingerbread_man_03s.jpg,0.0,Green.png,4.0,32,,,,,,,,,,,,,,,,,
1.0,0.0,1.755425,0.0,24.0,24.0,24.0,1.0,camcorder_10s.jpg,0.0,Blue.png,5.0,32,,,,,,,,,,,,,,,,,
0.0,1.0,1.088335,0.0,25.0,25.0,25.0,1.0,teabag_12s.jpg,0.0,Purple.png,5.0,32,,,,,,,,,,,,,,,,,
0.0,1.0,0.83858,0.0,26.0,26.0,26.0,1.0,radiator_05s.jpg,0.0,Red.png,5.0,32,,,,,,,,,,,,,,,,,
0.0,1.0,0.8842,0.0,27.0,27.0,27.0,1.0,punch1_10s.jpg,0.0,Orange.png,5.0,32,,,,,,,,,,,,,,,,,
0.0,1.0,0.96948,0.0,28.0,28.0,28.0,1.0,mailbox_11s.jpg,0.0,Yellow.png,5.0,32,,,,,,,,,,,,,,,,,
,0.0,,0.0,29.0,29.0,29.0,1.0,beaker_01b.jpg,0.0,Green.png,5.0,32,,,,,,,,,,,,,,,,,
1.0,0.0,1.32509,0.0,30.0,30.0,30.0,1.0,mailbox_11s.jpg,0.0,Blue.png,6.0,32,,,,,,,,,,,,,,,,,
,0.0,,0.0,31.0,31.0,31.0,1.0,pipe1_10s.jpg,0.0,Purple.png,6.0,32,,,,,,,,,,,,,,,,,
1.0,1.0,0.92907,0.0,32.0,32.0,32.0,1.0,mailbox_11s.jpg,1.0,Red.png,6.0,32,,,,,,,,,,,,,,,,,
1.0,1.0,1.28504,0.0,33.0,33.0,33.0,1.0,pipe1_10s.jpg,1.0,Orange.png,6.0,32,,,,,,,,,,,,,,,,,
0.0,1.0,1.197415,0.0,34.0,34.0,34.0,1.0,eyedropper_12s.jpg,0.0,Yellow.png,6.0,32,,,,,,,,,,,,,,,,,
0.0,1.0,1.88306,0.0,35.0,35.0,35.0,1.0,rhubarb_03s.jpg,0.0,Green.png,6.0,32,,,,,,,,,,,,,,,,,
,,,,,,,,,0.0,,,32,0.0,1.0,1.586405,0.0,0.0,0.0,0.0,1.0,mud_13s.jpg,rooster_03s.jpg,,,,,,,
,,,,,,,,,1.0,,,32,0.0,0.0,1.568435,0.0,1.0,1.0,1.0,1.0,chopsticks_08s.jpg,gingerbread_man_03s.jpg,,,,,,,
,,,,,,,,,0.0,,,32,0.0,1.0,1.916425,0.0,2.0,2.0,2.0,1.0,beaker_01b.jpg,radiator_05s.jpg,,,,,,,
,,,,,,,,,0.0,,,32,0.0,1.0,3.235575,0.0,3.0,3.0,3.0,1.0,teabag_12s.jpg,hydrant_10s.jpg,,,,,,,
,,,,,,,,,0.0,,,32,1.0,0.0,2.00807,0.0,4.0,4.0,4.0,1.0,denture_03s.jpg,poinsettia_04s.jpg,,,,,,,
,,,,,,,,,1.0,,,32,1.0,1.0,2.9163,0.0,5.0,5.0,5.0,1.0,kangaroo_02s.jpg,gear_07s.jpg,,,,,,,
,,,,,,,,,,,,32,,,,,,,,,,,0.0,6.0,6.0,6.0,1.0,newclockpresent_7_4.xlsx,newclock_compare_task_7_4.xlsx
0.0,1.0,0.815795,0.0,0.0,0.0,0.0,1.0,lamppost_09s.jpg,0.0,Blue.png,1.0,32,,,,,,,,,,,,,,,,,
0.0,1.0,0.59381,0.0,1.0,1.0,1.0,1.0,jewel_01b.jpg,0.0,Purple.png,1.0,32,,,,,,,,,,,,,,,,,
0.0,1.0,0.567005,0.0,2.0,2.0,2.0,1.0,tuxedo_01b.jpg,0.0,Red.png,1.0,32,,,,,,,,,,,,,,,,,
0.0,1.0,0.764995,0.0,3.0,3.0,3.0,1.0,flip_flop_03s.jpg,0.0,Orange.png,1.0,32,,,,,,,,,,,,,,,,,
0.0,1.0,1.05073,0.0,4.0,4.0,4.0,1.0,medal_04s.jpg,0.0,Yellow.png,1.0,32,,,,,,,,,,,,,,,,,
1.0,1.0,1.37717,0.0,5.0,5.0,5.0,1.0,flip_flop_03s.jpg,1.0,Green.png,1.0,32,,,,,,,,,,,,,,,,,
1.0,0.0,1.005145,0.0,6.0,6.0,6.0,1.0,tuxedo_01b.jpg,0.0,Blue.png,2.0,32,,,,,,,,,,,,,,,,,
1.0,0.0,1.02029,0.0,7.0,7.0,7.0,1.0,flip_flop_03s.jpg,0.0,Purple.png,2.0,32,,,,,,,,,,,,,,,,,
0.0,1.0,1.130385,0.0,8.0,8.0,8.0,1.0,fireworks_18s.jpg,0.0,Red.png,2.0,32,,,,,,,,,,,,,,,,,
0.0,1.0,1.10355,0.0,9.0,9.0,9.0,1.0,squirt_gun_03s.jpg,0.0,Orange.png,2.0,32,,,,,,,,,,,,,,,,,
1.0,1.0,1.08893,0.0,10.0,10.0,10.0,1.0,flip_flop_03s.jpg,1.0,Yellow.png,2.0,32,,,,,,,,,,,,,,,,,
0.0,1.0,1.32501,0.0,11.0,11.0,11.0,1.0,puffin_19s.jpg,0.0,Green.png,2.0,32,,,,,,,,,,,,,,,,,
1.0,0.0,1.049405,0.0,12.0,12.0,12.0,1.0,tuxedo_01b.jpg,0.0,Blue.png,3.0,32,,,,,,,,,,,,,,,,,
1.0,1.0,1.047455,0.0,13.0,13.0,13.0,1.0,tuxedo_01b.jpg,1.0,Purple.png,3.0,32,,,,,,,,,,,,,,,,,
0.0,1.0,1.359235,0.0,14.0,14.0,14.0,1.0,snowman_02s.jpg,0.0,Red.png,3.0,32,,,,,,,,,,,,,,,,,
0.0,1.0,1.028255,0.0,15.0,15.0,15.0,1.0,cucumber_07s.jpg,0.0,Orange.png,3.0,32,,,,,,,,,,,,,,,,,
0.0,1.0,0.874355,0.0,16.0,16.0,16.0,1.0,plug_08s.jpg,0.0,Yellow.png,3.0,32,,,,,,,,,,,,,,,,,
1.0,1.0,1.46525,0.0,17.0,17.0,17.0,1.0,cucumber_07s.jpg,1.0,Green.png,3.0,32,,,,,,,,,,,,,,,,,
1.0,0.0,1.18097,0.0,18.0,18.0,18.0,1.0,puffin_19s.jpg,0.0,Blue.png,4.0,32,,,,,,,,,,,,,,,,,
0.0,1.0,0.825605,0.0,19.0,19.0,19.0,1.0,fondue_07s.jpg,0.0,Purple.png,4.0,32,,,,,,,,,,,,,,,,,
0.0,1.0,1.761265,0.0,20.0,20.0,20.0,1.0,lasagna_06s.jpg,0.0,Red.png,4.0,32,,,,,,,,,,,,,,,,,
0.0,1.0,1.423055,0.0,21.0,21.0,21.0,1.0,eiffeltower.jpg,0.0,Orange.png,4.0,32,,,,,,,,,,,,,,,,,
0.0,1.0,1.21198,0.0,22.0,22.0,22.0,1.0,outlet_10s.jpg,0.0,Yellow.png,4.0,32,,,,,,,,,,,,,,,,,
0.0,1.0,1.2345,0.0,23.0,23.0,23.0,1.0,cape_11s.jpg,0.0,Green.png,4.0,32,,,,,,,,,,,,,,,,,
0.0,1.0,1.567765,0.0,24.0,24.0,24.0,1.0,marshmallow_08s.jpg,0.0,Blue.png,5.0,32,,,,,,,,,,,,,,,,,
1.0,0.0,1.85583,0.0,25.0,25.0,25.0,1.0,racehorse_03s.jpg,0.0,Purple.png,5.0,32,,,,,,,,,,,,,,,,,
0.0,1.0,0.860855,0.0,26.0,26.0,26.0,1.0,aluminum_foil_08s.jpg,0.0,Red.png,5.0,32,,,,,,,,,,,,,,,,,
0.0,1.0,1.521695,0.0,27.0,27.0,27.0,1.0,spoon02a.jpg,0.0,Orange.png,5.0,32,,,,,,,,,,,,,,,,,
0.0,1.0,2.255395,0.0,28.0,28.0,28.0,1.0,padlock_07s.jpg,0.0,Yellow.png,5.0,32,,,,,,,,,,,,,,,,,
0.0,1.0,0.8928,0.0,29.0,29.0,29.0,1.0,solar_panel_02s.jpg,0.0,Green.png,5.0,32,,,,,,,,,,,,,,,,,
0.0,1.0,2.418375,0.0,30.0,30.0,30.0,1.0,turtleneck_11s.jpg,0.0,Blue.png,6.0,32,,,,,,,,,,,,,,,,,
0.0,1.0,1.793025,0.0,31.0,31.0,31.0,1.0,pocketknife_12s.jpg,0.0,Purple.png,6.0,32,,,,,,,,,,,,,,,,,
1.0,1.0,1.941195,0.0,32.0,32.0,32.0,1.0,pocketknife_12s.jpg,1.0,Red.png,6.0,32,,,,,,,,,,,,,,,,,
0.0,1.0,1.80297,0.0,33.0,33.0,33.0,1.0,quill_09s.jpg,0.0,Orange.png,6.0,32,,,,,,,,,,,,,,,,,
1.0,1.0,1.137725,0.0,34.0,34.0,34.0,1.0,quill_09s.jpg,1.0,Yellow.png,6.0,32,,,,,,,,,,,,,,,,,
1.0,1.0,1.01654,0.0,35.0,35.0,35.0,1.0,pocketknife_12s.jpg,1.0,Green.png,6.0,32,,,,,,,,,,,,,,,,,
,,,,,,,,,0.0,,,32,0.0,1.0,3.147275,0.0,0.0,0.0,0.0,1.0,cape_11s.jpg,lasagna_06s.jpg,,,,,,,
,,,,,,,,,0.0,,,32,0.0,1.0,2.18183,0.0,1.0,1.0,1.0,1.0,padlock_07s.jpg,racehorse_03s.jpg,,,,,,,
,,,,,,,,,1.0,,,32,1.0,1.0,1.689835,0.0,2.0,2.0,2.0,1.0,spoon02a.jpg,turtleneck_11s.jpg,,,,,,,
,,,,,,,,,0.0,,,32,0.0,1.0,2.98588,0.0,3.0,3.0,3.0,1.0,marshmallow_08s.jpg,eiffeltower.jpg,,,,,,,
,,,,,,,,,0.0,,,32,0.0,1.0,3.80574,0.0,4.0,4.0,4.0,1.0,medal_04s.jpg,jewel_01b.jpg,,,,,,,
,,,,,,,,,1.0,,,32,0.0,0.0,1.60238,0.0,5.0,5.0,5.0,1.0,plug_08s.jpg,fondue_07s.jpg,,,,,,,
,,,,,,,,,,,,32,,,,,,,,,,,0.0,7.0,7.0,7.0,1.0,newclockpresent_8_4.xlsx,newclock_compare_task_8_4.xlsx
0.0,1.0,0.97526,0.0,0.0,0.0,0.0,1.0,footprint_11s.jpg,0.0,Blue.png,1.0,32,,,,,,,,,,,,,,,,,
0.0,1.0,1.229885,0.0,1.0,1.0,1.0,1.0,coffee_filter_10s.jpg,0.0,Purple.png,1.0,32,,,,,,,,,,,,,,,,,
1.0,1.0,0.90025,0.0,2.0,2.0,2.0,1.0,coffee_filter_10s.jpg,1.0,Red.png,1.0,32,,,,,,,,,,,,,,,,,
1.0,1.0,0.9146,0.0,3.0,3.0,3.0,1.0,coffee_filter_10s.jpg,1.0,Orange.png,1.0,32,,,,,,,,,,,,,,,,,
1.0,1.0,0.7193,0.0,4.0,4.0,4.0,1.0,coffee_filter_10s.jpg,1.0,Yellow.png,1.0,32,,,,,,,,,,,,,,,,,
,0.0,,0.0,5.0,5.0,5.0,1.0,gargoyle_08s.jpg,0.0,Green.png,1.0,32,,,,,,,,,,,,,,,,,
0.0,1.0,1.93881,0.0,6.0,6.0,6.0,1.0,candy_cane_06s.jpg,0.0,Blue.png,2.0,32,,,,,,,,,,,,,,,,,
0.0,1.0,1.323765,0.0,7.0,7.0,7.0,1.0,toad_09s.jpg,0.0,Purple.png,2.0,32,,,,,,,,,,,,,,,,,
,0.0,,0.0,8.0,8.0,8.0,1.0,candy_cane_06s.jpg,1.0,Red.png,2.0,32,,,,,,,,,,,,,,,,,
0.0,1.0,2.33218,0.0,9.0,9.0,9.0,1.0,pumpkin_03s.jpg,0.0,Orange.png,2.0,32,,,,,,,,,,,,,,,,,
0.0,1.0,1.322035,0.0,10.0,10.0,10.0,1.0,dashboard_02s.jpg,0.0,Yellow.png,2.0,32,,,,,,,,,,,,,,,,,
0.0,1.0,1.0156,0.0,11.0,11.0,11.0,1.0,syringe_02s.jpg,0.0,Green.png,2.0,32,,,,,,,,,,,,,,,,,
0.0,1.0,1.43794,0.0,12.0,12.0,12.0,1.0,powder_07s.jpg,0.0,Blue.png,3.0,32,,,,,,,,,,,,,,,,,
1.0,1.0,1.547935,0.0,13.0,13.0,13.0,1.0,powder_07s.jpg,1.0,Purple.png,3.0,32,,,,,,,,,,,,,,,,,
1.0,1.0,0.88293,0.0,14.0,14.0,14.0,1.0,powder_07s.jpg,1.0,Red.png,3.0,32,,,,,,,,,,,,,,,,,
0.0,1.0,1.44765,0.0,15.0,15.0,15.0,1.0,sea_urchin_09s.jpg,0.0,Orange.png,3.0,32,,,,,,,,,,,,,,,,,
0.0,1.0,1.94859,0.0,16.0,16.0,16.0,1.0,throne_11s.jpg,0.0,Yellow.png,3.0,32,,,,,,,,,,,,,,,,,
1.0,1.0,0.99842,0.0,17.0,17.0,17.0,1.0,powder_07s.jpg,1.0,Green.png,3.0,32,,,,,,,,,,,,,,,,,
0.0,1.0,1.94497,0.0,18.0,18.0,18.0,1.0,chalice_10s.jpg,0.0,Blue.png,4.0,32,,,,,,,,,,,,,,,,,
0.0,1.0,1.390335,0.0,19.0,19.0,19.0,1.0,air_pump_05s.jpg,0.0,Purple.png,4.0,32,,,,,,,,,,,,,,,,,
0.0,1.0,1.444865,0.0,20.0,20.0,20.0,1.0,microwave_02s.jpg,0.0,Red.png,4.0,32,,,,,,,,,,,,,,,,,
0.0,1.0,2.458135,0.0,21.0,21.0,21.0,1.0,cereal_04s.jpg,0.0,Orange.png,4.0,32,,,,,,,,,,,,,,,,,
0.0,1.0,1.27083,0.0,22.0,22.0,22.0,1.0,mushroom_10n.jpg,0.0,Yellow.png,4.0,32,,,,,,,,,,,,,,,,,
0.0,1.0,1.173055,0.0,23.0,23.0,23.0,1.0,red_carpet_03s.jpg,0.0,Green.png,4.0,32,,,,,,,,,,,,,,,,,
1.0,0.0,1.253405,0.0,24.0,24.0,24.0,1.0,throne_11s.jpg,0.0,Blue.png,5.0,32,,,,,,,,,,,,,,,,,
1.0,0.0,1.44749,0.0,25.0,25.0,25.0,1.0,koala_13s.jpg,0.0,Purple.png,5.0,32,,,,,,,,,,,,,,,,,
1.0,1.0,1.26246,0.0,26.0,26.0,26.0,1.0,throne_11s.jpg,1.0,Red.png,5.0,32,,,,,,,,,,,,,,,,,
,0.0,,0.0,27.0,27.0,27.0,1.0,rocket_02s.jpg,0.0,Orange.png,5.0,32,,,,,,,,,,,,,,,,,
0.0,1.0,1.81788,0.0,28.0,28.0,28.0,1.0,swordfish_05s.jpg,0.0,Yellow.png,5.0,32,,,,,,,,,,,,,,,,,
1.0,1.0,1.25578,0.0,29.0,29.0,29.0,1.0,rocket_02s.jpg,1.0,Green.png,5.0,32,,,,,,,,,,,,,,,,,
0.0,1.0,2.44417,0.0,30.0,30.0,30.0,1.0,icicle_04s.jpg,0.0,Blue.png,6.0,32,,,,,,,,,,,,,,,,,
0.0,1.0,0.93892,0.0,31.0,31.0,31.0,1.0,keyboard_05s.jpg,0.0,Purple.png,6.0,32,,,,,,,,,,,,,,,,,
0.0,1.0,1.498445,0.0,32.0,32.0,32.0,1.0,pocket_watch_16s.jpg,0.0,Red.png,6.0,32,,,,,,,,,,,,,,,,,
0.0,1.0,1.382225,0.0,33.0,33.0,33.0,1.0,tablet_04s.jpg,0.0,Orange.png,6.0,32,,,,,,,,,,,,,,,,,
0.0,1.0,1.37206,0.0,34.0,34.0,34.0,1.0,chocolate_01b.jpg,0.0,Yellow.png,6.0,32,,,,,,,,,,,,,,,,,
0.0,1.0,1.427575,0.0,35.0,35.0,35.0,1.0,light_switch_02s.jpg,0.0,Green.png,6.0,32,,,,,,,,,,,,,,,,,
,,,,,,,,,0.0,,,32,0.0,1.0,1.526405,0.0,0.0,0.0,0.0,1.0,chalice_10s.jpg,sea_urchin_09s.jpg,,,,,,,
,,,,,,,,,1.0,,,32,1.0,1.0,1.35405,0.0,1.0,1.0,1.0,1.0,swordfish_05s.jpg,keyboard_05s.jpg,,,,,,,
,,,,,,,,,0.0,,,32,0.0,1.0,1.010705,0.0,2.0,2.0,2.0,1.0,red_carpet_03s.jpg,microwave_02s.jpg,,,,,,,
,,,,,,,,,0.0,,,32,1.0,0.0,1.436175,0.0,3.0,3.0,3.0,1.0,dashboard_02s.jpg,toad_09s.jpg,,,,,,,
,,,,,,,,,0.0,,,32,0.0,1.0,0.801995,0.0,4.0,4.0,4.0,1.0,koala_13s.jpg,mushroom_10n.jpg,,,,,,,
,,,,,,,,,1.0,,,32,0.0,0.0,0.196835,0.0,5.0,5.0,5.0,1.0,icicle_04s.jpg,tablet_04s.jpg,,,,,,,
,,,,,,,,,,,,32,,,,,,,,,,,0.0,8.0,8.0,8.0,1.0,newclockpresent_9_4.xlsx,newclock_compare_task_9_4.xlsx
