key_resp.keys,key_resp.corr,key_resp.rt,present_segment.thisRepN,present_segment.thisTrialN,present_segment.thisN,present_segment.thisIndex,present_segment.ran,pictures,answer,clock,segment,participant,key_resp_2.keys,key_resp_2.corr,key_resp_2.rt,compare_segment.thisRepN,compare_segment.thisTrialN,compare_segment.thisN,compare_segment.thisIndex,compare_segment.ran,item_a,item_b,clock_conditions.thisRepN,clock_conditions.thisTrialN,clock_conditions.thisN,clock_conditions.thisIndex,clock_conditions.ran,present,compare
0.0,1.0,1.915035,0.0,0.0,0.0,0.0,1.0,mirror_12s.jpg,0.0,Blue.png,1.0,132,,,,,,,,,,,,,,,,,
0.0,1.0,1.328215,0.0,1.0,1.0,1.0,1.0,polaroid_05s.jpg,0.0,Purple.png,1.0,132,,,,,,,,,,,,,,,,,
1.0,1.0,0.9686,0.0,2.0,2.0,2.0,1.0,polaroid_05s.jpg,1.0,Red.png,1.0,132,,,,,,,,,,,,,,,,,
0.0,1.0,0.83922,0.0,3.0,3.0,3.0,1.0,slingshot_07s.jpg,0.0,Orange.png,1.0,132,,,,,,,,,,,,,,,,,
1.0,1.0,1.892705,0.0,4.0,4.0,4.0,1.0,polaroid_05s.jpg,1.0,Yellow.png,1.0,132,,,,,,,,,,,,,,,,,
0.0,1.0,1.93989,0.0,5.0,5.0,5.0,1.0,kettle_08s.jpg,0.0,Green.png,1.0,132,,,,,,,,,,,,,,,,,
0.0,1.0,0.854205,0.0,6.0,6.0,6.0,1.0,crystal_ball_12s.jpg,0.0,Blue.png,2.0,132,,,,,,,,,,,,,,,,,
0.0,1.0,1.013085,0.0,7.0,7.0,7.0,1.0,iron_13s.jpg,0.0,Purple.png,2.0,132,,,,,,,,,,,,,,,,,
0.0,1.0,0.86145,0.0,8.0,8.0,8.0,1.0,saddle_06s.jpg,0.0,Red.png,2.0,132,,,,,,,,,,,,,,,,,
0.0,1.0,0.940825,0.0,9.0,9.0,9.0,1.0,mango_09s.jpg,0.0,Orange.png,2.0,132,,,,,,,,,,,,,,,,,
0.0,1.0,0.574195,0.0,10.0,10.0,10.0,1.0,ostrich_06s.jpg,0.0,Yellow.png,2.0,132,,,,,,,,,,,,,,,,,
1.0,1.0,1.23077,0.0,11.0,11.0,11.0,1.0,iron_13s.jpg,1.0,Green.png,2.0,132,,,,,,,,,,,,,,,,,
0.0,1.0,0.75161,0.0,12.0,12.0,12.0,1.0,stethoscope_01b.jpg,0.0,Blue.png,3.0,132,,,,,,,,,,,,,,,,,
0.0,1.0,0.675195,0.0,13.0,13.0,13.0,1.0,ruby_15s.jpg,0.0,Purple.png,3.0,132,,,,,,,,,,,,,,,,,
0.0,1.0,1.36114,0.0,14.0,14.0,14.0,1.0,mango_09s.jpg,0.0,Red.png,3.0,132,,,,,,,,,,,,,,,,,
0.0,1.0,0.84765,0.0,15.0,15.0,15.0,1.0,target_11s.jpg,0.0,Orange.png,3.0,132,,,,,,,,,,,,,,,,,
0.0,0.0,0.94418,0.0,16.0,16.0,16.0,1.0,mango_09s.jpg,1.0,Yellow.png,3.0,132,,,,,,,,,,,,,,,,,
0.0,1.0,1.144445,0.0,17.0,17.0,17.0,1.0,compass_10n.jpg,0.0,Green.png,3.0,132,,,,,,,,,,,,,,,,,
0.0,1.0,0.536545,0.0,18.0,18.0,18.0,1.0,meatball_13s.jpg,0.0,Blue.png,4.0,132,,,,,,,,,,,,,,,,,
0.0,1.0,0.60975,0.0,19.0,19.0,19.0,1.0,stapler_01b.jpg,0.0,Purple.png,4.0,132,,,,,,,,,,,,,,,,,
1.0,1.0,1.415865,0.0,20.0,20.0,20.0,1.0,meatball_13s.jpg,1.0,Red.png,4.0,132,,,,,,,,,,,,,,,,,
0.0,1.0,0.67547,0.0,21.0,21.0,21.0,1.0,pump_11s.jpg,0.0,Orange.png,4.0,132,,,,,,,,,,,,,,,,,
0.0,1.0,0.608955,0.0,22.0,22.0,22.0,1.0,coral_08s.jpg,0.0,Yellow.png,4.0,132,,,,,,,,,,,,,,,,,
0.0,0.0,0.8967,0.0,23.0,23.0,23.0,1.0,meatball_13s.jpg,1.0,Green.png,4.0,132,,,,,,,,,,,,,,,,,
0.0,1.0,0.76813,0.0,24.0,24.0,24.0,1.0,peach_04s.jpg,0.0,Blue.png,5.0,132,,,,,,,,,,,,,,,,,
1.0,0.0,1.19326,0.0,25.0,25.0,25.0,1.0,meatball_13s.jpg,0.0,Purple.png,5.0,132,,,,,,,,,,,,,,,,,
0.0,1.0,0.664085,0.0,26.0,26.0,26.0,1.0,pie_08s.jpg,0.0,Red.png,5.0,132,,,,,,,,,,,,,,,,,
0.0,1.0,0.792565,0.0,27.0,27.0,27.0,1.0,rollerskate_03s.jpg,0.0,Orange.png,5.0,132,,,,,,,,,,,,,,,,,
0.0,1.0,0.526595,0.0,28.0,28.0,28.0,1.0,trampoline_13s.jpg,0.0,Yellow.png,5.0,132,,,,,,,,,,,,,,,,,
0.0,1.0,0.912395,0.0,29.0,29.0,29.0,1.0,undershirt_02s.jpg,0.0,Green.png,5.0,132,,,,,,,,,,,,,,,,,
0.0,1.0,0.810235,0.0,30.0,30.0,30.0,1.0,thread_08s.jpg,0.0,Blue.png,6.0,132,,,,,,,,,,,,,,,,,
0.0,1.0,0.89494,0.0,31.0,31.0,31.0,1.0,megaphone_03s.jpg,0.0,Purple.png,6.0,132,,,,,,,,,,,,,,,,,
0.0,1.0,1.23169,0.0,32.0,32.0,32.0,1.0,plaster_cast_13s.jpg,0.0,Red.png,6.0,132,,,,,,,,,,,,,,,,,
0.0,1.0,0.76735,0.0,33.0,33.0,33.0,1.0,diving_board_07s.jpg,0.0,Orange.png,6.0,132,,,,,,,,,,,,,,,,,
0.0,1.0,0.680005,0.0,34.0,34.0,34.0,1.0,kayak_08s.jpg,0.0,Yellow.png,6.0,132,,,,,,,,,,,,,,,,,
1.0,1.0,1.31222,0.0,35.0,35.0,35.0,1.0,diving_board_07s.jpg,1.0,Green.png,6.0,132,,,,,,,,,,,,,,,,,
,,,,,,,,,1.0,,,132,0.0,0.0,2.924855,0.0,0.0,0.0,0.0,1.0,stapler_01b.jpg,coral_08s.jpg,,,,,,,
,,,,,,,,,1.0,,,132,1.0,1.0,1.30284,0.0,1.0,1.0,1.0,1.0,slingshot_07s.jpg,crystal_ball_12s.jpg,,,,,,,
,,,,,,,,,0.0,,,132,1.0,0.0,2.363945,0.0,2.0,2.0,2.0,1.0,saddle_06s.jpg,kettle_08s.jpg,,,,,,,
,,,,,,,,,1.0,,,132,1.0,1.0,1.39783,0.0,3.0,3.0,3.0,1.0,pie_08s.jpg,undershirt_02s.jpg,,,,,,,
,,,,,,,,,1.0,,,132,1.0,1.0,1.58208,0.0,4.0,4.0,4.0,1.0,stethoscope_01b.jpg,target_11s.jpg,,,,,,,
,,,,,,,,,1.0,,,132,0.0,0.0,1.169315,0.0,5.0,5.0,5.0,1.0,ostrich_06s.jpg,ruby_15s.jpg,,,,,,,
,,,,,,,,,,,,132,,,,,,,,,,,0.0,0.0,0.0,0.0,1.0,newclockpresent_1_4.xlsx,newclock_compare_task_1_4.xlsx
0.0,1.0,1.223605,0.0,0.0,0.0,0.0,1.0,jetski_10s.jpg,0.0,Blue.png,1.0,132,,,,,,,,,,,,,,,,,
0.0,1.0,0.715235,0.0,1.0,1.0,1.0,1.0,tripod_01b.jpg,0.0,Purple.png,1.0,132,,,,,,,,,,,,,,,,,
0.0,1.0,1.228155,0.0,2.0,2.0,2.0,1.0,lab_coat_11s.jpg,0.0,Red.png,1.0,132,,,,,,,,,,,,,,,,,
0.0,1.0,0.73132,0.0,3.0,3.0,3.0,1.0,foam_03s.jpg,0.0,Orange.png,1.0,132,,,,,,,,,,,,,,,,,
0.0,1.0,0.594765,0.0,4.0,4.0,4.0,1.0,crate_05s.jpg,0.0,Yellow.png,1.0,132,,,,,,,,,,,,,,,,,
0.0,1.0,0.595115,0.0,5.0,5.0,5.0,1.0,margarita_03s.jpg,0.0,Green.png,1.0,132,,,,,,,,,,,,,,,,,
0.0,1.0,0.761165,0.0,6.0,6.0,6.0,1.0,joystick_01b.jpg,0.0,Blue.png,2.0,132,,,,,,,,,,,,,,,,,
0.0,1.0,1.06711,0.0,7.0,7.0,7.0,1.0,giraffe_11s.jpg,0.0,Purple.png,2.0,132,,,,,,,,,,,,,,,,,
0.0,1.0,2.115345,0.0,8.0,8.0,8.0,1.0,quilt_03s.jpg,0.0,Red.png,2.0,132,,,,,,,,,,,,,,,,,
0.0,0.0,1.80294,0.0,9.0,9.0,9.0,1.0,giraffe_11s.jpg,1.0,Orange.png,2.0,132,,,,,,,,,,,,,,,,,
0.0,1.0,0.866665,0.0,10.0,10.0,10.0,1.0,pincushion_10s.jpg,0.0,Yellow.png,2.0,132,,,,,,,,,,,,,,,,,
1.0,1.0,1.57775,0.0,11.0,11.0,11.0,1.0,giraffe_11s.jpg,1.0,Green.png,2.0,132,,,,,,,,,,,,,,,,,
0.0,1.0,1.325965,0.0,12.0,12.0,12.0,1.0,pincushion_10s.jpg,0.0,Blue.png,3.0,132,,,,,,,,,,,,,,,,,
0.0,1.0,2.251965,0.0,13.0,13.0,13.0,1.0,giraffe_11s.jpg,0.0,Purple.png,3.0,132,,,,,,,,,,,,,,,,,
0.0,1.0,1.244105,0.0,14.0,14.0,14.0,1.0,rolling_pin_02s.jpg,0.0,Red.png,3.0,132,,,,,,,,,,,,,,,,,
0.0,1.0,0.603175,0.0,15.0,15.0,15.0,1.0,ticktacktoe_08s.jpg,0.0,Orange.png,3.0,132,,,,,,,,,,,,,,,,,
0.0,0.0,0.811685,0.0,16.0,16.0,16.0,1.0,giraffe_11s.jpg,1.0,Yellow.png,3.0,132,,,,,,,,,,,,,,,,,
1.0,1.0,0.925805,0.0,17.0,17.0,17.0,1.0,ticktacktoe_08s.jpg,1.0,Green.png,3.0,132,,,,,,,,,,,,,,,,,
0.0,1.0,0.94702,0.0,18.0,18.0,18.0,1.0,typewriter_11s.jpg,0.0,Blue.png,4.0,132,,,,,,,,,,,,,,,,,
0.0,1.0,0.634345,0.0,19.0,19.0,19.0,1.0,toothpaste_12s.jpg,0.0,Purple.png,4.0,132,,,,,,,,,,,,,,,,,
0.0,1.0,0.6812,0.0,20.0,20.0,20.0,1.0,hummingbird_05s.jpg,0.0,Red.png,4.0,132,,,,,,,,,,,,,,,,,
1.0,1.0,1.1797,0.0,21.0,21.0,21.0,1.0,toothpaste_12s.jpg,1.0,Orange.png,4.0,132,,,,,,,,,,,,,,,,,
1.0,1.0,1.17975,0.0,22.0,22.0,22.0,1.0,toothpaste_12s.jpg,1.0,Yellow.png,4.0,132,,,,,,,,,,,,,,,,,
0.0,1.0,1.195395,0.0,23.0,23.0,23.0,1.0,treadmill_06s.jpg,0.0,Green.png,4.0,132,,,,,,,,,,,,,,,,,
0.0,1.0,1.177205,0.0,24.0,24.0,24.0,1.0,typewriter_11s.jpg,0.0,Blue.png,5.0,132,,,,,,,,,,,,,,,,,
0.0,1.0,1.276495,0.0,25.0,25.0,25.0,1.0,penguin_16s.jpg,0.0,Purple.png,5.0,132,,,,,,,,,,,,,,,,,
0.0,1.0,1.092965,0.0,26.0,26.0,26.0,1.0,olive_05s.jpg,0.0,Red.png,5.0,132,,,,,,,,,,,,,,,,,
1.0,1.0,1.477395,0.0,27.0,27.0,27.0,1.0,penguin_16s.jpg,1.0,Orange.png,5.0,132,,,,,,,,,,,,,,,,,
1.0,1.0,0.9793,0.0,28.0,28.0,28.0,1.0,penguin_16s.jpg,1.0,Yellow.png,5.0,132,,,,,,,,,,,,,,,,,
0.0,1.0,0.947275,0.0,29.0,29.0,29.0,1.0,tab_09s.jpg,0.0,Green.png,5.0,132,,,,,,,,,,,,,,,,,
0.0,1.0,0.97867,0.0,30.0,30.0,30.0,1.0,frame_06s.jpg,0.0,Blue.png,6.0,132,,,,,,,,,,,,,,,,,
0.0,1.0,1.21913,0.0,31.0,31.0,31.0,1.0,mop_08s.jpg,0.0,Purple.png,6.0,132,,,,,,,,,,,,,,,,,
0.0,1.0,2.082775,0.0,32.0,32.0,32.0,1.0,memory_stick_11s.jpg,0.0,Red.png,6.0,132,,,,,,,,,,,,,,,,,
0.0,1.0,1.161175,0.0,33.0,33.0,33.0,1.0,olive_05s.jpg,0.0,Orange.png,6.0,132,,,,,,,,,,,,,,,,,
0.0,1.0,1.03556,0.0,34.0,34.0,34.0,1.0,ravioli_08s.jpg,0.0,Yellow.png,6.0,132,,,,,,,,,,,,,,,,,
0.0,1.0,0.946725,0.0,35.0,35.0,35.0,1.0,mousetrap_15n.jpg,0.0,Green.png,6.0,132,,,,,,,,,,,,,,,,,
,,,,,,,,,1.0,,,132,1.0,1.0,4.158595,0.0,0.0,0.0,0.0,1.0,hummingbird_05s.jpg,treadmill_06s.jpg,,,,,,,
,,,,,,,,,1.0,,,132,1.0,1.0,1.05162,0.0,1.0,1.0,1.0,1.0,margarita_03s.jpg,quilt_03s.jpg,,,,,,,
,,,,,,,,,0.0,,,132,0.0,1.0,1.21515,0.0,2.0,2.0,2.0,1.0,joystick_01b.jpg,foam_03s.jpg,,,,,,,
,,,,,,,,,0.0,,,132,1.0,0.0,1.53064,0.0,3.0,3.0,3.0,1.0,ravioli_08s.jpg,mop_08s.jpg,,,,,,,
,,,,,,,,,1.0,,,132,0.0,0.0,1.179675,0.0,4.0,4.0,4.0,1.0,tab_09s.jpg,memory_stick_11s.jpg,,,,,,,
,,,,,,,,,1.0,,,132,0.0,0.0,1.93238,0.0,5.0,5.0,5.0,1.0,tripod_01b.jpg,crate_05s.jpg,,,,,,,
,,,,,,,,,,,,132,,,,,,,,,,,0.0,1.0,1.0,1.0,1.0,newclockpresent_2_4.xlsx,newclock_compare_task_2_4.xlsx
0.0,1.0,2.196235,0.0,0.0,0.0,0.0,1.0,safety_pin_02s.jpg,0.0,Blue.png,1.0,132,,,,,,,,,,,,,,,,,
1.0,1.0,1.093055,0.0,1.0,1.0,1.0,1.0,safety_pin_02s.jpg,1.0,Purple.png,1.0,132,,,,,,,,,,,,,,,,,
0.0,1.0,0.879625,0.0,2.0,2.0,2.0,1.0,cardinal_07s.jpg,0.0,Red.png,1.0,132,,,,,,,,,,,,,,,,,
1.0,1.0,0.40979,0.0,3.0,3.0,3.0,1.0,safety_pin_02s.jpg,1.0,Orange.png,1.0,132,,,,,,,,,,,,,,,,,
0.0,1.0,0.544335,0.0,4.0,4.0,4.0,1.0,potholder_02s.jpg,0.0,Yellow.png,1.0,132,,,,,,,,,,,,,,,,,
1.0,1.0,0.56114,0.0,5.0,5.0,5.0,1.0,safety_pin_02s.jpg,1.0,Green.png,1.0,132,,,,,,,,,,,,,,,,,
0.0,1.0,1.193535,0.0,6.0,6.0,6.0,1.0,cardinal_07s.jpg,0.0,Blue.png,2.0,132,,,,,,,,,,,,,,,,,
0.0,1.0,0.74994,0.0,7.0,7.0,7.0,1.0,lion_18s.jpg,0.0,Purple.png,2.0,132,,,,,,,,,,,,,,,,,
0.0,1.0,1.04245,0.0,8.0,8.0,8.0,1.0,comic_book_02s.jpg,0.0,Red.png,2.0,132,,,,,,,,,,,,,,,,,
0.0,1.0,0.57764,0.0,9.0,9.0,9.0,1.0,lizard_10n.jpg,0.0,Orange.png,2.0,132,,,,,,,,,,,,,,,,,
0.0,1.0,1.29347,0.0,10.0,10.0,10.0,1.0,rice_12s.jpg,0.0,Yellow.png,2.0,132,,,,,,,,,,,,,,,,,
0.0,1.0,1.21571,0.0,11.0,11.0,11.0,1.0,bagel_15s.jpg,0.0,Green.png,2.0,132,,,,,,,,,,,,,,,,,
0.0,1.0,1.111605,0.0,12.0,12.0,12.0,1.0,recliner_02s.jpg,0.0,Blue.png,3.0,132,,,,,,,,,,,,,,,,,
1.0,1.0,0.94517,0.0,13.0,13.0,13.0,1.0,recliner_02s.jpg,1.0,Purple.png,3.0,132,,,,,,,,,,,,,,,,,
0.0,1.0,0.88322,0.0,14.0,14.0,14.0,1.0,luggage_08s.jpg,0.0,Red.png,3.0,132,,,,,,,,,,,,,,,,,
1.0,1.0,1.25426,0.0,15.0,15.0,15.0,1.0,recliner_02s.jpg,1.0,Orange.png,3.0,132,,,,,,,,,,,,,,,,,
0.0,1.0,1.133525,0.0,16.0,16.0,16.0,1.0,onion_10s.jpg,0.0,Yellow.png,3.0,132,,,,,,,,,,,,,,,,,
0.0,1.0,0.789765,0.0,17.0,17.0,17.0,1.0,rosary_03s.jpg,0.0,Green.png,3.0,132,,,,,,,,,,,,,,,,,
0.0,1.0,0.7504,0.0,18.0,18.0,18.0,1.0,smokingpipe.jpg,0.0,Blue.png,4.0,132,,,,,,,,,,,,,,,,,
0.0,1.0,0.72686,0.0,19.0,19.0,19.0,1.0,roulette_wheel_04s.jpg,0.0,Purple.png,4.0,132,,,,,,,,,,,,,,,,,
1.0,1.0,1.37383,0.0,20.0,20.0,20.0,1.0,smokingpipe.jpg,1.0,Red.png,4.0,132,,,,,,,,,,,,,,,,,
0.0,1.0,0.99052,0.0,21.0,21.0,21.0,1.0,orchid_01b.jpg,0.0,Orange.png,4.0,132,,,,,,,,,,,,,,,,,
0.0,1.0,1.00535,0.0,22.0,22.0,22.0,1.0,buoy_04s.jpg,0.0,Yellow.png,4.0,132,,,,,,,,,,,,,,,,,
0.0,1.0,1.033475,0.0,23.0,23.0,23.0,1.0,stopwatch_04s.jpg,0.0,Green.png,4.0,132,,,,,,,,,,,,,,,,,
0.0,1.0,1.005845,0.0,24.0,24.0,24.0,1.0,knitting_needle_04s.jpg,0.0,Blue.png,5.0,132,,,,,,,,,,,,,,,,,
0.0,1.0,0.866795,0.0,25.0,25.0,25.0,1.0,prism_10s.jpg,0.0,Purple.png,5.0,132,,,,,,,,,,,,,,,,,
0.0,1.0,0.94239,0.0,26.0,26.0,26.0,1.0,teapot_03s.jpg,0.0,Red.png,5.0,132,,,,,,,,,,,,,,,,,
0.0,1.0,1.109805,0.0,27.0,27.0,27.0,1.0,fire_pit_10s.jpg,0.0,Orange.png,5.0,132,,,,,,,,,,,,,,,,,
1.0,1.0,1.126915,0.0,28.0,28.0,28.0,1.0,fire_pit_10s.jpg,1.0,Yellow.png,5.0,132,,,,,,,,,,,,,,,,,
1.0,1.0,0.41743,0.0,29.0,29.0,29.0,1.0,fire_pit_10s.jpg,1.0,Green.png,5.0,132,,,,,,,,,,,,,,,,,
0.0,1.0,0.752275,0.0,30.0,30.0,30.0,1.0,ironing_board_07s.jpg,0.0,Blue.png,6.0,132,,,,,,,,,,,,,,,,,
0.0,1.0,0.758745,0.0,31.0,31.0,31.0,1.0,fire_pit_10s.jpg,0.0,Purple.png,6.0,132,,,,,,,,,,,,,,,,,
0.0,1.0,0.958385,0.0,32.0,32.0,32.0,1.0,mattress_01s.jpg,0.0,Red.png,6.0,132,,,,,,,,,,,,,,,,,
0.0,0.0,1.10327,0.0,33.0,33.0,33.0,1.0,fire_pit_10s.jpg,1.0,Orange.png,6.0,132,,,,,,,,,,,,,,,,,
0.0,0.0,1.11668,0.0,34.0,34.0,34.0,1.0,mattress_01s.jpg,1.0,Yellow.png,6.0,132,,,,,,,,,,,,,,,,,
0.0,1.0,0.719165,0.0,35.0,35.0,35.0,1.0,ice-cream_cone_06s.jpg,0.0,Green.png,6.0,132,,,,,,,,,,,,,,,,,
,,,,,,,,,1.0,,,132,1.0,1.0,1.94346,0.0,0.0,0.0,0.0,1.0,roulette_wheel_04s.jpg,buoy_04s.jpg,,,,,,,
,,,,,,,,,0.0,,,132,0.0,1.0,1.437655,0.0,1.0,1.0,1.0,1.0,lion_18s.jpg,potholder_02s.jpg,,,,,,,
,,,,,,,,,0.0,,,132,0.0,1.0,1.35183,0.0,2.0,2.0,2.0,1.0,bagel_15s.jpg,comic_book_02s.jpg,,,,,,,
,,,,,,,,,1.0,,,132,1.0,1.0,1.400845,0.0,3.0,3.0,3.0,1.0,stopwatch_04s.jpg,teapot_03s.jpg,,,,,,,
,,,,,,,,,1.0,,,132,1.0,1.0,1.422915,0.0,4.0,4.0,4.0,1.0,luggage_08s.jpg,rosary_03s.jpg,,,,,,,
,,,,,,,,,1.0,,,132,1.0,1.0,2.1628,0.0,5.0,5.0,5.0,1.0,orchid_01b.jpg,knitting_needle_04s.jpg,,,,,,,
,,,,,,,,,,,,132,,,,,,,,,,,0.0,2.0,2.0,2.0,1.0,newclockpresent_3_4.xlsx,newclock_compare_task_3_4.xlsx
0.0,1.0,1.38104,0.0,0.0,0.0,0.0,1.0,smoothie_09s.jpg,0.0,Blue.png,1.0,132,,,,,,,,,,,,,,,,,
0.0,1.0,1.34974,0.0,1.0,1.0,1.0,1.0,raspberry_12s.jpg,0.0,Purple.png,1.0,132,,,,,,,,,,,,,,,,,
1.0,1.0,1.18847,0.0,2.0,2.0,2.0,1.0,raspberry_12s.jpg,1.0,Red.png,1.0,132,,,,,,,,,,,,,,,,,
0.0,1.0,0.956655,0.0,3.0,3.0,3.0,1.0,lamb_chop_07s.jpg,0.0,Orange.png,1.0,132,,,,,,,,,,,,,,,,,
1.0,1.0,1.433435,0.0,4.0,4.0,4.0,1.0,smoothie_09s.jpg,1.0,Yellow.png,1.0,132,,,,,,,,,,,,,,,,,
1.0,1.0,1.27672,0.0,5.0,5.0,5.0,1.0,raspberry_12s.jpg,1.0,Green.png,1.0,132,,,,,,,,,,,,,,,,,
0.0,1.0,0.804855,0.0,6.0,6.0,6.0,1.0,lava_02s.jpg,0.0,Blue.png,2.0,132,,,,,,,,,,,,,,,,,
0.0,1.0,1.03692,0.0,7.0,7.0,7.0,1.0,trident_07s.jpg,0.0,Purple.png,2.0,132,,,,,,,,,,,,,,,,,
1.0,1.0,0.876425,0.0,8.0,8.0,8.0,1.0,trident_07s.jpg,1.0,Red.png,2.0,132,,,,,,,,,,,,,,,,,
1.0,1.0,0.551195,0.0,9.0,9.0,9.0,1.0,trident_07s.jpg,1.0,Orange.png,2.0,132,,,,,,,,,,,,,,,,,
0.0,1.0,1.03383,0.0,10.0,10.0,10.0,1.0,orangutan_03s.jpg,0.0,Yellow.png,2.0,132,,,,,,,,,,,,,,,,,
0.0,0.0,1.016545,0.0,11.0,11.0,11.0,1.0,trident_07s.jpg,1.0,Green.png,2.0,132,,,,,,,,,,,,,,,,,
0.0,1.0,0.940975,0.0,12.0,12.0,12.0,1.0,raspberry_12s.jpg,0.0,Blue.png,3.0,132,,,,,,,,,,,,,,,,,
0.0,1.0,1.95022,0.0,13.0,13.0,13.0,1.0,trident_07s.jpg,0.0,Purple.png,3.0,132,,,,,,,,,,,,,,,,,
0.0,1.0,0.783955,0.0,14.0,14.0,14.0,1.0,lavender_10s.jpg,0.0,Red.png,3.0,132,,,,,,,,,,,,,,,,,
0.0,1.0,0.63354,0.0,15.0,15.0,15.0,1.0,chip_04s.jpg,0.0,Orange.png,3.0,132,,,,,,,,,,,,,,,,,
0.0,1.0,0.86832,0.0,16.0,16.0,16.0,1.0,lamb_04s.jpg,0.0,Yellow.png,3.0,132,,,,,,,,,,,,,,,,,
0.0,1.0,1.150365,0.0,17.0,17.0,17.0,1.0,emerald_02s.jpg,0.0,Green.png,3.0,132,,,,,,,,,,,,,,,,,
0.0,1.0,1.614885,0.0,18.0,18.0,18.0,1.0,pineapple_12s.jpg,0.0,Blue.png,4.0,132,,,,,,,,,,,,,,,,,
0.0,1.0,0.84974,0.0,19.0,19.0,19.0,1.0,sundae_08s.jpg,0.0,Purple.png,4.0,132,,,,,,,,,,,,,,,,,
1.0,1.0,1.117955,0.0,20.0,20.0,20.0,1.0,sundae_08s.jpg,1.0,Red.png,4.0,132,,,,,,,,,,,,,,,,,
0.0,1.0,0.78938,0.0,21.0,21.0,21.0,1.0,squirrel_02s.jpg,0.0,Orange.png,4.0,132,,,,,,,,,,,,,,,,,
0.0,1.0,0.749765,0.0,22.0,22.0,22.0,1.0,roller_coaster_07s.jpg,0.0,Yellow.png,4.0,132,,,,,,,,,,,,,,,,,
1.0,1.0,2.068565,0.0,23.0,23.0,23.0,1.0,sundae_08s.jpg,1.0,Green.png,4.0,132,,,,,,,,,,,,,,,,,
0.0,1.0,0.566975,0.0,24.0,24.0,24.0,1.0,tweezers_03s.jpg,0.0,Blue.png,5.0,132,,,,,,,,,,,,,,,,,
0.0,1.0,1.21496,0.0,25.0,25.0,25.0,1.0,sundae_08s.jpg,0.0,Purple.png,5.0,132,,,,,,,,,,,,,,,,,
0.0,1.0,0.853425,0.0,26.0,26.0,26.0,1.0,rudder_02s.jpg,0.0,Red.png,5.0,132,,,,,,,,,,,,,,,,,
0.0,1.0,0.852785,0.0,27.0,27.0,27.0,1.0,rake_06s.jpg,0.0,Orange.png,5.0,132,,,,,,,,,,,,,,,,,
1.0,1.0,0.556665,0.0,28.0,28.0,28.0,1.0,rake_06s.jpg,1.0,Yellow.png,5.0,132,,,,,,,,,,,,,,,,,
1.0,1.0,0.86887,0.0,29.0,29.0,29.0,1.0,rake_06s.jpg,1.0,Green.png,5.0,132,,,,,,,,,,,,,,,,,
0.0,1.0,0.632925,0.0,30.0,30.0,30.0,1.0,cap_05s.jpg,0.0,Blue.png,6.0,132,,,,,,,,,,,,,,,,,
0.0,1.0,1.30936,0.0,31.0,31.0,31.0,1.0,paper_towel_03s.jpg,0.0,Purple.png,6.0,132,,,,,,,,,,,,,,,,,
0.0,1.0,1.200655,0.0,32.0,32.0,32.0,1.0,toaster_03s.jpg,0.0,Red.png,6.0,132,,,,,,,,,,,,,,,,,
0.0,1.0,2.05056,0.0,33.0,33.0,33.0,1.0,money_07s.jpg,0.0,Orange.png,6.0,132,,,,,,,,,,,,,,,,,
0.0,1.0,1.30119,0.0,34.0,34.0,34.0,1.0,pinwheel_06s.jpg,0.0,Yellow.png,6.0,132,,,,,,,,,,,,,,,,,
0.0,1.0,1.493195,0.0,35.0,35.0,35.0,1.0,lid_10s.jpg,0.0,Green.png,6.0,132,,,,,,,,,,,,,,,,,
,,,,,,,,,0.0,,,132,0.0,1.0,1.81647,0.0,0.0,0.0,0.0,1.0,tweezers_03s.jpg,squirrel_02s.jpg,,,,,,,
,,,,,,,,,1.0,,,132,1.0,1.0,1.111845,0.0,1.0,1.0,1.0,1.0,chip_04s.jpg,pineapple_12s.jpg,,,,,,,
,,,,,,,,,1.0,,,132,1.0,1.0,1.34203,0.0,2.0,2.0,2.0,1.0,lamb_chop_07s.jpg,lava_02s.jpg,,,,,,,
,,,,,,,,,0.0,,,132,1.0,0.0,2.31806,0.0,3.0,3.0,3.0,1.0,pinwheel_06s.jpg,paper_towel_03s.jpg,,,,,,,
,,,,,,,,,0.0,,,132,1.0,0.0,1.850375,0.0,4.0,4.0,4.0,1.0,emerald_02s.jpg,lavender_10s.jpg,,,,,,,
,,,,,,,,,0.0,,,132,0.0,1.0,2.723085,0.0,5.0,5.0,5.0,1.0,money_07s.jpg,cap_05s.jpg,,,,,,,
,,,,,,,,,,,,132,,,,,,,,,,,0.0,3.0,3.0,3.0,1.0,newclockpresent_4_4.xlsx,newclock_compare_task_4_4.xlsx
0.0,1.0,1.301305,0.0,0.0,0.0,0.0,1.0,fur_coat_11s.jpg,0.0,Blue.png,1.0,132,,,,,,,,,,,,,,,,,
0.0,1.0,1.21789,0.0,1.0,1.0,1.0,1.0,crayon_09s.jpg,0.0,Purple.png,1.0,132,,,,,,,,,,,,,,,,,
0.0,1.0,1.12536,0.0,2.0,2.0,2.0,1.0,cobra_05s.jpg,0.0,Red.png,1.0,132,,,,,,,,,,,,,,,,,
0.0,1.0,1.573455,0.0,3.0,3.0,3.0,1.0,raccoon_02s.jpg,0.0,Orange.png,1.0,132,,,,,,,,,,,,,,,,,
0.0,1.0,1.284875,0.0,4.0,4.0,4.0,1.0,soda_fountain_03s.jpg,0.0,Yellow.png,1.0,132,,,,,,,,,,,,,,,,,
1.0,1.0,1.25046,0.0,5.0,5.0,5.0,1.0,raccoon_02s.jpg,1.0,Green.png,1.0,132,,,,,,,,,,,,,,,,,
0.0,1.0,1.234365,0.0,6.0,6.0,6.0,1.0,feather02.jpg,0.0,Blue.png,2.0,132,,,,,,,,,,,,,,,,,
0.0,1.0,1.21738,0.0,7.0,7.0,7.0,1.0,raccoon_02s.jpg,0.0,Purple.png,2.0,132,,,,,,,,,,,,,,,,,
1.0,1.0,1.78221,0.0,8.0,8.0,8.0,1.0,feather02.jpg,1.0,Red.png,2.0,132,,,,,,,,,,,,,,,,,
0.0,1.0,1.021115,0.0,9.0,9.0,9.0,1.0,rug_09s.jpg,0.0,Orange.png,2.0,132,,,,,,,,,,,,,,,,,
1.0,1.0,1.55132,0.0,10.0,10.0,10.0,1.0,feather02.jpg,1.0,Yellow.png,2.0,132,,,,,,,,,,,,,,,,,
0.0,1.0,1.12581,0.0,11.0,11.0,11.0,1.0,cushion_08s.jpg,0.0,Green.png,2.0,132,,,,,,,,,,,,,,,,,
0.0,1.0,1.357095,0.0,12.0,12.0,12.0,1.0,feather02.jpg,0.0,Blue.png,3.0,132,,,,,,,,,,,,,,,,,
1.0,1.0,2.10056,0.0,13.0,13.0,13.0,1.0,feather02.jpg,1.0,Purple.png,3.0,132,,,,,,,,,,,,,,,,,
0.0,1.0,1.11759,0.0,14.0,14.0,14.0,1.0,ice_pack_09s.jpg,0.0,Red.png,3.0,132,,,,,,,,,,,,,,,,,
1.0,1.0,1.037725,0.0,15.0,15.0,15.0,1.0,ice_pack_09s.jpg,1.0,Orange.png,3.0,132,,,,,,,,,,,,,,,,,
0.0,1.0,1.55789,0.0,16.0,16.0,16.0,1.0,loom_05s.jpg,0.0,Yellow.png,3.0,132,,,,,,,,,,,,,,,,,
1.0,1.0,1.2532,0.0,17.0,17.0,17.0,1.0,ice_pack_09s.jpg,1.0,Green.png,3.0,132,,,,,,,,,,,,,,,,,
1.0,0.0,1.109095,0.0,18.0,18.0,18.0,1.0,ice_pack_09s.jpg,0.0,Blue.png,4.0,132,,,,,,,,,,,,,,,,,
1.0,1.0,1.567915,0.0,19.0,19.0,19.0,1.0,ice_pack_09s.jpg,1.0,Purple.png,4.0,132,,,,,,,,,,,,,,,,,
1.0,1.0,1.500265,0.0,20.0,20.0,20.0,1.0,ice_pack_09s.jpg,1.0,Red.png,4.0,132,,,,,,,,,,,,,,,,,
0.0,1.0,1.467055,0.0,21.0,21.0,21.0,1.0,blazer_02s.jpg,0.0,Orange.png,4.0,132,,,,,,,,,,,,,,,,,
0.0,1.0,1.870285,0.0,22.0,22.0,22.0,1.0,penlight_12s.jpg,0.0,Yellow.png,4.0,132,,,,,,,,,,,,,,,,,
0.0,1.0,1.366515,0.0,23.0,23.0,23.0,1.0,swan_11s.jpg,0.0,Green.png,4.0,132,,,,,,,,,,,,,,,,,
0.0,1.0,1.34142,0.0,24.0,24.0,24.0,1.0,plunger_08s.jpg,0.0,Blue.png,5.0,132,,,,,,,,,,,,,,,,,
0.0,1.0,1.8661,0.0,25.0,25.0,25.0,1.0,bottle_opener_11s.jpg,0.0,Purple.png,5.0,132,,,,,,,,,,,,,,,,,
,0.0,,0.0,26.0,26.0,26.0,1.0,checkbook_11s.jpg,0.0,Red.png,5.0,132,,,,,,,,,,,,,,,,,
0.0,1.0,1.08475,0.0,27.0,27.0,27.0,1.0,ink_08s.jpg,0.0,Orange.png,5.0,132,,,,,,,,,,,,,,,,,
0.0,0.0,1.58496,0.0,28.0,28.0,28.0,1.0,plunger_08s.jpg,1.0,Yellow.png,5.0,132,,,,,,,,,,,,,,,,,
0.0,1.0,1.500635,0.0,29.0,29.0,29.0,1.0,pencil02a.jpg,0.0,Green.png,5.0,132,,,,,,,,,,,,,,,,,
0.0,1.0,0.742235,0.0,30.0,30.0,30.0,1.0,ginger_09s.jpg,0.0,Blue.png,6.0,132,,,,,,,,,,,,,,,,,
0.0,1.0,1.184715,0.0,31.0,31.0,31.0,1.0,taxi_15s.jpg,0.0,Purple.png,6.0,132,,,,,,,,,,,,,,,,,
0.0,1.0,0.79021,0.0,32.0,32.0,32.0,1.0,toy_04s.jpg,0.0,Red.png,6.0,132,,,,,,,,,,,,,,,,,
0.0,1.0,0.670225,0.0,33.0,33.0,33.0,1.0,blowfish_03s.jpg,0.0,Orange.png,6.0,132,,,,,,,,,,,,,,,,,
,0.0,,0.0,34.0,34.0,34.0,1.0,toilet_paper_12s.jpg,0.0,Yellow.png,6.0,132,,,,,,,,,,,,,,,,,
0.0,1.0,0.75847,0.0,35.0,35.0,35.0,1.0,puddle_02s.jpg,0.0,Green.png,6.0,132,,,,,,,,,,,,,,,,,
,,,,,,,,,1.0,,,132,0.0,0.0,2.892205,0.0,0.0,0.0,0.0,1.0,ink_08s.jpg,ginger_09s.jpg,,,,,,,
,,,,,,,,,0.0,,,132,0.0,1.0,2.784075,0.0,1.0,1.0,1.0,1.0,puddle_02s.jpg,toy_04s.jpg,,,,,,,
,,,,,,,,,0.0,,,132,1.0,0.0,2.13439,0.0,2.0,2.0,2.0,1.0,bottle_opener_11s.jpg,penlight_12s.jpg,,,,,,,
,,,,,,,,,0.0,,,132,0.0,1.0,2.74195,0.0,3.0,3.0,3.0,1.0,checkbook_11s.jpg,swan_11s.jpg,,,,,,,
,,,,,,,,,1.0,,,132,1.0,1.0,2.41773,0.0,4.0,4.0,4.0,1.0,taxi_15s.jpg,toilet_paper_12s.jpg,,,,,,,
,,,,,,,,,1.0,,,132,1.0,1.0,1.349425,0.0,5.0,5.0,5.0,1.0,crayon_09s.jpg,soda_fountain_03s.jpg,,,,,,,
,,,,,,,,,,,,132,,,,,,,,,,,0.0,4.0,4.0,4.0,1.0,newclockpresent_5_4.xlsx,newclock_compare_task_5_4.xlsx
0.0,1.0,1.17672,0.0,0.0,0.0,0.0,1.0,flask_04s.jpg,0.0,Blue.png,1.0,132,,,,,,,,,,,,,,,,,
0.0,1.0,0.600415,0.0,1.0,1.0,1.0,1.0,kimono_13s.jpg,0.0,Purple.png,1.0,132,,,,,,,,,,,,,,,,,
0.0,1.0,1.05035,0.0,2.0,2.0,2.0,1.0,limousine_12s.jpg,0.0,Red.png,1.0,132,,,,,,,,,,,,,,,,,
0.0,1.0,0.515305,0.0,3.0,3.0,3.0,1.0,lectern_08s.jpg,0.0,Orange.png,1.0,132,,,,,,,,,,,,,,,,,
1.0,1.0,1.473765,0.0,4.0,4.0,4.0,1.0,kimono_13s.jpg,1.0,Yellow.png,1.0,132,,,,,,,,,,,,,,,,,
0.0,1.0,0.700395,0.0,5.0,5.0,5.0,1.0,doily_13s.jpg,0.0,Green.png,1.0,132,,,,,,,,,,,,,,,,,
0.0,1.0,1.595075,0.0,6.0,6.0,6.0,1.0,kimono_13s.jpg,0.0,Blue.png,2.0,132,,,,,,,,,,,,,,,,,
0.0,1.0,0.58538,0.0,7.0,7.0,7.0,1.0,razor_blade_01b.jpg,0.0,Purple.png,2.0,132,,,,,,,,,,,,,,,,,
1.0,1.0,1.716475,0.0,8.0,8.0,8.0,1.0,razor_blade_01b.jpg,1.0,Red.png,2.0,132,,,,,,,,,,,,,,,,,
0.0,1.0,0.70528,0.0,9.0,9.0,9.0,1.0,champagne_18s.jpg,0.0,Orange.png,2.0,132,,,,,,,,,,,,,,,,,
0.0,1.0,0.65688,0.0,10.0,10.0,10.0,1.0,stamp1_11s.jpg,0.0,Yellow.png,2.0,132,,,,,,,,,,,,,,,,,
1.0,1.0,1.122025,0.0,11.0,11.0,11.0,1.0,champagne_18s.jpg,1.0,Green.png,2.0,132,,,,,,,,,,,,,,,,,
0.0,1.0,0.721185,0.0,12.0,12.0,12.0,1.0,crossbow_10s.jpg,0.0,Blue.png,3.0,132,,,,,,,,,,,,,,,,,
0.0,1.0,0.98296,0.0,13.0,13.0,13.0,1.0,briefcase_03s.jpg,0.0,Purple.png,3.0,132,,,,,,,,,,,,,,,,,
0.0,1.0,0.801485,0.0,14.0,14.0,14.0,1.0,jersey_02s.jpg,0.0,Red.png,3.0,132,,,,,,,,,,,,,,,,,
1.0,1.0,0.83421,0.0,15.0,15.0,15.0,1.0,briefcase_03s.jpg,1.0,Orange.png,3.0,132,,,,,,,,,,,,,,,,,
0.0,1.0,0.717025,0.0,16.0,16.0,16.0,1.0,oil_02s.jpg,0.0,Yellow.png,3.0,132,,,,,,,,,,,,,,,,,
0.0,1.0,1.217715,0.0,17.0,17.0,17.0,1.0,tinsel_12s.jpg,0.0,Green.png,3.0,132,,,,,,,,,,,,,,,,,
0.0,1.0,1.01772,0.0,18.0,18.0,18.0,1.0,flask_04s.jpg,0.0,Blue.png,4.0,132,,,,,,,,,,,,,,,,,
0.0,1.0,0.873145,0.0,19.0,19.0,19.0,1.0,fork_04s.jpg,0.0,Purple.png,4.0,132,,,,,,,,,,,,,,,,,
0.0,1.0,0.785375,0.0,20.0,20.0,20.0,1.0,purse_05s.jpg,0.0,Red.png,4.0,132,,,,,,,,,,,,,,,,,
1.0,1.0,1.225505,0.0,21.0,21.0,21.0,1.0,flask_04s.jpg,1.0,Orange.png,4.0,132,,,,,,,,,,,,,,,,,
0.0,1.0,0.593325,0.0,22.0,22.0,22.0,1.0,sledgehammer_03s.jpg,0.0,Yellow.png,4.0,132,,,,,,,,,,,,,,,,,
0.0,1.0,0.73328,0.0,23.0,23.0,23.0,1.0,turf_03s.jpg,0.0,Green.png,4.0,132,,,,,,,,,,,,,,,,,
0.0,1.0,0.80021,0.0,24.0,24.0,24.0,1.0,omelet_07s.jpg,0.0,Blue.png,5.0,132,,,,,,,,,,,,,,,,,
1.0,0.0,1.01696,0.0,25.0,25.0,25.0,1.0,turf_03s.jpg,0.0,Purple.png,5.0,132,,,,,,,,,,,,,,,,,
,0.0,,0.0,26.0,26.0,26.0,1.0,clover_04s.jpg,0.0,Red.png,5.0,132,,,,,,,,,,,,,,,,,
0.0,1.0,0.88388,0.0,27.0,27.0,27.0,1.0,lip_gloss_06s.jpg,0.0,Orange.png,5.0,132,,,,,,,,,,,,,,,,,
0.0,1.0,0.583795,0.0,28.0,28.0,28.0,1.0,amber_04s.jpg,0.0,Yellow.png,5.0,132,,,,,,,,,,,,,,,,,
0.0,1.0,0.62583,0.0,29.0,29.0,29.0,1.0,tortilla_06s.jpg,0.0,Green.png,5.0,132,,,,,,,,,,,,,,,,,
0.0,1.0,0.938065,0.0,30.0,30.0,30.0,1.0,razor_blade_01b.jpg,0.0,Blue.png,6.0,132,,,,,,,,,,,,,,,,,
0.0,1.0,0.8842,0.0,31.0,31.0,31.0,1.0,tape_measure_11s.jpg,0.0,Purple.png,6.0,132,,,,,,,,,,,,,,,,,
1.0,1.0,1.483725,0.0,32.0,32.0,32.0,1.0,razor_blade_01b.jpg,1.0,Red.png,6.0,132,,,,,,,,,,,,,,,,,
1.0,1.0,0.76779,0.0,33.0,33.0,33.0,1.0,razor_blade_01b.jpg,1.0,Orange.png,6.0,132,,,,,,,,,,,,,,,,,
0.0,1.0,0.667625,0.0,34.0,34.0,34.0,1.0,stingray_02s.jpg,0.0,Yellow.png,6.0,132,,,,,,,,,,,,,,,,,
0.0,1.0,0.5674,0.0,35.0,35.0,35.0,1.0,harpoon.jpg,0.0,Green.png,6.0,132,,,,,,,,,,,,,,,,,
,,,,,,,,,1.0,,,132,0.0,0.0,2.040325,0.0,0.0,0.0,0.0,1.0,oil_02s.jpg,fork_04s.jpg,,,,,,,
,,,,,,,,,0.0,,,132,0.0,1.0,1.187235,0.0,1.0,1.0,1.0,1.0,doily_13s.jpg,limousine_12s.jpg,,,,,,,
,,,,,,,,,0.0,,,132,0.0,1.0,1.679375,0.0,2.0,2.0,2.0,1.0,lip_gloss_06s.jpg,omelet_07s.jpg,,,,,,,
,,,,,,,,,0.0,,,132,1.0,0.0,1.101635,0.0,3.0,3.0,3.0,1.0,tape_measure_11s.jpg,amber_04s.jpg,,,,,,,
,,,,,,,,,0.0,,,132,0.0,1.0,1.33411,0.0,4.0,4.0,4.0,1.0,tortilla_06s.jpg,clover_04s.jpg,,,,,,,
,,,,,,,,,0.0,,,132,1.0,0.0,1.149675,0.0,5.0,5.0,5.0,1.0,purse_05s.jpg,tinsel_12s.jpg,,,,,,,
,,,,,,,,,,,,132,,,,,,,,,,,0.0,5.0,5.0,5.0,1.0,newclockpresent_6_4.xlsx,newclock_compare_task_6_4.xlsx
0.0,1.0,1.408935,0.0,0.0,0.0,0.0,1.0,butter_14s.jpg,0.0,Blue.png,1.0,132,,,,,,,,,,,,,,,,,
1.0,1.0,1.216255,0.0,1.0,1.0,1.0,1.0,butter_14s.jpg,1.0,Purple.png,1.0,132,,,,,,,,,,,,,,,,,
0.0,0.0,1.267025,0.0,2.0,2.0,2.0,1.0,butter_14s.jpg,1.0,Red.png,1.0,132,,,,,,,,,,,,,,,,,
0.0,1.0,0.71668,0.0,3.0,3.0,3.0,1.0,stamp2_08s.jpg,0.0,Orange.png,1.0,132,,,,,,,,,,,,,,,,,
0.0,1.0,0.96731,0.0,4.0,4.0,4.0,1.0,kangaroo_02s.jpg,0.0,Yellow.png,1.0,132,,,,,,,,,,,,,,,,,
0.0,1.0,0.70624,0.0,5.0,5.0,5.0,1.0,camcorder_10s.jpg,0.0,Green.png,1.0,132,,,,,,,,,,,,,,,,,
0.0,1.0,0.96626,0.0,6.0,6.0,6.0,1.0,bank_06s.jpg,0.0,Blue.png,2.0,132,,,,,,,,,,,,,,,,,
0.0,1.0,0.833185,0.0,7.0,7.0,7.0,1.0,gear_07s.jpg,0.0,Purple.png,2.0,132,,,,,,,,,,,,,,,,,
1.0,1.0,1.01714,0.0,8.0,8.0,8.0,1.0,bank_06s.jpg,1.0,Red.png,2.0,132,,,,,,,,,,,,,,,,,
0.0,1.0,0.62003,0.0,9.0,9.0,9.0,1.0,funnel_01b.jpg,0.0,Orange.png,2.0,132,,,,,,,,,,,,,,,,,
0.0,1.0,1.106895,0.0,10.0,10.0,10.0,1.0,poinsettia_04s.jpg,0.0,Yellow.png,2.0,132,,,,,,,,,,,,,,,,,
0.0,0.0,0.633595,0.0,11.0,11.0,11.0,1.0,funnel_01b.jpg,1.0,Green.png,2.0,132,,,,,,,,,,,,,,,,,
0.0,1.0,1.166995,0.0,12.0,12.0,12.0,1.0,rooster_03s.jpg,0.0,Blue.png,3.0,132,,,,,,,,,,,,,,,,,
0.0,1.0,1.570245,0.0,13.0,13.0,13.0,1.0,denture_03s.jpg,0.0,Purple.png,3.0,132,,,,,,,,,,,,,,,,,
0.0,1.0,1.600255,0.0,14.0,14.0,14.0,1.0,bean_06s.jpg,0.0,Red.png,3.0,132,,,,,,,,,,,,,,,,,
0.0,1.0,1.183665,0.0,15.0,15.0,15.0,1.0,mud_13s.jpg,0.0,Orange.png,3.0,132,,,,,,,,,,,,,,,,,
0.0,1.0,1.635195,0.0,16.0,16.0,16.0,1.0,keyhole_03s.jpg,0.0,Yellow.png,3.0,132,,,,,,,,,,,,,,,,,
0.0,0.0,1.92353,0.0,17.0,17.0,17.0,1.0,bean_06s.jpg,1.0,Green.png,3.0,132,,,,,,,,,,,,,,,,,
0.0,1.0,1.050405,0.0,18.0,18.0,18.0,1.0,bank_06s.jpg,0.0,Blue.png,4.0,132,,,,,,,,,,,,,,,,,
0.0,1.0,1.283345,0.0,19.0,19.0,19.0,1.0,pomegranate_04s.jpg,0.0,Purple.png,4.0,132,,,,,,,,,,,,,,,,,
0.0,1.0,0.85451,0.0,20.0,20.0,20.0,1.0,chopsticks_08s.jpg,0.0,Red.png,4.0,132,,,,,,,,,,,,,,,,,
0.0,1.0,0.684655,0.0,21.0,21.0,21.0,1.0,contact_lens_15s.jpg,0.0,Orange.png,4.0,132,,,,,,,,,,,,,,,,,
0.0,1.0,0.852725,0.0,22.0,22.0,22.0,1.0,hydrant_10s.jpg,0.0,Yellow.png,4.0,132,,,,,,,,,,,,,,,,,
0.0,1.0,0.956345,0.0,23.0,23.0,23.0,1.0,gingerbread_man_03s.jpg,0.0,Green.png,4.0,132,,,,,,,,,,,,,,,,,
0.0,1.0,1.0177,0.0,24.0,24.0,24.0,1.0,camcorder_10s.jpg,0.0,Blue.png,5.0,132,,,,,,,,,,,,,,,,,
0.0,1.0,0.85176,0.0,25.0,25.0,25.0,1.0,teabag_12s.jpg,0.0,Purple.png,5.0,132,,,,,,,,,,,,,,,,,
0.0,1.0,0.8362,0.0,26.0,26.0,26.0,1.0,radiator_05s.jpg,0.0,Red.png,5.0,132,,,,,,,,,,,,,,,,,
0.0,1.0,1.11543,0.0,27.0,27.0,27.0,1.0,punch1_10s.jpg,0.0,Orange.png,5.0,132,,,,,,,,,,,,,,,,,
0.0,1.0,0.550255,0.0,28.0,28.0,28.0,1.0,mailbox_11s.jpg,0.0,Yellow.png,5.0,132,,,,,,,,,,,,,,,,,
0.0,1.0,0.648375,0.0,29.0,29.0,29.0,1.0,beaker_01b.jpg,0.0,Green.png,5.0,132,,,,,,,,,,,,,,,,,
1.0,0.0,0.669945,0.0,30.0,30.0,30.0,1.0,mailbox_11s.jpg,0.0,Blue.png,6.0,132,,,,,,,,,,,,,,,,,
0.0,1.0,1.10044,0.0,31.0,31.0,31.0,1.0,pipe1_10s.jpg,0.0,Purple.png,6.0,132,,,,,,,,,,,,,,,,,
1.0,1.0,1.715555,0.0,32.0,32.0,32.0,1.0,mailbox_11s.jpg,1.0,Red.png,6.0,132,,,,,,,,,,,,,,,,,
1.0,1.0,1.583045,0.0,33.0,33.0,33.0,1.0,pipe1_10s.jpg,1.0,Orange.png,6.0,132,,,,,,,,,,,,,,,,,
0.0,1.0,0.683685,0.0,34.0,34.0,34.0,1.0,eyedropper_12s.jpg,0.0,Yellow.png,6.0,132,,,,,,,,,,,,,,,,,
0.0,1.0,0.63418,0.0,35.0,35.0,35.0,1.0,rhubarb_03s.jpg,0.0,Green.png,6.0,132,,,,,,,,,,,,,,,,,
,,,,,,,,,0.0,,,132,1.0,0.0,1.99995,0.0,0.0,0.0,0.0,1.0,mud_13s.jpg,rooster_03s.jpg,,,,,,,
,,,,,,,,,1.0,,,132,0.0,0.0,1.910185,0.0,1.0,1.0,1.0,1.0,chopsticks_08s.jpg,gingerbread_man_03s.jpg,,,,,,,
,,,,,,,,,0.0,,,132,0.0,1.0,1.885275,0.0,2.0,2.0,2.0,1.0,beaker_01b.jpg,radiator_05s.jpg,,,,,,,
,,,,,,,,,0.0,,,132,0.0,1.0,1.599895,0.0,3.0,3.0,3.0,1.0,teabag_12s.jpg,hydrant_10s.jpg,,,,,,,
,,,,,,,,,0.0,,,132,1.0,0.0,1.284215,0.0,4.0,4.0,4.0,1.0,denture_03s.jpg,poinsettia_04s.jpg,,,,,,,
,,,,,,,,,1.0,,,132,1.0,1.0,1.58541,0.0,5.0,5.0,5.0,1.0,kangaroo_02s.jpg,gear_07s.jpg,,,,,,,
,,,,,,,,,,,,132,,,,,,,,,,,0.0,6.0,6.0,6.0,1.0,newclockpresent_7_4.xlsx,newclock_compare_task_7_4.xlsx
0.0,1.0,1.19837,0.0,0.0,0.0,0.0,1.0,lamppost_09s.jpg,0.0,Blue.png,1.0,132,,,,,,,,,,,,,,,,,
0.0,1.0,0.984135,0.0,1.0,1.0,1.0,1.0,jewel_01b.jpg,0.0,Purple.png,1.0,132,,,,,,,,,,,,,,,,,
0.0,1.0,0.86753,0.0,2.0,2.0,2.0,1.0,tuxedo_01b.jpg,0.0,Red.png,1.0,132,,,,,,,,,,,,,,,,,
0.0,1.0,0.617605,0.0,3.0,3.0,3.0,1.0,flip_flop_03s.jpg,0.0,Orange.png,1.0,132,,,,,,,,,,,,,,,,,
0.0,1.0,0.61502,0.0,4.0,4.0,4.0,1.0,medal_04s.jpg,0.0,Yellow.png,1.0,132,,,,,,,,,,,,,,,,,
1.0,1.0,1.026185,0.0,5.0,5.0,5.0,1.0,flip_flop_03s.jpg,1.0,Green.png,1.0,132,,,,,,,,,,,,,,,,,
0.0,1.0,1.12194,0.0,6.0,6.0,6.0,1.0,tuxedo_01b.jpg,0.0,Blue.png,2.0,132,,,,,,,,,,,,,,,,,
0.0,1.0,2.42618,0.0,7.0,7.0,7.0,1.0,flip_flop_03s.jpg,0.0,Purple.png,2.0,132,,,,,,,,,,,,,,,,,
0.0,1.0,0.716615,0.0,8.0,8.0,8.0,1.0,fireworks_18s.jpg,0.0,Red.png,2.0,132,,,,,,,,,,,,,,,,,
0.0,1.0,0.689975,0.0,9.0,9.0,9.0,1.0,squirt_gun_03s.jpg,0.0,Orange.png,2.0,132,,,,,,,,,,,,,,,,,
0.0,0.0,1.000495,0.0,10.0,10.0,10.0,1.0,flip_flop_03s.jpg,1.0,Yellow.png,2.0,132,,,,,,,,,,,,,,,,,
0.0,1.0,0.715545,0.0,11.0,11.0,11.0,1.0,puffin_19s.jpg,0.0,Green.png,2.0,132,,,,,,,,,,,,,,,,,
0.0,1.0,0.651035,0.0,12.0,12.0,12.0,1.0,tuxedo_01b.jpg,0.0,Blue.png,3.0,132,,,,,,,,,,,,,,,,,
1.0,1.0,0.786305,0.0,13.0,13.0,13.0,1.0,tuxedo_01b.jpg,1.0,Purple.png,3.0,132,,,,,,,,,,,,,,,,,
0.0,1.0,0.68522,0.0,14.0,14.0,14.0,1.0,snowman_02s.jpg,0.0,Red.png,3.0,132,,,,,,,,,,,,,,,,,
0.0,1.0,0.730815,0.0,15.0,15.0,15.0,1.0,cucumber_07s.jpg,0.0,Orange.png,3.0,132,,,,,,,,,,,,,,,,,
0.0,1.0,0.661885,0.0,16.0,16.0,16.0,1.0,plug_08s.jpg,0.0,Yellow.png,3.0,132,,,,,,,,,,,,,,,,,
1.0,1.0,0.89403,0.0,17.0,17.0,17.0,1.0,cucumber_07s.jpg,1.0,Green.png,3.0,132,,,,,,,,,,,,,,,,,
0.0,1.0,1.019835,0.0,18.0,18.0,18.0,1.0,puffin_19s.jpg,0.0,Blue.png,4.0,132,,,,,,,,,,,,,,,,,
0.0,1.0,0.61115,0.0,19.0,19.0,19.0,1.0,fondue_07s.jpg,0.0,Purple.png,4.0,132,,,,,,,,,,,,,,,,,
0.0,1.0,0.959545,0.0,20.0,20.0,20.0,1.0,lasagna_06s.jpg,0.0,Red.png,4.0,132,,,,,,,,,,,,,,,,,
0.0,1.0,0.94245,0.0,21.0,21.0,21.0,1.0,eiffeltower.jpg,0.0,Orange.png,4.0,132,,,,,,,,,,,,,,,,,
0.0,1.0,1.326885,0.0,22.0,22.0,22.0,1.0,outlet_10s.jpg,0.0,Yellow.png,4.0,132,,,,,,,,,,,,,,,,,
0.0,1.0,2.034975,0.0,23.0,23.0,23.0,1.0,cape_11s.jpg,0.0,Green.png,4.0,132,,,,,,,,,,,,,,,,,
,0.0,,0.0,24.0,24.0,24.0,1.0,marshmallow_08s.jpg,0.0,Blue.png,5.0,132,,,,,,,,,,,,,,,,,
0.0,1.0,0.619855,0.0,25.0,25.0,25.0,1.0,racehorse_03s.jpg,0.0,Purple.png,5.0,132,,,,,,,,,,,,,,,,,
0.0,1.0,0.71648,0.0,26.0,26.0,26.0,1.0,aluminum_foil_08s.jpg,0.0,Red.png,5.0,132,,,,,,,,,,,,,,,,,
0.0,1.0,1.908975,0.0,27.0,27.0,27.0,1.0,spoon02a.jpg,0.0,Orange.png,5.0,132,,,,,,,,,,,,,,,,,
0.0,1.0,1.084415,0.0,28.0,28.0,28.0,1.0,padlock_07s.jpg,0.0,Yellow.png,5.0,132,,,,,,,,,,,,,,,,,
0.0,1.0,0.828625,0.0,29.0,29.0,29.0,1.0,solar_panel_02s.jpg,0.0,Green.png,5.0,132,,,,,,,,,,,,,,,,,
0.0,1.0,1.59545,0.0,30.0,30.0,30.0,1.0,turtleneck_11s.jpg,0.0,Blue.png,6.0,132,,,,,,,,,,,,,,,,,
0.0,1.0,1.8347,0.0,31.0,31.0,31.0,1.0,pocketknife_12s.jpg,0.0,Purple.png,6.0,132,,,,,,,,,,,,,,,,,
1.0,1.0,1.410755,0.0,32.0,32.0,32.0,1.0,pocketknife_12s.jpg,1.0,Red.png,6.0,132,,,,,,,,,,,,,,,,,
0.0,1.0,0.776185,0.0,33.0,33.0,33.0,1.0,quill_09s.jpg,0.0,Orange.png,6.0,132,,,,,,,,,,,,,,,,,
1.0,1.0,1.099135,0.0,34.0,34.0,34.0,1.0,quill_09s.jpg,1.0,Yellow.png,6.0,132,,,,,,,,,,,,,,,,,
1.0,1.0,2.27784,0.0,35.0,35.0,35.0,1.0,pocketknife_12s.jpg,1.0,Green.png,6.0,132,,,,,,,,,,,,,,,,,
,,,,,,,,,0.0,,,132,1.0,0.0,3.84477,0.0,0.0,0.0,0.0,1.0,cape_11s.jpg,lasagna_06s.jpg,,,,,,,
,,,,,,,,,0.0,,,132,0.0,1.0,4.200785,0.0,1.0,1.0,1.0,1.0,padlock_07s.jpg,racehorse_03s.jpg,,,,,,,
,,,,,,,,,1.0,,,132,0.0,0.0,1.37237,0.0,2.0,2.0,2.0,1.0,spoon02a.jpg,turtleneck_11s.jpg,,,,,,,
,,,,,,,,,0.0,,,132,0.0,1.0,1.40116,0.0,3.0,3.0,3.0,1.0,marshmallow_08s.jpg,eiffeltower.jpg,,,,,,,
,,,,,,,,,0.0,,,132,1.0,0.0,2.11443,0.0,4.0,4.0,4.0,1.0,medal_04s.jpg,jewel_01b.jpg,,,,,,,
,,,,,,,,,1.0,,,132,1.0,1.0,1.53994,0.0,5.0,5.0,5.0,1.0,plug_08s.jpg,fondue_07s.jpg,,,,,,,
,,,,,,,,,,,,132,,,,,,,,,,,0.0,7.0,7.0,7.0,1.0,newclockpresent_8_4.xlsx,newclock_compare_task_8_4.xlsx
0.0,1.0,0.961345,0.0,0.0,0.0,0.0,1.0,footprint_11s.jpg,0.0,Blue.png,1.0,132,,,,,,,,,,,,,,,,,
0.0,1.0,0.857545,0.0,1.0,1.0,1.0,1.0,coffee_filter_10s.jpg,0.0,Purple.png,1.0,132,,,,,,,,,,,,,,,,,
1.0,1.0,1.16211,0.0,2.0,2.0,2.0,1.0,coffee_filter_10s.jpg,1.0,Red.png,1.0,132,,,,,,,,,,,,,,,,,
1.0,1.0,0.54659,0.0,3.0,3.0,3.0,1.0,coffee_filter_10s.jpg,1.0,Orange.png,1.0,132,,,,,,,,,,,,,,,,,
1.0,1.0,0.730295,0.0,4.0,4.0,4.0,1.0,coffee_filter_10s.jpg,1.0,Yellow.png,1.0,132,,,,,,,,,,,,,,,,,
0.0,1.0,0.827905,0.0,5.0,5.0,5.0,1.0,gargoyle_08s.jpg,0.0,Green.png,1.0,132,,,,,,,,,,,,,,,,,
0.0,1.0,0.76953,0.0,6.0,6.0,6.0,1.0,candy_cane_06s.jpg,0.0,Blue.png,2.0,132,,,,,,,,,,,,,,,,,
0.0,1.0,0.745695,0.0,7.0,7.0,7.0,1.0,toad_09s.jpg,0.0,Purple.png,2.0,132,,,,,,,,,,,,,,,,,
1.0,1.0,1.58617,0.0,8.0,8.0,8.0,1.0,candy_cane_06s.jpg,1.0,Red.png,2.0,132,,,,,,,,,,,,,,,,,
0.0,1.0,0.88186,0.0,9.0,9.0,9.0,1.0,pumpkin_03s.jpg,0.0,Orange.png,2.0,132,,,,,,,,,,,,,,,,,
0.0,1.0,0.61741,0.0,10.0,10.0,10.0,1.0,dashboard_02s.jpg,0.0,Yellow.png,2.0,132,,,,,,,,,,,,,,,,,
0.0,1.0,0.761555,0.0,11.0,11.0,11.0,1.0,syringe_02s.jpg,0.0,Green.png,2.0,132,,,,,,,,,,,,,,,,,
0.0,1.0,0.492545,0.0,12.0,12.0,12.0,1.0,powder_07s.jpg,0.0,Blue.png,3.0,132,,,,,,,,,,,,,,,,,
1.0,1.0,0.87713,0.0,13.0,13.0,13.0,1.0,powder_07s.jpg,1.0,Purple.png,3.0,132,,,,,,,,,,,,,,,,,
1.0,1.0,0.864025,0.0,14.0,14.0,14.0,1.0,powder_07s.jpg,1.0,Red.png,3.0,132,,,,,,,,,,,,,,,,,
0.0,1.0,0.710335,0.0,15.0,15.0,15.0,1.0,sea_urchin_09s.jpg,0.0,Orange.png,3.0,132,,,,,,,,,,,,,,,,,
0.0,1.0,0.67676,0.0,16.0,16.0,16.0,1.0,throne_11s.jpg,0.0,Yellow.png,3.0,132,,,,,,,,,,,,,,,,,
0.0,0.0,2.04522,0.0,17.0,17.0,17.0,1.0,powder_07s.jpg,1.0,Green.png,3.0,132,,,,,,,,,,,,,,,,,
0.0,1.0,0.67277,0.0,18.0,18.0,18.0,1.0,chalice_10s.jpg,0.0,Blue.png,4.0,132,,,,,,,,,,,,,,,,,
0.0,1.0,0.55006,0.0,19.0,19.0,19.0,1.0,air_pump_05s.jpg,0.0,Purple.png,4.0,132,,,,,,,,,,,,,,,,,
0.0,1.0,0.71749,0.0,20.0,20.0,20.0,1.0,microwave_02s.jpg,0.0,Red.png,4.0,132,,,,,,,,,,,,,,,,,
0.0,1.0,0.60127,0.0,21.0,21.0,21.0,1.0,cereal_04s.jpg,0.0,Orange.png,4.0,132,,,,,,,,,,,,,,,,,
0.0,1.0,0.700135,0.0,22.0,22.0,22.0,1.0,mushroom_10n.jpg,0.0,Yellow.png,4.0,132,,,,,,,,,,,,,,,,,
0.0,1.0,0.633525,0.0,23.0,23.0,23.0,1.0,red_carpet_03s.jpg,0.0,Green.png,4.0,132,,,,,,,,,,,,,,,,,
0.0,1.0,1.083755,0.0,24.0,24.0,24.0,1.0,throne_11s.jpg,0.0,Blue.png,5.0,132,,,,,,,,,,,,,,,,,
0.0,1.0,0.64146,0.0,25.0,25.0,25.0,1.0,koala_13s.jpg,0.0,Purple.png,5.0,132,,,,,,,,,,,,,,,,,
1.0,1.0,1.400395,0.0,26.0,26.0,26.0,1.0,throne_11s.jpg,1.0,Red.png,5.0,132,,,,,,,,,,,,,,,,,
0.0,1.0,0.640385,0.0,27.0,27.0,27.0,1.0,rocket_02s.jpg,0.0,Orange.png,5.0,132,,,,,,,,,,,,,,,,,
0.0,1.0,0.55277,0.0,28.0,28.0,28.0,1.0,swordfish_05s.jpg,0.0,Yellow.png,5.0,132,,,,,,,,,,,,,,,,,
0.0,0.0,0.616795,0.0,29.0,29.0,29.0,1.0,rocket_02s.jpg,1.0,Green.png,5.0,132,,,,,,,,,,,,,,,,,
0.0,1.0,0.65793,0.0,30.0,30.0,30.0,1.0,icicle_04s.jpg,0.0,Blue.png,6.0,132,,,,,,,,,,,,,,,,,
0.0,1.0,0.70061,0.0,31.0,31.0,31.0,1.0,keyboard_05s.jpg,0.0,Purple.png,6.0,132,,,,,,,,,,,,,,,,,
0.0,1.0,0.649875,0.0,32.0,32.0,32.0,1.0,pocket_watch_16s.jpg,0.0,Red.png,6.0,132,,,,,,,,,,,,,,,,,
0.0,1.0,0.65076,0.0,33.0,33.0,33.0,1.0,tablet_04s.jpg,0.0,Orange.png,6.0,132,,,,,,,,,,,,,,,,,
0.0,1.0,0.70021,0.0,34.0,34.0,34.0,1.0,chocolate_01b.jpg,0.0,Yellow.png,6.0,132,,,,,,,,,,,,,,,,,
0.0,1.0,0.932425,0.0,35.0,35.0,35.0,1.0,light_switch_02s.jpg,0.0,Green.png,6.0,132,,,,,,,,,,,,,,,,,
,,,,,,,,,0.0,,,132,0.0,1.0,1.766415,0.0,0.0,0.0,0.0,1.0,chalice_10s.jpg,sea_urchin_09s.jpg,,,,,,,
,,,,,,,,,1.0,,,132,1.0,1.0,1.23359,0.0,1.0,1.0,1.0,1.0,swordfish_05s.jpg,keyboard_05s.jpg,,,,,,,
,,,,,,,,,0.0,,,132,1.0,0.0,1.234575,0.0,2.0,2.0,2.0,1.0,red_carpet_03s.jpg,microwave_02s.jpg,,,,,,,
,,,,,,,,,0.0,,,132,0.0,1.0,1.10917,0.0,3.0,3.0,3.0,1.0,dashboard_02s.jpg,toad_09s.jpg,,,,,,,
,,,,,,,,,0.0,,,132,0.0,1.0,1.97269,0.0,4.0,4.0,4.0,1.0,koala_13s.jpg,mushroom_10n.jpg,,,,,,,
,,,,,,,,,1.0,,,132,1.0,1.0,1.134105,0.0,5.0,5.0,5.0,1.0,icicle_04s.jpg,tablet_04s.jpg,,,,,,,
,,,,,,,,,,,,132,,,,,,,,,,,0.0,8.0,8.0,8.0,1.0,newclockpresent_9_4.xlsx,newclock_compare_task_9_4.xlsx
