key_resp.keys,key_resp.corr,key_resp.rt,present_segment.thisRepN,present_segment.thisTrialN,present_segment.thisN,present_segment.thisIndex,present_segment.ran,pictures,answer,clock,segment,participant,key_resp_2.keys,key_resp_2.corr,key_resp_2.rt,compare_segment.thisRepN,compare_segment.thisTrialN,compare_segment.thisN,compare_segment.thisIndex,compare_segment.ran,item_a,item_b,clock_conditions.thisRepN,clock_conditions.thisTrialN,clock_conditions.thisN,clock_conditions.thisIndex,clock_conditions.ran,present,compare
0.0,1.0,1.70558,0.0,0.0,0.0,0.0,1.0,mirror_12s.jpg,0.0,Blue.png,1.0,87,,,,,,,,,,,,,,,,,
0.0,1.0,1.823295,0.0,1.0,1.0,1.0,1.0,polaroid_05s.jpg,0.0,Purple.png,1.0,87,,,,,,,,,,,,,,,,,
1.0,0.0,0.669015,0.0,2.0,2.0,2.0,1.0,polaroid_05s.jpg,0.0,Red.png,1.0,87,,,,,,,,,,,,,,,,,
0.0,1.0,0.53231,0.0,3.0,3.0,3.0,1.0,slingshot_07s.jpg,0.0,Orange.png,1.0,87,,,,,,,,,,,,,,,,,
1.0,1.0,1.118235,0.0,4.0,4.0,4.0,1.0,polaroid_05s.jpg,1.0,Yellow.png,1.0,87,,,,,,,,,,,,,,,,,
0.0,1.0,0.767665,0.0,5.0,5.0,5.0,1.0,kettle_08s.jpg,0.0,Green.png,1.0,87,,,,,,,,,,,,,,,,,
0.0,1.0,0.59999,0.0,6.0,6.0,6.0,1.0,crystal_ball_12s.jpg,0.0,Blue.png,2.0,87,,,,,,,,,,,,,,,,,
0.0,1.0,0.63366,0.0,7.0,7.0,7.0,1.0,iron_13s.jpg,0.0,Purple.png,2.0,87,,,,,,,,,,,,,,,,,
0.0,1.0,1.138815,0.0,8.0,8.0,8.0,1.0,saddle_06s.jpg,0.0,Red.png,2.0,87,,,,,,,,,,,,,,,,,
0.0,1.0,0.49949,0.0,9.0,9.0,9.0,1.0,mango_09s.jpg,0.0,Orange.png,2.0,87,,,,,,,,,,,,,,,,,
0.0,1.0,0.5846,0.0,10.0,10.0,10.0,1.0,ostrich_06s.jpg,0.0,Yellow.png,2.0,87,,,,,,,,,,,,,,,,,
1.0,0.0,0.623715,0.0,11.0,11.0,11.0,1.0,iron_13s.jpg,0.0,Green.png,2.0,87,,,,,,,,,,,,,,,,,
0.0,1.0,0.55669,0.0,12.0,12.0,12.0,1.0,stethoscope_01b.jpg,0.0,Blue.png,3.0,87,,,,,,,,,,,,,,,,,
0.0,1.0,0.45993,0.0,13.0,13.0,13.0,1.0,ruby_15s.jpg,0.0,Purple.png,3.0,87,,,,,,,,,,,,,,,,,
0.0,1.0,1.785495,0.0,14.0,14.0,14.0,1.0,mango_09s.jpg,0.0,Red.png,3.0,87,,,,,,,,,,,,,,,,,
0.0,1.0,0.68353,0.0,15.0,15.0,15.0,1.0,target_11s.jpg,0.0,Orange.png,3.0,87,,,,,,,,,,,,,,,,,
1.0,1.0,1.633735,0.0,16.0,16.0,16.0,1.0,mango_09s.jpg,1.0,Yellow.png,3.0,87,,,,,,,,,,,,,,,,,
0.0,1.0,0.533235,0.0,17.0,17.0,17.0,1.0,compass_10n.jpg,0.0,Green.png,3.0,87,,,,,,,,,,,,,,,,,
0.0,1.0,0.783925,0.0,18.0,18.0,18.0,1.0,meatball_13s.jpg,0.0,Blue.png,4.0,87,,,,,,,,,,,,,,,,,
0.0,1.0,0.721765,0.0,19.0,19.0,19.0,1.0,stapler_01b.jpg,0.0,Purple.png,4.0,87,,,,,,,,,,,,,,,,,
1.0,1.0,1.148585,0.0,20.0,20.0,20.0,1.0,meatball_13s.jpg,1.0,Red.png,4.0,87,,,,,,,,,,,,,,,,,
0.0,1.0,0.71055,0.0,21.0,21.0,21.0,1.0,pump_11s.jpg,0.0,Orange.png,4.0,87,,,,,,,,,,,,,,,,,
0.0,1.0,0.957545,0.0,22.0,22.0,22.0,1.0,coral_08s.jpg,0.0,Yellow.png,4.0,87,,,,,,,,,,,,,,,,,
1.0,0.0,0.75689,0.0,23.0,23.0,23.0,1.0,meatball_13s.jpg,0.0,Green.png,4.0,87,,,,,,,,,,,,,,,,,
0.0,1.0,0.65839,0.0,24.0,24.0,24.0,1.0,peach_04s.jpg,0.0,Blue.png,5.0,87,,,,,,,,,,,,,,,,,
1.0,1.0,0.79385,0.0,25.0,25.0,25.0,1.0,meatball_13s.jpg,1.0,Purple.png,5.0,87,,,,,,,,,,,,,,,,,
0.0,1.0,0.683255,0.0,26.0,26.0,26.0,1.0,pie_08s.jpg,0.0,Red.png,5.0,87,,,,,,,,,,,,,,,,,
0.0,1.0,0.583015,0.0,27.0,27.0,27.0,1.0,rollerskate_03s.jpg,0.0,Orange.png,5.0,87,,,,,,,,,,,,,,,,,
0.0,1.0,0.71772,0.0,28.0,28.0,28.0,1.0,trampoline_13s.jpg,0.0,Yellow.png,5.0,87,,,,,,,,,,,,,,,,,
0.0,1.0,0.739295,0.0,29.0,29.0,29.0,1.0,undershirt_02s.jpg,0.0,Green.png,5.0,87,,,,,,,,,,,,,,,,,
0.0,1.0,0.642275,0.0,30.0,30.0,30.0,1.0,thread_08s.jpg,0.0,Blue.png,6.0,87,,,,,,,,,,,,,,,,,
0.0,1.0,0.68903,0.0,31.0,31.0,31.0,1.0,megaphone_03s.jpg,0.0,Purple.png,6.0,87,,,,,,,,,,,,,,,,,
0.0,1.0,0.774895,0.0,32.0,32.0,32.0,1.0,plaster_cast_13s.jpg,0.0,Red.png,6.0,87,,,,,,,,,,,,,,,,,
0.0,1.0,0.870455,0.0,33.0,33.0,33.0,1.0,diving_board_07s.jpg,0.0,Orange.png,6.0,87,,,,,,,,,,,,,,,,,
0.0,1.0,0.83359,0.0,34.0,34.0,34.0,1.0,kayak_08s.jpg,0.0,Yellow.png,6.0,87,,,,,,,,,,,,,,,,,
1.0,1.0,0.92267,0.0,35.0,35.0,35.0,1.0,diving_board_07s.jpg,1.0,Green.png,6.0,87,,,,,,,,,,,,,,,,,
,,,,,,,,,1.0,,,87,0.0,0.0,2.309355,0.0,0.0,0.0,0.0,1.0,stapler_01b.jpg,coral_08s.jpg,,,,,,,
,,,,,,,,,1.0,,,87,1.0,1.0,1.017295,0.0,1.0,1.0,1.0,1.0,slingshot_07s.jpg,crystal_ball_12s.jpg,,,,,,,
,,,,,,,,,0.0,,,87,0.0,1.0,1.118235,0.0,2.0,2.0,2.0,1.0,saddle_06s.jpg,kettle_08s.jpg,,,,,,,
,,,,,,,,,1.0,,,87,1.0,1.0,0.95909,0.0,3.0,3.0,3.0,1.0,pie_08s.jpg,undershirt_02s.jpg,,,,,,,
,,,,,,,,,1.0,,,87,1.0,1.0,1.05229,0.0,4.0,4.0,4.0,1.0,stethoscope_01b.jpg,target_11s.jpg,,,,,,,
,,,,,,,,,1.0,,,87,1.0,1.0,2.2333,0.0,5.0,5.0,5.0,1.0,ostrich_06s.jpg,ruby_15s.jpg,,,,,,,
,,,,,,,,,,,,87,,,,,,,,,,,0.0,0.0,0.0,0.0,1.0,new2backpresent_1_4.xlsx,new2back_compare_task_1_4.xlsx
0.0,1.0,1.777195,0.0,0.0,0.0,0.0,1.0,jetski_10s.jpg,0.0,Blue.png,1.0,87,,,,,,,,,,,,,,,,,
0.0,1.0,0.52432,0.0,1.0,1.0,1.0,1.0,tripod_01b.jpg,0.0,Purple.png,1.0,87,,,,,,,,,,,,,,,,,
0.0,1.0,1.433395,0.0,2.0,2.0,2.0,1.0,lab_coat_11s.jpg,0.0,Red.png,1.0,87,,,,,,,,,,,,,,,,,
0.0,1.0,0.58304,0.0,3.0,3.0,3.0,1.0,foam_03s.jpg,0.0,Orange.png,1.0,87,,,,,,,,,,,,,,,,,
0.0,1.0,0.641015,0.0,4.0,4.0,4.0,1.0,crate_05s.jpg,0.0,Yellow.png,1.0,87,,,,,,,,,,,,,,,,,
0.0,1.0,1.88323,0.0,5.0,5.0,5.0,1.0,margarita_03s.jpg,0.0,Green.png,1.0,87,,,,,,,,,,,,,,,,,
0.0,1.0,0.64898,0.0,6.0,6.0,6.0,1.0,joystick_01b.jpg,0.0,Blue.png,2.0,87,,,,,,,,,,,,,,,,,
0.0,1.0,0.80432,0.0,7.0,7.0,7.0,1.0,giraffe_11s.jpg,0.0,Purple.png,2.0,87,,,,,,,,,,,,,,,,,
0.0,1.0,0.534665,0.0,8.0,8.0,8.0,1.0,quilt_03s.jpg,0.0,Red.png,2.0,87,,,,,,,,,,,,,,,,,
0.0,0.0,0.522165,0.0,9.0,9.0,9.0,1.0,giraffe_11s.jpg,1.0,Orange.png,2.0,87,,,,,,,,,,,,,,,,,
0.0,1.0,0.75458,0.0,10.0,10.0,10.0,1.0,pincushion_10s.jpg,0.0,Yellow.png,2.0,87,,,,,,,,,,,,,,,,,
1.0,1.0,0.52725,0.0,11.0,11.0,11.0,1.0,giraffe_11s.jpg,1.0,Green.png,2.0,87,,,,,,,,,,,,,,,,,
1.0,1.0,0.677505,0.0,12.0,12.0,12.0,1.0,pincushion_10s.jpg,1.0,Blue.png,3.0,87,,,,,,,,,,,,,,,,,
1.0,1.0,0.884695,0.0,13.0,13.0,13.0,1.0,giraffe_11s.jpg,1.0,Purple.png,3.0,87,,,,,,,,,,,,,,,,,
0.0,1.0,0.565625,0.0,14.0,14.0,14.0,1.0,rolling_pin_02s.jpg,0.0,Red.png,3.0,87,,,,,,,,,,,,,,,,,
0.0,1.0,0.632225,0.0,15.0,15.0,15.0,1.0,ticktacktoe_08s.jpg,0.0,Orange.png,3.0,87,,,,,,,,,,,,,,,,,
0.0,1.0,1.0337,0.0,16.0,16.0,16.0,1.0,giraffe_11s.jpg,0.0,Yellow.png,3.0,87,,,,,,,,,,,,,,,,,
1.0,1.0,0.85036,0.0,17.0,17.0,17.0,1.0,ticktacktoe_08s.jpg,1.0,Green.png,3.0,87,,,,,,,,,,,,,,,,,
0.0,1.0,0.636015,0.0,18.0,18.0,18.0,1.0,typewriter_11s.jpg,0.0,Blue.png,4.0,87,,,,,,,,,,,,,,,,,
0.0,1.0,1.000415,0.0,19.0,19.0,19.0,1.0,toothpaste_12s.jpg,0.0,Purple.png,4.0,87,,,,,,,,,,,,,,,,,
0.0,1.0,0.78517,0.0,20.0,20.0,20.0,1.0,hummingbird_05s.jpg,0.0,Red.png,4.0,87,,,,,,,,,,,,,,,,,
1.0,1.0,0.499875,0.0,21.0,21.0,21.0,1.0,toothpaste_12s.jpg,1.0,Orange.png,4.0,87,,,,,,,,,,,,,,,,,
0.0,1.0,1.406615,0.0,22.0,22.0,22.0,1.0,toothpaste_12s.jpg,0.0,Yellow.png,4.0,87,,,,,,,,,,,,,,,,,
0.0,1.0,0.63599,0.0,23.0,23.0,23.0,1.0,treadmill_06s.jpg,0.0,Green.png,4.0,87,,,,,,,,,,,,,,,,,
0.0,1.0,1.26706,0.0,24.0,24.0,24.0,1.0,typewriter_11s.jpg,0.0,Blue.png,5.0,87,,,,,,,,,,,,,,,,,
0.0,1.0,0.63411,0.0,25.0,25.0,25.0,1.0,penguin_16s.jpg,0.0,Purple.png,5.0,87,,,,,,,,,,,,,,,,,
0.0,1.0,0.48307,0.0,26.0,26.0,26.0,1.0,olive_05s.jpg,0.0,Red.png,5.0,87,,,,,,,,,,,,,,,,,
1.0,1.0,0.82256,0.0,27.0,27.0,27.0,1.0,penguin_16s.jpg,1.0,Orange.png,5.0,87,,,,,,,,,,,,,,,,,
0.0,1.0,1.260425,0.0,28.0,28.0,28.0,1.0,penguin_16s.jpg,0.0,Yellow.png,5.0,87,,,,,,,,,,,,,,,,,
0.0,1.0,1.49229,0.0,29.0,29.0,29.0,1.0,tab_09s.jpg,0.0,Green.png,5.0,87,,,,,,,,,,,,,,,,,
0.0,1.0,1.336925,0.0,30.0,30.0,30.0,1.0,frame_06s.jpg,0.0,Blue.png,6.0,87,,,,,,,,,,,,,,,,,
0.0,1.0,0.96754,0.0,31.0,31.0,31.0,1.0,mop_08s.jpg,0.0,Purple.png,6.0,87,,,,,,,,,,,,,,,,,
0.0,1.0,0.817245,0.0,32.0,32.0,32.0,1.0,memory_stick_11s.jpg,0.0,Red.png,6.0,87,,,,,,,,,,,,,,,,,
0.0,1.0,1.817475,0.0,33.0,33.0,33.0,1.0,olive_05s.jpg,0.0,Orange.png,6.0,87,,,,,,,,,,,,,,,,,
0.0,1.0,1.90099,0.0,34.0,34.0,34.0,1.0,ravioli_08s.jpg,0.0,Yellow.png,6.0,87,,,,,,,,,,,,,,,,,
0.0,1.0,1.834715,0.0,35.0,35.0,35.0,1.0,mousetrap_15n.jpg,0.0,Green.png,6.0,87,,,,,,,,,,,,,,,,,
,,,,,,,,,1.0,,,87,1.0,1.0,2.25696,0.0,0.0,0.0,0.0,1.0,hummingbird_05s.jpg,treadmill_06s.jpg,,,,,,,
,,,,,,,,,1.0,,,87,0.0,0.0,1.73451,0.0,1.0,1.0,1.0,1.0,margarita_03s.jpg,quilt_03s.jpg,,,,,,,
,,,,,,,,,0.0,,,87,0.0,1.0,2.47803,0.0,2.0,2.0,2.0,1.0,joystick_01b.jpg,foam_03s.jpg,,,,,,,
,,,,,,,,,0.0,,,87,0.0,1.0,1.07633,0.0,3.0,3.0,3.0,1.0,ravioli_08s.jpg,mop_08s.jpg,,,,,,,
,,,,,,,,,1.0,,,87,1.0,1.0,1.7412,0.0,4.0,4.0,4.0,1.0,tab_09s.jpg,memory_stick_11s.jpg,,,,,,,
,,,,,,,,,1.0,,,87,0.0,0.0,1.27251,0.0,5.0,5.0,5.0,1.0,tripod_01b.jpg,crate_05s.jpg,,,,,,,
,,,,,,,,,,,,87,,,,,,,,,,,0.0,1.0,1.0,1.0,1.0,new2backpresent_2_4.xlsx,new2back_compare_task_2_4.xlsx
0.0,1.0,1.027035,0.0,0.0,0.0,0.0,1.0,safety_pin_02s.jpg,0.0,Blue.png,1.0,87,,,,,,,,,,,,,,,,,
1.0,0.0,1.73371,0.0,1.0,1.0,1.0,1.0,safety_pin_02s.jpg,0.0,Purple.png,1.0,87,,,,,,,,,,,,,,,,,
0.0,1.0,1.17685,0.0,2.0,2.0,2.0,1.0,cardinal_07s.jpg,0.0,Red.png,1.0,87,,,,,,,,,,,,,,,,,
1.0,1.0,0.916815,0.0,3.0,3.0,3.0,1.0,safety_pin_02s.jpg,1.0,Orange.png,1.0,87,,,,,,,,,,,,,,,,,
0.0,1.0,0.668485,0.0,4.0,4.0,4.0,1.0,potholder_02s.jpg,0.0,Yellow.png,1.0,87,,,,,,,,,,,,,,,,,
0.0,0.0,1.284435,0.0,5.0,5.0,5.0,1.0,safety_pin_02s.jpg,1.0,Green.png,1.0,87,,,,,,,,,,,,,,,,,
0.0,1.0,1.369695,0.0,6.0,6.0,6.0,1.0,cardinal_07s.jpg,0.0,Blue.png,2.0,87,,,,,,,,,,,,,,,,,
0.0,1.0,0.749985,0.0,7.0,7.0,7.0,1.0,lion_18s.jpg,0.0,Purple.png,2.0,87,,,,,,,,,,,,,,,,,
0.0,1.0,0.68309,0.0,8.0,8.0,8.0,1.0,comic_book_02s.jpg,0.0,Red.png,2.0,87,,,,,,,,,,,,,,,,,
0.0,1.0,0.80006,0.0,9.0,9.0,9.0,1.0,lizard_10n.jpg,0.0,Orange.png,2.0,87,,,,,,,,,,,,,,,,,
0.0,1.0,0.67579,0.0,10.0,10.0,10.0,1.0,rice_12s.jpg,0.0,Yellow.png,2.0,87,,,,,,,,,,,,,,,,,
0.0,1.0,0.68421,0.0,11.0,11.0,11.0,1.0,bagel_15s.jpg,0.0,Green.png,2.0,87,,,,,,,,,,,,,,,,,
0.0,1.0,0.737045,0.0,12.0,12.0,12.0,1.0,recliner_02s.jpg,0.0,Blue.png,3.0,87,,,,,,,,,,,,,,,,,
0.0,1.0,1.36035,0.0,13.0,13.0,13.0,1.0,recliner_02s.jpg,0.0,Purple.png,3.0,87,,,,,,,,,,,,,,,,,
0.0,1.0,0.822175,0.0,14.0,14.0,14.0,1.0,luggage_08s.jpg,0.0,Red.png,3.0,87,,,,,,,,,,,,,,,,,
1.0,1.0,0.46972,0.0,15.0,15.0,15.0,1.0,recliner_02s.jpg,1.0,Orange.png,3.0,87,,,,,,,,,,,,,,,,,
0.0,1.0,0.64988,0.0,16.0,16.0,16.0,1.0,onion_10s.jpg,0.0,Yellow.png,3.0,87,,,,,,,,,,,,,,,,,
0.0,1.0,1.290465,0.0,17.0,17.0,17.0,1.0,rosary_03s.jpg,0.0,Green.png,3.0,87,,,,,,,,,,,,,,,,,
0.0,1.0,1.033345,0.0,18.0,18.0,18.0,1.0,smokingpipe.jpg,0.0,Blue.png,4.0,87,,,,,,,,,,,,,,,,,
0.0,1.0,0.63439,0.0,19.0,19.0,19.0,1.0,roulette_wheel_04s.jpg,0.0,Purple.png,4.0,87,,,,,,,,,,,,,,,,,
1.0,1.0,1.33513,0.0,20.0,20.0,20.0,1.0,smokingpipe.jpg,1.0,Red.png,4.0,87,,,,,,,,,,,,,,,,,
0.0,1.0,0.900485,0.0,21.0,21.0,21.0,1.0,orchid_01b.jpg,0.0,Orange.png,4.0,87,,,,,,,,,,,,,,,,,
0.0,1.0,0.75016,0.0,22.0,22.0,22.0,1.0,buoy_04s.jpg,0.0,Yellow.png,4.0,87,,,,,,,,,,,,,,,,,
0.0,1.0,0.9062,0.0,23.0,23.0,23.0,1.0,stopwatch_04s.jpg,0.0,Green.png,4.0,87,,,,,,,,,,,,,,,,,
0.0,1.0,1.255925,0.0,24.0,24.0,24.0,1.0,knitting_needle_04s.jpg,0.0,Blue.png,5.0,87,,,,,,,,,,,,,,,,,
0.0,1.0,0.59013,0.0,25.0,25.0,25.0,1.0,prism_10s.jpg,0.0,Purple.png,5.0,87,,,,,,,,,,,,,,,,,
0.0,1.0,0.725715,0.0,26.0,26.0,26.0,1.0,teapot_03s.jpg,0.0,Red.png,5.0,87,,,,,,,,,,,,,,,,,
0.0,1.0,0.65089,0.0,27.0,27.0,27.0,1.0,fire_pit_10s.jpg,0.0,Orange.png,5.0,87,,,,,,,,,,,,,,,,,
0.0,1.0,1.338705,0.0,28.0,28.0,28.0,1.0,fire_pit_10s.jpg,0.0,Yellow.png,5.0,87,,,,,,,,,,,,,,,,,
1.0,1.0,0.967215,0.0,29.0,29.0,29.0,1.0,fire_pit_10s.jpg,1.0,Green.png,5.0,87,,,,,,,,,,,,,,,,,
0.0,1.0,0.81667,0.0,30.0,30.0,30.0,1.0,ironing_board_07s.jpg,0.0,Blue.png,6.0,87,,,,,,,,,,,,,,,,,
1.0,1.0,1.383885,0.0,31.0,31.0,31.0,1.0,fire_pit_10s.jpg,1.0,Purple.png,6.0,87,,,,,,,,,,,,,,,,,
0.0,1.0,0.5836,0.0,32.0,32.0,32.0,1.0,mattress_01s.jpg,0.0,Red.png,6.0,87,,,,,,,,,,,,,,,,,
0.0,0.0,0.93347,0.0,33.0,33.0,33.0,1.0,fire_pit_10s.jpg,1.0,Orange.png,6.0,87,,,,,,,,,,,,,,,,,
1.0,1.0,1.0507,0.0,34.0,34.0,34.0,1.0,mattress_01s.jpg,1.0,Yellow.png,6.0,87,,,,,,,,,,,,,,,,,
0.0,1.0,0.903585,0.0,35.0,35.0,35.0,1.0,ice-cream_cone_06s.jpg,0.0,Green.png,6.0,87,,,,,,,,,,,,,,,,,
,,,,,,,,,1.0,,,87,1.0,1.0,1.70194,0.0,0.0,0.0,0.0,1.0,roulette_wheel_04s.jpg,buoy_04s.jpg,,,,,,,
,,,,,,,,,0.0,,,87,1.0,0.0,1.583025,0.0,1.0,1.0,1.0,1.0,lion_18s.jpg,potholder_02s.jpg,,,,,,,
,,,,,,,,,0.0,,,87,0.0,1.0,1.887305,0.0,2.0,2.0,2.0,1.0,bagel_15s.jpg,comic_book_02s.jpg,,,,,,,
,,,,,,,,,1.0,,,87,1.0,1.0,1.618435,0.0,3.0,3.0,3.0,1.0,stopwatch_04s.jpg,teapot_03s.jpg,,,,,,,
,,,,,,,,,1.0,,,87,1.0,1.0,1.817485,0.0,4.0,4.0,4.0,1.0,luggage_08s.jpg,rosary_03s.jpg,,,,,,,
,,,,,,,,,1.0,,,87,0.0,0.0,0.808385,0.0,5.0,5.0,5.0,1.0,orchid_01b.jpg,knitting_needle_04s.jpg,,,,,,,
,,,,,,,,,,,,87,,,,,,,,,,,0.0,2.0,2.0,2.0,1.0,new2backpresent_3_4.xlsx,new2back_compare_task_3_4.xlsx
0.0,1.0,1.770025,0.0,0.0,0.0,0.0,1.0,smoothie_09s.jpg,0.0,Blue.png,1.0,87,,,,,,,,,,,,,,,,,
0.0,1.0,0.58184,0.0,1.0,1.0,1.0,1.0,raspberry_12s.jpg,0.0,Purple.png,1.0,87,,,,,,,,,,,,,,,,,
0.0,1.0,1.40363,0.0,2.0,2.0,2.0,1.0,raspberry_12s.jpg,0.0,Red.png,1.0,87,,,,,,,,,,,,,,,,,
0.0,1.0,0.590745,0.0,3.0,3.0,3.0,1.0,lamb_chop_07s.jpg,0.0,Orange.png,1.0,87,,,,,,,,,,,,,,,,,
0.0,1.0,1.72554,0.0,4.0,4.0,4.0,1.0,smoothie_09s.jpg,0.0,Yellow.png,1.0,87,,,,,,,,,,,,,,,,,
1.0,0.0,1.57126,0.0,5.0,5.0,5.0,1.0,raspberry_12s.jpg,0.0,Green.png,1.0,87,,,,,,,,,,,,,,,,,
0.0,1.0,0.809915,0.0,6.0,6.0,6.0,1.0,lava_02s.jpg,0.0,Blue.png,2.0,87,,,,,,,,,,,,,,,,,
0.0,1.0,0.63435,0.0,7.0,7.0,7.0,1.0,trident_07s.jpg,0.0,Purple.png,2.0,87,,,,,,,,,,,,,,,,,
0.0,1.0,2.31602,0.0,8.0,8.0,8.0,1.0,trident_07s.jpg,0.0,Red.png,2.0,87,,,,,,,,,,,,,,,,,
1.0,1.0,0.68693,0.0,9.0,9.0,9.0,1.0,trident_07s.jpg,1.0,Orange.png,2.0,87,,,,,,,,,,,,,,,,,
0.0,1.0,0.6528,0.0,10.0,10.0,10.0,1.0,orangutan_03s.jpg,0.0,Yellow.png,2.0,87,,,,,,,,,,,,,,,,,
1.0,1.0,0.9503,0.0,11.0,11.0,11.0,1.0,trident_07s.jpg,1.0,Green.png,2.0,87,,,,,,,,,,,,,,,,,
0.0,1.0,1.225195,0.0,12.0,12.0,12.0,1.0,raspberry_12s.jpg,0.0,Blue.png,3.0,87,,,,,,,,,,,,,,,,,
1.0,1.0,1.377325,0.0,13.0,13.0,13.0,1.0,trident_07s.jpg,1.0,Purple.png,3.0,87,,,,,,,,,,,,,,,,,
0.0,1.0,1.13474,0.0,14.0,14.0,14.0,1.0,lavender_10s.jpg,0.0,Red.png,3.0,87,,,,,,,,,,,,,,,,,
0.0,1.0,0.78365,0.0,15.0,15.0,15.0,1.0,chip_04s.jpg,0.0,Orange.png,3.0,87,,,,,,,,,,,,,,,,,
0.0,1.0,0.6652,0.0,16.0,16.0,16.0,1.0,lamb_04s.jpg,0.0,Yellow.png,3.0,87,,,,,,,,,,,,,,,,,
0.0,1.0,0.818475,0.0,17.0,17.0,17.0,1.0,emerald_02s.jpg,0.0,Green.png,3.0,87,,,,,,,,,,,,,,,,,
0.0,1.0,1.10578,0.0,18.0,18.0,18.0,1.0,pineapple_12s.jpg,0.0,Blue.png,4.0,87,,,,,,,,,,,,,,,,,
0.0,1.0,1.20062,0.0,19.0,19.0,19.0,1.0,sundae_08s.jpg,0.0,Purple.png,4.0,87,,,,,,,,,,,,,,,,,
0.0,1.0,1.9915,0.0,20.0,20.0,20.0,1.0,sundae_08s.jpg,0.0,Red.png,4.0,87,,,,,,,,,,,,,,,,,
0.0,1.0,0.709915,0.0,21.0,21.0,21.0,1.0,squirrel_02s.jpg,0.0,Orange.png,4.0,87,,,,,,,,,,,,,,,,,
0.0,1.0,0.89262,0.0,22.0,22.0,22.0,1.0,roller_coaster_07s.jpg,0.0,Yellow.png,4.0,87,,,,,,,,,,,,,,,,,
0.0,1.0,1.50752,0.0,23.0,23.0,23.0,1.0,sundae_08s.jpg,0.0,Green.png,4.0,87,,,,,,,,,,,,,,,,,
0.0,1.0,0.733705,0.0,24.0,24.0,24.0,1.0,tweezers_03s.jpg,0.0,Blue.png,5.0,87,,,,,,,,,,,,,,,,,
1.0,1.0,1.20181,0.0,25.0,25.0,25.0,1.0,sundae_08s.jpg,1.0,Purple.png,5.0,87,,,,,,,,,,,,,,,,,
0.0,1.0,0.698835,0.0,26.0,26.0,26.0,1.0,rudder_02s.jpg,0.0,Red.png,5.0,87,,,,,,,,,,,,,,,,,
0.0,1.0,0.76669,0.0,27.0,27.0,27.0,1.0,rake_06s.jpg,0.0,Orange.png,5.0,87,,,,,,,,,,,,,,,,,
0.0,1.0,1.589755,0.0,28.0,28.0,28.0,1.0,rake_06s.jpg,0.0,Yellow.png,5.0,87,,,,,,,,,,,,,,,,,
1.0,1.0,1.01725,0.0,29.0,29.0,29.0,1.0,rake_06s.jpg,1.0,Green.png,5.0,87,,,,,,,,,,,,,,,,,
0.0,1.0,0.75936,0.0,30.0,30.0,30.0,1.0,cap_05s.jpg,0.0,Blue.png,6.0,87,,,,,,,,,,,,,,,,,
0.0,1.0,0.65038,0.0,31.0,31.0,31.0,1.0,paper_towel_03s.jpg,0.0,Purple.png,6.0,87,,,,,,,,,,,,,,,,,
0.0,1.0,0.93386,0.0,32.0,32.0,32.0,1.0,toaster_03s.jpg,0.0,Red.png,6.0,87,,,,,,,,,,,,,,,,,
0.0,1.0,1.05996,0.0,33.0,33.0,33.0,1.0,money_07s.jpg,0.0,Orange.png,6.0,87,,,,,,,,,,,,,,,,,
0.0,1.0,0.706055,0.0,34.0,34.0,34.0,1.0,pinwheel_06s.jpg,0.0,Yellow.png,6.0,87,,,,,,,,,,,,,,,,,
0.0,1.0,0.716415,0.0,35.0,35.0,35.0,1.0,lid_10s.jpg,0.0,Green.png,6.0,87,,,,,,,,,,,,,,,,,
,,,,,,,,,0.0,,,87,0.0,1.0,2.418385,0.0,0.0,0.0,0.0,1.0,tweezers_03s.jpg,squirrel_02s.jpg,,,,,,,
,,,,,,,,,1.0,,,87,1.0,1.0,1.642025,0.0,1.0,1.0,1.0,1.0,chip_04s.jpg,pineapple_12s.jpg,,,,,,,
,,,,,,,,,1.0,,,87,1.0,1.0,1.050885,0.0,2.0,2.0,2.0,1.0,lamb_chop_07s.jpg,lava_02s.jpg,,,,,,,
,,,,,,,,,0.0,,,87,1.0,0.0,1.4269,0.0,3.0,3.0,3.0,1.0,pinwheel_06s.jpg,paper_towel_03s.jpg,,,,,,,
,,,,,,,,,0.0,,,87,0.0,1.0,2.03293,0.0,4.0,4.0,4.0,1.0,emerald_02s.jpg,lavender_10s.jpg,,,,,,,
,,,,,,,,,0.0,,,87,1.0,0.0,2.685755,0.0,5.0,5.0,5.0,1.0,money_07s.jpg,cap_05s.jpg,,,,,,,
,,,,,,,,,,,,87,,,,,,,,,,,0.0,3.0,3.0,3.0,1.0,new2backpresent_4_4.xlsx,new2back_compare_task_4_4.xlsx
0.0,1.0,1.200415,0.0,0.0,0.0,0.0,1.0,fur_coat_11s.jpg,0.0,Blue.png,1.0,87,,,,,,,,,,,,,,,,,
0.0,1.0,0.570965,0.0,1.0,1.0,1.0,1.0,crayon_09s.jpg,0.0,Purple.png,1.0,87,,,,,,,,,,,,,,,,,
0.0,1.0,0.650875,0.0,2.0,2.0,2.0,1.0,cobra_05s.jpg,0.0,Red.png,1.0,87,,,,,,,,,,,,,,,,,
0.0,1.0,0.5682,0.0,3.0,3.0,3.0,1.0,raccoon_02s.jpg,0.0,Orange.png,1.0,87,,,,,,,,,,,,,,,,,
0.0,1.0,0.62195,0.0,4.0,4.0,4.0,1.0,soda_fountain_03s.jpg,0.0,Yellow.png,1.0,87,,,,,,,,,,,,,,,,,
1.0,1.0,1.62188,0.0,5.0,5.0,5.0,1.0,raccoon_02s.jpg,1.0,Green.png,1.0,87,,,,,,,,,,,,,,,,,
0.0,1.0,0.717045,0.0,6.0,6.0,6.0,1.0,feather02.jpg,0.0,Blue.png,2.0,87,,,,,,,,,,,,,,,,,
1.0,1.0,1.13751,0.0,7.0,7.0,7.0,1.0,raccoon_02s.jpg,1.0,Purple.png,2.0,87,,,,,,,,,,,,,,,,,
1.0,1.0,1.08354,0.0,8.0,8.0,8.0,1.0,feather02.jpg,1.0,Red.png,2.0,87,,,,,,,,,,,,,,,,,
0.0,1.0,0.74277,0.0,9.0,9.0,9.0,1.0,rug_09s.jpg,0.0,Orange.png,2.0,87,,,,,,,,,,,,,,,,,
1.0,1.0,2.017685,0.0,10.0,10.0,10.0,1.0,feather02.jpg,1.0,Yellow.png,2.0,87,,,,,,,,,,,,,,,,,
0.0,1.0,1.291975,0.0,11.0,11.0,11.0,1.0,cushion_08s.jpg,0.0,Green.png,2.0,87,,,,,,,,,,,,,,,,,
1.0,1.0,1.44212,0.0,12.0,12.0,12.0,1.0,feather02.jpg,1.0,Blue.png,3.0,87,,,,,,,,,,,,,,,,,
1.0,0.0,1.32159,0.0,13.0,13.0,13.0,1.0,feather02.jpg,0.0,Purple.png,3.0,87,,,,,,,,,,,,,,,,,
,0.0,,0.0,14.0,14.0,14.0,1.0,ice_pack_09s.jpg,0.0,Red.png,3.0,87,,,,,,,,,,,,,,,,,
1.0,0.0,1.400095,0.0,15.0,15.0,15.0,1.0,ice_pack_09s.jpg,0.0,Orange.png,3.0,87,,,,,,,,,,,,,,,,,
0.0,1.0,0.766555,0.0,16.0,16.0,16.0,1.0,loom_05s.jpg,0.0,Yellow.png,3.0,87,,,,,,,,,,,,,,,,,
1.0,1.0,1.166805,0.0,17.0,17.0,17.0,1.0,ice_pack_09s.jpg,1.0,Green.png,3.0,87,,,,,,,,,,,,,,,,,
1.0,0.0,1.44301,0.0,18.0,18.0,18.0,1.0,ice_pack_09s.jpg,0.0,Blue.png,4.0,87,,,,,,,,,,,,,,,,,
1.0,1.0,1.201575,0.0,19.0,19.0,19.0,1.0,ice_pack_09s.jpg,1.0,Purple.png,4.0,87,,,,,,,,,,,,,,,,,
1.0,1.0,1.125655,0.0,20.0,20.0,20.0,1.0,ice_pack_09s.jpg,1.0,Red.png,4.0,87,,,,,,,,,,,,,,,,,
0.0,1.0,0.773725,0.0,21.0,21.0,21.0,1.0,blazer_02s.jpg,0.0,Orange.png,4.0,87,,,,,,,,,,,,,,,,,
0.0,1.0,1.03379,0.0,22.0,22.0,22.0,1.0,penlight_12s.jpg,0.0,Yellow.png,4.0,87,,,,,,,,,,,,,,,,,
0.0,1.0,1.13365,0.0,23.0,23.0,23.0,1.0,swan_11s.jpg,0.0,Green.png,4.0,87,,,,,,,,,,,,,,,,,
0.0,1.0,0.95037,0.0,24.0,24.0,24.0,1.0,plunger_08s.jpg,0.0,Blue.png,5.0,87,,,,,,,,,,,,,,,,,
0.0,1.0,0.742775,0.0,25.0,25.0,25.0,1.0,bottle_opener_11s.jpg,0.0,Purple.png,5.0,87,,,,,,,,,,,,,,,,,
0.0,1.0,0.767345,0.0,26.0,26.0,26.0,1.0,checkbook_11s.jpg,0.0,Red.png,5.0,87,,,,,,,,,,,,,,,,,
0.0,1.0,0.804065,0.0,27.0,27.0,27.0,1.0,ink_08s.jpg,0.0,Orange.png,5.0,87,,,,,,,,,,,,,,,,,
1.0,0.0,2.003575,0.0,28.0,28.0,28.0,1.0,plunger_08s.jpg,0.0,Yellow.png,5.0,87,,,,,,,,,,,,,,,,,
0.0,1.0,0.872865,0.0,29.0,29.0,29.0,1.0,pencil02a.jpg,0.0,Green.png,5.0,87,,,,,,,,,,,,,,,,,
0.0,1.0,1.49953,0.0,30.0,30.0,30.0,1.0,ginger_09s.jpg,0.0,Blue.png,6.0,87,,,,,,,,,,,,,,,,,
0.0,1.0,1.13495,0.0,31.0,31.0,31.0,1.0,taxi_15s.jpg,0.0,Purple.png,6.0,87,,,,,,,,,,,,,,,,,
,0.0,,0.0,32.0,32.0,32.0,1.0,toy_04s.jpg,0.0,Red.png,6.0,87,,,,,,,,,,,,,,,,,
0.0,1.0,0.803615,0.0,33.0,33.0,33.0,1.0,blowfish_03s.jpg,0.0,Orange.png,6.0,87,,,,,,,,,,,,,,,,,
0.0,1.0,0.650215,0.0,34.0,34.0,34.0,1.0,toilet_paper_12s.jpg,0.0,Yellow.png,6.0,87,,,,,,,,,,,,,,,,,
0.0,1.0,1.601385,0.0,35.0,35.0,35.0,1.0,puddle_02s.jpg,0.0,Green.png,6.0,87,,,,,,,,,,,,,,,,,
,,,,,,,,,1.0,,,87,1.0,1.0,1.993235,0.0,0.0,0.0,0.0,1.0,ink_08s.jpg,ginger_09s.jpg,,,,,,,
,,,,,,,,,0.0,,,87,1.0,0.0,1.70778,0.0,1.0,1.0,1.0,1.0,puddle_02s.jpg,toy_04s.jpg,,,,,,,
,,,,,,,,,0.0,,,87,0.0,1.0,1.137655,0.0,2.0,2.0,2.0,1.0,bottle_opener_11s.jpg,penlight_12s.jpg,,,,,,,
,,,,,,,,,0.0,,,87,0.0,1.0,2.55841,0.0,3.0,3.0,3.0,1.0,checkbook_11s.jpg,swan_11s.jpg,,,,,,,
,,,,,,,,,1.0,,,87,0.0,0.0,1.81147,0.0,4.0,4.0,4.0,1.0,taxi_15s.jpg,toilet_paper_12s.jpg,,,,,,,
,,,,,,,,,1.0,,,87,1.0,1.0,1.676485,0.0,5.0,5.0,5.0,1.0,crayon_09s.jpg,soda_fountain_03s.jpg,,,,,,,
,,,,,,,,,,,,87,,,,,,,,,,,0.0,4.0,4.0,4.0,1.0,new2backpresent_5_4.xlsx,new2back_compare_task_5_4.xlsx
0.0,1.0,0.87676,0.0,0.0,0.0,0.0,1.0,flask_04s.jpg,0.0,Blue.png,1.0,87,,,,,,,,,,,,,,,,,
0.0,1.0,0.467275,0.0,1.0,1.0,1.0,1.0,kimono_13s.jpg,0.0,Purple.png,1.0,87,,,,,,,,,,,,,,,,,
0.0,1.0,0.48384,0.0,2.0,2.0,2.0,1.0,limousine_12s.jpg,0.0,Red.png,1.0,87,,,,,,,,,,,,,,,,,
0.0,1.0,0.487995,0.0,3.0,3.0,3.0,1.0,lectern_08s.jpg,0.0,Orange.png,1.0,87,,,,,,,,,,,,,,,,,
0.0,1.0,1.51965,0.0,4.0,4.0,4.0,1.0,kimono_13s.jpg,0.0,Yellow.png,1.0,87,,,,,,,,,,,,,,,,,
0.0,1.0,0.725785,0.0,5.0,5.0,5.0,1.0,doily_13s.jpg,0.0,Green.png,1.0,87,,,,,,,,,,,,,,,,,
1.0,1.0,1.384035,0.0,6.0,6.0,6.0,1.0,kimono_13s.jpg,1.0,Blue.png,2.0,87,,,,,,,,,,,,,,,,,
0.0,1.0,0.63321,0.0,7.0,7.0,7.0,1.0,razor_blade_01b.jpg,0.0,Purple.png,2.0,87,,,,,,,,,,,,,,,,,
1.0,0.0,0.85028,0.0,8.0,8.0,8.0,1.0,razor_blade_01b.jpg,0.0,Red.png,2.0,87,,,,,,,,,,,,,,,,,
0.0,1.0,0.617005,0.0,9.0,9.0,9.0,1.0,champagne_18s.jpg,0.0,Orange.png,2.0,87,,,,,,,,,,,,,,,,,
0.0,1.0,2.151535,0.0,10.0,10.0,10.0,1.0,stamp1_11s.jpg,0.0,Yellow.png,2.0,87,,,,,,,,,,,,,,,,,
1.0,1.0,1.71712,0.0,11.0,11.0,11.0,1.0,champagne_18s.jpg,1.0,Green.png,2.0,87,,,,,,,,,,,,,,,,,
0.0,1.0,0.738685,0.0,12.0,12.0,12.0,1.0,crossbow_10s.jpg,0.0,Blue.png,3.0,87,,,,,,,,,,,,,,,,,
0.0,1.0,0.70153,0.0,13.0,13.0,13.0,1.0,briefcase_03s.jpg,0.0,Purple.png,3.0,87,,,,,,,,,,,,,,,,,
0.0,1.0,0.533525,0.0,14.0,14.0,14.0,1.0,jersey_02s.jpg,0.0,Red.png,3.0,87,,,,,,,,,,,,,,,,,
0.0,0.0,0.855385,0.0,15.0,15.0,15.0,1.0,briefcase_03s.jpg,1.0,Orange.png,3.0,87,,,,,,,,,,,,,,,,,
0.0,1.0,0.57293,0.0,16.0,16.0,16.0,1.0,oil_02s.jpg,0.0,Yellow.png,3.0,87,,,,,,,,,,,,,,,,,
,0.0,,0.0,17.0,17.0,17.0,1.0,tinsel_12s.jpg,0.0,Green.png,3.0,87,,,,,,,,,,,,,,,,,
0.0,1.0,1.018525,0.0,18.0,18.0,18.0,1.0,flask_04s.jpg,0.0,Blue.png,4.0,87,,,,,,,,,,,,,,,,,
0.0,1.0,0.63191,0.0,19.0,19.0,19.0,1.0,fork_04s.jpg,0.0,Purple.png,4.0,87,,,,,,,,,,,,,,,,,
0.0,1.0,1.704505,0.0,20.0,20.0,20.0,1.0,purse_05s.jpg,0.0,Red.png,4.0,87,,,,,,,,,,,,,,,,,
0.0,1.0,1.800945,0.0,21.0,21.0,21.0,1.0,flask_04s.jpg,0.0,Orange.png,4.0,87,,,,,,,,,,,,,,,,,
,0.0,,0.0,22.0,22.0,22.0,1.0,sledgehammer_03s.jpg,0.0,Yellow.png,4.0,87,,,,,,,,,,,,,,,,,
0.0,1.0,1.411025,0.0,23.0,23.0,23.0,1.0,turf_03s.jpg,0.0,Green.png,4.0,87,,,,,,,,,,,,,,,,,
0.0,1.0,0.599415,0.0,24.0,24.0,24.0,1.0,omelet_07s.jpg,0.0,Blue.png,5.0,87,,,,,,,,,,,,,,,,,
,0.0,,0.0,25.0,25.0,25.0,1.0,turf_03s.jpg,1.0,Purple.png,5.0,87,,,,,,,,,,,,,,,,,
,0.0,,0.0,26.0,26.0,26.0,1.0,clover_04s.jpg,0.0,Red.png,5.0,87,,,,,,,,,,,,,,,,,
,0.0,,0.0,27.0,27.0,27.0,1.0,lip_gloss_06s.jpg,0.0,Orange.png,5.0,87,,,,,,,,,,,,,,,,,
,0.0,,0.0,28.0,28.0,28.0,1.0,amber_04s.jpg,0.0,Yellow.png,5.0,87,,,,,,,,,,,,,,,,,
,0.0,,0.0,29.0,29.0,29.0,1.0,tortilla_06s.jpg,0.0,Green.png,5.0,87,,,,,,,,,,,,,,,,,
0.0,1.0,2.300695,0.0,30.0,30.0,30.0,1.0,razor_blade_01b.jpg,0.0,Blue.png,6.0,87,,,,,,,,,,,,,,,,,
0.0,1.0,0.60085,0.0,31.0,31.0,31.0,1.0,tape_measure_11s.jpg,0.0,Purple.png,6.0,87,,,,,,,,,,,,,,,,,
1.0,1.0,0.466575,0.0,32.0,32.0,32.0,1.0,razor_blade_01b.jpg,1.0,Red.png,6.0,87,,,,,,,,,,,,,,,,,
0.0,1.0,1.400455,0.0,33.0,33.0,33.0,1.0,razor_blade_01b.jpg,0.0,Orange.png,6.0,87,,,,,,,,,,,,,,,,,
0.0,1.0,0.676105,0.0,34.0,34.0,34.0,1.0,stingray_02s.jpg,0.0,Yellow.png,6.0,87,,,,,,,,,,,,,,,,,
0.0,1.0,0.867805,0.0,35.0,35.0,35.0,1.0,harpoon.jpg,0.0,Green.png,6.0,87,,,,,,,,,,,,,,,,,
,,,,,,,,,1.0,,,87,1.0,1.0,1.37514,0.0,0.0,0.0,0.0,1.0,oil_02s.jpg,fork_04s.jpg,,,,,,,
,,,,,,,,,0.0,,,87,0.0,1.0,0.967565,0.0,1.0,1.0,1.0,1.0,doily_13s.jpg,limousine_12s.jpg,,,,,,,
,,,,,,,,,0.0,,,87,0.0,1.0,1.633945,0.0,2.0,2.0,2.0,1.0,lip_gloss_06s.jpg,omelet_07s.jpg,,,,,,,
,,,,,,,,,0.0,,,87,1.0,0.0,1.52683,0.0,3.0,3.0,3.0,1.0,tape_measure_11s.jpg,amber_04s.jpg,,,,,,,
,,,,,,,,,0.0,,,87,0.0,1.0,1.876015,0.0,4.0,4.0,4.0,1.0,tortilla_06s.jpg,clover_04s.jpg,,,,,,,
,,,,,,,,,0.0,,,87,1.0,0.0,1.950845,0.0,5.0,5.0,5.0,1.0,purse_05s.jpg,tinsel_12s.jpg,,,,,,,
,,,,,,,,,,,,87,,,,,,,,,,,0.0,5.0,5.0,5.0,1.0,new2backpresent_6_4.xlsx,new2back_compare_task_6_4.xlsx
0.0,1.0,1.067355,0.0,0.0,0.0,0.0,1.0,butter_14s.jpg,0.0,Blue.png,1.0,87,,,,,,,,,,,,,,,,,
0.0,1.0,1.342755,0.0,1.0,1.0,1.0,1.0,butter_14s.jpg,0.0,Purple.png,1.0,87,,,,,,,,,,,,,,,,,
1.0,1.0,0.53551,0.0,2.0,2.0,2.0,1.0,butter_14s.jpg,1.0,Red.png,1.0,87,,,,,,,,,,,,,,,,,
0.0,1.0,0.907335,0.0,3.0,3.0,3.0,1.0,stamp2_08s.jpg,0.0,Orange.png,1.0,87,,,,,,,,,,,,,,,,,
0.0,1.0,0.89105,0.0,4.0,4.0,4.0,1.0,kangaroo_02s.jpg,0.0,Yellow.png,1.0,87,,,,,,,,,,,,,,,,,
0.0,1.0,0.760105,0.0,5.0,5.0,5.0,1.0,camcorder_10s.jpg,0.0,Green.png,1.0,87,,,,,,,,,,,,,,,,,
0.0,1.0,1.055625,0.0,6.0,6.0,6.0,1.0,bank_06s.jpg,0.0,Blue.png,2.0,87,,,,,,,,,,,,,,,,,
0.0,1.0,1.1012,0.0,7.0,7.0,7.0,1.0,gear_07s.jpg,0.0,Purple.png,2.0,87,,,,,,,,,,,,,,,,,
0.0,0.0,0.489995,0.0,8.0,8.0,8.0,1.0,bank_06s.jpg,1.0,Red.png,2.0,87,,,,,,,,,,,,,,,,,
0.0,1.0,0.566735,0.0,9.0,9.0,9.0,1.0,funnel_01b.jpg,0.0,Orange.png,2.0,87,,,,,,,,,,,,,,,,,
0.0,1.0,1.586405,0.0,10.0,10.0,10.0,1.0,poinsettia_04s.jpg,0.0,Yellow.png,2.0,87,,,,,,,,,,,,,,,,,
1.0,1.0,1.3001,0.0,11.0,11.0,11.0,1.0,funnel_01b.jpg,1.0,Green.png,2.0,87,,,,,,,,,,,,,,,,,
0.0,1.0,1.66999,0.0,12.0,12.0,12.0,1.0,rooster_03s.jpg,0.0,Blue.png,3.0,87,,,,,,,,,,,,,,,,,
0.0,1.0,0.72445,0.0,13.0,13.0,13.0,1.0,denture_03s.jpg,0.0,Purple.png,3.0,87,,,,,,,,,,,,,,,,,
0.0,1.0,0.86007,0.0,14.0,14.0,14.0,1.0,bean_06s.jpg,0.0,Red.png,3.0,87,,,,,,,,,,,,,,,,,
0.0,1.0,1.18355,0.0,15.0,15.0,15.0,1.0,mud_13s.jpg,0.0,Orange.png,3.0,87,,,,,,,,,,,,,,,,,
0.0,1.0,0.866825,0.0,16.0,16.0,16.0,1.0,keyhole_03s.jpg,0.0,Yellow.png,3.0,87,,,,,,,,,,,,,,,,,
1.0,0.0,0.575225,0.0,17.0,17.0,17.0,1.0,bean_06s.jpg,0.0,Green.png,3.0,87,,,,,,,,,,,,,,,,,
0.0,1.0,0.884875,0.0,18.0,18.0,18.0,1.0,bank_06s.jpg,0.0,Blue.png,4.0,87,,,,,,,,,,,,,,,,,
0.0,1.0,0.654005,0.0,19.0,19.0,19.0,1.0,pomegranate_04s.jpg,0.0,Purple.png,4.0,87,,,,,,,,,,,,,,,,,
0.0,1.0,0.50672,0.0,20.0,20.0,20.0,1.0,chopsticks_08s.jpg,0.0,Red.png,4.0,87,,,,,,,,,,,,,,,,,
0.0,1.0,0.57687,0.0,21.0,21.0,21.0,1.0,contact_lens_15s.jpg,0.0,Orange.png,4.0,87,,,,,,,,,,,,,,,,,
0.0,1.0,0.65006,0.0,22.0,22.0,22.0,1.0,hydrant_10s.jpg,0.0,Yellow.png,4.0,87,,,,,,,,,,,,,,,,,
0.0,1.0,0.46948,0.0,23.0,23.0,23.0,1.0,gingerbread_man_03s.jpg,0.0,Green.png,4.0,87,,,,,,,,,,,,,,,,,
0.0,1.0,1.14141,0.0,24.0,24.0,24.0,1.0,camcorder_10s.jpg,0.0,Blue.png,5.0,87,,,,,,,,,,,,,,,,,
0.0,1.0,0.783645,0.0,25.0,25.0,25.0,1.0,teabag_12s.jpg,0.0,Purple.png,5.0,87,,,,,,,,,,,,,,,,,
0.0,1.0,0.83331,0.0,26.0,26.0,26.0,1.0,radiator_05s.jpg,0.0,Red.png,5.0,87,,,,,,,,,,,,,,,,,
0.0,1.0,0.93642,0.0,27.0,27.0,27.0,1.0,punch1_10s.jpg,0.0,Orange.png,5.0,87,,,,,,,,,,,,,,,,,
0.0,1.0,0.55787,0.0,28.0,28.0,28.0,1.0,mailbox_11s.jpg,0.0,Yellow.png,5.0,87,,,,,,,,,,,,,,,,,
0.0,1.0,0.52511,0.0,29.0,29.0,29.0,1.0,beaker_01b.jpg,0.0,Green.png,5.0,87,,,,,,,,,,,,,,,,,
1.0,1.0,0.95595,0.0,30.0,30.0,30.0,1.0,mailbox_11s.jpg,1.0,Blue.png,6.0,87,,,,,,,,,,,,,,,,,
0.0,1.0,0.737805,0.0,31.0,31.0,31.0,1.0,pipe1_10s.jpg,0.0,Purple.png,6.0,87,,,,,,,,,,,,,,,,,
1.0,1.0,1.083595,0.0,32.0,32.0,32.0,1.0,mailbox_11s.jpg,1.0,Red.png,6.0,87,,,,,,,,,,,,,,,,,
1.0,1.0,1.126725,0.0,33.0,33.0,33.0,1.0,pipe1_10s.jpg,1.0,Orange.png,6.0,87,,,,,,,,,,,,,,,,,
0.0,1.0,0.70882,0.0,34.0,34.0,34.0,1.0,eyedropper_12s.jpg,0.0,Yellow.png,6.0,87,,,,,,,,,,,,,,,,,
0.0,1.0,0.909505,0.0,35.0,35.0,35.0,1.0,rhubarb_03s.jpg,0.0,Green.png,6.0,87,,,,,,,,,,,,,,,,,
,,,,,,,,,0.0,,,87,0.0,1.0,2.483765,0.0,0.0,0.0,0.0,1.0,mud_13s.jpg,rooster_03s.jpg,,,,,,,
,,,,,,,,,1.0,,,87,1.0,1.0,1.019935,0.0,1.0,1.0,1.0,1.0,chopsticks_08s.jpg,gingerbread_man_03s.jpg,,,,,,,
,,,,,,,,,0.0,,,87,0.0,1.0,1.65022,0.0,2.0,2.0,2.0,1.0,beaker_01b.jpg,radiator_05s.jpg,,,,,,,
,,,,,,,,,0.0,,,87,1.0,0.0,1.367205,0.0,3.0,3.0,3.0,1.0,teabag_12s.jpg,hydrant_10s.jpg,,,,,,,
,,,,,,,,,0.0,,,87,1.0,0.0,1.267585,0.0,4.0,4.0,4.0,1.0,denture_03s.jpg,poinsettia_04s.jpg,,,,,,,
,,,,,,,,,1.0,,,87,1.0,1.0,1.17074,0.0,5.0,5.0,5.0,1.0,kangaroo_02s.jpg,gear_07s.jpg,,,,,,,
,,,,,,,,,,,,87,,,,,,,,,,,0.0,6.0,6.0,6.0,1.0,new2backpresent_7_4.xlsx,new2back_compare_task_7_4.xlsx
0.0,1.0,0.67515,0.0,0.0,0.0,0.0,1.0,lamppost_09s.jpg,0.0,Blue.png,1.0,87,,,,,,,,,,,,,,,,,
0.0,1.0,1.073295,0.0,1.0,1.0,1.0,1.0,jewel_01b.jpg,0.0,Purple.png,1.0,87,,,,,,,,,,,,,,,,,
0.0,1.0,0.45738,0.0,2.0,2.0,2.0,1.0,tuxedo_01b.jpg,0.0,Red.png,1.0,87,,,,,,,,,,,,,,,,,
0.0,1.0,0.500885,0.0,3.0,3.0,3.0,1.0,flip_flop_03s.jpg,0.0,Orange.png,1.0,87,,,,,,,,,,,,,,,,,
0.0,1.0,0.58326,0.0,4.0,4.0,4.0,1.0,medal_04s.jpg,0.0,Yellow.png,1.0,87,,,,,,,,,,,,,,,,,
1.0,1.0,1.076145,0.0,5.0,5.0,5.0,1.0,flip_flop_03s.jpg,1.0,Green.png,1.0,87,,,,,,,,,,,,,,,,,
0.0,1.0,0.7667,0.0,6.0,6.0,6.0,1.0,tuxedo_01b.jpg,0.0,Blue.png,2.0,87,,,,,,,,,,,,,,,,,
1.0,1.0,0.952975,0.0,7.0,7.0,7.0,1.0,flip_flop_03s.jpg,1.0,Purple.png,2.0,87,,,,,,,,,,,,,,,,,
0.0,1.0,0.51928,0.0,8.0,8.0,8.0,1.0,fireworks_18s.jpg,0.0,Red.png,2.0,87,,,,,,,,,,,,,,,,,
0.0,1.0,0.583535,0.0,9.0,9.0,9.0,1.0,squirt_gun_03s.jpg,0.0,Orange.png,2.0,87,,,,,,,,,,,,,,,,,
0.0,1.0,0.684365,0.0,10.0,10.0,10.0,1.0,flip_flop_03s.jpg,0.0,Yellow.png,2.0,87,,,,,,,,,,,,,,,,,
0.0,1.0,0.322745,0.0,11.0,11.0,11.0,1.0,puffin_19s.jpg,0.0,Green.png,2.0,87,,,,,,,,,,,,,,,,,
0.0,1.0,0.506205,0.0,12.0,12.0,12.0,1.0,tuxedo_01b.jpg,0.0,Blue.png,3.0,87,,,,,,,,,,,,,,,,,
0.0,1.0,0.75176,0.0,13.0,13.0,13.0,1.0,tuxedo_01b.jpg,0.0,Purple.png,3.0,87,,,,,,,,,,,,,,,,,
0.0,1.0,0.702775,0.0,14.0,14.0,14.0,1.0,snowman_02s.jpg,0.0,Red.png,3.0,87,,,,,,,,,,,,,,,,,
0.0,1.0,0.56653,0.0,15.0,15.0,15.0,1.0,cucumber_07s.jpg,0.0,Orange.png,3.0,87,,,,,,,,,,,,,,,,,
0.0,1.0,0.724745,0.0,16.0,16.0,16.0,1.0,plug_08s.jpg,0.0,Yellow.png,3.0,87,,,,,,,,,,,,,,,,,
1.0,1.0,0.64123,0.0,17.0,17.0,17.0,1.0,cucumber_07s.jpg,1.0,Green.png,3.0,87,,,,,,,,,,,,,,,,,
0.0,1.0,0.950815,0.0,18.0,18.0,18.0,1.0,puffin_19s.jpg,0.0,Blue.png,4.0,87,,,,,,,,,,,,,,,,,
0.0,1.0,0.59112,0.0,19.0,19.0,19.0,1.0,fondue_07s.jpg,0.0,Purple.png,4.0,87,,,,,,,,,,,,,,,,,
0.0,1.0,0.683865,0.0,20.0,20.0,20.0,1.0,lasagna_06s.jpg,0.0,Red.png,4.0,87,,,,,,,,,,,,,,,,,
0.0,1.0,0.699,0.0,21.0,21.0,21.0,1.0,eiffeltower.jpg,0.0,Orange.png,4.0,87,,,,,,,,,,,,,,,,,
0.0,1.0,0.983365,0.0,22.0,22.0,22.0,1.0,outlet_10s.jpg,0.0,Yellow.png,4.0,87,,,,,,,,,,,,,,,,,
0.0,1.0,0.550435,0.0,23.0,23.0,23.0,1.0,cape_11s.jpg,0.0,Green.png,4.0,87,,,,,,,,,,,,,,,,,
0.0,1.0,0.801265,0.0,24.0,24.0,24.0,1.0,marshmallow_08s.jpg,0.0,Blue.png,5.0,87,,,,,,,,,,,,,,,,,
0.0,1.0,0.71836,0.0,25.0,25.0,25.0,1.0,racehorse_03s.jpg,0.0,Purple.png,5.0,87,,,,,,,,,,,,,,,,,
0.0,1.0,0.52475,0.0,26.0,26.0,26.0,1.0,aluminum_foil_08s.jpg,0.0,Red.png,5.0,87,,,,,,,,,,,,,,,,,
0.0,1.0,0.684305,0.0,27.0,27.0,27.0,1.0,spoon02a.jpg,0.0,Orange.png,5.0,87,,,,,,,,,,,,,,,,,
0.0,1.0,0.657425,0.0,28.0,28.0,28.0,1.0,padlock_07s.jpg,0.0,Yellow.png,5.0,87,,,,,,,,,,,,,,,,,
0.0,1.0,0.65037,0.0,29.0,29.0,29.0,1.0,solar_panel_02s.jpg,0.0,Green.png,5.0,87,,,,,,,,,,,,,,,,,
0.0,1.0,0.600345,0.0,30.0,30.0,30.0,1.0,turtleneck_11s.jpg,0.0,Blue.png,6.0,87,,,,,,,,,,,,,,,,,
0.0,1.0,0.73429,0.0,31.0,31.0,31.0,1.0,pocketknife_12s.jpg,0.0,Purple.png,6.0,87,,,,,,,,,,,,,,,,,
1.0,0.0,1.668755,0.0,32.0,32.0,32.0,1.0,pocketknife_12s.jpg,0.0,Red.png,6.0,87,,,,,,,,,,,,,,,,,
0.0,1.0,0.538385,0.0,33.0,33.0,33.0,1.0,quill_09s.jpg,0.0,Orange.png,6.0,87,,,,,,,,,,,,,,,,,
0.0,1.0,1.6339,0.0,34.0,34.0,34.0,1.0,quill_09s.jpg,0.0,Yellow.png,6.0,87,,,,,,,,,,,,,,,,,
1.0,0.0,1.11789,0.0,35.0,35.0,35.0,1.0,pocketknife_12s.jpg,0.0,Green.png,6.0,87,,,,,,,,,,,,,,,,,
,,,,,,,,,0.0,,,87,1.0,0.0,2.01972,0.0,0.0,0.0,0.0,1.0,cape_11s.jpg,lasagna_06s.jpg,,,,,,,
,,,,,,,,,0.0,,,87,1.0,0.0,1.50356,0.0,1.0,1.0,1.0,1.0,padlock_07s.jpg,racehorse_03s.jpg,,,,,,,
,,,,,,,,,1.0,,,87,0.0,0.0,1.83407,0.0,2.0,2.0,2.0,1.0,spoon02a.jpg,turtleneck_11s.jpg,,,,,,,
,,,,,,,,,0.0,,,87,1.0,0.0,0.98934,0.0,3.0,3.0,3.0,1.0,marshmallow_08s.jpg,eiffeltower.jpg,,,,,,,
,,,,,,,,,0.0,,,87,0.0,1.0,1.104515,0.0,4.0,4.0,4.0,1.0,medal_04s.jpg,jewel_01b.jpg,,,,,,,
,,,,,,,,,1.0,,,87,1.0,1.0,1.151095,0.0,5.0,5.0,5.0,1.0,plug_08s.jpg,fondue_07s.jpg,,,,,,,
,,,,,,,,,,,,87,,,,,,,,,,,0.0,7.0,7.0,7.0,1.0,new2backpresent_8_4.xlsx,new2back_compare_task_8_4.xlsx
0.0,1.0,0.74341,0.0,0.0,0.0,0.0,1.0,footprint_11s.jpg,0.0,Blue.png,1.0,87,,,,,,,,,,,,,,,,,
0.0,1.0,0.486225,0.0,1.0,1.0,1.0,1.0,coffee_filter_10s.jpg,0.0,Purple.png,1.0,87,,,,,,,,,,,,,,,,,
0.0,1.0,1.14095,0.0,2.0,2.0,2.0,1.0,coffee_filter_10s.jpg,0.0,Red.png,1.0,87,,,,,,,,,,,,,,,,,
1.0,1.0,0.45886,0.0,3.0,3.0,3.0,1.0,coffee_filter_10s.jpg,1.0,Orange.png,1.0,87,,,,,,,,,,,,,,,,,
1.0,1.0,0.90514,0.0,4.0,4.0,4.0,1.0,coffee_filter_10s.jpg,1.0,Yellow.png,1.0,87,,,,,,,,,,,,,,,,,
0.0,1.0,0.71672,0.0,5.0,5.0,5.0,1.0,gargoyle_08s.jpg,0.0,Green.png,1.0,87,,,,,,,,,,,,,,,,,
0.0,1.0,0.849925,0.0,6.0,6.0,6.0,1.0,candy_cane_06s.jpg,0.0,Blue.png,2.0,87,,,,,,,,,,,,,,,,,
0.0,1.0,0.849705,0.0,7.0,7.0,7.0,1.0,toad_09s.jpg,0.0,Purple.png,2.0,87,,,,,,,,,,,,,,,,,
1.0,1.0,1.06837,0.0,8.0,8.0,8.0,1.0,candy_cane_06s.jpg,1.0,Red.png,2.0,87,,,,,,,,,,,,,,,,,
0.0,1.0,0.765265,0.0,9.0,9.0,9.0,1.0,pumpkin_03s.jpg,0.0,Orange.png,2.0,87,,,,,,,,,,,,,,,,,
0.0,1.0,0.92178,0.0,10.0,10.0,10.0,1.0,dashboard_02s.jpg,0.0,Yellow.png,2.0,87,,,,,,,,,,,,,,,,,
0.0,1.0,0.77559,0.0,11.0,11.0,11.0,1.0,syringe_02s.jpg,0.0,Green.png,2.0,87,,,,,,,,,,,,,,,,,
0.0,1.0,1.350445,0.0,12.0,12.0,12.0,1.0,powder_07s.jpg,0.0,Blue.png,3.0,87,,,,,,,,,,,,,,,,,
1.0,0.0,0.94923,0.0,13.0,13.0,13.0,1.0,powder_07s.jpg,0.0,Purple.png,3.0,87,,,,,,,,,,,,,,,,,
1.0,1.0,0.8589,0.0,14.0,14.0,14.0,1.0,powder_07s.jpg,1.0,Red.png,3.0,87,,,,,,,,,,,,,,,,,
0.0,1.0,0.68423,0.0,15.0,15.0,15.0,1.0,sea_urchin_09s.jpg,0.0,Orange.png,3.0,87,,,,,,,,,,,,,,,,,
0.0,1.0,0.655645,0.0,16.0,16.0,16.0,1.0,throne_11s.jpg,0.0,Yellow.png,3.0,87,,,,,,,,,,,,,,,,,
1.0,0.0,1.34373,0.0,17.0,17.0,17.0,1.0,powder_07s.jpg,0.0,Green.png,3.0,87,,,,,,,,,,,,,,,,,
0.0,1.0,0.583735,0.0,18.0,18.0,18.0,1.0,chalice_10s.jpg,0.0,Blue.png,4.0,87,,,,,,,,,,,,,,,,,
0.0,1.0,0.571485,0.0,19.0,19.0,19.0,1.0,air_pump_05s.jpg,0.0,Purple.png,4.0,87,,,,,,,,,,,,,,,,,
0.0,1.0,0.75035,0.0,20.0,20.0,20.0,1.0,microwave_02s.jpg,0.0,Red.png,4.0,87,,,,,,,,,,,,,,,,,
0.0,1.0,0.74429,0.0,21.0,21.0,21.0,1.0,cereal_04s.jpg,0.0,Orange.png,4.0,87,,,,,,,,,,,,,,,,,
0.0,1.0,0.518245,0.0,22.0,22.0,22.0,1.0,mushroom_10n.jpg,0.0,Yellow.png,4.0,87,,,,,,,,,,,,,,,,,
0.0,1.0,0.65023,0.0,23.0,23.0,23.0,1.0,red_carpet_03s.jpg,0.0,Green.png,4.0,87,,,,,,,,,,,,,,,,,
0.0,1.0,1.351125,0.0,24.0,24.0,24.0,1.0,throne_11s.jpg,0.0,Blue.png,5.0,87,,,,,,,,,,,,,,,,,
0.0,1.0,1.166785,0.0,25.0,25.0,25.0,1.0,koala_13s.jpg,0.0,Purple.png,5.0,87,,,,,,,,,,,,,,,,,
1.0,1.0,1.316875,0.0,26.0,26.0,26.0,1.0,throne_11s.jpg,1.0,Red.png,5.0,87,,,,,,,,,,,,,,,,,
0.0,1.0,1.256035,0.0,27.0,27.0,27.0,1.0,rocket_02s.jpg,0.0,Orange.png,5.0,87,,,,,,,,,,,,,,,,,
0.0,1.0,0.517845,0.0,28.0,28.0,28.0,1.0,swordfish_05s.jpg,0.0,Yellow.png,5.0,87,,,,,,,,,,,,,,,,,
1.0,1.0,0.96704,0.0,29.0,29.0,29.0,1.0,rocket_02s.jpg,1.0,Green.png,5.0,87,,,,,,,,,,,,,,,,,
0.0,1.0,2.227225,0.0,30.0,30.0,30.0,1.0,icicle_04s.jpg,0.0,Blue.png,6.0,87,,,,,,,,,,,,,,,,,
0.0,1.0,0.59574,0.0,31.0,31.0,31.0,1.0,keyboard_05s.jpg,0.0,Purple.png,6.0,87,,,,,,,,,,,,,,,,,
0.0,1.0,0.585125,0.0,32.0,32.0,32.0,1.0,pocket_watch_16s.jpg,0.0,Red.png,6.0,87,,,,,,,,,,,,,,,,,
0.0,1.0,0.62359,0.0,33.0,33.0,33.0,1.0,tablet_04s.jpg,0.0,Orange.png,6.0,87,,,,,,,,,,,,,,,,,
0.0,1.0,0.53346,0.0,34.0,34.0,34.0,1.0,chocolate_01b.jpg,0.0,Yellow.png,6.0,87,,,,,,,,,,,,,,,,,
0.0,1.0,0.716745,0.0,35.0,35.0,35.0,1.0,light_switch_02s.jpg,0.0,Green.png,6.0,87,,,,,,,,,,,,,,,,,
,,,,,,,,,0.0,,,87,1.0,0.0,2.634355,0.0,0.0,0.0,0.0,1.0,chalice_10s.jpg,sea_urchin_09s.jpg,,,,,,,
,,,,,,,,,1.0,,,87,0.0,0.0,1.073805,0.0,1.0,1.0,1.0,1.0,swordfish_05s.jpg,keyboard_05s.jpg,,,,,,,
,,,,,,,,,0.0,,,87,0.0,1.0,4.17743,0.0,2.0,2.0,2.0,1.0,red_carpet_03s.jpg,microwave_02s.jpg,,,,,,,
,,,,,,,,,0.0,,,87,0.0,1.0,1.219505,0.0,3.0,3.0,3.0,1.0,dashboard_02s.jpg,toad_09s.jpg,,,,,,,
,,,,,,,,,0.0,,,87,1.0,0.0,3.0677,0.0,4.0,4.0,4.0,1.0,koala_13s.jpg,mushroom_10n.jpg,,,,,,,
,,,,,,,,,1.0,,,87,0.0,0.0,1.350625,0.0,5.0,5.0,5.0,1.0,icicle_04s.jpg,tablet_04s.jpg,,,,,,,
,,,,,,,,,,,,87,,,,,,,,,,,0.0,8.0,8.0,8.0,1.0,new2backpresent_9_4.xlsx,new2back_compare_task_9_4.xlsx
