key_resp.keys,key_resp.corr,key_resp.rt,present_segment.thisRepN,present_segment.thisTrialN,present_segment.thisN,present_segment.thisIndex,present_segment.ran,pictures,answer,clock,segment,participant,key_resp_2.keys,key_resp_2.corr,key_resp_2.rt,compare_segment.thisRepN,compare_segment.thisTrialN,compare_segment.thisN,compare_segment.thisIndex,compare_segment.ran,item_a,item_b,clock_conditions.thisRepN,clock_conditions.thisTrialN,clock_conditions.thisN,clock_conditions.thisIndex,clock_conditions.ran,present,compare
0.0,1.0,0.903,0.0,0.0,0.0,0.0,1.0,insole_11s.jpg,0.0,Blue.png,1.0,96,,,,,,,,,,,,,,,,,
0.0,1.0,1.248,0.0,1.0,1.0,1.0,1.0,tupperware_09s.jpg,0.0,Purple.png,1.0,96,,,,,,,,,,,,,,,,,
0.0,0.0,0.657,0.0,2.0,2.0,2.0,1.0,tupperware_09s.jpg,1.0,Red.png,1.0,96,,,,,,,,,,,,,,,,,
0.0,1.0,0.679,0.0,3.0,3.0,3.0,1.0,fox_13s.jpg,0.0,Orange.png,1.0,96,,,,,,,,,,,,,,,,,
1.0,1.0,0.864,0.0,4.0,4.0,4.0,1.0,tupperware_09s.jpg,1.0,Yellow.png,1.0,96,,,,,,,,,,,,,,,,,
0.0,1.0,0.763,0.0,5.0,5.0,5.0,1.0,lavender_10s.jpg,0.0,Green.png,1.0,96,,,,,,,,,,,,,,,,,
1.0,0.0,0.782,0.0,6.0,6.0,6.0,1.0,tupperware_09s.jpg,0.0,Blue.png,2.0,96,,,,,,,,,,,,,,,,,
0.0,1.0,0.823,0.0,7.0,7.0,7.0,1.0,poinsettia_04s.jpg,0.0,Purple.png,2.0,96,,,,,,,,,,,,,,,,,
0.0,1.0,0.832,0.0,8.0,8.0,8.0,1.0,margarita_03s.jpg,0.0,Red.png,2.0,96,,,,,,,,,,,,,,,,,
0.0,1.0,0.773,0.0,9.0,9.0,9.0,1.0,toothpaste_12s.jpg,0.0,Orange.png,2.0,96,,,,,,,,,,,,,,,,,
0.0,1.0,0.727,0.0,10.0,10.0,10.0,1.0,ladder_15s.jpg,0.0,Yellow.png,2.0,96,,,,,,,,,,,,,,,,,
0.0,1.0,1.459,0.0,11.0,11.0,11.0,1.0,pocketknife_12s.jpg,0.0,Green.png,2.0,96,,,,,,,,,,,,,,,,,
0.0,1.0,0.744,0.0,12.0,12.0,12.0,1.0,spoon02a.jpg,0.0,Blue.png,3.0,96,,,,,,,,,,,,,,,,,
0.0,1.0,0.609,0.0,13.0,13.0,13.0,1.0,mango_09s.jpg,0.0,Purple.png,3.0,96,,,,,,,,,,,,,,,,,
0.0,1.0,0.664,0.0,14.0,14.0,14.0,1.0,chalice_10s.jpg,0.0,Red.png,3.0,96,,,,,,,,,,,,,,,,,
1.0,0.0,0.81,0.0,15.0,15.0,15.0,1.0,pocketknife_12s.jpg,0.0,Orange.png,3.0,96,,,,,,,,,,,,,,,,,
0.0,1.0,0.74,0.0,16.0,16.0,16.0,1.0,abacus_12s.jpg,0.0,Yellow.png,3.0,96,,,,,,,,,,,,,,,,,
1.0,1.0,0.809,0.0,17.0,17.0,17.0,1.0,abacus_12s.jpg,1.0,Green.png,3.0,96,,,,,,,,,,,,,,,,,
1.0,0.0,0.693,0.0,18.0,18.0,18.0,1.0,abacus_12s.jpg,0.0,Blue.png,4.0,96,,,,,,,,,,,,,,,,,
1.0,1.0,0.659,0.0,19.0,19.0,19.0,1.0,abacus_12s.jpg,1.0,Purple.png,4.0,96,,,,,,,,,,,,,,,,,
0.0,1.0,0.64,0.0,20.0,20.0,20.0,1.0,sushi_08s.jpg,0.0,Red.png,4.0,96,,,,,,,,,,,,,,,,,
0.0,1.0,0.653,0.0,21.0,21.0,21.0,1.0,funnel_01b.jpg,0.0,Orange.png,4.0,96,,,,,,,,,,,,,,,,,
0.0,1.0,0.74,0.0,22.0,22.0,22.0,1.0,rooster_03s.jpg,0.0,Yellow.png,4.0,96,,,,,,,,,,,,,,,,,
0.0,1.0,0.646,0.0,23.0,23.0,23.0,1.0,ukulele_02s.jpg,0.0,Green.png,4.0,96,,,,,,,,,,,,,,,,,
1.0,0.0,0.791,0.0,24.0,24.0,24.0,1.0,pocketknife_12s.jpg,0.0,Blue.png,5.0,96,,,,,,,,,,,,,,,,,
1.0,1.0,0.656,0.0,25.0,25.0,25.0,1.0,pocketknife_12s.jpg,1.0,Purple.png,5.0,96,,,,,,,,,,,,,,,,,
1.0,1.0,0.712,0.0,26.0,26.0,26.0,1.0,pocketknife_12s.jpg,1.0,Red.png,5.0,96,,,,,,,,,,,,,,,,,
0.0,1.0,0.96,0.0,27.0,27.0,27.0,1.0,stapler_01b.jpg,0.0,Orange.png,5.0,96,,,,,,,,,,,,,,,,,
0.0,1.0,0.796,0.0,28.0,28.0,28.0,1.0,birthday_cake_09s.jpg,0.0,Yellow.png,5.0,96,,,,,,,,,,,,,,,,,
0.0,1.0,1.038,0.0,29.0,29.0,29.0,1.0,meatball_13s.jpg,0.0,Green.png,5.0,96,,,,,,,,,,,,,,,,,
0.0,1.0,0.947,0.0,30.0,30.0,30.0,1.0,cape_11s.jpg,0.0,Blue.png,6.0,96,,,,,,,,,,,,,,,,,
1.0,1.0,1.114,0.0,31.0,31.0,31.0,1.0,cape_11s.jpg,1.0,Purple.png,6.0,96,,,,,,,,,,,,,,,,,
0.0,1.0,1.507,0.0,32.0,32.0,32.0,1.0,lizard_10n.jpg,0.0,Red.png,6.0,96,,,,,,,,,,,,,,,,,
0.0,1.0,0.796,0.0,33.0,33.0,33.0,1.0,refrigerator_07s.jpg,0.0,Orange.png,6.0,96,,,,,,,,,,,,,,,,,
1.0,1.0,0.84,0.0,34.0,34.0,34.0,1.0,refrigerator_07s.jpg,1.0,Yellow.png,6.0,96,,,,,,,,,,,,,,,,,
0.0,1.0,0.832,0.0,35.0,35.0,35.0,1.0,touchpad_11s.jpg,0.0,Green.png,6.0,96,,,,,,,,,,,,,,,,,
,,,,,,,,,1.0,,,96,1.0,1.0,4.611,0.0,0.0,0.0,0.0,1.0,lavender_10s.jpg,margarita_03s.jpg,,,,,,,
,,,,,,,,,1.0,,,96,1.0,1.0,2.498,0.0,1.0,1.0,1.0,1.0,toothpaste_12s.jpg,spoon02a.jpg,,,,,,,
,,,,,,,,,1.0,,,96,0.0,0.0,5.429,0.0,2.0,2.0,2.0,1.0,ladder_15s.jpg,mango_09s.jpg,,,,,,,
,,,,,,,,,0.0,,,96,0.0,1.0,2.631,0.0,3.0,3.0,3.0,1.0,fox_13s.jpg,insole_11s.jpg,,,,,,,
,,,,,,,,,0.0,,,96,1.0,0.0,1.368,0.0,4.0,4.0,4.0,1.0,ukulele_02s.jpg,sushi_08s.jpg,,,,,,,
,,,,,,,,,0.0,,,96,1.0,0.0,2.438,0.0,5.0,5.0,5.0,1.0,touchpad_11s.jpg,lizard_10n.jpg,,,,,,,
,,,,,,,,,,,,96,,,,,,,,,,,0.0,0.0,0.0,0.0,1.0,newclockpresent_1_2.xlsx,newclock_compare_task_1_2.xlsx
,0.0,,0.0,0.0,0.0,0.0,1.0,juicer2_06s.jpg,0.0,Blue.png,1.0,96,,,,,,,,,,,,,,,,,
1.0,1.0,0.973,0.0,1.0,1.0,1.0,1.0,juicer2_06s.jpg,1.0,Purple.png,1.0,96,,,,,,,,,,,,,,,,,
0.0,1.0,0.972,0.0,2.0,2.0,2.0,1.0,tambourine_06s.jpg,0.0,Red.png,1.0,96,,,,,,,,,,,,,,,,,
0.0,1.0,0.774,0.0,3.0,3.0,3.0,1.0,luggage_08s.jpg,0.0,Orange.png,1.0,96,,,,,,,,,,,,,,,,,
1.0,1.0,0.793,0.0,4.0,4.0,4.0,1.0,tambourine_06s.jpg,1.0,Yellow.png,1.0,96,,,,,,,,,,,,,,,,,
0.0,1.0,1.036,0.0,5.0,5.0,5.0,1.0,towel_rack_04s.jpg,0.0,Green.png,1.0,96,,,,,,,,,,,,,,,,,
0.0,1.0,0.995,0.0,6.0,6.0,6.0,1.0,crayon_09s.jpg,0.0,Blue.png,2.0,96,,,,,,,,,,,,,,,,,
0.0,1.0,0.757,0.0,7.0,7.0,7.0,1.0,gargoyle_08s.jpg,0.0,Purple.png,2.0,96,,,,,,,,,,,,,,,,,
0.0,1.0,0.94,0.0,8.0,8.0,8.0,1.0,boar_10s.jpg,0.0,Red.png,2.0,96,,,,,,,,,,,,,,,,,
1.0,1.0,2.225,0.0,9.0,9.0,9.0,1.0,gargoyle_08s.jpg,1.0,Orange.png,2.0,96,,,,,,,,,,,,,,,,,
0.0,1.0,0.91,0.0,10.0,10.0,10.0,1.0,limousine_12s.jpg,0.0,Yellow.png,2.0,96,,,,,,,,,,,,,,,,,
0.0,1.0,0.91,0.0,11.0,11.0,11.0,1.0,outlet_10s.jpg,0.0,Green.png,2.0,96,,,,,,,,,,,,,,,,,
0.0,1.0,0.838,0.0,12.0,12.0,12.0,1.0,comic_book_02s.jpg,0.0,Blue.png,3.0,96,,,,,,,,,,,,,,,,,
0.0,1.0,1.322,0.0,13.0,13.0,13.0,1.0,mask_09s.jpg,0.0,Purple.png,3.0,96,,,,,,,,,,,,,,,,,
0.0,1.0,0.98,0.0,14.0,14.0,14.0,1.0,lasagna_06s.jpg,0.0,Red.png,3.0,96,,,,,,,,,,,,,,,,,
0.0,1.0,2.385,0.0,15.0,15.0,15.0,1.0,diving_board_07s.jpg,0.0,Orange.png,3.0,96,,,,,,,,,,,,,,,,,
0.0,1.0,0.739,0.0,16.0,16.0,16.0,1.0,lion_18s.jpg,0.0,Yellow.png,3.0,96,,,,,,,,,,,,,,,,,
1.0,1.0,0.809,0.0,17.0,17.0,17.0,1.0,diving_board_07s.jpg,1.0,Green.png,3.0,96,,,,,,,,,,,,,,,,,
1.0,0.0,0.86,0.0,18.0,18.0,18.0,1.0,lion_18s.jpg,0.0,Blue.png,4.0,96,,,,,,,,,,,,,,,,,
0.0,1.0,0.98,0.0,19.0,19.0,19.0,1.0,medal_04s.jpg,0.0,Purple.png,4.0,96,,,,,,,,,,,,,,,,,
0.0,1.0,1.029,0.0,20.0,20.0,20.0,1.0,incense_02s.jpg,0.0,Red.png,4.0,96,,,,,,,,,,,,,,,,,
0.0,1.0,0.639,0.0,21.0,21.0,21.0,1.0,tape_06s.jpg,0.0,Orange.png,4.0,96,,,,,,,,,,,,,,,,,
1.0,1.0,0.895,0.0,22.0,22.0,22.0,1.0,medal_04s.jpg,1.0,Yellow.png,4.0,96,,,,,,,,,,,,,,,,,
0.0,1.0,0.912,0.0,23.0,23.0,23.0,1.0,buoy_04s.jpg,0.0,Green.png,4.0,96,,,,,,,,,,,,,,,,,
1.0,0.0,1.195,0.0,24.0,24.0,24.0,1.0,limousine_12s.jpg,0.0,Blue.png,5.0,96,,,,,,,,,,,,,,,,,
0.0,1.0,0.93,0.0,25.0,25.0,25.0,1.0,jewel_01b.jpg,0.0,Purple.png,5.0,96,,,,,,,,,,,,,,,,,
1.0,0.0,1.144,0.0,26.0,26.0,26.0,1.0,parachute_03s.jpg,0.0,Red.png,5.0,96,,,,,,,,,,,,,,,,,
0.0,1.0,2.013,0.0,27.0,27.0,27.0,1.0,mannequin_05s.jpg,0.0,Orange.png,5.0,96,,,,,,,,,,,,,,,,,
0.0,1.0,1.39,0.0,28.0,28.0,28.0,1.0,snowman_02s.jpg,0.0,Yellow.png,5.0,96,,,,,,,,,,,,,,,,,
0.0,1.0,1.341,0.0,29.0,29.0,29.0,1.0,fossil_06s.jpg,0.0,Green.png,5.0,96,,,,,,,,,,,,,,,,,
0.0,1.0,0.723,0.0,30.0,30.0,30.0,1.0,perfume_06s.jpg,0.0,Blue.png,6.0,96,,,,,,,,,,,,,,,,,
1.0,0.0,0.842,0.0,31.0,31.0,31.0,1.0,fossil_06s.jpg,0.0,Purple.png,6.0,96,,,,,,,,,,,,,,,,,
0.0,1.0,1.062,0.0,32.0,32.0,32.0,1.0,pancake_12s.jpg,0.0,Red.png,6.0,96,,,,,,,,,,,,,,,,,
0.0,1.0,0.946,0.0,33.0,33.0,33.0,1.0,tie_03s.jpg,0.0,Orange.png,6.0,96,,,,,,,,,,,,,,,,,
0.0,0.0,1.357,0.0,34.0,34.0,34.0,1.0,pancake_12s.jpg,1.0,Yellow.png,6.0,96,,,,,,,,,,,,,,,,,
0.0,1.0,0.791,0.0,35.0,35.0,35.0,1.0,padlock_07s.jpg,0.0,Green.png,6.0,96,,,,,,,,,,,,,,,,,
,,,,,,,,,0.0,,,96,0.0,1.0,5.551,0.0,0.0,0.0,0.0,1.0,crayon_09s.jpg,luggage_08s.jpg,,,,,,,
,,,,,,,,,1.0,,,96,1.0,1.0,2.521,0.0,1.0,1.0,1.0,1.0,towel_rack_04s.jpg,boar_10s.jpg,,,,,,,
,,,,,,,,,0.0,,,96,0.0,1.0,2.337,0.0,2.0,2.0,2.0,1.0,lasagna_06s.jpg,outlet_10s.jpg,,,,,,,
,,,,,,,,,1.0,,,96,1.0,1.0,1.383,0.0,3.0,3.0,3.0,1.0,jewel_01b.jpg,snowman_02s.jpg,,,,,,,
,,,,,,,,,0.0,,,96,1.0,0.0,1.513,0.0,4.0,4.0,4.0,1.0,buoy_04s.jpg,incense_02s.jpg,,,,,,,
,,,,,,,,,0.0,,,96,0.0,1.0,2.866,0.0,5.0,5.0,5.0,1.0,tie_03s.jpg,perfume_06s.jpg,,,,,,,
,,,,,,,,,,,,96,,,,,,,,,,,0.0,1.0,1.0,1.0,1.0,newclockpresent_2_2.xlsx,newclock_compare_task_2_2.xlsx
0.0,1.0,1.829,0.0,0.0,0.0,0.0,1.0,surfboard_11s.jpg,0.0,Blue.png,1.0,96,,,,,,,,,,,,,,,,,
1.0,1.0,1.106,0.0,1.0,1.0,1.0,1.0,surfboard_11s.jpg,1.0,Purple.png,1.0,96,,,,,,,,,,,,,,,,,
1.0,1.0,0.71,0.0,2.0,2.0,2.0,1.0,surfboard_11s.jpg,1.0,Red.png,1.0,96,,,,,,,,,,,,,,,,,
0.0,1.0,0.724,0.0,3.0,3.0,3.0,1.0,badge_03s.jpg,0.0,Orange.png,1.0,96,,,,,,,,,,,,,,,,,
1.0,1.0,0.71,0.0,4.0,4.0,4.0,1.0,surfboard_11s.jpg,1.0,Yellow.png,1.0,96,,,,,,,,,,,,,,,,,
1.0,1.0,0.563,0.0,5.0,5.0,5.0,1.0,surfboard_11s.jpg,1.0,Green.png,1.0,96,,,,,,,,,,,,,,,,,
1.0,0.0,0.541,0.0,6.0,6.0,6.0,1.0,surfboard_11s.jpg,0.0,Blue.png,2.0,96,,,,,,,,,,,,,,,,,
0.0,1.0,0.623,0.0,7.0,7.0,7.0,1.0,playpen_11s.jpg,0.0,Purple.png,2.0,96,,,,,,,,,,,,,,,,,
1.0,1.0,0.594,0.0,8.0,8.0,8.0,1.0,surfboard_11s.jpg,1.0,Red.png,2.0,96,,,,,,,,,,,,,,,,,
0.0,1.0,0.71,0.0,9.0,9.0,9.0,1.0,popcorn_09s.jpg,0.0,Orange.png,2.0,96,,,,,,,,,,,,,,,,,
1.0,1.0,0.615,0.0,10.0,10.0,10.0,1.0,surfboard_11s.jpg,1.0,Yellow.png,2.0,96,,,,,,,,,,,,,,,,,
0.0,0.0,0.689,0.0,11.0,11.0,11.0,1.0,popcorn_09s.jpg,1.0,Green.png,2.0,96,,,,,,,,,,,,,,,,,
0.0,1.0,0.856,0.0,12.0,12.0,12.0,1.0,lollipop_08s.jpg,0.0,Blue.png,3.0,96,,,,,,,,,,,,,,,,,
1.0,0.0,0.729,0.0,13.0,13.0,13.0,1.0,popcorn_09s.jpg,0.0,Purple.png,3.0,96,,,,,,,,,,,,,,,,,
0.0,1.0,0.831,0.0,14.0,14.0,14.0,1.0,fire_pit_10s.jpg,0.0,Red.png,3.0,96,,,,,,,,,,,,,,,,,
0.0,1.0,0.689,0.0,15.0,15.0,15.0,1.0,joystick_01b.jpg,0.0,Orange.png,3.0,96,,,,,,,,,,,,,,,,,
0.0,1.0,0.897,0.0,16.0,16.0,16.0,1.0,panda_02s.jpg,0.0,Yellow.png,3.0,96,,,,,,,,,,,,,,,,,
0.0,1.0,0.857,0.0,17.0,17.0,17.0,1.0,sundae_08s.jpg,0.0,Green.png,3.0,96,,,,,,,,,,,,,,,,,
0.0,1.0,0.732,0.0,18.0,18.0,18.0,1.0,boomerang_06s.jpg,0.0,Blue.png,4.0,96,,,,,,,,,,,,,,,,,
0.0,1.0,0.639,0.0,19.0,19.0,19.0,1.0,bagel_15s.jpg,0.0,Purple.png,4.0,96,,,,,,,,,,,,,,,,,
0.0,1.0,0.822,0.0,20.0,20.0,20.0,1.0,powder_07s.jpg,0.0,Red.png,4.0,96,,,,,,,,,,,,,,,,,
0.0,1.0,0.689,0.0,21.0,21.0,21.0,1.0,lipstick_02s.jpg,0.0,Orange.png,4.0,96,,,,,,,,,,,,,,,,,
0.0,0.0,0.632,0.0,22.0,22.0,22.0,1.0,bagel_15s.jpg,1.0,Yellow.png,4.0,96,,,,,,,,,,,,,,,,,
0.0,1.0,0.661,0.0,23.0,23.0,23.0,1.0,ladle_04s.jpg,0.0,Green.png,4.0,96,,,,,,,,,,,,,,,,,
0.0,1.0,0.656,0.0,24.0,24.0,24.0,1.0,megaphone_03s.jpg,0.0,Blue.png,5.0,96,,,,,,,,,,,,,,,,,
0.0,1.0,0.875,0.0,25.0,25.0,25.0,1.0,puck_06s.jpg,0.0,Purple.png,5.0,96,,,,,,,,,,,,,,,,,
0.0,1.0,0.658,0.0,26.0,26.0,26.0,1.0,cardinal_07s.jpg,0.0,Red.png,5.0,96,,,,,,,,,,,,,,,,,
1.0,1.0,1.494,0.0,27.0,27.0,27.0,1.0,puck_06s.jpg,1.0,Orange.png,5.0,96,,,,,,,,,,,,,,,,,
0.0,1.0,0.646,0.0,28.0,28.0,28.0,1.0,bee_20s.jpg,0.0,Yellow.png,5.0,96,,,,,,,,,,,,,,,,,
0.0,1.0,0.691,0.0,29.0,29.0,29.0,1.0,toilet_paper_12s.jpg,0.0,Green.png,5.0,96,,,,,,,,,,,,,,,,,
0.0,1.0,0.674,0.0,30.0,30.0,30.0,1.0,mud_13s.jpg,0.0,Blue.png,6.0,96,,,,,,,,,,,,,,,,,
0.0,1.0,0.757,0.0,31.0,31.0,31.0,1.0,measuring_cup_02s.jpg,0.0,Purple.png,6.0,96,,,,,,,,,,,,,,,,,
0.0,1.0,0.659,0.0,32.0,32.0,32.0,1.0,ostrich_06s.jpg,0.0,Red.png,6.0,96,,,,,,,,,,,,,,,,,
0.0,1.0,0.661,0.0,33.0,33.0,33.0,1.0,raspberry_12s.jpg,0.0,Orange.png,6.0,96,,,,,,,,,,,,,,,,,
1.0,1.0,0.899,0.0,34.0,34.0,34.0,1.0,mud_13s.jpg,1.0,Yellow.png,6.0,96,,,,,,,,,,,,,,,,,
0.0,1.0,0.657,0.0,35.0,35.0,35.0,1.0,radiator_05s.jpg,0.0,Green.png,6.0,96,,,,,,,,,,,,,,,,,
,,,,,,,,,0.0,,,96,0.0,1.0,2.314,0.0,0.0,0.0,0.0,1.0,measuring_cup_02s.jpg,bee_20s.jpg,,,,,,,
,,,,,,,,,1.0,,,96,0.0,0.0,3.552,0.0,1.0,1.0,1.0,1.0,lipstick_02s.jpg,megaphone_03s.jpg,,,,,,,
,,,,,,,,,0.0,,,96,0.0,1.0,2.685,0.0,2.0,2.0,2.0,1.0,boomerang_06s.jpg,joystick_01b.jpg,,,,,,,
,,,,,,,,,0.0,,,96,1.0,0.0,2.313,0.0,3.0,3.0,3.0,1.0,sundae_08s.jpg,fire_pit_10s.jpg,,,,,,,
,,,,,,,,,0.0,,,96,1.0,0.0,2.42,0.0,4.0,4.0,4.0,1.0,radiator_05s.jpg,ostrich_06s.jpg,,,,,,,
,,,,,,,,,0.0,,,96,0.0,1.0,1.899,0.0,5.0,5.0,5.0,1.0,ladle_04s.jpg,powder_07s.jpg,,,,,,,
,,,,,,,,,,,,96,,,,,,,,,,,0.0,2.0,2.0,2.0,1.0,newclockpresent_3_2.xlsx,newclock_compare_task_3_2.xlsx
0.0,1.0,1.366,0.0,0.0,0.0,0.0,1.0,glasses01a.jpg,0.0,Blue.png,1.0,96,,,,,,,,,,,,,,,,,
0.0,1.0,0.723,0.0,1.0,1.0,1.0,1.0,piano_13n.jpg,0.0,Purple.png,1.0,96,,,,,,,,,,,,,,,,,
0.0,1.0,0.79,0.0,2.0,2.0,2.0,1.0,candy_cane_06s.jpg,0.0,Red.png,1.0,96,,,,,,,,,,,,,,,,,
0.0,1.0,1.407,0.0,3.0,3.0,3.0,1.0,cushion_08s.jpg,0.0,Orange.png,1.0,96,,,,,,,,,,,,,,,,,
1.0,1.0,0.747,0.0,4.0,4.0,4.0,1.0,candy_cane_06s.jpg,1.0,Yellow.png,1.0,96,,,,,,,,,,,,,,,,,
,0.0,,0.0,5.0,5.0,5.0,1.0,candy_cane_06s.jpg,1.0,Green.png,1.0,96,,,,,,,,,,,,,,,,,
0.0,1.0,0.676,0.0,6.0,6.0,6.0,1.0,rosary_03s.jpg,0.0,Blue.png,2.0,96,,,,,,,,,,,,,,,,,
1.0,1.0,0.859,0.0,7.0,7.0,7.0,1.0,rosary_03s.jpg,1.0,Purple.png,2.0,96,,,,,,,,,,,,,,,,,
1.0,1.0,0.723,0.0,8.0,8.0,8.0,1.0,rosary_03s.jpg,1.0,Red.png,2.0,96,,,,,,,,,,,,,,,,,
1.0,1.0,0.707,0.0,9.0,9.0,9.0,1.0,rosary_03s.jpg,1.0,Orange.png,2.0,96,,,,,,,,,,,,,,,,,
0.0,1.0,0.873,0.0,10.0,10.0,10.0,1.0,kangaroo_02s.jpg,0.0,Yellow.png,2.0,96,,,,,,,,,,,,,,,,,
1.0,1.0,1.798,0.0,11.0,11.0,11.0,1.0,kangaroo_02s.jpg,1.0,Green.png,2.0,96,,,,,,,,,,,,,,,,,
1.0,0.0,0.775,0.0,12.0,12.0,12.0,1.0,kangaroo_02s.jpg,0.0,Blue.png,3.0,96,,,,,,,,,,,,,,,,,
1.0,1.0,1.393,0.0,13.0,13.0,13.0,1.0,kangaroo_02s.jpg,1.0,Purple.png,3.0,96,,,,,,,,,,,,,,,,,
0.0,1.0,0.64,0.0,14.0,14.0,14.0,1.0,ironing_board_07s.jpg,0.0,Red.png,3.0,96,,,,,,,,,,,,,,,,,
1.0,1.0,0.591,0.0,15.0,15.0,15.0,1.0,kangaroo_02s.jpg,1.0,Orange.png,3.0,96,,,,,,,,,,,,,,,,,
0.0,1.0,0.611,0.0,16.0,16.0,16.0,1.0,punch2_09s.jpg,0.0,Yellow.png,3.0,96,,,,,,,,,,,,,,,,,
1.0,1.0,0.775,0.0,17.0,17.0,17.0,1.0,ironing_board_07s.jpg,1.0,Green.png,3.0,96,,,,,,,,,,,,,,,,,
0.0,1.0,0.635,0.0,18.0,18.0,18.0,1.0,owl_15s.jpg,0.0,Blue.png,4.0,96,,,,,,,,,,,,,,,,,
0.0,1.0,0.699,0.0,19.0,19.0,19.0,1.0,teabag_12s.jpg,0.0,Purple.png,4.0,96,,,,,,,,,,,,,,,,,
1.0,1.0,0.805,0.0,20.0,20.0,20.0,1.0,owl_15s.jpg,1.0,Red.png,4.0,96,,,,,,,,,,,,,,,,,
0.0,1.0,1.072,0.0,21.0,21.0,21.0,1.0,otter_05s.jpg,0.0,Orange.png,4.0,96,,,,,,,,,,,,,,,,,
1.0,1.0,0.708,0.0,22.0,22.0,22.0,1.0,owl_15s.jpg,1.0,Yellow.png,4.0,96,,,,,,,,,,,,,,,,,
0.0,1.0,0.662,0.0,23.0,23.0,23.0,1.0,mold2_04s.jpg,0.0,Green.png,4.0,96,,,,,,,,,,,,,,,,,
0.0,1.0,0.894,0.0,24.0,24.0,24.0,1.0,mattress_01s.jpg,0.0,Blue.png,5.0,96,,,,,,,,,,,,,,,,,
0.0,1.0,0.972,0.0,25.0,25.0,25.0,1.0,police_car_01s.jpg,0.0,Purple.png,5.0,96,,,,,,,,,,,,,,,,,
0.0,1.0,0.974,0.0,26.0,26.0,26.0,1.0,stethoscope_01b.jpg,0.0,Red.png,5.0,96,,,,,,,,,,,,,,,,,
1.0,1.0,1.222,0.0,27.0,27.0,27.0,1.0,police_car_01s.jpg,1.0,Orange.png,5.0,96,,,,,,,,,,,,,,,,,
0.0,1.0,0.724,0.0,28.0,28.0,28.0,1.0,sparkler_02s.jpg,0.0,Yellow.png,5.0,96,,,,,,,,,,,,,,,,,
0.0,1.0,0.647,0.0,29.0,29.0,29.0,1.0,pacifier_09s.jpg,0.0,Green.png,5.0,96,,,,,,,,,,,,,,,,,
0.0,1.0,0.785,0.0,30.0,30.0,30.0,1.0,machine_gun_09s.jpg,0.0,Blue.png,6.0,96,,,,,,,,,,,,,,,,,
0.0,1.0,1.223,0.0,31.0,31.0,31.0,1.0,ram_05s.jpg,0.0,Purple.png,6.0,96,,,,,,,,,,,,,,,,,
0.0,1.0,1.179,0.0,32.0,32.0,32.0,1.0,keyboard_05s.jpg,0.0,Red.png,6.0,96,,,,,,,,,,,,,,,,,
0.0,1.0,0.709,0.0,33.0,33.0,33.0,1.0,leash_10s.jpg,0.0,Orange.png,6.0,96,,,,,,,,,,,,,,,,,
0.0,1.0,0.7,0.0,34.0,34.0,34.0,1.0,pan_02s.jpg,0.0,Yellow.png,6.0,96,,,,,,,,,,,,,,,,,
0.0,1.0,0.677,0.0,35.0,35.0,35.0,1.0,mixer_12s.jpg,0.0,Green.png,6.0,96,,,,,,,,,,,,,,,,,
,,,,,,,,,0.0,,,96,0.0,1.0,1.84,0.0,0.0,0.0,0.0,1.0,teabag_12s.jpg,punch2_09s.jpg,,,,,,,
,,,,,,,,,0.0,,,96,0.0,1.0,1.953,0.0,1.0,1.0,1.0,1.0,mattress_01s.jpg,otter_05s.jpg,,,,,,,
,,,,,,,,,0.0,,,96,1.0,0.0,1.346,0.0,2.0,2.0,2.0,1.0,stethoscope_01b.jpg,mold2_04s.jpg,,,,,,,
,,,,,,,,,1.0,,,96,1.0,1.0,1.013,0.0,3.0,3.0,3.0,1.0,glasses01a.jpg,cushion_08s.jpg,,,,,,,
,,,,,,,,,1.0,,,96,1.0,1.0,1.413,0.0,4.0,4.0,4.0,1.0,machine_gun_09s.jpg,leash_10s.jpg,,,,,,,
,,,,,,,,,0.0,,,96,1.0,0.0,1.315,0.0,5.0,5.0,5.0,1.0,pan_02s.jpg,ram_05s.jpg,,,,,,,
,,,,,,,,,,,,96,,,,,,,,,,,0.0,3.0,3.0,3.0,1.0,newclockpresent_4_2.xlsx,newclock_compare_task_4_2.xlsx
0.0,1.0,1.428,0.0,0.0,0.0,0.0,1.0,golf_club_03s.jpg,0.0,Blue.png,1.0,96,,,,,,,,,,,,,,,,,
1.0,1.0,0.94,0.0,1.0,1.0,1.0,1.0,golf_club_03s.jpg,1.0,Purple.png,1.0,96,,,,,,,,,,,,,,,,,
1.0,1.0,0.831,0.0,2.0,2.0,2.0,1.0,golf_club_03s.jpg,1.0,Red.png,1.0,96,,,,,,,,,,,,,,,,,
0.0,1.0,1.072,0.0,3.0,3.0,3.0,1.0,turnstile_08s.jpg,0.0,Orange.png,1.0,96,,,,,,,,,,,,,,,,,
1.0,1.0,0.788,0.0,4.0,4.0,4.0,1.0,golf_club_03s.jpg,1.0,Yellow.png,1.0,96,,,,,,,,,,,,,,,,,
0.0,1.0,0.926,0.0,5.0,5.0,5.0,1.0,milk_02s.jpg,0.0,Green.png,1.0,96,,,,,,,,,,,,,,,,,
0.0,1.0,0.936,0.0,6.0,6.0,6.0,1.0,orange_12s.jpg,0.0,Blue.png,2.0,96,,,,,,,,,,,,,,,,,
1.0,0.0,0.772,0.0,7.0,7.0,7.0,1.0,milk_02s.jpg,0.0,Purple.png,2.0,96,,,,,,,,,,,,,,,,,
0.0,1.0,0.946,0.0,8.0,8.0,8.0,1.0,latch_15s.jpg,0.0,Red.png,2.0,96,,,,,,,,,,,,,,,,,
0.0,1.0,0.72,0.0,9.0,9.0,9.0,1.0,bank_06s.jpg,0.0,Orange.png,2.0,96,,,,,,,,,,,,,,,,,
1.0,1.0,0.829,0.0,10.0,10.0,10.0,1.0,milk_02s.jpg,1.0,Yellow.png,2.0,96,,,,,,,,,,,,,,,,,
0.0,1.0,0.692,0.0,11.0,11.0,11.0,1.0,crab_16s.jpg,0.0,Green.png,2.0,96,,,,,,,,,,,,,,,,,
0.0,1.0,0.904,0.0,12.0,12.0,12.0,1.0,birdcage_08s.jpg,0.0,Blue.png,3.0,96,,,,,,,,,,,,,,,,,
0.0,1.0,1.157,0.0,13.0,13.0,13.0,1.0,spider_web_03s.jpg,0.0,Purple.png,3.0,96,,,,,,,,,,,,,,,,,
0.0,1.0,0.902,0.0,14.0,14.0,14.0,1.0,knitting_needle_04s.jpg,0.0,Red.png,3.0,96,,,,,,,,,,,,,,,,,
0.0,1.0,1.211,0.0,15.0,15.0,15.0,1.0,sugar_cube_11s.jpg,0.0,Orange.png,3.0,96,,,,,,,,,,,,,,,,,
0.0,1.0,0.975,0.0,16.0,16.0,16.0,1.0,light_switch_02s.jpg,0.0,Yellow.png,3.0,96,,,,,,,,,,,,,,,,,
0.0,1.0,0.939,0.0,17.0,17.0,17.0,1.0,gear_07s.jpg,0.0,Green.png,3.0,96,,,,,,,,,,,,,,,,,
0.0,1.0,0.953,0.0,18.0,18.0,18.0,1.0,tongs_08s.jpg,0.0,Blue.png,4.0,96,,,,,,,,,,,,,,,,,
0.0,1.0,0.72,0.0,19.0,19.0,19.0,1.0,recliner_02s.jpg,0.0,Purple.png,4.0,96,,,,,,,,,,,,,,,,,
0.0,1.0,0.835,0.0,20.0,20.0,20.0,1.0,orangutan_03s.jpg,0.0,Red.png,4.0,96,,,,,,,,,,,,,,,,,
1.0,0.0,0.838,0.0,21.0,21.0,21.0,1.0,golf_club_03s.jpg,0.0,Orange.png,4.0,96,,,,,,,,,,,,,,,,,
0.0,1.0,0.689,0.0,22.0,22.0,22.0,1.0,lava_02s.jpg,0.0,Yellow.png,4.0,96,,,,,,,,,,,,,,,,,
0.0,1.0,0.736,0.0,23.0,23.0,23.0,1.0,toilet_07s.jpg,0.0,Green.png,4.0,96,,,,,,,,,,,,,,,,,
0.0,1.0,0.855,0.0,24.0,24.0,24.0,1.0,turnstile_08s.jpg,0.0,Blue.png,5.0,96,,,,,,,,,,,,,,,,,
1.0,1.0,1.521,0.0,25.0,25.0,25.0,1.0,turnstile_08s.jpg,1.0,Purple.png,5.0,96,,,,,,,,,,,,,,,,,
0.0,1.0,0.775,0.0,26.0,26.0,26.0,1.0,teacup_07s.jpg,0.0,Red.png,5.0,96,,,,,,,,,,,,,,,,,
1.0,1.0,0.752,0.0,27.0,27.0,27.0,1.0,turnstile_08s.jpg,1.0,Orange.png,5.0,96,,,,,,,,,,,,,,,,,
1.0,1.0,0.638,0.0,28.0,28.0,28.0,1.0,turnstile_08s.jpg,1.0,Yellow.png,5.0,96,,,,,,,,,,,,,,,,,
0.0,1.0,0.772,0.0,29.0,29.0,29.0,1.0,antenna_01b.jpg,0.0,Green.png,5.0,96,,,,,,,,,,,,,,,,,
0.0,1.0,0.892,0.0,30.0,30.0,30.0,1.0,keyhole_03s.jpg,0.0,Blue.png,6.0,96,,,,,,,,,,,,,,,,,
0.0,1.0,1.184,0.0,31.0,31.0,31.0,1.0,air_pump_05s.jpg,0.0,Purple.png,6.0,96,,,,,,,,,,,,,,,,,
0.0,1.0,0.804,0.0,32.0,32.0,32.0,1.0,eggshell_14s.jpg,0.0,Red.png,6.0,96,,,,,,,,,,,,,,,,,
0.0,1.0,0.772,0.0,33.0,33.0,33.0,1.0,eyedropper_12s.jpg,0.0,Orange.png,6.0,96,,,,,,,,,,,,,,,,,
0.0,1.0,0.727,0.0,34.0,34.0,34.0,1.0,machete_06s.jpg,0.0,Yellow.png,6.0,96,,,,,,,,,,,,,,,,,
1.0,1.0,0.788,0.0,35.0,35.0,35.0,1.0,eyedropper_12s.jpg,1.0,Green.png,6.0,96,,,,,,,,,,,,,,,,,
,,,,,,,,,1.0,,,96,1.0,1.0,2.842,0.0,0.0,0.0,0.0,1.0,sugar_cube_11s.jpg,tongs_08s.jpg,,,,,,,
,,,,,,,,,1.0,,,96,0.0,0.0,4.165,0.0,1.0,1.0,1.0,1.0,antenna_01b.jpg,eggshell_14s.jpg,,,,,,,
,,,,,,,,,1.0,,,96,1.0,1.0,1.596,0.0,2.0,2.0,2.0,1.0,bank_06s.jpg,birdcage_08s.jpg,,,,,,,
,,,,,,,,,1.0,,,96,0.0,0.0,1.879,0.0,3.0,3.0,3.0,1.0,air_pump_05s.jpg,machete_06s.jpg,,,,,,,
,,,,,,,,,1.0,,,96,0.0,0.0,1.599,0.0,4.0,4.0,4.0,1.0,latch_15s.jpg,crab_16s.jpg,,,,,,,
,,,,,,,,,1.0,,,96,0.0,0.0,1.478,0.0,5.0,5.0,5.0,1.0,spider_web_03s.jpg,light_switch_02s.jpg,,,,,,,
,,,,,,,,,,,,96,,,,,,,,,,,0.0,4.0,4.0,4.0,1.0,newclockpresent_5_2.xlsx,newclock_compare_task_5_2.xlsx
0.0,1.0,1.292,0.0,0.0,0.0,0.0,1.0,gazelle_10s.jpg,0.0,Blue.png,1.0,96,,,,,,,,,,,,,,,,,
0.0,1.0,0.622,0.0,1.0,1.0,1.0,1.0,saddle_06s.jpg,0.0,Purple.png,1.0,96,,,,,,,,,,,,,,,,,
1.0,1.0,1.214,0.0,2.0,2.0,2.0,1.0,saddle_06s.jpg,1.0,Red.png,1.0,96,,,,,,,,,,,,,,,,,
0.0,1.0,0.773,0.0,3.0,3.0,3.0,1.0,kimono_13s.jpg,0.0,Orange.png,1.0,96,,,,,,,,,,,,,,,,,
0.0,1.0,0.911,0.0,4.0,4.0,4.0,1.0,timer_03s.jpg,0.0,Yellow.png,1.0,96,,,,,,,,,,,,,,,,,
0.0,1.0,0.624,0.0,5.0,5.0,5.0,1.0,tulip_02s.jpg,0.0,Green.png,1.0,96,,,,,,,,,,,,,,,,,
0.0,1.0,1.417,0.0,6.0,6.0,6.0,1.0,prism_10s.jpg,0.0,Blue.png,2.0,96,,,,,,,,,,,,,,,,,
0.0,1.0,0.587,0.0,7.0,7.0,7.0,1.0,razor_12s.jpg,0.0,Purple.png,2.0,96,,,,,,,,,,,,,,,,,
0.0,1.0,0.54,0.0,8.0,8.0,8.0,1.0,blazer_02s.jpg,0.0,Red.png,2.0,96,,,,,,,,,,,,,,,,,
1.0,1.0,2.056,0.0,9.0,9.0,9.0,1.0,razor_12s.jpg,1.0,Orange.png,2.0,96,,,,,,,,,,,,,,,,,
0.0,1.0,0.67,0.0,10.0,10.0,10.0,1.0,lamb_chop_07s.jpg,0.0,Yellow.png,2.0,96,,,,,,,,,,,,,,,,,
1.0,1.0,1.579,0.0,11.0,11.0,11.0,1.0,razor_12s.jpg,1.0,Green.png,2.0,96,,,,,,,,,,,,,,,,,
1.0,0.0,1.24,0.0,12.0,12.0,12.0,1.0,lamb_chop_07s.jpg,0.0,Blue.png,3.0,96,,,,,,,,,,,,,,,,,
1.0,1.0,0.676,0.0,13.0,13.0,13.0,1.0,lamb_chop_07s.jpg,1.0,Purple.png,3.0,96,,,,,,,,,,,,,,,,,
0.0,1.0,2.14,0.0,14.0,14.0,14.0,1.0,timer_03s.jpg,0.0,Red.png,3.0,96,,,,,,,,,,,,,,,,,
1.0,1.0,0.698,0.0,15.0,15.0,15.0,1.0,lamb_chop_07s.jpg,1.0,Orange.png,3.0,96,,,,,,,,,,,,,,,,,
0.0,1.0,0.633,0.0,16.0,16.0,16.0,1.0,glue_01s.jpg,0.0,Yellow.png,3.0,96,,,,,,,,,,,,,,,,,
0.0,1.0,0.629,0.0,17.0,17.0,17.0,1.0,solar_panel_02s.jpg,0.0,Green.png,3.0,96,,,,,,,,,,,,,,,,,
0.0,1.0,1.142,0.0,18.0,18.0,18.0,1.0,muffin_12n.jpg,0.0,Blue.png,4.0,96,,,,,,,,,,,,,,,,,
0.0,1.0,0.969,0.0,19.0,19.0,19.0,1.0,pepper2_21s.jpg,0.0,Purple.png,4.0,96,,,,,,,,,,,,,,,,,
0.0,1.0,0.891,0.0,20.0,20.0,20.0,1.0,marker_05s.jpg,0.0,Red.png,4.0,96,,,,,,,,,,,,,,,,,
0.0,1.0,0.647,0.0,21.0,21.0,21.0,1.0,soccer_ball_12s.jpg,0.0,Orange.png,4.0,96,,,,,,,,,,,,,,,,,
0.0,1.0,0.638,0.0,22.0,22.0,22.0,1.0,amber_04s.jpg,0.0,Yellow.png,4.0,96,,,,,,,,,,,,,,,,,
0.0,1.0,0.756,0.0,23.0,23.0,23.0,1.0,stopwatch_04s.jpg,0.0,Green.png,4.0,96,,,,,,,,,,,,,,,,,
1.0,0.0,1.665,0.0,24.0,24.0,24.0,1.0,amber_04s.jpg,0.0,Blue.png,5.0,96,,,,,,,,,,,,,,,,,
0.0,1.0,1.368,0.0,25.0,25.0,25.0,1.0,racehorse_03s.jpg,0.0,Purple.png,5.0,96,,,,,,,,,,,,,,,,,
1.0,1.0,1.004,0.0,26.0,26.0,26.0,1.0,amber_04s.jpg,1.0,Red.png,5.0,96,,,,,,,,,,,,,,,,,
0.0,1.0,1.61,0.0,27.0,27.0,27.0,1.0,duck_01b.jpg,0.0,Orange.png,5.0,96,,,,,,,,,,,,,,,,,
1.0,1.0,0.791,0.0,28.0,28.0,28.0,1.0,amber_04s.jpg,1.0,Yellow.png,5.0,96,,,,,,,,,,,,,,,,,
1.0,1.0,1.043,0.0,29.0,29.0,29.0,1.0,duck_01b.jpg,1.0,Green.png,5.0,96,,,,,,,,,,,,,,,,,
1.0,0.0,0.766,0.0,30.0,30.0,30.0,1.0,duck_01b.jpg,0.0,Blue.png,6.0,96,,,,,,,,,,,,,,,,,
1.0,1.0,0.725,0.0,31.0,31.0,31.0,1.0,duck_01b.jpg,1.0,Purple.png,6.0,96,,,,,,,,,,,,,,,,,
0.0,1.0,1.446,0.0,32.0,32.0,32.0,1.0,magnet_03s.jpg,0.0,Red.png,6.0,96,,,,,,,,,,,,,,,,,
1.0,1.0,0.744,0.0,33.0,33.0,33.0,1.0,duck_01b.jpg,1.0,Orange.png,6.0,96,,,,,,,,,,,,,,,,,
0.0,1.0,1.559,0.0,34.0,34.0,34.0,1.0,swimming_pool_17s.jpg,0.0,Yellow.png,6.0,96,,,,,,,,,,,,,,,,,
0.0,1.0,1.695,0.0,35.0,35.0,35.0,1.0,roulette_wheel_04s.jpg,0.0,Green.png,6.0,96,,,,,,,,,,,,,,,,,
,,,,,,,,,0.0,,,96,1.0,0.0,2.988,0.0,0.0,0.0,0.0,1.0,blazer_02s.jpg,tulip_02s.jpg,,,,,,,
,,,,,,,,,1.0,,,96,1.0,1.0,1.487,0.0,1.0,1.0,1.0,1.0,glue_01s.jpg,pepper2_21s.jpg,,,,,,,
,,,,,,,,,1.0,,,96,1.0,1.0,1.753,0.0,2.0,2.0,2.0,1.0,kimono_13s.jpg,prism_10s.jpg,,,,,,,
,,,,,,,,,0.0,,,96,1.0,0.0,1.462,0.0,3.0,3.0,3.0,1.0,soccer_ball_12s.jpg,muffin_12n.jpg,,,,,,,
,,,,,,,,,1.0,,,96,1.0,1.0,1.396,0.0,4.0,4.0,4.0,1.0,magnet_03s.jpg,roulette_wheel_04s.jpg,,,,,,,
,,,,,,,,,0.0,,,96,0.0,1.0,1.131,0.0,5.0,5.0,5.0,1.0,stopwatch_04s.jpg,marker_05s.jpg,,,,,,,
,,,,,,,,,,,,96,,,,,,,,,,,0.0,5.0,5.0,5.0,1.0,newclockpresent_6_2.xlsx,newclock_compare_task_6_2.xlsx
,0.0,,0.0,0.0,0.0,0.0,1.0,slingshot_07s.jpg,0.0,Blue.png,1.0,96,,,,,,,,,,,,,,,,,
1.0,1.0,0.64,0.0,1.0,1.0,1.0,1.0,slingshot_07s.jpg,1.0,Purple.png,1.0,96,,,,,,,,,,,,,,,,,
0.0,1.0,0.674,0.0,2.0,2.0,2.0,1.0,aluminum_foil_08s.jpg,0.0,Red.png,1.0,96,,,,,,,,,,,,,,,,,
0.0,1.0,0.906,0.0,3.0,3.0,3.0,1.0,ink_08s.jpg,0.0,Orange.png,1.0,96,,,,,,,,,,,,,,,,,
1.0,1.0,0.96,0.0,4.0,4.0,4.0,1.0,aluminum_foil_08s.jpg,1.0,Yellow.png,1.0,96,,,,,,,,,,,,,,,,,
1.0,1.0,0.807,0.0,5.0,5.0,5.0,1.0,slingshot_07s.jpg,1.0,Green.png,1.0,96,,,,,,,,,,,,,,,,,
1.0,0.0,0.763,0.0,6.0,6.0,6.0,1.0,aluminum_foil_08s.jpg,0.0,Blue.png,2.0,96,,,,,,,,,,,,,,,,,
1.0,1.0,0.591,0.0,7.0,7.0,7.0,1.0,aluminum_foil_08s.jpg,1.0,Purple.png,2.0,96,,,,,,,,,,,,,,,,,
0.0,1.0,1.485,0.0,8.0,8.0,8.0,1.0,ice-cream_cone_06s.jpg,0.0,Red.png,2.0,96,,,,,,,,,,,,,,,,,
0.0,1.0,0.797,0.0,9.0,9.0,9.0,1.0,ink_08s.jpg,0.0,Orange.png,2.0,96,,,,,,,,,,,,,,,,,
0.0,1.0,0.694,0.0,10.0,10.0,10.0,1.0,emerald_02s.jpg,0.0,Yellow.png,2.0,96,,,,,,,,,,,,,,,,,
0.0,1.0,0.903,0.0,11.0,11.0,11.0,1.0,bathtub_23s.jpg,0.0,Green.png,2.0,96,,,,,,,,,,,,,,,,,
0.0,1.0,0.674,0.0,12.0,12.0,12.0,1.0,bubble_01b.jpg,0.0,Blue.png,3.0,96,,,,,,,,,,,,,,,,,
0.0,1.0,0.597,0.0,13.0,13.0,13.0,1.0,mirror_12s.jpg,0.0,Purple.png,3.0,96,,,,,,,,,,,,,,,,,
0.0,1.0,0.77,0.0,14.0,14.0,14.0,1.0,swing_set_15s.jpg,0.0,Red.png,3.0,96,,,,,,,,,,,,,,,,,
0.0,1.0,0.843,0.0,15.0,15.0,15.0,1.0,pinwheel_06s.jpg,0.0,Orange.png,3.0,96,,,,,,,,,,,,,,,,,
0.0,0.0,1.033,0.0,16.0,16.0,16.0,1.0,swing_set_15s.jpg,1.0,Yellow.png,3.0,96,,,,,,,,,,,,,,,,,
0.0,0.0,1.054,0.0,17.0,17.0,17.0,1.0,pinwheel_06s.jpg,1.0,Green.png,3.0,96,,,,,,,,,,,,,,,,,
1.0,0.0,1.575,0.0,18.0,18.0,18.0,1.0,ink_08s.jpg,0.0,Blue.png,4.0,96,,,,,,,,,,,,,,,,,
0.0,1.0,1.656,0.0,19.0,19.0,19.0,1.0,plunger_08s.jpg,0.0,Purple.png,4.0,96,,,,,,,,,,,,,,,,,
1.0,1.0,1.475,0.0,20.0,20.0,20.0,1.0,ink_08s.jpg,1.0,Red.png,4.0,96,,,,,,,,,,,,,,,,,
1.0,1.0,0.643,0.0,21.0,21.0,21.0,1.0,ink_08s.jpg,1.0,Orange.png,4.0,96,,,,,,,,,,,,,,,,,
0.0,1.0,1.757,0.0,22.0,22.0,22.0,1.0,metronome_03s.jpg,0.0,Yellow.png,4.0,96,,,,,,,,,,,,,,,,,
,0.0,,0.0,23.0,23.0,23.0,1.0,puppy_08s.jpg,0.0,Green.png,4.0,96,,,,,,,,,,,,,,,,,
0.0,1.0,1.524,0.0,24.0,24.0,24.0,1.0,treasure_08s.jpg,0.0,Blue.png,5.0,96,,,,,,,,,,,,,,,,,
0.0,1.0,1.748,0.0,25.0,25.0,25.0,1.0,penguin_16s.jpg,0.0,Purple.png,5.0,96,,,,,,,,,,,,,,,,,
,0.0,,0.0,26.0,26.0,26.0,1.0,bacon_05s.jpg,0.0,Red.png,5.0,96,,,,,,,,,,,,,,,,,
0.0,1.0,2.358,0.0,27.0,27.0,27.0,1.0,giraffe_11s.jpg,0.0,Orange.png,5.0,96,,,,,,,,,,,,,,,,,
0.0,1.0,0.726,0.0,28.0,28.0,28.0,1.0,rug_09s.jpg,0.0,Yellow.png,5.0,96,,,,,,,,,,,,,,,,,
0.0,1.0,0.877,0.0,29.0,29.0,29.0,1.0,lamp_08s.jpg,0.0,Green.png,5.0,96,,,,,,,,,,,,,,,,,
0.0,1.0,1.205,0.0,30.0,30.0,30.0,1.0,metronome_03s.jpg,0.0,Blue.png,6.0,96,,,,,,,,,,,,,,,,,
1.0,1.0,0.709,0.0,31.0,31.0,31.0,1.0,metronome_03s.jpg,1.0,Purple.png,6.0,96,,,,,,,,,,,,,,,,,
0.0,1.0,1.496,0.0,32.0,32.0,32.0,1.0,lip_gloss_06s.jpg,0.0,Red.png,6.0,96,,,,,,,,,,,,,,,,,
1.0,1.0,0.787,0.0,33.0,33.0,33.0,1.0,metronome_03s.jpg,1.0,Orange.png,6.0,96,,,,,,,,,,,,,,,,,
0.0,1.0,0.923,0.0,34.0,34.0,34.0,1.0,laser_pointer_02s.jpg,0.0,Yellow.png,6.0,96,,,,,,,,,,,,,,,,,
1.0,1.0,0.682,0.0,35.0,35.0,35.0,1.0,metronome_03s.jpg,1.0,Green.png,6.0,96,,,,,,,,,,,,,,,,,
,,,,,,,,,1.0,,,96,1.0,1.0,1.228,0.0,0.0,0.0,0.0,1.0,emerald_02s.jpg,mirror_12s.jpg,,,,,,,
,,,,,,,,,1.0,,,96,1.0,1.0,1.529,0.0,1.0,1.0,1.0,1.0,puppy_08s.jpg,bacon_05s.jpg,,,,,,,
,,,,,,,,,0.0,,,96,0.0,1.0,2.033,0.0,2.0,2.0,2.0,1.0,lip_gloss_06s.jpg,lamp_08s.jpg,,,,,,,
,,,,,,,,,0.0,,,96,0.0,1.0,1.416,0.0,3.0,3.0,3.0,1.0,bathtub_23s.jpg,ice-cream_cone_06s.jpg,,,,,,,
,,,,,,,,,0.0,,,96,1.0,0.0,1.285,0.0,4.0,4.0,4.0,1.0,giraffe_11s.jpg,treasure_08s.jpg,,,,,,,
,,,,,,,,,0.0,,,96,1.0,0.0,1.734,0.0,5.0,5.0,5.0,1.0,rug_09s.jpg,penguin_16s.jpg,,,,,,,
,,,,,,,,,,,,96,,,,,,,,,,,0.0,6.0,6.0,6.0,1.0,newclockpresent_7_2.xlsx,newclock_compare_task_7_2.xlsx
0.0,1.0,0.809,0.0,0.0,0.0,0.0,1.0,ant_12s.jpg,0.0,Blue.png,1.0,96,,,,,,,,,,,,,,,,,
1.0,1.0,0.609,0.0,1.0,1.0,1.0,1.0,ant_12s.jpg,1.0,Purple.png,1.0,96,,,,,,,,,,,,,,,,,
0.0,1.0,0.776,0.0,2.0,2.0,2.0,1.0,ticktacktoe_08s.jpg,0.0,Red.png,1.0,96,,,,,,,,,,,,,,,,,
0.0,1.0,0.898,0.0,3.0,3.0,3.0,1.0,frog_09s.jpg,0.0,Orange.png,1.0,96,,,,,,,,,,,,,,,,,
1.0,1.0,1.64,0.0,4.0,4.0,4.0,1.0,ticktacktoe_08s.jpg,1.0,Yellow.png,1.0,96,,,,,,,,,,,,,,,,,
0.0,1.0,0.763,0.0,5.0,5.0,5.0,1.0,feather02.jpg,0.0,Green.png,1.0,96,,,,,,,,,,,,,,,,,
0.0,1.0,0.974,0.0,6.0,6.0,6.0,1.0,gas_mask_11s.jpg,0.0,Blue.png,2.0,96,,,,,,,,,,,,,,,,,
1.0,1.0,1.341,0.0,7.0,7.0,7.0,1.0,gas_mask_11s.jpg,1.0,Purple.png,2.0,96,,,,,,,,,,,,,,,,,
,0.0,,0.0,8.0,8.0,8.0,1.0,mop_08s.jpg,0.0,Red.png,2.0,96,,,,,,,,,,,,,,,,,
1.0,1.0,1.293,0.0,9.0,9.0,9.0,1.0,gas_mask_11s.jpg,1.0,Orange.png,2.0,96,,,,,,,,,,,,,,,,,
0.0,1.0,1.382,0.0,10.0,10.0,10.0,1.0,pea_11s.jpg,0.0,Yellow.png,2.0,96,,,,,,,,,,,,,,,,,
0.0,1.0,0.956,0.0,11.0,11.0,11.0,1.0,bowler_hat_10s.jpg,0.0,Green.png,2.0,96,,,,,,,,,,,,,,,,,
0.0,1.0,0.773,0.0,12.0,12.0,12.0,1.0,pencil_sharpener_09n.jpg,0.0,Blue.png,3.0,96,,,,,,,,,,,,,,,,,
0.0,1.0,0.957,0.0,13.0,13.0,13.0,1.0,rice_12s.jpg,0.0,Purple.png,3.0,96,,,,,,,,,,,,,,,,,
0.0,1.0,1.008,0.0,14.0,14.0,14.0,1.0,stamp1_11s.jpg,0.0,Red.png,3.0,96,,,,,,,,,,,,,,,,,
0.0,1.0,0.768,0.0,15.0,15.0,15.0,1.0,jersey_02s.jpg,0.0,Orange.png,3.0,96,,,,,,,,,,,,,,,,,
0.0,1.0,0.79,0.0,16.0,16.0,16.0,1.0,tiara_05s.jpg,0.0,Yellow.png,3.0,96,,,,,,,,,,,,,,,,,
0.0,1.0,0.842,0.0,17.0,17.0,17.0,1.0,target_11s.jpg,0.0,Green.png,3.0,96,,,,,,,,,,,,,,,,,
0.0,1.0,0.691,0.0,18.0,18.0,18.0,1.0,dirt_bike_11s.jpg,0.0,Blue.png,4.0,96,,,,,,,,,,,,,,,,,
0.0,1.0,0.74,0.0,19.0,19.0,19.0,1.0,doily_13s.jpg,0.0,Purple.png,4.0,96,,,,,,,,,,,,,,,,,
0.0,1.0,0.873,0.0,20.0,20.0,20.0,1.0,sunglasses_11s.jpg,0.0,Red.png,4.0,96,,,,,,,,,,,,,,,,,
0.0,1.0,0.84,0.0,21.0,21.0,21.0,1.0,compass_10n.jpg,0.0,Orange.png,4.0,96,,,,,,,,,,,,,,,,,
1.0,1.0,0.793,0.0,22.0,22.0,22.0,1.0,sunglasses_11s.jpg,1.0,Yellow.png,4.0,96,,,,,,,,,,,,,,,,,
1.0,1.0,0.742,0.0,23.0,23.0,23.0,1.0,sunglasses_11s.jpg,1.0,Green.png,4.0,96,,,,,,,,,,,,,,,,,
0.0,1.0,0.924,0.0,24.0,24.0,24.0,1.0,seagull_01b.jpg,0.0,Blue.png,5.0,96,,,,,,,,,,,,,,,,,
0.0,1.0,0.77,0.0,25.0,25.0,25.0,1.0,footprint_11s.jpg,0.0,Purple.png,5.0,96,,,,,,,,,,,,,,,,,
0.0,1.0,0.759,0.0,26.0,26.0,26.0,1.0,projector_08s.jpg,0.0,Red.png,5.0,96,,,,,,,,,,,,,,,,,
1.0,1.0,1.906,0.0,27.0,27.0,27.0,1.0,projector_08s.jpg,1.0,Orange.png,5.0,96,,,,,,,,,,,,,,,,,
0.0,1.0,0.823,0.0,28.0,28.0,28.0,1.0,money_07s.jpg,0.0,Yellow.png,5.0,96,,,,,,,,,,,,,,,,,
0.0,1.0,0.99,0.0,29.0,29.0,29.0,1.0,flip_flop_03s.jpg,0.0,Green.png,5.0,96,,,,,,,,,,,,,,,,,
0.0,1.0,0.819,0.0,30.0,30.0,30.0,1.0,ring_03s.jpg,0.0,Blue.png,6.0,96,,,,,,,,,,,,,,,,,
1.0,0.0,1.713,0.0,31.0,31.0,31.0,1.0,flip_flop_03s.jpg,0.0,Purple.png,6.0,96,,,,,,,,,,,,,,,,,
1.0,1.0,0.699,0.0,32.0,32.0,32.0,1.0,flip_flop_03s.jpg,1.0,Red.png,6.0,96,,,,,,,,,,,,,,,,,
1.0,1.0,0.793,0.0,33.0,33.0,33.0,1.0,flip_flop_03s.jpg,1.0,Orange.png,6.0,96,,,,,,,,,,,,,,,,,
0.0,1.0,1.257,0.0,34.0,34.0,34.0,1.0,screwdriver02a.jpg,0.0,Yellow.png,6.0,96,,,,,,,,,,,,,,,,,
1.0,1.0,0.779,0.0,35.0,35.0,35.0,1.0,screwdriver02a.jpg,1.0,Green.png,6.0,96,,,,,,,,,,,,,,,,,
,,,,,,,,,0.0,,,96,0.0,1.0,2.525,0.0,0.0,0.0,0.0,1.0,mop_08s.jpg,feather02.jpg,,,,,,,
,,,,,,,,,1.0,,,96,0.0,0.0,1.354,0.0,1.0,1.0,1.0,1.0,pea_11s.jpg,rice_12s.jpg,,,,,,,
,,,,,,,,,1.0,,,96,0.0,0.0,1.596,0.0,2.0,2.0,2.0,1.0,tiara_05s.jpg,doily_13s.jpg,,,,,,,
,,,,,,,,,1.0,,,96,1.0,1.0,1.995,0.0,3.0,3.0,3.0,1.0,footprint_11s.jpg,money_07s.jpg,,,,,,,
,,,,,,,,,1.0,,,96,0.0,0.0,2.097,0.0,4.0,4.0,4.0,1.0,pencil_sharpener_09n.jpg,jersey_02s.jpg,,,,,,,
,,,,,,,,,1.0,,,96,0.0,0.0,2.409,0.0,5.0,5.0,5.0,1.0,stamp1_11s.jpg,target_11s.jpg,,,,,,,
,,,,,,,,,,,,96,,,,,,,,,,,0.0,7.0,7.0,7.0,1.0,newclockpresent_8_2.xlsx,newclock_compare_task_8_2.xlsx
,0.0,,0.0,0.0,0.0,0.0,1.0,quilt_03s.jpg,0.0,Blue.png,1.0,96,,,,,,,,,,,,,,,,,
0.0,1.0,0.758,0.0,1.0,1.0,1.0,1.0,stingray_02s.jpg,0.0,Purple.png,1.0,96,,,,,,,,,,,,,,,,,
0.0,1.0,0.647,0.0,2.0,2.0,2.0,1.0,mousetrap_15n.jpg,0.0,Red.png,1.0,96,,,,,,,,,,,,,,,,,
0.0,1.0,0.721,0.0,3.0,3.0,3.0,1.0,dashboard_02s.jpg,0.0,Orange.png,1.0,96,,,,,,,,,,,,,,,,,
1.0,1.0,0.841,0.0,4.0,4.0,4.0,1.0,quilt_03s.jpg,1.0,Yellow.png,1.0,96,,,,,,,,,,,,,,,,,
1.0,1.0,0.722,0.0,5.0,5.0,5.0,1.0,quilt_03s.jpg,1.0,Green.png,1.0,96,,,,,,,,,,,,,,,,,
0.0,1.0,1.209,0.0,6.0,6.0,6.0,1.0,thorn_13s.jpg,0.0,Blue.png,2.0,96,,,,,,,,,,,,,,,,,
1.0,0.0,0.938,0.0,7.0,7.0,7.0,1.0,mitten_10s.jpg,0.0,Purple.png,2.0,96,,,,,,,,,,,,,,,,,
0.0,1.0,1.108,0.0,8.0,8.0,8.0,1.0,fondue_07s.jpg,0.0,Red.png,2.0,96,,,,,,,,,,,,,,,,,
0.0,1.0,0.856,0.0,9.0,9.0,9.0,1.0,peach_04s.jpg,0.0,Orange.png,2.0,96,,,,,,,,,,,,,,,,,
0.0,1.0,0.774,0.0,10.0,10.0,10.0,1.0,stump_02s.jpg,0.0,Yellow.png,2.0,96,,,,,,,,,,,,,,,,,
0.0,1.0,0.678,0.0,11.0,11.0,11.0,1.0,rabbit_03s.jpg,0.0,Green.png,2.0,96,,,,,,,,,,,,,,,,,
0.0,1.0,0.707,0.0,12.0,12.0,12.0,1.0,champagne_18s.jpg,0.0,Blue.png,3.0,96,,,,,,,,,,,,,,,,,
0.0,1.0,0.824,0.0,13.0,13.0,13.0,1.0,rabbit_03s.jpg,0.0,Purple.png,3.0,96,,,,,,,,,,,,,,,,,
0.0,1.0,0.896,0.0,14.0,14.0,14.0,1.0,denture_03s.jpg,0.0,Red.png,3.0,96,,,,,,,,,,,,,,,,,
1.0,1.0,1.176,0.0,15.0,15.0,15.0,1.0,rabbit_03s.jpg,1.0,Orange.png,3.0,96,,,,,,,,,,,,,,,,,
,0.0,,0.0,16.0,16.0,16.0,1.0,turtleneck_11s.jpg,0.0,Yellow.png,3.0,96,,,,,,,,,,,,,,,,,
1.0,1.0,0.707,0.0,17.0,17.0,17.0,1.0,rabbit_03s.jpg,1.0,Green.png,3.0,96,,,,,,,,,,,,,,,,,
0.0,1.0,1.185,0.0,18.0,18.0,18.0,1.0,typewriter_11s.jpg,0.0,Blue.png,4.0,96,,,,,,,,,,,,,,,,,
0.0,1.0,1.109,0.0,19.0,19.0,19.0,1.0,thread_08s.jpg,0.0,Purple.png,4.0,96,,,,,,,,,,,,,,,,,
0.0,1.0,1.404,0.0,20.0,20.0,20.0,1.0,bean_06s.jpg,0.0,Red.png,4.0,96,,,,,,,,,,,,,,,,,
0.0,1.0,0.795,0.0,21.0,21.0,21.0,1.0,rolling_pin_02s.jpg,0.0,Orange.png,4.0,96,,,,,,,,,,,,,,,,,
0.0,1.0,0.962,0.0,22.0,22.0,22.0,1.0,tattoo_14s.jpg,0.0,Yellow.png,4.0,96,,,,,,,,,,,,,,,,,
0.0,1.0,0.766,0.0,23.0,23.0,23.0,1.0,eiffeltower.jpg,0.0,Green.png,4.0,96,,,,,,,,,,,,,,,,,
0.0,1.0,0.689,0.0,24.0,24.0,24.0,1.0,fondue_07s.jpg,0.0,Blue.png,5.0,96,,,,,,,,,,,,,,,,,
1.0,1.0,0.823,0.0,25.0,25.0,25.0,1.0,fondue_07s.jpg,1.0,Purple.png,5.0,96,,,,,,,,,,,,,,,,,
0.0,1.0,1.197,0.0,26.0,26.0,26.0,1.0,omelet_07s.jpg,0.0,Red.png,5.0,96,,,,,,,,,,,,,,,,,
1.0,1.0,0.899,0.0,27.0,27.0,27.0,1.0,fondue_07s.jpg,1.0,Orange.png,5.0,96,,,,,,,,,,,,,,,,,
0.0,1.0,1.04,0.0,28.0,28.0,28.0,1.0,radio_09s.jpg,0.0,Yellow.png,5.0,96,,,,,,,,,,,,,,,,,
1.0,1.0,0.757,0.0,29.0,29.0,29.0,1.0,fondue_07s.jpg,1.0,Green.png,5.0,96,,,,,,,,,,,,,,,,,
0.0,1.0,0.701,0.0,30.0,30.0,30.0,1.0,roller_coaster_07s.jpg,0.0,Blue.png,6.0,96,,,,,,,,,,,,,,,,,
0.0,1.0,1.43,0.0,31.0,31.0,31.0,1.0,loveseat_08s.jpg,0.0,Purple.png,6.0,96,,,,,,,,,,,,,,,,,
1.0,1.0,0.988,0.0,32.0,32.0,32.0,1.0,roller_coaster_07s.jpg,1.0,Red.png,6.0,96,,,,,,,,,,,,,,,,,
1.0,1.0,0.762,0.0,33.0,33.0,33.0,1.0,roller_coaster_07s.jpg,1.0,Orange.png,6.0,96,,,,,,,,,,,,,,,,,
1.0,1.0,1.346,0.0,34.0,34.0,34.0,1.0,roller_coaster_07s.jpg,1.0,Yellow.png,6.0,96,,,,,,,,,,,,,,,,,
1.0,1.0,0.667,0.0,35.0,35.0,35.0,1.0,roller_coaster_07s.jpg,1.0,Green.png,6.0,96,,,,,,,,,,,,,,,,,
,,,,,,,,,0.0,,,96,0.0,1.0,1.647,0.0,0.0,0.0,0.0,1.0,loveseat_08s.jpg,radio_09s.jpg,,,,,,,
,,,,,,,,,1.0,,,96,0.0,0.0,2.035,0.0,1.0,1.0,1.0,1.0,dashboard_02s.jpg,thorn_13s.jpg,,,,,,,
,,,,,,,,,0.0,,,96,1.0,0.0,2.398,0.0,2.0,2.0,2.0,1.0,champagne_18s.jpg,peach_04s.jpg,,,,,,,
,,,,,,,,,1.0,,,96,1.0,1.0,1.952,0.0,3.0,3.0,3.0,1.0,mitten_10s.jpg,stump_02s.jpg,,,,,,,
,,,,,,,,,1.0,,,96,1.0,1.0,1.583,0.0,4.0,4.0,4.0,1.0,typewriter_11s.jpg,rolling_pin_02s.jpg,,,,,,,
,,,,,,,,,1.0,,,96,1.0,1.0,1.771,0.0,5.0,5.0,5.0,1.0,thread_08s.jpg,tattoo_14s.jpg,,,,,,,
,,,,,,,,,,,,96,,,,,,,,,,,0.0,8.0,8.0,8.0,1.0,newclockpresent_9_2.xlsx,newclock_compare_task_9_2.xlsx
