key_resp.keys,key_resp.corr,key_resp.rt,present_segment.thisRepN,present_segment.thisTrialN,present_segment.thisN,present_segment.thisIndex,present_segment.ran,pictures,answer,clock,segment,participant,key_resp_2.keys,key_resp_2.corr,key_resp_2.rt,compare_segment.thisRepN,compare_segment.thisTrialN,compare_segment.thisN,compare_segment.thisIndex,compare_segment.ran,item_a,item_b,clock_conditions.thisRepN,clock_conditions.thisTrialN,clock_conditions.thisN,clock_conditions.thisIndex,clock_conditions.ran,present,compare
0.0,1.0,0.98612,0.0,0.0,0.0,0.0,1.0,mirror_12s.jpg,0.0,Blue.png,1.0,121,,,,,,,,,,,,,,,,,
0.0,1.0,1.169365,0.0,1.0,1.0,1.0,1.0,polaroid_05s.jpg,0.0,Purple.png,1.0,121,,,,,,,,,,,,,,,,,
0.0,1.0,1.612915,0.0,2.0,2.0,2.0,1.0,polaroid_05s.jpg,0.0,Red.png,1.0,121,,,,,,,,,,,,,,,,,
0.0,1.0,1.481445,0.0,3.0,3.0,3.0,1.0,slingshot_07s.jpg,0.0,Orange.png,1.0,121,,,,,,,,,,,,,,,,,
1.0,1.0,1.041445,0.0,4.0,4.0,4.0,1.0,polaroid_05s.jpg,1.0,Yellow.png,1.0,121,,,,,,,,,,,,,,,,,
0.0,1.0,1.39552,0.0,5.0,5.0,5.0,1.0,kettle_08s.jpg,0.0,Green.png,1.0,121,,,,,,,,,,,,,,,,,
0.0,1.0,1.161055,0.0,6.0,6.0,6.0,1.0,crystal_ball_12s.jpg,0.0,Blue.png,2.0,121,,,,,,,,,,,,,,,,,
0.0,1.0,1.15736,0.0,7.0,7.0,7.0,1.0,iron_13s.jpg,0.0,Purple.png,2.0,121,,,,,,,,,,,,,,,,,
0.0,1.0,0.842795,0.0,8.0,8.0,8.0,1.0,saddle_06s.jpg,0.0,Red.png,2.0,121,,,,,,,,,,,,,,,,,
0.0,1.0,0.867295,0.0,9.0,9.0,9.0,1.0,mango_09s.jpg,0.0,Orange.png,2.0,121,,,,,,,,,,,,,,,,,
0.0,1.0,0.79718,0.0,10.0,10.0,10.0,1.0,ostrich_06s.jpg,0.0,Yellow.png,2.0,121,,,,,,,,,,,,,,,,,
0.0,1.0,1.160425,0.0,11.0,11.0,11.0,1.0,iron_13s.jpg,0.0,Green.png,2.0,121,,,,,,,,,,,,,,,,,
0.0,1.0,1.178145,0.0,12.0,12.0,12.0,1.0,stethoscope_01b.jpg,0.0,Blue.png,3.0,121,,,,,,,,,,,,,,,,,
0.0,1.0,1.067025,0.0,13.0,13.0,13.0,1.0,ruby_15s.jpg,0.0,Purple.png,3.0,121,,,,,,,,,,,,,,,,,
0.0,1.0,1.148385,0.0,14.0,14.0,14.0,1.0,mango_09s.jpg,0.0,Red.png,3.0,121,,,,,,,,,,,,,,,,,
0.0,1.0,1.411295,0.0,15.0,15.0,15.0,1.0,target_11s.jpg,0.0,Orange.png,3.0,121,,,,,,,,,,,,,,,,,
1.0,1.0,1.044185,0.0,16.0,16.0,16.0,1.0,mango_09s.jpg,1.0,Yellow.png,3.0,121,,,,,,,,,,,,,,,,,
0.0,1.0,1.26067,0.0,17.0,17.0,17.0,1.0,compass_10n.jpg,0.0,Green.png,3.0,121,,,,,,,,,,,,,,,,,
0.0,1.0,1.262725,0.0,18.0,18.0,18.0,1.0,meatball_13s.jpg,0.0,Blue.png,4.0,121,,,,,,,,,,,,,,,,,
0.0,1.0,0.92171,0.0,19.0,19.0,19.0,1.0,stapler_01b.jpg,0.0,Purple.png,4.0,121,,,,,,,,,,,,,,,,,
1.0,1.0,1.260185,0.0,20.0,20.0,20.0,1.0,meatball_13s.jpg,1.0,Red.png,4.0,121,,,,,,,,,,,,,,,,,
0.0,1.0,0.9416,0.0,21.0,21.0,21.0,1.0,pump_11s.jpg,0.0,Orange.png,4.0,121,,,,,,,,,,,,,,,,,
0.0,1.0,1.200365,0.0,22.0,22.0,22.0,1.0,coral_08s.jpg,0.0,Yellow.png,4.0,121,,,,,,,,,,,,,,,,,
0.0,1.0,1.558125,0.0,23.0,23.0,23.0,1.0,meatball_13s.jpg,0.0,Green.png,4.0,121,,,,,,,,,,,,,,,,,
0.0,1.0,1.351805,0.0,24.0,24.0,24.0,1.0,peach_04s.jpg,0.0,Blue.png,5.0,121,,,,,,,,,,,,,,,,,
1.0,1.0,1.11191,0.0,25.0,25.0,25.0,1.0,meatball_13s.jpg,1.0,Purple.png,5.0,121,,,,,,,,,,,,,,,,,
0.0,1.0,0.84745,0.0,26.0,26.0,26.0,1.0,pie_08s.jpg,0.0,Red.png,5.0,121,,,,,,,,,,,,,,,,,
0.0,1.0,1.160615,0.0,27.0,27.0,27.0,1.0,rollerskate_03s.jpg,0.0,Orange.png,5.0,121,,,,,,,,,,,,,,,,,
0.0,1.0,0.82085,0.0,28.0,28.0,28.0,1.0,trampoline_13s.jpg,0.0,Yellow.png,5.0,121,,,,,,,,,,,,,,,,,
0.0,1.0,1.152615,0.0,29.0,29.0,29.0,1.0,undershirt_02s.jpg,0.0,Green.png,5.0,121,,,,,,,,,,,,,,,,,
0.0,1.0,1.27058,0.0,30.0,30.0,30.0,1.0,thread_08s.jpg,0.0,Blue.png,6.0,121,,,,,,,,,,,,,,,,,
0.0,1.0,1.07972,0.0,31.0,31.0,31.0,1.0,megaphone_03s.jpg,0.0,Purple.png,6.0,121,,,,,,,,,,,,,,,,,
0.0,1.0,0.97609,0.0,32.0,32.0,32.0,1.0,plaster_cast_13s.jpg,0.0,Red.png,6.0,121,,,,,,,,,,,,,,,,,
0.0,1.0,1.1386,0.0,33.0,33.0,33.0,1.0,diving_board_07s.jpg,0.0,Orange.png,6.0,121,,,,,,,,,,,,,,,,,
0.0,1.0,1.17747,0.0,34.0,34.0,34.0,1.0,kayak_08s.jpg,0.0,Yellow.png,6.0,121,,,,,,,,,,,,,,,,,
1.0,1.0,1.06949,0.0,35.0,35.0,35.0,1.0,diving_board_07s.jpg,1.0,Green.png,6.0,121,,,,,,,,,,,,,,,,,
,,,,,,,,,1.0,,,121,1.0,1.0,1.78921,0.0,0.0,0.0,0.0,1.0,stapler_01b.jpg,coral_08s.jpg,,,,,,,
,,,,,,,,,1.0,,,121,1.0,1.0,2.709195,0.0,1.0,1.0,1.0,1.0,slingshot_07s.jpg,crystal_ball_12s.jpg,,,,,,,
,,,,,,,,,0.0,,,121,1.0,0.0,1.41759,0.0,2.0,2.0,2.0,1.0,saddle_06s.jpg,kettle_08s.jpg,,,,,,,
,,,,,,,,,1.0,,,121,0.0,0.0,1.92579,0.0,3.0,3.0,3.0,1.0,pie_08s.jpg,undershirt_02s.jpg,,,,,,,
,,,,,,,,,1.0,,,121,1.0,1.0,1.38858,0.0,4.0,4.0,4.0,1.0,stethoscope_01b.jpg,target_11s.jpg,,,,,,,
,,,,,,,,,1.0,,,121,1.0,1.0,1.819165,0.0,5.0,5.0,5.0,1.0,ostrich_06s.jpg,ruby_15s.jpg,,,,,,,
,,,,,,,,,,,,121,,,,,,,,,,,0.0,0.0,0.0,0.0,1.0,new2backpresent_1_4.xlsx,new2back_compare_task_1_4.xlsx
0.0,1.0,1.48943,0.0,0.0,0.0,0.0,1.0,jetski_10s.jpg,0.0,Blue.png,1.0,121,,,,,,,,,,,,,,,,,
0.0,1.0,1.25435,0.0,1.0,1.0,1.0,1.0,tripod_01b.jpg,0.0,Purple.png,1.0,121,,,,,,,,,,,,,,,,,
0.0,1.0,1.22356,0.0,2.0,2.0,2.0,1.0,lab_coat_11s.jpg,0.0,Red.png,1.0,121,,,,,,,,,,,,,,,,,
0.0,1.0,0.904565,0.0,3.0,3.0,3.0,1.0,foam_03s.jpg,0.0,Orange.png,1.0,121,,,,,,,,,,,,,,,,,
0.0,1.0,0.833065,0.0,4.0,4.0,4.0,1.0,crate_05s.jpg,0.0,Yellow.png,1.0,121,,,,,,,,,,,,,,,,,
0.0,1.0,1.048215,0.0,5.0,5.0,5.0,1.0,margarita_03s.jpg,0.0,Green.png,1.0,121,,,,,,,,,,,,,,,,,
0.0,1.0,0.71551,0.0,6.0,6.0,6.0,1.0,joystick_01b.jpg,0.0,Blue.png,2.0,121,,,,,,,,,,,,,,,,,
0.0,1.0,1.04619,0.0,7.0,7.0,7.0,1.0,giraffe_11s.jpg,0.0,Purple.png,2.0,121,,,,,,,,,,,,,,,,,
0.0,1.0,1.031775,0.0,8.0,8.0,8.0,1.0,quilt_03s.jpg,0.0,Red.png,2.0,121,,,,,,,,,,,,,,,,,
1.0,1.0,0.733595,0.0,9.0,9.0,9.0,1.0,giraffe_11s.jpg,1.0,Orange.png,2.0,121,,,,,,,,,,,,,,,,,
0.0,1.0,1.427305,0.0,10.0,10.0,10.0,1.0,pincushion_10s.jpg,0.0,Yellow.png,2.0,121,,,,,,,,,,,,,,,,,
1.0,1.0,0.649825,0.0,11.0,11.0,11.0,1.0,giraffe_11s.jpg,1.0,Green.png,2.0,121,,,,,,,,,,,,,,,,,
1.0,1.0,1.55266,0.0,12.0,12.0,12.0,1.0,pincushion_10s.jpg,1.0,Blue.png,3.0,121,,,,,,,,,,,,,,,,,
1.0,1.0,1.629345,0.0,13.0,13.0,13.0,1.0,giraffe_11s.jpg,1.0,Purple.png,3.0,121,,,,,,,,,,,,,,,,,
0.0,1.0,1.345145,0.0,14.0,14.0,14.0,1.0,rolling_pin_02s.jpg,0.0,Red.png,3.0,121,,,,,,,,,,,,,,,,,
0.0,1.0,1.091525,0.0,15.0,15.0,15.0,1.0,ticktacktoe_08s.jpg,0.0,Orange.png,3.0,121,,,,,,,,,,,,,,,,,
0.0,1.0,1.04151,0.0,16.0,16.0,16.0,1.0,giraffe_11s.jpg,0.0,Yellow.png,3.0,121,,,,,,,,,,,,,,,,,
1.0,1.0,0.683505,0.0,17.0,17.0,17.0,1.0,ticktacktoe_08s.jpg,1.0,Green.png,3.0,121,,,,,,,,,,,,,,,,,
0.0,1.0,1.279585,0.0,18.0,18.0,18.0,1.0,typewriter_11s.jpg,0.0,Blue.png,4.0,121,,,,,,,,,,,,,,,,,
0.0,1.0,0.975075,0.0,19.0,19.0,19.0,1.0,toothpaste_12s.jpg,0.0,Purple.png,4.0,121,,,,,,,,,,,,,,,,,
0.0,1.0,1.446445,0.0,20.0,20.0,20.0,1.0,hummingbird_05s.jpg,0.0,Red.png,4.0,121,,,,,,,,,,,,,,,,,
1.0,1.0,1.262605,0.0,21.0,21.0,21.0,1.0,toothpaste_12s.jpg,1.0,Orange.png,4.0,121,,,,,,,,,,,,,,,,,
0.0,1.0,1.14494,0.0,22.0,22.0,22.0,1.0,toothpaste_12s.jpg,0.0,Yellow.png,4.0,121,,,,,,,,,,,,,,,,,
0.0,1.0,1.46978,0.0,23.0,23.0,23.0,1.0,treadmill_06s.jpg,0.0,Green.png,4.0,121,,,,,,,,,,,,,,,,,
0.0,1.0,1.24085,0.0,24.0,24.0,24.0,1.0,typewriter_11s.jpg,0.0,Blue.png,5.0,121,,,,,,,,,,,,,,,,,
0.0,1.0,1.17087,0.0,25.0,25.0,25.0,1.0,penguin_16s.jpg,0.0,Purple.png,5.0,121,,,,,,,,,,,,,,,,,
0.0,1.0,1.32897,0.0,26.0,26.0,26.0,1.0,olive_05s.jpg,0.0,Red.png,5.0,121,,,,,,,,,,,,,,,,,
1.0,1.0,0.68395,0.0,27.0,27.0,27.0,1.0,penguin_16s.jpg,1.0,Orange.png,5.0,121,,,,,,,,,,,,,,,,,
0.0,1.0,0.901215,0.0,28.0,28.0,28.0,1.0,penguin_16s.jpg,0.0,Yellow.png,5.0,121,,,,,,,,,,,,,,,,,
0.0,1.0,1.514705,0.0,29.0,29.0,29.0,1.0,tab_09s.jpg,0.0,Green.png,5.0,121,,,,,,,,,,,,,,,,,
0.0,1.0,1.11063,0.0,30.0,30.0,30.0,1.0,frame_06s.jpg,0.0,Blue.png,6.0,121,,,,,,,,,,,,,,,,,
0.0,1.0,0.96342,0.0,31.0,31.0,31.0,1.0,mop_08s.jpg,0.0,Purple.png,6.0,121,,,,,,,,,,,,,,,,,
0.0,1.0,0.96374,0.0,32.0,32.0,32.0,1.0,memory_stick_11s.jpg,0.0,Red.png,6.0,121,,,,,,,,,,,,,,,,,
0.0,1.0,0.87872,0.0,33.0,33.0,33.0,1.0,olive_05s.jpg,0.0,Orange.png,6.0,121,,,,,,,,,,,,,,,,,
0.0,1.0,0.955355,0.0,34.0,34.0,34.0,1.0,ravioli_08s.jpg,0.0,Yellow.png,6.0,121,,,,,,,,,,,,,,,,,
0.0,1.0,1.260045,0.0,35.0,35.0,35.0,1.0,mousetrap_15n.jpg,0.0,Green.png,6.0,121,,,,,,,,,,,,,,,,,
,,,,,,,,,1.0,,,121,1.0,1.0,1.662645,0.0,0.0,0.0,0.0,1.0,hummingbird_05s.jpg,treadmill_06s.jpg,,,,,,,
,,,,,,,,,1.0,,,121,1.0,1.0,1.39117,0.0,1.0,1.0,1.0,1.0,margarita_03s.jpg,quilt_03s.jpg,,,,,,,
,,,,,,,,,0.0,,,121,0.0,1.0,1.715955,0.0,2.0,2.0,2.0,1.0,joystick_01b.jpg,foam_03s.jpg,,,,,,,
,,,,,,,,,0.0,,,121,0.0,1.0,1.764625,0.0,3.0,3.0,3.0,1.0,ravioli_08s.jpg,mop_08s.jpg,,,,,,,
,,,,,,,,,1.0,,,121,0.0,0.0,2.04388,0.0,4.0,4.0,4.0,1.0,tab_09s.jpg,memory_stick_11s.jpg,,,,,,,
,,,,,,,,,1.0,,,121,1.0,1.0,1.80522,0.0,5.0,5.0,5.0,1.0,tripod_01b.jpg,crate_05s.jpg,,,,,,,
,,,,,,,,,,,,121,,,,,,,,,,,0.0,1.0,1.0,1.0,1.0,new2backpresent_2_4.xlsx,new2back_compare_task_2_4.xlsx
0.0,1.0,1.536515,0.0,0.0,0.0,0.0,1.0,safety_pin_02s.jpg,0.0,Blue.png,1.0,121,,,,,,,,,,,,,,,,,
0.0,1.0,1.160235,0.0,1.0,1.0,1.0,1.0,safety_pin_02s.jpg,0.0,Purple.png,1.0,121,,,,,,,,,,,,,,,,,
0.0,1.0,1.33061,0.0,2.0,2.0,2.0,1.0,cardinal_07s.jpg,0.0,Red.png,1.0,121,,,,,,,,,,,,,,,,,
1.0,1.0,0.92798,0.0,3.0,3.0,3.0,1.0,safety_pin_02s.jpg,1.0,Orange.png,1.0,121,,,,,,,,,,,,,,,,,
0.0,1.0,1.710475,0.0,4.0,4.0,4.0,1.0,potholder_02s.jpg,0.0,Yellow.png,1.0,121,,,,,,,,,,,,,,,,,
1.0,1.0,0.782485,0.0,5.0,5.0,5.0,1.0,safety_pin_02s.jpg,1.0,Green.png,1.0,121,,,,,,,,,,,,,,,,,
0.0,1.0,1.384985,0.0,6.0,6.0,6.0,1.0,cardinal_07s.jpg,0.0,Blue.png,2.0,121,,,,,,,,,,,,,,,,,
0.0,1.0,1.15902,0.0,7.0,7.0,7.0,1.0,lion_18s.jpg,0.0,Purple.png,2.0,121,,,,,,,,,,,,,,,,,
0.0,1.0,1.114705,0.0,8.0,8.0,8.0,1.0,comic_book_02s.jpg,0.0,Red.png,2.0,121,,,,,,,,,,,,,,,,,
0.0,1.0,0.914885,0.0,9.0,9.0,9.0,1.0,lizard_10n.jpg,0.0,Orange.png,2.0,121,,,,,,,,,,,,,,,,,
0.0,1.0,1.07982,0.0,10.0,10.0,10.0,1.0,rice_12s.jpg,0.0,Yellow.png,2.0,121,,,,,,,,,,,,,,,,,
0.0,1.0,1.437885,0.0,11.0,11.0,11.0,1.0,bagel_15s.jpg,0.0,Green.png,2.0,121,,,,,,,,,,,,,,,,,
0.0,1.0,1.182565,0.0,12.0,12.0,12.0,1.0,recliner_02s.jpg,0.0,Blue.png,3.0,121,,,,,,,,,,,,,,,,,
0.0,1.0,1.232035,0.0,13.0,13.0,13.0,1.0,recliner_02s.jpg,0.0,Purple.png,3.0,121,,,,,,,,,,,,,,,,,
0.0,1.0,0.992035,0.0,14.0,14.0,14.0,1.0,luggage_08s.jpg,0.0,Red.png,3.0,121,,,,,,,,,,,,,,,,,
1.0,1.0,0.8228,0.0,15.0,15.0,15.0,1.0,recliner_02s.jpg,1.0,Orange.png,3.0,121,,,,,,,,,,,,,,,,,
0.0,1.0,0.74494,0.0,16.0,16.0,16.0,1.0,onion_10s.jpg,0.0,Yellow.png,3.0,121,,,,,,,,,,,,,,,,,
0.0,1.0,0.99588,0.0,17.0,17.0,17.0,1.0,rosary_03s.jpg,0.0,Green.png,3.0,121,,,,,,,,,,,,,,,,,
0.0,1.0,1.095175,0.0,18.0,18.0,18.0,1.0,smokingpipe.jpg,0.0,Blue.png,4.0,121,,,,,,,,,,,,,,,,,
0.0,1.0,0.951665,0.0,19.0,19.0,19.0,1.0,roulette_wheel_04s.jpg,0.0,Purple.png,4.0,121,,,,,,,,,,,,,,,,,
1.0,1.0,0.713325,0.0,20.0,20.0,20.0,1.0,smokingpipe.jpg,1.0,Red.png,4.0,121,,,,,,,,,,,,,,,,,
0.0,1.0,0.694735,0.0,21.0,21.0,21.0,1.0,orchid_01b.jpg,0.0,Orange.png,4.0,121,,,,,,,,,,,,,,,,,
0.0,1.0,0.993765,0.0,22.0,22.0,22.0,1.0,buoy_04s.jpg,0.0,Yellow.png,4.0,121,,,,,,,,,,,,,,,,,
0.0,1.0,1.38588,0.0,23.0,23.0,23.0,1.0,stopwatch_04s.jpg,0.0,Green.png,4.0,121,,,,,,,,,,,,,,,,,
0.0,1.0,1.190585,0.0,24.0,24.0,24.0,1.0,knitting_needle_04s.jpg,0.0,Blue.png,5.0,121,,,,,,,,,,,,,,,,,
0.0,1.0,1.22912,0.0,25.0,25.0,25.0,1.0,prism_10s.jpg,0.0,Purple.png,5.0,121,,,,,,,,,,,,,,,,,
0.0,1.0,0.86257,0.0,26.0,26.0,26.0,1.0,teapot_03s.jpg,0.0,Red.png,5.0,121,,,,,,,,,,,,,,,,,
0.0,1.0,0.707675,0.0,27.0,27.0,27.0,1.0,fire_pit_10s.jpg,0.0,Orange.png,5.0,121,,,,,,,,,,,,,,,,,
0.0,1.0,0.907465,0.0,28.0,28.0,28.0,1.0,fire_pit_10s.jpg,0.0,Yellow.png,5.0,121,,,,,,,,,,,,,,,,,
1.0,1.0,0.8983,0.0,29.0,29.0,29.0,1.0,fire_pit_10s.jpg,1.0,Green.png,5.0,121,,,,,,,,,,,,,,,,,
0.0,1.0,1.0125,0.0,30.0,30.0,30.0,1.0,ironing_board_07s.jpg,0.0,Blue.png,6.0,121,,,,,,,,,,,,,,,,,
1.0,1.0,1.120695,0.0,31.0,31.0,31.0,1.0,fire_pit_10s.jpg,1.0,Purple.png,6.0,121,,,,,,,,,,,,,,,,,
0.0,1.0,0.741275,0.0,32.0,32.0,32.0,1.0,mattress_01s.jpg,0.0,Red.png,6.0,121,,,,,,,,,,,,,,,,,
1.0,1.0,1.2438,0.0,33.0,33.0,33.0,1.0,fire_pit_10s.jpg,1.0,Orange.png,6.0,121,,,,,,,,,,,,,,,,,
1.0,1.0,1.146455,0.0,34.0,34.0,34.0,1.0,mattress_01s.jpg,1.0,Yellow.png,6.0,121,,,,,,,,,,,,,,,,,
0.0,1.0,1.22367,0.0,35.0,35.0,35.0,1.0,ice-cream_cone_06s.jpg,0.0,Green.png,6.0,121,,,,,,,,,,,,,,,,,
,,,,,,,,,1.0,,,121,0.0,0.0,2.48878,0.0,0.0,0.0,0.0,1.0,roulette_wheel_04s.jpg,buoy_04s.jpg,,,,,,,
,,,,,,,,,0.0,,,121,1.0,0.0,1.570665,0.0,1.0,1.0,1.0,1.0,lion_18s.jpg,potholder_02s.jpg,,,,,,,
,,,,,,,,,0.0,,,121,0.0,1.0,1.707335,0.0,2.0,2.0,2.0,1.0,bagel_15s.jpg,comic_book_02s.jpg,,,,,,,
,,,,,,,,,1.0,,,121,0.0,0.0,1.976835,0.0,3.0,3.0,3.0,1.0,stopwatch_04s.jpg,teapot_03s.jpg,,,,,,,
,,,,,,,,,1.0,,,121,0.0,0.0,1.599005,0.0,4.0,4.0,4.0,1.0,luggage_08s.jpg,rosary_03s.jpg,,,,,,,
,,,,,,,,,1.0,,,121,1.0,1.0,1.94503,0.0,5.0,5.0,5.0,1.0,orchid_01b.jpg,knitting_needle_04s.jpg,,,,,,,
,,,,,,,,,,,,121,,,,,,,,,,,0.0,2.0,2.0,2.0,1.0,new2backpresent_3_4.xlsx,new2back_compare_task_3_4.xlsx
0.0,1.0,1.38247,0.0,0.0,0.0,0.0,1.0,smoothie_09s.jpg,0.0,Blue.png,1.0,121,,,,,,,,,,,,,,,,,
0.0,1.0,1.097015,0.0,1.0,1.0,1.0,1.0,raspberry_12s.jpg,0.0,Purple.png,1.0,121,,,,,,,,,,,,,,,,,
0.0,1.0,0.99327,0.0,2.0,2.0,2.0,1.0,raspberry_12s.jpg,0.0,Red.png,1.0,121,,,,,,,,,,,,,,,,,
0.0,1.0,0.96995,0.0,3.0,3.0,3.0,1.0,lamb_chop_07s.jpg,0.0,Orange.png,1.0,121,,,,,,,,,,,,,,,,,
0.0,1.0,1.16575,0.0,4.0,4.0,4.0,1.0,smoothie_09s.jpg,0.0,Yellow.png,1.0,121,,,,,,,,,,,,,,,,,
0.0,1.0,0.94849,0.0,5.0,5.0,5.0,1.0,raspberry_12s.jpg,0.0,Green.png,1.0,121,,,,,,,,,,,,,,,,,
0.0,1.0,1.327845,0.0,6.0,6.0,6.0,1.0,lava_02s.jpg,0.0,Blue.png,2.0,121,,,,,,,,,,,,,,,,,
0.0,1.0,0.812365,0.0,7.0,7.0,7.0,1.0,trident_07s.jpg,0.0,Purple.png,2.0,121,,,,,,,,,,,,,,,,,
0.0,1.0,1.397765,0.0,8.0,8.0,8.0,1.0,trident_07s.jpg,0.0,Red.png,2.0,121,,,,,,,,,,,,,,,,,
1.0,1.0,0.64591,0.0,9.0,9.0,9.0,1.0,trident_07s.jpg,1.0,Orange.png,2.0,121,,,,,,,,,,,,,,,,,
0.0,1.0,0.777365,0.0,10.0,10.0,10.0,1.0,orangutan_03s.jpg,0.0,Yellow.png,2.0,121,,,,,,,,,,,,,,,,,
1.0,1.0,0.68428,0.0,11.0,11.0,11.0,1.0,trident_07s.jpg,1.0,Green.png,2.0,121,,,,,,,,,,,,,,,,,
0.0,1.0,0.756505,0.0,12.0,12.0,12.0,1.0,raspberry_12s.jpg,0.0,Blue.png,3.0,121,,,,,,,,,,,,,,,,,
1.0,1.0,1.091655,0.0,13.0,13.0,13.0,1.0,trident_07s.jpg,1.0,Purple.png,3.0,121,,,,,,,,,,,,,,,,,
0.0,1.0,0.7796,0.0,14.0,14.0,14.0,1.0,lavender_10s.jpg,0.0,Red.png,3.0,121,,,,,,,,,,,,,,,,,
0.0,1.0,0.766435,0.0,15.0,15.0,15.0,1.0,chip_04s.jpg,0.0,Orange.png,3.0,121,,,,,,,,,,,,,,,,,
0.0,1.0,0.81393,0.0,16.0,16.0,16.0,1.0,lamb_04s.jpg,0.0,Yellow.png,3.0,121,,,,,,,,,,,,,,,,,
0.0,1.0,1.56911,0.0,17.0,17.0,17.0,1.0,emerald_02s.jpg,0.0,Green.png,3.0,121,,,,,,,,,,,,,,,,,
0.0,1.0,1.311385,0.0,18.0,18.0,18.0,1.0,pineapple_12s.jpg,0.0,Blue.png,4.0,121,,,,,,,,,,,,,,,,,
0.0,1.0,0.98433,0.0,19.0,19.0,19.0,1.0,sundae_08s.jpg,0.0,Purple.png,4.0,121,,,,,,,,,,,,,,,,,
0.0,1.0,0.892095,0.0,20.0,20.0,20.0,1.0,sundae_08s.jpg,0.0,Red.png,4.0,121,,,,,,,,,,,,,,,,,
0.0,1.0,0.760785,0.0,21.0,21.0,21.0,1.0,squirrel_02s.jpg,0.0,Orange.png,4.0,121,,,,,,,,,,,,,,,,,
0.0,1.0,0.94171,0.0,22.0,22.0,22.0,1.0,roller_coaster_07s.jpg,0.0,Yellow.png,4.0,121,,,,,,,,,,,,,,,,,
0.0,1.0,0.749105,0.0,23.0,23.0,23.0,1.0,sundae_08s.jpg,0.0,Green.png,4.0,121,,,,,,,,,,,,,,,,,
0.0,1.0,0.742725,0.0,24.0,24.0,24.0,1.0,tweezers_03s.jpg,0.0,Blue.png,5.0,121,,,,,,,,,,,,,,,,,
1.0,1.0,0.866845,0.0,25.0,25.0,25.0,1.0,sundae_08s.jpg,1.0,Purple.png,5.0,121,,,,,,,,,,,,,,,,,
0.0,1.0,0.97264,0.0,26.0,26.0,26.0,1.0,rudder_02s.jpg,0.0,Red.png,5.0,121,,,,,,,,,,,,,,,,,
0.0,1.0,0.751265,0.0,27.0,27.0,27.0,1.0,rake_06s.jpg,0.0,Orange.png,5.0,121,,,,,,,,,,,,,,,,,
0.0,1.0,1.363645,0.0,28.0,28.0,28.0,1.0,rake_06s.jpg,0.0,Yellow.png,5.0,121,,,,,,,,,,,,,,,,,
1.0,1.0,0.83263,0.0,29.0,29.0,29.0,1.0,rake_06s.jpg,1.0,Green.png,5.0,121,,,,,,,,,,,,,,,,,
0.0,1.0,0.724905,0.0,30.0,30.0,30.0,1.0,cap_05s.jpg,0.0,Blue.png,6.0,121,,,,,,,,,,,,,,,,,
0.0,1.0,0.86006,0.0,31.0,31.0,31.0,1.0,paper_towel_03s.jpg,0.0,Purple.png,6.0,121,,,,,,,,,,,,,,,,,
0.0,1.0,0.97151,0.0,32.0,32.0,32.0,1.0,toaster_03s.jpg,0.0,Red.png,6.0,121,,,,,,,,,,,,,,,,,
0.0,1.0,0.814105,0.0,33.0,33.0,33.0,1.0,money_07s.jpg,0.0,Orange.png,6.0,121,,,,,,,,,,,,,,,,,
0.0,1.0,0.653145,0.0,34.0,34.0,34.0,1.0,pinwheel_06s.jpg,0.0,Yellow.png,6.0,121,,,,,,,,,,,,,,,,,
0.0,1.0,0.76116,0.0,35.0,35.0,35.0,1.0,lid_10s.jpg,0.0,Green.png,6.0,121,,,,,,,,,,,,,,,,,
,,,,,,,,,0.0,,,121,0.0,1.0,2.554475,0.0,0.0,0.0,0.0,1.0,tweezers_03s.jpg,squirrel_02s.jpg,,,,,,,
,,,,,,,,,1.0,,,121,1.0,1.0,1.471135,0.0,1.0,1.0,1.0,1.0,chip_04s.jpg,pineapple_12s.jpg,,,,,,,
,,,,,,,,,1.0,,,121,1.0,1.0,1.237305,0.0,2.0,2.0,2.0,1.0,lamb_chop_07s.jpg,lava_02s.jpg,,,,,,,
,,,,,,,,,0.0,,,121,0.0,1.0,2.02697,0.0,3.0,3.0,3.0,1.0,pinwheel_06s.jpg,paper_towel_03s.jpg,,,,,,,
,,,,,,,,,0.0,,,121,0.0,1.0,1.63884,0.0,4.0,4.0,4.0,1.0,emerald_02s.jpg,lavender_10s.jpg,,,,,,,
,,,,,,,,,0.0,,,121,0.0,1.0,1.60498,0.0,5.0,5.0,5.0,1.0,money_07s.jpg,cap_05s.jpg,,,,,,,
,,,,,,,,,,,,121,,,,,,,,,,,0.0,3.0,3.0,3.0,1.0,new2backpresent_4_4.xlsx,new2back_compare_task_4_4.xlsx
0.0,1.0,0.809255,0.0,0.0,0.0,0.0,1.0,fur_coat_11s.jpg,0.0,Blue.png,1.0,121,,,,,,,,,,,,,,,,,
0.0,1.0,1.07323,0.0,1.0,1.0,1.0,1.0,crayon_09s.jpg,0.0,Purple.png,1.0,121,,,,,,,,,,,,,,,,,
0.0,1.0,0.89988,0.0,2.0,2.0,2.0,1.0,cobra_05s.jpg,0.0,Red.png,1.0,121,,,,,,,,,,,,,,,,,
0.0,1.0,0.875455,0.0,3.0,3.0,3.0,1.0,raccoon_02s.jpg,0.0,Orange.png,1.0,121,,,,,,,,,,,,,,,,,
0.0,1.0,0.76682,0.0,4.0,4.0,4.0,1.0,soda_fountain_03s.jpg,0.0,Yellow.png,1.0,121,,,,,,,,,,,,,,,,,
1.0,1.0,0.86535,0.0,5.0,5.0,5.0,1.0,raccoon_02s.jpg,1.0,Green.png,1.0,121,,,,,,,,,,,,,,,,,
0.0,1.0,0.97519,0.0,6.0,6.0,6.0,1.0,feather02.jpg,0.0,Blue.png,2.0,121,,,,,,,,,,,,,,,,,
1.0,1.0,0.97798,0.0,7.0,7.0,7.0,1.0,raccoon_02s.jpg,1.0,Purple.png,2.0,121,,,,,,,,,,,,,,,,,
1.0,1.0,0.94734,0.0,8.0,8.0,8.0,1.0,feather02.jpg,1.0,Red.png,2.0,121,,,,,,,,,,,,,,,,,
0.0,1.0,0.67802,0.0,9.0,9.0,9.0,1.0,rug_09s.jpg,0.0,Orange.png,2.0,121,,,,,,,,,,,,,,,,,
1.0,1.0,1.14001,0.0,10.0,10.0,10.0,1.0,feather02.jpg,1.0,Yellow.png,2.0,121,,,,,,,,,,,,,,,,,
0.0,1.0,0.879025,0.0,11.0,11.0,11.0,1.0,cushion_08s.jpg,0.0,Green.png,2.0,121,,,,,,,,,,,,,,,,,
1.0,1.0,1.142175,0.0,12.0,12.0,12.0,1.0,feather02.jpg,1.0,Blue.png,3.0,121,,,,,,,,,,,,,,,,,
0.0,1.0,1.006605,0.0,13.0,13.0,13.0,1.0,feather02.jpg,0.0,Purple.png,3.0,121,,,,,,,,,,,,,,,,,
0.0,1.0,0.950415,0.0,14.0,14.0,14.0,1.0,ice_pack_09s.jpg,0.0,Red.png,3.0,121,,,,,,,,,,,,,,,,,
0.0,1.0,1.17766,0.0,15.0,15.0,15.0,1.0,ice_pack_09s.jpg,0.0,Orange.png,3.0,121,,,,,,,,,,,,,,,,,
0.0,1.0,0.906665,0.0,16.0,16.0,16.0,1.0,loom_05s.jpg,0.0,Yellow.png,3.0,121,,,,,,,,,,,,,,,,,
1.0,1.0,0.71766,0.0,17.0,17.0,17.0,1.0,ice_pack_09s.jpg,1.0,Green.png,3.0,121,,,,,,,,,,,,,,,,,
0.0,1.0,1.049035,0.0,18.0,18.0,18.0,1.0,ice_pack_09s.jpg,0.0,Blue.png,4.0,121,,,,,,,,,,,,,,,,,
1.0,1.0,0.89716,0.0,19.0,19.0,19.0,1.0,ice_pack_09s.jpg,1.0,Purple.png,4.0,121,,,,,,,,,,,,,,,,,
1.0,1.0,0.77803,0.0,20.0,20.0,20.0,1.0,ice_pack_09s.jpg,1.0,Red.png,4.0,121,,,,,,,,,,,,,,,,,
0.0,1.0,0.717305,0.0,21.0,21.0,21.0,1.0,blazer_02s.jpg,0.0,Orange.png,4.0,121,,,,,,,,,,,,,,,,,
0.0,1.0,0.87761,0.0,22.0,22.0,22.0,1.0,penlight_12s.jpg,0.0,Yellow.png,4.0,121,,,,,,,,,,,,,,,,,
0.0,1.0,0.9561,0.0,23.0,23.0,23.0,1.0,swan_11s.jpg,0.0,Green.png,4.0,121,,,,,,,,,,,,,,,,,
0.0,1.0,1.24552,0.0,24.0,24.0,24.0,1.0,plunger_08s.jpg,0.0,Blue.png,5.0,121,,,,,,,,,,,,,,,,,
0.0,1.0,0.873965,0.0,25.0,25.0,25.0,1.0,bottle_opener_11s.jpg,0.0,Purple.png,5.0,121,,,,,,,,,,,,,,,,,
0.0,1.0,0.911775,0.0,26.0,26.0,26.0,1.0,checkbook_11s.jpg,0.0,Red.png,5.0,121,,,,,,,,,,,,,,,,,
0.0,1.0,0.9136,0.0,27.0,27.0,27.0,1.0,ink_08s.jpg,0.0,Orange.png,5.0,121,,,,,,,,,,,,,,,,,
0.0,1.0,1.088325,0.0,28.0,28.0,28.0,1.0,plunger_08s.jpg,0.0,Yellow.png,5.0,121,,,,,,,,,,,,,,,,,
0.0,1.0,0.912575,0.0,29.0,29.0,29.0,1.0,pencil02a.jpg,0.0,Green.png,5.0,121,,,,,,,,,,,,,,,,,
0.0,1.0,0.84368,0.0,30.0,30.0,30.0,1.0,ginger_09s.jpg,0.0,Blue.png,6.0,121,,,,,,,,,,,,,,,,,
0.0,1.0,0.82477,0.0,31.0,31.0,31.0,1.0,taxi_15s.jpg,0.0,Purple.png,6.0,121,,,,,,,,,,,,,,,,,
0.0,1.0,0.70848,0.0,32.0,32.0,32.0,1.0,toy_04s.jpg,0.0,Red.png,6.0,121,,,,,,,,,,,,,,,,,
0.0,1.0,0.71067,0.0,33.0,33.0,33.0,1.0,blowfish_03s.jpg,0.0,Orange.png,6.0,121,,,,,,,,,,,,,,,,,
0.0,1.0,0.84557,0.0,34.0,34.0,34.0,1.0,toilet_paper_12s.jpg,0.0,Yellow.png,6.0,121,,,,,,,,,,,,,,,,,
0.0,1.0,0.77632,0.0,35.0,35.0,35.0,1.0,puddle_02s.jpg,0.0,Green.png,6.0,121,,,,,,,,,,,,,,,,,
,,,,,,,,,1.0,,,121,0.0,0.0,2.236215,0.0,0.0,0.0,0.0,1.0,ink_08s.jpg,ginger_09s.jpg,,,,,,,
,,,,,,,,,0.0,,,121,0.0,1.0,2.01886,0.0,1.0,1.0,1.0,1.0,puddle_02s.jpg,toy_04s.jpg,,,,,,,
,,,,,,,,,0.0,,,121,1.0,0.0,1.74352,0.0,2.0,2.0,2.0,1.0,bottle_opener_11s.jpg,penlight_12s.jpg,,,,,,,
,,,,,,,,,0.0,,,121,0.0,1.0,2.426345,0.0,3.0,3.0,3.0,1.0,checkbook_11s.jpg,swan_11s.jpg,,,,,,,
,,,,,,,,,1.0,,,121,0.0,0.0,1.661565,0.0,4.0,4.0,4.0,1.0,taxi_15s.jpg,toilet_paper_12s.jpg,,,,,,,
,,,,,,,,,1.0,,,121,1.0,1.0,1.69983,0.0,5.0,5.0,5.0,1.0,crayon_09s.jpg,soda_fountain_03s.jpg,,,,,,,
,,,,,,,,,,,,121,,,,,,,,,,,0.0,4.0,4.0,4.0,1.0,new2backpresent_5_4.xlsx,new2back_compare_task_5_4.xlsx
0.0,1.0,1.081715,0.0,0.0,0.0,0.0,1.0,flask_04s.jpg,0.0,Blue.png,1.0,121,,,,,,,,,,,,,,,,,
0.0,1.0,1.090755,0.0,1.0,1.0,1.0,1.0,kimono_13s.jpg,0.0,Purple.png,1.0,121,,,,,,,,,,,,,,,,,
0.0,1.0,0.831835,0.0,2.0,2.0,2.0,1.0,limousine_12s.jpg,0.0,Red.png,1.0,121,,,,,,,,,,,,,,,,,
0.0,1.0,0.89813,0.0,3.0,3.0,3.0,1.0,lectern_08s.jpg,0.0,Orange.png,1.0,121,,,,,,,,,,,,,,,,,
0.0,1.0,1.114755,0.0,4.0,4.0,4.0,1.0,kimono_13s.jpg,0.0,Yellow.png,1.0,121,,,,,,,,,,,,,,,,,
0.0,1.0,0.76357,0.0,5.0,5.0,5.0,1.0,doily_13s.jpg,0.0,Green.png,1.0,121,,,,,,,,,,,,,,,,,
1.0,1.0,0.84619,0.0,6.0,6.0,6.0,1.0,kimono_13s.jpg,1.0,Blue.png,2.0,121,,,,,,,,,,,,,,,,,
0.0,1.0,0.661785,0.0,7.0,7.0,7.0,1.0,razor_blade_01b.jpg,0.0,Purple.png,2.0,121,,,,,,,,,,,,,,,,,
0.0,1.0,0.72478,0.0,8.0,8.0,8.0,1.0,razor_blade_01b.jpg,0.0,Red.png,2.0,121,,,,,,,,,,,,,,,,,
0.0,1.0,0.599905,0.0,9.0,9.0,9.0,1.0,champagne_18s.jpg,0.0,Orange.png,2.0,121,,,,,,,,,,,,,,,,,
0.0,1.0,0.68141,0.0,10.0,10.0,10.0,1.0,stamp1_11s.jpg,0.0,Yellow.png,2.0,121,,,,,,,,,,,,,,,,,
1.0,1.0,1.136405,0.0,11.0,11.0,11.0,1.0,champagne_18s.jpg,1.0,Green.png,2.0,121,,,,,,,,,,,,,,,,,
0.0,1.0,0.76572,0.0,12.0,12.0,12.0,1.0,crossbow_10s.jpg,0.0,Blue.png,3.0,121,,,,,,,,,,,,,,,,,
0.0,1.0,0.654785,0.0,13.0,13.0,13.0,1.0,briefcase_03s.jpg,0.0,Purple.png,3.0,121,,,,,,,,,,,,,,,,,
0.0,1.0,0.864705,0.0,14.0,14.0,14.0,1.0,jersey_02s.jpg,0.0,Red.png,3.0,121,,,,,,,,,,,,,,,,,
1.0,1.0,1.167765,0.0,15.0,15.0,15.0,1.0,briefcase_03s.jpg,1.0,Orange.png,3.0,121,,,,,,,,,,,,,,,,,
0.0,1.0,0.834175,0.0,16.0,16.0,16.0,1.0,oil_02s.jpg,0.0,Yellow.png,3.0,121,,,,,,,,,,,,,,,,,
0.0,1.0,0.983015,0.0,17.0,17.0,17.0,1.0,tinsel_12s.jpg,0.0,Green.png,3.0,121,,,,,,,,,,,,,,,,,
0.0,1.0,1.355615,0.0,18.0,18.0,18.0,1.0,flask_04s.jpg,0.0,Blue.png,4.0,121,,,,,,,,,,,,,,,,,
0.0,1.0,1.36222,0.0,19.0,19.0,19.0,1.0,fork_04s.jpg,0.0,Purple.png,4.0,121,,,,,,,,,,,,,,,,,
0.0,1.0,0.8992,0.0,20.0,20.0,20.0,1.0,purse_05s.jpg,0.0,Red.png,4.0,121,,,,,,,,,,,,,,,,,
0.0,1.0,0.785415,0.0,21.0,21.0,21.0,1.0,flask_04s.jpg,0.0,Orange.png,4.0,121,,,,,,,,,,,,,,,,,
0.0,1.0,1.04382,0.0,22.0,22.0,22.0,1.0,sledgehammer_03s.jpg,0.0,Yellow.png,4.0,121,,,,,,,,,,,,,,,,,
0.0,1.0,0.740665,0.0,23.0,23.0,23.0,1.0,turf_03s.jpg,0.0,Green.png,4.0,121,,,,,,,,,,,,,,,,,
0.0,1.0,0.95982,0.0,24.0,24.0,24.0,1.0,omelet_07s.jpg,0.0,Blue.png,5.0,121,,,,,,,,,,,,,,,,,
1.0,1.0,1.46108,0.0,25.0,25.0,25.0,1.0,turf_03s.jpg,1.0,Purple.png,5.0,121,,,,,,,,,,,,,,,,,
0.0,1.0,1.023805,0.0,26.0,26.0,26.0,1.0,clover_04s.jpg,0.0,Red.png,5.0,121,,,,,,,,,,,,,,,,,
0.0,1.0,0.758635,0.0,27.0,27.0,27.0,1.0,lip_gloss_06s.jpg,0.0,Orange.png,5.0,121,,,,,,,,,,,,,,,,,
0.0,1.0,0.91006,0.0,28.0,28.0,28.0,1.0,amber_04s.jpg,0.0,Yellow.png,5.0,121,,,,,,,,,,,,,,,,,
0.0,1.0,1.163235,0.0,29.0,29.0,29.0,1.0,tortilla_06s.jpg,0.0,Green.png,5.0,121,,,,,,,,,,,,,,,,,
0.0,1.0,2.009195,0.0,30.0,30.0,30.0,1.0,razor_blade_01b.jpg,0.0,Blue.png,6.0,121,,,,,,,,,,,,,,,,,
0.0,1.0,1.37937,0.0,31.0,31.0,31.0,1.0,tape_measure_11s.jpg,0.0,Purple.png,6.0,121,,,,,,,,,,,,,,,,,
1.0,1.0,1.247915,0.0,32.0,32.0,32.0,1.0,razor_blade_01b.jpg,1.0,Red.png,6.0,121,,,,,,,,,,,,,,,,,
0.0,1.0,1.618895,0.0,33.0,33.0,33.0,1.0,razor_blade_01b.jpg,0.0,Orange.png,6.0,121,,,,,,,,,,,,,,,,,
0.0,1.0,1.04674,0.0,34.0,34.0,34.0,1.0,stingray_02s.jpg,0.0,Yellow.png,6.0,121,,,,,,,,,,,,,,,,,
0.0,1.0,0.686495,0.0,35.0,35.0,35.0,1.0,harpoon.jpg,0.0,Green.png,6.0,121,,,,,,,,,,,,,,,,,
,,,,,,,,,1.0,,,121,0.0,0.0,2.66732,0.0,0.0,0.0,0.0,1.0,oil_02s.jpg,fork_04s.jpg,,,,,,,
,,,,,,,,,0.0,,,121,0.0,1.0,2.72541,0.0,1.0,1.0,1.0,1.0,doily_13s.jpg,limousine_12s.jpg,,,,,,,
,,,,,,,,,0.0,,,121,1.0,0.0,2.53881,0.0,2.0,2.0,2.0,1.0,lip_gloss_06s.jpg,omelet_07s.jpg,,,,,,,
,,,,,,,,,0.0,,,121,0.0,1.0,2.38715,0.0,3.0,3.0,3.0,1.0,tape_measure_11s.jpg,amber_04s.jpg,,,,,,,
,,,,,,,,,0.0,,,121,0.0,1.0,1.40838,0.0,4.0,4.0,4.0,1.0,tortilla_06s.jpg,clover_04s.jpg,,,,,,,
,,,,,,,,,0.0,,,121,0.0,1.0,1.998875,0.0,5.0,5.0,5.0,1.0,purse_05s.jpg,tinsel_12s.jpg,,,,,,,
,,,,,,,,,,,,121,,,,,,,,,,,0.0,5.0,5.0,5.0,1.0,new2backpresent_6_4.xlsx,new2back_compare_task_6_4.xlsx
0.0,1.0,1.382075,0.0,0.0,0.0,0.0,1.0,butter_14s.jpg,0.0,Blue.png,1.0,121,,,,,,,,,,,,,,,,,
0.0,1.0,0.86665,0.0,1.0,1.0,1.0,1.0,butter_14s.jpg,0.0,Purple.png,1.0,121,,,,,,,,,,,,,,,,,
1.0,1.0,0.747115,0.0,2.0,2.0,2.0,1.0,butter_14s.jpg,1.0,Red.png,1.0,121,,,,,,,,,,,,,,,,,
0.0,1.0,0.64784,0.0,3.0,3.0,3.0,1.0,stamp2_08s.jpg,0.0,Orange.png,1.0,121,,,,,,,,,,,,,,,,,
0.0,1.0,0.764305,0.0,4.0,4.0,4.0,1.0,kangaroo_02s.jpg,0.0,Yellow.png,1.0,121,,,,,,,,,,,,,,,,,
0.0,1.0,0.878815,0.0,5.0,5.0,5.0,1.0,camcorder_10s.jpg,0.0,Green.png,1.0,121,,,,,,,,,,,,,,,,,
0.0,1.0,0.794715,0.0,6.0,6.0,6.0,1.0,bank_06s.jpg,0.0,Blue.png,2.0,121,,,,,,,,,,,,,,,,,
0.0,1.0,1.043115,0.0,7.0,7.0,7.0,1.0,gear_07s.jpg,0.0,Purple.png,2.0,121,,,,,,,,,,,,,,,,,
1.0,1.0,0.995135,0.0,8.0,8.0,8.0,1.0,bank_06s.jpg,1.0,Red.png,2.0,121,,,,,,,,,,,,,,,,,
0.0,1.0,0.663955,0.0,9.0,9.0,9.0,1.0,funnel_01b.jpg,0.0,Orange.png,2.0,121,,,,,,,,,,,,,,,,,
0.0,1.0,0.80553,0.0,10.0,10.0,10.0,1.0,poinsettia_04s.jpg,0.0,Yellow.png,2.0,121,,,,,,,,,,,,,,,,,
1.0,1.0,0.876665,0.0,11.0,11.0,11.0,1.0,funnel_01b.jpg,1.0,Green.png,2.0,121,,,,,,,,,,,,,,,,,
0.0,1.0,0.726715,0.0,12.0,12.0,12.0,1.0,rooster_03s.jpg,0.0,Blue.png,3.0,121,,,,,,,,,,,,,,,,,
0.0,1.0,1.275155,0.0,13.0,13.0,13.0,1.0,denture_03s.jpg,0.0,Purple.png,3.0,121,,,,,,,,,,,,,,,,,
0.0,1.0,0.94713,0.0,14.0,14.0,14.0,1.0,bean_06s.jpg,0.0,Red.png,3.0,121,,,,,,,,,,,,,,,,,
0.0,1.0,0.83751,0.0,15.0,15.0,15.0,1.0,mud_13s.jpg,0.0,Orange.png,3.0,121,,,,,,,,,,,,,,,,,
0.0,1.0,0.89886,0.0,16.0,16.0,16.0,1.0,keyhole_03s.jpg,0.0,Yellow.png,3.0,121,,,,,,,,,,,,,,,,,
0.0,1.0,1.640515,0.0,17.0,17.0,17.0,1.0,bean_06s.jpg,0.0,Green.png,3.0,121,,,,,,,,,,,,,,,,,
0.0,1.0,0.914755,0.0,18.0,18.0,18.0,1.0,bank_06s.jpg,0.0,Blue.png,4.0,121,,,,,,,,,,,,,,,,,
0.0,1.0,0.881105,0.0,19.0,19.0,19.0,1.0,pomegranate_04s.jpg,0.0,Purple.png,4.0,121,,,,,,,,,,,,,,,,,
0.0,1.0,0.67608,0.0,20.0,20.0,20.0,1.0,chopsticks_08s.jpg,0.0,Red.png,4.0,121,,,,,,,,,,,,,,,,,
0.0,1.0,0.84542,0.0,21.0,21.0,21.0,1.0,contact_lens_15s.jpg,0.0,Orange.png,4.0,121,,,,,,,,,,,,,,,,,
0.0,1.0,1.07282,0.0,22.0,22.0,22.0,1.0,hydrant_10s.jpg,0.0,Yellow.png,4.0,121,,,,,,,,,,,,,,,,,
0.0,1.0,0.745295,0.0,23.0,23.0,23.0,1.0,gingerbread_man_03s.jpg,0.0,Green.png,4.0,121,,,,,,,,,,,,,,,,,
0.0,1.0,0.79621,0.0,24.0,24.0,24.0,1.0,camcorder_10s.jpg,0.0,Blue.png,5.0,121,,,,,,,,,,,,,,,,,
0.0,1.0,0.68092,0.0,25.0,25.0,25.0,1.0,teabag_12s.jpg,0.0,Purple.png,5.0,121,,,,,,,,,,,,,,,,,
0.0,1.0,0.88159,0.0,26.0,26.0,26.0,1.0,radiator_05s.jpg,0.0,Red.png,5.0,121,,,,,,,,,,,,,,,,,
0.0,1.0,0.757135,0.0,27.0,27.0,27.0,1.0,punch1_10s.jpg,0.0,Orange.png,5.0,121,,,,,,,,,,,,,,,,,
0.0,1.0,0.707865,0.0,28.0,28.0,28.0,1.0,mailbox_11s.jpg,0.0,Yellow.png,5.0,121,,,,,,,,,,,,,,,,,
0.0,1.0,0.68551,0.0,29.0,29.0,29.0,1.0,beaker_01b.jpg,0.0,Green.png,5.0,121,,,,,,,,,,,,,,,,,
1.0,1.0,1.57293,0.0,30.0,30.0,30.0,1.0,mailbox_11s.jpg,1.0,Blue.png,6.0,121,,,,,,,,,,,,,,,,,
0.0,1.0,0.634835,0.0,31.0,31.0,31.0,1.0,pipe1_10s.jpg,0.0,Purple.png,6.0,121,,,,,,,,,,,,,,,,,
1.0,1.0,1.209565,0.0,32.0,32.0,32.0,1.0,mailbox_11s.jpg,1.0,Red.png,6.0,121,,,,,,,,,,,,,,,,,
1.0,1.0,0.799305,0.0,33.0,33.0,33.0,1.0,pipe1_10s.jpg,1.0,Orange.png,6.0,121,,,,,,,,,,,,,,,,,
0.0,1.0,0.855695,0.0,34.0,34.0,34.0,1.0,eyedropper_12s.jpg,0.0,Yellow.png,6.0,121,,,,,,,,,,,,,,,,,
0.0,1.0,1.33109,0.0,35.0,35.0,35.0,1.0,rhubarb_03s.jpg,0.0,Green.png,6.0,121,,,,,,,,,,,,,,,,,
,,,,,,,,,0.0,,,121,0.0,1.0,2.19077,0.0,0.0,0.0,0.0,1.0,mud_13s.jpg,rooster_03s.jpg,,,,,,,
,,,,,,,,,1.0,,,121,1.0,1.0,1.67434,0.0,1.0,1.0,1.0,1.0,chopsticks_08s.jpg,gingerbread_man_03s.jpg,,,,,,,
,,,,,,,,,0.0,,,121,0.0,1.0,2.18032,0.0,2.0,2.0,2.0,1.0,beaker_01b.jpg,radiator_05s.jpg,,,,,,,
,,,,,,,,,0.0,,,121,0.0,1.0,1.674735,0.0,3.0,3.0,3.0,1.0,teabag_12s.jpg,hydrant_10s.jpg,,,,,,,
,,,,,,,,,0.0,,,121,0.0,1.0,2.3582,0.0,4.0,4.0,4.0,1.0,denture_03s.jpg,poinsettia_04s.jpg,,,,,,,
,,,,,,,,,1.0,,,121,1.0,1.0,1.4454,0.0,5.0,5.0,5.0,1.0,kangaroo_02s.jpg,gear_07s.jpg,,,,,,,
,,,,,,,,,,,,121,,,,,,,,,,,0.0,6.0,6.0,6.0,1.0,new2backpresent_7_4.xlsx,new2back_compare_task_7_4.xlsx
0.0,1.0,1.091455,0.0,0.0,0.0,0.0,1.0,lamppost_09s.jpg,0.0,Blue.png,1.0,121,,,,,,,,,,,,,,,,,
0.0,1.0,0.761815,0.0,1.0,1.0,1.0,1.0,jewel_01b.jpg,0.0,Purple.png,1.0,121,,,,,,,,,,,,,,,,,
0.0,1.0,0.6899,0.0,2.0,2.0,2.0,1.0,tuxedo_01b.jpg,0.0,Red.png,1.0,121,,,,,,,,,,,,,,,,,
0.0,1.0,0.72819,0.0,3.0,3.0,3.0,1.0,flip_flop_03s.jpg,0.0,Orange.png,1.0,121,,,,,,,,,,,,,,,,,
0.0,1.0,0.752135,0.0,4.0,4.0,4.0,1.0,medal_04s.jpg,0.0,Yellow.png,1.0,121,,,,,,,,,,,,,,,,,
1.0,1.0,0.79943,0.0,5.0,5.0,5.0,1.0,flip_flop_03s.jpg,1.0,Green.png,1.0,121,,,,,,,,,,,,,,,,,
0.0,1.0,0.85057,0.0,6.0,6.0,6.0,1.0,tuxedo_01b.jpg,0.0,Blue.png,2.0,121,,,,,,,,,,,,,,,,,
1.0,1.0,0.649145,0.0,7.0,7.0,7.0,1.0,flip_flop_03s.jpg,1.0,Purple.png,2.0,121,,,,,,,,,,,,,,,,,
0.0,1.0,1.278695,0.0,8.0,8.0,8.0,1.0,fireworks_18s.jpg,0.0,Red.png,2.0,121,,,,,,,,,,,,,,,,,
0.0,1.0,0.896625,0.0,9.0,9.0,9.0,1.0,squirt_gun_03s.jpg,0.0,Orange.png,2.0,121,,,,,,,,,,,,,,,,,
0.0,1.0,0.999805,0.0,10.0,10.0,10.0,1.0,flip_flop_03s.jpg,0.0,Yellow.png,2.0,121,,,,,,,,,,,,,,,,,
0.0,1.0,0.8167,0.0,11.0,11.0,11.0,1.0,puffin_19s.jpg,0.0,Green.png,2.0,121,,,,,,,,,,,,,,,,,
0.0,1.0,0.665595,0.0,12.0,12.0,12.0,1.0,tuxedo_01b.jpg,0.0,Blue.png,3.0,121,,,,,,,,,,,,,,,,,
0.0,1.0,1.745985,0.0,13.0,13.0,13.0,1.0,tuxedo_01b.jpg,0.0,Purple.png,3.0,121,,,,,,,,,,,,,,,,,
0.0,1.0,0.67632,0.0,14.0,14.0,14.0,1.0,snowman_02s.jpg,0.0,Red.png,3.0,121,,,,,,,,,,,,,,,,,
0.0,1.0,0.762085,0.0,15.0,15.0,15.0,1.0,cucumber_07s.jpg,0.0,Orange.png,3.0,121,,,,,,,,,,,,,,,,,
0.0,1.0,0.9471,0.0,16.0,16.0,16.0,1.0,plug_08s.jpg,0.0,Yellow.png,3.0,121,,,,,,,,,,,,,,,,,
1.0,1.0,0.998125,0.0,17.0,17.0,17.0,1.0,cucumber_07s.jpg,1.0,Green.png,3.0,121,,,,,,,,,,,,,,,,,
0.0,1.0,0.773465,0.0,18.0,18.0,18.0,1.0,puffin_19s.jpg,0.0,Blue.png,4.0,121,,,,,,,,,,,,,,,,,
0.0,1.0,0.66576,0.0,19.0,19.0,19.0,1.0,fondue_07s.jpg,0.0,Purple.png,4.0,121,,,,,,,,,,,,,,,,,
0.0,1.0,0.76322,0.0,20.0,20.0,20.0,1.0,lasagna_06s.jpg,0.0,Red.png,4.0,121,,,,,,,,,,,,,,,,,
0.0,1.0,0.7457,0.0,21.0,21.0,21.0,1.0,eiffeltower.jpg,0.0,Orange.png,4.0,121,,,,,,,,,,,,,,,,,
0.0,1.0,0.94645,0.0,22.0,22.0,22.0,1.0,outlet_10s.jpg,0.0,Yellow.png,4.0,121,,,,,,,,,,,,,,,,,
0.0,1.0,1.562375,0.0,23.0,23.0,23.0,1.0,cape_11s.jpg,0.0,Green.png,4.0,121,,,,,,,,,,,,,,,,,
0.0,1.0,0.876525,0.0,24.0,24.0,24.0,1.0,marshmallow_08s.jpg,0.0,Blue.png,5.0,121,,,,,,,,,,,,,,,,,
0.0,1.0,0.75967,0.0,25.0,25.0,25.0,1.0,racehorse_03s.jpg,0.0,Purple.png,5.0,121,,,,,,,,,,,,,,,,,
0.0,1.0,0.708695,0.0,26.0,26.0,26.0,1.0,aluminum_foil_08s.jpg,0.0,Red.png,5.0,121,,,,,,,,,,,,,,,,,
0.0,1.0,0.693705,0.0,27.0,27.0,27.0,1.0,spoon02a.jpg,0.0,Orange.png,5.0,121,,,,,,,,,,,,,,,,,
0.0,1.0,0.652665,0.0,28.0,28.0,28.0,1.0,padlock_07s.jpg,0.0,Yellow.png,5.0,121,,,,,,,,,,,,,,,,,
0.0,1.0,0.63911,0.0,29.0,29.0,29.0,1.0,solar_panel_02s.jpg,0.0,Green.png,5.0,121,,,,,,,,,,,,,,,,,
0.0,1.0,0.6362,0.0,30.0,30.0,30.0,1.0,turtleneck_11s.jpg,0.0,Blue.png,6.0,121,,,,,,,,,,,,,,,,,
0.0,1.0,0.655105,0.0,31.0,31.0,31.0,1.0,pocketknife_12s.jpg,0.0,Purple.png,6.0,121,,,,,,,,,,,,,,,,,
0.0,1.0,1.30967,0.0,32.0,32.0,32.0,1.0,pocketknife_12s.jpg,0.0,Red.png,6.0,121,,,,,,,,,,,,,,,,,
0.0,1.0,0.85175,0.0,33.0,33.0,33.0,1.0,quill_09s.jpg,0.0,Orange.png,6.0,121,,,,,,,,,,,,,,,,,
0.0,1.0,1.446395,0.0,34.0,34.0,34.0,1.0,quill_09s.jpg,0.0,Yellow.png,6.0,121,,,,,,,,,,,,,,,,,
0.0,1.0,1.024845,0.0,35.0,35.0,35.0,1.0,pocketknife_12s.jpg,0.0,Green.png,6.0,121,,,,,,,,,,,,,,,,,
,,,,,,,,,0.0,,,121,1.0,0.0,3.062625,0.0,0.0,0.0,0.0,1.0,cape_11s.jpg,lasagna_06s.jpg,,,,,,,
,,,,,,,,,0.0,,,121,1.0,0.0,2.59002,0.0,1.0,1.0,1.0,1.0,padlock_07s.jpg,racehorse_03s.jpg,,,,,,,
,,,,,,,,,1.0,,,121,1.0,1.0,2.250495,0.0,2.0,2.0,2.0,1.0,spoon02a.jpg,turtleneck_11s.jpg,,,,,,,
,,,,,,,,,0.0,,,121,0.0,1.0,2.137825,0.0,3.0,3.0,3.0,1.0,marshmallow_08s.jpg,eiffeltower.jpg,,,,,,,
,,,,,,,,,0.0,,,121,1.0,0.0,3.22256,0.0,4.0,4.0,4.0,1.0,medal_04s.jpg,jewel_01b.jpg,,,,,,,
,,,,,,,,,1.0,,,121,1.0,1.0,2.15657,0.0,5.0,5.0,5.0,1.0,plug_08s.jpg,fondue_07s.jpg,,,,,,,
,,,,,,,,,,,,121,,,,,,,,,,,0.0,7.0,7.0,7.0,1.0,new2backpresent_8_4.xlsx,new2back_compare_task_8_4.xlsx
0.0,1.0,1.11563,0.0,0.0,0.0,0.0,1.0,footprint_11s.jpg,0.0,Blue.png,1.0,121,,,,,,,,,,,,,,,,,
0.0,1.0,0.813155,0.0,1.0,1.0,1.0,1.0,coffee_filter_10s.jpg,0.0,Purple.png,1.0,121,,,,,,,,,,,,,,,,,
0.0,1.0,0.995125,0.0,2.0,2.0,2.0,1.0,coffee_filter_10s.jpg,0.0,Red.png,1.0,121,,,,,,,,,,,,,,,,,
1.0,1.0,0.89803,0.0,3.0,3.0,3.0,1.0,coffee_filter_10s.jpg,1.0,Orange.png,1.0,121,,,,,,,,,,,,,,,,,
1.0,1.0,0.57886,0.0,4.0,4.0,4.0,1.0,coffee_filter_10s.jpg,1.0,Yellow.png,1.0,121,,,,,,,,,,,,,,,,,
0.0,1.0,1.15892,0.0,5.0,5.0,5.0,1.0,gargoyle_08s.jpg,0.0,Green.png,1.0,121,,,,,,,,,,,,,,,,,
0.0,1.0,0.69856,0.0,6.0,6.0,6.0,1.0,candy_cane_06s.jpg,0.0,Blue.png,2.0,121,,,,,,,,,,,,,,,,,
0.0,1.0,0.86192,0.0,7.0,7.0,7.0,1.0,toad_09s.jpg,0.0,Purple.png,2.0,121,,,,,,,,,,,,,,,,,
1.0,1.0,0.861555,0.0,8.0,8.0,8.0,1.0,candy_cane_06s.jpg,1.0,Red.png,2.0,121,,,,,,,,,,,,,,,,,
0.0,1.0,0.67576,0.0,9.0,9.0,9.0,1.0,pumpkin_03s.jpg,0.0,Orange.png,2.0,121,,,,,,,,,,,,,,,,,
0.0,1.0,0.67928,0.0,10.0,10.0,10.0,1.0,dashboard_02s.jpg,0.0,Yellow.png,2.0,121,,,,,,,,,,,,,,,,,
0.0,1.0,0.621795,0.0,11.0,11.0,11.0,1.0,syringe_02s.jpg,0.0,Green.png,2.0,121,,,,,,,,,,,,,,,,,
0.0,1.0,0.70517,0.0,12.0,12.0,12.0,1.0,powder_07s.jpg,0.0,Blue.png,3.0,121,,,,,,,,,,,,,,,,,
0.0,1.0,1.15562,0.0,13.0,13.0,13.0,1.0,powder_07s.jpg,0.0,Purple.png,3.0,121,,,,,,,,,,,,,,,,,
1.0,1.0,1.43202,0.0,14.0,14.0,14.0,1.0,powder_07s.jpg,1.0,Red.png,3.0,121,,,,,,,,,,,,,,,,,
0.0,1.0,0.614615,0.0,15.0,15.0,15.0,1.0,sea_urchin_09s.jpg,0.0,Orange.png,3.0,121,,,,,,,,,,,,,,,,,
0.0,1.0,0.71696,0.0,16.0,16.0,16.0,1.0,throne_11s.jpg,0.0,Yellow.png,3.0,121,,,,,,,,,,,,,,,,,
0.0,1.0,1.007575,0.0,17.0,17.0,17.0,1.0,powder_07s.jpg,0.0,Green.png,3.0,121,,,,,,,,,,,,,,,,,
0.0,1.0,0.7424,0.0,18.0,18.0,18.0,1.0,chalice_10s.jpg,0.0,Blue.png,4.0,121,,,,,,,,,,,,,,,,,
0.0,1.0,0.74964,0.0,19.0,19.0,19.0,1.0,air_pump_05s.jpg,0.0,Purple.png,4.0,121,,,,,,,,,,,,,,,,,
0.0,1.0,0.784265,0.0,20.0,20.0,20.0,1.0,microwave_02s.jpg,0.0,Red.png,4.0,121,,,,,,,,,,,,,,,,,
0.0,1.0,0.981675,0.0,21.0,21.0,21.0,1.0,cereal_04s.jpg,0.0,Orange.png,4.0,121,,,,,,,,,,,,,,,,,
0.0,1.0,0.71965,0.0,22.0,22.0,22.0,1.0,mushroom_10n.jpg,0.0,Yellow.png,4.0,121,,,,,,,,,,,,,,,,,
0.0,1.0,0.725015,0.0,23.0,23.0,23.0,1.0,red_carpet_03s.jpg,0.0,Green.png,4.0,121,,,,,,,,,,,,,,,,,
0.0,1.0,0.83995,0.0,24.0,24.0,24.0,1.0,throne_11s.jpg,0.0,Blue.png,5.0,121,,,,,,,,,,,,,,,,,
0.0,1.0,0.67044,0.0,25.0,25.0,25.0,1.0,koala_13s.jpg,0.0,Purple.png,5.0,121,,,,,,,,,,,,,,,,,
1.0,1.0,0.68304,0.0,26.0,26.0,26.0,1.0,throne_11s.jpg,1.0,Red.png,5.0,121,,,,,,,,,,,,,,,,,
0.0,1.0,0.639875,0.0,27.0,27.0,27.0,1.0,rocket_02s.jpg,0.0,Orange.png,5.0,121,,,,,,,,,,,,,,,,,
0.0,1.0,0.630485,0.0,28.0,28.0,28.0,1.0,swordfish_05s.jpg,0.0,Yellow.png,5.0,121,,,,,,,,,,,,,,,,,
1.0,1.0,0.925965,0.0,29.0,29.0,29.0,1.0,rocket_02s.jpg,1.0,Green.png,5.0,121,,,,,,,,,,,,,,,,,
0.0,1.0,1.31418,0.0,30.0,30.0,30.0,1.0,icicle_04s.jpg,0.0,Blue.png,6.0,121,,,,,,,,,,,,,,,,,
0.0,1.0,1.343915,0.0,31.0,31.0,31.0,1.0,keyboard_05s.jpg,0.0,Purple.png,6.0,121,,,,,,,,,,,,,,,,,
0.0,1.0,0.711605,0.0,32.0,32.0,32.0,1.0,pocket_watch_16s.jpg,0.0,Red.png,6.0,121,,,,,,,,,,,,,,,,,
0.0,1.0,0.795535,0.0,33.0,33.0,33.0,1.0,tablet_04s.jpg,0.0,Orange.png,6.0,121,,,,,,,,,,,,,,,,,
0.0,1.0,0.76415,0.0,34.0,34.0,34.0,1.0,chocolate_01b.jpg,0.0,Yellow.png,6.0,121,,,,,,,,,,,,,,,,,
0.0,1.0,0.682115,0.0,35.0,35.0,35.0,1.0,light_switch_02s.jpg,0.0,Green.png,6.0,121,,,,,,,,,,,,,,,,,
,,,,,,,,,0.0,,,121,0.0,1.0,2.395655,0.0,0.0,0.0,0.0,1.0,chalice_10s.jpg,sea_urchin_09s.jpg,,,,,,,
,,,,,,,,,1.0,,,121,1.0,1.0,1.841445,0.0,1.0,1.0,1.0,1.0,swordfish_05s.jpg,keyboard_05s.jpg,,,,,,,
,,,,,,,,,0.0,,,121,0.0,1.0,2.471175,0.0,2.0,2.0,2.0,1.0,red_carpet_03s.jpg,microwave_02s.jpg,,,,,,,
,,,,,,,,,0.0,,,121,1.0,0.0,2.346075,0.0,3.0,3.0,3.0,1.0,dashboard_02s.jpg,toad_09s.jpg,,,,,,,
,,,,,,,,,0.0,,,121,0.0,1.0,2.124485,0.0,4.0,4.0,4.0,1.0,koala_13s.jpg,mushroom_10n.jpg,,,,,,,
,,,,,,,,,1.0,,,121,1.0,1.0,1.708845,0.0,5.0,5.0,5.0,1.0,icicle_04s.jpg,tablet_04s.jpg,,,,,,,
,,,,,,,,,,,,121,,,,,,,,,,,0.0,8.0,8.0,8.0,1.0,new2backpresent_9_4.xlsx,new2back_compare_task_9_4.xlsx
