key_resp.keys,key_resp.corr,key_resp.rt,present_segment.thisRepN,present_segment.thisTrialN,present_segment.thisN,present_segment.thisIndex,present_segment.ran,pictures,answer,clock,segment,participant,key_resp_2.keys,key_resp_2.corr,key_resp_2.rt,compare_segment.thisRepN,compare_segment.thisTrialN,compare_segment.thisN,compare_segment.thisIndex,compare_segment.ran,item_a,item_b,clock_conditions.thisRepN,clock_conditions.thisTrialN,clock_conditions.thisN,clock_conditions.thisIndex,clock_conditions.ran,present,compare
0.0,1.0,1.49543,0.0,0.0,0.0,0.0,1.0,mirror_12s.jpg,0.0,Blue.png,1.0,133,,,,,,,,,,,,,,,,,
0.0,1.0,1.472765,0.0,1.0,1.0,1.0,1.0,polaroid_05s.jpg,0.0,Purple.png,1.0,133,,,,,,,,,,,,,,,,,
1.0,1.0,1.41382,0.0,2.0,2.0,2.0,1.0,polaroid_05s.jpg,1.0,Red.png,1.0,133,,,,,,,,,,,,,,,,,
0.0,1.0,1.034825,0.0,3.0,3.0,3.0,1.0,slingshot_07s.jpg,0.0,Orange.png,1.0,133,,,,,,,,,,,,,,,,,
1.0,1.0,0.700845,0.0,4.0,4.0,4.0,1.0,polaroid_05s.jpg,1.0,Yellow.png,1.0,133,,,,,,,,,,,,,,,,,
0.0,1.0,0.687405,0.0,5.0,5.0,5.0,1.0,kettle_08s.jpg,0.0,Green.png,1.0,133,,,,,,,,,,,,,,,,,
0.0,1.0,0.56992,0.0,6.0,6.0,6.0,1.0,crystal_ball_12s.jpg,0.0,Blue.png,2.0,133,,,,,,,,,,,,,,,,,
,0.0,,0.0,7.0,7.0,7.0,1.0,iron_13s.jpg,0.0,Purple.png,2.0,133,,,,,,,,,,,,,,,,,
0.0,1.0,0.767615,0.0,8.0,8.0,8.0,1.0,saddle_06s.jpg,0.0,Red.png,2.0,133,,,,,,,,,,,,,,,,,
0.0,1.0,0.66678,0.0,9.0,9.0,9.0,1.0,mango_09s.jpg,0.0,Orange.png,2.0,133,,,,,,,,,,,,,,,,,
0.0,1.0,0.600655,0.0,10.0,10.0,10.0,1.0,ostrich_06s.jpg,0.0,Yellow.png,2.0,133,,,,,,,,,,,,,,,,,
0.0,0.0,1.38699,0.0,11.0,11.0,11.0,1.0,iron_13s.jpg,1.0,Green.png,2.0,133,,,,,,,,,,,,,,,,,
0.0,1.0,0.62162,0.0,12.0,12.0,12.0,1.0,stethoscope_01b.jpg,0.0,Blue.png,3.0,133,,,,,,,,,,,,,,,,,
0.0,1.0,0.60033,0.0,13.0,13.0,13.0,1.0,ruby_15s.jpg,0.0,Purple.png,3.0,133,,,,,,,,,,,,,,,,,
1.0,0.0,1.23438,0.0,14.0,14.0,14.0,1.0,mango_09s.jpg,0.0,Red.png,3.0,133,,,,,,,,,,,,,,,,,
0.0,1.0,0.61581,0.0,15.0,15.0,15.0,1.0,target_11s.jpg,0.0,Orange.png,3.0,133,,,,,,,,,,,,,,,,,
1.0,1.0,0.767595,0.0,16.0,16.0,16.0,1.0,mango_09s.jpg,1.0,Yellow.png,3.0,133,,,,,,,,,,,,,,,,,
0.0,1.0,0.9007,0.0,17.0,17.0,17.0,1.0,compass_10n.jpg,0.0,Green.png,3.0,133,,,,,,,,,,,,,,,,,
0.0,1.0,0.599975,0.0,18.0,18.0,18.0,1.0,meatball_13s.jpg,0.0,Blue.png,4.0,133,,,,,,,,,,,,,,,,,
0.0,1.0,0.94862,0.0,19.0,19.0,19.0,1.0,stapler_01b.jpg,0.0,Purple.png,4.0,133,,,,,,,,,,,,,,,,,
1.0,1.0,1.684445,0.0,20.0,20.0,20.0,1.0,meatball_13s.jpg,1.0,Red.png,4.0,133,,,,,,,,,,,,,,,,,
0.0,1.0,1.091115,0.0,21.0,21.0,21.0,1.0,pump_11s.jpg,0.0,Orange.png,4.0,133,,,,,,,,,,,,,,,,,
0.0,1.0,0.66719,0.0,22.0,22.0,22.0,1.0,coral_08s.jpg,0.0,Yellow.png,4.0,133,,,,,,,,,,,,,,,,,
1.0,1.0,0.80073,0.0,23.0,23.0,23.0,1.0,meatball_13s.jpg,1.0,Green.png,4.0,133,,,,,,,,,,,,,,,,,
0.0,1.0,0.68349,0.0,24.0,24.0,24.0,1.0,peach_04s.jpg,0.0,Blue.png,5.0,133,,,,,,,,,,,,,,,,,
1.0,0.0,0.683595,0.0,25.0,25.0,25.0,1.0,meatball_13s.jpg,0.0,Purple.png,5.0,133,,,,,,,,,,,,,,,,,
0.0,1.0,0.83434,0.0,26.0,26.0,26.0,1.0,pie_08s.jpg,0.0,Red.png,5.0,133,,,,,,,,,,,,,,,,,
0.0,1.0,0.875445,0.0,27.0,27.0,27.0,1.0,rollerskate_03s.jpg,0.0,Orange.png,5.0,133,,,,,,,,,,,,,,,,,
0.0,1.0,0.734515,0.0,28.0,28.0,28.0,1.0,trampoline_13s.jpg,0.0,Yellow.png,5.0,133,,,,,,,,,,,,,,,,,
0.0,1.0,0.6337,0.0,29.0,29.0,29.0,1.0,undershirt_02s.jpg,0.0,Green.png,5.0,133,,,,,,,,,,,,,,,,,
0.0,1.0,0.735585,0.0,30.0,30.0,30.0,1.0,thread_08s.jpg,0.0,Blue.png,6.0,133,,,,,,,,,,,,,,,,,
0.0,1.0,0.6183,0.0,31.0,31.0,31.0,1.0,megaphone_03s.jpg,0.0,Purple.png,6.0,133,,,,,,,,,,,,,,,,,
0.0,1.0,0.700895,0.0,32.0,32.0,32.0,1.0,plaster_cast_13s.jpg,0.0,Red.png,6.0,133,,,,,,,,,,,,,,,,,
0.0,1.0,1.335495,0.0,33.0,33.0,33.0,1.0,diving_board_07s.jpg,0.0,Orange.png,6.0,133,,,,,,,,,,,,,,,,,
0.0,1.0,0.80566,0.0,34.0,34.0,34.0,1.0,kayak_08s.jpg,0.0,Yellow.png,6.0,133,,,,,,,,,,,,,,,,,
0.0,0.0,0.601395,0.0,35.0,35.0,35.0,1.0,diving_board_07s.jpg,1.0,Green.png,6.0,133,,,,,,,,,,,,,,,,,
,,,,,,,,,1.0,,,133,0.0,0.0,2.52618,0.0,0.0,0.0,0.0,1.0,stapler_01b.jpg,coral_08s.jpg,,,,,,,
,,,,,,,,,1.0,,,133,1.0,1.0,0.952045,0.0,1.0,1.0,1.0,1.0,slingshot_07s.jpg,crystal_ball_12s.jpg,,,,,,,
,,,,,,,,,0.0,,,133,1.0,0.0,1.153125,0.0,2.0,2.0,2.0,1.0,saddle_06s.jpg,kettle_08s.jpg,,,,,,,
,,,,,,,,,1.0,,,133,1.0,1.0,1.031505,0.0,3.0,3.0,3.0,1.0,pie_08s.jpg,undershirt_02s.jpg,,,,,,,
,,,,,,,,,1.0,,,133,1.0,1.0,1.035235,0.0,4.0,4.0,4.0,1.0,stethoscope_01b.jpg,target_11s.jpg,,,,,,,
,,,,,,,,,1.0,,,133,0.0,0.0,1.20094,0.0,5.0,5.0,5.0,1.0,ostrich_06s.jpg,ruby_15s.jpg,,,,,,,
,,,,,,,,,,,,133,,,,,,,,,,,0.0,0.0,0.0,0.0,1.0,newclockpresent_1_4.xlsx,newclock_compare_task_1_4.xlsx
0.0,1.0,0.87959,0.0,0.0,0.0,0.0,1.0,jetski_10s.jpg,0.0,Blue.png,1.0,133,,,,,,,,,,,,,,,,,
0.0,1.0,0.99621,0.0,1.0,1.0,1.0,1.0,tripod_01b.jpg,0.0,Purple.png,1.0,133,,,,,,,,,,,,,,,,,
0.0,1.0,0.63794,0.0,2.0,2.0,2.0,1.0,lab_coat_11s.jpg,0.0,Red.png,1.0,133,,,,,,,,,,,,,,,,,
0.0,1.0,0.73828,0.0,3.0,3.0,3.0,1.0,foam_03s.jpg,0.0,Orange.png,1.0,133,,,,,,,,,,,,,,,,,
0.0,1.0,0.682445,0.0,4.0,4.0,4.0,1.0,crate_05s.jpg,0.0,Yellow.png,1.0,133,,,,,,,,,,,,,,,,,
0.0,1.0,0.69577,0.0,5.0,5.0,5.0,1.0,margarita_03s.jpg,0.0,Green.png,1.0,133,,,,,,,,,,,,,,,,,
0.0,1.0,0.80779,0.0,6.0,6.0,6.0,1.0,joystick_01b.jpg,0.0,Blue.png,2.0,133,,,,,,,,,,,,,,,,,
0.0,1.0,0.80813,0.0,7.0,7.0,7.0,1.0,giraffe_11s.jpg,0.0,Purple.png,2.0,133,,,,,,,,,,,,,,,,,
0.0,1.0,0.64245,0.0,8.0,8.0,8.0,1.0,quilt_03s.jpg,0.0,Red.png,2.0,133,,,,,,,,,,,,,,,,,
1.0,1.0,1.053855,0.0,9.0,9.0,9.0,1.0,giraffe_11s.jpg,1.0,Orange.png,2.0,133,,,,,,,,,,,,,,,,,
0.0,1.0,0.626395,0.0,10.0,10.0,10.0,1.0,pincushion_10s.jpg,0.0,Yellow.png,2.0,133,,,,,,,,,,,,,,,,,
1.0,1.0,0.62553,0.0,11.0,11.0,11.0,1.0,giraffe_11s.jpg,1.0,Green.png,2.0,133,,,,,,,,,,,,,,,,,
1.0,0.0,0.845235,0.0,12.0,12.0,12.0,1.0,pincushion_10s.jpg,0.0,Blue.png,3.0,133,,,,,,,,,,,,,,,,,
1.0,0.0,0.61913,0.0,13.0,13.0,13.0,1.0,giraffe_11s.jpg,0.0,Purple.png,3.0,133,,,,,,,,,,,,,,,,,
0.0,1.0,0.609605,0.0,14.0,14.0,14.0,1.0,rolling_pin_02s.jpg,0.0,Red.png,3.0,133,,,,,,,,,,,,,,,,,
0.0,1.0,0.876475,0.0,15.0,15.0,15.0,1.0,ticktacktoe_08s.jpg,0.0,Orange.png,3.0,133,,,,,,,,,,,,,,,,,
1.0,1.0,0.48452,0.0,16.0,16.0,16.0,1.0,giraffe_11s.jpg,1.0,Yellow.png,3.0,133,,,,,,,,,,,,,,,,,
1.0,1.0,0.76801,0.0,17.0,17.0,17.0,1.0,ticktacktoe_08s.jpg,1.0,Green.png,3.0,133,,,,,,,,,,,,,,,,,
0.0,1.0,0.81542,0.0,18.0,18.0,18.0,1.0,typewriter_11s.jpg,0.0,Blue.png,4.0,133,,,,,,,,,,,,,,,,,
0.0,1.0,0.776985,0.0,19.0,19.0,19.0,1.0,toothpaste_12s.jpg,0.0,Purple.png,4.0,133,,,,,,,,,,,,,,,,,
0.0,1.0,0.67413,0.0,20.0,20.0,20.0,1.0,hummingbird_05s.jpg,0.0,Red.png,4.0,133,,,,,,,,,,,,,,,,,
1.0,1.0,0.677345,0.0,21.0,21.0,21.0,1.0,toothpaste_12s.jpg,1.0,Orange.png,4.0,133,,,,,,,,,,,,,,,,,
1.0,1.0,0.84761,0.0,22.0,22.0,22.0,1.0,toothpaste_12s.jpg,1.0,Yellow.png,4.0,133,,,,,,,,,,,,,,,,,
0.0,1.0,0.60165,0.0,23.0,23.0,23.0,1.0,treadmill_06s.jpg,0.0,Green.png,4.0,133,,,,,,,,,,,,,,,,,
1.0,0.0,0.78507,0.0,24.0,24.0,24.0,1.0,typewriter_11s.jpg,0.0,Blue.png,5.0,133,,,,,,,,,,,,,,,,,
0.0,1.0,0.68225,0.0,25.0,25.0,25.0,1.0,penguin_16s.jpg,0.0,Purple.png,5.0,133,,,,,,,,,,,,,,,,,
0.0,1.0,0.64426,0.0,26.0,26.0,26.0,1.0,olive_05s.jpg,0.0,Red.png,5.0,133,,,,,,,,,,,,,,,,,
1.0,1.0,0.705085,0.0,27.0,27.0,27.0,1.0,penguin_16s.jpg,1.0,Orange.png,5.0,133,,,,,,,,,,,,,,,,,
1.0,1.0,1.078975,0.0,28.0,28.0,28.0,1.0,penguin_16s.jpg,1.0,Yellow.png,5.0,133,,,,,,,,,,,,,,,,,
0.0,1.0,0.907365,0.0,29.0,29.0,29.0,1.0,tab_09s.jpg,0.0,Green.png,5.0,133,,,,,,,,,,,,,,,,,
0.0,1.0,0.657475,0.0,30.0,30.0,30.0,1.0,frame_06s.jpg,0.0,Blue.png,6.0,133,,,,,,,,,,,,,,,,,
0.0,1.0,0.651475,0.0,31.0,31.0,31.0,1.0,mop_08s.jpg,0.0,Purple.png,6.0,133,,,,,,,,,,,,,,,,,
0.0,1.0,0.68875,0.0,32.0,32.0,32.0,1.0,memory_stick_11s.jpg,0.0,Red.png,6.0,133,,,,,,,,,,,,,,,,,
1.0,0.0,1.05997,0.0,33.0,33.0,33.0,1.0,olive_05s.jpg,0.0,Orange.png,6.0,133,,,,,,,,,,,,,,,,,
0.0,1.0,0.639425,0.0,34.0,34.0,34.0,1.0,ravioli_08s.jpg,0.0,Yellow.png,6.0,133,,,,,,,,,,,,,,,,,
0.0,1.0,0.680815,0.0,35.0,35.0,35.0,1.0,mousetrap_15n.jpg,0.0,Green.png,6.0,133,,,,,,,,,,,,,,,,,
,,,,,,,,,1.0,,,133,0.0,0.0,1.649355,0.0,0.0,0.0,0.0,1.0,hummingbird_05s.jpg,treadmill_06s.jpg,,,,,,,
,,,,,,,,,1.0,,,133,1.0,1.0,1.4138,0.0,1.0,1.0,1.0,1.0,margarita_03s.jpg,quilt_03s.jpg,,,,,,,
,,,,,,,,,0.0,,,133,0.0,1.0,1.81395,0.0,2.0,2.0,2.0,1.0,joystick_01b.jpg,foam_03s.jpg,,,,,,,
,,,,,,,,,0.0,,,133,1.0,0.0,1.278275,0.0,3.0,3.0,3.0,1.0,ravioli_08s.jpg,mop_08s.jpg,,,,,,,
,,,,,,,,,1.0,,,133,0.0,0.0,1.63171,0.0,4.0,4.0,4.0,1.0,tab_09s.jpg,memory_stick_11s.jpg,,,,,,,
,,,,,,,,,1.0,,,133,0.0,0.0,1.0049,0.0,5.0,5.0,5.0,1.0,tripod_01b.jpg,crate_05s.jpg,,,,,,,
,,,,,,,,,,,,133,,,,,,,,,,,0.0,1.0,1.0,1.0,1.0,newclockpresent_2_4.xlsx,newclock_compare_task_2_4.xlsx
0.0,1.0,0.98531,0.0,0.0,0.0,0.0,1.0,safety_pin_02s.jpg,0.0,Blue.png,1.0,133,,,,,,,,,,,,,,,,,
1.0,1.0,2.36611,0.0,1.0,1.0,1.0,1.0,safety_pin_02s.jpg,1.0,Purple.png,1.0,133,,,,,,,,,,,,,,,,,
0.0,1.0,1.286995,0.0,2.0,2.0,2.0,1.0,cardinal_07s.jpg,0.0,Red.png,1.0,133,,,,,,,,,,,,,,,,,
1.0,1.0,0.728175,0.0,3.0,3.0,3.0,1.0,safety_pin_02s.jpg,1.0,Orange.png,1.0,133,,,,,,,,,,,,,,,,,
0.0,1.0,0.88023,0.0,4.0,4.0,4.0,1.0,potholder_02s.jpg,0.0,Yellow.png,1.0,133,,,,,,,,,,,,,,,,,
1.0,1.0,0.809675,0.0,5.0,5.0,5.0,1.0,safety_pin_02s.jpg,1.0,Green.png,1.0,133,,,,,,,,,,,,,,,,,
1.0,0.0,1.28203,0.0,6.0,6.0,6.0,1.0,cardinal_07s.jpg,0.0,Blue.png,2.0,133,,,,,,,,,,,,,,,,,
0.0,1.0,0.63396,0.0,7.0,7.0,7.0,1.0,lion_18s.jpg,0.0,Purple.png,2.0,133,,,,,,,,,,,,,,,,,
0.0,1.0,0.642745,0.0,8.0,8.0,8.0,1.0,comic_book_02s.jpg,0.0,Red.png,2.0,133,,,,,,,,,,,,,,,,,
0.0,1.0,0.68643,0.0,9.0,9.0,9.0,1.0,lizard_10n.jpg,0.0,Orange.png,2.0,133,,,,,,,,,,,,,,,,,
0.0,1.0,0.548775,0.0,10.0,10.0,10.0,1.0,rice_12s.jpg,0.0,Yellow.png,2.0,133,,,,,,,,,,,,,,,,,
0.0,1.0,0.539475,0.0,11.0,11.0,11.0,1.0,bagel_15s.jpg,0.0,Green.png,2.0,133,,,,,,,,,,,,,,,,,
0.0,1.0,0.5402,0.0,12.0,12.0,12.0,1.0,recliner_02s.jpg,0.0,Blue.png,3.0,133,,,,,,,,,,,,,,,,,
1.0,1.0,1.09598,0.0,13.0,13.0,13.0,1.0,recliner_02s.jpg,1.0,Purple.png,3.0,133,,,,,,,,,,,,,,,,,
0.0,1.0,1.09512,0.0,14.0,14.0,14.0,1.0,luggage_08s.jpg,0.0,Red.png,3.0,133,,,,,,,,,,,,,,,,,
1.0,1.0,0.6483,0.0,15.0,15.0,15.0,1.0,recliner_02s.jpg,1.0,Orange.png,3.0,133,,,,,,,,,,,,,,,,,
0.0,1.0,0.556445,0.0,16.0,16.0,16.0,1.0,onion_10s.jpg,0.0,Yellow.png,3.0,133,,,,,,,,,,,,,,,,,
0.0,1.0,0.675015,0.0,17.0,17.0,17.0,1.0,rosary_03s.jpg,0.0,Green.png,3.0,133,,,,,,,,,,,,,,,,,
0.0,1.0,0.77941,0.0,18.0,18.0,18.0,1.0,smokingpipe.jpg,0.0,Blue.png,4.0,133,,,,,,,,,,,,,,,,,
0.0,1.0,0.64625,0.0,19.0,19.0,19.0,1.0,roulette_wheel_04s.jpg,0.0,Purple.png,4.0,133,,,,,,,,,,,,,,,,,
1.0,1.0,0.75979,0.0,20.0,20.0,20.0,1.0,smokingpipe.jpg,1.0,Red.png,4.0,133,,,,,,,,,,,,,,,,,
0.0,1.0,0.655025,0.0,21.0,21.0,21.0,1.0,orchid_01b.jpg,0.0,Orange.png,4.0,133,,,,,,,,,,,,,,,,,
0.0,1.0,0.56699,0.0,22.0,22.0,22.0,1.0,buoy_04s.jpg,0.0,Yellow.png,4.0,133,,,,,,,,,,,,,,,,,
0.0,1.0,0.694385,0.0,23.0,23.0,23.0,1.0,stopwatch_04s.jpg,0.0,Green.png,4.0,133,,,,,,,,,,,,,,,,,
0.0,1.0,0.75082,0.0,24.0,24.0,24.0,1.0,knitting_needle_04s.jpg,0.0,Blue.png,5.0,133,,,,,,,,,,,,,,,,,
0.0,1.0,0.598395,0.0,25.0,25.0,25.0,1.0,prism_10s.jpg,0.0,Purple.png,5.0,133,,,,,,,,,,,,,,,,,
0.0,1.0,0.632315,0.0,26.0,26.0,26.0,1.0,teapot_03s.jpg,0.0,Red.png,5.0,133,,,,,,,,,,,,,,,,,
0.0,1.0,0.63519,0.0,27.0,27.0,27.0,1.0,fire_pit_10s.jpg,0.0,Orange.png,5.0,133,,,,,,,,,,,,,,,,,
1.0,1.0,0.728645,0.0,28.0,28.0,28.0,1.0,fire_pit_10s.jpg,1.0,Yellow.png,5.0,133,,,,,,,,,,,,,,,,,
1.0,1.0,0.638185,0.0,29.0,29.0,29.0,1.0,fire_pit_10s.jpg,1.0,Green.png,5.0,133,,,,,,,,,,,,,,,,,
0.0,1.0,0.742825,0.0,30.0,30.0,30.0,1.0,ironing_board_07s.jpg,0.0,Blue.png,6.0,133,,,,,,,,,,,,,,,,,
1.0,0.0,1.11728,0.0,31.0,31.0,31.0,1.0,fire_pit_10s.jpg,0.0,Purple.png,6.0,133,,,,,,,,,,,,,,,,,
0.0,1.0,0.71252,0.0,32.0,32.0,32.0,1.0,mattress_01s.jpg,0.0,Red.png,6.0,133,,,,,,,,,,,,,,,,,
1.0,1.0,0.55676,0.0,33.0,33.0,33.0,1.0,fire_pit_10s.jpg,1.0,Orange.png,6.0,133,,,,,,,,,,,,,,,,,
1.0,1.0,0.869595,0.0,34.0,34.0,34.0,1.0,mattress_01s.jpg,1.0,Yellow.png,6.0,133,,,,,,,,,,,,,,,,,
0.0,1.0,0.907055,0.0,35.0,35.0,35.0,1.0,ice-cream_cone_06s.jpg,0.0,Green.png,6.0,133,,,,,,,,,,,,,,,,,
,,,,,,,,,1.0,,,133,1.0,1.0,1.434135,0.0,0.0,0.0,0.0,1.0,roulette_wheel_04s.jpg,buoy_04s.jpg,,,,,,,
,,,,,,,,,0.0,,,133,1.0,0.0,1.2995,0.0,1.0,1.0,1.0,1.0,lion_18s.jpg,potholder_02s.jpg,,,,,,,
,,,,,,,,,0.0,,,133,1.0,0.0,1.40185,0.0,2.0,2.0,2.0,1.0,bagel_15s.jpg,comic_book_02s.jpg,,,,,,,
,,,,,,,,,1.0,,,133,0.0,0.0,1.58593,0.0,3.0,3.0,3.0,1.0,stopwatch_04s.jpg,teapot_03s.jpg,,,,,,,
,,,,,,,,,1.0,,,133,0.0,0.0,1.485405,0.0,4.0,4.0,4.0,1.0,luggage_08s.jpg,rosary_03s.jpg,,,,,,,
,,,,,,,,,1.0,,,133,1.0,1.0,1.55254,0.0,5.0,5.0,5.0,1.0,orchid_01b.jpg,knitting_needle_04s.jpg,,,,,,,
,,,,,,,,,,,,133,,,,,,,,,,,0.0,2.0,2.0,2.0,1.0,newclockpresent_3_4.xlsx,newclock_compare_task_3_4.xlsx
0.0,1.0,0.90026,0.0,0.0,0.0,0.0,1.0,smoothie_09s.jpg,0.0,Blue.png,1.0,133,,,,,,,,,,,,,,,,,
0.0,1.0,0.71784,0.0,1.0,1.0,1.0,1.0,raspberry_12s.jpg,0.0,Purple.png,1.0,133,,,,,,,,,,,,,,,,,
1.0,1.0,0.817585,0.0,2.0,2.0,2.0,1.0,raspberry_12s.jpg,1.0,Red.png,1.0,133,,,,,,,,,,,,,,,,,
0.0,1.0,0.68402,0.0,3.0,3.0,3.0,1.0,lamb_chop_07s.jpg,0.0,Orange.png,1.0,133,,,,,,,,,,,,,,,,,
1.0,1.0,0.91877,0.0,4.0,4.0,4.0,1.0,smoothie_09s.jpg,1.0,Yellow.png,1.0,133,,,,,,,,,,,,,,,,,
1.0,1.0,0.751165,0.0,5.0,5.0,5.0,1.0,raspberry_12s.jpg,1.0,Green.png,1.0,133,,,,,,,,,,,,,,,,,
0.0,1.0,0.735265,0.0,6.0,6.0,6.0,1.0,lava_02s.jpg,0.0,Blue.png,2.0,133,,,,,,,,,,,,,,,,,
0.0,1.0,0.685875,0.0,7.0,7.0,7.0,1.0,trident_07s.jpg,0.0,Purple.png,2.0,133,,,,,,,,,,,,,,,,,
1.0,1.0,0.76067,0.0,8.0,8.0,8.0,1.0,trident_07s.jpg,1.0,Red.png,2.0,133,,,,,,,,,,,,,,,,,
1.0,1.0,0.791295,0.0,9.0,9.0,9.0,1.0,trident_07s.jpg,1.0,Orange.png,2.0,133,,,,,,,,,,,,,,,,,
0.0,1.0,0.64906,0.0,10.0,10.0,10.0,1.0,orangutan_03s.jpg,0.0,Yellow.png,2.0,133,,,,,,,,,,,,,,,,,
1.0,1.0,0.61535,0.0,11.0,11.0,11.0,1.0,trident_07s.jpg,1.0,Green.png,2.0,133,,,,,,,,,,,,,,,,,
1.0,0.0,0.73977,0.0,12.0,12.0,12.0,1.0,raspberry_12s.jpg,0.0,Blue.png,3.0,133,,,,,,,,,,,,,,,,,
1.0,0.0,0.61207,0.0,13.0,13.0,13.0,1.0,trident_07s.jpg,0.0,Purple.png,3.0,133,,,,,,,,,,,,,,,,,
0.0,1.0,0.73427,0.0,14.0,14.0,14.0,1.0,lavender_10s.jpg,0.0,Red.png,3.0,133,,,,,,,,,,,,,,,,,
0.0,1.0,0.952385,0.0,15.0,15.0,15.0,1.0,chip_04s.jpg,0.0,Orange.png,3.0,133,,,,,,,,,,,,,,,,,
0.0,1.0,0.734065,0.0,16.0,16.0,16.0,1.0,lamb_04s.jpg,0.0,Yellow.png,3.0,133,,,,,,,,,,,,,,,,,
0.0,1.0,0.73271,0.0,17.0,17.0,17.0,1.0,emerald_02s.jpg,0.0,Green.png,3.0,133,,,,,,,,,,,,,,,,,
0.0,1.0,0.753715,0.0,18.0,18.0,18.0,1.0,pineapple_12s.jpg,0.0,Blue.png,4.0,133,,,,,,,,,,,,,,,,,
0.0,1.0,0.720125,0.0,19.0,19.0,19.0,1.0,sundae_08s.jpg,0.0,Purple.png,4.0,133,,,,,,,,,,,,,,,,,
1.0,1.0,0.76201,0.0,20.0,20.0,20.0,1.0,sundae_08s.jpg,1.0,Red.png,4.0,133,,,,,,,,,,,,,,,,,
0.0,1.0,0.80468,0.0,21.0,21.0,21.0,1.0,squirrel_02s.jpg,0.0,Orange.png,4.0,133,,,,,,,,,,,,,,,,,
0.0,1.0,0.66888,0.0,22.0,22.0,22.0,1.0,roller_coaster_07s.jpg,0.0,Yellow.png,4.0,133,,,,,,,,,,,,,,,,,
1.0,1.0,1.00208,0.0,23.0,23.0,23.0,1.0,sundae_08s.jpg,1.0,Green.png,4.0,133,,,,,,,,,,,,,,,,,
0.0,1.0,0.668105,0.0,24.0,24.0,24.0,1.0,tweezers_03s.jpg,0.0,Blue.png,5.0,133,,,,,,,,,,,,,,,,,
1.0,0.0,0.726665,0.0,25.0,25.0,25.0,1.0,sundae_08s.jpg,0.0,Purple.png,5.0,133,,,,,,,,,,,,,,,,,
0.0,1.0,0.834335,0.0,26.0,26.0,26.0,1.0,rudder_02s.jpg,0.0,Red.png,5.0,133,,,,,,,,,,,,,,,,,
0.0,1.0,0.734575,0.0,27.0,27.0,27.0,1.0,rake_06s.jpg,0.0,Orange.png,5.0,133,,,,,,,,,,,,,,,,,
1.0,1.0,0.68508,0.0,28.0,28.0,28.0,1.0,rake_06s.jpg,1.0,Yellow.png,5.0,133,,,,,,,,,,,,,,,,,
1.0,1.0,0.584695,0.0,29.0,29.0,29.0,1.0,rake_06s.jpg,1.0,Green.png,5.0,133,,,,,,,,,,,,,,,,,
0.0,1.0,0.651565,0.0,30.0,30.0,30.0,1.0,cap_05s.jpg,0.0,Blue.png,6.0,133,,,,,,,,,,,,,,,,,
0.0,1.0,0.801235,0.0,31.0,31.0,31.0,1.0,paper_towel_03s.jpg,0.0,Purple.png,6.0,133,,,,,,,,,,,,,,,,,
0.0,1.0,0.63416,0.0,32.0,32.0,32.0,1.0,toaster_03s.jpg,0.0,Red.png,6.0,133,,,,,,,,,,,,,,,,,
0.0,1.0,0.601045,0.0,33.0,33.0,33.0,1.0,money_07s.jpg,0.0,Orange.png,6.0,133,,,,,,,,,,,,,,,,,
0.0,1.0,0.685315,0.0,34.0,34.0,34.0,1.0,pinwheel_06s.jpg,0.0,Yellow.png,6.0,133,,,,,,,,,,,,,,,,,
0.0,1.0,0.61524,0.0,35.0,35.0,35.0,1.0,lid_10s.jpg,0.0,Green.png,6.0,133,,,,,,,,,,,,,,,,,
,,,,,,,,,0.0,,,133,0.0,1.0,1.586605,0.0,0.0,0.0,0.0,1.0,tweezers_03s.jpg,squirrel_02s.jpg,,,,,,,
,,,,,,,,,1.0,,,133,1.0,1.0,1.352085,0.0,1.0,1.0,1.0,1.0,chip_04s.jpg,pineapple_12s.jpg,,,,,,,
,,,,,,,,,1.0,,,133,1.0,1.0,0.784245,0.0,2.0,2.0,2.0,1.0,lamb_chop_07s.jpg,lava_02s.jpg,,,,,,,
,,,,,,,,,0.0,,,133,0.0,1.0,1.351485,0.0,3.0,3.0,3.0,1.0,pinwheel_06s.jpg,paper_towel_03s.jpg,,,,,,,
,,,,,,,,,0.0,,,133,1.0,0.0,1.051465,0.0,4.0,4.0,4.0,1.0,emerald_02s.jpg,lavender_10s.jpg,,,,,,,
,,,,,,,,,0.0,,,133,1.0,0.0,1.287,0.0,5.0,5.0,5.0,1.0,money_07s.jpg,cap_05s.jpg,,,,,,,
,,,,,,,,,,,,133,,,,,,,,,,,0.0,3.0,3.0,3.0,1.0,newclockpresent_4_4.xlsx,newclock_compare_task_4_4.xlsx
0.0,1.0,1.46984,0.0,0.0,0.0,0.0,1.0,fur_coat_11s.jpg,0.0,Blue.png,1.0,133,,,,,,,,,,,,,,,,,
0.0,1.0,0.618815,0.0,1.0,1.0,1.0,1.0,crayon_09s.jpg,0.0,Purple.png,1.0,133,,,,,,,,,,,,,,,,,
0.0,1.0,0.835735,0.0,2.0,2.0,2.0,1.0,cobra_05s.jpg,0.0,Red.png,1.0,133,,,,,,,,,,,,,,,,,
0.0,1.0,0.635695,0.0,3.0,3.0,3.0,1.0,raccoon_02s.jpg,0.0,Orange.png,1.0,133,,,,,,,,,,,,,,,,,
0.0,1.0,0.68424,0.0,4.0,4.0,4.0,1.0,soda_fountain_03s.jpg,0.0,Yellow.png,1.0,133,,,,,,,,,,,,,,,,,
1.0,1.0,1.118425,0.0,5.0,5.0,5.0,1.0,raccoon_02s.jpg,1.0,Green.png,1.0,133,,,,,,,,,,,,,,,,,
0.0,1.0,0.802585,0.0,6.0,6.0,6.0,1.0,feather02.jpg,0.0,Blue.png,2.0,133,,,,,,,,,,,,,,,,,
1.0,0.0,1.08355,0.0,7.0,7.0,7.0,1.0,raccoon_02s.jpg,0.0,Purple.png,2.0,133,,,,,,,,,,,,,,,,,
1.0,1.0,1.001115,0.0,8.0,8.0,8.0,1.0,feather02.jpg,1.0,Red.png,2.0,133,,,,,,,,,,,,,,,,,
0.0,1.0,0.79228,0.0,9.0,9.0,9.0,1.0,rug_09s.jpg,0.0,Orange.png,2.0,133,,,,,,,,,,,,,,,,,
1.0,1.0,1.436015,0.0,10.0,10.0,10.0,1.0,feather02.jpg,1.0,Yellow.png,2.0,133,,,,,,,,,,,,,,,,,
0.0,1.0,1.30221,0.0,11.0,11.0,11.0,1.0,cushion_08s.jpg,0.0,Green.png,2.0,133,,,,,,,,,,,,,,,,,
1.0,0.0,0.68497,0.0,12.0,12.0,12.0,1.0,feather02.jpg,0.0,Blue.png,3.0,133,,,,,,,,,,,,,,,,,
1.0,1.0,0.852715,0.0,13.0,13.0,13.0,1.0,feather02.jpg,1.0,Purple.png,3.0,133,,,,,,,,,,,,,,,,,
0.0,1.0,0.7346,0.0,14.0,14.0,14.0,1.0,ice_pack_09s.jpg,0.0,Red.png,3.0,133,,,,,,,,,,,,,,,,,
1.0,1.0,0.90257,0.0,15.0,15.0,15.0,1.0,ice_pack_09s.jpg,1.0,Orange.png,3.0,133,,,,,,,,,,,,,,,,,
0.0,1.0,0.70064,0.0,16.0,16.0,16.0,1.0,loom_05s.jpg,0.0,Yellow.png,3.0,133,,,,,,,,,,,,,,,,,
1.0,1.0,1.569095,0.0,17.0,17.0,17.0,1.0,ice_pack_09s.jpg,1.0,Green.png,3.0,133,,,,,,,,,,,,,,,,,
1.0,0.0,0.920295,0.0,18.0,18.0,18.0,1.0,ice_pack_09s.jpg,0.0,Blue.png,4.0,133,,,,,,,,,,,,,,,,,
1.0,1.0,0.533905,0.0,19.0,19.0,19.0,1.0,ice_pack_09s.jpg,1.0,Purple.png,4.0,133,,,,,,,,,,,,,,,,,
1.0,1.0,0.73471,0.0,20.0,20.0,20.0,1.0,ice_pack_09s.jpg,1.0,Red.png,4.0,133,,,,,,,,,,,,,,,,,
0.0,1.0,0.668635,0.0,21.0,21.0,21.0,1.0,blazer_02s.jpg,0.0,Orange.png,4.0,133,,,,,,,,,,,,,,,,,
0.0,1.0,0.736975,0.0,22.0,22.0,22.0,1.0,penlight_12s.jpg,0.0,Yellow.png,4.0,133,,,,,,,,,,,,,,,,,
0.0,1.0,0.651415,0.0,23.0,23.0,23.0,1.0,swan_11s.jpg,0.0,Green.png,4.0,133,,,,,,,,,,,,,,,,,
0.0,1.0,1.219175,0.0,24.0,24.0,24.0,1.0,plunger_08s.jpg,0.0,Blue.png,5.0,133,,,,,,,,,,,,,,,,,
0.0,1.0,0.801,0.0,25.0,25.0,25.0,1.0,bottle_opener_11s.jpg,0.0,Purple.png,5.0,133,,,,,,,,,,,,,,,,,
0.0,1.0,0.551895,0.0,26.0,26.0,26.0,1.0,checkbook_11s.jpg,0.0,Red.png,5.0,133,,,,,,,,,,,,,,,,,
0.0,1.0,0.901545,0.0,27.0,27.0,27.0,1.0,ink_08s.jpg,0.0,Orange.png,5.0,133,,,,,,,,,,,,,,,,,
1.0,1.0,0.979225,0.0,28.0,28.0,28.0,1.0,plunger_08s.jpg,1.0,Yellow.png,5.0,133,,,,,,,,,,,,,,,,,
0.0,1.0,0.623825,0.0,29.0,29.0,29.0,1.0,pencil02a.jpg,0.0,Green.png,5.0,133,,,,,,,,,,,,,,,,,
0.0,1.0,0.78509,0.0,30.0,30.0,30.0,1.0,ginger_09s.jpg,0.0,Blue.png,6.0,133,,,,,,,,,,,,,,,,,
0.0,1.0,0.89973,0.0,31.0,31.0,31.0,1.0,taxi_15s.jpg,0.0,Purple.png,6.0,133,,,,,,,,,,,,,,,,,
0.0,1.0,0.718365,0.0,32.0,32.0,32.0,1.0,toy_04s.jpg,0.0,Red.png,6.0,133,,,,,,,,,,,,,,,,,
0.0,1.0,0.70174,0.0,33.0,33.0,33.0,1.0,blowfish_03s.jpg,0.0,Orange.png,6.0,133,,,,,,,,,,,,,,,,,
0.0,1.0,0.636235,0.0,34.0,34.0,34.0,1.0,toilet_paper_12s.jpg,0.0,Yellow.png,6.0,133,,,,,,,,,,,,,,,,,
0.0,1.0,0.60111,0.0,35.0,35.0,35.0,1.0,puddle_02s.jpg,0.0,Green.png,6.0,133,,,,,,,,,,,,,,,,,
,,,,,,,,,1.0,,,133,1.0,1.0,2.08911,0.0,0.0,0.0,0.0,1.0,ink_08s.jpg,ginger_09s.jpg,,,,,,,
,,,,,,,,,0.0,,,133,0.0,1.0,1.52425,0.0,1.0,1.0,1.0,1.0,puddle_02s.jpg,toy_04s.jpg,,,,,,,
,,,,,,,,,0.0,,,133,0.0,1.0,1.20079,0.0,2.0,2.0,2.0,1.0,bottle_opener_11s.jpg,penlight_12s.jpg,,,,,,,
,,,,,,,,,0.0,,,133,0.0,1.0,1.20227,0.0,3.0,3.0,3.0,1.0,checkbook_11s.jpg,swan_11s.jpg,,,,,,,
,,,,,,,,,1.0,,,133,1.0,1.0,1.115955,0.0,4.0,4.0,4.0,1.0,taxi_15s.jpg,toilet_paper_12s.jpg,,,,,,,
,,,,,,,,,1.0,,,133,1.0,1.0,0.76878,0.0,5.0,5.0,5.0,1.0,crayon_09s.jpg,soda_fountain_03s.jpg,,,,,,,
,,,,,,,,,,,,133,,,,,,,,,,,0.0,4.0,4.0,4.0,1.0,newclockpresent_5_4.xlsx,newclock_compare_task_5_4.xlsx
0.0,1.0,0.85074,0.0,0.0,0.0,0.0,1.0,flask_04s.jpg,0.0,Blue.png,1.0,133,,,,,,,,,,,,,,,,,
0.0,1.0,0.635155,0.0,1.0,1.0,1.0,1.0,kimono_13s.jpg,0.0,Purple.png,1.0,133,,,,,,,,,,,,,,,,,
0.0,1.0,0.56775,0.0,2.0,2.0,2.0,1.0,limousine_12s.jpg,0.0,Red.png,1.0,133,,,,,,,,,,,,,,,,,
0.0,1.0,0.684665,0.0,3.0,3.0,3.0,1.0,lectern_08s.jpg,0.0,Orange.png,1.0,133,,,,,,,,,,,,,,,,,
1.0,1.0,1.22234,0.0,4.0,4.0,4.0,1.0,kimono_13s.jpg,1.0,Yellow.png,1.0,133,,,,,,,,,,,,,,,,,
0.0,1.0,0.64868,0.0,5.0,5.0,5.0,1.0,doily_13s.jpg,0.0,Green.png,1.0,133,,,,,,,,,,,,,,,,,
0.0,1.0,2.05328,0.0,6.0,6.0,6.0,1.0,kimono_13s.jpg,0.0,Blue.png,2.0,133,,,,,,,,,,,,,,,,,
0.0,1.0,0.984955,0.0,7.0,7.0,7.0,1.0,razor_blade_01b.jpg,0.0,Purple.png,2.0,133,,,,,,,,,,,,,,,,,
1.0,1.0,0.801215,0.0,8.0,8.0,8.0,1.0,razor_blade_01b.jpg,1.0,Red.png,2.0,133,,,,,,,,,,,,,,,,,
0.0,1.0,0.76799,0.0,9.0,9.0,9.0,1.0,champagne_18s.jpg,0.0,Orange.png,2.0,133,,,,,,,,,,,,,,,,,
0.0,1.0,0.64175,0.0,10.0,10.0,10.0,1.0,stamp1_11s.jpg,0.0,Yellow.png,2.0,133,,,,,,,,,,,,,,,,,
0.0,0.0,1.50247,0.0,11.0,11.0,11.0,1.0,champagne_18s.jpg,1.0,Green.png,2.0,133,,,,,,,,,,,,,,,,,
0.0,1.0,0.61734,0.0,12.0,12.0,12.0,1.0,crossbow_10s.jpg,0.0,Blue.png,3.0,133,,,,,,,,,,,,,,,,,
0.0,1.0,0.63683,0.0,13.0,13.0,13.0,1.0,briefcase_03s.jpg,0.0,Purple.png,3.0,133,,,,,,,,,,,,,,,,,
0.0,1.0,1.186955,0.0,14.0,14.0,14.0,1.0,jersey_02s.jpg,0.0,Red.png,3.0,133,,,,,,,,,,,,,,,,,
1.0,1.0,0.734195,0.0,15.0,15.0,15.0,1.0,briefcase_03s.jpg,1.0,Orange.png,3.0,133,,,,,,,,,,,,,,,,,
0.0,1.0,0.78568,0.0,16.0,16.0,16.0,1.0,oil_02s.jpg,0.0,Yellow.png,3.0,133,,,,,,,,,,,,,,,,,
0.0,1.0,0.98502,0.0,17.0,17.0,17.0,1.0,tinsel_12s.jpg,0.0,Green.png,3.0,133,,,,,,,,,,,,,,,,,
0.0,1.0,2.119405,0.0,18.0,18.0,18.0,1.0,flask_04s.jpg,0.0,Blue.png,4.0,133,,,,,,,,,,,,,,,,,
0.0,1.0,0.751775,0.0,19.0,19.0,19.0,1.0,fork_04s.jpg,0.0,Purple.png,4.0,133,,,,,,,,,,,,,,,,,
0.0,1.0,0.736045,0.0,20.0,20.0,20.0,1.0,purse_05s.jpg,0.0,Red.png,4.0,133,,,,,,,,,,,,,,,,,
1.0,1.0,0.968305,0.0,21.0,21.0,21.0,1.0,flask_04s.jpg,1.0,Orange.png,4.0,133,,,,,,,,,,,,,,,,,
0.0,1.0,1.301,0.0,22.0,22.0,22.0,1.0,sledgehammer_03s.jpg,0.0,Yellow.png,4.0,133,,,,,,,,,,,,,,,,,
0.0,1.0,0.70063,0.0,23.0,23.0,23.0,1.0,turf_03s.jpg,0.0,Green.png,4.0,133,,,,,,,,,,,,,,,,,
0.0,1.0,1.34704,0.0,24.0,24.0,24.0,1.0,omelet_07s.jpg,0.0,Blue.png,5.0,133,,,,,,,,,,,,,,,,,
1.0,0.0,1.91848,0.0,25.0,25.0,25.0,1.0,turf_03s.jpg,0.0,Purple.png,5.0,133,,,,,,,,,,,,,,,,,
0.0,1.0,0.87226,0.0,26.0,26.0,26.0,1.0,clover_04s.jpg,0.0,Red.png,5.0,133,,,,,,,,,,,,,,,,,
0.0,1.0,0.700705,0.0,27.0,27.0,27.0,1.0,lip_gloss_06s.jpg,0.0,Orange.png,5.0,133,,,,,,,,,,,,,,,,,
0.0,1.0,1.598115,0.0,28.0,28.0,28.0,1.0,amber_04s.jpg,0.0,Yellow.png,5.0,133,,,,,,,,,,,,,,,,,
0.0,1.0,1.103015,0.0,29.0,29.0,29.0,1.0,tortilla_06s.jpg,0.0,Green.png,5.0,133,,,,,,,,,,,,,,,,,
0.0,1.0,1.85546,0.0,30.0,30.0,30.0,1.0,razor_blade_01b.jpg,0.0,Blue.png,6.0,133,,,,,,,,,,,,,,,,,
0.0,1.0,1.409375,0.0,31.0,31.0,31.0,1.0,tape_measure_11s.jpg,0.0,Purple.png,6.0,133,,,,,,,,,,,,,,,,,
1.0,1.0,1.800725,0.0,32.0,32.0,32.0,1.0,razor_blade_01b.jpg,1.0,Red.png,6.0,133,,,,,,,,,,,,,,,,,
1.0,1.0,1.8926,0.0,33.0,33.0,33.0,1.0,razor_blade_01b.jpg,1.0,Orange.png,6.0,133,,,,,,,,,,,,,,,,,
0.0,1.0,2.14039,0.0,34.0,34.0,34.0,1.0,stingray_02s.jpg,0.0,Yellow.png,6.0,133,,,,,,,,,,,,,,,,,
0.0,1.0,1.030465,0.0,35.0,35.0,35.0,1.0,harpoon.jpg,0.0,Green.png,6.0,133,,,,,,,,,,,,,,,,,
,,,,,,,,,1.0,,,133,1.0,1.0,1.653965,0.0,0.0,0.0,0.0,1.0,oil_02s.jpg,fork_04s.jpg,,,,,,,
,,,,,,,,,0.0,,,133,0.0,1.0,1.548775,0.0,1.0,1.0,1.0,1.0,doily_13s.jpg,limousine_12s.jpg,,,,,,,
,,,,,,,,,0.0,,,133,1.0,0.0,1.38388,0.0,2.0,2.0,2.0,1.0,lip_gloss_06s.jpg,omelet_07s.jpg,,,,,,,
,,,,,,,,,0.0,,,133,0.0,1.0,1.705955,0.0,3.0,3.0,3.0,1.0,tape_measure_11s.jpg,amber_04s.jpg,,,,,,,
,,,,,,,,,0.0,,,133,0.0,1.0,1.1997,0.0,4.0,4.0,4.0,1.0,tortilla_06s.jpg,clover_04s.jpg,,,,,,,
,,,,,,,,,0.0,,,133,0.0,1.0,1.629355,0.0,5.0,5.0,5.0,1.0,purse_05s.jpg,tinsel_12s.jpg,,,,,,,
,,,,,,,,,,,,133,,,,,,,,,,,0.0,5.0,5.0,5.0,1.0,newclockpresent_6_4.xlsx,newclock_compare_task_6_4.xlsx
0.0,1.0,0.79836,0.0,0.0,0.0,0.0,1.0,butter_14s.jpg,0.0,Blue.png,1.0,133,,,,,,,,,,,,,,,,,
0.0,0.0,0.901845,0.0,1.0,1.0,1.0,1.0,butter_14s.jpg,1.0,Purple.png,1.0,133,,,,,,,,,,,,,,,,,
1.0,1.0,0.55285,0.0,2.0,2.0,2.0,1.0,butter_14s.jpg,1.0,Red.png,1.0,133,,,,,,,,,,,,,,,,,
0.0,1.0,1.944665,0.0,3.0,3.0,3.0,1.0,stamp2_08s.jpg,0.0,Orange.png,1.0,133,,,,,,,,,,,,,,,,,
0.0,1.0,0.62591,0.0,4.0,4.0,4.0,1.0,kangaroo_02s.jpg,0.0,Yellow.png,1.0,133,,,,,,,,,,,,,,,,,
0.0,1.0,0.665615,0.0,5.0,5.0,5.0,1.0,camcorder_10s.jpg,0.0,Green.png,1.0,133,,,,,,,,,,,,,,,,,
0.0,1.0,0.695515,0.0,6.0,6.0,6.0,1.0,bank_06s.jpg,0.0,Blue.png,2.0,133,,,,,,,,,,,,,,,,,
0.0,1.0,0.59231,0.0,7.0,7.0,7.0,1.0,gear_07s.jpg,0.0,Purple.png,2.0,133,,,,,,,,,,,,,,,,,
1.0,1.0,1.043075,0.0,8.0,8.0,8.0,1.0,bank_06s.jpg,1.0,Red.png,2.0,133,,,,,,,,,,,,,,,,,
0.0,1.0,0.694515,0.0,9.0,9.0,9.0,1.0,funnel_01b.jpg,0.0,Orange.png,2.0,133,,,,,,,,,,,,,,,,,
0.0,1.0,0.68151,0.0,10.0,10.0,10.0,1.0,poinsettia_04s.jpg,0.0,Yellow.png,2.0,133,,,,,,,,,,,,,,,,,
1.0,1.0,1.104035,0.0,11.0,11.0,11.0,1.0,funnel_01b.jpg,1.0,Green.png,2.0,133,,,,,,,,,,,,,,,,,
0.0,1.0,1.766265,0.0,12.0,12.0,12.0,1.0,rooster_03s.jpg,0.0,Blue.png,3.0,133,,,,,,,,,,,,,,,,,
0.0,1.0,0.79157,0.0,13.0,13.0,13.0,1.0,denture_03s.jpg,0.0,Purple.png,3.0,133,,,,,,,,,,,,,,,,,
0.0,1.0,0.66585,0.0,14.0,14.0,14.0,1.0,bean_06s.jpg,0.0,Red.png,3.0,133,,,,,,,,,,,,,,,,,
0.0,1.0,0.57298,0.0,15.0,15.0,15.0,1.0,mud_13s.jpg,0.0,Orange.png,3.0,133,,,,,,,,,,,,,,,,,
0.0,1.0,0.677545,0.0,16.0,16.0,16.0,1.0,keyhole_03s.jpg,0.0,Yellow.png,3.0,133,,,,,,,,,,,,,,,,,
1.0,1.0,0.76969,0.0,17.0,17.0,17.0,1.0,bean_06s.jpg,1.0,Green.png,3.0,133,,,,,,,,,,,,,,,,,
1.0,0.0,0.86136,0.0,18.0,18.0,18.0,1.0,bank_06s.jpg,0.0,Blue.png,4.0,133,,,,,,,,,,,,,,,,,
0.0,1.0,0.665505,0.0,19.0,19.0,19.0,1.0,pomegranate_04s.jpg,0.0,Purple.png,4.0,133,,,,,,,,,,,,,,,,,
0.0,1.0,0.643725,0.0,20.0,20.0,20.0,1.0,chopsticks_08s.jpg,0.0,Red.png,4.0,133,,,,,,,,,,,,,,,,,
0.0,1.0,0.92883,0.0,21.0,21.0,21.0,1.0,contact_lens_15s.jpg,0.0,Orange.png,4.0,133,,,,,,,,,,,,,,,,,
0.0,1.0,0.57714,0.0,22.0,22.0,22.0,1.0,hydrant_10s.jpg,0.0,Yellow.png,4.0,133,,,,,,,,,,,,,,,,,
0.0,1.0,0.571295,0.0,23.0,23.0,23.0,1.0,gingerbread_man_03s.jpg,0.0,Green.png,4.0,133,,,,,,,,,,,,,,,,,
1.0,0.0,0.761885,0.0,24.0,24.0,24.0,1.0,camcorder_10s.jpg,0.0,Blue.png,5.0,133,,,,,,,,,,,,,,,,,
0.0,1.0,1.019855,0.0,25.0,25.0,25.0,1.0,teabag_12s.jpg,0.0,Purple.png,5.0,133,,,,,,,,,,,,,,,,,
0.0,1.0,0.612585,0.0,26.0,26.0,26.0,1.0,radiator_05s.jpg,0.0,Red.png,5.0,133,,,,,,,,,,,,,,,,,
0.0,1.0,0.783235,0.0,27.0,27.0,27.0,1.0,punch1_10s.jpg,0.0,Orange.png,5.0,133,,,,,,,,,,,,,,,,,
0.0,1.0,0.52714,0.0,28.0,28.0,28.0,1.0,mailbox_11s.jpg,0.0,Yellow.png,5.0,133,,,,,,,,,,,,,,,,,
0.0,1.0,0.70443,0.0,29.0,29.0,29.0,1.0,beaker_01b.jpg,0.0,Green.png,5.0,133,,,,,,,,,,,,,,,,,
1.0,0.0,0.79294,0.0,30.0,30.0,30.0,1.0,mailbox_11s.jpg,0.0,Blue.png,6.0,133,,,,,,,,,,,,,,,,,
0.0,1.0,0.86808,0.0,31.0,31.0,31.0,1.0,pipe1_10s.jpg,0.0,Purple.png,6.0,133,,,,,,,,,,,,,,,,,
1.0,1.0,0.891255,0.0,32.0,32.0,32.0,1.0,mailbox_11s.jpg,1.0,Red.png,6.0,133,,,,,,,,,,,,,,,,,
1.0,1.0,0.65959,0.0,33.0,33.0,33.0,1.0,pipe1_10s.jpg,1.0,Orange.png,6.0,133,,,,,,,,,,,,,,,,,
0.0,1.0,0.76928,0.0,34.0,34.0,34.0,1.0,eyedropper_12s.jpg,0.0,Yellow.png,6.0,133,,,,,,,,,,,,,,,,,
0.0,1.0,0.79708,0.0,35.0,35.0,35.0,1.0,rhubarb_03s.jpg,0.0,Green.png,6.0,133,,,,,,,,,,,,,,,,,
,,,,,,,,,0.0,,,133,1.0,0.0,1.889465,0.0,0.0,0.0,0.0,1.0,mud_13s.jpg,rooster_03s.jpg,,,,,,,
,,,,,,,,,1.0,,,133,0.0,0.0,1.21903,0.0,1.0,1.0,1.0,1.0,chopsticks_08s.jpg,gingerbread_man_03s.jpg,,,,,,,
,,,,,,,,,0.0,,,133,1.0,0.0,1.39436,0.0,2.0,2.0,2.0,1.0,beaker_01b.jpg,radiator_05s.jpg,,,,,,,
,,,,,,,,,0.0,,,133,1.0,0.0,1.07871,0.0,3.0,3.0,3.0,1.0,teabag_12s.jpg,hydrant_10s.jpg,,,,,,,
,,,,,,,,,0.0,,,133,1.0,0.0,0.92097,0.0,4.0,4.0,4.0,1.0,denture_03s.jpg,poinsettia_04s.jpg,,,,,,,
,,,,,,,,,1.0,,,133,1.0,1.0,1.50544,0.0,5.0,5.0,5.0,1.0,kangaroo_02s.jpg,gear_07s.jpg,,,,,,,
,,,,,,,,,,,,133,,,,,,,,,,,0.0,6.0,6.0,6.0,1.0,newclockpresent_7_4.xlsx,newclock_compare_task_7_4.xlsx
0.0,1.0,0.788115,0.0,0.0,0.0,0.0,1.0,lamppost_09s.jpg,0.0,Blue.png,1.0,133,,,,,,,,,,,,,,,,,
0.0,1.0,0.624745,0.0,1.0,1.0,1.0,1.0,jewel_01b.jpg,0.0,Purple.png,1.0,133,,,,,,,,,,,,,,,,,
0.0,1.0,0.860965,0.0,2.0,2.0,2.0,1.0,tuxedo_01b.jpg,0.0,Red.png,1.0,133,,,,,,,,,,,,,,,,,
0.0,1.0,0.968945,0.0,3.0,3.0,3.0,1.0,flip_flop_03s.jpg,0.0,Orange.png,1.0,133,,,,,,,,,,,,,,,,,
0.0,1.0,0.677115,0.0,4.0,4.0,4.0,1.0,medal_04s.jpg,0.0,Yellow.png,1.0,133,,,,,,,,,,,,,,,,,
1.0,1.0,0.68966,0.0,5.0,5.0,5.0,1.0,flip_flop_03s.jpg,1.0,Green.png,1.0,133,,,,,,,,,,,,,,,,,
0.0,1.0,1.24652,0.0,6.0,6.0,6.0,1.0,tuxedo_01b.jpg,0.0,Blue.png,2.0,133,,,,,,,,,,,,,,,,,
,0.0,,0.0,7.0,7.0,7.0,1.0,flip_flop_03s.jpg,0.0,Purple.png,2.0,133,,,,,,,,,,,,,,,,,
0.0,1.0,1.09164,0.0,8.0,8.0,8.0,1.0,fireworks_18s.jpg,0.0,Red.png,2.0,133,,,,,,,,,,,,,,,,,
0.0,1.0,0.600095,0.0,9.0,9.0,9.0,1.0,squirt_gun_03s.jpg,0.0,Orange.png,2.0,133,,,,,,,,,,,,,,,,,
1.0,1.0,0.65652,0.0,10.0,10.0,10.0,1.0,flip_flop_03s.jpg,1.0,Yellow.png,2.0,133,,,,,,,,,,,,,,,,,
0.0,1.0,0.660045,0.0,11.0,11.0,11.0,1.0,puffin_19s.jpg,0.0,Green.png,2.0,133,,,,,,,,,,,,,,,,,
0.0,1.0,1.16361,0.0,12.0,12.0,12.0,1.0,tuxedo_01b.jpg,0.0,Blue.png,3.0,133,,,,,,,,,,,,,,,,,
1.0,1.0,0.754665,0.0,13.0,13.0,13.0,1.0,tuxedo_01b.jpg,1.0,Purple.png,3.0,133,,,,,,,,,,,,,,,,,
0.0,1.0,0.724585,0.0,14.0,14.0,14.0,1.0,snowman_02s.jpg,0.0,Red.png,3.0,133,,,,,,,,,,,,,,,,,
0.0,1.0,0.610375,0.0,15.0,15.0,15.0,1.0,cucumber_07s.jpg,0.0,Orange.png,3.0,133,,,,,,,,,,,,,,,,,
0.0,1.0,0.681945,0.0,16.0,16.0,16.0,1.0,plug_08s.jpg,0.0,Yellow.png,3.0,133,,,,,,,,,,,,,,,,,
1.0,1.0,1.301505,0.0,17.0,17.0,17.0,1.0,cucumber_07s.jpg,1.0,Green.png,3.0,133,,,,,,,,,,,,,,,,,
0.0,1.0,1.19084,0.0,18.0,18.0,18.0,1.0,puffin_19s.jpg,0.0,Blue.png,4.0,133,,,,,,,,,,,,,,,,,
0.0,1.0,0.68831,0.0,19.0,19.0,19.0,1.0,fondue_07s.jpg,0.0,Purple.png,4.0,133,,,,,,,,,,,,,,,,,
0.0,1.0,0.727955,0.0,20.0,20.0,20.0,1.0,lasagna_06s.jpg,0.0,Red.png,4.0,133,,,,,,,,,,,,,,,,,
0.0,1.0,0.619545,0.0,21.0,21.0,21.0,1.0,eiffeltower.jpg,0.0,Orange.png,4.0,133,,,,,,,,,,,,,,,,,
0.0,1.0,0.817205,0.0,22.0,22.0,22.0,1.0,outlet_10s.jpg,0.0,Yellow.png,4.0,133,,,,,,,,,,,,,,,,,
0.0,1.0,0.55486,0.0,23.0,23.0,23.0,1.0,cape_11s.jpg,0.0,Green.png,4.0,133,,,,,,,,,,,,,,,,,
0.0,1.0,0.54968,0.0,24.0,24.0,24.0,1.0,marshmallow_08s.jpg,0.0,Blue.png,5.0,133,,,,,,,,,,,,,,,,,
0.0,1.0,0.56244,0.0,25.0,25.0,25.0,1.0,racehorse_03s.jpg,0.0,Purple.png,5.0,133,,,,,,,,,,,,,,,,,
0.0,1.0,0.491915,0.0,26.0,26.0,26.0,1.0,aluminum_foil_08s.jpg,0.0,Red.png,5.0,133,,,,,,,,,,,,,,,,,
0.0,1.0,0.864225,0.0,27.0,27.0,27.0,1.0,spoon02a.jpg,0.0,Orange.png,5.0,133,,,,,,,,,,,,,,,,,
0.0,1.0,0.923825,0.0,28.0,28.0,28.0,1.0,padlock_07s.jpg,0.0,Yellow.png,5.0,133,,,,,,,,,,,,,,,,,
0.0,1.0,0.58972,0.0,29.0,29.0,29.0,1.0,solar_panel_02s.jpg,0.0,Green.png,5.0,133,,,,,,,,,,,,,,,,,
0.0,1.0,0.68098,0.0,30.0,30.0,30.0,1.0,turtleneck_11s.jpg,0.0,Blue.png,6.0,133,,,,,,,,,,,,,,,,,
0.0,1.0,0.981915,0.0,31.0,31.0,31.0,1.0,pocketknife_12s.jpg,0.0,Purple.png,6.0,133,,,,,,,,,,,,,,,,,
1.0,1.0,1.40968,0.0,32.0,32.0,32.0,1.0,pocketknife_12s.jpg,1.0,Red.png,6.0,133,,,,,,,,,,,,,,,,,
0.0,1.0,0.94067,0.0,33.0,33.0,33.0,1.0,quill_09s.jpg,0.0,Orange.png,6.0,133,,,,,,,,,,,,,,,,,
1.0,1.0,0.72568,0.0,34.0,34.0,34.0,1.0,quill_09s.jpg,1.0,Yellow.png,6.0,133,,,,,,,,,,,,,,,,,
1.0,1.0,0.68975,0.0,35.0,35.0,35.0,1.0,pocketknife_12s.jpg,1.0,Green.png,6.0,133,,,,,,,,,,,,,,,,,
,,,,,,,,,0.0,,,133,0.0,1.0,1.24649,0.0,0.0,0.0,0.0,1.0,cape_11s.jpg,lasagna_06s.jpg,,,,,,,
,,,,,,,,,0.0,,,133,1.0,0.0,1.33736,0.0,1.0,1.0,1.0,1.0,padlock_07s.jpg,racehorse_03s.jpg,,,,,,,
,,,,,,,,,1.0,,,133,0.0,0.0,0.91582,0.0,2.0,2.0,2.0,1.0,spoon02a.jpg,turtleneck_11s.jpg,,,,,,,
,,,,,,,,,0.0,,,133,1.0,0.0,0.882575,0.0,3.0,3.0,3.0,1.0,marshmallow_08s.jpg,eiffeltower.jpg,,,,,,,
,,,,,,,,,0.0,,,133,0.0,1.0,1.035235,0.0,4.0,4.0,4.0,1.0,medal_04s.jpg,jewel_01b.jpg,,,,,,,
,,,,,,,,,1.0,,,133,1.0,1.0,1.04225,0.0,5.0,5.0,5.0,1.0,plug_08s.jpg,fondue_07s.jpg,,,,,,,
,,,,,,,,,,,,133,,,,,,,,,,,0.0,7.0,7.0,7.0,1.0,newclockpresent_8_4.xlsx,newclock_compare_task_8_4.xlsx
0.0,1.0,0.920335,0.0,0.0,0.0,0.0,1.0,footprint_11s.jpg,0.0,Blue.png,1.0,133,,,,,,,,,,,,,,,,,
0.0,1.0,0.65429,0.0,1.0,1.0,1.0,1.0,coffee_filter_10s.jpg,0.0,Purple.png,1.0,133,,,,,,,,,,,,,,,,,
1.0,1.0,0.84003,0.0,2.0,2.0,2.0,1.0,coffee_filter_10s.jpg,1.0,Red.png,1.0,133,,,,,,,,,,,,,,,,,
1.0,1.0,0.79852,0.0,3.0,3.0,3.0,1.0,coffee_filter_10s.jpg,1.0,Orange.png,1.0,133,,,,,,,,,,,,,,,,,
1.0,1.0,0.78566,0.0,4.0,4.0,4.0,1.0,coffee_filter_10s.jpg,1.0,Yellow.png,1.0,133,,,,,,,,,,,,,,,,,
0.0,1.0,0.70125,0.0,5.0,5.0,5.0,1.0,gargoyle_08s.jpg,0.0,Green.png,1.0,133,,,,,,,,,,,,,,,,,
0.0,1.0,0.70358,0.0,6.0,6.0,6.0,1.0,candy_cane_06s.jpg,0.0,Blue.png,2.0,133,,,,,,,,,,,,,,,,,
0.0,1.0,0.664225,0.0,7.0,7.0,7.0,1.0,toad_09s.jpg,0.0,Purple.png,2.0,133,,,,,,,,,,,,,,,,,
1.0,1.0,1.303435,0.0,8.0,8.0,8.0,1.0,candy_cane_06s.jpg,1.0,Red.png,2.0,133,,,,,,,,,,,,,,,,,
0.0,1.0,0.61614,0.0,9.0,9.0,9.0,1.0,pumpkin_03s.jpg,0.0,Orange.png,2.0,133,,,,,,,,,,,,,,,,,
0.0,1.0,0.716175,0.0,10.0,10.0,10.0,1.0,dashboard_02s.jpg,0.0,Yellow.png,2.0,133,,,,,,,,,,,,,,,,,
0.0,1.0,0.87683,0.0,11.0,11.0,11.0,1.0,syringe_02s.jpg,0.0,Green.png,2.0,133,,,,,,,,,,,,,,,,,
0.0,1.0,0.679125,0.0,12.0,12.0,12.0,1.0,powder_07s.jpg,0.0,Blue.png,3.0,133,,,,,,,,,,,,,,,,,
1.0,1.0,0.752005,0.0,13.0,13.0,13.0,1.0,powder_07s.jpg,1.0,Purple.png,3.0,133,,,,,,,,,,,,,,,,,
1.0,1.0,0.76313,0.0,14.0,14.0,14.0,1.0,powder_07s.jpg,1.0,Red.png,3.0,133,,,,,,,,,,,,,,,,,
0.0,1.0,0.98579,0.0,15.0,15.0,15.0,1.0,sea_urchin_09s.jpg,0.0,Orange.png,3.0,133,,,,,,,,,,,,,,,,,
0.0,1.0,0.72031,0.0,16.0,16.0,16.0,1.0,throne_11s.jpg,0.0,Yellow.png,3.0,133,,,,,,,,,,,,,,,,,
1.0,1.0,1.151345,0.0,17.0,17.0,17.0,1.0,powder_07s.jpg,1.0,Green.png,3.0,133,,,,,,,,,,,,,,,,,
0.0,1.0,1.76867,0.0,18.0,18.0,18.0,1.0,chalice_10s.jpg,0.0,Blue.png,4.0,133,,,,,,,,,,,,,,,,,
0.0,1.0,0.75084,0.0,19.0,19.0,19.0,1.0,air_pump_05s.jpg,0.0,Purple.png,4.0,133,,,,,,,,,,,,,,,,,
0.0,1.0,0.86813,0.0,20.0,20.0,20.0,1.0,microwave_02s.jpg,0.0,Red.png,4.0,133,,,,,,,,,,,,,,,,,
0.0,1.0,0.56723,0.0,21.0,21.0,21.0,1.0,cereal_04s.jpg,0.0,Orange.png,4.0,133,,,,,,,,,,,,,,,,,
0.0,1.0,0.85071,0.0,22.0,22.0,22.0,1.0,mushroom_10n.jpg,0.0,Yellow.png,4.0,133,,,,,,,,,,,,,,,,,
0.0,1.0,0.584195,0.0,23.0,23.0,23.0,1.0,red_carpet_03s.jpg,0.0,Green.png,4.0,133,,,,,,,,,,,,,,,,,
0.0,1.0,1.371905,0.0,24.0,24.0,24.0,1.0,throne_11s.jpg,0.0,Blue.png,5.0,133,,,,,,,,,,,,,,,,,
0.0,1.0,0.60024,0.0,25.0,25.0,25.0,1.0,koala_13s.jpg,0.0,Purple.png,5.0,133,,,,,,,,,,,,,,,,,
1.0,1.0,0.94515,0.0,26.0,26.0,26.0,1.0,throne_11s.jpg,1.0,Red.png,5.0,133,,,,,,,,,,,,,,,,,
0.0,1.0,1.13428,0.0,27.0,27.0,27.0,1.0,rocket_02s.jpg,0.0,Orange.png,5.0,133,,,,,,,,,,,,,,,,,
0.0,1.0,1.270155,0.0,28.0,28.0,28.0,1.0,swordfish_05s.jpg,0.0,Yellow.png,5.0,133,,,,,,,,,,,,,,,,,
0.0,0.0,0.770695,0.0,29.0,29.0,29.0,1.0,rocket_02s.jpg,1.0,Green.png,5.0,133,,,,,,,,,,,,,,,,,
0.0,1.0,0.72604,0.0,30.0,30.0,30.0,1.0,icicle_04s.jpg,0.0,Blue.png,6.0,133,,,,,,,,,,,,,,,,,
0.0,1.0,0.58516,0.0,31.0,31.0,31.0,1.0,keyboard_05s.jpg,0.0,Purple.png,6.0,133,,,,,,,,,,,,,,,,,
0.0,1.0,0.55697,0.0,32.0,32.0,32.0,1.0,pocket_watch_16s.jpg,0.0,Red.png,6.0,133,,,,,,,,,,,,,,,,,
0.0,1.0,0.700065,0.0,33.0,33.0,33.0,1.0,tablet_04s.jpg,0.0,Orange.png,6.0,133,,,,,,,,,,,,,,,,,
0.0,1.0,0.5717,0.0,34.0,34.0,34.0,1.0,chocolate_01b.jpg,0.0,Yellow.png,6.0,133,,,,,,,,,,,,,,,,,
0.0,1.0,0.75875,0.0,35.0,35.0,35.0,1.0,light_switch_02s.jpg,0.0,Green.png,6.0,133,,,,,,,,,,,,,,,,,
,,,,,,,,,0.0,,,133,0.0,1.0,1.49747,0.0,0.0,0.0,0.0,1.0,chalice_10s.jpg,sea_urchin_09s.jpg,,,,,,,
,,,,,,,,,1.0,,,133,0.0,0.0,1.702555,0.0,1.0,1.0,1.0,1.0,swordfish_05s.jpg,keyboard_05s.jpg,,,,,,,
,,,,,,,,,0.0,,,133,1.0,0.0,1.118665,0.0,2.0,2.0,2.0,1.0,red_carpet_03s.jpg,microwave_02s.jpg,,,,,,,
,,,,,,,,,0.0,,,133,1.0,0.0,1.034465,0.0,3.0,3.0,3.0,1.0,dashboard_02s.jpg,toad_09s.jpg,,,,,,,
,,,,,,,,,0.0,,,133,1.0,0.0,1.10208,0.0,4.0,4.0,4.0,1.0,koala_13s.jpg,mushroom_10n.jpg,,,,,,,
,,,,,,,,,1.0,,,133,1.0,1.0,1.40831,0.0,5.0,5.0,5.0,1.0,icicle_04s.jpg,tablet_04s.jpg,,,,,,,
,,,,,,,,,,,,133,,,,,,,,,,,0.0,8.0,8.0,8.0,1.0,newclockpresent_9_4.xlsx,newclock_compare_task_9_4.xlsx
