key_resp.keys,key_resp.corr,key_resp.rt,present_segment.thisRepN,present_segment.thisTrialN,present_segment.thisN,present_segment.thisIndex,present_segment.ran,pictures,answer,clock,segment,participant,key_resp_2.keys,key_resp_2.corr,key_resp_2.rt,compare_segment.thisRepN,compare_segment.thisTrialN,compare_segment.thisN,compare_segment.thisIndex,compare_segment.ran,item_a,item_b,clock_conditions.thisRepN,clock_conditions.thisTrialN,clock_conditions.thisN,clock_conditions.thisIndex,clock_conditions.ran,present,compare
0.0,1.0,1.79089,0.0,0.0,0.0,0.0,1.0,mirror_12s.jpg,0.0,Blue.png,1.0,6,,,,,,,,,,,,,,,,,
0.0,1.0,1.140305,0.0,1.0,1.0,1.0,1.0,polaroid_05s.jpg,0.0,Purple.png,1.0,6,,,,,,,,,,,,,,,,,
1.0,0.0,1.25773,0.0,2.0,2.0,2.0,1.0,polaroid_05s.jpg,0.0,Red.png,1.0,6,,,,,,,,,,,,,,,,,
0.0,1.0,0.89489,0.0,3.0,3.0,3.0,1.0,slingshot_07s.jpg,0.0,Orange.png,1.0,6,,,,,,,,,,,,,,,,,
1.0,1.0,1.22526,0.0,4.0,4.0,4.0,1.0,polaroid_05s.jpg,1.0,Yellow.png,1.0,6,,,,,,,,,,,,,,,,,
0.0,1.0,0.65894,0.0,5.0,5.0,5.0,1.0,kettle_08s.jpg,0.0,Green.png,1.0,6,,,,,,,,,,,,,,,,,
0.0,1.0,0.946225,0.0,6.0,6.0,6.0,1.0,crystal_ball_12s.jpg,0.0,Blue.png,2.0,6,,,,,,,,,,,,,,,,,
1.0,0.0,2.37173,0.0,7.0,7.0,7.0,1.0,iron_13s.jpg,0.0,Purple.png,2.0,6,,,,,,,,,,,,,,,,,
0.0,1.0,1.15119,0.0,8.0,8.0,8.0,1.0,saddle_06s.jpg,0.0,Red.png,2.0,6,,,,,,,,,,,,,,,,,
0.0,1.0,0.87772,0.0,9.0,9.0,9.0,1.0,mango_09s.jpg,0.0,Orange.png,2.0,6,,,,,,,,,,,,,,,,,
0.0,1.0,0.608,0.0,10.0,10.0,10.0,1.0,ostrich_06s.jpg,0.0,Yellow.png,2.0,6,,,,,,,,,,,,,,,,,
1.0,0.0,1.22449,0.0,11.0,11.0,11.0,1.0,iron_13s.jpg,0.0,Green.png,2.0,6,,,,,,,,,,,,,,,,,
0.0,1.0,1.287435,0.0,12.0,12.0,12.0,1.0,stethoscope_01b.jpg,0.0,Blue.png,3.0,6,,,,,,,,,,,,,,,,,
0.0,1.0,1.502315,0.0,13.0,13.0,13.0,1.0,ruby_15s.jpg,0.0,Purple.png,3.0,6,,,,,,,,,,,,,,,,,
1.0,0.0,1.556185,0.0,14.0,14.0,14.0,1.0,mango_09s.jpg,0.0,Red.png,3.0,6,,,,,,,,,,,,,,,,,
0.0,1.0,0.685305,0.0,15.0,15.0,15.0,1.0,target_11s.jpg,0.0,Orange.png,3.0,6,,,,,,,,,,,,,,,,,
1.0,1.0,1.023995,0.0,16.0,16.0,16.0,1.0,mango_09s.jpg,1.0,Yellow.png,3.0,6,,,,,,,,,,,,,,,,,
0.0,1.0,0.584525,0.0,17.0,17.0,17.0,1.0,compass_10n.jpg,0.0,Green.png,3.0,6,,,,,,,,,,,,,,,,,
0.0,1.0,0.62425,0.0,18.0,18.0,18.0,1.0,meatball_13s.jpg,0.0,Blue.png,4.0,6,,,,,,,,,,,,,,,,,
0.0,1.0,1.235965,0.0,19.0,19.0,19.0,1.0,stapler_01b.jpg,0.0,Purple.png,4.0,6,,,,,,,,,,,,,,,,,
1.0,1.0,0.979205,0.0,20.0,20.0,20.0,1.0,meatball_13s.jpg,1.0,Red.png,4.0,6,,,,,,,,,,,,,,,,,
0.0,1.0,0.705895,0.0,21.0,21.0,21.0,1.0,pump_11s.jpg,0.0,Orange.png,4.0,6,,,,,,,,,,,,,,,,,
0.0,1.0,0.74296,0.0,22.0,22.0,22.0,1.0,coral_08s.jpg,0.0,Yellow.png,4.0,6,,,,,,,,,,,,,,,,,
1.0,0.0,0.908895,0.0,23.0,23.0,23.0,1.0,meatball_13s.jpg,0.0,Green.png,4.0,6,,,,,,,,,,,,,,,,,
0.0,1.0,0.65183,0.0,24.0,24.0,24.0,1.0,peach_04s.jpg,0.0,Blue.png,5.0,6,,,,,,,,,,,,,,,,,
1.0,1.0,1.591035,0.0,25.0,25.0,25.0,1.0,meatball_13s.jpg,1.0,Purple.png,5.0,6,,,,,,,,,,,,,,,,,
0.0,1.0,0.94056,0.0,26.0,26.0,26.0,1.0,pie_08s.jpg,0.0,Red.png,5.0,6,,,,,,,,,,,,,,,,,
0.0,1.0,0.78792,0.0,27.0,27.0,27.0,1.0,rollerskate_03s.jpg,0.0,Orange.png,5.0,6,,,,,,,,,,,,,,,,,
0.0,1.0,0.645025,0.0,28.0,28.0,28.0,1.0,trampoline_13s.jpg,0.0,Yellow.png,5.0,6,,,,,,,,,,,,,,,,,
0.0,1.0,0.65822,0.0,29.0,29.0,29.0,1.0,undershirt_02s.jpg,0.0,Green.png,5.0,6,,,,,,,,,,,,,,,,,
0.0,1.0,1.48583,0.0,30.0,30.0,30.0,1.0,thread_08s.jpg,0.0,Blue.png,6.0,6,,,,,,,,,,,,,,,,,
0.0,1.0,1.285535,0.0,31.0,31.0,31.0,1.0,megaphone_03s.jpg,0.0,Purple.png,6.0,6,,,,,,,,,,,,,,,,,
0.0,1.0,0.685355,0.0,32.0,32.0,32.0,1.0,plaster_cast_13s.jpg,0.0,Red.png,6.0,6,,,,,,,,,,,,,,,,,
0.0,1.0,0.586995,0.0,33.0,33.0,33.0,1.0,diving_board_07s.jpg,0.0,Orange.png,6.0,6,,,,,,,,,,,,,,,,,
0.0,1.0,0.74137,0.0,34.0,34.0,34.0,1.0,kayak_08s.jpg,0.0,Yellow.png,6.0,6,,,,,,,,,,,,,,,,,
1.0,1.0,0.77587,0.0,35.0,35.0,35.0,1.0,diving_board_07s.jpg,1.0,Green.png,6.0,6,,,,,,,,,,,,,,,,,
,,,,,,,,,1.0,,,6,0.0,0.0,0.96389,0.0,0.0,0.0,0.0,1.0,stapler_01b.jpg,coral_08s.jpg,,,,,,,
,,,,,,,,,1.0,,,6,1.0,1.0,1.977735,0.0,1.0,1.0,1.0,1.0,slingshot_07s.jpg,crystal_ball_12s.jpg,,,,,,,
,,,,,,,,,0.0,,,6,1.0,0.0,1.47655,0.0,2.0,2.0,2.0,1.0,saddle_06s.jpg,kettle_08s.jpg,,,,,,,
,,,,,,,,,1.0,,,6,1.0,1.0,1.532485,0.0,3.0,3.0,3.0,1.0,pie_08s.jpg,undershirt_02s.jpg,,,,,,,
,,,,,,,,,1.0,,,6,0.0,0.0,1.64089,0.0,4.0,4.0,4.0,1.0,stethoscope_01b.jpg,target_11s.jpg,,,,,,,
,,,,,,,,,1.0,,,6,0.0,0.0,1.451145,0.0,5.0,5.0,5.0,1.0,ostrich_06s.jpg,ruby_15s.jpg,,,,,,,
,,,,,,,,,,,,6,,,,,,,,,,,0.0,0.0,0.0,0.0,1.0,new2backpresent_1_4.xlsx,new2back_compare_task_1_4.xlsx
0.0,1.0,0.87325,0.0,0.0,0.0,0.0,1.0,jetski_10s.jpg,0.0,Blue.png,1.0,6,,,,,,,,,,,,,,,,,
0.0,1.0,1.70129,0.0,1.0,1.0,1.0,1.0,tripod_01b.jpg,0.0,Purple.png,1.0,6,,,,,,,,,,,,,,,,,
0.0,1.0,1.755975,0.0,2.0,2.0,2.0,1.0,lab_coat_11s.jpg,0.0,Red.png,1.0,6,,,,,,,,,,,,,,,,,
0.0,1.0,1.220775,0.0,3.0,3.0,3.0,1.0,foam_03s.jpg,0.0,Orange.png,1.0,6,,,,,,,,,,,,,,,,,
0.0,1.0,2.21092,0.0,4.0,4.0,4.0,1.0,crate_05s.jpg,0.0,Yellow.png,1.0,6,,,,,,,,,,,,,,,,,
0.0,1.0,2.039485,0.0,5.0,5.0,5.0,1.0,margarita_03s.jpg,0.0,Green.png,1.0,6,,,,,,,,,,,,,,,,,
0.0,1.0,1.256625,0.0,6.0,6.0,6.0,1.0,joystick_01b.jpg,0.0,Blue.png,2.0,6,,,,,,,,,,,,,,,,,
0.0,1.0,0.76184,0.0,7.0,7.0,7.0,1.0,giraffe_11s.jpg,0.0,Purple.png,2.0,6,,,,,,,,,,,,,,,,,
0.0,1.0,0.675595,0.0,8.0,8.0,8.0,1.0,quilt_03s.jpg,0.0,Red.png,2.0,6,,,,,,,,,,,,,,,,,
0.0,0.0,1.27666,0.0,9.0,9.0,9.0,1.0,giraffe_11s.jpg,1.0,Orange.png,2.0,6,,,,,,,,,,,,,,,,,
0.0,1.0,1.15561,0.0,10.0,10.0,10.0,1.0,pincushion_10s.jpg,0.0,Yellow.png,2.0,6,,,,,,,,,,,,,,,,,
1.0,1.0,0.708215,0.0,11.0,11.0,11.0,1.0,giraffe_11s.jpg,1.0,Green.png,2.0,6,,,,,,,,,,,,,,,,,
1.0,1.0,1.2464,0.0,12.0,12.0,12.0,1.0,pincushion_10s.jpg,1.0,Blue.png,3.0,6,,,,,,,,,,,,,,,,,
1.0,1.0,0.876345,0.0,13.0,13.0,13.0,1.0,giraffe_11s.jpg,1.0,Purple.png,3.0,6,,,,,,,,,,,,,,,,,
0.0,1.0,0.711575,0.0,14.0,14.0,14.0,1.0,rolling_pin_02s.jpg,0.0,Red.png,3.0,6,,,,,,,,,,,,,,,,,
0.0,1.0,0.604765,0.0,15.0,15.0,15.0,1.0,ticktacktoe_08s.jpg,0.0,Orange.png,3.0,6,,,,,,,,,,,,,,,,,
1.0,0.0,0.622985,0.0,16.0,16.0,16.0,1.0,giraffe_11s.jpg,0.0,Yellow.png,3.0,6,,,,,,,,,,,,,,,,,
1.0,1.0,1.0513,0.0,17.0,17.0,17.0,1.0,ticktacktoe_08s.jpg,1.0,Green.png,3.0,6,,,,,,,,,,,,,,,,,
0.0,1.0,0.60225,0.0,18.0,18.0,18.0,1.0,typewriter_11s.jpg,0.0,Blue.png,4.0,6,,,,,,,,,,,,,,,,,
0.0,1.0,1.208895,0.0,19.0,19.0,19.0,1.0,toothpaste_12s.jpg,0.0,Purple.png,4.0,6,,,,,,,,,,,,,,,,,
0.0,1.0,0.682215,0.0,20.0,20.0,20.0,1.0,hummingbird_05s.jpg,0.0,Red.png,4.0,6,,,,,,,,,,,,,,,,,
1.0,1.0,0.77166,0.0,21.0,21.0,21.0,1.0,toothpaste_12s.jpg,1.0,Orange.png,4.0,6,,,,,,,,,,,,,,,,,
1.0,0.0,1.643155,0.0,22.0,22.0,22.0,1.0,toothpaste_12s.jpg,0.0,Yellow.png,4.0,6,,,,,,,,,,,,,,,,,
0.0,1.0,1.377945,0.0,23.0,23.0,23.0,1.0,treadmill_06s.jpg,0.0,Green.png,4.0,6,,,,,,,,,,,,,,,,,
1.0,0.0,0.77934,0.0,24.0,24.0,24.0,1.0,typewriter_11s.jpg,0.0,Blue.png,5.0,6,,,,,,,,,,,,,,,,,
0.0,1.0,1.005635,0.0,25.0,25.0,25.0,1.0,penguin_16s.jpg,0.0,Purple.png,5.0,6,,,,,,,,,,,,,,,,,
0.0,1.0,0.63865,0.0,26.0,26.0,26.0,1.0,olive_05s.jpg,0.0,Red.png,5.0,6,,,,,,,,,,,,,,,,,
1.0,1.0,1.03733,0.0,27.0,27.0,27.0,1.0,penguin_16s.jpg,1.0,Orange.png,5.0,6,,,,,,,,,,,,,,,,,
1.0,0.0,1.619695,0.0,28.0,28.0,28.0,1.0,penguin_16s.jpg,0.0,Yellow.png,5.0,6,,,,,,,,,,,,,,,,,
0.0,1.0,1.017005,0.0,29.0,29.0,29.0,1.0,tab_09s.jpg,0.0,Green.png,5.0,6,,,,,,,,,,,,,,,,,
0.0,1.0,0.79232,0.0,30.0,30.0,30.0,1.0,frame_06s.jpg,0.0,Blue.png,6.0,6,,,,,,,,,,,,,,,,,
0.0,1.0,1.21344,0.0,31.0,31.0,31.0,1.0,mop_08s.jpg,0.0,Purple.png,6.0,6,,,,,,,,,,,,,,,,,
0.0,1.0,0.789555,0.0,32.0,32.0,32.0,1.0,memory_stick_11s.jpg,0.0,Red.png,6.0,6,,,,,,,,,,,,,,,,,
1.0,0.0,0.95609,0.0,33.0,33.0,33.0,1.0,olive_05s.jpg,0.0,Orange.png,6.0,6,,,,,,,,,,,,,,,,,
0.0,1.0,0.96883,0.0,34.0,34.0,34.0,1.0,ravioli_08s.jpg,0.0,Yellow.png,6.0,6,,,,,,,,,,,,,,,,,
1.0,0.0,1.52899,0.0,35.0,35.0,35.0,1.0,mousetrap_15n.jpg,0.0,Green.png,6.0,6,,,,,,,,,,,,,,,,,
,,,,,,,,,1.0,,,6,1.0,1.0,0.4073,0.0,0.0,0.0,0.0,1.0,hummingbird_05s.jpg,treadmill_06s.jpg,,,,,,,
,,,,,,,,,1.0,,,6,0.0,0.0,1.37044,0.0,1.0,1.0,1.0,1.0,margarita_03s.jpg,quilt_03s.jpg,,,,,,,
,,,,,,,,,0.0,,,6,1.0,0.0,1.68981,0.0,2.0,2.0,2.0,1.0,joystick_01b.jpg,foam_03s.jpg,,,,,,,
,,,,,,,,,0.0,,,6,0.0,1.0,1.70874,0.0,3.0,3.0,3.0,1.0,ravioli_08s.jpg,mop_08s.jpg,,,,,,,
,,,,,,,,,1.0,,,6,0.0,0.0,1.482885,0.0,4.0,4.0,4.0,1.0,tab_09s.jpg,memory_stick_11s.jpg,,,,,,,
,,,,,,,,,1.0,,,6,1.0,1.0,1.247835,0.0,5.0,5.0,5.0,1.0,tripod_01b.jpg,crate_05s.jpg,,,,,,,
,,,,,,,,,,,,6,,,,,,,,,,,0.0,1.0,1.0,1.0,1.0,new2backpresent_2_4.xlsx,new2back_compare_task_2_4.xlsx
0.0,1.0,0.6735,0.0,0.0,0.0,0.0,1.0,safety_pin_02s.jpg,0.0,Blue.png,1.0,6,,,,,,,,,,,,,,,,,
1.0,0.0,2.431805,0.0,1.0,1.0,1.0,1.0,safety_pin_02s.jpg,0.0,Purple.png,1.0,6,,,,,,,,,,,,,,,,,
0.0,1.0,0.790915,0.0,2.0,2.0,2.0,1.0,cardinal_07s.jpg,0.0,Red.png,1.0,6,,,,,,,,,,,,,,,,,
1.0,1.0,1.47676,0.0,3.0,3.0,3.0,1.0,safety_pin_02s.jpg,1.0,Orange.png,1.0,6,,,,,,,,,,,,,,,,,
0.0,1.0,0.744215,0.0,4.0,4.0,4.0,1.0,potholder_02s.jpg,0.0,Yellow.png,1.0,6,,,,,,,,,,,,,,,,,
,0.0,,0.0,5.0,5.0,5.0,1.0,safety_pin_02s.jpg,1.0,Green.png,1.0,6,,,,,,,,,,,,,,,,,
1.0,0.0,1.54886,0.0,6.0,6.0,6.0,1.0,cardinal_07s.jpg,0.0,Blue.png,2.0,6,,,,,,,,,,,,,,,,,
0.0,1.0,0.824795,0.0,7.0,7.0,7.0,1.0,lion_18s.jpg,0.0,Purple.png,2.0,6,,,,,,,,,,,,,,,,,
0.0,1.0,0.662815,0.0,8.0,8.0,8.0,1.0,comic_book_02s.jpg,0.0,Red.png,2.0,6,,,,,,,,,,,,,,,,,
0.0,1.0,0.769035,0.0,9.0,9.0,9.0,1.0,lizard_10n.jpg,0.0,Orange.png,2.0,6,,,,,,,,,,,,,,,,,
0.0,1.0,0.736885,0.0,10.0,10.0,10.0,1.0,rice_12s.jpg,0.0,Yellow.png,2.0,6,,,,,,,,,,,,,,,,,
0.0,1.0,0.713605,0.0,11.0,11.0,11.0,1.0,bagel_15s.jpg,0.0,Green.png,2.0,6,,,,,,,,,,,,,,,,,
0.0,1.0,0.873675,0.0,12.0,12.0,12.0,1.0,recliner_02s.jpg,0.0,Blue.png,3.0,6,,,,,,,,,,,,,,,,,
,0.0,,0.0,13.0,13.0,13.0,1.0,recliner_02s.jpg,0.0,Purple.png,3.0,6,,,,,,,,,,,,,,,,,
0.0,1.0,0.704975,0.0,14.0,14.0,14.0,1.0,luggage_08s.jpg,0.0,Red.png,3.0,6,,,,,,,,,,,,,,,,,
1.0,1.0,1.41011,0.0,15.0,15.0,15.0,1.0,recliner_02s.jpg,1.0,Orange.png,3.0,6,,,,,,,,,,,,,,,,,
0.0,1.0,0.46857,0.0,16.0,16.0,16.0,1.0,onion_10s.jpg,0.0,Yellow.png,3.0,6,,,,,,,,,,,,,,,,,
0.0,1.0,0.821815,0.0,17.0,17.0,17.0,1.0,rosary_03s.jpg,0.0,Green.png,3.0,6,,,,,,,,,,,,,,,,,
0.0,1.0,0.558045,0.0,18.0,18.0,18.0,1.0,smokingpipe.jpg,0.0,Blue.png,4.0,6,,,,,,,,,,,,,,,,,
0.0,1.0,0.477245,0.0,19.0,19.0,19.0,1.0,roulette_wheel_04s.jpg,0.0,Purple.png,4.0,6,,,,,,,,,,,,,,,,,
1.0,1.0,1.25971,0.0,20.0,20.0,20.0,1.0,smokingpipe.jpg,1.0,Red.png,4.0,6,,,,,,,,,,,,,,,,,
0.0,1.0,0.652145,0.0,21.0,21.0,21.0,1.0,orchid_01b.jpg,0.0,Orange.png,4.0,6,,,,,,,,,,,,,,,,,
0.0,1.0,1.00217,0.0,22.0,22.0,22.0,1.0,buoy_04s.jpg,0.0,Yellow.png,4.0,6,,,,,,,,,,,,,,,,,
0.0,1.0,0.523945,0.0,23.0,23.0,23.0,1.0,stopwatch_04s.jpg,0.0,Green.png,4.0,6,,,,,,,,,,,,,,,,,
0.0,1.0,0.593605,0.0,24.0,24.0,24.0,1.0,knitting_needle_04s.jpg,0.0,Blue.png,5.0,6,,,,,,,,,,,,,,,,,
0.0,1.0,0.573115,0.0,25.0,25.0,25.0,1.0,prism_10s.jpg,0.0,Purple.png,5.0,6,,,,,,,,,,,,,,,,,
0.0,1.0,0.640845,0.0,26.0,26.0,26.0,1.0,teapot_03s.jpg,0.0,Red.png,5.0,6,,,,,,,,,,,,,,,,,
0.0,1.0,0.606315,0.0,27.0,27.0,27.0,1.0,fire_pit_10s.jpg,0.0,Orange.png,5.0,6,,,,,,,,,,,,,,,,,
1.0,0.0,1.70424,0.0,28.0,28.0,28.0,1.0,fire_pit_10s.jpg,0.0,Yellow.png,5.0,6,,,,,,,,,,,,,,,,,
0.0,0.0,0.98113,0.0,29.0,29.0,29.0,1.0,fire_pit_10s.jpg,1.0,Green.png,5.0,6,,,,,,,,,,,,,,,,,
0.0,1.0,1.361285,0.0,30.0,30.0,30.0,1.0,ironing_board_07s.jpg,0.0,Blue.png,6.0,6,,,,,,,,,,,,,,,,,
1.0,1.0,1.609825,0.0,31.0,31.0,31.0,1.0,fire_pit_10s.jpg,1.0,Purple.png,6.0,6,,,,,,,,,,,,,,,,,
0.0,1.0,1.04176,0.0,32.0,32.0,32.0,1.0,mattress_01s.jpg,0.0,Red.png,6.0,6,,,,,,,,,,,,,,,,,
1.0,1.0,1.543205,0.0,33.0,33.0,33.0,1.0,fire_pit_10s.jpg,1.0,Orange.png,6.0,6,,,,,,,,,,,,,,,,,
0.0,0.0,1.356555,0.0,34.0,34.0,34.0,1.0,mattress_01s.jpg,1.0,Yellow.png,6.0,6,,,,,,,,,,,,,,,,,
0.0,1.0,0.62324,0.0,35.0,35.0,35.0,1.0,ice-cream_cone_06s.jpg,0.0,Green.png,6.0,6,,,,,,,,,,,,,,,,,
,,,,,,,,,1.0,,,6,0.0,0.0,2.075105,0.0,0.0,0.0,0.0,1.0,roulette_wheel_04s.jpg,buoy_04s.jpg,,,,,,,
,,,,,,,,,0.0,,,6,1.0,0.0,1.03501,0.0,1.0,1.0,1.0,1.0,lion_18s.jpg,potholder_02s.jpg,,,,,,,
,,,,,,,,,0.0,,,6,0.0,1.0,1.299285,0.0,2.0,2.0,2.0,1.0,bagel_15s.jpg,comic_book_02s.jpg,,,,,,,
,,,,,,,,,1.0,,,6,1.0,1.0,1.41689,0.0,3.0,3.0,3.0,1.0,stopwatch_04s.jpg,teapot_03s.jpg,,,,,,,
,,,,,,,,,1.0,,,6,1.0,1.0,1.46797,0.0,4.0,4.0,4.0,1.0,luggage_08s.jpg,rosary_03s.jpg,,,,,,,
,,,,,,,,,1.0,,,6,0.0,0.0,1.049055,0.0,5.0,5.0,5.0,1.0,orchid_01b.jpg,knitting_needle_04s.jpg,,,,,,,
,,,,,,,,,,,,6,,,,,,,,,,,0.0,2.0,2.0,2.0,1.0,new2backpresent_3_4.xlsx,new2back_compare_task_3_4.xlsx
0.0,1.0,1.10348,0.0,0.0,0.0,0.0,1.0,smoothie_09s.jpg,0.0,Blue.png,1.0,6,,,,,,,,,,,,,,,,,
0.0,1.0,0.84773,0.0,1.0,1.0,1.0,1.0,raspberry_12s.jpg,0.0,Purple.png,1.0,6,,,,,,,,,,,,,,,,,
1.0,0.0,0.878795,0.0,2.0,2.0,2.0,1.0,raspberry_12s.jpg,0.0,Red.png,1.0,6,,,,,,,,,,,,,,,,,
0.0,1.0,0.725785,0.0,3.0,3.0,3.0,1.0,lamb_chop_07s.jpg,0.0,Orange.png,1.0,6,,,,,,,,,,,,,,,,,
1.0,0.0,1.25672,0.0,4.0,4.0,4.0,1.0,smoothie_09s.jpg,0.0,Yellow.png,1.0,6,,,,,,,,,,,,,,,,,
0.0,1.0,0.90574,0.0,5.0,5.0,5.0,1.0,raspberry_12s.jpg,0.0,Green.png,1.0,6,,,,,,,,,,,,,,,,,
0.0,1.0,0.53537,0.0,6.0,6.0,6.0,1.0,lava_02s.jpg,0.0,Blue.png,2.0,6,,,,,,,,,,,,,,,,,
0.0,1.0,0.54294,0.0,7.0,7.0,7.0,1.0,trident_07s.jpg,0.0,Purple.png,2.0,6,,,,,,,,,,,,,,,,,
1.0,0.0,1.209695,0.0,8.0,8.0,8.0,1.0,trident_07s.jpg,0.0,Red.png,2.0,6,,,,,,,,,,,,,,,,,
1.0,1.0,0.907895,0.0,9.0,9.0,9.0,1.0,trident_07s.jpg,1.0,Orange.png,2.0,6,,,,,,,,,,,,,,,,,
0.0,1.0,0.643325,0.0,10.0,10.0,10.0,1.0,orangutan_03s.jpg,0.0,Yellow.png,2.0,6,,,,,,,,,,,,,,,,,
1.0,1.0,0.761755,0.0,11.0,11.0,11.0,1.0,trident_07s.jpg,1.0,Green.png,2.0,6,,,,,,,,,,,,,,,,,
0.0,1.0,1.091865,0.0,12.0,12.0,12.0,1.0,raspberry_12s.jpg,0.0,Blue.png,3.0,6,,,,,,,,,,,,,,,,,
1.0,1.0,0.987455,0.0,13.0,13.0,13.0,1.0,trident_07s.jpg,1.0,Purple.png,3.0,6,,,,,,,,,,,,,,,,,
0.0,1.0,0.708945,0.0,14.0,14.0,14.0,1.0,lavender_10s.jpg,0.0,Red.png,3.0,6,,,,,,,,,,,,,,,,,
0.0,1.0,0.759385,0.0,15.0,15.0,15.0,1.0,chip_04s.jpg,0.0,Orange.png,3.0,6,,,,,,,,,,,,,,,,,
0.0,1.0,0.587255,0.0,16.0,16.0,16.0,1.0,lamb_04s.jpg,0.0,Yellow.png,3.0,6,,,,,,,,,,,,,,,,,
0.0,1.0,0.562495,0.0,17.0,17.0,17.0,1.0,emerald_02s.jpg,0.0,Green.png,3.0,6,,,,,,,,,,,,,,,,,
0.0,1.0,0.996085,0.0,18.0,18.0,18.0,1.0,pineapple_12s.jpg,0.0,Blue.png,4.0,6,,,,,,,,,,,,,,,,,
0.0,1.0,0.72184,0.0,19.0,19.0,19.0,1.0,sundae_08s.jpg,0.0,Purple.png,4.0,6,,,,,,,,,,,,,,,,,
0.0,1.0,1.672915,0.0,20.0,20.0,20.0,1.0,sundae_08s.jpg,0.0,Red.png,4.0,6,,,,,,,,,,,,,,,,,
0.0,1.0,0.95319,0.0,21.0,21.0,21.0,1.0,squirrel_02s.jpg,0.0,Orange.png,4.0,6,,,,,,,,,,,,,,,,,
0.0,1.0,0.667265,0.0,22.0,22.0,22.0,1.0,roller_coaster_07s.jpg,0.0,Yellow.png,4.0,6,,,,,,,,,,,,,,,,,
1.0,0.0,1.5412,0.0,23.0,23.0,23.0,1.0,sundae_08s.jpg,0.0,Green.png,4.0,6,,,,,,,,,,,,,,,,,
0.0,1.0,0.915305,0.0,24.0,24.0,24.0,1.0,tweezers_03s.jpg,0.0,Blue.png,5.0,6,,,,,,,,,,,,,,,,,
1.0,1.0,0.65677,0.0,25.0,25.0,25.0,1.0,sundae_08s.jpg,1.0,Purple.png,5.0,6,,,,,,,,,,,,,,,,,
0.0,1.0,0.692875,0.0,26.0,26.0,26.0,1.0,rudder_02s.jpg,0.0,Red.png,5.0,6,,,,,,,,,,,,,,,,,
0.0,1.0,0.779685,0.0,27.0,27.0,27.0,1.0,rake_06s.jpg,0.0,Orange.png,5.0,6,,,,,,,,,,,,,,,,,
1.0,0.0,0.87409,0.0,28.0,28.0,28.0,1.0,rake_06s.jpg,0.0,Yellow.png,5.0,6,,,,,,,,,,,,,,,,,
0.0,0.0,1.31034,0.0,29.0,29.0,29.0,1.0,rake_06s.jpg,1.0,Green.png,5.0,6,,,,,,,,,,,,,,,,,
0.0,1.0,1.004685,0.0,30.0,30.0,30.0,1.0,cap_05s.jpg,0.0,Blue.png,6.0,6,,,,,,,,,,,,,,,,,
0.0,1.0,0.710195,0.0,31.0,31.0,31.0,1.0,paper_towel_03s.jpg,0.0,Purple.png,6.0,6,,,,,,,,,,,,,,,,,
0.0,1.0,0.576125,0.0,32.0,32.0,32.0,1.0,toaster_03s.jpg,0.0,Red.png,6.0,6,,,,,,,,,,,,,,,,,
0.0,1.0,0.76957,0.0,33.0,33.0,33.0,1.0,money_07s.jpg,0.0,Orange.png,6.0,6,,,,,,,,,,,,,,,,,
0.0,1.0,0.49516,0.0,34.0,34.0,34.0,1.0,pinwheel_06s.jpg,0.0,Yellow.png,6.0,6,,,,,,,,,,,,,,,,,
0.0,1.0,0.53625,0.0,35.0,35.0,35.0,1.0,lid_10s.jpg,0.0,Green.png,6.0,6,,,,,,,,,,,,,,,,,
,,,,,,,,,0.0,,,6,0.0,1.0,2.1156,0.0,0.0,0.0,0.0,1.0,tweezers_03s.jpg,squirrel_02s.jpg,,,,,,,
,,,,,,,,,1.0,,,6,1.0,1.0,1.022995,0.0,1.0,1.0,1.0,1.0,chip_04s.jpg,pineapple_12s.jpg,,,,,,,
,,,,,,,,,1.0,,,6,1.0,1.0,0.98862,0.0,2.0,2.0,2.0,1.0,lamb_chop_07s.jpg,lava_02s.jpg,,,,,,,
,,,,,,,,,0.0,,,6,1.0,0.0,1.28776,0.0,3.0,3.0,3.0,1.0,pinwheel_06s.jpg,paper_towel_03s.jpg,,,,,,,
,,,,,,,,,0.0,,,6,1.0,0.0,1.25627,0.0,4.0,4.0,4.0,1.0,emerald_02s.jpg,lavender_10s.jpg,,,,,,,
,,,,,,,,,0.0,,,6,1.0,0.0,1.576375,0.0,5.0,5.0,5.0,1.0,money_07s.jpg,cap_05s.jpg,,,,,,,
,,,,,,,,,,,,6,,,,,,,,,,,0.0,3.0,3.0,3.0,1.0,new2backpresent_4_4.xlsx,new2back_compare_task_4_4.xlsx
0.0,1.0,0.9066,0.0,0.0,0.0,0.0,1.0,fur_coat_11s.jpg,0.0,Blue.png,1.0,6,,,,,,,,,,,,,,,,,
0.0,1.0,0.47329,0.0,1.0,1.0,1.0,1.0,crayon_09s.jpg,0.0,Purple.png,1.0,6,,,,,,,,,,,,,,,,,
0.0,1.0,0.519435,0.0,2.0,2.0,2.0,1.0,cobra_05s.jpg,0.0,Red.png,1.0,6,,,,,,,,,,,,,,,,,
0.0,1.0,0.556405,0.0,3.0,3.0,3.0,1.0,raccoon_02s.jpg,0.0,Orange.png,1.0,6,,,,,,,,,,,,,,,,,
0.0,1.0,0.60268,0.0,4.0,4.0,4.0,1.0,soda_fountain_03s.jpg,0.0,Yellow.png,1.0,6,,,,,,,,,,,,,,,,,
0.0,0.0,1.325245,0.0,5.0,5.0,5.0,1.0,raccoon_02s.jpg,1.0,Green.png,1.0,6,,,,,,,,,,,,,,,,,
0.0,1.0,0.507405,0.0,6.0,6.0,6.0,1.0,feather02.jpg,0.0,Blue.png,2.0,6,,,,,,,,,,,,,,,,,
0.0,0.0,1.15422,0.0,7.0,7.0,7.0,1.0,raccoon_02s.jpg,1.0,Purple.png,2.0,6,,,,,,,,,,,,,,,,,
1.0,1.0,0.857765,0.0,8.0,8.0,8.0,1.0,feather02.jpg,1.0,Red.png,2.0,6,,,,,,,,,,,,,,,,,
0.0,1.0,0.4559,0.0,9.0,9.0,9.0,1.0,rug_09s.jpg,0.0,Orange.png,2.0,6,,,,,,,,,,,,,,,,,
1.0,1.0,1.024645,0.0,10.0,10.0,10.0,1.0,feather02.jpg,1.0,Yellow.png,2.0,6,,,,,,,,,,,,,,,,,
0.0,1.0,0.789245,0.0,11.0,11.0,11.0,1.0,cushion_08s.jpg,0.0,Green.png,2.0,6,,,,,,,,,,,,,,,,,
1.0,1.0,1.95927,0.0,12.0,12.0,12.0,1.0,feather02.jpg,1.0,Blue.png,3.0,6,,,,,,,,,,,,,,,,,
0.0,1.0,1.640005,0.0,13.0,13.0,13.0,1.0,feather02.jpg,0.0,Purple.png,3.0,6,,,,,,,,,,,,,,,,,
0.0,1.0,0.6114,0.0,14.0,14.0,14.0,1.0,ice_pack_09s.jpg,0.0,Red.png,3.0,6,,,,,,,,,,,,,,,,,
0.0,1.0,0.93164,0.0,15.0,15.0,15.0,1.0,ice_pack_09s.jpg,0.0,Orange.png,3.0,6,,,,,,,,,,,,,,,,,
0.0,1.0,1.489165,0.0,16.0,16.0,16.0,1.0,loom_05s.jpg,0.0,Yellow.png,3.0,6,,,,,,,,,,,,,,,,,
1.0,1.0,1.06487,0.0,17.0,17.0,17.0,1.0,ice_pack_09s.jpg,1.0,Green.png,3.0,6,,,,,,,,,,,,,,,,,
1.0,0.0,1.943005,0.0,18.0,18.0,18.0,1.0,ice_pack_09s.jpg,0.0,Blue.png,4.0,6,,,,,,,,,,,,,,,,,
0.0,0.0,0.597545,0.0,19.0,19.0,19.0,1.0,ice_pack_09s.jpg,1.0,Purple.png,4.0,6,,,,,,,,,,,,,,,,,
1.0,1.0,0.921285,0.0,20.0,20.0,20.0,1.0,ice_pack_09s.jpg,1.0,Red.png,4.0,6,,,,,,,,,,,,,,,,,
0.0,1.0,0.40657,0.0,21.0,21.0,21.0,1.0,blazer_02s.jpg,0.0,Orange.png,4.0,6,,,,,,,,,,,,,,,,,
0.0,1.0,0.50268,0.0,22.0,22.0,22.0,1.0,penlight_12s.jpg,0.0,Yellow.png,4.0,6,,,,,,,,,,,,,,,,,
0.0,1.0,0.855015,0.0,23.0,23.0,23.0,1.0,swan_11s.jpg,0.0,Green.png,4.0,6,,,,,,,,,,,,,,,,,
0.0,1.0,0.91985,0.0,24.0,24.0,24.0,1.0,plunger_08s.jpg,0.0,Blue.png,5.0,6,,,,,,,,,,,,,,,,,
0.0,1.0,0.54063,0.0,25.0,25.0,25.0,1.0,bottle_opener_11s.jpg,0.0,Purple.png,5.0,6,,,,,,,,,,,,,,,,,
0.0,1.0,0.489515,0.0,26.0,26.0,26.0,1.0,checkbook_11s.jpg,0.0,Red.png,5.0,6,,,,,,,,,,,,,,,,,
0.0,1.0,0.47655,0.0,27.0,27.0,27.0,1.0,ink_08s.jpg,0.0,Orange.png,5.0,6,,,,,,,,,,,,,,,,,
1.0,0.0,1.481605,0.0,28.0,28.0,28.0,1.0,plunger_08s.jpg,0.0,Yellow.png,5.0,6,,,,,,,,,,,,,,,,,
0.0,1.0,0.50271,0.0,29.0,29.0,29.0,1.0,pencil02a.jpg,0.0,Green.png,5.0,6,,,,,,,,,,,,,,,,,
0.0,1.0,0.4708,0.0,30.0,30.0,30.0,1.0,ginger_09s.jpg,0.0,Blue.png,6.0,6,,,,,,,,,,,,,,,,,
0.0,1.0,0.50496,0.0,31.0,31.0,31.0,1.0,taxi_15s.jpg,0.0,Purple.png,6.0,6,,,,,,,,,,,,,,,,,
0.0,1.0,0.82043,0.0,32.0,32.0,32.0,1.0,toy_04s.jpg,0.0,Red.png,6.0,6,,,,,,,,,,,,,,,,,
0.0,1.0,0.754205,0.0,33.0,33.0,33.0,1.0,blowfish_03s.jpg,0.0,Orange.png,6.0,6,,,,,,,,,,,,,,,,,
0.0,1.0,1.18733,0.0,34.0,34.0,34.0,1.0,toilet_paper_12s.jpg,0.0,Yellow.png,6.0,6,,,,,,,,,,,,,,,,,
0.0,1.0,0.437265,0.0,35.0,35.0,35.0,1.0,puddle_02s.jpg,0.0,Green.png,6.0,6,,,,,,,,,,,,,,,,,
,,,,,,,,,1.0,,,6,1.0,1.0,1.44368,0.0,0.0,0.0,0.0,1.0,ink_08s.jpg,ginger_09s.jpg,,,,,,,
,,,,,,,,,0.0,,,6,0.0,1.0,1.80787,0.0,1.0,1.0,1.0,1.0,puddle_02s.jpg,toy_04s.jpg,,,,,,,
,,,,,,,,,0.0,,,6,1.0,0.0,1.291385,0.0,2.0,2.0,2.0,1.0,bottle_opener_11s.jpg,penlight_12s.jpg,,,,,,,
,,,,,,,,,0.0,,,6,0.0,1.0,1.183125,0.0,3.0,3.0,3.0,1.0,checkbook_11s.jpg,swan_11s.jpg,,,,,,,
,,,,,,,,,1.0,,,6,0.0,0.0,1.39899,0.0,4.0,4.0,4.0,1.0,taxi_15s.jpg,toilet_paper_12s.jpg,,,,,,,
,,,,,,,,,1.0,,,6,1.0,1.0,0.847325,0.0,5.0,5.0,5.0,1.0,crayon_09s.jpg,soda_fountain_03s.jpg,,,,,,,
,,,,,,,,,,,,6,,,,,,,,,,,0.0,4.0,4.0,4.0,1.0,new2backpresent_5_4.xlsx,new2back_compare_task_5_4.xlsx
0.0,1.0,0.658045,0.0,0.0,0.0,0.0,1.0,flask_04s.jpg,0.0,Blue.png,1.0,6,,,,,,,,,,,,,,,,,
0.0,1.0,0.60104,0.0,1.0,1.0,1.0,1.0,kimono_13s.jpg,0.0,Purple.png,1.0,6,,,,,,,,,,,,,,,,,
0.0,1.0,0.54953,0.0,2.0,2.0,2.0,1.0,limousine_12s.jpg,0.0,Red.png,1.0,6,,,,,,,,,,,,,,,,,
0.0,1.0,0.45529,0.0,3.0,3.0,3.0,1.0,lectern_08s.jpg,0.0,Orange.png,1.0,6,,,,,,,,,,,,,,,,,
1.0,0.0,1.038035,0.0,4.0,4.0,4.0,1.0,kimono_13s.jpg,0.0,Yellow.png,1.0,6,,,,,,,,,,,,,,,,,
0.0,1.0,0.830525,0.0,5.0,5.0,5.0,1.0,doily_13s.jpg,0.0,Green.png,1.0,6,,,,,,,,,,,,,,,,,
1.0,1.0,0.773325,0.0,6.0,6.0,6.0,1.0,kimono_13s.jpg,1.0,Blue.png,2.0,6,,,,,,,,,,,,,,,,,
0.0,1.0,0.461055,0.0,7.0,7.0,7.0,1.0,razor_blade_01b.jpg,0.0,Purple.png,2.0,6,,,,,,,,,,,,,,,,,
1.0,0.0,0.97986,0.0,8.0,8.0,8.0,1.0,razor_blade_01b.jpg,0.0,Red.png,2.0,6,,,,,,,,,,,,,,,,,
0.0,1.0,0.47751,0.0,9.0,9.0,9.0,1.0,champagne_18s.jpg,0.0,Orange.png,2.0,6,,,,,,,,,,,,,,,,,
0.0,1.0,0.77714,0.0,10.0,10.0,10.0,1.0,stamp1_11s.jpg,0.0,Yellow.png,2.0,6,,,,,,,,,,,,,,,,,
1.0,1.0,1.22238,0.0,11.0,11.0,11.0,1.0,champagne_18s.jpg,1.0,Green.png,2.0,6,,,,,,,,,,,,,,,,,
0.0,1.0,0.501255,0.0,12.0,12.0,12.0,1.0,crossbow_10s.jpg,0.0,Blue.png,3.0,6,,,,,,,,,,,,,,,,,
0.0,1.0,0.521085,0.0,13.0,13.0,13.0,1.0,briefcase_03s.jpg,0.0,Purple.png,3.0,6,,,,,,,,,,,,,,,,,
0.0,1.0,0.47617,0.0,14.0,14.0,14.0,1.0,jersey_02s.jpg,0.0,Red.png,3.0,6,,,,,,,,,,,,,,,,,
0.0,0.0,0.541195,0.0,15.0,15.0,15.0,1.0,briefcase_03s.jpg,1.0,Orange.png,3.0,6,,,,,,,,,,,,,,,,,
0.0,1.0,0.653855,0.0,16.0,16.0,16.0,1.0,oil_02s.jpg,0.0,Yellow.png,3.0,6,,,,,,,,,,,,,,,,,
0.0,1.0,0.73436,0.0,17.0,17.0,17.0,1.0,tinsel_12s.jpg,0.0,Green.png,3.0,6,,,,,,,,,,,,,,,,,
0.0,1.0,1.112155,0.0,18.0,18.0,18.0,1.0,flask_04s.jpg,0.0,Blue.png,4.0,6,,,,,,,,,,,,,,,,,
0.0,1.0,1.041165,0.0,19.0,19.0,19.0,1.0,fork_04s.jpg,0.0,Purple.png,4.0,6,,,,,,,,,,,,,,,,,
0.0,1.0,0.759465,0.0,20.0,20.0,20.0,1.0,purse_05s.jpg,0.0,Red.png,4.0,6,,,,,,,,,,,,,,,,,
1.0,0.0,0.62137,0.0,21.0,21.0,21.0,1.0,flask_04s.jpg,0.0,Orange.png,4.0,6,,,,,,,,,,,,,,,,,
0.0,1.0,0.60304,0.0,22.0,22.0,22.0,1.0,sledgehammer_03s.jpg,0.0,Yellow.png,4.0,6,,,,,,,,,,,,,,,,,
0.0,1.0,0.45539,0.0,23.0,23.0,23.0,1.0,turf_03s.jpg,0.0,Green.png,4.0,6,,,,,,,,,,,,,,,,,
0.0,1.0,0.506485,0.0,24.0,24.0,24.0,1.0,omelet_07s.jpg,0.0,Blue.png,5.0,6,,,,,,,,,,,,,,,,,
1.0,1.0,0.842595,0.0,25.0,25.0,25.0,1.0,turf_03s.jpg,1.0,Purple.png,5.0,6,,,,,,,,,,,,,,,,,
0.0,1.0,0.68867,0.0,26.0,26.0,26.0,1.0,clover_04s.jpg,0.0,Red.png,5.0,6,,,,,,,,,,,,,,,,,
0.0,1.0,0.6274,0.0,27.0,27.0,27.0,1.0,lip_gloss_06s.jpg,0.0,Orange.png,5.0,6,,,,,,,,,,,,,,,,,
0.0,1.0,0.58094,0.0,28.0,28.0,28.0,1.0,amber_04s.jpg,0.0,Yellow.png,5.0,6,,,,,,,,,,,,,,,,,
0.0,1.0,0.52006,0.0,29.0,29.0,29.0,1.0,tortilla_06s.jpg,0.0,Green.png,5.0,6,,,,,,,,,,,,,,,,,
1.0,0.0,0.89418,0.0,30.0,30.0,30.0,1.0,razor_blade_01b.jpg,0.0,Blue.png,6.0,6,,,,,,,,,,,,,,,,,
0.0,1.0,0.559745,0.0,31.0,31.0,31.0,1.0,tape_measure_11s.jpg,0.0,Purple.png,6.0,6,,,,,,,,,,,,,,,,,
1.0,1.0,1.63413,0.0,32.0,32.0,32.0,1.0,razor_blade_01b.jpg,1.0,Red.png,6.0,6,,,,,,,,,,,,,,,,,
0.0,1.0,1.218405,0.0,33.0,33.0,33.0,1.0,razor_blade_01b.jpg,0.0,Orange.png,6.0,6,,,,,,,,,,,,,,,,,
0.0,1.0,0.505015,0.0,34.0,34.0,34.0,1.0,stingray_02s.jpg,0.0,Yellow.png,6.0,6,,,,,,,,,,,,,,,,,
0.0,1.0,0.59588,0.0,35.0,35.0,35.0,1.0,harpoon.jpg,0.0,Green.png,6.0,6,,,,,,,,,,,,,,,,,
,,,,,,,,,1.0,,,6,0.0,0.0,1.13963,0.0,0.0,0.0,0.0,1.0,oil_02s.jpg,fork_04s.jpg,,,,,,,
,,,,,,,,,0.0,,,6,0.0,1.0,1.36026,0.0,1.0,1.0,1.0,1.0,doily_13s.jpg,limousine_12s.jpg,,,,,,,
,,,,,,,,,0.0,,,6,1.0,0.0,1.38991,0.0,2.0,2.0,2.0,1.0,lip_gloss_06s.jpg,omelet_07s.jpg,,,,,,,
,,,,,,,,,0.0,,,6,1.0,0.0,1.730245,0.0,3.0,3.0,3.0,1.0,tape_measure_11s.jpg,amber_04s.jpg,,,,,,,
,,,,,,,,,0.0,,,6,0.0,1.0,1.301295,0.0,4.0,4.0,4.0,1.0,tortilla_06s.jpg,clover_04s.jpg,,,,,,,
,,,,,,,,,0.0,,,6,1.0,0.0,1.18772,0.0,5.0,5.0,5.0,1.0,purse_05s.jpg,tinsel_12s.jpg,,,,,,,
,,,,,,,,,,,,6,,,,,,,,,,,0.0,5.0,5.0,5.0,1.0,new2backpresent_6_4.xlsx,new2back_compare_task_6_4.xlsx
0.0,1.0,0.758055,0.0,0.0,0.0,0.0,1.0,butter_14s.jpg,0.0,Blue.png,1.0,6,,,,,,,,,,,,,,,,,
0.0,1.0,1.814875,0.0,1.0,1.0,1.0,1.0,butter_14s.jpg,0.0,Purple.png,1.0,6,,,,,,,,,,,,,,,,,
1.0,1.0,1.84144,0.0,2.0,2.0,2.0,1.0,butter_14s.jpg,1.0,Red.png,1.0,6,,,,,,,,,,,,,,,,,
0.0,1.0,0.909785,0.0,3.0,3.0,3.0,1.0,stamp2_08s.jpg,0.0,Orange.png,1.0,6,,,,,,,,,,,,,,,,,
0.0,1.0,0.84785,0.0,4.0,4.0,4.0,1.0,kangaroo_02s.jpg,0.0,Yellow.png,1.0,6,,,,,,,,,,,,,,,,,
0.0,1.0,0.62292,0.0,5.0,5.0,5.0,1.0,camcorder_10s.jpg,0.0,Green.png,1.0,6,,,,,,,,,,,,,,,,,
0.0,1.0,0.459535,0.0,6.0,6.0,6.0,1.0,bank_06s.jpg,0.0,Blue.png,2.0,6,,,,,,,,,,,,,,,,,
0.0,1.0,0.50954,0.0,7.0,7.0,7.0,1.0,gear_07s.jpg,0.0,Purple.png,2.0,6,,,,,,,,,,,,,,,,,
0.0,0.0,1.139705,0.0,8.0,8.0,8.0,1.0,bank_06s.jpg,1.0,Red.png,2.0,6,,,,,,,,,,,,,,,,,
0.0,1.0,0.472095,0.0,9.0,9.0,9.0,1.0,funnel_01b.jpg,0.0,Orange.png,2.0,6,,,,,,,,,,,,,,,,,
0.0,1.0,0.772235,0.0,10.0,10.0,10.0,1.0,poinsettia_04s.jpg,0.0,Yellow.png,2.0,6,,,,,,,,,,,,,,,,,
1.0,1.0,1.67449,0.0,11.0,11.0,11.0,1.0,funnel_01b.jpg,1.0,Green.png,2.0,6,,,,,,,,,,,,,,,,,
0.0,1.0,0.639995,0.0,12.0,12.0,12.0,1.0,rooster_03s.jpg,0.0,Blue.png,3.0,6,,,,,,,,,,,,,,,,,
0.0,1.0,0.80725,0.0,13.0,13.0,13.0,1.0,denture_03s.jpg,0.0,Purple.png,3.0,6,,,,,,,,,,,,,,,,,
0.0,1.0,0.537225,0.0,14.0,14.0,14.0,1.0,bean_06s.jpg,0.0,Red.png,3.0,6,,,,,,,,,,,,,,,,,
0.0,1.0,0.64334,0.0,15.0,15.0,15.0,1.0,mud_13s.jpg,0.0,Orange.png,3.0,6,,,,,,,,,,,,,,,,,
0.0,1.0,1.005595,0.0,16.0,16.0,16.0,1.0,keyhole_03s.jpg,0.0,Yellow.png,3.0,6,,,,,,,,,,,,,,,,,
0.0,1.0,0.497065,0.0,17.0,17.0,17.0,1.0,bean_06s.jpg,0.0,Green.png,3.0,6,,,,,,,,,,,,,,,,,
0.0,1.0,1.00515,0.0,18.0,18.0,18.0,1.0,bank_06s.jpg,0.0,Blue.png,4.0,6,,,,,,,,,,,,,,,,,
0.0,1.0,0.52988,0.0,19.0,19.0,19.0,1.0,pomegranate_04s.jpg,0.0,Purple.png,4.0,6,,,,,,,,,,,,,,,,,
0.0,1.0,0.64541,0.0,20.0,20.0,20.0,1.0,chopsticks_08s.jpg,0.0,Red.png,4.0,6,,,,,,,,,,,,,,,,,
0.0,1.0,0.995215,0.0,21.0,21.0,21.0,1.0,contact_lens_15s.jpg,0.0,Orange.png,4.0,6,,,,,,,,,,,,,,,,,
0.0,1.0,1.11099,0.0,22.0,22.0,22.0,1.0,hydrant_10s.jpg,0.0,Yellow.png,4.0,6,,,,,,,,,,,,,,,,,
0.0,1.0,0.79189,0.0,23.0,23.0,23.0,1.0,gingerbread_man_03s.jpg,0.0,Green.png,4.0,6,,,,,,,,,,,,,,,,,
0.0,1.0,0.46825,0.0,24.0,24.0,24.0,1.0,camcorder_10s.jpg,0.0,Blue.png,5.0,6,,,,,,,,,,,,,,,,,
0.0,1.0,0.769765,0.0,25.0,25.0,25.0,1.0,teabag_12s.jpg,0.0,Purple.png,5.0,6,,,,,,,,,,,,,,,,,
0.0,1.0,0.910255,0.0,26.0,26.0,26.0,1.0,radiator_05s.jpg,0.0,Red.png,5.0,6,,,,,,,,,,,,,,,,,
0.0,1.0,0.889645,0.0,27.0,27.0,27.0,1.0,punch1_10s.jpg,0.0,Orange.png,5.0,6,,,,,,,,,,,,,,,,,
0.0,1.0,0.977925,0.0,28.0,28.0,28.0,1.0,mailbox_11s.jpg,0.0,Yellow.png,5.0,6,,,,,,,,,,,,,,,,,
0.0,1.0,0.596735,0.0,29.0,29.0,29.0,1.0,beaker_01b.jpg,0.0,Green.png,5.0,6,,,,,,,,,,,,,,,,,
0.0,0.0,0.46591,0.0,30.0,30.0,30.0,1.0,mailbox_11s.jpg,1.0,Blue.png,6.0,6,,,,,,,,,,,,,,,,,
0.0,1.0,0.96667,0.0,31.0,31.0,31.0,1.0,pipe1_10s.jpg,0.0,Purple.png,6.0,6,,,,,,,,,,,,,,,,,
1.0,1.0,1.7596,0.0,32.0,32.0,32.0,1.0,mailbox_11s.jpg,1.0,Red.png,6.0,6,,,,,,,,,,,,,,,,,
1.0,1.0,1.945805,0.0,33.0,33.0,33.0,1.0,pipe1_10s.jpg,1.0,Orange.png,6.0,6,,,,,,,,,,,,,,,,,
0.0,1.0,1.502305,0.0,34.0,34.0,34.0,1.0,eyedropper_12s.jpg,0.0,Yellow.png,6.0,6,,,,,,,,,,,,,,,,,
0.0,1.0,1.174485,0.0,35.0,35.0,35.0,1.0,rhubarb_03s.jpg,0.0,Green.png,6.0,6,,,,,,,,,,,,,,,,,
,,,,,,,,,0.0,,,6,0.0,1.0,1.35584,0.0,0.0,0.0,0.0,1.0,mud_13s.jpg,rooster_03s.jpg,,,,,,,
,,,,,,,,,1.0,,,6,0.0,0.0,1.910035,0.0,1.0,1.0,1.0,1.0,chopsticks_08s.jpg,gingerbread_man_03s.jpg,,,,,,,
,,,,,,,,,0.0,,,6,1.0,0.0,1.367185,0.0,2.0,2.0,2.0,1.0,beaker_01b.jpg,radiator_05s.jpg,,,,,,,
,,,,,,,,,0.0,,,6,0.0,1.0,1.26739,0.0,3.0,3.0,3.0,1.0,teabag_12s.jpg,hydrant_10s.jpg,,,,,,,
,,,,,,,,,0.0,,,6,1.0,0.0,1.092485,0.0,4.0,4.0,4.0,1.0,denture_03s.jpg,poinsettia_04s.jpg,,,,,,,
,,,,,,,,,1.0,,,6,0.0,0.0,1.388565,0.0,5.0,5.0,5.0,1.0,kangaroo_02s.jpg,gear_07s.jpg,,,,,,,
,,,,,,,,,,,,6,,,,,,,,,,,0.0,6.0,6.0,6.0,1.0,new2backpresent_7_4.xlsx,new2back_compare_task_7_4.xlsx
0.0,1.0,0.628635,0.0,0.0,0.0,0.0,1.0,lamppost_09s.jpg,0.0,Blue.png,1.0,6,,,,,,,,,,,,,,,,,
0.0,1.0,0.47755,0.0,1.0,1.0,1.0,1.0,jewel_01b.jpg,0.0,Purple.png,1.0,6,,,,,,,,,,,,,,,,,
0.0,1.0,0.728055,0.0,2.0,2.0,2.0,1.0,tuxedo_01b.jpg,0.0,Red.png,1.0,6,,,,,,,,,,,,,,,,,
0.0,1.0,0.436535,0.0,3.0,3.0,3.0,1.0,flip_flop_03s.jpg,0.0,Orange.png,1.0,6,,,,,,,,,,,,,,,,,
0.0,1.0,0.680335,0.0,4.0,4.0,4.0,1.0,medal_04s.jpg,0.0,Yellow.png,1.0,6,,,,,,,,,,,,,,,,,
1.0,1.0,2.10975,0.0,5.0,5.0,5.0,1.0,flip_flop_03s.jpg,1.0,Green.png,1.0,6,,,,,,,,,,,,,,,,,
0.0,1.0,0.39947,0.0,6.0,6.0,6.0,1.0,tuxedo_01b.jpg,0.0,Blue.png,2.0,6,,,,,,,,,,,,,,,,,
1.0,1.0,1.792115,0.0,7.0,7.0,7.0,1.0,flip_flop_03s.jpg,1.0,Purple.png,2.0,6,,,,,,,,,,,,,,,,,
0.0,1.0,0.435215,0.0,8.0,8.0,8.0,1.0,fireworks_18s.jpg,0.0,Red.png,2.0,6,,,,,,,,,,,,,,,,,
0.0,1.0,0.458765,0.0,9.0,9.0,9.0,1.0,squirt_gun_03s.jpg,0.0,Orange.png,2.0,6,,,,,,,,,,,,,,,,,
1.0,0.0,1.810625,0.0,10.0,10.0,10.0,1.0,flip_flop_03s.jpg,0.0,Yellow.png,2.0,6,,,,,,,,,,,,,,,,,
0.0,1.0,0.437215,0.0,11.0,11.0,11.0,1.0,puffin_19s.jpg,0.0,Green.png,2.0,6,,,,,,,,,,,,,,,,,
0.0,1.0,1.181285,0.0,12.0,12.0,12.0,1.0,tuxedo_01b.jpg,0.0,Blue.png,3.0,6,,,,,,,,,,,,,,,,,
0.0,1.0,0.81479,0.0,13.0,13.0,13.0,1.0,tuxedo_01b.jpg,0.0,Purple.png,3.0,6,,,,,,,,,,,,,,,,,
0.0,1.0,0.58693,0.0,14.0,14.0,14.0,1.0,snowman_02s.jpg,0.0,Red.png,3.0,6,,,,,,,,,,,,,,,,,
0.0,1.0,0.61418,0.0,15.0,15.0,15.0,1.0,cucumber_07s.jpg,0.0,Orange.png,3.0,6,,,,,,,,,,,,,,,,,
0.0,1.0,0.803195,0.0,16.0,16.0,16.0,1.0,plug_08s.jpg,0.0,Yellow.png,3.0,6,,,,,,,,,,,,,,,,,
1.0,1.0,1.573875,0.0,17.0,17.0,17.0,1.0,cucumber_07s.jpg,1.0,Green.png,3.0,6,,,,,,,,,,,,,,,,,
0.0,1.0,0.670245,0.0,18.0,18.0,18.0,1.0,puffin_19s.jpg,0.0,Blue.png,4.0,6,,,,,,,,,,,,,,,,,
0.0,1.0,0.65951,0.0,19.0,19.0,19.0,1.0,fondue_07s.jpg,0.0,Purple.png,4.0,6,,,,,,,,,,,,,,,,,
0.0,1.0,0.53341,0.0,20.0,20.0,20.0,1.0,lasagna_06s.jpg,0.0,Red.png,4.0,6,,,,,,,,,,,,,,,,,
0.0,1.0,0.70535,0.0,21.0,21.0,21.0,1.0,eiffeltower.jpg,0.0,Orange.png,4.0,6,,,,,,,,,,,,,,,,,
0.0,1.0,1.141065,0.0,22.0,22.0,22.0,1.0,outlet_10s.jpg,0.0,Yellow.png,4.0,6,,,,,,,,,,,,,,,,,
0.0,1.0,0.906325,0.0,23.0,23.0,23.0,1.0,cape_11s.jpg,0.0,Green.png,4.0,6,,,,,,,,,,,,,,,,,
0.0,1.0,0.46169,0.0,24.0,24.0,24.0,1.0,marshmallow_08s.jpg,0.0,Blue.png,5.0,6,,,,,,,,,,,,,,,,,
0.0,1.0,1.3924,0.0,25.0,25.0,25.0,1.0,racehorse_03s.jpg,0.0,Purple.png,5.0,6,,,,,,,,,,,,,,,,,
0.0,1.0,1.036965,0.0,26.0,26.0,26.0,1.0,aluminum_foil_08s.jpg,0.0,Red.png,5.0,6,,,,,,,,,,,,,,,,,
0.0,1.0,0.35938,0.0,27.0,27.0,27.0,1.0,spoon02a.jpg,0.0,Orange.png,5.0,6,,,,,,,,,,,,,,,,,
0.0,1.0,0.939335,0.0,28.0,28.0,28.0,1.0,padlock_07s.jpg,0.0,Yellow.png,5.0,6,,,,,,,,,,,,,,,,,
0.0,1.0,0.815145,0.0,29.0,29.0,29.0,1.0,solar_panel_02s.jpg,0.0,Green.png,5.0,6,,,,,,,,,,,,,,,,,
0.0,1.0,0.510845,0.0,30.0,30.0,30.0,1.0,turtleneck_11s.jpg,0.0,Blue.png,6.0,6,,,,,,,,,,,,,,,,,
0.0,1.0,0.736205,0.0,31.0,31.0,31.0,1.0,pocketknife_12s.jpg,0.0,Purple.png,6.0,6,,,,,,,,,,,,,,,,,
1.0,0.0,1.55922,0.0,32.0,32.0,32.0,1.0,pocketknife_12s.jpg,0.0,Red.png,6.0,6,,,,,,,,,,,,,,,,,
0.0,1.0,0.85918,0.0,33.0,33.0,33.0,1.0,quill_09s.jpg,0.0,Orange.png,6.0,6,,,,,,,,,,,,,,,,,
0.0,1.0,1.5337,0.0,34.0,34.0,34.0,1.0,quill_09s.jpg,0.0,Yellow.png,6.0,6,,,,,,,,,,,,,,,,,
1.0,0.0,1.544105,0.0,35.0,35.0,35.0,1.0,pocketknife_12s.jpg,0.0,Green.png,6.0,6,,,,,,,,,,,,,,,,,
,,,,,,,,,0.0,,,6,0.0,1.0,1.824185,0.0,0.0,0.0,0.0,1.0,cape_11s.jpg,lasagna_06s.jpg,,,,,,,
,,,,,,,,,0.0,,,6,1.0,0.0,1.51558,0.0,1.0,1.0,1.0,1.0,padlock_07s.jpg,racehorse_03s.jpg,,,,,,,
,,,,,,,,,1.0,,,6,0.0,0.0,1.195595,0.0,2.0,2.0,2.0,1.0,spoon02a.jpg,turtleneck_11s.jpg,,,,,,,
,,,,,,,,,0.0,,,6,1.0,0.0,1.61754,0.0,3.0,3.0,3.0,1.0,marshmallow_08s.jpg,eiffeltower.jpg,,,,,,,
,,,,,,,,,0.0,,,6,0.0,1.0,1.336425,0.0,4.0,4.0,4.0,1.0,medal_04s.jpg,jewel_01b.jpg,,,,,,,
,,,,,,,,,1.0,,,6,0.0,0.0,1.149525,0.0,5.0,5.0,5.0,1.0,plug_08s.jpg,fondue_07s.jpg,,,,,,,
,,,,,,,,,,,,6,,,,,,,,,,,0.0,7.0,7.0,7.0,1.0,new2backpresent_8_4.xlsx,new2back_compare_task_8_4.xlsx
0.0,1.0,0.738215,0.0,0.0,0.0,0.0,1.0,footprint_11s.jpg,0.0,Blue.png,1.0,6,,,,,,,,,,,,,,,,,
0.0,1.0,0.8263,0.0,1.0,1.0,1.0,1.0,coffee_filter_10s.jpg,0.0,Purple.png,1.0,6,,,,,,,,,,,,,,,,,
0.0,1.0,1.789935,0.0,2.0,2.0,2.0,1.0,coffee_filter_10s.jpg,0.0,Red.png,1.0,6,,,,,,,,,,,,,,,,,
0.0,0.0,0.97286,0.0,3.0,3.0,3.0,1.0,coffee_filter_10s.jpg,1.0,Orange.png,1.0,6,,,,,,,,,,,,,,,,,
1.0,1.0,1.2234,0.0,4.0,4.0,4.0,1.0,coffee_filter_10s.jpg,1.0,Yellow.png,1.0,6,,,,,,,,,,,,,,,,,
0.0,1.0,0.423695,0.0,5.0,5.0,5.0,1.0,gargoyle_08s.jpg,0.0,Green.png,1.0,6,,,,,,,,,,,,,,,,,
0.0,1.0,0.44537,0.0,6.0,6.0,6.0,1.0,candy_cane_06s.jpg,0.0,Blue.png,2.0,6,,,,,,,,,,,,,,,,,
0.0,1.0,0.46886,0.0,7.0,7.0,7.0,1.0,toad_09s.jpg,0.0,Purple.png,2.0,6,,,,,,,,,,,,,,,,,
1.0,1.0,1.328555,0.0,8.0,8.0,8.0,1.0,candy_cane_06s.jpg,1.0,Red.png,2.0,6,,,,,,,,,,,,,,,,,
0.0,1.0,0.74893,0.0,9.0,9.0,9.0,1.0,pumpkin_03s.jpg,0.0,Orange.png,2.0,6,,,,,,,,,,,,,,,,,
0.0,1.0,0.57727,0.0,10.0,10.0,10.0,1.0,dashboard_02s.jpg,0.0,Yellow.png,2.0,6,,,,,,,,,,,,,,,,,
0.0,1.0,0.72096,0.0,11.0,11.0,11.0,1.0,syringe_02s.jpg,0.0,Green.png,2.0,6,,,,,,,,,,,,,,,,,
0.0,1.0,0.656075,0.0,12.0,12.0,12.0,1.0,powder_07s.jpg,0.0,Blue.png,3.0,6,,,,,,,,,,,,,,,,,
0.0,1.0,1.155705,0.0,13.0,13.0,13.0,1.0,powder_07s.jpg,0.0,Purple.png,3.0,6,,,,,,,,,,,,,,,,,
1.0,1.0,1.440775,0.0,14.0,14.0,14.0,1.0,powder_07s.jpg,1.0,Red.png,3.0,6,,,,,,,,,,,,,,,,,
0.0,1.0,0.7236,0.0,15.0,15.0,15.0,1.0,sea_urchin_09s.jpg,0.0,Orange.png,3.0,6,,,,,,,,,,,,,,,,,
0.0,1.0,0.79455,0.0,16.0,16.0,16.0,1.0,throne_11s.jpg,0.0,Yellow.png,3.0,6,,,,,,,,,,,,,,,,,
1.0,0.0,1.575875,0.0,17.0,17.0,17.0,1.0,powder_07s.jpg,0.0,Green.png,3.0,6,,,,,,,,,,,,,,,,,
0.0,1.0,0.75425,0.0,18.0,18.0,18.0,1.0,chalice_10s.jpg,0.0,Blue.png,4.0,6,,,,,,,,,,,,,,,,,
0.0,1.0,0.512645,0.0,19.0,19.0,19.0,1.0,air_pump_05s.jpg,0.0,Purple.png,4.0,6,,,,,,,,,,,,,,,,,
0.0,1.0,0.62138,0.0,20.0,20.0,20.0,1.0,microwave_02s.jpg,0.0,Red.png,4.0,6,,,,,,,,,,,,,,,,,
0.0,1.0,0.58528,0.0,21.0,21.0,21.0,1.0,cereal_04s.jpg,0.0,Orange.png,4.0,6,,,,,,,,,,,,,,,,,
0.0,1.0,0.554205,0.0,22.0,22.0,22.0,1.0,mushroom_10n.jpg,0.0,Yellow.png,4.0,6,,,,,,,,,,,,,,,,,
0.0,1.0,0.575225,0.0,23.0,23.0,23.0,1.0,red_carpet_03s.jpg,0.0,Green.png,4.0,6,,,,,,,,,,,,,,,,,
0.0,1.0,0.903545,0.0,24.0,24.0,24.0,1.0,throne_11s.jpg,0.0,Blue.png,5.0,6,,,,,,,,,,,,,,,,,
0.0,1.0,0.904985,0.0,25.0,25.0,25.0,1.0,koala_13s.jpg,0.0,Purple.png,5.0,6,,,,,,,,,,,,,,,,,
1.0,1.0,1.343245,0.0,26.0,26.0,26.0,1.0,throne_11s.jpg,1.0,Red.png,5.0,6,,,,,,,,,,,,,,,,,
0.0,1.0,0.67431,0.0,27.0,27.0,27.0,1.0,rocket_02s.jpg,0.0,Orange.png,5.0,6,,,,,,,,,,,,,,,,,
0.0,1.0,0.78941,0.0,28.0,28.0,28.0,1.0,swordfish_05s.jpg,0.0,Yellow.png,5.0,6,,,,,,,,,,,,,,,,,
1.0,1.0,1.310085,0.0,29.0,29.0,29.0,1.0,rocket_02s.jpg,1.0,Green.png,5.0,6,,,,,,,,,,,,,,,,,
0.0,1.0,0.55762,0.0,30.0,30.0,30.0,1.0,icicle_04s.jpg,0.0,Blue.png,6.0,6,,,,,,,,,,,,,,,,,
0.0,1.0,0.52385,0.0,31.0,31.0,31.0,1.0,keyboard_05s.jpg,0.0,Purple.png,6.0,6,,,,,,,,,,,,,,,,,
0.0,1.0,0.52582,0.0,32.0,32.0,32.0,1.0,pocket_watch_16s.jpg,0.0,Red.png,6.0,6,,,,,,,,,,,,,,,,,
0.0,1.0,0.545915,0.0,33.0,33.0,33.0,1.0,tablet_04s.jpg,0.0,Orange.png,6.0,6,,,,,,,,,,,,,,,,,
0.0,1.0,1.03627,0.0,34.0,34.0,34.0,1.0,chocolate_01b.jpg,0.0,Yellow.png,6.0,6,,,,,,,,,,,,,,,,,
0.0,1.0,0.768705,0.0,35.0,35.0,35.0,1.0,light_switch_02s.jpg,0.0,Green.png,6.0,6,,,,,,,,,,,,,,,,,
,,,,,,,,,0.0,,,6,0.0,1.0,0.919885,0.0,0.0,0.0,0.0,1.0,chalice_10s.jpg,sea_urchin_09s.jpg,,,,,,,
,,,,,,,,,1.0,,,6,0.0,0.0,1.43877,0.0,1.0,1.0,1.0,1.0,swordfish_05s.jpg,keyboard_05s.jpg,,,,,,,
,,,,,,,,,0.0,,,6,0.0,1.0,1.418785,0.0,2.0,2.0,2.0,1.0,red_carpet_03s.jpg,microwave_02s.jpg,,,,,,,
,,,,,,,,,0.0,,,6,0.0,1.0,0.785305,0.0,3.0,3.0,3.0,1.0,dashboard_02s.jpg,toad_09s.jpg,,,,,,,
,,,,,,,,,0.0,,,6,1.0,0.0,1.38806,0.0,4.0,4.0,4.0,1.0,koala_13s.jpg,mushroom_10n.jpg,,,,,,,
,,,,,,,,,1.0,,,6,1.0,1.0,1.58954,0.0,5.0,5.0,5.0,1.0,icicle_04s.jpg,tablet_04s.jpg,,,,,,,
,,,,,,,,,,,,6,,,,,,,,,,,0.0,8.0,8.0,8.0,1.0,new2backpresent_9_4.xlsx,new2back_compare_task_9_4.xlsx
