key_resp.keys,key_resp.corr,key_resp.rt,present_segment.thisRepN,present_segment.thisTrialN,present_segment.thisN,present_segment.thisIndex,present_segment.ran,pictures,answer,clock,segment,participant,key_resp_2.keys,key_resp_2.corr,key_resp_2.rt,compare_segment.thisRepN,compare_segment.thisTrialN,compare_segment.thisN,compare_segment.thisIndex,compare_segment.ran,item_a,item_b,clock_conditions.thisRepN,clock_conditions.thisTrialN,clock_conditions.thisN,clock_conditions.thisIndex,clock_conditions.ran,present,compare
0.0,1.0,1.52239,0.0,0.0,0.0,0.0,1.0,lamppost_09s.jpg,0.0,Blue.png,1.0,41,,,,,,,,,,,,,,,,,
0.0,1.0,0.640495,0.0,1.0,1.0,1.0,1.0,mushroom_10n.jpg,0.0,Purple.png,1.0,41,,,,,,,,,,,,,,,,,
0.0,1.0,0.925165,0.0,2.0,2.0,2.0,1.0,mushroom_10n.jpg,0.0,Red.png,1.0,41,,,,,,,,,,,,,,,,,
0.0,1.0,0.795075,0.0,3.0,3.0,3.0,1.0,megaphone_03s.jpg,0.0,Orange.png,1.0,41,,,,,,,,,,,,,,,,,
0.0,1.0,0.77701,0.0,4.0,4.0,4.0,1.0,popsicle_02s.jpg,0.0,Yellow.png,1.0,41,,,,,,,,,,,,,,,,,
0.0,1.0,0.62264,0.0,5.0,5.0,5.0,1.0,kangaroo_02s.jpg,0.0,Green.png,1.0,41,,,,,,,,,,,,,,,,,
0.0,1.0,1.067215,0.0,6.0,6.0,6.0,1.0,kangaroo_02s.jpg,0.0,Blue.png,2.0,41,,,,,,,,,,,,,,,,,
0.0,1.0,0.884955,0.0,7.0,7.0,7.0,1.0,ivy_12s.jpg,0.0,Purple.png,2.0,41,,,,,,,,,,,,,,,,,
1.0,1.0,1.376765,0.0,8.0,8.0,8.0,1.0,kangaroo_02s.jpg,1.0,Red.png,2.0,41,,,,,,,,,,,,,,,,,
0.0,1.0,1.013155,0.0,9.0,9.0,9.0,1.0,peanut_butter_08s.jpg,0.0,Orange.png,2.0,41,,,,,,,,,,,,,,,,,
0.0,1.0,0.833895,0.0,10.0,10.0,10.0,1.0,spoon02a.jpg,0.0,Yellow.png,2.0,41,,,,,,,,,,,,,,,,,
0.0,1.0,0.903775,0.0,11.0,11.0,11.0,1.0,air_pump_05s.jpg,0.0,Green.png,2.0,41,,,,,,,,,,,,,,,,,
0.0,1.0,0.90336,0.0,12.0,12.0,12.0,1.0,powder_07s.jpg,0.0,Blue.png,3.0,41,,,,,,,,,,,,,,,,,
0.0,1.0,0.93645,0.0,13.0,13.0,13.0,1.0,sunglasses_11s.jpg,0.0,Purple.png,3.0,41,,,,,,,,,,,,,,,,,
0.0,1.0,0.898565,0.0,14.0,14.0,14.0,1.0,timer_03s.jpg,0.0,Red.png,3.0,41,,,,,,,,,,,,,,,,,
1.0,1.0,1.06545,0.0,15.0,15.0,15.0,1.0,sunglasses_11s.jpg,1.0,Orange.png,3.0,41,,,,,,,,,,,,,,,,,
0.0,1.0,1.04104,0.0,16.0,16.0,16.0,1.0,stethoscope_01b.jpg,0.0,Yellow.png,3.0,41,,,,,,,,,,,,,,,,,
1.0,1.0,1.66731,0.0,17.0,17.0,17.0,1.0,sunglasses_11s.jpg,1.0,Green.png,3.0,41,,,,,,,,,,,,,,,,,
0.0,1.0,0.86686,0.0,18.0,18.0,18.0,1.0,sunglasses_11s.jpg,0.0,Blue.png,4.0,41,,,,,,,,,,,,,,,,,
0.0,0.0,2.172965,0.0,19.0,19.0,19.0,1.0,sunglasses_11s.jpg,1.0,Purple.png,4.0,41,,,,,,,,,,,,,,,,,
0.0,1.0,1.581915,0.0,20.0,20.0,20.0,1.0,radiator_05s.jpg,0.0,Red.png,4.0,41,,,,,,,,,,,,,,,,,
0.0,1.0,0.917595,0.0,21.0,21.0,21.0,1.0,radiator_05s.jpg,0.0,Orange.png,4.0,41,,,,,,,,,,,,,,,,,
1.0,0.0,2.14373,0.0,22.0,22.0,22.0,1.0,sunglasses_11s.jpg,0.0,Yellow.png,4.0,41,,,,,,,,,,,,,,,,,
1.0,1.0,1.364505,0.0,23.0,23.0,23.0,1.0,radiator_05s.jpg,1.0,Green.png,4.0,41,,,,,,,,,,,,,,,,,
0.0,1.0,0.704885,0.0,24.0,24.0,24.0,1.0,stump_02s.jpg,0.0,Blue.png,5.0,41,,,,,,,,,,,,,,,,,
0.0,1.0,0.60396,0.0,25.0,25.0,25.0,1.0,jet_15s.jpg,0.0,Purple.png,5.0,41,,,,,,,,,,,,,,,,,
0.0,1.0,0.88876,0.0,26.0,26.0,26.0,1.0,bubble_01b.jpg,0.0,Red.png,5.0,41,,,,,,,,,,,,,,,,,
0.0,1.0,0.785675,0.0,27.0,27.0,27.0,1.0,footprint_11s.jpg,0.0,Orange.png,5.0,41,,,,,,,,,,,,,,,,,
0.0,1.0,0.8183,0.0,28.0,28.0,28.0,1.0,knitting_needle_04s.jpg,0.0,Yellow.png,5.0,41,,,,,,,,,,,,,,,,,
1.0,0.0,0.857535,0.0,29.0,29.0,29.0,1.0,bubble_01b.jpg,0.0,Green.png,5.0,41,,,,,,,,,,,,,,,,,
0.0,1.0,0.66459,0.0,30.0,30.0,30.0,1.0,lizard_10n.jpg,0.0,Blue.png,6.0,41,,,,,,,,,,,,,,,,,
1.0,1.0,1.037805,0.0,31.0,31.0,31.0,1.0,bubble_01b.jpg,1.0,Purple.png,6.0,41,,,,,,,,,,,,,,,,,
0.0,1.0,0.624835,0.0,32.0,32.0,32.0,1.0,frame_06s.jpg,0.0,Red.png,6.0,41,,,,,,,,,,,,,,,,,
0.0,1.0,0.800945,0.0,33.0,33.0,33.0,1.0,tube_top_03s.jpg,0.0,Orange.png,6.0,41,,,,,,,,,,,,,,,,,
1.0,0.0,1.554185,0.0,34.0,34.0,34.0,1.0,bubble_01b.jpg,0.0,Yellow.png,6.0,41,,,,,,,,,,,,,,,,,
0.0,1.0,0.947725,0.0,35.0,35.0,35.0,1.0,bubble_01b.jpg,0.0,Green.png,6.0,41,,,,,,,,,,,,,,,,,
,,,,,,,,,0.0,,,41,0.0,1.0,1.144405,0.0,0.0,0.0,0.0,1.0,powder_07s.jpg,peanut_butter_08s.jpg,,,,,,,
,,,,,,,,,1.0,,,41,1.0,1.0,1.963545,0.0,1.0,1.0,1.0,1.0,air_pump_05s.jpg,timer_03s.jpg,,,,,,,
,,,,,,,,,0.0,,,41,0.0,1.0,1.1425,0.0,2.0,2.0,2.0,1.0,ivy_12s.jpg,popsicle_02s.jpg,,,,,,,
,,,,,,,,,0.0,,,41,0.0,1.0,1.62017,0.0,3.0,3.0,3.0,1.0,megaphone_03s.jpg,lamppost_09s.jpg,,,,,,,
,,,,,,,,,1.0,,,41,1.0,1.0,0.70296,0.0,4.0,4.0,4.0,1.0,jet_15s.jpg,knitting_needle_04s.jpg,,,,,,,
,,,,,,,,,0.0,,,41,1.0,0.0,1.36103,0.0,5.0,5.0,5.0,1.0,footprint_11s.jpg,stump_02s.jpg,,,,,,,
,,,,,,,,,,,,41,,,,,,,,,,,0.0,0.0,0.0,0.0,1.0,new2backpresent_1_3.xlsx,new2back_compare_task_1_3.xlsx
0.0,1.0,2.115255,0.0,0.0,0.0,0.0,1.0,mirror_12s.jpg,0.0,Blue.png,1.0,41,,,,,,,,,,,,,,,,,
0.0,1.0,0.85073,0.0,1.0,1.0,1.0,1.0,rake_06s.jpg,0.0,Purple.png,1.0,41,,,,,,,,,,,,,,,,,
0.0,1.0,1.29066,0.0,2.0,2.0,2.0,1.0,rhubarb_03s.jpg,0.0,Red.png,1.0,41,,,,,,,,,,,,,,,,,
0.0,1.0,2.25924,0.0,3.0,3.0,3.0,1.0,mirror_12s.jpg,0.0,Orange.png,1.0,41,,,,,,,,,,,,,,,,,
0.0,1.0,0.89969,0.0,4.0,4.0,4.0,1.0,tomato_sauce_09s.jpg,0.0,Yellow.png,1.0,41,,,,,,,,,,,,,,,,,
1.0,1.0,0.78549,0.0,5.0,5.0,5.0,1.0,mirror_12s.jpg,1.0,Green.png,1.0,41,,,,,,,,,,,,,,,,,
0.0,1.0,1.307465,0.0,6.0,6.0,6.0,1.0,medal_04s.jpg,0.0,Blue.png,2.0,41,,,,,,,,,,,,,,,,,
0.0,1.0,0.81906,0.0,7.0,7.0,7.0,1.0,fountain_pen_06s.jpg,0.0,Purple.png,2.0,41,,,,,,,,,,,,,,,,,
0.0,1.0,0.923715,0.0,8.0,8.0,8.0,1.0,rudder_02s.jpg,0.0,Red.png,2.0,41,,,,,,,,,,,,,,,,,
1.0,1.0,1.20767,0.0,9.0,9.0,9.0,1.0,fountain_pen_06s.jpg,1.0,Orange.png,2.0,41,,,,,,,,,,,,,,,,,
0.0,1.0,0.7164,0.0,10.0,10.0,10.0,1.0,medal_04s.jpg,0.0,Yellow.png,2.0,41,,,,,,,,,,,,,,,,,
0.0,1.0,0.832755,0.0,11.0,11.0,11.0,1.0,owl_15s.jpg,0.0,Green.png,2.0,41,,,,,,,,,,,,,,,,,
0.0,1.0,0.81657,0.0,12.0,12.0,12.0,1.0,swan_11s.jpg,0.0,Blue.png,3.0,41,,,,,,,,,,,,,,,,,
0.0,1.0,0.98539,0.0,13.0,13.0,13.0,1.0,penguin_16s.jpg,0.0,Purple.png,3.0,41,,,,,,,,,,,,,,,,,
0.0,1.0,0.91648,0.0,14.0,14.0,14.0,1.0,piano_13n.jpg,0.0,Red.png,3.0,41,,,,,,,,,,,,,,,,,
1.0,1.0,2.177505,0.0,15.0,15.0,15.0,1.0,penguin_16s.jpg,1.0,Orange.png,3.0,41,,,,,,,,,,,,,,,,,
0.0,1.0,0.74996,0.0,16.0,16.0,16.0,1.0,feather02.jpg,0.0,Yellow.png,3.0,41,,,,,,,,,,,,,,,,,
0.0,1.0,1.907795,0.0,17.0,17.0,17.0,1.0,boar_10s.jpg,0.0,Green.png,3.0,41,,,,,,,,,,,,,,,,,
0.0,1.0,0.81727,0.0,18.0,18.0,18.0,1.0,keyboard_05s.jpg,0.0,Blue.png,4.0,41,,,,,,,,,,,,,,,,,
0.0,1.0,1.416145,0.0,19.0,19.0,19.0,1.0,gas_mask_11s.jpg,0.0,Purple.png,4.0,41,,,,,,,,,,,,,,,,,
0.0,1.0,0.905865,0.0,20.0,20.0,20.0,1.0,pocketknife_12s.jpg,0.0,Red.png,4.0,41,,,,,,,,,,,,,,,,,
0.0,1.0,1.24979,0.0,21.0,21.0,21.0,1.0,keyboard_05s.jpg,0.0,Orange.png,4.0,41,,,,,,,,,,,,,,,,,
0.0,1.0,1.0376,0.0,22.0,22.0,22.0,1.0,roulette_wheel_04s.jpg,0.0,Yellow.png,4.0,41,,,,,,,,,,,,,,,,,
1.0,0.0,0.931295,0.0,23.0,23.0,23.0,1.0,roulette_wheel_04s.jpg,0.0,Green.png,4.0,41,,,,,,,,,,,,,,,,,
1.0,0.0,2.13644,0.0,24.0,24.0,24.0,1.0,keyboard_05s.jpg,0.0,Blue.png,5.0,41,,,,,,,,,,,,,,,,,
1.0,1.0,1.43499,0.0,25.0,25.0,25.0,1.0,roulette_wheel_04s.jpg,1.0,Purple.png,5.0,41,,,,,,,,,,,,,,,,,
0.0,1.0,0.593015,0.0,26.0,26.0,26.0,1.0,limousine_12s.jpg,0.0,Red.png,5.0,41,,,,,,,,,,,,,,,,,
0.0,1.0,0.96892,0.0,27.0,27.0,27.0,1.0,tape_06s.jpg,0.0,Orange.png,5.0,41,,,,,,,,,,,,,,,,,
0.0,1.0,1.436585,0.0,28.0,28.0,28.0,1.0,quesadilla_07s.jpg,0.0,Yellow.png,5.0,41,,,,,,,,,,,,,,,,,
0.0,1.0,1.50141,0.0,29.0,29.0,29.0,1.0,breadstick_08s.jpg,0.0,Green.png,5.0,41,,,,,,,,,,,,,,,,,
0.0,1.0,1.05335,0.0,30.0,30.0,30.0,1.0,sundae_08s.jpg,0.0,Blue.png,6.0,41,,,,,,,,,,,,,,,,,
0.0,1.0,0.88702,0.0,31.0,31.0,31.0,1.0,sushi_08s.jpg,0.0,Purple.png,6.0,41,,,,,,,,,,,,,,,,,
0.0,1.0,0.67583,0.0,32.0,32.0,32.0,1.0,abacus_12s.jpg,0.0,Red.png,6.0,41,,,,,,,,,,,,,,,,,
0.0,1.0,1.316675,0.0,33.0,33.0,33.0,1.0,peppermint_07s.jpg,0.0,Orange.png,6.0,41,,,,,,,,,,,,,,,,,
0.0,1.0,0.792505,0.0,34.0,34.0,34.0,1.0,marshmallow_08s.jpg,0.0,Yellow.png,6.0,41,,,,,,,,,,,,,,,,,
0.0,1.0,1.51056,0.0,35.0,35.0,35.0,1.0,sundae_08s.jpg,0.0,Green.png,6.0,41,,,,,,,,,,,,,,,,,
,,,,,,,,,1.0,,,41,0.0,0.0,0.878095,0.0,0.0,0.0,0.0,1.0,feather02.jpg,gas_mask_11s.jpg,,,,,,,
,,,,,,,,,1.0,,,41,1.0,1.0,0.89618,0.0,1.0,1.0,1.0,1.0,boar_10s.jpg,pocketknife_12s.jpg,,,,,,,
,,,,,,,,,0.0,,,41,1.0,0.0,1.14978,0.0,2.0,2.0,2.0,1.0,sushi_08s.jpg,quesadilla_07s.jpg,,,,,,,
,,,,,,,,,0.0,,,41,0.0,1.0,2.802215,0.0,3.0,3.0,3.0,1.0,tomato_sauce_09s.jpg,rake_06s.jpg,,,,,,,
,,,,,,,,,1.0,,,41,1.0,1.0,2.05027,0.0,4.0,4.0,4.0,1.0,rudder_02s.jpg,owl_15s.jpg,,,,,,,
,,,,,,,,,1.0,,,41,1.0,1.0,1.18499,0.0,5.0,5.0,5.0,1.0,limousine_12s.jpg,breadstick_08s.jpg,,,,,,,
,,,,,,,,,,,,41,,,,,,,,,,,0.0,1.0,1.0,1.0,1.0,new2backpresent_2_3.xlsx,new2back_compare_task_2_3.xlsx
,0.0,,0.0,0.0,0.0,0.0,1.0,lip_gloss_06s.jpg,0.0,Blue.png,1.0,41,,,,,,,,,,,,,,,,,
0.0,1.0,1.275785,0.0,1.0,1.0,1.0,1.0,lip_gloss_06s.jpg,0.0,Purple.png,1.0,41,,,,,,,,,,,,,,,,,
0.0,1.0,0.774225,0.0,2.0,2.0,2.0,1.0,memory_stick_11s.jpg,0.0,Red.png,1.0,41,,,,,,,,,,,,,,,,,
0.0,1.0,0.516905,0.0,3.0,3.0,3.0,1.0,torch_02s.jpg,0.0,Orange.png,1.0,41,,,,,,,,,,,,,,,,,
1.0,0.0,1.668795,0.0,4.0,4.0,4.0,1.0,lip_gloss_06s.jpg,0.0,Yellow.png,1.0,41,,,,,,,,,,,,,,,,,
0.0,1.0,0.78476,0.0,5.0,5.0,5.0,1.0,triangle_10s.jpg,0.0,Green.png,1.0,41,,,,,,,,,,,,,,,,,
1.0,1.0,1.21913,0.0,6.0,6.0,6.0,1.0,lip_gloss_06s.jpg,1.0,Blue.png,2.0,41,,,,,,,,,,,,,,,,,
0.0,1.0,1.157805,0.0,7.0,7.0,7.0,1.0,lip_gloss_06s.jpg,0.0,Purple.png,2.0,41,,,,,,,,,,,,,,,,,
0.0,1.0,0.980195,0.0,8.0,8.0,8.0,1.0,prism_10s.jpg,0.0,Red.png,2.0,41,,,,,,,,,,,,,,,,,
0.0,1.0,0.616415,0.0,9.0,9.0,9.0,1.0,soccer_ball_12s.jpg,0.0,Orange.png,2.0,41,,,,,,,,,,,,,,,,,
0.0,1.0,1.186045,0.0,10.0,10.0,10.0,1.0,lip_gloss_06s.jpg,0.0,Yellow.png,2.0,41,,,,,,,,,,,,,,,,,
0.0,1.0,0.794105,0.0,11.0,11.0,11.0,1.0,petri_dish_12s.jpg,0.0,Green.png,2.0,41,,,,,,,,,,,,,,,,,
0.0,1.0,1.104595,0.0,12.0,12.0,12.0,1.0,crystal_ball_12s.jpg,0.0,Blue.png,3.0,41,,,,,,,,,,,,,,,,,
0.0,1.0,0.721675,0.0,13.0,13.0,13.0,1.0,trampoline_13s.jpg,0.0,Purple.png,3.0,41,,,,,,,,,,,,,,,,,
0.0,1.0,0.902675,0.0,14.0,14.0,14.0,1.0,joystick_01b.jpg,0.0,Red.png,3.0,41,,,,,,,,,,,,,,,,,
1.0,1.0,0.8697,0.0,15.0,15.0,15.0,1.0,trampoline_13s.jpg,1.0,Orange.png,3.0,41,,,,,,,,,,,,,,,,,
0.0,1.0,0.62258,0.0,16.0,16.0,16.0,1.0,sparkler_02s.jpg,0.0,Yellow.png,3.0,41,,,,,,,,,,,,,,,,,
0.0,1.0,1.18654,0.0,17.0,17.0,17.0,1.0,kayak_08s.jpg,0.0,Green.png,3.0,41,,,,,,,,,,,,,,,,,
0.0,1.0,0.88421,0.0,18.0,18.0,18.0,1.0,foam_03s.jpg,0.0,Blue.png,4.0,41,,,,,,,,,,,,,,,,,
0.0,1.0,0.684195,0.0,19.0,19.0,19.0,1.0,dirt_bike_11s.jpg,0.0,Purple.png,4.0,41,,,,,,,,,,,,,,,,,
0.0,1.0,1.19962,0.0,20.0,20.0,20.0,1.0,tortilla_06s.jpg,0.0,Red.png,4.0,41,,,,,,,,,,,,,,,,,
1.0,1.0,1.158705,0.0,21.0,21.0,21.0,1.0,dirt_bike_11s.jpg,1.0,Orange.png,4.0,41,,,,,,,,,,,,,,,,,
0.0,1.0,0.548845,0.0,22.0,22.0,22.0,1.0,otter_05s.jpg,0.0,Yellow.png,4.0,41,,,,,,,,,,,,,,,,,
0.0,1.0,0.82028,0.0,23.0,23.0,23.0,1.0,playpen_11s.jpg,0.0,Green.png,4.0,41,,,,,,,,,,,,,,,,,
0.0,1.0,1.351055,0.0,24.0,24.0,24.0,1.0,pear_02s.jpg,0.0,Blue.png,5.0,41,,,,,,,,,,,,,,,,,
0.0,1.0,0.717115,0.0,25.0,25.0,25.0,1.0,omelet_07s.jpg,0.0,Purple.png,5.0,41,,,,,,,,,,,,,,,,,
0.0,1.0,0.64924,0.0,26.0,26.0,26.0,1.0,camcorder_10s.jpg,0.0,Red.png,5.0,41,,,,,,,,,,,,,,,,,
1.0,1.0,0.71787,0.0,27.0,27.0,27.0,1.0,omelet_07s.jpg,1.0,Orange.png,5.0,41,,,,,,,,,,,,,,,,,
0.0,1.0,0.583295,0.0,28.0,28.0,28.0,1.0,possum_09s.jpg,0.0,Yellow.png,5.0,41,,,,,,,,,,,,,,,,,
0.0,0.0,0.56284,0.0,29.0,29.0,29.0,1.0,omelet_07s.jpg,1.0,Green.png,5.0,41,,,,,,,,,,,,,,,,,
0.0,1.0,1.01755,0.0,30.0,30.0,30.0,1.0,plaster_cast_13s.jpg,0.0,Blue.png,6.0,41,,,,,,,,,,,,,,,,,
0.0,1.0,1.18343,0.0,31.0,31.0,31.0,1.0,ram_05s.jpg,0.0,Purple.png,6.0,41,,,,,,,,,,,,,,,,,
0.0,1.0,1.650305,0.0,32.0,32.0,32.0,1.0,plug_08s.jpg,0.0,Red.png,6.0,41,,,,,,,,,,,,,,,,,
1.0,0.0,0.970375,0.0,33.0,33.0,33.0,1.0,plaster_cast_13s.jpg,0.0,Orange.png,6.0,41,,,,,,,,,,,,,,,,,
0.0,1.0,0.640005,0.0,34.0,34.0,34.0,1.0,lavender_10s.jpg,0.0,Yellow.png,6.0,41,,,,,,,,,,,,,,,,,
1.0,0.0,0.92462,0.0,35.0,35.0,35.0,1.0,plug_08s.jpg,0.0,Green.png,6.0,41,,,,,,,,,,,,,,,,,
,,,,,,,,,1.0,,,41,1.0,1.0,1.52559,0.0,0.0,0.0,0.0,1.0,soccer_ball_12s.jpg,crystal_ball_12s.jpg,,,,,,,
,,,,,,,,,1.0,,,41,1.0,1.0,0.92168,0.0,1.0,1.0,1.0,1.0,playpen_11s.jpg,camcorder_10s.jpg,,,,,,,
,,,,,,,,,1.0,,,41,1.0,1.0,1.3503,0.0,2.0,2.0,2.0,1.0,possum_09s.jpg,ram_05s.jpg,,,,,,,
,,,,,,,,,1.0,,,41,0.0,0.0,1.56794,0.0,3.0,3.0,3.0,1.0,memory_stick_11s.jpg,triangle_10s.jpg,,,,,,,
,,,,,,,,,0.0,,,41,1.0,0.0,1.165655,0.0,4.0,4.0,4.0,1.0,petri_dish_12s.jpg,prism_10s.jpg,,,,,,,
,,,,,,,,,0.0,,,41,0.0,1.0,1.096115,0.0,5.0,5.0,5.0,1.0,kayak_08s.jpg,joystick_01b.jpg,,,,,,,
,,,,,,,,,,,,41,,,,,,,,,,,0.0,2.0,2.0,2.0,1.0,new2backpresent_3_3.xlsx,new2back_compare_task_3_3.xlsx
0.0,1.0,2.124915,0.0,0.0,0.0,0.0,1.0,towel_rack_04s.jpg,0.0,Blue.png,1.0,41,,,,,,,,,,,,,,,,,
0.0,1.0,0.752375,0.0,1.0,1.0,1.0,1.0,iron_13s.jpg,0.0,Purple.png,1.0,41,,,,,,,,,,,,,,,,,
0.0,1.0,1.24612,0.0,2.0,2.0,2.0,1.0,iron_13s.jpg,0.0,Red.png,1.0,41,,,,,,,,,,,,,,,,,
0.0,1.0,1.36179,0.0,3.0,3.0,3.0,1.0,icemaker_10s.jpg,0.0,Orange.png,1.0,41,,,,,,,,,,,,,,,,,
0.0,1.0,0.70587,0.0,4.0,4.0,4.0,1.0,teacup_07s.jpg,0.0,Yellow.png,1.0,41,,,,,,,,,,,,,,,,,
1.0,0.0,0.99088,0.0,5.0,5.0,5.0,1.0,iron_13s.jpg,0.0,Green.png,1.0,41,,,,,,,,,,,,,,,,,
1.0,1.0,1.033215,0.0,6.0,6.0,6.0,1.0,teacup_07s.jpg,1.0,Blue.png,2.0,41,,,,,,,,,,,,,,,,,
1.0,1.0,1.89542,0.0,7.0,7.0,7.0,1.0,iron_13s.jpg,1.0,Purple.png,2.0,41,,,,,,,,,,,,,,,,,
1.0,1.0,1.86883,0.0,8.0,8.0,8.0,1.0,teacup_07s.jpg,1.0,Red.png,2.0,41,,,,,,,,,,,,,,,,,
0.0,1.0,0.606915,0.0,9.0,9.0,9.0,1.0,pincushion_10s.jpg,0.0,Orange.png,2.0,41,,,,,,,,,,,,,,,,,
1.0,1.0,1.344475,0.0,10.0,10.0,10.0,1.0,teacup_07s.jpg,1.0,Yellow.png,2.0,41,,,,,,,,,,,,,,,,,
0.0,1.0,0.92488,0.0,11.0,11.0,11.0,1.0,lamb_04s.jpg,0.0,Green.png,2.0,41,,,,,,,,,,,,,,,,,
0.0,1.0,0.786565,0.0,12.0,12.0,12.0,1.0,blowfish_03s.jpg,0.0,Blue.png,3.0,41,,,,,,,,,,,,,,,,,
0.0,1.0,0.76657,0.0,13.0,13.0,13.0,1.0,gear_07s.jpg,0.0,Purple.png,3.0,41,,,,,,,,,,,,,,,,,
0.0,1.0,0.62492,0.0,14.0,14.0,14.0,1.0,rug_09s.jpg,0.0,Red.png,3.0,41,,,,,,,,,,,,,,,,,
0.0,0.0,0.771325,0.0,15.0,15.0,15.0,1.0,gear_07s.jpg,1.0,Orange.png,3.0,41,,,,,,,,,,,,,,,,,
0.0,1.0,1.941335,0.0,16.0,16.0,16.0,1.0,binder_21s.jpg,0.0,Yellow.png,3.0,41,,,,,,,,,,,,,,,,,
0.0,1.0,1.071355,0.0,17.0,17.0,17.0,1.0,bacon_05s.jpg,0.0,Green.png,3.0,41,,,,,,,,,,,,,,,,,
0.0,1.0,0.967965,0.0,18.0,18.0,18.0,1.0,rocking_horse_03s.jpg,0.0,Blue.png,4.0,41,,,,,,,,,,,,,,,,,
1.0,1.0,0.747385,0.0,19.0,19.0,19.0,1.0,bacon_05s.jpg,1.0,Purple.png,4.0,41,,,,,,,,,,,,,,,,,
0.0,1.0,0.674015,0.0,20.0,20.0,20.0,1.0,perfume_06s.jpg,0.0,Red.png,4.0,41,,,,,,,,,,,,,,,,,
0.0,1.0,0.70049,0.0,21.0,21.0,21.0,1.0,raccoon_02s.jpg,0.0,Orange.png,4.0,41,,,,,,,,,,,,,,,,,
0.0,1.0,0.8326,0.0,22.0,22.0,22.0,1.0,mixer_12s.jpg,0.0,Yellow.png,4.0,41,,,,,,,,,,,,,,,,,
0.0,1.0,1.7851,0.0,23.0,23.0,23.0,1.0,slingshot_07s.jpg,0.0,Green.png,4.0,41,,,,,,,,,,,,,,,,,
0.0,1.0,0.885905,0.0,24.0,24.0,24.0,1.0,smokingpipe.jpg,0.0,Blue.png,5.0,41,,,,,,,,,,,,,,,,,
0.0,1.0,0.70436,0.0,25.0,25.0,25.0,1.0,film_03s.jpg,0.0,Purple.png,5.0,41,,,,,,,,,,,,,,,,,
1.0,0.0,0.640575,0.0,26.0,26.0,26.0,1.0,film_03s.jpg,0.0,Red.png,5.0,41,,,,,,,,,,,,,,,,,
0.0,0.0,1.139915,0.0,27.0,27.0,27.0,1.0,film_03s.jpg,1.0,Orange.png,5.0,41,,,,,,,,,,,,,,,,,
0.0,0.0,0.990215,0.0,28.0,28.0,28.0,1.0,film_03s.jpg,1.0,Yellow.png,5.0,41,,,,,,,,,,,,,,,,,
0.0,1.0,0.839115,0.0,29.0,29.0,29.0,1.0,insole_11s.jpg,0.0,Green.png,5.0,41,,,,,,,,,,,,,,,,,
0.0,1.0,1.28116,0.0,30.0,30.0,30.0,1.0,soda_fountain_03s.jpg,0.0,Blue.png,6.0,41,,,,,,,,,,,,,,,,,
0.0,1.0,0.824975,0.0,31.0,31.0,31.0,1.0,soda_fountain_03s.jpg,0.0,Purple.png,6.0,41,,,,,,,,,,,,,,,,,
0.0,1.0,0.75596,0.0,32.0,32.0,32.0,1.0,coconut_08s.jpg,0.0,Red.png,6.0,41,,,,,,,,,,,,,,,,,
0.0,1.0,0.649695,0.0,33.0,33.0,33.0,1.0,hydrant_10s.jpg,0.0,Orange.png,6.0,41,,,,,,,,,,,,,,,,,
1.0,0.0,1.325555,0.0,34.0,34.0,34.0,1.0,hydrant_10s.jpg,0.0,Yellow.png,6.0,41,,,,,,,,,,,,,,,,,
1.0,1.0,1.052525,0.0,35.0,35.0,35.0,1.0,hydrant_10s.jpg,1.0,Green.png,6.0,41,,,,,,,,,,,,,,,,,
,,,,,,,,,0.0,,,41,0.0,1.0,1.39111,0.0,0.0,0.0,0.0,1.0,blowfish_03s.jpg,pincushion_10s.jpg,,,,,,,
,,,,,,,,,0.0,,,41,1.0,0.0,0.90108,0.0,1.0,1.0,1.0,1.0,rug_09s.jpg,lamb_04s.jpg,,,,,,,
,,,,,,,,,1.0,,,41,1.0,1.0,1.017675,0.0,2.0,2.0,2.0,1.0,insole_11s.jpg,coconut_08s.jpg,,,,,,,
,,,,,,,,,0.0,,,41,1.0,0.0,1.384415,0.0,3.0,3.0,3.0,1.0,icemaker_10s.jpg,towel_rack_04s.jpg,,,,,,,
,,,,,,,,,0.0,,,41,0.0,1.0,1.267955,0.0,4.0,4.0,4.0,1.0,slingshot_07s.jpg,perfume_06s.jpg,,,,,,,
,,,,,,,,,0.0,,,41,1.0,0.0,1.401135,0.0,5.0,5.0,5.0,1.0,raccoon_02s.jpg,rocking_horse_03s.jpg,,,,,,,
,,,,,,,,,,,,41,,,,,,,,,,,0.0,3.0,3.0,3.0,1.0,new2backpresent_4_3.xlsx,new2back_compare_task_4_3.xlsx
0.0,1.0,1.29905,0.0,0.0,0.0,0.0,1.0,birthday_cake_09s.jpg,0.0,Blue.png,1.0,41,,,,,,,,,,,,,,,,,
0.0,1.0,0.91356,0.0,1.0,1.0,1.0,1.0,laser_pointer_02s.jpg,0.0,Purple.png,1.0,41,,,,,,,,,,,,,,,,,
0.0,1.0,0.569525,0.0,2.0,2.0,2.0,1.0,amber_04s.jpg,0.0,Red.png,1.0,41,,,,,,,,,,,,,,,,,
0.0,1.0,0.999945,0.0,3.0,3.0,3.0,1.0,amber_04s.jpg,0.0,Orange.png,1.0,41,,,,,,,,,,,,,,,,,
1.0,1.0,0.683955,0.0,4.0,4.0,4.0,1.0,amber_04s.jpg,1.0,Yellow.png,1.0,41,,,,,,,,,,,,,,,,,
1.0,1.0,1.801135,0.0,5.0,5.0,5.0,1.0,amber_04s.jpg,1.0,Green.png,1.0,41,,,,,,,,,,,,,,,,,
0.0,1.0,0.5784,0.0,6.0,6.0,6.0,1.0,mask_09s.jpg,0.0,Blue.png,2.0,41,,,,,,,,,,,,,,,,,
0.0,1.0,1.54926,0.0,7.0,7.0,7.0,1.0,mask_09s.jpg,0.0,Purple.png,2.0,41,,,,,,,,,,,,,,,,,
0.0,1.0,1.214765,0.0,8.0,8.0,8.0,1.0,amber_04s.jpg,0.0,Red.png,2.0,41,,,,,,,,,,,,,,,,,
0.0,1.0,0.56587,0.0,9.0,9.0,9.0,1.0,swordfish_05s.jpg,0.0,Orange.png,2.0,41,,,,,,,,,,,,,,,,,
0.0,1.0,0.578545,0.0,10.0,10.0,10.0,1.0,beard_16s.jpg,0.0,Yellow.png,2.0,41,,,,,,,,,,,,,,,,,
1.0,1.0,1.296405,0.0,11.0,11.0,11.0,1.0,swordfish_05s.jpg,1.0,Green.png,2.0,41,,,,,,,,,,,,,,,,,
0.0,1.0,1.483435,0.0,12.0,12.0,12.0,1.0,amber_04s.jpg,0.0,Blue.png,3.0,41,,,,,,,,,,,,,,,,,
0.0,1.0,0.73471,0.0,13.0,13.0,13.0,1.0,rope_16s.jpg,0.0,Purple.png,3.0,41,,,,,,,,,,,,,,,,,
0.0,1.0,0.64723,0.0,14.0,14.0,14.0,1.0,swing_set_15s.jpg,0.0,Red.png,3.0,41,,,,,,,,,,,,,,,,,
0.0,1.0,0.69555,0.0,15.0,15.0,15.0,1.0,totem_pole_05s.jpg,0.0,Orange.png,3.0,41,,,,,,,,,,,,,,,,,
0.0,1.0,1.03141,0.0,16.0,16.0,16.0,1.0,beaker_01b.jpg,0.0,Yellow.png,3.0,41,,,,,,,,,,,,,,,,,
0.0,1.0,1.26384,0.0,17.0,17.0,17.0,1.0,ostrich_06s.jpg,0.0,Green.png,3.0,41,,,,,,,,,,,,,,,,,
0.0,1.0,1.280655,0.0,18.0,18.0,18.0,1.0,ostrich_06s.jpg,0.0,Blue.png,4.0,41,,,,,,,,,,,,,,,,,
0.0,1.0,0.795155,0.0,19.0,19.0,19.0,1.0,syringe_02s.jpg,0.0,Purple.png,4.0,41,,,,,,,,,,,,,,,,,
0.0,1.0,0.85672,0.0,20.0,20.0,20.0,1.0,mold2_04s.jpg,0.0,Red.png,4.0,41,,,,,,,,,,,,,,,,,
1.0,0.0,1.12808,0.0,21.0,21.0,21.0,1.0,ostrich_06s.jpg,0.0,Orange.png,4.0,41,,,,,,,,,,,,,,,,,
0.0,1.0,0.78123,0.0,22.0,22.0,22.0,1.0,mousetrap_15n.jpg,0.0,Yellow.png,4.0,41,,,,,,,,,,,,,,,,,
0.0,1.0,0.745115,0.0,23.0,23.0,23.0,1.0,paper_towel_03s.jpg,0.0,Green.png,4.0,41,,,,,,,,,,,,,,,,,
0.0,1.0,0.733705,0.0,24.0,24.0,24.0,1.0,swordfish_05s.jpg,0.0,Blue.png,5.0,41,,,,,,,,,,,,,,,,,
0.0,1.0,0.845895,0.0,25.0,25.0,25.0,1.0,pump_11s.jpg,0.0,Purple.png,5.0,41,,,,,,,,,,,,,,,,,
1.0,1.0,1.10501,0.0,26.0,26.0,26.0,1.0,swordfish_05s.jpg,1.0,Red.png,5.0,41,,,,,,,,,,,,,,,,,
0.0,1.0,1.016945,0.0,27.0,27.0,27.0,1.0,swordfish_05s.jpg,0.0,Orange.png,5.0,41,,,,,,,,,,,,,,,,,
0.0,1.0,1.512125,0.0,28.0,28.0,28.0,1.0,pump_11s.jpg,0.0,Yellow.png,5.0,41,,,,,,,,,,,,,,,,,
0.0,1.0,0.741405,0.0,29.0,29.0,29.0,1.0,pepper2_21s.jpg,0.0,Green.png,5.0,41,,,,,,,,,,,,,,,,,
0.0,1.0,0.679255,0.0,30.0,30.0,30.0,1.0,champagne_18s.jpg,0.0,Blue.png,6.0,41,,,,,,,,,,,,,,,,,
0.0,1.0,0.61426,0.0,31.0,31.0,31.0,1.0,piggy_bank_02s.jpg,0.0,Purple.png,6.0,41,,,,,,,,,,,,,,,,,
0.0,1.0,0.76076,0.0,32.0,32.0,32.0,1.0,fondue_07s.jpg,0.0,Red.png,6.0,41,,,,,,,,,,,,,,,,,
0.0,1.0,0.880505,0.0,33.0,33.0,33.0,1.0,metronome_03s.jpg,0.0,Orange.png,6.0,41,,,,,,,,,,,,,,,,,
0.0,1.0,0.82837,0.0,34.0,34.0,34.0,1.0,butter_14s.jpg,0.0,Yellow.png,6.0,41,,,,,,,,,,,,,,,,,
0.0,1.0,0.743725,0.0,35.0,35.0,35.0,1.0,submarine_11n.jpg,0.0,Green.png,6.0,41,,,,,,,,,,,,,,,,,
,,,,,,,,,1.0,,,41,1.0,1.0,2.02848,0.0,0.0,0.0,0.0,1.0,beard_16s.jpg,rope_16s.jpg,,,,,,,
,,,,,,,,,0.0,,,41,1.0,0.0,0.88865,0.0,1.0,1.0,1.0,1.0,fondue_07s.jpg,pepper2_21s.jpg,,,,,,,
,,,,,,,,,1.0,,,41,1.0,1.0,1.000495,0.0,2.0,2.0,2.0,1.0,beaker_01b.jpg,syringe_02s.jpg,,,,,,,
,,,,,,,,,1.0,,,41,1.0,1.0,0.71813,0.0,3.0,3.0,3.0,1.0,mold2_04s.jpg,paper_towel_03s.jpg,,,,,,,
,,,,,,,,,0.0,,,41,0.0,1.0,1.78442,0.0,4.0,4.0,4.0,1.0,metronome_03s.jpg,champagne_18s.jpg,,,,,,,
,,,,,,,,,0.0,,,41,0.0,1.0,1.12177,0.0,5.0,5.0,5.0,1.0,butter_14s.jpg,piggy_bank_02s.jpg,,,,,,,
,,,,,,,,,,,,41,,,,,,,,,,,0.0,4.0,4.0,4.0,1.0,new2backpresent_5_3.xlsx,new2back_compare_task_5_3.xlsx
,0.0,,0.0,0.0,0.0,0.0,1.0,teabag_12s.jpg,0.0,Blue.png,1.0,41,,,,,,,,,,,,,,,,,
,0.0,,0.0,1.0,1.0,1.0,1.0,teabag_12s.jpg,0.0,Purple.png,1.0,41,,,,,,,,,,,,,,,,,
,0.0,,0.0,2.0,2.0,2.0,1.0,cereal_04s.jpg,0.0,Red.png,1.0,41,,,,,,,,,,,,,,,,,
,0.0,,0.0,3.0,3.0,3.0,1.0,pocket_watch_16s.jpg,0.0,Orange.png,1.0,41,,,,,,,,,,,,,,,,,
,0.0,,0.0,4.0,4.0,4.0,1.0,cucumber_07s.jpg,0.0,Yellow.png,1.0,41,,,,,,,,,,,,,,,,,
,0.0,,0.0,5.0,5.0,5.0,1.0,teabag_12s.jpg,0.0,Green.png,1.0,41,,,,,,,,,,,,,,,,,
,0.0,,0.0,6.0,6.0,6.0,1.0,recliner_02s.jpg,0.0,Blue.png,2.0,41,,,,,,,,,,,,,,,,,
,0.0,,0.0,7.0,7.0,7.0,1.0,tupperware_09s.jpg,0.0,Purple.png,2.0,41,,,,,,,,,,,,,,,,,
,0.0,,0.0,8.0,8.0,8.0,1.0,ticktacktoe_08s.jpg,0.0,Red.png,2.0,41,,,,,,,,,,,,,,,,,
,0.0,,0.0,9.0,9.0,9.0,1.0,peach_04s.jpg,0.0,Orange.png,2.0,41,,,,,,,,,,,,,,,,,
,0.0,,0.0,10.0,10.0,10.0,1.0,taxi_15s.jpg,0.0,Yellow.png,2.0,41,,,,,,,,,,,,,,,,,
,0.0,,0.0,11.0,11.0,11.0,1.0,peach_04s.jpg,1.0,Green.png,2.0,41,,,,,,,,,,,,,,,,,
,0.0,,0.0,12.0,12.0,12.0,1.0,letter_opener_03s.jpg,0.0,Blue.png,3.0,41,,,,,,,,,,,,,,,,,
,0.0,,0.0,13.0,13.0,13.0,1.0,letter_opener_03s.jpg,0.0,Purple.png,3.0,41,,,,,,,,,,,,,,,,,
,0.0,,0.0,14.0,14.0,14.0,1.0,letter_opener_03s.jpg,1.0,Red.png,3.0,41,,,,,,,,,,,,,,,,,
,0.0,,0.0,15.0,15.0,15.0,1.0,latte_06s.jpg,0.0,Orange.png,3.0,41,,,,,,,,,,,,,,,,,
,0.0,,0.0,16.0,16.0,16.0,1.0,letter_opener_03s.jpg,1.0,Yellow.png,3.0,41,,,,,,,,,,,,,,,,,
,0.0,,0.0,17.0,17.0,17.0,1.0,icicle_04s.jpg,0.0,Green.png,3.0,41,,,,,,,,,,,,,,,,,
,0.0,,0.0,18.0,18.0,18.0,1.0,taxi_15s.jpg,0.0,Blue.png,4.0,41,,,,,,,,,,,,,,,,,
,0.0,,0.0,19.0,19.0,19.0,1.0,chopsticks_08s.jpg,0.0,Purple.png,4.0,41,,,,,,,,,,,,,,,,,
,0.0,,0.0,20.0,20.0,20.0,1.0,doily_13s.jpg,0.0,Red.png,4.0,41,,,,,,,,,,,,,,,,,
,0.0,,0.0,21.0,21.0,21.0,1.0,pretzel_09s.jpg,0.0,Orange.png,4.0,41,,,,,,,,,,,,,,,,,
,0.0,,0.0,22.0,22.0,22.0,1.0,tie_03s.jpg,0.0,Yellow.png,4.0,41,,,,,,,,,,,,,,,,,
,0.0,,0.0,23.0,23.0,23.0,1.0,pepper_mill_03s.jpg,0.0,Green.png,4.0,41,,,,,,,,,,,,,,,,,
,0.0,,0.0,24.0,24.0,24.0,1.0,bee_20s.jpg,0.0,Blue.png,5.0,41,,,,,,,,,,,,,,,,,
,0.0,,0.0,25.0,25.0,25.0,1.0,pepper_mill_03s.jpg,1.0,Purple.png,5.0,41,,,,,,,,,,,,,,,,,
,0.0,,0.0,26.0,26.0,26.0,1.0,bee_20s.jpg,1.0,Red.png,5.0,41,,,,,,,,,,,,,,,,,
,0.0,,0.0,27.0,27.0,27.0,1.0,tinsel_12s.jpg,0.0,Orange.png,5.0,41,,,,,,,,,,,,,,,,,
,0.0,,0.0,28.0,28.0,28.0,1.0,fireworks_18s.jpg,0.0,Yellow.png,5.0,41,,,,,,,,,,,,,,,,,
,0.0,,0.0,29.0,29.0,29.0,1.0,key_07s.jpg,0.0,Green.png,5.0,41,,,,,,,,,,,,,,,,,
0.0,1.0,1.3872,0.0,30.0,30.0,30.0,1.0,frog_09s.jpg,0.0,Blue.png,6.0,41,,,,,,,,,,,,,,,,,
0.0,0.0,0.89849,0.0,31.0,31.0,31.0,1.0,key_07s.jpg,1.0,Purple.png,6.0,41,,,,,,,,,,,,,,,,,
0.0,1.0,0.832005,0.0,32.0,32.0,32.0,1.0,rolling_pin_02s.jpg,0.0,Red.png,6.0,41,,,,,,,,,,,,,,,,,
0.0,1.0,0.709355,0.0,33.0,33.0,33.0,1.0,coral_08s.jpg,0.0,Orange.png,6.0,41,,,,,,,,,,,,,,,,,
1.0,0.0,1.411945,0.0,34.0,34.0,34.0,1.0,key_07s.jpg,0.0,Yellow.png,6.0,41,,,,,,,,,,,,,,,,,
0.0,1.0,0.66527,0.0,35.0,35.0,35.0,1.0,margarita_03s.jpg,0.0,Green.png,6.0,41,,,,,,,,,,,,,,,,,
,,,,,,,,,0.0,,,41,1.0,0.0,1.114215,0.0,0.0,0.0,0.0,1.0,recliner_02s.jpg,pocket_watch_16s.jpg,,,,,,,
,,,,,,,,,1.0,,,41,1.0,1.0,1.39556,0.0,1.0,1.0,1.0,1.0,cucumber_07s.jpg,tupperware_09s.jpg,,,,,,,
,,,,,,,,,1.0,,,41,0.0,0.0,0.88536,0.0,2.0,2.0,2.0,1.0,icicle_04s.jpg,doily_13s.jpg,,,,,,,
,,,,,,,,,0.0,,,41,0.0,1.0,0.892095,0.0,3.0,3.0,3.0,1.0,tie_03s.jpg,chopsticks_08s.jpg,,,,,,,
,,,,,,,,,1.0,,,41,0.0,0.0,0.95009,0.0,4.0,4.0,4.0,1.0,rolling_pin_02s.jpg,margarita_03s.jpg,,,,,,,
,,,,,,,,,0.0,,,41,1.0,0.0,0.526165,0.0,5.0,5.0,5.0,1.0,coral_08s.jpg,frog_09s.jpg,,,,,,,
,,,,,,,,,,,,41,,,,,,,,,,,0.0,5.0,5.0,5.0,1.0,new2backpresent_6_3.xlsx,new2back_compare_task_6_3.xlsx
0.0,1.0,0.996955,0.0,0.0,0.0,0.0,1.0,polar_bear_02s.jpg,0.0,Blue.png,1.0,41,,,,,,,,,,,,,,,,,
0.0,1.0,0.823765,0.0,1.0,1.0,1.0,1.0,screwdriver02a.jpg,0.0,Purple.png,1.0,41,,,,,,,,,,,,,,,,,
,0.0,,0.0,2.0,2.0,2.0,1.0,screwdriver02a.jpg,0.0,Red.png,1.0,41,,,,,,,,,,,,,,,,,
0.0,1.0,0.87534,0.0,3.0,3.0,3.0,1.0,phone_01b.jpg,0.0,Orange.png,1.0,41,,,,,,,,,,,,,,,,,
0.0,1.0,0.84982,0.0,4.0,4.0,4.0,1.0,eyedropper_12s.jpg,0.0,Yellow.png,1.0,41,,,,,,,,,,,,,,,,,
0.0,1.0,0.749475,0.0,5.0,5.0,5.0,1.0,mailbox_11s.jpg,0.0,Green.png,1.0,41,,,,,,,,,,,,,,,,,
0.0,1.0,1.000515,0.0,6.0,6.0,6.0,1.0,mascara_03s.jpg,0.0,Blue.png,2.0,41,,,,,,,,,,,,,,,,,
1.0,1.0,0.83839,0.0,7.0,7.0,7.0,1.0,mailbox_11s.jpg,1.0,Purple.png,2.0,41,,,,,,,,,,,,,,,,,
0.0,1.0,0.9329,0.0,8.0,8.0,8.0,1.0,eiffeltower.jpg,0.0,Red.png,2.0,41,,,,,,,,,,,,,,,,,
0.0,1.0,0.70013,0.0,9.0,9.0,9.0,1.0,bagel_15s.jpg,0.0,Orange.png,2.0,41,,,,,,,,,,,,,,,,,
0.0,1.0,0.739915,0.0,10.0,10.0,10.0,1.0,thumbtack_14s.jpg,0.0,Yellow.png,2.0,41,,,,,,,,,,,,,,,,,
0.0,1.0,0.918305,0.0,11.0,11.0,11.0,1.0,checkbook_11s.jpg,0.0,Green.png,2.0,41,,,,,,,,,,,,,,,,,
0.0,1.0,1.317925,0.0,12.0,12.0,12.0,1.0,phone_01b.jpg,0.0,Blue.png,3.0,41,,,,,,,,,,,,,,,,,
0.0,1.0,0.683845,0.0,13.0,13.0,13.0,1.0,crossbow_10s.jpg,0.0,Purple.png,3.0,41,,,,,,,,,,,,,,,,,
0.0,1.0,0.77437,0.0,14.0,14.0,14.0,1.0,fire_pit_10s.jpg,0.0,Red.png,3.0,41,,,,,,,,,,,,,,,,,
1.0,0.0,0.802945,0.0,15.0,15.0,15.0,1.0,phone_01b.jpg,0.0,Orange.png,3.0,41,,,,,,,,,,,,,,,,,
0.0,1.0,0.420675,0.0,16.0,16.0,16.0,1.0,basket_05s.jpg,0.0,Yellow.png,3.0,41,,,,,,,,,,,,,,,,,
0.0,1.0,0.771415,0.0,17.0,17.0,17.0,1.0,tablet_04s.jpg,0.0,Green.png,3.0,41,,,,,,,,,,,,,,,,,
0.0,1.0,0.93996,0.0,18.0,18.0,18.0,1.0,eyedropper_12s.jpg,0.0,Blue.png,4.0,41,,,,,,,,,,,,,,,,,
0.0,1.0,0.645905,0.0,19.0,19.0,19.0,1.0,milk_02s.jpg,0.0,Purple.png,4.0,41,,,,,,,,,,,,,,,,,
0.0,1.0,0.66724,0.0,20.0,20.0,20.0,1.0,pomegranate_04s.jpg,0.0,Red.png,4.0,41,,,,,,,,,,,,,,,,,
0.0,1.0,0.93469,0.0,21.0,21.0,21.0,1.0,mug_06s.jpg,0.0,Orange.png,4.0,41,,,,,,,,,,,,,,,,,
1.0,0.0,0.783705,0.0,22.0,22.0,22.0,1.0,eyedropper_12s.jpg,0.0,Yellow.png,4.0,41,,,,,,,,,,,,,,,,,
0.0,1.0,0.492825,0.0,23.0,23.0,23.0,1.0,laundry_basket_11s.jpg,0.0,Green.png,4.0,41,,,,,,,,,,,,,,,,,
0.0,0.0,1.709975,0.0,24.0,24.0,24.0,1.0,eyedropper_12s.jpg,1.0,Blue.png,5.0,41,,,,,,,,,,,,,,,,,
1.0,1.0,0.996235,0.0,25.0,25.0,25.0,1.0,laundry_basket_11s.jpg,1.0,Purple.png,5.0,41,,,,,,,,,,,,,,,,,
0.0,1.0,0.838725,0.0,26.0,26.0,26.0,1.0,magnet_03s.jpg,0.0,Red.png,5.0,41,,,,,,,,,,,,,,,,,
1.0,1.0,0.76841,0.0,27.0,27.0,27.0,1.0,laundry_basket_11s.jpg,1.0,Orange.png,5.0,41,,,,,,,,,,,,,,,,,
1.0,0.0,1.201875,0.0,28.0,28.0,28.0,1.0,laundry_basket_11s.jpg,0.0,Yellow.png,5.0,41,,,,,,,,,,,,,,,,,
0.0,1.0,0.456765,0.0,29.0,29.0,29.0,1.0,tambourine_06s.jpg,0.0,Green.png,5.0,41,,,,,,,,,,,,,,,,,
0.0,1.0,0.585125,0.0,30.0,30.0,30.0,1.0,lab_coat_11s.jpg,0.0,Blue.png,6.0,41,,,,,,,,,,,,,,,,,
1.0,0.0,0.890755,0.0,31.0,31.0,31.0,1.0,lab_coat_11s.jpg,0.0,Purple.png,6.0,41,,,,,,,,,,,,,,,,,
1.0,1.0,1.59844,0.0,32.0,32.0,32.0,1.0,lab_coat_11s.jpg,1.0,Red.png,6.0,41,,,,,,,,,,,,,,,,,
1.0,1.0,1.024085,0.0,33.0,33.0,33.0,1.0,lab_coat_11s.jpg,1.0,Orange.png,6.0,41,,,,,,,,,,,,,,,,,
0.0,1.0,0.635145,0.0,34.0,34.0,34.0,1.0,cap_05s.jpg,0.0,Yellow.png,6.0,41,,,,,,,,,,,,,,,,,
0.0,1.0,0.57607,0.0,35.0,35.0,35.0,1.0,puck_06s.jpg,0.0,Green.png,6.0,41,,,,,,,,,,,,,,,,,
,,,,,,,,,1.0,,,41,1.0,1.0,1.229835,0.0,0.0,0.0,0.0,1.0,thumbtack_14s.jpg,crossbow_10s.jpg,,,,,,,
,,,,,,,,,0.0,,,41,1.0,0.0,1.62845,0.0,1.0,1.0,1.0,1.0,milk_02s.jpg,basket_05s.jpg,,,,,,,
,,,,,,,,,1.0,,,41,0.0,0.0,0.743,0.0,2.0,2.0,2.0,1.0,tablet_04s.jpg,pomegranate_04s.jpg,,,,,,,
,,,,,,,,,1.0,,,41,0.0,0.0,1.683865,0.0,3.0,3.0,3.0,1.0,mascara_03s.jpg,bagel_15s.jpg,,,,,,,
,,,,,,,,,0.0,,,41,1.0,0.0,0.528535,0.0,4.0,4.0,4.0,1.0,tambourine_06s.jpg,magnet_03s.jpg,,,,,,,
,,,,,,,,,0.0,,,41,1.0,0.0,0.712585,0.0,5.0,5.0,5.0,1.0,checkbook_11s.jpg,eiffeltower.jpg,,,,,,,
,,,,,,,,,,,,41,,,,,,,,,,,0.0,6.0,6.0,6.0,1.0,new2backpresent_7_3.xlsx,new2back_compare_task_7_3.xlsx
0.0,1.0,1.38855,0.0,0.0,0.0,0.0,1.0,projector_08s.jpg,0.0,Blue.png,1.0,41,,,,,,,,,,,,,,,,,
0.0,1.0,1.14954,0.0,1.0,1.0,1.0,1.0,projector_08s.jpg,0.0,Purple.png,1.0,41,,,,,,,,,,,,,,,,,
1.0,1.0,0.58566,0.0,2.0,2.0,2.0,1.0,projector_08s.jpg,1.0,Red.png,1.0,41,,,,,,,,,,,,,,,,,
0.0,1.0,0.527265,0.0,3.0,3.0,3.0,1.0,pumpkin_03s.jpg,0.0,Orange.png,1.0,41,,,,,,,,,,,,,,,,,
0.0,1.0,0.82335,0.0,4.0,4.0,4.0,1.0,orangutan_03s.jpg,0.0,Yellow.png,1.0,41,,,,,,,,,,,,,,,,,
0.0,1.0,1.40203,0.0,5.0,5.0,5.0,1.0,projector_08s.jpg,0.0,Green.png,1.0,41,,,,,,,,,,,,,,,,,
0.0,1.0,0.670935,0.0,6.0,6.0,6.0,1.0,rollerskate_03s.jpg,0.0,Blue.png,2.0,41,,,,,,,,,,,,,,,,,
0.0,0.0,1.09117,0.0,7.0,7.0,7.0,1.0,projector_08s.jpg,1.0,Purple.png,2.0,41,,,,,,,,,,,,,,,,,
0.0,1.0,0.718765,0.0,8.0,8.0,8.0,1.0,racehorse_03s.jpg,0.0,Red.png,2.0,41,,,,,,,,,,,,,,,,,
1.0,1.0,1.07229,0.0,9.0,9.0,9.0,1.0,projector_08s.jpg,1.0,Orange.png,2.0,41,,,,,,,,,,,,,,,,,
0.0,1.0,0.539875,0.0,10.0,10.0,10.0,1.0,toy_04s.jpg,0.0,Yellow.png,2.0,41,,,,,,,,,,,,,,,,,
1.0,1.0,0.86938,0.0,11.0,11.0,11.0,1.0,projector_08s.jpg,1.0,Green.png,2.0,41,,,,,,,,,,,,,,,,,
0.0,0.0,0.60243,0.0,12.0,12.0,12.0,1.0,toy_04s.jpg,1.0,Blue.png,3.0,41,,,,,,,,,,,,,,,,,
0.0,1.0,1.47974,0.0,13.0,13.0,13.0,1.0,toy_04s.jpg,0.0,Purple.png,3.0,41,,,,,,,,,,,,,,,,,
0.0,1.0,0.86633,0.0,14.0,14.0,14.0,1.0,loveseat_08s.jpg,0.0,Red.png,3.0,41,,,,,,,,,,,,,,,,,
1.0,1.0,1.31792,0.0,15.0,15.0,15.0,1.0,toy_04s.jpg,1.0,Orange.png,3.0,41,,,,,,,,,,,,,,,,,
0.0,1.0,1.370575,0.0,16.0,16.0,16.0,1.0,toy_04s.jpg,0.0,Yellow.png,3.0,41,,,,,,,,,,,,,,,,,
0.0,1.0,0.506785,0.0,17.0,17.0,17.0,1.0,muffin_12n.jpg,0.0,Green.png,3.0,41,,,,,,,,,,,,,,,,,
0.0,1.0,0.64924,0.0,18.0,18.0,18.0,1.0,oil_02s.jpg,0.0,Blue.png,4.0,41,,,,,,,,,,,,,,,,,
0.0,1.0,0.616395,0.0,19.0,19.0,19.0,1.0,ring_03s.jpg,0.0,Purple.png,4.0,41,,,,,,,,,,,,,,,,,
1.0,0.0,0.78339,0.0,20.0,20.0,20.0,1.0,ring_03s.jpg,0.0,Red.png,4.0,41,,,,,,,,,,,,,,,,,
0.0,1.0,0.733715,0.0,21.0,21.0,21.0,1.0,harpoon.jpg,0.0,Orange.png,4.0,41,,,,,,,,,,,,,,,,,
0.0,1.0,0.854255,0.0,22.0,22.0,22.0,1.0,swimming_pool_17s.jpg,0.0,Yellow.png,4.0,41,,,,,,,,,,,,,,,,,
0.0,1.0,0.649415,0.0,23.0,23.0,23.0,1.0,ironing_board_07s.jpg,0.0,Green.png,4.0,41,,,,,,,,,,,,,,,,,
0.0,1.0,1.01119,0.0,24.0,24.0,24.0,1.0,projector_08s.jpg,0.0,Blue.png,5.0,41,,,,,,,,,,,,,,,,,
0.0,1.0,0.66596,0.0,25.0,25.0,25.0,1.0,rabbit_03s.jpg,0.0,Purple.png,5.0,41,,,,,,,,,,,,,,,,,
0.0,1.0,0.67177,0.0,26.0,26.0,26.0,1.0,spacesuit_02s.jpg,0.0,Red.png,5.0,41,,,,,,,,,,,,,,,,,
0.0,1.0,0.701435,0.0,27.0,27.0,27.0,1.0,toy_04s.jpg,0.0,Orange.png,5.0,41,,,,,,,,,,,,,,,,,
0.0,1.0,0.586275,0.0,28.0,28.0,28.0,1.0,mannequin_05s.jpg,0.0,Yellow.png,5.0,41,,,,,,,,,,,,,,,,,
0.0,0.0,0.861285,0.0,29.0,29.0,29.0,1.0,toy_04s.jpg,1.0,Green.png,5.0,41,,,,,,,,,,,,,,,,,
0.0,1.0,1.054385,0.0,30.0,30.0,30.0,1.0,dashboard_02s.jpg,0.0,Blue.png,6.0,41,,,,,,,,,,,,,,,,,
1.0,0.0,1.403245,0.0,31.0,31.0,31.0,1.0,exhaust_pipe_10s.jpg,0.0,Purple.png,6.0,41,,,,,,,,,,,,,,,,,
0.0,1.0,0.784325,0.0,32.0,32.0,32.0,1.0,telephone_pole_05s.jpg,0.0,Red.png,6.0,41,,,,,,,,,,,,,,,,,
0.0,1.0,0.94949,0.0,33.0,33.0,33.0,1.0,orangutan_03s.jpg,0.0,Orange.png,6.0,41,,,,,,,,,,,,,,,,,
0.0,1.0,0.71187,0.0,34.0,34.0,34.0,1.0,tuxedo_01b.jpg,0.0,Yellow.png,6.0,41,,,,,,,,,,,,,,,,,
0.0,1.0,2.311245,0.0,35.0,35.0,35.0,1.0,crate_05s.jpg,0.0,Green.png,6.0,41,,,,,,,,,,,,,,,,,
,,,,,,,,,0.0,,,41,1.0,0.0,1.02809,0.0,0.0,0.0,0.0,1.0,rollerskate_03s.jpg,pumpkin_03s.jpg,,,,,,,
,,,,,,,,,0.0,,,41,1.0,0.0,0.80954,0.0,1.0,1.0,1.0,1.0,spacesuit_02s.jpg,ironing_board_07s.jpg,,,,,,,
,,,,,,,,,1.0,,,41,1.0,1.0,1.19091,0.0,2.0,2.0,2.0,1.0,swimming_pool_17s.jpg,rabbit_03s.jpg,,,,,,,
,,,,,,,,,0.0,,,41,1.0,0.0,1.07711,0.0,3.0,3.0,3.0,1.0,muffin_12n.jpg,loveseat_08s.jpg,,,,,,,
,,,,,,,,,1.0,,,41,1.0,1.0,0.642485,0.0,4.0,4.0,4.0,1.0,oil_02s.jpg,harpoon.jpg,,,,,,,
,,,,,,,,,1.0,,,41,0.0,0.0,1.201165,0.0,5.0,5.0,5.0,1.0,telephone_pole_05s.jpg,crate_05s.jpg,,,,,,,
,,,,,,,,,,,,41,,,,,,,,,,,0.0,7.0,7.0,7.0,1.0,new2backpresent_8_3.xlsx,new2back_compare_task_8_3.xlsx
0.0,1.0,1.364095,0.0,0.0,0.0,0.0,1.0,plunger_08s.jpg,0.0,Blue.png,1.0,41,,,,,,,,,,,,,,,,,
0.0,1.0,0.465905,0.0,1.0,1.0,1.0,1.0,mango_09s.jpg,0.0,Purple.png,1.0,41,,,,,,,,,,,,,,,,,
0.0,1.0,0.570405,0.0,2.0,2.0,2.0,1.0,panda_02s.jpg,0.0,Red.png,1.0,41,,,,,,,,,,,,,,,,,
0.0,1.0,0.600805,0.0,3.0,3.0,3.0,1.0,spatula04.jpg,0.0,Orange.png,1.0,41,,,,,,,,,,,,,,,,,
0.0,1.0,0.617805,0.0,4.0,4.0,4.0,1.0,tuba_12s.jpg,0.0,Yellow.png,1.0,41,,,,,,,,,,,,,,,,,
0.0,1.0,0.632755,0.0,5.0,5.0,5.0,1.0,lipstick_02s.jpg,0.0,Green.png,1.0,41,,,,,,,,,,,,,,,,,
0.0,0.0,1.233435,0.0,6.0,6.0,6.0,1.0,tuba_12s.jpg,1.0,Blue.png,2.0,41,,,,,,,,,,,,,,,,,
0.0,1.0,0.45003,0.0,7.0,7.0,7.0,1.0,jelly_bean_06s.jpg,0.0,Purple.png,2.0,41,,,,,,,,,,,,,,,,,
0.0,1.0,0.601825,0.0,8.0,8.0,8.0,1.0,penlight_12s.jpg,0.0,Red.png,2.0,41,,,,,,,,,,,,,,,,,
0.0,1.0,0.923645,0.0,9.0,9.0,9.0,1.0,rooster_03s.jpg,0.0,Orange.png,2.0,41,,,,,,,,,,,,,,,,,
0.0,1.0,0.851885,0.0,10.0,10.0,10.0,1.0,raft_09s.jpg,0.0,Yellow.png,2.0,41,,,,,,,,,,,,,,,,,
0.0,1.0,0.616895,0.0,11.0,11.0,11.0,1.0,briefcase_03s.jpg,0.0,Green.png,2.0,41,,,,,,,,,,,,,,,,,
0.0,1.0,0.68171,0.0,12.0,12.0,12.0,1.0,fossil_06s.jpg,0.0,Blue.png,3.0,41,,,,,,,,,,,,,,,,,
0.0,1.0,1.10693,0.0,13.0,13.0,13.0,1.0,fossil_06s.jpg,0.0,Purple.png,3.0,41,,,,,,,,,,,,,,,,,
0.0,1.0,0.739285,0.0,14.0,14.0,14.0,1.0,emerald_02s.jpg,0.0,Red.png,3.0,41,,,,,,,,,,,,,,,,,
0.0,0.0,1.03504,0.0,15.0,15.0,15.0,1.0,fossil_06s.jpg,1.0,Orange.png,3.0,41,,,,,,,,,,,,,,,,,
0.0,1.0,0.8361,0.0,16.0,16.0,16.0,1.0,tiara_05s.jpg,0.0,Yellow.png,3.0,41,,,,,,,,,,,,,,,,,
1.0,1.0,1.26941,0.0,17.0,17.0,17.0,1.0,fossil_06s.jpg,1.0,Green.png,3.0,41,,,,,,,,,,,,,,,,,
0.0,1.0,0.736525,0.0,18.0,18.0,18.0,1.0,rooster_03s.jpg,0.0,Blue.png,4.0,41,,,,,,,,,,,,,,,,,
1.0,0.0,1.796305,0.0,19.0,19.0,19.0,1.0,rooster_03s.jpg,0.0,Purple.png,4.0,41,,,,,,,,,,,,,,,,,
0.0,1.0,0.891405,0.0,20.0,20.0,20.0,1.0,squirrel_02s.jpg,0.0,Red.png,4.0,41,,,,,,,,,,,,,,,,,
0.0,1.0,0.56793,0.0,21.0,21.0,21.0,1.0,plunger_08s.jpg,0.0,Orange.png,4.0,41,,,,,,,,,,,,,,,,,
1.0,0.0,1.19244,0.0,22.0,22.0,22.0,1.0,rooster_03s.jpg,0.0,Yellow.png,4.0,41,,,,,,,,,,,,,,,,,
0.0,1.0,0.584275,0.0,23.0,23.0,23.0,1.0,pencil_sharpener_09n.jpg,0.0,Green.png,4.0,41,,,,,,,,,,,,,,,,,
0.0,1.0,0.764445,0.0,24.0,24.0,24.0,1.0,latch_15s.jpg,0.0,Blue.png,5.0,41,,,,,,,,,,,,,,,,,
0.0,1.0,0.74126,0.0,25.0,25.0,25.0,1.0,pipe1_10s.jpg,0.0,Purple.png,5.0,41,,,,,,,,,,,,,,,,,
0.0,1.0,1.053625,0.0,26.0,26.0,26.0,1.0,padlock_07s.jpg,0.0,Red.png,5.0,41,,,,,,,,,,,,,,,,,
1.0,0.0,1.84597,0.0,27.0,27.0,27.0,1.0,padlock_07s.jpg,0.0,Orange.png,5.0,41,,,,,,,,,,,,,,,,,
0.0,1.0,0.82288,0.0,28.0,28.0,28.0,1.0,mosquito_12s.jpg,0.0,Yellow.png,5.0,41,,,,,,,,,,,,,,,,,
0.0,1.0,0.651275,0.0,29.0,29.0,29.0,1.0,chalice_10s.jpg,0.0,Green.png,5.0,41,,,,,,,,,,,,,,,,,
0.0,1.0,0.741935,0.0,30.0,30.0,30.0,1.0,turf_03s.jpg,0.0,Blue.png,6.0,41,,,,,,,,,,,,,,,,,
0.0,1.0,0.79228,0.0,31.0,31.0,31.0,1.0,smoothie_09s.jpg,0.0,Purple.png,6.0,41,,,,,,,,,,,,,,,,,
0.0,1.0,1.26784,0.0,32.0,32.0,32.0,1.0,comic_book_02s.jpg,0.0,Red.png,6.0,41,,,,,,,,,,,,,,,,,
0.0,1.0,1.150645,0.0,33.0,33.0,33.0,1.0,stopwatch_04s.jpg,0.0,Orange.png,6.0,41,,,,,,,,,,,,,,,,,
0.0,1.0,1.186995,0.0,34.0,34.0,34.0,1.0,turf_03s.jpg,0.0,Yellow.png,6.0,41,,,,,,,,,,,,,,,,,
0.0,1.0,0.719435,0.0,35.0,35.0,35.0,1.0,turnstile_08s.jpg,0.0,Green.png,6.0,41,,,,,,,,,,,,,,,,,
,,,,,,,,,1.0,,,41,1.0,1.0,1.184505,0.0,0.0,0.0,0.0,1.0,briefcase_03s.jpg,emerald_02s.jpg,,,,,,,
,,,,,,,,,1.0,,,41,1.0,1.0,1.017735,0.0,1.0,1.0,1.0,1.0,mosquito_12s.jpg,smoothie_09s.jpg,,,,,,,
,,,,,,,,,1.0,,,41,0.0,0.0,0.517135,0.0,2.0,2.0,2.0,1.0,chalice_10s.jpg,comic_book_02s.jpg,,,,,,,
,,,,,,,,,1.0,,,41,1.0,1.0,0.68337,0.0,3.0,3.0,3.0,1.0,jelly_bean_06s.jpg,raft_09s.jpg,,,,,,,
,,,,,,,,,1.0,,,41,1.0,1.0,0.739825,0.0,4.0,4.0,4.0,1.0,squirrel_02s.jpg,pencil_sharpener_09n.jpg,,,,,,,
,,,,,,,,,0.0,,,41,1.0,0.0,0.884455,0.0,5.0,5.0,5.0,1.0,lipstick_02s.jpg,panda_02s.jpg,,,,,,,
,,,,,,,,,,,,41,,,,,,,,,,,0.0,8.0,8.0,8.0,1.0,new2backpresent_9_3.xlsx,new2back_compare_task_9_3.xlsx
