key_resp.keys,key_resp.corr,key_resp.rt,present_segment.thisRepN,present_segment.thisTrialN,present_segment.thisN,present_segment.thisIndex,present_segment.ran,pictures,answer,clock,segment,participant,key_resp_2.keys,key_resp_2.corr,key_resp_2.rt,compare_segment.thisRepN,compare_segment.thisTrialN,compare_segment.thisN,compare_segment.thisIndex,compare_segment.ran,item_a,item_b,clock_conditions.thisRepN,clock_conditions.thisTrialN,clock_conditions.thisN,clock_conditions.thisIndex,clock_conditions.ran,present,compare
0.0,1.0,0.907,0.0,0.0,0.0,0.0,1.0,lamppost_09s.jpg,0.0,Blue.png,1.0,101,,,,,,,,,,,,,,,,,
0.0,1.0,0.847,0.0,1.0,1.0,1.0,1.0,mushroom_10n.jpg,0.0,Purple.png,1.0,101,,,,,,,,,,,,,,,,,
1.0,1.0,0.891,0.0,2.0,2.0,2.0,1.0,mushroom_10n.jpg,1.0,Red.png,1.0,101,,,,,,,,,,,,,,,,,
0.0,1.0,0.774,0.0,3.0,3.0,3.0,1.0,megaphone_03s.jpg,0.0,Orange.png,1.0,101,,,,,,,,,,,,,,,,,
0.0,1.0,0.999,0.0,4.0,4.0,4.0,1.0,popsicle_02s.jpg,0.0,Yellow.png,1.0,101,,,,,,,,,,,,,,,,,
0.0,1.0,0.942,0.0,5.0,5.0,5.0,1.0,kangaroo_02s.jpg,0.0,Green.png,1.0,101,,,,,,,,,,,,,,,,,
0.0,1.0,1.936,0.0,6.0,6.0,6.0,1.0,kangaroo_02s.jpg,0.0,Blue.png,2.0,101,,,,,,,,,,,,,,,,,
0.0,1.0,0.651,0.0,7.0,7.0,7.0,1.0,ivy_12s.jpg,0.0,Purple.png,2.0,101,,,,,,,,,,,,,,,,,
1.0,1.0,1.241,0.0,8.0,8.0,8.0,1.0,kangaroo_02s.jpg,1.0,Red.png,2.0,101,,,,,,,,,,,,,,,,,
0.0,1.0,0.706,0.0,9.0,9.0,9.0,1.0,peanut_butter_08s.jpg,0.0,Orange.png,2.0,101,,,,,,,,,,,,,,,,,
0.0,1.0,0.631,0.0,10.0,10.0,10.0,1.0,spoon02a.jpg,0.0,Yellow.png,2.0,101,,,,,,,,,,,,,,,,,
0.0,1.0,0.653,0.0,11.0,11.0,11.0,1.0,air_pump_05s.jpg,0.0,Green.png,2.0,101,,,,,,,,,,,,,,,,,
0.0,1.0,0.556,0.0,12.0,12.0,12.0,1.0,powder_07s.jpg,0.0,Blue.png,3.0,101,,,,,,,,,,,,,,,,,
0.0,1.0,0.705,0.0,13.0,13.0,13.0,1.0,sunglasses_11s.jpg,0.0,Purple.png,3.0,101,,,,,,,,,,,,,,,,,
0.0,1.0,0.653,0.0,14.0,14.0,14.0,1.0,timer_03s.jpg,0.0,Red.png,3.0,101,,,,,,,,,,,,,,,,,
1.0,1.0,0.989,0.0,15.0,15.0,15.0,1.0,sunglasses_11s.jpg,1.0,Orange.png,3.0,101,,,,,,,,,,,,,,,,,
0.0,1.0,0.833,0.0,16.0,16.0,16.0,1.0,stethoscope_01b.jpg,0.0,Yellow.png,3.0,101,,,,,,,,,,,,,,,,,
1.0,1.0,0.831,0.0,17.0,17.0,17.0,1.0,sunglasses_11s.jpg,1.0,Green.png,3.0,101,,,,,,,,,,,,,,,,,
0.0,1.0,0.917,0.0,18.0,18.0,18.0,1.0,sunglasses_11s.jpg,0.0,Blue.png,4.0,101,,,,,,,,,,,,,,,,,
1.0,1.0,1.686,0.0,19.0,19.0,19.0,1.0,sunglasses_11s.jpg,1.0,Purple.png,4.0,101,,,,,,,,,,,,,,,,,
0.0,1.0,0.92,0.0,20.0,20.0,20.0,1.0,radiator_05s.jpg,0.0,Red.png,4.0,101,,,,,,,,,,,,,,,,,
1.0,1.0,1.131,0.0,21.0,21.0,21.0,1.0,radiator_05s.jpg,1.0,Orange.png,4.0,101,,,,,,,,,,,,,,,,,
1.0,1.0,0.898,0.0,22.0,22.0,22.0,1.0,sunglasses_11s.jpg,1.0,Yellow.png,4.0,101,,,,,,,,,,,,,,,,,
1.0,1.0,1.335,0.0,23.0,23.0,23.0,1.0,radiator_05s.jpg,1.0,Green.png,4.0,101,,,,,,,,,,,,,,,,,
0.0,1.0,0.905,0.0,24.0,24.0,24.0,1.0,stump_02s.jpg,0.0,Blue.png,5.0,101,,,,,,,,,,,,,,,,,
0.0,1.0,1.417,0.0,25.0,25.0,25.0,1.0,jet_15s.jpg,0.0,Purple.png,5.0,101,,,,,,,,,,,,,,,,,
0.0,1.0,0.514,0.0,26.0,26.0,26.0,1.0,bubble_01b.jpg,0.0,Red.png,5.0,101,,,,,,,,,,,,,,,,,
0.0,1.0,0.523,0.0,27.0,27.0,27.0,1.0,footprint_11s.jpg,0.0,Orange.png,5.0,101,,,,,,,,,,,,,,,,,
0.0,1.0,0.613,0.0,28.0,28.0,28.0,1.0,knitting_needle_04s.jpg,0.0,Yellow.png,5.0,101,,,,,,,,,,,,,,,,,
0.0,0.0,0.498,0.0,29.0,29.0,29.0,1.0,bubble_01b.jpg,1.0,Green.png,5.0,101,,,,,,,,,,,,,,,,,
0.0,1.0,1.386,0.0,30.0,30.0,30.0,1.0,lizard_10n.jpg,0.0,Blue.png,6.0,101,,,,,,,,,,,,,,,,,
0.0,1.0,1.391,0.0,31.0,31.0,31.0,1.0,bubble_01b.jpg,0.0,Purple.png,6.0,101,,,,,,,,,,,,,,,,,
0.0,1.0,1.281,0.0,32.0,32.0,32.0,1.0,frame_06s.jpg,0.0,Red.png,6.0,101,,,,,,,,,,,,,,,,,
0.0,1.0,0.79,0.0,33.0,33.0,33.0,1.0,tube_top_03s.jpg,0.0,Orange.png,6.0,101,,,,,,,,,,,,,,,,,
0.0,0.0,1.971,0.0,34.0,34.0,34.0,1.0,bubble_01b.jpg,1.0,Yellow.png,6.0,101,,,,,,,,,,,,,,,,,
1.0,1.0,0.9,0.0,35.0,35.0,35.0,1.0,bubble_01b.jpg,1.0,Green.png,6.0,101,,,,,,,,,,,,,,,,,
,,,,,,,,,0.0,,,101,0.0,1.0,2.527,0.0,0.0,0.0,0.0,1.0,powder_07s.jpg,peanut_butter_08s.jpg,,,,,,,
,,,,,,,,,0.0,,,101,0.0,1.0,2.305,0.0,1.0,1.0,1.0,1.0,ivy_12s.jpg,popsicle_02s.jpg,,,,,,,
,,,,,,,,,0.0,,,101,1.0,0.0,1.114,0.0,2.0,2.0,2.0,1.0,megaphone_03s.jpg,lamppost_09s.jpg,,,,,,,
,,,,,,,,,0.0,,,101,0.0,1.0,1.316,0.0,3.0,3.0,3.0,1.0,footprint_11s.jpg,stump_02s.jpg,,,,,,,
,,,,,,,,,1.0,,,101,1.0,1.0,1.792,0.0,4.0,4.0,4.0,1.0,jet_15s.jpg,knitting_needle_04s.jpg,,,,,,,
,,,,,,,,,1.0,,,101,1.0,1.0,1.55,0.0,5.0,5.0,5.0,1.0,air_pump_05s.jpg,timer_03s.jpg,,,,,,,
,,,,,,,,,,,,101,,,,,,,,,,,0.0,0.0,0.0,0.0,1.0,newclockpresent_1_3.xlsx,newclock_compare_task_1_3.xlsx
0.0,1.0,1.357,0.0,0.0,0.0,0.0,1.0,mirror_12s.jpg,0.0,Blue.png,1.0,101,,,,,,,,,,,,,,,,,
0.0,1.0,0.799,0.0,1.0,1.0,1.0,1.0,rake_06s.jpg,0.0,Purple.png,1.0,101,,,,,,,,,,,,,,,,,
0.0,1.0,0.647,0.0,2.0,2.0,2.0,1.0,rhubarb_03s.jpg,0.0,Red.png,1.0,101,,,,,,,,,,,,,,,,,
0.0,0.0,0.6,0.0,3.0,3.0,3.0,1.0,mirror_12s.jpg,1.0,Orange.png,1.0,101,,,,,,,,,,,,,,,,,
0.0,1.0,0.688,0.0,4.0,4.0,4.0,1.0,tomato_sauce_09s.jpg,0.0,Yellow.png,1.0,101,,,,,,,,,,,,,,,,,
1.0,1.0,1.851,0.0,5.0,5.0,5.0,1.0,mirror_12s.jpg,1.0,Green.png,1.0,101,,,,,,,,,,,,,,,,,
0.0,1.0,0.935,0.0,6.0,6.0,6.0,1.0,medal_04s.jpg,0.0,Blue.png,2.0,101,,,,,,,,,,,,,,,,,
0.0,1.0,1.096,0.0,7.0,7.0,7.0,1.0,fountain_pen_06s.jpg,0.0,Purple.png,2.0,101,,,,,,,,,,,,,,,,,
0.0,1.0,0.704,0.0,8.0,8.0,8.0,1.0,rudder_02s.jpg,0.0,Red.png,2.0,101,,,,,,,,,,,,,,,,,
1.0,1.0,0.721,0.0,9.0,9.0,9.0,1.0,fountain_pen_06s.jpg,1.0,Orange.png,2.0,101,,,,,,,,,,,,,,,,,
1.0,1.0,0.88,0.0,10.0,10.0,10.0,1.0,medal_04s.jpg,1.0,Yellow.png,2.0,101,,,,,,,,,,,,,,,,,
0.0,1.0,0.957,0.0,11.0,11.0,11.0,1.0,owl_15s.jpg,0.0,Green.png,2.0,101,,,,,,,,,,,,,,,,,
0.0,1.0,0.598,0.0,12.0,12.0,12.0,1.0,swan_11s.jpg,0.0,Blue.png,3.0,101,,,,,,,,,,,,,,,,,
0.0,1.0,0.629,0.0,13.0,13.0,13.0,1.0,penguin_16s.jpg,0.0,Purple.png,3.0,101,,,,,,,,,,,,,,,,,
0.0,1.0,0.636,0.0,14.0,14.0,14.0,1.0,piano_13n.jpg,0.0,Red.png,3.0,101,,,,,,,,,,,,,,,,,
1.0,1.0,1.104,0.0,15.0,15.0,15.0,1.0,penguin_16s.jpg,1.0,Orange.png,3.0,101,,,,,,,,,,,,,,,,,
0.0,1.0,0.614,0.0,16.0,16.0,16.0,1.0,feather02.jpg,0.0,Yellow.png,3.0,101,,,,,,,,,,,,,,,,,
0.0,1.0,0.788,0.0,17.0,17.0,17.0,1.0,boar_10s.jpg,0.0,Green.png,3.0,101,,,,,,,,,,,,,,,,,
0.0,1.0,0.564,0.0,18.0,18.0,18.0,1.0,keyboard_05s.jpg,0.0,Blue.png,4.0,101,,,,,,,,,,,,,,,,,
0.0,1.0,1.241,0.0,19.0,19.0,19.0,1.0,gas_mask_11s.jpg,0.0,Purple.png,4.0,101,,,,,,,,,,,,,,,,,
0.0,1.0,0.985,0.0,20.0,20.0,20.0,1.0,pocketknife_12s.jpg,0.0,Red.png,4.0,101,,,,,,,,,,,,,,,,,
0.0,0.0,1.942,0.0,21.0,21.0,21.0,1.0,keyboard_05s.jpg,1.0,Orange.png,4.0,101,,,,,,,,,,,,,,,,,
0.0,1.0,0.815,0.0,22.0,22.0,22.0,1.0,roulette_wheel_04s.jpg,0.0,Yellow.png,4.0,101,,,,,,,,,,,,,,,,,
1.0,1.0,0.596,0.0,23.0,23.0,23.0,1.0,roulette_wheel_04s.jpg,1.0,Green.png,4.0,101,,,,,,,,,,,,,,,,,
1.0,0.0,0.655,0.0,24.0,24.0,24.0,1.0,keyboard_05s.jpg,0.0,Blue.png,5.0,101,,,,,,,,,,,,,,,,,
0.0,1.0,1.172,0.0,25.0,25.0,25.0,1.0,roulette_wheel_04s.jpg,0.0,Purple.png,5.0,101,,,,,,,,,,,,,,,,,
0.0,1.0,0.756,0.0,26.0,26.0,26.0,1.0,limousine_12s.jpg,0.0,Red.png,5.0,101,,,,,,,,,,,,,,,,,
0.0,1.0,0.683,0.0,27.0,27.0,27.0,1.0,tape_06s.jpg,0.0,Orange.png,5.0,101,,,,,,,,,,,,,,,,,
0.0,1.0,1.167,0.0,28.0,28.0,28.0,1.0,quesadilla_07s.jpg,0.0,Yellow.png,5.0,101,,,,,,,,,,,,,,,,,
0.0,1.0,1.102,0.0,29.0,29.0,29.0,1.0,breadstick_08s.jpg,0.0,Green.png,5.0,101,,,,,,,,,,,,,,,,,
0.0,1.0,0.567,0.0,30.0,30.0,30.0,1.0,sundae_08s.jpg,0.0,Blue.png,6.0,101,,,,,,,,,,,,,,,,,
0.0,1.0,0.646,0.0,31.0,31.0,31.0,1.0,sushi_08s.jpg,0.0,Purple.png,6.0,101,,,,,,,,,,,,,,,,,
0.0,1.0,0.747,0.0,32.0,32.0,32.0,1.0,abacus_12s.jpg,0.0,Red.png,6.0,101,,,,,,,,,,,,,,,,,
0.0,1.0,0.513,0.0,33.0,33.0,33.0,1.0,peppermint_07s.jpg,0.0,Orange.png,6.0,101,,,,,,,,,,,,,,,,,
0.0,1.0,0.783,0.0,34.0,34.0,34.0,1.0,marshmallow_08s.jpg,0.0,Yellow.png,6.0,101,,,,,,,,,,,,,,,,,
1.0,1.0,1.33,0.0,35.0,35.0,35.0,1.0,sundae_08s.jpg,1.0,Green.png,6.0,101,,,,,,,,,,,,,,,,,
,,,,,,,,,1.0,,,101,1.0,1.0,1.977,0.0,0.0,0.0,0.0,1.0,rudder_02s.jpg,owl_15s.jpg,,,,,,,
,,,,,,,,,1.0,,,101,0.0,0.0,1.391,0.0,1.0,1.0,1.0,1.0,boar_10s.jpg,pocketknife_12s.jpg,,,,,,,
,,,,,,,,,1.0,,,101,1.0,1.0,1.521,0.0,2.0,2.0,2.0,1.0,limousine_12s.jpg,breadstick_08s.jpg,,,,,,,
,,,,,,,,,0.0,,,101,1.0,0.0,1.782,0.0,3.0,3.0,3.0,1.0,sushi_08s.jpg,quesadilla_07s.jpg,,,,,,,
,,,,,,,,,1.0,,,101,0.0,0.0,1.137,0.0,4.0,4.0,4.0,1.0,feather02.jpg,gas_mask_11s.jpg,,,,,,,
,,,,,,,,,0.0,,,101,1.0,0.0,0.899,0.0,5.0,5.0,5.0,1.0,tomato_sauce_09s.jpg,rake_06s.jpg,,,,,,,
,,,,,,,,,,,,101,,,,,,,,,,,0.0,1.0,1.0,1.0,1.0,newclockpresent_2_3.xlsx,newclock_compare_task_2_3.xlsx
0.0,1.0,1.645,0.0,0.0,0.0,0.0,1.0,lip_gloss_06s.jpg,0.0,Blue.png,1.0,101,,,,,,,,,,,,,,,,,
1.0,1.0,0.83,0.0,1.0,1.0,1.0,1.0,lip_gloss_06s.jpg,1.0,Purple.png,1.0,101,,,,,,,,,,,,,,,,,
0.0,1.0,1.19,0.0,2.0,2.0,2.0,1.0,memory_stick_11s.jpg,0.0,Red.png,1.0,101,,,,,,,,,,,,,,,,,
0.0,1.0,0.851,0.0,3.0,3.0,3.0,1.0,torch_02s.jpg,0.0,Orange.png,1.0,101,,,,,,,,,,,,,,,,,
1.0,1.0,1.242,0.0,4.0,4.0,4.0,1.0,lip_gloss_06s.jpg,1.0,Yellow.png,1.0,101,,,,,,,,,,,,,,,,,
0.0,1.0,0.659,0.0,5.0,5.0,5.0,1.0,triangle_10s.jpg,0.0,Green.png,1.0,101,,,,,,,,,,,,,,,,,
1.0,0.0,0.724,0.0,6.0,6.0,6.0,1.0,lip_gloss_06s.jpg,0.0,Blue.png,2.0,101,,,,,,,,,,,,,,,,,
1.0,1.0,1.189,0.0,7.0,7.0,7.0,1.0,lip_gloss_06s.jpg,1.0,Purple.png,2.0,101,,,,,,,,,,,,,,,,,
0.0,1.0,0.947,0.0,8.0,8.0,8.0,1.0,prism_10s.jpg,0.0,Red.png,2.0,101,,,,,,,,,,,,,,,,,
0.0,1.0,0.946,0.0,9.0,9.0,9.0,1.0,soccer_ball_12s.jpg,0.0,Orange.png,2.0,101,,,,,,,,,,,,,,,,,
1.0,1.0,1.245,0.0,10.0,10.0,10.0,1.0,lip_gloss_06s.jpg,1.0,Yellow.png,2.0,101,,,,,,,,,,,,,,,,,
0.0,1.0,1.309,0.0,11.0,11.0,11.0,1.0,petri_dish_12s.jpg,0.0,Green.png,2.0,101,,,,,,,,,,,,,,,,,
0.0,1.0,0.948,0.0,12.0,12.0,12.0,1.0,crystal_ball_12s.jpg,0.0,Blue.png,3.0,101,,,,,,,,,,,,,,,,,
0.0,1.0,0.88,0.0,13.0,13.0,13.0,1.0,trampoline_13s.jpg,0.0,Purple.png,3.0,101,,,,,,,,,,,,,,,,,
0.0,1.0,0.674,0.0,14.0,14.0,14.0,1.0,joystick_01b.jpg,0.0,Red.png,3.0,101,,,,,,,,,,,,,,,,,
1.0,1.0,1.863,0.0,15.0,15.0,15.0,1.0,trampoline_13s.jpg,1.0,Orange.png,3.0,101,,,,,,,,,,,,,,,,,
0.0,1.0,0.738,0.0,16.0,16.0,16.0,1.0,sparkler_02s.jpg,0.0,Yellow.png,3.0,101,,,,,,,,,,,,,,,,,
0.0,1.0,0.755,0.0,17.0,17.0,17.0,1.0,kayak_08s.jpg,0.0,Green.png,3.0,101,,,,,,,,,,,,,,,,,
0.0,1.0,0.62,0.0,18.0,18.0,18.0,1.0,foam_03s.jpg,0.0,Blue.png,4.0,101,,,,,,,,,,,,,,,,,
0.0,1.0,0.599,0.0,19.0,19.0,19.0,1.0,dirt_bike_11s.jpg,0.0,Purple.png,4.0,101,,,,,,,,,,,,,,,,,
0.0,1.0,0.502,0.0,20.0,20.0,20.0,1.0,tortilla_06s.jpg,0.0,Red.png,4.0,101,,,,,,,,,,,,,,,,,
1.0,1.0,0.701,0.0,21.0,21.0,21.0,1.0,dirt_bike_11s.jpg,1.0,Orange.png,4.0,101,,,,,,,,,,,,,,,,,
0.0,1.0,0.992,0.0,22.0,22.0,22.0,1.0,otter_05s.jpg,0.0,Yellow.png,4.0,101,,,,,,,,,,,,,,,,,
0.0,1.0,0.548,0.0,23.0,23.0,23.0,1.0,playpen_11s.jpg,0.0,Green.png,4.0,101,,,,,,,,,,,,,,,,,
0.0,1.0,0.58,0.0,24.0,24.0,24.0,1.0,pear_02s.jpg,0.0,Blue.png,5.0,101,,,,,,,,,,,,,,,,,
0.0,1.0,0.597,0.0,25.0,25.0,25.0,1.0,omelet_07s.jpg,0.0,Purple.png,5.0,101,,,,,,,,,,,,,,,,,
0.0,1.0,0.557,0.0,26.0,26.0,26.0,1.0,camcorder_10s.jpg,0.0,Red.png,5.0,101,,,,,,,,,,,,,,,,,
1.0,1.0,0.868,0.0,27.0,27.0,27.0,1.0,omelet_07s.jpg,1.0,Orange.png,5.0,101,,,,,,,,,,,,,,,,,
0.0,1.0,0.747,0.0,28.0,28.0,28.0,1.0,possum_09s.jpg,0.0,Yellow.png,5.0,101,,,,,,,,,,,,,,,,,
1.0,1.0,0.797,0.0,29.0,29.0,29.0,1.0,omelet_07s.jpg,1.0,Green.png,5.0,101,,,,,,,,,,,,,,,,,
0.0,1.0,0.867,0.0,30.0,30.0,30.0,1.0,plaster_cast_13s.jpg,0.0,Blue.png,6.0,101,,,,,,,,,,,,,,,,,
0.0,1.0,0.514,0.0,31.0,31.0,31.0,1.0,ram_05s.jpg,0.0,Purple.png,6.0,101,,,,,,,,,,,,,,,,,
0.0,1.0,0.621,0.0,32.0,32.0,32.0,1.0,plug_08s.jpg,0.0,Red.png,6.0,101,,,,,,,,,,,,,,,,,
0.0,0.0,0.587,0.0,33.0,33.0,33.0,1.0,plaster_cast_13s.jpg,1.0,Orange.png,6.0,101,,,,,,,,,,,,,,,,,
0.0,1.0,0.733,0.0,34.0,34.0,34.0,1.0,lavender_10s.jpg,0.0,Yellow.png,6.0,101,,,,,,,,,,,,,,,,,
1.0,1.0,1.184,0.0,35.0,35.0,35.0,1.0,plug_08s.jpg,1.0,Green.png,6.0,101,,,,,,,,,,,,,,,,,
,,,,,,,,,1.0,,,101,1.0,1.0,1.728,0.0,0.0,0.0,0.0,1.0,playpen_11s.jpg,camcorder_10s.jpg,,,,,,,
,,,,,,,,,0.0,,,101,1.0,0.0,1.938,0.0,1.0,1.0,1.0,1.0,kayak_08s.jpg,joystick_01b.jpg,,,,,,,
,,,,,,,,,1.0,,,101,0.0,0.0,1.24,0.0,2.0,2.0,2.0,1.0,possum_09s.jpg,ram_05s.jpg,,,,,,,
,,,,,,,,,1.0,,,101,1.0,1.0,1.015,0.0,3.0,3.0,3.0,1.0,soccer_ball_12s.jpg,crystal_ball_12s.jpg,,,,,,,
,,,,,,,,,1.0,,,101,1.0,1.0,1.215,0.0,4.0,4.0,4.0,1.0,memory_stick_11s.jpg,triangle_10s.jpg,,,,,,,
,,,,,,,,,0.0,,,101,0.0,1.0,2.484,0.0,5.0,5.0,5.0,1.0,petri_dish_12s.jpg,prism_10s.jpg,,,,,,,
,,,,,,,,,,,,101,,,,,,,,,,,0.0,2.0,2.0,2.0,1.0,newclockpresent_3_3.xlsx,newclock_compare_task_3_3.xlsx
0.0,1.0,1.426,0.0,0.0,0.0,0.0,1.0,towel_rack_04s.jpg,0.0,Blue.png,1.0,101,,,,,,,,,,,,,,,,,
0.0,1.0,0.762,0.0,1.0,1.0,1.0,1.0,iron_13s.jpg,0.0,Purple.png,1.0,101,,,,,,,,,,,,,,,,,
1.0,1.0,0.746,0.0,2.0,2.0,2.0,1.0,iron_13s.jpg,1.0,Red.png,1.0,101,,,,,,,,,,,,,,,,,
0.0,1.0,0.775,0.0,3.0,3.0,3.0,1.0,icemaker_10s.jpg,0.0,Orange.png,1.0,101,,,,,,,,,,,,,,,,,
0.0,1.0,0.707,0.0,4.0,4.0,4.0,1.0,teacup_07s.jpg,0.0,Yellow.png,1.0,101,,,,,,,,,,,,,,,,,
1.0,1.0,0.735,0.0,5.0,5.0,5.0,1.0,iron_13s.jpg,1.0,Green.png,1.0,101,,,,,,,,,,,,,,,,,
1.0,0.0,0.791,0.0,6.0,6.0,6.0,1.0,teacup_07s.jpg,0.0,Blue.png,2.0,101,,,,,,,,,,,,,,,,,
0.0,1.0,1.34,0.0,7.0,7.0,7.0,1.0,iron_13s.jpg,0.0,Purple.png,2.0,101,,,,,,,,,,,,,,,,,
0.0,0.0,1.059,0.0,8.0,8.0,8.0,1.0,teacup_07s.jpg,1.0,Red.png,2.0,101,,,,,,,,,,,,,,,,,
0.0,1.0,0.9,0.0,9.0,9.0,9.0,1.0,pincushion_10s.jpg,0.0,Orange.png,2.0,101,,,,,,,,,,,,,,,,,
1.0,1.0,0.76,0.0,10.0,10.0,10.0,1.0,teacup_07s.jpg,1.0,Yellow.png,2.0,101,,,,,,,,,,,,,,,,,
0.0,1.0,0.614,0.0,11.0,11.0,11.0,1.0,lamb_04s.jpg,0.0,Green.png,2.0,101,,,,,,,,,,,,,,,,,
0.0,1.0,0.647,0.0,12.0,12.0,12.0,1.0,blowfish_03s.jpg,0.0,Blue.png,3.0,101,,,,,,,,,,,,,,,,,
0.0,1.0,0.452,0.0,13.0,13.0,13.0,1.0,gear_07s.jpg,0.0,Purple.png,3.0,101,,,,,,,,,,,,,,,,,
0.0,1.0,0.518,0.0,14.0,14.0,14.0,1.0,rug_09s.jpg,0.0,Red.png,3.0,101,,,,,,,,,,,,,,,,,
0.0,0.0,1.038,0.0,15.0,15.0,15.0,1.0,gear_07s.jpg,1.0,Orange.png,3.0,101,,,,,,,,,,,,,,,,,
0.0,1.0,0.547,0.0,16.0,16.0,16.0,1.0,binder_21s.jpg,0.0,Yellow.png,3.0,101,,,,,,,,,,,,,,,,,
0.0,1.0,0.552,0.0,17.0,17.0,17.0,1.0,bacon_05s.jpg,0.0,Green.png,3.0,101,,,,,,,,,,,,,,,,,
0.0,1.0,0.989,0.0,18.0,18.0,18.0,1.0,rocking_horse_03s.jpg,0.0,Blue.png,4.0,101,,,,,,,,,,,,,,,,,
0.0,1.0,1.235,0.0,19.0,19.0,19.0,1.0,bacon_05s.jpg,0.0,Purple.png,4.0,101,,,,,,,,,,,,,,,,,
0.0,1.0,0.547,0.0,20.0,20.0,20.0,1.0,perfume_06s.jpg,0.0,Red.png,4.0,101,,,,,,,,,,,,,,,,,
0.0,1.0,0.692,0.0,21.0,21.0,21.0,1.0,raccoon_02s.jpg,0.0,Orange.png,4.0,101,,,,,,,,,,,,,,,,,
0.0,1.0,0.612,0.0,22.0,22.0,22.0,1.0,mixer_12s.jpg,0.0,Yellow.png,4.0,101,,,,,,,,,,,,,,,,,
0.0,1.0,0.593,0.0,23.0,23.0,23.0,1.0,slingshot_07s.jpg,0.0,Green.png,4.0,101,,,,,,,,,,,,,,,,,
0.0,1.0,0.891,0.0,24.0,24.0,24.0,1.0,smokingpipe.jpg,0.0,Blue.png,5.0,101,,,,,,,,,,,,,,,,,
0.0,1.0,0.504,0.0,25.0,25.0,25.0,1.0,film_03s.jpg,0.0,Purple.png,5.0,101,,,,,,,,,,,,,,,,,
1.0,1.0,0.868,0.0,26.0,26.0,26.0,1.0,film_03s.jpg,1.0,Red.png,5.0,101,,,,,,,,,,,,,,,,,
1.0,1.0,0.701,0.0,27.0,27.0,27.0,1.0,film_03s.jpg,1.0,Orange.png,5.0,101,,,,,,,,,,,,,,,,,
1.0,1.0,0.665,0.0,28.0,28.0,28.0,1.0,film_03s.jpg,1.0,Yellow.png,5.0,101,,,,,,,,,,,,,,,,,
0.0,1.0,0.555,0.0,29.0,29.0,29.0,1.0,insole_11s.jpg,0.0,Green.png,5.0,101,,,,,,,,,,,,,,,,,
0.0,1.0,0.555,0.0,30.0,30.0,30.0,1.0,soda_fountain_03s.jpg,0.0,Blue.png,6.0,101,,,,,,,,,,,,,,,,,
1.0,1.0,0.672,0.0,31.0,31.0,31.0,1.0,soda_fountain_03s.jpg,1.0,Purple.png,6.0,101,,,,,,,,,,,,,,,,,
0.0,1.0,0.713,0.0,32.0,32.0,32.0,1.0,coconut_08s.jpg,0.0,Red.png,6.0,101,,,,,,,,,,,,,,,,,
0.0,1.0,0.431,0.0,33.0,33.0,33.0,1.0,hydrant_10s.jpg,0.0,Orange.png,6.0,101,,,,,,,,,,,,,,,,,
1.0,1.0,0.667,0.0,34.0,34.0,34.0,1.0,hydrant_10s.jpg,1.0,Yellow.png,6.0,101,,,,,,,,,,,,,,,,,
1.0,1.0,1.481,0.0,35.0,35.0,35.0,1.0,hydrant_10s.jpg,1.0,Green.png,6.0,101,,,,,,,,,,,,,,,,,
,,,,,,,,,0.0,,,101,1.0,0.0,2.548,0.0,0.0,0.0,0.0,1.0,slingshot_07s.jpg,perfume_06s.jpg,,,,,,,
,,,,,,,,,0.0,,,101,0.0,1.0,1.36,0.0,1.0,1.0,1.0,1.0,blowfish_03s.jpg,pincushion_10s.jpg,,,,,,,
,,,,,,,,,0.0,,,101,1.0,0.0,1.604,0.0,2.0,2.0,2.0,1.0,rug_09s.jpg,lamb_04s.jpg,,,,,,,
,,,,,,,,,1.0,,,101,0.0,0.0,1.335,0.0,3.0,3.0,3.0,1.0,insole_11s.jpg,coconut_08s.jpg,,,,,,,
,,,,,,,,,0.0,,,101,0.0,1.0,2.058,0.0,4.0,4.0,4.0,1.0,icemaker_10s.jpg,towel_rack_04s.jpg,,,,,,,
,,,,,,,,,0.0,,,101,0.0,1.0,1.693,0.0,5.0,5.0,5.0,1.0,raccoon_02s.jpg,rocking_horse_03s.jpg,,,,,,,
,,,,,,,,,,,,101,,,,,,,,,,,0.0,3.0,3.0,3.0,1.0,newclockpresent_4_3.xlsx,newclock_compare_task_4_3.xlsx
0.0,1.0,0.681,0.0,0.0,0.0,0.0,1.0,birthday_cake_09s.jpg,0.0,Blue.png,1.0,101,,,,,,,,,,,,,,,,,
0.0,1.0,1.199,0.0,1.0,1.0,1.0,1.0,laser_pointer_02s.jpg,0.0,Purple.png,1.0,101,,,,,,,,,,,,,,,,,
0.0,1.0,0.591,0.0,2.0,2.0,2.0,1.0,amber_04s.jpg,0.0,Red.png,1.0,101,,,,,,,,,,,,,,,,,
1.0,1.0,0.614,0.0,3.0,3.0,3.0,1.0,amber_04s.jpg,1.0,Orange.png,1.0,101,,,,,,,,,,,,,,,,,
1.0,1.0,0.753,0.0,4.0,4.0,4.0,1.0,amber_04s.jpg,1.0,Yellow.png,1.0,101,,,,,,,,,,,,,,,,,
1.0,1.0,0.701,0.0,5.0,5.0,5.0,1.0,amber_04s.jpg,1.0,Green.png,1.0,101,,,,,,,,,,,,,,,,,
0.0,1.0,1.004,0.0,6.0,6.0,6.0,1.0,mask_09s.jpg,0.0,Blue.png,2.0,101,,,,,,,,,,,,,,,,,
1.0,1.0,0.641,0.0,7.0,7.0,7.0,1.0,mask_09s.jpg,1.0,Purple.png,2.0,101,,,,,,,,,,,,,,,,,
0.0,1.0,1.389,0.0,8.0,8.0,8.0,1.0,amber_04s.jpg,0.0,Red.png,2.0,101,,,,,,,,,,,,,,,,,
0.0,1.0,1.306,0.0,9.0,9.0,9.0,1.0,swordfish_05s.jpg,0.0,Orange.png,2.0,101,,,,,,,,,,,,,,,,,
0.0,1.0,0.836,0.0,10.0,10.0,10.0,1.0,beard_16s.jpg,0.0,Yellow.png,2.0,101,,,,,,,,,,,,,,,,,
0.0,0.0,0.507,0.0,11.0,11.0,11.0,1.0,swordfish_05s.jpg,1.0,Green.png,2.0,101,,,,,,,,,,,,,,,,,
0.0,1.0,1.831,0.0,12.0,12.0,12.0,1.0,amber_04s.jpg,0.0,Blue.png,3.0,101,,,,,,,,,,,,,,,,,
0.0,1.0,0.924,0.0,13.0,13.0,13.0,1.0,rope_16s.jpg,0.0,Purple.png,3.0,101,,,,,,,,,,,,,,,,,
0.0,1.0,0.82,0.0,14.0,14.0,14.0,1.0,swing_set_15s.jpg,0.0,Red.png,3.0,101,,,,,,,,,,,,,,,,,
0.0,1.0,0.496,0.0,15.0,15.0,15.0,1.0,totem_pole_05s.jpg,0.0,Orange.png,3.0,101,,,,,,,,,,,,,,,,,
0.0,1.0,0.505,0.0,16.0,16.0,16.0,1.0,beaker_01b.jpg,0.0,Yellow.png,3.0,101,,,,,,,,,,,,,,,,,
0.0,1.0,0.547,0.0,17.0,17.0,17.0,1.0,ostrich_06s.jpg,0.0,Green.png,3.0,101,,,,,,,,,,,,,,,,,
1.0,0.0,0.68,0.0,18.0,18.0,18.0,1.0,ostrich_06s.jpg,0.0,Blue.png,4.0,101,,,,,,,,,,,,,,,,,
0.0,1.0,0.88,0.0,19.0,19.0,19.0,1.0,syringe_02s.jpg,0.0,Purple.png,4.0,101,,,,,,,,,,,,,,,,,
0.0,1.0,1.147,0.0,20.0,20.0,20.0,1.0,mold2_04s.jpg,0.0,Red.png,4.0,101,,,,,,,,,,,,,,,,,
0.0,0.0,1.037,0.0,21.0,21.0,21.0,1.0,ostrich_06s.jpg,1.0,Orange.png,4.0,101,,,,,,,,,,,,,,,,,
0.0,1.0,0.636,0.0,22.0,22.0,22.0,1.0,mousetrap_15n.jpg,0.0,Yellow.png,4.0,101,,,,,,,,,,,,,,,,,
0.0,1.0,0.654,0.0,23.0,23.0,23.0,1.0,paper_towel_03s.jpg,0.0,Green.png,4.0,101,,,,,,,,,,,,,,,,,
0.0,1.0,1.069,0.0,24.0,24.0,24.0,1.0,swordfish_05s.jpg,0.0,Blue.png,5.0,101,,,,,,,,,,,,,,,,,
0.0,1.0,0.53,0.0,25.0,25.0,25.0,1.0,pump_11s.jpg,0.0,Purple.png,5.0,101,,,,,,,,,,,,,,,,,
1.0,1.0,0.67,0.0,26.0,26.0,26.0,1.0,swordfish_05s.jpg,1.0,Red.png,5.0,101,,,,,,,,,,,,,,,,,
1.0,1.0,0.739,0.0,27.0,27.0,27.0,1.0,swordfish_05s.jpg,1.0,Orange.png,5.0,101,,,,,,,,,,,,,,,,,
0.0,0.0,0.807,0.0,28.0,28.0,28.0,1.0,pump_11s.jpg,1.0,Yellow.png,5.0,101,,,,,,,,,,,,,,,,,
0.0,1.0,0.669,0.0,29.0,29.0,29.0,1.0,pepper2_21s.jpg,0.0,Green.png,5.0,101,,,,,,,,,,,,,,,,,
0.0,1.0,0.58,0.0,30.0,30.0,30.0,1.0,champagne_18s.jpg,0.0,Blue.png,6.0,101,,,,,,,,,,,,,,,,,
0.0,1.0,0.531,0.0,31.0,31.0,31.0,1.0,piggy_bank_02s.jpg,0.0,Purple.png,6.0,101,,,,,,,,,,,,,,,,,
0.0,1.0,0.637,0.0,32.0,32.0,32.0,1.0,fondue_07s.jpg,0.0,Red.png,6.0,101,,,,,,,,,,,,,,,,,
0.0,1.0,0.749,0.0,33.0,33.0,33.0,1.0,metronome_03s.jpg,0.0,Orange.png,6.0,101,,,,,,,,,,,,,,,,,
0.0,1.0,0.562,0.0,34.0,34.0,34.0,1.0,butter_14s.jpg,0.0,Yellow.png,6.0,101,,,,,,,,,,,,,,,,,
0.0,1.0,0.519,0.0,35.0,35.0,35.0,1.0,submarine_11n.jpg,0.0,Green.png,6.0,101,,,,,,,,,,,,,,,,,
,,,,,,,,,1.0,,,101,1.0,1.0,1.753,0.0,0.0,0.0,0.0,1.0,beard_16s.jpg,rope_16s.jpg,,,,,,,
,,,,,,,,,0.0,,,101,1.0,0.0,1.822,0.0,1.0,1.0,1.0,1.0,fondue_07s.jpg,pepper2_21s.jpg,,,,,,,
,,,,,,,,,0.0,,,101,0.0,1.0,1.59,0.0,2.0,2.0,2.0,1.0,metronome_03s.jpg,champagne_18s.jpg,,,,,,,
,,,,,,,,,1.0,,,101,0.0,0.0,1.034,0.0,3.0,3.0,3.0,1.0,beaker_01b.jpg,syringe_02s.jpg,,,,,,,
,,,,,,,,,1.0,,,101,1.0,1.0,1.093,0.0,4.0,4.0,4.0,1.0,mold2_04s.jpg,paper_towel_03s.jpg,,,,,,,
,,,,,,,,,0.0,,,101,1.0,0.0,1.566,0.0,5.0,5.0,5.0,1.0,butter_14s.jpg,piggy_bank_02s.jpg,,,,,,,
,,,,,,,,,,,,101,,,,,,,,,,,0.0,4.0,4.0,4.0,1.0,newclockpresent_5_3.xlsx,newclock_compare_task_5_3.xlsx
0.0,1.0,0.586,0.0,0.0,0.0,0.0,1.0,teabag_12s.jpg,0.0,Blue.png,1.0,101,,,,,,,,,,,,,,,,,
1.0,1.0,0.664,0.0,1.0,1.0,1.0,1.0,teabag_12s.jpg,1.0,Purple.png,1.0,101,,,,,,,,,,,,,,,,,
0.0,1.0,0.562,0.0,2.0,2.0,2.0,1.0,cereal_04s.jpg,0.0,Red.png,1.0,101,,,,,,,,,,,,,,,,,
0.0,1.0,0.448,0.0,3.0,3.0,3.0,1.0,pocket_watch_16s.jpg,0.0,Orange.png,1.0,101,,,,,,,,,,,,,,,,,
0.0,1.0,0.581,0.0,4.0,4.0,4.0,1.0,cucumber_07s.jpg,0.0,Yellow.png,1.0,101,,,,,,,,,,,,,,,,,
1.0,1.0,0.782,0.0,5.0,5.0,5.0,1.0,teabag_12s.jpg,1.0,Green.png,1.0,101,,,,,,,,,,,,,,,,,
0.0,1.0,1.223,0.0,6.0,6.0,6.0,1.0,recliner_02s.jpg,0.0,Blue.png,2.0,101,,,,,,,,,,,,,,,,,
0.0,1.0,0.521,0.0,7.0,7.0,7.0,1.0,tupperware_09s.jpg,0.0,Purple.png,2.0,101,,,,,,,,,,,,,,,,,
0.0,1.0,0.673,0.0,8.0,8.0,8.0,1.0,ticktacktoe_08s.jpg,0.0,Red.png,2.0,101,,,,,,,,,,,,,,,,,
0.0,1.0,0.508,0.0,9.0,9.0,9.0,1.0,peach_04s.jpg,0.0,Orange.png,2.0,101,,,,,,,,,,,,,,,,,
0.0,1.0,0.506,0.0,10.0,10.0,10.0,1.0,taxi_15s.jpg,0.0,Yellow.png,2.0,101,,,,,,,,,,,,,,,,,
1.0,1.0,0.788,0.0,11.0,11.0,11.0,1.0,peach_04s.jpg,1.0,Green.png,2.0,101,,,,,,,,,,,,,,,,,
0.0,1.0,0.664,0.0,12.0,12.0,12.0,1.0,letter_opener_03s.jpg,0.0,Blue.png,3.0,101,,,,,,,,,,,,,,,,,
1.0,1.0,0.634,0.0,13.0,13.0,13.0,1.0,letter_opener_03s.jpg,1.0,Purple.png,3.0,101,,,,,,,,,,,,,,,,,
1.0,1.0,1.081,0.0,14.0,14.0,14.0,1.0,letter_opener_03s.jpg,1.0,Red.png,3.0,101,,,,,,,,,,,,,,,,,
0.0,1.0,0.717,0.0,15.0,15.0,15.0,1.0,latte_06s.jpg,0.0,Orange.png,3.0,101,,,,,,,,,,,,,,,,,
1.0,1.0,0.758,0.0,16.0,16.0,16.0,1.0,letter_opener_03s.jpg,1.0,Yellow.png,3.0,101,,,,,,,,,,,,,,,,,
0.0,1.0,0.55,0.0,17.0,17.0,17.0,1.0,icicle_04s.jpg,0.0,Green.png,3.0,101,,,,,,,,,,,,,,,,,
0.0,1.0,0.448,0.0,18.0,18.0,18.0,1.0,taxi_15s.jpg,0.0,Blue.png,4.0,101,,,,,,,,,,,,,,,,,
0.0,1.0,0.564,0.0,19.0,19.0,19.0,1.0,chopsticks_08s.jpg,0.0,Purple.png,4.0,101,,,,,,,,,,,,,,,,,
0.0,1.0,0.563,0.0,20.0,20.0,20.0,1.0,doily_13s.jpg,0.0,Red.png,4.0,101,,,,,,,,,,,,,,,,,
0.0,1.0,0.497,0.0,21.0,21.0,21.0,1.0,pretzel_09s.jpg,0.0,Orange.png,4.0,101,,,,,,,,,,,,,,,,,
0.0,1.0,0.781,0.0,22.0,22.0,22.0,1.0,tie_03s.jpg,0.0,Yellow.png,4.0,101,,,,,,,,,,,,,,,,,
0.0,1.0,0.646,0.0,23.0,23.0,23.0,1.0,pepper_mill_03s.jpg,0.0,Green.png,4.0,101,,,,,,,,,,,,,,,,,
0.0,1.0,0.457,0.0,24.0,24.0,24.0,1.0,bee_20s.jpg,0.0,Blue.png,5.0,101,,,,,,,,,,,,,,,,,
0.0,1.0,1.097,0.0,25.0,25.0,25.0,1.0,pepper_mill_03s.jpg,0.0,Purple.png,5.0,101,,,,,,,,,,,,,,,,,
1.0,1.0,0.653,0.0,26.0,26.0,26.0,1.0,bee_20s.jpg,1.0,Red.png,5.0,101,,,,,,,,,,,,,,,,,
0.0,1.0,0.756,0.0,27.0,27.0,27.0,1.0,tinsel_12s.jpg,0.0,Orange.png,5.0,101,,,,,,,,,,,,,,,,,
0.0,1.0,0.647,0.0,28.0,28.0,28.0,1.0,fireworks_18s.jpg,0.0,Yellow.png,5.0,101,,,,,,,,,,,,,,,,,
0.0,1.0,0.63,0.0,29.0,29.0,29.0,1.0,key_07s.jpg,0.0,Green.png,5.0,101,,,,,,,,,,,,,,,,,
0.0,1.0,0.515,0.0,30.0,30.0,30.0,1.0,frog_09s.jpg,0.0,Blue.png,6.0,101,,,,,,,,,,,,,,,,,
1.0,0.0,0.999,0.0,31.0,31.0,31.0,1.0,key_07s.jpg,0.0,Purple.png,6.0,101,,,,,,,,,,,,,,,,,
0.0,1.0,0.457,0.0,32.0,32.0,32.0,1.0,rolling_pin_02s.jpg,0.0,Red.png,6.0,101,,,,,,,,,,,,,,,,,
0.0,1.0,0.62,0.0,33.0,33.0,33.0,1.0,coral_08s.jpg,0.0,Orange.png,6.0,101,,,,,,,,,,,,,,,,,
1.0,1.0,1.019,0.0,34.0,34.0,34.0,1.0,key_07s.jpg,1.0,Yellow.png,6.0,101,,,,,,,,,,,,,,,,,
0.0,1.0,0.887,0.0,35.0,35.0,35.0,1.0,margarita_03s.jpg,0.0,Green.png,6.0,101,,,,,,,,,,,,,,,,,
,,,,,,,,,0.0,,,101,1.0,0.0,1.173,0.0,0.0,0.0,0.0,1.0,recliner_02s.jpg,pocket_watch_16s.jpg,,,,,,,
,,,,,,,,,0.0,,,101,1.0,0.0,1.603,0.0,1.0,1.0,1.0,1.0,tie_03s.jpg,chopsticks_08s.jpg,,,,,,,
,,,,,,,,,1.0,,,101,0.0,0.0,2.571,0.0,2.0,2.0,2.0,1.0,icicle_04s.jpg,doily_13s.jpg,,,,,,,
,,,,,,,,,1.0,,,101,1.0,1.0,1.943,0.0,3.0,3.0,3.0,1.0,rolling_pin_02s.jpg,margarita_03s.jpg,,,,,,,
,,,,,,,,,1.0,,,101,1.0,1.0,0.906,0.0,4.0,4.0,4.0,1.0,cucumber_07s.jpg,tupperware_09s.jpg,,,,,,,
,,,,,,,,,0.0,,,101,0.0,1.0,1.361,0.0,5.0,5.0,5.0,1.0,coral_08s.jpg,frog_09s.jpg,,,,,,,
,,,,,,,,,,,,101,,,,,,,,,,,0.0,5.0,5.0,5.0,1.0,newclockpresent_6_3.xlsx,newclock_compare_task_6_3.xlsx
0.0,1.0,0.577,0.0,0.0,0.0,0.0,1.0,polar_bear_02s.jpg,0.0,Blue.png,1.0,101,,,,,,,,,,,,,,,,,
0.0,1.0,0.465,0.0,1.0,1.0,1.0,1.0,screwdriver02a.jpg,0.0,Purple.png,1.0,101,,,,,,,,,,,,,,,,,
1.0,1.0,0.617,0.0,2.0,2.0,2.0,1.0,screwdriver02a.jpg,1.0,Red.png,1.0,101,,,,,,,,,,,,,,,,,
0.0,1.0,0.472,0.0,3.0,3.0,3.0,1.0,phone_01b.jpg,0.0,Orange.png,1.0,101,,,,,,,,,,,,,,,,,
0.0,1.0,0.6,0.0,4.0,4.0,4.0,1.0,eyedropper_12s.jpg,0.0,Yellow.png,1.0,101,,,,,,,,,,,,,,,,,
0.0,1.0,0.506,0.0,5.0,5.0,5.0,1.0,mailbox_11s.jpg,0.0,Green.png,1.0,101,,,,,,,,,,,,,,,,,
0.0,1.0,0.468,0.0,6.0,6.0,6.0,1.0,mascara_03s.jpg,0.0,Blue.png,2.0,101,,,,,,,,,,,,,,,,,
1.0,0.0,1.281,0.0,7.0,7.0,7.0,1.0,mailbox_11s.jpg,0.0,Purple.png,2.0,101,,,,,,,,,,,,,,,,,
0.0,1.0,0.82,0.0,8.0,8.0,8.0,1.0,eiffeltower.jpg,0.0,Red.png,2.0,101,,,,,,,,,,,,,,,,,
0.0,1.0,0.548,0.0,9.0,9.0,9.0,1.0,bagel_15s.jpg,0.0,Orange.png,2.0,101,,,,,,,,,,,,,,,,,
0.0,1.0,0.68,0.0,10.0,10.0,10.0,1.0,thumbtack_14s.jpg,0.0,Yellow.png,2.0,101,,,,,,,,,,,,,,,,,
0.0,1.0,0.607,0.0,11.0,11.0,11.0,1.0,checkbook_11s.jpg,0.0,Green.png,2.0,101,,,,,,,,,,,,,,,,,
0.0,1.0,1.32,0.0,12.0,12.0,12.0,1.0,phone_01b.jpg,0.0,Blue.png,3.0,101,,,,,,,,,,,,,,,,,
0.0,1.0,0.637,0.0,13.0,13.0,13.0,1.0,crossbow_10s.jpg,0.0,Purple.png,3.0,101,,,,,,,,,,,,,,,,,
0.0,1.0,0.463,0.0,14.0,14.0,14.0,1.0,fire_pit_10s.jpg,0.0,Red.png,3.0,101,,,,,,,,,,,,,,,,,
1.0,1.0,1.431,0.0,15.0,15.0,15.0,1.0,phone_01b.jpg,1.0,Orange.png,3.0,101,,,,,,,,,,,,,,,,,
0.0,1.0,0.684,0.0,16.0,16.0,16.0,1.0,basket_05s.jpg,0.0,Yellow.png,3.0,101,,,,,,,,,,,,,,,,,
0.0,1.0,0.646,0.0,17.0,17.0,17.0,1.0,tablet_04s.jpg,0.0,Green.png,3.0,101,,,,,,,,,,,,,,,,,
0.0,1.0,1.331,0.0,18.0,18.0,18.0,1.0,eyedropper_12s.jpg,0.0,Blue.png,4.0,101,,,,,,,,,,,,,,,,,
0.0,1.0,0.497,0.0,19.0,19.0,19.0,1.0,milk_02s.jpg,0.0,Purple.png,4.0,101,,,,,,,,,,,,,,,,,
0.0,1.0,0.47,0.0,20.0,20.0,20.0,1.0,pomegranate_04s.jpg,0.0,Red.png,4.0,101,,,,,,,,,,,,,,,,,
0.0,1.0,0.57,0.0,21.0,21.0,21.0,1.0,mug_06s.jpg,0.0,Orange.png,4.0,101,,,,,,,,,,,,,,,,,
1.0,1.0,1.42,0.0,22.0,22.0,22.0,1.0,eyedropper_12s.jpg,1.0,Yellow.png,4.0,101,,,,,,,,,,,,,,,,,
0.0,1.0,0.718,0.0,23.0,23.0,23.0,1.0,laundry_basket_11s.jpg,0.0,Green.png,4.0,101,,,,,,,,,,,,,,,,,
0.0,1.0,1.267,0.0,24.0,24.0,24.0,1.0,eyedropper_12s.jpg,0.0,Blue.png,5.0,101,,,,,,,,,,,,,,,,,
0.0,1.0,1.292,0.0,25.0,25.0,25.0,1.0,laundry_basket_11s.jpg,0.0,Purple.png,5.0,101,,,,,,,,,,,,,,,,,
0.0,1.0,0.582,0.0,26.0,26.0,26.0,1.0,magnet_03s.jpg,0.0,Red.png,5.0,101,,,,,,,,,,,,,,,,,
1.0,1.0,0.865,0.0,27.0,27.0,27.0,1.0,laundry_basket_11s.jpg,1.0,Orange.png,5.0,101,,,,,,,,,,,,,,,,,
1.0,1.0,0.703,0.0,28.0,28.0,28.0,1.0,laundry_basket_11s.jpg,1.0,Yellow.png,5.0,101,,,,,,,,,,,,,,,,,
0.0,1.0,0.597,0.0,29.0,29.0,29.0,1.0,tambourine_06s.jpg,0.0,Green.png,5.0,101,,,,,,,,,,,,,,,,,
0.0,1.0,0.696,0.0,30.0,30.0,30.0,1.0,lab_coat_11s.jpg,0.0,Blue.png,6.0,101,,,,,,,,,,,,,,,,,
0.0,0.0,0.582,0.0,31.0,31.0,31.0,1.0,lab_coat_11s.jpg,1.0,Purple.png,6.0,101,,,,,,,,,,,,,,,,,
1.0,1.0,0.664,0.0,32.0,32.0,32.0,1.0,lab_coat_11s.jpg,1.0,Red.png,6.0,101,,,,,,,,,,,,,,,,,
1.0,1.0,0.558,0.0,33.0,33.0,33.0,1.0,lab_coat_11s.jpg,1.0,Orange.png,6.0,101,,,,,,,,,,,,,,,,,
0.0,1.0,0.62,0.0,34.0,34.0,34.0,1.0,cap_05s.jpg,0.0,Yellow.png,6.0,101,,,,,,,,,,,,,,,,,
0.0,1.0,0.867,0.0,35.0,35.0,35.0,1.0,puck_06s.jpg,0.0,Green.png,6.0,101,,,,,,,,,,,,,,,,,
,,,,,,,,,1.0,,,101,1.0,1.0,1.337,0.0,0.0,0.0,0.0,1.0,mascara_03s.jpg,bagel_15s.jpg,,,,,,,
,,,,,,,,,0.0,,,101,1.0,0.0,3.086,0.0,1.0,1.0,1.0,1.0,checkbook_11s.jpg,eiffeltower.jpg,,,,,,,
,,,,,,,,,1.0,,,101,0.0,0.0,1.205,0.0,2.0,2.0,2.0,1.0,thumbtack_14s.jpg,crossbow_10s.jpg,,,,,,,
,,,,,,,,,0.0,,,101,0.0,1.0,1.615,0.0,3.0,3.0,3.0,1.0,milk_02s.jpg,basket_05s.jpg,,,,,,,
,,,,,,,,,1.0,,,101,0.0,0.0,1.516,0.0,4.0,4.0,4.0,1.0,tablet_04s.jpg,pomegranate_04s.jpg,,,,,,,
,,,,,,,,,0.0,,,101,1.0,0.0,2.145,0.0,5.0,5.0,5.0,1.0,tambourine_06s.jpg,magnet_03s.jpg,,,,,,,
,,,,,,,,,,,,101,,,,,,,,,,,0.0,6.0,6.0,6.0,1.0,newclockpresent_7_3.xlsx,newclock_compare_task_7_3.xlsx
0.0,1.0,0.774,0.0,0.0,0.0,0.0,1.0,projector_08s.jpg,0.0,Blue.png,1.0,101,,,,,,,,,,,,,,,,,
1.0,1.0,0.704,0.0,1.0,1.0,1.0,1.0,projector_08s.jpg,1.0,Purple.png,1.0,101,,,,,,,,,,,,,,,,,
1.0,1.0,1.153,0.0,2.0,2.0,2.0,1.0,projector_08s.jpg,1.0,Red.png,1.0,101,,,,,,,,,,,,,,,,,
0.0,1.0,0.687,0.0,3.0,3.0,3.0,1.0,pumpkin_03s.jpg,0.0,Orange.png,1.0,101,,,,,,,,,,,,,,,,,
0.0,1.0,0.649,0.0,4.0,4.0,4.0,1.0,orangutan_03s.jpg,0.0,Yellow.png,1.0,101,,,,,,,,,,,,,,,,,
1.0,1.0,1.066,0.0,5.0,5.0,5.0,1.0,projector_08s.jpg,1.0,Green.png,1.0,101,,,,,,,,,,,,,,,,,
0.0,1.0,1.197,0.0,6.0,6.0,6.0,1.0,rollerskate_03s.jpg,0.0,Blue.png,2.0,101,,,,,,,,,,,,,,,,,
0.0,1.0,1.624,0.0,7.0,7.0,7.0,1.0,projector_08s.jpg,0.0,Purple.png,2.0,101,,,,,,,,,,,,,,,,,
0.0,1.0,0.649,0.0,8.0,8.0,8.0,1.0,racehorse_03s.jpg,0.0,Red.png,2.0,101,,,,,,,,,,,,,,,,,
1.0,1.0,1.208,0.0,9.0,9.0,9.0,1.0,projector_08s.jpg,1.0,Orange.png,2.0,101,,,,,,,,,,,,,,,,,
0.0,1.0,0.864,0.0,10.0,10.0,10.0,1.0,toy_04s.jpg,0.0,Yellow.png,2.0,101,,,,,,,,,,,,,,,,,
1.0,1.0,0.875,0.0,11.0,11.0,11.0,1.0,projector_08s.jpg,1.0,Green.png,2.0,101,,,,,,,,,,,,,,,,,
1.0,0.0,0.713,0.0,12.0,12.0,12.0,1.0,toy_04s.jpg,0.0,Blue.png,3.0,101,,,,,,,,,,,,,,,,,
1.0,1.0,0.567,0.0,13.0,13.0,13.0,1.0,toy_04s.jpg,1.0,Purple.png,3.0,101,,,,,,,,,,,,,,,,,
0.0,1.0,0.824,0.0,14.0,14.0,14.0,1.0,loveseat_08s.jpg,0.0,Red.png,3.0,101,,,,,,,,,,,,,,,,,
1.0,1.0,0.808,0.0,15.0,15.0,15.0,1.0,toy_04s.jpg,1.0,Orange.png,3.0,101,,,,,,,,,,,,,,,,,
1.0,1.0,0.831,0.0,16.0,16.0,16.0,1.0,toy_04s.jpg,1.0,Yellow.png,3.0,101,,,,,,,,,,,,,,,,,
0.0,1.0,0.671,0.0,17.0,17.0,17.0,1.0,muffin_12n.jpg,0.0,Green.png,3.0,101,,,,,,,,,,,,,,,,,
0.0,1.0,0.65,0.0,18.0,18.0,18.0,1.0,oil_02s.jpg,0.0,Blue.png,4.0,101,,,,,,,,,,,,,,,,,
0.0,1.0,0.586,0.0,19.0,19.0,19.0,1.0,ring_03s.jpg,0.0,Purple.png,4.0,101,,,,,,,,,,,,,,,,,
0.0,0.0,0.498,0.0,20.0,20.0,20.0,1.0,ring_03s.jpg,1.0,Red.png,4.0,101,,,,,,,,,,,,,,,,,
0.0,1.0,0.48,0.0,21.0,21.0,21.0,1.0,harpoon.jpg,0.0,Orange.png,4.0,101,,,,,,,,,,,,,,,,,
0.0,1.0,0.546,0.0,22.0,22.0,22.0,1.0,swimming_pool_17s.jpg,0.0,Yellow.png,4.0,101,,,,,,,,,,,,,,,,,
0.0,1.0,0.639,0.0,23.0,23.0,23.0,1.0,ironing_board_07s.jpg,0.0,Green.png,4.0,101,,,,,,,,,,,,,,,,,
0.0,1.0,0.979,0.0,24.0,24.0,24.0,1.0,projector_08s.jpg,0.0,Blue.png,5.0,101,,,,,,,,,,,,,,,,,
0.0,1.0,0.541,0.0,25.0,25.0,25.0,1.0,rabbit_03s.jpg,0.0,Purple.png,5.0,101,,,,,,,,,,,,,,,,,
0.0,1.0,0.546,0.0,26.0,26.0,26.0,1.0,spacesuit_02s.jpg,0.0,Red.png,5.0,101,,,,,,,,,,,,,,,,,
0.0,1.0,0.648,0.0,27.0,27.0,27.0,1.0,toy_04s.jpg,0.0,Orange.png,5.0,101,,,,,,,,,,,,,,,,,
0.0,1.0,0.701,0.0,28.0,28.0,28.0,1.0,mannequin_05s.jpg,0.0,Yellow.png,5.0,101,,,,,,,,,,,,,,,,,
0.0,0.0,0.97,0.0,29.0,29.0,29.0,1.0,toy_04s.jpg,1.0,Green.png,5.0,101,,,,,,,,,,,,,,,,,
0.0,1.0,0.455,0.0,30.0,30.0,30.0,1.0,dashboard_02s.jpg,0.0,Blue.png,6.0,101,,,,,,,,,,,,,,,,,
0.0,1.0,0.865,0.0,31.0,31.0,31.0,1.0,exhaust_pipe_10s.jpg,0.0,Purple.png,6.0,101,,,,,,,,,,,,,,,,,
0.0,1.0,0.498,0.0,32.0,32.0,32.0,1.0,telephone_pole_05s.jpg,0.0,Red.png,6.0,101,,,,,,,,,,,,,,,,,
0.0,1.0,0.506,0.0,33.0,33.0,33.0,1.0,orangutan_03s.jpg,0.0,Orange.png,6.0,101,,,,,,,,,,,,,,,,,
0.0,1.0,0.64,0.0,34.0,34.0,34.0,1.0,tuxedo_01b.jpg,0.0,Yellow.png,6.0,101,,,,,,,,,,,,,,,,,
0.0,1.0,0.532,0.0,35.0,35.0,35.0,1.0,crate_05s.jpg,0.0,Green.png,6.0,101,,,,,,,,,,,,,,,,,
,,,,,,,,,1.0,,,101,0.0,0.0,1.817,0.0,0.0,0.0,0.0,1.0,oil_02s.jpg,harpoon.jpg,,,,,,,
,,,,,,,,,1.0,,,101,1.0,1.0,1.632,0.0,1.0,1.0,1.0,1.0,swimming_pool_17s.jpg,rabbit_03s.jpg,,,,,,,
,,,,,,,,,0.0,,,101,0.0,1.0,1.422,0.0,2.0,2.0,2.0,1.0,rollerskate_03s.jpg,pumpkin_03s.jpg,,,,,,,
,,,,,,,,,0.0,,,101,1.0,0.0,2.152,0.0,3.0,3.0,3.0,1.0,muffin_12n.jpg,loveseat_08s.jpg,,,,,,,
,,,,,,,,,0.0,,,101,1.0,0.0,1.381,0.0,4.0,4.0,4.0,1.0,spacesuit_02s.jpg,ironing_board_07s.jpg,,,,,,,
,,,,,,,,,1.0,,,101,1.0,1.0,1.8,0.0,5.0,5.0,5.0,1.0,telephone_pole_05s.jpg,crate_05s.jpg,,,,,,,
,,,,,,,,,,,,101,,,,,,,,,,,0.0,7.0,7.0,7.0,1.0,newclockpresent_8_3.xlsx,newclock_compare_task_8_3.xlsx
0.0,1.0,0.667,0.0,0.0,0.0,0.0,1.0,plunger_08s.jpg,0.0,Blue.png,1.0,101,,,,,,,,,,,,,,,,,
0.0,1.0,0.58,0.0,1.0,1.0,1.0,1.0,mango_09s.jpg,0.0,Purple.png,1.0,101,,,,,,,,,,,,,,,,,
0.0,1.0,0.547,0.0,2.0,2.0,2.0,1.0,panda_02s.jpg,0.0,Red.png,1.0,101,,,,,,,,,,,,,,,,,
0.0,1.0,0.566,0.0,3.0,3.0,3.0,1.0,spatula04.jpg,0.0,Orange.png,1.0,101,,,,,,,,,,,,,,,,,
0.0,1.0,0.464,0.0,4.0,4.0,4.0,1.0,tuba_12s.jpg,0.0,Yellow.png,1.0,101,,,,,,,,,,,,,,,,,
0.0,1.0,0.586,0.0,5.0,5.0,5.0,1.0,lipstick_02s.jpg,0.0,Green.png,1.0,101,,,,,,,,,,,,,,,,,
1.0,0.0,0.841,0.0,6.0,6.0,6.0,1.0,tuba_12s.jpg,0.0,Blue.png,2.0,101,,,,,,,,,,,,,,,,,
0.0,1.0,0.506,0.0,7.0,7.0,7.0,1.0,jelly_bean_06s.jpg,0.0,Purple.png,2.0,101,,,,,,,,,,,,,,,,,
0.0,1.0,0.48,0.0,8.0,8.0,8.0,1.0,penlight_12s.jpg,0.0,Red.png,2.0,101,,,,,,,,,,,,,,,,,
0.0,1.0,0.457,0.0,9.0,9.0,9.0,1.0,rooster_03s.jpg,0.0,Orange.png,2.0,101,,,,,,,,,,,,,,,,,
0.0,1.0,0.514,0.0,10.0,10.0,10.0,1.0,raft_09s.jpg,0.0,Yellow.png,2.0,101,,,,,,,,,,,,,,,,,
0.0,1.0,0.921,0.0,11.0,11.0,11.0,1.0,briefcase_03s.jpg,0.0,Green.png,2.0,101,,,,,,,,,,,,,,,,,
0.0,1.0,0.665,0.0,12.0,12.0,12.0,1.0,fossil_06s.jpg,0.0,Blue.png,3.0,101,,,,,,,,,,,,,,,,,
1.0,1.0,0.665,0.0,13.0,13.0,13.0,1.0,fossil_06s.jpg,1.0,Purple.png,3.0,101,,,,,,,,,,,,,,,,,
0.0,1.0,0.55,0.0,14.0,14.0,14.0,1.0,emerald_02s.jpg,0.0,Red.png,3.0,101,,,,,,,,,,,,,,,,,
0.0,0.0,0.885,0.0,15.0,15.0,15.0,1.0,fossil_06s.jpg,1.0,Orange.png,3.0,101,,,,,,,,,,,,,,,,,
0.0,1.0,0.39,0.0,16.0,16.0,16.0,1.0,tiara_05s.jpg,0.0,Yellow.png,3.0,101,,,,,,,,,,,,,,,,,
1.0,1.0,0.981,0.0,17.0,17.0,17.0,1.0,fossil_06s.jpg,1.0,Green.png,3.0,101,,,,,,,,,,,,,,,,,
0.0,1.0,0.603,0.0,18.0,18.0,18.0,1.0,rooster_03s.jpg,0.0,Blue.png,4.0,101,,,,,,,,,,,,,,,,,
1.0,1.0,1.4,0.0,19.0,19.0,19.0,1.0,rooster_03s.jpg,1.0,Purple.png,4.0,101,,,,,,,,,,,,,,,,,
0.0,1.0,0.689,0.0,20.0,20.0,20.0,1.0,squirrel_02s.jpg,0.0,Red.png,4.0,101,,,,,,,,,,,,,,,,,
0.0,1.0,0.647,0.0,21.0,21.0,21.0,1.0,plunger_08s.jpg,0.0,Orange.png,4.0,101,,,,,,,,,,,,,,,,,
1.0,1.0,0.765,0.0,22.0,22.0,22.0,1.0,rooster_03s.jpg,1.0,Yellow.png,4.0,101,,,,,,,,,,,,,,,,,
0.0,1.0,0.648,0.0,23.0,23.0,23.0,1.0,pencil_sharpener_09n.jpg,0.0,Green.png,4.0,101,,,,,,,,,,,,,,,,,
0.0,1.0,0.652,0.0,24.0,24.0,24.0,1.0,latch_15s.jpg,0.0,Blue.png,5.0,101,,,,,,,,,,,,,,,,,
0.0,1.0,0.703,0.0,25.0,25.0,25.0,1.0,pipe1_10s.jpg,0.0,Purple.png,5.0,101,,,,,,,,,,,,,,,,,
0.0,1.0,0.652,0.0,26.0,26.0,26.0,1.0,padlock_07s.jpg,0.0,Red.png,5.0,101,,,,,,,,,,,,,,,,,
1.0,1.0,1.219,0.0,27.0,27.0,27.0,1.0,padlock_07s.jpg,1.0,Orange.png,5.0,101,,,,,,,,,,,,,,,,,
0.0,1.0,0.714,0.0,28.0,28.0,28.0,1.0,mosquito_12s.jpg,0.0,Yellow.png,5.0,101,,,,,,,,,,,,,,,,,
0.0,1.0,0.617,0.0,29.0,29.0,29.0,1.0,chalice_10s.jpg,0.0,Green.png,5.0,101,,,,,,,,,,,,,,,,,
0.0,1.0,0.457,0.0,30.0,30.0,30.0,1.0,turf_03s.jpg,0.0,Blue.png,6.0,101,,,,,,,,,,,,,,,,,
0.0,1.0,0.564,0.0,31.0,31.0,31.0,1.0,smoothie_09s.jpg,0.0,Purple.png,6.0,101,,,,,,,,,,,,,,,,,
0.0,1.0,0.646,0.0,32.0,32.0,32.0,1.0,comic_book_02s.jpg,0.0,Red.png,6.0,101,,,,,,,,,,,,,,,,,
0.0,1.0,0.523,0.0,33.0,33.0,33.0,1.0,stopwatch_04s.jpg,0.0,Orange.png,6.0,101,,,,,,,,,,,,,,,,,
0.0,0.0,0.534,0.0,34.0,34.0,34.0,1.0,turf_03s.jpg,1.0,Yellow.png,6.0,101,,,,,,,,,,,,,,,,,
0.0,1.0,0.568,0.0,35.0,35.0,35.0,1.0,turnstile_08s.jpg,0.0,Green.png,6.0,101,,,,,,,,,,,,,,,,,
,,,,,,,,,1.0,,,101,1.0,1.0,1.06,0.0,0.0,0.0,0.0,1.0,jelly_bean_06s.jpg,raft_09s.jpg,,,,,,,
,,,,,,,,,1.0,,,101,1.0,1.0,1.376,0.0,1.0,1.0,1.0,1.0,chalice_10s.jpg,comic_book_02s.jpg,,,,,,,
,,,,,,,,,0.0,,,101,0.0,1.0,2.154,0.0,2.0,2.0,2.0,1.0,lipstick_02s.jpg,panda_02s.jpg,,,,,,,
,,,,,,,,,1.0,,,101,1.0,1.0,1.459,0.0,3.0,3.0,3.0,1.0,briefcase_03s.jpg,emerald_02s.jpg,,,,,,,
,,,,,,,,,1.0,,,101,1.0,1.0,1.574,0.0,4.0,4.0,4.0,1.0,mosquito_12s.jpg,smoothie_09s.jpg,,,,,,,
,,,,,,,,,1.0,,,101,0.0,0.0,1.134,0.0,5.0,5.0,5.0,1.0,squirrel_02s.jpg,pencil_sharpener_09n.jpg,,,,,,,
,,,,,,,,,,,,101,,,,,,,,,,,0.0,8.0,8.0,8.0,1.0,newclockpresent_9_3.xlsx,newclock_compare_task_9_3.xlsx
