key_resp_3.keys,key_resp_3.rt,key_resp_4.keys,key_resp_4.rt,key_resp_5.keys,key_resp_5.rt,key_resp_6.keys,key_resp_6.rt,key_resp_7.keys,key_resp_7.rt,key_resp_8.keys,key_resp_8.rt,key_resp_9.keys,key_resp_9.rt,key_resp_10.keys,key_resp_10.rt,key_resp_11.keys,key_resp_11.rt,key_resp_12.keys,key_resp_12.rt,key_resp_13.keys,key_resp_13.rt,key_resp_14.keys,key_resp_14.rt,key_resp_15.keys,key_resp_15.rt,key_resp_16.keys,key_resp_16.rt,key_resp_17.keys,key_resp_17.rt,key_resp_18.keys,key_resp_18.rt,key_resp_19.keys,key_resp_19.rt,key_resp_20.keys,key_resp_20.rt,key_resp_21.keys,key_resp_21.corr,trials.thisRepN,trials.thisTrialN,trials.thisN,trials.thisIndex,trials.ran,pictures,answer,clock,segment,participant,key_resp_21.rt,key_resp_22.keys,key_resp_22.corr,key_resp_22.rt,trials_2.thisRepN,trials_2.thisTrialN,trials_2.thisN,trials_2.thisIndex,trials_2.ran,item_a,item_b,key_resp_23.keys,key_resp_23.rt,key_resp.keys,key_resp.corr,key_resp.rt,present_segment.thisRepN,present_segment.thisTrialN,present_segment.thisN,present_segment.thisIndex,present_segment.ran,key_resp_2.keys,key_resp_2.corr,key_resp_2.rt,compare_segment.thisRepN,compare_segment.thisTrialN,compare_segment.thisN,compare_segment.thisIndex,compare_segment.ran,clock_conditions.thisRepN,clock_conditions.thisTrialN,clock_conditions.thisN,clock_conditions.thisIndex,clock_conditions.ran,present,compare
space,117.3136,space,2.7437,0.0,13.1866,0.0,3.6282,1.0,3.638,0.0,1.4627,0.0,1.4698,1.0,1.6841,0.0,9.6744,0.0,1.2265,1.0,5.3606,0.0,5.65,0.0,1.4074,0.0,1.2382,space,8.4255,1.0,5.3792,0.0,3.621,space,4.1014,,0.0,0.0,0.0,0.0,0.0,1.0,whipped_cream_02s.jpg,0.0,Blue.png,1.0,73,,,,,,,,,,,,,,,,,,,,,,,,,,,,,,,,,,,,
,,,,,,,,,,,,,,,,,,,,,,,,,,,,,,,,,,,,0.0,1.0,0.0,1.0,1.0,1.0,1.0,sheep_02s.jpg,0.0,Purple.png,1.0,73,1.0465,,,,,,,,,,,,,,,,,,,,,,,,,,,,,,,,,,,
,,,,,,,,,,,,,,,,,,,,,,,,,,,,,,,,,,,,1.0,1.0,0.0,2.0,2.0,2.0,1.0,sheep_02s.jpg,1.0,Red.png,1.0,73,1.7378,,,,,,,,,,,,,,,,,,,,,,,,,,,,,,,,,,,
,,,,,,,,,,,,,,,,,,,,,,,,,,,,,,,,,,,,0.0,1.0,0.0,3.0,3.0,3.0,1.0,sequin_02s.jpg,0.0,Orange.png,1.0,73,1.2669,,,,,,,,,,,,,,,,,,,,,,,,,,,,,,,,,,,
,,,,,,,,,,,,,,,,,,,,,,,,,,,,,,,,,,,,1.0,1.0,0.0,4.0,4.0,4.0,1.0,sheep_02s.jpg,1.0,Yellow.png,1.0,73,1.6152,,,,,,,,,,,,,,,,,,,,,,,,,,,,,,,,,,,
,,,,,,,,,,,,,,,,,,,,,,,,,,,,,,,,,,,,0.0,1.0,0.0,5.0,5.0,5.0,1.0,scoop_05s.jpg,0.0,Green.png,1.0,73,1.3233,,,,,,,,,,,,,,,,,,,,,,,,,,,,,,,,,,,
,,,,,,,,,,,,,,,,,,,,,,,,,,,,,,,,,,,,0.0,1.0,0.0,6.0,6.0,6.0,1.0,wagon_12s.jpg,0.0,Blue.png,2.0,73,0.8439,,,,,,,,,,,,,,,,,,,,,,,,,,,,,,,,,,,
,,,,,,,,,,,,,,,,,,,,,,,,,,,,,,,,,,,,0.0,1.0,0.0,7.0,7.0,7.0,1.0,scrabble_05s.jpg,0.0,Purple.png,2.0,73,1.2895,,,,,,,,,,,,,,,,,,,,,,,,,,,,,,,,,,,
,,,,,,,,,,,,,,,,,,,,,,,,,,,,,,,,,,,,1.0,1.0,0.0,8.0,8.0,8.0,1.0,wagon_12s.jpg,1.0,Red.png,2.0,73,1.1127,,,,,,,,,,,,,,,,,,,,,,,,,,,,,,,,,,,
,,,,,,,,,,,,,,,,,,,,,,,,,,,,,,,,,,,,1.0,1.0,0.0,9.0,9.0,9.0,1.0,scrabble_05s.jpg,1.0,Orange.png,2.0,73,1.2723,,,,,,,,,,,,,,,,,,,,,,,,,,,,,,,,,,,
,,,,,,,,,,,,,,,,,,,,,,,,,,,,,,,,,,,,0.0,1.0,0.0,10.0,10.0,10.0,1.0,weasel_08s.jpg,0.0,Yellow.png,2.0,73,1.8198,,,,,,,,,,,,,,,,,,,,,,,,,,,,,,,,,,,
,,,,,,,,,,,,,,,,,,,,,,,,,,,,,,,,,,,,0.0,1.0,0.0,11.0,11.0,11.0,1.0,scooter_06s.jpg,0.0,Green.png,2.0,73,2.1777,,,,,,,,,,,,,,,,,,,,,,,,,,,,,,,,,,,
,,,,,,,,,,,,,,,,,,,,,,,,,,,,,,,,,,,,0.0,1.0,0.0,12.0,12.0,12.0,1.0,wetsuit_04s.jpg,0.0,Blue.png,3.0,73,0.8247,,,,,,,,,,,,,,,,,,,,,,,,,,,,,,,,,,,
,,,,,,,,,,,,,,,,,,,,,,,,,,,,,,,,,,,,1.0,1.0,0.0,13.0,13.0,13.0,1.0,wetsuit_04s.jpg,1.0,Purple.png,3.0,73,1.0363,,,,,,,,,,,,,,,,,,,,,,,,,,,,,,,,,,,
,,,,,,,,,,,,,,,,,,,,,,,,,,,,,,,,,,,,1.0,1.0,0.0,14.0,14.0,14.0,1.0,wetsuit_04s.jpg,1.0,Red.png,3.0,73,1.1785,,,,,,,,,,,,,,,,,,,,,,,,,,,,,,,,,,,
,,,,,,,,,,,,,,,,,,,,,,,,,,,,,,,,,,,,0.0,1.0,0.0,15.0,15.0,15.0,1.0,water_fountain_01b.jpg,0.0,Orange.png,3.0,73,1.129,,,,,,,,,,,,,,,,,,,,,,,,,,,,,,,,,,,
,,,,,,,,,,,,,,,,,,,,,,,,,,,,,,,,,,,,1.0,0.0,0.0,16.0,16.0,16.0,1.0,wagon_12s.jpg,0.0,Yellow.png,3.0,73,1.5091,,,,,,,,,,,,,,,,,,,,,,,,,,,,,,,,,,,
,,,,,,,,,,,,,,,,,,,,,,,,,,,,,,,,,,,,,0.0,0.0,17.0,17.0,17.0,1.0,wing_08s.jpg,0.0,Green.png,3.0,73,,,,,,,,,,,,,,,,,,,,,,,,,,,,,,,,,,,,
,,,,,,,,,,,,,,,,,,,,,,,,,,,,,,,,,,,,0.0,1.0,0.0,18.0,18.0,18.0,1.0,shield_02s.jpg,0.0,Blue.png,4.0,73,1.0722,,,,,,,,,,,,,,,,,,,,,,,,,,,,,,,,,,,
,,,,,,,,,,,,,,,,,,,,,,,,,,,,,,,,,,,,0.0,1.0,0.0,19.0,19.0,19.0,1.0,shovel_09s.jpg,0.0,Purple.png,4.0,73,0.9115,,,,,,,,,,,,,,,,,,,,,,,,,,,,,,,,,,,
,,,,,,,,,,,,,,,,,,,,,,,,,,,,,,,,,,,,0.0,1.0,0.0,20.0,20.0,20.0,1.0,watch_09s.jpg,0.0,Red.png,4.0,73,0.8842,,,,,,,,,,,,,,,,,,,,,,,,,,,,,,,,,,,
,,,,,,,,,,,,,,,,,,,,,,,,,,,,,,,,,,,,1.0,1.0,0.0,21.0,21.0,21.0,1.0,shovel_09s.jpg,1.0,Orange.png,4.0,73,1.1829,,,,,,,,,,,,,,,,,,,,,,,,,,,,,,,,,,,
,,,,,,,,,,,,,,,,,,,,,,,,,,,,,,,,,,,,1.0,1.0,0.0,22.0,22.0,22.0,1.0,shovel_09s.jpg,1.0,Yellow.png,4.0,73,1.7511,,,,,,,,,,,,,,,,,,,,,,,,,,,,,,,,,,,
,,,,,,,,,,,,,,,,,,,,,,,,,,,,,,,,,,,,0.0,1.0,0.0,23.0,23.0,23.0,1.0,watering_can_14s.jpg,0.0,Green.png,4.0,73,1.0311,,,,,,,,,,,,,,,,,,,,,,,,,,,,,,,,,,,
,,,,,,,,,,,,,,,,,,,,,,,,,,,,,,,,,,,,0.0,1.0,0.0,24.0,24.0,24.0,1.0,wasp_13n.jpg,0.0,Blue.png,5.0,73,2.1717,,,,,,,,,,,,,,,,,,,,,,,,,,,,,,,,,,,
,,,,,,,,,,,,,,,,,,,,,,,,,,,,,,,,,,,,0.0,1.0,0.0,25.0,25.0,25.0,1.0,shoelace_13s.jpg,0.0,Purple.png,5.0,73,0.8839,,,,,,,,,,,,,,,,,,,,,,,,,,,,,,,,,,,
,,,,,,,,,,,,,,,,,,,,,,,,,,,,,,,,,,,,0.0,1.0,0.0,26.0,26.0,26.0,1.0,scarf_16s.jpg,0.0,Red.png,5.0,73,0.941,,,,,,,,,,,,,,,,,,,,,,,,,,,,,,,,,,,
,,,,,,,,,,,,,,,,,,,,,,,,,,,,,,,,,,,,0.0,1.0,0.0,27.0,27.0,27.0,1.0,screwdriver_07s.jpg,0.0,Orange.png,5.0,73,0.8825,,,,,,,,,,,,,,,,,,,,,,,,,,,,,,,,,,,
,,,,,,,,,,,,,,,,,,,,,,,,,,,,,,,,,,,,0.0,1.0,0.0,28.0,28.0,28.0,1.0,drink_05s.jpg,0.0,Yellow.png,5.0,73,0.884,,,,,,,,,,,,,,,,,,,,,,,,,,,,,,,,,,,
,,,,,,,,,,,,,,,,,,,,,,,,,,,,,,,,,,,,1.0,1.0,0.0,29.0,29.0,29.0,1.0,screwdriver_07s.jpg,1.0,Green.png,5.0,73,0.9587,,,,,,,,,,,,,,,,,,,,,,,,,,,,,,,,,,,
,,,,,,,,,,,,,,,,,,,,,,,,,,,,,,,,,,,,1.0,0.0,0.0,30.0,30.0,30.0,1.0,seaweed_07s.jpg,0.0,Blue.png,6.0,73,0.8123,,,,,,,,,,,,,,,,,,,,,,,,,,,,,,,,,,,
,,,,,,,,,,,,,,,,,,,,,,,,,,,,,,,,,,,,0.0,1.0,0.0,31.0,31.0,31.0,1.0,saxophone_04s.jpg,0.0,Purple.png,6.0,73,0.9654,,,,,,,,,,,,,,,,,,,,,,,,,,,,,,,,,,,
,,,,,,,,,,,,,,,,,,,,,,,,,,,,,,,,,,,,1.0,1.0,0.0,32.0,32.0,32.0,1.0,saxophone_04s.jpg,1.0,Red.png,6.0,73,1.1273,,,,,,,,,,,,,,,,,,,,,,,,,,,,,,,,,,,
,,,,,,,,,,,,,,,,,,,,,,,,,,,,,,,,,,,,0.0,1.0,0.0,33.0,33.0,33.0,1.0,scorpion_01b.jpg,0.0,Orange.png,6.0,73,0.94,,,,,,,,,,,,,,,,,,,,,,,,,,,,,,,,,,,
,,,,,,,,,,,,,,,,,,,,,,,,,,,,,,,,,,,,1.0,0.0,0.0,34.0,34.0,34.0,1.0,shovel_09s.jpg,0.0,Yellow.png,6.0,73,1.3692,,,,,,,,,,,,,,,,,,,,,,,,,,,,,,,,,,,
,,,,,,,,,,,,,,,,,,,,,,,,,,,,,,,,,,,,1.0,1.0,0.0,35.0,35.0,35.0,1.0,saxophone_04s.jpg,1.0,Green.png,6.0,73,2.0616,,,,,,,,,,,,,,,,,,,,,,,,,,,,,,,,,,,
,,,,,,,,,,,,,,,,,,,,,,,,,,,,,,,,,,,,,,,,,,,,1.0,,,73,,0.0,0.0,2.9249,0.0,0.0,0.0,0.0,1.0,water_fountain_01b.jpg,shield_02s.jpg,,,,,,,,,,,,,,,,,,,,,,,,,
,,,,,,,,,,,,,,,,,,,,,,,,,,,,,,,,,,,,,,,,,,,,0.0,,,73,,0.0,1.0,2.7482,0.0,1.0,1.0,1.0,1.0,watch_09s.jpg,wing_08s.jpg,,,,,,,,,,,,,,,,,,,,,,,,,
,,,,,,,,,,,,,,,,,,,,,,,,,,,,,,,,,,,,,,,,,,,,1.0,,,73,,0.0,0.0,1.3382,0.0,2.0,2.0,2.0,1.0,watering_can_14s.jpg,scarf_16s.jpg,,,,,,,,,,,,,,,,,,,,,,,,,
,,,,,,,,,,,,,,,,,,,,,,,,,,,,,,,,,,,,,,,,,,,,1.0,,,73,,0.0,0.0,1.5134,0.0,3.0,3.0,3.0,1.0,whipped_cream_02s.jpg,sequin_02s.jpg,,,,,,,,,,,,,,,,,,,,,,,,,
,,,,,,,,,,,,,,,,,,,,,,,,,,,,,,,,,,,,,,,,,,,,0.0,,,73,,1.0,0.0,2.7216,0.0,4.0,4.0,4.0,1.0,drink_05s.jpg,shoelace_13s.jpg,,,,,,,,,,,,,,,,,,,,,,,,,
,,,,,,,,,,,,,,,,,,,,,,,,,,,,,,,,,,,,,,,,,,,,1.0,,,73,,1.0,1.0,2.1134,0.0,5.0,5.0,5.0,1.0,seaweed_07s.jpg,scorpion_01b.jpg,,,,,,,,,,,,,,,,,,,,,,,,,
,,,,,,,,,,,,,,,,,,,,,,,,,,,,,,,,,,,,,,,,,,,mailbox_11s.jpg,0.0,Blue.png,1.0,73,,,,,,,,,,,,space,2.2914,0.0,1.0,1.7302,0.0,0.0,0.0,0.0,1.0,,,,,,,,,,,,,,,
,,,,,,,,,,,,,,,,,,,,,,,,,,,,,,,,,,,,,,,,,,,mailbox_11s.jpg,1.0,Purple.png,1.0,73,,,,,,,,,,,,,,1.0,1.0,1.6247,0.0,1.0,1.0,1.0,1.0,,,,,,,,,,,,,,,
,,,,,,,,,,,,,,,,,,,,,,,,,,,,,,,,,,,,,,,,,,,checkbook_11s.jpg,0.0,Red.png,1.0,73,,,,,,,,,,,,,,0.0,1.0,1.1108,0.0,2.0,2.0,2.0,1.0,,,,,,,,,,,,,,,
,,,,,,,,,,,,,,,,,,,,,,,,,,,,,,,,,,,,,,,,,,,rocking_chair_05s.jpg,0.0,Orange.png,1.0,73,,,,,,,,,,,,,,0.0,1.0,0.9777,0.0,3.0,3.0,3.0,1.0,,,,,,,,,,,,,,,
,,,,,,,,,,,,,,,,,,,,,,,,,,,,,,,,,,,,,,,,,,,checkbook_11s.jpg,1.0,Yellow.png,1.0,73,,,,,,,,,,,,,,1.0,1.0,1.1706,0.0,4.0,4.0,4.0,1.0,,,,,,,,,,,,,,,
,,,,,,,,,,,,,,,,,,,,,,,,,,,,,,,,,,,,,,,,,,,rocking_chair_05s.jpg,1.0,Green.png,1.0,73,,,,,,,,,,,,,,1.0,1.0,1.0438,0.0,5.0,5.0,5.0,1.0,,,,,,,,,,,,,,,
,,,,,,,,,,,,,,,,,,,,,,,,,,,,,,,,,,,,,,,,,,,eggshell_14s.jpg,0.0,Blue.png,2.0,73,,,,,,,,,,,,,,0.0,1.0,1.0934,0.0,6.0,6.0,6.0,1.0,,,,,,,,,,,,,,,
,,,,,,,,,,,,,,,,,,,,,,,,,,,,,,,,,,,,,,,,,,,rocking_chair_05s.jpg,0.0,Purple.png,2.0,73,,,,,,,,,,,,,,1.0,0.0,1.1052,0.0,7.0,7.0,7.0,1.0,,,,,,,,,,,,,,,
,,,,,,,,,,,,,,,,,,,,,,,,,,,,,,,,,,,,,,,,,,,powder_07s.jpg,0.0,Red.png,2.0,73,,,,,,,,,,,,,,0.0,1.0,2.0933,0.0,8.0,8.0,8.0,1.0,,,,,,,,,,,,,,,
,,,,,,,,,,,,,,,,,,,,,,,,,,,,,,,,,,,,,,,,,,,meatball_13s.jpg,0.0,Orange.png,2.0,73,,,,,,,,,,,,,,0.0,1.0,1.4421,0.0,9.0,9.0,9.0,1.0,,,,,,,,,,,,,,,
,,,,,,,,,,,,,,,,,,,,,,,,,,,,,,,,,,,,,,,,,,,rolling_pin_02s.jpg,0.0,Yellow.png,2.0,73,,,,,,,,,,,,,,0.0,1.0,1.2148,0.0,10.0,10.0,10.0,1.0,,,,,,,,,,,,,,,
,,,,,,,,,,,,,,,,,,,,,,,,,,,,,,,,,,,,,,,,,,,gingerbread_man_03s.jpg,0.0,Green.png,2.0,73,,,,,,,,,,,,,,0.0,1.0,0.9059,0.0,11.0,11.0,11.0,1.0,,,,,,,,,,,,,,,
,,,,,,,,,,,,,,,,,,,,,,,,,,,,,,,,,,,,,,,,,,,rocking_chair_05s.jpg,0.0,Blue.png,3.0,73,,,,,,,,,,,,,,1.0,0.0,0.92,0.0,12.0,12.0,12.0,1.0,,,,,,,,,,,,,,,
,,,,,,,,,,,,,,,,,,,,,,,,,,,,,,,,,,,,,,,,,,,bowler_hat_10s.jpg,0.0,Purple.png,3.0,73,,,,,,,,,,,,,,0.0,1.0,1.0842,0.0,13.0,13.0,13.0,1.0,,,,,,,,,,,,,,,
,,,,,,,,,,,,,,,,,,,,,,,,,,,,,,,,,,,,,,,,,,,rocking_chair_05s.jpg,1.0,Red.png,3.0,73,,,,,,,,,,,,,,1.0,1.0,0.9521,0.0,14.0,14.0,14.0,1.0,,,,,,,,,,,,,,,
,,,,,,,,,,,,,,,,,,,,,,,,,,,,,,,,,,,,,,,,,,,rocking_chair_05s.jpg,1.0,Orange.png,3.0,73,,,,,,,,,,,,,,1.0,1.0,0.8661,0.0,15.0,15.0,15.0,1.0,,,,,,,,,,,,,,,
,,,,,,,,,,,,,,,,,,,,,,,,,,,,,,,,,,,,,,,,,,,rocking_chair_05s.jpg,1.0,Yellow.png,3.0,73,,,,,,,,,,,,,,1.0,1.0,1.2951,0.0,16.0,16.0,16.0,1.0,,,,,,,,,,,,,,,
,,,,,,,,,,,,,,,,,,,,,,,,,,,,,,,,,,,,,,,,,,,projector_08s.jpg,0.0,Green.png,3.0,73,,,,,,,,,,,,,,0.0,1.0,1.5101,0.0,17.0,17.0,17.0,1.0,,,,,,,,,,,,,,,
,,,,,,,,,,,,,,,,,,,,,,,,,,,,,,,,,,,,,,,,,,,checkbook_11s.jpg,0.0,Blue.png,4.0,73,,,,,,,,,,,,,,1.0,0.0,1.8423,0.0,18.0,18.0,18.0,1.0,,,,,,,,,,,,,,,
,,,,,,,,,,,,,,,,,,,,,,,,,,,,,,,,,,,,,,,,,,,checkbook_11s.jpg,1.0,Purple.png,4.0,73,,,,,,,,,,,,,,1.0,1.0,0.9942,0.0,19.0,19.0,19.0,1.0,,,,,,,,,,,,,,,
,,,,,,,,,,,,,,,,,,,,,,,,,,,,,,,,,,,,,,,,,,,crab_16s.jpg,0.0,Red.png,4.0,73,,,,,,,,,,,,,,,0.0,,0.0,20.0,20.0,20.0,1.0,,,,,,,,,,,,,,,
,,,,,,,,,,,,,,,,,,,,,,,,,,,,,,,,,,,,,,,,,,,checkbook_11s.jpg,1.0,Orange.png,4.0,73,,,,,,,,,,,,,,1.0,1.0,0.9928,0.0,21.0,21.0,21.0,1.0,,,,,,,,,,,,,,,
,,,,,,,,,,,,,,,,,,,,,,,,,,,,,,,,,,,,,,,,,,,peanut_butter_08s.jpg,0.0,Yellow.png,4.0,73,,,,,,,,,,,,,,,0.0,,0.0,22.0,22.0,22.0,1.0,,,,,,,,,,,,,,,
,,,,,,,,,,,,,,,,,,,,,,,,,,,,,,,,,,,,,,,,,,,breadstick_08s.jpg,0.0,Green.png,4.0,73,,,,,,,,,,,,,,,0.0,,0.0,23.0,23.0,23.0,1.0,,,,,,,,,,,,,,,
,,,,,,,,,,,,,,,,,,,,,,,,,,,,,,,,,,,,,,,,,,,stethoscope_01b.jpg,0.0,Blue.png,5.0,73,,,,,,,,,,,,,,,0.0,,0.0,24.0,24.0,24.0,1.0,,,,,,,,,,,,,,,
,,,,,,,,,,,,,,,,,,,,,,,,,,,,,,,,,,,,,,,,,,,pineapple_12s.jpg,0.0,Purple.png,5.0,73,,,,,,,,,,,,,,0.0,1.0,0.8846,0.0,25.0,25.0,25.0,1.0,,,,,,,,,,,,,,,
,,,,,,,,,,,,,,,,,,,,,,,,,,,,,,,,,,,,,,,,,,,stethoscope_01b.jpg,1.0,Red.png,5.0,73,,,,,,,,,,,,,,1.0,1.0,1.1219,0.0,26.0,26.0,26.0,1.0,,,,,,,,,,,,,,,
,,,,,,,,,,,,,,,,,,,,,,,,,,,,,,,,,,,,,,,,,,,pineapple_12s.jpg,1.0,Orange.png,5.0,73,,,,,,,,,,,,,,1.0,1.0,1.5101,0.0,27.0,27.0,27.0,1.0,,,,,,,,,,,,,,,
,,,,,,,,,,,,,,,,,,,,,,,,,,,,,,,,,,,,,,,,,,,air_pump_05s.jpg,0.0,Yellow.png,5.0,73,,,,,,,,,,,,,,0.0,1.0,1.8749,0.0,28.0,28.0,28.0,1.0,,,,,,,,,,,,,,,
,,,,,,,,,,,,,,,,,,,,,,,,,,,,,,,,,,,,,,,,,,,birdcage_08s.jpg,0.0,Green.png,5.0,73,,,,,,,,,,,,,,,0.0,,0.0,29.0,29.0,29.0,1.0,,,,,,,,,,,,,,,
,,,,,,,,,,,,,,,,,,,,,,,,,,,,,,,,,,,,,,,,,,,kangaroo_02s.jpg,0.0,Blue.png,6.0,73,,,,,,,,,,,,,,0.0,1.0,0.9315,0.0,30.0,30.0,30.0,1.0,,,,,,,,,,,,,,,
,,,,,,,,,,,,,,,,,,,,,,,,,,,,,,,,,,,,,,,,,,,juicer2_06s.jpg,0.0,Purple.png,6.0,73,,,,,,,,,,,,,,0.0,1.0,1.4905,0.0,31.0,31.0,31.0,1.0,,,,,,,,,,,,,,,
,,,,,,,,,,,,,,,,,,,,,,,,,,,,,,,,,,,,,,,,,,,harpoon.jpg,0.0,Red.png,6.0,73,,,,,,,,,,,,,,0.0,1.0,0.9673,0.0,32.0,32.0,32.0,1.0,,,,,,,,,,,,,,,
,,,,,,,,,,,,,,,,,,,,,,,,,,,,,,,,,,,,,,,,,,,mirror_12s.jpg,0.0,Orange.png,6.0,73,,,,,,,,,,,,,,0.0,1.0,0.7802,0.0,33.0,33.0,33.0,1.0,,,,,,,,,,,,,,,
,,,,,,,,,,,,,,,,,,,,,,,,,,,,,,,,,,,,,,,,,,,gear_07s.jpg,0.0,Yellow.png,6.0,73,,,,,,,,,,,,,,0.0,1.0,0.8087,0.0,34.0,34.0,34.0,1.0,,,,,,,,,,,,,,,
,,,,,,,,,,,,,,,,,,,,,,,,,,,,,,,,,,,,,,,,,,,timer_03s.jpg,0.0,Green.png,6.0,73,,,,,,,,,,,,,,0.0,1.0,0.8805,0.0,35.0,35.0,35.0,1.0,,,,,,,,,,,,,,,
,,,,,,,,,,,,,,,,,,,,,,,,,,,,,,,,,,,,,,,,,,,,1.0,,,73,,,,,,,,,,powder_07s.jpg,gingerbread_man_03s.jpg,,,,,,,,,,,0.0,0.0,2.4239,0.0,0.0,0.0,0.0,1.0,,,,,,,
,,,,,,,,,,,,,,,,,,,,,,,,,,,,,,,,,,,,,,,,,,,,1.0,,,73,,,,,,,,,,air_pump_05s.jpg,juicer2_06s.jpg,,,,,,,,,,,0.0,0.0,1.7422,0.0,1.0,1.0,1.0,1.0,,,,,,,
,,,,,,,,,,,,,,,,,,,,,,,,,,,,,,,,,,,,,,,,,,,,0.0,,,73,,,,,,,,,,crab_16s.jpg,projector_08s.jpg,,,,,,,,,,,1.0,0.0,2.0567,0.0,2.0,2.0,2.0,1.0,,,,,,,
,,,,,,,,,,,,,,,,,,,,,,,,,,,,,,,,,,,,,,,,,,,,0.0,,,73,,,,,,,,,,mirror_12s.jpg,kangaroo_02s.jpg,,,,,,,,,,,0.0,1.0,1.7898,0.0,3.0,3.0,3.0,1.0,,,,,,,
,,,,,,,,,,,,,,,,,,,,,,,,,,,,,,,,,,,,,,,,,,,,0.0,,,73,,,,,,,,,,bowler_hat_10s.jpg,rolling_pin_02s.jpg,,,,,,,,,,,0.0,1.0,1.5727,0.0,4.0,4.0,4.0,1.0,,,,,,,
,,,,,,,,,,,,,,,,,,,,,,,,,,,,,,,,,,,,,,,,,,,,1.0,,,73,,,,,,,,,,eggshell_14s.jpg,meatball_13s.jpg,,,,,,,,,,,0.0,0.0,1.9726,0.0,5.0,5.0,5.0,1.0,,,,,,,
,,,,,,,,,,,,,,,,,,,,,,,,,,,,,,,,,,,,,,,,,,,,,,,73,,,,,,,,,,,,,,,,,,,,,,,,,,,,,,0.0,0.0,0.0,0.0,1.0,newclockpresent_1_1.xlsx,newclock_compare_task_1_1.xlsx
,,,,,,,,,,,,,,,,,,,,,,,,,,,,,,,,,,,,,,,,,,,trident_07s.jpg,0.0,Blue.png,1.0,73,,,,,,,,,,,,,,,0.0,,0.0,0.0,0.0,0.0,1.0,,,,,,,,,,,,,,,
,,,,,,,,,,,,,,,,,,,,,,,,,,,,,,,,,,,,,,,,,,,rosary_03s.jpg,0.0,Purple.png,1.0,73,,,,,,,,,,,,,,0.0,1.0,1.3738,0.0,1.0,1.0,1.0,1.0,,,,,,,,,,,,,,,
,,,,,,,,,,,,,,,,,,,,,,,,,,,,,,,,,,,,,,,,,,,toilet_paper_12s.jpg,0.0,Red.png,1.0,73,,,,,,,,,,,,,,0.0,1.0,0.753,0.0,2.0,2.0,2.0,1.0,,,,,,,,,,,,,,,
,,,,,,,,,,,,,,,,,,,,,,,,,,,,,,,,,,,,,,,,,,,rosary_03s.jpg,1.0,Orange.png,1.0,73,,,,,,,,,,,,,,1.0,1.0,0.9601,0.0,3.0,3.0,3.0,1.0,,,,,,,,,,,,,,,
,,,,,,,,,,,,,,,,,,,,,,,,,,,,,,,,,,,,,,,,,,,toilet_paper_12s.jpg,1.0,Yellow.png,1.0,73,,,,,,,,,,,,,,1.0,1.0,1.8704,0.0,4.0,4.0,4.0,1.0,,,,,,,,,,,,,,,
,,,,,,,,,,,,,,,,,,,,,,,,,,,,,,,,,,,,,,,,,,,potpourri_03s.jpg,0.0,Green.png,1.0,73,,,,,,,,,,,,,,0.0,1.0,1.0568,0.0,5.0,5.0,5.0,1.0,,,,,,,,,,,,,,,
,,,,,,,,,,,,,,,,,,,,,,,,,,,,,,,,,,,,,,,,,,,rocket_02s.jpg,0.0,Blue.png,2.0,73,,,,,,,,,,,,,,0.0,1.0,0.9795,0.0,6.0,6.0,6.0,1.0,,,,,,,,,,,,,,,
,,,,,,,,,,,,,,,,,,,,,,,,,,,,,,,,,,,,,,,,,,,piano_13n.jpg,0.0,Purple.png,2.0,73,,,,,,,,,,,,,,0.0,1.0,0.7661,0.0,7.0,7.0,7.0,1.0,,,,,,,,,,,,,,,
,,,,,,,,,,,,,,,,,,,,,,,,,,,,,,,,,,,,,,,,,,,rocket_02s.jpg,1.0,Red.png,2.0,73,,,,,,,,,,,,,,1.0,1.0,0.9257,0.0,8.0,8.0,8.0,1.0,,,,,,,,,,,,,,,
,,,,,,,,,,,,,,,,,,,,,,,,,,,,,,,,,,,,,,,,,,,rocket_02s.jpg,1.0,Orange.png,2.0,73,,,,,,,,,,,,,,1.0,1.0,1.1248,0.0,9.0,9.0,9.0,1.0,,,,,,,,,,,,,,,
,,,,,,,,,,,,,,,,,,,,,,,,,,,,,,,,,,,,,,,,,,,umbrella_15s.jpg,0.0,Yellow.png,2.0,73,,,,,,,,,,,,,,0.0,1.0,0.7795,0.0,10.0,10.0,10.0,1.0,,,,,,,,,,,,,,,
,,,,,,,,,,,,,,,,,,,,,,,,,,,,,,,,,,,,,,,,,,,touchpad_11s.jpg,0.0,Green.png,2.0,73,,,,,,,,,,,,,,0.0,1.0,0.9829,0.0,11.0,11.0,11.0,1.0,,,,,,,,,,,,,,,
,,,,,,,,,,,,,,,,,,,,,,,,,,,,,,,,,,,,,,,,,,,rocket_02s.jpg,0.0,Blue.png,3.0,73,,,,,,,,,,,,,,1.0,0.0,1.0229,0.0,12.0,12.0,12.0,1.0,,,,,,,,,,,,,,,
,,,,,,,,,,,,,,,,,,,,,,,,,,,,,,,,,,,,,,,,,,,rocket_02s.jpg,1.0,Purple.png,3.0,73,,,,,,,,,,,,,,1.0,1.0,1.0616,0.0,13.0,13.0,13.0,1.0,,,,,,,,,,,,,,,
,,,,,,,,,,,,,,,,,,,,,,,,,,,,,,,,,,,,,,,,,,,rocket_02s.jpg,1.0,Red.png,3.0,73,,,,,,,,,,,,,,1.0,1.0,0.9156,0.0,14.0,14.0,14.0,1.0,,,,,,,,,,,,,,,
,,,,,,,,,,,,,,,,,,,,,,,,,,,,,,,,,,,,,,,,,,,roller_coaster_07s.jpg,0.0,Orange.png,3.0,73,,,,,,,,,,,,,,0.0,1.0,0.8121,0.0,15.0,15.0,15.0,1.0,,,,,,,,,,,,,,,
,,,,,,,,,,,,,,,,,,,,,,,,,,,,,,,,,,,,,,,,,,,torch_02s.jpg,0.0,Yellow.png,3.0,73,,,,,,,,,,,,,,0.0,1.0,1.2169,0.0,16.0,16.0,16.0,1.0,,,,,,,,,,,,,,,
,,,,,,,,,,,,,,,,,,,,,,,,,,,,,,,,,,,,,,,,,,,lion_18s.jpg,0.0,Green.png,3.0,73,,,,,,,,,,,,,,0.0,1.0,0.7559,0.0,17.0,17.0,17.0,1.0,,,,,,,,,,,,,,,
,,,,,,,,,,,,,,,,,,,,,,,,,,,,,,,,,,,,,,,,,,,microwave_02s.jpg,0.0,Blue.png,4.0,73,,,,,,,,,,,,,,0.0,1.0,0.9744,0.0,18.0,18.0,18.0,1.0,,,,,,,,,,,,,,,
,,,,,,,,,,,,,,,,,,,,,,,,,,,,,,,,,,,,,,,,,,,denture_03s.jpg,0.0,Purple.png,4.0,73,,,,,,,,,,,,,,0.0,1.0,0.782,0.0,19.0,19.0,19.0,1.0,,,,,,,,,,,,,,,
,,,,,,,,,,,,,,,,,,,,,,,,,,,,,,,,,,,,,,,,,,,fur_coat_11s.jpg,0.0,Red.png,4.0,73,,,,,,,,,,,,,,0.0,1.0,0.9277,0.0,20.0,20.0,20.0,1.0,,,,,,,,,,,,,,,
,,,,,,,,,,,,,,,,,,,,,,,,,,,,,,,,,,,,,,,,,,,pepper_mill_03s.jpg,0.0,Orange.png,4.0,73,,,,,,,,,,,,,,0.0,1.0,0.8326,0.0,21.0,21.0,21.0,1.0,,,,,,,,,,,,,,,
,,,,,,,,,,,,,,,,,,,,,,,,,,,,,,,,,,,,,,,,,,,antenna_01b.jpg,0.0,Yellow.png,4.0,73,,,,,,,,,,,,,,0.0,1.0,1.115,0.0,22.0,22.0,22.0,1.0,,,,,,,,,,,,,,,
,,,,,,,,,,,,,,,,,,,,,,,,,,,,,,,,,,,,,,,,,,,pepper_mill_03s.jpg,1.0,Green.png,4.0,73,,,,,,,,,,,,,,1.0,1.0,1.0947,0.0,23.0,23.0,23.0,1.0,,,,,,,,,,,,,,,
,,,,,,,,,,,,,,,,,,,,,,,,,,,,,,,,,,,,,,,,,,,touchpad_11s.jpg,0.0,Blue.png,5.0,73,,,,,,,,,,,,,,1.0,0.0,1.0158,0.0,24.0,24.0,24.0,1.0,,,,,,,,,,,,,,,
,,,,,,,,,,,,,,,,,,,,,,,,,,,,,,,,,,,,,,,,,,,otter_05s.jpg,0.0,Purple.png,5.0,73,,,,,,,,,,,,,,0.0,1.0,0.8509,0.0,25.0,25.0,25.0,1.0,,,,,,,,,,,,,,,
,,,,,,,,,,,,,,,,,,,,,,,,,,,,,,,,,,,,,,,,,,,squirt_gun_03s.jpg,0.0,Red.png,5.0,73,,,,,,,,,,,,,,0.0,1.0,0.8335,0.0,26.0,26.0,26.0,1.0,,,,,,,,,,,,,,,
,,,,,,,,,,,,,,,,,,,,,,,,,,,,,,,,,,,,,,,,,,,otter_05s.jpg,1.0,Orange.png,5.0,73,,,,,,,,,,,,,,1.0,1.0,1.2076,0.0,27.0,27.0,27.0,1.0,,,,,,,,,,,,,,,
,,,,,,,,,,,,,,,,,,,,,,,,,,,,,,,,,,,,,,,,,,,touchpad_11s.jpg,1.0,Yellow.png,5.0,73,,,,,,,,,,,,,,1.0,1.0,1.2687,0.0,28.0,28.0,28.0,1.0,,,,,,,,,,,,,,,
,,,,,,,,,,,,,,,,,,,,,,,,,,,,,,,,,,,,,,,,,,,touchpad_11s.jpg,1.0,Green.png,5.0,73,,,,,,,,,,,,,,1.0,1.0,0.8309,0.0,29.0,29.0,29.0,1.0,,,,,,,,,,,,,,,
,,,,,,,,,,,,,,,,,,,,,,,,,,,,,,,,,,,,,,,,,,,kayak_08s.jpg,0.0,Blue.png,6.0,73,,,,,,,,,,,,,,0.0,1.0,0.9596,0.0,30.0,30.0,30.0,1.0,,,,,,,,,,,,,,,
,,,,,,,,,,,,,,,,,,,,,,,,,,,,,,,,,,,,,,,,,,,mascara_03s.jpg,0.0,Purple.png,6.0,73,,,,,,,,,,,,,,0.0,1.0,0.9716,0.0,31.0,31.0,31.0,1.0,,,,,,,,,,,,,,,
,,,,,,,,,,,,,,,,,,,,,,,,,,,,,,,,,,,,,,,,,,,ink_08s.jpg,0.0,Red.png,6.0,73,,,,,,,,,,,,,,,0.0,,0.0,32.0,32.0,32.0,1.0,,,,,,,,,,,,,,,
,,,,,,,,,,,,,,,,,,,,,,,,,,,,,,,,,,,,,,,,,,,kayak_08s.jpg,1.0,Orange.png,6.0,73,,,,,,,,,,,,,,0.0,0.0,0.9553,0.0,33.0,33.0,33.0,1.0,,,,,,,,,,,,,,,
,,,,,,,,,,,,,,,,,,,,,,,,,,,,,,,,,,,,,,,,,,,towel_rack_04s.jpg,0.0,Yellow.png,6.0,73,,,,,,,,,,,,,,0.0,1.0,1.0917,0.0,34.0,34.0,34.0,1.0,,,,,,,,,,,,,,,
,,,,,,,,,,,,,,,,,,,,,,,,,,,,,,,,,,,,,,,,,,,jewel_01b.jpg,0.0,Green.png,6.0,73,,,,,,,,,,,,,,0.0,1.0,0.8825,0.0,35.0,35.0,35.0,1.0,,,,,,,,,,,,,,,
,,,,,,,,,,,,,,,,,,,,,,,,,,,,,,,,,,,,,,,,,,,,1.0,,,73,,,,,,,,,,torch_02s.jpg,denture_03s.jpg,,,,,,,,,,,1.0,1.0,2.3378,0.0,0.0,0.0,0.0,1.0,,,,,,,
,,,,,,,,,,,,,,,,,,,,,,,,,,,,,,,,,,,,,,,,,,,,0.0,,,73,,,,,,,,,,towel_rack_04s.jpg,mascara_03s.jpg,,,,,,,,,,,1.0,0.0,1.353,0.0,1.0,1.0,1.0,1.0,,,,,,,
,,,,,,,,,,,,,,,,,,,,,,,,,,,,,,,,,,,,,,,,,,,,1.0,,,73,,,,,,,,,,piano_13n.jpg,umbrella_15s.jpg,,,,,,,,,,,0.0,0.0,2.1279,0.0,2.0,2.0,2.0,1.0,,,,,,,
,,,,,,,,,,,,,,,,,,,,,,,,,,,,,,,,,,,,,,,,,,,,0.0,,,73,,,,,,,,,,fur_coat_11s.jpg,lion_18s.jpg,,,,,,,,,,,0.0,1.0,1.4274,0.0,3.0,3.0,3.0,1.0,,,,,,,
,,,,,,,,,,,,,,,,,,,,,,,,,,,,,,,,,,,,,,,,,,,,1.0,,,73,,,,,,,,,,roller_coaster_07s.jpg,microwave_02s.jpg,,,,,,,,,,,1.0,1.0,1.689,0.0,4.0,4.0,4.0,1.0,,,,,,,
,,,,,,,,,,,,,,,,,,,,,,,,,,,,,,,,,,,,,,,,,,,,1.0,,,73,,,,,,,,,,ink_08s.jpg,jewel_01b.jpg,,,,,,,,,,,1.0,1.0,1.6254,0.0,5.0,5.0,5.0,1.0,,,,,,,
,,,,,,,,,,,,,,,,,,,,,,,,,,,,,,,,,,,,,,,,,,,,,,,73,,,,,,,,,,,,,,,,,,,,,,,,,,,,,,0.0,1.0,1.0,1.0,1.0,newclockpresent_2_1.xlsx,newclock_compare_task_2_1.xlsx
,,,,,,,,,,,,,,,,,,,,,,,,,,,,,,,,,,,,,,,,,,,icemaker_10s.jpg,0.0,Blue.png,1.0,73,,,,,,,,,,,,,,0.0,1.0,1.1876,0.0,0.0,0.0,0.0,1.0,,,,,,,,,,,,,,,
,,,,,,,,,,,,,,,,,,,,,,,,,,,,,,,,,,,,,,,,,,,icemaker_10s.jpg,1.0,Purple.png,1.0,73,,,,,,,,,,,,,,1.0,1.0,2.197,0.0,1.0,1.0,1.0,1.0,,,,,,,,,,,,,,,
,,,,,,,,,,,,,,,,,,,,,,,,,,,,,,,,,,,,,,,,,,,tile_08s.jpg,0.0,Red.png,1.0,73,,,,,,,,,,,,,,0.0,1.0,1.06,0.0,2.0,2.0,2.0,1.0,,,,,,,,,,,,,,,
,,,,,,,,,,,,,,,,,,,,,,,,,,,,,,,,,,,,,,,,,,,fossil_06s.jpg,0.0,Orange.png,1.0,73,,,,,,,,,,,,,,0.0,1.0,0.8634,0.0,3.0,3.0,3.0,1.0,,,,,,,,,,,,,,,
,,,,,,,,,,,,,,,,,,,,,,,,,,,,,,,,,,,,,,,,,,,fossil_06s.jpg,1.0,Yellow.png,1.0,73,,,,,,,,,,,,,,1.0,1.0,1.6175,0.0,4.0,4.0,4.0,1.0,,,,,,,,,,,,,,,
,,,,,,,,,,,,,,,,,,,,,,,,,,,,,,,,,,,,,,,,,,,ravioli_08s.jpg,0.0,Green.png,1.0,73,,,,,,,,,,,,,,0.0,1.0,2.0235,0.0,5.0,5.0,5.0,1.0,,,,,,,,,,,,,,,
,,,,,,,,,,,,,,,,,,,,,,,,,,,,,,,,,,,,,,,,,,,top_hat_11s.jpg,0.0,Blue.png,2.0,73,,,,,,,,,,,,,,0.0,1.0,1.6024,0.0,6.0,6.0,6.0,1.0,,,,,,,,,,,,,,,
,,,,,,,,,,,,,,,,,,,,,,,,,,,,,,,,,,,,,,,,,,,raccoon_02s.jpg,0.0,Purple.png,2.0,73,,,,,,,,,,,,,,0.0,1.0,0.8,0.0,7.0,7.0,7.0,1.0,,,,,,,,,,,,,,,
,,,,,,,,,,,,,,,,,,,,,,,,,,,,,,,,,,,,,,,,,,,snowman_02s.jpg,0.0,Red.png,2.0,73,,,,,,,,,,,,,,0.0,1.0,0.9433,0.0,8.0,8.0,8.0,1.0,,,,,,,,,,,,,,,
,,,,,,,,,,,,,,,,,,,,,,,,,,,,,,,,,,,,,,,,,,,peach_04s.jpg,0.0,Orange.png,2.0,73,,,,,,,,,,,,,,0.0,1.0,0.6988,0.0,9.0,9.0,9.0,1.0,,,,,,,,,,,,,,,
,,,,,,,,,,,,,,,,,,,,,,,,,,,,,,,,,,,,,,,,,,,beard_16s.jpg,0.0,Yellow.png,2.0,73,,,,,,,,,,,,,,0.0,1.0,0.9603,0.0,10.0,10.0,10.0,1.0,,,,,,,,,,,,,,,
,,,,,,,,,,,,,,,,,,,,,,,,,,,,,,,,,,,,,,,,,,,rollerskate_03s.jpg,0.0,Green.png,2.0,73,,,,,,,,,,,,,,0.0,1.0,1.0866,0.0,11.0,11.0,11.0,1.0,,,,,,,,,,,,,,,
,,,,,,,,,,,,,,,,,,,,,,,,,,,,,,,,,,,,,,,,,,,mango_09s.jpg,0.0,Blue.png,3.0,73,,,,,,,,,,,,,,0.0,1.0,1.6272,0.0,12.0,12.0,12.0,1.0,,,,,,,,,,,,,,,
,,,,,,,,,,,,,,,,,,,,,,,,,,,,,,,,,,,,,,,,,,,mango_09s.jpg,1.0,Purple.png,3.0,73,,,,,,,,,,,,,,,0.0,,0.0,13.0,13.0,13.0,1.0,,,,,,,,,,,,,,,
,,,,,,,,,,,,,,,,,,,,,,,,,,,,,,,,,,,,,,,,,,,magnet_03s.jpg,0.0,Red.png,3.0,73,,,,,,,,,,,,,,0.0,1.0,0.8259,0.0,14.0,14.0,14.0,1.0,,,,,,,,,,,,,,,
,,,,,,,,,,,,,,,,,,,,,,,,,,,,,,,,,,,,,,,,,,,mango_09s.jpg,1.0,Orange.png,3.0,73,,,,,,,,,,,,,,0.0,0.0,1.6331,0.0,15.0,15.0,15.0,1.0,,,,,,,,,,,,,,,
,,,,,,,,,,,,,,,,,,,,,,,,,,,,,,,,,,,,,,,,,,,mango_09s.jpg,1.0,Yellow.png,3.0,73,,,,,,,,,,,,,,0.0,0.0,1.1233,0.0,16.0,16.0,16.0,1.0,,,,,,,,,,,,,,,
,,,,,,,,,,,,,,,,,,,,,,,,,,,,,,,,,,,,,,,,,,,mango_09s.jpg,1.0,Green.png,3.0,73,,,,,,,,,,,,,,,0.0,,0.0,17.0,17.0,17.0,1.0,,,,,,,,,,,,,,,
,,,,,,,,,,,,,,,,,,,,,,,,,,,,,,,,,,,,,,,,,,,punch2_09s.jpg,0.0,Blue.png,4.0,73,,,,,,,,,,,,,,0.0,1.0,0.7726,0.0,18.0,18.0,18.0,1.0,,,,,,,,,,,,,,,
,,,,,,,,,,,,,,,,,,,,,,,,,,,,,,,,,,,,,,,,,,,jelly_bean_06s.jpg,0.0,Purple.png,4.0,73,,,,,,,,,,,,,,0.0,1.0,0.9786,0.0,19.0,19.0,19.0,1.0,,,,,,,,,,,,,,,
,,,,,,,,,,,,,,,,,,,,,,,,,,,,,,,,,,,,,,,,,,,punch2_09s.jpg,1.0,Red.png,4.0,73,,,,,,,,,,,,,,1.0,1.0,2.3427,0.0,20.0,20.0,20.0,1.0,,,,,,,,,,,,,,,
,,,,,,,,,,,,,,,,,,,,,,,,,,,,,,,,,,,,,,,,,,,jelly_bean_06s.jpg,1.0,Orange.png,4.0,73,,,,,,,,,,,,,,1.0,1.0,1.3774,0.0,21.0,21.0,21.0,1.0,,,,,,,,,,,,,,,
,,,,,,,,,,,,,,,,,,,,,,,,,,,,,,,,,,,,,,,,,,,jelly_bean_06s.jpg,1.0,Yellow.png,4.0,73,,,,,,,,,,,,,,1.0,1.0,1.3629,0.0,22.0,22.0,22.0,1.0,,,,,,,,,,,,,,,
,,,,,,,,,,,,,,,,,,,,,,,,,,,,,,,,,,,,,,,,,,,typewriter_11s.jpg,0.0,Green.png,4.0,73,,,,,,,,,,,,,,0.0,1.0,0.9763,0.0,23.0,23.0,23.0,1.0,,,,,,,,,,,,,,,
,,,,,,,,,,,,,,,,,,,,,,,,,,,,,,,,,,,,,,,,,,,icemaker_10s.jpg,0.0,Blue.png,5.0,73,,,,,,,,,,,,,,0.0,1.0,1.2784,0.0,24.0,24.0,24.0,1.0,,,,,,,,,,,,,,,
,,,,,,,,,,,,,,,,,,,,,,,,,,,,,,,,,,,,,,,,,,,typewriter_11s.jpg,0.0,Purple.png,5.0,73,,,,,,,,,,,,,,0.0,1.0,1.513,0.0,25.0,25.0,25.0,1.0,,,,,,,,,,,,,,,
,,,,,,,,,,,,,,,,,,,,,,,,,,,,,,,,,,,,,,,,,,,key_07s.jpg,0.0,Red.png,5.0,73,,,,,,,,,,,,,,0.0,1.0,0.9588,0.0,26.0,26.0,26.0,1.0,,,,,,,,,,,,,,,
,,,,,,,,,,,,,,,,,,,,,,,,,,,,,,,,,,,,,,,,,,,foam_03s.jpg,0.0,Orange.png,5.0,73,,,,,,,,,,,,,,0.0,1.0,0.8216,0.0,27.0,27.0,27.0,1.0,,,,,,,,,,,,,,,
,,,,,,,,,,,,,,,,,,,,,,,,,,,,,,,,,,,,,,,,,,,candy_cane_06s.jpg,0.0,Yellow.png,5.0,73,,,,,,,,,,,,,,0.0,1.0,0.8543,0.0,28.0,28.0,28.0,1.0,,,,,,,,,,,,,,,
,,,,,,,,,,,,,,,,,,,,,,,,,,,,,,,,,,,,,,,,,,,puffin_19s.jpg,0.0,Green.png,5.0,73,,,,,,,,,,,,,,0.0,1.0,0.692,0.0,29.0,29.0,29.0,1.0,,,,,,,,,,,,,,,
,,,,,,,,,,,,,,,,,,,,,,,,,,,,,,,,,,,,,,,,,,,outlet_10s.jpg,0.0,Blue.png,6.0,73,,,,,,,,,,,,,,0.0,1.0,0.7116,0.0,30.0,30.0,30.0,1.0,,,,,,,,,,,,,,,
,,,,,,,,,,,,,,,,,,,,,,,,,,,,,,,,,,,,,,,,,,,lasagna_06s.jpg,0.0,Purple.png,6.0,73,,,,,,,,,,,,,,0.0,1.0,0.7434,0.0,31.0,31.0,31.0,1.0,,,,,,,,,,,,,,,
,,,,,,,,,,,,,,,,,,,,,,,,,,,,,,,,,,,,,,,,,,,lasagna_06s.jpg,1.0,Red.png,6.0,73,,,,,,,,,,,,,,1.0,1.0,0.9291,0.0,32.0,32.0,32.0,1.0,,,,,,,,,,,,,,,
,,,,,,,,,,,,,,,,,,,,,,,,,,,,,,,,,,,,,,,,,,,marker_05s.jpg,0.0,Orange.png,6.0,73,,,,,,,,,,,,,,0.0,1.0,0.877,0.0,33.0,33.0,33.0,1.0,,,,,,,,,,,,,,,
,,,,,,,,,,,,,,,,,,,,,,,,,,,,,,,,,,,,,,,,,,,cushion_08s.jpg,0.0,Yellow.png,6.0,73,,,,,,,,,,,,,,0.0,1.0,0.7577,0.0,34.0,34.0,34.0,1.0,,,,,,,,,,,,,,,
,,,,,,,,,,,,,,,,,,,,,,,,,,,,,,,,,,,,,,,,,,,badge_03s.jpg,0.0,Green.png,6.0,73,,,,,,,,,,,,,,0.0,1.0,0.7584,0.0,35.0,35.0,35.0,1.0,,,,,,,,,,,,,,,
,,,,,,,,,,,,,,,,,,,,,,,,,,,,,,,,,,,,,,,,,,,,0.0,,,73,,,,,,,,,,beard_16s.jpg,raccoon_02s.jpg,,,,,,,,,,,0.0,1.0,1.5311,0.0,0.0,0.0,0.0,1.0,,,,,,,
,,,,,,,,,,,,,,,,,,,,,,,,,,,,,,,,,,,,,,,,,,,,0.0,,,73,,,,,,,,,,peach_04s.jpg,top_hat_11s.jpg,,,,,,,,,,,0.0,1.0,1.928,0.0,1.0,1.0,1.0,1.0,,,,,,,
,,,,,,,,,,,,,,,,,,,,,,,,,,,,,,,,,,,,,,,,,,,,1.0,,,73,,,,,,,,,,rollerskate_03s.jpg,magnet_03s.jpg,,,,,,,,,,,0.0,0.0,1.0355,0.0,2.0,2.0,2.0,1.0,,,,,,,
,,,,,,,,,,,,,,,,,,,,,,,,,,,,,,,,,,,,,,,,,,,,1.0,,,73,,,,,,,,,,foam_03s.jpg,outlet_10s.jpg,,,,,,,,,,,0.0,0.0,1.3189,0.0,3.0,3.0,3.0,1.0,,,,,,,
,,,,,,,,,,,,,,,,,,,,,,,,,,,,,,,,,,,,,,,,,,,,0.0,,,73,,,,,,,,,,snowman_02s.jpg,ravioli_08s.jpg,,,,,,,,,,,0.0,1.0,1.2111,0.0,4.0,4.0,4.0,1.0,,,,,,,
,,,,,,,,,,,,,,,,,,,,,,,,,,,,,,,,,,,,,,,,,,,,0.0,,,73,,,,,,,,,,puffin_19s.jpg,key_07s.jpg,,,,,,,,,,,0.0,1.0,1.671,0.0,5.0,5.0,5.0,1.0,,,,,,,
,,,,,,,,,,,,,,,,,,,,,,,,,,,,,,,,,,,,,,,,,,,,,,,73,,,,,,,,,,,,,,,,,,,,,,,,,,,,,,0.0,2.0,2.0,2.0,1.0,newclockpresent_3_1.xlsx,newclock_compare_task_3_1.xlsx
,,,,,,,,,,,,,,,,,,,,,,,,,,,,,,,,,,,,,,,,,,,lollipop_08s.jpg,0.0,Blue.png,1.0,73,,,,,,,,,,,,,,0.0,1.0,0.852,0.0,0.0,0.0,0.0,1.0,,,,,,,,,,,,,,,
,,,,,,,,,,,,,,,,,,,,,,,,,,,,,,,,,,,,,,,,,,,keyboard_05s.jpg,0.0,Purple.png,1.0,73,,,,,,,,,,,,,,0.0,1.0,1.6022,0.0,1.0,1.0,1.0,1.0,,,,,,,,,,,,,,,
,,,,,,,,,,,,,,,,,,,,,,,,,,,,,,,,,,,,,,,,,,,pomegranate_04s.jpg,0.0,Red.png,1.0,73,,,,,,,,,,,,,,0.0,1.0,0.7438,0.0,2.0,2.0,2.0,1.0,,,,,,,,,,,,,,,
,,,,,,,,,,,,,,,,,,,,,,,,,,,,,,,,,,,,,,,,,,,olive_05s.jpg,0.0,Orange.png,1.0,73,,,,,,,,,,,,,,0.0,1.0,0.7156,0.0,3.0,3.0,3.0,1.0,,,,,,,,,,,,,,,
,,,,,,,,,,,,,,,,,,,,,,,,,,,,,,,,,,,,,,,,,,,hummingbird_05s.jpg,0.0,Yellow.png,1.0,73,,,,,,,,,,,,,,0.0,1.0,0.7323,0.0,4.0,4.0,4.0,1.0,,,,,,,,,,,,,,,
,,,,,,,,,,,,,,,,,,,,,,,,,,,,,,,,,,,,,,,,,,,cucumber_07s.jpg,0.0,Green.png,1.0,73,,,,,,,,,,,,,,0.0,1.0,1.0543,0.0,5.0,5.0,5.0,1.0,,,,,,,,,,,,,,,
,,,,,,,,,,,,,,,,,,,,,,,,,,,,,,,,,,,,,,,,,,,olive_05s.jpg,0.0,Blue.png,2.0,73,,,,,,,,,,,,,,0.0,1.0,1.3102,0.0,6.0,6.0,6.0,1.0,,,,,,,,,,,,,,,
,,,,,,,,,,,,,,,,,,,,,,,,,,,,,,,,,,,,,,,,,,,pinwheel_06s.jpg,0.0,Purple.png,2.0,73,,,,,,,,,,,,,,0.0,1.0,0.6429,0.0,7.0,7.0,7.0,1.0,,,,,,,,,,,,,,,
,,,,,,,,,,,,,,,,,,,,,,,,,,,,,,,,,,,,,,,,,,,olive_05s.jpg,1.0,Red.png,2.0,73,,,,,,,,,,,,,,1.0,1.0,1.9863,0.0,8.0,8.0,8.0,1.0,,,,,,,,,,,,,,,
,,,,,,,,,,,,,,,,,,,,,,,,,,,,,,,,,,,,,,,,,,,orchid_01b.jpg,0.0,Orange.png,2.0,73,,,,,,,,,,,,,,0.0,1.0,0.6403,0.0,9.0,9.0,9.0,1.0,,,,,,,,,,,,,,,
,,,,,,,,,,,,,,,,,,,,,,,,,,,,,,,,,,,,,,,,,,,olive_05s.jpg,1.0,Yellow.png,2.0,73,,,,,,,,,,,,,,,0.0,,0.0,10.0,10.0,10.0,1.0,,,,,,,,,,,,,,,
,,,,,,,,,,,,,,,,,,,,,,,,,,,,,,,,,,,,,,,,,,,lectern_08s.jpg,0.0,Green.png,2.0,73,,,,,,,,,,,,,,0.0,1.0,0.7135,0.0,11.0,11.0,11.0,1.0,,,,,,,,,,,,,,,
,,,,,,,,,,,,,,,,,,,,,,,,,,,,,,,,,,,,,,,,,,,margarita_03s.jpg,0.0,Blue.png,3.0,73,,,,,,,,,,,,,,0.0,1.0,0.7092,0.0,12.0,12.0,12.0,1.0,,,,,,,,,,,,,,,
,,,,,,,,,,,,,,,,,,,,,,,,,,,,,,,,,,,,,,,,,,,margarita_03s.jpg,1.0,Purple.png,3.0,73,,,,,,,,,,,,,,,0.0,,0.0,13.0,13.0,13.0,1.0,,,,,,,,,,,,,,,
,,,,,,,,,,,,,,,,,,,,,,,,,,,,,,,,,,,,,,,,,,,swan_11s.jpg,0.0,Red.png,3.0,73,,,,,,,,,,,,,,0.0,1.0,0.7059,0.0,14.0,14.0,14.0,1.0,,,,,,,,,,,,,,,
,,,,,,,,,,,,,,,,,,,,,,,,,,,,,,,,,,,,,,,,,,,tripod_01b.jpg,0.0,Orange.png,3.0,73,,,,,,,,,,,,,,0.0,1.0,0.6501,0.0,15.0,15.0,15.0,1.0,,,,,,,,,,,,,,,
,,,,,,,,,,,,,,,,,,,,,,,,,,,,,,,,,,,,,,,,,,,mop_08s.jpg,0.0,Yellow.png,3.0,73,,,,,,,,,,,,,,0.0,1.0,0.7151,0.0,16.0,16.0,16.0,1.0,,,,,,,,,,,,,,,
,,,,,,,,,,,,,,,,,,,,,,,,,,,,,,,,,,,,,,,,,,,plaster_cast_13s.jpg,0.0,Green.png,3.0,73,,,,,,,,,,,,,,0.0,1.0,0.7554,0.0,17.0,17.0,17.0,1.0,,,,,,,,,,,,,,,
,,,,,,,,,,,,,,,,,,,,,,,,,,,,,,,,,,,,,,,,,,,gas_mask_11s.jpg,0.0,Blue.png,4.0,73,,,,,,,,,,,,,,0.0,1.0,0.7725,0.0,18.0,18.0,18.0,1.0,,,,,,,,,,,,,,,
,,,,,,,,,,,,,,,,,,,,,,,,,,,,,,,,,,,,,,,,,,,tinsel_12s.jpg,0.0,Purple.png,4.0,73,,,,,,,,,,,,,,0.0,1.0,0.6238,0.0,19.0,19.0,19.0,1.0,,,,,,,,,,,,,,,
,,,,,,,,,,,,,,,,,,,,,,,,,,,,,,,,,,,,,,,,,,,smokingpipe.jpg,0.0,Red.png,4.0,73,,,,,,,,,,,,,,0.0,1.0,0.6647,0.0,20.0,20.0,20.0,1.0,,,,,,,,,,,,,,,
,,,,,,,,,,,,,,,,,,,,,,,,,,,,,,,,,,,,,,,,,,,iron_13s.jpg,0.0,Orange.png,4.0,73,,,,,,,,,,,,,,0.0,1.0,0.6252,0.0,21.0,21.0,21.0,1.0,,,,,,,,,,,,,,,
,,,,,,,,,,,,,,,,,,,,,,,,,,,,,,,,,,,,,,,,,,,iron_13s.jpg,1.0,Yellow.png,4.0,73,,,,,,,,,,,,,,1.0,1.0,1.7542,0.0,22.0,22.0,22.0,1.0,,,,,,,,,,,,,,,
,,,,,,,,,,,,,,,,,,,,,,,,,,,,,,,,,,,,,,,,,,,iron_13s.jpg,1.0,Green.png,4.0,73,,,,,,,,,,,,,,1.0,1.0,1.0084,0.0,23.0,23.0,23.0,1.0,,,,,,,,,,,,,,,
,,,,,,,,,,,,,,,,,,,,,,,,,,,,,,,,,,,,,,,,,,,rhubarb_03s.jpg,0.0,Blue.png,5.0,73,,,,,,,,,,,,,,0.0,1.0,0.6918,0.0,24.0,24.0,24.0,1.0,,,,,,,,,,,,,,,
,,,,,,,,,,,,,,,,,,,,,,,,,,,,,,,,,,,,,,,,,,,tambourine_06s.jpg,0.0,Purple.png,5.0,73,,,,,,,,,,,,,,0.0,1.0,0.8059,0.0,25.0,25.0,25.0,1.0,,,,,,,,,,,,,,,
,,,,,,,,,,,,,,,,,,,,,,,,,,,,,,,,,,,,,,,,,,,tambourine_06s.jpg,1.0,Red.png,5.0,73,,,,,,,,,,,,,,0.0,0.0,0.6168,0.0,26.0,26.0,26.0,1.0,,,,,,,,,,,,,,,
,,,,,,,,,,,,,,,,,,,,,,,,,,,,,,,,,,,,,,,,,,,mousetrap_15n.jpg,0.0,Orange.png,5.0,73,,,,,,,,,,,,,,0.0,1.0,0.7251,0.0,27.0,27.0,27.0,1.0,,,,,,,,,,,,,,,
,,,,,,,,,,,,,,,,,,,,,,,,,,,,,,,,,,,,,,,,,,,ticktacktoe_08s.jpg,0.0,Yellow.png,5.0,73,,,,,,,,,,,,,,0.0,1.0,0.8452,0.0,28.0,28.0,28.0,1.0,,,,,,,,,,,,,,,
,,,,,,,,,,,,,,,,,,,,,,,,,,,,,,,,,,,,,,,,,,,sunflower_17s.jpg,0.0,Green.png,5.0,73,,,,,,,,,,,,,,0.0,1.0,0.8129,0.0,29.0,29.0,29.0,1.0,,,,,,,,,,,,,,,
,,,,,,,,,,,,,,,,,,,,,,,,,,,,,,,,,,,,,,,,,,,onion_10s.jpg,0.0,Blue.png,6.0,73,,,,,,,,,,,,,,0.0,1.0,0.832,0.0,30.0,30.0,30.0,1.0,,,,,,,,,,,,,,,
,,,,,,,,,,,,,,,,,,,,,,,,,,,,,,,,,,,,,,,,,,,ant_12s.jpg,0.0,Purple.png,6.0,73,,,,,,,,,,,,,,0.0,1.0,0.66,0.0,31.0,31.0,31.0,1.0,,,,,,,,,,,,,,,
,,,,,,,,,,,,,,,,,,,,,,,,,,,,,,,,,,,,,,,,,,,insole_11s.jpg,0.0,Red.png,6.0,73,,,,,,,,,,,,,,0.0,1.0,0.7123,0.0,32.0,32.0,32.0,1.0,,,,,,,,,,,,,,,
,,,,,,,,,,,,,,,,,,,,,,,,,,,,,,,,,,,,,,,,,,,keyboard_05s.jpg,0.0,Orange.png,6.0,73,,,,,,,,,,,,,,1.0,0.0,1.8763,0.0,33.0,33.0,33.0,1.0,,,,,,,,,,,,,,,
,,,,,,,,,,,,,,,,,,,,,,,,,,,,,,,,,,,,,,,,,,,aluminum_foil_08s.jpg,0.0,Yellow.png,6.0,73,,,,,,,,,,,,,,0.0,1.0,1.0142,0.0,34.0,34.0,34.0,1.0,,,,,,,,,,,,,,,
,,,,,,,,,,,,,,,,,,,,,,,,,,,,,,,,,,,,,,,,,,,money_07s.jpg,0.0,Green.png,6.0,73,,,,,,,,,,,,,,0.0,1.0,0.6637,0.0,35.0,35.0,35.0,1.0,,,,,,,,,,,,,,,
,,,,,,,,,,,,,,,,,,,,,,,,,,,,,,,,,,,,,,,,,,,,0.0,,,73,,,,,,,,,,pinwheel_06s.jpg,hummingbird_05s.jpg,,,,,,,,,,,0.0,1.0,1.6839,0.0,0.0,0.0,0.0,1.0,,,,,,,
,,,,,,,,,,,,,,,,,,,,,,,,,,,,,,,,,,,,,,,,,,,,1.0,,,73,,,,,,,,,,mop_08s.jpg,tinsel_12s.jpg,,,,,,,,,,,0.0,0.0,1.5357,0.0,1.0,1.0,1.0,1.0,,,,,,,
,,,,,,,,,,,,,,,,,,,,,,,,,,,,,,,,,,,,,,,,,,,,1.0,,,73,,,,,,,,,,pomegranate_04s.jpg,cucumber_07s.jpg,,,,,,,,,,,1.0,1.0,1.4009,0.0,2.0,2.0,2.0,1.0,,,,,,,
,,,,,,,,,,,,,,,,,,,,,,,,,,,,,,,,,,,,,,,,,,,,0.0,,,73,,,,,,,,,,aluminum_foil_08s.jpg,ant_12s.jpg,,,,,,,,,,,1.0,0.0,1.9944,0.0,3.0,3.0,3.0,1.0,,,,,,,
,,,,,,,,,,,,,,,,,,,,,,,,,,,,,,,,,,,,,,,,,,,,0.0,,,73,,,,,,,,,,gas_mask_11s.jpg,tripod_01b.jpg,,,,,,,,,,,0.0,1.0,1.3132,0.0,4.0,4.0,4.0,1.0,,,,,,,
,,,,,,,,,,,,,,,,,,,,,,,,,,,,,,,,,,,,,,,,,,,,0.0,,,73,,,,,,,,,,mousetrap_15n.jpg,rhubarb_03s.jpg,,,,,,,,,,,1.0,0.0,1.4251,0.0,5.0,5.0,5.0,1.0,,,,,,,
,,,,,,,,,,,,,,,,,,,,,,,,,,,,,,,,,,,,,,,,,,,,,,,73,,,,,,,,,,,,,,,,,,,,,,,,,,,,,,0.0,3.0,3.0,3.0,1.0,newclockpresent_4_1.xlsx,newclock_compare_task_4_1.xlsx
,,,,,,,,,,,,,,,,,,,,,,,,,,,,,,,,,,,,,,,,,,,jalapeno_15s.jpg,0.0,Blue.png,1.0,73,,,,,,,,,,,,,,,0.0,,0.0,0.0,0.0,0.0,1.0,,,,,,,,,,,,,,,
,,,,,,,,,,,,,,,,,,,,,,,,,,,,,,,,,,,,,,,,,,,pincushion_10s.jpg,0.0,Purple.png,1.0,73,,,,,,,,,,,,,,0.0,1.0,0.8213,0.0,1.0,1.0,1.0,1.0,,,,,,,,,,,,,,,
,,,,,,,,,,,,,,,,,,,,,,,,,,,,,,,,,,,,,,,,,,,fondue_07s.jpg,0.0,Red.png,1.0,73,,,,,,,,,,,,,,0.0,1.0,1.0605,0.0,2.0,2.0,2.0,1.0,,,,,,,,,,,,,,,
,,,,,,,,,,,,,,,,,,,,,,,,,,,,,,,,,,,,,,,,,,,safety_pin_02s.jpg,0.0,Orange.png,1.0,73,,,,,,,,,,,,,,0.0,1.0,0.7614,0.0,3.0,3.0,3.0,1.0,,,,,,,,,,,,,,,
,,,,,,,,,,,,,,,,,,,,,,,,,,,,,,,,,,,,,,,,,,,turf_03s.jpg,0.0,Yellow.png,1.0,73,,,,,,,,,,,,,,0.0,1.0,0.9138,0.0,4.0,4.0,4.0,1.0,,,,,,,,,,,,,,,
,,,,,,,,,,,,,,,,,,,,,,,,,,,,,,,,,,,,,,,,,,,jalapeno_15s.jpg,1.0,Green.png,1.0,73,,,,,,,,,,,,,,0.0,0.0,1.1783,0.0,5.0,5.0,5.0,1.0,,,,,,,,,,,,,,,
,,,,,,,,,,,,,,,,,,,,,,,,,,,,,,,,,,,,,,,,,,,jalapeno_15s.jpg,0.0,Blue.png,2.0,73,,,,,,,,,,,,,,1.0,0.0,1.7292,0.0,6.0,6.0,6.0,1.0,,,,,,,,,,,,,,,
,,,,,,,,,,,,,,,,,,,,,,,,,,,,,,,,,,,,,,,,,,,jalapeno_15s.jpg,1.0,Purple.png,2.0,73,,,,,,,,,,,,,,1.0,1.0,0.5277,0.0,7.0,7.0,7.0,1.0,,,,,,,,,,,,,,,
,,,,,,,,,,,,,,,,,,,,,,,,,,,,,,,,,,,,,,,,,,,spoon02a.jpg,0.0,Red.png,2.0,73,,,,,,,,,,,,,,0.0,1.0,0.7134,0.0,8.0,8.0,8.0,1.0,,,,,,,,,,,,,,,
,,,,,,,,,,,,,,,,,,,,,,,,,,,,,,,,,,,,,,,,,,,puppet_01b.jpg,0.0,Orange.png,2.0,73,,,,,,,,,,,,,,0.0,1.0,0.6508,0.0,9.0,9.0,9.0,1.0,,,,,,,,,,,,,,,
,,,,,,,,,,,,,,,,,,,,,,,,,,,,,,,,,,,,,,,,,,,jalapeno_15s.jpg,1.0,Yellow.png,2.0,73,,,,,,,,,,,,,,1.0,1.0,1.558,0.0,10.0,10.0,10.0,1.0,,,,,,,,,,,,,,,
,,,,,,,,,,,,,,,,,,,,,,,,,,,,,,,,,,,,,,,,,,,jalapeno_15s.jpg,1.0,Green.png,2.0,73,,,,,,,,,,,,,,1.0,1.0,0.5254,0.0,11.0,11.0,11.0,1.0,,,,,,,,,,,,,,,
,,,,,,,,,,,,,,,,,,,,,,,,,,,,,,,,,,,,,,,,,,,popcorn_09s.jpg,0.0,Blue.png,3.0,73,,,,,,,,,,,,,,0.0,1.0,0.8117,0.0,12.0,12.0,12.0,1.0,,,,,,,,,,,,,,,
,,,,,,,,,,,,,,,,,,,,,,,,,,,,,,,,,,,,,,,,,,,popcorn_09s.jpg,1.0,Purple.png,3.0,73,,,,,,,,,,,,,,1.0,1.0,1.7721,0.0,13.0,13.0,13.0,1.0,,,,,,,,,,,,,,,
,,,,,,,,,,,,,,,,,,,,,,,,,,,,,,,,,,,,,,,,,,,swordfish_05s.jpg,0.0,Red.png,3.0,73,,,,,,,,,,,,,,0.0,1.0,0.7241,0.0,14.0,14.0,14.0,1.0,,,,,,,,,,,,,,,
,,,,,,,,,,,,,,,,,,,,,,,,,,,,,,,,,,,,,,,,,,,popcorn_09s.jpg,1.0,Orange.png,3.0,73,,,,,,,,,,,,,,0.0,0.0,0.7956,0.0,15.0,15.0,15.0,1.0,,,,,,,,,,,,,,,
,,,,,,,,,,,,,,,,,,,,,,,,,,,,,,,,,,,,,,,,,,,police_car_01s.jpg,0.0,Yellow.png,3.0,73,,,,,,,,,,,,,,0.0,1.0,0.9521,0.0,16.0,16.0,16.0,1.0,,,,,,,,,,,,,,,
,,,,,,,,,,,,,,,,,,,,,,,,,,,,,,,,,,,,,,,,,,,ginger_09s.jpg,0.0,Green.png,3.0,73,,,,,,,,,,,,,,0.0,1.0,0.743,0.0,17.0,17.0,17.0,1.0,,,,,,,,,,,,,,,
,,,,,,,,,,,,,,,,,,,,,,,,,,,,,,,,,,,,,,,,,,,cap_05s.jpg,0.0,Blue.png,4.0,73,,,,,,,,,,,,,,0.0,1.0,0.6722,0.0,18.0,18.0,18.0,1.0,,,,,,,,,,,,,,,
,,,,,,,,,,,,,,,,,,,,,,,,,,,,,,,,,,,,,,,,,,,ice-cream_cone_06s.jpg,0.0,Purple.png,4.0,73,,,,,,,,,,,,,,0.0,1.0,0.6195,0.0,19.0,19.0,19.0,1.0,,,,,,,,,,,,,,,
,,,,,,,,,,,,,,,,,,,,,,,,,,,,,,,,,,,,,,,,,,,purse_05s.jpg,0.0,Red.png,4.0,73,,,,,,,,,,,,,,0.0,1.0,0.6605,0.0,20.0,20.0,20.0,1.0,,,,,,,,,,,,,,,
,,,,,,,,,,,,,,,,,,,,,,,,,,,,,,,,,,,,,,,,,,,squirrel_02s.jpg,0.0,Orange.png,4.0,73,,,,,,,,,,,,,,0.0,1.0,0.5877,0.0,21.0,21.0,21.0,1.0,,,,,,,,,,,,,,,
,,,,,,,,,,,,,,,,,,,,,,,,,,,,,,,,,,,,,,,,,,,cap_05s.jpg,1.0,Yellow.png,4.0,73,,,,,,,,,,,,,,1.0,1.0,1.7711,0.0,22.0,22.0,22.0,1.0,,,,,,,,,,,,,,,
,,,,,,,,,,,,,,,,,,,,,,,,,,,,,,,,,,,,,,,,,,,pie_08s.jpg,0.0,Green.png,4.0,73,,,,,,,,,,,,,,0.0,1.0,0.6635,0.0,23.0,23.0,23.0,1.0,,,,,,,,,,,,,,,
,,,,,,,,,,,,,,,,,,,,,,,,,,,,,,,,,,,,,,,,,,,thread_08s.jpg,0.0,Blue.png,5.0,73,,,,,,,,,,,,,,0.0,1.0,0.7508,0.0,24.0,24.0,24.0,1.0,,,,,,,,,,,,,,,
,,,,,,,,,,,,,,,,,,,,,,,,,,,,,,,,,,,,,,,,,,,punch1_10s.jpg,0.0,Purple.png,5.0,73,,,,,,,,,,,,,,0.0,1.0,0.6806,0.0,25.0,25.0,25.0,1.0,,,,,,,,,,,,,,,
,,,,,,,,,,,,,,,,,,,,,,,,,,,,,,,,,,,,,,,,,,,cereal_04s.jpg,0.0,Red.png,5.0,73,,,,,,,,,,,,,,0.0,1.0,0.9581,0.0,26.0,26.0,26.0,1.0,,,,,,,,,,,,,,,
,,,,,,,,,,,,,,,,,,,,,,,,,,,,,,,,,,,,,,,,,,,espresso_01b.jpg,0.0,Orange.png,5.0,73,,,,,,,,,,,,,,0.0,1.0,0.7723,0.0,27.0,27.0,27.0,1.0,,,,,,,,,,,,,,,
,,,,,,,,,,,,,,,,,,,,,,,,,,,,,,,,,,,,,,,,,,,cereal_04s.jpg,1.0,Yellow.png,5.0,73,,,,,,,,,,,,,,1.0,1.0,1.7943,0.0,28.0,28.0,28.0,1.0,,,,,,,,,,,,,,,
,,,,,,,,,,,,,,,,,,,,,,,,,,,,,,,,,,,,,,,,,,,cereal_04s.jpg,1.0,Green.png,5.0,73,,,,,,,,,,,,,,1.0,1.0,1.319,0.0,29.0,29.0,29.0,1.0,,,,,,,,,,,,,,,
,,,,,,,,,,,,,,,,,,,,,,,,,,,,,,,,,,,,,,,,,,,tube_top_03s.jpg,0.0,Blue.png,6.0,73,,,,,,,,,,,,,,0.0,1.0,0.8137,0.0,30.0,30.0,30.0,1.0,,,,,,,,,,,,,,,
,,,,,,,,,,,,,,,,,,,,,,,,,,,,,,,,,,,,,,,,,,,pepper2_21s.jpg,0.0,Purple.png,6.0,73,,,,,,,,,,,,,,0.0,1.0,0.9233,0.0,31.0,31.0,31.0,1.0,,,,,,,,,,,,,,,
,,,,,,,,,,,,,,,,,,,,,,,,,,,,,,,,,,,,,,,,,,,jersey_02s.jpg,0.0,Red.png,6.0,73,,,,,,,,,,,,,,0.0,1.0,0.6858,0.0,32.0,32.0,32.0,1.0,,,,,,,,,,,,,,,
,,,,,,,,,,,,,,,,,,,,,,,,,,,,,,,,,,,,,,,,,,,mussel_11s.jpg,0.0,Orange.png,6.0,73,,,,,,,,,,,,,,0.0,1.0,0.729,0.0,33.0,33.0,33.0,1.0,,,,,,,,,,,,,,,
,,,,,,,,,,,,,,,,,,,,,,,,,,,,,,,,,,,,,,,,,,,toaster_03s.jpg,0.0,Yellow.png,6.0,73,,,,,,,,,,,,,,0.0,1.0,0.9147,0.0,34.0,34.0,34.0,1.0,,,,,,,,,,,,,,,
,,,,,,,,,,,,,,,,,,,,,,,,,,,,,,,,,,,,,,,,,,,tie_03s.jpg,0.0,Green.png,6.0,73,,,,,,,,,,,,,,0.0,1.0,0.643,0.0,35.0,35.0,35.0,1.0,,,,,,,,,,,,,,,
,,,,,,,,,,,,,,,,,,,,,,,,,,,,,,,,,,,,,,,,,,,,0.0,,,73,,,,,,,,,,ice-cream_cone_06s.jpg,police_car_01s.jpg,,,,,,,,,,,0.0,1.0,1.4825,0.0,0.0,0.0,0.0,1.0,,,,,,,
,,,,,,,,,,,,,,,,,,,,,,,,,,,,,,,,,,,,,,,,,,,,0.0,,,73,,,,,,,,,,turf_03s.jpg,pincushion_10s.jpg,,,,,,,,,,,0.0,1.0,1.193,0.0,1.0,1.0,1.0,1.0,,,,,,,
,,,,,,,,,,,,,,,,,,,,,,,,,,,,,,,,,,,,,,,,,,,,0.0,,,73,,,,,,,,,,purse_05s.jpg,ginger_09s.jpg,,,,,,,,,,,1.0,0.0,1.4597,0.0,2.0,2.0,2.0,1.0,,,,,,,
,,,,,,,,,,,,,,,,,,,,,,,,,,,,,,,,,,,,,,,,,,,,1.0,,,73,,,,,,,,,,jersey_02s.jpg,tie_03s.jpg,,,,,,,,,,,1.0,1.0,1.3776,0.0,3.0,3.0,3.0,1.0,,,,,,,
,,,,,,,,,,,,,,,,,,,,,,,,,,,,,,,,,,,,,,,,,,,,0.0,,,73,,,,,,,,,,toaster_03s.jpg,pepper2_21s.jpg,,,,,,,,,,,1.0,0.0,1.2779,0.0,4.0,4.0,4.0,1.0,,,,,,,
,,,,,,,,,,,,,,,,,,,,,,,,,,,,,,,,,,,,,,,,,,,,0.0,,,73,,,,,,,,,,thread_08s.jpg,squirrel_02s.jpg,,,,,,,,,,,0.0,1.0,1.058,0.0,5.0,5.0,5.0,1.0,,,,,,,
,,,,,,,,,,,,,,,,,,,,,,,,,,,,,,,,,,,,,,,,,,,,,,,73,,,,,,,,,,,,,,,,,,,,,,,,,,,,,,0.0,4.0,4.0,4.0,1.0,newclockpresent_5_1.xlsx,newclock_compare_task_5_1.xlsx
,,,,,,,,,,,,,,,,,,,,,,,,,,,,,,,,,,,,,,,,,,,omelet_07s.jpg,0.0,Blue.png,1.0,73,,,,,,,,,,,,,,0.0,1.0,2.0204,0.0,0.0,0.0,0.0,1.0,,,,,,,,,,,,,,,
,,,,,,,,,,,,,,,,,,,,,,,,,,,,,,,,,,,,,,,,,,,popsicle_02s.jpg,0.0,Purple.png,1.0,73,,,,,,,,,,,,,,0.0,1.0,0.6386,0.0,1.0,1.0,1.0,1.0,,,,,,,,,,,,,,,
,,,,,,,,,,,,,,,,,,,,,,,,,,,,,,,,,,,,,,,,,,,letter_opener_03s.jpg,0.0,Red.png,1.0,73,,,,,,,,,,,,,,0.0,1.0,1.3544,0.0,2.0,2.0,2.0,1.0,,,,,,,,,,,,,,,
,,,,,,,,,,,,,,,,,,,,,,,,,,,,,,,,,,,,,,,,,,,diving_board_07s.jpg,0.0,Orange.png,1.0,73,,,,,,,,,,,,,,0.0,1.0,0.7888,0.0,3.0,3.0,3.0,1.0,,,,,,,,,,,,,,,
,,,,,,,,,,,,,,,,,,,,,,,,,,,,,,,,,,,,,,,,,,,omelet_07s.jpg,1.0,Yellow.png,1.0,73,,,,,,,,,,,,,,0.0,0.0,1.2154,0.0,4.0,4.0,4.0,1.0,,,,,,,,,,,,,,,
,,,,,,,,,,,,,,,,,,,,,,,,,,,,,,,,,,,,,,,,,,,letter_opener_03s.jpg,1.0,Green.png,1.0,73,,,,,,,,,,,,,,0.0,0.0,0.6395,0.0,5.0,5.0,5.0,1.0,,,,,,,,,,,,,,,
,,,,,,,,,,,,,,,,,,,,,,,,,,,,,,,,,,,,,,,,,,,omelet_07s.jpg,0.0,Blue.png,2.0,73,,,,,,,,,,,,,,0.0,1.0,0.9005,0.0,6.0,6.0,6.0,1.0,,,,,,,,,,,,,,,
,,,,,,,,,,,,,,,,,,,,,,,,,,,,,,,,,,,,,,,,,,,cape_11s.jpg,0.0,Purple.png,2.0,73,,,,,,,,,,,,,,0.0,1.0,0.7072,0.0,7.0,7.0,7.0,1.0,,,,,,,,,,,,,,,
,,,,,,,,,,,,,,,,,,,,,,,,,,,,,,,,,,,,,,,,,,,omelet_07s.jpg,1.0,Red.png,2.0,73,,,,,,,,,,,,,,0.0,0.0,0.4413,0.0,8.0,8.0,8.0,1.0,,,,,,,,,,,,,,,
,,,,,,,,,,,,,,,,,,,,,,,,,,,,,,,,,,,,,,,,,,,lantern_04s.jpg,0.0,Orange.png,2.0,73,,,,,,,,,,,,,,0.0,1.0,0.662,0.0,9.0,9.0,9.0,1.0,,,,,,,,,,,,,,,
,,,,,,,,,,,,,,,,,,,,,,,,,,,,,,,,,,,,,,,,,,,leotard_08s.jpg,0.0,Yellow.png,2.0,73,,,,,,,,,,,,,,0.0,1.0,0.759,0.0,10.0,10.0,10.0,1.0,,,,,,,,,,,,,,,
,,,,,,,,,,,,,,,,,,,,,,,,,,,,,,,,,,,,,,,,,,,pacifier_09s.jpg,0.0,Green.png,2.0,73,,,,,,,,,,,,,,0.0,1.0,0.8849,0.0,11.0,11.0,11.0,1.0,,,,,,,,,,,,,,,
,,,,,,,,,,,,,,,,,,,,,,,,,,,,,,,,,,,,,,,,,,,rocking_horse_03s.jpg,0.0,Blue.png,3.0,73,,,,,,,,,,,,,,0.0,1.0,0.6786,0.0,12.0,12.0,12.0,1.0,,,,,,,,,,,,,,,
,,,,,,,,,,,,,,,,,,,,,,,,,,,,,,,,,,,,,,,,,,,cardinal_07s.jpg,0.0,Purple.png,3.0,73,,,,,,,,,,,,,,0.0,1.0,0.6143,0.0,13.0,13.0,13.0,1.0,,,,,,,,,,,,,,,
,,,,,,,,,,,,,,,,,,,,,,,,,,,,,,,,,,,,,,,,,,,hyena_16s.jpg,0.0,Red.png,3.0,73,,,,,,,,,,,,,,0.0,1.0,0.7008,0.0,14.0,14.0,14.0,1.0,,,,,,,,,,,,,,,
,,,,,,,,,,,,,,,,,,,,,,,,,,,,,,,,,,,,,,,,,,,oil_02s.jpg,0.0,Orange.png,3.0,73,,,,,,,,,,,,,,0.0,1.0,0.6832,0.0,15.0,15.0,15.0,1.0,,,,,,,,,,,,,,,
,,,,,,,,,,,,,,,,,,,,,,,,,,,,,,,,,,,,,,,,,,,marshmallow_08s.jpg,0.0,Yellow.png,3.0,73,,,,,,,,,,,,,,0.0,1.0,0.8649,0.0,16.0,16.0,16.0,1.0,,,,,,,,,,,,,,,
,,,,,,,,,,,,,,,,,,,,,,,,,,,,,,,,,,,,,,,,,,,oil_02s.jpg,1.0,Green.png,3.0,73,,,,,,,,,,,,,,0.0,0.0,1.0816,0.0,17.0,17.0,17.0,1.0,,,,,,,,,,,,,,,
,,,,,,,,,,,,,,,,,,,,,,,,,,,,,,,,,,,,,,,,,,,omelet_07s.jpg,0.0,Blue.png,4.0,73,,,,,,,,,,,,,,0.0,1.0,0.5302,0.0,18.0,18.0,18.0,1.0,,,,,,,,,,,,,,,
,,,,,,,,,,,,,,,,,,,,,,,,,,,,,,,,,,,,,,,,,,,oil_02s.jpg,0.0,Purple.png,4.0,73,,,,,,,,,,,,,,0.0,1.0,0.749,0.0,19.0,19.0,19.0,1.0,,,,,,,,,,,,,,,
,,,,,,,,,,,,,,,,,,,,,,,,,,,,,,,,,,,,,,,,,,,knitting_needle_04s.jpg,0.0,Red.png,4.0,73,,,,,,,,,,,,,,0.0,1.0,0.6778,0.0,20.0,20.0,20.0,1.0,,,,,,,,,,,,,,,
,,,,,,,,,,,,,,,,,,,,,,,,,,,,,,,,,,,,,,,,,,,oil_02s.jpg,1.0,Orange.png,4.0,73,,,,,,,,,,,,,,1.0,1.0,1.9281,0.0,21.0,21.0,21.0,1.0,,,,,,,,,,,,,,,
,,,,,,,,,,,,,,,,,,,,,,,,,,,,,,,,,,,,,,,,,,,ice_pack_09s.jpg,0.0,Yellow.png,4.0,73,,,,,,,,,,,,,,0.0,1.0,0.6569,0.0,22.0,22.0,22.0,1.0,,,,,,,,,,,,,,,
,,,,,,,,,,,,,,,,,,,,,,,,,,,,,,,,,,,,,,,,,,,peppermint_07s.jpg,0.0,Green.png,4.0,73,,,,,,,,,,,,,,0.0,1.0,0.6576,0.0,23.0,23.0,23.0,1.0,,,,,,,,,,,,,,,
,,,,,,,,,,,,,,,,,,,,,,,,,,,,,,,,,,,,,,,,,,,submarine_11n.jpg,0.0,Blue.png,5.0,73,,,,,,,,,,,,,,0.0,1.0,0.7658,0.0,24.0,24.0,24.0,1.0,,,,,,,,,,,,,,,
,,,,,,,,,,,,,,,,,,,,,,,,,,,,,,,,,,,,,,,,,,,seagull_01b.jpg,0.0,Purple.png,5.0,73,,,,,,,,,,,,,,0.0,1.0,0.7064,0.0,25.0,25.0,25.0,1.0,,,,,,,,,,,,,,,
,,,,,,,,,,,,,,,,,,,,,,,,,,,,,,,,,,,,,,,,,,,omelet_07s.jpg,0.0,Red.png,5.0,73,,,,,,,,,,,,,,1.0,0.0,0.8774,0.0,26.0,26.0,26.0,1.0,,,,,,,,,,,,,,,
,,,,,,,,,,,,,,,,,,,,,,,,,,,,,,,,,,,,,,,,,,,bonsai_07s.jpg,0.0,Orange.png,5.0,73,,,,,,,,,,,,,,0.0,1.0,0.9166,0.0,27.0,27.0,27.0,1.0,,,,,,,,,,,,,,,
,,,,,,,,,,,,,,,,,,,,,,,,,,,,,,,,,,,,,,,,,,,bonsai_07s.jpg,1.0,Yellow.png,5.0,73,,,,,,,,,,,,,,0.0,0.0,1.3574,0.0,28.0,28.0,28.0,1.0,,,,,,,,,,,,,,,
,,,,,,,,,,,,,,,,,,,,,,,,,,,,,,,,,,,,,,,,,,,omelet_07s.jpg,1.0,Green.png,5.0,73,,,,,,,,,,,,,,1.0,1.0,0.8253,0.0,29.0,29.0,29.0,1.0,,,,,,,,,,,,,,,
,,,,,,,,,,,,,,,,,,,,,,,,,,,,,,,,,,,,,,,,,,,bonsai_07s.jpg,0.0,Blue.png,6.0,73,,,,,,,,,,,,,,1.0,0.0,1.5395,0.0,30.0,30.0,30.0,1.0,,,,,,,,,,,,,,,
,,,,,,,,,,,,,,,,,,,,,,,,,,,,,,,,,,,,,,,,,,,quilt_03s.jpg,0.0,Purple.png,6.0,73,,,,,,,,,,,,,,0.0,1.0,0.9744,0.0,31.0,31.0,31.0,1.0,,,,,,,,,,,,,,,
,,,,,,,,,,,,,,,,,,,,,,,,,,,,,,,,,,,,,,,,,,,incense_02s.jpg,0.0,Red.png,6.0,73,,,,,,,,,,,,,,0.0,1.0,0.8277,0.0,32.0,32.0,32.0,1.0,,,,,,,,,,,,,,,
,,,,,,,,,,,,,,,,,,,,,,,,,,,,,,,,,,,,,,,,,,,quilt_03s.jpg,1.0,Orange.png,6.0,73,,,,,,,,,,,,,,1.0,1.0,0.8802,0.0,33.0,33.0,33.0,1.0,,,,,,,,,,,,,,,
,,,,,,,,,,,,,,,,,,,,,,,,,,,,,,,,,,,,,,,,,,,incense_02s.jpg,1.0,Yellow.png,6.0,73,,,,,,,,,,,,,,1.0,1.0,0.8416,0.0,34.0,34.0,34.0,1.0,,,,,,,,,,,,,,,
,,,,,,,,,,,,,,,,,,,,,,,,,,,,,,,,,,,,,,,,,,,incense_02s.jpg,1.0,Green.png,6.0,73,,,,,,,,,,,,,,1.0,1.0,0.7621,0.0,35.0,35.0,35.0,1.0,,,,,,,,,,,,,,,
,,,,,,,,,,,,,,,,,,,,,,,,,,,,,,,,,,,,,,,,,,,,1.0,,,73,,,,,,,,,,pacifier_09s.jpg,hyena_16s.jpg,,,,,,,,,,,0.0,0.0,1.9403,0.0,0.0,0.0,0.0,1.0,,,,,,,
,,,,,,,,,,,,,,,,,,,,,,,,,,,,,,,,,,,,,,,,,,,,0.0,,,73,,,,,,,,,,peppermint_07s.jpg,knitting_needle_04s.jpg,,,,,,,,,,,0.0,1.0,1.1757,0.0,1.0,1.0,1.0,1.0,,,,,,,
,,,,,,,,,,,,,,,,,,,,,,,,,,,,,,,,,,,,,,,,,,,,1.0,,,73,,,,,,,,,,ice_pack_09s.jpg,seagull_01b.jpg,,,,,,,,,,,0.0,0.0,1.0035,0.0,2.0,2.0,2.0,1.0,,,,,,,
,,,,,,,,,,,,,,,,,,,,,,,,,,,,,,,,,,,,,,,,,,,,0.0,,,73,,,,,,,,,,marshmallow_08s.jpg,cardinal_07s.jpg,,,,,,,,,,,0.0,1.0,0.8587,0.0,3.0,3.0,3.0,1.0,,,,,,,
,,,,,,,,,,,,,,,,,,,,,,,,,,,,,,,,,,,,,,,,,,,,1.0,,,73,,,,,,,,,,cape_11s.jpg,leotard_08s.jpg,,,,,,,,,,,0.0,0.0,0.9682,0.0,4.0,4.0,4.0,1.0,,,,,,,
,,,,,,,,,,,,,,,,,,,,,,,,,,,,,,,,,,,,,,,,,,,,1.0,,,73,,,,,,,,,,lantern_04s.jpg,rocking_horse_03s.jpg,,,,,,,,,,,0.0,0.0,0.5994,0.0,5.0,5.0,5.0,1.0,,,,,,,
,,,,,,,,,,,,,,,,,,,,,,,,,,,,,,,,,,,,,,,,,,,,,,,73,,,,,,,,,,,,,,,,,,,,,,,,,,,,,,0.0,5.0,5.0,5.0,1.0,newclockpresent_6_1.xlsx,newclock_compare_task_6_1.xlsx
,,,,,,,,,,,,,,,,,,,,,,,,,,,,,,,,,,,,,,,,,,,petri_dish_12s.jpg,0.0,Blue.png,1.0,73,,,,,,,,,,,,,,0.0,1.0,1.9022,0.0,0.0,0.0,0.0,1.0,,,,,,,,,,,,,,,
,,,,,,,,,,,,,,,,,,,,,,,,,,,,,,,,,,,,,,,,,,,toothpaste_12s.jpg,0.0,Purple.png,1.0,73,,,,,,,,,,,,,,0.0,1.0,0.7155,0.0,1.0,1.0,1.0,1.0,,,,,,,,,,,,,,,
,,,,,,,,,,,,,,,,,,,,,,,,,,,,,,,,,,,,,,,,,,,medal_04s.jpg,0.0,Red.png,1.0,73,,,,,,,,,,,,,,0.0,1.0,0.7226,0.0,2.0,2.0,2.0,1.0,,,,,,,,,,,,,,,
,,,,,,,,,,,,,,,,,,,,,,,,,,,,,,,,,,,,,,,,,,,potholder_02s.jpg,0.0,Orange.png,1.0,73,,,,,,,,,,,,,,0.0,1.0,0.6759,0.0,3.0,3.0,3.0,1.0,,,,,,,,,,,,,,,
,,,,,,,,,,,,,,,,,,,,,,,,,,,,,,,,,,,,,,,,,,,puck_06s.jpg,0.0,Yellow.png,1.0,73,,,,,,,,,,,,,,0.0,1.0,1.4943,0.0,4.0,4.0,4.0,1.0,,,,,,,,,,,,,,,
,,,,,,,,,,,,,,,,,,,,,,,,,,,,,,,,,,,,,,,,,,,bagel_15s.jpg,0.0,Green.png,1.0,73,,,,,,,,,,,,,,0.0,1.0,0.7108,0.0,5.0,5.0,5.0,1.0,,,,,,,,,,,,,,,
,,,,,,,,,,,,,,,,,,,,,,,,,,,,,,,,,,,,,,,,,,,golf_club_03s.jpg,0.0,Blue.png,2.0,73,,,,,,,,,,,,,,0.0,1.0,0.7174,0.0,6.0,6.0,6.0,1.0,,,,,,,,,,,,,,,
,,,,,,,,,,,,,,,,,,,,,,,,,,,,,,,,,,,,,,,,,,,golf_club_03s.jpg,1.0,Purple.png,2.0,73,,,,,,,,,,,,,,1.0,1.0,2.1771,0.0,7.0,7.0,7.0,1.0,,,,,,,,,,,,,,,
,,,,,,,,,,,,,,,,,,,,,,,,,,,,,,,,,,,,,,,,,,,golf_club_03s.jpg,1.0,Red.png,2.0,73,,,,,,,,,,,,,,1.0,1.0,0.608,0.0,8.0,8.0,8.0,1.0,,,,,,,,,,,,,,,
,,,,,,,,,,,,,,,,,,,,,,,,,,,,,,,,,,,,,,,,,,,inhaler_01b.jpg,0.0,Orange.png,2.0,73,,,,,,,,,,,,,,0.0,1.0,0.9093,0.0,9.0,9.0,9.0,1.0,,,,,,,,,,,,,,,
,,,,,,,,,,,,,,,,,,,,,,,,,,,,,,,,,,,,,,,,,,,golf_club_03s.jpg,1.0,Yellow.png,2.0,73,,,,,,,,,,,,,,1.0,1.0,1.5093,0.0,10.0,10.0,10.0,1.0,,,,,,,,,,,,,,,
,,,,,,,,,,,,,,,,,,,,,,,,,,,,,,,,,,,,,,,,,,,tiger_06s.jpg,0.0,Green.png,2.0,73,,,,,,,,,,,,,,0.0,1.0,0.7431,0.0,11.0,11.0,11.0,1.0,,,,,,,,,,,,,,,
,,,,,,,,,,,,,,,,,,,,,,,,,,,,,,,,,,,,,,,,,,,medal_04s.jpg,0.0,Blue.png,3.0,73,,,,,,,,,,,,,,1.0,0.0,1.9591,0.0,12.0,12.0,12.0,1.0,,,,,,,,,,,,,,,
,,,,,,,,,,,,,,,,,,,,,,,,,,,,,,,,,,,,,,,,,,,medal_04s.jpg,1.0,Purple.png,3.0,73,,,,,,,,,,,,,,1.0,1.0,0.8642,0.0,13.0,13.0,13.0,1.0,,,,,,,,,,,,,,,
,,,,,,,,,,,,,,,,,,,,,,,,,,,,,,,,,,,,,,,,,,,medal_04s.jpg,1.0,Red.png,3.0,73,,,,,,,,,,,,,,1.0,1.0,0.6223,0.0,14.0,14.0,14.0,1.0,,,,,,,,,,,,,,,
,,,,,,,,,,,,,,,,,,,,,,,,,,,,,,,,,,,,,,,,,,,licorice_06s.jpg,0.0,Orange.png,3.0,73,,,,,,,,,,,,,,0.0,1.0,0.8264,0.0,15.0,15.0,15.0,1.0,,,,,,,,,,,,,,,
,,,,,,,,,,,,,,,,,,,,,,,,,,,,,,,,,,,,,,,,,,,medal_04s.jpg,1.0,Yellow.png,3.0,73,,,,,,,,,,,,,,1.0,1.0,0.8769,0.0,16.0,16.0,16.0,1.0,,,,,,,,,,,,,,,
,,,,,,,,,,,,,,,,,,,,,,,,,,,,,,,,,,,,,,,,,,,frog_09s.jpg,0.0,Green.png,3.0,73,,,,,,,,,,,,,,0.0,1.0,0.7431,0.0,17.0,17.0,17.0,1.0,,,,,,,,,,,,,,,
,,,,,,,,,,,,,,,,,,,,,,,,,,,,,,,,,,,,,,,,,,,laser_pointer_02s.jpg,0.0,Blue.png,4.0,73,,,,,,,,,,,,,,0.0,1.0,0.898,0.0,18.0,18.0,18.0,1.0,,,,,,,,,,,,,,,
,,,,,,,,,,,,,,,,,,,,,,,,,,,,,,,,,,,,,,,,,,,treasure_08s.jpg,0.0,Purple.png,4.0,73,,,,,,,,,,,,,,0.0,1.0,0.7942,0.0,19.0,19.0,19.0,1.0,,,,,,,,,,,,,,,
,,,,,,,,,,,,,,,,,,,,,,,,,,,,,,,,,,,,,,,,,,,padlock_07s.jpg,0.0,Red.png,4.0,73,,,,,,,,,,,,,,0.0,1.0,0.6434,0.0,20.0,20.0,20.0,1.0,,,,,,,,,,,,,,,
,,,,,,,,,,,,,,,,,,,,,,,,,,,,,,,,,,,,,,,,,,,panda_02s.jpg,0.0,Orange.png,4.0,73,,,,,,,,,,,,,,0.0,1.0,0.6245,0.0,21.0,21.0,21.0,1.0,,,,,,,,,,,,,,,
,,,,,,,,,,,,,,,,,,,,,,,,,,,,,,,,,,,,,,,,,,,plunger_08s.jpg,0.0,Yellow.png,4.0,73,,,,,,,,,,,,,,0.0,1.0,1.0382,0.0,22.0,22.0,22.0,1.0,,,,,,,,,,,,,,,
,,,,,,,,,,,,,,,,,,,,,,,,,,,,,,,,,,,,,,,,,,,pancake_12s.jpg,0.0,Green.png,4.0,73,,,,,,,,,,,,,,0.0,1.0,0.7294,0.0,23.0,23.0,23.0,1.0,,,,,,,,,,,,,,,
,,,,,,,,,,,,,,,,,,,,,,,,,,,,,,,,,,,,,,,,,,,fire_pit_10s.jpg,0.0,Blue.png,5.0,73,,,,,,,,,,,,,,0.0,1.0,1.3951,0.0,24.0,24.0,24.0,1.0,,,,,,,,,,,,,,,
,,,,,,,,,,,,,,,,,,,,,,,,,,,,,,,,,,,,,,,,,,,bubble_01b.jpg,0.0,Purple.png,5.0,73,,,,,,,,,,,,,,0.0,1.0,1.6777,0.0,25.0,25.0,25.0,1.0,,,,,,,,,,,,,,,
,,,,,,,,,,,,,,,,,,,,,,,,,,,,,,,,,,,,,,,,,,,bubble_01b.jpg,1.0,Red.png,5.0,73,,,,,,,,,,,,,,1.0,1.0,1.892,0.0,26.0,26.0,26.0,1.0,,,,,,,,,,,,,,,
,,,,,,,,,,,,,,,,,,,,,,,,,,,,,,,,,,,,,,,,,,,bubble_01b.jpg,1.0,Orange.png,5.0,73,,,,,,,,,,,,,,1.0,1.0,0.9991,0.0,27.0,27.0,27.0,1.0,,,,,,,,,,,,,,,
,,,,,,,,,,,,,,,,,,,,,,,,,,,,,,,,,,,,,,,,,,,bubble_01b.jpg,1.0,Yellow.png,5.0,73,,,,,,,,,,,,,,1.0,1.0,1.2728,0.0,28.0,28.0,28.0,1.0,,,,,,,,,,,,,,,
,,,,,,,,,,,,,,,,,,,,,,,,,,,,,,,,,,,,,,,,,,,power_line_08s.jpg,0.0,Green.png,5.0,73,,,,,,,,,,,,,,0.0,1.0,1.0432,0.0,29.0,29.0,29.0,1.0,,,,,,,,,,,,,,,
,,,,,,,,,,,,,,,,,,,,,,,,,,,,,,,,,,,,,,,,,,,golf_club_03s.jpg,0.0,Blue.png,6.0,73,,,,,,,,,,,,,,1.0,0.0,1.9767,0.0,30.0,30.0,30.0,1.0,,,,,,,,,,,,,,,
,,,,,,,,,,,,,,,,,,,,,,,,,,,,,,,,,,,,,,,,,,,kilt_18s.jpg,0.0,Purple.png,6.0,73,,,,,,,,,,,,,,0.0,1.0,1.6542,0.0,31.0,31.0,31.0,1.0,,,,,,,,,,,,,,,
,,,,,,,,,,,,,,,,,,,,,,,,,,,,,,,,,,,,,,,,,,,tupperware_09s.jpg,0.0,Red.png,6.0,73,,,,,,,,,,,,,,0.0,1.0,0.9548,0.0,32.0,32.0,32.0,1.0,,,,,,,,,,,,,,,
,,,,,,,,,,,,,,,,,,,,,,,,,,,,,,,,,,,,,,,,,,,go-kart_10s.jpg,0.0,Orange.png,6.0,73,,,,,,,,,,,,,,0.0,1.0,1.9441,0.0,33.0,33.0,33.0,1.0,,,,,,,,,,,,,,,
,,,,,,,,,,,,,,,,,,,,,,,,,,,,,,,,,,,,,,,,,,,bottle_opener_11s.jpg,0.0,Yellow.png,6.0,73,,,,,,,,,,,,,,0.0,1.0,1.5824,0.0,34.0,34.0,34.0,1.0,,,,,,,,,,,,,,,
,,,,,,,,,,,,,,,,,,,,,,,,,,,,,,,,,,,,,,,,,,,go-kart_10s.jpg,1.0,Green.png,6.0,73,,,,,,,,,,,,,,0.0,0.0,0.5925,0.0,35.0,35.0,35.0,1.0,,,,,,,,,,,,,,,
,,,,,,,,,,,,,,,,,,,,,,,,,,,,,,,,,,,,,,,,,,,,1.0,,,73,,,,,,,,,,toothpaste_12s.jpg,puck_06s.jpg,,,,,,,,,,,1.0,1.0,1.3006,0.0,0.0,0.0,0.0,1.0,,,,,,,
,,,,,,,,,,,,,,,,,,,,,,,,,,,,,,,,,,,,,,,,,,,,0.0,,,73,,,,,,,,,,padlock_07s.jpg,frog_09s.jpg,,,,,,,,,,,1.0,0.0,2.1516,0.0,1.0,1.0,1.0,1.0,,,,,,,
,,,,,,,,,,,,,,,,,,,,,,,,,,,,,,,,,,,,,,,,,,,,0.0,,,73,,,,,,,,,,plunger_08s.jpg,treasure_08s.jpg,,,,,,,,,,,0.0,1.0,1.0782,0.0,2.0,2.0,2.0,1.0,,,,,,,
,,,,,,,,,,,,,,,,,,,,,,,,,,,,,,,,,,,,,,,,,,,,1.0,,,73,,,,,,,,,,licorice_06s.jpg,laser_pointer_02s.jpg,,,,,,,,,,,1.0,1.0,1.2377,0.0,3.0,3.0,3.0,1.0,,,,,,,
,,,,,,,,,,,,,,,,,,,,,,,,,,,,,,,,,,,,,,,,,,,,1.0,,,73,,,,,,,,,,petri_dish_12s.jpg,potholder_02s.jpg,,,,,,,,,,,0.0,0.0,1.22,0.0,4.0,4.0,4.0,1.0,,,,,,,
,,,,,,,,,,,,,,,,,,,,,,,,,,,,,,,,,,,,,,,,,,,,0.0,,,73,,,,,,,,,,tupperware_09s.jpg,power_line_08s.jpg,,,,,,,,,,,0.0,1.0,1.4263,0.0,5.0,5.0,5.0,1.0,,,,,,,
,,,,,,,,,,,,,,,,,,,,,,,,,,,,,,,,,,,,,,,,,,,,,,,73,,,,,,,,,,,,,,,,,,,,,,,,,,,,,,0.0,6.0,6.0,6.0,1.0,newclockpresent_7_1.xlsx,newclock_compare_task_7_1.xlsx
,,,,,,,,,,,,,,,,,,,,,,,,,,,,,,,,,,,,,,,,,,,toad_09s.jpg,0.0,Blue.png,1.0,73,,,,,,,,,,,,,,0.0,1.0,1.6541,0.0,0.0,0.0,0.0,1.0,,,,,,,,,,,,,,,
,,,,,,,,,,,,,,,,,,,,,,,,,,,,,,,,,,,,,,,,,,,toad_09s.jpg,1.0,Purple.png,1.0,73,,,,,,,,,,,,,,1.0,1.0,2.4278,0.0,1.0,1.0,1.0,1.0,,,,,,,,,,,,,,,
,,,,,,,,,,,,,,,,,,,,,,,,,,,,,,,,,,,,,,,,,,,toad_09s.jpg,1.0,Red.png,1.0,73,,,,,,,,,,,,,,0.0,0.0,1.0584,0.0,2.0,2.0,2.0,1.0,,,,,,,,,,,,,,,
,,,,,,,,,,,,,,,,,,,,,,,,,,,,,,,,,,,,,,,,,,,lamb_04s.jpg,0.0,Orange.png,1.0,73,,,,,,,,,,,,,,0.0,1.0,0.7951,0.0,3.0,3.0,3.0,1.0,,,,,,,,,,,,,,,
,,,,,,,,,,,,,,,,,,,,,,,,,,,,,,,,,,,,,,,,,,,toad_09s.jpg,1.0,Yellow.png,1.0,73,,,,,,,,,,,,,,,0.0,,0.0,4.0,4.0,4.0,1.0,,,,,,,,,,,,,,,
,,,,,,,,,,,,,,,,,,,,,,,,,,,,,,,,,,,,,,,,,,,possum_09s.jpg,0.0,Green.png,1.0,73,,,,,,,,,,,,,,0.0,1.0,0.6832,0.0,5.0,5.0,5.0,1.0,,,,,,,,,,,,,,,
,,,,,,,,,,,,,,,,,,,,,,,,,,,,,,,,,,,,,,,,,,,reindeer_08s.jpg,0.0,Blue.png,2.0,73,,,,,,,,,,,,,,0.0,1.0,0.6498,0.0,6.0,6.0,6.0,1.0,,,,,,,,,,,,,,,
,,,,,,,,,,,,,,,,,,,,,,,,,,,,,,,,,,,,,,,,,,,reindeer_08s.jpg,1.0,Purple.png,2.0,73,,,,,,,,,,,,,,0.0,0.0,0.8133,0.0,7.0,7.0,7.0,1.0,,,,,,,,,,,,,,,
,,,,,,,,,,,,,,,,,,,,,,,,,,,,,,,,,,,,,,,,,,,knot_01b.jpg,0.0,Red.png,2.0,73,,,,,,,,,,,,,,0.0,1.0,0.9544,0.0,8.0,8.0,8.0,1.0,,,,,,,,,,,,,,,
,,,,,,,,,,,,,,,,,,,,,,,,,,,,,,,,,,,,,,,,,,,reindeer_08s.jpg,1.0,Orange.png,2.0,73,,,,,,,,,,,,,,1.0,1.0,1.7061,0.0,9.0,9.0,9.0,1.0,,,,,,,,,,,,,,,
,,,,,,,,,,,,,,,,,,,,,,,,,,,,,,,,,,,,,,,,,,,pan_02s.jpg,0.0,Yellow.png,2.0,73,,,,,,,,,,,,,,0.0,1.0,1.0246,0.0,10.0,10.0,10.0,1.0,,,,,,,,,,,,,,,
,,,,,,,,,,,,,,,,,,,,,,,,,,,,,,,,,,,,,,,,,,,ladle_04s.jpg,0.0,Green.png,2.0,73,,,,,,,,,,,,,,0.0,1.0,1.0105,0.0,11.0,11.0,11.0,1.0,,,,,,,,,,,,,,,
,,,,,,,,,,,,,,,,,,,,,,,,,,,,,,,,,,,,,,,,,,,tuxedo_01b.jpg,0.0,Blue.png,3.0,73,,,,,,,,,,,,,,0.0,1.0,1.1233,0.0,12.0,12.0,12.0,1.0,,,,,,,,,,,,,,,
,,,,,,,,,,,,,,,,,,,,,,,,,,,,,,,,,,,,,,,,,,,lemonade_04s.jpg,0.0,Purple.png,3.0,73,,,,,,,,,,,,,,0.0,1.0,1.3224,0.0,13.0,13.0,13.0,1.0,,,,,,,,,,,,,,,
,,,,,,,,,,,,,,,,,,,,,,,,,,,,,,,,,,,,,,,,,,,cobra_05s.jpg,0.0,Red.png,3.0,73,,,,,,,,,,,,,,,0.0,,0.0,14.0,14.0,14.0,1.0,,,,,,,,,,,,,,,
,,,,,,,,,,,,,,,,,,,,,,,,,,,,,,,,,,,,,,,,,,,pocketknife_12s.jpg,0.0,Orange.png,3.0,73,,,,,,,,,,,,,,0.0,1.0,1.1054,0.0,15.0,15.0,15.0,1.0,,,,,,,,,,,,,,,
,,,,,,,,,,,,,,,,,,,,,,,,,,,,,,,,,,,,,,,,,,,kettle_08s.jpg,0.0,Yellow.png,3.0,73,,,,,,,,,,,,,,0.0,1.0,1.0952,0.0,16.0,16.0,16.0,1.0,,,,,,,,,,,,,,,
,,,,,,,,,,,,,,,,,,,,,,,,,,,,,,,,,,,,,,,,,,,spider_web_03s.jpg,0.0,Green.png,3.0,73,,,,,,,,,,,,,,0.0,1.0,0.8204,0.0,17.0,17.0,17.0,1.0,,,,,,,,,,,,,,,
,,,,,,,,,,,,,,,,,,,,,,,,,,,,,,,,,,,,,,,,,,,pretzel_09s.jpg,0.0,Blue.png,4.0,73,,,,,,,,,,,,,,0.0,1.0,0.6562,0.0,18.0,18.0,18.0,1.0,,,,,,,,,,,,,,,
,,,,,,,,,,,,,,,,,,,,,,,,,,,,,,,,,,,,,,,,,,,rock_08s.jpg,0.0,Purple.png,4.0,73,,,,,,,,,,,,,,0.0,1.0,0.6931,0.0,19.0,19.0,19.0,1.0,,,,,,,,,,,,,,,
,,,,,,,,,,,,,,,,,,,,,,,,,,,,,,,,,,,,,,,,,,,boar_10s.jpg,0.0,Red.png,4.0,73,,,,,,,,,,,,,,0.0,1.0,0.5705,0.0,20.0,20.0,20.0,1.0,,,,,,,,,,,,,,,
,,,,,,,,,,,,,,,,,,,,,,,,,,,,,,,,,,,,,,,,,,,sunglasses_11s.jpg,0.0,Orange.png,4.0,73,,,,,,,,,,,,,,0.0,1.0,1.0614,0.0,21.0,21.0,21.0,1.0,,,,,,,,,,,,,,,
,,,,,,,,,,,,,,,,,,,,,,,,,,,,,,,,,,,,,,,,,,,boar_10s.jpg,1.0,Yellow.png,4.0,73,,,,,,,,,,,,,,1.0,1.0,1.9072,0.0,22.0,22.0,22.0,1.0,,,,,,,,,,,,,,,
,,,,,,,,,,,,,,,,,,,,,,,,,,,,,,,,,,,,,,,,,,,smoothie_09s.jpg,0.0,Green.png,4.0,73,,,,,,,,,,,,,,0.0,1.0,0.9074,0.0,23.0,23.0,23.0,1.0,,,,,,,,,,,,,,,
,,,,,,,,,,,,,,,,,,,,,,,,,,,,,,,,,,,,,,,,,,,latch_15s.jpg,0.0,Blue.png,5.0,73,,,,,,,,,,,,,,0.0,1.0,0.9448,0.0,24.0,24.0,24.0,1.0,,,,,,,,,,,,,,,
,,,,,,,,,,,,,,,,,,,,,,,,,,,,,,,,,,,,,,,,,,,amber_04s.jpg,0.0,Purple.png,5.0,73,,,,,,,,,,,,,,0.0,1.0,0.8706,0.0,25.0,25.0,25.0,1.0,,,,,,,,,,,,,,,
,,,,,,,,,,,,,,,,,,,,,,,,,,,,,,,,,,,,,,,,,,,amber_04s.jpg,1.0,Red.png,5.0,73,,,,,,,,,,,,,,1.0,1.0,1.1196,0.0,26.0,26.0,26.0,1.0,,,,,,,,,,,,,,,
,,,,,,,,,,,,,,,,,,,,,,,,,,,,,,,,,,,,,,,,,,,tennis_ball_06s.jpg,0.0,Orange.png,5.0,73,,,,,,,,,,,,,,0.0,1.0,0.7528,0.0,27.0,27.0,27.0,1.0,,,,,,,,,,,,,,,
,,,,,,,,,,,,,,,,,,,,,,,,,,,,,,,,,,,,,,,,,,,amber_04s.jpg,1.0,Yellow.png,5.0,73,,,,,,,,,,,,,,1.0,1.0,1.0032,0.0,28.0,28.0,28.0,1.0,,,,,,,,,,,,,,,
,,,,,,,,,,,,,,,,,,,,,,,,,,,,,,,,,,,,,,,,,,,milk_02s.jpg,0.0,Green.png,5.0,73,,,,,,,,,,,,,,0.0,1.0,0.8614,0.0,29.0,29.0,29.0,1.0,,,,,,,,,,,,,,,
,,,,,,,,,,,,,,,,,,,,,,,,,,,,,,,,,,,,,,,,,,,coat_rack_01b.jpg,0.0,Blue.png,6.0,73,,,,,,,,,,,,,,0.0,1.0,0.9731,0.0,30.0,30.0,30.0,1.0,,,,,,,,,,,,,,,
,,,,,,,,,,,,,,,,,,,,,,,,,,,,,,,,,,,,,,,,,,,thorn_13s.jpg,0.0,Purple.png,6.0,73,,,,,,,,,,,,,,0.0,1.0,1.0872,0.0,31.0,31.0,31.0,1.0,,,,,,,,,,,,,,,
,,,,,,,,,,,,,,,,,,,,,,,,,,,,,,,,,,,,,,,,,,,coat_rack_01b.jpg,1.0,Red.png,6.0,73,,,,,,,,,,,,,,1.0,1.0,0.8396,0.0,32.0,32.0,32.0,1.0,,,,,,,,,,,,,,,
,,,,,,,,,,,,,,,,,,,,,,,,,,,,,,,,,,,,,,,,,,,razor_blade_01b.jpg,0.0,Orange.png,6.0,73,,,,,,,,,,,,,,0.0,1.0,0.8294,0.0,33.0,33.0,33.0,1.0,,,,,,,,,,,,,,,
,,,,,,,,,,,,,,,,,,,,,,,,,,,,,,,,,,,,,,,,,,,lid_10s.jpg,0.0,Yellow.png,6.0,73,,,,,,,,,,,,,,0.0,1.0,0.7099,0.0,34.0,34.0,34.0,1.0,,,,,,,,,,,,,,,
,,,,,,,,,,,,,,,,,,,,,,,,,,,,,,,,,,,,,,,,,,,lid_10s.jpg,1.0,Green.png,6.0,73,,,,,,,,,,,,,,1.0,1.0,1.1432,0.0,35.0,35.0,35.0,1.0,,,,,,,,,,,,,,,
,,,,,,,,,,,,,,,,,,,,,,,,,,,,,,,,,,,,,,,,,,,,0.0,,,73,,,,,,,,,,pocketknife_12s.jpg,tuxedo_01b.jpg,,,,,,,,,,,0.0,1.0,2.498,0.0,0.0,0.0,0.0,1.0,,,,,,,
,,,,,,,,,,,,,,,,,,,,,,,,,,,,,,,,,,,,,,,,,,,,1.0,,,73,,,,,,,,,,possum_09s.jpg,knot_01b.jpg,,,,,,,,,,,0.0,0.0,1.1875,0.0,1.0,1.0,1.0,1.0,,,,,,,
,,,,,,,,,,,,,,,,,,,,,,,,,,,,,,,,,,,,,,,,,,,,1.0,,,73,,,,,,,,,,pan_02s.jpg,lemonade_04s.jpg,,,,,,,,,,,0.0,0.0,1.2909,0.0,2.0,2.0,2.0,1.0,,,,,,,
,,,,,,,,,,,,,,,,,,,,,,,,,,,,,,,,,,,,,,,,,,,,0.0,,,73,,,,,,,,,,tennis_ball_06s.jpg,latch_15s.jpg,,,,,,,,,,,0.0,1.0,1.4771,0.0,3.0,3.0,3.0,1.0,,,,,,,
,,,,,,,,,,,,,,,,,,,,,,,,,,,,,,,,,,,,,,,,,,,,0.0,,,73,,,,,,,,,,rock_08s.jpg,kettle_08s.jpg,,,,,,,,,,,0.0,1.0,1.1187,0.0,4.0,4.0,4.0,1.0,,,,,,,
,,,,,,,,,,,,,,,,,,,,,,,,,,,,,,,,,,,,,,,,,,,,1.0,,,73,,,,,,,,,,cobra_05s.jpg,spider_web_03s.jpg,,,,,,,,,,,0.0,0.0,0.9393,0.0,5.0,5.0,5.0,1.0,,,,,,,
,,,,,,,,,,,,,,,,,,,,,,,,,,,,,,,,,,,,,,,,,,,,,,,73,,,,,,,,,,,,,,,,,,,,,,,,,,,,,,0.0,7.0,7.0,7.0,1.0,newclockpresent_8_1.xlsx,newclock_compare_task_8_1.xlsx
,,,,,,,,,,,,,,,,,,,,,,,,,,,,,,,,,,,,,,,,,,,recliner_02s.jpg,0.0,Blue.png,1.0,73,,,,,,,,,,,,,,0.0,1.0,1.6567,0.0,0.0,0.0,0.0,1.0,,,,,,,,,,,,,,,
,,,,,,,,,,,,,,,,,,,,,,,,,,,,,,,,,,,,,,,,,,,lava_02s.jpg,0.0,Purple.png,1.0,73,,,,,,,,,,,,,,0.0,1.0,1.1714,0.0,1.0,1.0,1.0,1.0,,,,,,,,,,,,,,,
,,,,,,,,,,,,,,,,,,,,,,,,,,,,,,,,,,,,,,,,,,,quesadilla_07s.jpg,0.0,Red.png,1.0,73,,,,,,,,,,,,,,0.0,1.0,1.1859,0.0,2.0,2.0,2.0,1.0,,,,,,,,,,,,,,,
,,,,,,,,,,,,,,,,,,,,,,,,,,,,,,,,,,,,,,,,,,,chalice_10s.jpg,0.0,Orange.png,1.0,73,,,,,,,,,,,,,,0.0,1.0,1.0624,0.0,3.0,3.0,3.0,1.0,,,,,,,,,,,,,,,
,,,,,,,,,,,,,,,,,,,,,,,,,,,,,,,,,,,,,,,,,,,tulip_02s.jpg,0.0,Yellow.png,1.0,73,,,,,,,,,,,,,,0.0,1.0,0.6407,0.0,4.0,4.0,4.0,1.0,,,,,,,,,,,,,,,
,,,,,,,,,,,,,,,,,,,,,,,,,,,,,,,,,,,,,,,,,,,quesadilla_07s.jpg,1.0,Green.png,1.0,73,,,,,,,,,,,,,,1.0,1.0,1.6421,0.0,5.0,5.0,5.0,1.0,,,,,,,,,,,,,,,
,,,,,,,,,,,,,,,,,,,,,,,,,,,,,,,,,,,,,,,,,,,lamppost_09s.jpg,0.0,Blue.png,2.0,73,,,,,,,,,,,,,,0.0,1.0,1.4248,0.0,6.0,6.0,6.0,1.0,,,,,,,,,,,,,,,
,,,,,,,,,,,,,,,,,,,,,,,,,,,,,,,,,,,,,,,,,,,chopsticks_08s.jpg,0.0,Purple.png,2.0,73,,,,,,,,,,,,,,0.0,1.0,2.0024,0.0,7.0,7.0,7.0,1.0,,,,,,,,,,,,,,,
,,,,,,,,,,,,,,,,,,,,,,,,,,,,,,,,,,,,,,,,,,,refrigerator_07s.jpg,0.0,Red.png,2.0,73,,,,,,,,,,,,,,0.0,1.0,1.032,0.0,8.0,8.0,8.0,1.0,,,,,,,,,,,,,,,
,,,,,,,,,,,,,,,,,,,,,,,,,,,,,,,,,,,,,,,,,,,chopsticks_08s.jpg,1.0,Orange.png,2.0,73,,,,,,,,,,,,,,1.0,1.0,1.0351,0.0,9.0,9.0,9.0,1.0,,,,,,,,,,,,,,,
,,,,,,,,,,,,,,,,,,,,,,,,,,,,,,,,,,,,,,,,,,,paper_towel_03s.jpg,0.0,Yellow.png,2.0,73,,,,,,,,,,,,,,0.0,1.0,0.876,0.0,10.0,10.0,10.0,1.0,,,,,,,,,,,,,,,
,,,,,,,,,,,,,,,,,,,,,,,,,,,,,,,,,,,,,,,,,,,flask_04s.jpg,0.0,Green.png,2.0,73,,,,,,,,,,,,,,0.0,1.0,1.0913,0.0,11.0,11.0,11.0,1.0,,,,,,,,,,,,,,,
,,,,,,,,,,,,,,,,,,,,,,,,,,,,,,,,,,,,,,,,,,,pantyhose_07s.jpg,0.0,Blue.png,3.0,73,,,,,,,,,,,,,,0.0,1.0,1.1338,0.0,12.0,12.0,12.0,1.0,,,,,,,,,,,,,,,
,,,,,,,,,,,,,,,,,,,,,,,,,,,,,,,,,,,,,,,,,,,flask_04s.jpg,0.0,Purple.png,3.0,73,,,,,,,,,,,,,,1.0,0.0,0.8122,0.0,13.0,13.0,13.0,1.0,,,,,,,,,,,,,,,
,,,,,,,,,,,,,,,,,,,,,,,,,,,,,,,,,,,,,,,,,,,chopsticks_08s.jpg,0.0,Red.png,3.0,73,,,,,,,,,,,,,,0.0,1.0,0.7895,0.0,14.0,14.0,14.0,1.0,,,,,,,,,,,,,,,
,,,,,,,,,,,,,,,,,,,,,,,,,,,,,,,,,,,,,,,,,,,seahorse_13s.jpg,0.0,Orange.png,3.0,73,,,,,,,,,,,,,,0.0,1.0,1.6355,0.0,15.0,15.0,15.0,1.0,,,,,,,,,,,,,,,
,,,,,,,,,,,,,,,,,,,,,,,,,,,,,,,,,,,,,,,,,,,pencil_sharpener_09n.jpg,0.0,Yellow.png,3.0,73,,,,,,,,,,,,,,0.0,1.0,0.9132,0.0,16.0,16.0,16.0,1.0,,,,,,,,,,,,,,,
,,,,,,,,,,,,,,,,,,,,,,,,,,,,,,,,,,,,,,,,,,,clover_04s.jpg,0.0,Green.png,3.0,73,,,,,,,,,,,,,,0.0,1.0,0.7745,0.0,17.0,17.0,17.0,1.0,,,,,,,,,,,,,,,
,,,,,,,,,,,,,,,,,,,,,,,,,,,,,,,,,,,,,,,,,,,pencil_sharpener_09n.jpg,0.0,Blue.png,4.0,73,,,,,,,,,,,,,,1.0,0.0,0.9241,0.0,18.0,18.0,18.0,1.0,,,,,,,,,,,,,,,
,,,,,,,,,,,,,,,,,,,,,,,,,,,,,,,,,,,,,,,,,,,fishhook_06s.jpg,0.0,Purple.png,4.0,73,,,,,,,,,,,,,,0.0,1.0,1.0404,0.0,19.0,19.0,19.0,1.0,,,,,,,,,,,,,,,
,,,,,,,,,,,,,,,,,,,,,,,,,,,,,,,,,,,,,,,,,,,clover_04s.jpg,0.0,Red.png,4.0,73,,,,,,,,,,,,,,1.0,0.0,1.8738,0.0,20.0,20.0,20.0,1.0,,,,,,,,,,,,,,,
,,,,,,,,,,,,,,,,,,,,,,,,,,,,,,,,,,,,,,,,,,,stopwatch_04s.jpg,0.0,Orange.png,4.0,73,,,,,,,,,,,,,,0.0,1.0,2.0908,0.0,21.0,21.0,21.0,1.0,,,,,,,,,,,,,,,
,,,,,,,,,,,,,,,,,,,,,,,,,,,,,,,,,,,,,,,,,,,comic_book_02s.jpg,0.0,Yellow.png,4.0,73,,,,,,,,,,,,,,0.0,1.0,1.3829,0.0,22.0,22.0,22.0,1.0,,,,,,,,,,,,,,,
,,,,,,,,,,,,,,,,,,,,,,,,,,,,,,,,,,,,,,,,,,,lab_coat_11s.jpg,0.0,Green.png,4.0,73,,,,,,,,,,,,,,0.0,1.0,1.5225,0.0,23.0,23.0,23.0,1.0,,,,,,,,,,,,,,,
,,,,,,,,,,,,,,,,,,,,,,,,,,,,,,,,,,,,,,,,,,,bolo_tie_08s.jpg,0.0,Blue.png,5.0,73,,,,,,,,,,,,,,0.0,1.0,1.7926,0.0,24.0,24.0,24.0,1.0,,,,,,,,,,,,,,,
,,,,,,,,,,,,,,,,,,,,,,,,,,,,,,,,,,,,,,,,,,,teacup_07s.jpg,0.0,Purple.png,5.0,73,,,,,,,,,,,,,,0.0,1.0,0.6913,0.0,25.0,25.0,25.0,1.0,,,,,,,,,,,,,,,
,,,,,,,,,,,,,,,,,,,,,,,,,,,,,,,,,,,,,,,,,,,eyedropper_12s.jpg,0.0,Red.png,5.0,73,,,,,,,,,,,,,,0.0,1.0,0.921,0.0,26.0,26.0,26.0,1.0,,,,,,,,,,,,,,,
,,,,,,,,,,,,,,,,,,,,,,,,,,,,,,,,,,,,,,,,,,,frame_06s.jpg,0.0,Orange.png,5.0,73,,,,,,,,,,,,,,0.0,1.0,1.475,0.0,27.0,27.0,27.0,1.0,,,,,,,,,,,,,,,
,,,,,,,,,,,,,,,,,,,,,,,,,,,,,,,,,,,,,,,,,,,treadmill_06s.jpg,0.0,Yellow.png,5.0,73,,,,,,,,,,,,,,,0.0,,0.0,28.0,28.0,28.0,1.0,,,,,,,,,,,,,,,
,,,,,,,,,,,,,,,,,,,,,,,,,,,,,,,,,,,,,,,,,,,mug_06s.jpg,0.0,Green.png,5.0,73,,,,,,,,,,,,,,0.0,1.0,0.5121,0.0,29.0,29.0,29.0,1.0,,,,,,,,,,,,,,,
,,,,,,,,,,,,,,,,,,,,,,,,,,,,,,,,,,,,,,,,,,,mug_06s.jpg,0.0,Blue.png,6.0,73,,,,,,,,,,,,,,0.0,1.0,0.3941,0.0,30.0,30.0,30.0,1.0,,,,,,,,,,,,,,,
,,,,,,,,,,,,,,,,,,,,,,,,,,,,,,,,,,,,,,,,,,,mug_06s.jpg,1.0,Purple.png,6.0,73,,,,,,,,,,,,,,0.0,0.0,0.6816,0.0,31.0,31.0,31.0,1.0,,,,,,,,,,,,,,,
,,,,,,,,,,,,,,,,,,,,,,,,,,,,,,,,,,,,,,,,,,,chip_04s.jpg,0.0,Red.png,6.0,73,,,,,,,,,,,,,,0.0,1.0,1.0749,0.0,32.0,32.0,32.0,1.0,,,,,,,,,,,,,,,
,,,,,,,,,,,,,,,,,,,,,,,,,,,,,,,,,,,,,,,,,,,gazelle_10s.jpg,0.0,Orange.png,6.0,73,,,,,,,,,,,,,,0.0,1.0,0.8412,0.0,33.0,33.0,33.0,1.0,,,,,,,,,,,,,,,
,,,,,,,,,,,,,,,,,,,,,,,,,,,,,,,,,,,,,,,,,,,chip_04s.jpg,1.0,Yellow.png,6.0,73,,,,,,,,,,,,,,1.0,1.0,1.8511,0.0,34.0,34.0,34.0,1.0,,,,,,,,,,,,,,,
,,,,,,,,,,,,,,,,,,,,,,,,,,,,,,,,,,,,,,,,,,,quill_09s.jpg,0.0,Green.png,6.0,73,,,,,,,,,,,,,,0.0,1.0,1.2447,0.0,35.0,35.0,35.0,1.0,,,,,,,,,,,,,,,
,,,,,,,,,,,,,,,,,,,,,,,,,,,,,,,,,,,,,,,,,,,,0.0,,,73,,,,,,,,,,bolo_tie_08s.jpg,stopwatch_04s.jpg,,,,,,,,,,,0.0,1.0,2.1641,0.0,0.0,0.0,0.0,1.0,,,,,,,
,,,,,,,,,,,,,,,,,,,,,,,,,,,,,,,,,,,,,,,,,,,,0.0,,,73,,,,,,,,,,lamppost_09s.jpg,chalice_10s.jpg,,,,,,,,,,,1.0,0.0,0.4824,0.0,1.0,1.0,1.0,1.0,,,,,,,
,,,,,,,,,,,,,,,,,,,,,,,,,,,,,,,,,,,,,,,,,,,,0.0,,,73,,,,,,,,,,eyedropper_12s.jpg,lab_coat_11s.jpg,,,,,,,,,,,0.0,1.0,0.8028,0.0,2.0,2.0,2.0,1.0,,,,,,,
,,,,,,,,,,,,,,,,,,,,,,,,,,,,,,,,,,,,,,,,,,,,1.0,,,73,,,,,,,,,,lava_02s.jpg,tulip_02s.jpg,,,,,,,,,,,1.0,1.0,0.6944,0.0,3.0,3.0,3.0,1.0,,,,,,,
,,,,,,,,,,,,,,,,,,,,,,,,,,,,,,,,,,,,,,,,,,,,0.0,,,73,,,,,,,,,,seahorse_13s.jpg,pantyhose_07s.jpg,,,,,,,,,,,0.0,1.0,0.6676,0.0,4.0,4.0,4.0,1.0,,,,,,,
,,,,,,,,,,,,,,,,,,,,,,,,,,,,,,,,,,,,,,,,,,,,1.0,,,73,,,,,,,,,,fishhook_06s.jpg,comic_book_02s.jpg,,,,,,,,,,,1.0,1.0,0.5056,0.0,5.0,5.0,5.0,1.0,,,,,,,
,,,,,,,,,,,,,,,,,,,,,,,,,,,,,,,,,,,,,,,,,,,,,,,73,,,,,,,,,,,,,,,,,,,,,,,,,,,,,,0.0,8.0,8.0,8.0,1.0,newclockpresent_9_1.xlsx,newclock_compare_task_9_1.xlsx
