key_resp_3.keys,key_resp_3.rt,key_resp_4.keys,key_resp_4.rt,key_resp_5.keys,key_resp_5.rt,key_resp_6.keys,key_resp_6.rt,key_resp_7.keys,key_resp_7.rt,key_resp_8.keys,key_resp_8.rt,key_resp_9.keys,key_resp_9.rt,key_resp_10.keys,key_resp_10.rt,key_resp_11.keys,key_resp_11.rt,key_resp_12.keys,key_resp_12.rt,key_resp_13.keys,key_resp_13.rt,key_resp_14.keys,key_resp_14.rt,key_resp_15.keys,key_resp_15.rt,key_resp_16.keys,key_resp_16.rt,key_resp_17.keys,key_resp_17.rt,key_resp_18.keys,key_resp_18.rt,key_resp_19.keys,key_resp_19.rt,key_resp_20.keys,key_resp_20.rt,key_resp_21.keys,key_resp_21.corr,trials.thisRepN,trials.thisTrialN,trials.thisN,trials.thisIndex,trials.ran,pictures,answer,clock,segment,participant,key_resp_21.rt,key_resp_22.keys,key_resp_22.corr,key_resp_22.rt,trials_2.thisRepN,trials_2.thisTrialN,trials_2.thisN,trials_2.thisIndex,trials_2.ran,item_a,item_b,key_resp_23.keys,key_resp_23.rt,key_resp.keys,key_resp.corr,key_resp.rt,present_segment.thisRepN,present_segment.thisTrialN,present_segment.thisN,present_segment.thisIndex,present_segment.ran,key_resp_2.keys,key_resp_2.corr,key_resp_2.rt,compare_segment.thisRepN,compare_segment.thisTrialN,compare_segment.thisN,compare_segment.thisIndex,compare_segment.ran,clock_conditions.thisRepN,clock_conditions.thisTrialN,clock_conditions.thisN,clock_conditions.thisIndex,clock_conditions.ran,present,compare
space,10.5697,space,1.1636,0.0,7.4318,0.0,1.2958,1.0,1.0173,0.0,0.8728,0.0,0.8707,0.0,0.8957,0.0,1.0618,0.0,0.9456,1.0,0.614,0.0,0.841,0.0,0.9183,0.0,1.0105,space,8.2536,1.0,1.9519,0.0,5.6139,space,1.0967,,0.0,0.0,0.0,0.0,0.0,1.0,whipped_cream_02s.jpg,0.0,Blue.png,1.0,37,,,,,,,,,,,,,,,,,,,,,,,,,,,,,,,,,,,,
,,,,,,,,,,,,,,,,,,,,,,,,,,,,,,,,,,,,0.0,1.0,0.0,1.0,1.0,1.0,1.0,sheep_02s.jpg,0.0,Purple.png,1.0,37,1.3486,,,,,,,,,,,,,,,,,,,,,,,,,,,,,,,,,,,
,,,,,,,,,,,,,,,,,,,,,,,,,,,,,,,,,,,,0.0,1.0,0.0,2.0,2.0,2.0,1.0,sheep_02s.jpg,0.0,Red.png,1.0,37,0.8747,,,,,,,,,,,,,,,,,,,,,,,,,,,,,,,,,,,
,,,,,,,,,,,,,,,,,,,,,,,,,,,,,,,,,,,,0.0,1.0,0.0,3.0,3.0,3.0,1.0,sequin_02s.jpg,0.0,Orange.png,1.0,37,0.9211,,,,,,,,,,,,,,,,,,,,,,,,,,,,,,,,,,,
,,,,,,,,,,,,,,,,,,,,,,,,,,,,,,,,,,,,1.0,1.0,0.0,4.0,4.0,4.0,1.0,sheep_02s.jpg,1.0,Yellow.png,1.0,37,0.9647,,,,,,,,,,,,,,,,,,,,,,,,,,,,,,,,,,,
,,,,,,,,,,,,,,,,,,,,,,,,,,,,,,,,,,,,0.0,1.0,0.0,5.0,5.0,5.0,1.0,scoop_05s.jpg,0.0,Green.png,1.0,37,0.8119,,,,,,,,,,,,,,,,,,,,,,,,,,,,,,,,,,,
,,,,,,,,,,,,,,,,,,,,,,,,,,,,,,,,,,,,0.0,1.0,0.0,6.0,6.0,6.0,1.0,wagon_12s.jpg,0.0,Blue.png,2.0,37,0.9251,,,,,,,,,,,,,,,,,,,,,,,,,,,,,,,,,,,
,,,,,,,,,,,,,,,,,,,,,,,,,,,,,,,,,,,,0.0,1.0,0.0,7.0,7.0,7.0,1.0,scrabble_05s.jpg,0.0,Purple.png,2.0,37,0.9356,,,,,,,,,,,,,,,,,,,,,,,,,,,,,,,,,,,
,,,,,,,,,,,,,,,,,,,,,,,,,,,,,,,,,,,,1.0,1.0,0.0,8.0,8.0,8.0,1.0,wagon_12s.jpg,1.0,Red.png,2.0,37,0.9728,,,,,,,,,,,,,,,,,,,,,,,,,,,,,,,,,,,
,,,,,,,,,,,,,,,,,,,,,,,,,,,,,,,,,,,,1.0,1.0,0.0,9.0,9.0,9.0,1.0,scrabble_05s.jpg,1.0,Orange.png,2.0,37,0.9361,,,,,,,,,,,,,,,,,,,,,,,,,,,,,,,,,,,
,,,,,,,,,,,,,,,,,,,,,,,,,,,,,,,,,,,,0.0,1.0,0.0,10.0,10.0,10.0,1.0,weasel_08s.jpg,0.0,Yellow.png,2.0,37,0.8478,,,,,,,,,,,,,,,,,,,,,,,,,,,,,,,,,,,
,,,,,,,,,,,,,,,,,,,,,,,,,,,,,,,,,,,,0.0,1.0,0.0,11.0,11.0,11.0,1.0,scooter_06s.jpg,0.0,Green.png,2.0,37,1.3319,,,,,,,,,,,,,,,,,,,,,,,,,,,,,,,,,,,
,,,,,,,,,,,,,,,,,,,,,,,,,,,,,,,,,,,,0.0,1.0,0.0,12.0,12.0,12.0,1.0,wetsuit_04s.jpg,0.0,Blue.png,3.0,37,0.9082,,,,,,,,,,,,,,,,,,,,,,,,,,,,,,,,,,,
,,,,,,,,,,,,,,,,,,,,,,,,,,,,,,,,,,,,0.0,1.0,0.0,13.0,13.0,13.0,1.0,wetsuit_04s.jpg,0.0,Purple.png,3.0,37,1.6057,,,,,,,,,,,,,,,,,,,,,,,,,,,,,,,,,,,
,,,,,,,,,,,,,,,,,,,,,,,,,,,,,,,,,,,,1.0,1.0,0.0,14.0,14.0,14.0,1.0,wetsuit_04s.jpg,1.0,Red.png,3.0,37,0.6326,,,,,,,,,,,,,,,,,,,,,,,,,,,,,,,,,,,
,,,,,,,,,,,,,,,,,,,,,,,,,,,,,,,,,,,,0.0,1.0,0.0,15.0,15.0,15.0,1.0,water_fountain_01b.jpg,0.0,Orange.png,3.0,37,1.0218,,,,,,,,,,,,,,,,,,,,,,,,,,,,,,,,,,,
,,,,,,,,,,,,,,,,,,,,,,,,,,,,,,,,,,,,0.0,1.0,0.0,16.0,16.0,16.0,1.0,waffle_iron_11s.jpg,0.0,Yellow.png,3.0,37,0.8919,,,,,,,,,,,,,,,,,,,,,,,,,,,,,,,,,,,
,,,,,,,,,,,,,,,,,,,,,,,,,,,,,,,,,,,,0.0,1.0,0.0,17.0,17.0,17.0,1.0,wing_08s.jpg,0.0,Green.png,3.0,37,0.804,,,,,,,,,,,,,,,,,,,,,,,,,,,,,,,,,,,
,,,,,,,,,,,,,,,,,,,,,,,,,,,,,,,,,,,,0.0,1.0,0.0,18.0,18.0,18.0,1.0,shield_02s.jpg,0.0,Blue.png,4.0,37,0.7104,,,,,,,,,,,,,,,,,,,,,,,,,,,,,,,,,,,
,,,,,,,,,,,,,,,,,,,,,,,,,,,,,,,,,,,,0.0,1.0,0.0,19.0,19.0,19.0,1.0,shovel_09s.jpg,0.0,Purple.png,4.0,37,0.7895,,,,,,,,,,,,,,,,,,,,,,,,,,,,,,,,,,,
,,,,,,,,,,,,,,,,,,,,,,,,,,,,,,,,,,,,0.0,1.0,0.0,20.0,20.0,20.0,1.0,watch_09s.jpg,0.0,Red.png,4.0,37,0.7613,,,,,,,,,,,,,,,,,,,,,,,,,,,,,,,,,,,
,,,,,,,,,,,,,,,,,,,,,,,,,,,,,,,,,,,,1.0,1.0,0.0,21.0,21.0,21.0,1.0,shovel_09s.jpg,1.0,Orange.png,4.0,37,0.9595,,,,,,,,,,,,,,,,,,,,,,,,,,,,,,,,,,,
,,,,,,,,,,,,,,,,,,,,,,,,,,,,,,,,,,,,0.0,1.0,0.0,22.0,22.0,22.0,1.0,shovel_09s.jpg,0.0,Yellow.png,4.0,37,1.8601,,,,,,,,,,,,,,,,,,,,,,,,,,,,,,,,,,,
,,,,,,,,,,,,,,,,,,,,,,,,,,,,,,,,,,,,0.0,1.0,0.0,23.0,23.0,23.0,1.0,watering_can_14s.jpg,0.0,Green.png,4.0,37,0.7443,,,,,,,,,,,,,,,,,,,,,,,,,,,,,,,,,,,
,,,,,,,,,,,,,,,,,,,,,,,,,,,,,,,,,,,,0.0,1.0,0.0,24.0,24.0,24.0,1.0,wasp_13n.jpg,0.0,Blue.png,5.0,37,0.5967,,,,,,,,,,,,,,,,,,,,,,,,,,,,,,,,,,,
,,,,,,,,,,,,,,,,,,,,,,,,,,,,,,,,,,,,0.0,1.0,0.0,25.0,25.0,25.0,1.0,shoelace_13s.jpg,0.0,Purple.png,5.0,37,0.8123,,,,,,,,,,,,,,,,,,,,,,,,,,,,,,,,,,,
,,,,,,,,,,,,,,,,,,,,,,,,,,,,,,,,,,,,0.0,1.0,0.0,26.0,26.0,26.0,1.0,scarf_16s.jpg,0.0,Red.png,5.0,37,0.8288,,,,,,,,,,,,,,,,,,,,,,,,,,,,,,,,,,,
,,,,,,,,,,,,,,,,,,,,,,,,,,,,,,,,,,,,0.0,1.0,0.0,27.0,27.0,27.0,1.0,screwdriver_07s.jpg,0.0,Orange.png,5.0,37,0.7177,,,,,,,,,,,,,,,,,,,,,,,,,,,,,,,,,,,
,,,,,,,,,,,,,,,,,,,,,,,,,,,,,,,,,,,,0.0,1.0,0.0,28.0,28.0,28.0,1.0,drink_05s.jpg,0.0,Yellow.png,5.0,37,0.8338,,,,,,,,,,,,,,,,,,,,,,,,,,,,,,,,,,,
,,,,,,,,,,,,,,,,,,,,,,,,,,,,,,,,,,,,1.0,1.0,0.0,29.0,29.0,29.0,1.0,screwdriver_07s.jpg,1.0,Green.png,5.0,37,1.1137,,,,,,,,,,,,,,,,,,,,,,,,,,,,,,,,,,,
,,,,,,,,,,,,,,,,,,,,,,,,,,,,,,,,,,,,0.0,1.0,0.0,30.0,30.0,30.0,1.0,seaweed_07s.jpg,0.0,Blue.png,6.0,37,0.6723,,,,,,,,,,,,,,,,,,,,,,,,,,,,,,,,,,,
,,,,,,,,,,,,,,,,,,,,,,,,,,,,,,,,,,,,0.0,1.0,0.0,31.0,31.0,31.0,1.0,saxophone_04s.jpg,0.0,Purple.png,6.0,37,0.8319,,,,,,,,,,,,,,,,,,,,,,,,,,,,,,,,,,,
,,,,,,,,,,,,,,,,,,,,,,,,,,,,,,,,,,,,1.0,0.0,0.0,32.0,32.0,32.0,1.0,saxophone_04s.jpg,0.0,Red.png,6.0,37,1.5729,,,,,,,,,,,,,,,,,,,,,,,,,,,,,,,,,,,
,,,,,,,,,,,,,,,,,,,,,,,,,,,,,,,,,,,,0.0,1.0,0.0,33.0,33.0,33.0,1.0,scorpion_01b.jpg,0.0,Orange.png,6.0,37,0.7248,,,,,,,,,,,,,,,,,,,,,,,,,,,,,,,,,,,
,,,,,,,,,,,,,,,,,,,,,,,,,,,,,,,,,,,,1.0,1.0,0.0,34.0,34.0,34.0,1.0,saxophone_04s.jpg,1.0,Yellow.png,6.0,37,1.5137,,,,,,,,,,,,,,,,,,,,,,,,,,,,,,,,,,,
,,,,,,,,,,,,,,,,,,,,,,,,,,,,,,,,,,,,0.0,1.0,0.0,35.0,35.0,35.0,1.0,saxophone_04s.jpg,0.0,Green.png,6.0,37,0.9373,,,,,,,,,,,,,,,,,,,,,,,,,,,,,,,,,,,
,,,,,,,,,,,,,,,,,,,,,,,,,,,,,,,,,,,,,,,,,,,,1.0,,,37,,1.0,1.0,1.5323,0.0,0.0,0.0,0.0,1.0,water_fountain_01b.jpg,shield_02s.jpg,,,,,,,,,,,,,,,,,,,,,,,,,
,,,,,,,,,,,,,,,,,,,,,,,,,,,,,,,,,,,,,,,,,,,,0.0,,,37,,1.0,0.0,2.5518,0.0,1.0,1.0,1.0,1.0,watch_09s.jpg,wing_08s.jpg,,,,,,,,,,,,,,,,,,,,,,,,,
,,,,,,,,,,,,,,,,,,,,,,,,,,,,,,,,,,,,,,,,,,,,1.0,,,37,,1.0,1.0,1.4347,0.0,2.0,2.0,2.0,1.0,watering_can_14s.jpg,scarf_16s.jpg,,,,,,,,,,,,,,,,,,,,,,,,,
,,,,,,,,,,,,,,,,,,,,,,,,,,,,,,,,,,,,,,,,,,,,1.0,,,37,,1.0,1.0,1.1801,0.0,3.0,3.0,3.0,1.0,whipped_cream_02s.jpg,sequin_02s.jpg,,,,,,,,,,,,,,,,,,,,,,,,,
,,,,,,,,,,,,,,,,,,,,,,,,,,,,,,,,,,,,,,,,,,,,0.0,,,37,,1.0,0.0,1.1833,0.0,4.0,4.0,4.0,1.0,drink_05s.jpg,shoelace_13s.jpg,,,,,,,,,,,,,,,,,,,,,,,,,
,,,,,,,,,,,,,,,,,,,,,,,,,,,,,,,,,,,,,,,,,,,,1.0,,,37,,1.0,1.0,1.2052,0.0,5.0,5.0,5.0,1.0,seaweed_07s.jpg,scorpion_01b.jpg,,,,,,,,,,,,,,,,,,,,,,,,,
,,,,,,,,,,,,,,,,,,,,,,,,,,,,,,,,,,,,,,,,,,,insole_11s.jpg,0.0,Blue.png,1.0,37,,,,,,,,,,,,space,1.0705,0.0,1.0,0.5943,0.0,0.0,0.0,0.0,1.0,,,,,,,,,,,,,,,
,,,,,,,,,,,,,,,,,,,,,,,,,,,,,,,,,,,,,,,,,,,tupperware_09s.jpg,0.0,Purple.png,1.0,37,,,,,,,,,,,,,,0.0,1.0,0.8308,0.0,1.0,1.0,1.0,1.0,,,,,,,,,,,,,,,
,,,,,,,,,,,,,,,,,,,,,,,,,,,,,,,,,,,,,,,,,,,tupperware_09s.jpg,0.0,Red.png,1.0,37,,,,,,,,,,,,,,1.0,0.0,0.9958,0.0,2.0,2.0,2.0,1.0,,,,,,,,,,,,,,,
,,,,,,,,,,,,,,,,,,,,,,,,,,,,,,,,,,,,,,,,,,,fox_13s.jpg,0.0,Orange.png,1.0,37,,,,,,,,,,,,,,0.0,1.0,0.6317,0.0,3.0,3.0,3.0,1.0,,,,,,,,,,,,,,,
,,,,,,,,,,,,,,,,,,,,,,,,,,,,,,,,,,,,,,,,,,,tupperware_09s.jpg,1.0,Yellow.png,1.0,37,,,,,,,,,,,,,,1.0,1.0,0.8192,0.0,4.0,4.0,4.0,1.0,,,,,,,,,,,,,,,
,,,,,,,,,,,,,,,,,,,,,,,,,,,,,,,,,,,,,,,,,,,lavender_10s.jpg,0.0,Green.png,1.0,37,,,,,,,,,,,,,,0.0,1.0,0.5401,0.0,5.0,5.0,5.0,1.0,,,,,,,,,,,,,,,
,,,,,,,,,,,,,,,,,,,,,,,,,,,,,,,,,,,,,,,,,,,tupperware_09s.jpg,1.0,Blue.png,2.0,37,,,,,,,,,,,,,,1.0,1.0,1.8718,0.0,6.0,6.0,6.0,1.0,,,,,,,,,,,,,,,
,,,,,,,,,,,,,,,,,,,,,,,,,,,,,,,,,,,,,,,,,,,poinsettia_04s.jpg,0.0,Purple.png,2.0,37,,,,,,,,,,,,,,0.0,1.0,1.236,0.0,7.0,7.0,7.0,1.0,,,,,,,,,,,,,,,
,,,,,,,,,,,,,,,,,,,,,,,,,,,,,,,,,,,,,,,,,,,margarita_03s.jpg,0.0,Red.png,2.0,37,,,,,,,,,,,,,,0.0,1.0,0.7917,0.0,8.0,8.0,8.0,1.0,,,,,,,,,,,,,,,
,,,,,,,,,,,,,,,,,,,,,,,,,,,,,,,,,,,,,,,,,,,toothpaste_12s.jpg,0.0,Orange.png,2.0,37,,,,,,,,,,,,,,0.0,1.0,0.7567,0.0,9.0,9.0,9.0,1.0,,,,,,,,,,,,,,,
,,,,,,,,,,,,,,,,,,,,,,,,,,,,,,,,,,,,,,,,,,,ladder_15s.jpg,0.0,Yellow.png,2.0,37,,,,,,,,,,,,,,0.0,1.0,0.9925,0.0,10.0,10.0,10.0,1.0,,,,,,,,,,,,,,,
,,,,,,,,,,,,,,,,,,,,,,,,,,,,,,,,,,,,,,,,,,,pocketknife_12s.jpg,0.0,Green.png,2.0,37,,,,,,,,,,,,,,0.0,1.0,0.9721,0.0,11.0,11.0,11.0,1.0,,,,,,,,,,,,,,,
,,,,,,,,,,,,,,,,,,,,,,,,,,,,,,,,,,,,,,,,,,,spoon02a.jpg,0.0,Blue.png,3.0,37,,,,,,,,,,,,,,0.0,1.0,0.7525,0.0,12.0,12.0,12.0,1.0,,,,,,,,,,,,,,,
,,,,,,,,,,,,,,,,,,,,,,,,,,,,,,,,,,,,,,,,,,,mango_09s.jpg,0.0,Purple.png,3.0,37,,,,,,,,,,,,,,0.0,1.0,0.8645,0.0,13.0,13.0,13.0,1.0,,,,,,,,,,,,,,,
,,,,,,,,,,,,,,,,,,,,,,,,,,,,,,,,,,,,,,,,,,,chalice_10s.jpg,0.0,Red.png,3.0,37,,,,,,,,,,,,,,0.0,1.0,1.0179,0.0,14.0,14.0,14.0,1.0,,,,,,,,,,,,,,,
,,,,,,,,,,,,,,,,,,,,,,,,,,,,,,,,,,,,,,,,,,,pocketknife_12s.jpg,0.0,Orange.png,3.0,37,,,,,,,,,,,,,,1.0,0.0,1.9248,0.0,15.0,15.0,15.0,1.0,,,,,,,,,,,,,,,
,,,,,,,,,,,,,,,,,,,,,,,,,,,,,,,,,,,,,,,,,,,abacus_12s.jpg,0.0,Yellow.png,3.0,37,,,,,,,,,,,,,,0.0,1.0,0.8075,0.0,16.0,16.0,16.0,1.0,,,,,,,,,,,,,,,
,,,,,,,,,,,,,,,,,,,,,,,,,,,,,,,,,,,,,,,,,,,abacus_12s.jpg,0.0,Green.png,3.0,37,,,,,,,,,,,,,,0.0,1.0,1.6934,0.0,17.0,17.0,17.0,1.0,,,,,,,,,,,,,,,
,,,,,,,,,,,,,,,,,,,,,,,,,,,,,,,,,,,,,,,,,,,abacus_12s.jpg,1.0,Blue.png,4.0,37,,,,,,,,,,,,,,1.0,1.0,0.5603,0.0,18.0,18.0,18.0,1.0,,,,,,,,,,,,,,,
,,,,,,,,,,,,,,,,,,,,,,,,,,,,,,,,,,,,,,,,,,,abacus_12s.jpg,1.0,Purple.png,4.0,37,,,,,,,,,,,,,,1.0,1.0,0.7047,0.0,19.0,19.0,19.0,1.0,,,,,,,,,,,,,,,
,,,,,,,,,,,,,,,,,,,,,,,,,,,,,,,,,,,,,,,,,,,sushi_08s.jpg,0.0,Red.png,4.0,37,,,,,,,,,,,,,,0.0,1.0,0.6206,0.0,20.0,20.0,20.0,1.0,,,,,,,,,,,,,,,
,,,,,,,,,,,,,,,,,,,,,,,,,,,,,,,,,,,,,,,,,,,funnel_01b.jpg,0.0,Orange.png,4.0,37,,,,,,,,,,,,,,0.0,1.0,0.6054,0.0,21.0,21.0,21.0,1.0,,,,,,,,,,,,,,,
,,,,,,,,,,,,,,,,,,,,,,,,,,,,,,,,,,,,,,,,,,,rooster_03s.jpg,0.0,Yellow.png,4.0,37,,,,,,,,,,,,,,0.0,1.0,0.7652,0.0,22.0,22.0,22.0,1.0,,,,,,,,,,,,,,,
,,,,,,,,,,,,,,,,,,,,,,,,,,,,,,,,,,,,,,,,,,,ukulele_02s.jpg,0.0,Green.png,4.0,37,,,,,,,,,,,,,,0.0,1.0,0.7982,0.0,23.0,23.0,23.0,1.0,,,,,,,,,,,,,,,
,,,,,,,,,,,,,,,,,,,,,,,,,,,,,,,,,,,,,,,,,,,pocketknife_12s.jpg,0.0,Blue.png,5.0,37,,,,,,,,,,,,,,0.0,1.0,1.1481,0.0,24.0,24.0,24.0,1.0,,,,,,,,,,,,,,,
,,,,,,,,,,,,,,,,,,,,,,,,,,,,,,,,,,,,,,,,,,,pocketknife_12s.jpg,0.0,Purple.png,5.0,37,,,,,,,,,,,,,,0.0,1.0,1.4218,0.0,25.0,25.0,25.0,1.0,,,,,,,,,,,,,,,
,,,,,,,,,,,,,,,,,,,,,,,,,,,,,,,,,,,,,,,,,,,pocketknife_12s.jpg,1.0,Red.png,5.0,37,,,,,,,,,,,,,,1.0,1.0,0.6819,0.0,26.0,26.0,26.0,1.0,,,,,,,,,,,,,,,
,,,,,,,,,,,,,,,,,,,,,,,,,,,,,,,,,,,,,,,,,,,stapler_01b.jpg,0.0,Orange.png,5.0,37,,,,,,,,,,,,,,0.0,1.0,0.9573,0.0,27.0,27.0,27.0,1.0,,,,,,,,,,,,,,,
,,,,,,,,,,,,,,,,,,,,,,,,,,,,,,,,,,,,,,,,,,,birthday_cake_09s.jpg,0.0,Yellow.png,5.0,37,,,,,,,,,,,,,,0.0,1.0,0.7691,0.0,28.0,28.0,28.0,1.0,,,,,,,,,,,,,,,
,,,,,,,,,,,,,,,,,,,,,,,,,,,,,,,,,,,,,,,,,,,meatball_13s.jpg,0.0,Green.png,5.0,37,,,,,,,,,,,,,,0.0,1.0,1.4472,0.0,29.0,29.0,29.0,1.0,,,,,,,,,,,,,,,
,,,,,,,,,,,,,,,,,,,,,,,,,,,,,,,,,,,,,,,,,,,cape_11s.jpg,0.0,Blue.png,6.0,37,,,,,,,,,,,,,,0.0,1.0,0.8503,0.0,30.0,30.0,30.0,1.0,,,,,,,,,,,,,,,
,,,,,,,,,,,,,,,,,,,,,,,,,,,,,,,,,,,,,,,,,,,cape_11s.jpg,0.0,Purple.png,6.0,37,,,,,,,,,,,,,,0.0,1.0,1.0056,0.0,31.0,31.0,31.0,1.0,,,,,,,,,,,,,,,
,,,,,,,,,,,,,,,,,,,,,,,,,,,,,,,,,,,,,,,,,,,lizard_10n.jpg,0.0,Red.png,6.0,37,,,,,,,,,,,,,,0.0,1.0,0.7543,0.0,32.0,32.0,32.0,1.0,,,,,,,,,,,,,,,
,,,,,,,,,,,,,,,,,,,,,,,,,,,,,,,,,,,,,,,,,,,refrigerator_07s.jpg,0.0,Orange.png,6.0,37,,,,,,,,,,,,,,0.0,1.0,0.7536,0.0,33.0,33.0,33.0,1.0,,,,,,,,,,,,,,,
,,,,,,,,,,,,,,,,,,,,,,,,,,,,,,,,,,,,,,,,,,,refrigerator_07s.jpg,0.0,Yellow.png,6.0,37,,,,,,,,,,,,,,0.0,1.0,1.4293,0.0,34.0,34.0,34.0,1.0,,,,,,,,,,,,,,,
,,,,,,,,,,,,,,,,,,,,,,,,,,,,,,,,,,,,,,,,,,,touchpad_11s.jpg,0.0,Green.png,6.0,37,,,,,,,,,,,,,,0.0,1.0,0.8818,0.0,35.0,35.0,35.0,1.0,,,,,,,,,,,,,,,
,,,,,,,,,,,,,,,,,,,,,,,,,,,,,,,,,,,,,,,,,,,,1.0,,,37,,,,,,,,,,lavender_10s.jpg,margarita_03s.jpg,,,,,,,,,,,1.0,1.0,2.7983,0.0,0.0,0.0,0.0,1.0,,,,,,,
,,,,,,,,,,,,,,,,,,,,,,,,,,,,,,,,,,,,,,,,,,,,1.0,,,37,,,,,,,,,,toothpaste_12s.jpg,spoon02a.jpg,,,,,,,,,,,1.0,1.0,1.841,0.0,1.0,1.0,1.0,1.0,,,,,,,
,,,,,,,,,,,,,,,,,,,,,,,,,,,,,,,,,,,,,,,,,,,,1.0,,,37,,,,,,,,,,ladder_15s.jpg,mango_09s.jpg,,,,,,,,,,,1.0,1.0,1.8893,0.0,2.0,2.0,2.0,1.0,,,,,,,
,,,,,,,,,,,,,,,,,,,,,,,,,,,,,,,,,,,,,,,,,,,,0.0,,,37,,,,,,,,,,fox_13s.jpg,insole_11s.jpg,,,,,,,,,,,0.0,1.0,1.3203,0.0,3.0,3.0,3.0,1.0,,,,,,,
,,,,,,,,,,,,,,,,,,,,,,,,,,,,,,,,,,,,,,,,,,,,0.0,,,37,,,,,,,,,,ukulele_02s.jpg,sushi_08s.jpg,,,,,,,,,,,0.0,1.0,4.1743,0.0,4.0,4.0,4.0,1.0,,,,,,,
,,,,,,,,,,,,,,,,,,,,,,,,,,,,,,,,,,,,,,,,,,,,0.0,,,37,,,,,,,,,,touchpad_11s.jpg,lizard_10n.jpg,,,,,,,,,,,0.0,1.0,1.6055,0.0,5.0,5.0,5.0,1.0,,,,,,,
,,,,,,,,,,,,,,,,,,,,,,,,,,,,,,,,,,,,,,,,,,,,,,,37,,,,,,,,,,,,,,,,,,,,,,,,,,,,,,0.0,0.0,0.0,0.0,1.0,new2backpresent_1_2.xlsx,new2back_compare_task_1_2.xlsx
,,,,,,,,,,,,,,,,,,,,,,,,,,,,,,,,,,,,,,,,,,,juicer2_06s.jpg,0.0,Blue.png,1.0,37,,,,,,,,,,,,,,0.0,1.0,1.1662,0.0,0.0,0.0,0.0,1.0,,,,,,,,,,,,,,,
,,,,,,,,,,,,,,,,,,,,,,,,,,,,,,,,,,,,,,,,,,,juicer2_06s.jpg,0.0,Purple.png,1.0,37,,,,,,,,,,,,,,0.0,1.0,0.7027,0.0,1.0,1.0,1.0,1.0,,,,,,,,,,,,,,,
,,,,,,,,,,,,,,,,,,,,,,,,,,,,,,,,,,,,,,,,,,,tambourine_06s.jpg,0.0,Red.png,1.0,37,,,,,,,,,,,,,,0.0,1.0,0.9149,0.0,2.0,2.0,2.0,1.0,,,,,,,,,,,,,,,
,,,,,,,,,,,,,,,,,,,,,,,,,,,,,,,,,,,,,,,,,,,luggage_08s.jpg,0.0,Orange.png,1.0,37,,,,,,,,,,,,,,0.0,1.0,0.7663,0.0,3.0,3.0,3.0,1.0,,,,,,,,,,,,,,,
,,,,,,,,,,,,,,,,,,,,,,,,,,,,,,,,,,,,,,,,,,,tambourine_06s.jpg,1.0,Yellow.png,1.0,37,,,,,,,,,,,,,,1.0,1.0,0.6986,0.0,4.0,4.0,4.0,1.0,,,,,,,,,,,,,,,
,,,,,,,,,,,,,,,,,,,,,,,,,,,,,,,,,,,,,,,,,,,towel_rack_04s.jpg,0.0,Green.png,1.0,37,,,,,,,,,,,,,,0.0,1.0,0.8076,0.0,5.0,5.0,5.0,1.0,,,,,,,,,,,,,,,
,,,,,,,,,,,,,,,,,,,,,,,,,,,,,,,,,,,,,,,,,,,crayon_09s.jpg,0.0,Blue.png,2.0,37,,,,,,,,,,,,,,0.0,1.0,0.8907,0.0,6.0,6.0,6.0,1.0,,,,,,,,,,,,,,,
,,,,,,,,,,,,,,,,,,,,,,,,,,,,,,,,,,,,,,,,,,,gargoyle_08s.jpg,0.0,Purple.png,2.0,37,,,,,,,,,,,,,,0.0,1.0,0.743,0.0,7.0,7.0,7.0,1.0,,,,,,,,,,,,,,,
,,,,,,,,,,,,,,,,,,,,,,,,,,,,,,,,,,,,,,,,,,,boar_10s.jpg,0.0,Red.png,2.0,37,,,,,,,,,,,,,,0.0,1.0,0.601,0.0,8.0,8.0,8.0,1.0,,,,,,,,,,,,,,,
,,,,,,,,,,,,,,,,,,,,,,,,,,,,,,,,,,,,,,,,,,,gargoyle_08s.jpg,1.0,Orange.png,2.0,37,,,,,,,,,,,,,,1.0,1.0,1.7153,0.0,9.0,9.0,9.0,1.0,,,,,,,,,,,,,,,
,,,,,,,,,,,,,,,,,,,,,,,,,,,,,,,,,,,,,,,,,,,limousine_12s.jpg,0.0,Yellow.png,2.0,37,,,,,,,,,,,,,,0.0,1.0,0.6916,0.0,10.0,10.0,10.0,1.0,,,,,,,,,,,,,,,
,,,,,,,,,,,,,,,,,,,,,,,,,,,,,,,,,,,,,,,,,,,outlet_10s.jpg,0.0,Green.png,2.0,37,,,,,,,,,,,,,,0.0,1.0,0.779,0.0,11.0,11.0,11.0,1.0,,,,,,,,,,,,,,,
,,,,,,,,,,,,,,,,,,,,,,,,,,,,,,,,,,,,,,,,,,,comic_book_02s.jpg,0.0,Blue.png,3.0,37,,,,,,,,,,,,,,0.0,1.0,1.0193,0.0,12.0,12.0,12.0,1.0,,,,,,,,,,,,,,,
,,,,,,,,,,,,,,,,,,,,,,,,,,,,,,,,,,,,,,,,,,,mask_09s.jpg,0.0,Purple.png,3.0,37,,,,,,,,,,,,,,0.0,1.0,0.7039,0.0,13.0,13.0,13.0,1.0,,,,,,,,,,,,,,,
,,,,,,,,,,,,,,,,,,,,,,,,,,,,,,,,,,,,,,,,,,,lasagna_06s.jpg,0.0,Red.png,3.0,37,,,,,,,,,,,,,,0.0,1.0,0.9393,0.0,14.0,14.0,14.0,1.0,,,,,,,,,,,,,,,
,,,,,,,,,,,,,,,,,,,,,,,,,,,,,,,,,,,,,,,,,,,diving_board_07s.jpg,0.0,Orange.png,3.0,37,,,,,,,,,,,,,,0.0,1.0,0.9313,0.0,15.0,15.0,15.0,1.0,,,,,,,,,,,,,,,
,,,,,,,,,,,,,,,,,,,,,,,,,,,,,,,,,,,,,,,,,,,lion_18s.jpg,0.0,Yellow.png,3.0,37,,,,,,,,,,,,,,0.0,1.0,0.8355,0.0,16.0,16.0,16.0,1.0,,,,,,,,,,,,,,,
,,,,,,,,,,,,,,,,,,,,,,,,,,,,,,,,,,,,,,,,,,,diving_board_07s.jpg,1.0,Green.png,3.0,37,,,,,,,,,,,,,,1.0,1.0,1.7518,0.0,17.0,17.0,17.0,1.0,,,,,,,,,,,,,,,
,,,,,,,,,,,,,,,,,,,,,,,,,,,,,,,,,,,,,,,,,,,lion_18s.jpg,1.0,Blue.png,4.0,37,,,,,,,,,,,,,,0.0,0.0,2.228,0.0,18.0,18.0,18.0,1.0,,,,,,,,,,,,,,,
,,,,,,,,,,,,,,,,,,,,,,,,,,,,,,,,,,,,,,,,,,,medal_04s.jpg,0.0,Purple.png,4.0,37,,,,,,,,,,,,,,0.0,1.0,1.5524,0.0,19.0,19.0,19.0,1.0,,,,,,,,,,,,,,,
,,,,,,,,,,,,,,,,,,,,,,,,,,,,,,,,,,,,,,,,,,,incense_02s.jpg,0.0,Red.png,4.0,37,,,,,,,,,,,,,,0.0,1.0,0.7401,0.0,20.0,20.0,20.0,1.0,,,,,,,,,,,,,,,
,,,,,,,,,,,,,,,,,,,,,,,,,,,,,,,,,,,,,,,,,,,tape_06s.jpg,0.0,Orange.png,4.0,37,,,,,,,,,,,,,,0.0,1.0,0.8507,0.0,21.0,21.0,21.0,1.0,,,,,,,,,,,,,,,
,,,,,,,,,,,,,,,,,,,,,,,,,,,,,,,,,,,,,,,,,,,medal_04s.jpg,0.0,Yellow.png,4.0,37,,,,,,,,,,,,,,0.0,1.0,1.9651,0.0,22.0,22.0,22.0,1.0,,,,,,,,,,,,,,,
,,,,,,,,,,,,,,,,,,,,,,,,,,,,,,,,,,,,,,,,,,,buoy_04s.jpg,0.0,Green.png,4.0,37,,,,,,,,,,,,,,0.0,1.0,0.867,0.0,23.0,23.0,23.0,1.0,,,,,,,,,,,,,,,
,,,,,,,,,,,,,,,,,,,,,,,,,,,,,,,,,,,,,,,,,,,limousine_12s.jpg,0.0,Blue.png,5.0,37,,,,,,,,,,,,,,0.0,1.0,0.8314,0.0,24.0,24.0,24.0,1.0,,,,,,,,,,,,,,,
,,,,,,,,,,,,,,,,,,,,,,,,,,,,,,,,,,,,,,,,,,,jewel_01b.jpg,0.0,Purple.png,5.0,37,,,,,,,,,,,,,,0.0,1.0,0.6278,0.0,25.0,25.0,25.0,1.0,,,,,,,,,,,,,,,
,,,,,,,,,,,,,,,,,,,,,,,,,,,,,,,,,,,,,,,,,,,parachute_03s.jpg,0.0,Red.png,5.0,37,,,,,,,,,,,,,,0.0,1.0,0.712,0.0,26.0,26.0,26.0,1.0,,,,,,,,,,,,,,,
,,,,,,,,,,,,,,,,,,,,,,,,,,,,,,,,,,,,,,,,,,,mannequin_05s.jpg,0.0,Orange.png,5.0,37,,,,,,,,,,,,,,0.0,1.0,0.6399,0.0,27.0,27.0,27.0,1.0,,,,,,,,,,,,,,,
,,,,,,,,,,,,,,,,,,,,,,,,,,,,,,,,,,,,,,,,,,,snowman_02s.jpg,0.0,Yellow.png,5.0,37,,,,,,,,,,,,,,0.0,1.0,0.781,0.0,28.0,28.0,28.0,1.0,,,,,,,,,,,,,,,
,,,,,,,,,,,,,,,,,,,,,,,,,,,,,,,,,,,,,,,,,,,fossil_06s.jpg,0.0,Green.png,5.0,37,,,,,,,,,,,,,,0.0,1.0,1.0649,0.0,29.0,29.0,29.0,1.0,,,,,,,,,,,,,,,
,,,,,,,,,,,,,,,,,,,,,,,,,,,,,,,,,,,,,,,,,,,perfume_06s.jpg,0.0,Blue.png,6.0,37,,,,,,,,,,,,,,0.0,1.0,0.6145,0.0,30.0,30.0,30.0,1.0,,,,,,,,,,,,,,,
,,,,,,,,,,,,,,,,,,,,,,,,,,,,,,,,,,,,,,,,,,,fossil_06s.jpg,1.0,Purple.png,6.0,37,,,,,,,,,,,,,,1.0,1.0,0.7751,0.0,31.0,31.0,31.0,1.0,,,,,,,,,,,,,,,
,,,,,,,,,,,,,,,,,,,,,,,,,,,,,,,,,,,,,,,,,,,pancake_12s.jpg,0.0,Red.png,6.0,37,,,,,,,,,,,,,,0.0,1.0,1.0287,0.0,32.0,32.0,32.0,1.0,,,,,,,,,,,,,,,
,,,,,,,,,,,,,,,,,,,,,,,,,,,,,,,,,,,,,,,,,,,tie_03s.jpg,0.0,Orange.png,6.0,37,,,,,,,,,,,,,,0.0,1.0,0.6729,0.0,33.0,33.0,33.0,1.0,,,,,,,,,,,,,,,
,,,,,,,,,,,,,,,,,,,,,,,,,,,,,,,,,,,,,,,,,,,pancake_12s.jpg,1.0,Yellow.png,6.0,37,,,,,,,,,,,,,,1.0,1.0,1.2181,0.0,34.0,34.0,34.0,1.0,,,,,,,,,,,,,,,
,,,,,,,,,,,,,,,,,,,,,,,,,,,,,,,,,,,,,,,,,,,padlock_07s.jpg,0.0,Green.png,6.0,37,,,,,,,,,,,,,,0.0,1.0,0.721,0.0,35.0,35.0,35.0,1.0,,,,,,,,,,,,,,,
,,,,,,,,,,,,,,,,,,,,,,,,,,,,,,,,,,,,,,,,,,,,0.0,,,37,,,,,,,,,,crayon_09s.jpg,luggage_08s.jpg,,,,,,,,,,,0.0,1.0,2.0012,0.0,0.0,0.0,0.0,1.0,,,,,,,
,,,,,,,,,,,,,,,,,,,,,,,,,,,,,,,,,,,,,,,,,,,,1.0,,,37,,,,,,,,,,towel_rack_04s.jpg,boar_10s.jpg,,,,,,,,,,,0.0,0.0,1.8852,0.0,1.0,1.0,1.0,1.0,,,,,,,
,,,,,,,,,,,,,,,,,,,,,,,,,,,,,,,,,,,,,,,,,,,,0.0,,,37,,,,,,,,,,lasagna_06s.jpg,outlet_10s.jpg,,,,,,,,,,,1.0,0.0,1.8352,0.0,2.0,2.0,2.0,1.0,,,,,,,
,,,,,,,,,,,,,,,,,,,,,,,,,,,,,,,,,,,,,,,,,,,,1.0,,,37,,,,,,,,,,jewel_01b.jpg,snowman_02s.jpg,,,,,,,,,,,1.0,1.0,1.6432,0.0,3.0,3.0,3.0,1.0,,,,,,,
,,,,,,,,,,,,,,,,,,,,,,,,,,,,,,,,,,,,,,,,,,,,0.0,,,37,,,,,,,,,,buoy_04s.jpg,incense_02s.jpg,,,,,,,,,,,1.0,0.0,2.4116,0.0,4.0,4.0,4.0,1.0,,,,,,,
,,,,,,,,,,,,,,,,,,,,,,,,,,,,,,,,,,,,,,,,,,,,0.0,,,37,,,,,,,,,,tie_03s.jpg,perfume_06s.jpg,,,,,,,,,,,1.0,0.0,1.0968,0.0,5.0,5.0,5.0,1.0,,,,,,,
,,,,,,,,,,,,,,,,,,,,,,,,,,,,,,,,,,,,,,,,,,,,,,,37,,,,,,,,,,,,,,,,,,,,,,,,,,,,,,0.0,1.0,1.0,1.0,1.0,new2backpresent_2_2.xlsx,new2back_compare_task_2_2.xlsx
,,,,,,,,,,,,,,,,,,,,,,,,,,,,,,,,,,,,,,,,,,,surfboard_11s.jpg,0.0,Blue.png,1.0,37,,,,,,,,,,,,,,0.0,1.0,0.9844,0.0,0.0,0.0,0.0,1.0,,,,,,,,,,,,,,,
,,,,,,,,,,,,,,,,,,,,,,,,,,,,,,,,,,,,,,,,,,,surfboard_11s.jpg,0.0,Purple.png,1.0,37,,,,,,,,,,,,,,0.0,1.0,0.7678,0.0,1.0,1.0,1.0,1.0,,,,,,,,,,,,,,,
,,,,,,,,,,,,,,,,,,,,,,,,,,,,,,,,,,,,,,,,,,,surfboard_11s.jpg,0.0,Red.png,1.0,37,,,,,,,,,,,,,,1.0,0.0,1.2999,0.0,2.0,2.0,2.0,1.0,,,,,,,,,,,,,,,
,,,,,,,,,,,,,,,,,,,,,,,,,,,,,,,,,,,,,,,,,,,badge_03s.jpg,0.0,Orange.png,1.0,37,,,,,,,,,,,,,,0.0,1.0,0.7682,0.0,3.0,3.0,3.0,1.0,,,,,,,,,,,,,,,
,,,,,,,,,,,,,,,,,,,,,,,,,,,,,,,,,,,,,,,,,,,surfboard_11s.jpg,1.0,Yellow.png,1.0,37,,,,,,,,,,,,,,1.0,1.0,1.0792,0.0,4.0,4.0,4.0,1.0,,,,,,,,,,,,,,,
,,,,,,,,,,,,,,,,,,,,,,,,,,,,,,,,,,,,,,,,,,,surfboard_11s.jpg,0.0,Green.png,1.0,37,,,,,,,,,,,,,,0.0,1.0,2.4569,0.0,5.0,5.0,5.0,1.0,,,,,,,,,,,,,,,
,,,,,,,,,,,,,,,,,,,,,,,,,,,,,,,,,,,,,,,,,,,surfboard_11s.jpg,1.0,Blue.png,2.0,37,,,,,,,,,,,,,,1.0,1.0,2.0922,0.0,6.0,6.0,6.0,1.0,,,,,,,,,,,,,,,
,,,,,,,,,,,,,,,,,,,,,,,,,,,,,,,,,,,,,,,,,,,playpen_11s.jpg,0.0,Purple.png,2.0,37,,,,,,,,,,,,,,0.0,1.0,2.1556,0.0,7.0,7.0,7.0,1.0,,,,,,,,,,,,,,,
,,,,,,,,,,,,,,,,,,,,,,,,,,,,,,,,,,,,,,,,,,,surfboard_11s.jpg,1.0,Red.png,2.0,37,,,,,,,,,,,,,,1.0,1.0,0.9997,0.0,8.0,8.0,8.0,1.0,,,,,,,,,,,,,,,
,,,,,,,,,,,,,,,,,,,,,,,,,,,,,,,,,,,,,,,,,,,popcorn_09s.jpg,0.0,Orange.png,2.0,37,,,,,,,,,,,,,,0.0,1.0,0.9269,0.0,9.0,9.0,9.0,1.0,,,,,,,,,,,,,,,
,,,,,,,,,,,,,,,,,,,,,,,,,,,,,,,,,,,,,,,,,,,surfboard_11s.jpg,1.0,Yellow.png,2.0,37,,,,,,,,,,,,,,1.0,1.0,0.6648,0.0,10.0,10.0,10.0,1.0,,,,,,,,,,,,,,,
,,,,,,,,,,,,,,,,,,,,,,,,,,,,,,,,,,,,,,,,,,,popcorn_09s.jpg,1.0,Green.png,2.0,37,,,,,,,,,,,,,,1.0,1.0,1.1485,0.0,11.0,11.0,11.0,1.0,,,,,,,,,,,,,,,
,,,,,,,,,,,,,,,,,,,,,,,,,,,,,,,,,,,,,,,,,,,lollipop_08s.jpg,0.0,Blue.png,3.0,37,,,,,,,,,,,,,,0.0,1.0,0.8318,0.0,12.0,12.0,12.0,1.0,,,,,,,,,,,,,,,
,,,,,,,,,,,,,,,,,,,,,,,,,,,,,,,,,,,,,,,,,,,popcorn_09s.jpg,1.0,Purple.png,3.0,37,,,,,,,,,,,,,,1.0,1.0,1.2209,0.0,13.0,13.0,13.0,1.0,,,,,,,,,,,,,,,
,,,,,,,,,,,,,,,,,,,,,,,,,,,,,,,,,,,,,,,,,,,fire_pit_10s.jpg,0.0,Red.png,3.0,37,,,,,,,,,,,,,,0.0,1.0,0.9285,0.0,14.0,14.0,14.0,1.0,,,,,,,,,,,,,,,
,,,,,,,,,,,,,,,,,,,,,,,,,,,,,,,,,,,,,,,,,,,joystick_01b.jpg,0.0,Orange.png,3.0,37,,,,,,,,,,,,,,0.0,1.0,0.8758,0.0,15.0,15.0,15.0,1.0,,,,,,,,,,,,,,,
,,,,,,,,,,,,,,,,,,,,,,,,,,,,,,,,,,,,,,,,,,,panda_02s.jpg,0.0,Yellow.png,3.0,37,,,,,,,,,,,,,,0.0,1.0,0.6485,0.0,16.0,16.0,16.0,1.0,,,,,,,,,,,,,,,
,,,,,,,,,,,,,,,,,,,,,,,,,,,,,,,,,,,,,,,,,,,sundae_08s.jpg,0.0,Green.png,3.0,37,,,,,,,,,,,,,,0.0,1.0,0.877,0.0,17.0,17.0,17.0,1.0,,,,,,,,,,,,,,,
,,,,,,,,,,,,,,,,,,,,,,,,,,,,,,,,,,,,,,,,,,,boomerang_06s.jpg,0.0,Blue.png,4.0,37,,,,,,,,,,,,,,0.0,1.0,0.6263,0.0,18.0,18.0,18.0,1.0,,,,,,,,,,,,,,,
,,,,,,,,,,,,,,,,,,,,,,,,,,,,,,,,,,,,,,,,,,,bagel_15s.jpg,0.0,Purple.png,4.0,37,,,,,,,,,,,,,,0.0,1.0,0.6372,0.0,19.0,19.0,19.0,1.0,,,,,,,,,,,,,,,
,,,,,,,,,,,,,,,,,,,,,,,,,,,,,,,,,,,,,,,,,,,powder_07s.jpg,0.0,Red.png,4.0,37,,,,,,,,,,,,,,0.0,1.0,0.6292,0.0,20.0,20.0,20.0,1.0,,,,,,,,,,,,,,,
,,,,,,,,,,,,,,,,,,,,,,,,,,,,,,,,,,,,,,,,,,,lipstick_02s.jpg,0.0,Orange.png,4.0,37,,,,,,,,,,,,,,0.0,1.0,0.6612,0.0,21.0,21.0,21.0,1.0,,,,,,,,,,,,,,,
,,,,,,,,,,,,,,,,,,,,,,,,,,,,,,,,,,,,,,,,,,,bagel_15s.jpg,0.0,Yellow.png,4.0,37,,,,,,,,,,,,,,0.0,1.0,2.0813,0.0,22.0,22.0,22.0,1.0,,,,,,,,,,,,,,,
,,,,,,,,,,,,,,,,,,,,,,,,,,,,,,,,,,,,,,,,,,,ladle_04s.jpg,0.0,Green.png,4.0,37,,,,,,,,,,,,,,0.0,1.0,1.4042,0.0,23.0,23.0,23.0,1.0,,,,,,,,,,,,,,,
,,,,,,,,,,,,,,,,,,,,,,,,,,,,,,,,,,,,,,,,,,,megaphone_03s.jpg,0.0,Blue.png,5.0,37,,,,,,,,,,,,,,0.0,1.0,0.7002,0.0,24.0,24.0,24.0,1.0,,,,,,,,,,,,,,,
,,,,,,,,,,,,,,,,,,,,,,,,,,,,,,,,,,,,,,,,,,,puck_06s.jpg,0.0,Purple.png,5.0,37,,,,,,,,,,,,,,0.0,1.0,0.7703,0.0,25.0,25.0,25.0,1.0,,,,,,,,,,,,,,,
,,,,,,,,,,,,,,,,,,,,,,,,,,,,,,,,,,,,,,,,,,,cardinal_07s.jpg,0.0,Red.png,5.0,37,,,,,,,,,,,,,,0.0,1.0,0.5934,0.0,26.0,26.0,26.0,1.0,,,,,,,,,,,,,,,
,,,,,,,,,,,,,,,,,,,,,,,,,,,,,,,,,,,,,,,,,,,puck_06s.jpg,1.0,Orange.png,5.0,37,,,,,,,,,,,,,,1.0,1.0,0.6493,0.0,27.0,27.0,27.0,1.0,,,,,,,,,,,,,,,
,,,,,,,,,,,,,,,,,,,,,,,,,,,,,,,,,,,,,,,,,,,bee_20s.jpg,0.0,Yellow.png,5.0,37,,,,,,,,,,,,,,0.0,1.0,0.8062,0.0,28.0,28.0,28.0,1.0,,,,,,,,,,,,,,,
,,,,,,,,,,,,,,,,,,,,,,,,,,,,,,,,,,,,,,,,,,,toilet_paper_12s.jpg,0.0,Green.png,5.0,37,,,,,,,,,,,,,,0.0,1.0,0.8261,0.0,29.0,29.0,29.0,1.0,,,,,,,,,,,,,,,
,,,,,,,,,,,,,,,,,,,,,,,,,,,,,,,,,,,,,,,,,,,mud_13s.jpg,0.0,Blue.png,6.0,37,,,,,,,,,,,,,,0.0,1.0,0.6679,0.0,30.0,30.0,30.0,1.0,,,,,,,,,,,,,,,
,,,,,,,,,,,,,,,,,,,,,,,,,,,,,,,,,,,,,,,,,,,measuring_cup_02s.jpg,0.0,Purple.png,6.0,37,,,,,,,,,,,,,,0.0,1.0,0.8424,0.0,31.0,31.0,31.0,1.0,,,,,,,,,,,,,,,
,,,,,,,,,,,,,,,,,,,,,,,,,,,,,,,,,,,,,,,,,,,ostrich_06s.jpg,0.0,Red.png,6.0,37,,,,,,,,,,,,,,0.0,1.0,0.5899,0.0,32.0,32.0,32.0,1.0,,,,,,,,,,,,,,,
,,,,,,,,,,,,,,,,,,,,,,,,,,,,,,,,,,,,,,,,,,,raspberry_12s.jpg,0.0,Orange.png,6.0,37,,,,,,,,,,,,,,0.0,1.0,0.9858,0.0,33.0,33.0,33.0,1.0,,,,,,,,,,,,,,,
,,,,,,,,,,,,,,,,,,,,,,,,,,,,,,,,,,,,,,,,,,,mud_13s.jpg,0.0,Yellow.png,6.0,37,,,,,,,,,,,,,,0.0,1.0,0.998,0.0,34.0,34.0,34.0,1.0,,,,,,,,,,,,,,,
,,,,,,,,,,,,,,,,,,,,,,,,,,,,,,,,,,,,,,,,,,,radiator_05s.jpg,0.0,Green.png,6.0,37,,,,,,,,,,,,,,0.0,1.0,0.6829,0.0,35.0,35.0,35.0,1.0,,,,,,,,,,,,,,,
,,,,,,,,,,,,,,,,,,,,,,,,,,,,,,,,,,,,,,,,,,,,0.0,,,37,,,,,,,,,,measuring_cup_02s.jpg,bee_20s.jpg,,,,,,,,,,,1.0,0.0,1.3779,0.0,0.0,0.0,0.0,1.0,,,,,,,
,,,,,,,,,,,,,,,,,,,,,,,,,,,,,,,,,,,,,,,,,,,,1.0,,,37,,,,,,,,,,lipstick_02s.jpg,megaphone_03s.jpg,,,,,,,,,,,1.0,1.0,1.6522,0.0,1.0,1.0,1.0,1.0,,,,,,,
,,,,,,,,,,,,,,,,,,,,,,,,,,,,,,,,,,,,,,,,,,,,0.0,,,37,,,,,,,,,,boomerang_06s.jpg,joystick_01b.jpg,,,,,,,,,,,1.0,0.0,1.1228,0.0,2.0,2.0,2.0,1.0,,,,,,,
,,,,,,,,,,,,,,,,,,,,,,,,,,,,,,,,,,,,,,,,,,,,0.0,,,37,,,,,,,,,,sundae_08s.jpg,fire_pit_10s.jpg,,,,,,,,,,,0.0,1.0,1.3598,0.0,3.0,3.0,3.0,1.0,,,,,,,
,,,,,,,,,,,,,,,,,,,,,,,,,,,,,,,,,,,,,,,,,,,,0.0,,,37,,,,,,,,,,radiator_05s.jpg,ostrich_06s.jpg,,,,,,,,,,,1.0,0.0,1.0225,0.0,4.0,4.0,4.0,1.0,,,,,,,
,,,,,,,,,,,,,,,,,,,,,,,,,,,,,,,,,,,,,,,,,,,,0.0,,,37,,,,,,,,,,ladle_04s.jpg,powder_07s.jpg,,,,,,,,,,,0.0,1.0,1.2278,0.0,5.0,5.0,5.0,1.0,,,,,,,
,,,,,,,,,,,,,,,,,,,,,,,,,,,,,,,,,,,,,,,,,,,,,,,37,,,,,,,,,,,,,,,,,,,,,,,,,,,,,,0.0,2.0,2.0,2.0,1.0,new2backpresent_3_2.xlsx,new2back_compare_task_3_2.xlsx
,,,,,,,,,,,,,,,,,,,,,,,,,,,,,,,,,,,,,,,,,,,glasses01a.jpg,0.0,Blue.png,1.0,37,,,,,,,,,,,,,,0.0,1.0,0.8026,0.0,0.0,0.0,0.0,1.0,,,,,,,,,,,,,,,
,,,,,,,,,,,,,,,,,,,,,,,,,,,,,,,,,,,,,,,,,,,piano_13n.jpg,0.0,Purple.png,1.0,37,,,,,,,,,,,,,,0.0,1.0,0.7261,0.0,1.0,1.0,1.0,1.0,,,,,,,,,,,,,,,
,,,,,,,,,,,,,,,,,,,,,,,,,,,,,,,,,,,,,,,,,,,candy_cane_06s.jpg,0.0,Red.png,1.0,37,,,,,,,,,,,,,,0.0,1.0,0.703,0.0,2.0,2.0,2.0,1.0,,,,,,,,,,,,,,,
,,,,,,,,,,,,,,,,,,,,,,,,,,,,,,,,,,,,,,,,,,,cushion_08s.jpg,0.0,Orange.png,1.0,37,,,,,,,,,,,,,,0.0,1.0,0.7363,0.0,3.0,3.0,3.0,1.0,,,,,,,,,,,,,,,
,,,,,,,,,,,,,,,,,,,,,,,,,,,,,,,,,,,,,,,,,,,candy_cane_06s.jpg,1.0,Yellow.png,1.0,37,,,,,,,,,,,,,,1.0,1.0,1.4903,0.0,4.0,4.0,4.0,1.0,,,,,,,,,,,,,,,
,,,,,,,,,,,,,,,,,,,,,,,,,,,,,,,,,,,,,,,,,,,candy_cane_06s.jpg,0.0,Green.png,1.0,37,,,,,,,,,,,,,,0.0,1.0,2.1209,0.0,5.0,5.0,5.0,1.0,,,,,,,,,,,,,,,
,,,,,,,,,,,,,,,,,,,,,,,,,,,,,,,,,,,,,,,,,,,rosary_03s.jpg,0.0,Blue.png,2.0,37,,,,,,,,,,,,,,0.0,1.0,1.2594,0.0,6.0,6.0,6.0,1.0,,,,,,,,,,,,,,,
,,,,,,,,,,,,,,,,,,,,,,,,,,,,,,,,,,,,,,,,,,,rosary_03s.jpg,0.0,Purple.png,2.0,37,,,,,,,,,,,,,,0.0,1.0,2.1667,0.0,7.0,7.0,7.0,1.0,,,,,,,,,,,,,,,
,,,,,,,,,,,,,,,,,,,,,,,,,,,,,,,,,,,,,,,,,,,rosary_03s.jpg,1.0,Red.png,2.0,37,,,,,,,,,,,,,,1.0,1.0,0.6194,0.0,8.0,8.0,8.0,1.0,,,,,,,,,,,,,,,
,,,,,,,,,,,,,,,,,,,,,,,,,,,,,,,,,,,,,,,,,,,rosary_03s.jpg,1.0,Orange.png,2.0,37,,,,,,,,,,,,,,1.0,1.0,0.7513,0.0,9.0,9.0,9.0,1.0,,,,,,,,,,,,,,,
,,,,,,,,,,,,,,,,,,,,,,,,,,,,,,,,,,,,,,,,,,,kangaroo_02s.jpg,0.0,Yellow.png,2.0,37,,,,,,,,,,,,,,0.0,1.0,1.0699,0.0,10.0,10.0,10.0,1.0,,,,,,,,,,,,,,,
,,,,,,,,,,,,,,,,,,,,,,,,,,,,,,,,,,,,,,,,,,,kangaroo_02s.jpg,0.0,Green.png,2.0,37,,,,,,,,,,,,,,0.0,1.0,1.4387,0.0,11.0,11.0,11.0,1.0,,,,,,,,,,,,,,,
,,,,,,,,,,,,,,,,,,,,,,,,,,,,,,,,,,,,,,,,,,,kangaroo_02s.jpg,1.0,Blue.png,3.0,37,,,,,,,,,,,,,,1.0,1.0,0.5069,0.0,12.0,12.0,12.0,1.0,,,,,,,,,,,,,,,
,,,,,,,,,,,,,,,,,,,,,,,,,,,,,,,,,,,,,,,,,,,kangaroo_02s.jpg,1.0,Purple.png,3.0,37,,,,,,,,,,,,,,1.0,1.0,0.6398,0.0,13.0,13.0,13.0,1.0,,,,,,,,,,,,,,,
,,,,,,,,,,,,,,,,,,,,,,,,,,,,,,,,,,,,,,,,,,,ironing_board_07s.jpg,0.0,Red.png,3.0,37,,,,,,,,,,,,,,0.0,1.0,1.2683,0.0,14.0,14.0,14.0,1.0,,,,,,,,,,,,,,,
,,,,,,,,,,,,,,,,,,,,,,,,,,,,,,,,,,,,,,,,,,,kangaroo_02s.jpg,1.0,Orange.png,3.0,37,,,,,,,,,,,,,,1.0,1.0,1.3432,0.0,15.0,15.0,15.0,1.0,,,,,,,,,,,,,,,
,,,,,,,,,,,,,,,,,,,,,,,,,,,,,,,,,,,,,,,,,,,punch2_09s.jpg,0.0,Yellow.png,3.0,37,,,,,,,,,,,,,,0.0,1.0,0.6695,0.0,16.0,16.0,16.0,1.0,,,,,,,,,,,,,,,
,,,,,,,,,,,,,,,,,,,,,,,,,,,,,,,,,,,,,,,,,,,ironing_board_07s.jpg,0.0,Green.png,3.0,37,,,,,,,,,,,,,,1.0,0.0,1.9278,0.0,17.0,17.0,17.0,1.0,,,,,,,,,,,,,,,
,,,,,,,,,,,,,,,,,,,,,,,,,,,,,,,,,,,,,,,,,,,owl_15s.jpg,0.0,Blue.png,4.0,37,,,,,,,,,,,,,,0.0,1.0,1.1714,0.0,18.0,18.0,18.0,1.0,,,,,,,,,,,,,,,
,,,,,,,,,,,,,,,,,,,,,,,,,,,,,,,,,,,,,,,,,,,teabag_12s.jpg,0.0,Purple.png,4.0,37,,,,,,,,,,,,,,0.0,1.0,0.6336,0.0,19.0,19.0,19.0,1.0,,,,,,,,,,,,,,,
,,,,,,,,,,,,,,,,,,,,,,,,,,,,,,,,,,,,,,,,,,,owl_15s.jpg,1.0,Red.png,4.0,37,,,,,,,,,,,,,,1.0,1.0,0.5822,0.0,20.0,20.0,20.0,1.0,,,,,,,,,,,,,,,
,,,,,,,,,,,,,,,,,,,,,,,,,,,,,,,,,,,,,,,,,,,otter_05s.jpg,0.0,Orange.png,4.0,37,,,,,,,,,,,,,,0.0,1.0,0.634,0.0,21.0,21.0,21.0,1.0,,,,,,,,,,,,,,,
,,,,,,,,,,,,,,,,,,,,,,,,,,,,,,,,,,,,,,,,,,,owl_15s.jpg,1.0,Yellow.png,4.0,37,,,,,,,,,,,,,,1.0,1.0,0.8277,0.0,22.0,22.0,22.0,1.0,,,,,,,,,,,,,,,
,,,,,,,,,,,,,,,,,,,,,,,,,,,,,,,,,,,,,,,,,,,mold2_04s.jpg,0.0,Green.png,4.0,37,,,,,,,,,,,,,,0.0,1.0,0.6236,0.0,23.0,23.0,23.0,1.0,,,,,,,,,,,,,,,
,,,,,,,,,,,,,,,,,,,,,,,,,,,,,,,,,,,,,,,,,,,mattress_01s.jpg,0.0,Blue.png,5.0,37,,,,,,,,,,,,,,0.0,1.0,0.727,0.0,24.0,24.0,24.0,1.0,,,,,,,,,,,,,,,
,,,,,,,,,,,,,,,,,,,,,,,,,,,,,,,,,,,,,,,,,,,police_car_01s.jpg,0.0,Purple.png,5.0,37,,,,,,,,,,,,,,0.0,1.0,0.6826,0.0,25.0,25.0,25.0,1.0,,,,,,,,,,,,,,,
,,,,,,,,,,,,,,,,,,,,,,,,,,,,,,,,,,,,,,,,,,,stethoscope_01b.jpg,0.0,Red.png,5.0,37,,,,,,,,,,,,,,0.0,1.0,0.8828,0.0,26.0,26.0,26.0,1.0,,,,,,,,,,,,,,,
,,,,,,,,,,,,,,,,,,,,,,,,,,,,,,,,,,,,,,,,,,,police_car_01s.jpg,1.0,Orange.png,5.0,37,,,,,,,,,,,,,,1.0,1.0,1.0326,0.0,27.0,27.0,27.0,1.0,,,,,,,,,,,,,,,
,,,,,,,,,,,,,,,,,,,,,,,,,,,,,,,,,,,,,,,,,,,sparkler_02s.jpg,0.0,Yellow.png,5.0,37,,,,,,,,,,,,,,0.0,1.0,0.6683,0.0,28.0,28.0,28.0,1.0,,,,,,,,,,,,,,,
,,,,,,,,,,,,,,,,,,,,,,,,,,,,,,,,,,,,,,,,,,,pacifier_09s.jpg,0.0,Green.png,5.0,37,,,,,,,,,,,,,,0.0,1.0,0.6407,0.0,29.0,29.0,29.0,1.0,,,,,,,,,,,,,,,
,,,,,,,,,,,,,,,,,,,,,,,,,,,,,,,,,,,,,,,,,,,machine_gun_09s.jpg,0.0,Blue.png,6.0,37,,,,,,,,,,,,,,0.0,1.0,0.6682,0.0,30.0,30.0,30.0,1.0,,,,,,,,,,,,,,,
,,,,,,,,,,,,,,,,,,,,,,,,,,,,,,,,,,,,,,,,,,,ram_05s.jpg,0.0,Purple.png,6.0,37,,,,,,,,,,,,,,0.0,1.0,0.6028,0.0,31.0,31.0,31.0,1.0,,,,,,,,,,,,,,,
,,,,,,,,,,,,,,,,,,,,,,,,,,,,,,,,,,,,,,,,,,,keyboard_05s.jpg,0.0,Red.png,6.0,37,,,,,,,,,,,,,,0.0,1.0,0.6929,0.0,32.0,32.0,32.0,1.0,,,,,,,,,,,,,,,
,,,,,,,,,,,,,,,,,,,,,,,,,,,,,,,,,,,,,,,,,,,leash_10s.jpg,0.0,Orange.png,6.0,37,,,,,,,,,,,,,,0.0,1.0,0.6702,0.0,33.0,33.0,33.0,1.0,,,,,,,,,,,,,,,
,,,,,,,,,,,,,,,,,,,,,,,,,,,,,,,,,,,,,,,,,,,pan_02s.jpg,0.0,Yellow.png,6.0,37,,,,,,,,,,,,,,0.0,1.0,0.5561,0.0,34.0,34.0,34.0,1.0,,,,,,,,,,,,,,,
,,,,,,,,,,,,,,,,,,,,,,,,,,,,,,,,,,,,,,,,,,,mixer_12s.jpg,0.0,Green.png,6.0,37,,,,,,,,,,,,,,0.0,1.0,0.6083,0.0,35.0,35.0,35.0,1.0,,,,,,,,,,,,,,,
,,,,,,,,,,,,,,,,,,,,,,,,,,,,,,,,,,,,,,,,,,,,0.0,,,37,,,,,,,,,,teabag_12s.jpg,punch2_09s.jpg,,,,,,,,,,,0.0,1.0,1.6556,0.0,0.0,0.0,0.0,1.0,,,,,,,
,,,,,,,,,,,,,,,,,,,,,,,,,,,,,,,,,,,,,,,,,,,,0.0,,,37,,,,,,,,,,mattress_01s.jpg,otter_05s.jpg,,,,,,,,,,,0.0,1.0,1.6547,0.0,1.0,1.0,1.0,1.0,,,,,,,
,,,,,,,,,,,,,,,,,,,,,,,,,,,,,,,,,,,,,,,,,,,,0.0,,,37,,,,,,,,,,stethoscope_01b.jpg,mold2_04s.jpg,,,,,,,,,,,0.0,1.0,1.337,0.0,2.0,2.0,2.0,1.0,,,,,,,
,,,,,,,,,,,,,,,,,,,,,,,,,,,,,,,,,,,,,,,,,,,,1.0,,,37,,,,,,,,,,glasses01a.jpg,cushion_08s.jpg,,,,,,,,,,,0.0,0.0,1.068,0.0,3.0,3.0,3.0,1.0,,,,,,,
,,,,,,,,,,,,,,,,,,,,,,,,,,,,,,,,,,,,,,,,,,,,1.0,,,37,,,,,,,,,,machine_gun_09s.jpg,leash_10s.jpg,,,,,,,,,,,1.0,1.0,1.2398,0.0,4.0,4.0,4.0,1.0,,,,,,,
,,,,,,,,,,,,,,,,,,,,,,,,,,,,,,,,,,,,,,,,,,,,0.0,,,37,,,,,,,,,,pan_02s.jpg,ram_05s.jpg,,,,,,,,,,,1.0,0.0,1.0675,0.0,5.0,5.0,5.0,1.0,,,,,,,
,,,,,,,,,,,,,,,,,,,,,,,,,,,,,,,,,,,,,,,,,,,,,,,37,,,,,,,,,,,,,,,,,,,,,,,,,,,,,,0.0,3.0,3.0,3.0,1.0,new2backpresent_4_2.xlsx,new2back_compare_task_4_2.xlsx
,,,,,,,,,,,,,,,,,,,,,,,,,,,,,,,,,,,,,,,,,,,golf_club_03s.jpg,0.0,Blue.png,1.0,37,,,,,,,,,,,,,,0.0,1.0,1.0373,0.0,0.0,0.0,0.0,1.0,,,,,,,,,,,,,,,
,,,,,,,,,,,,,,,,,,,,,,,,,,,,,,,,,,,,,,,,,,,golf_club_03s.jpg,0.0,Purple.png,1.0,37,,,,,,,,,,,,,,0.0,1.0,0.6431,0.0,1.0,1.0,1.0,1.0,,,,,,,,,,,,,,,
,,,,,,,,,,,,,,,,,,,,,,,,,,,,,,,,,,,,,,,,,,,golf_club_03s.jpg,0.0,Red.png,1.0,37,,,,,,,,,,,,,,1.0,0.0,0.5175,0.0,2.0,2.0,2.0,1.0,,,,,,,,,,,,,,,
,,,,,,,,,,,,,,,,,,,,,,,,,,,,,,,,,,,,,,,,,,,turnstile_08s.jpg,0.0,Orange.png,1.0,37,,,,,,,,,,,,,,0.0,1.0,0.8074,0.0,3.0,3.0,3.0,1.0,,,,,,,,,,,,,,,
,,,,,,,,,,,,,,,,,,,,,,,,,,,,,,,,,,,,,,,,,,,golf_club_03s.jpg,1.0,Yellow.png,1.0,37,,,,,,,,,,,,,,1.0,1.0,1.2602,0.0,4.0,4.0,4.0,1.0,,,,,,,,,,,,,,,
,,,,,,,,,,,,,,,,,,,,,,,,,,,,,,,,,,,,,,,,,,,milk_02s.jpg,0.0,Green.png,1.0,37,,,,,,,,,,,,,,0.0,1.0,0.6242,0.0,5.0,5.0,5.0,1.0,,,,,,,,,,,,,,,
,,,,,,,,,,,,,,,,,,,,,,,,,,,,,,,,,,,,,,,,,,,orange_12s.jpg,0.0,Blue.png,2.0,37,,,,,,,,,,,,,,0.0,1.0,0.6996,0.0,6.0,6.0,6.0,1.0,,,,,,,,,,,,,,,
,,,,,,,,,,,,,,,,,,,,,,,,,,,,,,,,,,,,,,,,,,,milk_02s.jpg,1.0,Purple.png,2.0,37,,,,,,,,,,,,,,1.0,1.0,0.9279,0.0,7.0,7.0,7.0,1.0,,,,,,,,,,,,,,,
,,,,,,,,,,,,,,,,,,,,,,,,,,,,,,,,,,,,,,,,,,,latch_15s.jpg,0.0,Red.png,2.0,37,,,,,,,,,,,,,,0.0,1.0,0.7825,0.0,8.0,8.0,8.0,1.0,,,,,,,,,,,,,,,
,,,,,,,,,,,,,,,,,,,,,,,,,,,,,,,,,,,,,,,,,,,bank_06s.jpg,0.0,Orange.png,2.0,37,,,,,,,,,,,,,,0.0,1.0,0.7756,0.0,9.0,9.0,9.0,1.0,,,,,,,,,,,,,,,
,,,,,,,,,,,,,,,,,,,,,,,,,,,,,,,,,,,,,,,,,,,milk_02s.jpg,0.0,Yellow.png,2.0,37,,,,,,,,,,,,,,0.0,1.0,0.9877,0.0,10.0,10.0,10.0,1.0,,,,,,,,,,,,,,,
,,,,,,,,,,,,,,,,,,,,,,,,,,,,,,,,,,,,,,,,,,,crab_16s.jpg,0.0,Green.png,2.0,37,,,,,,,,,,,,,,0.0,1.0,0.6196,0.0,11.0,11.0,11.0,1.0,,,,,,,,,,,,,,,
,,,,,,,,,,,,,,,,,,,,,,,,,,,,,,,,,,,,,,,,,,,birdcage_08s.jpg,0.0,Blue.png,3.0,37,,,,,,,,,,,,,,0.0,1.0,0.6269,0.0,12.0,12.0,12.0,1.0,,,,,,,,,,,,,,,
,,,,,,,,,,,,,,,,,,,,,,,,,,,,,,,,,,,,,,,,,,,spider_web_03s.jpg,0.0,Purple.png,3.0,37,,,,,,,,,,,,,,0.0,1.0,0.5755,0.0,13.0,13.0,13.0,1.0,,,,,,,,,,,,,,,
,,,,,,,,,,,,,,,,,,,,,,,,,,,,,,,,,,,,,,,,,,,knitting_needle_04s.jpg,0.0,Red.png,3.0,37,,,,,,,,,,,,,,0.0,1.0,0.7102,0.0,14.0,14.0,14.0,1.0,,,,,,,,,,,,,,,
,,,,,,,,,,,,,,,,,,,,,,,,,,,,,,,,,,,,,,,,,,,sugar_cube_11s.jpg,0.0,Orange.png,3.0,37,,,,,,,,,,,,,,0.0,1.0,0.7463,0.0,15.0,15.0,15.0,1.0,,,,,,,,,,,,,,,
,,,,,,,,,,,,,,,,,,,,,,,,,,,,,,,,,,,,,,,,,,,light_switch_02s.jpg,0.0,Yellow.png,3.0,37,,,,,,,,,,,,,,0.0,1.0,0.6274,0.0,16.0,16.0,16.0,1.0,,,,,,,,,,,,,,,
,,,,,,,,,,,,,,,,,,,,,,,,,,,,,,,,,,,,,,,,,,,gear_07s.jpg,0.0,Green.png,3.0,37,,,,,,,,,,,,,,0.0,1.0,0.5468,0.0,17.0,17.0,17.0,1.0,,,,,,,,,,,,,,,
,,,,,,,,,,,,,,,,,,,,,,,,,,,,,,,,,,,,,,,,,,,tongs_08s.jpg,0.0,Blue.png,4.0,37,,,,,,,,,,,,,,0.0,1.0,0.6045,0.0,18.0,18.0,18.0,1.0,,,,,,,,,,,,,,,
,,,,,,,,,,,,,,,,,,,,,,,,,,,,,,,,,,,,,,,,,,,recliner_02s.jpg,0.0,Purple.png,4.0,37,,,,,,,,,,,,,,0.0,1.0,0.5916,0.0,19.0,19.0,19.0,1.0,,,,,,,,,,,,,,,
,,,,,,,,,,,,,,,,,,,,,,,,,,,,,,,,,,,,,,,,,,,orangutan_03s.jpg,0.0,Red.png,4.0,37,,,,,,,,,,,,,,0.0,1.0,0.6439,0.0,20.0,20.0,20.0,1.0,,,,,,,,,,,,,,,
,,,,,,,,,,,,,,,,,,,,,,,,,,,,,,,,,,,,,,,,,,,golf_club_03s.jpg,0.0,Orange.png,4.0,37,,,,,,,,,,,,,,0.0,1.0,0.6824,0.0,21.0,21.0,21.0,1.0,,,,,,,,,,,,,,,
,,,,,,,,,,,,,,,,,,,,,,,,,,,,,,,,,,,,,,,,,,,lava_02s.jpg,0.0,Yellow.png,4.0,37,,,,,,,,,,,,,,0.0,1.0,0.8321,0.0,22.0,22.0,22.0,1.0,,,,,,,,,,,,,,,
,,,,,,,,,,,,,,,,,,,,,,,,,,,,,,,,,,,,,,,,,,,toilet_07s.jpg,0.0,Green.png,4.0,37,,,,,,,,,,,,,,0.0,1.0,0.7158,0.0,23.0,23.0,23.0,1.0,,,,,,,,,,,,,,,
,,,,,,,,,,,,,,,,,,,,,,,,,,,,,,,,,,,,,,,,,,,turnstile_08s.jpg,0.0,Blue.png,5.0,37,,,,,,,,,,,,,,0.0,1.0,0.8047,0.0,24.0,24.0,24.0,1.0,,,,,,,,,,,,,,,
,,,,,,,,,,,,,,,,,,,,,,,,,,,,,,,,,,,,,,,,,,,turnstile_08s.jpg,0.0,Purple.png,5.0,37,,,,,,,,,,,,,,0.0,1.0,0.7766,0.0,25.0,25.0,25.0,1.0,,,,,,,,,,,,,,,
,,,,,,,,,,,,,,,,,,,,,,,,,,,,,,,,,,,,,,,,,,,teacup_07s.jpg,0.0,Red.png,5.0,37,,,,,,,,,,,,,,0.0,1.0,0.6443,0.0,26.0,26.0,26.0,1.0,,,,,,,,,,,,,,,
,,,,,,,,,,,,,,,,,,,,,,,,,,,,,,,,,,,,,,,,,,,turnstile_08s.jpg,1.0,Orange.png,5.0,37,,,,,,,,,,,,,,1.0,1.0,0.7602,0.0,27.0,27.0,27.0,1.0,,,,,,,,,,,,,,,
,,,,,,,,,,,,,,,,,,,,,,,,,,,,,,,,,,,,,,,,,,,turnstile_08s.jpg,0.0,Yellow.png,5.0,37,,,,,,,,,,,,,,0.0,1.0,1.9502,0.0,28.0,28.0,28.0,1.0,,,,,,,,,,,,,,,
,,,,,,,,,,,,,,,,,,,,,,,,,,,,,,,,,,,,,,,,,,,antenna_01b.jpg,0.0,Green.png,5.0,37,,,,,,,,,,,,,,0.0,1.0,0.6841,0.0,29.0,29.0,29.0,1.0,,,,,,,,,,,,,,,
,,,,,,,,,,,,,,,,,,,,,,,,,,,,,,,,,,,,,,,,,,,keyhole_03s.jpg,0.0,Blue.png,6.0,37,,,,,,,,,,,,,,0.0,1.0,0.5517,0.0,30.0,30.0,30.0,1.0,,,,,,,,,,,,,,,
,,,,,,,,,,,,,,,,,,,,,,,,,,,,,,,,,,,,,,,,,,,air_pump_05s.jpg,0.0,Purple.png,6.0,37,,,,,,,,,,,,,,0.0,1.0,0.5879,0.0,31.0,31.0,31.0,1.0,,,,,,,,,,,,,,,
,,,,,,,,,,,,,,,,,,,,,,,,,,,,,,,,,,,,,,,,,,,eggshell_14s.jpg,0.0,Red.png,6.0,37,,,,,,,,,,,,,,0.0,1.0,0.6849,0.0,32.0,32.0,32.0,1.0,,,,,,,,,,,,,,,
,,,,,,,,,,,,,,,,,,,,,,,,,,,,,,,,,,,,,,,,,,,eyedropper_12s.jpg,0.0,Orange.png,6.0,37,,,,,,,,,,,,,,0.0,1.0,0.6737,0.0,33.0,33.0,33.0,1.0,,,,,,,,,,,,,,,
,,,,,,,,,,,,,,,,,,,,,,,,,,,,,,,,,,,,,,,,,,,machete_06s.jpg,0.0,Yellow.png,6.0,37,,,,,,,,,,,,,,0.0,1.0,0.6687,0.0,34.0,34.0,34.0,1.0,,,,,,,,,,,,,,,
,,,,,,,,,,,,,,,,,,,,,,,,,,,,,,,,,,,,,,,,,,,eyedropper_12s.jpg,1.0,Green.png,6.0,37,,,,,,,,,,,,,,1.0,1.0,0.617,0.0,35.0,35.0,35.0,1.0,,,,,,,,,,,,,,,
,,,,,,,,,,,,,,,,,,,,,,,,,,,,,,,,,,,,,,,,,,,,1.0,,,37,,,,,,,,,,sugar_cube_11s.jpg,tongs_08s.jpg,,,,,,,,,,,1.0,1.0,1.4393,0.0,0.0,0.0,0.0,1.0,,,,,,,
,,,,,,,,,,,,,,,,,,,,,,,,,,,,,,,,,,,,,,,,,,,,1.0,,,37,,,,,,,,,,antenna_01b.jpg,eggshell_14s.jpg,,,,,,,,,,,0.0,0.0,1.4623,0.0,1.0,1.0,1.0,1.0,,,,,,,
,,,,,,,,,,,,,,,,,,,,,,,,,,,,,,,,,,,,,,,,,,,,1.0,,,37,,,,,,,,,,bank_06s.jpg,birdcage_08s.jpg,,,,,,,,,,,0.0,0.0,1.7897,0.0,2.0,2.0,2.0,1.0,,,,,,,
,,,,,,,,,,,,,,,,,,,,,,,,,,,,,,,,,,,,,,,,,,,,1.0,,,37,,,,,,,,,,air_pump_05s.jpg,machete_06s.jpg,,,,,,,,,,,0.0,0.0,1.0232,0.0,3.0,3.0,3.0,1.0,,,,,,,
,,,,,,,,,,,,,,,,,,,,,,,,,,,,,,,,,,,,,,,,,,,,1.0,,,37,,,,,,,,,,latch_15s.jpg,crab_16s.jpg,,,,,,,,,,,0.0,0.0,1.208,0.0,4.0,4.0,4.0,1.0,,,,,,,
,,,,,,,,,,,,,,,,,,,,,,,,,,,,,,,,,,,,,,,,,,,,1.0,,,37,,,,,,,,,,spider_web_03s.jpg,light_switch_02s.jpg,,,,,,,,,,,0.0,0.0,1.4183,0.0,5.0,5.0,5.0,1.0,,,,,,,
,,,,,,,,,,,,,,,,,,,,,,,,,,,,,,,,,,,,,,,,,,,,,,,37,,,,,,,,,,,,,,,,,,,,,,,,,,,,,,0.0,4.0,4.0,4.0,1.0,new2backpresent_5_2.xlsx,new2back_compare_task_5_2.xlsx
,,,,,,,,,,,,,,,,,,,,,,,,,,,,,,,,,,,,,,,,,,,gazelle_10s.jpg,0.0,Blue.png,1.0,37,,,,,,,,,,,,,,0.0,1.0,1.3704,0.0,0.0,0.0,0.0,1.0,,,,,,,,,,,,,,,
,,,,,,,,,,,,,,,,,,,,,,,,,,,,,,,,,,,,,,,,,,,saddle_06s.jpg,0.0,Purple.png,1.0,37,,,,,,,,,,,,,,0.0,1.0,0.6966,0.0,1.0,1.0,1.0,1.0,,,,,,,,,,,,,,,
,,,,,,,,,,,,,,,,,,,,,,,,,,,,,,,,,,,,,,,,,,,saddle_06s.jpg,0.0,Red.png,1.0,37,,,,,,,,,,,,,,0.0,1.0,0.9772,0.0,2.0,2.0,2.0,1.0,,,,,,,,,,,,,,,
,,,,,,,,,,,,,,,,,,,,,,,,,,,,,,,,,,,,,,,,,,,kimono_13s.jpg,0.0,Orange.png,1.0,37,,,,,,,,,,,,,,0.0,1.0,0.6211,0.0,3.0,3.0,3.0,1.0,,,,,,,,,,,,,,,
,,,,,,,,,,,,,,,,,,,,,,,,,,,,,,,,,,,,,,,,,,,timer_03s.jpg,0.0,Yellow.png,1.0,37,,,,,,,,,,,,,,0.0,1.0,0.9211,0.0,4.0,4.0,4.0,1.0,,,,,,,,,,,,,,,
,,,,,,,,,,,,,,,,,,,,,,,,,,,,,,,,,,,,,,,,,,,tulip_02s.jpg,0.0,Green.png,1.0,37,,,,,,,,,,,,,,0.0,1.0,0.6467,0.0,5.0,5.0,5.0,1.0,,,,,,,,,,,,,,,
,,,,,,,,,,,,,,,,,,,,,,,,,,,,,,,,,,,,,,,,,,,prism_10s.jpg,0.0,Blue.png,2.0,37,,,,,,,,,,,,,,0.0,1.0,0.5376,0.0,6.0,6.0,6.0,1.0,,,,,,,,,,,,,,,
,,,,,,,,,,,,,,,,,,,,,,,,,,,,,,,,,,,,,,,,,,,razor_12s.jpg,0.0,Purple.png,2.0,37,,,,,,,,,,,,,,0.0,1.0,0.6212,0.0,7.0,7.0,7.0,1.0,,,,,,,,,,,,,,,
,,,,,,,,,,,,,,,,,,,,,,,,,,,,,,,,,,,,,,,,,,,blazer_02s.jpg,0.0,Red.png,2.0,37,,,,,,,,,,,,,,0.0,1.0,0.5929,0.0,8.0,8.0,8.0,1.0,,,,,,,,,,,,,,,
,,,,,,,,,,,,,,,,,,,,,,,,,,,,,,,,,,,,,,,,,,,razor_12s.jpg,1.0,Orange.png,2.0,37,,,,,,,,,,,,,,1.0,1.0,1.4053,0.0,9.0,9.0,9.0,1.0,,,,,,,,,,,,,,,
,,,,,,,,,,,,,,,,,,,,,,,,,,,,,,,,,,,,,,,,,,,lamb_chop_07s.jpg,0.0,Yellow.png,2.0,37,,,,,,,,,,,,,,0.0,1.0,0.6742,0.0,10.0,10.0,10.0,1.0,,,,,,,,,,,,,,,
,,,,,,,,,,,,,,,,,,,,,,,,,,,,,,,,,,,,,,,,,,,razor_12s.jpg,1.0,Green.png,2.0,37,,,,,,,,,,,,,,1.0,1.0,0.7249,0.0,11.0,11.0,11.0,1.0,,,,,,,,,,,,,,,
,,,,,,,,,,,,,,,,,,,,,,,,,,,,,,,,,,,,,,,,,,,lamb_chop_07s.jpg,1.0,Blue.png,3.0,37,,,,,,,,,,,,,,1.0,1.0,1.0173,0.0,12.0,12.0,12.0,1.0,,,,,,,,,,,,,,,
,,,,,,,,,,,,,,,,,,,,,,,,,,,,,,,,,,,,,,,,,,,lamb_chop_07s.jpg,0.0,Purple.png,3.0,37,,,,,,,,,,,,,,0.0,1.0,0.9455,0.0,13.0,13.0,13.0,1.0,,,,,,,,,,,,,,,
,,,,,,,,,,,,,,,,,,,,,,,,,,,,,,,,,,,,,,,,,,,timer_03s.jpg,0.0,Red.png,3.0,37,,,,,,,,,,,,,,0.0,1.0,0.9964,0.0,14.0,14.0,14.0,1.0,,,,,,,,,,,,,,,
,,,,,,,,,,,,,,,,,,,,,,,,,,,,,,,,,,,,,,,,,,,lamb_chop_07s.jpg,1.0,Orange.png,3.0,37,,,,,,,,,,,,,,1.0,1.0,0.9616,0.0,15.0,15.0,15.0,1.0,,,,,,,,,,,,,,,
,,,,,,,,,,,,,,,,,,,,,,,,,,,,,,,,,,,,,,,,,,,glue_01s.jpg,0.0,Yellow.png,3.0,37,,,,,,,,,,,,,,0.0,1.0,0.5972,0.0,16.0,16.0,16.0,1.0,,,,,,,,,,,,,,,
,,,,,,,,,,,,,,,,,,,,,,,,,,,,,,,,,,,,,,,,,,,solar_panel_02s.jpg,0.0,Green.png,3.0,37,,,,,,,,,,,,,,0.0,1.0,0.5615,0.0,17.0,17.0,17.0,1.0,,,,,,,,,,,,,,,
,,,,,,,,,,,,,,,,,,,,,,,,,,,,,,,,,,,,,,,,,,,muffin_12n.jpg,0.0,Blue.png,4.0,37,,,,,,,,,,,,,,0.0,1.0,0.6298,0.0,18.0,18.0,18.0,1.0,,,,,,,,,,,,,,,
,,,,,,,,,,,,,,,,,,,,,,,,,,,,,,,,,,,,,,,,,,,pepper2_21s.jpg,0.0,Purple.png,4.0,37,,,,,,,,,,,,,,0.0,1.0,0.7616,0.0,19.0,19.0,19.0,1.0,,,,,,,,,,,,,,,
,,,,,,,,,,,,,,,,,,,,,,,,,,,,,,,,,,,,,,,,,,,marker_05s.jpg,0.0,Red.png,4.0,37,,,,,,,,,,,,,,0.0,1.0,1.6858,0.0,20.0,20.0,20.0,1.0,,,,,,,,,,,,,,,
,,,,,,,,,,,,,,,,,,,,,,,,,,,,,,,,,,,,,,,,,,,soccer_ball_12s.jpg,0.0,Orange.png,4.0,37,,,,,,,,,,,,,,0.0,1.0,0.7102,0.0,21.0,21.0,21.0,1.0,,,,,,,,,,,,,,,
,,,,,,,,,,,,,,,,,,,,,,,,,,,,,,,,,,,,,,,,,,,amber_04s.jpg,0.0,Yellow.png,4.0,37,,,,,,,,,,,,,,0.0,1.0,0.6349,0.0,22.0,22.0,22.0,1.0,,,,,,,,,,,,,,,
,,,,,,,,,,,,,,,,,,,,,,,,,,,,,,,,,,,,,,,,,,,stopwatch_04s.jpg,0.0,Green.png,4.0,37,,,,,,,,,,,,,,0.0,1.0,0.5676,0.0,23.0,23.0,23.0,1.0,,,,,,,,,,,,,,,
,,,,,,,,,,,,,,,,,,,,,,,,,,,,,,,,,,,,,,,,,,,amber_04s.jpg,1.0,Blue.png,5.0,37,,,,,,,,,,,,,,1.0,1.0,1.166,0.0,24.0,24.0,24.0,1.0,,,,,,,,,,,,,,,
,,,,,,,,,,,,,,,,,,,,,,,,,,,,,,,,,,,,,,,,,,,racehorse_03s.jpg,0.0,Purple.png,5.0,37,,,,,,,,,,,,,,0.0,1.0,0.7272,0.0,25.0,25.0,25.0,1.0,,,,,,,,,,,,,,,
,,,,,,,,,,,,,,,,,,,,,,,,,,,,,,,,,,,,,,,,,,,amber_04s.jpg,1.0,Red.png,5.0,37,,,,,,,,,,,,,,1.0,1.0,1.403,0.0,26.0,26.0,26.0,1.0,,,,,,,,,,,,,,,
,,,,,,,,,,,,,,,,,,,,,,,,,,,,,,,,,,,,,,,,,,,duck_01b.jpg,0.0,Orange.png,5.0,37,,,,,,,,,,,,,,0.0,1.0,0.5506,0.0,27.0,27.0,27.0,1.0,,,,,,,,,,,,,,,
,,,,,,,,,,,,,,,,,,,,,,,,,,,,,,,,,,,,,,,,,,,amber_04s.jpg,1.0,Yellow.png,5.0,37,,,,,,,,,,,,,,1.0,1.0,1.5491,0.0,28.0,28.0,28.0,1.0,,,,,,,,,,,,,,,
,,,,,,,,,,,,,,,,,,,,,,,,,,,,,,,,,,,,,,,,,,,duck_01b.jpg,1.0,Green.png,5.0,37,,,,,,,,,,,,,,0.0,0.0,1.7584,0.0,29.0,29.0,29.0,1.0,,,,,,,,,,,,,,,
,,,,,,,,,,,,,,,,,,,,,,,,,,,,,,,,,,,,,,,,,,,duck_01b.jpg,0.0,Blue.png,6.0,37,,,,,,,,,,,,,,1.0,0.0,0.7642,0.0,30.0,30.0,30.0,1.0,,,,,,,,,,,,,,,
,,,,,,,,,,,,,,,,,,,,,,,,,,,,,,,,,,,,,,,,,,,duck_01b.jpg,1.0,Purple.png,6.0,37,,,,,,,,,,,,,,1.0,1.0,1.5597,0.0,31.0,31.0,31.0,1.0,,,,,,,,,,,,,,,
,,,,,,,,,,,,,,,,,,,,,,,,,,,,,,,,,,,,,,,,,,,magnet_03s.jpg,0.0,Red.png,6.0,37,,,,,,,,,,,,,,0.0,1.0,0.6427,0.0,32.0,32.0,32.0,1.0,,,,,,,,,,,,,,,
,,,,,,,,,,,,,,,,,,,,,,,,,,,,,,,,,,,,,,,,,,,duck_01b.jpg,1.0,Orange.png,6.0,37,,,,,,,,,,,,,,1.0,1.0,1.0938,0.0,33.0,33.0,33.0,1.0,,,,,,,,,,,,,,,
,,,,,,,,,,,,,,,,,,,,,,,,,,,,,,,,,,,,,,,,,,,swimming_pool_17s.jpg,0.0,Yellow.png,6.0,37,,,,,,,,,,,,,,0.0,1.0,0.6948,0.0,34.0,34.0,34.0,1.0,,,,,,,,,,,,,,,
,,,,,,,,,,,,,,,,,,,,,,,,,,,,,,,,,,,,,,,,,,,roulette_wheel_04s.jpg,0.0,Green.png,6.0,37,,,,,,,,,,,,,,0.0,1.0,0.7305,0.0,35.0,35.0,35.0,1.0,,,,,,,,,,,,,,,
,,,,,,,,,,,,,,,,,,,,,,,,,,,,,,,,,,,,,,,,,,,,0.0,,,37,,,,,,,,,,blazer_02s.jpg,tulip_02s.jpg,,,,,,,,,,,1.0,0.0,2.0092,0.0,0.0,0.0,0.0,1.0,,,,,,,
,,,,,,,,,,,,,,,,,,,,,,,,,,,,,,,,,,,,,,,,,,,,1.0,,,37,,,,,,,,,,glue_01s.jpg,pepper2_21s.jpg,,,,,,,,,,,0.0,0.0,1.4447,0.0,1.0,1.0,1.0,1.0,,,,,,,
,,,,,,,,,,,,,,,,,,,,,,,,,,,,,,,,,,,,,,,,,,,,1.0,,,37,,,,,,,,,,kimono_13s.jpg,prism_10s.jpg,,,,,,,,,,,1.0,1.0,1.189,0.0,2.0,2.0,2.0,1.0,,,,,,,
,,,,,,,,,,,,,,,,,,,,,,,,,,,,,,,,,,,,,,,,,,,,0.0,,,37,,,,,,,,,,soccer_ball_12s.jpg,muffin_12n.jpg,,,,,,,,,,,0.0,1.0,1.5318,0.0,3.0,3.0,3.0,1.0,,,,,,,
,,,,,,,,,,,,,,,,,,,,,,,,,,,,,,,,,,,,,,,,,,,,1.0,,,37,,,,,,,,,,magnet_03s.jpg,roulette_wheel_04s.jpg,,,,,,,,,,,1.0,1.0,1.3669,0.0,4.0,4.0,4.0,1.0,,,,,,,
,,,,,,,,,,,,,,,,,,,,,,,,,,,,,,,,,,,,,,,,,,,,0.0,,,37,,,,,,,,,,stopwatch_04s.jpg,marker_05s.jpg,,,,,,,,,,,0.0,1.0,1.2878,0.0,5.0,5.0,5.0,1.0,,,,,,,
,,,,,,,,,,,,,,,,,,,,,,,,,,,,,,,,,,,,,,,,,,,,,,,37,,,,,,,,,,,,,,,,,,,,,,,,,,,,,,0.0,5.0,5.0,5.0,1.0,new2backpresent_6_2.xlsx,new2back_compare_task_6_2.xlsx
,,,,,,,,,,,,,,,,,,,,,,,,,,,,,,,,,,,,,,,,,,,slingshot_07s.jpg,0.0,Blue.png,1.0,37,,,,,,,,,,,,,,0.0,1.0,0.8175,0.0,0.0,0.0,0.0,1.0,,,,,,,,,,,,,,,
,,,,,,,,,,,,,,,,,,,,,,,,,,,,,,,,,,,,,,,,,,,slingshot_07s.jpg,0.0,Purple.png,1.0,37,,,,,,,,,,,,,,0.0,1.0,0.4669,0.0,1.0,1.0,1.0,1.0,,,,,,,,,,,,,,,
,,,,,,,,,,,,,,,,,,,,,,,,,,,,,,,,,,,,,,,,,,,aluminum_foil_08s.jpg,0.0,Red.png,1.0,37,,,,,,,,,,,,,,0.0,1.0,0.7404,0.0,2.0,2.0,2.0,1.0,,,,,,,,,,,,,,,
,,,,,,,,,,,,,,,,,,,,,,,,,,,,,,,,,,,,,,,,,,,ink_08s.jpg,0.0,Orange.png,1.0,37,,,,,,,,,,,,,,0.0,1.0,0.6329,0.0,3.0,3.0,3.0,1.0,,,,,,,,,,,,,,,
,,,,,,,,,,,,,,,,,,,,,,,,,,,,,,,,,,,,,,,,,,,aluminum_foil_08s.jpg,1.0,Yellow.png,1.0,37,,,,,,,,,,,,,,1.0,1.0,0.9885,0.0,4.0,4.0,4.0,1.0,,,,,,,,,,,,,,,
,,,,,,,,,,,,,,,,,,,,,,,,,,,,,,,,,,,,,,,,,,,slingshot_07s.jpg,0.0,Green.png,1.0,37,,,,,,,,,,,,,,0.0,1.0,0.9176,0.0,5.0,5.0,5.0,1.0,,,,,,,,,,,,,,,
,,,,,,,,,,,,,,,,,,,,,,,,,,,,,,,,,,,,,,,,,,,aluminum_foil_08s.jpg,1.0,Blue.png,2.0,37,,,,,,,,,,,,,,1.0,1.0,1.7356,0.0,6.0,6.0,6.0,1.0,,,,,,,,,,,,,,,
,,,,,,,,,,,,,,,,,,,,,,,,,,,,,,,,,,,,,,,,,,,aluminum_foil_08s.jpg,0.0,Purple.png,2.0,37,,,,,,,,,,,,,,0.0,1.0,2.0005,0.0,7.0,7.0,7.0,1.0,,,,,,,,,,,,,,,
,,,,,,,,,,,,,,,,,,,,,,,,,,,,,,,,,,,,,,,,,,,ice-cream_cone_06s.jpg,0.0,Red.png,2.0,37,,,,,,,,,,,,,,0.0,1.0,1.2049,0.0,8.0,8.0,8.0,1.0,,,,,,,,,,,,,,,
,,,,,,,,,,,,,,,,,,,,,,,,,,,,,,,,,,,,,,,,,,,ink_08s.jpg,0.0,Orange.png,2.0,37,,,,,,,,,,,,,,0.0,1.0,0.8736,0.0,9.0,9.0,9.0,1.0,,,,,,,,,,,,,,,
,,,,,,,,,,,,,,,,,,,,,,,,,,,,,,,,,,,,,,,,,,,emerald_02s.jpg,0.0,Yellow.png,2.0,37,,,,,,,,,,,,,,0.0,1.0,0.765,0.0,10.0,10.0,10.0,1.0,,,,,,,,,,,,,,,
,,,,,,,,,,,,,,,,,,,,,,,,,,,,,,,,,,,,,,,,,,,bathtub_23s.jpg,0.0,Green.png,2.0,37,,,,,,,,,,,,,,0.0,1.0,0.6725,0.0,11.0,11.0,11.0,1.0,,,,,,,,,,,,,,,
,,,,,,,,,,,,,,,,,,,,,,,,,,,,,,,,,,,,,,,,,,,bubble_01b.jpg,0.0,Blue.png,3.0,37,,,,,,,,,,,,,,0.0,1.0,0.7007,0.0,12.0,12.0,12.0,1.0,,,,,,,,,,,,,,,
,,,,,,,,,,,,,,,,,,,,,,,,,,,,,,,,,,,,,,,,,,,mirror_12s.jpg,0.0,Purple.png,3.0,37,,,,,,,,,,,,,,0.0,1.0,0.633,0.0,13.0,13.0,13.0,1.0,,,,,,,,,,,,,,,
,,,,,,,,,,,,,,,,,,,,,,,,,,,,,,,,,,,,,,,,,,,swing_set_15s.jpg,0.0,Red.png,3.0,37,,,,,,,,,,,,,,0.0,1.0,0.7811,0.0,14.0,14.0,14.0,1.0,,,,,,,,,,,,,,,
,,,,,,,,,,,,,,,,,,,,,,,,,,,,,,,,,,,,,,,,,,,pinwheel_06s.jpg,0.0,Orange.png,3.0,37,,,,,,,,,,,,,,0.0,1.0,0.7369,0.0,15.0,15.0,15.0,1.0,,,,,,,,,,,,,,,
,,,,,,,,,,,,,,,,,,,,,,,,,,,,,,,,,,,,,,,,,,,swing_set_15s.jpg,1.0,Yellow.png,3.0,37,,,,,,,,,,,,,,1.0,1.0,0.8047,0.0,16.0,16.0,16.0,1.0,,,,,,,,,,,,,,,
,,,,,,,,,,,,,,,,,,,,,,,,,,,,,,,,,,,,,,,,,,,pinwheel_06s.jpg,1.0,Green.png,3.0,37,,,,,,,,,,,,,,1.0,1.0,1.1378,0.0,17.0,17.0,17.0,1.0,,,,,,,,,,,,,,,
,,,,,,,,,,,,,,,,,,,,,,,,,,,,,,,,,,,,,,,,,,,ink_08s.jpg,0.0,Blue.png,4.0,37,,,,,,,,,,,,,,0.0,1.0,0.6058,0.0,18.0,18.0,18.0,1.0,,,,,,,,,,,,,,,
,,,,,,,,,,,,,,,,,,,,,,,,,,,,,,,,,,,,,,,,,,,plunger_08s.jpg,0.0,Purple.png,4.0,37,,,,,,,,,,,,,,0.0,1.0,0.8173,0.0,19.0,19.0,19.0,1.0,,,,,,,,,,,,,,,
,,,,,,,,,,,,,,,,,,,,,,,,,,,,,,,,,,,,,,,,,,,ink_08s.jpg,1.0,Red.png,4.0,37,,,,,,,,,,,,,,1.0,1.0,0.9513,0.0,20.0,20.0,20.0,1.0,,,,,,,,,,,,,,,
,,,,,,,,,,,,,,,,,,,,,,,,,,,,,,,,,,,,,,,,,,,ink_08s.jpg,0.0,Orange.png,4.0,37,,,,,,,,,,,,,,0.0,1.0,1.1383,0.0,21.0,21.0,21.0,1.0,,,,,,,,,,,,,,,
,,,,,,,,,,,,,,,,,,,,,,,,,,,,,,,,,,,,,,,,,,,metronome_03s.jpg,0.0,Yellow.png,4.0,37,,,,,,,,,,,,,,0.0,1.0,0.6643,0.0,22.0,22.0,22.0,1.0,,,,,,,,,,,,,,,
,,,,,,,,,,,,,,,,,,,,,,,,,,,,,,,,,,,,,,,,,,,puppy_08s.jpg,0.0,Green.png,4.0,37,,,,,,,,,,,,,,0.0,1.0,0.6579,0.0,23.0,23.0,23.0,1.0,,,,,,,,,,,,,,,
,,,,,,,,,,,,,,,,,,,,,,,,,,,,,,,,,,,,,,,,,,,treasure_08s.jpg,0.0,Blue.png,5.0,37,,,,,,,,,,,,,,0.0,1.0,0.7013,0.0,24.0,24.0,24.0,1.0,,,,,,,,,,,,,,,
,,,,,,,,,,,,,,,,,,,,,,,,,,,,,,,,,,,,,,,,,,,penguin_16s.jpg,0.0,Purple.png,5.0,37,,,,,,,,,,,,,,0.0,1.0,0.6738,0.0,25.0,25.0,25.0,1.0,,,,,,,,,,,,,,,
,,,,,,,,,,,,,,,,,,,,,,,,,,,,,,,,,,,,,,,,,,,bacon_05s.jpg,0.0,Red.png,5.0,37,,,,,,,,,,,,,,0.0,1.0,0.7614,0.0,26.0,26.0,26.0,1.0,,,,,,,,,,,,,,,
,,,,,,,,,,,,,,,,,,,,,,,,,,,,,,,,,,,,,,,,,,,giraffe_11s.jpg,0.0,Orange.png,5.0,37,,,,,,,,,,,,,,0.0,1.0,0.549,0.0,27.0,27.0,27.0,1.0,,,,,,,,,,,,,,,
,,,,,,,,,,,,,,,,,,,,,,,,,,,,,,,,,,,,,,,,,,,rug_09s.jpg,0.0,Yellow.png,5.0,37,,,,,,,,,,,,,,0.0,1.0,0.6166,0.0,28.0,28.0,28.0,1.0,,,,,,,,,,,,,,,
,,,,,,,,,,,,,,,,,,,,,,,,,,,,,,,,,,,,,,,,,,,lamp_08s.jpg,0.0,Green.png,5.0,37,,,,,,,,,,,,,,0.0,1.0,0.5983,0.0,29.0,29.0,29.0,1.0,,,,,,,,,,,,,,,
,,,,,,,,,,,,,,,,,,,,,,,,,,,,,,,,,,,,,,,,,,,metronome_03s.jpg,0.0,Blue.png,6.0,37,,,,,,,,,,,,,,0.0,1.0,0.9021,0.0,30.0,30.0,30.0,1.0,,,,,,,,,,,,,,,
,,,,,,,,,,,,,,,,,,,,,,,,,,,,,,,,,,,,,,,,,,,metronome_03s.jpg,0.0,Purple.png,6.0,37,,,,,,,,,,,,,,0.0,1.0,0.9095,0.0,31.0,31.0,31.0,1.0,,,,,,,,,,,,,,,
,,,,,,,,,,,,,,,,,,,,,,,,,,,,,,,,,,,,,,,,,,,lip_gloss_06s.jpg,0.0,Red.png,6.0,37,,,,,,,,,,,,,,0.0,1.0,0.726,0.0,32.0,32.0,32.0,1.0,,,,,,,,,,,,,,,
,,,,,,,,,,,,,,,,,,,,,,,,,,,,,,,,,,,,,,,,,,,metronome_03s.jpg,1.0,Orange.png,6.0,37,,,,,,,,,,,,,,1.0,1.0,1.259,0.0,33.0,33.0,33.0,1.0,,,,,,,,,,,,,,,
,,,,,,,,,,,,,,,,,,,,,,,,,,,,,,,,,,,,,,,,,,,laser_pointer_02s.jpg,0.0,Yellow.png,6.0,37,,,,,,,,,,,,,,0.0,1.0,0.6462,0.0,34.0,34.0,34.0,1.0,,,,,,,,,,,,,,,
,,,,,,,,,,,,,,,,,,,,,,,,,,,,,,,,,,,,,,,,,,,metronome_03s.jpg,1.0,Green.png,6.0,37,,,,,,,,,,,,,,1.0,1.0,0.9545,0.0,35.0,35.0,35.0,1.0,,,,,,,,,,,,,,,
,,,,,,,,,,,,,,,,,,,,,,,,,,,,,,,,,,,,,,,,,,,,1.0,,,37,,,,,,,,,,emerald_02s.jpg,mirror_12s.jpg,,,,,,,,,,,1.0,1.0,1.5526,0.0,0.0,0.0,0.0,1.0,,,,,,,
,,,,,,,,,,,,,,,,,,,,,,,,,,,,,,,,,,,,,,,,,,,,1.0,,,37,,,,,,,,,,puppy_08s.jpg,bacon_05s.jpg,,,,,,,,,,,1.0,1.0,1.6212,0.0,1.0,1.0,1.0,1.0,,,,,,,
,,,,,,,,,,,,,,,,,,,,,,,,,,,,,,,,,,,,,,,,,,,,0.0,,,37,,,,,,,,,,lip_gloss_06s.jpg,lamp_08s.jpg,,,,,,,,,,,1.0,0.0,1.6218,0.0,2.0,2.0,2.0,1.0,,,,,,,
,,,,,,,,,,,,,,,,,,,,,,,,,,,,,,,,,,,,,,,,,,,,0.0,,,37,,,,,,,,,,bathtub_23s.jpg,ice-cream_cone_06s.jpg,,,,,,,,,,,1.0,0.0,1.4794,0.0,3.0,3.0,3.0,1.0,,,,,,,
,,,,,,,,,,,,,,,,,,,,,,,,,,,,,,,,,,,,,,,,,,,,0.0,,,37,,,,,,,,,,giraffe_11s.jpg,treasure_08s.jpg,,,,,,,,,,,0.0,1.0,1.6306,0.0,4.0,4.0,4.0,1.0,,,,,,,
,,,,,,,,,,,,,,,,,,,,,,,,,,,,,,,,,,,,,,,,,,,,0.0,,,37,,,,,,,,,,rug_09s.jpg,penguin_16s.jpg,,,,,,,,,,,1.0,0.0,1.2713,0.0,5.0,5.0,5.0,1.0,,,,,,,
,,,,,,,,,,,,,,,,,,,,,,,,,,,,,,,,,,,,,,,,,,,,,,,37,,,,,,,,,,,,,,,,,,,,,,,,,,,,,,0.0,6.0,6.0,6.0,1.0,new2backpresent_7_2.xlsx,new2back_compare_task_7_2.xlsx
,,,,,,,,,,,,,,,,,,,,,,,,,,,,,,,,,,,,,,,,,,,ant_12s.jpg,0.0,Blue.png,1.0,37,,,,,,,,,,,,,,0.0,1.0,0.9292,0.0,0.0,0.0,0.0,1.0,,,,,,,,,,,,,,,
,,,,,,,,,,,,,,,,,,,,,,,,,,,,,,,,,,,,,,,,,,,ant_12s.jpg,0.0,Purple.png,1.0,37,,,,,,,,,,,,,,0.0,1.0,0.6041,0.0,1.0,1.0,1.0,1.0,,,,,,,,,,,,,,,
,,,,,,,,,,,,,,,,,,,,,,,,,,,,,,,,,,,,,,,,,,,ticktacktoe_08s.jpg,0.0,Red.png,1.0,37,,,,,,,,,,,,,,0.0,1.0,0.656,0.0,2.0,2.0,2.0,1.0,,,,,,,,,,,,,,,
,,,,,,,,,,,,,,,,,,,,,,,,,,,,,,,,,,,,,,,,,,,frog_09s.jpg,0.0,Orange.png,1.0,37,,,,,,,,,,,,,,0.0,1.0,0.5478,0.0,3.0,3.0,3.0,1.0,,,,,,,,,,,,,,,
,,,,,,,,,,,,,,,,,,,,,,,,,,,,,,,,,,,,,,,,,,,ticktacktoe_08s.jpg,1.0,Yellow.png,1.0,37,,,,,,,,,,,,,,1.0,1.0,0.76,0.0,4.0,4.0,4.0,1.0,,,,,,,,,,,,,,,
,,,,,,,,,,,,,,,,,,,,,,,,,,,,,,,,,,,,,,,,,,,feather02.jpg,0.0,Green.png,1.0,37,,,,,,,,,,,,,,0.0,1.0,0.5644,0.0,5.0,5.0,5.0,1.0,,,,,,,,,,,,,,,
,,,,,,,,,,,,,,,,,,,,,,,,,,,,,,,,,,,,,,,,,,,gas_mask_11s.jpg,0.0,Blue.png,2.0,37,,,,,,,,,,,,,,0.0,1.0,1.1367,0.0,6.0,6.0,6.0,1.0,,,,,,,,,,,,,,,
,,,,,,,,,,,,,,,,,,,,,,,,,,,,,,,,,,,,,,,,,,,gas_mask_11s.jpg,0.0,Purple.png,2.0,37,,,,,,,,,,,,,,0.0,1.0,1.1322,0.0,7.0,7.0,7.0,1.0,,,,,,,,,,,,,,,
,,,,,,,,,,,,,,,,,,,,,,,,,,,,,,,,,,,,,,,,,,,mop_08s.jpg,0.0,Red.png,2.0,37,,,,,,,,,,,,,,0.0,1.0,0.6406,0.0,8.0,8.0,8.0,1.0,,,,,,,,,,,,,,,
,,,,,,,,,,,,,,,,,,,,,,,,,,,,,,,,,,,,,,,,,,,gas_mask_11s.jpg,1.0,Orange.png,2.0,37,,,,,,,,,,,,,,1.0,1.0,0.7847,0.0,9.0,9.0,9.0,1.0,,,,,,,,,,,,,,,
,,,,,,,,,,,,,,,,,,,,,,,,,,,,,,,,,,,,,,,,,,,pea_11s.jpg,0.0,Yellow.png,2.0,37,,,,,,,,,,,,,,0.0,1.0,0.6007,0.0,10.0,10.0,10.0,1.0,,,,,,,,,,,,,,,
,,,,,,,,,,,,,,,,,,,,,,,,,,,,,,,,,,,,,,,,,,,bowler_hat_10s.jpg,0.0,Green.png,2.0,37,,,,,,,,,,,,,,0.0,1.0,0.6688,0.0,11.0,11.0,11.0,1.0,,,,,,,,,,,,,,,
,,,,,,,,,,,,,,,,,,,,,,,,,,,,,,,,,,,,,,,,,,,pencil_sharpener_09n.jpg,0.0,Blue.png,3.0,37,,,,,,,,,,,,,,0.0,1.0,0.5968,0.0,12.0,12.0,12.0,1.0,,,,,,,,,,,,,,,
,,,,,,,,,,,,,,,,,,,,,,,,,,,,,,,,,,,,,,,,,,,rice_12s.jpg,0.0,Purple.png,3.0,37,,,,,,,,,,,,,,0.0,1.0,0.5846,0.0,13.0,13.0,13.0,1.0,,,,,,,,,,,,,,,
,,,,,,,,,,,,,,,,,,,,,,,,,,,,,,,,,,,,,,,,,,,stamp1_11s.jpg,0.0,Red.png,3.0,37,,,,,,,,,,,,,,0.0,1.0,0.6131,0.0,14.0,14.0,14.0,1.0,,,,,,,,,,,,,,,
,,,,,,,,,,,,,,,,,,,,,,,,,,,,,,,,,,,,,,,,,,,jersey_02s.jpg,0.0,Orange.png,3.0,37,,,,,,,,,,,,,,0.0,1.0,0.6531,0.0,15.0,15.0,15.0,1.0,,,,,,,,,,,,,,,
,,,,,,,,,,,,,,,,,,,,,,,,,,,,,,,,,,,,,,,,,,,tiara_05s.jpg,0.0,Yellow.png,3.0,37,,,,,,,,,,,,,,0.0,1.0,0.6371,0.0,16.0,16.0,16.0,1.0,,,,,,,,,,,,,,,
,,,,,,,,,,,,,,,,,,,,,,,,,,,,,,,,,,,,,,,,,,,target_11s.jpg,0.0,Green.png,3.0,37,,,,,,,,,,,,,,0.0,1.0,0.6647,0.0,17.0,17.0,17.0,1.0,,,,,,,,,,,,,,,
,,,,,,,,,,,,,,,,,,,,,,,,,,,,,,,,,,,,,,,,,,,dirt_bike_11s.jpg,0.0,Blue.png,4.0,37,,,,,,,,,,,,,,0.0,1.0,0.5768,0.0,18.0,18.0,18.0,1.0,,,,,,,,,,,,,,,
,,,,,,,,,,,,,,,,,,,,,,,,,,,,,,,,,,,,,,,,,,,doily_13s.jpg,0.0,Purple.png,4.0,37,,,,,,,,,,,,,,0.0,1.0,0.5492,0.0,19.0,19.0,19.0,1.0,,,,,,,,,,,,,,,
,,,,,,,,,,,,,,,,,,,,,,,,,,,,,,,,,,,,,,,,,,,sunglasses_11s.jpg,0.0,Red.png,4.0,37,,,,,,,,,,,,,,0.0,1.0,0.717,0.0,20.0,20.0,20.0,1.0,,,,,,,,,,,,,,,
,,,,,,,,,,,,,,,,,,,,,,,,,,,,,,,,,,,,,,,,,,,compass_10n.jpg,0.0,Orange.png,4.0,37,,,,,,,,,,,,,,0.0,1.0,0.6015,0.0,21.0,21.0,21.0,1.0,,,,,,,,,,,,,,,
,,,,,,,,,,,,,,,,,,,,,,,,,,,,,,,,,,,,,,,,,,,sunglasses_11s.jpg,1.0,Yellow.png,4.0,37,,,,,,,,,,,,,,1.0,1.0,1.1614,0.0,22.0,22.0,22.0,1.0,,,,,,,,,,,,,,,
,,,,,,,,,,,,,,,,,,,,,,,,,,,,,,,,,,,,,,,,,,,sunglasses_11s.jpg,0.0,Green.png,4.0,37,,,,,,,,,,,,,,0.0,1.0,1.0653,0.0,23.0,23.0,23.0,1.0,,,,,,,,,,,,,,,
,,,,,,,,,,,,,,,,,,,,,,,,,,,,,,,,,,,,,,,,,,,seagull_01b.jpg,0.0,Blue.png,5.0,37,,,,,,,,,,,,,,0.0,1.0,0.581,0.0,24.0,24.0,24.0,1.0,,,,,,,,,,,,,,,
,,,,,,,,,,,,,,,,,,,,,,,,,,,,,,,,,,,,,,,,,,,footprint_11s.jpg,0.0,Purple.png,5.0,37,,,,,,,,,,,,,,0.0,1.0,0.6456,0.0,25.0,25.0,25.0,1.0,,,,,,,,,,,,,,,
,,,,,,,,,,,,,,,,,,,,,,,,,,,,,,,,,,,,,,,,,,,projector_08s.jpg,0.0,Red.png,5.0,37,,,,,,,,,,,,,,0.0,1.0,0.6529,0.0,26.0,26.0,26.0,1.0,,,,,,,,,,,,,,,
,,,,,,,,,,,,,,,,,,,,,,,,,,,,,,,,,,,,,,,,,,,projector_08s.jpg,0.0,Orange.png,5.0,37,,,,,,,,,,,,,,0.0,1.0,1.3451,0.0,27.0,27.0,27.0,1.0,,,,,,,,,,,,,,,
,,,,,,,,,,,,,,,,,,,,,,,,,,,,,,,,,,,,,,,,,,,money_07s.jpg,0.0,Yellow.png,5.0,37,,,,,,,,,,,,,,0.0,1.0,1.3017,0.0,28.0,28.0,28.0,1.0,,,,,,,,,,,,,,,
,,,,,,,,,,,,,,,,,,,,,,,,,,,,,,,,,,,,,,,,,,,flip_flop_03s.jpg,0.0,Green.png,5.0,37,,,,,,,,,,,,,,0.0,1.0,0.6517,0.0,29.0,29.0,29.0,1.0,,,,,,,,,,,,,,,
,,,,,,,,,,,,,,,,,,,,,,,,,,,,,,,,,,,,,,,,,,,ring_03s.jpg,0.0,Blue.png,6.0,37,,,,,,,,,,,,,,0.0,1.0,0.6009,0.0,30.0,30.0,30.0,1.0,,,,,,,,,,,,,,,
,,,,,,,,,,,,,,,,,,,,,,,,,,,,,,,,,,,,,,,,,,,flip_flop_03s.jpg,1.0,Purple.png,6.0,37,,,,,,,,,,,,,,1.0,1.0,0.9059,0.0,31.0,31.0,31.0,1.0,,,,,,,,,,,,,,,
,,,,,,,,,,,,,,,,,,,,,,,,,,,,,,,,,,,,,,,,,,,flip_flop_03s.jpg,0.0,Red.png,6.0,37,,,,,,,,,,,,,,0.0,1.0,1.3816,0.0,32.0,32.0,32.0,1.0,,,,,,,,,,,,,,,
,,,,,,,,,,,,,,,,,,,,,,,,,,,,,,,,,,,,,,,,,,,flip_flop_03s.jpg,1.0,Orange.png,6.0,37,,,,,,,,,,,,,,1.0,1.0,0.502,0.0,33.0,33.0,33.0,1.0,,,,,,,,,,,,,,,
,,,,,,,,,,,,,,,,,,,,,,,,,,,,,,,,,,,,,,,,,,,screwdriver02a.jpg,0.0,Yellow.png,6.0,37,,,,,,,,,,,,,,0.0,1.0,0.6583,0.0,34.0,34.0,34.0,1.0,,,,,,,,,,,,,,,
,,,,,,,,,,,,,,,,,,,,,,,,,,,,,,,,,,,,,,,,,,,screwdriver02a.jpg,0.0,Green.png,6.0,37,,,,,,,,,,,,,,0.0,1.0,1.2898,0.0,35.0,35.0,35.0,1.0,,,,,,,,,,,,,,,
,,,,,,,,,,,,,,,,,,,,,,,,,,,,,,,,,,,,,,,,,,,,0.0,,,37,,,,,,,,,,mop_08s.jpg,feather02.jpg,,,,,,,,,,,1.0,0.0,1.6653,0.0,0.0,0.0,0.0,1.0,,,,,,,
,,,,,,,,,,,,,,,,,,,,,,,,,,,,,,,,,,,,,,,,,,,,1.0,,,37,,,,,,,,,,pea_11s.jpg,rice_12s.jpg,,,,,,,,,,,0.0,0.0,1.3767,0.0,1.0,1.0,1.0,1.0,,,,,,,
,,,,,,,,,,,,,,,,,,,,,,,,,,,,,,,,,,,,,,,,,,,,1.0,,,37,,,,,,,,,,tiara_05s.jpg,doily_13s.jpg,,,,,,,,,,,1.0,1.0,1.6722,0.0,2.0,2.0,2.0,1.0,,,,,,,
,,,,,,,,,,,,,,,,,,,,,,,,,,,,,,,,,,,,,,,,,,,,1.0,,,37,,,,,,,,,,footprint_11s.jpg,money_07s.jpg,,,,,,,,,,,1.0,1.0,1.2106,0.0,3.0,3.0,3.0,1.0,,,,,,,
,,,,,,,,,,,,,,,,,,,,,,,,,,,,,,,,,,,,,,,,,,,,1.0,,,37,,,,,,,,,,pencil_sharpener_09n.jpg,jersey_02s.jpg,,,,,,,,,,,0.0,0.0,1.5295,0.0,4.0,4.0,4.0,1.0,,,,,,,
,,,,,,,,,,,,,,,,,,,,,,,,,,,,,,,,,,,,,,,,,,,,1.0,,,37,,,,,,,,,,stamp1_11s.jpg,target_11s.jpg,,,,,,,,,,,1.0,1.0,1.3087,0.0,5.0,5.0,5.0,1.0,,,,,,,
,,,,,,,,,,,,,,,,,,,,,,,,,,,,,,,,,,,,,,,,,,,,,,,37,,,,,,,,,,,,,,,,,,,,,,,,,,,,,,0.0,7.0,7.0,7.0,1.0,new2backpresent_8_2.xlsx,new2back_compare_task_8_2.xlsx
,,,,,,,,,,,,,,,,,,,,,,,,,,,,,,,,,,,,,,,,,,,quilt_03s.jpg,0.0,Blue.png,1.0,37,,,,,,,,,,,,,,0.0,1.0,0.8885,0.0,0.0,0.0,0.0,1.0,,,,,,,,,,,,,,,
,,,,,,,,,,,,,,,,,,,,,,,,,,,,,,,,,,,,,,,,,,,stingray_02s.jpg,0.0,Purple.png,1.0,37,,,,,,,,,,,,,,0.0,1.0,0.4669,0.0,1.0,1.0,1.0,1.0,,,,,,,,,,,,,,,
,,,,,,,,,,,,,,,,,,,,,,,,,,,,,,,,,,,,,,,,,,,mousetrap_15n.jpg,0.0,Red.png,1.0,37,,,,,,,,,,,,,,0.0,1.0,0.632,0.0,2.0,2.0,2.0,1.0,,,,,,,,,,,,,,,
,,,,,,,,,,,,,,,,,,,,,,,,,,,,,,,,,,,,,,,,,,,dashboard_02s.jpg,0.0,Orange.png,1.0,37,,,,,,,,,,,,,,0.0,1.0,0.7333,0.0,3.0,3.0,3.0,1.0,,,,,,,,,,,,,,,
,,,,,,,,,,,,,,,,,,,,,,,,,,,,,,,,,,,,,,,,,,,quilt_03s.jpg,0.0,Yellow.png,1.0,37,,,,,,,,,,,,,,0.0,1.0,0.924,0.0,4.0,4.0,4.0,1.0,,,,,,,,,,,,,,,
,,,,,,,,,,,,,,,,,,,,,,,,,,,,,,,,,,,,,,,,,,,quilt_03s.jpg,0.0,Green.png,1.0,37,,,,,,,,,,,,,,0.0,1.0,0.8887,0.0,5.0,5.0,5.0,1.0,,,,,,,,,,,,,,,
,,,,,,,,,,,,,,,,,,,,,,,,,,,,,,,,,,,,,,,,,,,thorn_13s.jpg,0.0,Blue.png,2.0,37,,,,,,,,,,,,,,0.0,1.0,1.1251,0.0,6.0,6.0,6.0,1.0,,,,,,,,,,,,,,,
,,,,,,,,,,,,,,,,,,,,,,,,,,,,,,,,,,,,,,,,,,,mitten_10s.jpg,0.0,Purple.png,2.0,37,,,,,,,,,,,,,,0.0,1.0,0.8175,0.0,7.0,7.0,7.0,1.0,,,,,,,,,,,,,,,
,,,,,,,,,,,,,,,,,,,,,,,,,,,,,,,,,,,,,,,,,,,fondue_07s.jpg,0.0,Red.png,2.0,37,,,,,,,,,,,,,,0.0,1.0,1.3888,0.0,8.0,8.0,8.0,1.0,,,,,,,,,,,,,,,
,,,,,,,,,,,,,,,,,,,,,,,,,,,,,,,,,,,,,,,,,,,peach_04s.jpg,0.0,Orange.png,2.0,37,,,,,,,,,,,,,,0.0,1.0,0.737,0.0,9.0,9.0,9.0,1.0,,,,,,,,,,,,,,,
,,,,,,,,,,,,,,,,,,,,,,,,,,,,,,,,,,,,,,,,,,,stump_02s.jpg,0.0,Yellow.png,2.0,37,,,,,,,,,,,,,,0.0,1.0,1.2314,0.0,10.0,10.0,10.0,1.0,,,,,,,,,,,,,,,
,,,,,,,,,,,,,,,,,,,,,,,,,,,,,,,,,,,,,,,,,,,rabbit_03s.jpg,0.0,Green.png,2.0,37,,,,,,,,,,,,,,0.0,1.0,1.2175,0.0,11.0,11.0,11.0,1.0,,,,,,,,,,,,,,,
,,,,,,,,,,,,,,,,,,,,,,,,,,,,,,,,,,,,,,,,,,,champagne_18s.jpg,0.0,Blue.png,3.0,37,,,,,,,,,,,,,,0.0,1.0,0.6051,0.0,12.0,12.0,12.0,1.0,,,,,,,,,,,,,,,
,,,,,,,,,,,,,,,,,,,,,,,,,,,,,,,,,,,,,,,,,,,rabbit_03s.jpg,1.0,Purple.png,3.0,37,,,,,,,,,,,,,,1.0,1.0,1.1774,0.0,13.0,13.0,13.0,1.0,,,,,,,,,,,,,,,
,,,,,,,,,,,,,,,,,,,,,,,,,,,,,,,,,,,,,,,,,,,denture_03s.jpg,0.0,Red.png,3.0,37,,,,,,,,,,,,,,0.0,1.0,0.9095,0.0,14.0,14.0,14.0,1.0,,,,,,,,,,,,,,,
,,,,,,,,,,,,,,,,,,,,,,,,,,,,,,,,,,,,,,,,,,,rabbit_03s.jpg,1.0,Orange.png,3.0,37,,,,,,,,,,,,,,1.0,1.0,0.6814,0.0,15.0,15.0,15.0,1.0,,,,,,,,,,,,,,,
,,,,,,,,,,,,,,,,,,,,,,,,,,,,,,,,,,,,,,,,,,,turtleneck_11s.jpg,0.0,Yellow.png,3.0,37,,,,,,,,,,,,,,0.0,1.0,0.6523,0.0,16.0,16.0,16.0,1.0,,,,,,,,,,,,,,,
,,,,,,,,,,,,,,,,,,,,,,,,,,,,,,,,,,,,,,,,,,,rabbit_03s.jpg,1.0,Green.png,3.0,37,,,,,,,,,,,,,,1.0,1.0,0.8822,0.0,17.0,17.0,17.0,1.0,,,,,,,,,,,,,,,
,,,,,,,,,,,,,,,,,,,,,,,,,,,,,,,,,,,,,,,,,,,typewriter_11s.jpg,0.0,Blue.png,4.0,37,,,,,,,,,,,,,,0.0,1.0,1.2024,0.0,18.0,18.0,18.0,1.0,,,,,,,,,,,,,,,
,,,,,,,,,,,,,,,,,,,,,,,,,,,,,,,,,,,,,,,,,,,thread_08s.jpg,0.0,Purple.png,4.0,37,,,,,,,,,,,,,,0.0,1.0,1.3343,0.0,19.0,19.0,19.0,1.0,,,,,,,,,,,,,,,
,,,,,,,,,,,,,,,,,,,,,,,,,,,,,,,,,,,,,,,,,,,bean_06s.jpg,0.0,Red.png,4.0,37,,,,,,,,,,,,,,0.0,1.0,0.9572,0.0,20.0,20.0,20.0,1.0,,,,,,,,,,,,,,,
,,,,,,,,,,,,,,,,,,,,,,,,,,,,,,,,,,,,,,,,,,,rolling_pin_02s.jpg,0.0,Orange.png,4.0,37,,,,,,,,,,,,,,0.0,1.0,1.4254,0.0,21.0,21.0,21.0,1.0,,,,,,,,,,,,,,,
,,,,,,,,,,,,,,,,,,,,,,,,,,,,,,,,,,,,,,,,,,,tattoo_14s.jpg,0.0,Yellow.png,4.0,37,,,,,,,,,,,,,,0.0,1.0,1.3015,0.0,22.0,22.0,22.0,1.0,,,,,,,,,,,,,,,
,,,,,,,,,,,,,,,,,,,,,,,,,,,,,,,,,,,,,,,,,,,eiffeltower.jpg,0.0,Green.png,4.0,37,,,,,,,,,,,,,,0.0,1.0,1.2658,0.0,23.0,23.0,23.0,1.0,,,,,,,,,,,,,,,
,,,,,,,,,,,,,,,,,,,,,,,,,,,,,,,,,,,,,,,,,,,fondue_07s.jpg,0.0,Blue.png,5.0,37,,,,,,,,,,,,,,0.0,1.0,1.1011,0.0,24.0,24.0,24.0,1.0,,,,,,,,,,,,,,,
,,,,,,,,,,,,,,,,,,,,,,,,,,,,,,,,,,,,,,,,,,,fondue_07s.jpg,0.0,Purple.png,5.0,37,,,,,,,,,,,,,,0.0,1.0,1.4524,0.0,25.0,25.0,25.0,1.0,,,,,,,,,,,,,,,
,,,,,,,,,,,,,,,,,,,,,,,,,,,,,,,,,,,,,,,,,,,omelet_07s.jpg,0.0,Red.png,5.0,37,,,,,,,,,,,,,,0.0,1.0,1.1423,0.0,26.0,26.0,26.0,1.0,,,,,,,,,,,,,,,
,,,,,,,,,,,,,,,,,,,,,,,,,,,,,,,,,,,,,,,,,,,fondue_07s.jpg,1.0,Orange.png,5.0,37,,,,,,,,,,,,,,1.0,1.0,0.6215,0.0,27.0,27.0,27.0,1.0,,,,,,,,,,,,,,,
,,,,,,,,,,,,,,,,,,,,,,,,,,,,,,,,,,,,,,,,,,,radio_09s.jpg,0.0,Yellow.png,5.0,37,,,,,,,,,,,,,,0.0,1.0,1.121,0.0,28.0,28.0,28.0,1.0,,,,,,,,,,,,,,,
,,,,,,,,,,,,,,,,,,,,,,,,,,,,,,,,,,,,,,,,,,,fondue_07s.jpg,1.0,Green.png,5.0,37,,,,,,,,,,,,,,0.0,0.0,1.3107,0.0,29.0,29.0,29.0,1.0,,,,,,,,,,,,,,,
,,,,,,,,,,,,,,,,,,,,,,,,,,,,,,,,,,,,,,,,,,,roller_coaster_07s.jpg,0.0,Blue.png,6.0,37,,,,,,,,,,,,,,0.0,1.0,1.1618,0.0,30.0,30.0,30.0,1.0,,,,,,,,,,,,,,,
,,,,,,,,,,,,,,,,,,,,,,,,,,,,,,,,,,,,,,,,,,,loveseat_08s.jpg,0.0,Purple.png,6.0,37,,,,,,,,,,,,,,0.0,1.0,1.2699,0.0,31.0,31.0,31.0,1.0,,,,,,,,,,,,,,,
,,,,,,,,,,,,,,,,,,,,,,,,,,,,,,,,,,,,,,,,,,,roller_coaster_07s.jpg,1.0,Red.png,6.0,37,,,,,,,,,,,,,,1.0,1.0,0.8976,0.0,32.0,32.0,32.0,1.0,,,,,,,,,,,,,,,
,,,,,,,,,,,,,,,,,,,,,,,,,,,,,,,,,,,,,,,,,,,roller_coaster_07s.jpg,0.0,Orange.png,6.0,37,,,,,,,,,,,,,,0.0,1.0,1.1933,0.0,33.0,33.0,33.0,1.0,,,,,,,,,,,,,,,
,,,,,,,,,,,,,,,,,,,,,,,,,,,,,,,,,,,,,,,,,,,roller_coaster_07s.jpg,1.0,Yellow.png,6.0,37,,,,,,,,,,,,,,1.0,1.0,1.2277,0.0,34.0,34.0,34.0,1.0,,,,,,,,,,,,,,,
,,,,,,,,,,,,,,,,,,,,,,,,,,,,,,,,,,,,,,,,,,,roller_coaster_07s.jpg,1.0,Green.png,6.0,37,,,,,,,,,,,,,,1.0,1.0,1.6621,0.0,35.0,35.0,35.0,1.0,,,,,,,,,,,,,,,
,,,,,,,,,,,,,,,,,,,,,,,,,,,,,,,,,,,,,,,,,,,,0.0,,,37,,,,,,,,,,loveseat_08s.jpg,radio_09s.jpg,,,,,,,,,,,1.0,0.0,1.5629,0.0,0.0,0.0,0.0,1.0,,,,,,,
,,,,,,,,,,,,,,,,,,,,,,,,,,,,,,,,,,,,,,,,,,,,1.0,,,37,,,,,,,,,,dashboard_02s.jpg,thorn_13s.jpg,,,,,,,,,,,0.0,0.0,1.2675,0.0,1.0,1.0,1.0,1.0,,,,,,,
,,,,,,,,,,,,,,,,,,,,,,,,,,,,,,,,,,,,,,,,,,,,0.0,,,37,,,,,,,,,,champagne_18s.jpg,peach_04s.jpg,,,,,,,,,,,0.0,1.0,1.663,0.0,2.0,2.0,2.0,1.0,,,,,,,
,,,,,,,,,,,,,,,,,,,,,,,,,,,,,,,,,,,,,,,,,,,,1.0,,,37,,,,,,,,,,mitten_10s.jpg,stump_02s.jpg,,,,,,,,,,,0.0,0.0,1.6066,0.0,3.0,3.0,3.0,1.0,,,,,,,
,,,,,,,,,,,,,,,,,,,,,,,,,,,,,,,,,,,,,,,,,,,,1.0,,,37,,,,,,,,,,typewriter_11s.jpg,rolling_pin_02s.jpg,,,,,,,,,,,1.0,1.0,1.3602,0.0,4.0,4.0,4.0,1.0,,,,,,,
,,,,,,,,,,,,,,,,,,,,,,,,,,,,,,,,,,,,,,,,,,,,1.0,,,37,,,,,,,,,,thread_08s.jpg,tattoo_14s.jpg,,,,,,,,,,,0.0,0.0,1.5842,0.0,5.0,5.0,5.0,1.0,,,,,,,
,,,,,,,,,,,,,,,,,,,,,,,,,,,,,,,,,,,,,,,,,,,,,,,37,,,,,,,,,,,,,,,,,,,,,,,,,,,,,,0.0,8.0,8.0,8.0,1.0,new2backpresent_9_2.xlsx,new2back_compare_task_9_2.xlsx
