key_resp_3.keys,key_resp_3.rt,key_resp_4.keys,key_resp_4.rt,key_resp_5.keys,key_resp_5.rt,key_resp_6.keys,key_resp_6.rt,key_resp_7.keys,key_resp_7.rt,key_resp_8.keys,key_resp_8.rt,key_resp_9.keys,key_resp_9.rt,key_resp_10.keys,key_resp_10.rt,key_resp_11.keys,key_resp_11.rt,key_resp_12.keys,key_resp_12.rt,key_resp_13.keys,key_resp_13.rt,key_resp_14.keys,key_resp_14.rt,key_resp_15.keys,key_resp_15.rt,key_resp_16.keys,key_resp_16.rt,key_resp_17.keys,key_resp_17.rt,key_resp_18.keys,key_resp_18.rt,key_resp_19.keys,key_resp_19.rt,key_resp_20.keys,key_resp_20.rt,key_resp_21.keys,key_resp_21.corr,key_resp_21.rt,trials.thisRepN,trials.thisTrialN,trials.thisN,trials.thisIndex,trials.ran,pictures,answer,clock,segment,participant,key_resp_22.keys,key_resp_22.corr,key_resp_22.rt,trials_2.thisRepN,trials_2.thisTrialN,trials_2.thisN,trials_2.thisIndex,trials_2.ran,item_a,item_b,key_resp_23.keys,key_resp_23.rt,key_resp.keys,key_resp.corr,present_segment.thisRepN,present_segment.thisTrialN,present_segment.thisN,present_segment.thisIndex,present_segment.ran,key_resp.rt,key_resp_2.keys,key_resp_2.corr,key_resp_2.rt,compare_segment.thisRepN,compare_segment.thisTrialN,compare_segment.thisN,compare_segment.thisIndex,compare_segment.ran,clock_conditions.thisRepN,clock_conditions.thisTrialN,clock_conditions.thisN,clock_conditions.thisIndex,clock_conditions.ran,present,compare
space,121.347,space,2.371,0.0,16.266,0.0,6.997,1.0,4.46,0.0,1.592,0.0,1.409,1.0,1.204,0.0,11.067,0.0,1.275,1.0,1.441,0.0,1.699,0.0,0.948,0.0,0.904,space,3.115,1.0,11.605,0.0,1.852,space,1.283,0.0,1.0,2.241,0.0,0.0,0.0,0.0,1.0,whipped_cream_02s.jpg,0.0,Blue.png,1.0,103,,,,,,,,,,,,,,,,,,,,,,,,,,,,,,,,,,,
,,,,,,,,,,,,,,,,,,,,,,,,,,,,,,,,,,,,,0.0,,0.0,1.0,1.0,1.0,1.0,sheep_02s.jpg,0.0,Purple.png,1.0,103,,,,,,,,,,,,,,,,,,,,,,,,,,,,,,,,,,,
,,,,,,,,,,,,,,,,,,,,,,,,,,,,,,,,,,,,1.0,1.0,1.699,0.0,2.0,2.0,2.0,1.0,sheep_02s.jpg,1.0,Red.png,1.0,103,,,,,,,,,,,,,,,,,,,,,,,,,,,,,,,,,,,
,,,,,,,,,,,,,,,,,,,,,,,,,,,,,,,,,,,,0.0,1.0,0.904,0.0,3.0,3.0,3.0,1.0,sequin_02s.jpg,0.0,Orange.png,1.0,103,,,,,,,,,,,,,,,,,,,,,,,,,,,,,,,,,,,
,,,,,,,,,,,,,,,,,,,,,,,,,,,,,,,,,,,,1.0,1.0,0.935,0.0,4.0,4.0,4.0,1.0,sheep_02s.jpg,1.0,Yellow.png,1.0,103,,,,,,,,,,,,,,,,,,,,,,,,,,,,,,,,,,,
,,,,,,,,,,,,,,,,,,,,,,,,,,,,,,,,,,,,0.0,1.0,0.854,0.0,5.0,5.0,5.0,1.0,scoop_05s.jpg,0.0,Green.png,1.0,103,,,,,,,,,,,,,,,,,,,,,,,,,,,,,,,,,,,
,,,,,,,,,,,,,,,,,,,,,,,,,,,,,,,,,,,,0.0,1.0,0.803,0.0,6.0,6.0,6.0,1.0,wagon_12s.jpg,0.0,Blue.png,2.0,103,,,,,,,,,,,,,,,,,,,,,,,,,,,,,,,,,,,
,,,,,,,,,,,,,,,,,,,,,,,,,,,,,,,,,,,,0.0,1.0,0.885,0.0,7.0,7.0,7.0,1.0,scrabble_05s.jpg,0.0,Purple.png,2.0,103,,,,,,,,,,,,,,,,,,,,,,,,,,,,,,,,,,,
,,,,,,,,,,,,,,,,,,,,,,,,,,,,,,,,,,,,1.0,1.0,1.353,0.0,8.0,8.0,8.0,1.0,wagon_12s.jpg,1.0,Red.png,2.0,103,,,,,,,,,,,,,,,,,,,,,,,,,,,,,,,,,,,
,,,,,,,,,,,,,,,,,,,,,,,,,,,,,,,,,,,,1.0,1.0,1.227,0.0,9.0,9.0,9.0,1.0,scrabble_05s.jpg,1.0,Orange.png,2.0,103,,,,,,,,,,,,,,,,,,,,,,,,,,,,,,,,,,,
,,,,,,,,,,,,,,,,,,,,,,,,,,,,,,,,,,,,0.0,1.0,0.69,0.0,10.0,10.0,10.0,1.0,weasel_08s.jpg,0.0,Yellow.png,2.0,103,,,,,,,,,,,,,,,,,,,,,,,,,,,,,,,,,,,
,,,,,,,,,,,,,,,,,,,,,,,,,,,,,,,,,,,,0.0,1.0,0.682,0.0,11.0,11.0,11.0,1.0,scooter_06s.jpg,0.0,Green.png,2.0,103,,,,,,,,,,,,,,,,,,,,,,,,,,,,,,,,,,,
,,,,,,,,,,,,,,,,,,,,,,,,,,,,,,,,,,,,0.0,1.0,0.707,0.0,12.0,12.0,12.0,1.0,wetsuit_04s.jpg,0.0,Blue.png,3.0,103,,,,,,,,,,,,,,,,,,,,,,,,,,,,,,,,,,,
,,,,,,,,,,,,,,,,,,,,,,,,,,,,,,,,,,,,1.0,1.0,0.993,0.0,13.0,13.0,13.0,1.0,wetsuit_04s.jpg,1.0,Purple.png,3.0,103,,,,,,,,,,,,,,,,,,,,,,,,,,,,,,,,,,,
,,,,,,,,,,,,,,,,,,,,,,,,,,,,,,,,,,,,1.0,1.0,0.957,0.0,14.0,14.0,14.0,1.0,wetsuit_04s.jpg,1.0,Red.png,3.0,103,,,,,,,,,,,,,,,,,,,,,,,,,,,,,,,,,,,
,,,,,,,,,,,,,,,,,,,,,,,,,,,,,,,,,,,,0.0,1.0,1.01,0.0,15.0,15.0,15.0,1.0,water_fountain_01b.jpg,0.0,Orange.png,3.0,103,,,,,,,,,,,,,,,,,,,,,,,,,,,,,,,,,,,
,,,,,,,,,,,,,,,,,,,,,,,,,,,,,,,,,,,,1.0,0.0,0.916,0.0,16.0,16.0,16.0,1.0,wagon_12s.jpg,0.0,Yellow.png,3.0,103,,,,,,,,,,,,,,,,,,,,,,,,,,,,,,,,,,,
,,,,,,,,,,,,,,,,,,,,,,,,,,,,,,,,,,,,0.0,1.0,1.953,0.0,17.0,17.0,17.0,1.0,wing_08s.jpg,0.0,Green.png,3.0,103,,,,,,,,,,,,,,,,,,,,,,,,,,,,,,,,,,,
,,,,,,,,,,,,,,,,,,,,,,,,,,,,,,,,,,,,0.0,1.0,0.866,0.0,18.0,18.0,18.0,1.0,shield_02s.jpg,0.0,Blue.png,4.0,103,,,,,,,,,,,,,,,,,,,,,,,,,,,,,,,,,,,
,,,,,,,,,,,,,,,,,,,,,,,,,,,,,,,,,,,,0.0,1.0,1.054,0.0,19.0,19.0,19.0,1.0,shovel_09s.jpg,0.0,Purple.png,4.0,103,,,,,,,,,,,,,,,,,,,,,,,,,,,,,,,,,,,
,,,,,,,,,,,,,,,,,,,,,,,,,,,,,,,,,,,,0.0,1.0,1.102,0.0,20.0,20.0,20.0,1.0,watch_09s.jpg,0.0,Red.png,4.0,103,,,,,,,,,,,,,,,,,,,,,,,,,,,,,,,,,,,
,,,,,,,,,,,,,,,,,,,,,,,,,,,,,,,,,,,,1.0,1.0,1.403,0.0,21.0,21.0,21.0,1.0,shovel_09s.jpg,1.0,Orange.png,4.0,103,,,,,,,,,,,,,,,,,,,,,,,,,,,,,,,,,,,
,,,,,,,,,,,,,,,,,,,,,,,,,,,,,,,,,,,,1.0,1.0,0.807,0.0,22.0,22.0,22.0,1.0,shovel_09s.jpg,1.0,Yellow.png,4.0,103,,,,,,,,,,,,,,,,,,,,,,,,,,,,,,,,,,,
,,,,,,,,,,,,,,,,,,,,,,,,,,,,,,,,,,,,0.0,1.0,0.885,0.0,23.0,23.0,23.0,1.0,watering_can_14s.jpg,0.0,Green.png,4.0,103,,,,,,,,,,,,,,,,,,,,,,,,,,,,,,,,,,,
,,,,,,,,,,,,,,,,,,,,,,,,,,,,,,,,,,,,0.0,1.0,0.802,0.0,24.0,24.0,24.0,1.0,wasp_13n.jpg,0.0,Blue.png,5.0,103,,,,,,,,,,,,,,,,,,,,,,,,,,,,,,,,,,,
,,,,,,,,,,,,,,,,,,,,,,,,,,,,,,,,,,,,0.0,1.0,0.985,0.0,25.0,25.0,25.0,1.0,shoelace_13s.jpg,0.0,Purple.png,5.0,103,,,,,,,,,,,,,,,,,,,,,,,,,,,,,,,,,,,
,,,,,,,,,,,,,,,,,,,,,,,,,,,,,,,,,,,,0.0,1.0,1.06,0.0,26.0,26.0,26.0,1.0,scarf_16s.jpg,0.0,Red.png,5.0,103,,,,,,,,,,,,,,,,,,,,,,,,,,,,,,,,,,,
,,,,,,,,,,,,,,,,,,,,,,,,,,,,,,,,,,,,0.0,1.0,0.851,0.0,27.0,27.0,27.0,1.0,screwdriver_07s.jpg,0.0,Orange.png,5.0,103,,,,,,,,,,,,,,,,,,,,,,,,,,,,,,,,,,,
,,,,,,,,,,,,,,,,,,,,,,,,,,,,,,,,,,,,0.0,1.0,0.852,0.0,28.0,28.0,28.0,1.0,drink_05s.jpg,0.0,Yellow.png,5.0,103,,,,,,,,,,,,,,,,,,,,,,,,,,,,,,,,,,,
,,,,,,,,,,,,,,,,,,,,,,,,,,,,,,,,,,,,1.0,1.0,1.297,0.0,29.0,29.0,29.0,1.0,screwdriver_07s.jpg,1.0,Green.png,5.0,103,,,,,,,,,,,,,,,,,,,,,,,,,,,,,,,,,,,
,,,,,,,,,,,,,,,,,,,,,,,,,,,,,,,,,,,,0.0,1.0,0.667,0.0,30.0,30.0,30.0,1.0,seaweed_07s.jpg,0.0,Blue.png,6.0,103,,,,,,,,,,,,,,,,,,,,,,,,,,,,,,,,,,,
,,,,,,,,,,,,,,,,,,,,,,,,,,,,,,,,,,,,0.0,1.0,0.959,0.0,31.0,31.0,31.0,1.0,saxophone_04s.jpg,0.0,Purple.png,6.0,103,,,,,,,,,,,,,,,,,,,,,,,,,,,,,,,,,,,
,,,,,,,,,,,,,,,,,,,,,,,,,,,,,,,,,,,,1.0,1.0,0.999,0.0,32.0,32.0,32.0,1.0,saxophone_04s.jpg,1.0,Red.png,6.0,103,,,,,,,,,,,,,,,,,,,,,,,,,,,,,,,,,,,
,,,,,,,,,,,,,,,,,,,,,,,,,,,,,,,,,,,,0.0,1.0,1.047,0.0,33.0,33.0,33.0,1.0,scorpion_01b.jpg,0.0,Orange.png,6.0,103,,,,,,,,,,,,,,,,,,,,,,,,,,,,,,,,,,,
,,,,,,,,,,,,,,,,,,,,,,,,,,,,,,,,,,,,1.0,0.0,1.07,0.0,34.0,34.0,34.0,1.0,shovel_09s.jpg,0.0,Yellow.png,6.0,103,,,,,,,,,,,,,,,,,,,,,,,,,,,,,,,,,,,
,,,,,,,,,,,,,,,,,,,,,,,,,,,,,,,,,,,,1.0,1.0,1.352,0.0,35.0,35.0,35.0,1.0,saxophone_04s.jpg,1.0,Green.png,6.0,103,,,,,,,,,,,,,,,,,,,,,,,,,,,,,,,,,,,
,,,,,,,,,,,,,,,,,,,,,,,,,,,,,,,,,,,,,,,,,,,,,1.0,,,103,1.0,1.0,5.408,0.0,0.0,0.0,0.0,1.0,water_fountain_01b.jpg,shield_02s.jpg,,,,,,,,,,,,,,,,,,,,,,,,,
,,,,,,,,,,,,,,,,,,,,,,,,,,,,,,,,,,,,,,,,,,,,,0.0,,,103,1.0,0.0,1.442,0.0,1.0,1.0,1.0,1.0,watch_09s.jpg,wing_08s.jpg,,,,,,,,,,,,,,,,,,,,,,,,,
,,,,,,,,,,,,,,,,,,,,,,,,,,,,,,,,,,,,,,,,,,,,,1.0,,,103,0.0,0.0,1.628,0.0,2.0,2.0,2.0,1.0,watering_can_14s.jpg,scarf_16s.jpg,,,,,,,,,,,,,,,,,,,,,,,,,
,,,,,,,,,,,,,,,,,,,,,,,,,,,,,,,,,,,,,,,,,,,,,1.0,,,103,0.0,0.0,1.54,0.0,3.0,3.0,3.0,1.0,whipped_cream_02s.jpg,sequin_02s.jpg,,,,,,,,,,,,,,,,,,,,,,,,,
,,,,,,,,,,,,,,,,,,,,,,,,,,,,,,,,,,,,,,,,,,,,,0.0,,,103,1.0,0.0,3.321,0.0,4.0,4.0,4.0,1.0,drink_05s.jpg,shoelace_13s.jpg,,,,,,,,,,,,,,,,,,,,,,,,,
,,,,,,,,,,,,,,,,,,,,,,,,,,,,,,,,,,,,,,,,,,,,,1.0,,,103,0.0,0.0,2.117,0.0,5.0,5.0,5.0,1.0,seaweed_07s.jpg,scorpion_01b.jpg,,,,,,,,,,,,,,,,,,,,,,,,,
,,,,,,,,,,,,,,,,,,,,,,,,,,,,,,,,,,,,,,,,,,,,lamppost_09s.jpg,0.0,Blue.png,1.0,103,,,,,,,,,,,space,0.711,,0.0,0.0,0.0,0.0,0.0,1.0,,,,,,,,,,,,,,,,
,,,,,,,,,,,,,,,,,,,,,,,,,,,,,,,,,,,,,,,,,,,,mushroom_10n.jpg,0.0,Purple.png,1.0,103,,,,,,,,,,,,,0.0,1.0,0.0,1.0,1.0,1.0,1.0,0.732,,,,,,,,,,,,,,,
,,,,,,,,,,,,,,,,,,,,,,,,,,,,,,,,,,,,,,,,,,,,mushroom_10n.jpg,1.0,Red.png,1.0,103,,,,,,,,,,,,,1.0,1.0,0.0,2.0,2.0,2.0,1.0,1.655,,,,,,,,,,,,,,,
,,,,,,,,,,,,,,,,,,,,,,,,,,,,,,,,,,,,,,,,,,,,megaphone_03s.jpg,0.0,Orange.png,1.0,103,,,,,,,,,,,,,0.0,1.0,0.0,3.0,3.0,3.0,1.0,0.982,,,,,,,,,,,,,,,
,,,,,,,,,,,,,,,,,,,,,,,,,,,,,,,,,,,,,,,,,,,,popsicle_02s.jpg,0.0,Yellow.png,1.0,103,,,,,,,,,,,,,0.0,1.0,0.0,4.0,4.0,4.0,1.0,1.106,,,,,,,,,,,,,,,
,,,,,,,,,,,,,,,,,,,,,,,,,,,,,,,,,,,,,,,,,,,,kangaroo_02s.jpg,0.0,Green.png,1.0,103,,,,,,,,,,,,,0.0,1.0,0.0,5.0,5.0,5.0,1.0,1.069,,,,,,,,,,,,,,,
,,,,,,,,,,,,,,,,,,,,,,,,,,,,,,,,,,,,,,,,,,,,kangaroo_02s.jpg,0.0,Blue.png,2.0,103,,,,,,,,,,,,,1.0,0.0,0.0,6.0,6.0,6.0,1.0,0.854,,,,,,,,,,,,,,,
,,,,,,,,,,,,,,,,,,,,,,,,,,,,,,,,,,,,,,,,,,,,ivy_12s.jpg,0.0,Purple.png,2.0,103,,,,,,,,,,,,,0.0,1.0,0.0,7.0,7.0,7.0,1.0,0.798,,,,,,,,,,,,,,,
,,,,,,,,,,,,,,,,,,,,,,,,,,,,,,,,,,,,,,,,,,,,kangaroo_02s.jpg,1.0,Red.png,2.0,103,,,,,,,,,,,,,1.0,1.0,0.0,8.0,8.0,8.0,1.0,0.765,,,,,,,,,,,,,,,
,,,,,,,,,,,,,,,,,,,,,,,,,,,,,,,,,,,,,,,,,,,,peanut_butter_08s.jpg,0.0,Orange.png,2.0,103,,,,,,,,,,,,,0.0,1.0,0.0,9.0,9.0,9.0,1.0,1.039,,,,,,,,,,,,,,,
,,,,,,,,,,,,,,,,,,,,,,,,,,,,,,,,,,,,,,,,,,,,spoon02a.jpg,0.0,Yellow.png,2.0,103,,,,,,,,,,,,,0.0,1.0,0.0,10.0,10.0,10.0,1.0,1.286,,,,,,,,,,,,,,,
,,,,,,,,,,,,,,,,,,,,,,,,,,,,,,,,,,,,,,,,,,,,air_pump_05s.jpg,0.0,Green.png,2.0,103,,,,,,,,,,,,,0.0,1.0,0.0,11.0,11.0,11.0,1.0,0.936,,,,,,,,,,,,,,,
,,,,,,,,,,,,,,,,,,,,,,,,,,,,,,,,,,,,,,,,,,,,powder_07s.jpg,0.0,Blue.png,3.0,103,,,,,,,,,,,,,0.0,1.0,0.0,12.0,12.0,12.0,1.0,0.681,,,,,,,,,,,,,,,
,,,,,,,,,,,,,,,,,,,,,,,,,,,,,,,,,,,,,,,,,,,,sunglasses_11s.jpg,0.0,Purple.png,3.0,103,,,,,,,,,,,,,0.0,1.0,0.0,13.0,13.0,13.0,1.0,0.749,,,,,,,,,,,,,,,
,,,,,,,,,,,,,,,,,,,,,,,,,,,,,,,,,,,,,,,,,,,,timer_03s.jpg,0.0,Red.png,3.0,103,,,,,,,,,,,,,0.0,1.0,0.0,14.0,14.0,14.0,1.0,0.748,,,,,,,,,,,,,,,
,,,,,,,,,,,,,,,,,,,,,,,,,,,,,,,,,,,,,,,,,,,,sunglasses_11s.jpg,1.0,Orange.png,3.0,103,,,,,,,,,,,,,1.0,1.0,0.0,15.0,15.0,15.0,1.0,1.285,,,,,,,,,,,,,,,
,,,,,,,,,,,,,,,,,,,,,,,,,,,,,,,,,,,,,,,,,,,,stethoscope_01b.jpg,0.0,Yellow.png,3.0,103,,,,,,,,,,,,,0.0,1.0,0.0,16.0,16.0,16.0,1.0,1.001,,,,,,,,,,,,,,,
,,,,,,,,,,,,,,,,,,,,,,,,,,,,,,,,,,,,,,,,,,,,sunglasses_11s.jpg,1.0,Green.png,3.0,103,,,,,,,,,,,,,1.0,1.0,0.0,17.0,17.0,17.0,1.0,0.851,,,,,,,,,,,,,,,
,,,,,,,,,,,,,,,,,,,,,,,,,,,,,,,,,,,,,,,,,,,,sunglasses_11s.jpg,0.0,Blue.png,4.0,103,,,,,,,,,,,,,1.0,0.0,0.0,18.0,18.0,18.0,1.0,0.835,,,,,,,,,,,,,,,
,,,,,,,,,,,,,,,,,,,,,,,,,,,,,,,,,,,,,,,,,,,,sunglasses_11s.jpg,1.0,Purple.png,4.0,103,,,,,,,,,,,,,1.0,1.0,0.0,19.0,19.0,19.0,1.0,0.646,,,,,,,,,,,,,,,
,,,,,,,,,,,,,,,,,,,,,,,,,,,,,,,,,,,,,,,,,,,,radiator_05s.jpg,0.0,Red.png,4.0,103,,,,,,,,,,,,,0.0,1.0,0.0,20.0,20.0,20.0,1.0,0.67,,,,,,,,,,,,,,,
,,,,,,,,,,,,,,,,,,,,,,,,,,,,,,,,,,,,,,,,,,,,radiator_05s.jpg,1.0,Orange.png,4.0,103,,,,,,,,,,,,,1.0,1.0,0.0,21.0,21.0,21.0,1.0,1.674,,,,,,,,,,,,,,,
,,,,,,,,,,,,,,,,,,,,,,,,,,,,,,,,,,,,,,,,,,,,sunglasses_11s.jpg,1.0,Yellow.png,4.0,103,,,,,,,,,,,,,1.0,1.0,0.0,22.0,22.0,22.0,1.0,1.12,,,,,,,,,,,,,,,
,,,,,,,,,,,,,,,,,,,,,,,,,,,,,,,,,,,,,,,,,,,,radiator_05s.jpg,1.0,Green.png,4.0,103,,,,,,,,,,,,,1.0,1.0,0.0,23.0,23.0,23.0,1.0,0.939,,,,,,,,,,,,,,,
,,,,,,,,,,,,,,,,,,,,,,,,,,,,,,,,,,,,,,,,,,,,stump_02s.jpg,0.0,Blue.png,5.0,103,,,,,,,,,,,,,0.0,1.0,0.0,24.0,24.0,24.0,1.0,1.03,,,,,,,,,,,,,,,
,,,,,,,,,,,,,,,,,,,,,,,,,,,,,,,,,,,,,,,,,,,,jet_15s.jpg,0.0,Purple.png,5.0,103,,,,,,,,,,,,,0.0,1.0,0.0,25.0,25.0,25.0,1.0,1.015,,,,,,,,,,,,,,,
,,,,,,,,,,,,,,,,,,,,,,,,,,,,,,,,,,,,,,,,,,,,bubble_01b.jpg,0.0,Red.png,5.0,103,,,,,,,,,,,,,0.0,1.0,0.0,26.0,26.0,26.0,1.0,1.298,,,,,,,,,,,,,,,
,,,,,,,,,,,,,,,,,,,,,,,,,,,,,,,,,,,,,,,,,,,,footprint_11s.jpg,0.0,Orange.png,5.0,103,,,,,,,,,,,,,0.0,1.0,0.0,27.0,27.0,27.0,1.0,1.014,,,,,,,,,,,,,,,
,,,,,,,,,,,,,,,,,,,,,,,,,,,,,,,,,,,,,,,,,,,,knitting_needle_04s.jpg,0.0,Yellow.png,5.0,103,,,,,,,,,,,,,0.0,1.0,0.0,28.0,28.0,28.0,1.0,0.766,,,,,,,,,,,,,,,
,,,,,,,,,,,,,,,,,,,,,,,,,,,,,,,,,,,,,,,,,,,,bubble_01b.jpg,1.0,Green.png,5.0,103,,,,,,,,,,,,,1.0,1.0,0.0,29.0,29.0,29.0,1.0,1.015,,,,,,,,,,,,,,,
,,,,,,,,,,,,,,,,,,,,,,,,,,,,,,,,,,,,,,,,,,,,lizard_10n.jpg,0.0,Blue.png,6.0,103,,,,,,,,,,,,,0.0,1.0,0.0,30.0,30.0,30.0,1.0,0.934,,,,,,,,,,,,,,,
,,,,,,,,,,,,,,,,,,,,,,,,,,,,,,,,,,,,,,,,,,,,bubble_01b.jpg,0.0,Purple.png,6.0,103,,,,,,,,,,,,,1.0,0.0,0.0,31.0,31.0,31.0,1.0,2.129,,,,,,,,,,,,,,,
,,,,,,,,,,,,,,,,,,,,,,,,,,,,,,,,,,,,,,,,,,,,frame_06s.jpg,0.0,Red.png,6.0,103,,,,,,,,,,,,,0.0,1.0,0.0,32.0,32.0,32.0,1.0,1.056,,,,,,,,,,,,,,,
,,,,,,,,,,,,,,,,,,,,,,,,,,,,,,,,,,,,,,,,,,,,tube_top_03s.jpg,0.0,Orange.png,6.0,103,,,,,,,,,,,,,0.0,1.0,0.0,33.0,33.0,33.0,1.0,0.901,,,,,,,,,,,,,,,
,,,,,,,,,,,,,,,,,,,,,,,,,,,,,,,,,,,,,,,,,,,,bubble_01b.jpg,1.0,Yellow.png,6.0,103,,,,,,,,,,,,,1.0,1.0,0.0,34.0,34.0,34.0,1.0,1.357,,,,,,,,,,,,,,,
,,,,,,,,,,,,,,,,,,,,,,,,,,,,,,,,,,,,,,,,,,,,bubble_01b.jpg,1.0,Green.png,6.0,103,,,,,,,,,,,,,1.0,1.0,0.0,35.0,35.0,35.0,1.0,1.308,,,,,,,,,,,,,,,
,,,,,,,,,,,,,,,,,,,,,,,,,,,,,,,,,,,,,,,,,,,,,0.0,,,103,,,,,,,,,powder_07s.jpg,peanut_butter_08s.jpg,,,,,,,,,,,0.0,1.0,3.232,0.0,0.0,0.0,0.0,1.0,,,,,,,
,,,,,,,,,,,,,,,,,,,,,,,,,,,,,,,,,,,,,,,,,,,,,0.0,,,103,,,,,,,,,ivy_12s.jpg,popsicle_02s.jpg,,,,,,,,,,,0.0,1.0,1.467,0.0,1.0,1.0,1.0,1.0,,,,,,,
,,,,,,,,,,,,,,,,,,,,,,,,,,,,,,,,,,,,,,,,,,,,,0.0,,,103,,,,,,,,,megaphone_03s.jpg,lamppost_09s.jpg,,,,,,,,,,,0.0,1.0,1.118,0.0,2.0,2.0,2.0,1.0,,,,,,,
,,,,,,,,,,,,,,,,,,,,,,,,,,,,,,,,,,,,,,,,,,,,,0.0,,,103,,,,,,,,,footprint_11s.jpg,stump_02s.jpg,,,,,,,,,,,0.0,1.0,1.717,0.0,3.0,3.0,3.0,1.0,,,,,,,
,,,,,,,,,,,,,,,,,,,,,,,,,,,,,,,,,,,,,,,,,,,,,1.0,,,103,,,,,,,,,jet_15s.jpg,knitting_needle_04s.jpg,,,,,,,,,,,0.0,0.0,0.91,0.0,4.0,4.0,4.0,1.0,,,,,,,
,,,,,,,,,,,,,,,,,,,,,,,,,,,,,,,,,,,,,,,,,,,,,1.0,,,103,,,,,,,,,air_pump_05s.jpg,timer_03s.jpg,,,,,,,,,,,0.0,0.0,0.83,0.0,5.0,5.0,5.0,1.0,,,,,,,
,,,,,,,,,,,,,,,,,,,,,,,,,,,,,,,,,,,,,,,,,,,,,,,,103,,,,,,,,,,,,,,,,,,,,,,,,,,,,,0.0,0.0,0.0,0.0,1.0,newclockpresent_1_3.xlsx,newclock_compare_task_1_3.xlsx
,,,,,,,,,,,,,,,,,,,,,,,,,,,,,,,,,,,,,,,,,,,,mirror_12s.jpg,0.0,Blue.png,1.0,103,,,,,,,,,,,,,0.0,1.0,0.0,0.0,0.0,0.0,1.0,1.412,,,,,,,,,,,,,,,
,,,,,,,,,,,,,,,,,,,,,,,,,,,,,,,,,,,,,,,,,,,,rake_06s.jpg,0.0,Purple.png,1.0,103,,,,,,,,,,,,,0.0,1.0,0.0,1.0,1.0,1.0,1.0,1.103,,,,,,,,,,,,,,,
,,,,,,,,,,,,,,,,,,,,,,,,,,,,,,,,,,,,,,,,,,,,rhubarb_03s.jpg,0.0,Red.png,1.0,103,,,,,,,,,,,,,0.0,1.0,0.0,2.0,2.0,2.0,1.0,0.65,,,,,,,,,,,,,,,
,,,,,,,,,,,,,,,,,,,,,,,,,,,,,,,,,,,,,,,,,,,,mirror_12s.jpg,1.0,Orange.png,1.0,103,,,,,,,,,,,,,1.0,1.0,0.0,3.0,3.0,3.0,1.0,1.84,,,,,,,,,,,,,,,
,,,,,,,,,,,,,,,,,,,,,,,,,,,,,,,,,,,,,,,,,,,,tomato_sauce_09s.jpg,0.0,Yellow.png,1.0,103,,,,,,,,,,,,,0.0,1.0,0.0,4.0,4.0,4.0,1.0,0.718,,,,,,,,,,,,,,,
,,,,,,,,,,,,,,,,,,,,,,,,,,,,,,,,,,,,,,,,,,,,mirror_12s.jpg,1.0,Green.png,1.0,103,,,,,,,,,,,,,1.0,1.0,0.0,5.0,5.0,5.0,1.0,0.965,,,,,,,,,,,,,,,
,,,,,,,,,,,,,,,,,,,,,,,,,,,,,,,,,,,,,,,,,,,,medal_04s.jpg,0.0,Blue.png,2.0,103,,,,,,,,,,,,,0.0,1.0,0.0,6.0,6.0,6.0,1.0,0.798,,,,,,,,,,,,,,,
,,,,,,,,,,,,,,,,,,,,,,,,,,,,,,,,,,,,,,,,,,,,fountain_pen_06s.jpg,0.0,Purple.png,2.0,103,,,,,,,,,,,,,0.0,1.0,0.0,7.0,7.0,7.0,1.0,0.766,,,,,,,,,,,,,,,
,,,,,,,,,,,,,,,,,,,,,,,,,,,,,,,,,,,,,,,,,,,,rudder_02s.jpg,0.0,Red.png,2.0,103,,,,,,,,,,,,,0.0,1.0,0.0,8.0,8.0,8.0,1.0,1.416,,,,,,,,,,,,,,,
,,,,,,,,,,,,,,,,,,,,,,,,,,,,,,,,,,,,,,,,,,,,fountain_pen_06s.jpg,1.0,Orange.png,2.0,103,,,,,,,,,,,,,1.0,1.0,0.0,9.0,9.0,9.0,1.0,1.471,,,,,,,,,,,,,,,
,,,,,,,,,,,,,,,,,,,,,,,,,,,,,,,,,,,,,,,,,,,,medal_04s.jpg,1.0,Yellow.png,2.0,103,,,,,,,,,,,,,1.0,1.0,0.0,10.0,10.0,10.0,1.0,1.374,,,,,,,,,,,,,,,
,,,,,,,,,,,,,,,,,,,,,,,,,,,,,,,,,,,,,,,,,,,,owl_15s.jpg,0.0,Green.png,2.0,103,,,,,,,,,,,,,0.0,1.0,0.0,11.0,11.0,11.0,1.0,1.216,,,,,,,,,,,,,,,
,,,,,,,,,,,,,,,,,,,,,,,,,,,,,,,,,,,,,,,,,,,,swan_11s.jpg,0.0,Blue.png,3.0,103,,,,,,,,,,,,,0.0,1.0,0.0,12.0,12.0,12.0,1.0,1.232,,,,,,,,,,,,,,,
,,,,,,,,,,,,,,,,,,,,,,,,,,,,,,,,,,,,,,,,,,,,penguin_16s.jpg,0.0,Purple.png,3.0,103,,,,,,,,,,,,,0.0,1.0,0.0,13.0,13.0,13.0,1.0,1.386,,,,,,,,,,,,,,,
,,,,,,,,,,,,,,,,,,,,,,,,,,,,,,,,,,,,,,,,,,,,piano_13n.jpg,0.0,Red.png,3.0,103,,,,,,,,,,,,,0.0,1.0,0.0,14.0,14.0,14.0,1.0,1.841,,,,,,,,,,,,,,,
,,,,,,,,,,,,,,,,,,,,,,,,,,,,,,,,,,,,,,,,,,,,penguin_16s.jpg,1.0,Orange.png,3.0,103,,,,,,,,,,,,,1.0,1.0,0.0,15.0,15.0,15.0,1.0,1.468,,,,,,,,,,,,,,,
,,,,,,,,,,,,,,,,,,,,,,,,,,,,,,,,,,,,,,,,,,,,feather02.jpg,0.0,Yellow.png,3.0,103,,,,,,,,,,,,,0.0,1.0,0.0,16.0,16.0,16.0,1.0,1.457,,,,,,,,,,,,,,,
,,,,,,,,,,,,,,,,,,,,,,,,,,,,,,,,,,,,,,,,,,,,boar_10s.jpg,0.0,Green.png,3.0,103,,,,,,,,,,,,,0.0,1.0,0.0,17.0,17.0,17.0,1.0,1.48,,,,,,,,,,,,,,,
,,,,,,,,,,,,,,,,,,,,,,,,,,,,,,,,,,,,,,,,,,,,keyboard_05s.jpg,0.0,Blue.png,4.0,103,,,,,,,,,,,,,0.0,1.0,0.0,18.0,18.0,18.0,1.0,1.667,,,,,,,,,,,,,,,
,,,,,,,,,,,,,,,,,,,,,,,,,,,,,,,,,,,,,,,,,,,,gas_mask_11s.jpg,0.0,Purple.png,4.0,103,,,,,,,,,,,,,0.0,1.0,0.0,19.0,19.0,19.0,1.0,1.27,,,,,,,,,,,,,,,
,,,,,,,,,,,,,,,,,,,,,,,,,,,,,,,,,,,,,,,,,,,,pocketknife_12s.jpg,0.0,Red.png,4.0,103,,,,,,,,,,,,,0.0,1.0,0.0,20.0,20.0,20.0,1.0,0.765,,,,,,,,,,,,,,,
,,,,,,,,,,,,,,,,,,,,,,,,,,,,,,,,,,,,,,,,,,,,keyboard_05s.jpg,1.0,Orange.png,4.0,103,,,,,,,,,,,,,1.0,1.0,0.0,21.0,21.0,21.0,1.0,1.586,,,,,,,,,,,,,,,
,,,,,,,,,,,,,,,,,,,,,,,,,,,,,,,,,,,,,,,,,,,,roulette_wheel_04s.jpg,0.0,Yellow.png,4.0,103,,,,,,,,,,,,,0.0,1.0,0.0,22.0,22.0,22.0,1.0,0.925,,,,,,,,,,,,,,,
,,,,,,,,,,,,,,,,,,,,,,,,,,,,,,,,,,,,,,,,,,,,roulette_wheel_04s.jpg,1.0,Green.png,4.0,103,,,,,,,,,,,,,1.0,1.0,0.0,23.0,23.0,23.0,1.0,1.403,,,,,,,,,,,,,,,
,,,,,,,,,,,,,,,,,,,,,,,,,,,,,,,,,,,,,,,,,,,,keyboard_05s.jpg,0.0,Blue.png,5.0,103,,,,,,,,,,,,,1.0,0.0,0.0,24.0,24.0,24.0,1.0,1.704,,,,,,,,,,,,,,,
,,,,,,,,,,,,,,,,,,,,,,,,,,,,,,,,,,,,,,,,,,,,roulette_wheel_04s.jpg,0.0,Purple.png,5.0,103,,,,,,,,,,,,,,0.0,0.0,25.0,25.0,25.0,1.0,,,,,,,,,,,,,,,,
,,,,,,,,,,,,,,,,,,,,,,,,,,,,,,,,,,,,,,,,,,,,limousine_12s.jpg,0.0,Red.png,5.0,103,,,,,,,,,,,,,0.0,1.0,0.0,26.0,26.0,26.0,1.0,0.901,,,,,,,,,,,,,,,
,,,,,,,,,,,,,,,,,,,,,,,,,,,,,,,,,,,,,,,,,,,,tape_06s.jpg,0.0,Orange.png,5.0,103,,,,,,,,,,,,,0.0,1.0,0.0,27.0,27.0,27.0,1.0,0.706,,,,,,,,,,,,,,,
,,,,,,,,,,,,,,,,,,,,,,,,,,,,,,,,,,,,,,,,,,,,quesadilla_07s.jpg,0.0,Yellow.png,5.0,103,,,,,,,,,,,,,0.0,1.0,0.0,28.0,28.0,28.0,1.0,1.034,,,,,,,,,,,,,,,
,,,,,,,,,,,,,,,,,,,,,,,,,,,,,,,,,,,,,,,,,,,,breadstick_08s.jpg,0.0,Green.png,5.0,103,,,,,,,,,,,,,0.0,1.0,0.0,29.0,29.0,29.0,1.0,0.67,,,,,,,,,,,,,,,
,,,,,,,,,,,,,,,,,,,,,,,,,,,,,,,,,,,,,,,,,,,,sundae_08s.jpg,0.0,Blue.png,6.0,103,,,,,,,,,,,,,0.0,1.0,0.0,30.0,30.0,30.0,1.0,1.557,,,,,,,,,,,,,,,
,,,,,,,,,,,,,,,,,,,,,,,,,,,,,,,,,,,,,,,,,,,,sushi_08s.jpg,0.0,Purple.png,6.0,103,,,,,,,,,,,,,0.0,1.0,0.0,31.0,31.0,31.0,1.0,0.717,,,,,,,,,,,,,,,
,,,,,,,,,,,,,,,,,,,,,,,,,,,,,,,,,,,,,,,,,,,,abacus_12s.jpg,0.0,Red.png,6.0,103,,,,,,,,,,,,,0.0,1.0,0.0,32.0,32.0,32.0,1.0,0.683,,,,,,,,,,,,,,,
,,,,,,,,,,,,,,,,,,,,,,,,,,,,,,,,,,,,,,,,,,,,peppermint_07s.jpg,0.0,Orange.png,6.0,103,,,,,,,,,,,,,0.0,1.0,0.0,33.0,33.0,33.0,1.0,0.719,,,,,,,,,,,,,,,
,,,,,,,,,,,,,,,,,,,,,,,,,,,,,,,,,,,,,,,,,,,,marshmallow_08s.jpg,0.0,Yellow.png,6.0,103,,,,,,,,,,,,,0.0,1.0,0.0,34.0,34.0,34.0,1.0,0.671,,,,,,,,,,,,,,,
,,,,,,,,,,,,,,,,,,,,,,,,,,,,,,,,,,,,,,,,,,,,sundae_08s.jpg,1.0,Green.png,6.0,103,,,,,,,,,,,,,0.0,0.0,0.0,35.0,35.0,35.0,1.0,1.216,,,,,,,,,,,,,,,
,,,,,,,,,,,,,,,,,,,,,,,,,,,,,,,,,,,,,,,,,,,,,1.0,,,103,,,,,,,,,rudder_02s.jpg,owl_15s.jpg,,,,,,,,,,,0.0,0.0,2.7,0.0,0.0,0.0,0.0,1.0,,,,,,,
,,,,,,,,,,,,,,,,,,,,,,,,,,,,,,,,,,,,,,,,,,,,,1.0,,,103,,,,,,,,,boar_10s.jpg,pocketknife_12s.jpg,,,,,,,,,,,0.0,0.0,1.209,0.0,1.0,1.0,1.0,1.0,,,,,,,
,,,,,,,,,,,,,,,,,,,,,,,,,,,,,,,,,,,,,,,,,,,,,1.0,,,103,,,,,,,,,limousine_12s.jpg,breadstick_08s.jpg,,,,,,,,,,,0.0,0.0,0.831,0.0,2.0,2.0,2.0,1.0,,,,,,,
,,,,,,,,,,,,,,,,,,,,,,,,,,,,,,,,,,,,,,,,,,,,,0.0,,,103,,,,,,,,,sushi_08s.jpg,quesadilla_07s.jpg,,,,,,,,,,,0.0,1.0,0.662,0.0,3.0,3.0,3.0,1.0,,,,,,,
,,,,,,,,,,,,,,,,,,,,,,,,,,,,,,,,,,,,,,,,,,,,,1.0,,,103,,,,,,,,,feather02.jpg,gas_mask_11s.jpg,,,,,,,,,,,0.0,0.0,0.759,0.0,4.0,4.0,4.0,1.0,,,,,,,
,,,,,,,,,,,,,,,,,,,,,,,,,,,,,,,,,,,,,,,,,,,,,0.0,,,103,,,,,,,,,tomato_sauce_09s.jpg,rake_06s.jpg,,,,,,,,,,,0.0,1.0,0.545,0.0,5.0,5.0,5.0,1.0,,,,,,,
,,,,,,,,,,,,,,,,,,,,,,,,,,,,,,,,,,,,,,,,,,,,,,,,103,,,,,,,,,,,,,,,,,,,,,,,,,,,,,0.0,1.0,1.0,1.0,1.0,newclockpresent_2_3.xlsx,newclock_compare_task_2_3.xlsx
,,,,,,,,,,,,,,,,,,,,,,,,,,,,,,,,,,,,,,,,,,,,lip_gloss_06s.jpg,0.0,Blue.png,1.0,103,,,,,,,,,,,,,0.0,1.0,0.0,0.0,0.0,0.0,1.0,1.186,,,,,,,,,,,,,,,
,,,,,,,,,,,,,,,,,,,,,,,,,,,,,,,,,,,,,,,,,,,,lip_gloss_06s.jpg,1.0,Purple.png,1.0,103,,,,,,,,,,,,,1.0,1.0,0.0,1.0,1.0,1.0,1.0,0.937,,,,,,,,,,,,,,,
,,,,,,,,,,,,,,,,,,,,,,,,,,,,,,,,,,,,,,,,,,,,memory_stick_11s.jpg,0.0,Red.png,1.0,103,,,,,,,,,,,,,0.0,1.0,0.0,2.0,2.0,2.0,1.0,0.838,,,,,,,,,,,,,,,
,,,,,,,,,,,,,,,,,,,,,,,,,,,,,,,,,,,,,,,,,,,,torch_02s.jpg,0.0,Orange.png,1.0,103,,,,,,,,,,,,,0.0,1.0,0.0,3.0,3.0,3.0,1.0,0.819,,,,,,,,,,,,,,,
,,,,,,,,,,,,,,,,,,,,,,,,,,,,,,,,,,,,,,,,,,,,lip_gloss_06s.jpg,1.0,Yellow.png,1.0,103,,,,,,,,,,,,,1.0,1.0,0.0,4.0,4.0,4.0,1.0,1.022,,,,,,,,,,,,,,,
,,,,,,,,,,,,,,,,,,,,,,,,,,,,,,,,,,,,,,,,,,,,triangle_10s.jpg,0.0,Green.png,1.0,103,,,,,,,,,,,,,0.0,1.0,0.0,5.0,5.0,5.0,1.0,0.684,,,,,,,,,,,,,,,
,,,,,,,,,,,,,,,,,,,,,,,,,,,,,,,,,,,,,,,,,,,,lip_gloss_06s.jpg,0.0,Blue.png,2.0,103,,,,,,,,,,,,,1.0,0.0,0.0,6.0,6.0,6.0,1.0,1.19,,,,,,,,,,,,,,,
,,,,,,,,,,,,,,,,,,,,,,,,,,,,,,,,,,,,,,,,,,,,lip_gloss_06s.jpg,1.0,Purple.png,2.0,103,,,,,,,,,,,,,1.0,1.0,0.0,7.0,7.0,7.0,1.0,1.039,,,,,,,,,,,,,,,
,,,,,,,,,,,,,,,,,,,,,,,,,,,,,,,,,,,,,,,,,,,,prism_10s.jpg,0.0,Red.png,2.0,103,,,,,,,,,,,,,0.0,1.0,0.0,8.0,8.0,8.0,1.0,1.266,,,,,,,,,,,,,,,
,,,,,,,,,,,,,,,,,,,,,,,,,,,,,,,,,,,,,,,,,,,,soccer_ball_12s.jpg,0.0,Orange.png,2.0,103,,,,,,,,,,,,,0.0,1.0,0.0,9.0,9.0,9.0,1.0,1.29,,,,,,,,,,,,,,,
,,,,,,,,,,,,,,,,,,,,,,,,,,,,,,,,,,,,,,,,,,,,lip_gloss_06s.jpg,1.0,Yellow.png,2.0,103,,,,,,,,,,,,,1.0,1.0,0.0,10.0,10.0,10.0,1.0,1.174,,,,,,,,,,,,,,,
,,,,,,,,,,,,,,,,,,,,,,,,,,,,,,,,,,,,,,,,,,,,petri_dish_12s.jpg,0.0,Green.png,2.0,103,,,,,,,,,,,,,0.0,1.0,0.0,11.0,11.0,11.0,1.0,1.388,,,,,,,,,,,,,,,
,,,,,,,,,,,,,,,,,,,,,,,,,,,,,,,,,,,,,,,,,,,,crystal_ball_12s.jpg,0.0,Blue.png,3.0,103,,,,,,,,,,,,,0.0,1.0,0.0,12.0,12.0,12.0,1.0,1.3,,,,,,,,,,,,,,,
,,,,,,,,,,,,,,,,,,,,,,,,,,,,,,,,,,,,,,,,,,,,trampoline_13s.jpg,0.0,Purple.png,3.0,103,,,,,,,,,,,,,0.0,1.0,0.0,13.0,13.0,13.0,1.0,1.131,,,,,,,,,,,,,,,
,,,,,,,,,,,,,,,,,,,,,,,,,,,,,,,,,,,,,,,,,,,,joystick_01b.jpg,0.0,Red.png,3.0,103,,,,,,,,,,,,,0.0,1.0,0.0,14.0,14.0,14.0,1.0,1.083,,,,,,,,,,,,,,,
,,,,,,,,,,,,,,,,,,,,,,,,,,,,,,,,,,,,,,,,,,,,trampoline_13s.jpg,1.0,Orange.png,3.0,103,,,,,,,,,,,,,1.0,1.0,0.0,15.0,15.0,15.0,1.0,1.27,,,,,,,,,,,,,,,
,,,,,,,,,,,,,,,,,,,,,,,,,,,,,,,,,,,,,,,,,,,,sparkler_02s.jpg,0.0,Yellow.png,3.0,103,,,,,,,,,,,,,0.0,1.0,0.0,16.0,16.0,16.0,1.0,1.151,,,,,,,,,,,,,,,
,,,,,,,,,,,,,,,,,,,,,,,,,,,,,,,,,,,,,,,,,,,,kayak_08s.jpg,0.0,Green.png,3.0,103,,,,,,,,,,,,,0.0,1.0,0.0,17.0,17.0,17.0,1.0,1.154,,,,,,,,,,,,,,,
,,,,,,,,,,,,,,,,,,,,,,,,,,,,,,,,,,,,,,,,,,,,foam_03s.jpg,0.0,Blue.png,4.0,103,,,,,,,,,,,,,0.0,1.0,0.0,18.0,18.0,18.0,1.0,1.639,,,,,,,,,,,,,,,
,,,,,,,,,,,,,,,,,,,,,,,,,,,,,,,,,,,,,,,,,,,,dirt_bike_11s.jpg,0.0,Purple.png,4.0,103,,,,,,,,,,,,,0.0,1.0,0.0,19.0,19.0,19.0,1.0,1.484,,,,,,,,,,,,,,,
,,,,,,,,,,,,,,,,,,,,,,,,,,,,,,,,,,,,,,,,,,,,tortilla_06s.jpg,0.0,Red.png,4.0,103,,,,,,,,,,,,,0.0,1.0,0.0,20.0,20.0,20.0,1.0,1.386,,,,,,,,,,,,,,,
,,,,,,,,,,,,,,,,,,,,,,,,,,,,,,,,,,,,,,,,,,,,dirt_bike_11s.jpg,1.0,Orange.png,4.0,103,,,,,,,,,,,,,1.0,1.0,0.0,21.0,21.0,21.0,1.0,1.284,,,,,,,,,,,,,,,
,,,,,,,,,,,,,,,,,,,,,,,,,,,,,,,,,,,,,,,,,,,,otter_05s.jpg,0.0,Yellow.png,4.0,103,,,,,,,,,,,,,0.0,1.0,0.0,22.0,22.0,22.0,1.0,1.521,,,,,,,,,,,,,,,
,,,,,,,,,,,,,,,,,,,,,,,,,,,,,,,,,,,,,,,,,,,,playpen_11s.jpg,0.0,Green.png,4.0,103,,,,,,,,,,,,,0.0,1.0,0.0,23.0,23.0,23.0,1.0,0.784,,,,,,,,,,,,,,,
,,,,,,,,,,,,,,,,,,,,,,,,,,,,,,,,,,,,,,,,,,,,pear_02s.jpg,0.0,Blue.png,5.0,103,,,,,,,,,,,,,0.0,1.0,0.0,24.0,24.0,24.0,1.0,0.686,,,,,,,,,,,,,,,
,,,,,,,,,,,,,,,,,,,,,,,,,,,,,,,,,,,,,,,,,,,,omelet_07s.jpg,0.0,Purple.png,5.0,103,,,,,,,,,,,,,0.0,1.0,0.0,25.0,25.0,25.0,1.0,0.618,,,,,,,,,,,,,,,
,,,,,,,,,,,,,,,,,,,,,,,,,,,,,,,,,,,,,,,,,,,,camcorder_10s.jpg,0.0,Red.png,5.0,103,,,,,,,,,,,,,0.0,1.0,0.0,26.0,26.0,26.0,1.0,0.751,,,,,,,,,,,,,,,
,,,,,,,,,,,,,,,,,,,,,,,,,,,,,,,,,,,,,,,,,,,,omelet_07s.jpg,1.0,Orange.png,5.0,103,,,,,,,,,,,,,1.0,1.0,0.0,27.0,27.0,27.0,1.0,1.579,,,,,,,,,,,,,,,
,,,,,,,,,,,,,,,,,,,,,,,,,,,,,,,,,,,,,,,,,,,,possum_09s.jpg,0.0,Yellow.png,5.0,103,,,,,,,,,,,,,0.0,1.0,0.0,28.0,28.0,28.0,1.0,0.969,,,,,,,,,,,,,,,
,,,,,,,,,,,,,,,,,,,,,,,,,,,,,,,,,,,,,,,,,,,,omelet_07s.jpg,1.0,Green.png,5.0,103,,,,,,,,,,,,,1.0,1.0,0.0,29.0,29.0,29.0,1.0,1.253,,,,,,,,,,,,,,,
,,,,,,,,,,,,,,,,,,,,,,,,,,,,,,,,,,,,,,,,,,,,plaster_cast_13s.jpg,0.0,Blue.png,6.0,103,,,,,,,,,,,,,0.0,1.0,0.0,30.0,30.0,30.0,1.0,1.387,,,,,,,,,,,,,,,
,,,,,,,,,,,,,,,,,,,,,,,,,,,,,,,,,,,,,,,,,,,,ram_05s.jpg,0.0,Purple.png,6.0,103,,,,,,,,,,,,,0.0,1.0,0.0,31.0,31.0,31.0,1.0,0.8,,,,,,,,,,,,,,,
,,,,,,,,,,,,,,,,,,,,,,,,,,,,,,,,,,,,,,,,,,,,plug_08s.jpg,0.0,Red.png,6.0,103,,,,,,,,,,,,,0.0,1.0,0.0,32.0,32.0,32.0,1.0,1.285,,,,,,,,,,,,,,,
,,,,,,,,,,,,,,,,,,,,,,,,,,,,,,,,,,,,,,,,,,,,plaster_cast_13s.jpg,1.0,Orange.png,6.0,103,,,,,,,,,,,,,1.0,1.0,0.0,33.0,33.0,33.0,1.0,1.488,,,,,,,,,,,,,,,
,,,,,,,,,,,,,,,,,,,,,,,,,,,,,,,,,,,,,,,,,,,,lavender_10s.jpg,0.0,Yellow.png,6.0,103,,,,,,,,,,,,,0.0,1.0,0.0,34.0,34.0,34.0,1.0,0.939,,,,,,,,,,,,,,,
,,,,,,,,,,,,,,,,,,,,,,,,,,,,,,,,,,,,,,,,,,,,plug_08s.jpg,1.0,Green.png,6.0,103,,,,,,,,,,,,,0.0,0.0,0.0,35.0,35.0,35.0,1.0,1.035,,,,,,,,,,,,,,,
,,,,,,,,,,,,,,,,,,,,,,,,,,,,,,,,,,,,,,,,,,,,,1.0,,,103,,,,,,,,,playpen_11s.jpg,camcorder_10s.jpg,,,,,,,,,,,1.0,1.0,1.94,0.0,0.0,0.0,0.0,1.0,,,,,,,
,,,,,,,,,,,,,,,,,,,,,,,,,,,,,,,,,,,,,,,,,,,,,0.0,,,103,,,,,,,,,kayak_08s.jpg,joystick_01b.jpg,,,,,,,,,,,1.0,0.0,0.593,0.0,1.0,1.0,1.0,1.0,,,,,,,
,,,,,,,,,,,,,,,,,,,,,,,,,,,,,,,,,,,,,,,,,,,,,1.0,,,103,,,,,,,,,possum_09s.jpg,ram_05s.jpg,,,,,,,,,,,1.0,1.0,0.343,0.0,2.0,2.0,2.0,1.0,,,,,,,
,,,,,,,,,,,,,,,,,,,,,,,,,,,,,,,,,,,,,,,,,,,,,1.0,,,103,,,,,,,,,soccer_ball_12s.jpg,crystal_ball_12s.jpg,,,,,,,,,,,1.0,1.0,0.982,0.0,3.0,3.0,3.0,1.0,,,,,,,
,,,,,,,,,,,,,,,,,,,,,,,,,,,,,,,,,,,,,,,,,,,,,1.0,,,103,,,,,,,,,memory_stick_11s.jpg,triangle_10s.jpg,,,,,,,,,,,1.0,1.0,1.732,0.0,4.0,4.0,4.0,1.0,,,,,,,
,,,,,,,,,,,,,,,,,,,,,,,,,,,,,,,,,,,,,,,,,,,,,0.0,,,103,,,,,,,,,petri_dish_12s.jpg,prism_10s.jpg,,,,,,,,,,,1.0,0.0,0.885,0.0,5.0,5.0,5.0,1.0,,,,,,,
,,,,,,,,,,,,,,,,,,,,,,,,,,,,,,,,,,,,,,,,,,,,,,,,103,,,,,,,,,,,,,,,,,,,,,,,,,,,,,0.0,2.0,2.0,2.0,1.0,newclockpresent_3_3.xlsx,newclock_compare_task_3_3.xlsx
,,,,,,,,,,,,,,,,,,,,,,,,,,,,,,,,,,,,,,,,,,,,towel_rack_04s.jpg,0.0,Blue.png,1.0,103,,,,,,,,,,,,,0.0,1.0,0.0,0.0,0.0,0.0,1.0,0.912,,,,,,,,,,,,,,,
,,,,,,,,,,,,,,,,,,,,,,,,,,,,,,,,,,,,,,,,,,,,iron_13s.jpg,0.0,Purple.png,1.0,103,,,,,,,,,,,,,0.0,1.0,0.0,1.0,1.0,1.0,1.0,0.751,,,,,,,,,,,,,,,
,,,,,,,,,,,,,,,,,,,,,,,,,,,,,,,,,,,,,,,,,,,,iron_13s.jpg,1.0,Red.png,1.0,103,,,,,,,,,,,,,1.0,1.0,0.0,2.0,2.0,2.0,1.0,1.25,,,,,,,,,,,,,,,
,,,,,,,,,,,,,,,,,,,,,,,,,,,,,,,,,,,,,,,,,,,,icemaker_10s.jpg,0.0,Orange.png,1.0,103,,,,,,,,,,,,,0.0,1.0,0.0,3.0,3.0,3.0,1.0,1.417,,,,,,,,,,,,,,,
,,,,,,,,,,,,,,,,,,,,,,,,,,,,,,,,,,,,,,,,,,,,teacup_07s.jpg,0.0,Yellow.png,1.0,103,,,,,,,,,,,,,0.0,1.0,0.0,4.0,4.0,4.0,1.0,1.286,,,,,,,,,,,,,,,
,,,,,,,,,,,,,,,,,,,,,,,,,,,,,,,,,,,,,,,,,,,,iron_13s.jpg,1.0,Green.png,1.0,103,,,,,,,,,,,,,1.0,1.0,0.0,5.0,5.0,5.0,1.0,1.171,,,,,,,,,,,,,,,
,,,,,,,,,,,,,,,,,,,,,,,,,,,,,,,,,,,,,,,,,,,,teacup_07s.jpg,0.0,Blue.png,2.0,103,,,,,,,,,,,,,1.0,0.0,0.0,6.0,6.0,6.0,1.0,1.354,,,,,,,,,,,,,,,
,,,,,,,,,,,,,,,,,,,,,,,,,,,,,,,,,,,,,,,,,,,,iron_13s.jpg,0.0,Purple.png,2.0,103,,,,,,,,,,,,,1.0,0.0,0.0,7.0,7.0,7.0,1.0,1.438,,,,,,,,,,,,,,,
,,,,,,,,,,,,,,,,,,,,,,,,,,,,,,,,,,,,,,,,,,,,teacup_07s.jpg,1.0,Red.png,2.0,103,,,,,,,,,,,,,1.0,1.0,0.0,8.0,8.0,8.0,1.0,1.27,,,,,,,,,,,,,,,
,,,,,,,,,,,,,,,,,,,,,,,,,,,,,,,,,,,,,,,,,,,,pincushion_10s.jpg,0.0,Orange.png,2.0,103,,,,,,,,,,,,,0.0,1.0,0.0,9.0,9.0,9.0,1.0,1.467,,,,,,,,,,,,,,,
,,,,,,,,,,,,,,,,,,,,,,,,,,,,,,,,,,,,,,,,,,,,teacup_07s.jpg,1.0,Yellow.png,2.0,103,,,,,,,,,,,,,1.0,1.0,0.0,10.0,10.0,10.0,1.0,1.384,,,,,,,,,,,,,,,
,,,,,,,,,,,,,,,,,,,,,,,,,,,,,,,,,,,,,,,,,,,,lamb_04s.jpg,0.0,Green.png,2.0,103,,,,,,,,,,,,,0.0,1.0,0.0,11.0,11.0,11.0,1.0,1.353,,,,,,,,,,,,,,,
,,,,,,,,,,,,,,,,,,,,,,,,,,,,,,,,,,,,,,,,,,,,blowfish_03s.jpg,0.0,Blue.png,3.0,103,,,,,,,,,,,,,0.0,1.0,0.0,12.0,12.0,12.0,1.0,0.649,,,,,,,,,,,,,,,
,,,,,,,,,,,,,,,,,,,,,,,,,,,,,,,,,,,,,,,,,,,,gear_07s.jpg,0.0,Purple.png,3.0,103,,,,,,,,,,,,,0.0,1.0,0.0,13.0,13.0,13.0,1.0,0.6,,,,,,,,,,,,,,,
,,,,,,,,,,,,,,,,,,,,,,,,,,,,,,,,,,,,,,,,,,,,rug_09s.jpg,0.0,Red.png,3.0,103,,,,,,,,,,,,,0.0,1.0,0.0,14.0,14.0,14.0,1.0,0.615,,,,,,,,,,,,,,,
,,,,,,,,,,,,,,,,,,,,,,,,,,,,,,,,,,,,,,,,,,,,gear_07s.jpg,1.0,Orange.png,3.0,103,,,,,,,,,,,,,1.0,1.0,0.0,15.0,15.0,15.0,1.0,1.451,,,,,,,,,,,,,,,
,,,,,,,,,,,,,,,,,,,,,,,,,,,,,,,,,,,,,,,,,,,,binder_21s.jpg,0.0,Yellow.png,3.0,103,,,,,,,,,,,,,0.0,1.0,0.0,16.0,16.0,16.0,1.0,0.814,,,,,,,,,,,,,,,
,,,,,,,,,,,,,,,,,,,,,,,,,,,,,,,,,,,,,,,,,,,,bacon_05s.jpg,0.0,Green.png,3.0,103,,,,,,,,,,,,,0.0,1.0,0.0,17.0,17.0,17.0,1.0,0.755,,,,,,,,,,,,,,,
,,,,,,,,,,,,,,,,,,,,,,,,,,,,,,,,,,,,,,,,,,,,rocking_horse_03s.jpg,0.0,Blue.png,4.0,103,,,,,,,,,,,,,0.0,1.0,0.0,18.0,18.0,18.0,1.0,1.068,,,,,,,,,,,,,,,
,,,,,,,,,,,,,,,,,,,,,,,,,,,,,,,,,,,,,,,,,,,,bacon_05s.jpg,0.0,Purple.png,4.0,103,,,,,,,,,,,,,1.0,0.0,0.0,19.0,19.0,19.0,1.0,1.272,,,,,,,,,,,,,,,
,,,,,,,,,,,,,,,,,,,,,,,,,,,,,,,,,,,,,,,,,,,,perfume_06s.jpg,0.0,Red.png,4.0,103,,,,,,,,,,,,,0.0,1.0,0.0,20.0,20.0,20.0,1.0,1.095,,,,,,,,,,,,,,,
,,,,,,,,,,,,,,,,,,,,,,,,,,,,,,,,,,,,,,,,,,,,raccoon_02s.jpg,0.0,Orange.png,4.0,103,,,,,,,,,,,,,0.0,1.0,0.0,21.0,21.0,21.0,1.0,1.215,,,,,,,,,,,,,,,
,,,,,,,,,,,,,,,,,,,,,,,,,,,,,,,,,,,,,,,,,,,,mixer_12s.jpg,0.0,Yellow.png,4.0,103,,,,,,,,,,,,,0.0,1.0,0.0,22.0,22.0,22.0,1.0,0.785,,,,,,,,,,,,,,,
,,,,,,,,,,,,,,,,,,,,,,,,,,,,,,,,,,,,,,,,,,,,slingshot_07s.jpg,0.0,Green.png,4.0,103,,,,,,,,,,,,,0.0,1.0,0.0,23.0,23.0,23.0,1.0,0.999,,,,,,,,,,,,,,,
,,,,,,,,,,,,,,,,,,,,,,,,,,,,,,,,,,,,,,,,,,,,smokingpipe.jpg,0.0,Blue.png,5.0,103,,,,,,,,,,,,,0.0,1.0,0.0,24.0,24.0,24.0,1.0,0.667,,,,,,,,,,,,,,,
,,,,,,,,,,,,,,,,,,,,,,,,,,,,,,,,,,,,,,,,,,,,film_03s.jpg,0.0,Purple.png,5.0,103,,,,,,,,,,,,,0.0,1.0,0.0,25.0,25.0,25.0,1.0,1.604,,,,,,,,,,,,,,,
,,,,,,,,,,,,,,,,,,,,,,,,,,,,,,,,,,,,,,,,,,,,film_03s.jpg,1.0,Red.png,5.0,103,,,,,,,,,,,,,1.0,1.0,0.0,26.0,26.0,26.0,1.0,1.529,,,,,,,,,,,,,,,
,,,,,,,,,,,,,,,,,,,,,,,,,,,,,,,,,,,,,,,,,,,,film_03s.jpg,1.0,Orange.png,5.0,103,,,,,,,,,,,,,1.0,1.0,0.0,27.0,27.0,27.0,1.0,1.201,,,,,,,,,,,,,,,
,,,,,,,,,,,,,,,,,,,,,,,,,,,,,,,,,,,,,,,,,,,,film_03s.jpg,1.0,Yellow.png,5.0,103,,,,,,,,,,,,,1.0,1.0,0.0,28.0,28.0,28.0,1.0,1.086,,,,,,,,,,,,,,,
,,,,,,,,,,,,,,,,,,,,,,,,,,,,,,,,,,,,,,,,,,,,insole_11s.jpg,0.0,Green.png,5.0,103,,,,,,,,,,,,,0.0,1.0,0.0,29.0,29.0,29.0,1.0,1.375,,,,,,,,,,,,,,,
,,,,,,,,,,,,,,,,,,,,,,,,,,,,,,,,,,,,,,,,,,,,soda_fountain_03s.jpg,0.0,Blue.png,6.0,103,,,,,,,,,,,,,0.0,1.0,0.0,30.0,30.0,30.0,1.0,1.804,,,,,,,,,,,,,,,
,,,,,,,,,,,,,,,,,,,,,,,,,,,,,,,,,,,,,,,,,,,,soda_fountain_03s.jpg,1.0,Purple.png,6.0,103,,,,,,,,,,,,,1.0,1.0,0.0,31.0,31.0,31.0,1.0,1.154,,,,,,,,,,,,,,,
,,,,,,,,,,,,,,,,,,,,,,,,,,,,,,,,,,,,,,,,,,,,coconut_08s.jpg,0.0,Red.png,6.0,103,,,,,,,,,,,,,0.0,1.0,0.0,32.0,32.0,32.0,1.0,1.499,,,,,,,,,,,,,,,
,,,,,,,,,,,,,,,,,,,,,,,,,,,,,,,,,,,,,,,,,,,,hydrant_10s.jpg,0.0,Orange.png,6.0,103,,,,,,,,,,,,,0.0,1.0,0.0,33.0,33.0,33.0,1.0,1.285,,,,,,,,,,,,,,,
,,,,,,,,,,,,,,,,,,,,,,,,,,,,,,,,,,,,,,,,,,,,hydrant_10s.jpg,1.0,Yellow.png,6.0,103,,,,,,,,,,,,,1.0,1.0,0.0,34.0,34.0,34.0,1.0,1.218,,,,,,,,,,,,,,,
,,,,,,,,,,,,,,,,,,,,,,,,,,,,,,,,,,,,,,,,,,,,hydrant_10s.jpg,1.0,Green.png,6.0,103,,,,,,,,,,,,,1.0,1.0,0.0,35.0,35.0,35.0,1.0,1.119,,,,,,,,,,,,,,,
,,,,,,,,,,,,,,,,,,,,,,,,,,,,,,,,,,,,,,,,,,,,,0.0,,,103,,,,,,,,,slingshot_07s.jpg,perfume_06s.jpg,,,,,,,,,,,0.0,1.0,2.494,0.0,0.0,0.0,0.0,1.0,,,,,,,
,,,,,,,,,,,,,,,,,,,,,,,,,,,,,,,,,,,,,,,,,,,,,0.0,,,103,,,,,,,,,blowfish_03s.jpg,pincushion_10s.jpg,,,,,,,,,,,0.0,1.0,0.991,0.0,1.0,1.0,1.0,1.0,,,,,,,
,,,,,,,,,,,,,,,,,,,,,,,,,,,,,,,,,,,,,,,,,,,,,0.0,,,103,,,,,,,,,rug_09s.jpg,lamb_04s.jpg,,,,,,,,,,,0.0,1.0,0.71,0.0,2.0,2.0,2.0,1.0,,,,,,,
,,,,,,,,,,,,,,,,,,,,,,,,,,,,,,,,,,,,,,,,,,,,,1.0,,,103,,,,,,,,,insole_11s.jpg,coconut_08s.jpg,,,,,,,,,,,0.0,0.0,1.064,0.0,3.0,3.0,3.0,1.0,,,,,,,
,,,,,,,,,,,,,,,,,,,,,,,,,,,,,,,,,,,,,,,,,,,,,0.0,,,103,,,,,,,,,icemaker_10s.jpg,towel_rack_04s.jpg,,,,,,,,,,,0.0,1.0,0.813,0.0,4.0,4.0,4.0,1.0,,,,,,,
,,,,,,,,,,,,,,,,,,,,,,,,,,,,,,,,,,,,,,,,,,,,,0.0,,,103,,,,,,,,,raccoon_02s.jpg,rocking_horse_03s.jpg,,,,,,,,,,,0.0,1.0,0.735,0.0,5.0,5.0,5.0,1.0,,,,,,,
,,,,,,,,,,,,,,,,,,,,,,,,,,,,,,,,,,,,,,,,,,,,,,,,103,,,,,,,,,,,,,,,,,,,,,,,,,,,,,0.0,3.0,3.0,3.0,1.0,newclockpresent_4_3.xlsx,newclock_compare_task_4_3.xlsx
,,,,,,,,,,,,,,,,,,,,,,,,,,,,,,,,,,,,,,,,,,,,birthday_cake_09s.jpg,0.0,Blue.png,1.0,103,,,,,,,,,,,,,0.0,1.0,0.0,0.0,0.0,0.0,1.0,1.561,,,,,,,,,,,,,,,
,,,,,,,,,,,,,,,,,,,,,,,,,,,,,,,,,,,,,,,,,,,,laser_pointer_02s.jpg,0.0,Purple.png,1.0,103,,,,,,,,,,,,,0.0,1.0,0.0,1.0,1.0,1.0,1.0,0.733,,,,,,,,,,,,,,,
,,,,,,,,,,,,,,,,,,,,,,,,,,,,,,,,,,,,,,,,,,,,amber_04s.jpg,0.0,Red.png,1.0,103,,,,,,,,,,,,,0.0,1.0,0.0,2.0,2.0,2.0,1.0,0.652,,,,,,,,,,,,,,,
,,,,,,,,,,,,,,,,,,,,,,,,,,,,,,,,,,,,,,,,,,,,amber_04s.jpg,1.0,Orange.png,1.0,103,,,,,,,,,,,,,1.0,1.0,0.0,3.0,3.0,3.0,1.0,1.437,,,,,,,,,,,,,,,
,,,,,,,,,,,,,,,,,,,,,,,,,,,,,,,,,,,,,,,,,,,,amber_04s.jpg,1.0,Yellow.png,1.0,103,,,,,,,,,,,,,1.0,1.0,0.0,4.0,4.0,4.0,1.0,1.103,,,,,,,,,,,,,,,
,,,,,,,,,,,,,,,,,,,,,,,,,,,,,,,,,,,,,,,,,,,,amber_04s.jpg,1.0,Green.png,1.0,103,,,,,,,,,,,,,1.0,1.0,0.0,5.0,5.0,5.0,1.0,1.581,,,,,,,,,,,,,,,
,,,,,,,,,,,,,,,,,,,,,,,,,,,,,,,,,,,,,,,,,,,,mask_09s.jpg,0.0,Blue.png,2.0,103,,,,,,,,,,,,,0.0,1.0,0.0,6.0,6.0,6.0,1.0,1.282,,,,,,,,,,,,,,,
,,,,,,,,,,,,,,,,,,,,,,,,,,,,,,,,,,,,,,,,,,,,mask_09s.jpg,1.0,Purple.png,2.0,103,,,,,,,,,,,,,1.0,1.0,0.0,7.0,7.0,7.0,1.0,1.118,,,,,,,,,,,,,,,
,,,,,,,,,,,,,,,,,,,,,,,,,,,,,,,,,,,,,,,,,,,,amber_04s.jpg,0.0,Red.png,2.0,103,,,,,,,,,,,,,1.0,0.0,0.0,8.0,8.0,8.0,1.0,1.236,,,,,,,,,,,,,,,
,,,,,,,,,,,,,,,,,,,,,,,,,,,,,,,,,,,,,,,,,,,,swordfish_05s.jpg,0.0,Orange.png,2.0,103,,,,,,,,,,,,,0.0,1.0,0.0,9.0,9.0,9.0,1.0,0.684,,,,,,,,,,,,,,,
,,,,,,,,,,,,,,,,,,,,,,,,,,,,,,,,,,,,,,,,,,,,beard_16s.jpg,0.0,Yellow.png,2.0,103,,,,,,,,,,,,,0.0,1.0,0.0,10.0,10.0,10.0,1.0,0.919,,,,,,,,,,,,,,,
,,,,,,,,,,,,,,,,,,,,,,,,,,,,,,,,,,,,,,,,,,,,swordfish_05s.jpg,1.0,Green.png,2.0,103,,,,,,,,,,,,,1.0,1.0,0.0,11.0,11.0,11.0,1.0,1.204,,,,,,,,,,,,,,,
,,,,,,,,,,,,,,,,,,,,,,,,,,,,,,,,,,,,,,,,,,,,amber_04s.jpg,0.0,Blue.png,3.0,103,,,,,,,,,,,,,1.0,0.0,0.0,12.0,12.0,12.0,1.0,1.081,,,,,,,,,,,,,,,
,,,,,,,,,,,,,,,,,,,,,,,,,,,,,,,,,,,,,,,,,,,,rope_16s.jpg,0.0,Purple.png,3.0,103,,,,,,,,,,,,,0.0,1.0,0.0,13.0,13.0,13.0,1.0,0.735,,,,,,,,,,,,,,,
,,,,,,,,,,,,,,,,,,,,,,,,,,,,,,,,,,,,,,,,,,,,swing_set_15s.jpg,0.0,Red.png,3.0,103,,,,,,,,,,,,,0.0,1.0,0.0,14.0,14.0,14.0,1.0,0.704,,,,,,,,,,,,,,,
,,,,,,,,,,,,,,,,,,,,,,,,,,,,,,,,,,,,,,,,,,,,totem_pole_05s.jpg,0.0,Orange.png,3.0,103,,,,,,,,,,,,,0.0,1.0,0.0,15.0,15.0,15.0,1.0,0.902,,,,,,,,,,,,,,,
,,,,,,,,,,,,,,,,,,,,,,,,,,,,,,,,,,,,,,,,,,,,beaker_01b.jpg,0.0,Yellow.png,3.0,103,,,,,,,,,,,,,0.0,1.0,0.0,16.0,16.0,16.0,1.0,0.735,,,,,,,,,,,,,,,
,,,,,,,,,,,,,,,,,,,,,,,,,,,,,,,,,,,,,,,,,,,,ostrich_06s.jpg,0.0,Green.png,3.0,103,,,,,,,,,,,,,0.0,1.0,0.0,17.0,17.0,17.0,1.0,0.748,,,,,,,,,,,,,,,
,,,,,,,,,,,,,,,,,,,,,,,,,,,,,,,,,,,,,,,,,,,,ostrich_06s.jpg,0.0,Blue.png,4.0,103,,,,,,,,,,,,,1.0,0.0,0.0,18.0,18.0,18.0,1.0,1.289,,,,,,,,,,,,,,,
,,,,,,,,,,,,,,,,,,,,,,,,,,,,,,,,,,,,,,,,,,,,syringe_02s.jpg,0.0,Purple.png,4.0,103,,,,,,,,,,,,,0.0,1.0,0.0,19.0,19.0,19.0,1.0,0.849,,,,,,,,,,,,,,,
,,,,,,,,,,,,,,,,,,,,,,,,,,,,,,,,,,,,,,,,,,,,mold2_04s.jpg,0.0,Red.png,4.0,103,,,,,,,,,,,,,0.0,1.0,0.0,20.0,20.0,20.0,1.0,0.849,,,,,,,,,,,,,,,
,,,,,,,,,,,,,,,,,,,,,,,,,,,,,,,,,,,,,,,,,,,,ostrich_06s.jpg,1.0,Orange.png,4.0,103,,,,,,,,,,,,,1.0,1.0,0.0,21.0,21.0,21.0,1.0,1.671,,,,,,,,,,,,,,,
,,,,,,,,,,,,,,,,,,,,,,,,,,,,,,,,,,,,,,,,,,,,mousetrap_15n.jpg,0.0,Yellow.png,4.0,103,,,,,,,,,,,,,,0.0,0.0,22.0,22.0,22.0,1.0,,,,,,,,,,,,,,,,
,,,,,,,,,,,,,,,,,,,,,,,,,,,,,,,,,,,,,,,,,,,,paper_towel_03s.jpg,0.0,Green.png,4.0,103,,,,,,,,,,,,,0.0,1.0,0.0,23.0,23.0,23.0,1.0,1.302,,,,,,,,,,,,,,,
,,,,,,,,,,,,,,,,,,,,,,,,,,,,,,,,,,,,,,,,,,,,swordfish_05s.jpg,0.0,Blue.png,5.0,103,,,,,,,,,,,,,1.0,0.0,0.0,24.0,24.0,24.0,1.0,1.195,,,,,,,,,,,,,,,
,,,,,,,,,,,,,,,,,,,,,,,,,,,,,,,,,,,,,,,,,,,,pump_11s.jpg,0.0,Purple.png,5.0,103,,,,,,,,,,,,,0.0,1.0,0.0,25.0,25.0,25.0,1.0,1.28,,,,,,,,,,,,,,,
,,,,,,,,,,,,,,,,,,,,,,,,,,,,,,,,,,,,,,,,,,,,swordfish_05s.jpg,1.0,Red.png,5.0,103,,,,,,,,,,,,,1.0,1.0,0.0,26.0,26.0,26.0,1.0,1.123,,,,,,,,,,,,,,,
,,,,,,,,,,,,,,,,,,,,,,,,,,,,,,,,,,,,,,,,,,,,swordfish_05s.jpg,1.0,Orange.png,5.0,103,,,,,,,,,,,,,1.0,1.0,0.0,27.0,27.0,27.0,1.0,1.218,,,,,,,,,,,,,,,
,,,,,,,,,,,,,,,,,,,,,,,,,,,,,,,,,,,,,,,,,,,,pump_11s.jpg,1.0,Yellow.png,5.0,103,,,,,,,,,,,,,1.0,1.0,0.0,28.0,28.0,28.0,1.0,1.579,,,,,,,,,,,,,,,
,,,,,,,,,,,,,,,,,,,,,,,,,,,,,,,,,,,,,,,,,,,,pepper2_21s.jpg,0.0,Green.png,5.0,103,,,,,,,,,,,,,0.0,1.0,0.0,29.0,29.0,29.0,1.0,1.302,,,,,,,,,,,,,,,
,,,,,,,,,,,,,,,,,,,,,,,,,,,,,,,,,,,,,,,,,,,,champagne_18s.jpg,0.0,Blue.png,6.0,103,,,,,,,,,,,,,0.0,1.0,0.0,30.0,30.0,30.0,1.0,1.477,,,,,,,,,,,,,,,
,,,,,,,,,,,,,,,,,,,,,,,,,,,,,,,,,,,,,,,,,,,,piggy_bank_02s.jpg,0.0,Purple.png,6.0,103,,,,,,,,,,,,,0.0,1.0,0.0,31.0,31.0,31.0,1.0,0.836,,,,,,,,,,,,,,,
,,,,,,,,,,,,,,,,,,,,,,,,,,,,,,,,,,,,,,,,,,,,fondue_07s.jpg,0.0,Red.png,6.0,103,,,,,,,,,,,,,0.0,1.0,0.0,32.0,32.0,32.0,1.0,0.733,,,,,,,,,,,,,,,
,,,,,,,,,,,,,,,,,,,,,,,,,,,,,,,,,,,,,,,,,,,,metronome_03s.jpg,0.0,Orange.png,6.0,103,,,,,,,,,,,,,0.0,1.0,0.0,33.0,33.0,33.0,1.0,0.594,,,,,,,,,,,,,,,
,,,,,,,,,,,,,,,,,,,,,,,,,,,,,,,,,,,,,,,,,,,,butter_14s.jpg,0.0,Yellow.png,6.0,103,,,,,,,,,,,,,0.0,1.0,0.0,34.0,34.0,34.0,1.0,1.738,,,,,,,,,,,,,,,
,,,,,,,,,,,,,,,,,,,,,,,,,,,,,,,,,,,,,,,,,,,,submarine_11n.jpg,0.0,Green.png,6.0,103,,,,,,,,,,,,,0.0,1.0,0.0,35.0,35.0,35.0,1.0,1.324,,,,,,,,,,,,,,,
,,,,,,,,,,,,,,,,,,,,,,,,,,,,,,,,,,,,,,,,,,,,,1.0,,,103,,,,,,,,,beard_16s.jpg,rope_16s.jpg,,,,,,,,,,,1.0,1.0,0.839,0.0,0.0,0.0,0.0,1.0,,,,,,,
,,,,,,,,,,,,,,,,,,,,,,,,,,,,,,,,,,,,,,,,,,,,,0.0,,,103,,,,,,,,,fondue_07s.jpg,pepper2_21s.jpg,,,,,,,,,,,1.0,0.0,0.511,0.0,1.0,1.0,1.0,1.0,,,,,,,
,,,,,,,,,,,,,,,,,,,,,,,,,,,,,,,,,,,,,,,,,,,,,0.0,,,103,,,,,,,,,metronome_03s.jpg,champagne_18s.jpg,,,,,,,,,,,1.0,0.0,0.365,0.0,2.0,2.0,2.0,1.0,,,,,,,
,,,,,,,,,,,,,,,,,,,,,,,,,,,,,,,,,,,,,,,,,,,,,1.0,,,103,,,,,,,,,beaker_01b.jpg,syringe_02s.jpg,,,,,,,,,,,1.0,1.0,0.577,0.0,3.0,3.0,3.0,1.0,,,,,,,
,,,,,,,,,,,,,,,,,,,,,,,,,,,,,,,,,,,,,,,,,,,,,1.0,,,103,,,,,,,,,mold2_04s.jpg,paper_towel_03s.jpg,,,,,,,,,,,1.0,1.0,0.426,0.0,4.0,4.0,4.0,1.0,,,,,,,
,,,,,,,,,,,,,,,,,,,,,,,,,,,,,,,,,,,,,,,,,,,,,0.0,,,103,,,,,,,,,butter_14s.jpg,piggy_bank_02s.jpg,,,,,,,,,,,1.0,0.0,0.594,0.0,5.0,5.0,5.0,1.0,,,,,,,
,,,,,,,,,,,,,,,,,,,,,,,,,,,,,,,,,,,,,,,,,,,,,,,,103,,,,,,,,,,,,,,,,,,,,,,,,,,,,,0.0,4.0,4.0,4.0,1.0,newclockpresent_5_3.xlsx,newclock_compare_task_5_3.xlsx
,,,,,,,,,,,,,,,,,,,,,,,,,,,,,,,,,,,,,,,,,,,,teabag_12s.jpg,0.0,Blue.png,1.0,103,,,,,,,,,,,,,0.0,1.0,0.0,0.0,0.0,0.0,1.0,1.422,,,,,,,,,,,,,,,
,,,,,,,,,,,,,,,,,,,,,,,,,,,,,,,,,,,,,,,,,,,,teabag_12s.jpg,1.0,Purple.png,1.0,103,,,,,,,,,,,,,1.0,1.0,0.0,1.0,1.0,1.0,1.0,1.436,,,,,,,,,,,,,,,
,,,,,,,,,,,,,,,,,,,,,,,,,,,,,,,,,,,,,,,,,,,,cereal_04s.jpg,0.0,Red.png,1.0,103,,,,,,,,,,,,,0.0,1.0,0.0,2.0,2.0,2.0,1.0,0.617,,,,,,,,,,,,,,,
,,,,,,,,,,,,,,,,,,,,,,,,,,,,,,,,,,,,,,,,,,,,pocket_watch_16s.jpg,0.0,Orange.png,1.0,103,,,,,,,,,,,,,0.0,1.0,0.0,3.0,3.0,3.0,1.0,0.767,,,,,,,,,,,,,,,
,,,,,,,,,,,,,,,,,,,,,,,,,,,,,,,,,,,,,,,,,,,,cucumber_07s.jpg,0.0,Yellow.png,1.0,103,,,,,,,,,,,,,0.0,1.0,0.0,4.0,4.0,4.0,1.0,0.687,,,,,,,,,,,,,,,
,,,,,,,,,,,,,,,,,,,,,,,,,,,,,,,,,,,,,,,,,,,,teabag_12s.jpg,1.0,Green.png,1.0,103,,,,,,,,,,,,,1.0,1.0,0.0,5.0,5.0,5.0,1.0,1.539,,,,,,,,,,,,,,,
,,,,,,,,,,,,,,,,,,,,,,,,,,,,,,,,,,,,,,,,,,,,recliner_02s.jpg,0.0,Blue.png,2.0,103,,,,,,,,,,,,,0.0,1.0,0.0,6.0,6.0,6.0,1.0,0.65,,,,,,,,,,,,,,,
,,,,,,,,,,,,,,,,,,,,,,,,,,,,,,,,,,,,,,,,,,,,tupperware_09s.jpg,0.0,Purple.png,2.0,103,,,,,,,,,,,,,0.0,1.0,0.0,7.0,7.0,7.0,1.0,0.953,,,,,,,,,,,,,,,
,,,,,,,,,,,,,,,,,,,,,,,,,,,,,,,,,,,,,,,,,,,,ticktacktoe_08s.jpg,0.0,Red.png,2.0,103,,,,,,,,,,,,,0.0,1.0,0.0,8.0,8.0,8.0,1.0,1.085,,,,,,,,,,,,,,,
,,,,,,,,,,,,,,,,,,,,,,,,,,,,,,,,,,,,,,,,,,,,peach_04s.jpg,0.0,Orange.png,2.0,103,,,,,,,,,,,,,0.0,1.0,0.0,9.0,9.0,9.0,1.0,0.667,,,,,,,,,,,,,,,
,,,,,,,,,,,,,,,,,,,,,,,,,,,,,,,,,,,,,,,,,,,,taxi_15s.jpg,0.0,Yellow.png,2.0,103,,,,,,,,,,,,,0.0,1.0,0.0,10.0,10.0,10.0,1.0,0.701,,,,,,,,,,,,,,,
,,,,,,,,,,,,,,,,,,,,,,,,,,,,,,,,,,,,,,,,,,,,peach_04s.jpg,1.0,Green.png,2.0,103,,,,,,,,,,,,,1.0,1.0,0.0,11.0,11.0,11.0,1.0,1.517,,,,,,,,,,,,,,,
,,,,,,,,,,,,,,,,,,,,,,,,,,,,,,,,,,,,,,,,,,,,letter_opener_03s.jpg,0.0,Blue.png,3.0,103,,,,,,,,,,,,,0.0,1.0,0.0,12.0,12.0,12.0,1.0,1.087,,,,,,,,,,,,,,,
,,,,,,,,,,,,,,,,,,,,,,,,,,,,,,,,,,,,,,,,,,,,letter_opener_03s.jpg,1.0,Purple.png,3.0,103,,,,,,,,,,,,,1.0,1.0,0.0,13.0,13.0,13.0,1.0,1.231,,,,,,,,,,,,,,,
,,,,,,,,,,,,,,,,,,,,,,,,,,,,,,,,,,,,,,,,,,,,letter_opener_03s.jpg,1.0,Red.png,3.0,103,,,,,,,,,,,,,1.0,1.0,0.0,14.0,14.0,14.0,1.0,1.119,,,,,,,,,,,,,,,
,,,,,,,,,,,,,,,,,,,,,,,,,,,,,,,,,,,,,,,,,,,,latte_06s.jpg,0.0,Orange.png,3.0,103,,,,,,,,,,,,,0.0,1.0,0.0,15.0,15.0,15.0,1.0,1.152,,,,,,,,,,,,,,,
,,,,,,,,,,,,,,,,,,,,,,,,,,,,,,,,,,,,,,,,,,,,letter_opener_03s.jpg,1.0,Yellow.png,3.0,103,,,,,,,,,,,,,1.0,1.0,0.0,16.0,16.0,16.0,1.0,1.2,,,,,,,,,,,,,,,
,,,,,,,,,,,,,,,,,,,,,,,,,,,,,,,,,,,,,,,,,,,,icicle_04s.jpg,0.0,Green.png,3.0,103,,,,,,,,,,,,,0.0,1.0,0.0,17.0,17.0,17.0,1.0,0.988,,,,,,,,,,,,,,,
,,,,,,,,,,,,,,,,,,,,,,,,,,,,,,,,,,,,,,,,,,,,taxi_15s.jpg,0.0,Blue.png,4.0,103,,,,,,,,,,,,,1.0,0.0,0.0,18.0,18.0,18.0,1.0,1.477,,,,,,,,,,,,,,,
,,,,,,,,,,,,,,,,,,,,,,,,,,,,,,,,,,,,,,,,,,,,chopsticks_08s.jpg,0.0,Purple.png,4.0,103,,,,,,,,,,,,,0.0,1.0,0.0,19.0,19.0,19.0,1.0,1.336,,,,,,,,,,,,,,,
,,,,,,,,,,,,,,,,,,,,,,,,,,,,,,,,,,,,,,,,,,,,doily_13s.jpg,0.0,Red.png,4.0,103,,,,,,,,,,,,,0.0,1.0,0.0,20.0,20.0,20.0,1.0,0.749,,,,,,,,,,,,,,,
,,,,,,,,,,,,,,,,,,,,,,,,,,,,,,,,,,,,,,,,,,,,pretzel_09s.jpg,0.0,Orange.png,4.0,103,,,,,,,,,,,,,0.0,1.0,0.0,21.0,21.0,21.0,1.0,0.636,,,,,,,,,,,,,,,
,,,,,,,,,,,,,,,,,,,,,,,,,,,,,,,,,,,,,,,,,,,,tie_03s.jpg,0.0,Yellow.png,4.0,103,,,,,,,,,,,,,0.0,1.0,0.0,22.0,22.0,22.0,1.0,0.638,,,,,,,,,,,,,,,
,,,,,,,,,,,,,,,,,,,,,,,,,,,,,,,,,,,,,,,,,,,,pepper_mill_03s.jpg,0.0,Green.png,4.0,103,,,,,,,,,,,,,0.0,1.0,0.0,23.0,23.0,23.0,1.0,0.802,,,,,,,,,,,,,,,
,,,,,,,,,,,,,,,,,,,,,,,,,,,,,,,,,,,,,,,,,,,,bee_20s.jpg,0.0,Blue.png,5.0,103,,,,,,,,,,,,,0.0,1.0,0.0,24.0,24.0,24.0,1.0,0.763,,,,,,,,,,,,,,,
,,,,,,,,,,,,,,,,,,,,,,,,,,,,,,,,,,,,,,,,,,,,pepper_mill_03s.jpg,0.0,Purple.png,5.0,103,,,,,,,,,,,,,1.0,0.0,0.0,25.0,25.0,25.0,1.0,1.37,,,,,,,,,,,,,,,
,,,,,,,,,,,,,,,,,,,,,,,,,,,,,,,,,,,,,,,,,,,,bee_20s.jpg,1.0,Red.png,5.0,103,,,,,,,,,,,,,1.0,1.0,0.0,26.0,26.0,26.0,1.0,1.386,,,,,,,,,,,,,,,
,,,,,,,,,,,,,,,,,,,,,,,,,,,,,,,,,,,,,,,,,,,,tinsel_12s.jpg,0.0,Orange.png,5.0,103,,,,,,,,,,,,,0.0,1.0,0.0,27.0,27.0,27.0,1.0,0.765,,,,,,,,,,,,,,,
,,,,,,,,,,,,,,,,,,,,,,,,,,,,,,,,,,,,,,,,,,,,fireworks_18s.jpg,0.0,Yellow.png,5.0,103,,,,,,,,,,,,,0.0,1.0,0.0,28.0,28.0,28.0,1.0,1.137,,,,,,,,,,,,,,,
,,,,,,,,,,,,,,,,,,,,,,,,,,,,,,,,,,,,,,,,,,,,key_07s.jpg,0.0,Green.png,5.0,103,,,,,,,,,,,,,0.0,1.0,0.0,29.0,29.0,29.0,1.0,0.865,,,,,,,,,,,,,,,
,,,,,,,,,,,,,,,,,,,,,,,,,,,,,,,,,,,,,,,,,,,,frog_09s.jpg,0.0,Blue.png,6.0,103,,,,,,,,,,,,,0.0,1.0,0.0,30.0,30.0,30.0,1.0,0.903,,,,,,,,,,,,,,,
,,,,,,,,,,,,,,,,,,,,,,,,,,,,,,,,,,,,,,,,,,,,key_07s.jpg,0.0,Purple.png,6.0,103,,,,,,,,,,,,,1.0,0.0,0.0,31.0,31.0,31.0,1.0,0.916,,,,,,,,,,,,,,,
,,,,,,,,,,,,,,,,,,,,,,,,,,,,,,,,,,,,,,,,,,,,rolling_pin_02s.jpg,0.0,Red.png,6.0,103,,,,,,,,,,,,,0.0,1.0,0.0,32.0,32.0,32.0,1.0,0.681,,,,,,,,,,,,,,,
,,,,,,,,,,,,,,,,,,,,,,,,,,,,,,,,,,,,,,,,,,,,coral_08s.jpg,0.0,Orange.png,6.0,103,,,,,,,,,,,,,0.0,1.0,0.0,33.0,33.0,33.0,1.0,0.934,,,,,,,,,,,,,,,
,,,,,,,,,,,,,,,,,,,,,,,,,,,,,,,,,,,,,,,,,,,,key_07s.jpg,1.0,Yellow.png,6.0,103,,,,,,,,,,,,,1.0,1.0,0.0,34.0,34.0,34.0,1.0,0.701,,,,,,,,,,,,,,,
,,,,,,,,,,,,,,,,,,,,,,,,,,,,,,,,,,,,,,,,,,,,margarita_03s.jpg,0.0,Green.png,6.0,103,,,,,,,,,,,,,0.0,1.0,0.0,35.0,35.0,35.0,1.0,0.834,,,,,,,,,,,,,,,
,,,,,,,,,,,,,,,,,,,,,,,,,,,,,,,,,,,,,,,,,,,,,0.0,,,103,,,,,,,,,recliner_02s.jpg,pocket_watch_16s.jpg,,,,,,,,,,,0.0,1.0,1.638,0.0,0.0,0.0,0.0,1.0,,,,,,,
,,,,,,,,,,,,,,,,,,,,,,,,,,,,,,,,,,,,,,,,,,,,,0.0,,,103,,,,,,,,,tie_03s.jpg,chopsticks_08s.jpg,,,,,,,,,,,0.0,1.0,0.624,0.0,1.0,1.0,1.0,1.0,,,,,,,
,,,,,,,,,,,,,,,,,,,,,,,,,,,,,,,,,,,,,,,,,,,,,1.0,,,103,,,,,,,,,icicle_04s.jpg,doily_13s.jpg,,,,,,,,,,,0.0,0.0,0.563,0.0,2.0,2.0,2.0,1.0,,,,,,,
,,,,,,,,,,,,,,,,,,,,,,,,,,,,,,,,,,,,,,,,,,,,,1.0,,,103,,,,,,,,,rolling_pin_02s.jpg,margarita_03s.jpg,,,,,,,,,,,0.0,0.0,0.428,0.0,3.0,3.0,3.0,1.0,,,,,,,
,,,,,,,,,,,,,,,,,,,,,,,,,,,,,,,,,,,,,,,,,,,,,1.0,,,103,,,,,,,,,cucumber_07s.jpg,tupperware_09s.jpg,,,,,,,,,,,0.0,0.0,0.527,0.0,4.0,4.0,4.0,1.0,,,,,,,
,,,,,,,,,,,,,,,,,,,,,,,,,,,,,,,,,,,,,,,,,,,,,0.0,,,103,,,,,,,,,coral_08s.jpg,frog_09s.jpg,,,,,,,,,,,0.0,1.0,0.611,0.0,5.0,5.0,5.0,1.0,,,,,,,
,,,,,,,,,,,,,,,,,,,,,,,,,,,,,,,,,,,,,,,,,,,,,,,,103,,,,,,,,,,,,,,,,,,,,,,,,,,,,,0.0,5.0,5.0,5.0,1.0,newclockpresent_6_3.xlsx,newclock_compare_task_6_3.xlsx
,,,,,,,,,,,,,,,,,,,,,,,,,,,,,,,,,,,,,,,,,,,,polar_bear_02s.jpg,0.0,Blue.png,1.0,103,,,,,,,,,,,,,0.0,1.0,0.0,0.0,0.0,0.0,1.0,0.966,,,,,,,,,,,,,,,
,,,,,,,,,,,,,,,,,,,,,,,,,,,,,,,,,,,,,,,,,,,,screwdriver02a.jpg,0.0,Purple.png,1.0,103,,,,,,,,,,,,,0.0,1.0,0.0,1.0,1.0,1.0,1.0,0.933,,,,,,,,,,,,,,,
,,,,,,,,,,,,,,,,,,,,,,,,,,,,,,,,,,,,,,,,,,,,screwdriver02a.jpg,1.0,Red.png,1.0,103,,,,,,,,,,,,,1.0,1.0,0.0,2.0,2.0,2.0,1.0,0.555,,,,,,,,,,,,,,,
,,,,,,,,,,,,,,,,,,,,,,,,,,,,,,,,,,,,,,,,,,,,phone_01b.jpg,0.0,Orange.png,1.0,103,,,,,,,,,,,,,0.0,1.0,0.0,3.0,3.0,3.0,1.0,0.998,,,,,,,,,,,,,,,
,,,,,,,,,,,,,,,,,,,,,,,,,,,,,,,,,,,,,,,,,,,,eyedropper_12s.jpg,0.0,Yellow.png,1.0,103,,,,,,,,,,,,,0.0,1.0,0.0,4.0,4.0,4.0,1.0,0.864,,,,,,,,,,,,,,,
,,,,,,,,,,,,,,,,,,,,,,,,,,,,,,,,,,,,,,,,,,,,mailbox_11s.jpg,0.0,Green.png,1.0,103,,,,,,,,,,,,,0.0,1.0,0.0,5.0,5.0,5.0,1.0,0.617,,,,,,,,,,,,,,,
,,,,,,,,,,,,,,,,,,,,,,,,,,,,,,,,,,,,,,,,,,,,mascara_03s.jpg,0.0,Blue.png,2.0,103,,,,,,,,,,,,,0.0,1.0,0.0,6.0,6.0,6.0,1.0,0.749,,,,,,,,,,,,,,,
,,,,,,,,,,,,,,,,,,,,,,,,,,,,,,,,,,,,,,,,,,,,mailbox_11s.jpg,0.0,Purple.png,2.0,103,,,,,,,,,,,,,1.0,0.0,0.0,7.0,7.0,7.0,1.0,0.852,,,,,,,,,,,,,,,
,,,,,,,,,,,,,,,,,,,,,,,,,,,,,,,,,,,,,,,,,,,,eiffeltower.jpg,0.0,Red.png,2.0,103,,,,,,,,,,,,,0.0,1.0,0.0,8.0,8.0,8.0,1.0,0.63,,,,,,,,,,,,,,,
,,,,,,,,,,,,,,,,,,,,,,,,,,,,,,,,,,,,,,,,,,,,bagel_15s.jpg,0.0,Orange.png,2.0,103,,,,,,,,,,,,,0.0,1.0,0.0,9.0,9.0,9.0,1.0,0.75,,,,,,,,,,,,,,,
,,,,,,,,,,,,,,,,,,,,,,,,,,,,,,,,,,,,,,,,,,,,thumbtack_14s.jpg,0.0,Yellow.png,2.0,103,,,,,,,,,,,,,0.0,1.0,0.0,10.0,10.0,10.0,1.0,0.697,,,,,,,,,,,,,,,
,,,,,,,,,,,,,,,,,,,,,,,,,,,,,,,,,,,,,,,,,,,,checkbook_11s.jpg,0.0,Green.png,2.0,103,,,,,,,,,,,,,0.0,1.0,0.0,11.0,11.0,11.0,1.0,0.683,,,,,,,,,,,,,,,
,,,,,,,,,,,,,,,,,,,,,,,,,,,,,,,,,,,,,,,,,,,,phone_01b.jpg,0.0,Blue.png,3.0,103,,,,,,,,,,,,,1.0,0.0,0.0,12.0,12.0,12.0,1.0,0.849,,,,,,,,,,,,,,,
,,,,,,,,,,,,,,,,,,,,,,,,,,,,,,,,,,,,,,,,,,,,crossbow_10s.jpg,0.0,Purple.png,3.0,103,,,,,,,,,,,,,0.0,1.0,0.0,13.0,13.0,13.0,1.0,0.751,,,,,,,,,,,,,,,
,,,,,,,,,,,,,,,,,,,,,,,,,,,,,,,,,,,,,,,,,,,,fire_pit_10s.jpg,0.0,Red.png,3.0,103,,,,,,,,,,,,,0.0,1.0,0.0,14.0,14.0,14.0,1.0,0.703,,,,,,,,,,,,,,,
,,,,,,,,,,,,,,,,,,,,,,,,,,,,,,,,,,,,,,,,,,,,phone_01b.jpg,1.0,Orange.png,3.0,103,,,,,,,,,,,,,1.0,1.0,0.0,15.0,15.0,15.0,1.0,0.884,,,,,,,,,,,,,,,
,,,,,,,,,,,,,,,,,,,,,,,,,,,,,,,,,,,,,,,,,,,,basket_05s.jpg,0.0,Yellow.png,3.0,103,,,,,,,,,,,,,0.0,1.0,0.0,16.0,16.0,16.0,1.0,0.633,,,,,,,,,,,,,,,
,,,,,,,,,,,,,,,,,,,,,,,,,,,,,,,,,,,,,,,,,,,,tablet_04s.jpg,0.0,Green.png,3.0,103,,,,,,,,,,,,,0.0,1.0,0.0,17.0,17.0,17.0,1.0,0.829,,,,,,,,,,,,,,,
,,,,,,,,,,,,,,,,,,,,,,,,,,,,,,,,,,,,,,,,,,,,eyedropper_12s.jpg,0.0,Blue.png,4.0,103,,,,,,,,,,,,,1.0,0.0,0.0,18.0,18.0,18.0,1.0,1.418,,,,,,,,,,,,,,,
,,,,,,,,,,,,,,,,,,,,,,,,,,,,,,,,,,,,,,,,,,,,milk_02s.jpg,0.0,Purple.png,4.0,103,,,,,,,,,,,,,0.0,1.0,0.0,19.0,19.0,19.0,1.0,0.734,,,,,,,,,,,,,,,
,,,,,,,,,,,,,,,,,,,,,,,,,,,,,,,,,,,,,,,,,,,,pomegranate_04s.jpg,0.0,Red.png,4.0,103,,,,,,,,,,,,,0.0,1.0,0.0,20.0,20.0,20.0,1.0,0.8,,,,,,,,,,,,,,,
,,,,,,,,,,,,,,,,,,,,,,,,,,,,,,,,,,,,,,,,,,,,mug_06s.jpg,0.0,Orange.png,4.0,103,,,,,,,,,,,,,0.0,1.0,0.0,21.0,21.0,21.0,1.0,0.815,,,,,,,,,,,,,,,
,,,,,,,,,,,,,,,,,,,,,,,,,,,,,,,,,,,,,,,,,,,,eyedropper_12s.jpg,1.0,Yellow.png,4.0,103,,,,,,,,,,,,,1.0,1.0,0.0,22.0,22.0,22.0,1.0,1.358,,,,,,,,,,,,,,,
,,,,,,,,,,,,,,,,,,,,,,,,,,,,,,,,,,,,,,,,,,,,laundry_basket_11s.jpg,0.0,Green.png,4.0,103,,,,,,,,,,,,,0.0,1.0,0.0,23.0,23.0,23.0,1.0,1.085,,,,,,,,,,,,,,,
,,,,,,,,,,,,,,,,,,,,,,,,,,,,,,,,,,,,,,,,,,,,eyedropper_12s.jpg,0.0,Blue.png,5.0,103,,,,,,,,,,,,,1.0,0.0,0.0,24.0,24.0,24.0,1.0,1.64,,,,,,,,,,,,,,,
,,,,,,,,,,,,,,,,,,,,,,,,,,,,,,,,,,,,,,,,,,,,laundry_basket_11s.jpg,0.0,Purple.png,5.0,103,,,,,,,,,,,,,1.0,0.0,0.0,25.0,25.0,25.0,1.0,1.419,,,,,,,,,,,,,,,
,,,,,,,,,,,,,,,,,,,,,,,,,,,,,,,,,,,,,,,,,,,,magnet_03s.jpg,0.0,Red.png,5.0,103,,,,,,,,,,,,,0.0,1.0,0.0,26.0,26.0,26.0,1.0,0.668,,,,,,,,,,,,,,,
,,,,,,,,,,,,,,,,,,,,,,,,,,,,,,,,,,,,,,,,,,,,laundry_basket_11s.jpg,1.0,Orange.png,5.0,103,,,,,,,,,,,,,1.0,1.0,0.0,27.0,27.0,27.0,1.0,1.536,,,,,,,,,,,,,,,
,,,,,,,,,,,,,,,,,,,,,,,,,,,,,,,,,,,,,,,,,,,,laundry_basket_11s.jpg,1.0,Yellow.png,5.0,103,,,,,,,,,,,,,1.0,1.0,0.0,28.0,28.0,28.0,1.0,1.135,,,,,,,,,,,,,,,
,,,,,,,,,,,,,,,,,,,,,,,,,,,,,,,,,,,,,,,,,,,,tambourine_06s.jpg,0.0,Green.png,5.0,103,,,,,,,,,,,,,0.0,1.0,0.0,29.0,29.0,29.0,1.0,0.771,,,,,,,,,,,,,,,
,,,,,,,,,,,,,,,,,,,,,,,,,,,,,,,,,,,,,,,,,,,,lab_coat_11s.jpg,0.0,Blue.png,6.0,103,,,,,,,,,,,,,0.0,1.0,0.0,30.0,30.0,30.0,1.0,0.633,,,,,,,,,,,,,,,
,,,,,,,,,,,,,,,,,,,,,,,,,,,,,,,,,,,,,,,,,,,,lab_coat_11s.jpg,1.0,Purple.png,6.0,103,,,,,,,,,,,,,1.0,1.0,0.0,31.0,31.0,31.0,1.0,1.217,,,,,,,,,,,,,,,
,,,,,,,,,,,,,,,,,,,,,,,,,,,,,,,,,,,,,,,,,,,,lab_coat_11s.jpg,1.0,Red.png,6.0,103,,,,,,,,,,,,,1.0,1.0,0.0,32.0,32.0,32.0,1.0,1.388,,,,,,,,,,,,,,,
,,,,,,,,,,,,,,,,,,,,,,,,,,,,,,,,,,,,,,,,,,,,lab_coat_11s.jpg,1.0,Orange.png,6.0,103,,,,,,,,,,,,,1.0,1.0,0.0,33.0,33.0,33.0,1.0,1.368,,,,,,,,,,,,,,,
,,,,,,,,,,,,,,,,,,,,,,,,,,,,,,,,,,,,,,,,,,,,cap_05s.jpg,0.0,Yellow.png,6.0,103,,,,,,,,,,,,,0.0,1.0,0.0,34.0,34.0,34.0,1.0,1.239,,,,,,,,,,,,,,,
,,,,,,,,,,,,,,,,,,,,,,,,,,,,,,,,,,,,,,,,,,,,puck_06s.jpg,0.0,Green.png,6.0,103,,,,,,,,,,,,,0.0,1.0,0.0,35.0,35.0,35.0,1.0,1.401,,,,,,,,,,,,,,,
,,,,,,,,,,,,,,,,,,,,,,,,,,,,,,,,,,,,,,,,,,,,,1.0,,,103,,,,,,,,,mascara_03s.jpg,bagel_15s.jpg,,,,,,,,,,,1.0,1.0,2.056,0.0,0.0,0.0,0.0,1.0,,,,,,,
,,,,,,,,,,,,,,,,,,,,,,,,,,,,,,,,,,,,,,,,,,,,,0.0,,,103,,,,,,,,,checkbook_11s.jpg,eiffeltower.jpg,,,,,,,,,,,1.0,0.0,0.397,0.0,1.0,1.0,1.0,1.0,,,,,,,
,,,,,,,,,,,,,,,,,,,,,,,,,,,,,,,,,,,,,,,,,,,,,1.0,,,103,,,,,,,,,thumbtack_14s.jpg,crossbow_10s.jpg,,,,,,,,,,,1.0,1.0,0.343,0.0,2.0,2.0,2.0,1.0,,,,,,,
,,,,,,,,,,,,,,,,,,,,,,,,,,,,,,,,,,,,,,,,,,,,,0.0,,,103,,,,,,,,,milk_02s.jpg,basket_05s.jpg,,,,,,,,,,,1.0,0.0,0.291,0.0,3.0,3.0,3.0,1.0,,,,,,,
,,,,,,,,,,,,,,,,,,,,,,,,,,,,,,,,,,,,,,,,,,,,,1.0,,,103,,,,,,,,,tablet_04s.jpg,pomegranate_04s.jpg,,,,,,,,,,,1.0,1.0,0.277,0.0,4.0,4.0,4.0,1.0,,,,,,,
,,,,,,,,,,,,,,,,,,,,,,,,,,,,,,,,,,,,,,,,,,,,,0.0,,,103,,,,,,,,,tambourine_06s.jpg,magnet_03s.jpg,,,,,,,,,,,1.0,0.0,0.351,0.0,5.0,5.0,5.0,1.0,,,,,,,
,,,,,,,,,,,,,,,,,,,,,,,,,,,,,,,,,,,,,,,,,,,,,,,,103,,,,,,,,,,,,,,,,,,,,,,,,,,,,,0.0,6.0,6.0,6.0,1.0,newclockpresent_7_3.xlsx,newclock_compare_task_7_3.xlsx
,,,,,,,,,,,,,,,,,,,,,,,,,,,,,,,,,,,,,,,,,,,,projector_08s.jpg,0.0,Blue.png,1.0,103,,,,,,,,,,,,,0.0,1.0,0.0,0.0,0.0,0.0,1.0,0.663,,,,,,,,,,,,,,,
,,,,,,,,,,,,,,,,,,,,,,,,,,,,,,,,,,,,,,,,,,,,projector_08s.jpg,1.0,Purple.png,1.0,103,,,,,,,,,,,,,1.0,1.0,0.0,1.0,1.0,1.0,1.0,1.272,,,,,,,,,,,,,,,
,,,,,,,,,,,,,,,,,,,,,,,,,,,,,,,,,,,,,,,,,,,,projector_08s.jpg,1.0,Red.png,1.0,103,,,,,,,,,,,,,1.0,1.0,0.0,2.0,2.0,2.0,1.0,1.337,,,,,,,,,,,,,,,
,,,,,,,,,,,,,,,,,,,,,,,,,,,,,,,,,,,,,,,,,,,,pumpkin_03s.jpg,0.0,Orange.png,1.0,103,,,,,,,,,,,,,0.0,1.0,0.0,3.0,3.0,3.0,1.0,1.218,,,,,,,,,,,,,,,
,,,,,,,,,,,,,,,,,,,,,,,,,,,,,,,,,,,,,,,,,,,,orangutan_03s.jpg,0.0,Yellow.png,1.0,103,,,,,,,,,,,,,0.0,1.0,0.0,4.0,4.0,4.0,1.0,1.552,,,,,,,,,,,,,,,
,,,,,,,,,,,,,,,,,,,,,,,,,,,,,,,,,,,,,,,,,,,,projector_08s.jpg,1.0,Green.png,1.0,103,,,,,,,,,,,,,1.0,1.0,0.0,5.0,5.0,5.0,1.0,2.377,,,,,,,,,,,,,,,
,,,,,,,,,,,,,,,,,,,,,,,,,,,,,,,,,,,,,,,,,,,,rollerskate_03s.jpg,0.0,Blue.png,2.0,103,,,,,,,,,,,,,0.0,1.0,0.0,6.0,6.0,6.0,1.0,1.424,,,,,,,,,,,,,,,
,,,,,,,,,,,,,,,,,,,,,,,,,,,,,,,,,,,,,,,,,,,,projector_08s.jpg,0.0,Purple.png,2.0,103,,,,,,,,,,,,,1.0,0.0,0.0,7.0,7.0,7.0,1.0,1.401,,,,,,,,,,,,,,,
,,,,,,,,,,,,,,,,,,,,,,,,,,,,,,,,,,,,,,,,,,,,racehorse_03s.jpg,0.0,Red.png,2.0,103,,,,,,,,,,,,,0.0,1.0,0.0,8.0,8.0,8.0,1.0,1.486,,,,,,,,,,,,,,,
,,,,,,,,,,,,,,,,,,,,,,,,,,,,,,,,,,,,,,,,,,,,projector_08s.jpg,1.0,Orange.png,2.0,103,,,,,,,,,,,,,1.0,1.0,0.0,9.0,9.0,9.0,1.0,1.542,,,,,,,,,,,,,,,
,,,,,,,,,,,,,,,,,,,,,,,,,,,,,,,,,,,,,,,,,,,,toy_04s.jpg,0.0,Yellow.png,2.0,103,,,,,,,,,,,,,0.0,1.0,0.0,10.0,10.0,10.0,1.0,1.245,,,,,,,,,,,,,,,
,,,,,,,,,,,,,,,,,,,,,,,,,,,,,,,,,,,,,,,,,,,,projector_08s.jpg,1.0,Green.png,2.0,103,,,,,,,,,,,,,1.0,1.0,0.0,11.0,11.0,11.0,1.0,1.303,,,,,,,,,,,,,,,
,,,,,,,,,,,,,,,,,,,,,,,,,,,,,,,,,,,,,,,,,,,,toy_04s.jpg,0.0,Blue.png,3.0,103,,,,,,,,,,,,,1.0,0.0,0.0,12.0,12.0,12.0,1.0,1.451,,,,,,,,,,,,,,,
,,,,,,,,,,,,,,,,,,,,,,,,,,,,,,,,,,,,,,,,,,,,toy_04s.jpg,1.0,Purple.png,3.0,103,,,,,,,,,,,,,1.0,1.0,0.0,13.0,13.0,13.0,1.0,1.534,,,,,,,,,,,,,,,
,,,,,,,,,,,,,,,,,,,,,,,,,,,,,,,,,,,,,,,,,,,,loveseat_08s.jpg,0.0,Red.png,3.0,103,,,,,,,,,,,,,0.0,1.0,0.0,14.0,14.0,14.0,1.0,1.485,,,,,,,,,,,,,,,
,,,,,,,,,,,,,,,,,,,,,,,,,,,,,,,,,,,,,,,,,,,,toy_04s.jpg,1.0,Orange.png,3.0,103,,,,,,,,,,,,,1.0,1.0,0.0,15.0,15.0,15.0,1.0,1.176,,,,,,,,,,,,,,,
,,,,,,,,,,,,,,,,,,,,,,,,,,,,,,,,,,,,,,,,,,,,toy_04s.jpg,1.0,Yellow.png,3.0,103,,,,,,,,,,,,,1.0,1.0,0.0,16.0,16.0,16.0,1.0,1.302,,,,,,,,,,,,,,,
,,,,,,,,,,,,,,,,,,,,,,,,,,,,,,,,,,,,,,,,,,,,muffin_12n.jpg,0.0,Green.png,3.0,103,,,,,,,,,,,,,0.0,1.0,0.0,17.0,17.0,17.0,1.0,1.071,,,,,,,,,,,,,,,
,,,,,,,,,,,,,,,,,,,,,,,,,,,,,,,,,,,,,,,,,,,,oil_02s.jpg,0.0,Blue.png,4.0,103,,,,,,,,,,,,,0.0,1.0,0.0,18.0,18.0,18.0,1.0,1.436,,,,,,,,,,,,,,,
,,,,,,,,,,,,,,,,,,,,,,,,,,,,,,,,,,,,,,,,,,,,ring_03s.jpg,0.0,Purple.png,4.0,103,,,,,,,,,,,,,0.0,1.0,0.0,19.0,19.0,19.0,1.0,1.228,,,,,,,,,,,,,,,
,,,,,,,,,,,,,,,,,,,,,,,,,,,,,,,,,,,,,,,,,,,,ring_03s.jpg,1.0,Red.png,4.0,103,,,,,,,,,,,,,1.0,1.0,0.0,20.0,20.0,20.0,1.0,1.553,,,,,,,,,,,,,,,
,,,,,,,,,,,,,,,,,,,,,,,,,,,,,,,,,,,,,,,,,,,,harpoon.jpg,0.0,Orange.png,4.0,103,,,,,,,,,,,,,0.0,1.0,0.0,21.0,21.0,21.0,1.0,1.605,,,,,,,,,,,,,,,
,,,,,,,,,,,,,,,,,,,,,,,,,,,,,,,,,,,,,,,,,,,,swimming_pool_17s.jpg,0.0,Yellow.png,4.0,103,,,,,,,,,,,,,0.0,1.0,0.0,22.0,22.0,22.0,1.0,2.023,,,,,,,,,,,,,,,
,,,,,,,,,,,,,,,,,,,,,,,,,,,,,,,,,,,,,,,,,,,,ironing_board_07s.jpg,0.0,Green.png,4.0,103,,,,,,,,,,,,,0.0,1.0,0.0,23.0,23.0,23.0,1.0,1.384,,,,,,,,,,,,,,,
,,,,,,,,,,,,,,,,,,,,,,,,,,,,,,,,,,,,,,,,,,,,projector_08s.jpg,0.0,Blue.png,5.0,103,,,,,,,,,,,,,1.0,0.0,0.0,24.0,24.0,24.0,1.0,1.454,,,,,,,,,,,,,,,
,,,,,,,,,,,,,,,,,,,,,,,,,,,,,,,,,,,,,,,,,,,,rabbit_03s.jpg,0.0,Purple.png,5.0,103,,,,,,,,,,,,,0.0,1.0,0.0,25.0,25.0,25.0,1.0,1.639,,,,,,,,,,,,,,,
,,,,,,,,,,,,,,,,,,,,,,,,,,,,,,,,,,,,,,,,,,,,spacesuit_02s.jpg,0.0,Red.png,5.0,103,,,,,,,,,,,,,0.0,1.0,0.0,26.0,26.0,26.0,1.0,1.471,,,,,,,,,,,,,,,
,,,,,,,,,,,,,,,,,,,,,,,,,,,,,,,,,,,,,,,,,,,,toy_04s.jpg,0.0,Orange.png,5.0,103,,,,,,,,,,,,,1.0,0.0,0.0,27.0,27.0,27.0,1.0,1.25,,,,,,,,,,,,,,,
,,,,,,,,,,,,,,,,,,,,,,,,,,,,,,,,,,,,,,,,,,,,mannequin_05s.jpg,0.0,Yellow.png,5.0,103,,,,,,,,,,,,,0.0,1.0,0.0,28.0,28.0,28.0,1.0,1.285,,,,,,,,,,,,,,,
,,,,,,,,,,,,,,,,,,,,,,,,,,,,,,,,,,,,,,,,,,,,toy_04s.jpg,1.0,Green.png,5.0,103,,,,,,,,,,,,,1.0,1.0,0.0,29.0,29.0,29.0,1.0,1.385,,,,,,,,,,,,,,,
,,,,,,,,,,,,,,,,,,,,,,,,,,,,,,,,,,,,,,,,,,,,dashboard_02s.jpg,0.0,Blue.png,6.0,103,,,,,,,,,,,,,0.0,1.0,0.0,30.0,30.0,30.0,1.0,1.419,,,,,,,,,,,,,,,
,,,,,,,,,,,,,,,,,,,,,,,,,,,,,,,,,,,,,,,,,,,,exhaust_pipe_10s.jpg,0.0,Purple.png,6.0,103,,,,,,,,,,,,,0.0,1.0,0.0,31.0,31.0,31.0,1.0,0.633,,,,,,,,,,,,,,,
,,,,,,,,,,,,,,,,,,,,,,,,,,,,,,,,,,,,,,,,,,,,telephone_pole_05s.jpg,0.0,Red.png,6.0,103,,,,,,,,,,,,,0.0,1.0,0.0,32.0,32.0,32.0,1.0,0.685,,,,,,,,,,,,,,,
,,,,,,,,,,,,,,,,,,,,,,,,,,,,,,,,,,,,,,,,,,,,orangutan_03s.jpg,0.0,Orange.png,6.0,103,,,,,,,,,,,,,0.0,1.0,0.0,33.0,33.0,33.0,1.0,0.819,,,,,,,,,,,,,,,
,,,,,,,,,,,,,,,,,,,,,,,,,,,,,,,,,,,,,,,,,,,,tuxedo_01b.jpg,0.0,Yellow.png,6.0,103,,,,,,,,,,,,,0.0,1.0,0.0,34.0,34.0,34.0,1.0,0.782,,,,,,,,,,,,,,,
,,,,,,,,,,,,,,,,,,,,,,,,,,,,,,,,,,,,,,,,,,,,crate_05s.jpg,0.0,Green.png,6.0,103,,,,,,,,,,,,,0.0,1.0,0.0,35.0,35.0,35.0,1.0,0.599,,,,,,,,,,,,,,,
,,,,,,,,,,,,,,,,,,,,,,,,,,,,,,,,,,,,,,,,,,,,,1.0,,,103,,,,,,,,,oil_02s.jpg,harpoon.jpg,,,,,,,,,,,0.0,0.0,1.357,0.0,0.0,0.0,0.0,1.0,,,,,,,
,,,,,,,,,,,,,,,,,,,,,,,,,,,,,,,,,,,,,,,,,,,,,1.0,,,103,,,,,,,,,swimming_pool_17s.jpg,rabbit_03s.jpg,,,,,,,,,,,0.0,0.0,0.507,0.0,1.0,1.0,1.0,1.0,,,,,,,
,,,,,,,,,,,,,,,,,,,,,,,,,,,,,,,,,,,,,,,,,,,,,0.0,,,103,,,,,,,,,rollerskate_03s.jpg,pumpkin_03s.jpg,,,,,,,,,,,0.0,1.0,0.307,0.0,2.0,2.0,2.0,1.0,,,,,,,
,,,,,,,,,,,,,,,,,,,,,,,,,,,,,,,,,,,,,,,,,,,,,0.0,,,103,,,,,,,,,muffin_12n.jpg,loveseat_08s.jpg,,,,,,,,,,,0.0,1.0,0.342,0.0,3.0,3.0,3.0,1.0,,,,,,,
,,,,,,,,,,,,,,,,,,,,,,,,,,,,,,,,,,,,,,,,,,,,,0.0,,,103,,,,,,,,,spacesuit_02s.jpg,ironing_board_07s.jpg,,,,,,,,,,,0.0,1.0,0.393,0.0,4.0,4.0,4.0,1.0,,,,,,,
,,,,,,,,,,,,,,,,,,,,,,,,,,,,,,,,,,,,,,,,,,,,,1.0,,,103,,,,,,,,,telephone_pole_05s.jpg,crate_05s.jpg,,,,,,,,,,,0.0,0.0,0.63,0.0,5.0,5.0,5.0,1.0,,,,,,,
,,,,,,,,,,,,,,,,,,,,,,,,,,,,,,,,,,,,,,,,,,,,,,,,103,,,,,,,,,,,,,,,,,,,,,,,,,,,,,0.0,7.0,7.0,7.0,1.0,newclockpresent_8_3.xlsx,newclock_compare_task_8_3.xlsx
,,,,,,,,,,,,,,,,,,,,,,,,,,,,,,,,,,,,,,,,,,,,plunger_08s.jpg,0.0,Blue.png,1.0,103,,,,,,,,,,,,,0.0,1.0,0.0,0.0,0.0,0.0,1.0,2.055,,,,,,,,,,,,,,,
,,,,,,,,,,,,,,,,,,,,,,,,,,,,,,,,,,,,,,,,,,,,mango_09s.jpg,0.0,Purple.png,1.0,103,,,,,,,,,,,,,0.0,1.0,0.0,1.0,1.0,1.0,1.0,0.7,,,,,,,,,,,,,,,
,,,,,,,,,,,,,,,,,,,,,,,,,,,,,,,,,,,,,,,,,,,,panda_02s.jpg,0.0,Red.png,1.0,103,,,,,,,,,,,,,0.0,1.0,0.0,2.0,2.0,2.0,1.0,0.815,,,,,,,,,,,,,,,
,,,,,,,,,,,,,,,,,,,,,,,,,,,,,,,,,,,,,,,,,,,,spatula04.jpg,0.0,Orange.png,1.0,103,,,,,,,,,,,,,0.0,1.0,0.0,3.0,3.0,3.0,1.0,0.665,,,,,,,,,,,,,,,
,,,,,,,,,,,,,,,,,,,,,,,,,,,,,,,,,,,,,,,,,,,,tuba_12s.jpg,0.0,Yellow.png,1.0,103,,,,,,,,,,,,,0.0,1.0,0.0,4.0,4.0,4.0,1.0,0.731,,,,,,,,,,,,,,,
,,,,,,,,,,,,,,,,,,,,,,,,,,,,,,,,,,,,,,,,,,,,lipstick_02s.jpg,0.0,Green.png,1.0,103,,,,,,,,,,,,,0.0,1.0,0.0,5.0,5.0,5.0,1.0,0.712,,,,,,,,,,,,,,,
,,,,,,,,,,,,,,,,,,,,,,,,,,,,,,,,,,,,,,,,,,,,tuba_12s.jpg,0.0,Blue.png,2.0,103,,,,,,,,,,,,,1.0,0.0,0.0,6.0,6.0,6.0,1.0,1.268,,,,,,,,,,,,,,,
,,,,,,,,,,,,,,,,,,,,,,,,,,,,,,,,,,,,,,,,,,,,jelly_bean_06s.jpg,0.0,Purple.png,2.0,103,,,,,,,,,,,,,0.0,1.0,0.0,7.0,7.0,7.0,1.0,0.652,,,,,,,,,,,,,,,
,,,,,,,,,,,,,,,,,,,,,,,,,,,,,,,,,,,,,,,,,,,,penlight_12s.jpg,0.0,Red.png,2.0,103,,,,,,,,,,,,,0.0,1.0,0.0,8.0,8.0,8.0,1.0,0.718,,,,,,,,,,,,,,,
,,,,,,,,,,,,,,,,,,,,,,,,,,,,,,,,,,,,,,,,,,,,rooster_03s.jpg,0.0,Orange.png,2.0,103,,,,,,,,,,,,,0.0,1.0,0.0,9.0,9.0,9.0,1.0,0.779,,,,,,,,,,,,,,,
,,,,,,,,,,,,,,,,,,,,,,,,,,,,,,,,,,,,,,,,,,,,raft_09s.jpg,0.0,Yellow.png,2.0,103,,,,,,,,,,,,,0.0,1.0,0.0,10.0,10.0,10.0,1.0,0.717,,,,,,,,,,,,,,,
,,,,,,,,,,,,,,,,,,,,,,,,,,,,,,,,,,,,,,,,,,,,briefcase_03s.jpg,0.0,Green.png,2.0,103,,,,,,,,,,,,,0.0,1.0,0.0,11.0,11.0,11.0,1.0,0.765,,,,,,,,,,,,,,,
,,,,,,,,,,,,,,,,,,,,,,,,,,,,,,,,,,,,,,,,,,,,fossil_06s.jpg,0.0,Blue.png,3.0,103,,,,,,,,,,,,,0.0,1.0,0.0,12.0,12.0,12.0,1.0,0.649,,,,,,,,,,,,,,,
,,,,,,,,,,,,,,,,,,,,,,,,,,,,,,,,,,,,,,,,,,,,fossil_06s.jpg,1.0,Purple.png,3.0,103,,,,,,,,,,,,,1.0,1.0,0.0,13.0,13.0,13.0,1.0,1.556,,,,,,,,,,,,,,,
,,,,,,,,,,,,,,,,,,,,,,,,,,,,,,,,,,,,,,,,,,,,emerald_02s.jpg,0.0,Red.png,3.0,103,,,,,,,,,,,,,0.0,1.0,0.0,14.0,14.0,14.0,1.0,0.701,,,,,,,,,,,,,,,
,,,,,,,,,,,,,,,,,,,,,,,,,,,,,,,,,,,,,,,,,,,,fossil_06s.jpg,1.0,Orange.png,3.0,103,,,,,,,,,,,,,1.0,1.0,0.0,15.0,15.0,15.0,1.0,1.339,,,,,,,,,,,,,,,
,,,,,,,,,,,,,,,,,,,,,,,,,,,,,,,,,,,,,,,,,,,,tiara_05s.jpg,0.0,Yellow.png,3.0,103,,,,,,,,,,,,,0.0,1.0,0.0,16.0,16.0,16.0,1.0,0.899,,,,,,,,,,,,,,,
,,,,,,,,,,,,,,,,,,,,,,,,,,,,,,,,,,,,,,,,,,,,fossil_06s.jpg,1.0,Green.png,3.0,103,,,,,,,,,,,,,1.0,1.0,0.0,17.0,17.0,17.0,1.0,1.24,,,,,,,,,,,,,,,
,,,,,,,,,,,,,,,,,,,,,,,,,,,,,,,,,,,,,,,,,,,,rooster_03s.jpg,0.0,Blue.png,4.0,103,,,,,,,,,,,,,1.0,0.0,0.0,18.0,18.0,18.0,1.0,1.557,,,,,,,,,,,,,,,
,,,,,,,,,,,,,,,,,,,,,,,,,,,,,,,,,,,,,,,,,,,,rooster_03s.jpg,1.0,Purple.png,4.0,103,,,,,,,,,,,,,1.0,1.0,0.0,19.0,19.0,19.0,1.0,0.634,,,,,,,,,,,,,,,
,,,,,,,,,,,,,,,,,,,,,,,,,,,,,,,,,,,,,,,,,,,,squirrel_02s.jpg,0.0,Red.png,4.0,103,,,,,,,,,,,,,0.0,1.0,0.0,20.0,20.0,20.0,1.0,0.765,,,,,,,,,,,,,,,
,,,,,,,,,,,,,,,,,,,,,,,,,,,,,,,,,,,,,,,,,,,,plunger_08s.jpg,0.0,Orange.png,4.0,103,,,,,,,,,,,,,1.0,0.0,0.0,21.0,21.0,21.0,1.0,1.004,,,,,,,,,,,,,,,
,,,,,,,,,,,,,,,,,,,,,,,,,,,,,,,,,,,,,,,,,,,,rooster_03s.jpg,1.0,Yellow.png,4.0,103,,,,,,,,,,,,,1.0,1.0,0.0,22.0,22.0,22.0,1.0,1.016,,,,,,,,,,,,,,,
,,,,,,,,,,,,,,,,,,,,,,,,,,,,,,,,,,,,,,,,,,,,pencil_sharpener_09n.jpg,0.0,Green.png,4.0,103,,,,,,,,,,,,,0.0,1.0,0.0,23.0,23.0,23.0,1.0,0.799,,,,,,,,,,,,,,,
,,,,,,,,,,,,,,,,,,,,,,,,,,,,,,,,,,,,,,,,,,,,latch_15s.jpg,0.0,Blue.png,5.0,103,,,,,,,,,,,,,0.0,1.0,0.0,24.0,24.0,24.0,1.0,0.766,,,,,,,,,,,,,,,
,,,,,,,,,,,,,,,,,,,,,,,,,,,,,,,,,,,,,,,,,,,,pipe1_10s.jpg,0.0,Purple.png,5.0,103,,,,,,,,,,,,,0.0,1.0,0.0,25.0,25.0,25.0,1.0,0.718,,,,,,,,,,,,,,,
,,,,,,,,,,,,,,,,,,,,,,,,,,,,,,,,,,,,,,,,,,,,padlock_07s.jpg,0.0,Red.png,5.0,103,,,,,,,,,,,,,0.0,1.0,0.0,26.0,26.0,26.0,1.0,1.185,,,,,,,,,,,,,,,
,,,,,,,,,,,,,,,,,,,,,,,,,,,,,,,,,,,,,,,,,,,,padlock_07s.jpg,1.0,Orange.png,5.0,103,,,,,,,,,,,,,1.0,1.0,0.0,27.0,27.0,27.0,1.0,1.55,,,,,,,,,,,,,,,
,,,,,,,,,,,,,,,,,,,,,,,,,,,,,,,,,,,,,,,,,,,,mosquito_12s.jpg,0.0,Yellow.png,5.0,103,,,,,,,,,,,,,0.0,1.0,0.0,28.0,28.0,28.0,1.0,0.83,,,,,,,,,,,,,,,
,,,,,,,,,,,,,,,,,,,,,,,,,,,,,,,,,,,,,,,,,,,,chalice_10s.jpg,0.0,Green.png,5.0,103,,,,,,,,,,,,,0.0,1.0,0.0,29.0,29.0,29.0,1.0,0.852,,,,,,,,,,,,,,,
,,,,,,,,,,,,,,,,,,,,,,,,,,,,,,,,,,,,,,,,,,,,turf_03s.jpg,0.0,Blue.png,6.0,103,,,,,,,,,,,,,0.0,1.0,0.0,30.0,30.0,30.0,1.0,1.094,,,,,,,,,,,,,,,
,,,,,,,,,,,,,,,,,,,,,,,,,,,,,,,,,,,,,,,,,,,,smoothie_09s.jpg,0.0,Purple.png,6.0,103,,,,,,,,,,,,,0.0,1.0,0.0,31.0,31.0,31.0,1.0,0.717,,,,,,,,,,,,,,,
,,,,,,,,,,,,,,,,,,,,,,,,,,,,,,,,,,,,,,,,,,,,comic_book_02s.jpg,0.0,Red.png,6.0,103,,,,,,,,,,,,,0.0,1.0,0.0,32.0,32.0,32.0,1.0,0.67,,,,,,,,,,,,,,,
,,,,,,,,,,,,,,,,,,,,,,,,,,,,,,,,,,,,,,,,,,,,stopwatch_04s.jpg,0.0,Orange.png,6.0,103,,,,,,,,,,,,,0.0,1.0,0.0,33.0,33.0,33.0,1.0,0.635,,,,,,,,,,,,,,,
,,,,,,,,,,,,,,,,,,,,,,,,,,,,,,,,,,,,,,,,,,,,turf_03s.jpg,1.0,Yellow.png,6.0,103,,,,,,,,,,,,,1.0,1.0,0.0,34.0,34.0,34.0,1.0,1.4,,,,,,,,,,,,,,,
,,,,,,,,,,,,,,,,,,,,,,,,,,,,,,,,,,,,,,,,,,,,turnstile_08s.jpg,0.0,Green.png,6.0,103,,,,,,,,,,,,,0.0,1.0,0.0,35.0,35.0,35.0,1.0,0.649,,,,,,,,,,,,,,,
,,,,,,,,,,,,,,,,,,,,,,,,,,,,,,,,,,,,,,,,,,,,,1.0,,,103,,,,,,,,,jelly_bean_06s.jpg,raft_09s.jpg,,,,,,,,,,,1.0,1.0,0.804,0.0,0.0,0.0,0.0,1.0,,,,,,,
,,,,,,,,,,,,,,,,,,,,,,,,,,,,,,,,,,,,,,,,,,,,,1.0,,,103,,,,,,,,,chalice_10s.jpg,comic_book_02s.jpg,,,,,,,,,,,1.0,1.0,0.63,0.0,1.0,1.0,1.0,1.0,,,,,,,
,,,,,,,,,,,,,,,,,,,,,,,,,,,,,,,,,,,,,,,,,,,,,0.0,,,103,,,,,,,,,lipstick_02s.jpg,panda_02s.jpg,,,,,,,,,,,1.0,0.0,0.341,0.0,2.0,2.0,2.0,1.0,,,,,,,
,,,,,,,,,,,,,,,,,,,,,,,,,,,,,,,,,,,,,,,,,,,,,1.0,,,103,,,,,,,,,briefcase_03s.jpg,emerald_02s.jpg,,,,,,,,,,,1.0,1.0,0.625,0.0,3.0,3.0,3.0,1.0,,,,,,,
,,,,,,,,,,,,,,,,,,,,,,,,,,,,,,,,,,,,,,,,,,,,,1.0,,,103,,,,,,,,,mosquito_12s.jpg,smoothie_09s.jpg,,,,,,,,,,,1.0,1.0,0.327,0.0,4.0,4.0,4.0,1.0,,,,,,,
,,,,,,,,,,,,,,,,,,,,,,,,,,,,,,,,,,,,,,,,,,,,,1.0,,,103,,,,,,,,,squirrel_02s.jpg,pencil_sharpener_09n.jpg,,,,,,,,,,,1.0,1.0,0.482,0.0,5.0,5.0,5.0,1.0,,,,,,,
,,,,,,,,,,,,,,,,,,,,,,,,,,,,,,,,,,,,,,,,,,,,,,,,103,,,,,,,,,,,,,,,,,,,,,,,,,,,,,0.0,8.0,8.0,8.0,1.0,newclockpresent_9_3.xlsx,newclock_compare_task_9_3.xlsx
