key_resp_3.keys,key_resp_3.rt,key_resp_4.keys,key_resp_4.rt,key_resp_5.keys,key_resp_5.rt,key_resp_6.keys,key_resp_6.rt,key_resp_7.keys,key_resp_7.rt,key_resp_8.keys,key_resp_8.rt,key_resp_9.keys,key_resp_9.rt,key_resp_10.keys,key_resp_10.rt,key_resp_11.keys,key_resp_11.rt,key_resp_12.keys,key_resp_12.rt,key_resp_13.keys,key_resp_13.rt,key_resp_14.keys,key_resp_14.rt,key_resp_15.keys,key_resp_15.rt,key_resp_16.keys,key_resp_16.rt,key_resp_17.keys,key_resp_17.rt,key_resp_18.keys,key_resp_18.rt,key_resp_19.keys,key_resp_19.rt,key_resp_20.keys,key_resp_20.rt,key_resp_21.keys,key_resp_21.corr,trials.thisRepN,trials.thisTrialN,trials.thisN,trials.thisIndex,trials.ran,pictures,answer,clock,segment,participant,key_resp_21.rt,key_resp_22.keys,key_resp_22.corr,key_resp_22.rt,trials_2.thisRepN,trials_2.thisTrialN,trials_2.thisN,trials_2.thisIndex,trials_2.ran,item_a,item_b,key_resp_23.keys,key_resp_23.rt,key_resp.keys,key_resp.corr,key_resp.rt,present_segment.thisRepN,present_segment.thisTrialN,present_segment.thisN,present_segment.thisIndex,present_segment.ran,key_resp_2.keys,key_resp_2.corr,key_resp_2.rt,compare_segment.thisRepN,compare_segment.thisTrialN,compare_segment.thisN,compare_segment.thisIndex,compare_segment.ran,clock_conditions.thisRepN,clock_conditions.thisTrialN,clock_conditions.thisN,clock_conditions.thisIndex,clock_conditions.ran,present,compare
space,28.9899,space,6.5763,0.0,3.2705,0.0,2.063,1.0,1.2138,0.0,1.3211,0.0,1.1794,0.0,1.0715,0.0,1.372,0.0,1.1432,1.0,0.8029,0.0,1.0119,0.0,1.3303,0.0,1.4334,space,6.7755,1.0,3.0526,0.0,1.5783,space,4.8656,,0.0,0.0,0.0,0.0,0.0,1.0,whipped_cream_02s.jpg,0.0,Blue.png,1.0,9,,,,,,,,,,,,,,,,,,,,,,,,,,,,,,,,,,,,
,,,,,,,,,,,,,,,,,,,,,,,,,,,,,,,,,,,,0.0,1.0,0.0,1.0,1.0,1.0,1.0,sheep_02s.jpg,0.0,Purple.png,1.0,9,1.4066,,,,,,,,,,,,,,,,,,,,,,,,,,,,,,,,,,,
,,,,,,,,,,,,,,,,,,,,,,,,,,,,,,,,,,,,0.0,1.0,0.0,2.0,2.0,2.0,1.0,sheep_02s.jpg,0.0,Red.png,1.0,9,0.8083,,,,,,,,,,,,,,,,,,,,,,,,,,,,,,,,,,,
,,,,,,,,,,,,,,,,,,,,,,,,,,,,,,,,,,,,0.0,1.0,0.0,3.0,3.0,3.0,1.0,sequin_02s.jpg,0.0,Orange.png,1.0,9,0.8928,,,,,,,,,,,,,,,,,,,,,,,,,,,,,,,,,,,
,,,,,,,,,,,,,,,,,,,,,,,,,,,,,,,,,,,,1.0,1.0,0.0,4.0,4.0,4.0,1.0,sheep_02s.jpg,1.0,Yellow.png,1.0,9,0.5819,,,,,,,,,,,,,,,,,,,,,,,,,,,,,,,,,,,
,,,,,,,,,,,,,,,,,,,,,,,,,,,,,,,,,,,,0.0,1.0,0.0,5.0,5.0,5.0,1.0,scoop_05s.jpg,0.0,Green.png,1.0,9,0.7356,,,,,,,,,,,,,,,,,,,,,,,,,,,,,,,,,,,
,,,,,,,,,,,,,,,,,,,,,,,,,,,,,,,,,,,,0.0,1.0,0.0,6.0,6.0,6.0,1.0,wagon_12s.jpg,0.0,Blue.png,2.0,9,1.0571,,,,,,,,,,,,,,,,,,,,,,,,,,,,,,,,,,,
,,,,,,,,,,,,,,,,,,,,,,,,,,,,,,,,,,,,0.0,1.0,0.0,7.0,7.0,7.0,1.0,scrabble_05s.jpg,0.0,Purple.png,2.0,9,0.5865,,,,,,,,,,,,,,,,,,,,,,,,,,,,,,,,,,,
,,,,,,,,,,,,,,,,,,,,,,,,,,,,,,,,,,,,1.0,1.0,0.0,8.0,8.0,8.0,1.0,wagon_12s.jpg,1.0,Red.png,2.0,9,0.6196,,,,,,,,,,,,,,,,,,,,,,,,,,,,,,,,,,,
,,,,,,,,,,,,,,,,,,,,,,,,,,,,,,,,,,,,1.0,1.0,0.0,9.0,9.0,9.0,1.0,scrabble_05s.jpg,1.0,Orange.png,2.0,9,0.5592,,,,,,,,,,,,,,,,,,,,,,,,,,,,,,,,,,,
,,,,,,,,,,,,,,,,,,,,,,,,,,,,,,,,,,,,0.0,1.0,0.0,10.0,10.0,10.0,1.0,weasel_08s.jpg,0.0,Yellow.png,2.0,9,0.593,,,,,,,,,,,,,,,,,,,,,,,,,,,,,,,,,,,
,,,,,,,,,,,,,,,,,,,,,,,,,,,,,,,,,,,,0.0,1.0,0.0,11.0,11.0,11.0,1.0,scooter_06s.jpg,0.0,Green.png,2.0,9,0.7856,,,,,,,,,,,,,,,,,,,,,,,,,,,,,,,,,,,
,,,,,,,,,,,,,,,,,,,,,,,,,,,,,,,,,,,,0.0,1.0,0.0,12.0,12.0,12.0,1.0,wetsuit_04s.jpg,0.0,Blue.png,3.0,9,0.7704,,,,,,,,,,,,,,,,,,,,,,,,,,,,,,,,,,,
,,,,,,,,,,,,,,,,,,,,,,,,,,,,,,,,,,,,0.0,1.0,0.0,13.0,13.0,13.0,1.0,wetsuit_04s.jpg,0.0,Purple.png,3.0,9,0.9064,,,,,,,,,,,,,,,,,,,,,,,,,,,,,,,,,,,
,,,,,,,,,,,,,,,,,,,,,,,,,,,,,,,,,,,,1.0,1.0,0.0,14.0,14.0,14.0,1.0,wetsuit_04s.jpg,1.0,Red.png,3.0,9,0.4934,,,,,,,,,,,,,,,,,,,,,,,,,,,,,,,,,,,
,,,,,,,,,,,,,,,,,,,,,,,,,,,,,,,,,,,,0.0,1.0,0.0,15.0,15.0,15.0,1.0,water_fountain_01b.jpg,0.0,Orange.png,3.0,9,0.8972,,,,,,,,,,,,,,,,,,,,,,,,,,,,,,,,,,,
,,,,,,,,,,,,,,,,,,,,,,,,,,,,,,,,,,,,0.0,1.0,0.0,16.0,16.0,16.0,1.0,waffle_iron_11s.jpg,0.0,Yellow.png,3.0,9,0.8005,,,,,,,,,,,,,,,,,,,,,,,,,,,,,,,,,,,
,,,,,,,,,,,,,,,,,,,,,,,,,,,,,,,,,,,,0.0,1.0,0.0,17.0,17.0,17.0,1.0,wing_08s.jpg,0.0,Green.png,3.0,9,1.167,,,,,,,,,,,,,,,,,,,,,,,,,,,,,,,,,,,
,,,,,,,,,,,,,,,,,,,,,,,,,,,,,,,,,,,,0.0,1.0,0.0,18.0,18.0,18.0,1.0,shield_02s.jpg,0.0,Blue.png,4.0,9,0.628,,,,,,,,,,,,,,,,,,,,,,,,,,,,,,,,,,,
,,,,,,,,,,,,,,,,,,,,,,,,,,,,,,,,,,,,0.0,1.0,0.0,19.0,19.0,19.0,1.0,shovel_09s.jpg,0.0,Purple.png,4.0,9,0.8192,,,,,,,,,,,,,,,,,,,,,,,,,,,,,,,,,,,
,,,,,,,,,,,,,,,,,,,,,,,,,,,,,,,,,,,,0.0,1.0,0.0,20.0,20.0,20.0,1.0,watch_09s.jpg,0.0,Red.png,4.0,9,0.5532,,,,,,,,,,,,,,,,,,,,,,,,,,,,,,,,,,,
,,,,,,,,,,,,,,,,,,,,,,,,,,,,,,,,,,,,1.0,1.0,0.0,21.0,21.0,21.0,1.0,shovel_09s.jpg,1.0,Orange.png,4.0,9,0.5619,,,,,,,,,,,,,,,,,,,,,,,,,,,,,,,,,,,
,,,,,,,,,,,,,,,,,,,,,,,,,,,,,,,,,,,,0.0,1.0,0.0,22.0,22.0,22.0,1.0,shovel_09s.jpg,0.0,Yellow.png,4.0,9,0.9297,,,,,,,,,,,,,,,,,,,,,,,,,,,,,,,,,,,
,,,,,,,,,,,,,,,,,,,,,,,,,,,,,,,,,,,,0.0,1.0,0.0,23.0,23.0,23.0,1.0,watering_can_14s.jpg,0.0,Green.png,4.0,9,0.7953,,,,,,,,,,,,,,,,,,,,,,,,,,,,,,,,,,,
,,,,,,,,,,,,,,,,,,,,,,,,,,,,,,,,,,,,0.0,1.0,0.0,24.0,24.0,24.0,1.0,wasp_13n.jpg,0.0,Blue.png,5.0,9,0.6624,,,,,,,,,,,,,,,,,,,,,,,,,,,,,,,,,,,
,,,,,,,,,,,,,,,,,,,,,,,,,,,,,,,,,,,,0.0,1.0,0.0,25.0,25.0,25.0,1.0,shoelace_13s.jpg,0.0,Purple.png,5.0,9,0.6329,,,,,,,,,,,,,,,,,,,,,,,,,,,,,,,,,,,
,,,,,,,,,,,,,,,,,,,,,,,,,,,,,,,,,,,,0.0,1.0,0.0,26.0,26.0,26.0,1.0,scarf_16s.jpg,0.0,Red.png,5.0,9,0.6424,,,,,,,,,,,,,,,,,,,,,,,,,,,,,,,,,,,
,,,,,,,,,,,,,,,,,,,,,,,,,,,,,,,,,,,,0.0,1.0,0.0,27.0,27.0,27.0,1.0,screwdriver_07s.jpg,0.0,Orange.png,5.0,9,0.6513,,,,,,,,,,,,,,,,,,,,,,,,,,,,,,,,,,,
,,,,,,,,,,,,,,,,,,,,,,,,,,,,,,,,,,,,0.0,1.0,0.0,28.0,28.0,28.0,1.0,drink_05s.jpg,0.0,Yellow.png,5.0,9,0.5248,,,,,,,,,,,,,,,,,,,,,,,,,,,,,,,,,,,
,,,,,,,,,,,,,,,,,,,,,,,,,,,,,,,,,,,,0.0,0.0,0.0,29.0,29.0,29.0,1.0,screwdriver_07s.jpg,1.0,Green.png,5.0,9,0.3922,,,,,,,,,,,,,,,,,,,,,,,,,,,,,,,,,,,
,,,,,,,,,,,,,,,,,,,,,,,,,,,,,,,,,,,,0.0,1.0,0.0,30.0,30.0,30.0,1.0,seaweed_07s.jpg,0.0,Blue.png,6.0,9,1.6304,,,,,,,,,,,,,,,,,,,,,,,,,,,,,,,,,,,
,,,,,,,,,,,,,,,,,,,,,,,,,,,,,,,,,,,,0.0,1.0,0.0,31.0,31.0,31.0,1.0,saxophone_04s.jpg,0.0,Purple.png,6.0,9,0.7091,,,,,,,,,,,,,,,,,,,,,,,,,,,,,,,,,,,
,,,,,,,,,,,,,,,,,,,,,,,,,,,,,,,,,,,,0.0,1.0,0.0,32.0,32.0,32.0,1.0,saxophone_04s.jpg,0.0,Red.png,6.0,9,0.721,,,,,,,,,,,,,,,,,,,,,,,,,,,,,,,,,,,
,,,,,,,,,,,,,,,,,,,,,,,,,,,,,,,,,,,,0.0,1.0,0.0,33.0,33.0,33.0,1.0,scorpion_01b.jpg,0.0,Orange.png,6.0,9,0.8032,,,,,,,,,,,,,,,,,,,,,,,,,,,,,,,,,,,
,,,,,,,,,,,,,,,,,,,,,,,,,,,,,,,,,,,,1.0,1.0,0.0,34.0,34.0,34.0,1.0,saxophone_04s.jpg,1.0,Yellow.png,6.0,9,0.8051,,,,,,,,,,,,,,,,,,,,,,,,,,,,,,,,,,,
,,,,,,,,,,,,,,,,,,,,,,,,,,,,,,,,,,,,0.0,1.0,0.0,35.0,35.0,35.0,1.0,saxophone_04s.jpg,0.0,Green.png,6.0,9,0.7086,,,,,,,,,,,,,,,,,,,,,,,,,,,,,,,,,,,
,,,,,,,,,,,,,,,,,,,,,,,,,,,,,,,,,,,,,,,,,,,,1.0,,,9,,1.0,1.0,1.5166,0.0,0.0,0.0,0.0,1.0,water_fountain_01b.jpg,shield_02s.jpg,,,,,,,,,,,,,,,,,,,,,,,,,
,,,,,,,,,,,,,,,,,,,,,,,,,,,,,,,,,,,,,,,,,,,,0.0,,,9,,0.0,1.0,1.5083,0.0,1.0,1.0,1.0,1.0,watch_09s.jpg,wing_08s.jpg,,,,,,,,,,,,,,,,,,,,,,,,,
,,,,,,,,,,,,,,,,,,,,,,,,,,,,,,,,,,,,,,,,,,,,1.0,,,9,,0.0,0.0,1.3665,0.0,2.0,2.0,2.0,1.0,watering_can_14s.jpg,scarf_16s.jpg,,,,,,,,,,,,,,,,,,,,,,,,,
,,,,,,,,,,,,,,,,,,,,,,,,,,,,,,,,,,,,,,,,,,,,1.0,,,9,,1.0,1.0,0.8265,0.0,3.0,3.0,3.0,1.0,whipped_cream_02s.jpg,sequin_02s.jpg,,,,,,,,,,,,,,,,,,,,,,,,,
,,,,,,,,,,,,,,,,,,,,,,,,,,,,,,,,,,,,,,,,,,,,0.0,,,9,,1.0,0.0,1.4128,0.0,4.0,4.0,4.0,1.0,drink_05s.jpg,shoelace_13s.jpg,,,,,,,,,,,,,,,,,,,,,,,,,
,,,,,,,,,,,,,,,,,,,,,,,,,,,,,,,,,,,,,,,,,,,,1.0,,,9,,1.0,1.0,1.3068,0.0,5.0,5.0,5.0,1.0,seaweed_07s.jpg,scorpion_01b.jpg,,,,,,,,,,,,,,,,,,,,,,,,,
,,,,,,,,,,,,,,,,,,,,,,,,,,,,,,,,,,,,,,,,,,,mirror_12s.jpg,0.0,Blue.png,1.0,9,,,,,,,,,,,,space,22.5264,0.0,1.0,0.7472,0.0,0.0,0.0,0.0,1.0,,,,,,,,,,,,,,,
,,,,,,,,,,,,,,,,,,,,,,,,,,,,,,,,,,,,,,,,,,,polaroid_05s.jpg,0.0,Purple.png,1.0,9,,,,,,,,,,,,,,0.0,1.0,0.5855,0.0,1.0,1.0,1.0,1.0,,,,,,,,,,,,,,,
,,,,,,,,,,,,,,,,,,,,,,,,,,,,,,,,,,,,,,,,,,,polaroid_05s.jpg,0.0,Red.png,1.0,9,,,,,,,,,,,,,,0.0,1.0,0.9329,0.0,2.0,2.0,2.0,1.0,,,,,,,,,,,,,,,
,,,,,,,,,,,,,,,,,,,,,,,,,,,,,,,,,,,,,,,,,,,slingshot_07s.jpg,0.0,Orange.png,1.0,9,,,,,,,,,,,,,,0.0,1.0,0.5398,0.0,3.0,3.0,3.0,1.0,,,,,,,,,,,,,,,
,,,,,,,,,,,,,,,,,,,,,,,,,,,,,,,,,,,,,,,,,,,polaroid_05s.jpg,1.0,Yellow.png,1.0,9,,,,,,,,,,,,,,1.0,1.0,0.7807,0.0,4.0,4.0,4.0,1.0,,,,,,,,,,,,,,,
,,,,,,,,,,,,,,,,,,,,,,,,,,,,,,,,,,,,,,,,,,,kettle_08s.jpg,0.0,Green.png,1.0,9,,,,,,,,,,,,,,0.0,1.0,0.5562,0.0,5.0,5.0,5.0,1.0,,,,,,,,,,,,,,,
,,,,,,,,,,,,,,,,,,,,,,,,,,,,,,,,,,,,,,,,,,,crystal_ball_12s.jpg,0.0,Blue.png,2.0,9,,,,,,,,,,,,,,0.0,1.0,0.5193,0.0,6.0,6.0,6.0,1.0,,,,,,,,,,,,,,,
,,,,,,,,,,,,,,,,,,,,,,,,,,,,,,,,,,,,,,,,,,,iron_13s.jpg,0.0,Purple.png,2.0,9,,,,,,,,,,,,,,0.0,1.0,0.5325,0.0,7.0,7.0,7.0,1.0,,,,,,,,,,,,,,,
,,,,,,,,,,,,,,,,,,,,,,,,,,,,,,,,,,,,,,,,,,,saddle_06s.jpg,0.0,Red.png,2.0,9,,,,,,,,,,,,,,0.0,1.0,0.5327,0.0,8.0,8.0,8.0,1.0,,,,,,,,,,,,,,,
,,,,,,,,,,,,,,,,,,,,,,,,,,,,,,,,,,,,,,,,,,,mango_09s.jpg,0.0,Orange.png,2.0,9,,,,,,,,,,,,,,0.0,1.0,0.5775,0.0,9.0,9.0,9.0,1.0,,,,,,,,,,,,,,,
,,,,,,,,,,,,,,,,,,,,,,,,,,,,,,,,,,,,,,,,,,,ostrich_06s.jpg,0.0,Yellow.png,2.0,9,,,,,,,,,,,,,,0.0,1.0,0.6087,0.0,10.0,10.0,10.0,1.0,,,,,,,,,,,,,,,
,,,,,,,,,,,,,,,,,,,,,,,,,,,,,,,,,,,,,,,,,,,iron_13s.jpg,0.0,Green.png,2.0,9,,,,,,,,,,,,,,0.0,1.0,0.5806,0.0,11.0,11.0,11.0,1.0,,,,,,,,,,,,,,,
,,,,,,,,,,,,,,,,,,,,,,,,,,,,,,,,,,,,,,,,,,,stethoscope_01b.jpg,0.0,Blue.png,3.0,9,,,,,,,,,,,,,,0.0,1.0,0.6258,0.0,12.0,12.0,12.0,1.0,,,,,,,,,,,,,,,
,,,,,,,,,,,,,,,,,,,,,,,,,,,,,,,,,,,,,,,,,,,ruby_15s.jpg,0.0,Purple.png,3.0,9,,,,,,,,,,,,,,0.0,1.0,0.7287,0.0,13.0,13.0,13.0,1.0,,,,,,,,,,,,,,,
,,,,,,,,,,,,,,,,,,,,,,,,,,,,,,,,,,,,,,,,,,,mango_09s.jpg,0.0,Red.png,3.0,9,,,,,,,,,,,,,,0.0,1.0,0.4311,0.0,14.0,14.0,14.0,1.0,,,,,,,,,,,,,,,
,,,,,,,,,,,,,,,,,,,,,,,,,,,,,,,,,,,,,,,,,,,target_11s.jpg,0.0,Orange.png,3.0,9,,,,,,,,,,,,,,0.0,1.0,0.5056,0.0,15.0,15.0,15.0,1.0,,,,,,,,,,,,,,,
,,,,,,,,,,,,,,,,,,,,,,,,,,,,,,,,,,,,,,,,,,,mango_09s.jpg,1.0,Yellow.png,3.0,9,,,,,,,,,,,,,,1.0,1.0,0.5231,0.0,16.0,16.0,16.0,1.0,,,,,,,,,,,,,,,
,,,,,,,,,,,,,,,,,,,,,,,,,,,,,,,,,,,,,,,,,,,compass_10n.jpg,0.0,Green.png,3.0,9,,,,,,,,,,,,,,0.0,1.0,0.5284,0.0,17.0,17.0,17.0,1.0,,,,,,,,,,,,,,,
,,,,,,,,,,,,,,,,,,,,,,,,,,,,,,,,,,,,,,,,,,,meatball_13s.jpg,0.0,Blue.png,4.0,9,,,,,,,,,,,,,,0.0,1.0,0.6291,0.0,18.0,18.0,18.0,1.0,,,,,,,,,,,,,,,
,,,,,,,,,,,,,,,,,,,,,,,,,,,,,,,,,,,,,,,,,,,stapler_01b.jpg,0.0,Purple.png,4.0,9,,,,,,,,,,,,,,0.0,1.0,0.6405,0.0,19.0,19.0,19.0,1.0,,,,,,,,,,,,,,,
,,,,,,,,,,,,,,,,,,,,,,,,,,,,,,,,,,,,,,,,,,,meatball_13s.jpg,1.0,Red.png,4.0,9,,,,,,,,,,,,,,1.0,1.0,0.9783,0.0,20.0,20.0,20.0,1.0,,,,,,,,,,,,,,,
,,,,,,,,,,,,,,,,,,,,,,,,,,,,,,,,,,,,,,,,,,,pump_11s.jpg,0.0,Orange.png,4.0,9,,,,,,,,,,,,,,0.0,1.0,0.6826,0.0,21.0,21.0,21.0,1.0,,,,,,,,,,,,,,,
,,,,,,,,,,,,,,,,,,,,,,,,,,,,,,,,,,,,,,,,,,,coral_08s.jpg,0.0,Yellow.png,4.0,9,,,,,,,,,,,,,,0.0,1.0,0.7375,0.0,22.0,22.0,22.0,1.0,,,,,,,,,,,,,,,
,,,,,,,,,,,,,,,,,,,,,,,,,,,,,,,,,,,,,,,,,,,meatball_13s.jpg,0.0,Green.png,4.0,9,,,,,,,,,,,,,,0.0,1.0,0.7863,0.0,23.0,23.0,23.0,1.0,,,,,,,,,,,,,,,
,,,,,,,,,,,,,,,,,,,,,,,,,,,,,,,,,,,,,,,,,,,peach_04s.jpg,0.0,Blue.png,5.0,9,,,,,,,,,,,,,,0.0,1.0,0.7877,0.0,24.0,24.0,24.0,1.0,,,,,,,,,,,,,,,
,,,,,,,,,,,,,,,,,,,,,,,,,,,,,,,,,,,,,,,,,,,meatball_13s.jpg,1.0,Purple.png,5.0,9,,,,,,,,,,,,,,1.0,1.0,0.7086,0.0,25.0,25.0,25.0,1.0,,,,,,,,,,,,,,,
,,,,,,,,,,,,,,,,,,,,,,,,,,,,,,,,,,,,,,,,,,,pie_08s.jpg,0.0,Red.png,5.0,9,,,,,,,,,,,,,,0.0,1.0,0.8186,0.0,26.0,26.0,26.0,1.0,,,,,,,,,,,,,,,
,,,,,,,,,,,,,,,,,,,,,,,,,,,,,,,,,,,,,,,,,,,rollerskate_03s.jpg,0.0,Orange.png,5.0,9,,,,,,,,,,,,,,0.0,1.0,0.5699,0.0,27.0,27.0,27.0,1.0,,,,,,,,,,,,,,,
,,,,,,,,,,,,,,,,,,,,,,,,,,,,,,,,,,,,,,,,,,,trampoline_13s.jpg,0.0,Yellow.png,5.0,9,,,,,,,,,,,,,,0.0,1.0,0.5444,0.0,28.0,28.0,28.0,1.0,,,,,,,,,,,,,,,
,,,,,,,,,,,,,,,,,,,,,,,,,,,,,,,,,,,,,,,,,,,undershirt_02s.jpg,0.0,Green.png,5.0,9,,,,,,,,,,,,,,0.0,1.0,0.5754,0.0,29.0,29.0,29.0,1.0,,,,,,,,,,,,,,,
,,,,,,,,,,,,,,,,,,,,,,,,,,,,,,,,,,,,,,,,,,,thread_08s.jpg,0.0,Blue.png,6.0,9,,,,,,,,,,,,,,0.0,1.0,0.7293,0.0,30.0,30.0,30.0,1.0,,,,,,,,,,,,,,,
,,,,,,,,,,,,,,,,,,,,,,,,,,,,,,,,,,,,,,,,,,,megaphone_03s.jpg,0.0,Purple.png,6.0,9,,,,,,,,,,,,,,0.0,1.0,0.6702,0.0,31.0,31.0,31.0,1.0,,,,,,,,,,,,,,,
,,,,,,,,,,,,,,,,,,,,,,,,,,,,,,,,,,,,,,,,,,,plaster_cast_13s.jpg,0.0,Red.png,6.0,9,,,,,,,,,,,,,,0.0,1.0,0.6012,0.0,32.0,32.0,32.0,1.0,,,,,,,,,,,,,,,
,,,,,,,,,,,,,,,,,,,,,,,,,,,,,,,,,,,,,,,,,,,diving_board_07s.jpg,0.0,Orange.png,6.0,9,,,,,,,,,,,,,,0.0,1.0,0.4749,0.0,33.0,33.0,33.0,1.0,,,,,,,,,,,,,,,
,,,,,,,,,,,,,,,,,,,,,,,,,,,,,,,,,,,,,,,,,,,kayak_08s.jpg,0.0,Yellow.png,6.0,9,,,,,,,,,,,,,,0.0,1.0,0.6904,0.0,34.0,34.0,34.0,1.0,,,,,,,,,,,,,,,
,,,,,,,,,,,,,,,,,,,,,,,,,,,,,,,,,,,,,,,,,,,diving_board_07s.jpg,1.0,Green.png,6.0,9,,,,,,,,,,,,,,1.0,1.0,0.6936,0.0,35.0,35.0,35.0,1.0,,,,,,,,,,,,,,,
,,,,,,,,,,,,,,,,,,,,,,,,,,,,,,,,,,,,,,,,,,,,1.0,,,9,,,,,,,,,,stapler_01b.jpg,coral_08s.jpg,,,,,,,,,,,0.0,0.0,1.5886,0.0,0.0,0.0,0.0,1.0,,,,,,,
,,,,,,,,,,,,,,,,,,,,,,,,,,,,,,,,,,,,,,,,,,,,1.0,,,9,,,,,,,,,,slingshot_07s.jpg,crystal_ball_12s.jpg,,,,,,,,,,,1.0,1.0,1.9714,0.0,1.0,1.0,1.0,1.0,,,,,,,
,,,,,,,,,,,,,,,,,,,,,,,,,,,,,,,,,,,,,,,,,,,,0.0,,,9,,,,,,,,,,saddle_06s.jpg,kettle_08s.jpg,,,,,,,,,,,0.0,1.0,2.1691,0.0,2.0,2.0,2.0,1.0,,,,,,,
,,,,,,,,,,,,,,,,,,,,,,,,,,,,,,,,,,,,,,,,,,,,1.0,,,9,,,,,,,,,,pie_08s.jpg,undershirt_02s.jpg,,,,,,,,,,,1.0,1.0,2.2426,0.0,3.0,3.0,3.0,1.0,,,,,,,
,,,,,,,,,,,,,,,,,,,,,,,,,,,,,,,,,,,,,,,,,,,,1.0,,,9,,,,,,,,,,stethoscope_01b.jpg,target_11s.jpg,,,,,,,,,,,1.0,1.0,1.911,0.0,4.0,4.0,4.0,1.0,,,,,,,
,,,,,,,,,,,,,,,,,,,,,,,,,,,,,,,,,,,,,,,,,,,,1.0,,,9,,,,,,,,,,ostrich_06s.jpg,ruby_15s.jpg,,,,,,,,,,,1.0,1.0,2.4183,0.0,5.0,5.0,5.0,1.0,,,,,,,
,,,,,,,,,,,,,,,,,,,,,,,,,,,,,,,,,,,,,,,,,,,,,,,9,,,,,,,,,,,,,,,,,,,,,,,,,,,,,,0.0,0.0,0.0,0.0,1.0,new2backpresent_1_4.xlsx,new2back_compare_task_1_4.xlsx
,,,,,,,,,,,,,,,,,,,,,,,,,,,,,,,,,,,,,,,,,,,jetski_10s.jpg,0.0,Blue.png,1.0,9,,,,,,,,,,,,,,0.0,1.0,0.7168,0.0,0.0,0.0,0.0,1.0,,,,,,,,,,,,,,,
,,,,,,,,,,,,,,,,,,,,,,,,,,,,,,,,,,,,,,,,,,,tripod_01b.jpg,0.0,Purple.png,1.0,9,,,,,,,,,,,,,,0.0,1.0,0.5185,0.0,1.0,1.0,1.0,1.0,,,,,,,,,,,,,,,
,,,,,,,,,,,,,,,,,,,,,,,,,,,,,,,,,,,,,,,,,,,lab_coat_11s.jpg,0.0,Red.png,1.0,9,,,,,,,,,,,,,,0.0,1.0,0.7313,0.0,2.0,2.0,2.0,1.0,,,,,,,,,,,,,,,
,,,,,,,,,,,,,,,,,,,,,,,,,,,,,,,,,,,,,,,,,,,foam_03s.jpg,0.0,Orange.png,1.0,9,,,,,,,,,,,,,,0.0,1.0,1.0027,0.0,3.0,3.0,3.0,1.0,,,,,,,,,,,,,,,
,,,,,,,,,,,,,,,,,,,,,,,,,,,,,,,,,,,,,,,,,,,crate_05s.jpg,0.0,Yellow.png,1.0,9,,,,,,,,,,,,,,0.0,1.0,0.564,0.0,4.0,4.0,4.0,1.0,,,,,,,,,,,,,,,
,,,,,,,,,,,,,,,,,,,,,,,,,,,,,,,,,,,,,,,,,,,margarita_03s.jpg,0.0,Green.png,1.0,9,,,,,,,,,,,,,,0.0,1.0,0.6292,0.0,5.0,5.0,5.0,1.0,,,,,,,,,,,,,,,
,,,,,,,,,,,,,,,,,,,,,,,,,,,,,,,,,,,,,,,,,,,joystick_01b.jpg,0.0,Blue.png,2.0,9,,,,,,,,,,,,,,0.0,1.0,0.6647,0.0,6.0,6.0,6.0,1.0,,,,,,,,,,,,,,,
,,,,,,,,,,,,,,,,,,,,,,,,,,,,,,,,,,,,,,,,,,,giraffe_11s.jpg,0.0,Purple.png,2.0,9,,,,,,,,,,,,,,0.0,1.0,0.6533,0.0,7.0,7.0,7.0,1.0,,,,,,,,,,,,,,,
,,,,,,,,,,,,,,,,,,,,,,,,,,,,,,,,,,,,,,,,,,,quilt_03s.jpg,0.0,Red.png,2.0,9,,,,,,,,,,,,,,0.0,1.0,0.5487,0.0,8.0,8.0,8.0,1.0,,,,,,,,,,,,,,,
,,,,,,,,,,,,,,,,,,,,,,,,,,,,,,,,,,,,,,,,,,,giraffe_11s.jpg,1.0,Orange.png,2.0,9,,,,,,,,,,,,,,1.0,1.0,0.7474,0.0,9.0,9.0,9.0,1.0,,,,,,,,,,,,,,,
,,,,,,,,,,,,,,,,,,,,,,,,,,,,,,,,,,,,,,,,,,,pincushion_10s.jpg,0.0,Yellow.png,2.0,9,,,,,,,,,,,,,,0.0,1.0,0.5916,0.0,10.0,10.0,10.0,1.0,,,,,,,,,,,,,,,
,,,,,,,,,,,,,,,,,,,,,,,,,,,,,,,,,,,,,,,,,,,giraffe_11s.jpg,1.0,Green.png,2.0,9,,,,,,,,,,,,,,1.0,1.0,0.911,0.0,11.0,11.0,11.0,1.0,,,,,,,,,,,,,,,
,,,,,,,,,,,,,,,,,,,,,,,,,,,,,,,,,,,,,,,,,,,pincushion_10s.jpg,1.0,Blue.png,3.0,9,,,,,,,,,,,,,,1.0,1.0,1.0229,0.0,12.0,12.0,12.0,1.0,,,,,,,,,,,,,,,
,,,,,,,,,,,,,,,,,,,,,,,,,,,,,,,,,,,,,,,,,,,giraffe_11s.jpg,1.0,Purple.png,3.0,9,,,,,,,,,,,,,,1.0,1.0,0.8745,0.0,13.0,13.0,13.0,1.0,,,,,,,,,,,,,,,
,,,,,,,,,,,,,,,,,,,,,,,,,,,,,,,,,,,,,,,,,,,rolling_pin_02s.jpg,0.0,Red.png,3.0,9,,,,,,,,,,,,,,0.0,1.0,0.5828,0.0,14.0,14.0,14.0,1.0,,,,,,,,,,,,,,,
,,,,,,,,,,,,,,,,,,,,,,,,,,,,,,,,,,,,,,,,,,,ticktacktoe_08s.jpg,0.0,Orange.png,3.0,9,,,,,,,,,,,,,,0.0,1.0,0.6629,0.0,15.0,15.0,15.0,1.0,,,,,,,,,,,,,,,
,,,,,,,,,,,,,,,,,,,,,,,,,,,,,,,,,,,,,,,,,,,giraffe_11s.jpg,0.0,Yellow.png,3.0,9,,,,,,,,,,,,,,0.0,1.0,0.6378,0.0,16.0,16.0,16.0,1.0,,,,,,,,,,,,,,,
,,,,,,,,,,,,,,,,,,,,,,,,,,,,,,,,,,,,,,,,,,,ticktacktoe_08s.jpg,1.0,Green.png,3.0,9,,,,,,,,,,,,,,1.0,1.0,0.9895,0.0,17.0,17.0,17.0,1.0,,,,,,,,,,,,,,,
,,,,,,,,,,,,,,,,,,,,,,,,,,,,,,,,,,,,,,,,,,,typewriter_11s.jpg,0.0,Blue.png,4.0,9,,,,,,,,,,,,,,0.0,1.0,0.6486,0.0,18.0,18.0,18.0,1.0,,,,,,,,,,,,,,,
,,,,,,,,,,,,,,,,,,,,,,,,,,,,,,,,,,,,,,,,,,,toothpaste_12s.jpg,0.0,Purple.png,4.0,9,,,,,,,,,,,,,,0.0,1.0,0.5309,0.0,19.0,19.0,19.0,1.0,,,,,,,,,,,,,,,
,,,,,,,,,,,,,,,,,,,,,,,,,,,,,,,,,,,,,,,,,,,hummingbird_05s.jpg,0.0,Red.png,4.0,9,,,,,,,,,,,,,,0.0,1.0,0.8362,0.0,20.0,20.0,20.0,1.0,,,,,,,,,,,,,,,
,,,,,,,,,,,,,,,,,,,,,,,,,,,,,,,,,,,,,,,,,,,toothpaste_12s.jpg,1.0,Orange.png,4.0,9,,,,,,,,,,,,,,1.0,1.0,0.9277,0.0,21.0,21.0,21.0,1.0,,,,,,,,,,,,,,,
,,,,,,,,,,,,,,,,,,,,,,,,,,,,,,,,,,,,,,,,,,,toothpaste_12s.jpg,0.0,Yellow.png,4.0,9,,,,,,,,,,,,,,0.0,1.0,0.9024,0.0,22.0,22.0,22.0,1.0,,,,,,,,,,,,,,,
,,,,,,,,,,,,,,,,,,,,,,,,,,,,,,,,,,,,,,,,,,,treadmill_06s.jpg,0.0,Green.png,4.0,9,,,,,,,,,,,,,,0.0,1.0,0.8543,0.0,23.0,23.0,23.0,1.0,,,,,,,,,,,,,,,
,,,,,,,,,,,,,,,,,,,,,,,,,,,,,,,,,,,,,,,,,,,typewriter_11s.jpg,0.0,Blue.png,5.0,9,,,,,,,,,,,,,,0.0,1.0,0.6936,0.0,24.0,24.0,24.0,1.0,,,,,,,,,,,,,,,
,,,,,,,,,,,,,,,,,,,,,,,,,,,,,,,,,,,,,,,,,,,penguin_16s.jpg,0.0,Purple.png,5.0,9,,,,,,,,,,,,,,0.0,1.0,0.5392,0.0,25.0,25.0,25.0,1.0,,,,,,,,,,,,,,,
,,,,,,,,,,,,,,,,,,,,,,,,,,,,,,,,,,,,,,,,,,,olive_05s.jpg,0.0,Red.png,5.0,9,,,,,,,,,,,,,,0.0,1.0,0.4951,0.0,26.0,26.0,26.0,1.0,,,,,,,,,,,,,,,
,,,,,,,,,,,,,,,,,,,,,,,,,,,,,,,,,,,,,,,,,,,penguin_16s.jpg,1.0,Orange.png,5.0,9,,,,,,,,,,,,,,1.0,1.0,0.5579,0.0,27.0,27.0,27.0,1.0,,,,,,,,,,,,,,,
,,,,,,,,,,,,,,,,,,,,,,,,,,,,,,,,,,,,,,,,,,,penguin_16s.jpg,0.0,Yellow.png,5.0,9,,,,,,,,,,,,,,0.0,1.0,0.7948,0.0,28.0,28.0,28.0,1.0,,,,,,,,,,,,,,,
,,,,,,,,,,,,,,,,,,,,,,,,,,,,,,,,,,,,,,,,,,,tab_09s.jpg,0.0,Green.png,5.0,9,,,,,,,,,,,,,,0.0,1.0,0.6182,0.0,29.0,29.0,29.0,1.0,,,,,,,,,,,,,,,
,,,,,,,,,,,,,,,,,,,,,,,,,,,,,,,,,,,,,,,,,,,frame_06s.jpg,0.0,Blue.png,6.0,9,,,,,,,,,,,,,,0.0,1.0,0.5953,0.0,30.0,30.0,30.0,1.0,,,,,,,,,,,,,,,
,,,,,,,,,,,,,,,,,,,,,,,,,,,,,,,,,,,,,,,,,,,mop_08s.jpg,0.0,Purple.png,6.0,9,,,,,,,,,,,,,,0.0,1.0,0.5346,0.0,31.0,31.0,31.0,1.0,,,,,,,,,,,,,,,
,,,,,,,,,,,,,,,,,,,,,,,,,,,,,,,,,,,,,,,,,,,memory_stick_11s.jpg,0.0,Red.png,6.0,9,,,,,,,,,,,,,,0.0,1.0,0.6157,0.0,32.0,32.0,32.0,1.0,,,,,,,,,,,,,,,
,,,,,,,,,,,,,,,,,,,,,,,,,,,,,,,,,,,,,,,,,,,olive_05s.jpg,0.0,Orange.png,6.0,9,,,,,,,,,,,,,,0.0,1.0,0.5463,0.0,33.0,33.0,33.0,1.0,,,,,,,,,,,,,,,
,,,,,,,,,,,,,,,,,,,,,,,,,,,,,,,,,,,,,,,,,,,ravioli_08s.jpg,0.0,Yellow.png,6.0,9,,,,,,,,,,,,,,0.0,1.0,0.6752,0.0,34.0,34.0,34.0,1.0,,,,,,,,,,,,,,,
,,,,,,,,,,,,,,,,,,,,,,,,,,,,,,,,,,,,,,,,,,,mousetrap_15n.jpg,0.0,Green.png,6.0,9,,,,,,,,,,,,,,0.0,1.0,0.5349,0.0,35.0,35.0,35.0,1.0,,,,,,,,,,,,,,,
,,,,,,,,,,,,,,,,,,,,,,,,,,,,,,,,,,,,,,,,,,,,1.0,,,9,,,,,,,,,,hummingbird_05s.jpg,treadmill_06s.jpg,,,,,,,,,,,1.0,1.0,1.5722,0.0,0.0,0.0,0.0,1.0,,,,,,,
,,,,,,,,,,,,,,,,,,,,,,,,,,,,,,,,,,,,,,,,,,,,1.0,,,9,,,,,,,,,,margarita_03s.jpg,quilt_03s.jpg,,,,,,,,,,,0.0,0.0,1.5948,0.0,1.0,1.0,1.0,1.0,,,,,,,
,,,,,,,,,,,,,,,,,,,,,,,,,,,,,,,,,,,,,,,,,,,,0.0,,,9,,,,,,,,,,joystick_01b.jpg,foam_03s.jpg,,,,,,,,,,,0.0,1.0,1.4959,0.0,2.0,2.0,2.0,1.0,,,,,,,
,,,,,,,,,,,,,,,,,,,,,,,,,,,,,,,,,,,,,,,,,,,,0.0,,,9,,,,,,,,,,ravioli_08s.jpg,mop_08s.jpg,,,,,,,,,,,0.0,1.0,1.1345,0.0,3.0,3.0,3.0,1.0,,,,,,,
,,,,,,,,,,,,,,,,,,,,,,,,,,,,,,,,,,,,,,,,,,,,1.0,,,9,,,,,,,,,,tab_09s.jpg,memory_stick_11s.jpg,,,,,,,,,,,1.0,1.0,1.8465,0.0,4.0,4.0,4.0,1.0,,,,,,,
,,,,,,,,,,,,,,,,,,,,,,,,,,,,,,,,,,,,,,,,,,,,1.0,,,9,,,,,,,,,,tripod_01b.jpg,crate_05s.jpg,,,,,,,,,,,0.0,0.0,2.1666,0.0,5.0,5.0,5.0,1.0,,,,,,,
,,,,,,,,,,,,,,,,,,,,,,,,,,,,,,,,,,,,,,,,,,,,,,,9,,,,,,,,,,,,,,,,,,,,,,,,,,,,,,0.0,1.0,1.0,1.0,1.0,new2backpresent_2_4.xlsx,new2back_compare_task_2_4.xlsx
,,,,,,,,,,,,,,,,,,,,,,,,,,,,,,,,,,,,,,,,,,,safety_pin_02s.jpg,0.0,Blue.png,1.0,9,,,,,,,,,,,,,,0.0,1.0,0.8746,0.0,0.0,0.0,0.0,1.0,,,,,,,,,,,,,,,
,,,,,,,,,,,,,,,,,,,,,,,,,,,,,,,,,,,,,,,,,,,safety_pin_02s.jpg,0.0,Purple.png,1.0,9,,,,,,,,,,,,,,0.0,1.0,0.8198,0.0,1.0,1.0,1.0,1.0,,,,,,,,,,,,,,,
,,,,,,,,,,,,,,,,,,,,,,,,,,,,,,,,,,,,,,,,,,,cardinal_07s.jpg,0.0,Red.png,1.0,9,,,,,,,,,,,,,,0.0,1.0,0.8943,0.0,2.0,2.0,2.0,1.0,,,,,,,,,,,,,,,
,,,,,,,,,,,,,,,,,,,,,,,,,,,,,,,,,,,,,,,,,,,safety_pin_02s.jpg,1.0,Orange.png,1.0,9,,,,,,,,,,,,,,1.0,1.0,0.5804,0.0,3.0,3.0,3.0,1.0,,,,,,,,,,,,,,,
,,,,,,,,,,,,,,,,,,,,,,,,,,,,,,,,,,,,,,,,,,,potholder_02s.jpg,0.0,Yellow.png,1.0,9,,,,,,,,,,,,,,0.0,1.0,0.6696,0.0,4.0,4.0,4.0,1.0,,,,,,,,,,,,,,,
,,,,,,,,,,,,,,,,,,,,,,,,,,,,,,,,,,,,,,,,,,,safety_pin_02s.jpg,1.0,Green.png,1.0,9,,,,,,,,,,,,,,1.0,1.0,0.8481,0.0,5.0,5.0,5.0,1.0,,,,,,,,,,,,,,,
,,,,,,,,,,,,,,,,,,,,,,,,,,,,,,,,,,,,,,,,,,,cardinal_07s.jpg,0.0,Blue.png,2.0,9,,,,,,,,,,,,,,0.0,1.0,0.5802,0.0,6.0,6.0,6.0,1.0,,,,,,,,,,,,,,,
,,,,,,,,,,,,,,,,,,,,,,,,,,,,,,,,,,,,,,,,,,,lion_18s.jpg,0.0,Purple.png,2.0,9,,,,,,,,,,,,,,0.0,1.0,0.6664,0.0,7.0,7.0,7.0,1.0,,,,,,,,,,,,,,,
,,,,,,,,,,,,,,,,,,,,,,,,,,,,,,,,,,,,,,,,,,,comic_book_02s.jpg,0.0,Red.png,2.0,9,,,,,,,,,,,,,,0.0,1.0,0.7026,0.0,8.0,8.0,8.0,1.0,,,,,,,,,,,,,,,
,,,,,,,,,,,,,,,,,,,,,,,,,,,,,,,,,,,,,,,,,,,lizard_10n.jpg,0.0,Orange.png,2.0,9,,,,,,,,,,,,,,0.0,1.0,0.7042,0.0,9.0,9.0,9.0,1.0,,,,,,,,,,,,,,,
,,,,,,,,,,,,,,,,,,,,,,,,,,,,,,,,,,,,,,,,,,,rice_12s.jpg,0.0,Yellow.png,2.0,9,,,,,,,,,,,,,,0.0,1.0,0.7202,0.0,10.0,10.0,10.0,1.0,,,,,,,,,,,,,,,
,,,,,,,,,,,,,,,,,,,,,,,,,,,,,,,,,,,,,,,,,,,bagel_15s.jpg,0.0,Green.png,2.0,9,,,,,,,,,,,,,,0.0,1.0,0.8956,0.0,11.0,11.0,11.0,1.0,,,,,,,,,,,,,,,
,,,,,,,,,,,,,,,,,,,,,,,,,,,,,,,,,,,,,,,,,,,recliner_02s.jpg,0.0,Blue.png,3.0,9,,,,,,,,,,,,,,0.0,1.0,0.746,0.0,12.0,12.0,12.0,1.0,,,,,,,,,,,,,,,
,,,,,,,,,,,,,,,,,,,,,,,,,,,,,,,,,,,,,,,,,,,recliner_02s.jpg,0.0,Purple.png,3.0,9,,,,,,,,,,,,,,0.0,1.0,0.558,0.0,13.0,13.0,13.0,1.0,,,,,,,,,,,,,,,
,,,,,,,,,,,,,,,,,,,,,,,,,,,,,,,,,,,,,,,,,,,luggage_08s.jpg,0.0,Red.png,3.0,9,,,,,,,,,,,,,,0.0,1.0,0.6299,0.0,14.0,14.0,14.0,1.0,,,,,,,,,,,,,,,
,,,,,,,,,,,,,,,,,,,,,,,,,,,,,,,,,,,,,,,,,,,recliner_02s.jpg,1.0,Orange.png,3.0,9,,,,,,,,,,,,,,1.0,1.0,0.4168,0.0,15.0,15.0,15.0,1.0,,,,,,,,,,,,,,,
,,,,,,,,,,,,,,,,,,,,,,,,,,,,,,,,,,,,,,,,,,,onion_10s.jpg,0.0,Yellow.png,3.0,9,,,,,,,,,,,,,,0.0,1.0,0.619,0.0,16.0,16.0,16.0,1.0,,,,,,,,,,,,,,,
,,,,,,,,,,,,,,,,,,,,,,,,,,,,,,,,,,,,,,,,,,,rosary_03s.jpg,0.0,Green.png,3.0,9,,,,,,,,,,,,,,0.0,1.0,0.629,0.0,17.0,17.0,17.0,1.0,,,,,,,,,,,,,,,
,,,,,,,,,,,,,,,,,,,,,,,,,,,,,,,,,,,,,,,,,,,smokingpipe.jpg,0.0,Blue.png,4.0,9,,,,,,,,,,,,,,0.0,1.0,0.5789,0.0,18.0,18.0,18.0,1.0,,,,,,,,,,,,,,,
,,,,,,,,,,,,,,,,,,,,,,,,,,,,,,,,,,,,,,,,,,,roulette_wheel_04s.jpg,0.0,Purple.png,4.0,9,,,,,,,,,,,,,,0.0,1.0,0.63,0.0,19.0,19.0,19.0,1.0,,,,,,,,,,,,,,,
,,,,,,,,,,,,,,,,,,,,,,,,,,,,,,,,,,,,,,,,,,,smokingpipe.jpg,1.0,Red.png,4.0,9,,,,,,,,,,,,,,1.0,1.0,0.496,0.0,20.0,20.0,20.0,1.0,,,,,,,,,,,,,,,
,,,,,,,,,,,,,,,,,,,,,,,,,,,,,,,,,,,,,,,,,,,orchid_01b.jpg,0.0,Orange.png,4.0,9,,,,,,,,,,,,,,0.0,1.0,1.2032,0.0,21.0,21.0,21.0,1.0,,,,,,,,,,,,,,,
,,,,,,,,,,,,,,,,,,,,,,,,,,,,,,,,,,,,,,,,,,,buoy_04s.jpg,0.0,Yellow.png,4.0,9,,,,,,,,,,,,,,0.0,1.0,0.8291,0.0,22.0,22.0,22.0,1.0,,,,,,,,,,,,,,,
,,,,,,,,,,,,,,,,,,,,,,,,,,,,,,,,,,,,,,,,,,,stopwatch_04s.jpg,0.0,Green.png,4.0,9,,,,,,,,,,,,,,0.0,1.0,0.61,0.0,23.0,23.0,23.0,1.0,,,,,,,,,,,,,,,
,,,,,,,,,,,,,,,,,,,,,,,,,,,,,,,,,,,,,,,,,,,knitting_needle_04s.jpg,0.0,Blue.png,5.0,9,,,,,,,,,,,,,,0.0,1.0,0.6011,0.0,24.0,24.0,24.0,1.0,,,,,,,,,,,,,,,
,,,,,,,,,,,,,,,,,,,,,,,,,,,,,,,,,,,,,,,,,,,prism_10s.jpg,0.0,Purple.png,5.0,9,,,,,,,,,,,,,,0.0,1.0,0.6472,0.0,25.0,25.0,25.0,1.0,,,,,,,,,,,,,,,
,,,,,,,,,,,,,,,,,,,,,,,,,,,,,,,,,,,,,,,,,,,teapot_03s.jpg,0.0,Red.png,5.0,9,,,,,,,,,,,,,,0.0,1.0,0.5345,0.0,26.0,26.0,26.0,1.0,,,,,,,,,,,,,,,
,,,,,,,,,,,,,,,,,,,,,,,,,,,,,,,,,,,,,,,,,,,fire_pit_10s.jpg,0.0,Orange.png,5.0,9,,,,,,,,,,,,,,0.0,1.0,0.5856,0.0,27.0,27.0,27.0,1.0,,,,,,,,,,,,,,,
,,,,,,,,,,,,,,,,,,,,,,,,,,,,,,,,,,,,,,,,,,,fire_pit_10s.jpg,0.0,Yellow.png,5.0,9,,,,,,,,,,,,,,0.0,1.0,0.7815,0.0,28.0,28.0,28.0,1.0,,,,,,,,,,,,,,,
,,,,,,,,,,,,,,,,,,,,,,,,,,,,,,,,,,,,,,,,,,,fire_pit_10s.jpg,1.0,Green.png,5.0,9,,,,,,,,,,,,,,0.0,0.0,0.6101,0.0,29.0,29.0,29.0,1.0,,,,,,,,,,,,,,,
,,,,,,,,,,,,,,,,,,,,,,,,,,,,,,,,,,,,,,,,,,,ironing_board_07s.jpg,0.0,Blue.png,6.0,9,,,,,,,,,,,,,,0.0,1.0,1.4456,0.0,30.0,30.0,30.0,1.0,,,,,,,,,,,,,,,
,,,,,,,,,,,,,,,,,,,,,,,,,,,,,,,,,,,,,,,,,,,fire_pit_10s.jpg,1.0,Purple.png,6.0,9,,,,,,,,,,,,,,1.0,1.0,0.7038,0.0,31.0,31.0,31.0,1.0,,,,,,,,,,,,,,,
,,,,,,,,,,,,,,,,,,,,,,,,,,,,,,,,,,,,,,,,,,,mattress_01s.jpg,0.0,Red.png,6.0,9,,,,,,,,,,,,,,0.0,1.0,0.7715,0.0,32.0,32.0,32.0,1.0,,,,,,,,,,,,,,,
,,,,,,,,,,,,,,,,,,,,,,,,,,,,,,,,,,,,,,,,,,,fire_pit_10s.jpg,1.0,Orange.png,6.0,9,,,,,,,,,,,,,,1.0,1.0,0.5447,0.0,33.0,33.0,33.0,1.0,,,,,,,,,,,,,,,
,,,,,,,,,,,,,,,,,,,,,,,,,,,,,,,,,,,,,,,,,,,mattress_01s.jpg,1.0,Yellow.png,6.0,9,,,,,,,,,,,,,,1.0,1.0,2.1563,0.0,34.0,34.0,34.0,1.0,,,,,,,,,,,,,,,
,,,,,,,,,,,,,,,,,,,,,,,,,,,,,,,,,,,,,,,,,,,ice-cream_cone_06s.jpg,0.0,Green.png,6.0,9,,,,,,,,,,,,,,0.0,1.0,1.3971,0.0,35.0,35.0,35.0,1.0,,,,,,,,,,,,,,,
,,,,,,,,,,,,,,,,,,,,,,,,,,,,,,,,,,,,,,,,,,,,1.0,,,9,,,,,,,,,,roulette_wheel_04s.jpg,buoy_04s.jpg,,,,,,,,,,,1.0,1.0,2.1214,0.0,0.0,0.0,0.0,1.0,,,,,,,
,,,,,,,,,,,,,,,,,,,,,,,,,,,,,,,,,,,,,,,,,,,,0.0,,,9,,,,,,,,,,lion_18s.jpg,potholder_02s.jpg,,,,,,,,,,,0.0,1.0,1.5946,0.0,1.0,1.0,1.0,1.0,,,,,,,
,,,,,,,,,,,,,,,,,,,,,,,,,,,,,,,,,,,,,,,,,,,,0.0,,,9,,,,,,,,,,bagel_15s.jpg,comic_book_02s.jpg,,,,,,,,,,,1.0,0.0,3.3889,0.0,2.0,2.0,2.0,1.0,,,,,,,
,,,,,,,,,,,,,,,,,,,,,,,,,,,,,,,,,,,,,,,,,,,,1.0,,,9,,,,,,,,,,stopwatch_04s.jpg,teapot_03s.jpg,,,,,,,,,,,1.0,1.0,1.7682,0.0,3.0,3.0,3.0,1.0,,,,,,,
,,,,,,,,,,,,,,,,,,,,,,,,,,,,,,,,,,,,,,,,,,,,1.0,,,9,,,,,,,,,,luggage_08s.jpg,rosary_03s.jpg,,,,,,,,,,,1.0,1.0,1.6346,0.0,4.0,4.0,4.0,1.0,,,,,,,
,,,,,,,,,,,,,,,,,,,,,,,,,,,,,,,,,,,,,,,,,,,,1.0,,,9,,,,,,,,,,orchid_01b.jpg,knitting_needle_04s.jpg,,,,,,,,,,,0.0,0.0,1.7794,0.0,5.0,5.0,5.0,1.0,,,,,,,
,,,,,,,,,,,,,,,,,,,,,,,,,,,,,,,,,,,,,,,,,,,,,,,9,,,,,,,,,,,,,,,,,,,,,,,,,,,,,,0.0,2.0,2.0,2.0,1.0,new2backpresent_3_4.xlsx,new2back_compare_task_3_4.xlsx
,,,,,,,,,,,,,,,,,,,,,,,,,,,,,,,,,,,,,,,,,,,smoothie_09s.jpg,0.0,Blue.png,1.0,9,,,,,,,,,,,,,,0.0,1.0,0.6696,0.0,0.0,0.0,0.0,1.0,,,,,,,,,,,,,,,
,,,,,,,,,,,,,,,,,,,,,,,,,,,,,,,,,,,,,,,,,,,raspberry_12s.jpg,0.0,Purple.png,1.0,9,,,,,,,,,,,,,,0.0,1.0,0.6151,0.0,1.0,1.0,1.0,1.0,,,,,,,,,,,,,,,
,,,,,,,,,,,,,,,,,,,,,,,,,,,,,,,,,,,,,,,,,,,raspberry_12s.jpg,0.0,Red.png,1.0,9,,,,,,,,,,,,,,0.0,1.0,0.8654,0.0,2.0,2.0,2.0,1.0,,,,,,,,,,,,,,,
,,,,,,,,,,,,,,,,,,,,,,,,,,,,,,,,,,,,,,,,,,,lamb_chop_07s.jpg,0.0,Orange.png,1.0,9,,,,,,,,,,,,,,0.0,1.0,0.8813,0.0,3.0,3.0,3.0,1.0,,,,,,,,,,,,,,,
,,,,,,,,,,,,,,,,,,,,,,,,,,,,,,,,,,,,,,,,,,,smoothie_09s.jpg,0.0,Yellow.png,1.0,9,,,,,,,,,,,,,,0.0,1.0,0.7973,0.0,4.0,4.0,4.0,1.0,,,,,,,,,,,,,,,
,,,,,,,,,,,,,,,,,,,,,,,,,,,,,,,,,,,,,,,,,,,raspberry_12s.jpg,0.0,Green.png,1.0,9,,,,,,,,,,,,,,0.0,1.0,0.7292,0.0,5.0,5.0,5.0,1.0,,,,,,,,,,,,,,,
,,,,,,,,,,,,,,,,,,,,,,,,,,,,,,,,,,,,,,,,,,,lava_02s.jpg,0.0,Blue.png,2.0,9,,,,,,,,,,,,,,0.0,1.0,0.9132,0.0,6.0,6.0,6.0,1.0,,,,,,,,,,,,,,,
,,,,,,,,,,,,,,,,,,,,,,,,,,,,,,,,,,,,,,,,,,,trident_07s.jpg,0.0,Purple.png,2.0,9,,,,,,,,,,,,,,0.0,1.0,0.8187,0.0,7.0,7.0,7.0,1.0,,,,,,,,,,,,,,,
,,,,,,,,,,,,,,,,,,,,,,,,,,,,,,,,,,,,,,,,,,,trident_07s.jpg,0.0,Red.png,2.0,9,,,,,,,,,,,,,,0.0,1.0,1.4976,0.0,8.0,8.0,8.0,1.0,,,,,,,,,,,,,,,
,,,,,,,,,,,,,,,,,,,,,,,,,,,,,,,,,,,,,,,,,,,trident_07s.jpg,1.0,Orange.png,2.0,9,,,,,,,,,,,,,,1.0,1.0,0.7304,0.0,9.0,9.0,9.0,1.0,,,,,,,,,,,,,,,
,,,,,,,,,,,,,,,,,,,,,,,,,,,,,,,,,,,,,,,,,,,orangutan_03s.jpg,0.0,Yellow.png,2.0,9,,,,,,,,,,,,,,0.0,1.0,1.1503,0.0,10.0,10.0,10.0,1.0,,,,,,,,,,,,,,,
,,,,,,,,,,,,,,,,,,,,,,,,,,,,,,,,,,,,,,,,,,,trident_07s.jpg,1.0,Green.png,2.0,9,,,,,,,,,,,,,,1.0,1.0,1.2578,0.0,11.0,11.0,11.0,1.0,,,,,,,,,,,,,,,
,,,,,,,,,,,,,,,,,,,,,,,,,,,,,,,,,,,,,,,,,,,raspberry_12s.jpg,0.0,Blue.png,3.0,9,,,,,,,,,,,,,,0.0,1.0,0.6642,0.0,12.0,12.0,12.0,1.0,,,,,,,,,,,,,,,
,,,,,,,,,,,,,,,,,,,,,,,,,,,,,,,,,,,,,,,,,,,trident_07s.jpg,1.0,Purple.png,3.0,9,,,,,,,,,,,,,,1.0,1.0,0.8684,0.0,13.0,13.0,13.0,1.0,,,,,,,,,,,,,,,
,,,,,,,,,,,,,,,,,,,,,,,,,,,,,,,,,,,,,,,,,,,lavender_10s.jpg,0.0,Red.png,3.0,9,,,,,,,,,,,,,,0.0,1.0,0.6214,0.0,14.0,14.0,14.0,1.0,,,,,,,,,,,,,,,
,,,,,,,,,,,,,,,,,,,,,,,,,,,,,,,,,,,,,,,,,,,chip_04s.jpg,0.0,Orange.png,3.0,9,,,,,,,,,,,,,,0.0,1.0,0.7466,0.0,15.0,15.0,15.0,1.0,,,,,,,,,,,,,,,
,,,,,,,,,,,,,,,,,,,,,,,,,,,,,,,,,,,,,,,,,,,lamb_04s.jpg,0.0,Yellow.png,3.0,9,,,,,,,,,,,,,,0.0,1.0,0.8064,0.0,16.0,16.0,16.0,1.0,,,,,,,,,,,,,,,
,,,,,,,,,,,,,,,,,,,,,,,,,,,,,,,,,,,,,,,,,,,emerald_02s.jpg,0.0,Green.png,3.0,9,,,,,,,,,,,,,,0.0,1.0,0.6444,0.0,17.0,17.0,17.0,1.0,,,,,,,,,,,,,,,
,,,,,,,,,,,,,,,,,,,,,,,,,,,,,,,,,,,,,,,,,,,pineapple_12s.jpg,0.0,Blue.png,4.0,9,,,,,,,,,,,,,,0.0,1.0,0.7047,0.0,18.0,18.0,18.0,1.0,,,,,,,,,,,,,,,
,,,,,,,,,,,,,,,,,,,,,,,,,,,,,,,,,,,,,,,,,,,sundae_08s.jpg,0.0,Purple.png,4.0,9,,,,,,,,,,,,,,0.0,1.0,0.5808,0.0,19.0,19.0,19.0,1.0,,,,,,,,,,,,,,,
,,,,,,,,,,,,,,,,,,,,,,,,,,,,,,,,,,,,,,,,,,,sundae_08s.jpg,0.0,Red.png,4.0,9,,,,,,,,,,,,,,0.0,1.0,1.2105,0.0,20.0,20.0,20.0,1.0,,,,,,,,,,,,,,,
,,,,,,,,,,,,,,,,,,,,,,,,,,,,,,,,,,,,,,,,,,,squirrel_02s.jpg,0.0,Orange.png,4.0,9,,,,,,,,,,,,,,0.0,1.0,0.8466,0.0,21.0,21.0,21.0,1.0,,,,,,,,,,,,,,,
,,,,,,,,,,,,,,,,,,,,,,,,,,,,,,,,,,,,,,,,,,,roller_coaster_07s.jpg,0.0,Yellow.png,4.0,9,,,,,,,,,,,,,,0.0,1.0,0.5455,0.0,22.0,22.0,22.0,1.0,,,,,,,,,,,,,,,
,,,,,,,,,,,,,,,,,,,,,,,,,,,,,,,,,,,,,,,,,,,sundae_08s.jpg,0.0,Green.png,4.0,9,,,,,,,,,,,,,,0.0,1.0,0.8237,0.0,23.0,23.0,23.0,1.0,,,,,,,,,,,,,,,
,,,,,,,,,,,,,,,,,,,,,,,,,,,,,,,,,,,,,,,,,,,tweezers_03s.jpg,0.0,Blue.png,5.0,9,,,,,,,,,,,,,,0.0,1.0,0.6829,0.0,24.0,24.0,24.0,1.0,,,,,,,,,,,,,,,
,,,,,,,,,,,,,,,,,,,,,,,,,,,,,,,,,,,,,,,,,,,sundae_08s.jpg,1.0,Purple.png,5.0,9,,,,,,,,,,,,,,1.0,1.0,0.938,0.0,25.0,25.0,25.0,1.0,,,,,,,,,,,,,,,
,,,,,,,,,,,,,,,,,,,,,,,,,,,,,,,,,,,,,,,,,,,rudder_02s.jpg,0.0,Red.png,5.0,9,,,,,,,,,,,,,,0.0,1.0,0.5959,0.0,26.0,26.0,26.0,1.0,,,,,,,,,,,,,,,
,,,,,,,,,,,,,,,,,,,,,,,,,,,,,,,,,,,,,,,,,,,rake_06s.jpg,0.0,Orange.png,5.0,9,,,,,,,,,,,,,,0.0,1.0,0.7786,0.0,27.0,27.0,27.0,1.0,,,,,,,,,,,,,,,
,,,,,,,,,,,,,,,,,,,,,,,,,,,,,,,,,,,,,,,,,,,rake_06s.jpg,0.0,Yellow.png,5.0,9,,,,,,,,,,,,,,0.0,1.0,0.8495,0.0,28.0,28.0,28.0,1.0,,,,,,,,,,,,,,,
,,,,,,,,,,,,,,,,,,,,,,,,,,,,,,,,,,,,,,,,,,,rake_06s.jpg,1.0,Green.png,5.0,9,,,,,,,,,,,,,,1.0,1.0,0.649,0.0,29.0,29.0,29.0,1.0,,,,,,,,,,,,,,,
,,,,,,,,,,,,,,,,,,,,,,,,,,,,,,,,,,,,,,,,,,,cap_05s.jpg,0.0,Blue.png,6.0,9,,,,,,,,,,,,,,0.0,1.0,0.8042,0.0,30.0,30.0,30.0,1.0,,,,,,,,,,,,,,,
,,,,,,,,,,,,,,,,,,,,,,,,,,,,,,,,,,,,,,,,,,,paper_towel_03s.jpg,0.0,Purple.png,6.0,9,,,,,,,,,,,,,,0.0,1.0,0.8137,0.0,31.0,31.0,31.0,1.0,,,,,,,,,,,,,,,
,,,,,,,,,,,,,,,,,,,,,,,,,,,,,,,,,,,,,,,,,,,toaster_03s.jpg,0.0,Red.png,6.0,9,,,,,,,,,,,,,,0.0,1.0,0.5807,0.0,32.0,32.0,32.0,1.0,,,,,,,,,,,,,,,
,,,,,,,,,,,,,,,,,,,,,,,,,,,,,,,,,,,,,,,,,,,money_07s.jpg,0.0,Orange.png,6.0,9,,,,,,,,,,,,,,0.0,1.0,0.6685,0.0,33.0,33.0,33.0,1.0,,,,,,,,,,,,,,,
,,,,,,,,,,,,,,,,,,,,,,,,,,,,,,,,,,,,,,,,,,,pinwheel_06s.jpg,0.0,Yellow.png,6.0,9,,,,,,,,,,,,,,0.0,1.0,0.7057,0.0,34.0,34.0,34.0,1.0,,,,,,,,,,,,,,,
,,,,,,,,,,,,,,,,,,,,,,,,,,,,,,,,,,,,,,,,,,,lid_10s.jpg,0.0,Green.png,6.0,9,,,,,,,,,,,,,,0.0,1.0,0.7462,0.0,35.0,35.0,35.0,1.0,,,,,,,,,,,,,,,
,,,,,,,,,,,,,,,,,,,,,,,,,,,,,,,,,,,,,,,,,,,,0.0,,,9,,,,,,,,,,tweezers_03s.jpg,squirrel_02s.jpg,,,,,,,,,,,0.0,1.0,1.4706,0.0,0.0,0.0,0.0,1.0,,,,,,,
,,,,,,,,,,,,,,,,,,,,,,,,,,,,,,,,,,,,,,,,,,,,1.0,,,9,,,,,,,,,,chip_04s.jpg,pineapple_12s.jpg,,,,,,,,,,,0.0,0.0,2.3691,0.0,1.0,1.0,1.0,1.0,,,,,,,
,,,,,,,,,,,,,,,,,,,,,,,,,,,,,,,,,,,,,,,,,,,,1.0,,,9,,,,,,,,,,lamb_chop_07s.jpg,lava_02s.jpg,,,,,,,,,,,1.0,1.0,2.6981,0.0,2.0,2.0,2.0,1.0,,,,,,,
,,,,,,,,,,,,,,,,,,,,,,,,,,,,,,,,,,,,,,,,,,,,0.0,,,9,,,,,,,,,,pinwheel_06s.jpg,paper_towel_03s.jpg,,,,,,,,,,,0.0,1.0,2.1728,0.0,3.0,3.0,3.0,1.0,,,,,,,
,,,,,,,,,,,,,,,,,,,,,,,,,,,,,,,,,,,,,,,,,,,,0.0,,,9,,,,,,,,,,emerald_02s.jpg,lavender_10s.jpg,,,,,,,,,,,0.0,1.0,2.0164,0.0,4.0,4.0,4.0,1.0,,,,,,,
,,,,,,,,,,,,,,,,,,,,,,,,,,,,,,,,,,,,,,,,,,,,0.0,,,9,,,,,,,,,,money_07s.jpg,cap_05s.jpg,,,,,,,,,,,1.0,0.0,2.0886,0.0,5.0,5.0,5.0,1.0,,,,,,,
,,,,,,,,,,,,,,,,,,,,,,,,,,,,,,,,,,,,,,,,,,,,,,,9,,,,,,,,,,,,,,,,,,,,,,,,,,,,,,0.0,3.0,3.0,3.0,1.0,new2backpresent_4_4.xlsx,new2back_compare_task_4_4.xlsx
,,,,,,,,,,,,,,,,,,,,,,,,,,,,,,,,,,,,,,,,,,,fur_coat_11s.jpg,0.0,Blue.png,1.0,9,,,,,,,,,,,,,,0.0,1.0,1.026,0.0,0.0,0.0,0.0,1.0,,,,,,,,,,,,,,,
,,,,,,,,,,,,,,,,,,,,,,,,,,,,,,,,,,,,,,,,,,,crayon_09s.jpg,0.0,Purple.png,1.0,9,,,,,,,,,,,,,,0.0,1.0,0.6106,0.0,1.0,1.0,1.0,1.0,,,,,,,,,,,,,,,
,,,,,,,,,,,,,,,,,,,,,,,,,,,,,,,,,,,,,,,,,,,cobra_05s.jpg,0.0,Red.png,1.0,9,,,,,,,,,,,,,,0.0,1.0,0.6339,0.0,2.0,2.0,2.0,1.0,,,,,,,,,,,,,,,
,,,,,,,,,,,,,,,,,,,,,,,,,,,,,,,,,,,,,,,,,,,raccoon_02s.jpg,0.0,Orange.png,1.0,9,,,,,,,,,,,,,,0.0,1.0,0.6106,0.0,3.0,3.0,3.0,1.0,,,,,,,,,,,,,,,
,,,,,,,,,,,,,,,,,,,,,,,,,,,,,,,,,,,,,,,,,,,soda_fountain_03s.jpg,0.0,Yellow.png,1.0,9,,,,,,,,,,,,,,0.0,1.0,0.7465,0.0,4.0,4.0,4.0,1.0,,,,,,,,,,,,,,,
,,,,,,,,,,,,,,,,,,,,,,,,,,,,,,,,,,,,,,,,,,,raccoon_02s.jpg,1.0,Green.png,1.0,9,,,,,,,,,,,,,,1.0,1.0,0.8457,0.0,5.0,5.0,5.0,1.0,,,,,,,,,,,,,,,
,,,,,,,,,,,,,,,,,,,,,,,,,,,,,,,,,,,,,,,,,,,feather02.jpg,0.0,Blue.png,2.0,9,,,,,,,,,,,,,,0.0,1.0,0.5758,0.0,6.0,6.0,6.0,1.0,,,,,,,,,,,,,,,
,,,,,,,,,,,,,,,,,,,,,,,,,,,,,,,,,,,,,,,,,,,raccoon_02s.jpg,1.0,Purple.png,2.0,9,,,,,,,,,,,,,,1.0,1.0,0.7958,0.0,7.0,7.0,7.0,1.0,,,,,,,,,,,,,,,
,,,,,,,,,,,,,,,,,,,,,,,,,,,,,,,,,,,,,,,,,,,feather02.jpg,1.0,Red.png,2.0,9,,,,,,,,,,,,,,1.0,1.0,0.564,0.0,8.0,8.0,8.0,1.0,,,,,,,,,,,,,,,
,,,,,,,,,,,,,,,,,,,,,,,,,,,,,,,,,,,,,,,,,,,rug_09s.jpg,0.0,Orange.png,2.0,9,,,,,,,,,,,,,,0.0,1.0,1.1023,0.0,9.0,9.0,9.0,1.0,,,,,,,,,,,,,,,
,,,,,,,,,,,,,,,,,,,,,,,,,,,,,,,,,,,,,,,,,,,feather02.jpg,1.0,Yellow.png,2.0,9,,,,,,,,,,,,,,1.0,1.0,1.1123,0.0,10.0,10.0,10.0,1.0,,,,,,,,,,,,,,,
,,,,,,,,,,,,,,,,,,,,,,,,,,,,,,,,,,,,,,,,,,,cushion_08s.jpg,0.0,Green.png,2.0,9,,,,,,,,,,,,,,0.0,1.0,0.7363,0.0,11.0,11.0,11.0,1.0,,,,,,,,,,,,,,,
,,,,,,,,,,,,,,,,,,,,,,,,,,,,,,,,,,,,,,,,,,,feather02.jpg,1.0,Blue.png,3.0,9,,,,,,,,,,,,,,1.0,1.0,0.5375,0.0,12.0,12.0,12.0,1.0,,,,,,,,,,,,,,,
,,,,,,,,,,,,,,,,,,,,,,,,,,,,,,,,,,,,,,,,,,,feather02.jpg,0.0,Purple.png,3.0,9,,,,,,,,,,,,,,0.0,1.0,0.8965,0.0,13.0,13.0,13.0,1.0,,,,,,,,,,,,,,,
,,,,,,,,,,,,,,,,,,,,,,,,,,,,,,,,,,,,,,,,,,,ice_pack_09s.jpg,0.0,Red.png,3.0,9,,,,,,,,,,,,,,0.0,1.0,0.6836,0.0,14.0,14.0,14.0,1.0,,,,,,,,,,,,,,,
,,,,,,,,,,,,,,,,,,,,,,,,,,,,,,,,,,,,,,,,,,,ice_pack_09s.jpg,0.0,Orange.png,3.0,9,,,,,,,,,,,,,,0.0,1.0,0.9457,0.0,15.0,15.0,15.0,1.0,,,,,,,,,,,,,,,
,,,,,,,,,,,,,,,,,,,,,,,,,,,,,,,,,,,,,,,,,,,loom_05s.jpg,0.0,Yellow.png,3.0,9,,,,,,,,,,,,,,0.0,1.0,0.7891,0.0,16.0,16.0,16.0,1.0,,,,,,,,,,,,,,,
,,,,,,,,,,,,,,,,,,,,,,,,,,,,,,,,,,,,,,,,,,,ice_pack_09s.jpg,1.0,Green.png,3.0,9,,,,,,,,,,,,,,1.0,1.0,0.6016,0.0,17.0,17.0,17.0,1.0,,,,,,,,,,,,,,,
,,,,,,,,,,,,,,,,,,,,,,,,,,,,,,,,,,,,,,,,,,,ice_pack_09s.jpg,0.0,Blue.png,4.0,9,,,,,,,,,,,,,,0.0,1.0,1.2164,0.0,18.0,18.0,18.0,1.0,,,,,,,,,,,,,,,
,,,,,,,,,,,,,,,,,,,,,,,,,,,,,,,,,,,,,,,,,,,ice_pack_09s.jpg,1.0,Purple.png,4.0,9,,,,,,,,,,,,,,1.0,1.0,0.7775,0.0,19.0,19.0,19.0,1.0,,,,,,,,,,,,,,,
,,,,,,,,,,,,,,,,,,,,,,,,,,,,,,,,,,,,,,,,,,,ice_pack_09s.jpg,1.0,Red.png,4.0,9,,,,,,,,,,,,,,1.0,1.0,1.0652,0.0,20.0,20.0,20.0,1.0,,,,,,,,,,,,,,,
,,,,,,,,,,,,,,,,,,,,,,,,,,,,,,,,,,,,,,,,,,,blazer_02s.jpg,0.0,Orange.png,4.0,9,,,,,,,,,,,,,,0.0,1.0,0.6625,0.0,21.0,21.0,21.0,1.0,,,,,,,,,,,,,,,
,,,,,,,,,,,,,,,,,,,,,,,,,,,,,,,,,,,,,,,,,,,penlight_12s.jpg,0.0,Yellow.png,4.0,9,,,,,,,,,,,,,,0.0,1.0,0.795,0.0,22.0,22.0,22.0,1.0,,,,,,,,,,,,,,,
,,,,,,,,,,,,,,,,,,,,,,,,,,,,,,,,,,,,,,,,,,,swan_11s.jpg,0.0,Green.png,4.0,9,,,,,,,,,,,,,,0.0,1.0,0.5819,0.0,23.0,23.0,23.0,1.0,,,,,,,,,,,,,,,
,,,,,,,,,,,,,,,,,,,,,,,,,,,,,,,,,,,,,,,,,,,plunger_08s.jpg,0.0,Blue.png,5.0,9,,,,,,,,,,,,,,0.0,1.0,0.6743,0.0,24.0,24.0,24.0,1.0,,,,,,,,,,,,,,,
,,,,,,,,,,,,,,,,,,,,,,,,,,,,,,,,,,,,,,,,,,,bottle_opener_11s.jpg,0.0,Purple.png,5.0,9,,,,,,,,,,,,,,0.0,1.0,0.6282,0.0,25.0,25.0,25.0,1.0,,,,,,,,,,,,,,,
,,,,,,,,,,,,,,,,,,,,,,,,,,,,,,,,,,,,,,,,,,,checkbook_11s.jpg,0.0,Red.png,5.0,9,,,,,,,,,,,,,,0.0,1.0,0.5154,0.0,26.0,26.0,26.0,1.0,,,,,,,,,,,,,,,
,,,,,,,,,,,,,,,,,,,,,,,,,,,,,,,,,,,,,,,,,,,ink_08s.jpg,0.0,Orange.png,5.0,9,,,,,,,,,,,,,,0.0,1.0,0.7602,0.0,27.0,27.0,27.0,1.0,,,,,,,,,,,,,,,
,,,,,,,,,,,,,,,,,,,,,,,,,,,,,,,,,,,,,,,,,,,plunger_08s.jpg,0.0,Yellow.png,5.0,9,,,,,,,,,,,,,,0.0,1.0,1.1454,0.0,28.0,28.0,28.0,1.0,,,,,,,,,,,,,,,
,,,,,,,,,,,,,,,,,,,,,,,,,,,,,,,,,,,,,,,,,,,pencil02a.jpg,0.0,Green.png,5.0,9,,,,,,,,,,,,,,0.0,1.0,0.6592,0.0,29.0,29.0,29.0,1.0,,,,,,,,,,,,,,,
,,,,,,,,,,,,,,,,,,,,,,,,,,,,,,,,,,,,,,,,,,,ginger_09s.jpg,0.0,Blue.png,6.0,9,,,,,,,,,,,,,,0.0,1.0,0.5786,0.0,30.0,30.0,30.0,1.0,,,,,,,,,,,,,,,
,,,,,,,,,,,,,,,,,,,,,,,,,,,,,,,,,,,,,,,,,,,taxi_15s.jpg,0.0,Purple.png,6.0,9,,,,,,,,,,,,,,0.0,1.0,0.4705,0.0,31.0,31.0,31.0,1.0,,,,,,,,,,,,,,,
,,,,,,,,,,,,,,,,,,,,,,,,,,,,,,,,,,,,,,,,,,,toy_04s.jpg,0.0,Red.png,6.0,9,,,,,,,,,,,,,,0.0,1.0,0.5478,0.0,32.0,32.0,32.0,1.0,,,,,,,,,,,,,,,
,,,,,,,,,,,,,,,,,,,,,,,,,,,,,,,,,,,,,,,,,,,blowfish_03s.jpg,0.0,Orange.png,6.0,9,,,,,,,,,,,,,,0.0,1.0,0.5025,0.0,33.0,33.0,33.0,1.0,,,,,,,,,,,,,,,
,,,,,,,,,,,,,,,,,,,,,,,,,,,,,,,,,,,,,,,,,,,toilet_paper_12s.jpg,0.0,Yellow.png,6.0,9,,,,,,,,,,,,,,0.0,1.0,0.5129,0.0,34.0,34.0,34.0,1.0,,,,,,,,,,,,,,,
,,,,,,,,,,,,,,,,,,,,,,,,,,,,,,,,,,,,,,,,,,,puddle_02s.jpg,0.0,Green.png,6.0,9,,,,,,,,,,,,,,0.0,1.0,0.5369,0.0,35.0,35.0,35.0,1.0,,,,,,,,,,,,,,,
,,,,,,,,,,,,,,,,,,,,,,,,,,,,,,,,,,,,,,,,,,,,1.0,,,9,,,,,,,,,,ink_08s.jpg,ginger_09s.jpg,,,,,,,,,,,1.0,1.0,4.4554,0.0,0.0,0.0,0.0,1.0,,,,,,,
,,,,,,,,,,,,,,,,,,,,,,,,,,,,,,,,,,,,,,,,,,,,0.0,,,9,,,,,,,,,,puddle_02s.jpg,toy_04s.jpg,,,,,,,,,,,0.0,1.0,2.2369,0.0,1.0,1.0,1.0,1.0,,,,,,,
,,,,,,,,,,,,,,,,,,,,,,,,,,,,,,,,,,,,,,,,,,,,0.0,,,9,,,,,,,,,,bottle_opener_11s.jpg,penlight_12s.jpg,,,,,,,,,,,0.0,1.0,2.6679,0.0,2.0,2.0,2.0,1.0,,,,,,,
,,,,,,,,,,,,,,,,,,,,,,,,,,,,,,,,,,,,,,,,,,,,0.0,,,9,,,,,,,,,,checkbook_11s.jpg,swan_11s.jpg,,,,,,,,,,,0.0,1.0,3.0809,0.0,3.0,3.0,3.0,1.0,,,,,,,
,,,,,,,,,,,,,,,,,,,,,,,,,,,,,,,,,,,,,,,,,,,,1.0,,,9,,,,,,,,,,taxi_15s.jpg,toilet_paper_12s.jpg,,,,,,,,,,,0.0,0.0,5.2906,0.0,4.0,4.0,4.0,1.0,,,,,,,
,,,,,,,,,,,,,,,,,,,,,,,,,,,,,,,,,,,,,,,,,,,,1.0,,,9,,,,,,,,,,crayon_09s.jpg,soda_fountain_03s.jpg,,,,,,,,,,,1.0,1.0,4.8204,0.0,5.0,5.0,5.0,1.0,,,,,,,
,,,,,,,,,,,,,,,,,,,,,,,,,,,,,,,,,,,,,,,,,,,,,,,9,,,,,,,,,,,,,,,,,,,,,,,,,,,,,,0.0,4.0,4.0,4.0,1.0,new2backpresent_5_4.xlsx,new2back_compare_task_5_4.xlsx
,,,,,,,,,,,,,,,,,,,,,,,,,,,,,,,,,,,,,,,,,,,flask_04s.jpg,0.0,Blue.png,1.0,9,,,,,,,,,,,,,,0.0,1.0,0.7977,0.0,0.0,0.0,0.0,1.0,,,,,,,,,,,,,,,
,,,,,,,,,,,,,,,,,,,,,,,,,,,,,,,,,,,,,,,,,,,kimono_13s.jpg,0.0,Purple.png,1.0,9,,,,,,,,,,,,,,0.0,1.0,0.5123,0.0,1.0,1.0,1.0,1.0,,,,,,,,,,,,,,,
,,,,,,,,,,,,,,,,,,,,,,,,,,,,,,,,,,,,,,,,,,,limousine_12s.jpg,0.0,Red.png,1.0,9,,,,,,,,,,,,,,0.0,1.0,0.6373,0.0,2.0,2.0,2.0,1.0,,,,,,,,,,,,,,,
,,,,,,,,,,,,,,,,,,,,,,,,,,,,,,,,,,,,,,,,,,,lectern_08s.jpg,0.0,Orange.png,1.0,9,,,,,,,,,,,,,,0.0,1.0,0.7566,0.0,3.0,3.0,3.0,1.0,,,,,,,,,,,,,,,
,,,,,,,,,,,,,,,,,,,,,,,,,,,,,,,,,,,,,,,,,,,kimono_13s.jpg,0.0,Yellow.png,1.0,9,,,,,,,,,,,,,,0.0,1.0,0.8117,0.0,4.0,4.0,4.0,1.0,,,,,,,,,,,,,,,
,,,,,,,,,,,,,,,,,,,,,,,,,,,,,,,,,,,,,,,,,,,doily_13s.jpg,0.0,Green.png,1.0,9,,,,,,,,,,,,,,0.0,1.0,0.6066,0.0,5.0,5.0,5.0,1.0,,,,,,,,,,,,,,,
,,,,,,,,,,,,,,,,,,,,,,,,,,,,,,,,,,,,,,,,,,,kimono_13s.jpg,1.0,Blue.png,2.0,9,,,,,,,,,,,,,,1.0,1.0,0.5428,0.0,6.0,6.0,6.0,1.0,,,,,,,,,,,,,,,
,,,,,,,,,,,,,,,,,,,,,,,,,,,,,,,,,,,,,,,,,,,razor_blade_01b.jpg,0.0,Purple.png,2.0,9,,,,,,,,,,,,,,0.0,1.0,0.5955,0.0,7.0,7.0,7.0,1.0,,,,,,,,,,,,,,,
,,,,,,,,,,,,,,,,,,,,,,,,,,,,,,,,,,,,,,,,,,,razor_blade_01b.jpg,0.0,Red.png,2.0,9,,,,,,,,,,,,,,0.0,1.0,1.1126,0.0,8.0,8.0,8.0,1.0,,,,,,,,,,,,,,,
,,,,,,,,,,,,,,,,,,,,,,,,,,,,,,,,,,,,,,,,,,,champagne_18s.jpg,0.0,Orange.png,2.0,9,,,,,,,,,,,,,,0.0,1.0,0.6957,0.0,9.0,9.0,9.0,1.0,,,,,,,,,,,,,,,
,,,,,,,,,,,,,,,,,,,,,,,,,,,,,,,,,,,,,,,,,,,stamp1_11s.jpg,0.0,Yellow.png,2.0,9,,,,,,,,,,,,,,0.0,1.0,0.609,0.0,10.0,10.0,10.0,1.0,,,,,,,,,,,,,,,
,,,,,,,,,,,,,,,,,,,,,,,,,,,,,,,,,,,,,,,,,,,champagne_18s.jpg,1.0,Green.png,2.0,9,,,,,,,,,,,,,,1.0,1.0,0.5255,0.0,11.0,11.0,11.0,1.0,,,,,,,,,,,,,,,
,,,,,,,,,,,,,,,,,,,,,,,,,,,,,,,,,,,,,,,,,,,crossbow_10s.jpg,0.0,Blue.png,3.0,9,,,,,,,,,,,,,,0.0,1.0,0.578,0.0,12.0,12.0,12.0,1.0,,,,,,,,,,,,,,,
,,,,,,,,,,,,,,,,,,,,,,,,,,,,,,,,,,,,,,,,,,,briefcase_03s.jpg,0.0,Purple.png,3.0,9,,,,,,,,,,,,,,0.0,1.0,0.9176,0.0,13.0,13.0,13.0,1.0,,,,,,,,,,,,,,,
,,,,,,,,,,,,,,,,,,,,,,,,,,,,,,,,,,,,,,,,,,,jersey_02s.jpg,0.0,Red.png,3.0,9,,,,,,,,,,,,,,0.0,1.0,0.7334,0.0,14.0,14.0,14.0,1.0,,,,,,,,,,,,,,,
,,,,,,,,,,,,,,,,,,,,,,,,,,,,,,,,,,,,,,,,,,,briefcase_03s.jpg,1.0,Orange.png,3.0,9,,,,,,,,,,,,,,1.0,1.0,0.9364,0.0,15.0,15.0,15.0,1.0,,,,,,,,,,,,,,,
,,,,,,,,,,,,,,,,,,,,,,,,,,,,,,,,,,,,,,,,,,,oil_02s.jpg,0.0,Yellow.png,3.0,9,,,,,,,,,,,,,,0.0,1.0,0.7034,0.0,16.0,16.0,16.0,1.0,,,,,,,,,,,,,,,
,,,,,,,,,,,,,,,,,,,,,,,,,,,,,,,,,,,,,,,,,,,tinsel_12s.jpg,0.0,Green.png,3.0,9,,,,,,,,,,,,,,0.0,1.0,0.5972,0.0,17.0,17.0,17.0,1.0,,,,,,,,,,,,,,,
,,,,,,,,,,,,,,,,,,,,,,,,,,,,,,,,,,,,,,,,,,,flask_04s.jpg,0.0,Blue.png,4.0,9,,,,,,,,,,,,,,0.0,1.0,0.5843,0.0,18.0,18.0,18.0,1.0,,,,,,,,,,,,,,,
,,,,,,,,,,,,,,,,,,,,,,,,,,,,,,,,,,,,,,,,,,,fork_04s.jpg,0.0,Purple.png,4.0,9,,,,,,,,,,,,,,0.0,1.0,1.3268,0.0,19.0,19.0,19.0,1.0,,,,,,,,,,,,,,,
,,,,,,,,,,,,,,,,,,,,,,,,,,,,,,,,,,,,,,,,,,,purse_05s.jpg,0.0,Red.png,4.0,9,,,,,,,,,,,,,,0.0,1.0,1.02,0.0,20.0,20.0,20.0,1.0,,,,,,,,,,,,,,,
,,,,,,,,,,,,,,,,,,,,,,,,,,,,,,,,,,,,,,,,,,,flask_04s.jpg,0.0,Orange.png,4.0,9,,,,,,,,,,,,,,0.0,1.0,1.0676,0.0,21.0,21.0,21.0,1.0,,,,,,,,,,,,,,,
,,,,,,,,,,,,,,,,,,,,,,,,,,,,,,,,,,,,,,,,,,,sledgehammer_03s.jpg,0.0,Yellow.png,4.0,9,,,,,,,,,,,,,,0.0,1.0,0.6174,0.0,22.0,22.0,22.0,1.0,,,,,,,,,,,,,,,
,,,,,,,,,,,,,,,,,,,,,,,,,,,,,,,,,,,,,,,,,,,turf_03s.jpg,0.0,Green.png,4.0,9,,,,,,,,,,,,,,0.0,1.0,0.6618,0.0,23.0,23.0,23.0,1.0,,,,,,,,,,,,,,,
,,,,,,,,,,,,,,,,,,,,,,,,,,,,,,,,,,,,,,,,,,,omelet_07s.jpg,0.0,Blue.png,5.0,9,,,,,,,,,,,,,,0.0,1.0,0.6787,0.0,24.0,24.0,24.0,1.0,,,,,,,,,,,,,,,
,,,,,,,,,,,,,,,,,,,,,,,,,,,,,,,,,,,,,,,,,,,turf_03s.jpg,1.0,Purple.png,5.0,9,,,,,,,,,,,,,,1.0,1.0,1.1076,0.0,25.0,25.0,25.0,1.0,,,,,,,,,,,,,,,
,,,,,,,,,,,,,,,,,,,,,,,,,,,,,,,,,,,,,,,,,,,clover_04s.jpg,0.0,Red.png,5.0,9,,,,,,,,,,,,,,0.0,1.0,0.5841,0.0,26.0,26.0,26.0,1.0,,,,,,,,,,,,,,,
,,,,,,,,,,,,,,,,,,,,,,,,,,,,,,,,,,,,,,,,,,,lip_gloss_06s.jpg,0.0,Orange.png,5.0,9,,,,,,,,,,,,,,0.0,1.0,0.569,0.0,27.0,27.0,27.0,1.0,,,,,,,,,,,,,,,
,,,,,,,,,,,,,,,,,,,,,,,,,,,,,,,,,,,,,,,,,,,amber_04s.jpg,0.0,Yellow.png,5.0,9,,,,,,,,,,,,,,0.0,1.0,0.5691,0.0,28.0,28.0,28.0,1.0,,,,,,,,,,,,,,,
,,,,,,,,,,,,,,,,,,,,,,,,,,,,,,,,,,,,,,,,,,,tortilla_06s.jpg,0.0,Green.png,5.0,9,,,,,,,,,,,,,,0.0,1.0,0.7215,0.0,29.0,29.0,29.0,1.0,,,,,,,,,,,,,,,
,,,,,,,,,,,,,,,,,,,,,,,,,,,,,,,,,,,,,,,,,,,razor_blade_01b.jpg,0.0,Blue.png,6.0,9,,,,,,,,,,,,,,0.0,1.0,0.5076,0.0,30.0,30.0,30.0,1.0,,,,,,,,,,,,,,,
,,,,,,,,,,,,,,,,,,,,,,,,,,,,,,,,,,,,,,,,,,,tape_measure_11s.jpg,0.0,Purple.png,6.0,9,,,,,,,,,,,,,,0.0,1.0,0.6764,0.0,31.0,31.0,31.0,1.0,,,,,,,,,,,,,,,
,,,,,,,,,,,,,,,,,,,,,,,,,,,,,,,,,,,,,,,,,,,razor_blade_01b.jpg,1.0,Red.png,6.0,9,,,,,,,,,,,,,,1.0,1.0,0.8363,0.0,32.0,32.0,32.0,1.0,,,,,,,,,,,,,,,
,,,,,,,,,,,,,,,,,,,,,,,,,,,,,,,,,,,,,,,,,,,razor_blade_01b.jpg,0.0,Orange.png,6.0,9,,,,,,,,,,,,,,0.0,1.0,1.2458,0.0,33.0,33.0,33.0,1.0,,,,,,,,,,,,,,,
,,,,,,,,,,,,,,,,,,,,,,,,,,,,,,,,,,,,,,,,,,,stingray_02s.jpg,0.0,Yellow.png,6.0,9,,,,,,,,,,,,,,0.0,1.0,0.6704,0.0,34.0,34.0,34.0,1.0,,,,,,,,,,,,,,,
,,,,,,,,,,,,,,,,,,,,,,,,,,,,,,,,,,,,,,,,,,,harpoon.jpg,0.0,Green.png,6.0,9,,,,,,,,,,,,,,0.0,1.0,0.7792,0.0,35.0,35.0,35.0,1.0,,,,,,,,,,,,,,,
,,,,,,,,,,,,,,,,,,,,,,,,,,,,,,,,,,,,,,,,,,,,1.0,,,9,,,,,,,,,,oil_02s.jpg,fork_04s.jpg,,,,,,,,,,,1.0,1.0,8.3422,0.0,0.0,0.0,0.0,1.0,,,,,,,
,,,,,,,,,,,,,,,,,,,,,,,,,,,,,,,,,,,,,,,,,,,,0.0,,,9,,,,,,,,,,doily_13s.jpg,limousine_12s.jpg,,,,,,,,,,,0.0,1.0,1.603,0.0,1.0,1.0,1.0,1.0,,,,,,,
,,,,,,,,,,,,,,,,,,,,,,,,,,,,,,,,,,,,,,,,,,,,0.0,,,9,,,,,,,,,,lip_gloss_06s.jpg,omelet_07s.jpg,,,,,,,,,,,1.0,0.0,2.4418,0.0,2.0,2.0,2.0,1.0,,,,,,,
,,,,,,,,,,,,,,,,,,,,,,,,,,,,,,,,,,,,,,,,,,,,0.0,,,9,,,,,,,,,,tape_measure_11s.jpg,amber_04s.jpg,,,,,,,,,,,0.0,1.0,4.5544,0.0,3.0,3.0,3.0,1.0,,,,,,,
,,,,,,,,,,,,,,,,,,,,,,,,,,,,,,,,,,,,,,,,,,,,0.0,,,9,,,,,,,,,,tortilla_06s.jpg,clover_04s.jpg,,,,,,,,,,,0.0,1.0,2.1047,0.0,4.0,4.0,4.0,1.0,,,,,,,
,,,,,,,,,,,,,,,,,,,,,,,,,,,,,,,,,,,,,,,,,,,,0.0,,,9,,,,,,,,,,purse_05s.jpg,tinsel_12s.jpg,,,,,,,,,,,0.0,1.0,3.7653,0.0,5.0,5.0,5.0,1.0,,,,,,,
,,,,,,,,,,,,,,,,,,,,,,,,,,,,,,,,,,,,,,,,,,,,,,,9,,,,,,,,,,,,,,,,,,,,,,,,,,,,,,0.0,5.0,5.0,5.0,1.0,new2backpresent_6_4.xlsx,new2back_compare_task_6_4.xlsx
,,,,,,,,,,,,,,,,,,,,,,,,,,,,,,,,,,,,,,,,,,,butter_14s.jpg,0.0,Blue.png,1.0,9,,,,,,,,,,,,,,0.0,1.0,0.741,0.0,0.0,0.0,0.0,1.0,,,,,,,,,,,,,,,
,,,,,,,,,,,,,,,,,,,,,,,,,,,,,,,,,,,,,,,,,,,butter_14s.jpg,0.0,Purple.png,1.0,9,,,,,,,,,,,,,,0.0,1.0,1.245,0.0,1.0,1.0,1.0,1.0,,,,,,,,,,,,,,,
,,,,,,,,,,,,,,,,,,,,,,,,,,,,,,,,,,,,,,,,,,,butter_14s.jpg,1.0,Red.png,1.0,9,,,,,,,,,,,,,,1.0,1.0,0.6856,0.0,2.0,2.0,2.0,1.0,,,,,,,,,,,,,,,
,,,,,,,,,,,,,,,,,,,,,,,,,,,,,,,,,,,,,,,,,,,stamp2_08s.jpg,0.0,Orange.png,1.0,9,,,,,,,,,,,,,,0.0,1.0,0.7543,0.0,3.0,3.0,3.0,1.0,,,,,,,,,,,,,,,
,,,,,,,,,,,,,,,,,,,,,,,,,,,,,,,,,,,,,,,,,,,kangaroo_02s.jpg,0.0,Yellow.png,1.0,9,,,,,,,,,,,,,,0.0,1.0,0.6441,0.0,4.0,4.0,4.0,1.0,,,,,,,,,,,,,,,
,,,,,,,,,,,,,,,,,,,,,,,,,,,,,,,,,,,,,,,,,,,camcorder_10s.jpg,0.0,Green.png,1.0,9,,,,,,,,,,,,,,0.0,1.0,0.7736,0.0,5.0,5.0,5.0,1.0,,,,,,,,,,,,,,,
,,,,,,,,,,,,,,,,,,,,,,,,,,,,,,,,,,,,,,,,,,,bank_06s.jpg,0.0,Blue.png,2.0,9,,,,,,,,,,,,,,0.0,1.0,0.6949,0.0,6.0,6.0,6.0,1.0,,,,,,,,,,,,,,,
,,,,,,,,,,,,,,,,,,,,,,,,,,,,,,,,,,,,,,,,,,,gear_07s.jpg,0.0,Purple.png,2.0,9,,,,,,,,,,,,,,0.0,1.0,0.6454,0.0,7.0,7.0,7.0,1.0,,,,,,,,,,,,,,,
,,,,,,,,,,,,,,,,,,,,,,,,,,,,,,,,,,,,,,,,,,,bank_06s.jpg,1.0,Red.png,2.0,9,,,,,,,,,,,,,,1.0,1.0,0.6168,0.0,8.0,8.0,8.0,1.0,,,,,,,,,,,,,,,
,,,,,,,,,,,,,,,,,,,,,,,,,,,,,,,,,,,,,,,,,,,funnel_01b.jpg,0.0,Orange.png,2.0,9,,,,,,,,,,,,,,0.0,1.0,0.5635,0.0,9.0,9.0,9.0,1.0,,,,,,,,,,,,,,,
,,,,,,,,,,,,,,,,,,,,,,,,,,,,,,,,,,,,,,,,,,,poinsettia_04s.jpg,0.0,Yellow.png,2.0,9,,,,,,,,,,,,,,0.0,1.0,0.6307,0.0,10.0,10.0,10.0,1.0,,,,,,,,,,,,,,,
,,,,,,,,,,,,,,,,,,,,,,,,,,,,,,,,,,,,,,,,,,,funnel_01b.jpg,1.0,Green.png,2.0,9,,,,,,,,,,,,,,1.0,1.0,0.5454,0.0,11.0,11.0,11.0,1.0,,,,,,,,,,,,,,,
,,,,,,,,,,,,,,,,,,,,,,,,,,,,,,,,,,,,,,,,,,,rooster_03s.jpg,0.0,Blue.png,3.0,9,,,,,,,,,,,,,,0.0,1.0,0.5956,0.0,12.0,12.0,12.0,1.0,,,,,,,,,,,,,,,
,,,,,,,,,,,,,,,,,,,,,,,,,,,,,,,,,,,,,,,,,,,denture_03s.jpg,0.0,Purple.png,3.0,9,,,,,,,,,,,,,,0.0,1.0,0.5779,0.0,13.0,13.0,13.0,1.0,,,,,,,,,,,,,,,
,,,,,,,,,,,,,,,,,,,,,,,,,,,,,,,,,,,,,,,,,,,bean_06s.jpg,0.0,Red.png,3.0,9,,,,,,,,,,,,,,0.0,1.0,0.5932,0.0,14.0,14.0,14.0,1.0,,,,,,,,,,,,,,,
,,,,,,,,,,,,,,,,,,,,,,,,,,,,,,,,,,,,,,,,,,,mud_13s.jpg,0.0,Orange.png,3.0,9,,,,,,,,,,,,,,0.0,1.0,0.7624,0.0,15.0,15.0,15.0,1.0,,,,,,,,,,,,,,,
,,,,,,,,,,,,,,,,,,,,,,,,,,,,,,,,,,,,,,,,,,,keyhole_03s.jpg,0.0,Yellow.png,3.0,9,,,,,,,,,,,,,,0.0,1.0,0.578,0.0,16.0,16.0,16.0,1.0,,,,,,,,,,,,,,,
,,,,,,,,,,,,,,,,,,,,,,,,,,,,,,,,,,,,,,,,,,,bean_06s.jpg,0.0,Green.png,3.0,9,,,,,,,,,,,,,,0.0,1.0,0.6568,0.0,17.0,17.0,17.0,1.0,,,,,,,,,,,,,,,
,,,,,,,,,,,,,,,,,,,,,,,,,,,,,,,,,,,,,,,,,,,bank_06s.jpg,0.0,Blue.png,4.0,9,,,,,,,,,,,,,,0.0,1.0,0.9431,0.0,18.0,18.0,18.0,1.0,,,,,,,,,,,,,,,
,,,,,,,,,,,,,,,,,,,,,,,,,,,,,,,,,,,,,,,,,,,pomegranate_04s.jpg,0.0,Purple.png,4.0,9,,,,,,,,,,,,,,0.0,1.0,0.726,0.0,19.0,19.0,19.0,1.0,,,,,,,,,,,,,,,
,,,,,,,,,,,,,,,,,,,,,,,,,,,,,,,,,,,,,,,,,,,chopsticks_08s.jpg,0.0,Red.png,4.0,9,,,,,,,,,,,,,,0.0,1.0,0.6114,0.0,20.0,20.0,20.0,1.0,,,,,,,,,,,,,,,
,,,,,,,,,,,,,,,,,,,,,,,,,,,,,,,,,,,,,,,,,,,contact_lens_15s.jpg,0.0,Orange.png,4.0,9,,,,,,,,,,,,,,0.0,1.0,0.6507,0.0,21.0,21.0,21.0,1.0,,,,,,,,,,,,,,,
,,,,,,,,,,,,,,,,,,,,,,,,,,,,,,,,,,,,,,,,,,,hydrant_10s.jpg,0.0,Yellow.png,4.0,9,,,,,,,,,,,,,,0.0,1.0,0.5993,0.0,22.0,22.0,22.0,1.0,,,,,,,,,,,,,,,
,,,,,,,,,,,,,,,,,,,,,,,,,,,,,,,,,,,,,,,,,,,gingerbread_man_03s.jpg,0.0,Green.png,4.0,9,,,,,,,,,,,,,,0.0,1.0,0.6142,0.0,23.0,23.0,23.0,1.0,,,,,,,,,,,,,,,
,,,,,,,,,,,,,,,,,,,,,,,,,,,,,,,,,,,,,,,,,,,camcorder_10s.jpg,0.0,Blue.png,5.0,9,,,,,,,,,,,,,,0.0,1.0,0.8626,0.0,24.0,24.0,24.0,1.0,,,,,,,,,,,,,,,
,,,,,,,,,,,,,,,,,,,,,,,,,,,,,,,,,,,,,,,,,,,teabag_12s.jpg,0.0,Purple.png,5.0,9,,,,,,,,,,,,,,0.0,1.0,0.8021,0.0,25.0,25.0,25.0,1.0,,,,,,,,,,,,,,,
,,,,,,,,,,,,,,,,,,,,,,,,,,,,,,,,,,,,,,,,,,,radiator_05s.jpg,0.0,Red.png,5.0,9,,,,,,,,,,,,,,0.0,1.0,0.6876,0.0,26.0,26.0,26.0,1.0,,,,,,,,,,,,,,,
,,,,,,,,,,,,,,,,,,,,,,,,,,,,,,,,,,,,,,,,,,,punch1_10s.jpg,0.0,Orange.png,5.0,9,,,,,,,,,,,,,,0.0,1.0,0.7963,0.0,27.0,27.0,27.0,1.0,,,,,,,,,,,,,,,
,,,,,,,,,,,,,,,,,,,,,,,,,,,,,,,,,,,,,,,,,,,mailbox_11s.jpg,0.0,Yellow.png,5.0,9,,,,,,,,,,,,,,0.0,1.0,0.7784,0.0,28.0,28.0,28.0,1.0,,,,,,,,,,,,,,,
,,,,,,,,,,,,,,,,,,,,,,,,,,,,,,,,,,,,,,,,,,,beaker_01b.jpg,0.0,Green.png,5.0,9,,,,,,,,,,,,,,0.0,1.0,0.7483,0.0,29.0,29.0,29.0,1.0,,,,,,,,,,,,,,,
,,,,,,,,,,,,,,,,,,,,,,,,,,,,,,,,,,,,,,,,,,,mailbox_11s.jpg,1.0,Blue.png,6.0,9,,,,,,,,,,,,,,1.0,1.0,1.1652,0.0,30.0,30.0,30.0,1.0,,,,,,,,,,,,,,,
,,,,,,,,,,,,,,,,,,,,,,,,,,,,,,,,,,,,,,,,,,,pipe1_10s.jpg,0.0,Purple.png,6.0,9,,,,,,,,,,,,,,0.0,1.0,1.3502,0.0,31.0,31.0,31.0,1.0,,,,,,,,,,,,,,,
,,,,,,,,,,,,,,,,,,,,,,,,,,,,,,,,,,,,,,,,,,,mailbox_11s.jpg,1.0,Red.png,6.0,9,,,,,,,,,,,,,,1.0,1.0,0.5844,0.0,32.0,32.0,32.0,1.0,,,,,,,,,,,,,,,
,,,,,,,,,,,,,,,,,,,,,,,,,,,,,,,,,,,,,,,,,,,pipe1_10s.jpg,1.0,Orange.png,6.0,9,,,,,,,,,,,,,,1.0,1.0,0.5582,0.0,33.0,33.0,33.0,1.0,,,,,,,,,,,,,,,
,,,,,,,,,,,,,,,,,,,,,,,,,,,,,,,,,,,,,,,,,,,eyedropper_12s.jpg,0.0,Yellow.png,6.0,9,,,,,,,,,,,,,,0.0,1.0,0.6415,0.0,34.0,34.0,34.0,1.0,,,,,,,,,,,,,,,
,,,,,,,,,,,,,,,,,,,,,,,,,,,,,,,,,,,,,,,,,,,rhubarb_03s.jpg,0.0,Green.png,6.0,9,,,,,,,,,,,,,,0.0,1.0,0.6791,0.0,35.0,35.0,35.0,1.0,,,,,,,,,,,,,,,
,,,,,,,,,,,,,,,,,,,,,,,,,,,,,,,,,,,,,,,,,,,,0.0,,,9,,,,,,,,,,mud_13s.jpg,rooster_03s.jpg,,,,,,,,,,,0.0,1.0,4.3639,0.0,0.0,0.0,0.0,1.0,,,,,,,
,,,,,,,,,,,,,,,,,,,,,,,,,,,,,,,,,,,,,,,,,,,,1.0,,,9,,,,,,,,,,chopsticks_08s.jpg,gingerbread_man_03s.jpg,,,,,,,,,,,1.0,1.0,1.6048,0.0,1.0,1.0,1.0,1.0,,,,,,,
,,,,,,,,,,,,,,,,,,,,,,,,,,,,,,,,,,,,,,,,,,,,0.0,,,9,,,,,,,,,,beaker_01b.jpg,radiator_05s.jpg,,,,,,,,,,,0.0,1.0,1.806,0.0,2.0,2.0,2.0,1.0,,,,,,,
,,,,,,,,,,,,,,,,,,,,,,,,,,,,,,,,,,,,,,,,,,,,0.0,,,9,,,,,,,,,,teabag_12s.jpg,hydrant_10s.jpg,,,,,,,,,,,0.0,1.0,1.9847,0.0,3.0,3.0,3.0,1.0,,,,,,,
,,,,,,,,,,,,,,,,,,,,,,,,,,,,,,,,,,,,,,,,,,,,0.0,,,9,,,,,,,,,,denture_03s.jpg,poinsettia_04s.jpg,,,,,,,,,,,1.0,0.0,3.5387,0.0,4.0,4.0,4.0,1.0,,,,,,,
,,,,,,,,,,,,,,,,,,,,,,,,,,,,,,,,,,,,,,,,,,,,1.0,,,9,,,,,,,,,,kangaroo_02s.jpg,gear_07s.jpg,,,,,,,,,,,1.0,1.0,4.899,0.0,5.0,5.0,5.0,1.0,,,,,,,
,,,,,,,,,,,,,,,,,,,,,,,,,,,,,,,,,,,,,,,,,,,,,,,9,,,,,,,,,,,,,,,,,,,,,,,,,,,,,,0.0,6.0,6.0,6.0,1.0,new2backpresent_7_4.xlsx,new2back_compare_task_7_4.xlsx
,,,,,,,,,,,,,,,,,,,,,,,,,,,,,,,,,,,,,,,,,,,lamppost_09s.jpg,0.0,Blue.png,1.0,9,,,,,,,,,,,,,,0.0,1.0,0.6437,0.0,0.0,0.0,0.0,1.0,,,,,,,,,,,,,,,
,,,,,,,,,,,,,,,,,,,,,,,,,,,,,,,,,,,,,,,,,,,jewel_01b.jpg,0.0,Purple.png,1.0,9,,,,,,,,,,,,,,0.0,1.0,0.5998,0.0,1.0,1.0,1.0,1.0,,,,,,,,,,,,,,,
,,,,,,,,,,,,,,,,,,,,,,,,,,,,,,,,,,,,,,,,,,,tuxedo_01b.jpg,0.0,Red.png,1.0,9,,,,,,,,,,,,,,0.0,1.0,0.5771,0.0,2.0,2.0,2.0,1.0,,,,,,,,,,,,,,,
,,,,,,,,,,,,,,,,,,,,,,,,,,,,,,,,,,,,,,,,,,,flip_flop_03s.jpg,0.0,Orange.png,1.0,9,,,,,,,,,,,,,,0.0,1.0,0.6303,0.0,3.0,3.0,3.0,1.0,,,,,,,,,,,,,,,
,,,,,,,,,,,,,,,,,,,,,,,,,,,,,,,,,,,,,,,,,,,medal_04s.jpg,0.0,Yellow.png,1.0,9,,,,,,,,,,,,,,0.0,1.0,0.6461,0.0,4.0,4.0,4.0,1.0,,,,,,,,,,,,,,,
,,,,,,,,,,,,,,,,,,,,,,,,,,,,,,,,,,,,,,,,,,,flip_flop_03s.jpg,1.0,Green.png,1.0,9,,,,,,,,,,,,,,1.0,1.0,1.2533,0.0,5.0,5.0,5.0,1.0,,,,,,,,,,,,,,,
,,,,,,,,,,,,,,,,,,,,,,,,,,,,,,,,,,,,,,,,,,,tuxedo_01b.jpg,0.0,Blue.png,2.0,9,,,,,,,,,,,,,,0.0,1.0,0.8255,0.0,6.0,6.0,6.0,1.0,,,,,,,,,,,,,,,
,,,,,,,,,,,,,,,,,,,,,,,,,,,,,,,,,,,,,,,,,,,flip_flop_03s.jpg,1.0,Purple.png,2.0,9,,,,,,,,,,,,,,1.0,1.0,0.8291,0.0,7.0,7.0,7.0,1.0,,,,,,,,,,,,,,,
,,,,,,,,,,,,,,,,,,,,,,,,,,,,,,,,,,,,,,,,,,,fireworks_18s.jpg,0.0,Red.png,2.0,9,,,,,,,,,,,,,,0.0,1.0,0.7125,0.0,8.0,8.0,8.0,1.0,,,,,,,,,,,,,,,
,,,,,,,,,,,,,,,,,,,,,,,,,,,,,,,,,,,,,,,,,,,squirt_gun_03s.jpg,0.0,Orange.png,2.0,9,,,,,,,,,,,,,,0.0,1.0,0.612,0.0,9.0,9.0,9.0,1.0,,,,,,,,,,,,,,,
,,,,,,,,,,,,,,,,,,,,,,,,,,,,,,,,,,,,,,,,,,,flip_flop_03s.jpg,0.0,Yellow.png,2.0,9,,,,,,,,,,,,,,0.0,1.0,0.8006,0.0,10.0,10.0,10.0,1.0,,,,,,,,,,,,,,,
,,,,,,,,,,,,,,,,,,,,,,,,,,,,,,,,,,,,,,,,,,,puffin_19s.jpg,0.0,Green.png,2.0,9,,,,,,,,,,,,,,0.0,1.0,0.6139,0.0,11.0,11.0,11.0,1.0,,,,,,,,,,,,,,,
,,,,,,,,,,,,,,,,,,,,,,,,,,,,,,,,,,,,,,,,,,,tuxedo_01b.jpg,0.0,Blue.png,3.0,9,,,,,,,,,,,,,,0.0,1.0,0.8132,0.0,12.0,12.0,12.0,1.0,,,,,,,,,,,,,,,
,,,,,,,,,,,,,,,,,,,,,,,,,,,,,,,,,,,,,,,,,,,tuxedo_01b.jpg,0.0,Purple.png,3.0,9,,,,,,,,,,,,,,0.0,1.0,1.2129,0.0,13.0,13.0,13.0,1.0,,,,,,,,,,,,,,,
,,,,,,,,,,,,,,,,,,,,,,,,,,,,,,,,,,,,,,,,,,,snowman_02s.jpg,0.0,Red.png,3.0,9,,,,,,,,,,,,,,0.0,1.0,0.612,0.0,14.0,14.0,14.0,1.0,,,,,,,,,,,,,,,
,,,,,,,,,,,,,,,,,,,,,,,,,,,,,,,,,,,,,,,,,,,cucumber_07s.jpg,0.0,Orange.png,3.0,9,,,,,,,,,,,,,,0.0,1.0,0.5116,0.0,15.0,15.0,15.0,1.0,,,,,,,,,,,,,,,
,,,,,,,,,,,,,,,,,,,,,,,,,,,,,,,,,,,,,,,,,,,plug_08s.jpg,0.0,Yellow.png,3.0,9,,,,,,,,,,,,,,0.0,1.0,0.5296,0.0,16.0,16.0,16.0,1.0,,,,,,,,,,,,,,,
,,,,,,,,,,,,,,,,,,,,,,,,,,,,,,,,,,,,,,,,,,,cucumber_07s.jpg,1.0,Green.png,3.0,9,,,,,,,,,,,,,,1.0,1.0,0.669,0.0,17.0,17.0,17.0,1.0,,,,,,,,,,,,,,,
,,,,,,,,,,,,,,,,,,,,,,,,,,,,,,,,,,,,,,,,,,,puffin_19s.jpg,0.0,Blue.png,4.0,9,,,,,,,,,,,,,,0.0,1.0,0.5757,0.0,18.0,18.0,18.0,1.0,,,,,,,,,,,,,,,
,,,,,,,,,,,,,,,,,,,,,,,,,,,,,,,,,,,,,,,,,,,fondue_07s.jpg,0.0,Purple.png,4.0,9,,,,,,,,,,,,,,0.0,1.0,0.6131,0.0,19.0,19.0,19.0,1.0,,,,,,,,,,,,,,,
,,,,,,,,,,,,,,,,,,,,,,,,,,,,,,,,,,,,,,,,,,,lasagna_06s.jpg,0.0,Red.png,4.0,9,,,,,,,,,,,,,,0.0,1.0,0.6625,0.0,20.0,20.0,20.0,1.0,,,,,,,,,,,,,,,
,,,,,,,,,,,,,,,,,,,,,,,,,,,,,,,,,,,,,,,,,,,eiffeltower.jpg,0.0,Orange.png,4.0,9,,,,,,,,,,,,,,0.0,1.0,0.7185,0.0,21.0,21.0,21.0,1.0,,,,,,,,,,,,,,,
,,,,,,,,,,,,,,,,,,,,,,,,,,,,,,,,,,,,,,,,,,,outlet_10s.jpg,0.0,Yellow.png,4.0,9,,,,,,,,,,,,,,0.0,1.0,1.1224,0.0,22.0,22.0,22.0,1.0,,,,,,,,,,,,,,,
,,,,,,,,,,,,,,,,,,,,,,,,,,,,,,,,,,,,,,,,,,,cape_11s.jpg,0.0,Green.png,4.0,9,,,,,,,,,,,,,,0.0,1.0,1.1119,0.0,23.0,23.0,23.0,1.0,,,,,,,,,,,,,,,
,,,,,,,,,,,,,,,,,,,,,,,,,,,,,,,,,,,,,,,,,,,marshmallow_08s.jpg,0.0,Blue.png,5.0,9,,,,,,,,,,,,,,0.0,1.0,1.3507,0.0,24.0,24.0,24.0,1.0,,,,,,,,,,,,,,,
,,,,,,,,,,,,,,,,,,,,,,,,,,,,,,,,,,,,,,,,,,,racehorse_03s.jpg,0.0,Purple.png,5.0,9,,,,,,,,,,,,,,0.0,1.0,1.3989,0.0,25.0,25.0,25.0,1.0,,,,,,,,,,,,,,,
,,,,,,,,,,,,,,,,,,,,,,,,,,,,,,,,,,,,,,,,,,,aluminum_foil_08s.jpg,0.0,Red.png,5.0,9,,,,,,,,,,,,,,0.0,1.0,1.105,0.0,26.0,26.0,26.0,1.0,,,,,,,,,,,,,,,
,,,,,,,,,,,,,,,,,,,,,,,,,,,,,,,,,,,,,,,,,,,spoon02a.jpg,0.0,Orange.png,5.0,9,,,,,,,,,,,,,,0.0,1.0,0.7467,0.0,27.0,27.0,27.0,1.0,,,,,,,,,,,,,,,
,,,,,,,,,,,,,,,,,,,,,,,,,,,,,,,,,,,,,,,,,,,padlock_07s.jpg,0.0,Yellow.png,5.0,9,,,,,,,,,,,,,,0.0,1.0,0.7618,0.0,28.0,28.0,28.0,1.0,,,,,,,,,,,,,,,
,,,,,,,,,,,,,,,,,,,,,,,,,,,,,,,,,,,,,,,,,,,solar_panel_02s.jpg,0.0,Green.png,5.0,9,,,,,,,,,,,,,,0.0,1.0,0.6432,0.0,29.0,29.0,29.0,1.0,,,,,,,,,,,,,,,
,,,,,,,,,,,,,,,,,,,,,,,,,,,,,,,,,,,,,,,,,,,turtleneck_11s.jpg,0.0,Blue.png,6.0,9,,,,,,,,,,,,,,0.0,1.0,0.5466,0.0,30.0,30.0,30.0,1.0,,,,,,,,,,,,,,,
,,,,,,,,,,,,,,,,,,,,,,,,,,,,,,,,,,,,,,,,,,,pocketknife_12s.jpg,0.0,Purple.png,6.0,9,,,,,,,,,,,,,,0.0,1.0,0.7692,0.0,31.0,31.0,31.0,1.0,,,,,,,,,,,,,,,
,,,,,,,,,,,,,,,,,,,,,,,,,,,,,,,,,,,,,,,,,,,pocketknife_12s.jpg,0.0,Red.png,6.0,9,,,,,,,,,,,,,,0.0,1.0,0.9372,0.0,32.0,32.0,32.0,1.0,,,,,,,,,,,,,,,
,,,,,,,,,,,,,,,,,,,,,,,,,,,,,,,,,,,,,,,,,,,quill_09s.jpg,0.0,Orange.png,6.0,9,,,,,,,,,,,,,,0.0,1.0,0.5945,0.0,33.0,33.0,33.0,1.0,,,,,,,,,,,,,,,
,,,,,,,,,,,,,,,,,,,,,,,,,,,,,,,,,,,,,,,,,,,quill_09s.jpg,0.0,Yellow.png,6.0,9,,,,,,,,,,,,,,0.0,1.0,0.6409,0.0,34.0,34.0,34.0,1.0,,,,,,,,,,,,,,,
,,,,,,,,,,,,,,,,,,,,,,,,,,,,,,,,,,,,,,,,,,,pocketknife_12s.jpg,0.0,Green.png,6.0,9,,,,,,,,,,,,,,0.0,1.0,1.3192,0.0,35.0,35.0,35.0,1.0,,,,,,,,,,,,,,,
,,,,,,,,,,,,,,,,,,,,,,,,,,,,,,,,,,,,,,,,,,,,0.0,,,9,,,,,,,,,,cape_11s.jpg,lasagna_06s.jpg,,,,,,,,,,,0.0,1.0,2.3583,0.0,0.0,0.0,0.0,1.0,,,,,,,
,,,,,,,,,,,,,,,,,,,,,,,,,,,,,,,,,,,,,,,,,,,,0.0,,,9,,,,,,,,,,padlock_07s.jpg,racehorse_03s.jpg,,,,,,,,,,,0.0,1.0,3.8581,0.0,1.0,1.0,1.0,1.0,,,,,,,
,,,,,,,,,,,,,,,,,,,,,,,,,,,,,,,,,,,,,,,,,,,,1.0,,,9,,,,,,,,,,spoon02a.jpg,turtleneck_11s.jpg,,,,,,,,,,,1.0,1.0,1.6957,0.0,2.0,2.0,2.0,1.0,,,,,,,
,,,,,,,,,,,,,,,,,,,,,,,,,,,,,,,,,,,,,,,,,,,,0.0,,,9,,,,,,,,,,marshmallow_08s.jpg,eiffeltower.jpg,,,,,,,,,,,0.0,1.0,3.356,0.0,3.0,3.0,3.0,1.0,,,,,,,
,,,,,,,,,,,,,,,,,,,,,,,,,,,,,,,,,,,,,,,,,,,,0.0,,,9,,,,,,,,,,medal_04s.jpg,jewel_01b.jpg,,,,,,,,,,,0.0,1.0,1.7182,0.0,4.0,4.0,4.0,1.0,,,,,,,
,,,,,,,,,,,,,,,,,,,,,,,,,,,,,,,,,,,,,,,,,,,,1.0,,,9,,,,,,,,,,plug_08s.jpg,fondue_07s.jpg,,,,,,,,,,,1.0,1.0,2.3452,0.0,5.0,5.0,5.0,1.0,,,,,,,
,,,,,,,,,,,,,,,,,,,,,,,,,,,,,,,,,,,,,,,,,,,,,,,9,,,,,,,,,,,,,,,,,,,,,,,,,,,,,,0.0,7.0,7.0,7.0,1.0,new2backpresent_8_4.xlsx,new2back_compare_task_8_4.xlsx
,,,,,,,,,,,,,,,,,,,,,,,,,,,,,,,,,,,,,,,,,,,footprint_11s.jpg,0.0,Blue.png,1.0,9,,,,,,,,,,,,,,0.0,1.0,0.8709,0.0,0.0,0.0,0.0,1.0,,,,,,,,,,,,,,,
,,,,,,,,,,,,,,,,,,,,,,,,,,,,,,,,,,,,,,,,,,,coffee_filter_10s.jpg,0.0,Purple.png,1.0,9,,,,,,,,,,,,,,0.0,1.0,0.545,0.0,1.0,1.0,1.0,1.0,,,,,,,,,,,,,,,
,,,,,,,,,,,,,,,,,,,,,,,,,,,,,,,,,,,,,,,,,,,coffee_filter_10s.jpg,0.0,Red.png,1.0,9,,,,,,,,,,,,,,0.0,1.0,0.716,0.0,2.0,2.0,2.0,1.0,,,,,,,,,,,,,,,
,,,,,,,,,,,,,,,,,,,,,,,,,,,,,,,,,,,,,,,,,,,coffee_filter_10s.jpg,1.0,Orange.png,1.0,9,,,,,,,,,,,,,,1.0,1.0,0.4371,0.0,3.0,3.0,3.0,1.0,,,,,,,,,,,,,,,
,,,,,,,,,,,,,,,,,,,,,,,,,,,,,,,,,,,,,,,,,,,coffee_filter_10s.jpg,1.0,Yellow.png,1.0,9,,,,,,,,,,,,,,1.0,1.0,0.4443,0.0,4.0,4.0,4.0,1.0,,,,,,,,,,,,,,,
,,,,,,,,,,,,,,,,,,,,,,,,,,,,,,,,,,,,,,,,,,,gargoyle_08s.jpg,0.0,Green.png,1.0,9,,,,,,,,,,,,,,0.0,1.0,0.6267,0.0,5.0,5.0,5.0,1.0,,,,,,,,,,,,,,,
,,,,,,,,,,,,,,,,,,,,,,,,,,,,,,,,,,,,,,,,,,,candy_cane_06s.jpg,0.0,Blue.png,2.0,9,,,,,,,,,,,,,,0.0,1.0,0.6779,0.0,6.0,6.0,6.0,1.0,,,,,,,,,,,,,,,
,,,,,,,,,,,,,,,,,,,,,,,,,,,,,,,,,,,,,,,,,,,toad_09s.jpg,0.0,Purple.png,2.0,9,,,,,,,,,,,,,,0.0,1.0,0.6946,0.0,7.0,7.0,7.0,1.0,,,,,,,,,,,,,,,
,,,,,,,,,,,,,,,,,,,,,,,,,,,,,,,,,,,,,,,,,,,candy_cane_06s.jpg,1.0,Red.png,2.0,9,,,,,,,,,,,,,,1.0,1.0,1.1827,0.0,8.0,8.0,8.0,1.0,,,,,,,,,,,,,,,
,,,,,,,,,,,,,,,,,,,,,,,,,,,,,,,,,,,,,,,,,,,pumpkin_03s.jpg,0.0,Orange.png,2.0,9,,,,,,,,,,,,,,0.0,1.0,0.66,0.0,9.0,9.0,9.0,1.0,,,,,,,,,,,,,,,
,,,,,,,,,,,,,,,,,,,,,,,,,,,,,,,,,,,,,,,,,,,dashboard_02s.jpg,0.0,Yellow.png,2.0,9,,,,,,,,,,,,,,0.0,1.0,0.8785,0.0,10.0,10.0,10.0,1.0,,,,,,,,,,,,,,,
,,,,,,,,,,,,,,,,,,,,,,,,,,,,,,,,,,,,,,,,,,,syringe_02s.jpg,0.0,Green.png,2.0,9,,,,,,,,,,,,,,0.0,1.0,0.5089,0.0,11.0,11.0,11.0,1.0,,,,,,,,,,,,,,,
,,,,,,,,,,,,,,,,,,,,,,,,,,,,,,,,,,,,,,,,,,,powder_07s.jpg,0.0,Blue.png,3.0,9,,,,,,,,,,,,,,0.0,1.0,0.7531,0.0,12.0,12.0,12.0,1.0,,,,,,,,,,,,,,,
,,,,,,,,,,,,,,,,,,,,,,,,,,,,,,,,,,,,,,,,,,,powder_07s.jpg,0.0,Purple.png,3.0,9,,,,,,,,,,,,,,0.0,1.0,0.6775,0.0,13.0,13.0,13.0,1.0,,,,,,,,,,,,,,,
,,,,,,,,,,,,,,,,,,,,,,,,,,,,,,,,,,,,,,,,,,,powder_07s.jpg,1.0,Red.png,3.0,9,,,,,,,,,,,,,,1.0,1.0,1.0807,0.0,14.0,14.0,14.0,1.0,,,,,,,,,,,,,,,
,,,,,,,,,,,,,,,,,,,,,,,,,,,,,,,,,,,,,,,,,,,sea_urchin_09s.jpg,0.0,Orange.png,3.0,9,,,,,,,,,,,,,,0.0,1.0,0.9369,0.0,15.0,15.0,15.0,1.0,,,,,,,,,,,,,,,
,,,,,,,,,,,,,,,,,,,,,,,,,,,,,,,,,,,,,,,,,,,throne_11s.jpg,0.0,Yellow.png,3.0,9,,,,,,,,,,,,,,0.0,1.0,0.6792,0.0,16.0,16.0,16.0,1.0,,,,,,,,,,,,,,,
,,,,,,,,,,,,,,,,,,,,,,,,,,,,,,,,,,,,,,,,,,,powder_07s.jpg,0.0,Green.png,3.0,9,,,,,,,,,,,,,,0.0,1.0,1.2112,0.0,17.0,17.0,17.0,1.0,,,,,,,,,,,,,,,
,,,,,,,,,,,,,,,,,,,,,,,,,,,,,,,,,,,,,,,,,,,chalice_10s.jpg,0.0,Blue.png,4.0,9,,,,,,,,,,,,,,0.0,1.0,0.8617,0.0,18.0,18.0,18.0,1.0,,,,,,,,,,,,,,,
,,,,,,,,,,,,,,,,,,,,,,,,,,,,,,,,,,,,,,,,,,,air_pump_05s.jpg,0.0,Purple.png,4.0,9,,,,,,,,,,,,,,0.0,1.0,0.7276,0.0,19.0,19.0,19.0,1.0,,,,,,,,,,,,,,,
,,,,,,,,,,,,,,,,,,,,,,,,,,,,,,,,,,,,,,,,,,,microwave_02s.jpg,0.0,Red.png,4.0,9,,,,,,,,,,,,,,0.0,1.0,0.8196,0.0,20.0,20.0,20.0,1.0,,,,,,,,,,,,,,,
,,,,,,,,,,,,,,,,,,,,,,,,,,,,,,,,,,,,,,,,,,,cereal_04s.jpg,0.0,Orange.png,4.0,9,,,,,,,,,,,,,,0.0,1.0,0.6494,0.0,21.0,21.0,21.0,1.0,,,,,,,,,,,,,,,
,,,,,,,,,,,,,,,,,,,,,,,,,,,,,,,,,,,,,,,,,,,mushroom_10n.jpg,0.0,Yellow.png,4.0,9,,,,,,,,,,,,,,0.0,1.0,0.7123,0.0,22.0,22.0,22.0,1.0,,,,,,,,,,,,,,,
,,,,,,,,,,,,,,,,,,,,,,,,,,,,,,,,,,,,,,,,,,,red_carpet_03s.jpg,0.0,Green.png,4.0,9,,,,,,,,,,,,,,0.0,1.0,0.627,0.0,23.0,23.0,23.0,1.0,,,,,,,,,,,,,,,
,,,,,,,,,,,,,,,,,,,,,,,,,,,,,,,,,,,,,,,,,,,throne_11s.jpg,0.0,Blue.png,5.0,9,,,,,,,,,,,,,,0.0,1.0,0.5938,0.0,24.0,24.0,24.0,1.0,,,,,,,,,,,,,,,
,,,,,,,,,,,,,,,,,,,,,,,,,,,,,,,,,,,,,,,,,,,koala_13s.jpg,0.0,Purple.png,5.0,9,,,,,,,,,,,,,,0.0,1.0,0.6369,0.0,25.0,25.0,25.0,1.0,,,,,,,,,,,,,,,
,,,,,,,,,,,,,,,,,,,,,,,,,,,,,,,,,,,,,,,,,,,throne_11s.jpg,1.0,Red.png,5.0,9,,,,,,,,,,,,,,1.0,1.0,0.9302,0.0,26.0,26.0,26.0,1.0,,,,,,,,,,,,,,,
,,,,,,,,,,,,,,,,,,,,,,,,,,,,,,,,,,,,,,,,,,,rocket_02s.jpg,0.0,Orange.png,5.0,9,,,,,,,,,,,,,,0.0,1.0,0.6937,0.0,27.0,27.0,27.0,1.0,,,,,,,,,,,,,,,
,,,,,,,,,,,,,,,,,,,,,,,,,,,,,,,,,,,,,,,,,,,swordfish_05s.jpg,0.0,Yellow.png,5.0,9,,,,,,,,,,,,,,0.0,1.0,0.7277,0.0,28.0,28.0,28.0,1.0,,,,,,,,,,,,,,,
,,,,,,,,,,,,,,,,,,,,,,,,,,,,,,,,,,,,,,,,,,,rocket_02s.jpg,1.0,Green.png,5.0,9,,,,,,,,,,,,,,1.0,1.0,1.2488,0.0,29.0,29.0,29.0,1.0,,,,,,,,,,,,,,,
,,,,,,,,,,,,,,,,,,,,,,,,,,,,,,,,,,,,,,,,,,,icicle_04s.jpg,0.0,Blue.png,6.0,9,,,,,,,,,,,,,,0.0,1.0,0.6345,0.0,30.0,30.0,30.0,1.0,,,,,,,,,,,,,,,
,,,,,,,,,,,,,,,,,,,,,,,,,,,,,,,,,,,,,,,,,,,keyboard_05s.jpg,0.0,Purple.png,6.0,9,,,,,,,,,,,,,,0.0,1.0,0.7787,0.0,31.0,31.0,31.0,1.0,,,,,,,,,,,,,,,
,,,,,,,,,,,,,,,,,,,,,,,,,,,,,,,,,,,,,,,,,,,pocket_watch_16s.jpg,0.0,Red.png,6.0,9,,,,,,,,,,,,,,0.0,1.0,1.5319,0.0,32.0,32.0,32.0,1.0,,,,,,,,,,,,,,,
,,,,,,,,,,,,,,,,,,,,,,,,,,,,,,,,,,,,,,,,,,,tablet_04s.jpg,0.0,Orange.png,6.0,9,,,,,,,,,,,,,,0.0,1.0,0.7172,0.0,33.0,33.0,33.0,1.0,,,,,,,,,,,,,,,
,,,,,,,,,,,,,,,,,,,,,,,,,,,,,,,,,,,,,,,,,,,chocolate_01b.jpg,0.0,Yellow.png,6.0,9,,,,,,,,,,,,,,0.0,1.0,0.7748,0.0,34.0,34.0,34.0,1.0,,,,,,,,,,,,,,,
,,,,,,,,,,,,,,,,,,,,,,,,,,,,,,,,,,,,,,,,,,,light_switch_02s.jpg,0.0,Green.png,6.0,9,,,,,,,,,,,,,,0.0,1.0,0.6446,0.0,35.0,35.0,35.0,1.0,,,,,,,,,,,,,,,
,,,,,,,,,,,,,,,,,,,,,,,,,,,,,,,,,,,,,,,,,,,,0.0,,,9,,,,,,,,,,chalice_10s.jpg,sea_urchin_09s.jpg,,,,,,,,,,,1.0,0.0,6.5572,0.0,0.0,0.0,0.0,1.0,,,,,,,
,,,,,,,,,,,,,,,,,,,,,,,,,,,,,,,,,,,,,,,,,,,,1.0,,,9,,,,,,,,,,swordfish_05s.jpg,keyboard_05s.jpg,,,,,,,,,,,1.0,1.0,3.994,0.0,1.0,1.0,1.0,1.0,,,,,,,
,,,,,,,,,,,,,,,,,,,,,,,,,,,,,,,,,,,,,,,,,,,,0.0,,,9,,,,,,,,,,red_carpet_03s.jpg,microwave_02s.jpg,,,,,,,,,,,1.0,0.0,2.2696,0.0,2.0,2.0,2.0,1.0,,,,,,,
,,,,,,,,,,,,,,,,,,,,,,,,,,,,,,,,,,,,,,,,,,,,0.0,,,9,,,,,,,,,,dashboard_02s.jpg,toad_09s.jpg,,,,,,,,,,,1.0,0.0,3.9469,0.0,3.0,3.0,3.0,1.0,,,,,,,
,,,,,,,,,,,,,,,,,,,,,,,,,,,,,,,,,,,,,,,,,,,,0.0,,,9,,,,,,,,,,koala_13s.jpg,mushroom_10n.jpg,,,,,,,,,,,1.0,0.0,2.0845,0.0,4.0,4.0,4.0,1.0,,,,,,,
,,,,,,,,,,,,,,,,,,,,,,,,,,,,,,,,,,,,,,,,,,,,1.0,,,9,,,,,,,,,,icicle_04s.jpg,tablet_04s.jpg,,,,,,,,,,,1.0,1.0,2.0321,0.0,5.0,5.0,5.0,1.0,,,,,,,
,,,,,,,,,,,,,,,,,,,,,,,,,,,,,,,,,,,,,,,,,,,,,,,9,,,,,,,,,,,,,,,,,,,,,,,,,,,,,,0.0,8.0,8.0,8.0,1.0,new2backpresent_9_4.xlsx,new2back_compare_task_9_4.xlsx
