key_resp_3.keys,key_resp_3.rt,key_resp_4.keys,key_resp_4.rt,key_resp_5.keys,key_resp_5.rt,key_resp_6.keys,key_resp_6.rt,key_resp_7.keys,key_resp_7.rt,key_resp_8.keys,key_resp_8.rt,key_resp_9.keys,key_resp_9.rt,key_resp_10.keys,key_resp_10.rt,key_resp_11.keys,key_resp_11.rt,key_resp_12.keys,key_resp_12.rt,key_resp_13.keys,key_resp_13.rt,key_resp_14.keys,key_resp_14.rt,key_resp_15.keys,key_resp_15.rt,key_resp_16.keys,key_resp_16.rt,key_resp_17.keys,key_resp_17.rt,key_resp_18.keys,key_resp_18.rt,key_resp_19.keys,key_resp_19.rt,key_resp_20.keys,key_resp_20.rt,key_resp_21.keys,key_resp_21.corr,trials.thisRepN,trials.thisTrialN,trials.thisN,trials.thisIndex,trials.ran,pictures,answer,clock,segment,participant,key_resp_21.rt,key_resp_22.keys,key_resp_22.corr,key_resp_22.rt,trials_2.thisRepN,trials_2.thisTrialN,trials_2.thisN,trials_2.thisIndex,trials_2.ran,item_a,item_b,key_resp_23.keys,key_resp_23.rt,key_resp.keys,key_resp.corr,key_resp.rt,present_segment.thisRepN,present_segment.thisTrialN,present_segment.thisN,present_segment.thisIndex,present_segment.ran,key_resp_2.keys,key_resp_2.corr,key_resp_2.rt,compare_segment.thisRepN,compare_segment.thisTrialN,compare_segment.thisN,compare_segment.thisIndex,compare_segment.ran,clock_conditions.thisRepN,clock_conditions.thisTrialN,clock_conditions.thisN,clock_conditions.thisIndex,clock_conditions.ran,present,compare
space,48.4596,space,2.8447,0.0,7.8609,0.0,1.6512,1.0,1.0051,0.0,2.5242,0.0,2.9548,0.0,11.5143,0.0,6.4217,0.0,2.2554,1.0,6.9413,0.0,2.6701,0.0,2.0189,0.0,1.1875,space,18.6423,1.0,5.3235,0.0,7.1624,space,5.6078,,0.0,0.0,0.0,0.0,0.0,1.0,whipped_cream_02s.jpg,0.0,Blue.png,1.0,30,,,,,,,,,,,,,,,,,,,,,,,,,,,,,,,,,,,,
,,,,,,,,,,,,,,,,,,,,,,,,,,,,,,,,,,,,0.0,1.0,0.0,1.0,1.0,1.0,1.0,sheep_02s.jpg,0.0,Purple.png,1.0,30,1.4677,,,,,,,,,,,,,,,,,,,,,,,,,,,,,,,,,,,
,,,,,,,,,,,,,,,,,,,,,,,,,,,,,,,,,,,,0.0,1.0,0.0,2.0,2.0,2.0,1.0,sheep_02s.jpg,0.0,Red.png,1.0,30,1.7055,,,,,,,,,,,,,,,,,,,,,,,,,,,,,,,,,,,
,,,,,,,,,,,,,,,,,,,,,,,,,,,,,,,,,,,,0.0,1.0,0.0,3.0,3.0,3.0,1.0,sequin_02s.jpg,0.0,Orange.png,1.0,30,1.7144,,,,,,,,,,,,,,,,,,,,,,,,,,,,,,,,,,,
,,,,,,,,,,,,,,,,,,,,,,,,,,,,,,,,,,,,1.0,1.0,0.0,4.0,4.0,4.0,1.0,sheep_02s.jpg,1.0,Yellow.png,1.0,30,1.2403,,,,,,,,,,,,,,,,,,,,,,,,,,,,,,,,,,,
,,,,,,,,,,,,,,,,,,,,,,,,,,,,,,,,,,,,0.0,1.0,0.0,5.0,5.0,5.0,1.0,scoop_05s.jpg,0.0,Green.png,1.0,30,1.0154,,,,,,,,,,,,,,,,,,,,,,,,,,,,,,,,,,,
,,,,,,,,,,,,,,,,,,,,,,,,,,,,,,,,,,,,0.0,1.0,0.0,6.0,6.0,6.0,1.0,wagon_12s.jpg,0.0,Blue.png,2.0,30,1.1864,,,,,,,,,,,,,,,,,,,,,,,,,,,,,,,,,,,
,,,,,,,,,,,,,,,,,,,,,,,,,,,,,,,,,,,,0.0,1.0,0.0,7.0,7.0,7.0,1.0,scrabble_05s.jpg,0.0,Purple.png,2.0,30,0.8654,,,,,,,,,,,,,,,,,,,,,,,,,,,,,,,,,,,
,,,,,,,,,,,,,,,,,,,,,,,,,,,,,,,,,,,,1.0,1.0,0.0,8.0,8.0,8.0,1.0,wagon_12s.jpg,1.0,Red.png,2.0,30,1.711,,,,,,,,,,,,,,,,,,,,,,,,,,,,,,,,,,,
,,,,,,,,,,,,,,,,,,,,,,,,,,,,,,,,,,,,1.0,1.0,0.0,9.0,9.0,9.0,1.0,scrabble_05s.jpg,1.0,Orange.png,2.0,30,1.783,,,,,,,,,,,,,,,,,,,,,,,,,,,,,,,,,,,
,,,,,,,,,,,,,,,,,,,,,,,,,,,,,,,,,,,,0.0,1.0,0.0,10.0,10.0,10.0,1.0,weasel_08s.jpg,0.0,Yellow.png,2.0,30,0.8673,,,,,,,,,,,,,,,,,,,,,,,,,,,,,,,,,,,
,,,,,,,,,,,,,,,,,,,,,,,,,,,,,,,,,,,,0.0,1.0,0.0,11.0,11.0,11.0,1.0,scooter_06s.jpg,0.0,Green.png,2.0,30,0.8933,,,,,,,,,,,,,,,,,,,,,,,,,,,,,,,,,,,
,,,,,,,,,,,,,,,,,,,,,,,,,,,,,,,,,,,,0.0,1.0,0.0,12.0,12.0,12.0,1.0,wetsuit_04s.jpg,0.0,Blue.png,3.0,30,0.7075,,,,,,,,,,,,,,,,,,,,,,,,,,,,,,,,,,,
,,,,,,,,,,,,,,,,,,,,,,,,,,,,,,,,,,,,0.0,1.0,0.0,13.0,13.0,13.0,1.0,wetsuit_04s.jpg,0.0,Purple.png,3.0,30,1.6503,,,,,,,,,,,,,,,,,,,,,,,,,,,,,,,,,,,
,,,,,,,,,,,,,,,,,,,,,,,,,,,,,,,,,,,,1.0,1.0,0.0,14.0,14.0,14.0,1.0,wetsuit_04s.jpg,1.0,Red.png,3.0,30,1.4591,,,,,,,,,,,,,,,,,,,,,,,,,,,,,,,,,,,
,,,,,,,,,,,,,,,,,,,,,,,,,,,,,,,,,,,,0.0,1.0,0.0,15.0,15.0,15.0,1.0,water_fountain_01b.jpg,0.0,Orange.png,3.0,30,0.8904,,,,,,,,,,,,,,,,,,,,,,,,,,,,,,,,,,,
,,,,,,,,,,,,,,,,,,,,,,,,,,,,,,,,,,,,0.0,1.0,0.0,16.0,16.0,16.0,1.0,waffle_iron_11s.jpg,0.0,Yellow.png,3.0,30,1.1082,,,,,,,,,,,,,,,,,,,,,,,,,,,,,,,,,,,
,,,,,,,,,,,,,,,,,,,,,,,,,,,,,,,,,,,,0.0,1.0,0.0,17.0,17.0,17.0,1.0,wing_08s.jpg,0.0,Green.png,3.0,30,1.779,,,,,,,,,,,,,,,,,,,,,,,,,,,,,,,,,,,
,,,,,,,,,,,,,,,,,,,,,,,,,,,,,,,,,,,,0.0,1.0,0.0,18.0,18.0,18.0,1.0,shield_02s.jpg,0.0,Blue.png,4.0,30,0.9961,,,,,,,,,,,,,,,,,,,,,,,,,,,,,,,,,,,
,,,,,,,,,,,,,,,,,,,,,,,,,,,,,,,,,,,,0.0,1.0,0.0,19.0,19.0,19.0,1.0,shovel_09s.jpg,0.0,Purple.png,4.0,30,0.7691,,,,,,,,,,,,,,,,,,,,,,,,,,,,,,,,,,,
,,,,,,,,,,,,,,,,,,,,,,,,,,,,,,,,,,,,0.0,1.0,0.0,20.0,20.0,20.0,1.0,watch_09s.jpg,0.0,Red.png,4.0,30,1.0246,,,,,,,,,,,,,,,,,,,,,,,,,,,,,,,,,,,
,,,,,,,,,,,,,,,,,,,,,,,,,,,,,,,,,,,,1.0,1.0,0.0,21.0,21.0,21.0,1.0,shovel_09s.jpg,1.0,Orange.png,4.0,30,1.4612,,,,,,,,,,,,,,,,,,,,,,,,,,,,,,,,,,,
,,,,,,,,,,,,,,,,,,,,,,,,,,,,,,,,,,,,0.0,1.0,0.0,22.0,22.0,22.0,1.0,shovel_09s.jpg,0.0,Yellow.png,4.0,30,1.4052,,,,,,,,,,,,,,,,,,,,,,,,,,,,,,,,,,,
,,,,,,,,,,,,,,,,,,,,,,,,,,,,,,,,,,,,0.0,1.0,0.0,23.0,23.0,23.0,1.0,watering_can_14s.jpg,0.0,Green.png,4.0,30,0.907,,,,,,,,,,,,,,,,,,,,,,,,,,,,,,,,,,,
,,,,,,,,,,,,,,,,,,,,,,,,,,,,,,,,,,,,0.0,1.0,0.0,24.0,24.0,24.0,1.0,wasp_13n.jpg,0.0,Blue.png,5.0,30,1.5161,,,,,,,,,,,,,,,,,,,,,,,,,,,,,,,,,,,
,,,,,,,,,,,,,,,,,,,,,,,,,,,,,,,,,,,,0.0,1.0,0.0,25.0,25.0,25.0,1.0,shoelace_13s.jpg,0.0,Purple.png,5.0,30,1.6512,,,,,,,,,,,,,,,,,,,,,,,,,,,,,,,,,,,
,,,,,,,,,,,,,,,,,,,,,,,,,,,,,,,,,,,,0.0,1.0,0.0,26.0,26.0,26.0,1.0,scarf_16s.jpg,0.0,Red.png,5.0,30,1.099,,,,,,,,,,,,,,,,,,,,,,,,,,,,,,,,,,,
,,,,,,,,,,,,,,,,,,,,,,,,,,,,,,,,,,,,0.0,1.0,0.0,27.0,27.0,27.0,1.0,screwdriver_07s.jpg,0.0,Orange.png,5.0,30,1.6916,,,,,,,,,,,,,,,,,,,,,,,,,,,,,,,,,,,
,,,,,,,,,,,,,,,,,,,,,,,,,,,,,,,,,,,,0.0,1.0,0.0,28.0,28.0,28.0,1.0,drink_05s.jpg,0.0,Yellow.png,5.0,30,1.7145,,,,,,,,,,,,,,,,,,,,,,,,,,,,,,,,,,,
,,,,,,,,,,,,,,,,,,,,,,,,,,,,,,,,,,,,1.0,1.0,0.0,29.0,29.0,29.0,1.0,screwdriver_07s.jpg,1.0,Green.png,5.0,30,1.5857,,,,,,,,,,,,,,,,,,,,,,,,,,,,,,,,,,,
,,,,,,,,,,,,,,,,,,,,,,,,,,,,,,,,,,,,0.0,1.0,0.0,30.0,30.0,30.0,1.0,seaweed_07s.jpg,0.0,Blue.png,6.0,30,1.6287,,,,,,,,,,,,,,,,,,,,,,,,,,,,,,,,,,,
,,,,,,,,,,,,,,,,,,,,,,,,,,,,,,,,,,,,0.0,1.0,0.0,31.0,31.0,31.0,1.0,saxophone_04s.jpg,0.0,Purple.png,6.0,30,2.0683,,,,,,,,,,,,,,,,,,,,,,,,,,,,,,,,,,,
,,,,,,,,,,,,,,,,,,,,,,,,,,,,,,,,,,,,,0.0,0.0,32.0,32.0,32.0,1.0,saxophone_04s.jpg,0.0,Red.png,6.0,30,,,,,,,,,,,,,,,,,,,,,,,,,,,,,,,,,,,,
,,,,,,,,,,,,,,,,,,,,,,,,,,,,,,,,,,,,0.0,1.0,0.0,33.0,33.0,33.0,1.0,scorpion_01b.jpg,0.0,Orange.png,6.0,30,1.0456,,,,,,,,,,,,,,,,,,,,,,,,,,,,,,,,,,,
,,,,,,,,,,,,,,,,,,,,,,,,,,,,,,,,,,,,1.0,1.0,0.0,34.0,34.0,34.0,1.0,saxophone_04s.jpg,1.0,Yellow.png,6.0,30,1.7995,,,,,,,,,,,,,,,,,,,,,,,,,,,,,,,,,,,
,,,,,,,,,,,,,,,,,,,,,,,,,,,,,,,,,,,,0.0,1.0,0.0,35.0,35.0,35.0,1.0,saxophone_04s.jpg,0.0,Green.png,6.0,30,1.8044,,,,,,,,,,,,,,,,,,,,,,,,,,,,,,,,,,,
,,,,,,,,,,,,,,,,,,,,,,,,,,,,,,,,,,,,,,,,,,,,1.0,,,30,,0.0,0.0,5.2983,0.0,0.0,0.0,0.0,1.0,water_fountain_01b.jpg,shield_02s.jpg,,,,,,,,,,,,,,,,,,,,,,,,,
,,,,,,,,,,,,,,,,,,,,,,,,,,,,,,,,,,,,,,,,,,,,0.0,,,30,,1.0,0.0,2.8091,0.0,1.0,1.0,1.0,1.0,watch_09s.jpg,wing_08s.jpg,,,,,,,,,,,,,,,,,,,,,,,,,
,,,,,,,,,,,,,,,,,,,,,,,,,,,,,,,,,,,,,,,,,,,,1.0,,,30,,1.0,1.0,5.1752,0.0,2.0,2.0,2.0,1.0,watering_can_14s.jpg,scarf_16s.jpg,,,,,,,,,,,,,,,,,,,,,,,,,
,,,,,,,,,,,,,,,,,,,,,,,,,,,,,,,,,,,,,,,,,,,,1.0,,,30,,1.0,1.0,2.1412,0.0,3.0,3.0,3.0,1.0,whipped_cream_02s.jpg,sequin_02s.jpg,,,,,,,,,,,,,,,,,,,,,,,,,
,,,,,,,,,,,,,,,,,,,,,,,,,,,,,,,,,,,,,,,,,,,,0.0,,,30,,1.0,0.0,2.4439,0.0,4.0,4.0,4.0,1.0,drink_05s.jpg,shoelace_13s.jpg,,,,,,,,,,,,,,,,,,,,,,,,,
,,,,,,,,,,,,,,,,,,,,,,,,,,,,,,,,,,,,,,,,,,,,1.0,,,30,,1.0,1.0,2.2264,0.0,5.0,5.0,5.0,1.0,seaweed_07s.jpg,scorpion_01b.jpg,,,,,,,,,,,,,,,,,,,,,,,,,
,,,,,,,,,,,,,,,,,,,,,,,,,,,,,,,,,,,,,,,,,,,mirror_12s.jpg,0.0,Blue.png,1.0,30,,,,,,,,,,,,space,82.9493,0.0,1.0,1.1263,0.0,0.0,0.0,0.0,1.0,,,,,,,,,,,,,,,
,,,,,,,,,,,,,,,,,,,,,,,,,,,,,,,,,,,,,,,,,,,polaroid_05s.jpg,0.0,Purple.png,1.0,30,,,,,,,,,,,,,,0.0,1.0,1.0662,0.0,1.0,1.0,1.0,1.0,,,,,,,,,,,,,,,
,,,,,,,,,,,,,,,,,,,,,,,,,,,,,,,,,,,,,,,,,,,polaroid_05s.jpg,0.0,Red.png,1.0,30,,,,,,,,,,,,,,,0.0,,0.0,2.0,2.0,2.0,1.0,,,,,,,,,,,,,,,
,,,,,,,,,,,,,,,,,,,,,,,,,,,,,,,,,,,,,,,,,,,slingshot_07s.jpg,0.0,Orange.png,1.0,30,,,,,,,,,,,,,,0.0,1.0,0.8496,0.0,3.0,3.0,3.0,1.0,,,,,,,,,,,,,,,
,,,,,,,,,,,,,,,,,,,,,,,,,,,,,,,,,,,,,,,,,,,polaroid_05s.jpg,1.0,Yellow.png,1.0,30,,,,,,,,,,,,,,1.0,1.0,0.9907,0.0,4.0,4.0,4.0,1.0,,,,,,,,,,,,,,,
,,,,,,,,,,,,,,,,,,,,,,,,,,,,,,,,,,,,,,,,,,,kettle_08s.jpg,0.0,Green.png,1.0,30,,,,,,,,,,,,,,0.0,1.0,0.6659,0.0,5.0,5.0,5.0,1.0,,,,,,,,,,,,,,,
,,,,,,,,,,,,,,,,,,,,,,,,,,,,,,,,,,,,,,,,,,,crystal_ball_12s.jpg,0.0,Blue.png,2.0,30,,,,,,,,,,,,,,0.0,1.0,1.0831,0.0,6.0,6.0,6.0,1.0,,,,,,,,,,,,,,,
,,,,,,,,,,,,,,,,,,,,,,,,,,,,,,,,,,,,,,,,,,,iron_13s.jpg,0.0,Purple.png,2.0,30,,,,,,,,,,,,,,0.0,1.0,1.0201,0.0,7.0,7.0,7.0,1.0,,,,,,,,,,,,,,,
,,,,,,,,,,,,,,,,,,,,,,,,,,,,,,,,,,,,,,,,,,,saddle_06s.jpg,0.0,Red.png,2.0,30,,,,,,,,,,,,,,0.0,1.0,1.1211,0.0,8.0,8.0,8.0,1.0,,,,,,,,,,,,,,,
,,,,,,,,,,,,,,,,,,,,,,,,,,,,,,,,,,,,,,,,,,,mango_09s.jpg,0.0,Orange.png,2.0,30,,,,,,,,,,,,,,0.0,1.0,0.9825,0.0,9.0,9.0,9.0,1.0,,,,,,,,,,,,,,,
,,,,,,,,,,,,,,,,,,,,,,,,,,,,,,,,,,,,,,,,,,,ostrich_06s.jpg,0.0,Yellow.png,2.0,30,,,,,,,,,,,,,,0.0,1.0,1.3629,0.0,10.0,10.0,10.0,1.0,,,,,,,,,,,,,,,
,,,,,,,,,,,,,,,,,,,,,,,,,,,,,,,,,,,,,,,,,,,iron_13s.jpg,0.0,Green.png,2.0,30,,,,,,,,,,,,,,1.0,0.0,1.3147,0.0,11.0,11.0,11.0,1.0,,,,,,,,,,,,,,,
,,,,,,,,,,,,,,,,,,,,,,,,,,,,,,,,,,,,,,,,,,,stethoscope_01b.jpg,0.0,Blue.png,3.0,30,,,,,,,,,,,,,,0.0,1.0,1.3379,0.0,12.0,12.0,12.0,1.0,,,,,,,,,,,,,,,
,,,,,,,,,,,,,,,,,,,,,,,,,,,,,,,,,,,,,,,,,,,ruby_15s.jpg,0.0,Purple.png,3.0,30,,,,,,,,,,,,,,0.0,1.0,1.6156,0.0,13.0,13.0,13.0,1.0,,,,,,,,,,,,,,,
,,,,,,,,,,,,,,,,,,,,,,,,,,,,,,,,,,,,,,,,,,,mango_09s.jpg,0.0,Red.png,3.0,30,,,,,,,,,,,,,,1.0,0.0,1.585,0.0,14.0,14.0,14.0,1.0,,,,,,,,,,,,,,,
,,,,,,,,,,,,,,,,,,,,,,,,,,,,,,,,,,,,,,,,,,,target_11s.jpg,0.0,Orange.png,3.0,30,,,,,,,,,,,,,,0.0,1.0,1.8259,0.0,15.0,15.0,15.0,1.0,,,,,,,,,,,,,,,
,,,,,,,,,,,,,,,,,,,,,,,,,,,,,,,,,,,,,,,,,,,mango_09s.jpg,1.0,Yellow.png,3.0,30,,,,,,,,,,,,,,1.0,1.0,1.6762,0.0,16.0,16.0,16.0,1.0,,,,,,,,,,,,,,,
,,,,,,,,,,,,,,,,,,,,,,,,,,,,,,,,,,,,,,,,,,,compass_10n.jpg,0.0,Green.png,3.0,30,,,,,,,,,,,,,,0.0,1.0,1.3429,0.0,17.0,17.0,17.0,1.0,,,,,,,,,,,,,,,
,,,,,,,,,,,,,,,,,,,,,,,,,,,,,,,,,,,,,,,,,,,meatball_13s.jpg,0.0,Blue.png,4.0,30,,,,,,,,,,,,,,0.0,1.0,1.9082,0.0,18.0,18.0,18.0,1.0,,,,,,,,,,,,,,,
,,,,,,,,,,,,,,,,,,,,,,,,,,,,,,,,,,,,,,,,,,,stapler_01b.jpg,0.0,Purple.png,4.0,30,,,,,,,,,,,,,,0.0,1.0,1.783,0.0,19.0,19.0,19.0,1.0,,,,,,,,,,,,,,,
,,,,,,,,,,,,,,,,,,,,,,,,,,,,,,,,,,,,,,,,,,,meatball_13s.jpg,1.0,Red.png,4.0,30,,,,,,,,,,,,,,1.0,1.0,1.8231,0.0,20.0,20.0,20.0,1.0,,,,,,,,,,,,,,,
,,,,,,,,,,,,,,,,,,,,,,,,,,,,,,,,,,,,,,,,,,,pump_11s.jpg,0.0,Orange.png,4.0,30,,,,,,,,,,,,,,0.0,1.0,1.3275,0.0,21.0,21.0,21.0,1.0,,,,,,,,,,,,,,,
,,,,,,,,,,,,,,,,,,,,,,,,,,,,,,,,,,,,,,,,,,,coral_08s.jpg,0.0,Yellow.png,4.0,30,,,,,,,,,,,,,,0.0,1.0,1.6276,0.0,22.0,22.0,22.0,1.0,,,,,,,,,,,,,,,
,,,,,,,,,,,,,,,,,,,,,,,,,,,,,,,,,,,,,,,,,,,meatball_13s.jpg,0.0,Green.png,4.0,30,,,,,,,,,,,,,,1.0,0.0,1.6706,0.0,23.0,23.0,23.0,1.0,,,,,,,,,,,,,,,
,,,,,,,,,,,,,,,,,,,,,,,,,,,,,,,,,,,,,,,,,,,peach_04s.jpg,0.0,Blue.png,5.0,30,,,,,,,,,,,,,,0.0,1.0,1.5573,0.0,24.0,24.0,24.0,1.0,,,,,,,,,,,,,,,
,,,,,,,,,,,,,,,,,,,,,,,,,,,,,,,,,,,,,,,,,,,meatball_13s.jpg,1.0,Purple.png,5.0,30,,,,,,,,,,,,,,1.0,1.0,1.7913,0.0,25.0,25.0,25.0,1.0,,,,,,,,,,,,,,,
,,,,,,,,,,,,,,,,,,,,,,,,,,,,,,,,,,,,,,,,,,,pie_08s.jpg,0.0,Red.png,5.0,30,,,,,,,,,,,,,,0.0,1.0,1.6471,0.0,26.0,26.0,26.0,1.0,,,,,,,,,,,,,,,
,,,,,,,,,,,,,,,,,,,,,,,,,,,,,,,,,,,,,,,,,,,rollerskate_03s.jpg,0.0,Orange.png,5.0,30,,,,,,,,,,,,,,0.0,1.0,1.565,0.0,27.0,27.0,27.0,1.0,,,,,,,,,,,,,,,
,,,,,,,,,,,,,,,,,,,,,,,,,,,,,,,,,,,,,,,,,,,trampoline_13s.jpg,0.0,Yellow.png,5.0,30,,,,,,,,,,,,,,0.0,1.0,1.4997,0.0,28.0,28.0,28.0,1.0,,,,,,,,,,,,,,,
,,,,,,,,,,,,,,,,,,,,,,,,,,,,,,,,,,,,,,,,,,,undershirt_02s.jpg,0.0,Green.png,5.0,30,,,,,,,,,,,,,,0.0,1.0,1.5506,0.0,29.0,29.0,29.0,1.0,,,,,,,,,,,,,,,
,,,,,,,,,,,,,,,,,,,,,,,,,,,,,,,,,,,,,,,,,,,thread_08s.jpg,0.0,Blue.png,6.0,30,,,,,,,,,,,,,,0.0,1.0,1.2157,0.0,30.0,30.0,30.0,1.0,,,,,,,,,,,,,,,
,,,,,,,,,,,,,,,,,,,,,,,,,,,,,,,,,,,,,,,,,,,megaphone_03s.jpg,0.0,Purple.png,6.0,30,,,,,,,,,,,,,,0.0,1.0,1.8925,0.0,31.0,31.0,31.0,1.0,,,,,,,,,,,,,,,
,,,,,,,,,,,,,,,,,,,,,,,,,,,,,,,,,,,,,,,,,,,plaster_cast_13s.jpg,0.0,Red.png,6.0,30,,,,,,,,,,,,,,0.0,1.0,1.6679,0.0,32.0,32.0,32.0,1.0,,,,,,,,,,,,,,,
,,,,,,,,,,,,,,,,,,,,,,,,,,,,,,,,,,,,,,,,,,,diving_board_07s.jpg,0.0,Orange.png,6.0,30,,,,,,,,,,,,,,0.0,1.0,2.0249,0.0,33.0,33.0,33.0,1.0,,,,,,,,,,,,,,,
,,,,,,,,,,,,,,,,,,,,,,,,,,,,,,,,,,,,,,,,,,,kayak_08s.jpg,0.0,Yellow.png,6.0,30,,,,,,,,,,,,,,0.0,1.0,1.6667,0.0,34.0,34.0,34.0,1.0,,,,,,,,,,,,,,,
,,,,,,,,,,,,,,,,,,,,,,,,,,,,,,,,,,,,,,,,,,,diving_board_07s.jpg,1.0,Green.png,6.0,30,,,,,,,,,,,,,,1.0,1.0,1.7443,0.0,35.0,35.0,35.0,1.0,,,,,,,,,,,,,,,
,,,,,,,,,,,,,,,,,,,,,,,,,,,,,,,,,,,,,,,,,,,,1.0,,,30,,,,,,,,,,stapler_01b.jpg,coral_08s.jpg,,,,,,,,,,,1.0,1.0,2.0252,0.0,0.0,0.0,0.0,1.0,,,,,,,
,,,,,,,,,,,,,,,,,,,,,,,,,,,,,,,,,,,,,,,,,,,,1.0,,,30,,,,,,,,,,slingshot_07s.jpg,crystal_ball_12s.jpg,,,,,,,,,,,1.0,1.0,2.0725,0.0,1.0,1.0,1.0,1.0,,,,,,,
,,,,,,,,,,,,,,,,,,,,,,,,,,,,,,,,,,,,,,,,,,,,0.0,,,30,,,,,,,,,,saddle_06s.jpg,kettle_08s.jpg,,,,,,,,,,,0.0,1.0,2.289,0.0,2.0,2.0,2.0,1.0,,,,,,,
,,,,,,,,,,,,,,,,,,,,,,,,,,,,,,,,,,,,,,,,,,,,1.0,,,30,,,,,,,,,,pie_08s.jpg,undershirt_02s.jpg,,,,,,,,,,,1.0,1.0,2.2515,0.0,3.0,3.0,3.0,1.0,,,,,,,
,,,,,,,,,,,,,,,,,,,,,,,,,,,,,,,,,,,,,,,,,,,,1.0,,,30,,,,,,,,,,stethoscope_01b.jpg,target_11s.jpg,,,,,,,,,,,1.0,1.0,2.3357,0.0,4.0,4.0,4.0,1.0,,,,,,,
,,,,,,,,,,,,,,,,,,,,,,,,,,,,,,,,,,,,,,,,,,,,1.0,,,30,,,,,,,,,,ostrich_06s.jpg,ruby_15s.jpg,,,,,,,,,,,1.0,1.0,1.8565,0.0,5.0,5.0,5.0,1.0,,,,,,,
,,,,,,,,,,,,,,,,,,,,,,,,,,,,,,,,,,,,,,,,,,,,,,,30,,,,,,,,,,,,,,,,,,,,,,,,,,,,,,0.0,0.0,0.0,0.0,1.0,new2backpresent_1_4.xlsx,new2back_compare_task_1_4.xlsx
,,,,,,,,,,,,,,,,,,,,,,,,,,,,,,,,,,,,,,,,,,,jetski_10s.jpg,0.0,Blue.png,1.0,30,,,,,,,,,,,,,,0.0,1.0,1.3416,0.0,0.0,0.0,0.0,1.0,,,,,,,,,,,,,,,
,,,,,,,,,,,,,,,,,,,,,,,,,,,,,,,,,,,,,,,,,,,tripod_01b.jpg,0.0,Purple.png,1.0,30,,,,,,,,,,,,,,0.0,1.0,1.1668,0.0,1.0,1.0,1.0,1.0,,,,,,,,,,,,,,,
,,,,,,,,,,,,,,,,,,,,,,,,,,,,,,,,,,,,,,,,,,,lab_coat_11s.jpg,0.0,Red.png,1.0,30,,,,,,,,,,,,,,0.0,1.0,1.5604,0.0,2.0,2.0,2.0,1.0,,,,,,,,,,,,,,,
,,,,,,,,,,,,,,,,,,,,,,,,,,,,,,,,,,,,,,,,,,,foam_03s.jpg,0.0,Orange.png,1.0,30,,,,,,,,,,,,,,0.0,1.0,1.1494,0.0,3.0,3.0,3.0,1.0,,,,,,,,,,,,,,,
,,,,,,,,,,,,,,,,,,,,,,,,,,,,,,,,,,,,,,,,,,,crate_05s.jpg,0.0,Yellow.png,1.0,30,,,,,,,,,,,,,,0.0,1.0,1.1376,0.0,4.0,4.0,4.0,1.0,,,,,,,,,,,,,,,
,,,,,,,,,,,,,,,,,,,,,,,,,,,,,,,,,,,,,,,,,,,margarita_03s.jpg,0.0,Green.png,1.0,30,,,,,,,,,,,,,,0.0,1.0,1.162,0.0,5.0,5.0,5.0,1.0,,,,,,,,,,,,,,,
,,,,,,,,,,,,,,,,,,,,,,,,,,,,,,,,,,,,,,,,,,,joystick_01b.jpg,0.0,Blue.png,2.0,30,,,,,,,,,,,,,,0.0,1.0,1.7079,0.0,6.0,6.0,6.0,1.0,,,,,,,,,,,,,,,
,,,,,,,,,,,,,,,,,,,,,,,,,,,,,,,,,,,,,,,,,,,giraffe_11s.jpg,0.0,Purple.png,2.0,30,,,,,,,,,,,,,,0.0,1.0,1.603,0.0,7.0,7.0,7.0,1.0,,,,,,,,,,,,,,,
,,,,,,,,,,,,,,,,,,,,,,,,,,,,,,,,,,,,,,,,,,,quilt_03s.jpg,0.0,Red.png,2.0,30,,,,,,,,,,,,,,0.0,1.0,1.7655,0.0,8.0,8.0,8.0,1.0,,,,,,,,,,,,,,,
,,,,,,,,,,,,,,,,,,,,,,,,,,,,,,,,,,,,,,,,,,,giraffe_11s.jpg,1.0,Orange.png,2.0,30,,,,,,,,,,,,,,1.0,1.0,1.8283,0.0,9.0,9.0,9.0,1.0,,,,,,,,,,,,,,,
,,,,,,,,,,,,,,,,,,,,,,,,,,,,,,,,,,,,,,,,,,,pincushion_10s.jpg,0.0,Yellow.png,2.0,30,,,,,,,,,,,,,,0.0,1.0,1.707,0.0,10.0,10.0,10.0,1.0,,,,,,,,,,,,,,,
,,,,,,,,,,,,,,,,,,,,,,,,,,,,,,,,,,,,,,,,,,,giraffe_11s.jpg,1.0,Green.png,2.0,30,,,,,,,,,,,,,,1.0,1.0,1.425,0.0,11.0,11.0,11.0,1.0,,,,,,,,,,,,,,,
,,,,,,,,,,,,,,,,,,,,,,,,,,,,,,,,,,,,,,,,,,,pincushion_10s.jpg,1.0,Blue.png,3.0,30,,,,,,,,,,,,,,,0.0,,0.0,12.0,12.0,12.0,1.0,,,,,,,,,,,,,,,
,,,,,,,,,,,,,,,,,,,,,,,,,,,,,,,,,,,,,,,,,,,giraffe_11s.jpg,1.0,Purple.png,3.0,30,,,,,,,,,,,,,,,0.0,,0.0,13.0,13.0,13.0,1.0,,,,,,,,,,,,,,,
,,,,,,,,,,,,,,,,,,,,,,,,,,,,,,,,,,,,,,,,,,,rolling_pin_02s.jpg,0.0,Red.png,3.0,30,,,,,,,,,,,,,,0.0,1.0,0.9926,0.0,14.0,14.0,14.0,1.0,,,,,,,,,,,,,,,
,,,,,,,,,,,,,,,,,,,,,,,,,,,,,,,,,,,,,,,,,,,ticktacktoe_08s.jpg,0.0,Orange.png,3.0,30,,,,,,,,,,,,,,0.0,1.0,1.3436,0.0,15.0,15.0,15.0,1.0,,,,,,,,,,,,,,,
,,,,,,,,,,,,,,,,,,,,,,,,,,,,,,,,,,,,,,,,,,,giraffe_11s.jpg,0.0,Yellow.png,3.0,30,,,,,,,,,,,,,,1.0,0.0,1.144,0.0,16.0,16.0,16.0,1.0,,,,,,,,,,,,,,,
,,,,,,,,,,,,,,,,,,,,,,,,,,,,,,,,,,,,,,,,,,,ticktacktoe_08s.jpg,1.0,Green.png,3.0,30,,,,,,,,,,,,,,1.0,1.0,1.7758,0.0,17.0,17.0,17.0,1.0,,,,,,,,,,,,,,,
,,,,,,,,,,,,,,,,,,,,,,,,,,,,,,,,,,,,,,,,,,,typewriter_11s.jpg,0.0,Blue.png,4.0,30,,,,,,,,,,,,,,0.0,1.0,1.4546,0.0,18.0,18.0,18.0,1.0,,,,,,,,,,,,,,,
,,,,,,,,,,,,,,,,,,,,,,,,,,,,,,,,,,,,,,,,,,,toothpaste_12s.jpg,0.0,Purple.png,4.0,30,,,,,,,,,,,,,,0.0,1.0,1.5967,0.0,19.0,19.0,19.0,1.0,,,,,,,,,,,,,,,
,,,,,,,,,,,,,,,,,,,,,,,,,,,,,,,,,,,,,,,,,,,hummingbird_05s.jpg,0.0,Red.png,4.0,30,,,,,,,,,,,,,,0.0,1.0,1.4958,0.0,20.0,20.0,20.0,1.0,,,,,,,,,,,,,,,
,,,,,,,,,,,,,,,,,,,,,,,,,,,,,,,,,,,,,,,,,,,toothpaste_12s.jpg,1.0,Orange.png,4.0,30,,,,,,,,,,,,,,1.0,1.0,1.4044,0.0,21.0,21.0,21.0,1.0,,,,,,,,,,,,,,,
,,,,,,,,,,,,,,,,,,,,,,,,,,,,,,,,,,,,,,,,,,,toothpaste_12s.jpg,0.0,Yellow.png,4.0,30,,,,,,,,,,,,,,0.0,1.0,1.6353,0.0,22.0,22.0,22.0,1.0,,,,,,,,,,,,,,,
,,,,,,,,,,,,,,,,,,,,,,,,,,,,,,,,,,,,,,,,,,,treadmill_06s.jpg,0.0,Green.png,4.0,30,,,,,,,,,,,,,,0.0,1.0,1.3005,0.0,23.0,23.0,23.0,1.0,,,,,,,,,,,,,,,
,,,,,,,,,,,,,,,,,,,,,,,,,,,,,,,,,,,,,,,,,,,typewriter_11s.jpg,0.0,Blue.png,5.0,30,,,,,,,,,,,,,,1.0,0.0,1.3337,0.0,24.0,24.0,24.0,1.0,,,,,,,,,,,,,,,
,,,,,,,,,,,,,,,,,,,,,,,,,,,,,,,,,,,,,,,,,,,penguin_16s.jpg,0.0,Purple.png,5.0,30,,,,,,,,,,,,,,0.0,1.0,1.7711,0.0,25.0,25.0,25.0,1.0,,,,,,,,,,,,,,,
,,,,,,,,,,,,,,,,,,,,,,,,,,,,,,,,,,,,,,,,,,,olive_05s.jpg,0.0,Red.png,5.0,30,,,,,,,,,,,,,,0.0,1.0,1.6294,0.0,26.0,26.0,26.0,1.0,,,,,,,,,,,,,,,
,,,,,,,,,,,,,,,,,,,,,,,,,,,,,,,,,,,,,,,,,,,penguin_16s.jpg,1.0,Orange.png,5.0,30,,,,,,,,,,,,,,1.0,1.0,1.6633,0.0,27.0,27.0,27.0,1.0,,,,,,,,,,,,,,,
,,,,,,,,,,,,,,,,,,,,,,,,,,,,,,,,,,,,,,,,,,,penguin_16s.jpg,0.0,Yellow.png,5.0,30,,,,,,,,,,,,,,0.0,1.0,2.2122,0.0,28.0,28.0,28.0,1.0,,,,,,,,,,,,,,,
,,,,,,,,,,,,,,,,,,,,,,,,,,,,,,,,,,,,,,,,,,,tab_09s.jpg,0.0,Green.png,5.0,30,,,,,,,,,,,,,,0.0,1.0,1.5447,0.0,29.0,29.0,29.0,1.0,,,,,,,,,,,,,,,
,,,,,,,,,,,,,,,,,,,,,,,,,,,,,,,,,,,,,,,,,,,frame_06s.jpg,0.0,Blue.png,6.0,30,,,,,,,,,,,,,,0.0,1.0,1.7472,0.0,30.0,30.0,30.0,1.0,,,,,,,,,,,,,,,
,,,,,,,,,,,,,,,,,,,,,,,,,,,,,,,,,,,,,,,,,,,mop_08s.jpg,0.0,Purple.png,6.0,30,,,,,,,,,,,,,,0.0,1.0,1.873,0.0,31.0,31.0,31.0,1.0,,,,,,,,,,,,,,,
,,,,,,,,,,,,,,,,,,,,,,,,,,,,,,,,,,,,,,,,,,,memory_stick_11s.jpg,0.0,Red.png,6.0,30,,,,,,,,,,,,,,0.0,1.0,1.5472,0.0,32.0,32.0,32.0,1.0,,,,,,,,,,,,,,,
,,,,,,,,,,,,,,,,,,,,,,,,,,,,,,,,,,,,,,,,,,,olive_05s.jpg,0.0,Orange.png,6.0,30,,,,,,,,,,,,,,1.0,0.0,1.5127,0.0,33.0,33.0,33.0,1.0,,,,,,,,,,,,,,,
,,,,,,,,,,,,,,,,,,,,,,,,,,,,,,,,,,,,,,,,,,,ravioli_08s.jpg,0.0,Yellow.png,6.0,30,,,,,,,,,,,,,,0.0,1.0,1.507,0.0,34.0,34.0,34.0,1.0,,,,,,,,,,,,,,,
,,,,,,,,,,,,,,,,,,,,,,,,,,,,,,,,,,,,,,,,,,,mousetrap_15n.jpg,0.0,Green.png,6.0,30,,,,,,,,,,,,,,0.0,1.0,1.7115,0.0,35.0,35.0,35.0,1.0,,,,,,,,,,,,,,,
,,,,,,,,,,,,,,,,,,,,,,,,,,,,,,,,,,,,,,,,,,,,1.0,,,30,,,,,,,,,,hummingbird_05s.jpg,treadmill_06s.jpg,,,,,,,,,,,1.0,1.0,1.9574,0.0,0.0,0.0,0.0,1.0,,,,,,,
,,,,,,,,,,,,,,,,,,,,,,,,,,,,,,,,,,,,,,,,,,,,1.0,,,30,,,,,,,,,,margarita_03s.jpg,quilt_03s.jpg,,,,,,,,,,,1.0,1.0,1.1987,0.0,1.0,1.0,1.0,1.0,,,,,,,
,,,,,,,,,,,,,,,,,,,,,,,,,,,,,,,,,,,,,,,,,,,,0.0,,,30,,,,,,,,,,joystick_01b.jpg,foam_03s.jpg,,,,,,,,,,,1.0,0.0,0.993,0.0,2.0,2.0,2.0,1.0,,,,,,,
,,,,,,,,,,,,,,,,,,,,,,,,,,,,,,,,,,,,,,,,,,,,0.0,,,30,,,,,,,,,,ravioli_08s.jpg,mop_08s.jpg,,,,,,,,,,,1.0,0.0,2.6492,0.0,3.0,3.0,3.0,1.0,,,,,,,
,,,,,,,,,,,,,,,,,,,,,,,,,,,,,,,,,,,,,,,,,,,,1.0,,,30,,,,,,,,,,tab_09s.jpg,memory_stick_11s.jpg,,,,,,,,,,,1.0,1.0,1.6522,0.0,4.0,4.0,4.0,1.0,,,,,,,
,,,,,,,,,,,,,,,,,,,,,,,,,,,,,,,,,,,,,,,,,,,,1.0,,,30,,,,,,,,,,tripod_01b.jpg,crate_05s.jpg,,,,,,,,,,,1.0,1.0,1.3026,0.0,5.0,5.0,5.0,1.0,,,,,,,
,,,,,,,,,,,,,,,,,,,,,,,,,,,,,,,,,,,,,,,,,,,,,,,30,,,,,,,,,,,,,,,,,,,,,,,,,,,,,,0.0,1.0,1.0,1.0,1.0,new2backpresent_2_4.xlsx,new2back_compare_task_2_4.xlsx
,,,,,,,,,,,,,,,,,,,,,,,,,,,,,,,,,,,,,,,,,,,safety_pin_02s.jpg,0.0,Blue.png,1.0,30,,,,,,,,,,,,,,0.0,1.0,1.3857,0.0,0.0,0.0,0.0,1.0,,,,,,,,,,,,,,,
,,,,,,,,,,,,,,,,,,,,,,,,,,,,,,,,,,,,,,,,,,,safety_pin_02s.jpg,0.0,Purple.png,1.0,30,,,,,,,,,,,,,,0.0,1.0,1.5332,0.0,1.0,1.0,1.0,1.0,,,,,,,,,,,,,,,
,,,,,,,,,,,,,,,,,,,,,,,,,,,,,,,,,,,,,,,,,,,cardinal_07s.jpg,0.0,Red.png,1.0,30,,,,,,,,,,,,,,0.0,1.0,1.3201,0.0,2.0,2.0,2.0,1.0,,,,,,,,,,,,,,,
,,,,,,,,,,,,,,,,,,,,,,,,,,,,,,,,,,,,,,,,,,,safety_pin_02s.jpg,1.0,Orange.png,1.0,30,,,,,,,,,,,,,,1.0,1.0,1.2018,0.0,3.0,3.0,3.0,1.0,,,,,,,,,,,,,,,
,,,,,,,,,,,,,,,,,,,,,,,,,,,,,,,,,,,,,,,,,,,potholder_02s.jpg,0.0,Yellow.png,1.0,30,,,,,,,,,,,,,,0.0,1.0,1.1543,0.0,4.0,4.0,4.0,1.0,,,,,,,,,,,,,,,
,,,,,,,,,,,,,,,,,,,,,,,,,,,,,,,,,,,,,,,,,,,safety_pin_02s.jpg,1.0,Green.png,1.0,30,,,,,,,,,,,,,,1.0,1.0,1.3863,0.0,5.0,5.0,5.0,1.0,,,,,,,,,,,,,,,
,,,,,,,,,,,,,,,,,,,,,,,,,,,,,,,,,,,,,,,,,,,cardinal_07s.jpg,0.0,Blue.png,2.0,30,,,,,,,,,,,,,,1.0,0.0,1.393,0.0,6.0,6.0,6.0,1.0,,,,,,,,,,,,,,,
,,,,,,,,,,,,,,,,,,,,,,,,,,,,,,,,,,,,,,,,,,,lion_18s.jpg,0.0,Purple.png,2.0,30,,,,,,,,,,,,,,0.0,1.0,1.0917,0.0,7.0,7.0,7.0,1.0,,,,,,,,,,,,,,,
,,,,,,,,,,,,,,,,,,,,,,,,,,,,,,,,,,,,,,,,,,,comic_book_02s.jpg,0.0,Red.png,2.0,30,,,,,,,,,,,,,,0.0,1.0,1.4912,0.0,8.0,8.0,8.0,1.0,,,,,,,,,,,,,,,
,,,,,,,,,,,,,,,,,,,,,,,,,,,,,,,,,,,,,,,,,,,lizard_10n.jpg,0.0,Orange.png,2.0,30,,,,,,,,,,,,,,0.0,1.0,1.8188,0.0,9.0,9.0,9.0,1.0,,,,,,,,,,,,,,,
,,,,,,,,,,,,,,,,,,,,,,,,,,,,,,,,,,,,,,,,,,,rice_12s.jpg,0.0,Yellow.png,2.0,30,,,,,,,,,,,,,,0.0,1.0,2.2085,0.0,10.0,10.0,10.0,1.0,,,,,,,,,,,,,,,
,,,,,,,,,,,,,,,,,,,,,,,,,,,,,,,,,,,,,,,,,,,bagel_15s.jpg,0.0,Green.png,2.0,30,,,,,,,,,,,,,,0.0,1.0,1.2821,0.0,11.0,11.0,11.0,1.0,,,,,,,,,,,,,,,
,,,,,,,,,,,,,,,,,,,,,,,,,,,,,,,,,,,,,,,,,,,recliner_02s.jpg,0.0,Blue.png,3.0,30,,,,,,,,,,,,,,0.0,1.0,1.107,0.0,12.0,12.0,12.0,1.0,,,,,,,,,,,,,,,
,,,,,,,,,,,,,,,,,,,,,,,,,,,,,,,,,,,,,,,,,,,recliner_02s.jpg,0.0,Purple.png,3.0,30,,,,,,,,,,,,,,0.0,1.0,1.1479,0.0,13.0,13.0,13.0,1.0,,,,,,,,,,,,,,,
,,,,,,,,,,,,,,,,,,,,,,,,,,,,,,,,,,,,,,,,,,,luggage_08s.jpg,0.0,Red.png,3.0,30,,,,,,,,,,,,,,0.0,1.0,1.1854,0.0,14.0,14.0,14.0,1.0,,,,,,,,,,,,,,,
,,,,,,,,,,,,,,,,,,,,,,,,,,,,,,,,,,,,,,,,,,,recliner_02s.jpg,1.0,Orange.png,3.0,30,,,,,,,,,,,,,,1.0,1.0,1.0884,0.0,15.0,15.0,15.0,1.0,,,,,,,,,,,,,,,
,,,,,,,,,,,,,,,,,,,,,,,,,,,,,,,,,,,,,,,,,,,onion_10s.jpg,0.0,Yellow.png,3.0,30,,,,,,,,,,,,,,0.0,1.0,1.5025,0.0,16.0,16.0,16.0,1.0,,,,,,,,,,,,,,,
,,,,,,,,,,,,,,,,,,,,,,,,,,,,,,,,,,,,,,,,,,,rosary_03s.jpg,0.0,Green.png,3.0,30,,,,,,,,,,,,,,0.0,1.0,1.4716,0.0,17.0,17.0,17.0,1.0,,,,,,,,,,,,,,,
,,,,,,,,,,,,,,,,,,,,,,,,,,,,,,,,,,,,,,,,,,,smokingpipe.jpg,0.0,Blue.png,4.0,30,,,,,,,,,,,,,,0.0,1.0,1.4064,0.0,18.0,18.0,18.0,1.0,,,,,,,,,,,,,,,
,,,,,,,,,,,,,,,,,,,,,,,,,,,,,,,,,,,,,,,,,,,roulette_wheel_04s.jpg,0.0,Purple.png,4.0,30,,,,,,,,,,,,,,0.0,1.0,0.8464,0.0,19.0,19.0,19.0,1.0,,,,,,,,,,,,,,,
,,,,,,,,,,,,,,,,,,,,,,,,,,,,,,,,,,,,,,,,,,,smokingpipe.jpg,1.0,Red.png,4.0,30,,,,,,,,,,,,,,1.0,1.0,1.1634,0.0,20.0,20.0,20.0,1.0,,,,,,,,,,,,,,,
,,,,,,,,,,,,,,,,,,,,,,,,,,,,,,,,,,,,,,,,,,,orchid_01b.jpg,0.0,Orange.png,4.0,30,,,,,,,,,,,,,,0.0,1.0,1.7014,0.0,21.0,21.0,21.0,1.0,,,,,,,,,,,,,,,
,,,,,,,,,,,,,,,,,,,,,,,,,,,,,,,,,,,,,,,,,,,buoy_04s.jpg,0.0,Yellow.png,4.0,30,,,,,,,,,,,,,,0.0,1.0,1.5394,0.0,22.0,22.0,22.0,1.0,,,,,,,,,,,,,,,
,,,,,,,,,,,,,,,,,,,,,,,,,,,,,,,,,,,,,,,,,,,stopwatch_04s.jpg,0.0,Green.png,4.0,30,,,,,,,,,,,,,,0.0,1.0,1.6631,0.0,23.0,23.0,23.0,1.0,,,,,,,,,,,,,,,
,,,,,,,,,,,,,,,,,,,,,,,,,,,,,,,,,,,,,,,,,,,knitting_needle_04s.jpg,0.0,Blue.png,5.0,30,,,,,,,,,,,,,,0.0,1.0,1.865,0.0,24.0,24.0,24.0,1.0,,,,,,,,,,,,,,,
,,,,,,,,,,,,,,,,,,,,,,,,,,,,,,,,,,,,,,,,,,,prism_10s.jpg,0.0,Purple.png,5.0,30,,,,,,,,,,,,,,0.0,1.0,2.0303,0.0,25.0,25.0,25.0,1.0,,,,,,,,,,,,,,,
,,,,,,,,,,,,,,,,,,,,,,,,,,,,,,,,,,,,,,,,,,,teapot_03s.jpg,0.0,Red.png,5.0,30,,,,,,,,,,,,,,0.0,1.0,1.7929,0.0,26.0,26.0,26.0,1.0,,,,,,,,,,,,,,,
,,,,,,,,,,,,,,,,,,,,,,,,,,,,,,,,,,,,,,,,,,,fire_pit_10s.jpg,0.0,Orange.png,5.0,30,,,,,,,,,,,,,,0.0,1.0,2.0004,0.0,27.0,27.0,27.0,1.0,,,,,,,,,,,,,,,
,,,,,,,,,,,,,,,,,,,,,,,,,,,,,,,,,,,,,,,,,,,fire_pit_10s.jpg,0.0,Yellow.png,5.0,30,,,,,,,,,,,,,,0.0,1.0,1.6708,0.0,28.0,28.0,28.0,1.0,,,,,,,,,,,,,,,
,,,,,,,,,,,,,,,,,,,,,,,,,,,,,,,,,,,,,,,,,,,fire_pit_10s.jpg,1.0,Green.png,5.0,30,,,,,,,,,,,,,,0.0,0.0,2.3008,0.0,29.0,29.0,29.0,1.0,,,,,,,,,,,,,,,
,,,,,,,,,,,,,,,,,,,,,,,,,,,,,,,,,,,,,,,,,,,ironing_board_07s.jpg,0.0,Blue.png,6.0,30,,,,,,,,,,,,,,0.0,1.0,2.0699,0.0,30.0,30.0,30.0,1.0,,,,,,,,,,,,,,,
,,,,,,,,,,,,,,,,,,,,,,,,,,,,,,,,,,,,,,,,,,,fire_pit_10s.jpg,1.0,Purple.png,6.0,30,,,,,,,,,,,,,,1.0,1.0,1.3808,0.0,31.0,31.0,31.0,1.0,,,,,,,,,,,,,,,
,,,,,,,,,,,,,,,,,,,,,,,,,,,,,,,,,,,,,,,,,,,mattress_01s.jpg,0.0,Red.png,6.0,30,,,,,,,,,,,,,,0.0,1.0,1.5044,0.0,32.0,32.0,32.0,1.0,,,,,,,,,,,,,,,
,,,,,,,,,,,,,,,,,,,,,,,,,,,,,,,,,,,,,,,,,,,fire_pit_10s.jpg,1.0,Orange.png,6.0,30,,,,,,,,,,,,,,1.0,1.0,1.9678,0.0,33.0,33.0,33.0,1.0,,,,,,,,,,,,,,,
,,,,,,,,,,,,,,,,,,,,,,,,,,,,,,,,,,,,,,,,,,,mattress_01s.jpg,1.0,Yellow.png,6.0,30,,,,,,,,,,,,,,1.0,1.0,2.2312,0.0,34.0,34.0,34.0,1.0,,,,,,,,,,,,,,,
,,,,,,,,,,,,,,,,,,,,,,,,,,,,,,,,,,,,,,,,,,,ice-cream_cone_06s.jpg,0.0,Green.png,6.0,30,,,,,,,,,,,,,,0.0,1.0,2.2403,0.0,35.0,35.0,35.0,1.0,,,,,,,,,,,,,,,
,,,,,,,,,,,,,,,,,,,,,,,,,,,,,,,,,,,,,,,,,,,,1.0,,,30,,,,,,,,,,roulette_wheel_04s.jpg,buoy_04s.jpg,,,,,,,,,,,1.0,1.0,1.7063,0.0,0.0,0.0,0.0,1.0,,,,,,,
,,,,,,,,,,,,,,,,,,,,,,,,,,,,,,,,,,,,,,,,,,,,0.0,,,30,,,,,,,,,,lion_18s.jpg,potholder_02s.jpg,,,,,,,,,,,1.0,0.0,1.6808,0.0,1.0,1.0,1.0,1.0,,,,,,,
,,,,,,,,,,,,,,,,,,,,,,,,,,,,,,,,,,,,,,,,,,,,0.0,,,30,,,,,,,,,,bagel_15s.jpg,comic_book_02s.jpg,,,,,,,,,,,0.0,1.0,1.884,0.0,2.0,2.0,2.0,1.0,,,,,,,
,,,,,,,,,,,,,,,,,,,,,,,,,,,,,,,,,,,,,,,,,,,,1.0,,,30,,,,,,,,,,stopwatch_04s.jpg,teapot_03s.jpg,,,,,,,,,,,1.0,1.0,1.8255,0.0,3.0,3.0,3.0,1.0,,,,,,,
,,,,,,,,,,,,,,,,,,,,,,,,,,,,,,,,,,,,,,,,,,,,1.0,,,30,,,,,,,,,,luggage_08s.jpg,rosary_03s.jpg,,,,,,,,,,,1.0,1.0,1.7126,0.0,4.0,4.0,4.0,1.0,,,,,,,
,,,,,,,,,,,,,,,,,,,,,,,,,,,,,,,,,,,,,,,,,,,,1.0,,,30,,,,,,,,,,orchid_01b.jpg,knitting_needle_04s.jpg,,,,,,,,,,,1.0,1.0,2.0799,0.0,5.0,5.0,5.0,1.0,,,,,,,
,,,,,,,,,,,,,,,,,,,,,,,,,,,,,,,,,,,,,,,,,,,,,,,30,,,,,,,,,,,,,,,,,,,,,,,,,,,,,,0.0,2.0,2.0,2.0,1.0,new2backpresent_3_4.xlsx,new2back_compare_task_3_4.xlsx
,,,,,,,,,,,,,,,,,,,,,,,,,,,,,,,,,,,,,,,,,,,smoothie_09s.jpg,0.0,Blue.png,1.0,30,,,,,,,,,,,,,,0.0,1.0,1.0912,0.0,0.0,0.0,0.0,1.0,,,,,,,,,,,,,,,
,,,,,,,,,,,,,,,,,,,,,,,,,,,,,,,,,,,,,,,,,,,raspberry_12s.jpg,0.0,Purple.png,1.0,30,,,,,,,,,,,,,,0.0,1.0,1.1331,0.0,1.0,1.0,1.0,1.0,,,,,,,,,,,,,,,
,,,,,,,,,,,,,,,,,,,,,,,,,,,,,,,,,,,,,,,,,,,raspberry_12s.jpg,0.0,Red.png,1.0,30,,,,,,,,,,,,,,0.0,1.0,1.5521,0.0,2.0,2.0,2.0,1.0,,,,,,,,,,,,,,,
,,,,,,,,,,,,,,,,,,,,,,,,,,,,,,,,,,,,,,,,,,,lamb_chop_07s.jpg,0.0,Orange.png,1.0,30,,,,,,,,,,,,,,0.0,1.0,1.2798,0.0,3.0,3.0,3.0,1.0,,,,,,,,,,,,,,,
,,,,,,,,,,,,,,,,,,,,,,,,,,,,,,,,,,,,,,,,,,,smoothie_09s.jpg,0.0,Yellow.png,1.0,30,,,,,,,,,,,,,,1.0,0.0,1.1764,0.0,4.0,4.0,4.0,1.0,,,,,,,,,,,,,,,
,,,,,,,,,,,,,,,,,,,,,,,,,,,,,,,,,,,,,,,,,,,raspberry_12s.jpg,0.0,Green.png,1.0,30,,,,,,,,,,,,,,1.0,0.0,1.6288,0.0,5.0,5.0,5.0,1.0,,,,,,,,,,,,,,,
,,,,,,,,,,,,,,,,,,,,,,,,,,,,,,,,,,,,,,,,,,,lava_02s.jpg,0.0,Blue.png,2.0,30,,,,,,,,,,,,,,0.0,1.0,1.3001,0.0,6.0,6.0,6.0,1.0,,,,,,,,,,,,,,,
,,,,,,,,,,,,,,,,,,,,,,,,,,,,,,,,,,,,,,,,,,,trident_07s.jpg,0.0,Purple.png,2.0,30,,,,,,,,,,,,,,0.0,1.0,1.2254,0.0,7.0,7.0,7.0,1.0,,,,,,,,,,,,,,,
,,,,,,,,,,,,,,,,,,,,,,,,,,,,,,,,,,,,,,,,,,,trident_07s.jpg,0.0,Red.png,2.0,30,,,,,,,,,,,,,,0.0,1.0,1.7102,0.0,8.0,8.0,8.0,1.0,,,,,,,,,,,,,,,
,,,,,,,,,,,,,,,,,,,,,,,,,,,,,,,,,,,,,,,,,,,trident_07s.jpg,1.0,Orange.png,2.0,30,,,,,,,,,,,,,,,0.0,,0.0,9.0,9.0,9.0,1.0,,,,,,,,,,,,,,,
,,,,,,,,,,,,,,,,,,,,,,,,,,,,,,,,,,,,,,,,,,,orangutan_03s.jpg,0.0,Yellow.png,2.0,30,,,,,,,,,,,,,,0.0,1.0,2.1964,0.0,10.0,10.0,10.0,1.0,,,,,,,,,,,,,,,
,,,,,,,,,,,,,,,,,,,,,,,,,,,,,,,,,,,,,,,,,,,trident_07s.jpg,1.0,Green.png,2.0,30,,,,,,,,,,,,,,1.0,1.0,1.1539,0.0,11.0,11.0,11.0,1.0,,,,,,,,,,,,,,,
,,,,,,,,,,,,,,,,,,,,,,,,,,,,,,,,,,,,,,,,,,,raspberry_12s.jpg,0.0,Blue.png,3.0,30,,,,,,,,,,,,,,1.0,0.0,1.4206,0.0,12.0,12.0,12.0,1.0,,,,,,,,,,,,,,,
,,,,,,,,,,,,,,,,,,,,,,,,,,,,,,,,,,,,,,,,,,,trident_07s.jpg,1.0,Purple.png,3.0,30,,,,,,,,,,,,,,1.0,1.0,1.7356,0.0,13.0,13.0,13.0,1.0,,,,,,,,,,,,,,,
,,,,,,,,,,,,,,,,,,,,,,,,,,,,,,,,,,,,,,,,,,,lavender_10s.jpg,0.0,Red.png,3.0,30,,,,,,,,,,,,,,0.0,1.0,1.9546,0.0,14.0,14.0,14.0,1.0,,,,,,,,,,,,,,,
,,,,,,,,,,,,,,,,,,,,,,,,,,,,,,,,,,,,,,,,,,,chip_04s.jpg,0.0,Orange.png,3.0,30,,,,,,,,,,,,,,0.0,1.0,1.7158,0.0,15.0,15.0,15.0,1.0,,,,,,,,,,,,,,,
,,,,,,,,,,,,,,,,,,,,,,,,,,,,,,,,,,,,,,,,,,,lamb_04s.jpg,0.0,Yellow.png,3.0,30,,,,,,,,,,,,,,0.0,1.0,1.4305,0.0,16.0,16.0,16.0,1.0,,,,,,,,,,,,,,,
,,,,,,,,,,,,,,,,,,,,,,,,,,,,,,,,,,,,,,,,,,,emerald_02s.jpg,0.0,Green.png,3.0,30,,,,,,,,,,,,,,0.0,1.0,1.6355,0.0,17.0,17.0,17.0,1.0,,,,,,,,,,,,,,,
,,,,,,,,,,,,,,,,,,,,,,,,,,,,,,,,,,,,,,,,,,,pineapple_12s.jpg,0.0,Blue.png,4.0,30,,,,,,,,,,,,,,0.0,1.0,1.6779,0.0,18.0,18.0,18.0,1.0,,,,,,,,,,,,,,,
,,,,,,,,,,,,,,,,,,,,,,,,,,,,,,,,,,,,,,,,,,,sundae_08s.jpg,0.0,Purple.png,4.0,30,,,,,,,,,,,,,,0.0,1.0,1.7895,0.0,19.0,19.0,19.0,1.0,,,,,,,,,,,,,,,
,,,,,,,,,,,,,,,,,,,,,,,,,,,,,,,,,,,,,,,,,,,sundae_08s.jpg,0.0,Red.png,4.0,30,,,,,,,,,,,,,,1.0,0.0,1.9222,0.0,20.0,20.0,20.0,1.0,,,,,,,,,,,,,,,
,,,,,,,,,,,,,,,,,,,,,,,,,,,,,,,,,,,,,,,,,,,squirrel_02s.jpg,0.0,Orange.png,4.0,30,,,,,,,,,,,,,,0.0,1.0,1.5332,0.0,21.0,21.0,21.0,1.0,,,,,,,,,,,,,,,
,,,,,,,,,,,,,,,,,,,,,,,,,,,,,,,,,,,,,,,,,,,roller_coaster_07s.jpg,0.0,Yellow.png,4.0,30,,,,,,,,,,,,,,0.0,1.0,1.6455,0.0,22.0,22.0,22.0,1.0,,,,,,,,,,,,,,,
,,,,,,,,,,,,,,,,,,,,,,,,,,,,,,,,,,,,,,,,,,,sundae_08s.jpg,0.0,Green.png,4.0,30,,,,,,,,,,,,,,1.0,0.0,1.654,0.0,23.0,23.0,23.0,1.0,,,,,,,,,,,,,,,
,,,,,,,,,,,,,,,,,,,,,,,,,,,,,,,,,,,,,,,,,,,tweezers_03s.jpg,0.0,Blue.png,5.0,30,,,,,,,,,,,,,,0.0,1.0,1.8472,0.0,24.0,24.0,24.0,1.0,,,,,,,,,,,,,,,
,,,,,,,,,,,,,,,,,,,,,,,,,,,,,,,,,,,,,,,,,,,sundae_08s.jpg,1.0,Purple.png,5.0,30,,,,,,,,,,,,,,1.0,1.0,1.8285,0.0,25.0,25.0,25.0,1.0,,,,,,,,,,,,,,,
,,,,,,,,,,,,,,,,,,,,,,,,,,,,,,,,,,,,,,,,,,,rudder_02s.jpg,0.0,Red.png,5.0,30,,,,,,,,,,,,,,0.0,1.0,1.7315,0.0,26.0,26.0,26.0,1.0,,,,,,,,,,,,,,,
,,,,,,,,,,,,,,,,,,,,,,,,,,,,,,,,,,,,,,,,,,,rake_06s.jpg,0.0,Orange.png,5.0,30,,,,,,,,,,,,,,0.0,1.0,1.6916,0.0,27.0,27.0,27.0,1.0,,,,,,,,,,,,,,,
,,,,,,,,,,,,,,,,,,,,,,,,,,,,,,,,,,,,,,,,,,,rake_06s.jpg,0.0,Yellow.png,5.0,30,,,,,,,,,,,,,,0.0,1.0,1.6872,0.0,28.0,28.0,28.0,1.0,,,,,,,,,,,,,,,
,,,,,,,,,,,,,,,,,,,,,,,,,,,,,,,,,,,,,,,,,,,rake_06s.jpg,1.0,Green.png,5.0,30,,,,,,,,,,,,,,0.0,0.0,2.1296,0.0,29.0,29.0,29.0,1.0,,,,,,,,,,,,,,,
,,,,,,,,,,,,,,,,,,,,,,,,,,,,,,,,,,,,,,,,,,,cap_05s.jpg,0.0,Blue.png,6.0,30,,,,,,,,,,,,,,0.0,1.0,2.1308,0.0,30.0,30.0,30.0,1.0,,,,,,,,,,,,,,,
,,,,,,,,,,,,,,,,,,,,,,,,,,,,,,,,,,,,,,,,,,,paper_towel_03s.jpg,0.0,Purple.png,6.0,30,,,,,,,,,,,,,,0.0,1.0,1.5893,0.0,31.0,31.0,31.0,1.0,,,,,,,,,,,,,,,
,,,,,,,,,,,,,,,,,,,,,,,,,,,,,,,,,,,,,,,,,,,toaster_03s.jpg,0.0,Red.png,6.0,30,,,,,,,,,,,,,,0.0,1.0,1.4391,0.0,32.0,32.0,32.0,1.0,,,,,,,,,,,,,,,
,,,,,,,,,,,,,,,,,,,,,,,,,,,,,,,,,,,,,,,,,,,money_07s.jpg,0.0,Orange.png,6.0,30,,,,,,,,,,,,,,0.0,1.0,1.5632,0.0,33.0,33.0,33.0,1.0,,,,,,,,,,,,,,,
,,,,,,,,,,,,,,,,,,,,,,,,,,,,,,,,,,,,,,,,,,,pinwheel_06s.jpg,0.0,Yellow.png,6.0,30,,,,,,,,,,,,,,0.0,1.0,1.9105,0.0,34.0,34.0,34.0,1.0,,,,,,,,,,,,,,,
,,,,,,,,,,,,,,,,,,,,,,,,,,,,,,,,,,,,,,,,,,,lid_10s.jpg,0.0,Green.png,6.0,30,,,,,,,,,,,,,,0.0,1.0,1.5348,0.0,35.0,35.0,35.0,1.0,,,,,,,,,,,,,,,
,,,,,,,,,,,,,,,,,,,,,,,,,,,,,,,,,,,,,,,,,,,,0.0,,,30,,,,,,,,,,tweezers_03s.jpg,squirrel_02s.jpg,,,,,,,,,,,0.0,1.0,1.4182,0.0,0.0,0.0,0.0,1.0,,,,,,,
,,,,,,,,,,,,,,,,,,,,,,,,,,,,,,,,,,,,,,,,,,,,1.0,,,30,,,,,,,,,,chip_04s.jpg,pineapple_12s.jpg,,,,,,,,,,,1.0,1.0,1.366,0.0,1.0,1.0,1.0,1.0,,,,,,,
,,,,,,,,,,,,,,,,,,,,,,,,,,,,,,,,,,,,,,,,,,,,1.0,,,30,,,,,,,,,,lamb_chop_07s.jpg,lava_02s.jpg,,,,,,,,,,,1.0,1.0,1.1254,0.0,2.0,2.0,2.0,1.0,,,,,,,
,,,,,,,,,,,,,,,,,,,,,,,,,,,,,,,,,,,,,,,,,,,,0.0,,,30,,,,,,,,,,pinwheel_06s.jpg,paper_towel_03s.jpg,,,,,,,,,,,1.0,0.0,1.2723,0.0,3.0,3.0,3.0,1.0,,,,,,,
,,,,,,,,,,,,,,,,,,,,,,,,,,,,,,,,,,,,,,,,,,,,0.0,,,30,,,,,,,,,,emerald_02s.jpg,lavender_10s.jpg,,,,,,,,,,,1.0,0.0,1.0187,0.0,4.0,4.0,4.0,1.0,,,,,,,
,,,,,,,,,,,,,,,,,,,,,,,,,,,,,,,,,,,,,,,,,,,,0.0,,,30,,,,,,,,,,money_07s.jpg,cap_05s.jpg,,,,,,,,,,,1.0,0.0,1.444,0.0,5.0,5.0,5.0,1.0,,,,,,,
,,,,,,,,,,,,,,,,,,,,,,,,,,,,,,,,,,,,,,,,,,,,,,,30,,,,,,,,,,,,,,,,,,,,,,,,,,,,,,0.0,3.0,3.0,3.0,1.0,new2backpresent_4_4.xlsx,new2back_compare_task_4_4.xlsx
,,,,,,,,,,,,,,,,,,,,,,,,,,,,,,,,,,,,,,,,,,,fur_coat_11s.jpg,0.0,Blue.png,1.0,30,,,,,,,,,,,,,,0.0,1.0,1.0634,0.0,0.0,0.0,0.0,1.0,,,,,,,,,,,,,,,
,,,,,,,,,,,,,,,,,,,,,,,,,,,,,,,,,,,,,,,,,,,crayon_09s.jpg,0.0,Purple.png,1.0,30,,,,,,,,,,,,,,0.0,1.0,1.3593,0.0,1.0,1.0,1.0,1.0,,,,,,,,,,,,,,,
,,,,,,,,,,,,,,,,,,,,,,,,,,,,,,,,,,,,,,,,,,,cobra_05s.jpg,0.0,Red.png,1.0,30,,,,,,,,,,,,,,0.0,1.0,1.517,0.0,2.0,2.0,2.0,1.0,,,,,,,,,,,,,,,
,,,,,,,,,,,,,,,,,,,,,,,,,,,,,,,,,,,,,,,,,,,raccoon_02s.jpg,0.0,Orange.png,1.0,30,,,,,,,,,,,,,,0.0,1.0,1.2134,0.0,3.0,3.0,3.0,1.0,,,,,,,,,,,,,,,
,,,,,,,,,,,,,,,,,,,,,,,,,,,,,,,,,,,,,,,,,,,soda_fountain_03s.jpg,0.0,Yellow.png,1.0,30,,,,,,,,,,,,,,0.0,1.0,1.3176,0.0,4.0,4.0,4.0,1.0,,,,,,,,,,,,,,,
,,,,,,,,,,,,,,,,,,,,,,,,,,,,,,,,,,,,,,,,,,,raccoon_02s.jpg,1.0,Green.png,1.0,30,,,,,,,,,,,,,,1.0,1.0,1.237,0.0,5.0,5.0,5.0,1.0,,,,,,,,,,,,,,,
,,,,,,,,,,,,,,,,,,,,,,,,,,,,,,,,,,,,,,,,,,,feather02.jpg,0.0,Blue.png,2.0,30,,,,,,,,,,,,,,0.0,1.0,0.9597,0.0,6.0,6.0,6.0,1.0,,,,,,,,,,,,,,,
,,,,,,,,,,,,,,,,,,,,,,,,,,,,,,,,,,,,,,,,,,,raccoon_02s.jpg,1.0,Purple.png,2.0,30,,,,,,,,,,,,,,1.0,1.0,1.2038,0.0,7.0,7.0,7.0,1.0,,,,,,,,,,,,,,,
,,,,,,,,,,,,,,,,,,,,,,,,,,,,,,,,,,,,,,,,,,,feather02.jpg,1.0,Red.png,2.0,30,,,,,,,,,,,,,,1.0,1.0,1.0996,0.0,8.0,8.0,8.0,1.0,,,,,,,,,,,,,,,
,,,,,,,,,,,,,,,,,,,,,,,,,,,,,,,,,,,,,,,,,,,rug_09s.jpg,0.0,Orange.png,2.0,30,,,,,,,,,,,,,,0.0,1.0,0.9853,0.0,9.0,9.0,9.0,1.0,,,,,,,,,,,,,,,
,,,,,,,,,,,,,,,,,,,,,,,,,,,,,,,,,,,,,,,,,,,feather02.jpg,1.0,Yellow.png,2.0,30,,,,,,,,,,,,,,1.0,1.0,1.1108,0.0,10.0,10.0,10.0,1.0,,,,,,,,,,,,,,,
,,,,,,,,,,,,,,,,,,,,,,,,,,,,,,,,,,,,,,,,,,,cushion_08s.jpg,0.0,Green.png,2.0,30,,,,,,,,,,,,,,0.0,1.0,1.6697,0.0,11.0,11.0,11.0,1.0,,,,,,,,,,,,,,,
,,,,,,,,,,,,,,,,,,,,,,,,,,,,,,,,,,,,,,,,,,,feather02.jpg,1.0,Blue.png,3.0,30,,,,,,,,,,,,,,1.0,1.0,1.0274,0.0,12.0,12.0,12.0,1.0,,,,,,,,,,,,,,,
,,,,,,,,,,,,,,,,,,,,,,,,,,,,,,,,,,,,,,,,,,,feather02.jpg,0.0,Purple.png,3.0,30,,,,,,,,,,,,,,0.0,1.0,1.5323,0.0,13.0,13.0,13.0,1.0,,,,,,,,,,,,,,,
,,,,,,,,,,,,,,,,,,,,,,,,,,,,,,,,,,,,,,,,,,,ice_pack_09s.jpg,0.0,Red.png,3.0,30,,,,,,,,,,,,,,0.0,1.0,1.2488,0.0,14.0,14.0,14.0,1.0,,,,,,,,,,,,,,,
,,,,,,,,,,,,,,,,,,,,,,,,,,,,,,,,,,,,,,,,,,,ice_pack_09s.jpg,0.0,Orange.png,3.0,30,,,,,,,,,,,,,,0.0,1.0,1.2151,0.0,15.0,15.0,15.0,1.0,,,,,,,,,,,,,,,
,,,,,,,,,,,,,,,,,,,,,,,,,,,,,,,,,,,,,,,,,,,loom_05s.jpg,0.0,Yellow.png,3.0,30,,,,,,,,,,,,,,0.0,1.0,1.3811,0.0,16.0,16.0,16.0,1.0,,,,,,,,,,,,,,,
,,,,,,,,,,,,,,,,,,,,,,,,,,,,,,,,,,,,,,,,,,,ice_pack_09s.jpg,1.0,Green.png,3.0,30,,,,,,,,,,,,,,1.0,1.0,1.3739,0.0,17.0,17.0,17.0,1.0,,,,,,,,,,,,,,,
,,,,,,,,,,,,,,,,,,,,,,,,,,,,,,,,,,,,,,,,,,,ice_pack_09s.jpg,0.0,Blue.png,4.0,30,,,,,,,,,,,,,,0.0,1.0,1.4591,0.0,18.0,18.0,18.0,1.0,,,,,,,,,,,,,,,
,,,,,,,,,,,,,,,,,,,,,,,,,,,,,,,,,,,,,,,,,,,ice_pack_09s.jpg,1.0,Purple.png,4.0,30,,,,,,,,,,,,,,0.0,0.0,1.4407,0.0,19.0,19.0,19.0,1.0,,,,,,,,,,,,,,,
,,,,,,,,,,,,,,,,,,,,,,,,,,,,,,,,,,,,,,,,,,,ice_pack_09s.jpg,1.0,Red.png,4.0,30,,,,,,,,,,,,,,1.0,1.0,2.0507,0.0,20.0,20.0,20.0,1.0,,,,,,,,,,,,,,,
,,,,,,,,,,,,,,,,,,,,,,,,,,,,,,,,,,,,,,,,,,,blazer_02s.jpg,0.0,Orange.png,4.0,30,,,,,,,,,,,,,,0.0,1.0,1.395,0.0,21.0,21.0,21.0,1.0,,,,,,,,,,,,,,,
,,,,,,,,,,,,,,,,,,,,,,,,,,,,,,,,,,,,,,,,,,,penlight_12s.jpg,0.0,Yellow.png,4.0,30,,,,,,,,,,,,,,0.0,1.0,1.3024,0.0,22.0,22.0,22.0,1.0,,,,,,,,,,,,,,,
,,,,,,,,,,,,,,,,,,,,,,,,,,,,,,,,,,,,,,,,,,,swan_11s.jpg,0.0,Green.png,4.0,30,,,,,,,,,,,,,,0.0,1.0,1.0776,0.0,23.0,23.0,23.0,1.0,,,,,,,,,,,,,,,
,,,,,,,,,,,,,,,,,,,,,,,,,,,,,,,,,,,,,,,,,,,plunger_08s.jpg,0.0,Blue.png,5.0,30,,,,,,,,,,,,,,0.0,1.0,1.4121,0.0,24.0,24.0,24.0,1.0,,,,,,,,,,,,,,,
,,,,,,,,,,,,,,,,,,,,,,,,,,,,,,,,,,,,,,,,,,,bottle_opener_11s.jpg,0.0,Purple.png,5.0,30,,,,,,,,,,,,,,0.0,1.0,1.7462,0.0,25.0,25.0,25.0,1.0,,,,,,,,,,,,,,,
,,,,,,,,,,,,,,,,,,,,,,,,,,,,,,,,,,,,,,,,,,,checkbook_11s.jpg,0.0,Red.png,5.0,30,,,,,,,,,,,,,,0.0,1.0,1.6615,0.0,26.0,26.0,26.0,1.0,,,,,,,,,,,,,,,
,,,,,,,,,,,,,,,,,,,,,,,,,,,,,,,,,,,,,,,,,,,ink_08s.jpg,0.0,Orange.png,5.0,30,,,,,,,,,,,,,,0.0,1.0,1.5107,0.0,27.0,27.0,27.0,1.0,,,,,,,,,,,,,,,
,,,,,,,,,,,,,,,,,,,,,,,,,,,,,,,,,,,,,,,,,,,plunger_08s.jpg,0.0,Yellow.png,5.0,30,,,,,,,,,,,,,,1.0,0.0,1.3924,0.0,28.0,28.0,28.0,1.0,,,,,,,,,,,,,,,
,,,,,,,,,,,,,,,,,,,,,,,,,,,,,,,,,,,,,,,,,,,pencil02a.jpg,0.0,Green.png,5.0,30,,,,,,,,,,,,,,0.0,1.0,1.1997,0.0,29.0,29.0,29.0,1.0,,,,,,,,,,,,,,,
,,,,,,,,,,,,,,,,,,,,,,,,,,,,,,,,,,,,,,,,,,,ginger_09s.jpg,0.0,Blue.png,6.0,30,,,,,,,,,,,,,,0.0,1.0,1.7042,0.0,30.0,30.0,30.0,1.0,,,,,,,,,,,,,,,
,,,,,,,,,,,,,,,,,,,,,,,,,,,,,,,,,,,,,,,,,,,taxi_15s.jpg,0.0,Purple.png,6.0,30,,,,,,,,,,,,,,0.0,1.0,1.3658,0.0,31.0,31.0,31.0,1.0,,,,,,,,,,,,,,,
,,,,,,,,,,,,,,,,,,,,,,,,,,,,,,,,,,,,,,,,,,,toy_04s.jpg,0.0,Red.png,6.0,30,,,,,,,,,,,,,,0.0,1.0,1.2311,0.0,32.0,32.0,32.0,1.0,,,,,,,,,,,,,,,
,,,,,,,,,,,,,,,,,,,,,,,,,,,,,,,,,,,,,,,,,,,blowfish_03s.jpg,0.0,Orange.png,6.0,30,,,,,,,,,,,,,,0.0,1.0,1.4073,0.0,33.0,33.0,33.0,1.0,,,,,,,,,,,,,,,
,,,,,,,,,,,,,,,,,,,,,,,,,,,,,,,,,,,,,,,,,,,toilet_paper_12s.jpg,0.0,Yellow.png,6.0,30,,,,,,,,,,,,,,0.0,1.0,1.3287,0.0,34.0,34.0,34.0,1.0,,,,,,,,,,,,,,,
,,,,,,,,,,,,,,,,,,,,,,,,,,,,,,,,,,,,,,,,,,,puddle_02s.jpg,0.0,Green.png,6.0,30,,,,,,,,,,,,,,0.0,1.0,1.3809,0.0,35.0,35.0,35.0,1.0,,,,,,,,,,,,,,,
,,,,,,,,,,,,,,,,,,,,,,,,,,,,,,,,,,,,,,,,,,,,1.0,,,30,,,,,,,,,,ink_08s.jpg,ginger_09s.jpg,,,,,,,,,,,1.0,1.0,1.4809,0.0,0.0,0.0,0.0,1.0,,,,,,,
,,,,,,,,,,,,,,,,,,,,,,,,,,,,,,,,,,,,,,,,,,,,0.0,,,30,,,,,,,,,,puddle_02s.jpg,toy_04s.jpg,,,,,,,,,,,1.0,0.0,1.6067,0.0,1.0,1.0,1.0,1.0,,,,,,,
,,,,,,,,,,,,,,,,,,,,,,,,,,,,,,,,,,,,,,,,,,,,0.0,,,30,,,,,,,,,,bottle_opener_11s.jpg,penlight_12s.jpg,,,,,,,,,,,0.0,1.0,2.1498,0.0,2.0,2.0,2.0,1.0,,,,,,,
,,,,,,,,,,,,,,,,,,,,,,,,,,,,,,,,,,,,,,,,,,,,0.0,,,30,,,,,,,,,,checkbook_11s.jpg,swan_11s.jpg,,,,,,,,,,,0.0,1.0,1.6133,0.0,3.0,3.0,3.0,1.0,,,,,,,
,,,,,,,,,,,,,,,,,,,,,,,,,,,,,,,,,,,,,,,,,,,,1.0,,,30,,,,,,,,,,taxi_15s.jpg,toilet_paper_12s.jpg,,,,,,,,,,,1.0,1.0,1.6595,0.0,4.0,4.0,4.0,1.0,,,,,,,
,,,,,,,,,,,,,,,,,,,,,,,,,,,,,,,,,,,,,,,,,,,,1.0,,,30,,,,,,,,,,crayon_09s.jpg,soda_fountain_03s.jpg,,,,,,,,,,,1.0,1.0,1.3851,0.0,5.0,5.0,5.0,1.0,,,,,,,
,,,,,,,,,,,,,,,,,,,,,,,,,,,,,,,,,,,,,,,,,,,,,,,30,,,,,,,,,,,,,,,,,,,,,,,,,,,,,,0.0,4.0,4.0,4.0,1.0,new2backpresent_5_4.xlsx,new2back_compare_task_5_4.xlsx
,,,,,,,,,,,,,,,,,,,,,,,,,,,,,,,,,,,,,,,,,,,flask_04s.jpg,0.0,Blue.png,1.0,30,,,,,,,,,,,,,,0.0,1.0,1.1462,0.0,0.0,0.0,0.0,1.0,,,,,,,,,,,,,,,
,,,,,,,,,,,,,,,,,,,,,,,,,,,,,,,,,,,,,,,,,,,kimono_13s.jpg,0.0,Purple.png,1.0,30,,,,,,,,,,,,,,0.0,1.0,1.2296,0.0,1.0,1.0,1.0,1.0,,,,,,,,,,,,,,,
,,,,,,,,,,,,,,,,,,,,,,,,,,,,,,,,,,,,,,,,,,,limousine_12s.jpg,0.0,Red.png,1.0,30,,,,,,,,,,,,,,0.0,1.0,1.1979,0.0,2.0,2.0,2.0,1.0,,,,,,,,,,,,,,,
,,,,,,,,,,,,,,,,,,,,,,,,,,,,,,,,,,,,,,,,,,,lectern_08s.jpg,0.0,Orange.png,1.0,30,,,,,,,,,,,,,,0.0,1.0,1.3509,0.0,3.0,3.0,3.0,1.0,,,,,,,,,,,,,,,
,,,,,,,,,,,,,,,,,,,,,,,,,,,,,,,,,,,,,,,,,,,kimono_13s.jpg,0.0,Yellow.png,1.0,30,,,,,,,,,,,,,,1.0,0.0,1.0647,0.0,4.0,4.0,4.0,1.0,,,,,,,,,,,,,,,
,,,,,,,,,,,,,,,,,,,,,,,,,,,,,,,,,,,,,,,,,,,doily_13s.jpg,0.0,Green.png,1.0,30,,,,,,,,,,,,,,0.0,1.0,0.9943,0.0,5.0,5.0,5.0,1.0,,,,,,,,,,,,,,,
,,,,,,,,,,,,,,,,,,,,,,,,,,,,,,,,,,,,,,,,,,,kimono_13s.jpg,1.0,Blue.png,2.0,30,,,,,,,,,,,,,,1.0,1.0,1.0203,0.0,6.0,6.0,6.0,1.0,,,,,,,,,,,,,,,
,,,,,,,,,,,,,,,,,,,,,,,,,,,,,,,,,,,,,,,,,,,razor_blade_01b.jpg,0.0,Purple.png,2.0,30,,,,,,,,,,,,,,0.0,1.0,1.0714,0.0,7.0,7.0,7.0,1.0,,,,,,,,,,,,,,,
,,,,,,,,,,,,,,,,,,,,,,,,,,,,,,,,,,,,,,,,,,,razor_blade_01b.jpg,0.0,Red.png,2.0,30,,,,,,,,,,,,,,0.0,1.0,1.3076,0.0,8.0,8.0,8.0,1.0,,,,,,,,,,,,,,,
,,,,,,,,,,,,,,,,,,,,,,,,,,,,,,,,,,,,,,,,,,,champagne_18s.jpg,0.0,Orange.png,2.0,30,,,,,,,,,,,,,,0.0,1.0,1.4029,0.0,9.0,9.0,9.0,1.0,,,,,,,,,,,,,,,
,,,,,,,,,,,,,,,,,,,,,,,,,,,,,,,,,,,,,,,,,,,stamp1_11s.jpg,0.0,Yellow.png,2.0,30,,,,,,,,,,,,,,0.0,1.0,1.6215,0.0,10.0,10.0,10.0,1.0,,,,,,,,,,,,,,,
,,,,,,,,,,,,,,,,,,,,,,,,,,,,,,,,,,,,,,,,,,,champagne_18s.jpg,1.0,Green.png,2.0,30,,,,,,,,,,,,,,1.0,1.0,1.4496,0.0,11.0,11.0,11.0,1.0,,,,,,,,,,,,,,,
,,,,,,,,,,,,,,,,,,,,,,,,,,,,,,,,,,,,,,,,,,,crossbow_10s.jpg,0.0,Blue.png,3.0,30,,,,,,,,,,,,,,0.0,1.0,1.4665,0.0,12.0,12.0,12.0,1.0,,,,,,,,,,,,,,,
,,,,,,,,,,,,,,,,,,,,,,,,,,,,,,,,,,,,,,,,,,,briefcase_03s.jpg,0.0,Purple.png,3.0,30,,,,,,,,,,,,,,0.0,1.0,1.2861,0.0,13.0,13.0,13.0,1.0,,,,,,,,,,,,,,,
,,,,,,,,,,,,,,,,,,,,,,,,,,,,,,,,,,,,,,,,,,,jersey_02s.jpg,0.0,Red.png,3.0,30,,,,,,,,,,,,,,0.0,1.0,1.46,0.0,14.0,14.0,14.0,1.0,,,,,,,,,,,,,,,
,,,,,,,,,,,,,,,,,,,,,,,,,,,,,,,,,,,,,,,,,,,briefcase_03s.jpg,1.0,Orange.png,3.0,30,,,,,,,,,,,,,,1.0,1.0,1.3258,0.0,15.0,15.0,15.0,1.0,,,,,,,,,,,,,,,
,,,,,,,,,,,,,,,,,,,,,,,,,,,,,,,,,,,,,,,,,,,oil_02s.jpg,0.0,Yellow.png,3.0,30,,,,,,,,,,,,,,0.0,1.0,1.1934,0.0,16.0,16.0,16.0,1.0,,,,,,,,,,,,,,,
,,,,,,,,,,,,,,,,,,,,,,,,,,,,,,,,,,,,,,,,,,,tinsel_12s.jpg,0.0,Green.png,3.0,30,,,,,,,,,,,,,,0.0,1.0,1.2167,0.0,17.0,17.0,17.0,1.0,,,,,,,,,,,,,,,
,,,,,,,,,,,,,,,,,,,,,,,,,,,,,,,,,,,,,,,,,,,flask_04s.jpg,0.0,Blue.png,4.0,30,,,,,,,,,,,,,,1.0,0.0,1.1376,0.0,18.0,18.0,18.0,1.0,,,,,,,,,,,,,,,
,,,,,,,,,,,,,,,,,,,,,,,,,,,,,,,,,,,,,,,,,,,fork_04s.jpg,0.0,Purple.png,4.0,30,,,,,,,,,,,,,,0.0,1.0,1.6162,0.0,19.0,19.0,19.0,1.0,,,,,,,,,,,,,,,
,,,,,,,,,,,,,,,,,,,,,,,,,,,,,,,,,,,,,,,,,,,purse_05s.jpg,0.0,Red.png,4.0,30,,,,,,,,,,,,,,0.0,1.0,1.0623,0.0,20.0,20.0,20.0,1.0,,,,,,,,,,,,,,,
,,,,,,,,,,,,,,,,,,,,,,,,,,,,,,,,,,,,,,,,,,,flask_04s.jpg,0.0,Orange.png,4.0,30,,,,,,,,,,,,,,1.0,0.0,1.1011,0.0,21.0,21.0,21.0,1.0,,,,,,,,,,,,,,,
,,,,,,,,,,,,,,,,,,,,,,,,,,,,,,,,,,,,,,,,,,,sledgehammer_03s.jpg,0.0,Yellow.png,4.0,30,,,,,,,,,,,,,,0.0,1.0,1.4089,0.0,22.0,22.0,22.0,1.0,,,,,,,,,,,,,,,
,,,,,,,,,,,,,,,,,,,,,,,,,,,,,,,,,,,,,,,,,,,turf_03s.jpg,0.0,Green.png,4.0,30,,,,,,,,,,,,,,0.0,1.0,1.1956,0.0,23.0,23.0,23.0,1.0,,,,,,,,,,,,,,,
,,,,,,,,,,,,,,,,,,,,,,,,,,,,,,,,,,,,,,,,,,,omelet_07s.jpg,0.0,Blue.png,5.0,30,,,,,,,,,,,,,,0.0,1.0,1.5172,0.0,24.0,24.0,24.0,1.0,,,,,,,,,,,,,,,
,,,,,,,,,,,,,,,,,,,,,,,,,,,,,,,,,,,,,,,,,,,turf_03s.jpg,1.0,Purple.png,5.0,30,,,,,,,,,,,,,,1.0,1.0,1.4425,0.0,25.0,25.0,25.0,1.0,,,,,,,,,,,,,,,
,,,,,,,,,,,,,,,,,,,,,,,,,,,,,,,,,,,,,,,,,,,clover_04s.jpg,0.0,Red.png,5.0,30,,,,,,,,,,,,,,0.0,1.0,2.1873,0.0,26.0,26.0,26.0,1.0,,,,,,,,,,,,,,,
,,,,,,,,,,,,,,,,,,,,,,,,,,,,,,,,,,,,,,,,,,,lip_gloss_06s.jpg,0.0,Orange.png,5.0,30,,,,,,,,,,,,,,0.0,1.0,1.6507,0.0,27.0,27.0,27.0,1.0,,,,,,,,,,,,,,,
,,,,,,,,,,,,,,,,,,,,,,,,,,,,,,,,,,,,,,,,,,,amber_04s.jpg,0.0,Yellow.png,5.0,30,,,,,,,,,,,,,,0.0,1.0,1.2852,0.0,28.0,28.0,28.0,1.0,,,,,,,,,,,,,,,
,,,,,,,,,,,,,,,,,,,,,,,,,,,,,,,,,,,,,,,,,,,tortilla_06s.jpg,0.0,Green.png,5.0,30,,,,,,,,,,,,,,0.0,1.0,1.4498,0.0,29.0,29.0,29.0,1.0,,,,,,,,,,,,,,,
,,,,,,,,,,,,,,,,,,,,,,,,,,,,,,,,,,,,,,,,,,,razor_blade_01b.jpg,0.0,Blue.png,6.0,30,,,,,,,,,,,,,,1.0,0.0,1.6292,0.0,30.0,30.0,30.0,1.0,,,,,,,,,,,,,,,
,,,,,,,,,,,,,,,,,,,,,,,,,,,,,,,,,,,,,,,,,,,tape_measure_11s.jpg,0.0,Purple.png,6.0,30,,,,,,,,,,,,,,0.0,1.0,1.4416,0.0,31.0,31.0,31.0,1.0,,,,,,,,,,,,,,,
,,,,,,,,,,,,,,,,,,,,,,,,,,,,,,,,,,,,,,,,,,,razor_blade_01b.jpg,1.0,Red.png,6.0,30,,,,,,,,,,,,,,1.0,1.0,1.6187,0.0,32.0,32.0,32.0,1.0,,,,,,,,,,,,,,,
,,,,,,,,,,,,,,,,,,,,,,,,,,,,,,,,,,,,,,,,,,,razor_blade_01b.jpg,0.0,Orange.png,6.0,30,,,,,,,,,,,,,,1.0,0.0,1.7224,0.0,33.0,33.0,33.0,1.0,,,,,,,,,,,,,,,
,,,,,,,,,,,,,,,,,,,,,,,,,,,,,,,,,,,,,,,,,,,stingray_02s.jpg,0.0,Yellow.png,6.0,30,,,,,,,,,,,,,,0.0,1.0,1.3825,0.0,34.0,34.0,34.0,1.0,,,,,,,,,,,,,,,
,,,,,,,,,,,,,,,,,,,,,,,,,,,,,,,,,,,,,,,,,,,harpoon.jpg,0.0,Green.png,6.0,30,,,,,,,,,,,,,,0.0,1.0,1.4344,0.0,35.0,35.0,35.0,1.0,,,,,,,,,,,,,,,
,,,,,,,,,,,,,,,,,,,,,,,,,,,,,,,,,,,,,,,,,,,,1.0,,,30,,,,,,,,,,oil_02s.jpg,fork_04s.jpg,,,,,,,,,,,1.0,1.0,1.6449,0.0,0.0,0.0,0.0,1.0,,,,,,,
,,,,,,,,,,,,,,,,,,,,,,,,,,,,,,,,,,,,,,,,,,,,0.0,,,30,,,,,,,,,,doily_13s.jpg,limousine_12s.jpg,,,,,,,,,,,0.0,1.0,1.9947,0.0,1.0,1.0,1.0,1.0,,,,,,,
,,,,,,,,,,,,,,,,,,,,,,,,,,,,,,,,,,,,,,,,,,,,0.0,,,30,,,,,,,,,,lip_gloss_06s.jpg,omelet_07s.jpg,,,,,,,,,,,1.0,0.0,2.1819,0.0,2.0,2.0,2.0,1.0,,,,,,,
,,,,,,,,,,,,,,,,,,,,,,,,,,,,,,,,,,,,,,,,,,,,0.0,,,30,,,,,,,,,,tape_measure_11s.jpg,amber_04s.jpg,,,,,,,,,,,1.0,0.0,2.0752,0.0,3.0,3.0,3.0,1.0,,,,,,,
,,,,,,,,,,,,,,,,,,,,,,,,,,,,,,,,,,,,,,,,,,,,0.0,,,30,,,,,,,,,,tortilla_06s.jpg,clover_04s.jpg,,,,,,,,,,,1.0,0.0,2.1172,0.0,4.0,4.0,4.0,1.0,,,,,,,
,,,,,,,,,,,,,,,,,,,,,,,,,,,,,,,,,,,,,,,,,,,,0.0,,,30,,,,,,,,,,purse_05s.jpg,tinsel_12s.jpg,,,,,,,,,,,1.0,0.0,2.1967,0.0,5.0,5.0,5.0,1.0,,,,,,,
,,,,,,,,,,,,,,,,,,,,,,,,,,,,,,,,,,,,,,,,,,,,,,,30,,,,,,,,,,,,,,,,,,,,,,,,,,,,,,0.0,5.0,5.0,5.0,1.0,new2backpresent_6_4.xlsx,new2back_compare_task_6_4.xlsx
,,,,,,,,,,,,,,,,,,,,,,,,,,,,,,,,,,,,,,,,,,,butter_14s.jpg,0.0,Blue.png,1.0,30,,,,,,,,,,,,,,0.0,1.0,1.2868,0.0,0.0,0.0,0.0,1.0,,,,,,,,,,,,,,,
,,,,,,,,,,,,,,,,,,,,,,,,,,,,,,,,,,,,,,,,,,,butter_14s.jpg,0.0,Purple.png,1.0,30,,,,,,,,,,,,,,0.0,1.0,1.5214,0.0,1.0,1.0,1.0,1.0,,,,,,,,,,,,,,,
,,,,,,,,,,,,,,,,,,,,,,,,,,,,,,,,,,,,,,,,,,,butter_14s.jpg,1.0,Red.png,1.0,30,,,,,,,,,,,,,,1.0,1.0,1.344,0.0,2.0,2.0,2.0,1.0,,,,,,,,,,,,,,,
,,,,,,,,,,,,,,,,,,,,,,,,,,,,,,,,,,,,,,,,,,,stamp2_08s.jpg,0.0,Orange.png,1.0,30,,,,,,,,,,,,,,0.0,1.0,1.4911,0.0,3.0,3.0,3.0,1.0,,,,,,,,,,,,,,,
,,,,,,,,,,,,,,,,,,,,,,,,,,,,,,,,,,,,,,,,,,,kangaroo_02s.jpg,0.0,Yellow.png,1.0,30,,,,,,,,,,,,,,0.0,1.0,1.5434,0.0,4.0,4.0,4.0,1.0,,,,,,,,,,,,,,,
,,,,,,,,,,,,,,,,,,,,,,,,,,,,,,,,,,,,,,,,,,,camcorder_10s.jpg,0.0,Green.png,1.0,30,,,,,,,,,,,,,,0.0,1.0,1.0441,0.0,5.0,5.0,5.0,1.0,,,,,,,,,,,,,,,
,,,,,,,,,,,,,,,,,,,,,,,,,,,,,,,,,,,,,,,,,,,bank_06s.jpg,0.0,Blue.png,2.0,30,,,,,,,,,,,,,,0.0,1.0,1.0843,0.0,6.0,6.0,6.0,1.0,,,,,,,,,,,,,,,
,,,,,,,,,,,,,,,,,,,,,,,,,,,,,,,,,,,,,,,,,,,gear_07s.jpg,0.0,Purple.png,2.0,30,,,,,,,,,,,,,,0.0,1.0,1.1773,0.0,7.0,7.0,7.0,1.0,,,,,,,,,,,,,,,
,,,,,,,,,,,,,,,,,,,,,,,,,,,,,,,,,,,,,,,,,,,bank_06s.jpg,1.0,Red.png,2.0,30,,,,,,,,,,,,,,1.0,1.0,1.1996,0.0,8.0,8.0,8.0,1.0,,,,,,,,,,,,,,,
,,,,,,,,,,,,,,,,,,,,,,,,,,,,,,,,,,,,,,,,,,,funnel_01b.jpg,0.0,Orange.png,2.0,30,,,,,,,,,,,,,,0.0,1.0,1.1087,0.0,9.0,9.0,9.0,1.0,,,,,,,,,,,,,,,
,,,,,,,,,,,,,,,,,,,,,,,,,,,,,,,,,,,,,,,,,,,poinsettia_04s.jpg,0.0,Yellow.png,2.0,30,,,,,,,,,,,,,,0.0,1.0,1.0865,0.0,10.0,10.0,10.0,1.0,,,,,,,,,,,,,,,
,,,,,,,,,,,,,,,,,,,,,,,,,,,,,,,,,,,,,,,,,,,funnel_01b.jpg,1.0,Green.png,2.0,30,,,,,,,,,,,,,,1.0,1.0,0.9861,0.0,11.0,11.0,11.0,1.0,,,,,,,,,,,,,,,
,,,,,,,,,,,,,,,,,,,,,,,,,,,,,,,,,,,,,,,,,,,rooster_03s.jpg,0.0,Blue.png,3.0,30,,,,,,,,,,,,,,0.0,1.0,1.1497,0.0,12.0,12.0,12.0,1.0,,,,,,,,,,,,,,,
,,,,,,,,,,,,,,,,,,,,,,,,,,,,,,,,,,,,,,,,,,,denture_03s.jpg,0.0,Purple.png,3.0,30,,,,,,,,,,,,,,0.0,1.0,1.5331,0.0,13.0,13.0,13.0,1.0,,,,,,,,,,,,,,,
,,,,,,,,,,,,,,,,,,,,,,,,,,,,,,,,,,,,,,,,,,,bean_06s.jpg,0.0,Red.png,3.0,30,,,,,,,,,,,,,,0.0,1.0,1.3077,0.0,14.0,14.0,14.0,1.0,,,,,,,,,,,,,,,
,,,,,,,,,,,,,,,,,,,,,,,,,,,,,,,,,,,,,,,,,,,mud_13s.jpg,0.0,Orange.png,3.0,30,,,,,,,,,,,,,,0.0,1.0,2.1373,0.0,15.0,15.0,15.0,1.0,,,,,,,,,,,,,,,
,,,,,,,,,,,,,,,,,,,,,,,,,,,,,,,,,,,,,,,,,,,keyhole_03s.jpg,0.0,Yellow.png,3.0,30,,,,,,,,,,,,,,0.0,1.0,1.4031,0.0,16.0,16.0,16.0,1.0,,,,,,,,,,,,,,,
,,,,,,,,,,,,,,,,,,,,,,,,,,,,,,,,,,,,,,,,,,,bean_06s.jpg,0.0,Green.png,3.0,30,,,,,,,,,,,,,,1.0,0.0,1.1971,0.0,17.0,17.0,17.0,1.0,,,,,,,,,,,,,,,
,,,,,,,,,,,,,,,,,,,,,,,,,,,,,,,,,,,,,,,,,,,bank_06s.jpg,0.0,Blue.png,4.0,30,,,,,,,,,,,,,,1.0,0.0,1.4906,0.0,18.0,18.0,18.0,1.0,,,,,,,,,,,,,,,
,,,,,,,,,,,,,,,,,,,,,,,,,,,,,,,,,,,,,,,,,,,pomegranate_04s.jpg,0.0,Purple.png,4.0,30,,,,,,,,,,,,,,0.0,1.0,1.491,0.0,19.0,19.0,19.0,1.0,,,,,,,,,,,,,,,
,,,,,,,,,,,,,,,,,,,,,,,,,,,,,,,,,,,,,,,,,,,chopsticks_08s.jpg,0.0,Red.png,4.0,30,,,,,,,,,,,,,,0.0,1.0,1.3487,0.0,20.0,20.0,20.0,1.0,,,,,,,,,,,,,,,
,,,,,,,,,,,,,,,,,,,,,,,,,,,,,,,,,,,,,,,,,,,contact_lens_15s.jpg,0.0,Orange.png,4.0,30,,,,,,,,,,,,,,0.0,1.0,1.4881,0.0,21.0,21.0,21.0,1.0,,,,,,,,,,,,,,,
,,,,,,,,,,,,,,,,,,,,,,,,,,,,,,,,,,,,,,,,,,,hydrant_10s.jpg,0.0,Yellow.png,4.0,30,,,,,,,,,,,,,,0.0,1.0,1.1039,0.0,22.0,22.0,22.0,1.0,,,,,,,,,,,,,,,
,,,,,,,,,,,,,,,,,,,,,,,,,,,,,,,,,,,,,,,,,,,gingerbread_man_03s.jpg,0.0,Green.png,4.0,30,,,,,,,,,,,,,,0.0,1.0,1.4762,0.0,23.0,23.0,23.0,1.0,,,,,,,,,,,,,,,
,,,,,,,,,,,,,,,,,,,,,,,,,,,,,,,,,,,,,,,,,,,camcorder_10s.jpg,0.0,Blue.png,5.0,30,,,,,,,,,,,,,,1.0,0.0,1.6365,0.0,24.0,24.0,24.0,1.0,,,,,,,,,,,,,,,
,,,,,,,,,,,,,,,,,,,,,,,,,,,,,,,,,,,,,,,,,,,teabag_12s.jpg,0.0,Purple.png,5.0,30,,,,,,,,,,,,,,0.0,1.0,1.471,0.0,25.0,25.0,25.0,1.0,,,,,,,,,,,,,,,
,,,,,,,,,,,,,,,,,,,,,,,,,,,,,,,,,,,,,,,,,,,radiator_05s.jpg,0.0,Red.png,5.0,30,,,,,,,,,,,,,,0.0,1.0,1.317,0.0,26.0,26.0,26.0,1.0,,,,,,,,,,,,,,,
,,,,,,,,,,,,,,,,,,,,,,,,,,,,,,,,,,,,,,,,,,,punch1_10s.jpg,0.0,Orange.png,5.0,30,,,,,,,,,,,,,,0.0,1.0,1.1777,0.0,27.0,27.0,27.0,1.0,,,,,,,,,,,,,,,
,,,,,,,,,,,,,,,,,,,,,,,,,,,,,,,,,,,,,,,,,,,mailbox_11s.jpg,0.0,Yellow.png,5.0,30,,,,,,,,,,,,,,0.0,1.0,1.1771,0.0,28.0,28.0,28.0,1.0,,,,,,,,,,,,,,,
,,,,,,,,,,,,,,,,,,,,,,,,,,,,,,,,,,,,,,,,,,,beaker_01b.jpg,0.0,Green.png,5.0,30,,,,,,,,,,,,,,0.0,1.0,1.5179,0.0,29.0,29.0,29.0,1.0,,,,,,,,,,,,,,,
,,,,,,,,,,,,,,,,,,,,,,,,,,,,,,,,,,,,,,,,,,,mailbox_11s.jpg,1.0,Blue.png,6.0,30,,,,,,,,,,,,,,1.0,1.0,1.5699,0.0,30.0,30.0,30.0,1.0,,,,,,,,,,,,,,,
,,,,,,,,,,,,,,,,,,,,,,,,,,,,,,,,,,,,,,,,,,,pipe1_10s.jpg,0.0,Purple.png,6.0,30,,,,,,,,,,,,,,0.0,1.0,1.4017,0.0,31.0,31.0,31.0,1.0,,,,,,,,,,,,,,,
,,,,,,,,,,,,,,,,,,,,,,,,,,,,,,,,,,,,,,,,,,,mailbox_11s.jpg,1.0,Red.png,6.0,30,,,,,,,,,,,,,,1.0,1.0,1.4679,0.0,32.0,32.0,32.0,1.0,,,,,,,,,,,,,,,
,,,,,,,,,,,,,,,,,,,,,,,,,,,,,,,,,,,,,,,,,,,pipe1_10s.jpg,1.0,Orange.png,6.0,30,,,,,,,,,,,,,,1.0,1.0,2.2049,0.0,33.0,33.0,33.0,1.0,,,,,,,,,,,,,,,
,,,,,,,,,,,,,,,,,,,,,,,,,,,,,,,,,,,,,,,,,,,eyedropper_12s.jpg,0.0,Yellow.png,6.0,30,,,,,,,,,,,,,,0.0,1.0,1.3026,0.0,34.0,34.0,34.0,1.0,,,,,,,,,,,,,,,
,,,,,,,,,,,,,,,,,,,,,,,,,,,,,,,,,,,,,,,,,,,rhubarb_03s.jpg,0.0,Green.png,6.0,30,,,,,,,,,,,,,,0.0,1.0,1.2794,0.0,35.0,35.0,35.0,1.0,,,,,,,,,,,,,,,
,,,,,,,,,,,,,,,,,,,,,,,,,,,,,,,,,,,,,,,,,,,,0.0,,,30,,,,,,,,,,mud_13s.jpg,rooster_03s.jpg,,,,,,,,,,,0.0,1.0,2.2864,0.0,0.0,0.0,0.0,1.0,,,,,,,
,,,,,,,,,,,,,,,,,,,,,,,,,,,,,,,,,,,,,,,,,,,,1.0,,,30,,,,,,,,,,chopsticks_08s.jpg,gingerbread_man_03s.jpg,,,,,,,,,,,1.0,1.0,1.6284,0.0,1.0,1.0,1.0,1.0,,,,,,,
,,,,,,,,,,,,,,,,,,,,,,,,,,,,,,,,,,,,,,,,,,,,0.0,,,30,,,,,,,,,,beaker_01b.jpg,radiator_05s.jpg,,,,,,,,,,,0.0,1.0,1.5454,0.0,2.0,2.0,2.0,1.0,,,,,,,
,,,,,,,,,,,,,,,,,,,,,,,,,,,,,,,,,,,,,,,,,,,,0.0,,,30,,,,,,,,,,teabag_12s.jpg,hydrant_10s.jpg,,,,,,,,,,,0.0,1.0,1.8462,0.0,3.0,3.0,3.0,1.0,,,,,,,
,,,,,,,,,,,,,,,,,,,,,,,,,,,,,,,,,,,,,,,,,,,,0.0,,,30,,,,,,,,,,denture_03s.jpg,poinsettia_04s.jpg,,,,,,,,,,,1.0,0.0,1.7014,0.0,4.0,4.0,4.0,1.0,,,,,,,
,,,,,,,,,,,,,,,,,,,,,,,,,,,,,,,,,,,,,,,,,,,,1.0,,,30,,,,,,,,,,kangaroo_02s.jpg,gear_07s.jpg,,,,,,,,,,,1.0,1.0,1.6959,0.0,5.0,5.0,5.0,1.0,,,,,,,
,,,,,,,,,,,,,,,,,,,,,,,,,,,,,,,,,,,,,,,,,,,,,,,30,,,,,,,,,,,,,,,,,,,,,,,,,,,,,,0.0,6.0,6.0,6.0,1.0,new2backpresent_7_4.xlsx,new2back_compare_task_7_4.xlsx
,,,,,,,,,,,,,,,,,,,,,,,,,,,,,,,,,,,,,,,,,,,lamppost_09s.jpg,0.0,Blue.png,1.0,30,,,,,,,,,,,,,,0.0,1.0,0.9302,0.0,0.0,0.0,0.0,1.0,,,,,,,,,,,,,,,
,,,,,,,,,,,,,,,,,,,,,,,,,,,,,,,,,,,,,,,,,,,jewel_01b.jpg,0.0,Purple.png,1.0,30,,,,,,,,,,,,,,0.0,1.0,1.2913,0.0,1.0,1.0,1.0,1.0,,,,,,,,,,,,,,,
,,,,,,,,,,,,,,,,,,,,,,,,,,,,,,,,,,,,,,,,,,,tuxedo_01b.jpg,0.0,Red.png,1.0,30,,,,,,,,,,,,,,0.0,1.0,0.9746,0.0,2.0,2.0,2.0,1.0,,,,,,,,,,,,,,,
,,,,,,,,,,,,,,,,,,,,,,,,,,,,,,,,,,,,,,,,,,,flip_flop_03s.jpg,0.0,Orange.png,1.0,30,,,,,,,,,,,,,,0.0,1.0,1.1273,0.0,3.0,3.0,3.0,1.0,,,,,,,,,,,,,,,
,,,,,,,,,,,,,,,,,,,,,,,,,,,,,,,,,,,,,,,,,,,medal_04s.jpg,0.0,Yellow.png,1.0,30,,,,,,,,,,,,,,0.0,1.0,1.6913,0.0,4.0,4.0,4.0,1.0,,,,,,,,,,,,,,,
,,,,,,,,,,,,,,,,,,,,,,,,,,,,,,,,,,,,,,,,,,,flip_flop_03s.jpg,1.0,Green.png,1.0,30,,,,,,,,,,,,,,1.0,1.0,1.0818,0.0,5.0,5.0,5.0,1.0,,,,,,,,,,,,,,,
,,,,,,,,,,,,,,,,,,,,,,,,,,,,,,,,,,,,,,,,,,,tuxedo_01b.jpg,0.0,Blue.png,2.0,30,,,,,,,,,,,,,,1.0,0.0,1.5679,0.0,6.0,6.0,6.0,1.0,,,,,,,,,,,,,,,
,,,,,,,,,,,,,,,,,,,,,,,,,,,,,,,,,,,,,,,,,,,flip_flop_03s.jpg,1.0,Purple.png,2.0,30,,,,,,,,,,,,,,1.0,1.0,1.5408,0.0,7.0,7.0,7.0,1.0,,,,,,,,,,,,,,,
,,,,,,,,,,,,,,,,,,,,,,,,,,,,,,,,,,,,,,,,,,,fireworks_18s.jpg,0.0,Red.png,2.0,30,,,,,,,,,,,,,,0.0,1.0,1.2962,0.0,8.0,8.0,8.0,1.0,,,,,,,,,,,,,,,
,,,,,,,,,,,,,,,,,,,,,,,,,,,,,,,,,,,,,,,,,,,squirt_gun_03s.jpg,0.0,Orange.png,2.0,30,,,,,,,,,,,,,,0.0,1.0,1.2277,0.0,9.0,9.0,9.0,1.0,,,,,,,,,,,,,,,
,,,,,,,,,,,,,,,,,,,,,,,,,,,,,,,,,,,,,,,,,,,flip_flop_03s.jpg,0.0,Yellow.png,2.0,30,,,,,,,,,,,,,,1.0,0.0,1.2468,0.0,10.0,10.0,10.0,1.0,,,,,,,,,,,,,,,
,,,,,,,,,,,,,,,,,,,,,,,,,,,,,,,,,,,,,,,,,,,puffin_19s.jpg,0.0,Green.png,2.0,30,,,,,,,,,,,,,,0.0,1.0,1.0762,0.0,11.0,11.0,11.0,1.0,,,,,,,,,,,,,,,
,,,,,,,,,,,,,,,,,,,,,,,,,,,,,,,,,,,,,,,,,,,tuxedo_01b.jpg,0.0,Blue.png,3.0,30,,,,,,,,,,,,,,1.0,0.0,1.3653,0.0,12.0,12.0,12.0,1.0,,,,,,,,,,,,,,,
,,,,,,,,,,,,,,,,,,,,,,,,,,,,,,,,,,,,,,,,,,,tuxedo_01b.jpg,0.0,Purple.png,3.0,30,,,,,,,,,,,,,,0.0,1.0,1.5581,0.0,13.0,13.0,13.0,1.0,,,,,,,,,,,,,,,
,,,,,,,,,,,,,,,,,,,,,,,,,,,,,,,,,,,,,,,,,,,snowman_02s.jpg,0.0,Red.png,3.0,30,,,,,,,,,,,,,,0.0,1.0,1.2798,0.0,14.0,14.0,14.0,1.0,,,,,,,,,,,,,,,
,,,,,,,,,,,,,,,,,,,,,,,,,,,,,,,,,,,,,,,,,,,cucumber_07s.jpg,0.0,Orange.png,3.0,30,,,,,,,,,,,,,,0.0,1.0,1.3987,0.0,15.0,15.0,15.0,1.0,,,,,,,,,,,,,,,
,,,,,,,,,,,,,,,,,,,,,,,,,,,,,,,,,,,,,,,,,,,plug_08s.jpg,0.0,Yellow.png,3.0,30,,,,,,,,,,,,,,0.0,1.0,1.7556,0.0,16.0,16.0,16.0,1.0,,,,,,,,,,,,,,,
,,,,,,,,,,,,,,,,,,,,,,,,,,,,,,,,,,,,,,,,,,,cucumber_07s.jpg,1.0,Green.png,3.0,30,,,,,,,,,,,,,,1.0,1.0,1.8906,0.0,17.0,17.0,17.0,1.0,,,,,,,,,,,,,,,
,,,,,,,,,,,,,,,,,,,,,,,,,,,,,,,,,,,,,,,,,,,puffin_19s.jpg,0.0,Blue.png,4.0,30,,,,,,,,,,,,,,1.0,0.0,1.9117,0.0,18.0,18.0,18.0,1.0,,,,,,,,,,,,,,,
,,,,,,,,,,,,,,,,,,,,,,,,,,,,,,,,,,,,,,,,,,,fondue_07s.jpg,0.0,Purple.png,4.0,30,,,,,,,,,,,,,,0.0,1.0,1.3239,0.0,19.0,19.0,19.0,1.0,,,,,,,,,,,,,,,
,,,,,,,,,,,,,,,,,,,,,,,,,,,,,,,,,,,,,,,,,,,lasagna_06s.jpg,0.0,Red.png,4.0,30,,,,,,,,,,,,,,0.0,1.0,1.5348,0.0,20.0,20.0,20.0,1.0,,,,,,,,,,,,,,,
,,,,,,,,,,,,,,,,,,,,,,,,,,,,,,,,,,,,,,,,,,,eiffeltower.jpg,0.0,Orange.png,4.0,30,,,,,,,,,,,,,,0.0,1.0,1.4816,0.0,21.0,21.0,21.0,1.0,,,,,,,,,,,,,,,
,,,,,,,,,,,,,,,,,,,,,,,,,,,,,,,,,,,,,,,,,,,outlet_10s.jpg,0.0,Yellow.png,4.0,30,,,,,,,,,,,,,,0.0,1.0,1.3089,0.0,22.0,22.0,22.0,1.0,,,,,,,,,,,,,,,
,,,,,,,,,,,,,,,,,,,,,,,,,,,,,,,,,,,,,,,,,,,cape_11s.jpg,0.0,Green.png,4.0,30,,,,,,,,,,,,,,0.0,1.0,1.4118,0.0,23.0,23.0,23.0,1.0,,,,,,,,,,,,,,,
,,,,,,,,,,,,,,,,,,,,,,,,,,,,,,,,,,,,,,,,,,,marshmallow_08s.jpg,0.0,Blue.png,5.0,30,,,,,,,,,,,,,,0.0,1.0,1.3767,0.0,24.0,24.0,24.0,1.0,,,,,,,,,,,,,,,
,,,,,,,,,,,,,,,,,,,,,,,,,,,,,,,,,,,,,,,,,,,racehorse_03s.jpg,0.0,Purple.png,5.0,30,,,,,,,,,,,,,,0.0,1.0,1.1933,0.0,25.0,25.0,25.0,1.0,,,,,,,,,,,,,,,
,,,,,,,,,,,,,,,,,,,,,,,,,,,,,,,,,,,,,,,,,,,aluminum_foil_08s.jpg,0.0,Red.png,5.0,30,,,,,,,,,,,,,,0.0,1.0,1.6408,0.0,26.0,26.0,26.0,1.0,,,,,,,,,,,,,,,
,,,,,,,,,,,,,,,,,,,,,,,,,,,,,,,,,,,,,,,,,,,spoon02a.jpg,0.0,Orange.png,5.0,30,,,,,,,,,,,,,,0.0,1.0,1.2606,0.0,27.0,27.0,27.0,1.0,,,,,,,,,,,,,,,
,,,,,,,,,,,,,,,,,,,,,,,,,,,,,,,,,,,,,,,,,,,padlock_07s.jpg,0.0,Yellow.png,5.0,30,,,,,,,,,,,,,,0.0,1.0,1.4265,0.0,28.0,28.0,28.0,1.0,,,,,,,,,,,,,,,
,,,,,,,,,,,,,,,,,,,,,,,,,,,,,,,,,,,,,,,,,,,solar_panel_02s.jpg,0.0,Green.png,5.0,30,,,,,,,,,,,,,,0.0,1.0,1.1198,0.0,29.0,29.0,29.0,1.0,,,,,,,,,,,,,,,
,,,,,,,,,,,,,,,,,,,,,,,,,,,,,,,,,,,,,,,,,,,turtleneck_11s.jpg,0.0,Blue.png,6.0,30,,,,,,,,,,,,,,0.0,1.0,1.1614,0.0,30.0,30.0,30.0,1.0,,,,,,,,,,,,,,,
,,,,,,,,,,,,,,,,,,,,,,,,,,,,,,,,,,,,,,,,,,,pocketknife_12s.jpg,0.0,Purple.png,6.0,30,,,,,,,,,,,,,,0.0,1.0,1.3526,0.0,31.0,31.0,31.0,1.0,,,,,,,,,,,,,,,
,,,,,,,,,,,,,,,,,,,,,,,,,,,,,,,,,,,,,,,,,,,pocketknife_12s.jpg,0.0,Red.png,6.0,30,,,,,,,,,,,,,,1.0,0.0,1.72,0.0,32.0,32.0,32.0,1.0,,,,,,,,,,,,,,,
,,,,,,,,,,,,,,,,,,,,,,,,,,,,,,,,,,,,,,,,,,,quill_09s.jpg,0.0,Orange.png,6.0,30,,,,,,,,,,,,,,0.0,1.0,1.7217,0.0,33.0,33.0,33.0,1.0,,,,,,,,,,,,,,,
,,,,,,,,,,,,,,,,,,,,,,,,,,,,,,,,,,,,,,,,,,,quill_09s.jpg,0.0,Yellow.png,6.0,30,,,,,,,,,,,,,,,0.0,,0.0,34.0,34.0,34.0,1.0,,,,,,,,,,,,,,,
,,,,,,,,,,,,,,,,,,,,,,,,,,,,,,,,,,,,,,,,,,,pocketknife_12s.jpg,0.0,Green.png,6.0,30,,,,,,,,,,,,,,,0.0,,0.0,35.0,35.0,35.0,1.0,,,,,,,,,,,,,,,
,,,,,,,,,,,,,,,,,,,,,,,,,,,,,,,,,,,,,,,,,,,,0.0,,,30,,,,,,,,,,cape_11s.jpg,lasagna_06s.jpg,,,,,,,,,,,1.0,0.0,2.23,0.0,0.0,0.0,0.0,1.0,,,,,,,
,,,,,,,,,,,,,,,,,,,,,,,,,,,,,,,,,,,,,,,,,,,,0.0,,,30,,,,,,,,,,padlock_07s.jpg,racehorse_03s.jpg,,,,,,,,,,,1.0,0.0,1.6183,0.0,1.0,1.0,1.0,1.0,,,,,,,
,,,,,,,,,,,,,,,,,,,,,,,,,,,,,,,,,,,,,,,,,,,,1.0,,,30,,,,,,,,,,spoon02a.jpg,turtleneck_11s.jpg,,,,,,,,,,,1.0,1.0,1.8307,0.0,2.0,2.0,2.0,1.0,,,,,,,
,,,,,,,,,,,,,,,,,,,,,,,,,,,,,,,,,,,,,,,,,,,,0.0,,,30,,,,,,,,,,marshmallow_08s.jpg,eiffeltower.jpg,,,,,,,,,,,0.0,1.0,1.7319,0.0,3.0,3.0,3.0,1.0,,,,,,,
,,,,,,,,,,,,,,,,,,,,,,,,,,,,,,,,,,,,,,,,,,,,0.0,,,30,,,,,,,,,,medal_04s.jpg,jewel_01b.jpg,,,,,,,,,,,1.0,0.0,1.5106,0.0,4.0,4.0,4.0,1.0,,,,,,,
,,,,,,,,,,,,,,,,,,,,,,,,,,,,,,,,,,,,,,,,,,,,1.0,,,30,,,,,,,,,,plug_08s.jpg,fondue_07s.jpg,,,,,,,,,,,1.0,1.0,1.7523,0.0,5.0,5.0,5.0,1.0,,,,,,,
,,,,,,,,,,,,,,,,,,,,,,,,,,,,,,,,,,,,,,,,,,,,,,,30,,,,,,,,,,,,,,,,,,,,,,,,,,,,,,0.0,7.0,7.0,7.0,1.0,new2backpresent_8_4.xlsx,new2back_compare_task_8_4.xlsx
,,,,,,,,,,,,,,,,,,,,,,,,,,,,,,,,,,,,,,,,,,,footprint_11s.jpg,0.0,Blue.png,1.0,30,,,,,,,,,,,,,,0.0,1.0,2.2176,0.0,0.0,0.0,0.0,1.0,,,,,,,,,,,,,,,
,,,,,,,,,,,,,,,,,,,,,,,,,,,,,,,,,,,,,,,,,,,coffee_filter_10s.jpg,0.0,Purple.png,1.0,30,,,,,,,,,,,,,,0.0,1.0,1.7884,0.0,1.0,1.0,1.0,1.0,,,,,,,,,,,,,,,
,,,,,,,,,,,,,,,,,,,,,,,,,,,,,,,,,,,,,,,,,,,coffee_filter_10s.jpg,0.0,Red.png,1.0,30,,,,,,,,,,,,,,0.0,1.0,1.5657,0.0,2.0,2.0,2.0,1.0,,,,,,,,,,,,,,,
,,,,,,,,,,,,,,,,,,,,,,,,,,,,,,,,,,,,,,,,,,,coffee_filter_10s.jpg,1.0,Orange.png,1.0,30,,,,,,,,,,,,,,1.0,1.0,2.3014,0.0,3.0,3.0,3.0,1.0,,,,,,,,,,,,,,,
,,,,,,,,,,,,,,,,,,,,,,,,,,,,,,,,,,,,,,,,,,,coffee_filter_10s.jpg,1.0,Yellow.png,1.0,30,,,,,,,,,,,,,,1.0,1.0,2.1845,0.0,4.0,4.0,4.0,1.0,,,,,,,,,,,,,,,
,,,,,,,,,,,,,,,,,,,,,,,,,,,,,,,,,,,,,,,,,,,gargoyle_08s.jpg,0.0,Green.png,1.0,30,,,,,,,,,,,,,,,0.0,,0.0,5.0,5.0,5.0,1.0,,,,,,,,,,,,,,,
,,,,,,,,,,,,,,,,,,,,,,,,,,,,,,,,,,,,,,,,,,,candy_cane_06s.jpg,0.0,Blue.png,2.0,30,,,,,,,,,,,,,,0.0,1.0,1.944,0.0,6.0,6.0,6.0,1.0,,,,,,,,,,,,,,,
,,,,,,,,,,,,,,,,,,,,,,,,,,,,,,,,,,,,,,,,,,,toad_09s.jpg,0.0,Purple.png,2.0,30,,,,,,,,,,,,,,0.0,1.0,2.0874,0.0,7.0,7.0,7.0,1.0,,,,,,,,,,,,,,,
,,,,,,,,,,,,,,,,,,,,,,,,,,,,,,,,,,,,,,,,,,,candy_cane_06s.jpg,1.0,Red.png,2.0,30,,,,,,,,,,,,,,1.0,1.0,1.7836,0.0,8.0,8.0,8.0,1.0,,,,,,,,,,,,,,,
,,,,,,,,,,,,,,,,,,,,,,,,,,,,,,,,,,,,,,,,,,,pumpkin_03s.jpg,0.0,Orange.png,2.0,30,,,,,,,,,,,,,,0.0,1.0,2.2489,0.0,9.0,9.0,9.0,1.0,,,,,,,,,,,,,,,
,,,,,,,,,,,,,,,,,,,,,,,,,,,,,,,,,,,,,,,,,,,dashboard_02s.jpg,0.0,Yellow.png,2.0,30,,,,,,,,,,,,,,0.0,1.0,1.7061,0.0,10.0,10.0,10.0,1.0,,,,,,,,,,,,,,,
,,,,,,,,,,,,,,,,,,,,,,,,,,,,,,,,,,,,,,,,,,,syringe_02s.jpg,0.0,Green.png,2.0,30,,,,,,,,,,,,,,0.0,1.0,1.1003,0.0,11.0,11.0,11.0,1.0,,,,,,,,,,,,,,,
,,,,,,,,,,,,,,,,,,,,,,,,,,,,,,,,,,,,,,,,,,,powder_07s.jpg,0.0,Blue.png,3.0,30,,,,,,,,,,,,,,0.0,1.0,1.8447,0.0,12.0,12.0,12.0,1.0,,,,,,,,,,,,,,,
,,,,,,,,,,,,,,,,,,,,,,,,,,,,,,,,,,,,,,,,,,,powder_07s.jpg,0.0,Purple.png,3.0,30,,,,,,,,,,,,,,0.0,1.0,1.5483,0.0,13.0,13.0,13.0,1.0,,,,,,,,,,,,,,,
,,,,,,,,,,,,,,,,,,,,,,,,,,,,,,,,,,,,,,,,,,,powder_07s.jpg,1.0,Red.png,3.0,30,,,,,,,,,,,,,,1.0,1.0,1.4456,0.0,14.0,14.0,14.0,1.0,,,,,,,,,,,,,,,
,,,,,,,,,,,,,,,,,,,,,,,,,,,,,,,,,,,,,,,,,,,sea_urchin_09s.jpg,0.0,Orange.png,3.0,30,,,,,,,,,,,,,,0.0,1.0,1.083,0.0,15.0,15.0,15.0,1.0,,,,,,,,,,,,,,,
,,,,,,,,,,,,,,,,,,,,,,,,,,,,,,,,,,,,,,,,,,,throne_11s.jpg,0.0,Yellow.png,3.0,30,,,,,,,,,,,,,,0.0,1.0,1.1846,0.0,16.0,16.0,16.0,1.0,,,,,,,,,,,,,,,
,,,,,,,,,,,,,,,,,,,,,,,,,,,,,,,,,,,,,,,,,,,powder_07s.jpg,0.0,Green.png,3.0,30,,,,,,,,,,,,,,1.0,0.0,1.3482,0.0,17.0,17.0,17.0,1.0,,,,,,,,,,,,,,,
,,,,,,,,,,,,,,,,,,,,,,,,,,,,,,,,,,,,,,,,,,,chalice_10s.jpg,0.0,Blue.png,4.0,30,,,,,,,,,,,,,,0.0,1.0,1.0096,0.0,18.0,18.0,18.0,1.0,,,,,,,,,,,,,,,
,,,,,,,,,,,,,,,,,,,,,,,,,,,,,,,,,,,,,,,,,,,air_pump_05s.jpg,0.0,Purple.png,4.0,30,,,,,,,,,,,,,,0.0,1.0,1.7759,0.0,19.0,19.0,19.0,1.0,,,,,,,,,,,,,,,
,,,,,,,,,,,,,,,,,,,,,,,,,,,,,,,,,,,,,,,,,,,microwave_02s.jpg,0.0,Red.png,4.0,30,,,,,,,,,,,,,,0.0,1.0,1.3281,0.0,20.0,20.0,20.0,1.0,,,,,,,,,,,,,,,
,,,,,,,,,,,,,,,,,,,,,,,,,,,,,,,,,,,,,,,,,,,cereal_04s.jpg,0.0,Orange.png,4.0,30,,,,,,,,,,,,,,0.0,1.0,1.04,0.0,21.0,21.0,21.0,1.0,,,,,,,,,,,,,,,
,,,,,,,,,,,,,,,,,,,,,,,,,,,,,,,,,,,,,,,,,,,mushroom_10n.jpg,0.0,Yellow.png,4.0,30,,,,,,,,,,,,,,0.0,1.0,1.7165,0.0,22.0,22.0,22.0,1.0,,,,,,,,,,,,,,,
,,,,,,,,,,,,,,,,,,,,,,,,,,,,,,,,,,,,,,,,,,,red_carpet_03s.jpg,0.0,Green.png,4.0,30,,,,,,,,,,,,,,0.0,1.0,1.7661,0.0,23.0,23.0,23.0,1.0,,,,,,,,,,,,,,,
,,,,,,,,,,,,,,,,,,,,,,,,,,,,,,,,,,,,,,,,,,,throne_11s.jpg,0.0,Blue.png,5.0,30,,,,,,,,,,,,,,1.0,0.0,1.5808,0.0,24.0,24.0,24.0,1.0,,,,,,,,,,,,,,,
,,,,,,,,,,,,,,,,,,,,,,,,,,,,,,,,,,,,,,,,,,,koala_13s.jpg,0.0,Purple.png,5.0,30,,,,,,,,,,,,,,,0.0,,0.0,25.0,25.0,25.0,1.0,,,,,,,,,,,,,,,
,,,,,,,,,,,,,,,,,,,,,,,,,,,,,,,,,,,,,,,,,,,throne_11s.jpg,1.0,Red.png,5.0,30,,,,,,,,,,,,,,1.0,1.0,1.1619,0.0,26.0,26.0,26.0,1.0,,,,,,,,,,,,,,,
,,,,,,,,,,,,,,,,,,,,,,,,,,,,,,,,,,,,,,,,,,,rocket_02s.jpg,0.0,Orange.png,5.0,30,,,,,,,,,,,,,,0.0,1.0,0.8376,0.0,27.0,27.0,27.0,1.0,,,,,,,,,,,,,,,
,,,,,,,,,,,,,,,,,,,,,,,,,,,,,,,,,,,,,,,,,,,swordfish_05s.jpg,0.0,Yellow.png,5.0,30,,,,,,,,,,,,,,0.0,1.0,1.0729,0.0,28.0,28.0,28.0,1.0,,,,,,,,,,,,,,,
,,,,,,,,,,,,,,,,,,,,,,,,,,,,,,,,,,,,,,,,,,,rocket_02s.jpg,1.0,Green.png,5.0,30,,,,,,,,,,,,,,1.0,1.0,1.2623,0.0,29.0,29.0,29.0,1.0,,,,,,,,,,,,,,,
,,,,,,,,,,,,,,,,,,,,,,,,,,,,,,,,,,,,,,,,,,,icicle_04s.jpg,0.0,Blue.png,6.0,30,,,,,,,,,,,,,,0.0,1.0,1.0146,0.0,30.0,30.0,30.0,1.0,,,,,,,,,,,,,,,
,,,,,,,,,,,,,,,,,,,,,,,,,,,,,,,,,,,,,,,,,,,keyboard_05s.jpg,0.0,Purple.png,6.0,30,,,,,,,,,,,,,,0.0,1.0,1.3176,0.0,31.0,31.0,31.0,1.0,,,,,,,,,,,,,,,
,,,,,,,,,,,,,,,,,,,,,,,,,,,,,,,,,,,,,,,,,,,pocket_watch_16s.jpg,0.0,Red.png,6.0,30,,,,,,,,,,,,,,0.0,1.0,1.8637,0.0,32.0,32.0,32.0,1.0,,,,,,,,,,,,,,,
,,,,,,,,,,,,,,,,,,,,,,,,,,,,,,,,,,,,,,,,,,,tablet_04s.jpg,0.0,Orange.png,6.0,30,,,,,,,,,,,,,,0.0,1.0,0.9957,0.0,33.0,33.0,33.0,1.0,,,,,,,,,,,,,,,
,,,,,,,,,,,,,,,,,,,,,,,,,,,,,,,,,,,,,,,,,,,chocolate_01b.jpg,0.0,Yellow.png,6.0,30,,,,,,,,,,,,,,0.0,1.0,0.7999,0.0,34.0,34.0,34.0,1.0,,,,,,,,,,,,,,,
,,,,,,,,,,,,,,,,,,,,,,,,,,,,,,,,,,,,,,,,,,,light_switch_02s.jpg,0.0,Green.png,6.0,30,,,,,,,,,,,,,,0.0,1.0,1.3372,0.0,35.0,35.0,35.0,1.0,,,,,,,,,,,,,,,
,,,,,,,,,,,,,,,,,,,,,,,,,,,,,,,,,,,,,,,,,,,,0.0,,,30,,,,,,,,,,chalice_10s.jpg,sea_urchin_09s.jpg,,,,,,,,,,,1.0,0.0,1.8449,0.0,0.0,0.0,0.0,1.0,,,,,,,
,,,,,,,,,,,,,,,,,,,,,,,,,,,,,,,,,,,,,,,,,,,,1.0,,,30,,,,,,,,,,swordfish_05s.jpg,keyboard_05s.jpg,,,,,,,,,,,1.0,1.0,2.0705,0.0,1.0,1.0,1.0,1.0,,,,,,,
,,,,,,,,,,,,,,,,,,,,,,,,,,,,,,,,,,,,,,,,,,,,0.0,,,30,,,,,,,,,,red_carpet_03s.jpg,microwave_02s.jpg,,,,,,,,,,,1.0,0.0,1.5383,0.0,2.0,2.0,2.0,1.0,,,,,,,
,,,,,,,,,,,,,,,,,,,,,,,,,,,,,,,,,,,,,,,,,,,,0.0,,,30,,,,,,,,,,dashboard_02s.jpg,toad_09s.jpg,,,,,,,,,,,0.0,1.0,1.8027,0.0,3.0,3.0,3.0,1.0,,,,,,,
,,,,,,,,,,,,,,,,,,,,,,,,,,,,,,,,,,,,,,,,,,,,0.0,,,30,,,,,,,,,,koala_13s.jpg,mushroom_10n.jpg,,,,,,,,,,,0.0,1.0,1.5829,0.0,4.0,4.0,4.0,1.0,,,,,,,
,,,,,,,,,,,,,,,,,,,,,,,,,,,,,,,,,,,,,,,,,,,,1.0,,,30,,,,,,,,,,icicle_04s.jpg,tablet_04s.jpg,,,,,,,,,,,0.0,0.0,1.8505,0.0,5.0,5.0,5.0,1.0,,,,,,,
,,,,,,,,,,,,,,,,,,,,,,,,,,,,,,,,,,,,,,,,,,,,,,,30,,,,,,,,,,,,,,,,,,,,,,,,,,,,,,0.0,8.0,8.0,8.0,1.0,new2backpresent_9_4.xlsx,new2back_compare_task_9_4.xlsx
