key_resp_3.keys,key_resp_3.rt,key_resp_4.keys,key_resp_4.rt,key_resp_5.keys,key_resp_5.rt,key_resp_6.keys,key_resp_6.rt,key_resp_7.keys,key_resp_7.rt,key_resp_8.keys,key_resp_8.rt,key_resp_9.keys,key_resp_9.rt,key_resp_10.keys,key_resp_10.rt,key_resp_11.keys,key_resp_11.rt,key_resp_12.keys,key_resp_12.rt,key_resp_13.keys,key_resp_13.rt,key_resp_14.keys,key_resp_14.rt,key_resp_15.keys,key_resp_15.rt,key_resp_16.keys,key_resp_16.rt,key_resp_17.keys,key_resp_17.rt,key_resp_18.keys,key_resp_18.rt,key_resp_19.keys,key_resp_19.rt,key_resp_20.keys,key_resp_20.rt,key_resp_21.keys,key_resp_21.corr,key_resp_21.rt,trials.thisRepN,trials.thisTrialN,trials.thisN,trials.thisIndex,trials.ran,pictures,answer,clock,segment,participant,key_resp_22.keys,key_resp_22.corr,key_resp_22.rt,trials_2.thisRepN,trials_2.thisTrialN,trials_2.thisN,trials_2.thisIndex,trials_2.ran,item_a,item_b,key_resp_23.keys,key_resp_23.rt,key_resp.keys,key_resp.corr,key_resp.rt,present_segment.thisRepN,present_segment.thisTrialN,present_segment.thisN,present_segment.thisIndex,present_segment.ran,key_resp_2.keys,key_resp_2.corr,key_resp_2.rt,compare_segment.thisRepN,compare_segment.thisTrialN,compare_segment.thisN,compare_segment.thisIndex,compare_segment.ran,clock_conditions.thisRepN,clock_conditions.thisTrialN,clock_conditions.thisN,clock_conditions.thisIndex,clock_conditions.ran,present,compare
space,27.087,space,1.057,0.0,4.844,0.0,1.227,1.0,1.831,0.0,0.712,0.0,0.777,1.0,0.998,0.0,11.667,0.0,2.221,1.0,2.863,0.0,3.9,0.0,0.831,0.0,0.77,space,1.785,1.0,6.061,0.0,5.945,space,2.919,0.0,1.0,1.775,0.0,0.0,0.0,0.0,1.0,whipped_cream_02s.jpg,0.0,Blue.png,1.0,70,,,,,,,,,,,,,,,,,,,,,,,,,,,,,,,,,,,
,,,,,,,,,,,,,,,,,,,,,,,,,,,,,,,,,,,,0.0,1.0,0.6,0.0,1.0,1.0,1.0,1.0,sheep_02s.jpg,0.0,Purple.png,1.0,70,,,,,,,,,,,,,,,,,,,,,,,,,,,,,,,,,,,
,,,,,,,,,,,,,,,,,,,,,,,,,,,,,,,,,,,,0.0,0.0,0.496,0.0,2.0,2.0,2.0,1.0,sheep_02s.jpg,1.0,Red.png,1.0,70,,,,,,,,,,,,,,,,,,,,,,,,,,,,,,,,,,,
,,,,,,,,,,,,,,,,,,,,,,,,,,,,,,,,,,,,0.0,1.0,0.857,0.0,3.0,3.0,3.0,1.0,sequin_02s.jpg,0.0,Orange.png,1.0,70,,,,,,,,,,,,,,,,,,,,,,,,,,,,,,,,,,,
,,,,,,,,,,,,,,,,,,,,,,,,,,,,,,,,,,,,1.0,1.0,0.953,0.0,4.0,4.0,4.0,1.0,sheep_02s.jpg,1.0,Yellow.png,1.0,70,,,,,,,,,,,,,,,,,,,,,,,,,,,,,,,,,,,
,,,,,,,,,,,,,,,,,,,,,,,,,,,,,,,,,,,,0.0,1.0,1.093,0.0,5.0,5.0,5.0,1.0,scoop_05s.jpg,0.0,Green.png,1.0,70,,,,,,,,,,,,,,,,,,,,,,,,,,,,,,,,,,,
,,,,,,,,,,,,,,,,,,,,,,,,,,,,,,,,,,,,0.0,1.0,0.632,0.0,6.0,6.0,6.0,1.0,wagon_12s.jpg,0.0,Blue.png,2.0,70,,,,,,,,,,,,,,,,,,,,,,,,,,,,,,,,,,,
,,,,,,,,,,,,,,,,,,,,,,,,,,,,,,,,,,,,0.0,1.0,1.196,0.0,7.0,7.0,7.0,1.0,scrabble_05s.jpg,0.0,Purple.png,2.0,70,,,,,,,,,,,,,,,,,,,,,,,,,,,,,,,,,,,
,,,,,,,,,,,,,,,,,,,,,,,,,,,,,,,,,,,,1.0,1.0,1.235,0.0,8.0,8.0,8.0,1.0,wagon_12s.jpg,1.0,Red.png,2.0,70,,,,,,,,,,,,,,,,,,,,,,,,,,,,,,,,,,,
,,,,,,,,,,,,,,,,,,,,,,,,,,,,,,,,,,,,1.0,1.0,1.237,0.0,9.0,9.0,9.0,1.0,scrabble_05s.jpg,1.0,Orange.png,2.0,70,,,,,,,,,,,,,,,,,,,,,,,,,,,,,,,,,,,
,,,,,,,,,,,,,,,,,,,,,,,,,,,,,,,,,,,,0.0,1.0,1.197,0.0,10.0,10.0,10.0,1.0,weasel_08s.jpg,0.0,Yellow.png,2.0,70,,,,,,,,,,,,,,,,,,,,,,,,,,,,,,,,,,,
,,,,,,,,,,,,,,,,,,,,,,,,,,,,,,,,,,,,0.0,1.0,1.377,0.0,11.0,11.0,11.0,1.0,scooter_06s.jpg,0.0,Green.png,2.0,70,,,,,,,,,,,,,,,,,,,,,,,,,,,,,,,,,,,
,,,,,,,,,,,,,,,,,,,,,,,,,,,,,,,,,,,,0.0,1.0,1.351,0.0,12.0,12.0,12.0,1.0,wetsuit_04s.jpg,0.0,Blue.png,3.0,70,,,,,,,,,,,,,,,,,,,,,,,,,,,,,,,,,,,
,,,,,,,,,,,,,,,,,,,,,,,,,,,,,,,,,,,,1.0,1.0,1.26,0.0,13.0,13.0,13.0,1.0,wetsuit_04s.jpg,1.0,Purple.png,3.0,70,,,,,,,,,,,,,,,,,,,,,,,,,,,,,,,,,,,
,,,,,,,,,,,,,,,,,,,,,,,,,,,,,,,,,,,,1.0,1.0,1.728,0.0,14.0,14.0,14.0,1.0,wetsuit_04s.jpg,1.0,Red.png,3.0,70,,,,,,,,,,,,,,,,,,,,,,,,,,,,,,,,,,,
,,,,,,,,,,,,,,,,,,,,,,,,,,,,,,,,,,,,0.0,1.0,1.154,0.0,15.0,15.0,15.0,1.0,water_fountain_01b.jpg,0.0,Orange.png,3.0,70,,,,,,,,,,,,,,,,,,,,,,,,,,,,,,,,,,,
,,,,,,,,,,,,,,,,,,,,,,,,,,,,,,,,,,,,1.0,0.0,1.386,0.0,16.0,16.0,16.0,1.0,wagon_12s.jpg,0.0,Yellow.png,3.0,70,,,,,,,,,,,,,,,,,,,,,,,,,,,,,,,,,,,
,,,,,,,,,,,,,,,,,,,,,,,,,,,,,,,,,,,,0.0,1.0,1.61,0.0,17.0,17.0,17.0,1.0,wing_08s.jpg,0.0,Green.png,3.0,70,,,,,,,,,,,,,,,,,,,,,,,,,,,,,,,,,,,
,,,,,,,,,,,,,,,,,,,,,,,,,,,,,,,,,,,,0.0,1.0,1.417,0.0,18.0,18.0,18.0,1.0,shield_02s.jpg,0.0,Blue.png,4.0,70,,,,,,,,,,,,,,,,,,,,,,,,,,,,,,,,,,,
,,,,,,,,,,,,,,,,,,,,,,,,,,,,,,,,,,,,0.0,1.0,1.488,0.0,19.0,19.0,19.0,1.0,shovel_09s.jpg,0.0,Purple.png,4.0,70,,,,,,,,,,,,,,,,,,,,,,,,,,,,,,,,,,,
,,,,,,,,,,,,,,,,,,,,,,,,,,,,,,,,,,,,0.0,1.0,0.65,0.0,20.0,20.0,20.0,1.0,watch_09s.jpg,0.0,Red.png,4.0,70,,,,,,,,,,,,,,,,,,,,,,,,,,,,,,,,,,,
,,,,,,,,,,,,,,,,,,,,,,,,,,,,,,,,,,,,1.0,1.0,1.78,0.0,21.0,21.0,21.0,1.0,shovel_09s.jpg,1.0,Orange.png,4.0,70,,,,,,,,,,,,,,,,,,,,,,,,,,,,,,,,,,,
,,,,,,,,,,,,,,,,,,,,,,,,,,,,,,,,,,,,1.0,1.0,1.416,0.0,22.0,22.0,22.0,1.0,shovel_09s.jpg,1.0,Yellow.png,4.0,70,,,,,,,,,,,,,,,,,,,,,,,,,,,,,,,,,,,
,,,,,,,,,,,,,,,,,,,,,,,,,,,,,,,,,,,,0.0,1.0,1.13,0.0,23.0,23.0,23.0,1.0,watering_can_14s.jpg,0.0,Green.png,4.0,70,,,,,,,,,,,,,,,,,,,,,,,,,,,,,,,,,,,
,,,,,,,,,,,,,,,,,,,,,,,,,,,,,,,,,,,,0.0,1.0,1.219,0.0,24.0,24.0,24.0,1.0,wasp_13n.jpg,0.0,Blue.png,5.0,70,,,,,,,,,,,,,,,,,,,,,,,,,,,,,,,,,,,
,,,,,,,,,,,,,,,,,,,,,,,,,,,,,,,,,,,,0.0,1.0,1.701,0.0,25.0,25.0,25.0,1.0,shoelace_13s.jpg,0.0,Purple.png,5.0,70,,,,,,,,,,,,,,,,,,,,,,,,,,,,,,,,,,,
,,,,,,,,,,,,,,,,,,,,,,,,,,,,,,,,,,,,0.0,1.0,1.029,0.0,26.0,26.0,26.0,1.0,scarf_16s.jpg,0.0,Red.png,5.0,70,,,,,,,,,,,,,,,,,,,,,,,,,,,,,,,,,,,
,,,,,,,,,,,,,,,,,,,,,,,,,,,,,,,,,,,,0.0,1.0,1.801,0.0,27.0,27.0,27.0,1.0,screwdriver_07s.jpg,0.0,Orange.png,5.0,70,,,,,,,,,,,,,,,,,,,,,,,,,,,,,,,,,,,
,,,,,,,,,,,,,,,,,,,,,,,,,,,,,,,,,,,,0.0,1.0,1.349,0.0,28.0,28.0,28.0,1.0,drink_05s.jpg,0.0,Yellow.png,5.0,70,,,,,,,,,,,,,,,,,,,,,,,,,,,,,,,,,,,
,,,,,,,,,,,,,,,,,,,,,,,,,,,,,,,,,,,,1.0,1.0,1.244,0.0,29.0,29.0,29.0,1.0,screwdriver_07s.jpg,1.0,Green.png,5.0,70,,,,,,,,,,,,,,,,,,,,,,,,,,,,,,,,,,,
,,,,,,,,,,,,,,,,,,,,,,,,,,,,,,,,,,,,0.0,1.0,1.107,0.0,30.0,30.0,30.0,1.0,seaweed_07s.jpg,0.0,Blue.png,6.0,70,,,,,,,,,,,,,,,,,,,,,,,,,,,,,,,,,,,
,,,,,,,,,,,,,,,,,,,,,,,,,,,,,,,,,,,,0.0,1.0,1.077,0.0,31.0,31.0,31.0,1.0,saxophone_04s.jpg,0.0,Purple.png,6.0,70,,,,,,,,,,,,,,,,,,,,,,,,,,,,,,,,,,,
,,,,,,,,,,,,,,,,,,,,,,,,,,,,,,,,,,,,1.0,1.0,1.164,0.0,32.0,32.0,32.0,1.0,saxophone_04s.jpg,1.0,Red.png,6.0,70,,,,,,,,,,,,,,,,,,,,,,,,,,,,,,,,,,,
,,,,,,,,,,,,,,,,,,,,,,,,,,,,,,,,,,,,0.0,1.0,1.169,0.0,33.0,33.0,33.0,1.0,scorpion_01b.jpg,0.0,Orange.png,6.0,70,,,,,,,,,,,,,,,,,,,,,,,,,,,,,,,,,,,
,,,,,,,,,,,,,,,,,,,,,,,,,,,,,,,,,,,,1.0,0.0,1.041,0.0,34.0,34.0,34.0,1.0,shovel_09s.jpg,0.0,Yellow.png,6.0,70,,,,,,,,,,,,,,,,,,,,,,,,,,,,,,,,,,,
,,,,,,,,,,,,,,,,,,,,,,,,,,,,,,,,,,,,1.0,1.0,1.219,0.0,35.0,35.0,35.0,1.0,saxophone_04s.jpg,1.0,Green.png,6.0,70,,,,,,,,,,,,,,,,,,,,,,,,,,,,,,,,,,,
,,,,,,,,,,,,,,,,,,,,,,,,,,,,,,,,,,,,,,,,,,,,,1.0,,,70,1.0,1.0,2.775,0.0,0.0,0.0,0.0,1.0,water_fountain_01b.jpg,shield_02s.jpg,,,,,,,,,,,,,,,,,,,,,,,,,
,,,,,,,,,,,,,,,,,,,,,,,,,,,,,,,,,,,,,,,,,,,,,0.0,,,70,0.0,1.0,0.525,0.0,1.0,1.0,1.0,1.0,watch_09s.jpg,wing_08s.jpg,,,,,,,,,,,,,,,,,,,,,,,,,
,,,,,,,,,,,,,,,,,,,,,,,,,,,,,,,,,,,,,,,,,,,,,1.0,,,70,0.0,0.0,0.418,0.0,2.0,2.0,2.0,1.0,watering_can_14s.jpg,scarf_16s.jpg,,,,,,,,,,,,,,,,,,,,,,,,,
,,,,,,,,,,,,,,,,,,,,,,,,,,,,,,,,,,,,,,,,,,,,,1.0,,,70,0.0,0.0,0.356,0.0,3.0,3.0,3.0,1.0,whipped_cream_02s.jpg,sequin_02s.jpg,,,,,,,,,,,,,,,,,,,,,,,,,
,,,,,,,,,,,,,,,,,,,,,,,,,,,,,,,,,,,,,,,,,,,,,0.0,,,70,1.0,0.0,0.402,0.0,4.0,4.0,4.0,1.0,drink_05s.jpg,shoelace_13s.jpg,,,,,,,,,,,,,,,,,,,,,,,,,
,,,,,,,,,,,,,,,,,,,,,,,,,,,,,,,,,,,,,,,,,,,,,1.0,,,70,0.0,0.0,0.901,0.0,5.0,5.0,5.0,1.0,seaweed_07s.jpg,scorpion_01b.jpg,,,,,,,,,,,,,,,,,,,,,,,,,
,,,,,,,,,,,,,,,,,,,,,,,,,,,,,,,,,,,,,,,,,,,,insole_11s.jpg,0.0,Blue.png,1.0,70,,,,,,,,,,,space,1.317,0.0,1.0,1.397,0.0,0.0,0.0,0.0,1.0,,,,,,,,,,,,,,,
,,,,,,,,,,,,,,,,,,,,,,,,,,,,,,,,,,,,,,,,,,,,tupperware_09s.jpg,0.0,Purple.png,1.0,70,,,,,,,,,,,,,0.0,1.0,0.727,0.0,1.0,1.0,1.0,1.0,,,,,,,,,,,,,,,
,,,,,,,,,,,,,,,,,,,,,,,,,,,,,,,,,,,,,,,,,,,,tupperware_09s.jpg,1.0,Red.png,1.0,70,,,,,,,,,,,,,1.0,1.0,0.95,0.0,2.0,2.0,2.0,1.0,,,,,,,,,,,,,,,
,,,,,,,,,,,,,,,,,,,,,,,,,,,,,,,,,,,,,,,,,,,,fox_13s.jpg,0.0,Orange.png,1.0,70,,,,,,,,,,,,,0.0,1.0,0.486,0.0,3.0,3.0,3.0,1.0,,,,,,,,,,,,,,,
,,,,,,,,,,,,,,,,,,,,,,,,,,,,,,,,,,,,,,,,,,,,tupperware_09s.jpg,1.0,Yellow.png,1.0,70,,,,,,,,,,,,,1.0,1.0,1.031,0.0,4.0,4.0,4.0,1.0,,,,,,,,,,,,,,,
,,,,,,,,,,,,,,,,,,,,,,,,,,,,,,,,,,,,,,,,,,,,lavender_10s.jpg,0.0,Green.png,1.0,70,,,,,,,,,,,,,0.0,1.0,0.694,0.0,5.0,5.0,5.0,1.0,,,,,,,,,,,,,,,
,,,,,,,,,,,,,,,,,,,,,,,,,,,,,,,,,,,,,,,,,,,,tupperware_09s.jpg,0.0,Blue.png,2.0,70,,,,,,,,,,,,,1.0,0.0,0.736,0.0,6.0,6.0,6.0,1.0,,,,,,,,,,,,,,,
,,,,,,,,,,,,,,,,,,,,,,,,,,,,,,,,,,,,,,,,,,,,poinsettia_04s.jpg,0.0,Purple.png,2.0,70,,,,,,,,,,,,,0.0,1.0,0.597,0.0,7.0,7.0,7.0,1.0,,,,,,,,,,,,,,,
,,,,,,,,,,,,,,,,,,,,,,,,,,,,,,,,,,,,,,,,,,,,margarita_03s.jpg,0.0,Red.png,2.0,70,,,,,,,,,,,,,0.0,1.0,0.447,0.0,8.0,8.0,8.0,1.0,,,,,,,,,,,,,,,
,,,,,,,,,,,,,,,,,,,,,,,,,,,,,,,,,,,,,,,,,,,,toothpaste_12s.jpg,0.0,Orange.png,2.0,70,,,,,,,,,,,,,0.0,1.0,0.466,0.0,9.0,9.0,9.0,1.0,,,,,,,,,,,,,,,
,,,,,,,,,,,,,,,,,,,,,,,,,,,,,,,,,,,,,,,,,,,,ladder_15s.jpg,0.0,Yellow.png,2.0,70,,,,,,,,,,,,,0.0,1.0,0.698,0.0,10.0,10.0,10.0,1.0,,,,,,,,,,,,,,,
,,,,,,,,,,,,,,,,,,,,,,,,,,,,,,,,,,,,,,,,,,,,pocketknife_12s.jpg,0.0,Green.png,2.0,70,,,,,,,,,,,,,0.0,1.0,0.673,0.0,11.0,11.0,11.0,1.0,,,,,,,,,,,,,,,
,,,,,,,,,,,,,,,,,,,,,,,,,,,,,,,,,,,,,,,,,,,,spoon02a.jpg,0.0,Blue.png,3.0,70,,,,,,,,,,,,,0.0,1.0,0.507,0.0,12.0,12.0,12.0,1.0,,,,,,,,,,,,,,,
,,,,,,,,,,,,,,,,,,,,,,,,,,,,,,,,,,,,,,,,,,,,mango_09s.jpg,0.0,Purple.png,3.0,70,,,,,,,,,,,,,0.0,1.0,0.53,0.0,13.0,13.0,13.0,1.0,,,,,,,,,,,,,,,
,,,,,,,,,,,,,,,,,,,,,,,,,,,,,,,,,,,,,,,,,,,,chalice_10s.jpg,0.0,Red.png,3.0,70,,,,,,,,,,,,,0.0,1.0,0.613,0.0,14.0,14.0,14.0,1.0,,,,,,,,,,,,,,,
,,,,,,,,,,,,,,,,,,,,,,,,,,,,,,,,,,,,,,,,,,,,pocketknife_12s.jpg,0.0,Orange.png,3.0,70,,,,,,,,,,,,,1.0,0.0,0.969,0.0,15.0,15.0,15.0,1.0,,,,,,,,,,,,,,,
,,,,,,,,,,,,,,,,,,,,,,,,,,,,,,,,,,,,,,,,,,,,abacus_12s.jpg,0.0,Yellow.png,3.0,70,,,,,,,,,,,,,0.0,1.0,1.49,0.0,16.0,16.0,16.0,1.0,,,,,,,,,,,,,,,
,,,,,,,,,,,,,,,,,,,,,,,,,,,,,,,,,,,,,,,,,,,,abacus_12s.jpg,1.0,Green.png,3.0,70,,,,,,,,,,,,,1.0,1.0,1.0,0.0,17.0,17.0,17.0,1.0,,,,,,,,,,,,,,,
,,,,,,,,,,,,,,,,,,,,,,,,,,,,,,,,,,,,,,,,,,,,abacus_12s.jpg,0.0,Blue.png,4.0,70,,,,,,,,,,,,,1.0,0.0,0.937,0.0,18.0,18.0,18.0,1.0,,,,,,,,,,,,,,,
,,,,,,,,,,,,,,,,,,,,,,,,,,,,,,,,,,,,,,,,,,,,abacus_12s.jpg,1.0,Purple.png,4.0,70,,,,,,,,,,,,,1.0,1.0,1.492,0.0,19.0,19.0,19.0,1.0,,,,,,,,,,,,,,,
,,,,,,,,,,,,,,,,,,,,,,,,,,,,,,,,,,,,,,,,,,,,sushi_08s.jpg,0.0,Red.png,4.0,70,,,,,,,,,,,,,0.0,1.0,2.198,0.0,20.0,20.0,20.0,1.0,,,,,,,,,,,,,,,
,,,,,,,,,,,,,,,,,,,,,,,,,,,,,,,,,,,,,,,,,,,,funnel_01b.jpg,0.0,Orange.png,4.0,70,,,,,,,,,,,,,0.0,1.0,1.866,0.0,21.0,21.0,21.0,1.0,,,,,,,,,,,,,,,
,,,,,,,,,,,,,,,,,,,,,,,,,,,,,,,,,,,,,,,,,,,,rooster_03s.jpg,0.0,Yellow.png,4.0,70,,,,,,,,,,,,,0.0,1.0,1.433,0.0,22.0,22.0,22.0,1.0,,,,,,,,,,,,,,,
,,,,,,,,,,,,,,,,,,,,,,,,,,,,,,,,,,,,,,,,,,,,ukulele_02s.jpg,0.0,Green.png,4.0,70,,,,,,,,,,,,,0.0,1.0,1.332,0.0,23.0,23.0,23.0,1.0,,,,,,,,,,,,,,,
,,,,,,,,,,,,,,,,,,,,,,,,,,,,,,,,,,,,,,,,,,,,pocketknife_12s.jpg,0.0,Blue.png,5.0,70,,,,,,,,,,,,,1.0,0.0,1.353,0.0,24.0,24.0,24.0,1.0,,,,,,,,,,,,,,,
,,,,,,,,,,,,,,,,,,,,,,,,,,,,,,,,,,,,,,,,,,,,pocketknife_12s.jpg,1.0,Purple.png,5.0,70,,,,,,,,,,,,,1.0,1.0,1.146,0.0,25.0,25.0,25.0,1.0,,,,,,,,,,,,,,,
,,,,,,,,,,,,,,,,,,,,,,,,,,,,,,,,,,,,,,,,,,,,pocketknife_12s.jpg,1.0,Red.png,5.0,70,,,,,,,,,,,,,1.0,1.0,1.698,0.0,26.0,26.0,26.0,1.0,,,,,,,,,,,,,,,
,,,,,,,,,,,,,,,,,,,,,,,,,,,,,,,,,,,,,,,,,,,,stapler_01b.jpg,0.0,Orange.png,5.0,70,,,,,,,,,,,,,0.0,1.0,1.211,0.0,27.0,27.0,27.0,1.0,,,,,,,,,,,,,,,
,,,,,,,,,,,,,,,,,,,,,,,,,,,,,,,,,,,,,,,,,,,,birthday_cake_09s.jpg,0.0,Yellow.png,5.0,70,,,,,,,,,,,,,0.0,1.0,1.262,0.0,28.0,28.0,28.0,1.0,,,,,,,,,,,,,,,
,,,,,,,,,,,,,,,,,,,,,,,,,,,,,,,,,,,,,,,,,,,,meatball_13s.jpg,0.0,Green.png,5.0,70,,,,,,,,,,,,,0.0,1.0,1.186,0.0,29.0,29.0,29.0,1.0,,,,,,,,,,,,,,,
,,,,,,,,,,,,,,,,,,,,,,,,,,,,,,,,,,,,,,,,,,,,cape_11s.jpg,0.0,Blue.png,6.0,70,,,,,,,,,,,,,0.0,1.0,1.146,0.0,30.0,30.0,30.0,1.0,,,,,,,,,,,,,,,
,,,,,,,,,,,,,,,,,,,,,,,,,,,,,,,,,,,,,,,,,,,,cape_11s.jpg,1.0,Purple.png,6.0,70,,,,,,,,,,,,,1.0,1.0,1.369,0.0,31.0,31.0,31.0,1.0,,,,,,,,,,,,,,,
,,,,,,,,,,,,,,,,,,,,,,,,,,,,,,,,,,,,,,,,,,,,lizard_10n.jpg,0.0,Red.png,6.0,70,,,,,,,,,,,,,0.0,1.0,1.602,0.0,32.0,32.0,32.0,1.0,,,,,,,,,,,,,,,
,,,,,,,,,,,,,,,,,,,,,,,,,,,,,,,,,,,,,,,,,,,,refrigerator_07s.jpg,0.0,Orange.png,6.0,70,,,,,,,,,,,,,0.0,1.0,1.51,0.0,33.0,33.0,33.0,1.0,,,,,,,,,,,,,,,
,,,,,,,,,,,,,,,,,,,,,,,,,,,,,,,,,,,,,,,,,,,,refrigerator_07s.jpg,1.0,Yellow.png,6.0,70,,,,,,,,,,,,,1.0,1.0,1.336,0.0,34.0,34.0,34.0,1.0,,,,,,,,,,,,,,,
,,,,,,,,,,,,,,,,,,,,,,,,,,,,,,,,,,,,,,,,,,,,touchpad_11s.jpg,0.0,Green.png,6.0,70,,,,,,,,,,,,,0.0,1.0,1.195,0.0,35.0,35.0,35.0,1.0,,,,,,,,,,,,,,,
,,,,,,,,,,,,,,,,,,,,,,,,,,,,,,,,,,,,,,,,,,,,,1.0,,,70,,,,,,,,,lavender_10s.jpg,margarita_03s.jpg,,,,,,,,,,,0.0,0.0,1.69,0.0,0.0,0.0,0.0,1.0,,,,,,,
,,,,,,,,,,,,,,,,,,,,,,,,,,,,,,,,,,,,,,,,,,,,,1.0,,,70,,,,,,,,,toothpaste_12s.jpg,spoon02a.jpg,,,,,,,,,,,1.0,1.0,1.173,0.0,1.0,1.0,1.0,1.0,,,,,,,
,,,,,,,,,,,,,,,,,,,,,,,,,,,,,,,,,,,,,,,,,,,,,1.0,,,70,,,,,,,,,ladder_15s.jpg,mango_09s.jpg,,,,,,,,,,,0.0,0.0,0.273,0.0,2.0,2.0,2.0,1.0,,,,,,,
,,,,,,,,,,,,,,,,,,,,,,,,,,,,,,,,,,,,,,,,,,,,,0.0,,,70,,,,,,,,,fox_13s.jpg,insole_11s.jpg,,,,,,,,,,,1.0,0.0,0.267,0.0,3.0,3.0,3.0,1.0,,,,,,,
,,,,,,,,,,,,,,,,,,,,,,,,,,,,,,,,,,,,,,,,,,,,,0.0,,,70,,,,,,,,,ukulele_02s.jpg,sushi_08s.jpg,,,,,,,,,,,1.0,0.0,0.549,0.0,4.0,4.0,4.0,1.0,,,,,,,
,,,,,,,,,,,,,,,,,,,,,,,,,,,,,,,,,,,,,,,,,,,,,0.0,,,70,,,,,,,,,touchpad_11s.jpg,lizard_10n.jpg,,,,,,,,,,,1.0,0.0,0.663,0.0,5.0,5.0,5.0,1.0,,,,,,,
,,,,,,,,,,,,,,,,,,,,,,,,,,,,,,,,,,,,,,,,,,,,,,,,70,,,,,,,,,,,,,,,,,,,,,,,,,,,,,0.0,0.0,0.0,0.0,1.0,newclockpresent_1_2.xlsx,newclock_compare_task_1_2.xlsx
,,,,,,,,,,,,,,,,,,,,,,,,,,,,,,,,,,,,,,,,,,,,juicer2_06s.jpg,0.0,Blue.png,1.0,70,,,,,,,,,,,,,0.0,1.0,0.519,0.0,0.0,0.0,0.0,1.0,,,,,,,,,,,,,,,
,,,,,,,,,,,,,,,,,,,,,,,,,,,,,,,,,,,,,,,,,,,,juicer2_06s.jpg,1.0,Purple.png,1.0,70,,,,,,,,,,,,,0.0,0.0,1.663,0.0,1.0,1.0,1.0,1.0,,,,,,,,,,,,,,,
,,,,,,,,,,,,,,,,,,,,,,,,,,,,,,,,,,,,,,,,,,,,tambourine_06s.jpg,0.0,Red.png,1.0,70,,,,,,,,,,,,,0.0,1.0,0.762,0.0,2.0,2.0,2.0,1.0,,,,,,,,,,,,,,,
,,,,,,,,,,,,,,,,,,,,,,,,,,,,,,,,,,,,,,,,,,,,luggage_08s.jpg,0.0,Orange.png,1.0,70,,,,,,,,,,,,,0.0,1.0,0.565,0.0,3.0,3.0,3.0,1.0,,,,,,,,,,,,,,,
,,,,,,,,,,,,,,,,,,,,,,,,,,,,,,,,,,,,,,,,,,,,tambourine_06s.jpg,1.0,Yellow.png,1.0,70,,,,,,,,,,,,,1.0,1.0,1.316,0.0,4.0,4.0,4.0,1.0,,,,,,,,,,,,,,,
,,,,,,,,,,,,,,,,,,,,,,,,,,,,,,,,,,,,,,,,,,,,towel_rack_04s.jpg,0.0,Green.png,1.0,70,,,,,,,,,,,,,0.0,1.0,1.113,0.0,5.0,5.0,5.0,1.0,,,,,,,,,,,,,,,
,,,,,,,,,,,,,,,,,,,,,,,,,,,,,,,,,,,,,,,,,,,,crayon_09s.jpg,0.0,Blue.png,2.0,70,,,,,,,,,,,,,0.0,1.0,0.955,0.0,6.0,6.0,6.0,1.0,,,,,,,,,,,,,,,
,,,,,,,,,,,,,,,,,,,,,,,,,,,,,,,,,,,,,,,,,,,,gargoyle_08s.jpg,0.0,Purple.png,2.0,70,,,,,,,,,,,,,0.0,1.0,1.196,0.0,7.0,7.0,7.0,1.0,,,,,,,,,,,,,,,
,,,,,,,,,,,,,,,,,,,,,,,,,,,,,,,,,,,,,,,,,,,,boar_10s.jpg,0.0,Red.png,2.0,70,,,,,,,,,,,,,0.0,1.0,0.996,0.0,8.0,8.0,8.0,1.0,,,,,,,,,,,,,,,
,,,,,,,,,,,,,,,,,,,,,,,,,,,,,,,,,,,,,,,,,,,,gargoyle_08s.jpg,1.0,Orange.png,2.0,70,,,,,,,,,,,,,1.0,1.0,1.329,0.0,9.0,9.0,9.0,1.0,,,,,,,,,,,,,,,
,,,,,,,,,,,,,,,,,,,,,,,,,,,,,,,,,,,,,,,,,,,,limousine_12s.jpg,0.0,Yellow.png,2.0,70,,,,,,,,,,,,,0.0,1.0,1.548,0.0,10.0,10.0,10.0,1.0,,,,,,,,,,,,,,,
,,,,,,,,,,,,,,,,,,,,,,,,,,,,,,,,,,,,,,,,,,,,outlet_10s.jpg,0.0,Green.png,2.0,70,,,,,,,,,,,,,0.0,1.0,0.971,0.0,11.0,11.0,11.0,1.0,,,,,,,,,,,,,,,
,,,,,,,,,,,,,,,,,,,,,,,,,,,,,,,,,,,,,,,,,,,,comic_book_02s.jpg,0.0,Blue.png,3.0,70,,,,,,,,,,,,,0.0,1.0,1.652,0.0,12.0,12.0,12.0,1.0,,,,,,,,,,,,,,,
,,,,,,,,,,,,,,,,,,,,,,,,,,,,,,,,,,,,,,,,,,,,mask_09s.jpg,0.0,Purple.png,3.0,70,,,,,,,,,,,,,0.0,1.0,1.403,0.0,13.0,13.0,13.0,1.0,,,,,,,,,,,,,,,
,,,,,,,,,,,,,,,,,,,,,,,,,,,,,,,,,,,,,,,,,,,,lasagna_06s.jpg,0.0,Red.png,3.0,70,,,,,,,,,,,,,0.0,1.0,1.244,0.0,14.0,14.0,14.0,1.0,,,,,,,,,,,,,,,
,,,,,,,,,,,,,,,,,,,,,,,,,,,,,,,,,,,,,,,,,,,,diving_board_07s.jpg,0.0,Orange.png,3.0,70,,,,,,,,,,,,,0.0,1.0,1.219,0.0,15.0,15.0,15.0,1.0,,,,,,,,,,,,,,,
,,,,,,,,,,,,,,,,,,,,,,,,,,,,,,,,,,,,,,,,,,,,lion_18s.jpg,0.0,Yellow.png,3.0,70,,,,,,,,,,,,,0.0,1.0,1.068,0.0,16.0,16.0,16.0,1.0,,,,,,,,,,,,,,,
,,,,,,,,,,,,,,,,,,,,,,,,,,,,,,,,,,,,,,,,,,,,diving_board_07s.jpg,1.0,Green.png,3.0,70,,,,,,,,,,,,,1.0,1.0,1.33,0.0,17.0,17.0,17.0,1.0,,,,,,,,,,,,,,,
,,,,,,,,,,,,,,,,,,,,,,,,,,,,,,,,,,,,,,,,,,,,lion_18s.jpg,0.0,Blue.png,4.0,70,,,,,,,,,,,,,0.0,1.0,1.739,0.0,18.0,18.0,18.0,1.0,,,,,,,,,,,,,,,
,,,,,,,,,,,,,,,,,,,,,,,,,,,,,,,,,,,,,,,,,,,,medal_04s.jpg,0.0,Purple.png,4.0,70,,,,,,,,,,,,,0.0,1.0,1.532,0.0,19.0,19.0,19.0,1.0,,,,,,,,,,,,,,,
,,,,,,,,,,,,,,,,,,,,,,,,,,,,,,,,,,,,,,,,,,,,incense_02s.jpg,0.0,Red.png,4.0,70,,,,,,,,,,,,,0.0,1.0,1.083,0.0,20.0,20.0,20.0,1.0,,,,,,,,,,,,,,,
,,,,,,,,,,,,,,,,,,,,,,,,,,,,,,,,,,,,,,,,,,,,tape_06s.jpg,0.0,Orange.png,4.0,70,,,,,,,,,,,,,0.0,1.0,0.884,0.0,21.0,21.0,21.0,1.0,,,,,,,,,,,,,,,
,,,,,,,,,,,,,,,,,,,,,,,,,,,,,,,,,,,,,,,,,,,,medal_04s.jpg,1.0,Yellow.png,4.0,70,,,,,,,,,,,,,1.0,1.0,1.348,0.0,22.0,22.0,22.0,1.0,,,,,,,,,,,,,,,
,,,,,,,,,,,,,,,,,,,,,,,,,,,,,,,,,,,,,,,,,,,,buoy_04s.jpg,0.0,Green.png,4.0,70,,,,,,,,,,,,,0.0,1.0,1.63,0.0,23.0,23.0,23.0,1.0,,,,,,,,,,,,,,,
,,,,,,,,,,,,,,,,,,,,,,,,,,,,,,,,,,,,,,,,,,,,limousine_12s.jpg,0.0,Blue.png,5.0,70,,,,,,,,,,,,,1.0,0.0,2.03,0.0,24.0,24.0,24.0,1.0,,,,,,,,,,,,,,,
,,,,,,,,,,,,,,,,,,,,,,,,,,,,,,,,,,,,,,,,,,,,jewel_01b.jpg,0.0,Purple.png,5.0,70,,,,,,,,,,,,,0.0,1.0,1.53,0.0,25.0,25.0,25.0,1.0,,,,,,,,,,,,,,,
,,,,,,,,,,,,,,,,,,,,,,,,,,,,,,,,,,,,,,,,,,,,parachute_03s.jpg,0.0,Red.png,5.0,70,,,,,,,,,,,,,0.0,1.0,1.65,0.0,26.0,26.0,26.0,1.0,,,,,,,,,,,,,,,
,,,,,,,,,,,,,,,,,,,,,,,,,,,,,,,,,,,,,,,,,,,,mannequin_05s.jpg,0.0,Orange.png,5.0,70,,,,,,,,,,,,,0.0,1.0,1.429,0.0,27.0,27.0,27.0,1.0,,,,,,,,,,,,,,,
,,,,,,,,,,,,,,,,,,,,,,,,,,,,,,,,,,,,,,,,,,,,snowman_02s.jpg,0.0,Yellow.png,5.0,70,,,,,,,,,,,,,0.0,1.0,1.035,0.0,28.0,28.0,28.0,1.0,,,,,,,,,,,,,,,
,,,,,,,,,,,,,,,,,,,,,,,,,,,,,,,,,,,,,,,,,,,,fossil_06s.jpg,0.0,Green.png,5.0,70,,,,,,,,,,,,,0.0,1.0,0.94,0.0,29.0,29.0,29.0,1.0,,,,,,,,,,,,,,,
,,,,,,,,,,,,,,,,,,,,,,,,,,,,,,,,,,,,,,,,,,,,perfume_06s.jpg,0.0,Blue.png,6.0,70,,,,,,,,,,,,,0.0,1.0,1.315,0.0,30.0,30.0,30.0,1.0,,,,,,,,,,,,,,,
,,,,,,,,,,,,,,,,,,,,,,,,,,,,,,,,,,,,,,,,,,,,fossil_06s.jpg,0.0,Purple.png,6.0,70,,,,,,,,,,,,,1.0,0.0,1.114,0.0,31.0,31.0,31.0,1.0,,,,,,,,,,,,,,,
,,,,,,,,,,,,,,,,,,,,,,,,,,,,,,,,,,,,,,,,,,,,pancake_12s.jpg,0.0,Red.png,6.0,70,,,,,,,,,,,,,0.0,1.0,1.341,0.0,32.0,32.0,32.0,1.0,,,,,,,,,,,,,,,
,,,,,,,,,,,,,,,,,,,,,,,,,,,,,,,,,,,,,,,,,,,,tie_03s.jpg,0.0,Orange.png,6.0,70,,,,,,,,,,,,,0.0,1.0,1.445,0.0,33.0,33.0,33.0,1.0,,,,,,,,,,,,,,,
,,,,,,,,,,,,,,,,,,,,,,,,,,,,,,,,,,,,,,,,,,,,pancake_12s.jpg,1.0,Yellow.png,6.0,70,,,,,,,,,,,,,1.0,1.0,1.155,0.0,34.0,34.0,34.0,1.0,,,,,,,,,,,,,,,
,,,,,,,,,,,,,,,,,,,,,,,,,,,,,,,,,,,,,,,,,,,,padlock_07s.jpg,0.0,Green.png,6.0,70,,,,,,,,,,,,,0.0,1.0,1.14,0.0,35.0,35.0,35.0,1.0,,,,,,,,,,,,,,,
,,,,,,,,,,,,,,,,,,,,,,,,,,,,,,,,,,,,,,,,,,,,,0.0,,,70,,,,,,,,,crayon_09s.jpg,luggage_08s.jpg,,,,,,,,,,,0.0,1.0,1.476,0.0,0.0,0.0,0.0,1.0,,,,,,,
,,,,,,,,,,,,,,,,,,,,,,,,,,,,,,,,,,,,,,,,,,,,,1.0,,,70,,,,,,,,,towel_rack_04s.jpg,boar_10s.jpg,,,,,,,,,,,1.0,1.0,0.43,0.0,1.0,1.0,1.0,1.0,,,,,,,
,,,,,,,,,,,,,,,,,,,,,,,,,,,,,,,,,,,,,,,,,,,,,0.0,,,70,,,,,,,,,lasagna_06s.jpg,outlet_10s.jpg,,,,,,,,,,,1.0,0.0,0.605,0.0,2.0,2.0,2.0,1.0,,,,,,,
,,,,,,,,,,,,,,,,,,,,,,,,,,,,,,,,,,,,,,,,,,,,,1.0,,,70,,,,,,,,,jewel_01b.jpg,snowman_02s.jpg,,,,,,,,,,,1.0,1.0,0.37,0.0,3.0,3.0,3.0,1.0,,,,,,,
,,,,,,,,,,,,,,,,,,,,,,,,,,,,,,,,,,,,,,,,,,,,,0.0,,,70,,,,,,,,,buoy_04s.jpg,incense_02s.jpg,,,,,,,,,,,0.0,1.0,0.223,0.0,4.0,4.0,4.0,1.0,,,,,,,
,,,,,,,,,,,,,,,,,,,,,,,,,,,,,,,,,,,,,,,,,,,,,0.0,,,70,,,,,,,,,tie_03s.jpg,perfume_06s.jpg,,,,,,,,,,,1.0,0.0,0.242,0.0,5.0,5.0,5.0,1.0,,,,,,,
,,,,,,,,,,,,,,,,,,,,,,,,,,,,,,,,,,,,,,,,,,,,,,,,70,,,,,,,,,,,,,,,,,,,,,,,,,,,,,0.0,1.0,1.0,1.0,1.0,newclockpresent_2_2.xlsx,newclock_compare_task_2_2.xlsx
,,,,,,,,,,,,,,,,,,,,,,,,,,,,,,,,,,,,,,,,,,,,surfboard_11s.jpg,0.0,Blue.png,1.0,70,,,,,,,,,,,,,0.0,1.0,1.19,0.0,0.0,0.0,0.0,1.0,,,,,,,,,,,,,,,
,,,,,,,,,,,,,,,,,,,,,,,,,,,,,,,,,,,,,,,,,,,,surfboard_11s.jpg,1.0,Purple.png,1.0,70,,,,,,,,,,,,,0.0,0.0,1.296,0.0,1.0,1.0,1.0,1.0,,,,,,,,,,,,,,,
,,,,,,,,,,,,,,,,,,,,,,,,,,,,,,,,,,,,,,,,,,,,surfboard_11s.jpg,1.0,Red.png,1.0,70,,,,,,,,,,,,,0.0,0.0,1.339,0.0,2.0,2.0,2.0,1.0,,,,,,,,,,,,,,,
,,,,,,,,,,,,,,,,,,,,,,,,,,,,,,,,,,,,,,,,,,,,badge_03s.jpg,0.0,Orange.png,1.0,70,,,,,,,,,,,,,0.0,1.0,1.446,0.0,3.0,3.0,3.0,1.0,,,,,,,,,,,,,,,
,,,,,,,,,,,,,,,,,,,,,,,,,,,,,,,,,,,,,,,,,,,,surfboard_11s.jpg,1.0,Yellow.png,1.0,70,,,,,,,,,,,,,1.0,1.0,1.068,0.0,4.0,4.0,4.0,1.0,,,,,,,,,,,,,,,
,,,,,,,,,,,,,,,,,,,,,,,,,,,,,,,,,,,,,,,,,,,,surfboard_11s.jpg,1.0,Green.png,1.0,70,,,,,,,,,,,,,1.0,1.0,1.218,0.0,5.0,5.0,5.0,1.0,,,,,,,,,,,,,,,
,,,,,,,,,,,,,,,,,,,,,,,,,,,,,,,,,,,,,,,,,,,,surfboard_11s.jpg,0.0,Blue.png,2.0,70,,,,,,,,,,,,,1.0,0.0,1.421,0.0,6.0,6.0,6.0,1.0,,,,,,,,,,,,,,,
,,,,,,,,,,,,,,,,,,,,,,,,,,,,,,,,,,,,,,,,,,,,playpen_11s.jpg,0.0,Purple.png,2.0,70,,,,,,,,,,,,,0.0,1.0,1.262,0.0,7.0,7.0,7.0,1.0,,,,,,,,,,,,,,,
,,,,,,,,,,,,,,,,,,,,,,,,,,,,,,,,,,,,,,,,,,,,surfboard_11s.jpg,1.0,Red.png,2.0,70,,,,,,,,,,,,,1.0,1.0,1.171,0.0,8.0,8.0,8.0,1.0,,,,,,,,,,,,,,,
,,,,,,,,,,,,,,,,,,,,,,,,,,,,,,,,,,,,,,,,,,,,popcorn_09s.jpg,0.0,Orange.png,2.0,70,,,,,,,,,,,,,0.0,1.0,1.148,0.0,9.0,9.0,9.0,1.0,,,,,,,,,,,,,,,
,,,,,,,,,,,,,,,,,,,,,,,,,,,,,,,,,,,,,,,,,,,,surfboard_11s.jpg,1.0,Yellow.png,2.0,70,,,,,,,,,,,,,1.0,1.0,1.095,0.0,10.0,10.0,10.0,1.0,,,,,,,,,,,,,,,
,,,,,,,,,,,,,,,,,,,,,,,,,,,,,,,,,,,,,,,,,,,,popcorn_09s.jpg,1.0,Green.png,2.0,70,,,,,,,,,,,,,1.0,1.0,1.464,0.0,11.0,11.0,11.0,1.0,,,,,,,,,,,,,,,
,,,,,,,,,,,,,,,,,,,,,,,,,,,,,,,,,,,,,,,,,,,,lollipop_08s.jpg,0.0,Blue.png,3.0,70,,,,,,,,,,,,,0.0,1.0,0.911,0.0,12.0,12.0,12.0,1.0,,,,,,,,,,,,,,,
,,,,,,,,,,,,,,,,,,,,,,,,,,,,,,,,,,,,,,,,,,,,popcorn_09s.jpg,0.0,Purple.png,3.0,70,,,,,,,,,,,,,1.0,0.0,1.18,0.0,13.0,13.0,13.0,1.0,,,,,,,,,,,,,,,
,,,,,,,,,,,,,,,,,,,,,,,,,,,,,,,,,,,,,,,,,,,,fire_pit_10s.jpg,0.0,Red.png,3.0,70,,,,,,,,,,,,,0.0,1.0,1.188,0.0,14.0,14.0,14.0,1.0,,,,,,,,,,,,,,,
,,,,,,,,,,,,,,,,,,,,,,,,,,,,,,,,,,,,,,,,,,,,joystick_01b.jpg,0.0,Orange.png,3.0,70,,,,,,,,,,,,,0.0,1.0,1.835,0.0,15.0,15.0,15.0,1.0,,,,,,,,,,,,,,,
,,,,,,,,,,,,,,,,,,,,,,,,,,,,,,,,,,,,,,,,,,,,panda_02s.jpg,0.0,Yellow.png,3.0,70,,,,,,,,,,,,,0.0,1.0,1.805,0.0,16.0,16.0,16.0,1.0,,,,,,,,,,,,,,,
,,,,,,,,,,,,,,,,,,,,,,,,,,,,,,,,,,,,,,,,,,,,sundae_08s.jpg,0.0,Green.png,3.0,70,,,,,,,,,,,,,,0.0,,0.0,17.0,17.0,17.0,1.0,,,,,,,,,,,,,,,
,,,,,,,,,,,,,,,,,,,,,,,,,,,,,,,,,,,,,,,,,,,,boomerang_06s.jpg,0.0,Blue.png,4.0,70,,,,,,,,,,,,,0.0,1.0,1.096,0.0,18.0,18.0,18.0,1.0,,,,,,,,,,,,,,,
,,,,,,,,,,,,,,,,,,,,,,,,,,,,,,,,,,,,,,,,,,,,bagel_15s.jpg,0.0,Purple.png,4.0,70,,,,,,,,,,,,,0.0,1.0,0.804,0.0,19.0,19.0,19.0,1.0,,,,,,,,,,,,,,,
,,,,,,,,,,,,,,,,,,,,,,,,,,,,,,,,,,,,,,,,,,,,powder_07s.jpg,0.0,Red.png,4.0,70,,,,,,,,,,,,,0.0,1.0,0.516,0.0,20.0,20.0,20.0,1.0,,,,,,,,,,,,,,,
,,,,,,,,,,,,,,,,,,,,,,,,,,,,,,,,,,,,,,,,,,,,lipstick_02s.jpg,0.0,Orange.png,4.0,70,,,,,,,,,,,,,0.0,1.0,0.555,0.0,21.0,21.0,21.0,1.0,,,,,,,,,,,,,,,
,,,,,,,,,,,,,,,,,,,,,,,,,,,,,,,,,,,,,,,,,,,,bagel_15s.jpg,1.0,Yellow.png,4.0,70,,,,,,,,,,,,,1.0,1.0,1.314,0.0,22.0,22.0,22.0,1.0,,,,,,,,,,,,,,,
,,,,,,,,,,,,,,,,,,,,,,,,,,,,,,,,,,,,,,,,,,,,ladle_04s.jpg,0.0,Green.png,4.0,70,,,,,,,,,,,,,0.0,1.0,1.004,0.0,23.0,23.0,23.0,1.0,,,,,,,,,,,,,,,
,,,,,,,,,,,,,,,,,,,,,,,,,,,,,,,,,,,,,,,,,,,,megaphone_03s.jpg,0.0,Blue.png,5.0,70,,,,,,,,,,,,,0.0,1.0,1.114,0.0,24.0,24.0,24.0,1.0,,,,,,,,,,,,,,,
,,,,,,,,,,,,,,,,,,,,,,,,,,,,,,,,,,,,,,,,,,,,puck_06s.jpg,0.0,Purple.png,5.0,70,,,,,,,,,,,,,0.0,1.0,1.066,0.0,25.0,25.0,25.0,1.0,,,,,,,,,,,,,,,
,,,,,,,,,,,,,,,,,,,,,,,,,,,,,,,,,,,,,,,,,,,,cardinal_07s.jpg,0.0,Red.png,5.0,70,,,,,,,,,,,,,0.0,1.0,0.541,0.0,26.0,26.0,26.0,1.0,,,,,,,,,,,,,,,
,,,,,,,,,,,,,,,,,,,,,,,,,,,,,,,,,,,,,,,,,,,,puck_06s.jpg,1.0,Orange.png,5.0,70,,,,,,,,,,,,,0.0,0.0,0.42,0.0,27.0,27.0,27.0,1.0,,,,,,,,,,,,,,,
,,,,,,,,,,,,,,,,,,,,,,,,,,,,,,,,,,,,,,,,,,,,bee_20s.jpg,0.0,Yellow.png,5.0,70,,,,,,,,,,,,,0.0,1.0,1.68,0.0,28.0,28.0,28.0,1.0,,,,,,,,,,,,,,,
,,,,,,,,,,,,,,,,,,,,,,,,,,,,,,,,,,,,,,,,,,,,toilet_paper_12s.jpg,0.0,Green.png,5.0,70,,,,,,,,,,,,,0.0,1.0,0.896,0.0,29.0,29.0,29.0,1.0,,,,,,,,,,,,,,,
,,,,,,,,,,,,,,,,,,,,,,,,,,,,,,,,,,,,,,,,,,,,mud_13s.jpg,0.0,Blue.png,6.0,70,,,,,,,,,,,,,0.0,1.0,0.54,0.0,30.0,30.0,30.0,1.0,,,,,,,,,,,,,,,
,,,,,,,,,,,,,,,,,,,,,,,,,,,,,,,,,,,,,,,,,,,,measuring_cup_02s.jpg,0.0,Purple.png,6.0,70,,,,,,,,,,,,,0.0,1.0,0.964,0.0,31.0,31.0,31.0,1.0,,,,,,,,,,,,,,,
,,,,,,,,,,,,,,,,,,,,,,,,,,,,,,,,,,,,,,,,,,,,ostrich_06s.jpg,0.0,Red.png,6.0,70,,,,,,,,,,,,,0.0,1.0,0.829,0.0,32.0,32.0,32.0,1.0,,,,,,,,,,,,,,,
,,,,,,,,,,,,,,,,,,,,,,,,,,,,,,,,,,,,,,,,,,,,raspberry_12s.jpg,0.0,Orange.png,6.0,70,,,,,,,,,,,,,0.0,1.0,0.645,0.0,33.0,33.0,33.0,1.0,,,,,,,,,,,,,,,
,,,,,,,,,,,,,,,,,,,,,,,,,,,,,,,,,,,,,,,,,,,,mud_13s.jpg,1.0,Yellow.png,6.0,70,,,,,,,,,,,,,1.0,1.0,1.13,0.0,34.0,34.0,34.0,1.0,,,,,,,,,,,,,,,
,,,,,,,,,,,,,,,,,,,,,,,,,,,,,,,,,,,,,,,,,,,,radiator_05s.jpg,0.0,Green.png,6.0,70,,,,,,,,,,,,,0.0,1.0,0.896,0.0,35.0,35.0,35.0,1.0,,,,,,,,,,,,,,,
,,,,,,,,,,,,,,,,,,,,,,,,,,,,,,,,,,,,,,,,,,,,,0.0,,,70,,,,,,,,,measuring_cup_02s.jpg,bee_20s.jpg,,,,,,,,,,,0.0,1.0,1.247,0.0,0.0,0.0,0.0,1.0,,,,,,,
,,,,,,,,,,,,,,,,,,,,,,,,,,,,,,,,,,,,,,,,,,,,,1.0,,,70,,,,,,,,,lipstick_02s.jpg,megaphone_03s.jpg,,,,,,,,,,,1.0,1.0,0.536,0.0,1.0,1.0,1.0,1.0,,,,,,,
,,,,,,,,,,,,,,,,,,,,,,,,,,,,,,,,,,,,,,,,,,,,,0.0,,,70,,,,,,,,,boomerang_06s.jpg,joystick_01b.jpg,,,,,,,,,,,0.0,1.0,0.342,0.0,2.0,2.0,2.0,1.0,,,,,,,
,,,,,,,,,,,,,,,,,,,,,,,,,,,,,,,,,,,,,,,,,,,,,0.0,,,70,,,,,,,,,sundae_08s.jpg,fire_pit_10s.jpg,,,,,,,,,,,1.0,0.0,0.265,0.0,3.0,3.0,3.0,1.0,,,,,,,
,,,,,,,,,,,,,,,,,,,,,,,,,,,,,,,,,,,,,,,,,,,,,0.0,,,70,,,,,,,,,radiator_05s.jpg,ostrich_06s.jpg,,,,,,,,,,,1.0,0.0,0.2,0.0,4.0,4.0,4.0,1.0,,,,,,,
,,,,,,,,,,,,,,,,,,,,,,,,,,,,,,,,,,,,,,,,,,,,,0.0,,,70,,,,,,,,,ladle_04s.jpg,powder_07s.jpg,,,,,,,,,,,1.0,0.0,0.333,0.0,5.0,5.0,5.0,1.0,,,,,,,
,,,,,,,,,,,,,,,,,,,,,,,,,,,,,,,,,,,,,,,,,,,,,,,,70,,,,,,,,,,,,,,,,,,,,,,,,,,,,,0.0,2.0,2.0,2.0,1.0,newclockpresent_3_2.xlsx,newclock_compare_task_3_2.xlsx
,,,,,,,,,,,,,,,,,,,,,,,,,,,,,,,,,,,,,,,,,,,,glasses01a.jpg,0.0,Blue.png,1.0,70,,,,,,,,,,,,,0.0,1.0,1.131,0.0,0.0,0.0,0.0,1.0,,,,,,,,,,,,,,,
,,,,,,,,,,,,,,,,,,,,,,,,,,,,,,,,,,,,,,,,,,,,piano_13n.jpg,0.0,Purple.png,1.0,70,,,,,,,,,,,,,0.0,1.0,0.66,0.0,1.0,1.0,1.0,1.0,,,,,,,,,,,,,,,
,,,,,,,,,,,,,,,,,,,,,,,,,,,,,,,,,,,,,,,,,,,,candy_cane_06s.jpg,0.0,Red.png,1.0,70,,,,,,,,,,,,,0.0,1.0,0.544,0.0,2.0,2.0,2.0,1.0,,,,,,,,,,,,,,,
,,,,,,,,,,,,,,,,,,,,,,,,,,,,,,,,,,,,,,,,,,,,cushion_08s.jpg,0.0,Orange.png,1.0,70,,,,,,,,,,,,,0.0,1.0,0.459,0.0,3.0,3.0,3.0,1.0,,,,,,,,,,,,,,,
,,,,,,,,,,,,,,,,,,,,,,,,,,,,,,,,,,,,,,,,,,,,candy_cane_06s.jpg,1.0,Yellow.png,1.0,70,,,,,,,,,,,,,0.0,0.0,0.396,0.0,4.0,4.0,4.0,1.0,,,,,,,,,,,,,,,
,,,,,,,,,,,,,,,,,,,,,,,,,,,,,,,,,,,,,,,,,,,,candy_cane_06s.jpg,1.0,Green.png,1.0,70,,,,,,,,,,,,,1.0,1.0,0.611,0.0,5.0,5.0,5.0,1.0,,,,,,,,,,,,,,,
,,,,,,,,,,,,,,,,,,,,,,,,,,,,,,,,,,,,,,,,,,,,rosary_03s.jpg,0.0,Blue.png,2.0,70,,,,,,,,,,,,,0.0,1.0,0.933,0.0,6.0,6.0,6.0,1.0,,,,,,,,,,,,,,,
,,,,,,,,,,,,,,,,,,,,,,,,,,,,,,,,,,,,,,,,,,,,rosary_03s.jpg,1.0,Purple.png,2.0,70,,,,,,,,,,,,,1.0,1.0,0.746,0.0,7.0,7.0,7.0,1.0,,,,,,,,,,,,,,,
,,,,,,,,,,,,,,,,,,,,,,,,,,,,,,,,,,,,,,,,,,,,rosary_03s.jpg,1.0,Red.png,2.0,70,,,,,,,,,,,,,1.0,1.0,1.646,0.0,8.0,8.0,8.0,1.0,,,,,,,,,,,,,,,
,,,,,,,,,,,,,,,,,,,,,,,,,,,,,,,,,,,,,,,,,,,,rosary_03s.jpg,1.0,Orange.png,2.0,70,,,,,,,,,,,,,1.0,1.0,0.981,0.0,9.0,9.0,9.0,1.0,,,,,,,,,,,,,,,
,,,,,,,,,,,,,,,,,,,,,,,,,,,,,,,,,,,,,,,,,,,,kangaroo_02s.jpg,0.0,Yellow.png,2.0,70,,,,,,,,,,,,,0.0,1.0,0.715,0.0,10.0,10.0,10.0,1.0,,,,,,,,,,,,,,,
,,,,,,,,,,,,,,,,,,,,,,,,,,,,,,,,,,,,,,,,,,,,kangaroo_02s.jpg,1.0,Green.png,2.0,70,,,,,,,,,,,,,0.0,0.0,1.398,0.0,11.0,11.0,11.0,1.0,,,,,,,,,,,,,,,
,,,,,,,,,,,,,,,,,,,,,,,,,,,,,,,,,,,,,,,,,,,,kangaroo_02s.jpg,0.0,Blue.png,3.0,70,,,,,,,,,,,,,0.0,1.0,1.146,0.0,12.0,12.0,12.0,1.0,,,,,,,,,,,,,,,
,,,,,,,,,,,,,,,,,,,,,,,,,,,,,,,,,,,,,,,,,,,,kangaroo_02s.jpg,1.0,Purple.png,3.0,70,,,,,,,,,,,,,1.0,1.0,2.328,0.0,13.0,13.0,13.0,1.0,,,,,,,,,,,,,,,
,,,,,,,,,,,,,,,,,,,,,,,,,,,,,,,,,,,,,,,,,,,,ironing_board_07s.jpg,0.0,Red.png,3.0,70,,,,,,,,,,,,,0.0,1.0,0.988,0.0,14.0,14.0,14.0,1.0,,,,,,,,,,,,,,,
,,,,,,,,,,,,,,,,,,,,,,,,,,,,,,,,,,,,,,,,,,,,kangaroo_02s.jpg,1.0,Orange.png,3.0,70,,,,,,,,,,,,,1.0,1.0,0.999,0.0,15.0,15.0,15.0,1.0,,,,,,,,,,,,,,,
,,,,,,,,,,,,,,,,,,,,,,,,,,,,,,,,,,,,,,,,,,,,punch2_09s.jpg,0.0,Yellow.png,3.0,70,,,,,,,,,,,,,,0.0,,0.0,16.0,16.0,16.0,1.0,,,,,,,,,,,,,,,
,,,,,,,,,,,,,,,,,,,,,,,,,,,,,,,,,,,,,,,,,,,,ironing_board_07s.jpg,1.0,Green.png,3.0,70,,,,,,,,,,,,,1.0,1.0,1.239,0.0,17.0,17.0,17.0,1.0,,,,,,,,,,,,,,,
,,,,,,,,,,,,,,,,,,,,,,,,,,,,,,,,,,,,,,,,,,,,owl_15s.jpg,0.0,Blue.png,4.0,70,,,,,,,,,,,,,0.0,1.0,1.269,0.0,18.0,18.0,18.0,1.0,,,,,,,,,,,,,,,
,,,,,,,,,,,,,,,,,,,,,,,,,,,,,,,,,,,,,,,,,,,,teabag_12s.jpg,0.0,Purple.png,4.0,70,,,,,,,,,,,,,0.0,1.0,1.215,0.0,19.0,19.0,19.0,1.0,,,,,,,,,,,,,,,
,,,,,,,,,,,,,,,,,,,,,,,,,,,,,,,,,,,,,,,,,,,,owl_15s.jpg,1.0,Red.png,4.0,70,,,,,,,,,,,,,0.0,0.0,0.962,0.0,20.0,20.0,20.0,1.0,,,,,,,,,,,,,,,
,,,,,,,,,,,,,,,,,,,,,,,,,,,,,,,,,,,,,,,,,,,,otter_05s.jpg,0.0,Orange.png,4.0,70,,,,,,,,,,,,,,0.0,,0.0,21.0,21.0,21.0,1.0,,,,,,,,,,,,,,,
,,,,,,,,,,,,,,,,,,,,,,,,,,,,,,,,,,,,,,,,,,,,owl_15s.jpg,1.0,Yellow.png,4.0,70,,,,,,,,,,,,,1.0,1.0,1.101,0.0,22.0,22.0,22.0,1.0,,,,,,,,,,,,,,,
,,,,,,,,,,,,,,,,,,,,,,,,,,,,,,,,,,,,,,,,,,,,mold2_04s.jpg,0.0,Green.png,4.0,70,,,,,,,,,,,,,0.0,1.0,1.197,0.0,23.0,23.0,23.0,1.0,,,,,,,,,,,,,,,
,,,,,,,,,,,,,,,,,,,,,,,,,,,,,,,,,,,,,,,,,,,,mattress_01s.jpg,0.0,Blue.png,5.0,70,,,,,,,,,,,,,0.0,1.0,1.431,0.0,24.0,24.0,24.0,1.0,,,,,,,,,,,,,,,
,,,,,,,,,,,,,,,,,,,,,,,,,,,,,,,,,,,,,,,,,,,,police_car_01s.jpg,0.0,Purple.png,5.0,70,,,,,,,,,,,,,0.0,1.0,1.364,0.0,25.0,25.0,25.0,1.0,,,,,,,,,,,,,,,
,,,,,,,,,,,,,,,,,,,,,,,,,,,,,,,,,,,,,,,,,,,,stethoscope_01b.jpg,0.0,Red.png,5.0,70,,,,,,,,,,,,,,0.0,,0.0,26.0,26.0,26.0,1.0,,,,,,,,,,,,,,,
,,,,,,,,,,,,,,,,,,,,,,,,,,,,,,,,,,,,,,,,,,,,police_car_01s.jpg,1.0,Orange.png,5.0,70,,,,,,,,,,,,,1.0,1.0,1.213,0.0,27.0,27.0,27.0,1.0,,,,,,,,,,,,,,,
,,,,,,,,,,,,,,,,,,,,,,,,,,,,,,,,,,,,,,,,,,,,sparkler_02s.jpg,0.0,Yellow.png,5.0,70,,,,,,,,,,,,,0.0,1.0,1.345,0.0,28.0,28.0,28.0,1.0,,,,,,,,,,,,,,,
,,,,,,,,,,,,,,,,,,,,,,,,,,,,,,,,,,,,,,,,,,,,pacifier_09s.jpg,0.0,Green.png,5.0,70,,,,,,,,,,,,,0.0,1.0,0.599,0.0,29.0,29.0,29.0,1.0,,,,,,,,,,,,,,,
,,,,,,,,,,,,,,,,,,,,,,,,,,,,,,,,,,,,,,,,,,,,machine_gun_09s.jpg,0.0,Blue.png,6.0,70,,,,,,,,,,,,,0.0,1.0,0.855,0.0,30.0,30.0,30.0,1.0,,,,,,,,,,,,,,,
,,,,,,,,,,,,,,,,,,,,,,,,,,,,,,,,,,,,,,,,,,,,ram_05s.jpg,0.0,Purple.png,6.0,70,,,,,,,,,,,,,0.0,1.0,0.679,0.0,31.0,31.0,31.0,1.0,,,,,,,,,,,,,,,
,,,,,,,,,,,,,,,,,,,,,,,,,,,,,,,,,,,,,,,,,,,,keyboard_05s.jpg,0.0,Red.png,6.0,70,,,,,,,,,,,,,0.0,1.0,0.599,0.0,32.0,32.0,32.0,1.0,,,,,,,,,,,,,,,
,,,,,,,,,,,,,,,,,,,,,,,,,,,,,,,,,,,,,,,,,,,,leash_10s.jpg,0.0,Orange.png,6.0,70,,,,,,,,,,,,,0.0,1.0,0.583,0.0,33.0,33.0,33.0,1.0,,,,,,,,,,,,,,,
,,,,,,,,,,,,,,,,,,,,,,,,,,,,,,,,,,,,,,,,,,,,pan_02s.jpg,0.0,Yellow.png,6.0,70,,,,,,,,,,,,,0.0,1.0,0.718,0.0,34.0,34.0,34.0,1.0,,,,,,,,,,,,,,,
,,,,,,,,,,,,,,,,,,,,,,,,,,,,,,,,,,,,,,,,,,,,mixer_12s.jpg,0.0,Green.png,6.0,70,,,,,,,,,,,,,0.0,1.0,0.729,0.0,35.0,35.0,35.0,1.0,,,,,,,,,,,,,,,
,,,,,,,,,,,,,,,,,,,,,,,,,,,,,,,,,,,,,,,,,,,,,0.0,,,70,,,,,,,,,teabag_12s.jpg,punch2_09s.jpg,,,,,,,,,,,0.0,1.0,0.468,0.0,0.0,0.0,0.0,1.0,,,,,,,
,,,,,,,,,,,,,,,,,,,,,,,,,,,,,,,,,,,,,,,,,,,,,0.0,,,70,,,,,,,,,mattress_01s.jpg,otter_05s.jpg,,,,,,,,,,,0.0,1.0,0.25,0.0,1.0,1.0,1.0,1.0,,,,,,,
,,,,,,,,,,,,,,,,,,,,,,,,,,,,,,,,,,,,,,,,,,,,,0.0,,,70,,,,,,,,,stethoscope_01b.jpg,mold2_04s.jpg,,,,,,,,,,,1.0,0.0,0.247,0.0,2.0,2.0,2.0,1.0,,,,,,,
,,,,,,,,,,,,,,,,,,,,,,,,,,,,,,,,,,,,,,,,,,,,,1.0,,,70,,,,,,,,,glasses01a.jpg,cushion_08s.jpg,,,,,,,,,,,1.0,1.0,0.2,0.0,3.0,3.0,3.0,1.0,,,,,,,
,,,,,,,,,,,,,,,,,,,,,,,,,,,,,,,,,,,,,,,,,,,,,1.0,,,70,,,,,,,,,machine_gun_09s.jpg,leash_10s.jpg,,,,,,,,,,,1.0,1.0,0.325,0.0,4.0,4.0,4.0,1.0,,,,,,,
,,,,,,,,,,,,,,,,,,,,,,,,,,,,,,,,,,,,,,,,,,,,,0.0,,,70,,,,,,,,,pan_02s.jpg,ram_05s.jpg,,,,,,,,,,,0.0,1.0,0.383,0.0,5.0,5.0,5.0,1.0,,,,,,,
,,,,,,,,,,,,,,,,,,,,,,,,,,,,,,,,,,,,,,,,,,,,,,,,70,,,,,,,,,,,,,,,,,,,,,,,,,,,,,0.0,3.0,3.0,3.0,1.0,newclockpresent_4_2.xlsx,newclock_compare_task_4_2.xlsx
,,,,,,,,,,,,,,,,,,,,,,,,,,,,,,,,,,,,,,,,,,,,golf_club_03s.jpg,0.0,Blue.png,1.0,70,,,,,,,,,,,,,0.0,1.0,1.1,0.0,0.0,0.0,0.0,1.0,,,,,,,,,,,,,,,
,,,,,,,,,,,,,,,,,,,,,,,,,,,,,,,,,,,,,,,,,,,,golf_club_03s.jpg,1.0,Purple.png,1.0,70,,,,,,,,,,,,,1.0,1.0,1.166,0.0,1.0,1.0,1.0,1.0,,,,,,,,,,,,,,,
,,,,,,,,,,,,,,,,,,,,,,,,,,,,,,,,,,,,,,,,,,,,golf_club_03s.jpg,1.0,Red.png,1.0,70,,,,,,,,,,,,,0.0,0.0,0.836,0.0,2.0,2.0,2.0,1.0,,,,,,,,,,,,,,,
,,,,,,,,,,,,,,,,,,,,,,,,,,,,,,,,,,,,,,,,,,,,turnstile_08s.jpg,0.0,Orange.png,1.0,70,,,,,,,,,,,,,0.0,1.0,0.847,0.0,3.0,3.0,3.0,1.0,,,,,,,,,,,,,,,
,,,,,,,,,,,,,,,,,,,,,,,,,,,,,,,,,,,,,,,,,,,,golf_club_03s.jpg,1.0,Yellow.png,1.0,70,,,,,,,,,,,,,1.0,1.0,1.165,0.0,4.0,4.0,4.0,1.0,,,,,,,,,,,,,,,
,,,,,,,,,,,,,,,,,,,,,,,,,,,,,,,,,,,,,,,,,,,,milk_02s.jpg,0.0,Green.png,1.0,70,,,,,,,,,,,,,0.0,1.0,1.485,0.0,5.0,5.0,5.0,1.0,,,,,,,,,,,,,,,
,,,,,,,,,,,,,,,,,,,,,,,,,,,,,,,,,,,,,,,,,,,,orange_12s.jpg,0.0,Blue.png,2.0,70,,,,,,,,,,,,,1.0,0.0,1.637,0.0,6.0,6.0,6.0,1.0,,,,,,,,,,,,,,,
,,,,,,,,,,,,,,,,,,,,,,,,,,,,,,,,,,,,,,,,,,,,milk_02s.jpg,0.0,Purple.png,2.0,70,,,,,,,,,,,,,1.0,0.0,1.129,0.0,7.0,7.0,7.0,1.0,,,,,,,,,,,,,,,
,,,,,,,,,,,,,,,,,,,,,,,,,,,,,,,,,,,,,,,,,,,,latch_15s.jpg,0.0,Red.png,2.0,70,,,,,,,,,,,,,0.0,1.0,0.828,0.0,8.0,8.0,8.0,1.0,,,,,,,,,,,,,,,
,,,,,,,,,,,,,,,,,,,,,,,,,,,,,,,,,,,,,,,,,,,,bank_06s.jpg,0.0,Orange.png,2.0,70,,,,,,,,,,,,,0.0,1.0,0.565,0.0,9.0,9.0,9.0,1.0,,,,,,,,,,,,,,,
,,,,,,,,,,,,,,,,,,,,,,,,,,,,,,,,,,,,,,,,,,,,milk_02s.jpg,1.0,Yellow.png,2.0,70,,,,,,,,,,,,,1.0,1.0,0.962,0.0,10.0,10.0,10.0,1.0,,,,,,,,,,,,,,,
,,,,,,,,,,,,,,,,,,,,,,,,,,,,,,,,,,,,,,,,,,,,crab_16s.jpg,0.0,Green.png,2.0,70,,,,,,,,,,,,,0.0,1.0,1.097,0.0,11.0,11.0,11.0,1.0,,,,,,,,,,,,,,,
,,,,,,,,,,,,,,,,,,,,,,,,,,,,,,,,,,,,,,,,,,,,birdcage_08s.jpg,0.0,Blue.png,3.0,70,,,,,,,,,,,,,0.0,1.0,1.018,0.0,12.0,12.0,12.0,1.0,,,,,,,,,,,,,,,
,,,,,,,,,,,,,,,,,,,,,,,,,,,,,,,,,,,,,,,,,,,,spider_web_03s.jpg,0.0,Purple.png,3.0,70,,,,,,,,,,,,,0.0,1.0,0.864,0.0,13.0,13.0,13.0,1.0,,,,,,,,,,,,,,,
,,,,,,,,,,,,,,,,,,,,,,,,,,,,,,,,,,,,,,,,,,,,knitting_needle_04s.jpg,0.0,Red.png,3.0,70,,,,,,,,,,,,,0.0,1.0,0.695,0.0,14.0,14.0,14.0,1.0,,,,,,,,,,,,,,,
,,,,,,,,,,,,,,,,,,,,,,,,,,,,,,,,,,,,,,,,,,,,sugar_cube_11s.jpg,0.0,Orange.png,3.0,70,,,,,,,,,,,,,0.0,1.0,0.789,0.0,15.0,15.0,15.0,1.0,,,,,,,,,,,,,,,
,,,,,,,,,,,,,,,,,,,,,,,,,,,,,,,,,,,,,,,,,,,,light_switch_02s.jpg,0.0,Yellow.png,3.0,70,,,,,,,,,,,,,0.0,1.0,0.879,0.0,16.0,16.0,16.0,1.0,,,,,,,,,,,,,,,
,,,,,,,,,,,,,,,,,,,,,,,,,,,,,,,,,,,,,,,,,,,,gear_07s.jpg,0.0,Green.png,3.0,70,,,,,,,,,,,,,0.0,1.0,0.684,0.0,17.0,17.0,17.0,1.0,,,,,,,,,,,,,,,
,,,,,,,,,,,,,,,,,,,,,,,,,,,,,,,,,,,,,,,,,,,,tongs_08s.jpg,0.0,Blue.png,4.0,70,,,,,,,,,,,,,0.0,1.0,0.751,0.0,18.0,18.0,18.0,1.0,,,,,,,,,,,,,,,
,,,,,,,,,,,,,,,,,,,,,,,,,,,,,,,,,,,,,,,,,,,,recliner_02s.jpg,0.0,Purple.png,4.0,70,,,,,,,,,,,,,0.0,1.0,0.804,0.0,19.0,19.0,19.0,1.0,,,,,,,,,,,,,,,
,,,,,,,,,,,,,,,,,,,,,,,,,,,,,,,,,,,,,,,,,,,,orangutan_03s.jpg,0.0,Red.png,4.0,70,,,,,,,,,,,,,0.0,1.0,0.868,0.0,20.0,20.0,20.0,1.0,,,,,,,,,,,,,,,
,,,,,,,,,,,,,,,,,,,,,,,,,,,,,,,,,,,,,,,,,,,,golf_club_03s.jpg,0.0,Orange.png,4.0,70,,,,,,,,,,,,,1.0,0.0,1.188,0.0,21.0,21.0,21.0,1.0,,,,,,,,,,,,,,,
,,,,,,,,,,,,,,,,,,,,,,,,,,,,,,,,,,,,,,,,,,,,lava_02s.jpg,0.0,Yellow.png,4.0,70,,,,,,,,,,,,,0.0,1.0,1.814,0.0,22.0,22.0,22.0,1.0,,,,,,,,,,,,,,,
,,,,,,,,,,,,,,,,,,,,,,,,,,,,,,,,,,,,,,,,,,,,toilet_07s.jpg,0.0,Green.png,4.0,70,,,,,,,,,,,,,0.0,1.0,1.453,0.0,23.0,23.0,23.0,1.0,,,,,,,,,,,,,,,
,,,,,,,,,,,,,,,,,,,,,,,,,,,,,,,,,,,,,,,,,,,,turnstile_08s.jpg,0.0,Blue.png,5.0,70,,,,,,,,,,,,,0.0,1.0,1.822,0.0,24.0,24.0,24.0,1.0,,,,,,,,,,,,,,,
,,,,,,,,,,,,,,,,,,,,,,,,,,,,,,,,,,,,,,,,,,,,turnstile_08s.jpg,1.0,Purple.png,5.0,70,,,,,,,,,,,,,1.0,1.0,1.296,0.0,25.0,25.0,25.0,1.0,,,,,,,,,,,,,,,
,,,,,,,,,,,,,,,,,,,,,,,,,,,,,,,,,,,,,,,,,,,,teacup_07s.jpg,0.0,Red.png,5.0,70,,,,,,,,,,,,,0.0,1.0,1.07,0.0,26.0,26.0,26.0,1.0,,,,,,,,,,,,,,,
,,,,,,,,,,,,,,,,,,,,,,,,,,,,,,,,,,,,,,,,,,,,turnstile_08s.jpg,1.0,Orange.png,5.0,70,,,,,,,,,,,,,1.0,1.0,1.333,0.0,27.0,27.0,27.0,1.0,,,,,,,,,,,,,,,
,,,,,,,,,,,,,,,,,,,,,,,,,,,,,,,,,,,,,,,,,,,,turnstile_08s.jpg,1.0,Yellow.png,5.0,70,,,,,,,,,,,,,1.0,1.0,0.862,0.0,28.0,28.0,28.0,1.0,,,,,,,,,,,,,,,
,,,,,,,,,,,,,,,,,,,,,,,,,,,,,,,,,,,,,,,,,,,,antenna_01b.jpg,0.0,Green.png,5.0,70,,,,,,,,,,,,,0.0,1.0,0.581,0.0,29.0,29.0,29.0,1.0,,,,,,,,,,,,,,,
,,,,,,,,,,,,,,,,,,,,,,,,,,,,,,,,,,,,,,,,,,,,keyhole_03s.jpg,0.0,Blue.png,6.0,70,,,,,,,,,,,,,0.0,1.0,0.68,0.0,30.0,30.0,30.0,1.0,,,,,,,,,,,,,,,
,,,,,,,,,,,,,,,,,,,,,,,,,,,,,,,,,,,,,,,,,,,,air_pump_05s.jpg,0.0,Purple.png,6.0,70,,,,,,,,,,,,,0.0,1.0,0.748,0.0,31.0,31.0,31.0,1.0,,,,,,,,,,,,,,,
,,,,,,,,,,,,,,,,,,,,,,,,,,,,,,,,,,,,,,,,,,,,eggshell_14s.jpg,0.0,Red.png,6.0,70,,,,,,,,,,,,,0.0,1.0,0.566,0.0,32.0,32.0,32.0,1.0,,,,,,,,,,,,,,,
,,,,,,,,,,,,,,,,,,,,,,,,,,,,,,,,,,,,,,,,,,,,eyedropper_12s.jpg,0.0,Orange.png,6.0,70,,,,,,,,,,,,,0.0,1.0,0.615,0.0,33.0,33.0,33.0,1.0,,,,,,,,,,,,,,,
,,,,,,,,,,,,,,,,,,,,,,,,,,,,,,,,,,,,,,,,,,,,machete_06s.jpg,0.0,Yellow.png,6.0,70,,,,,,,,,,,,,0.0,1.0,0.669,0.0,34.0,34.0,34.0,1.0,,,,,,,,,,,,,,,
,,,,,,,,,,,,,,,,,,,,,,,,,,,,,,,,,,,,,,,,,,,,eyedropper_12s.jpg,1.0,Green.png,6.0,70,,,,,,,,,,,,,0.0,0.0,0.73,0.0,35.0,35.0,35.0,1.0,,,,,,,,,,,,,,,
,,,,,,,,,,,,,,,,,,,,,,,,,,,,,,,,,,,,,,,,,,,,,1.0,,,70,,,,,,,,,sugar_cube_11s.jpg,tongs_08s.jpg,,,,,,,,,,,1.0,1.0,0.449,0.0,0.0,0.0,0.0,1.0,,,,,,,
,,,,,,,,,,,,,,,,,,,,,,,,,,,,,,,,,,,,,,,,,,,,,1.0,,,70,,,,,,,,,antenna_01b.jpg,eggshell_14s.jpg,,,,,,,,,,,0.0,0.0,0.249,0.0,1.0,1.0,1.0,1.0,,,,,,,
,,,,,,,,,,,,,,,,,,,,,,,,,,,,,,,,,,,,,,,,,,,,,1.0,,,70,,,,,,,,,bank_06s.jpg,birdcage_08s.jpg,,,,,,,,,,,1.0,1.0,0.251,0.0,2.0,2.0,2.0,1.0,,,,,,,
,,,,,,,,,,,,,,,,,,,,,,,,,,,,,,,,,,,,,,,,,,,,,1.0,,,70,,,,,,,,,air_pump_05s.jpg,machete_06s.jpg,,,,,,,,,,,1.0,1.0,0.189,0.0,3.0,3.0,3.0,1.0,,,,,,,
,,,,,,,,,,,,,,,,,,,,,,,,,,,,,,,,,,,,,,,,,,,,,1.0,,,70,,,,,,,,,latch_15s.jpg,crab_16s.jpg,,,,,,,,,,,0.0,0.0,0.083,0.0,4.0,4.0,4.0,1.0,,,,,,,
,,,,,,,,,,,,,,,,,,,,,,,,,,,,,,,,,,,,,,,,,,,,,1.0,,,70,,,,,,,,,spider_web_03s.jpg,light_switch_02s.jpg,,,,,,,,,,,1.0,1.0,0.042,0.0,5.0,5.0,5.0,1.0,,,,,,,
,,,,,,,,,,,,,,,,,,,,,,,,,,,,,,,,,,,,,,,,,,,,,,,,70,,,,,,,,,,,,,,,,,,,,,,,,,,,,,0.0,4.0,4.0,4.0,1.0,newclockpresent_5_2.xlsx,newclock_compare_task_5_2.xlsx
,,,,,,,,,,,,,,,,,,,,,,,,,,,,,,,,,,,,,,,,,,,,gazelle_10s.jpg,0.0,Blue.png,1.0,70,,,,,,,,,,,,,0.0,1.0,0.978,0.0,0.0,0.0,0.0,1.0,,,,,,,,,,,,,,,
,,,,,,,,,,,,,,,,,,,,,,,,,,,,,,,,,,,,,,,,,,,,saddle_06s.jpg,0.0,Purple.png,1.0,70,,,,,,,,,,,,,0.0,1.0,0.543,0.0,1.0,1.0,1.0,1.0,,,,,,,,,,,,,,,
,,,,,,,,,,,,,,,,,,,,,,,,,,,,,,,,,,,,,,,,,,,,saddle_06s.jpg,1.0,Red.png,1.0,70,,,,,,,,,,,,,1.0,1.0,0.946,0.0,2.0,2.0,2.0,1.0,,,,,,,,,,,,,,,
,,,,,,,,,,,,,,,,,,,,,,,,,,,,,,,,,,,,,,,,,,,,kimono_13s.jpg,0.0,Orange.png,1.0,70,,,,,,,,,,,,,0.0,1.0,0.631,0.0,3.0,3.0,3.0,1.0,,,,,,,,,,,,,,,
,,,,,,,,,,,,,,,,,,,,,,,,,,,,,,,,,,,,,,,,,,,,timer_03s.jpg,0.0,Yellow.png,1.0,70,,,,,,,,,,,,,0.0,1.0,0.705,0.0,4.0,4.0,4.0,1.0,,,,,,,,,,,,,,,
,,,,,,,,,,,,,,,,,,,,,,,,,,,,,,,,,,,,,,,,,,,,tulip_02s.jpg,0.0,Green.png,1.0,70,,,,,,,,,,,,,0.0,1.0,0.505,0.0,5.0,5.0,5.0,1.0,,,,,,,,,,,,,,,
,,,,,,,,,,,,,,,,,,,,,,,,,,,,,,,,,,,,,,,,,,,,prism_10s.jpg,0.0,Blue.png,2.0,70,,,,,,,,,,,,,0.0,1.0,0.829,0.0,6.0,6.0,6.0,1.0,,,,,,,,,,,,,,,
,,,,,,,,,,,,,,,,,,,,,,,,,,,,,,,,,,,,,,,,,,,,razor_12s.jpg,0.0,Purple.png,2.0,70,,,,,,,,,,,,,0.0,1.0,0.813,0.0,7.0,7.0,7.0,1.0,,,,,,,,,,,,,,,
,,,,,,,,,,,,,,,,,,,,,,,,,,,,,,,,,,,,,,,,,,,,blazer_02s.jpg,0.0,Red.png,2.0,70,,,,,,,,,,,,,0.0,1.0,1.031,0.0,8.0,8.0,8.0,1.0,,,,,,,,,,,,,,,
,,,,,,,,,,,,,,,,,,,,,,,,,,,,,,,,,,,,,,,,,,,,razor_12s.jpg,1.0,Orange.png,2.0,70,,,,,,,,,,,,,1.0,1.0,0.746,0.0,9.0,9.0,9.0,1.0,,,,,,,,,,,,,,,
,,,,,,,,,,,,,,,,,,,,,,,,,,,,,,,,,,,,,,,,,,,,lamb_chop_07s.jpg,0.0,Yellow.png,2.0,70,,,,,,,,,,,,,0.0,1.0,0.551,0.0,10.0,10.0,10.0,1.0,,,,,,,,,,,,,,,
,,,,,,,,,,,,,,,,,,,,,,,,,,,,,,,,,,,,,,,,,,,,razor_12s.jpg,1.0,Green.png,2.0,70,,,,,,,,,,,,,1.0,1.0,1.047,0.0,11.0,11.0,11.0,1.0,,,,,,,,,,,,,,,
,,,,,,,,,,,,,,,,,,,,,,,,,,,,,,,,,,,,,,,,,,,,lamb_chop_07s.jpg,0.0,Blue.png,3.0,70,,,,,,,,,,,,,0.0,1.0,0.631,0.0,12.0,12.0,12.0,1.0,,,,,,,,,,,,,,,
,,,,,,,,,,,,,,,,,,,,,,,,,,,,,,,,,,,,,,,,,,,,lamb_chop_07s.jpg,1.0,Purple.png,3.0,70,,,,,,,,,,,,,0.0,0.0,1.423,0.0,13.0,13.0,13.0,1.0,,,,,,,,,,,,,,,
,,,,,,,,,,,,,,,,,,,,,,,,,,,,,,,,,,,,,,,,,,,,timer_03s.jpg,0.0,Red.png,3.0,70,,,,,,,,,,,,,1.0,0.0,0.978,0.0,14.0,14.0,14.0,1.0,,,,,,,,,,,,,,,
,,,,,,,,,,,,,,,,,,,,,,,,,,,,,,,,,,,,,,,,,,,,lamb_chop_07s.jpg,1.0,Orange.png,3.0,70,,,,,,,,,,,,,1.0,1.0,0.95,0.0,15.0,15.0,15.0,1.0,,,,,,,,,,,,,,,
,,,,,,,,,,,,,,,,,,,,,,,,,,,,,,,,,,,,,,,,,,,,glue_01s.jpg,0.0,Yellow.png,3.0,70,,,,,,,,,,,,,0.0,1.0,0.634,0.0,16.0,16.0,16.0,1.0,,,,,,,,,,,,,,,
,,,,,,,,,,,,,,,,,,,,,,,,,,,,,,,,,,,,,,,,,,,,solar_panel_02s.jpg,0.0,Green.png,3.0,70,,,,,,,,,,,,,0.0,1.0,1.762,0.0,17.0,17.0,17.0,1.0,,,,,,,,,,,,,,,
,,,,,,,,,,,,,,,,,,,,,,,,,,,,,,,,,,,,,,,,,,,,muffin_12n.jpg,0.0,Blue.png,4.0,70,,,,,,,,,,,,,0.0,1.0,0.783,0.0,18.0,18.0,18.0,1.0,,,,,,,,,,,,,,,
,,,,,,,,,,,,,,,,,,,,,,,,,,,,,,,,,,,,,,,,,,,,pepper2_21s.jpg,0.0,Purple.png,4.0,70,,,,,,,,,,,,,,0.0,,0.0,19.0,19.0,19.0,1.0,,,,,,,,,,,,,,,
,,,,,,,,,,,,,,,,,,,,,,,,,,,,,,,,,,,,,,,,,,,,marker_05s.jpg,0.0,Red.png,4.0,70,,,,,,,,,,,,,0.0,1.0,1.011,0.0,20.0,20.0,20.0,1.0,,,,,,,,,,,,,,,
,,,,,,,,,,,,,,,,,,,,,,,,,,,,,,,,,,,,,,,,,,,,soccer_ball_12s.jpg,0.0,Orange.png,4.0,70,,,,,,,,,,,,,0.0,1.0,0.913,0.0,21.0,21.0,21.0,1.0,,,,,,,,,,,,,,,
,,,,,,,,,,,,,,,,,,,,,,,,,,,,,,,,,,,,,,,,,,,,amber_04s.jpg,0.0,Yellow.png,4.0,70,,,,,,,,,,,,,0.0,1.0,1.567,0.0,22.0,22.0,22.0,1.0,,,,,,,,,,,,,,,
,,,,,,,,,,,,,,,,,,,,,,,,,,,,,,,,,,,,,,,,,,,,stopwatch_04s.jpg,0.0,Green.png,4.0,70,,,,,,,,,,,,,0.0,1.0,0.854,0.0,23.0,23.0,23.0,1.0,,,,,,,,,,,,,,,
,,,,,,,,,,,,,,,,,,,,,,,,,,,,,,,,,,,,,,,,,,,,amber_04s.jpg,0.0,Blue.png,5.0,70,,,,,,,,,,,,,1.0,0.0,1.921,0.0,24.0,24.0,24.0,1.0,,,,,,,,,,,,,,,
,,,,,,,,,,,,,,,,,,,,,,,,,,,,,,,,,,,,,,,,,,,,racehorse_03s.jpg,0.0,Purple.png,5.0,70,,,,,,,,,,,,,0.0,1.0,0.981,0.0,25.0,25.0,25.0,1.0,,,,,,,,,,,,,,,
,,,,,,,,,,,,,,,,,,,,,,,,,,,,,,,,,,,,,,,,,,,,amber_04s.jpg,1.0,Red.png,5.0,70,,,,,,,,,,,,,1.0,1.0,1.999,0.0,26.0,26.0,26.0,1.0,,,,,,,,,,,,,,,
,,,,,,,,,,,,,,,,,,,,,,,,,,,,,,,,,,,,,,,,,,,,duck_01b.jpg,0.0,Orange.png,5.0,70,,,,,,,,,,,,,0.0,1.0,1.752,0.0,27.0,27.0,27.0,1.0,,,,,,,,,,,,,,,
,,,,,,,,,,,,,,,,,,,,,,,,,,,,,,,,,,,,,,,,,,,,amber_04s.jpg,1.0,Yellow.png,5.0,70,,,,,,,,,,,,,1.0,1.0,0.848,0.0,28.0,28.0,28.0,1.0,,,,,,,,,,,,,,,
,,,,,,,,,,,,,,,,,,,,,,,,,,,,,,,,,,,,,,,,,,,,duck_01b.jpg,1.0,Green.png,5.0,70,,,,,,,,,,,,,1.0,1.0,0.871,0.0,29.0,29.0,29.0,1.0,,,,,,,,,,,,,,,
,,,,,,,,,,,,,,,,,,,,,,,,,,,,,,,,,,,,,,,,,,,,duck_01b.jpg,0.0,Blue.png,6.0,70,,,,,,,,,,,,,,0.0,,0.0,30.0,30.0,30.0,1.0,,,,,,,,,,,,,,,
,,,,,,,,,,,,,,,,,,,,,,,,,,,,,,,,,,,,,,,,,,,,duck_01b.jpg,1.0,Purple.png,6.0,70,,,,,,,,,,,,,1.0,1.0,0.997,0.0,31.0,31.0,31.0,1.0,,,,,,,,,,,,,,,
,,,,,,,,,,,,,,,,,,,,,,,,,,,,,,,,,,,,,,,,,,,,magnet_03s.jpg,0.0,Red.png,6.0,70,,,,,,,,,,,,,0.0,1.0,0.784,0.0,32.0,32.0,32.0,1.0,,,,,,,,,,,,,,,
,,,,,,,,,,,,,,,,,,,,,,,,,,,,,,,,,,,,,,,,,,,,duck_01b.jpg,1.0,Orange.png,6.0,70,,,,,,,,,,,,,1.0,1.0,0.839,0.0,33.0,33.0,33.0,1.0,,,,,,,,,,,,,,,
,,,,,,,,,,,,,,,,,,,,,,,,,,,,,,,,,,,,,,,,,,,,swimming_pool_17s.jpg,0.0,Yellow.png,6.0,70,,,,,,,,,,,,,0.0,1.0,0.824,0.0,34.0,34.0,34.0,1.0,,,,,,,,,,,,,,,
,,,,,,,,,,,,,,,,,,,,,,,,,,,,,,,,,,,,,,,,,,,,roulette_wheel_04s.jpg,0.0,Green.png,6.0,70,,,,,,,,,,,,,0.0,1.0,1.015,0.0,35.0,35.0,35.0,1.0,,,,,,,,,,,,,,,
,,,,,,,,,,,,,,,,,,,,,,,,,,,,,,,,,,,,,,,,,,,,,0.0,,,70,,,,,,,,,blazer_02s.jpg,tulip_02s.jpg,,,,,,,,,,,0.0,1.0,0.559,0.0,0.0,0.0,0.0,1.0,,,,,,,
,,,,,,,,,,,,,,,,,,,,,,,,,,,,,,,,,,,,,,,,,,,,,1.0,,,70,,,,,,,,,glue_01s.jpg,pepper2_21s.jpg,,,,,,,,,,,0.0,0.0,0.265,0.0,1.0,1.0,1.0,1.0,,,,,,,
,,,,,,,,,,,,,,,,,,,,,,,,,,,,,,,,,,,,,,,,,,,,,1.0,,,70,,,,,,,,,kimono_13s.jpg,prism_10s.jpg,,,,,,,,,,,1.0,1.0,0.108,0.0,2.0,2.0,2.0,1.0,,,,,,,
,,,,,,,,,,,,,,,,,,,,,,,,,,,,,,,,,,,,,,,,,,,,,0.0,,,70,,,,,,,,,soccer_ball_12s.jpg,muffin_12n.jpg,,,,,,,,,,,1.0,0.0,0.236,0.0,3.0,3.0,3.0,1.0,,,,,,,
,,,,,,,,,,,,,,,,,,,,,,,,,,,,,,,,,,,,,,,,,,,,,1.0,,,70,,,,,,,,,magnet_03s.jpg,roulette_wheel_04s.jpg,,,,,,,,,,,0.0,0.0,0.316,0.0,4.0,4.0,4.0,1.0,,,,,,,
,,,,,,,,,,,,,,,,,,,,,,,,,,,,,,,,,,,,,,,,,,,,,0.0,,,70,,,,,,,,,stopwatch_04s.jpg,marker_05s.jpg,,,,,,,,,,,0.0,1.0,0.373,0.0,5.0,5.0,5.0,1.0,,,,,,,
,,,,,,,,,,,,,,,,,,,,,,,,,,,,,,,,,,,,,,,,,,,,,,,,70,,,,,,,,,,,,,,,,,,,,,,,,,,,,,0.0,5.0,5.0,5.0,1.0,newclockpresent_6_2.xlsx,newclock_compare_task_6_2.xlsx
,,,,,,,,,,,,,,,,,,,,,,,,,,,,,,,,,,,,,,,,,,,,slingshot_07s.jpg,0.0,Blue.png,1.0,70,,,,,,,,,,,,,0.0,1.0,0.946,0.0,0.0,0.0,0.0,1.0,,,,,,,,,,,,,,,
,,,,,,,,,,,,,,,,,,,,,,,,,,,,,,,,,,,,,,,,,,,,slingshot_07s.jpg,1.0,Purple.png,1.0,70,,,,,,,,,,,,,1.0,1.0,1.314,0.0,1.0,1.0,1.0,1.0,,,,,,,,,,,,,,,
,,,,,,,,,,,,,,,,,,,,,,,,,,,,,,,,,,,,,,,,,,,,aluminum_foil_08s.jpg,0.0,Red.png,1.0,70,,,,,,,,,,,,,0.0,1.0,0.657,0.0,2.0,2.0,2.0,1.0,,,,,,,,,,,,,,,
,,,,,,,,,,,,,,,,,,,,,,,,,,,,,,,,,,,,,,,,,,,,ink_08s.jpg,0.0,Orange.png,1.0,70,,,,,,,,,,,,,0.0,1.0,0.481,0.0,3.0,3.0,3.0,1.0,,,,,,,,,,,,,,,
,,,,,,,,,,,,,,,,,,,,,,,,,,,,,,,,,,,,,,,,,,,,aluminum_foil_08s.jpg,1.0,Yellow.png,1.0,70,,,,,,,,,,,,,1.0,1.0,1.362,0.0,4.0,4.0,4.0,1.0,,,,,,,,,,,,,,,
,,,,,,,,,,,,,,,,,,,,,,,,,,,,,,,,,,,,,,,,,,,,slingshot_07s.jpg,1.0,Green.png,1.0,70,,,,,,,,,,,,,1.0,1.0,1.307,0.0,5.0,5.0,5.0,1.0,,,,,,,,,,,,,,,
,,,,,,,,,,,,,,,,,,,,,,,,,,,,,,,,,,,,,,,,,,,,aluminum_foil_08s.jpg,0.0,Blue.png,2.0,70,,,,,,,,,,,,,0.0,1.0,1.013,0.0,6.0,6.0,6.0,1.0,,,,,,,,,,,,,,,
,,,,,,,,,,,,,,,,,,,,,,,,,,,,,,,,,,,,,,,,,,,,aluminum_foil_08s.jpg,1.0,Purple.png,2.0,70,,,,,,,,,,,,,1.0,1.0,2.046,0.0,7.0,7.0,7.0,1.0,,,,,,,,,,,,,,,
,,,,,,,,,,,,,,,,,,,,,,,,,,,,,,,,,,,,,,,,,,,,ice-cream_cone_06s.jpg,0.0,Red.png,2.0,70,,,,,,,,,,,,,0.0,1.0,0.953,0.0,8.0,8.0,8.0,1.0,,,,,,,,,,,,,,,
,,,,,,,,,,,,,,,,,,,,,,,,,,,,,,,,,,,,,,,,,,,,ink_08s.jpg,0.0,Orange.png,2.0,70,,,,,,,,,,,,,1.0,0.0,1.2,0.0,9.0,9.0,9.0,1.0,,,,,,,,,,,,,,,
,,,,,,,,,,,,,,,,,,,,,,,,,,,,,,,,,,,,,,,,,,,,emerald_02s.jpg,0.0,Yellow.png,2.0,70,,,,,,,,,,,,,0.0,1.0,2.32,0.0,10.0,10.0,10.0,1.0,,,,,,,,,,,,,,,
,,,,,,,,,,,,,,,,,,,,,,,,,,,,,,,,,,,,,,,,,,,,bathtub_23s.jpg,0.0,Green.png,2.0,70,,,,,,,,,,,,,0.0,1.0,1.281,0.0,11.0,11.0,11.0,1.0,,,,,,,,,,,,,,,
,,,,,,,,,,,,,,,,,,,,,,,,,,,,,,,,,,,,,,,,,,,,bubble_01b.jpg,0.0,Blue.png,3.0,70,,,,,,,,,,,,,0.0,1.0,0.962,0.0,12.0,12.0,12.0,1.0,,,,,,,,,,,,,,,
,,,,,,,,,,,,,,,,,,,,,,,,,,,,,,,,,,,,,,,,,,,,mirror_12s.jpg,0.0,Purple.png,3.0,70,,,,,,,,,,,,,0.0,1.0,1.629,0.0,13.0,13.0,13.0,1.0,,,,,,,,,,,,,,,
,,,,,,,,,,,,,,,,,,,,,,,,,,,,,,,,,,,,,,,,,,,,swing_set_15s.jpg,0.0,Red.png,3.0,70,,,,,,,,,,,,,0.0,1.0,1.813,0.0,14.0,14.0,14.0,1.0,,,,,,,,,,,,,,,
,,,,,,,,,,,,,,,,,,,,,,,,,,,,,,,,,,,,,,,,,,,,pinwheel_06s.jpg,0.0,Orange.png,3.0,70,,,,,,,,,,,,,0.0,1.0,0.785,0.0,15.0,15.0,15.0,1.0,,,,,,,,,,,,,,,
,,,,,,,,,,,,,,,,,,,,,,,,,,,,,,,,,,,,,,,,,,,,swing_set_15s.jpg,1.0,Yellow.png,3.0,70,,,,,,,,,,,,,1.0,1.0,0.861,0.0,16.0,16.0,16.0,1.0,,,,,,,,,,,,,,,
,,,,,,,,,,,,,,,,,,,,,,,,,,,,,,,,,,,,,,,,,,,,pinwheel_06s.jpg,1.0,Green.png,3.0,70,,,,,,,,,,,,,1.0,1.0,1.553,0.0,17.0,17.0,17.0,1.0,,,,,,,,,,,,,,,
,,,,,,,,,,,,,,,,,,,,,,,,,,,,,,,,,,,,,,,,,,,,ink_08s.jpg,0.0,Blue.png,4.0,70,,,,,,,,,,,,,1.0,0.0,1.578,0.0,18.0,18.0,18.0,1.0,,,,,,,,,,,,,,,
,,,,,,,,,,,,,,,,,,,,,,,,,,,,,,,,,,,,,,,,,,,,plunger_08s.jpg,0.0,Purple.png,4.0,70,,,,,,,,,,,,,0.0,1.0,0.862,0.0,19.0,19.0,19.0,1.0,,,,,,,,,,,,,,,
,,,,,,,,,,,,,,,,,,,,,,,,,,,,,,,,,,,,,,,,,,,,ink_08s.jpg,1.0,Red.png,4.0,70,,,,,,,,,,,,,0.0,0.0,0.634,0.0,20.0,20.0,20.0,1.0,,,,,,,,,,,,,,,
,,,,,,,,,,,,,,,,,,,,,,,,,,,,,,,,,,,,,,,,,,,,ink_08s.jpg,1.0,Orange.png,4.0,70,,,,,,,,,,,,,1.0,1.0,0.784,0.0,21.0,21.0,21.0,1.0,,,,,,,,,,,,,,,
,,,,,,,,,,,,,,,,,,,,,,,,,,,,,,,,,,,,,,,,,,,,metronome_03s.jpg,0.0,Yellow.png,4.0,70,,,,,,,,,,,,,0.0,1.0,0.72,0.0,22.0,22.0,22.0,1.0,,,,,,,,,,,,,,,
,,,,,,,,,,,,,,,,,,,,,,,,,,,,,,,,,,,,,,,,,,,,puppy_08s.jpg,0.0,Green.png,4.0,70,,,,,,,,,,,,,0.0,1.0,0.978,0.0,23.0,23.0,23.0,1.0,,,,,,,,,,,,,,,
,,,,,,,,,,,,,,,,,,,,,,,,,,,,,,,,,,,,,,,,,,,,treasure_08s.jpg,0.0,Blue.png,5.0,70,,,,,,,,,,,,,0.0,1.0,1.857,0.0,24.0,24.0,24.0,1.0,,,,,,,,,,,,,,,
,,,,,,,,,,,,,,,,,,,,,,,,,,,,,,,,,,,,,,,,,,,,penguin_16s.jpg,0.0,Purple.png,5.0,70,,,,,,,,,,,,,0.0,1.0,1.0,0.0,25.0,25.0,25.0,1.0,,,,,,,,,,,,,,,
,,,,,,,,,,,,,,,,,,,,,,,,,,,,,,,,,,,,,,,,,,,,bacon_05s.jpg,0.0,Red.png,5.0,70,,,,,,,,,,,,,0.0,1.0,1.217,0.0,26.0,26.0,26.0,1.0,,,,,,,,,,,,,,,
,,,,,,,,,,,,,,,,,,,,,,,,,,,,,,,,,,,,,,,,,,,,giraffe_11s.jpg,0.0,Orange.png,5.0,70,,,,,,,,,,,,,0.0,1.0,0.831,0.0,27.0,27.0,27.0,1.0,,,,,,,,,,,,,,,
,,,,,,,,,,,,,,,,,,,,,,,,,,,,,,,,,,,,,,,,,,,,rug_09s.jpg,0.0,Yellow.png,5.0,70,,,,,,,,,,,,,0.0,1.0,0.712,0.0,28.0,28.0,28.0,1.0,,,,,,,,,,,,,,,
,,,,,,,,,,,,,,,,,,,,,,,,,,,,,,,,,,,,,,,,,,,,lamp_08s.jpg,0.0,Green.png,5.0,70,,,,,,,,,,,,,0.0,1.0,1.52,0.0,29.0,29.0,29.0,1.0,,,,,,,,,,,,,,,
,,,,,,,,,,,,,,,,,,,,,,,,,,,,,,,,,,,,,,,,,,,,metronome_03s.jpg,0.0,Blue.png,6.0,70,,,,,,,,,,,,,1.0,0.0,1.279,0.0,30.0,30.0,30.0,1.0,,,,,,,,,,,,,,,
,,,,,,,,,,,,,,,,,,,,,,,,,,,,,,,,,,,,,,,,,,,,metronome_03s.jpg,1.0,Purple.png,6.0,70,,,,,,,,,,,,,1.0,1.0,0.845,0.0,31.0,31.0,31.0,1.0,,,,,,,,,,,,,,,
,,,,,,,,,,,,,,,,,,,,,,,,,,,,,,,,,,,,,,,,,,,,lip_gloss_06s.jpg,0.0,Red.png,6.0,70,,,,,,,,,,,,,0.0,1.0,1.504,0.0,32.0,32.0,32.0,1.0,,,,,,,,,,,,,,,
,,,,,,,,,,,,,,,,,,,,,,,,,,,,,,,,,,,,,,,,,,,,metronome_03s.jpg,1.0,Orange.png,6.0,70,,,,,,,,,,,,,1.0,1.0,0.833,0.0,33.0,33.0,33.0,1.0,,,,,,,,,,,,,,,
,,,,,,,,,,,,,,,,,,,,,,,,,,,,,,,,,,,,,,,,,,,,laser_pointer_02s.jpg,0.0,Yellow.png,6.0,70,,,,,,,,,,,,,0.0,1.0,0.745,0.0,34.0,34.0,34.0,1.0,,,,,,,,,,,,,,,
,,,,,,,,,,,,,,,,,,,,,,,,,,,,,,,,,,,,,,,,,,,,metronome_03s.jpg,1.0,Green.png,6.0,70,,,,,,,,,,,,,1.0,1.0,1.34,0.0,35.0,35.0,35.0,1.0,,,,,,,,,,,,,,,
,,,,,,,,,,,,,,,,,,,,,,,,,,,,,,,,,,,,,,,,,,,,,1.0,,,70,,,,,,,,,emerald_02s.jpg,mirror_12s.jpg,,,,,,,,,,,1.0,1.0,0.823,0.0,0.0,0.0,0.0,1.0,,,,,,,
,,,,,,,,,,,,,,,,,,,,,,,,,,,,,,,,,,,,,,,,,,,,,1.0,,,70,,,,,,,,,puppy_08s.jpg,bacon_05s.jpg,,,,,,,,,,,1.0,1.0,0.354,0.0,1.0,1.0,1.0,1.0,,,,,,,
,,,,,,,,,,,,,,,,,,,,,,,,,,,,,,,,,,,,,,,,,,,,,0.0,,,70,,,,,,,,,lip_gloss_06s.jpg,lamp_08s.jpg,,,,,,,,,,,0.0,1.0,0.192,0.0,2.0,2.0,2.0,1.0,,,,,,,
,,,,,,,,,,,,,,,,,,,,,,,,,,,,,,,,,,,,,,,,,,,,,0.0,,,70,,,,,,,,,bathtub_23s.jpg,ice-cream_cone_06s.jpg,,,,,,,,,,,0.0,1.0,0.216,0.0,3.0,3.0,3.0,1.0,,,,,,,
,,,,,,,,,,,,,,,,,,,,,,,,,,,,,,,,,,,,,,,,,,,,,0.0,,,70,,,,,,,,,giraffe_11s.jpg,treasure_08s.jpg,,,,,,,,,,,1.0,0.0,0.158,0.0,4.0,4.0,4.0,1.0,,,,,,,
,,,,,,,,,,,,,,,,,,,,,,,,,,,,,,,,,,,,,,,,,,,,,0.0,,,70,,,,,,,,,rug_09s.jpg,penguin_16s.jpg,,,,,,,,,,,1.0,0.0,0.2,0.0,5.0,5.0,5.0,1.0,,,,,,,
,,,,,,,,,,,,,,,,,,,,,,,,,,,,,,,,,,,,,,,,,,,,,,,,70,,,,,,,,,,,,,,,,,,,,,,,,,,,,,0.0,6.0,6.0,6.0,1.0,newclockpresent_7_2.xlsx,newclock_compare_task_7_2.xlsx
,,,,,,,,,,,,,,,,,,,,,,,,,,,,,,,,,,,,,,,,,,,,ant_12s.jpg,0.0,Blue.png,1.0,70,,,,,,,,,,,,,0.0,1.0,1.774,0.0,0.0,0.0,0.0,1.0,,,,,,,,,,,,,,,
,,,,,,,,,,,,,,,,,,,,,,,,,,,,,,,,,,,,,,,,,,,,ant_12s.jpg,1.0,Purple.png,1.0,70,,,,,,,,,,,,,1.0,1.0,1.279,0.0,1.0,1.0,1.0,1.0,,,,,,,,,,,,,,,
,,,,,,,,,,,,,,,,,,,,,,,,,,,,,,,,,,,,,,,,,,,,ticktacktoe_08s.jpg,0.0,Red.png,1.0,70,,,,,,,,,,,,,0.0,1.0,1.063,0.0,2.0,2.0,2.0,1.0,,,,,,,,,,,,,,,
,,,,,,,,,,,,,,,,,,,,,,,,,,,,,,,,,,,,,,,,,,,,frog_09s.jpg,0.0,Orange.png,1.0,70,,,,,,,,,,,,,0.0,1.0,1.79,0.0,3.0,3.0,3.0,1.0,,,,,,,,,,,,,,,
,,,,,,,,,,,,,,,,,,,,,,,,,,,,,,,,,,,,,,,,,,,,ticktacktoe_08s.jpg,1.0,Yellow.png,1.0,70,,,,,,,,,,,,,1.0,1.0,1.502,0.0,4.0,4.0,4.0,1.0,,,,,,,,,,,,,,,
,,,,,,,,,,,,,,,,,,,,,,,,,,,,,,,,,,,,,,,,,,,,feather02.jpg,0.0,Green.png,1.0,70,,,,,,,,,,,,,0.0,1.0,1.037,0.0,5.0,5.0,5.0,1.0,,,,,,,,,,,,,,,
,,,,,,,,,,,,,,,,,,,,,,,,,,,,,,,,,,,,,,,,,,,,gas_mask_11s.jpg,0.0,Blue.png,2.0,70,,,,,,,,,,,,,0.0,1.0,1.364,0.0,6.0,6.0,6.0,1.0,,,,,,,,,,,,,,,
,,,,,,,,,,,,,,,,,,,,,,,,,,,,,,,,,,,,,,,,,,,,gas_mask_11s.jpg,1.0,Purple.png,2.0,70,,,,,,,,,,,,,1.0,1.0,1.516,0.0,7.0,7.0,7.0,1.0,,,,,,,,,,,,,,,
,,,,,,,,,,,,,,,,,,,,,,,,,,,,,,,,,,,,,,,,,,,,mop_08s.jpg,0.0,Red.png,2.0,70,,,,,,,,,,,,,0.0,1.0,0.863,0.0,8.0,8.0,8.0,1.0,,,,,,,,,,,,,,,
,,,,,,,,,,,,,,,,,,,,,,,,,,,,,,,,,,,,,,,,,,,,gas_mask_11s.jpg,1.0,Orange.png,2.0,70,,,,,,,,,,,,,1.0,1.0,1.612,0.0,9.0,9.0,9.0,1.0,,,,,,,,,,,,,,,
,,,,,,,,,,,,,,,,,,,,,,,,,,,,,,,,,,,,,,,,,,,,pea_11s.jpg,0.0,Yellow.png,2.0,70,,,,,,,,,,,,,0.0,1.0,1.014,0.0,10.0,10.0,10.0,1.0,,,,,,,,,,,,,,,
,,,,,,,,,,,,,,,,,,,,,,,,,,,,,,,,,,,,,,,,,,,,bowler_hat_10s.jpg,0.0,Green.png,2.0,70,,,,,,,,,,,,,0.0,1.0,0.964,0.0,11.0,11.0,11.0,1.0,,,,,,,,,,,,,,,
,,,,,,,,,,,,,,,,,,,,,,,,,,,,,,,,,,,,,,,,,,,,pencil_sharpener_09n.jpg,0.0,Blue.png,3.0,70,,,,,,,,,,,,,0.0,1.0,2.214,0.0,12.0,12.0,12.0,1.0,,,,,,,,,,,,,,,
,,,,,,,,,,,,,,,,,,,,,,,,,,,,,,,,,,,,,,,,,,,,rice_12s.jpg,0.0,Purple.png,3.0,70,,,,,,,,,,,,,0.0,1.0,1.188,0.0,13.0,13.0,13.0,1.0,,,,,,,,,,,,,,,
,,,,,,,,,,,,,,,,,,,,,,,,,,,,,,,,,,,,,,,,,,,,stamp1_11s.jpg,0.0,Red.png,3.0,70,,,,,,,,,,,,,0.0,1.0,0.995,0.0,14.0,14.0,14.0,1.0,,,,,,,,,,,,,,,
,,,,,,,,,,,,,,,,,,,,,,,,,,,,,,,,,,,,,,,,,,,,jersey_02s.jpg,0.0,Orange.png,3.0,70,,,,,,,,,,,,,0.0,1.0,0.837,0.0,15.0,15.0,15.0,1.0,,,,,,,,,,,,,,,
,,,,,,,,,,,,,,,,,,,,,,,,,,,,,,,,,,,,,,,,,,,,tiara_05s.jpg,0.0,Yellow.png,3.0,70,,,,,,,,,,,,,0.0,1.0,1.021,0.0,16.0,16.0,16.0,1.0,,,,,,,,,,,,,,,
,,,,,,,,,,,,,,,,,,,,,,,,,,,,,,,,,,,,,,,,,,,,target_11s.jpg,0.0,Green.png,3.0,70,,,,,,,,,,,,,0.0,1.0,0.782,0.0,17.0,17.0,17.0,1.0,,,,,,,,,,,,,,,
,,,,,,,,,,,,,,,,,,,,,,,,,,,,,,,,,,,,,,,,,,,,dirt_bike_11s.jpg,0.0,Blue.png,4.0,70,,,,,,,,,,,,,0.0,1.0,0.686,0.0,18.0,18.0,18.0,1.0,,,,,,,,,,,,,,,
,,,,,,,,,,,,,,,,,,,,,,,,,,,,,,,,,,,,,,,,,,,,doily_13s.jpg,0.0,Purple.png,4.0,70,,,,,,,,,,,,,0.0,1.0,0.929,0.0,19.0,19.0,19.0,1.0,,,,,,,,,,,,,,,
,,,,,,,,,,,,,,,,,,,,,,,,,,,,,,,,,,,,,,,,,,,,sunglasses_11s.jpg,0.0,Red.png,4.0,70,,,,,,,,,,,,,0.0,1.0,0.621,0.0,20.0,20.0,20.0,1.0,,,,,,,,,,,,,,,
,,,,,,,,,,,,,,,,,,,,,,,,,,,,,,,,,,,,,,,,,,,,compass_10n.jpg,0.0,Orange.png,4.0,70,,,,,,,,,,,,,0.0,1.0,0.613,0.0,21.0,21.0,21.0,1.0,,,,,,,,,,,,,,,
,,,,,,,,,,,,,,,,,,,,,,,,,,,,,,,,,,,,,,,,,,,,sunglasses_11s.jpg,1.0,Yellow.png,4.0,70,,,,,,,,,,,,,1.0,1.0,1.357,0.0,22.0,22.0,22.0,1.0,,,,,,,,,,,,,,,
,,,,,,,,,,,,,,,,,,,,,,,,,,,,,,,,,,,,,,,,,,,,sunglasses_11s.jpg,1.0,Green.png,4.0,70,,,,,,,,,,,,,1.0,1.0,1.02,0.0,23.0,23.0,23.0,1.0,,,,,,,,,,,,,,,
,,,,,,,,,,,,,,,,,,,,,,,,,,,,,,,,,,,,,,,,,,,,seagull_01b.jpg,0.0,Blue.png,5.0,70,,,,,,,,,,,,,0.0,1.0,0.773,0.0,24.0,24.0,24.0,1.0,,,,,,,,,,,,,,,
,,,,,,,,,,,,,,,,,,,,,,,,,,,,,,,,,,,,,,,,,,,,footprint_11s.jpg,0.0,Purple.png,5.0,70,,,,,,,,,,,,,0.0,1.0,2.146,0.0,25.0,25.0,25.0,1.0,,,,,,,,,,,,,,,
,,,,,,,,,,,,,,,,,,,,,,,,,,,,,,,,,,,,,,,,,,,,projector_08s.jpg,0.0,Red.png,5.0,70,,,,,,,,,,,,,0.0,1.0,2.053,0.0,26.0,26.0,26.0,1.0,,,,,,,,,,,,,,,
,,,,,,,,,,,,,,,,,,,,,,,,,,,,,,,,,,,,,,,,,,,,projector_08s.jpg,1.0,Orange.png,5.0,70,,,,,,,,,,,,,1.0,1.0,0.9,0.0,27.0,27.0,27.0,1.0,,,,,,,,,,,,,,,
,,,,,,,,,,,,,,,,,,,,,,,,,,,,,,,,,,,,,,,,,,,,money_07s.jpg,0.0,Yellow.png,5.0,70,,,,,,,,,,,,,0.0,1.0,0.797,0.0,28.0,28.0,28.0,1.0,,,,,,,,,,,,,,,
,,,,,,,,,,,,,,,,,,,,,,,,,,,,,,,,,,,,,,,,,,,,flip_flop_03s.jpg,0.0,Green.png,5.0,70,,,,,,,,,,,,,0.0,1.0,0.588,0.0,29.0,29.0,29.0,1.0,,,,,,,,,,,,,,,
,,,,,,,,,,,,,,,,,,,,,,,,,,,,,,,,,,,,,,,,,,,,ring_03s.jpg,0.0,Blue.png,6.0,70,,,,,,,,,,,,,0.0,1.0,0.773,0.0,30.0,30.0,30.0,1.0,,,,,,,,,,,,,,,
,,,,,,,,,,,,,,,,,,,,,,,,,,,,,,,,,,,,,,,,,,,,flip_flop_03s.jpg,0.0,Purple.png,6.0,70,,,,,,,,,,,,,1.0,0.0,0.913,0.0,31.0,31.0,31.0,1.0,,,,,,,,,,,,,,,
,,,,,,,,,,,,,,,,,,,,,,,,,,,,,,,,,,,,,,,,,,,,flip_flop_03s.jpg,1.0,Red.png,6.0,70,,,,,,,,,,,,,1.0,1.0,0.918,0.0,32.0,32.0,32.0,1.0,,,,,,,,,,,,,,,
,,,,,,,,,,,,,,,,,,,,,,,,,,,,,,,,,,,,,,,,,,,,flip_flop_03s.jpg,1.0,Orange.png,6.0,70,,,,,,,,,,,,,1.0,1.0,0.861,0.0,33.0,33.0,33.0,1.0,,,,,,,,,,,,,,,
,,,,,,,,,,,,,,,,,,,,,,,,,,,,,,,,,,,,,,,,,,,,screwdriver02a.jpg,0.0,Yellow.png,6.0,70,,,,,,,,,,,,,0.0,1.0,0.797,0.0,34.0,34.0,34.0,1.0,,,,,,,,,,,,,,,
,,,,,,,,,,,,,,,,,,,,,,,,,,,,,,,,,,,,,,,,,,,,screwdriver02a.jpg,1.0,Green.png,6.0,70,,,,,,,,,,,,,1.0,1.0,1.248,0.0,35.0,35.0,35.0,1.0,,,,,,,,,,,,,,,
,,,,,,,,,,,,,,,,,,,,,,,,,,,,,,,,,,,,,,,,,,,,,0.0,,,70,,,,,,,,,mop_08s.jpg,feather02.jpg,,,,,,,,,,,0.0,1.0,0.755,0.0,0.0,0.0,0.0,1.0,,,,,,,
,,,,,,,,,,,,,,,,,,,,,,,,,,,,,,,,,,,,,,,,,,,,,1.0,,,70,,,,,,,,,pea_11s.jpg,rice_12s.jpg,,,,,,,,,,,0.0,0.0,0.327,0.0,1.0,1.0,1.0,1.0,,,,,,,
,,,,,,,,,,,,,,,,,,,,,,,,,,,,,,,,,,,,,,,,,,,,,1.0,,,70,,,,,,,,,tiara_05s.jpg,doily_13s.jpg,,,,,,,,,,,1.0,1.0,0.249,0.0,2.0,2.0,2.0,1.0,,,,,,,
,,,,,,,,,,,,,,,,,,,,,,,,,,,,,,,,,,,,,,,,,,,,,1.0,,,70,,,,,,,,,footprint_11s.jpg,money_07s.jpg,,,,,,,,,,,1.0,1.0,0.208,0.0,3.0,3.0,3.0,1.0,,,,,,,
,,,,,,,,,,,,,,,,,,,,,,,,,,,,,,,,,,,,,,,,,,,,,1.0,,,70,,,,,,,,,pencil_sharpener_09n.jpg,jersey_02s.jpg,,,,,,,,,,,0.0,0.0,0.451,0.0,4.0,4.0,4.0,1.0,,,,,,,
,,,,,,,,,,,,,,,,,,,,,,,,,,,,,,,,,,,,,,,,,,,,,1.0,,,70,,,,,,,,,stamp1_11s.jpg,target_11s.jpg,,,,,,,,,,,1.0,1.0,0.22,0.0,5.0,5.0,5.0,1.0,,,,,,,
,,,,,,,,,,,,,,,,,,,,,,,,,,,,,,,,,,,,,,,,,,,,,,,,70,,,,,,,,,,,,,,,,,,,,,,,,,,,,,0.0,7.0,7.0,7.0,1.0,newclockpresent_8_2.xlsx,newclock_compare_task_8_2.xlsx
,,,,,,,,,,,,,,,,,,,,,,,,,,,,,,,,,,,,,,,,,,,,quilt_03s.jpg,0.0,Blue.png,1.0,70,,,,,,,,,,,,,0.0,1.0,1.685,0.0,0.0,0.0,0.0,1.0,,,,,,,,,,,,,,,
,,,,,,,,,,,,,,,,,,,,,,,,,,,,,,,,,,,,,,,,,,,,stingray_02s.jpg,0.0,Purple.png,1.0,70,,,,,,,,,,,,,0.0,1.0,0.647,0.0,1.0,1.0,1.0,1.0,,,,,,,,,,,,,,,
,,,,,,,,,,,,,,,,,,,,,,,,,,,,,,,,,,,,,,,,,,,,mousetrap_15n.jpg,0.0,Red.png,1.0,70,,,,,,,,,,,,,0.0,1.0,0.922,0.0,2.0,2.0,2.0,1.0,,,,,,,,,,,,,,,
,,,,,,,,,,,,,,,,,,,,,,,,,,,,,,,,,,,,,,,,,,,,dashboard_02s.jpg,0.0,Orange.png,1.0,70,,,,,,,,,,,,,0.0,1.0,0.698,0.0,3.0,3.0,3.0,1.0,,,,,,,,,,,,,,,
,,,,,,,,,,,,,,,,,,,,,,,,,,,,,,,,,,,,,,,,,,,,quilt_03s.jpg,1.0,Yellow.png,1.0,70,,,,,,,,,,,,,1.0,1.0,1.283,0.0,4.0,4.0,4.0,1.0,,,,,,,,,,,,,,,
,,,,,,,,,,,,,,,,,,,,,,,,,,,,,,,,,,,,,,,,,,,,quilt_03s.jpg,1.0,Green.png,1.0,70,,,,,,,,,,,,,1.0,1.0,1.213,0.0,5.0,5.0,5.0,1.0,,,,,,,,,,,,,,,
,,,,,,,,,,,,,,,,,,,,,,,,,,,,,,,,,,,,,,,,,,,,thorn_13s.jpg,0.0,Blue.png,2.0,70,,,,,,,,,,,,,0.0,1.0,1.462,0.0,6.0,6.0,6.0,1.0,,,,,,,,,,,,,,,
,,,,,,,,,,,,,,,,,,,,,,,,,,,,,,,,,,,,,,,,,,,,mitten_10s.jpg,0.0,Purple.png,2.0,70,,,,,,,,,,,,,0.0,1.0,0.649,0.0,7.0,7.0,7.0,1.0,,,,,,,,,,,,,,,
,,,,,,,,,,,,,,,,,,,,,,,,,,,,,,,,,,,,,,,,,,,,fondue_07s.jpg,0.0,Red.png,2.0,70,,,,,,,,,,,,,0.0,1.0,0.978,0.0,8.0,8.0,8.0,1.0,,,,,,,,,,,,,,,
,,,,,,,,,,,,,,,,,,,,,,,,,,,,,,,,,,,,,,,,,,,,peach_04s.jpg,0.0,Orange.png,2.0,70,,,,,,,,,,,,,0.0,1.0,0.645,0.0,9.0,9.0,9.0,1.0,,,,,,,,,,,,,,,
,,,,,,,,,,,,,,,,,,,,,,,,,,,,,,,,,,,,,,,,,,,,stump_02s.jpg,0.0,Yellow.png,2.0,70,,,,,,,,,,,,,0.0,1.0,0.833,0.0,10.0,10.0,10.0,1.0,,,,,,,,,,,,,,,
,,,,,,,,,,,,,,,,,,,,,,,,,,,,,,,,,,,,,,,,,,,,rabbit_03s.jpg,0.0,Green.png,2.0,70,,,,,,,,,,,,,0.0,1.0,0.863,0.0,11.0,11.0,11.0,1.0,,,,,,,,,,,,,,,
,,,,,,,,,,,,,,,,,,,,,,,,,,,,,,,,,,,,,,,,,,,,champagne_18s.jpg,0.0,Blue.png,3.0,70,,,,,,,,,,,,,0.0,1.0,1.045,0.0,12.0,12.0,12.0,1.0,,,,,,,,,,,,,,,
,,,,,,,,,,,,,,,,,,,,,,,,,,,,,,,,,,,,,,,,,,,,rabbit_03s.jpg,0.0,Purple.png,3.0,70,,,,,,,,,,,,,0.0,1.0,1.663,0.0,13.0,13.0,13.0,1.0,,,,,,,,,,,,,,,
,,,,,,,,,,,,,,,,,,,,,,,,,,,,,,,,,,,,,,,,,,,,denture_03s.jpg,0.0,Red.png,3.0,70,,,,,,,,,,,,,0.0,1.0,2.195,0.0,14.0,14.0,14.0,1.0,,,,,,,,,,,,,,,
,,,,,,,,,,,,,,,,,,,,,,,,,,,,,,,,,,,,,,,,,,,,rabbit_03s.jpg,1.0,Orange.png,3.0,70,,,,,,,,,,,,,1.0,1.0,1.579,0.0,15.0,15.0,15.0,1.0,,,,,,,,,,,,,,,
,,,,,,,,,,,,,,,,,,,,,,,,,,,,,,,,,,,,,,,,,,,,turtleneck_11s.jpg,0.0,Yellow.png,3.0,70,,,,,,,,,,,,,0.0,1.0,2.13,0.0,16.0,16.0,16.0,1.0,,,,,,,,,,,,,,,
,,,,,,,,,,,,,,,,,,,,,,,,,,,,,,,,,,,,,,,,,,,,rabbit_03s.jpg,1.0,Green.png,3.0,70,,,,,,,,,,,,,1.0,1.0,1.331,0.0,17.0,17.0,17.0,1.0,,,,,,,,,,,,,,,
,,,,,,,,,,,,,,,,,,,,,,,,,,,,,,,,,,,,,,,,,,,,typewriter_11s.jpg,0.0,Blue.png,4.0,70,,,,,,,,,,,,,0.0,1.0,1.249,0.0,18.0,18.0,18.0,1.0,,,,,,,,,,,,,,,
,,,,,,,,,,,,,,,,,,,,,,,,,,,,,,,,,,,,,,,,,,,,thread_08s.jpg,0.0,Purple.png,4.0,70,,,,,,,,,,,,,0.0,1.0,1.447,0.0,19.0,19.0,19.0,1.0,,,,,,,,,,,,,,,
,,,,,,,,,,,,,,,,,,,,,,,,,,,,,,,,,,,,,,,,,,,,bean_06s.jpg,0.0,Red.png,4.0,70,,,,,,,,,,,,,0.0,1.0,1.707,0.0,20.0,20.0,20.0,1.0,,,,,,,,,,,,,,,
,,,,,,,,,,,,,,,,,,,,,,,,,,,,,,,,,,,,,,,,,,,,rolling_pin_02s.jpg,0.0,Orange.png,4.0,70,,,,,,,,,,,,,0.0,1.0,0.667,0.0,21.0,21.0,21.0,1.0,,,,,,,,,,,,,,,
,,,,,,,,,,,,,,,,,,,,,,,,,,,,,,,,,,,,,,,,,,,,tattoo_14s.jpg,0.0,Yellow.png,4.0,70,,,,,,,,,,,,,0.0,1.0,1.063,0.0,22.0,22.0,22.0,1.0,,,,,,,,,,,,,,,
,,,,,,,,,,,,,,,,,,,,,,,,,,,,,,,,,,,,,,,,,,,,eiffeltower.jpg,0.0,Green.png,4.0,70,,,,,,,,,,,,,0.0,1.0,0.762,0.0,23.0,23.0,23.0,1.0,,,,,,,,,,,,,,,
,,,,,,,,,,,,,,,,,,,,,,,,,,,,,,,,,,,,,,,,,,,,fondue_07s.jpg,0.0,Blue.png,5.0,70,,,,,,,,,,,,,0.0,1.0,0.786,0.0,24.0,24.0,24.0,1.0,,,,,,,,,,,,,,,
,,,,,,,,,,,,,,,,,,,,,,,,,,,,,,,,,,,,,,,,,,,,fondue_07s.jpg,1.0,Purple.png,5.0,70,,,,,,,,,,,,,1.0,1.0,1.53,0.0,25.0,25.0,25.0,1.0,,,,,,,,,,,,,,,
,,,,,,,,,,,,,,,,,,,,,,,,,,,,,,,,,,,,,,,,,,,,omelet_07s.jpg,0.0,Red.png,5.0,70,,,,,,,,,,,,,0.0,1.0,1.48,0.0,26.0,26.0,26.0,1.0,,,,,,,,,,,,,,,
,,,,,,,,,,,,,,,,,,,,,,,,,,,,,,,,,,,,,,,,,,,,fondue_07s.jpg,1.0,Orange.png,5.0,70,,,,,,,,,,,,,1.0,1.0,1.416,0.0,27.0,27.0,27.0,1.0,,,,,,,,,,,,,,,
,,,,,,,,,,,,,,,,,,,,,,,,,,,,,,,,,,,,,,,,,,,,radio_09s.jpg,0.0,Yellow.png,5.0,70,,,,,,,,,,,,,0.0,1.0,0.563,0.0,28.0,28.0,28.0,1.0,,,,,,,,,,,,,,,
,,,,,,,,,,,,,,,,,,,,,,,,,,,,,,,,,,,,,,,,,,,,fondue_07s.jpg,1.0,Green.png,5.0,70,,,,,,,,,,,,,1.0,1.0,1.23,0.0,29.0,29.0,29.0,1.0,,,,,,,,,,,,,,,
,,,,,,,,,,,,,,,,,,,,,,,,,,,,,,,,,,,,,,,,,,,,roller_coaster_07s.jpg,0.0,Blue.png,6.0,70,,,,,,,,,,,,,0.0,1.0,2.067,0.0,30.0,30.0,30.0,1.0,,,,,,,,,,,,,,,
,,,,,,,,,,,,,,,,,,,,,,,,,,,,,,,,,,,,,,,,,,,,loveseat_08s.jpg,0.0,Purple.png,6.0,70,,,,,,,,,,,,,0.0,1.0,1.346,0.0,31.0,31.0,31.0,1.0,,,,,,,,,,,,,,,
,,,,,,,,,,,,,,,,,,,,,,,,,,,,,,,,,,,,,,,,,,,,roller_coaster_07s.jpg,1.0,Red.png,6.0,70,,,,,,,,,,,,,1.0,1.0,1.514,0.0,32.0,32.0,32.0,1.0,,,,,,,,,,,,,,,
,,,,,,,,,,,,,,,,,,,,,,,,,,,,,,,,,,,,,,,,,,,,roller_coaster_07s.jpg,1.0,Orange.png,6.0,70,,,,,,,,,,,,,1.0,1.0,1.146,0.0,33.0,33.0,33.0,1.0,,,,,,,,,,,,,,,
,,,,,,,,,,,,,,,,,,,,,,,,,,,,,,,,,,,,,,,,,,,,roller_coaster_07s.jpg,1.0,Yellow.png,6.0,70,,,,,,,,,,,,,1.0,1.0,1.138,0.0,34.0,34.0,34.0,1.0,,,,,,,,,,,,,,,
,,,,,,,,,,,,,,,,,,,,,,,,,,,,,,,,,,,,,,,,,,,,roller_coaster_07s.jpg,1.0,Green.png,6.0,70,,,,,,,,,,,,,1.0,1.0,1.28,0.0,35.0,35.0,35.0,1.0,,,,,,,,,,,,,,,
,,,,,,,,,,,,,,,,,,,,,,,,,,,,,,,,,,,,,,,,,,,,,0.0,,,70,,,,,,,,,loveseat_08s.jpg,radio_09s.jpg,,,,,,,,,,,1.0,0.0,1.864,0.0,0.0,0.0,0.0,1.0,,,,,,,
,,,,,,,,,,,,,,,,,,,,,,,,,,,,,,,,,,,,,,,,,,,,,1.0,,,70,,,,,,,,,dashboard_02s.jpg,thorn_13s.jpg,,,,,,,,,,,1.0,1.0,0.346,0.0,1.0,1.0,1.0,1.0,,,,,,,
,,,,,,,,,,,,,,,,,,,,,,,,,,,,,,,,,,,,,,,,,,,,,0.0,,,70,,,,,,,,,champagne_18s.jpg,peach_04s.jpg,,,,,,,,,,,1.0,0.0,0.318,0.0,2.0,2.0,2.0,1.0,,,,,,,
,,,,,,,,,,,,,,,,,,,,,,,,,,,,,,,,,,,,,,,,,,,,,1.0,,,70,,,,,,,,,mitten_10s.jpg,stump_02s.jpg,,,,,,,,,,,0.0,0.0,0.151,0.0,3.0,3.0,3.0,1.0,,,,,,,
,,,,,,,,,,,,,,,,,,,,,,,,,,,,,,,,,,,,,,,,,,,,,1.0,,,70,,,,,,,,,typewriter_11s.jpg,rolling_pin_02s.jpg,,,,,,,,,,,0.0,0.0,0.002,0.0,4.0,4.0,4.0,1.0,,,,,,,
,,,,,,,,,,,,,,,,,,,,,,,,,,,,,,,,,,,,,,,,,,,,,1.0,,,70,,,,,,,,,thread_08s.jpg,tattoo_14s.jpg,,,,,,,,,,,1.0,1.0,0.487,0.0,5.0,5.0,5.0,1.0,,,,,,,
,,,,,,,,,,,,,,,,,,,,,,,,,,,,,,,,,,,,,,,,,,,,,,,,70,,,,,,,,,,,,,,,,,,,,,,,,,,,,,0.0,8.0,8.0,8.0,1.0,newclockpresent_9_2.xlsx,newclock_compare_task_9_2.xlsx
