key_resp_3.keys,key_resp_3.rt,key_resp_4.keys,key_resp_4.rt,key_resp_5.keys,key_resp_5.rt,key_resp_6.keys,key_resp_6.rt,key_resp_7.keys,key_resp_7.rt,key_resp_8.keys,key_resp_8.rt,key_resp_9.keys,key_resp_9.rt,key_resp_10.keys,key_resp_10.rt,key_resp_11.keys,key_resp_11.rt,key_resp_12.keys,key_resp_12.rt,key_resp_13.keys,key_resp_13.rt,key_resp_14.keys,key_resp_14.rt,key_resp_15.keys,key_resp_15.rt,key_resp_16.keys,key_resp_16.rt,key_resp_17.keys,key_resp_17.rt,key_resp_18.keys,key_resp_18.rt,key_resp_19.keys,key_resp_19.rt,key_resp_20.keys,key_resp_20.rt,key_resp_21.keys,key_resp_21.corr,key_resp_21.rt,trials.thisRepN,trials.thisTrialN,trials.thisN,trials.thisIndex,trials.ran,pictures,answer,clock,segment,participant,key_resp_22.keys,key_resp_22.corr,key_resp_22.rt,trials_2.thisRepN,trials_2.thisTrialN,trials_2.thisN,trials_2.thisIndex,trials_2.ran,item_a,item_b,key_resp_23.keys,key_resp_23.rt,key_resp.keys,key_resp.corr,key_resp.rt,present_segment.thisRepN,present_segment.thisTrialN,present_segment.thisN,present_segment.thisIndex,present_segment.ran,key_resp_2.keys,key_resp_2.corr,key_resp_2.rt,compare_segment.thisRepN,compare_segment.thisTrialN,compare_segment.thisN,compare_segment.thisIndex,compare_segment.ran,clock_conditions.thisRepN,clock_conditions.thisTrialN,clock_conditions.thisN,clock_conditions.thisIndex,clock_conditions.ran,present,compare
space,11.7547,space,1.4842,0.0,3.4738,0.0,1.7226,1.0,0.9023,0.0,0.73,0.0,0.5994,0.0,3.7049,0.0,2.8447,0.0,0.7884,1.0,1.5631,0.0,0.9004,0.0,0.9426,0.0,0.755,space,12.9035,1.0,4.2246,0.0,6.0474,space,3.1569,0.0,1.0,1.1039,0.0,0.0,0.0,0.0,1.0,whipped_cream_02s.jpg,0.0,Blue.png,1.0,12,,,,,,,,,,,,,,,,,,,,,,,,,,,,,,,,,,,
,,,,,,,,,,,,,,,,,,,,,,,,,,,,,,,,,,,,0.0,1.0,1.0873,0.0,1.0,1.0,1.0,1.0,sheep_02s.jpg,0.0,Purple.png,1.0,12,,,,,,,,,,,,,,,,,,,,,,,,,,,,,,,,,,,
,,,,,,,,,,,,,,,,,,,,,,,,,,,,,,,,,,,,0.0,1.0,1.7721,0.0,2.0,2.0,2.0,1.0,sheep_02s.jpg,0.0,Red.png,1.0,12,,,,,,,,,,,,,,,,,,,,,,,,,,,,,,,,,,,
,,,,,,,,,,,,,,,,,,,,,,,,,,,,,,,,,,,,0.0,1.0,0.9292,0.0,3.0,3.0,3.0,1.0,sequin_02s.jpg,0.0,Orange.png,1.0,12,,,,,,,,,,,,,,,,,,,,,,,,,,,,,,,,,,,
,,,,,,,,,,,,,,,,,,,,,,,,,,,,,,,,,,,,1.0,1.0,0.9439,0.0,4.0,4.0,4.0,1.0,sheep_02s.jpg,1.0,Yellow.png,1.0,12,,,,,,,,,,,,,,,,,,,,,,,,,,,,,,,,,,,
,,,,,,,,,,,,,,,,,,,,,,,,,,,,,,,,,,,,0.0,1.0,0.8423,0.0,5.0,5.0,5.0,1.0,scoop_05s.jpg,0.0,Green.png,1.0,12,,,,,,,,,,,,,,,,,,,,,,,,,,,,,,,,,,,
,,,,,,,,,,,,,,,,,,,,,,,,,,,,,,,,,,,,0.0,1.0,0.8001,0.0,6.0,6.0,6.0,1.0,wagon_12s.jpg,0.0,Blue.png,2.0,12,,,,,,,,,,,,,,,,,,,,,,,,,,,,,,,,,,,
,,,,,,,,,,,,,,,,,,,,,,,,,,,,,,,,,,,,0.0,1.0,0.9933,0.0,7.0,7.0,7.0,1.0,scrabble_05s.jpg,0.0,Purple.png,2.0,12,,,,,,,,,,,,,,,,,,,,,,,,,,,,,,,,,,,
,,,,,,,,,,,,,,,,,,,,,,,,,,,,,,,,,,,,1.0,1.0,0.8866,0.0,8.0,8.0,8.0,1.0,wagon_12s.jpg,1.0,Red.png,2.0,12,,,,,,,,,,,,,,,,,,,,,,,,,,,,,,,,,,,
,,,,,,,,,,,,,,,,,,,,,,,,,,,,,,,,,,,,,0.0,,0.0,9.0,9.0,9.0,1.0,scrabble_05s.jpg,1.0,Orange.png,2.0,12,,,,,,,,,,,,,,,,,,,,,,,,,,,,,,,,,,,
,,,,,,,,,,,,,,,,,,,,,,,,,,,,,,,,,,,,0.0,1.0,0.7923,0.0,10.0,10.0,10.0,1.0,weasel_08s.jpg,0.0,Yellow.png,2.0,12,,,,,,,,,,,,,,,,,,,,,,,,,,,,,,,,,,,
,,,,,,,,,,,,,,,,,,,,,,,,,,,,,,,,,,,,0.0,1.0,0.759,0.0,11.0,11.0,11.0,1.0,scooter_06s.jpg,0.0,Green.png,2.0,12,,,,,,,,,,,,,,,,,,,,,,,,,,,,,,,,,,,
,,,,,,,,,,,,,,,,,,,,,,,,,,,,,,,,,,,,0.0,1.0,0.8458,0.0,12.0,12.0,12.0,1.0,wetsuit_04s.jpg,0.0,Blue.png,3.0,12,,,,,,,,,,,,,,,,,,,,,,,,,,,,,,,,,,,
,,,,,,,,,,,,,,,,,,,,,,,,,,,,,,,,,,,,0.0,1.0,1.2582,0.0,13.0,13.0,13.0,1.0,wetsuit_04s.jpg,0.0,Purple.png,3.0,12,,,,,,,,,,,,,,,,,,,,,,,,,,,,,,,,,,,
,,,,,,,,,,,,,,,,,,,,,,,,,,,,,,,,,,,,1.0,1.0,0.7137,0.0,14.0,14.0,14.0,1.0,wetsuit_04s.jpg,1.0,Red.png,3.0,12,,,,,,,,,,,,,,,,,,,,,,,,,,,,,,,,,,,
,,,,,,,,,,,,,,,,,,,,,,,,,,,,,,,,,,,,0.0,1.0,0.9577,0.0,15.0,15.0,15.0,1.0,water_fountain_01b.jpg,0.0,Orange.png,3.0,12,,,,,,,,,,,,,,,,,,,,,,,,,,,,,,,,,,,
,,,,,,,,,,,,,,,,,,,,,,,,,,,,,,,,,,,,0.0,1.0,0.5903,0.0,16.0,16.0,16.0,1.0,waffle_iron_11s.jpg,0.0,Yellow.png,3.0,12,,,,,,,,,,,,,,,,,,,,,,,,,,,,,,,,,,,
,,,,,,,,,,,,,,,,,,,,,,,,,,,,,,,,,,,,0.0,1.0,0.7132,0.0,17.0,17.0,17.0,1.0,wing_08s.jpg,0.0,Green.png,3.0,12,,,,,,,,,,,,,,,,,,,,,,,,,,,,,,,,,,,
,,,,,,,,,,,,,,,,,,,,,,,,,,,,,,,,,,,,0.0,1.0,0.5659,0.0,18.0,18.0,18.0,1.0,shield_02s.jpg,0.0,Blue.png,4.0,12,,,,,,,,,,,,,,,,,,,,,,,,,,,,,,,,,,,
,,,,,,,,,,,,,,,,,,,,,,,,,,,,,,,,,,,,0.0,1.0,0.7586,0.0,19.0,19.0,19.0,1.0,shovel_09s.jpg,0.0,Purple.png,4.0,12,,,,,,,,,,,,,,,,,,,,,,,,,,,,,,,,,,,
,,,,,,,,,,,,,,,,,,,,,,,,,,,,,,,,,,,,0.0,1.0,0.8913,0.0,20.0,20.0,20.0,1.0,watch_09s.jpg,0.0,Red.png,4.0,12,,,,,,,,,,,,,,,,,,,,,,,,,,,,,,,,,,,
,,,,,,,,,,,,,,,,,,,,,,,,,,,,,,,,,,,,1.0,1.0,0.6243,0.0,21.0,21.0,21.0,1.0,shovel_09s.jpg,1.0,Orange.png,4.0,12,,,,,,,,,,,,,,,,,,,,,,,,,,,,,,,,,,,
,,,,,,,,,,,,,,,,,,,,,,,,,,,,,,,,,,,,0.0,1.0,1.5477,0.0,22.0,22.0,22.0,1.0,shovel_09s.jpg,0.0,Yellow.png,4.0,12,,,,,,,,,,,,,,,,,,,,,,,,,,,,,,,,,,,
,,,,,,,,,,,,,,,,,,,,,,,,,,,,,,,,,,,,0.0,1.0,0.7438,0.0,23.0,23.0,23.0,1.0,watering_can_14s.jpg,0.0,Green.png,4.0,12,,,,,,,,,,,,,,,,,,,,,,,,,,,,,,,,,,,
,,,,,,,,,,,,,,,,,,,,,,,,,,,,,,,,,,,,0.0,1.0,0.6635,0.0,24.0,24.0,24.0,1.0,wasp_13n.jpg,0.0,Blue.png,5.0,12,,,,,,,,,,,,,,,,,,,,,,,,,,,,,,,,,,,
,,,,,,,,,,,,,,,,,,,,,,,,,,,,,,,,,,,,0.0,1.0,0.7275,0.0,25.0,25.0,25.0,1.0,shoelace_13s.jpg,0.0,Purple.png,5.0,12,,,,,,,,,,,,,,,,,,,,,,,,,,,,,,,,,,,
,,,,,,,,,,,,,,,,,,,,,,,,,,,,,,,,,,,,0.0,1.0,0.796,0.0,26.0,26.0,26.0,1.0,scarf_16s.jpg,0.0,Red.png,5.0,12,,,,,,,,,,,,,,,,,,,,,,,,,,,,,,,,,,,
,,,,,,,,,,,,,,,,,,,,,,,,,,,,,,,,,,,,0.0,1.0,0.9568,0.0,27.0,27.0,27.0,1.0,screwdriver_07s.jpg,0.0,Orange.png,5.0,12,,,,,,,,,,,,,,,,,,,,,,,,,,,,,,,,,,,
,,,,,,,,,,,,,,,,,,,,,,,,,,,,,,,,,,,,0.0,1.0,0.63,0.0,28.0,28.0,28.0,1.0,drink_05s.jpg,0.0,Yellow.png,5.0,12,,,,,,,,,,,,,,,,,,,,,,,,,,,,,,,,,,,
,,,,,,,,,,,,,,,,,,,,,,,,,,,,,,,,,,,,1.0,1.0,1.6796,0.0,29.0,29.0,29.0,1.0,screwdriver_07s.jpg,1.0,Green.png,5.0,12,,,,,,,,,,,,,,,,,,,,,,,,,,,,,,,,,,,
,,,,,,,,,,,,,,,,,,,,,,,,,,,,,,,,,,,,0.0,1.0,0.6786,0.0,30.0,30.0,30.0,1.0,seaweed_07s.jpg,0.0,Blue.png,6.0,12,,,,,,,,,,,,,,,,,,,,,,,,,,,,,,,,,,,
,,,,,,,,,,,,,,,,,,,,,,,,,,,,,,,,,,,,0.0,1.0,0.5974,0.0,31.0,31.0,31.0,1.0,saxophone_04s.jpg,0.0,Purple.png,6.0,12,,,,,,,,,,,,,,,,,,,,,,,,,,,,,,,,,,,
,,,,,,,,,,,,,,,,,,,,,,,,,,,,,,,,,,,,0.0,1.0,1.3263,0.0,32.0,32.0,32.0,1.0,saxophone_04s.jpg,0.0,Red.png,6.0,12,,,,,,,,,,,,,,,,,,,,,,,,,,,,,,,,,,,
,,,,,,,,,,,,,,,,,,,,,,,,,,,,,,,,,,,,0.0,1.0,0.6336,0.0,33.0,33.0,33.0,1.0,scorpion_01b.jpg,0.0,Orange.png,6.0,12,,,,,,,,,,,,,,,,,,,,,,,,,,,,,,,,,,,
,,,,,,,,,,,,,,,,,,,,,,,,,,,,,,,,,,,,1.0,1.0,1.0407,0.0,34.0,34.0,34.0,1.0,saxophone_04s.jpg,1.0,Yellow.png,6.0,12,,,,,,,,,,,,,,,,,,,,,,,,,,,,,,,,,,,
,,,,,,,,,,,,,,,,,,,,,,,,,,,,,,,,,,,,0.0,1.0,1.779,0.0,35.0,35.0,35.0,1.0,saxophone_04s.jpg,0.0,Green.png,6.0,12,,,,,,,,,,,,,,,,,,,,,,,,,,,,,,,,,,,
,,,,,,,,,,,,,,,,,,,,,,,,,,,,,,,,,,,,,,,,,,,,,1.0,,,12,1.0,1.0,2.1479,0.0,0.0,0.0,0.0,1.0,water_fountain_01b.jpg,shield_02s.jpg,,,,,,,,,,,,,,,,,,,,,,,,,
,,,,,,,,,,,,,,,,,,,,,,,,,,,,,,,,,,,,,,,,,,,,,0.0,,,12,0.0,1.0,1.2018,0.0,1.0,1.0,1.0,1.0,watch_09s.jpg,wing_08s.jpg,,,,,,,,,,,,,,,,,,,,,,,,,
,,,,,,,,,,,,,,,,,,,,,,,,,,,,,,,,,,,,,,,,,,,,,1.0,,,12,1.0,1.0,1.1278,0.0,2.0,2.0,2.0,1.0,watering_can_14s.jpg,scarf_16s.jpg,,,,,,,,,,,,,,,,,,,,,,,,,
,,,,,,,,,,,,,,,,,,,,,,,,,,,,,,,,,,,,,,,,,,,,,1.0,,,12,0.0,0.0,1.4915,0.0,3.0,3.0,3.0,1.0,whipped_cream_02s.jpg,sequin_02s.jpg,,,,,,,,,,,,,,,,,,,,,,,,,
,,,,,,,,,,,,,,,,,,,,,,,,,,,,,,,,,,,,,,,,,,,,,0.0,,,12,1.0,0.0,1.456,0.0,4.0,4.0,4.0,1.0,drink_05s.jpg,shoelace_13s.jpg,,,,,,,,,,,,,,,,,,,,,,,,,
,,,,,,,,,,,,,,,,,,,,,,,,,,,,,,,,,,,,,,,,,,,,,1.0,,,12,0.0,0.0,1.4655,0.0,5.0,5.0,5.0,1.0,seaweed_07s.jpg,scorpion_01b.jpg,,,,,,,,,,,,,,,,,,,,,,,,,
,,,,,,,,,,,,,,,,,,,,,,,,,,,,,,,,,,,,,,,,,,,,mirror_12s.jpg,0.0,Blue.png,1.0,12,,,,,,,,,,,space,1.6347,0.0,1.0,1.2049,0.0,0.0,0.0,0.0,1.0,,,,,,,,,,,,,,,
,,,,,,,,,,,,,,,,,,,,,,,,,,,,,,,,,,,,,,,,,,,,polaroid_05s.jpg,0.0,Purple.png,1.0,12,,,,,,,,,,,,,0.0,1.0,0.9756,0.0,1.0,1.0,1.0,1.0,,,,,,,,,,,,,,,
,,,,,,,,,,,,,,,,,,,,,,,,,,,,,,,,,,,,,,,,,,,,polaroid_05s.jpg,0.0,Red.png,1.0,12,,,,,,,,,,,,,0.0,1.0,1.0511,0.0,2.0,2.0,2.0,1.0,,,,,,,,,,,,,,,
,,,,,,,,,,,,,,,,,,,,,,,,,,,,,,,,,,,,,,,,,,,,slingshot_07s.jpg,0.0,Orange.png,1.0,12,,,,,,,,,,,,,0.0,1.0,0.6951,0.0,3.0,3.0,3.0,1.0,,,,,,,,,,,,,,,
,,,,,,,,,,,,,,,,,,,,,,,,,,,,,,,,,,,,,,,,,,,,polaroid_05s.jpg,1.0,Yellow.png,1.0,12,,,,,,,,,,,,,1.0,1.0,0.7185,0.0,4.0,4.0,4.0,1.0,,,,,,,,,,,,,,,
,,,,,,,,,,,,,,,,,,,,,,,,,,,,,,,,,,,,,,,,,,,,kettle_08s.jpg,0.0,Green.png,1.0,12,,,,,,,,,,,,,0.0,1.0,0.7561,0.0,5.0,5.0,5.0,1.0,,,,,,,,,,,,,,,
,,,,,,,,,,,,,,,,,,,,,,,,,,,,,,,,,,,,,,,,,,,,crystal_ball_12s.jpg,0.0,Blue.png,2.0,12,,,,,,,,,,,,,0.0,1.0,0.5645,0.0,6.0,6.0,6.0,1.0,,,,,,,,,,,,,,,
,,,,,,,,,,,,,,,,,,,,,,,,,,,,,,,,,,,,,,,,,,,,iron_13s.jpg,0.0,Purple.png,2.0,12,,,,,,,,,,,,,0.0,1.0,0.5585,0.0,7.0,7.0,7.0,1.0,,,,,,,,,,,,,,,
,,,,,,,,,,,,,,,,,,,,,,,,,,,,,,,,,,,,,,,,,,,,saddle_06s.jpg,0.0,Red.png,2.0,12,,,,,,,,,,,,,0.0,1.0,0.9524,0.0,8.0,8.0,8.0,1.0,,,,,,,,,,,,,,,
,,,,,,,,,,,,,,,,,,,,,,,,,,,,,,,,,,,,,,,,,,,,mango_09s.jpg,0.0,Orange.png,2.0,12,,,,,,,,,,,,,0.0,1.0,0.5286,0.0,9.0,9.0,9.0,1.0,,,,,,,,,,,,,,,
,,,,,,,,,,,,,,,,,,,,,,,,,,,,,,,,,,,,,,,,,,,,ostrich_06s.jpg,0.0,Yellow.png,2.0,12,,,,,,,,,,,,,0.0,1.0,0.6437,0.0,10.0,10.0,10.0,1.0,,,,,,,,,,,,,,,
,,,,,,,,,,,,,,,,,,,,,,,,,,,,,,,,,,,,,,,,,,,,iron_13s.jpg,0.0,Green.png,2.0,12,,,,,,,,,,,,,,0.0,,0.0,11.0,11.0,11.0,1.0,,,,,,,,,,,,,,,
,,,,,,,,,,,,,,,,,,,,,,,,,,,,,,,,,,,,,,,,,,,,stethoscope_01b.jpg,0.0,Blue.png,3.0,12,,,,,,,,,,,,,0.0,1.0,0.6391,0.0,12.0,12.0,12.0,1.0,,,,,,,,,,,,,,,
,,,,,,,,,,,,,,,,,,,,,,,,,,,,,,,,,,,,,,,,,,,,ruby_15s.jpg,0.0,Purple.png,3.0,12,,,,,,,,,,,,,0.0,1.0,0.6401,0.0,13.0,13.0,13.0,1.0,,,,,,,,,,,,,,,
,,,,,,,,,,,,,,,,,,,,,,,,,,,,,,,,,,,,,,,,,,,,mango_09s.jpg,0.0,Red.png,3.0,12,,,,,,,,,,,,,0.0,1.0,1.1448,0.0,14.0,14.0,14.0,1.0,,,,,,,,,,,,,,,
,,,,,,,,,,,,,,,,,,,,,,,,,,,,,,,,,,,,,,,,,,,,target_11s.jpg,0.0,Orange.png,3.0,12,,,,,,,,,,,,,0.0,1.0,0.9982,0.0,15.0,15.0,15.0,1.0,,,,,,,,,,,,,,,
,,,,,,,,,,,,,,,,,,,,,,,,,,,,,,,,,,,,,,,,,,,,mango_09s.jpg,1.0,Yellow.png,3.0,12,,,,,,,,,,,,,1.0,1.0,1.0763,0.0,16.0,16.0,16.0,1.0,,,,,,,,,,,,,,,
,,,,,,,,,,,,,,,,,,,,,,,,,,,,,,,,,,,,,,,,,,,,compass_10n.jpg,0.0,Green.png,3.0,12,,,,,,,,,,,,,0.0,1.0,0.6269,0.0,17.0,17.0,17.0,1.0,,,,,,,,,,,,,,,
,,,,,,,,,,,,,,,,,,,,,,,,,,,,,,,,,,,,,,,,,,,,meatball_13s.jpg,0.0,Blue.png,4.0,12,,,,,,,,,,,,,0.0,1.0,0.5428,0.0,18.0,18.0,18.0,1.0,,,,,,,,,,,,,,,
,,,,,,,,,,,,,,,,,,,,,,,,,,,,,,,,,,,,,,,,,,,,stapler_01b.jpg,0.0,Purple.png,4.0,12,,,,,,,,,,,,,0.0,1.0,0.5634,0.0,19.0,19.0,19.0,1.0,,,,,,,,,,,,,,,
,,,,,,,,,,,,,,,,,,,,,,,,,,,,,,,,,,,,,,,,,,,,meatball_13s.jpg,1.0,Red.png,4.0,12,,,,,,,,,,,,,1.0,1.0,1.0391,0.0,20.0,20.0,20.0,1.0,,,,,,,,,,,,,,,
,,,,,,,,,,,,,,,,,,,,,,,,,,,,,,,,,,,,,,,,,,,,pump_11s.jpg,0.0,Orange.png,4.0,12,,,,,,,,,,,,,0.0,1.0,1.0967,0.0,21.0,21.0,21.0,1.0,,,,,,,,,,,,,,,
,,,,,,,,,,,,,,,,,,,,,,,,,,,,,,,,,,,,,,,,,,,,coral_08s.jpg,0.0,Yellow.png,4.0,12,,,,,,,,,,,,,0.0,1.0,0.6808,0.0,22.0,22.0,22.0,1.0,,,,,,,,,,,,,,,
,,,,,,,,,,,,,,,,,,,,,,,,,,,,,,,,,,,,,,,,,,,,meatball_13s.jpg,0.0,Green.png,4.0,12,,,,,,,,,,,,,0.0,1.0,1.2485,0.0,23.0,23.0,23.0,1.0,,,,,,,,,,,,,,,
,,,,,,,,,,,,,,,,,,,,,,,,,,,,,,,,,,,,,,,,,,,,peach_04s.jpg,0.0,Blue.png,5.0,12,,,,,,,,,,,,,0.0,1.0,0.9162,0.0,24.0,24.0,24.0,1.0,,,,,,,,,,,,,,,
,,,,,,,,,,,,,,,,,,,,,,,,,,,,,,,,,,,,,,,,,,,,meatball_13s.jpg,1.0,Purple.png,5.0,12,,,,,,,,,,,,,1.0,1.0,1.0932,0.0,25.0,25.0,25.0,1.0,,,,,,,,,,,,,,,
,,,,,,,,,,,,,,,,,,,,,,,,,,,,,,,,,,,,,,,,,,,,pie_08s.jpg,0.0,Red.png,5.0,12,,,,,,,,,,,,,0.0,1.0,0.7734,0.0,26.0,26.0,26.0,1.0,,,,,,,,,,,,,,,
,,,,,,,,,,,,,,,,,,,,,,,,,,,,,,,,,,,,,,,,,,,,rollerskate_03s.jpg,0.0,Orange.png,5.0,12,,,,,,,,,,,,,0.0,1.0,0.7392,0.0,27.0,27.0,27.0,1.0,,,,,,,,,,,,,,,
,,,,,,,,,,,,,,,,,,,,,,,,,,,,,,,,,,,,,,,,,,,,trampoline_13s.jpg,0.0,Yellow.png,5.0,12,,,,,,,,,,,,,0.0,1.0,1.6076,0.0,28.0,28.0,28.0,1.0,,,,,,,,,,,,,,,
,,,,,,,,,,,,,,,,,,,,,,,,,,,,,,,,,,,,,,,,,,,,undershirt_02s.jpg,0.0,Green.png,5.0,12,,,,,,,,,,,,,0.0,1.0,0.6447,0.0,29.0,29.0,29.0,1.0,,,,,,,,,,,,,,,
,,,,,,,,,,,,,,,,,,,,,,,,,,,,,,,,,,,,,,,,,,,,thread_08s.jpg,0.0,Blue.png,6.0,12,,,,,,,,,,,,,0.0,1.0,0.7389,0.0,30.0,30.0,30.0,1.0,,,,,,,,,,,,,,,
,,,,,,,,,,,,,,,,,,,,,,,,,,,,,,,,,,,,,,,,,,,,megaphone_03s.jpg,0.0,Purple.png,6.0,12,,,,,,,,,,,,,0.0,1.0,0.5034,0.0,31.0,31.0,31.0,1.0,,,,,,,,,,,,,,,
,,,,,,,,,,,,,,,,,,,,,,,,,,,,,,,,,,,,,,,,,,,,plaster_cast_13s.jpg,0.0,Red.png,6.0,12,,,,,,,,,,,,,0.0,1.0,0.6037,0.0,32.0,32.0,32.0,1.0,,,,,,,,,,,,,,,
,,,,,,,,,,,,,,,,,,,,,,,,,,,,,,,,,,,,,,,,,,,,diving_board_07s.jpg,0.0,Orange.png,6.0,12,,,,,,,,,,,,,0.0,1.0,0.544,0.0,33.0,33.0,33.0,1.0,,,,,,,,,,,,,,,
,,,,,,,,,,,,,,,,,,,,,,,,,,,,,,,,,,,,,,,,,,,,kayak_08s.jpg,0.0,Yellow.png,6.0,12,,,,,,,,,,,,,0.0,1.0,0.6297,0.0,34.0,34.0,34.0,1.0,,,,,,,,,,,,,,,
,,,,,,,,,,,,,,,,,,,,,,,,,,,,,,,,,,,,,,,,,,,,diving_board_07s.jpg,1.0,Green.png,6.0,12,,,,,,,,,,,,,1.0,1.0,1.077,0.0,35.0,35.0,35.0,1.0,,,,,,,,,,,,,,,
,,,,,,,,,,,,,,,,,,,,,,,,,,,,,,,,,,,,,,,,,,,,,1.0,,,12,,,,,,,,,stapler_01b.jpg,coral_08s.jpg,,,,,,,,,,,1.0,1.0,2.2399,0.0,0.0,0.0,0.0,1.0,,,,,,,
,,,,,,,,,,,,,,,,,,,,,,,,,,,,,,,,,,,,,,,,,,,,,1.0,,,12,,,,,,,,,slingshot_07s.jpg,crystal_ball_12s.jpg,,,,,,,,,,,0.0,0.0,1.4396,0.0,1.0,1.0,1.0,1.0,,,,,,,
,,,,,,,,,,,,,,,,,,,,,,,,,,,,,,,,,,,,,,,,,,,,,0.0,,,12,,,,,,,,,saddle_06s.jpg,kettle_08s.jpg,,,,,,,,,,,1.0,0.0,1.3465,0.0,2.0,2.0,2.0,1.0,,,,,,,
,,,,,,,,,,,,,,,,,,,,,,,,,,,,,,,,,,,,,,,,,,,,,1.0,,,12,,,,,,,,,pie_08s.jpg,undershirt_02s.jpg,,,,,,,,,,,1.0,1.0,1.4711,0.0,3.0,3.0,3.0,1.0,,,,,,,
,,,,,,,,,,,,,,,,,,,,,,,,,,,,,,,,,,,,,,,,,,,,,1.0,,,12,,,,,,,,,stethoscope_01b.jpg,target_11s.jpg,,,,,,,,,,,0.0,0.0,1.2173,0.0,4.0,4.0,4.0,1.0,,,,,,,
,,,,,,,,,,,,,,,,,,,,,,,,,,,,,,,,,,,,,,,,,,,,,1.0,,,12,,,,,,,,,ostrich_06s.jpg,ruby_15s.jpg,,,,,,,,,,,0.0,0.0,1.5438,0.0,5.0,5.0,5.0,1.0,,,,,,,
,,,,,,,,,,,,,,,,,,,,,,,,,,,,,,,,,,,,,,,,,,,,,,,,12,,,,,,,,,,,,,,,,,,,,,,,,,,,,,0.0,0.0,0.0,0.0,1.0,new2backpresent_1_4.xlsx,new2back_compare_task_1_4.xlsx
,,,,,,,,,,,,,,,,,,,,,,,,,,,,,,,,,,,,,,,,,,,,jetski_10s.jpg,0.0,Blue.png,1.0,12,,,,,,,,,,,,,0.0,1.0,1.6076,0.0,0.0,0.0,0.0,1.0,,,,,,,,,,,,,,,
,,,,,,,,,,,,,,,,,,,,,,,,,,,,,,,,,,,,,,,,,,,,tripod_01b.jpg,0.0,Purple.png,1.0,12,,,,,,,,,,,,,0.0,1.0,0.6334,0.0,1.0,1.0,1.0,1.0,,,,,,,,,,,,,,,
,,,,,,,,,,,,,,,,,,,,,,,,,,,,,,,,,,,,,,,,,,,,lab_coat_11s.jpg,0.0,Red.png,1.0,12,,,,,,,,,,,,,0.0,1.0,0.5689,0.0,2.0,2.0,2.0,1.0,,,,,,,,,,,,,,,
,,,,,,,,,,,,,,,,,,,,,,,,,,,,,,,,,,,,,,,,,,,,foam_03s.jpg,0.0,Orange.png,1.0,12,,,,,,,,,,,,,0.0,1.0,0.5138,0.0,3.0,3.0,3.0,1.0,,,,,,,,,,,,,,,
,,,,,,,,,,,,,,,,,,,,,,,,,,,,,,,,,,,,,,,,,,,,crate_05s.jpg,0.0,Yellow.png,1.0,12,,,,,,,,,,,,,0.0,1.0,0.8206,0.0,4.0,4.0,4.0,1.0,,,,,,,,,,,,,,,
,,,,,,,,,,,,,,,,,,,,,,,,,,,,,,,,,,,,,,,,,,,,margarita_03s.jpg,0.0,Green.png,1.0,12,,,,,,,,,,,,,0.0,1.0,0.5586,0.0,5.0,5.0,5.0,1.0,,,,,,,,,,,,,,,
,,,,,,,,,,,,,,,,,,,,,,,,,,,,,,,,,,,,,,,,,,,,joystick_01b.jpg,0.0,Blue.png,2.0,12,,,,,,,,,,,,,0.0,1.0,0.7031,0.0,6.0,6.0,6.0,1.0,,,,,,,,,,,,,,,
,,,,,,,,,,,,,,,,,,,,,,,,,,,,,,,,,,,,,,,,,,,,giraffe_11s.jpg,0.0,Purple.png,2.0,12,,,,,,,,,,,,,0.0,1.0,0.6766,0.0,7.0,7.0,7.0,1.0,,,,,,,,,,,,,,,
,,,,,,,,,,,,,,,,,,,,,,,,,,,,,,,,,,,,,,,,,,,,quilt_03s.jpg,0.0,Red.png,2.0,12,,,,,,,,,,,,,0.0,1.0,0.6724,0.0,8.0,8.0,8.0,1.0,,,,,,,,,,,,,,,
,,,,,,,,,,,,,,,,,,,,,,,,,,,,,,,,,,,,,,,,,,,,giraffe_11s.jpg,1.0,Orange.png,2.0,12,,,,,,,,,,,,,1.0,1.0,0.5018,0.0,9.0,9.0,9.0,1.0,,,,,,,,,,,,,,,
,,,,,,,,,,,,,,,,,,,,,,,,,,,,,,,,,,,,,,,,,,,,pincushion_10s.jpg,0.0,Yellow.png,2.0,12,,,,,,,,,,,,,0.0,1.0,0.5588,0.0,10.0,10.0,10.0,1.0,,,,,,,,,,,,,,,
,,,,,,,,,,,,,,,,,,,,,,,,,,,,,,,,,,,,,,,,,,,,giraffe_11s.jpg,1.0,Green.png,2.0,12,,,,,,,,,,,,,0.0,0.0,1.8017,0.0,11.0,11.0,11.0,1.0,,,,,,,,,,,,,,,
,,,,,,,,,,,,,,,,,,,,,,,,,,,,,,,,,,,,,,,,,,,,pincushion_10s.jpg,1.0,Blue.png,3.0,12,,,,,,,,,,,,,1.0,1.0,1.3006,0.0,12.0,12.0,12.0,1.0,,,,,,,,,,,,,,,
,,,,,,,,,,,,,,,,,,,,,,,,,,,,,,,,,,,,,,,,,,,,giraffe_11s.jpg,1.0,Purple.png,3.0,12,,,,,,,,,,,,,1.0,1.0,1.6953,0.0,13.0,13.0,13.0,1.0,,,,,,,,,,,,,,,
,,,,,,,,,,,,,,,,,,,,,,,,,,,,,,,,,,,,,,,,,,,,rolling_pin_02s.jpg,0.0,Red.png,3.0,12,,,,,,,,,,,,,0.0,1.0,0.5866,0.0,14.0,14.0,14.0,1.0,,,,,,,,,,,,,,,
,,,,,,,,,,,,,,,,,,,,,,,,,,,,,,,,,,,,,,,,,,,,ticktacktoe_08s.jpg,0.0,Orange.png,3.0,12,,,,,,,,,,,,,0.0,1.0,0.5423,0.0,15.0,15.0,15.0,1.0,,,,,,,,,,,,,,,
,,,,,,,,,,,,,,,,,,,,,,,,,,,,,,,,,,,,,,,,,,,,giraffe_11s.jpg,0.0,Yellow.png,3.0,12,,,,,,,,,,,,,0.0,1.0,1.5287,0.0,16.0,16.0,16.0,1.0,,,,,,,,,,,,,,,
,,,,,,,,,,,,,,,,,,,,,,,,,,,,,,,,,,,,,,,,,,,,ticktacktoe_08s.jpg,1.0,Green.png,3.0,12,,,,,,,,,,,,,1.0,1.0,1.1729,0.0,17.0,17.0,17.0,1.0,,,,,,,,,,,,,,,
,,,,,,,,,,,,,,,,,,,,,,,,,,,,,,,,,,,,,,,,,,,,typewriter_11s.jpg,0.0,Blue.png,4.0,12,,,,,,,,,,,,,0.0,1.0,0.7956,0.0,18.0,18.0,18.0,1.0,,,,,,,,,,,,,,,
,,,,,,,,,,,,,,,,,,,,,,,,,,,,,,,,,,,,,,,,,,,,toothpaste_12s.jpg,0.0,Purple.png,4.0,12,,,,,,,,,,,,,0.0,1.0,0.592,0.0,19.0,19.0,19.0,1.0,,,,,,,,,,,,,,,
,,,,,,,,,,,,,,,,,,,,,,,,,,,,,,,,,,,,,,,,,,,,hummingbird_05s.jpg,0.0,Red.png,4.0,12,,,,,,,,,,,,,0.0,1.0,0.6432,0.0,20.0,20.0,20.0,1.0,,,,,,,,,,,,,,,
,,,,,,,,,,,,,,,,,,,,,,,,,,,,,,,,,,,,,,,,,,,,toothpaste_12s.jpg,1.0,Orange.png,4.0,12,,,,,,,,,,,,,1.0,1.0,0.9769,0.0,21.0,21.0,21.0,1.0,,,,,,,,,,,,,,,
,,,,,,,,,,,,,,,,,,,,,,,,,,,,,,,,,,,,,,,,,,,,toothpaste_12s.jpg,0.0,Yellow.png,4.0,12,,,,,,,,,,,,,,0.0,,0.0,22.0,22.0,22.0,1.0,,,,,,,,,,,,,,,
,,,,,,,,,,,,,,,,,,,,,,,,,,,,,,,,,,,,,,,,,,,,treadmill_06s.jpg,0.0,Green.png,4.0,12,,,,,,,,,,,,,0.0,1.0,0.993,0.0,23.0,23.0,23.0,1.0,,,,,,,,,,,,,,,
,,,,,,,,,,,,,,,,,,,,,,,,,,,,,,,,,,,,,,,,,,,,typewriter_11s.jpg,0.0,Blue.png,5.0,12,,,,,,,,,,,,,0.0,1.0,0.907,0.0,24.0,24.0,24.0,1.0,,,,,,,,,,,,,,,
,,,,,,,,,,,,,,,,,,,,,,,,,,,,,,,,,,,,,,,,,,,,penguin_16s.jpg,0.0,Purple.png,5.0,12,,,,,,,,,,,,,0.0,1.0,0.6454,0.0,25.0,25.0,25.0,1.0,,,,,,,,,,,,,,,
,,,,,,,,,,,,,,,,,,,,,,,,,,,,,,,,,,,,,,,,,,,,olive_05s.jpg,0.0,Red.png,5.0,12,,,,,,,,,,,,,0.0,1.0,0.9293,0.0,26.0,26.0,26.0,1.0,,,,,,,,,,,,,,,
,,,,,,,,,,,,,,,,,,,,,,,,,,,,,,,,,,,,,,,,,,,,penguin_16s.jpg,1.0,Orange.png,5.0,12,,,,,,,,,,,,,1.0,1.0,1.0658,0.0,27.0,27.0,27.0,1.0,,,,,,,,,,,,,,,
,,,,,,,,,,,,,,,,,,,,,,,,,,,,,,,,,,,,,,,,,,,,penguin_16s.jpg,0.0,Yellow.png,5.0,12,,,,,,,,,,,,,0.0,1.0,1.7521,0.0,28.0,28.0,28.0,1.0,,,,,,,,,,,,,,,
,,,,,,,,,,,,,,,,,,,,,,,,,,,,,,,,,,,,,,,,,,,,tab_09s.jpg,0.0,Green.png,5.0,12,,,,,,,,,,,,,0.0,1.0,0.7952,0.0,29.0,29.0,29.0,1.0,,,,,,,,,,,,,,,
,,,,,,,,,,,,,,,,,,,,,,,,,,,,,,,,,,,,,,,,,,,,frame_06s.jpg,0.0,Blue.png,6.0,12,,,,,,,,,,,,,0.0,1.0,0.593,0.0,30.0,30.0,30.0,1.0,,,,,,,,,,,,,,,
,,,,,,,,,,,,,,,,,,,,,,,,,,,,,,,,,,,,,,,,,,,,mop_08s.jpg,0.0,Purple.png,6.0,12,,,,,,,,,,,,,0.0,1.0,0.7547,0.0,31.0,31.0,31.0,1.0,,,,,,,,,,,,,,,
,,,,,,,,,,,,,,,,,,,,,,,,,,,,,,,,,,,,,,,,,,,,memory_stick_11s.jpg,0.0,Red.png,6.0,12,,,,,,,,,,,,,0.0,1.0,0.7451,0.0,32.0,32.0,32.0,1.0,,,,,,,,,,,,,,,
,,,,,,,,,,,,,,,,,,,,,,,,,,,,,,,,,,,,,,,,,,,,olive_05s.jpg,0.0,Orange.png,6.0,12,,,,,,,,,,,,,0.0,1.0,0.4431,0.0,33.0,33.0,33.0,1.0,,,,,,,,,,,,,,,
,,,,,,,,,,,,,,,,,,,,,,,,,,,,,,,,,,,,,,,,,,,,ravioli_08s.jpg,0.0,Yellow.png,6.0,12,,,,,,,,,,,,,0.0,1.0,0.6314,0.0,34.0,34.0,34.0,1.0,,,,,,,,,,,,,,,
,,,,,,,,,,,,,,,,,,,,,,,,,,,,,,,,,,,,,,,,,,,,mousetrap_15n.jpg,0.0,Green.png,6.0,12,,,,,,,,,,,,,0.0,1.0,1.9933,0.0,35.0,35.0,35.0,1.0,,,,,,,,,,,,,,,
,,,,,,,,,,,,,,,,,,,,,,,,,,,,,,,,,,,,,,,,,,,,,1.0,,,12,,,,,,,,,hummingbird_05s.jpg,treadmill_06s.jpg,,,,,,,,,,,1.0,1.0,1.8263,0.0,0.0,0.0,0.0,1.0,,,,,,,
,,,,,,,,,,,,,,,,,,,,,,,,,,,,,,,,,,,,,,,,,,,,,1.0,,,12,,,,,,,,,margarita_03s.jpg,quilt_03s.jpg,,,,,,,,,,,0.0,0.0,2.1381,0.0,1.0,1.0,1.0,1.0,,,,,,,
,,,,,,,,,,,,,,,,,,,,,,,,,,,,,,,,,,,,,,,,,,,,,0.0,,,12,,,,,,,,,joystick_01b.jpg,foam_03s.jpg,,,,,,,,,,,0.0,1.0,1.2624,0.0,2.0,2.0,2.0,1.0,,,,,,,
,,,,,,,,,,,,,,,,,,,,,,,,,,,,,,,,,,,,,,,,,,,,,0.0,,,12,,,,,,,,,ravioli_08s.jpg,mop_08s.jpg,,,,,,,,,,,1.0,0.0,1.4068,0.0,3.0,3.0,3.0,1.0,,,,,,,
,,,,,,,,,,,,,,,,,,,,,,,,,,,,,,,,,,,,,,,,,,,,,1.0,,,12,,,,,,,,,tab_09s.jpg,memory_stick_11s.jpg,,,,,,,,,,,1.0,1.0,1.5399,0.0,4.0,4.0,4.0,1.0,,,,,,,
,,,,,,,,,,,,,,,,,,,,,,,,,,,,,,,,,,,,,,,,,,,,,1.0,,,12,,,,,,,,,tripod_01b.jpg,crate_05s.jpg,,,,,,,,,,,1.0,1.0,0.8751,0.0,5.0,5.0,5.0,1.0,,,,,,,
,,,,,,,,,,,,,,,,,,,,,,,,,,,,,,,,,,,,,,,,,,,,,,,,12,,,,,,,,,,,,,,,,,,,,,,,,,,,,,0.0,1.0,1.0,1.0,1.0,new2backpresent_2_4.xlsx,new2back_compare_task_2_4.xlsx
,,,,,,,,,,,,,,,,,,,,,,,,,,,,,,,,,,,,,,,,,,,,safety_pin_02s.jpg,0.0,Blue.png,1.0,12,,,,,,,,,,,,,,0.0,,0.0,0.0,0.0,0.0,1.0,,,,,,,,,,,,,,,
,,,,,,,,,,,,,,,,,,,,,,,,,,,,,,,,,,,,,,,,,,,,safety_pin_02s.jpg,0.0,Purple.png,1.0,12,,,,,,,,,,,,,0.0,1.0,0.7102,0.0,1.0,1.0,1.0,1.0,,,,,,,,,,,,,,,
,,,,,,,,,,,,,,,,,,,,,,,,,,,,,,,,,,,,,,,,,,,,cardinal_07s.jpg,0.0,Red.png,1.0,12,,,,,,,,,,,,,0.0,1.0,0.7797,0.0,2.0,2.0,2.0,1.0,,,,,,,,,,,,,,,
,,,,,,,,,,,,,,,,,,,,,,,,,,,,,,,,,,,,,,,,,,,,safety_pin_02s.jpg,1.0,Orange.png,1.0,12,,,,,,,,,,,,,1.0,1.0,1.1646,0.0,3.0,3.0,3.0,1.0,,,,,,,,,,,,,,,
,,,,,,,,,,,,,,,,,,,,,,,,,,,,,,,,,,,,,,,,,,,,potholder_02s.jpg,0.0,Yellow.png,1.0,12,,,,,,,,,,,,,0.0,1.0,0.6132,0.0,4.0,4.0,4.0,1.0,,,,,,,,,,,,,,,
,,,,,,,,,,,,,,,,,,,,,,,,,,,,,,,,,,,,,,,,,,,,safety_pin_02s.jpg,1.0,Green.png,1.0,12,,,,,,,,,,,,,1.0,1.0,1.9594,0.0,5.0,5.0,5.0,1.0,,,,,,,,,,,,,,,
,,,,,,,,,,,,,,,,,,,,,,,,,,,,,,,,,,,,,,,,,,,,cardinal_07s.jpg,0.0,Blue.png,2.0,12,,,,,,,,,,,,,0.0,1.0,1.2755,0.0,6.0,6.0,6.0,1.0,,,,,,,,,,,,,,,
,,,,,,,,,,,,,,,,,,,,,,,,,,,,,,,,,,,,,,,,,,,,lion_18s.jpg,0.0,Purple.png,2.0,12,,,,,,,,,,,,,0.0,1.0,1.3421,0.0,7.0,7.0,7.0,1.0,,,,,,,,,,,,,,,
,,,,,,,,,,,,,,,,,,,,,,,,,,,,,,,,,,,,,,,,,,,,comic_book_02s.jpg,0.0,Red.png,2.0,12,,,,,,,,,,,,,0.0,1.0,0.9528,0.0,8.0,8.0,8.0,1.0,,,,,,,,,,,,,,,
,,,,,,,,,,,,,,,,,,,,,,,,,,,,,,,,,,,,,,,,,,,,lizard_10n.jpg,0.0,Orange.png,2.0,12,,,,,,,,,,,,,0.0,1.0,0.8555,0.0,9.0,9.0,9.0,1.0,,,,,,,,,,,,,,,
,,,,,,,,,,,,,,,,,,,,,,,,,,,,,,,,,,,,,,,,,,,,rice_12s.jpg,0.0,Yellow.png,2.0,12,,,,,,,,,,,,,0.0,1.0,0.5969,0.0,10.0,10.0,10.0,1.0,,,,,,,,,,,,,,,
,,,,,,,,,,,,,,,,,,,,,,,,,,,,,,,,,,,,,,,,,,,,bagel_15s.jpg,0.0,Green.png,2.0,12,,,,,,,,,,,,,0.0,1.0,0.6849,0.0,11.0,11.0,11.0,1.0,,,,,,,,,,,,,,,
,,,,,,,,,,,,,,,,,,,,,,,,,,,,,,,,,,,,,,,,,,,,recliner_02s.jpg,0.0,Blue.png,3.0,12,,,,,,,,,,,,,0.0,1.0,0.5356,0.0,12.0,12.0,12.0,1.0,,,,,,,,,,,,,,,
,,,,,,,,,,,,,,,,,,,,,,,,,,,,,,,,,,,,,,,,,,,,recliner_02s.jpg,0.0,Purple.png,3.0,12,,,,,,,,,,,,,0.0,1.0,1.4425,0.0,13.0,13.0,13.0,1.0,,,,,,,,,,,,,,,
,,,,,,,,,,,,,,,,,,,,,,,,,,,,,,,,,,,,,,,,,,,,luggage_08s.jpg,0.0,Red.png,3.0,12,,,,,,,,,,,,,0.0,1.0,0.7836,0.0,14.0,14.0,14.0,1.0,,,,,,,,,,,,,,,
,,,,,,,,,,,,,,,,,,,,,,,,,,,,,,,,,,,,,,,,,,,,recliner_02s.jpg,1.0,Orange.png,3.0,12,,,,,,,,,,,,,1.0,1.0,0.4608,0.0,15.0,15.0,15.0,1.0,,,,,,,,,,,,,,,
,,,,,,,,,,,,,,,,,,,,,,,,,,,,,,,,,,,,,,,,,,,,onion_10s.jpg,0.0,Yellow.png,3.0,12,,,,,,,,,,,,,0.0,1.0,0.7085,0.0,16.0,16.0,16.0,1.0,,,,,,,,,,,,,,,
,,,,,,,,,,,,,,,,,,,,,,,,,,,,,,,,,,,,,,,,,,,,rosary_03s.jpg,0.0,Green.png,3.0,12,,,,,,,,,,,,,0.0,1.0,0.7192,0.0,17.0,17.0,17.0,1.0,,,,,,,,,,,,,,,
,,,,,,,,,,,,,,,,,,,,,,,,,,,,,,,,,,,,,,,,,,,,smokingpipe.jpg,0.0,Blue.png,4.0,12,,,,,,,,,,,,,0.0,1.0,0.8604,0.0,18.0,18.0,18.0,1.0,,,,,,,,,,,,,,,
,,,,,,,,,,,,,,,,,,,,,,,,,,,,,,,,,,,,,,,,,,,,roulette_wheel_04s.jpg,0.0,Purple.png,4.0,12,,,,,,,,,,,,,0.0,1.0,0.6038,0.0,19.0,19.0,19.0,1.0,,,,,,,,,,,,,,,
,,,,,,,,,,,,,,,,,,,,,,,,,,,,,,,,,,,,,,,,,,,,smokingpipe.jpg,1.0,Red.png,4.0,12,,,,,,,,,,,,,1.0,1.0,1.6996,0.0,20.0,20.0,20.0,1.0,,,,,,,,,,,,,,,
,,,,,,,,,,,,,,,,,,,,,,,,,,,,,,,,,,,,,,,,,,,,orchid_01b.jpg,0.0,Orange.png,4.0,12,,,,,,,,,,,,,0.0,1.0,0.6674,0.0,21.0,21.0,21.0,1.0,,,,,,,,,,,,,,,
,,,,,,,,,,,,,,,,,,,,,,,,,,,,,,,,,,,,,,,,,,,,buoy_04s.jpg,0.0,Yellow.png,4.0,12,,,,,,,,,,,,,0.0,1.0,2.0778,0.0,22.0,22.0,22.0,1.0,,,,,,,,,,,,,,,
,,,,,,,,,,,,,,,,,,,,,,,,,,,,,,,,,,,,,,,,,,,,stopwatch_04s.jpg,0.0,Green.png,4.0,12,,,,,,,,,,,,,0.0,1.0,0.5341,0.0,23.0,23.0,23.0,1.0,,,,,,,,,,,,,,,
,,,,,,,,,,,,,,,,,,,,,,,,,,,,,,,,,,,,,,,,,,,,knitting_needle_04s.jpg,0.0,Blue.png,5.0,12,,,,,,,,,,,,,0.0,1.0,1.0332,0.0,24.0,24.0,24.0,1.0,,,,,,,,,,,,,,,
,,,,,,,,,,,,,,,,,,,,,,,,,,,,,,,,,,,,,,,,,,,,prism_10s.jpg,0.0,Purple.png,5.0,12,,,,,,,,,,,,,0.0,1.0,1.0016,0.0,25.0,25.0,25.0,1.0,,,,,,,,,,,,,,,
,,,,,,,,,,,,,,,,,,,,,,,,,,,,,,,,,,,,,,,,,,,,teapot_03s.jpg,0.0,Red.png,5.0,12,,,,,,,,,,,,,0.0,1.0,0.5048,0.0,26.0,26.0,26.0,1.0,,,,,,,,,,,,,,,
,,,,,,,,,,,,,,,,,,,,,,,,,,,,,,,,,,,,,,,,,,,,fire_pit_10s.jpg,0.0,Orange.png,5.0,12,,,,,,,,,,,,,0.0,1.0,0.6588,0.0,27.0,27.0,27.0,1.0,,,,,,,,,,,,,,,
,,,,,,,,,,,,,,,,,,,,,,,,,,,,,,,,,,,,,,,,,,,,fire_pit_10s.jpg,0.0,Yellow.png,5.0,12,,,,,,,,,,,,,1.0,0.0,0.8875,0.0,28.0,28.0,28.0,1.0,,,,,,,,,,,,,,,
,,,,,,,,,,,,,,,,,,,,,,,,,,,,,,,,,,,,,,,,,,,,fire_pit_10s.jpg,1.0,Green.png,5.0,12,,,,,,,,,,,,,0.0,0.0,1.7827,0.0,29.0,29.0,29.0,1.0,,,,,,,,,,,,,,,
,,,,,,,,,,,,,,,,,,,,,,,,,,,,,,,,,,,,,,,,,,,,ironing_board_07s.jpg,0.0,Blue.png,6.0,12,,,,,,,,,,,,,0.0,1.0,0.7933,0.0,30.0,30.0,30.0,1.0,,,,,,,,,,,,,,,
,,,,,,,,,,,,,,,,,,,,,,,,,,,,,,,,,,,,,,,,,,,,fire_pit_10s.jpg,1.0,Purple.png,6.0,12,,,,,,,,,,,,,1.0,1.0,1.0417,0.0,31.0,31.0,31.0,1.0,,,,,,,,,,,,,,,
,,,,,,,,,,,,,,,,,,,,,,,,,,,,,,,,,,,,,,,,,,,,mattress_01s.jpg,0.0,Red.png,6.0,12,,,,,,,,,,,,,0.0,1.0,0.8309,0.0,32.0,32.0,32.0,1.0,,,,,,,,,,,,,,,
,,,,,,,,,,,,,,,,,,,,,,,,,,,,,,,,,,,,,,,,,,,,fire_pit_10s.jpg,1.0,Orange.png,6.0,12,,,,,,,,,,,,,1.0,1.0,1.835,0.0,33.0,33.0,33.0,1.0,,,,,,,,,,,,,,,
,,,,,,,,,,,,,,,,,,,,,,,,,,,,,,,,,,,,,,,,,,,,mattress_01s.jpg,1.0,Yellow.png,6.0,12,,,,,,,,,,,,,1.0,1.0,1.667,0.0,34.0,34.0,34.0,1.0,,,,,,,,,,,,,,,
,,,,,,,,,,,,,,,,,,,,,,,,,,,,,,,,,,,,,,,,,,,,ice-cream_cone_06s.jpg,0.0,Green.png,6.0,12,,,,,,,,,,,,,0.0,1.0,0.613,0.0,35.0,35.0,35.0,1.0,,,,,,,,,,,,,,,
,,,,,,,,,,,,,,,,,,,,,,,,,,,,,,,,,,,,,,,,,,,,,1.0,,,12,,,,,,,,,roulette_wheel_04s.jpg,buoy_04s.jpg,,,,,,,,,,,1.0,1.0,1.1227,0.0,0.0,0.0,0.0,1.0,,,,,,,
,,,,,,,,,,,,,,,,,,,,,,,,,,,,,,,,,,,,,,,,,,,,,0.0,,,12,,,,,,,,,lion_18s.jpg,potholder_02s.jpg,,,,,,,,,,,1.0,0.0,0.8874,0.0,1.0,1.0,1.0,1.0,,,,,,,
,,,,,,,,,,,,,,,,,,,,,,,,,,,,,,,,,,,,,,,,,,,,,0.0,,,12,,,,,,,,,bagel_15s.jpg,comic_book_02s.jpg,,,,,,,,,,,0.0,1.0,0.9127,0.0,2.0,2.0,2.0,1.0,,,,,,,
,,,,,,,,,,,,,,,,,,,,,,,,,,,,,,,,,,,,,,,,,,,,,1.0,,,12,,,,,,,,,stopwatch_04s.jpg,teapot_03s.jpg,,,,,,,,,,,0.0,0.0,1.0023,0.0,3.0,3.0,3.0,1.0,,,,,,,
,,,,,,,,,,,,,,,,,,,,,,,,,,,,,,,,,,,,,,,,,,,,,1.0,,,12,,,,,,,,,luggage_08s.jpg,rosary_03s.jpg,,,,,,,,,,,1.0,1.0,0.9863,0.0,4.0,4.0,4.0,1.0,,,,,,,
,,,,,,,,,,,,,,,,,,,,,,,,,,,,,,,,,,,,,,,,,,,,,1.0,,,12,,,,,,,,,orchid_01b.jpg,knitting_needle_04s.jpg,,,,,,,,,,,0.0,0.0,0.7229,0.0,5.0,5.0,5.0,1.0,,,,,,,
,,,,,,,,,,,,,,,,,,,,,,,,,,,,,,,,,,,,,,,,,,,,,,,,12,,,,,,,,,,,,,,,,,,,,,,,,,,,,,0.0,2.0,2.0,2.0,1.0,new2backpresent_3_4.xlsx,new2back_compare_task_3_4.xlsx
,,,,,,,,,,,,,,,,,,,,,,,,,,,,,,,,,,,,,,,,,,,,smoothie_09s.jpg,0.0,Blue.png,1.0,12,,,,,,,,,,,,,0.0,1.0,1.0892,0.0,0.0,0.0,0.0,1.0,,,,,,,,,,,,,,,
,,,,,,,,,,,,,,,,,,,,,,,,,,,,,,,,,,,,,,,,,,,,raspberry_12s.jpg,0.0,Purple.png,1.0,12,,,,,,,,,,,,,0.0,1.0,0.644,0.0,1.0,1.0,1.0,1.0,,,,,,,,,,,,,,,
,,,,,,,,,,,,,,,,,,,,,,,,,,,,,,,,,,,,,,,,,,,,raspberry_12s.jpg,0.0,Red.png,1.0,12,,,,,,,,,,,,,0.0,1.0,0.8289,0.0,2.0,2.0,2.0,1.0,,,,,,,,,,,,,,,
,,,,,,,,,,,,,,,,,,,,,,,,,,,,,,,,,,,,,,,,,,,,lamb_chop_07s.jpg,0.0,Orange.png,1.0,12,,,,,,,,,,,,,0.0,1.0,0.5344,0.0,3.0,3.0,3.0,1.0,,,,,,,,,,,,,,,
,,,,,,,,,,,,,,,,,,,,,,,,,,,,,,,,,,,,,,,,,,,,smoothie_09s.jpg,0.0,Yellow.png,1.0,12,,,,,,,,,,,,,0.0,1.0,0.9343,0.0,4.0,4.0,4.0,1.0,,,,,,,,,,,,,,,
,,,,,,,,,,,,,,,,,,,,,,,,,,,,,,,,,,,,,,,,,,,,raspberry_12s.jpg,0.0,Green.png,1.0,12,,,,,,,,,,,,,0.0,1.0,0.8662,0.0,5.0,5.0,5.0,1.0,,,,,,,,,,,,,,,
,,,,,,,,,,,,,,,,,,,,,,,,,,,,,,,,,,,,,,,,,,,,lava_02s.jpg,0.0,Blue.png,2.0,12,,,,,,,,,,,,,0.0,1.0,0.4223,0.0,6.0,6.0,6.0,1.0,,,,,,,,,,,,,,,
,,,,,,,,,,,,,,,,,,,,,,,,,,,,,,,,,,,,,,,,,,,,trident_07s.jpg,0.0,Purple.png,2.0,12,,,,,,,,,,,,,0.0,1.0,0.5203,0.0,7.0,7.0,7.0,1.0,,,,,,,,,,,,,,,
,,,,,,,,,,,,,,,,,,,,,,,,,,,,,,,,,,,,,,,,,,,,trident_07s.jpg,0.0,Red.png,2.0,12,,,,,,,,,,,,,0.0,1.0,1.0525,0.0,8.0,8.0,8.0,1.0,,,,,,,,,,,,,,,
,,,,,,,,,,,,,,,,,,,,,,,,,,,,,,,,,,,,,,,,,,,,trident_07s.jpg,1.0,Orange.png,2.0,12,,,,,,,,,,,,,1.0,1.0,0.8472,0.0,9.0,9.0,9.0,1.0,,,,,,,,,,,,,,,
,,,,,,,,,,,,,,,,,,,,,,,,,,,,,,,,,,,,,,,,,,,,orangutan_03s.jpg,0.0,Yellow.png,2.0,12,,,,,,,,,,,,,0.0,1.0,0.802,0.0,10.0,10.0,10.0,1.0,,,,,,,,,,,,,,,
,,,,,,,,,,,,,,,,,,,,,,,,,,,,,,,,,,,,,,,,,,,,trident_07s.jpg,1.0,Green.png,2.0,12,,,,,,,,,,,,,1.0,1.0,0.9037,0.0,11.0,11.0,11.0,1.0,,,,,,,,,,,,,,,
,,,,,,,,,,,,,,,,,,,,,,,,,,,,,,,,,,,,,,,,,,,,raspberry_12s.jpg,0.0,Blue.png,3.0,12,,,,,,,,,,,,,0.0,1.0,0.7758,0.0,12.0,12.0,12.0,1.0,,,,,,,,,,,,,,,
,,,,,,,,,,,,,,,,,,,,,,,,,,,,,,,,,,,,,,,,,,,,trident_07s.jpg,1.0,Purple.png,3.0,12,,,,,,,,,,,,,0.0,0.0,0.8284,0.0,13.0,13.0,13.0,1.0,,,,,,,,,,,,,,,
,,,,,,,,,,,,,,,,,,,,,,,,,,,,,,,,,,,,,,,,,,,,lavender_10s.jpg,0.0,Red.png,3.0,12,,,,,,,,,,,,,0.0,1.0,0.8143,0.0,14.0,14.0,14.0,1.0,,,,,,,,,,,,,,,
,,,,,,,,,,,,,,,,,,,,,,,,,,,,,,,,,,,,,,,,,,,,chip_04s.jpg,0.0,Orange.png,3.0,12,,,,,,,,,,,,,0.0,1.0,0.7589,0.0,15.0,15.0,15.0,1.0,,,,,,,,,,,,,,,
,,,,,,,,,,,,,,,,,,,,,,,,,,,,,,,,,,,,,,,,,,,,lamb_04s.jpg,0.0,Yellow.png,3.0,12,,,,,,,,,,,,,0.0,1.0,1.0592,0.0,16.0,16.0,16.0,1.0,,,,,,,,,,,,,,,
,,,,,,,,,,,,,,,,,,,,,,,,,,,,,,,,,,,,,,,,,,,,emerald_02s.jpg,0.0,Green.png,3.0,12,,,,,,,,,,,,,0.0,1.0,1.1454,0.0,17.0,17.0,17.0,1.0,,,,,,,,,,,,,,,
,,,,,,,,,,,,,,,,,,,,,,,,,,,,,,,,,,,,,,,,,,,,pineapple_12s.jpg,0.0,Blue.png,4.0,12,,,,,,,,,,,,,0.0,1.0,0.8197,0.0,18.0,18.0,18.0,1.0,,,,,,,,,,,,,,,
,,,,,,,,,,,,,,,,,,,,,,,,,,,,,,,,,,,,,,,,,,,,sundae_08s.jpg,0.0,Purple.png,4.0,12,,,,,,,,,,,,,0.0,1.0,0.8038,0.0,19.0,19.0,19.0,1.0,,,,,,,,,,,,,,,
,,,,,,,,,,,,,,,,,,,,,,,,,,,,,,,,,,,,,,,,,,,,sundae_08s.jpg,0.0,Red.png,4.0,12,,,,,,,,,,,,,0.0,1.0,1.1403,0.0,20.0,20.0,20.0,1.0,,,,,,,,,,,,,,,
,,,,,,,,,,,,,,,,,,,,,,,,,,,,,,,,,,,,,,,,,,,,squirrel_02s.jpg,0.0,Orange.png,4.0,12,,,,,,,,,,,,,0.0,1.0,0.5102,0.0,21.0,21.0,21.0,1.0,,,,,,,,,,,,,,,
,,,,,,,,,,,,,,,,,,,,,,,,,,,,,,,,,,,,,,,,,,,,roller_coaster_07s.jpg,0.0,Yellow.png,4.0,12,,,,,,,,,,,,,0.0,1.0,0.6078,0.0,22.0,22.0,22.0,1.0,,,,,,,,,,,,,,,
,,,,,,,,,,,,,,,,,,,,,,,,,,,,,,,,,,,,,,,,,,,,sundae_08s.jpg,0.0,Green.png,4.0,12,,,,,,,,,,,,,1.0,0.0,2.1953,0.0,23.0,23.0,23.0,1.0,,,,,,,,,,,,,,,
,,,,,,,,,,,,,,,,,,,,,,,,,,,,,,,,,,,,,,,,,,,,tweezers_03s.jpg,0.0,Blue.png,5.0,12,,,,,,,,,,,,,0.0,1.0,0.8392,0.0,24.0,24.0,24.0,1.0,,,,,,,,,,,,,,,
,,,,,,,,,,,,,,,,,,,,,,,,,,,,,,,,,,,,,,,,,,,,sundae_08s.jpg,1.0,Purple.png,5.0,12,,,,,,,,,,,,,1.0,1.0,1.4048,0.0,25.0,25.0,25.0,1.0,,,,,,,,,,,,,,,
,,,,,,,,,,,,,,,,,,,,,,,,,,,,,,,,,,,,,,,,,,,,rudder_02s.jpg,0.0,Red.png,5.0,12,,,,,,,,,,,,,0.0,1.0,0.6737,0.0,26.0,26.0,26.0,1.0,,,,,,,,,,,,,,,
,,,,,,,,,,,,,,,,,,,,,,,,,,,,,,,,,,,,,,,,,,,,rake_06s.jpg,0.0,Orange.png,5.0,12,,,,,,,,,,,,,0.0,1.0,0.5617,0.0,27.0,27.0,27.0,1.0,,,,,,,,,,,,,,,
,,,,,,,,,,,,,,,,,,,,,,,,,,,,,,,,,,,,,,,,,,,,rake_06s.jpg,0.0,Yellow.png,5.0,12,,,,,,,,,,,,,0.0,1.0,1.5074,0.0,28.0,28.0,28.0,1.0,,,,,,,,,,,,,,,
,,,,,,,,,,,,,,,,,,,,,,,,,,,,,,,,,,,,,,,,,,,,rake_06s.jpg,1.0,Green.png,5.0,12,,,,,,,,,,,,,1.0,1.0,0.7624,0.0,29.0,29.0,29.0,1.0,,,,,,,,,,,,,,,
,,,,,,,,,,,,,,,,,,,,,,,,,,,,,,,,,,,,,,,,,,,,cap_05s.jpg,0.0,Blue.png,6.0,12,,,,,,,,,,,,,0.0,1.0,0.4646,0.0,30.0,30.0,30.0,1.0,,,,,,,,,,,,,,,
,,,,,,,,,,,,,,,,,,,,,,,,,,,,,,,,,,,,,,,,,,,,paper_towel_03s.jpg,0.0,Purple.png,6.0,12,,,,,,,,,,,,,0.0,1.0,0.6674,0.0,31.0,31.0,31.0,1.0,,,,,,,,,,,,,,,
,,,,,,,,,,,,,,,,,,,,,,,,,,,,,,,,,,,,,,,,,,,,toaster_03s.jpg,0.0,Red.png,6.0,12,,,,,,,,,,,,,0.0,1.0,0.7911,0.0,32.0,32.0,32.0,1.0,,,,,,,,,,,,,,,
,,,,,,,,,,,,,,,,,,,,,,,,,,,,,,,,,,,,,,,,,,,,money_07s.jpg,0.0,Orange.png,6.0,12,,,,,,,,,,,,,0.0,1.0,2.1417,0.0,33.0,33.0,33.0,1.0,,,,,,,,,,,,,,,
,,,,,,,,,,,,,,,,,,,,,,,,,,,,,,,,,,,,,,,,,,,,pinwheel_06s.jpg,0.0,Yellow.png,6.0,12,,,,,,,,,,,,,0.0,1.0,0.6869,0.0,34.0,34.0,34.0,1.0,,,,,,,,,,,,,,,
,,,,,,,,,,,,,,,,,,,,,,,,,,,,,,,,,,,,,,,,,,,,lid_10s.jpg,0.0,Green.png,6.0,12,,,,,,,,,,,,,0.0,1.0,0.5066,0.0,35.0,35.0,35.0,1.0,,,,,,,,,,,,,,,
,,,,,,,,,,,,,,,,,,,,,,,,,,,,,,,,,,,,,,,,,,,,,0.0,,,12,,,,,,,,,tweezers_03s.jpg,squirrel_02s.jpg,,,,,,,,,,,0.0,1.0,0.8247,0.0,0.0,0.0,0.0,1.0,,,,,,,
,,,,,,,,,,,,,,,,,,,,,,,,,,,,,,,,,,,,,,,,,,,,,1.0,,,12,,,,,,,,,chip_04s.jpg,pineapple_12s.jpg,,,,,,,,,,,0.0,0.0,1.1197,0.0,1.0,1.0,1.0,1.0,,,,,,,
,,,,,,,,,,,,,,,,,,,,,,,,,,,,,,,,,,,,,,,,,,,,,1.0,,,12,,,,,,,,,lamb_chop_07s.jpg,lava_02s.jpg,,,,,,,,,,,0.0,0.0,0.8368,0.0,2.0,2.0,2.0,1.0,,,,,,,
,,,,,,,,,,,,,,,,,,,,,,,,,,,,,,,,,,,,,,,,,,,,,0.0,,,12,,,,,,,,,pinwheel_06s.jpg,paper_towel_03s.jpg,,,,,,,,,,,1.0,0.0,1.0157,0.0,3.0,3.0,3.0,1.0,,,,,,,
,,,,,,,,,,,,,,,,,,,,,,,,,,,,,,,,,,,,,,,,,,,,,0.0,,,12,,,,,,,,,emerald_02s.jpg,lavender_10s.jpg,,,,,,,,,,,1.0,0.0,0.962,0.0,4.0,4.0,4.0,1.0,,,,,,,
,,,,,,,,,,,,,,,,,,,,,,,,,,,,,,,,,,,,,,,,,,,,,0.0,,,12,,,,,,,,,money_07s.jpg,cap_05s.jpg,,,,,,,,,,,0.0,1.0,1.0852,0.0,5.0,5.0,5.0,1.0,,,,,,,
,,,,,,,,,,,,,,,,,,,,,,,,,,,,,,,,,,,,,,,,,,,,,,,,12,,,,,,,,,,,,,,,,,,,,,,,,,,,,,0.0,3.0,3.0,3.0,1.0,new2backpresent_4_4.xlsx,new2back_compare_task_4_4.xlsx
,,,,,,,,,,,,,,,,,,,,,,,,,,,,,,,,,,,,,,,,,,,,fur_coat_11s.jpg,0.0,Blue.png,1.0,12,,,,,,,,,,,,,0.0,1.0,0.7244,0.0,0.0,0.0,0.0,1.0,,,,,,,,,,,,,,,
,,,,,,,,,,,,,,,,,,,,,,,,,,,,,,,,,,,,,,,,,,,,crayon_09s.jpg,0.0,Purple.png,1.0,12,,,,,,,,,,,,,0.0,1.0,0.4296,0.0,1.0,1.0,1.0,1.0,,,,,,,,,,,,,,,
,,,,,,,,,,,,,,,,,,,,,,,,,,,,,,,,,,,,,,,,,,,,cobra_05s.jpg,0.0,Red.png,1.0,12,,,,,,,,,,,,,0.0,1.0,0.5388,0.0,2.0,2.0,2.0,1.0,,,,,,,,,,,,,,,
,,,,,,,,,,,,,,,,,,,,,,,,,,,,,,,,,,,,,,,,,,,,raccoon_02s.jpg,0.0,Orange.png,1.0,12,,,,,,,,,,,,,0.0,1.0,0.7974,0.0,3.0,3.0,3.0,1.0,,,,,,,,,,,,,,,
,,,,,,,,,,,,,,,,,,,,,,,,,,,,,,,,,,,,,,,,,,,,soda_fountain_03s.jpg,0.0,Yellow.png,1.0,12,,,,,,,,,,,,,0.0,1.0,0.634,0.0,4.0,4.0,4.0,1.0,,,,,,,,,,,,,,,
,,,,,,,,,,,,,,,,,,,,,,,,,,,,,,,,,,,,,,,,,,,,raccoon_02s.jpg,1.0,Green.png,1.0,12,,,,,,,,,,,,,1.0,1.0,0.443,0.0,5.0,5.0,5.0,1.0,,,,,,,,,,,,,,,
,,,,,,,,,,,,,,,,,,,,,,,,,,,,,,,,,,,,,,,,,,,,feather02.jpg,0.0,Blue.png,2.0,12,,,,,,,,,,,,,0.0,1.0,0.5636,0.0,6.0,6.0,6.0,1.0,,,,,,,,,,,,,,,
,,,,,,,,,,,,,,,,,,,,,,,,,,,,,,,,,,,,,,,,,,,,raccoon_02s.jpg,1.0,Purple.png,2.0,12,,,,,,,,,,,,,1.0,1.0,0.6841,0.0,7.0,7.0,7.0,1.0,,,,,,,,,,,,,,,
,,,,,,,,,,,,,,,,,,,,,,,,,,,,,,,,,,,,,,,,,,,,feather02.jpg,1.0,Red.png,2.0,12,,,,,,,,,,,,,1.0,1.0,1.4354,0.0,8.0,8.0,8.0,1.0,,,,,,,,,,,,,,,
,,,,,,,,,,,,,,,,,,,,,,,,,,,,,,,,,,,,,,,,,,,,rug_09s.jpg,0.0,Orange.png,2.0,12,,,,,,,,,,,,,0.0,1.0,1.0488,0.0,9.0,9.0,9.0,1.0,,,,,,,,,,,,,,,
,,,,,,,,,,,,,,,,,,,,,,,,,,,,,,,,,,,,,,,,,,,,feather02.jpg,1.0,Yellow.png,2.0,12,,,,,,,,,,,,,1.0,1.0,1.4258,0.0,10.0,10.0,10.0,1.0,,,,,,,,,,,,,,,
,,,,,,,,,,,,,,,,,,,,,,,,,,,,,,,,,,,,,,,,,,,,cushion_08s.jpg,0.0,Green.png,2.0,12,,,,,,,,,,,,,0.0,1.0,0.7608,0.0,11.0,11.0,11.0,1.0,,,,,,,,,,,,,,,
,,,,,,,,,,,,,,,,,,,,,,,,,,,,,,,,,,,,,,,,,,,,feather02.jpg,1.0,Blue.png,3.0,12,,,,,,,,,,,,,1.0,1.0,0.8701,0.0,12.0,12.0,12.0,1.0,,,,,,,,,,,,,,,
,,,,,,,,,,,,,,,,,,,,,,,,,,,,,,,,,,,,,,,,,,,,feather02.jpg,0.0,Purple.png,3.0,12,,,,,,,,,,,,,0.0,1.0,2.3024,0.0,13.0,13.0,13.0,1.0,,,,,,,,,,,,,,,
,,,,,,,,,,,,,,,,,,,,,,,,,,,,,,,,,,,,,,,,,,,,ice_pack_09s.jpg,0.0,Red.png,3.0,12,,,,,,,,,,,,,0.0,1.0,0.64,0.0,14.0,14.0,14.0,1.0,,,,,,,,,,,,,,,
,,,,,,,,,,,,,,,,,,,,,,,,,,,,,,,,,,,,,,,,,,,,ice_pack_09s.jpg,0.0,Orange.png,3.0,12,,,,,,,,,,,,,0.0,1.0,1.0113,0.0,15.0,15.0,15.0,1.0,,,,,,,,,,,,,,,
,,,,,,,,,,,,,,,,,,,,,,,,,,,,,,,,,,,,,,,,,,,,loom_05s.jpg,0.0,Yellow.png,3.0,12,,,,,,,,,,,,,0.0,1.0,0.6511,0.0,16.0,16.0,16.0,1.0,,,,,,,,,,,,,,,
,,,,,,,,,,,,,,,,,,,,,,,,,,,,,,,,,,,,,,,,,,,,ice_pack_09s.jpg,1.0,Green.png,3.0,12,,,,,,,,,,,,,1.0,1.0,0.8575,0.0,17.0,17.0,17.0,1.0,,,,,,,,,,,,,,,
,,,,,,,,,,,,,,,,,,,,,,,,,,,,,,,,,,,,,,,,,,,,ice_pack_09s.jpg,0.0,Blue.png,4.0,12,,,,,,,,,,,,,0.0,1.0,1.3661,0.0,18.0,18.0,18.0,1.0,,,,,,,,,,,,,,,
,,,,,,,,,,,,,,,,,,,,,,,,,,,,,,,,,,,,,,,,,,,,ice_pack_09s.jpg,1.0,Purple.png,4.0,12,,,,,,,,,,,,,1.0,1.0,1.6959,0.0,19.0,19.0,19.0,1.0,,,,,,,,,,,,,,,
,,,,,,,,,,,,,,,,,,,,,,,,,,,,,,,,,,,,,,,,,,,,ice_pack_09s.jpg,1.0,Red.png,4.0,12,,,,,,,,,,,,,1.0,1.0,1.8453,0.0,20.0,20.0,20.0,1.0,,,,,,,,,,,,,,,
,,,,,,,,,,,,,,,,,,,,,,,,,,,,,,,,,,,,,,,,,,,,blazer_02s.jpg,0.0,Orange.png,4.0,12,,,,,,,,,,,,,0.0,1.0,0.7447,0.0,21.0,21.0,21.0,1.0,,,,,,,,,,,,,,,
,,,,,,,,,,,,,,,,,,,,,,,,,,,,,,,,,,,,,,,,,,,,penlight_12s.jpg,0.0,Yellow.png,4.0,12,,,,,,,,,,,,,0.0,1.0,0.7031,0.0,22.0,22.0,22.0,1.0,,,,,,,,,,,,,,,
,,,,,,,,,,,,,,,,,,,,,,,,,,,,,,,,,,,,,,,,,,,,swan_11s.jpg,0.0,Green.png,4.0,12,,,,,,,,,,,,,0.0,1.0,0.68,0.0,23.0,23.0,23.0,1.0,,,,,,,,,,,,,,,
,,,,,,,,,,,,,,,,,,,,,,,,,,,,,,,,,,,,,,,,,,,,plunger_08s.jpg,0.0,Blue.png,5.0,12,,,,,,,,,,,,,0.0,1.0,0.5784,0.0,24.0,24.0,24.0,1.0,,,,,,,,,,,,,,,
,,,,,,,,,,,,,,,,,,,,,,,,,,,,,,,,,,,,,,,,,,,,bottle_opener_11s.jpg,0.0,Purple.png,5.0,12,,,,,,,,,,,,,0.0,1.0,0.6268,0.0,25.0,25.0,25.0,1.0,,,,,,,,,,,,,,,
,,,,,,,,,,,,,,,,,,,,,,,,,,,,,,,,,,,,,,,,,,,,checkbook_11s.jpg,0.0,Red.png,5.0,12,,,,,,,,,,,,,0.0,1.0,0.6373,0.0,26.0,26.0,26.0,1.0,,,,,,,,,,,,,,,
,,,,,,,,,,,,,,,,,,,,,,,,,,,,,,,,,,,,,,,,,,,,ink_08s.jpg,0.0,Orange.png,5.0,12,,,,,,,,,,,,,0.0,1.0,0.683,0.0,27.0,27.0,27.0,1.0,,,,,,,,,,,,,,,
,,,,,,,,,,,,,,,,,,,,,,,,,,,,,,,,,,,,,,,,,,,,plunger_08s.jpg,0.0,Yellow.png,5.0,12,,,,,,,,,,,,,1.0,0.0,1.0885,0.0,28.0,28.0,28.0,1.0,,,,,,,,,,,,,,,
,,,,,,,,,,,,,,,,,,,,,,,,,,,,,,,,,,,,,,,,,,,,pencil02a.jpg,0.0,Green.png,5.0,12,,,,,,,,,,,,,0.0,1.0,0.7019,0.0,29.0,29.0,29.0,1.0,,,,,,,,,,,,,,,
,,,,,,,,,,,,,,,,,,,,,,,,,,,,,,,,,,,,,,,,,,,,ginger_09s.jpg,0.0,Blue.png,6.0,12,,,,,,,,,,,,,0.0,1.0,0.695,0.0,30.0,30.0,30.0,1.0,,,,,,,,,,,,,,,
,,,,,,,,,,,,,,,,,,,,,,,,,,,,,,,,,,,,,,,,,,,,taxi_15s.jpg,0.0,Purple.png,6.0,12,,,,,,,,,,,,,0.0,1.0,0.626,0.0,31.0,31.0,31.0,1.0,,,,,,,,,,,,,,,
,,,,,,,,,,,,,,,,,,,,,,,,,,,,,,,,,,,,,,,,,,,,toy_04s.jpg,0.0,Red.png,6.0,12,,,,,,,,,,,,,0.0,1.0,1.0643,0.0,32.0,32.0,32.0,1.0,,,,,,,,,,,,,,,
,,,,,,,,,,,,,,,,,,,,,,,,,,,,,,,,,,,,,,,,,,,,blowfish_03s.jpg,0.0,Orange.png,6.0,12,,,,,,,,,,,,,0.0,1.0,0.8557,0.0,33.0,33.0,33.0,1.0,,,,,,,,,,,,,,,
,,,,,,,,,,,,,,,,,,,,,,,,,,,,,,,,,,,,,,,,,,,,toilet_paper_12s.jpg,0.0,Yellow.png,6.0,12,,,,,,,,,,,,,0.0,1.0,0.776,0.0,34.0,34.0,34.0,1.0,,,,,,,,,,,,,,,
,,,,,,,,,,,,,,,,,,,,,,,,,,,,,,,,,,,,,,,,,,,,puddle_02s.jpg,0.0,Green.png,6.0,12,,,,,,,,,,,,,0.0,1.0,0.7295,0.0,35.0,35.0,35.0,1.0,,,,,,,,,,,,,,,
,,,,,,,,,,,,,,,,,,,,,,,,,,,,,,,,,,,,,,,,,,,,,1.0,,,12,,,,,,,,,ink_08s.jpg,ginger_09s.jpg,,,,,,,,,,,0.0,0.0,1.4067,0.0,0.0,0.0,0.0,1.0,,,,,,,
,,,,,,,,,,,,,,,,,,,,,,,,,,,,,,,,,,,,,,,,,,,,,0.0,,,12,,,,,,,,,puddle_02s.jpg,toy_04s.jpg,,,,,,,,,,,0.0,1.0,1.3915,0.0,1.0,1.0,1.0,1.0,,,,,,,
,,,,,,,,,,,,,,,,,,,,,,,,,,,,,,,,,,,,,,,,,,,,,0.0,,,12,,,,,,,,,bottle_opener_11s.jpg,penlight_12s.jpg,,,,,,,,,,,0.0,1.0,0.9905,0.0,2.0,2.0,2.0,1.0,,,,,,,
,,,,,,,,,,,,,,,,,,,,,,,,,,,,,,,,,,,,,,,,,,,,,0.0,,,12,,,,,,,,,checkbook_11s.jpg,swan_11s.jpg,,,,,,,,,,,1.0,0.0,0.9388,0.0,3.0,3.0,3.0,1.0,,,,,,,
,,,,,,,,,,,,,,,,,,,,,,,,,,,,,,,,,,,,,,,,,,,,,1.0,,,12,,,,,,,,,taxi_15s.jpg,toilet_paper_12s.jpg,,,,,,,,,,,1.0,1.0,1.1221,0.0,4.0,4.0,4.0,1.0,,,,,,,
,,,,,,,,,,,,,,,,,,,,,,,,,,,,,,,,,,,,,,,,,,,,,1.0,,,12,,,,,,,,,crayon_09s.jpg,soda_fountain_03s.jpg,,,,,,,,,,,1.0,1.0,0.7627,0.0,5.0,5.0,5.0,1.0,,,,,,,
,,,,,,,,,,,,,,,,,,,,,,,,,,,,,,,,,,,,,,,,,,,,,,,,12,,,,,,,,,,,,,,,,,,,,,,,,,,,,,0.0,4.0,4.0,4.0,1.0,new2backpresent_5_4.xlsx,new2back_compare_task_5_4.xlsx
,,,,,,,,,,,,,,,,,,,,,,,,,,,,,,,,,,,,,,,,,,,,flask_04s.jpg,0.0,Blue.png,1.0,12,,,,,,,,,,,,,0.0,1.0,1.4065,0.0,0.0,0.0,0.0,1.0,,,,,,,,,,,,,,,
,,,,,,,,,,,,,,,,,,,,,,,,,,,,,,,,,,,,,,,,,,,,kimono_13s.jpg,0.0,Purple.png,1.0,12,,,,,,,,,,,,,0.0,1.0,0.6564,0.0,1.0,1.0,1.0,1.0,,,,,,,,,,,,,,,
,,,,,,,,,,,,,,,,,,,,,,,,,,,,,,,,,,,,,,,,,,,,limousine_12s.jpg,0.0,Red.png,1.0,12,,,,,,,,,,,,,0.0,1.0,0.5277,0.0,2.0,2.0,2.0,1.0,,,,,,,,,,,,,,,
,,,,,,,,,,,,,,,,,,,,,,,,,,,,,,,,,,,,,,,,,,,,lectern_08s.jpg,0.0,Orange.png,1.0,12,,,,,,,,,,,,,0.0,1.0,0.5319,0.0,3.0,3.0,3.0,1.0,,,,,,,,,,,,,,,
,,,,,,,,,,,,,,,,,,,,,,,,,,,,,,,,,,,,,,,,,,,,kimono_13s.jpg,0.0,Yellow.png,1.0,12,,,,,,,,,,,,,0.0,1.0,0.9764,0.0,4.0,4.0,4.0,1.0,,,,,,,,,,,,,,,
,,,,,,,,,,,,,,,,,,,,,,,,,,,,,,,,,,,,,,,,,,,,doily_13s.jpg,0.0,Green.png,1.0,12,,,,,,,,,,,,,0.0,1.0,0.5926,0.0,5.0,5.0,5.0,1.0,,,,,,,,,,,,,,,
,,,,,,,,,,,,,,,,,,,,,,,,,,,,,,,,,,,,,,,,,,,,kimono_13s.jpg,1.0,Blue.png,2.0,12,,,,,,,,,,,,,1.0,1.0,0.7956,0.0,6.0,6.0,6.0,1.0,,,,,,,,,,,,,,,
,,,,,,,,,,,,,,,,,,,,,,,,,,,,,,,,,,,,,,,,,,,,razor_blade_01b.jpg,0.0,Purple.png,2.0,12,,,,,,,,,,,,,0.0,1.0,0.9156,0.0,7.0,7.0,7.0,1.0,,,,,,,,,,,,,,,
,,,,,,,,,,,,,,,,,,,,,,,,,,,,,,,,,,,,,,,,,,,,razor_blade_01b.jpg,0.0,Red.png,2.0,12,,,,,,,,,,,,,0.0,1.0,1.0285,0.0,8.0,8.0,8.0,1.0,,,,,,,,,,,,,,,
,,,,,,,,,,,,,,,,,,,,,,,,,,,,,,,,,,,,,,,,,,,,champagne_18s.jpg,0.0,Orange.png,2.0,12,,,,,,,,,,,,,0.0,1.0,0.6225,0.0,9.0,9.0,9.0,1.0,,,,,,,,,,,,,,,
,,,,,,,,,,,,,,,,,,,,,,,,,,,,,,,,,,,,,,,,,,,,stamp1_11s.jpg,0.0,Yellow.png,2.0,12,,,,,,,,,,,,,0.0,1.0,0.6773,0.0,10.0,10.0,10.0,1.0,,,,,,,,,,,,,,,
,,,,,,,,,,,,,,,,,,,,,,,,,,,,,,,,,,,,,,,,,,,,champagne_18s.jpg,1.0,Green.png,2.0,12,,,,,,,,,,,,,1.0,1.0,1.0771,0.0,11.0,11.0,11.0,1.0,,,,,,,,,,,,,,,
,,,,,,,,,,,,,,,,,,,,,,,,,,,,,,,,,,,,,,,,,,,,crossbow_10s.jpg,0.0,Blue.png,3.0,12,,,,,,,,,,,,,0.0,1.0,0.5988,0.0,12.0,12.0,12.0,1.0,,,,,,,,,,,,,,,
,,,,,,,,,,,,,,,,,,,,,,,,,,,,,,,,,,,,,,,,,,,,briefcase_03s.jpg,0.0,Purple.png,3.0,12,,,,,,,,,,,,,0.0,1.0,0.9566,0.0,13.0,13.0,13.0,1.0,,,,,,,,,,,,,,,
,,,,,,,,,,,,,,,,,,,,,,,,,,,,,,,,,,,,,,,,,,,,jersey_02s.jpg,0.0,Red.png,3.0,12,,,,,,,,,,,,,0.0,1.0,0.8348,0.0,14.0,14.0,14.0,1.0,,,,,,,,,,,,,,,
,,,,,,,,,,,,,,,,,,,,,,,,,,,,,,,,,,,,,,,,,,,,briefcase_03s.jpg,1.0,Orange.png,3.0,12,,,,,,,,,,,,,1.0,1.0,1.557,0.0,15.0,15.0,15.0,1.0,,,,,,,,,,,,,,,
,,,,,,,,,,,,,,,,,,,,,,,,,,,,,,,,,,,,,,,,,,,,oil_02s.jpg,0.0,Yellow.png,3.0,12,,,,,,,,,,,,,0.0,1.0,0.8611,0.0,16.0,16.0,16.0,1.0,,,,,,,,,,,,,,,
,,,,,,,,,,,,,,,,,,,,,,,,,,,,,,,,,,,,,,,,,,,,tinsel_12s.jpg,0.0,Green.png,3.0,12,,,,,,,,,,,,,0.0,1.0,0.5613,0.0,17.0,17.0,17.0,1.0,,,,,,,,,,,,,,,
,,,,,,,,,,,,,,,,,,,,,,,,,,,,,,,,,,,,,,,,,,,,flask_04s.jpg,0.0,Blue.png,4.0,12,,,,,,,,,,,,,0.0,1.0,0.8787,0.0,18.0,18.0,18.0,1.0,,,,,,,,,,,,,,,
,,,,,,,,,,,,,,,,,,,,,,,,,,,,,,,,,,,,,,,,,,,,fork_04s.jpg,0.0,Purple.png,4.0,12,,,,,,,,,,,,,0.0,1.0,1.2592,0.0,19.0,19.0,19.0,1.0,,,,,,,,,,,,,,,
,,,,,,,,,,,,,,,,,,,,,,,,,,,,,,,,,,,,,,,,,,,,purse_05s.jpg,0.0,Red.png,4.0,12,,,,,,,,,,,,,0.0,1.0,0.8244,0.0,20.0,20.0,20.0,1.0,,,,,,,,,,,,,,,
,,,,,,,,,,,,,,,,,,,,,,,,,,,,,,,,,,,,,,,,,,,,flask_04s.jpg,0.0,Orange.png,4.0,12,,,,,,,,,,,,,1.0,0.0,1.9213,0.0,21.0,21.0,21.0,1.0,,,,,,,,,,,,,,,
,,,,,,,,,,,,,,,,,,,,,,,,,,,,,,,,,,,,,,,,,,,,sledgehammer_03s.jpg,0.0,Yellow.png,4.0,12,,,,,,,,,,,,,0.0,1.0,0.9049,0.0,22.0,22.0,22.0,1.0,,,,,,,,,,,,,,,
,,,,,,,,,,,,,,,,,,,,,,,,,,,,,,,,,,,,,,,,,,,,turf_03s.jpg,0.0,Green.png,4.0,12,,,,,,,,,,,,,0.0,1.0,0.7425,0.0,23.0,23.0,23.0,1.0,,,,,,,,,,,,,,,
,,,,,,,,,,,,,,,,,,,,,,,,,,,,,,,,,,,,,,,,,,,,omelet_07s.jpg,0.0,Blue.png,5.0,12,,,,,,,,,,,,,0.0,1.0,0.5786,0.0,24.0,24.0,24.0,1.0,,,,,,,,,,,,,,,
,,,,,,,,,,,,,,,,,,,,,,,,,,,,,,,,,,,,,,,,,,,,turf_03s.jpg,1.0,Purple.png,5.0,12,,,,,,,,,,,,,1.0,1.0,0.6152,0.0,25.0,25.0,25.0,1.0,,,,,,,,,,,,,,,
,,,,,,,,,,,,,,,,,,,,,,,,,,,,,,,,,,,,,,,,,,,,clover_04s.jpg,0.0,Red.png,5.0,12,,,,,,,,,,,,,0.0,1.0,0.8691,0.0,26.0,26.0,26.0,1.0,,,,,,,,,,,,,,,
,,,,,,,,,,,,,,,,,,,,,,,,,,,,,,,,,,,,,,,,,,,,lip_gloss_06s.jpg,0.0,Orange.png,5.0,12,,,,,,,,,,,,,0.0,1.0,0.8878,0.0,27.0,27.0,27.0,1.0,,,,,,,,,,,,,,,
,,,,,,,,,,,,,,,,,,,,,,,,,,,,,,,,,,,,,,,,,,,,amber_04s.jpg,0.0,Yellow.png,5.0,12,,,,,,,,,,,,,0.0,1.0,0.863,0.0,28.0,28.0,28.0,1.0,,,,,,,,,,,,,,,
,,,,,,,,,,,,,,,,,,,,,,,,,,,,,,,,,,,,,,,,,,,,tortilla_06s.jpg,0.0,Green.png,5.0,12,,,,,,,,,,,,,0.0,1.0,0.6269,0.0,29.0,29.0,29.0,1.0,,,,,,,,,,,,,,,
,,,,,,,,,,,,,,,,,,,,,,,,,,,,,,,,,,,,,,,,,,,,razor_blade_01b.jpg,0.0,Blue.png,6.0,12,,,,,,,,,,,,,0.0,1.0,0.9063,0.0,30.0,30.0,30.0,1.0,,,,,,,,,,,,,,,
,,,,,,,,,,,,,,,,,,,,,,,,,,,,,,,,,,,,,,,,,,,,tape_measure_11s.jpg,0.0,Purple.png,6.0,12,,,,,,,,,,,,,0.0,1.0,1.2963,0.0,31.0,31.0,31.0,1.0,,,,,,,,,,,,,,,
,,,,,,,,,,,,,,,,,,,,,,,,,,,,,,,,,,,,,,,,,,,,razor_blade_01b.jpg,1.0,Red.png,6.0,12,,,,,,,,,,,,,1.0,1.0,0.9298,0.0,32.0,32.0,32.0,1.0,,,,,,,,,,,,,,,
,,,,,,,,,,,,,,,,,,,,,,,,,,,,,,,,,,,,,,,,,,,,razor_blade_01b.jpg,0.0,Orange.png,6.0,12,,,,,,,,,,,,,0.0,1.0,1.9532,0.0,33.0,33.0,33.0,1.0,,,,,,,,,,,,,,,
,,,,,,,,,,,,,,,,,,,,,,,,,,,,,,,,,,,,,,,,,,,,stingray_02s.jpg,0.0,Yellow.png,6.0,12,,,,,,,,,,,,,0.0,1.0,0.8322,0.0,34.0,34.0,34.0,1.0,,,,,,,,,,,,,,,
,,,,,,,,,,,,,,,,,,,,,,,,,,,,,,,,,,,,,,,,,,,,harpoon.jpg,0.0,Green.png,6.0,12,,,,,,,,,,,,,0.0,1.0,0.6894,0.0,35.0,35.0,35.0,1.0,,,,,,,,,,,,,,,
,,,,,,,,,,,,,,,,,,,,,,,,,,,,,,,,,,,,,,,,,,,,,1.0,,,12,,,,,,,,,oil_02s.jpg,fork_04s.jpg,,,,,,,,,,,1.0,1.0,0.9175,0.0,0.0,0.0,0.0,1.0,,,,,,,
,,,,,,,,,,,,,,,,,,,,,,,,,,,,,,,,,,,,,,,,,,,,,0.0,,,12,,,,,,,,,doily_13s.jpg,limousine_12s.jpg,,,,,,,,,,,0.0,1.0,0.7811,0.0,1.0,1.0,1.0,1.0,,,,,,,
,,,,,,,,,,,,,,,,,,,,,,,,,,,,,,,,,,,,,,,,,,,,,0.0,,,12,,,,,,,,,lip_gloss_06s.jpg,omelet_07s.jpg,,,,,,,,,,,1.0,0.0,0.8211,0.0,2.0,2.0,2.0,1.0,,,,,,,
,,,,,,,,,,,,,,,,,,,,,,,,,,,,,,,,,,,,,,,,,,,,,0.0,,,12,,,,,,,,,tape_measure_11s.jpg,amber_04s.jpg,,,,,,,,,,,0.0,1.0,0.8367,0.0,3.0,3.0,3.0,1.0,,,,,,,
,,,,,,,,,,,,,,,,,,,,,,,,,,,,,,,,,,,,,,,,,,,,,0.0,,,12,,,,,,,,,tortilla_06s.jpg,clover_04s.jpg,,,,,,,,,,,0.0,1.0,0.8109,0.0,4.0,4.0,4.0,1.0,,,,,,,
,,,,,,,,,,,,,,,,,,,,,,,,,,,,,,,,,,,,,,,,,,,,,0.0,,,12,,,,,,,,,purse_05s.jpg,tinsel_12s.jpg,,,,,,,,,,,1.0,0.0,0.6272,0.0,5.0,5.0,5.0,1.0,,,,,,,
,,,,,,,,,,,,,,,,,,,,,,,,,,,,,,,,,,,,,,,,,,,,,,,,12,,,,,,,,,,,,,,,,,,,,,,,,,,,,,0.0,5.0,5.0,5.0,1.0,new2backpresent_6_4.xlsx,new2back_compare_task_6_4.xlsx
,,,,,,,,,,,,,,,,,,,,,,,,,,,,,,,,,,,,,,,,,,,,butter_14s.jpg,0.0,Blue.png,1.0,12,,,,,,,,,,,,,0.0,1.0,0.8675,0.0,0.0,0.0,0.0,1.0,,,,,,,,,,,,,,,
,,,,,,,,,,,,,,,,,,,,,,,,,,,,,,,,,,,,,,,,,,,,butter_14s.jpg,0.0,Purple.png,1.0,12,,,,,,,,,,,,,0.0,1.0,0.8915,0.0,1.0,1.0,1.0,1.0,,,,,,,,,,,,,,,
,,,,,,,,,,,,,,,,,,,,,,,,,,,,,,,,,,,,,,,,,,,,butter_14s.jpg,1.0,Red.png,1.0,12,,,,,,,,,,,,,1.0,1.0,0.7518,0.0,2.0,2.0,2.0,1.0,,,,,,,,,,,,,,,
,,,,,,,,,,,,,,,,,,,,,,,,,,,,,,,,,,,,,,,,,,,,stamp2_08s.jpg,0.0,Orange.png,1.0,12,,,,,,,,,,,,,0.0,1.0,1.4657,0.0,3.0,3.0,3.0,1.0,,,,,,,,,,,,,,,
,,,,,,,,,,,,,,,,,,,,,,,,,,,,,,,,,,,,,,,,,,,,kangaroo_02s.jpg,0.0,Yellow.png,1.0,12,,,,,,,,,,,,,0.0,1.0,1.3005,0.0,4.0,4.0,4.0,1.0,,,,,,,,,,,,,,,
,,,,,,,,,,,,,,,,,,,,,,,,,,,,,,,,,,,,,,,,,,,,camcorder_10s.jpg,0.0,Green.png,1.0,12,,,,,,,,,,,,,0.0,1.0,0.6941,0.0,5.0,5.0,5.0,1.0,,,,,,,,,,,,,,,
,,,,,,,,,,,,,,,,,,,,,,,,,,,,,,,,,,,,,,,,,,,,bank_06s.jpg,0.0,Blue.png,2.0,12,,,,,,,,,,,,,0.0,1.0,1.0841,0.0,6.0,6.0,6.0,1.0,,,,,,,,,,,,,,,
,,,,,,,,,,,,,,,,,,,,,,,,,,,,,,,,,,,,,,,,,,,,gear_07s.jpg,0.0,Purple.png,2.0,12,,,,,,,,,,,,,0.0,1.0,0.526,0.0,7.0,7.0,7.0,1.0,,,,,,,,,,,,,,,
,,,,,,,,,,,,,,,,,,,,,,,,,,,,,,,,,,,,,,,,,,,,bank_06s.jpg,1.0,Red.png,2.0,12,,,,,,,,,,,,,1.0,1.0,0.6513,0.0,8.0,8.0,8.0,1.0,,,,,,,,,,,,,,,
,,,,,,,,,,,,,,,,,,,,,,,,,,,,,,,,,,,,,,,,,,,,funnel_01b.jpg,0.0,Orange.png,2.0,12,,,,,,,,,,,,,0.0,1.0,0.5753,0.0,9.0,9.0,9.0,1.0,,,,,,,,,,,,,,,
,,,,,,,,,,,,,,,,,,,,,,,,,,,,,,,,,,,,,,,,,,,,poinsettia_04s.jpg,0.0,Yellow.png,2.0,12,,,,,,,,,,,,,0.0,1.0,0.5812,0.0,10.0,10.0,10.0,1.0,,,,,,,,,,,,,,,
,,,,,,,,,,,,,,,,,,,,,,,,,,,,,,,,,,,,,,,,,,,,funnel_01b.jpg,1.0,Green.png,2.0,12,,,,,,,,,,,,,1.0,1.0,1.4291,0.0,11.0,11.0,11.0,1.0,,,,,,,,,,,,,,,
,,,,,,,,,,,,,,,,,,,,,,,,,,,,,,,,,,,,,,,,,,,,rooster_03s.jpg,0.0,Blue.png,3.0,12,,,,,,,,,,,,,0.0,1.0,1.2385,0.0,12.0,12.0,12.0,1.0,,,,,,,,,,,,,,,
,,,,,,,,,,,,,,,,,,,,,,,,,,,,,,,,,,,,,,,,,,,,denture_03s.jpg,0.0,Purple.png,3.0,12,,,,,,,,,,,,,0.0,1.0,0.9579,0.0,13.0,13.0,13.0,1.0,,,,,,,,,,,,,,,
,,,,,,,,,,,,,,,,,,,,,,,,,,,,,,,,,,,,,,,,,,,,bean_06s.jpg,0.0,Red.png,3.0,12,,,,,,,,,,,,,0.0,1.0,0.959,0.0,14.0,14.0,14.0,1.0,,,,,,,,,,,,,,,
,,,,,,,,,,,,,,,,,,,,,,,,,,,,,,,,,,,,,,,,,,,,mud_13s.jpg,0.0,Orange.png,3.0,12,,,,,,,,,,,,,0.0,1.0,0.6706,0.0,15.0,15.0,15.0,1.0,,,,,,,,,,,,,,,
,,,,,,,,,,,,,,,,,,,,,,,,,,,,,,,,,,,,,,,,,,,,keyhole_03s.jpg,0.0,Yellow.png,3.0,12,,,,,,,,,,,,,0.0,1.0,0.625,0.0,16.0,16.0,16.0,1.0,,,,,,,,,,,,,,,
,,,,,,,,,,,,,,,,,,,,,,,,,,,,,,,,,,,,,,,,,,,,bean_06s.jpg,0.0,Green.png,3.0,12,,,,,,,,,,,,,1.0,0.0,0.9129,0.0,17.0,17.0,17.0,1.0,,,,,,,,,,,,,,,
,,,,,,,,,,,,,,,,,,,,,,,,,,,,,,,,,,,,,,,,,,,,bank_06s.jpg,0.0,Blue.png,4.0,12,,,,,,,,,,,,,0.0,1.0,0.865,0.0,18.0,18.0,18.0,1.0,,,,,,,,,,,,,,,
,,,,,,,,,,,,,,,,,,,,,,,,,,,,,,,,,,,,,,,,,,,,pomegranate_04s.jpg,0.0,Purple.png,4.0,12,,,,,,,,,,,,,0.0,1.0,0.8605,0.0,19.0,19.0,19.0,1.0,,,,,,,,,,,,,,,
,,,,,,,,,,,,,,,,,,,,,,,,,,,,,,,,,,,,,,,,,,,,chopsticks_08s.jpg,0.0,Red.png,4.0,12,,,,,,,,,,,,,0.0,1.0,0.7591,0.0,20.0,20.0,20.0,1.0,,,,,,,,,,,,,,,
,,,,,,,,,,,,,,,,,,,,,,,,,,,,,,,,,,,,,,,,,,,,contact_lens_15s.jpg,0.0,Orange.png,4.0,12,,,,,,,,,,,,,0.0,1.0,1.0523,0.0,21.0,21.0,21.0,1.0,,,,,,,,,,,,,,,
,,,,,,,,,,,,,,,,,,,,,,,,,,,,,,,,,,,,,,,,,,,,hydrant_10s.jpg,0.0,Yellow.png,4.0,12,,,,,,,,,,,,,0.0,1.0,1.4093,0.0,22.0,22.0,22.0,1.0,,,,,,,,,,,,,,,
,,,,,,,,,,,,,,,,,,,,,,,,,,,,,,,,,,,,,,,,,,,,gingerbread_man_03s.jpg,0.0,Green.png,4.0,12,,,,,,,,,,,,,0.0,1.0,0.6439,0.0,23.0,23.0,23.0,1.0,,,,,,,,,,,,,,,
,,,,,,,,,,,,,,,,,,,,,,,,,,,,,,,,,,,,,,,,,,,,camcorder_10s.jpg,0.0,Blue.png,5.0,12,,,,,,,,,,,,,0.0,1.0,1.4446,0.0,24.0,24.0,24.0,1.0,,,,,,,,,,,,,,,
,,,,,,,,,,,,,,,,,,,,,,,,,,,,,,,,,,,,,,,,,,,,teabag_12s.jpg,0.0,Purple.png,5.0,12,,,,,,,,,,,,,0.0,1.0,0.7773,0.0,25.0,25.0,25.0,1.0,,,,,,,,,,,,,,,
,,,,,,,,,,,,,,,,,,,,,,,,,,,,,,,,,,,,,,,,,,,,radiator_05s.jpg,0.0,Red.png,5.0,12,,,,,,,,,,,,,0.0,1.0,0.5941,0.0,26.0,26.0,26.0,1.0,,,,,,,,,,,,,,,
,,,,,,,,,,,,,,,,,,,,,,,,,,,,,,,,,,,,,,,,,,,,punch1_10s.jpg,0.0,Orange.png,5.0,12,,,,,,,,,,,,,0.0,1.0,0.6538,0.0,27.0,27.0,27.0,1.0,,,,,,,,,,,,,,,
,,,,,,,,,,,,,,,,,,,,,,,,,,,,,,,,,,,,,,,,,,,,mailbox_11s.jpg,0.0,Yellow.png,5.0,12,,,,,,,,,,,,,0.0,1.0,1.3613,0.0,28.0,28.0,28.0,1.0,,,,,,,,,,,,,,,
,,,,,,,,,,,,,,,,,,,,,,,,,,,,,,,,,,,,,,,,,,,,beaker_01b.jpg,0.0,Green.png,5.0,12,,,,,,,,,,,,,,0.0,,0.0,29.0,29.0,29.0,1.0,,,,,,,,,,,,,,,
,,,,,,,,,,,,,,,,,,,,,,,,,,,,,,,,,,,,,,,,,,,,mailbox_11s.jpg,1.0,Blue.png,6.0,12,,,,,,,,,,,,,1.0,1.0,1.2051,0.0,30.0,30.0,30.0,1.0,,,,,,,,,,,,,,,
,,,,,,,,,,,,,,,,,,,,,,,,,,,,,,,,,,,,,,,,,,,,pipe1_10s.jpg,0.0,Purple.png,6.0,12,,,,,,,,,,,,,0.0,1.0,0.8437,0.0,31.0,31.0,31.0,1.0,,,,,,,,,,,,,,,
,,,,,,,,,,,,,,,,,,,,,,,,,,,,,,,,,,,,,,,,,,,,mailbox_11s.jpg,1.0,Red.png,6.0,12,,,,,,,,,,,,,1.0,1.0,1.0889,0.0,32.0,32.0,32.0,1.0,,,,,,,,,,,,,,,
,,,,,,,,,,,,,,,,,,,,,,,,,,,,,,,,,,,,,,,,,,,,pipe1_10s.jpg,1.0,Orange.png,6.0,12,,,,,,,,,,,,,0.0,0.0,1.1525,0.0,33.0,33.0,33.0,1.0,,,,,,,,,,,,,,,
,,,,,,,,,,,,,,,,,,,,,,,,,,,,,,,,,,,,,,,,,,,,eyedropper_12s.jpg,0.0,Yellow.png,6.0,12,,,,,,,,,,,,,0.0,1.0,0.7058,0.0,34.0,34.0,34.0,1.0,,,,,,,,,,,,,,,
,,,,,,,,,,,,,,,,,,,,,,,,,,,,,,,,,,,,,,,,,,,,rhubarb_03s.jpg,0.0,Green.png,6.0,12,,,,,,,,,,,,,0.0,1.0,0.6924,0.0,35.0,35.0,35.0,1.0,,,,,,,,,,,,,,,
,,,,,,,,,,,,,,,,,,,,,,,,,,,,,,,,,,,,,,,,,,,,,0.0,,,12,,,,,,,,,mud_13s.jpg,rooster_03s.jpg,,,,,,,,,,,1.0,0.0,0.8412,0.0,0.0,0.0,0.0,1.0,,,,,,,
,,,,,,,,,,,,,,,,,,,,,,,,,,,,,,,,,,,,,,,,,,,,,1.0,,,12,,,,,,,,,chopsticks_08s.jpg,gingerbread_man_03s.jpg,,,,,,,,,,,0.0,0.0,0.7389,0.0,1.0,1.0,1.0,1.0,,,,,,,
,,,,,,,,,,,,,,,,,,,,,,,,,,,,,,,,,,,,,,,,,,,,,0.0,,,12,,,,,,,,,beaker_01b.jpg,radiator_05s.jpg,,,,,,,,,,,0.0,1.0,0.8728,0.0,2.0,2.0,2.0,1.0,,,,,,,
,,,,,,,,,,,,,,,,,,,,,,,,,,,,,,,,,,,,,,,,,,,,,0.0,,,12,,,,,,,,,teabag_12s.jpg,hydrant_10s.jpg,,,,,,,,,,,1.0,0.0,0.8267,0.0,3.0,3.0,3.0,1.0,,,,,,,
,,,,,,,,,,,,,,,,,,,,,,,,,,,,,,,,,,,,,,,,,,,,,0.0,,,12,,,,,,,,,denture_03s.jpg,poinsettia_04s.jpg,,,,,,,,,,,0.0,1.0,0.681,0.0,4.0,4.0,4.0,1.0,,,,,,,
,,,,,,,,,,,,,,,,,,,,,,,,,,,,,,,,,,,,,,,,,,,,,1.0,,,12,,,,,,,,,kangaroo_02s.jpg,gear_07s.jpg,,,,,,,,,,,1.0,1.0,0.6341,0.0,5.0,5.0,5.0,1.0,,,,,,,
,,,,,,,,,,,,,,,,,,,,,,,,,,,,,,,,,,,,,,,,,,,,,,,,12,,,,,,,,,,,,,,,,,,,,,,,,,,,,,0.0,6.0,6.0,6.0,1.0,new2backpresent_7_4.xlsx,new2back_compare_task_7_4.xlsx
,,,,,,,,,,,,,,,,,,,,,,,,,,,,,,,,,,,,,,,,,,,,lamppost_09s.jpg,0.0,Blue.png,1.0,12,,,,,,,,,,,,,0.0,1.0,0.9395,0.0,0.0,0.0,0.0,1.0,,,,,,,,,,,,,,,
,,,,,,,,,,,,,,,,,,,,,,,,,,,,,,,,,,,,,,,,,,,,jewel_01b.jpg,0.0,Purple.png,1.0,12,,,,,,,,,,,,,0.0,1.0,0.5808,0.0,1.0,1.0,1.0,1.0,,,,,,,,,,,,,,,
,,,,,,,,,,,,,,,,,,,,,,,,,,,,,,,,,,,,,,,,,,,,tuxedo_01b.jpg,0.0,Red.png,1.0,12,,,,,,,,,,,,,0.0,1.0,0.5604,0.0,2.0,2.0,2.0,1.0,,,,,,,,,,,,,,,
,,,,,,,,,,,,,,,,,,,,,,,,,,,,,,,,,,,,,,,,,,,,flip_flop_03s.jpg,0.0,Orange.png,1.0,12,,,,,,,,,,,,,0.0,1.0,0.5758,0.0,3.0,3.0,3.0,1.0,,,,,,,,,,,,,,,
,,,,,,,,,,,,,,,,,,,,,,,,,,,,,,,,,,,,,,,,,,,,medal_04s.jpg,0.0,Yellow.png,1.0,12,,,,,,,,,,,,,0.0,1.0,0.7441,0.0,4.0,4.0,4.0,1.0,,,,,,,,,,,,,,,
,,,,,,,,,,,,,,,,,,,,,,,,,,,,,,,,,,,,,,,,,,,,flip_flop_03s.jpg,1.0,Green.png,1.0,12,,,,,,,,,,,,,1.0,1.0,0.8257,0.0,5.0,5.0,5.0,1.0,,,,,,,,,,,,,,,
,,,,,,,,,,,,,,,,,,,,,,,,,,,,,,,,,,,,,,,,,,,,tuxedo_01b.jpg,0.0,Blue.png,2.0,12,,,,,,,,,,,,,0.0,1.0,0.7587,0.0,6.0,6.0,6.0,1.0,,,,,,,,,,,,,,,
,,,,,,,,,,,,,,,,,,,,,,,,,,,,,,,,,,,,,,,,,,,,flip_flop_03s.jpg,1.0,Purple.png,2.0,12,,,,,,,,,,,,,1.0,1.0,0.9914,0.0,7.0,7.0,7.0,1.0,,,,,,,,,,,,,,,
,,,,,,,,,,,,,,,,,,,,,,,,,,,,,,,,,,,,,,,,,,,,fireworks_18s.jpg,0.0,Red.png,2.0,12,,,,,,,,,,,,,0.0,1.0,0.5722,0.0,8.0,8.0,8.0,1.0,,,,,,,,,,,,,,,
,,,,,,,,,,,,,,,,,,,,,,,,,,,,,,,,,,,,,,,,,,,,squirt_gun_03s.jpg,0.0,Orange.png,2.0,12,,,,,,,,,,,,,0.0,1.0,0.5591,0.0,9.0,9.0,9.0,1.0,,,,,,,,,,,,,,,
,,,,,,,,,,,,,,,,,,,,,,,,,,,,,,,,,,,,,,,,,,,,flip_flop_03s.jpg,0.0,Yellow.png,2.0,12,,,,,,,,,,,,,0.0,1.0,0.9501,0.0,10.0,10.0,10.0,1.0,,,,,,,,,,,,,,,
,,,,,,,,,,,,,,,,,,,,,,,,,,,,,,,,,,,,,,,,,,,,puffin_19s.jpg,0.0,Green.png,2.0,12,,,,,,,,,,,,,0.0,1.0,1.0609,0.0,11.0,11.0,11.0,1.0,,,,,,,,,,,,,,,
,,,,,,,,,,,,,,,,,,,,,,,,,,,,,,,,,,,,,,,,,,,,tuxedo_01b.jpg,0.0,Blue.png,3.0,12,,,,,,,,,,,,,0.0,1.0,0.8418,0.0,12.0,12.0,12.0,1.0,,,,,,,,,,,,,,,
,,,,,,,,,,,,,,,,,,,,,,,,,,,,,,,,,,,,,,,,,,,,tuxedo_01b.jpg,0.0,Purple.png,3.0,12,,,,,,,,,,,,,0.0,1.0,1.5097,0.0,13.0,13.0,13.0,1.0,,,,,,,,,,,,,,,
,,,,,,,,,,,,,,,,,,,,,,,,,,,,,,,,,,,,,,,,,,,,snowman_02s.jpg,0.0,Red.png,3.0,12,,,,,,,,,,,,,0.0,1.0,0.5918,0.0,14.0,14.0,14.0,1.0,,,,,,,,,,,,,,,
,,,,,,,,,,,,,,,,,,,,,,,,,,,,,,,,,,,,,,,,,,,,cucumber_07s.jpg,0.0,Orange.png,3.0,12,,,,,,,,,,,,,0.0,1.0,0.6084,0.0,15.0,15.0,15.0,1.0,,,,,,,,,,,,,,,
,,,,,,,,,,,,,,,,,,,,,,,,,,,,,,,,,,,,,,,,,,,,plug_08s.jpg,0.0,Yellow.png,3.0,12,,,,,,,,,,,,,0.0,1.0,0.9942,0.0,16.0,16.0,16.0,1.0,,,,,,,,,,,,,,,
,,,,,,,,,,,,,,,,,,,,,,,,,,,,,,,,,,,,,,,,,,,,cucumber_07s.jpg,1.0,Green.png,3.0,12,,,,,,,,,,,,,1.0,1.0,1.2138,0.0,17.0,17.0,17.0,1.0,,,,,,,,,,,,,,,
,,,,,,,,,,,,,,,,,,,,,,,,,,,,,,,,,,,,,,,,,,,,puffin_19s.jpg,0.0,Blue.png,4.0,12,,,,,,,,,,,,,0.0,1.0,1.9088,0.0,18.0,18.0,18.0,1.0,,,,,,,,,,,,,,,
,,,,,,,,,,,,,,,,,,,,,,,,,,,,,,,,,,,,,,,,,,,,fondue_07s.jpg,0.0,Purple.png,4.0,12,,,,,,,,,,,,,0.0,1.0,0.8591,0.0,19.0,19.0,19.0,1.0,,,,,,,,,,,,,,,
,,,,,,,,,,,,,,,,,,,,,,,,,,,,,,,,,,,,,,,,,,,,lasagna_06s.jpg,0.0,Red.png,4.0,12,,,,,,,,,,,,,0.0,1.0,0.7148,0.0,20.0,20.0,20.0,1.0,,,,,,,,,,,,,,,
,,,,,,,,,,,,,,,,,,,,,,,,,,,,,,,,,,,,,,,,,,,,eiffeltower.jpg,0.0,Orange.png,4.0,12,,,,,,,,,,,,,0.0,1.0,0.5271,0.0,21.0,21.0,21.0,1.0,,,,,,,,,,,,,,,
,,,,,,,,,,,,,,,,,,,,,,,,,,,,,,,,,,,,,,,,,,,,outlet_10s.jpg,0.0,Yellow.png,4.0,12,,,,,,,,,,,,,0.0,1.0,1.7942,0.0,22.0,22.0,22.0,1.0,,,,,,,,,,,,,,,
,,,,,,,,,,,,,,,,,,,,,,,,,,,,,,,,,,,,,,,,,,,,cape_11s.jpg,0.0,Green.png,4.0,12,,,,,,,,,,,,,0.0,1.0,1.0249,0.0,23.0,23.0,23.0,1.0,,,,,,,,,,,,,,,
,,,,,,,,,,,,,,,,,,,,,,,,,,,,,,,,,,,,,,,,,,,,marshmallow_08s.jpg,0.0,Blue.png,5.0,12,,,,,,,,,,,,,0.0,1.0,1.6945,0.0,24.0,24.0,24.0,1.0,,,,,,,,,,,,,,,
,,,,,,,,,,,,,,,,,,,,,,,,,,,,,,,,,,,,,,,,,,,,racehorse_03s.jpg,0.0,Purple.png,5.0,12,,,,,,,,,,,,,0.0,1.0,1.1134,0.0,25.0,25.0,25.0,1.0,,,,,,,,,,,,,,,
,,,,,,,,,,,,,,,,,,,,,,,,,,,,,,,,,,,,,,,,,,,,aluminum_foil_08s.jpg,0.0,Red.png,5.0,12,,,,,,,,,,,,,0.0,1.0,0.7468,0.0,26.0,26.0,26.0,1.0,,,,,,,,,,,,,,,
,,,,,,,,,,,,,,,,,,,,,,,,,,,,,,,,,,,,,,,,,,,,spoon02a.jpg,0.0,Orange.png,5.0,12,,,,,,,,,,,,,0.0,1.0,1.0407,0.0,27.0,27.0,27.0,1.0,,,,,,,,,,,,,,,
,,,,,,,,,,,,,,,,,,,,,,,,,,,,,,,,,,,,,,,,,,,,padlock_07s.jpg,0.0,Yellow.png,5.0,12,,,,,,,,,,,,,0.0,1.0,2.0869,0.0,28.0,28.0,28.0,1.0,,,,,,,,,,,,,,,
,,,,,,,,,,,,,,,,,,,,,,,,,,,,,,,,,,,,,,,,,,,,solar_panel_02s.jpg,0.0,Green.png,5.0,12,,,,,,,,,,,,,0.0,1.0,1.3734,0.0,29.0,29.0,29.0,1.0,,,,,,,,,,,,,,,
,,,,,,,,,,,,,,,,,,,,,,,,,,,,,,,,,,,,,,,,,,,,turtleneck_11s.jpg,0.0,Blue.png,6.0,12,,,,,,,,,,,,,0.0,1.0,0.5802,0.0,30.0,30.0,30.0,1.0,,,,,,,,,,,,,,,
,,,,,,,,,,,,,,,,,,,,,,,,,,,,,,,,,,,,,,,,,,,,pocketknife_12s.jpg,0.0,Purple.png,6.0,12,,,,,,,,,,,,,0.0,1.0,1.9796,0.0,31.0,31.0,31.0,1.0,,,,,,,,,,,,,,,
,,,,,,,,,,,,,,,,,,,,,,,,,,,,,,,,,,,,,,,,,,,,pocketknife_12s.jpg,0.0,Red.png,6.0,12,,,,,,,,,,,,,0.0,1.0,1.4351,0.0,32.0,32.0,32.0,1.0,,,,,,,,,,,,,,,
,,,,,,,,,,,,,,,,,,,,,,,,,,,,,,,,,,,,,,,,,,,,quill_09s.jpg,0.0,Orange.png,6.0,12,,,,,,,,,,,,,0.0,1.0,0.7767,0.0,33.0,33.0,33.0,1.0,,,,,,,,,,,,,,,
,,,,,,,,,,,,,,,,,,,,,,,,,,,,,,,,,,,,,,,,,,,,quill_09s.jpg,0.0,Yellow.png,6.0,12,,,,,,,,,,,,,1.0,0.0,1.1785,0.0,34.0,34.0,34.0,1.0,,,,,,,,,,,,,,,
,,,,,,,,,,,,,,,,,,,,,,,,,,,,,,,,,,,,,,,,,,,,pocketknife_12s.jpg,0.0,Green.png,6.0,12,,,,,,,,,,,,,1.0,0.0,1.1419,0.0,35.0,35.0,35.0,1.0,,,,,,,,,,,,,,,
,,,,,,,,,,,,,,,,,,,,,,,,,,,,,,,,,,,,,,,,,,,,,0.0,,,12,,,,,,,,,cape_11s.jpg,lasagna_06s.jpg,,,,,,,,,,,1.0,0.0,1.0569,0.0,0.0,0.0,0.0,1.0,,,,,,,
,,,,,,,,,,,,,,,,,,,,,,,,,,,,,,,,,,,,,,,,,,,,,0.0,,,12,,,,,,,,,padlock_07s.jpg,racehorse_03s.jpg,,,,,,,,,,,0.0,1.0,2.0328,0.0,1.0,1.0,1.0,1.0,,,,,,,
,,,,,,,,,,,,,,,,,,,,,,,,,,,,,,,,,,,,,,,,,,,,,1.0,,,12,,,,,,,,,spoon02a.jpg,turtleneck_11s.jpg,,,,,,,,,,,1.0,1.0,1.227,0.0,2.0,2.0,2.0,1.0,,,,,,,
,,,,,,,,,,,,,,,,,,,,,,,,,,,,,,,,,,,,,,,,,,,,,0.0,,,12,,,,,,,,,marshmallow_08s.jpg,eiffeltower.jpg,,,,,,,,,,,0.0,1.0,0.8591,0.0,3.0,3.0,3.0,1.0,,,,,,,
,,,,,,,,,,,,,,,,,,,,,,,,,,,,,,,,,,,,,,,,,,,,,0.0,,,12,,,,,,,,,medal_04s.jpg,jewel_01b.jpg,,,,,,,,,,,0.0,1.0,0.8501,0.0,4.0,4.0,4.0,1.0,,,,,,,
,,,,,,,,,,,,,,,,,,,,,,,,,,,,,,,,,,,,,,,,,,,,,1.0,,,12,,,,,,,,,plug_08s.jpg,fondue_07s.jpg,,,,,,,,,,,1.0,1.0,0.7583,0.0,5.0,5.0,5.0,1.0,,,,,,,
,,,,,,,,,,,,,,,,,,,,,,,,,,,,,,,,,,,,,,,,,,,,,,,,12,,,,,,,,,,,,,,,,,,,,,,,,,,,,,0.0,7.0,7.0,7.0,1.0,new2backpresent_8_4.xlsx,new2back_compare_task_8_4.xlsx
,,,,,,,,,,,,,,,,,,,,,,,,,,,,,,,,,,,,,,,,,,,,footprint_11s.jpg,0.0,Blue.png,1.0,12,,,,,,,,,,,,,0.0,1.0,0.8517,0.0,0.0,0.0,0.0,1.0,,,,,,,,,,,,,,,
,,,,,,,,,,,,,,,,,,,,,,,,,,,,,,,,,,,,,,,,,,,,coffee_filter_10s.jpg,0.0,Purple.png,1.0,12,,,,,,,,,,,,,0.0,1.0,0.7755,0.0,1.0,1.0,1.0,1.0,,,,,,,,,,,,,,,
,,,,,,,,,,,,,,,,,,,,,,,,,,,,,,,,,,,,,,,,,,,,coffee_filter_10s.jpg,0.0,Red.png,1.0,12,,,,,,,,,,,,,0.0,1.0,1.2383,0.0,2.0,2.0,2.0,1.0,,,,,,,,,,,,,,,
,,,,,,,,,,,,,,,,,,,,,,,,,,,,,,,,,,,,,,,,,,,,coffee_filter_10s.jpg,1.0,Orange.png,1.0,12,,,,,,,,,,,,,1.0,1.0,0.639,0.0,3.0,3.0,3.0,1.0,,,,,,,,,,,,,,,
,,,,,,,,,,,,,,,,,,,,,,,,,,,,,,,,,,,,,,,,,,,,coffee_filter_10s.jpg,1.0,Yellow.png,1.0,12,,,,,,,,,,,,,1.0,1.0,0.5918,0.0,4.0,4.0,4.0,1.0,,,,,,,,,,,,,,,
,,,,,,,,,,,,,,,,,,,,,,,,,,,,,,,,,,,,,,,,,,,,gargoyle_08s.jpg,0.0,Green.png,1.0,12,,,,,,,,,,,,,0.0,1.0,0.5938,0.0,5.0,5.0,5.0,1.0,,,,,,,,,,,,,,,
,,,,,,,,,,,,,,,,,,,,,,,,,,,,,,,,,,,,,,,,,,,,candy_cane_06s.jpg,0.0,Blue.png,2.0,12,,,,,,,,,,,,,0.0,1.0,0.5041,0.0,6.0,6.0,6.0,1.0,,,,,,,,,,,,,,,
,,,,,,,,,,,,,,,,,,,,,,,,,,,,,,,,,,,,,,,,,,,,toad_09s.jpg,0.0,Purple.png,2.0,12,,,,,,,,,,,,,0.0,1.0,0.5754,0.0,7.0,7.0,7.0,1.0,,,,,,,,,,,,,,,
,,,,,,,,,,,,,,,,,,,,,,,,,,,,,,,,,,,,,,,,,,,,candy_cane_06s.jpg,1.0,Red.png,2.0,12,,,,,,,,,,,,,1.0,1.0,0.9119,0.0,8.0,8.0,8.0,1.0,,,,,,,,,,,,,,,
,,,,,,,,,,,,,,,,,,,,,,,,,,,,,,,,,,,,,,,,,,,,pumpkin_03s.jpg,0.0,Orange.png,2.0,12,,,,,,,,,,,,,0.0,1.0,0.5903,0.0,9.0,9.0,9.0,1.0,,,,,,,,,,,,,,,
,,,,,,,,,,,,,,,,,,,,,,,,,,,,,,,,,,,,,,,,,,,,dashboard_02s.jpg,0.0,Yellow.png,2.0,12,,,,,,,,,,,,,0.0,1.0,1.0722,0.0,10.0,10.0,10.0,1.0,,,,,,,,,,,,,,,
,,,,,,,,,,,,,,,,,,,,,,,,,,,,,,,,,,,,,,,,,,,,syringe_02s.jpg,0.0,Green.png,2.0,12,,,,,,,,,,,,,0.0,1.0,0.9415,0.0,11.0,11.0,11.0,1.0,,,,,,,,,,,,,,,
,,,,,,,,,,,,,,,,,,,,,,,,,,,,,,,,,,,,,,,,,,,,powder_07s.jpg,0.0,Blue.png,3.0,12,,,,,,,,,,,,,0.0,1.0,0.7865,0.0,12.0,12.0,12.0,1.0,,,,,,,,,,,,,,,
,,,,,,,,,,,,,,,,,,,,,,,,,,,,,,,,,,,,,,,,,,,,powder_07s.jpg,0.0,Purple.png,3.0,12,,,,,,,,,,,,,0.0,1.0,1.1108,0.0,13.0,13.0,13.0,1.0,,,,,,,,,,,,,,,
,,,,,,,,,,,,,,,,,,,,,,,,,,,,,,,,,,,,,,,,,,,,powder_07s.jpg,1.0,Red.png,3.0,12,,,,,,,,,,,,,1.0,1.0,0.6107,0.0,14.0,14.0,14.0,1.0,,,,,,,,,,,,,,,
,,,,,,,,,,,,,,,,,,,,,,,,,,,,,,,,,,,,,,,,,,,,sea_urchin_09s.jpg,0.0,Orange.png,3.0,12,,,,,,,,,,,,,0.0,1.0,0.6899,0.0,15.0,15.0,15.0,1.0,,,,,,,,,,,,,,,
,,,,,,,,,,,,,,,,,,,,,,,,,,,,,,,,,,,,,,,,,,,,throne_11s.jpg,0.0,Yellow.png,3.0,12,,,,,,,,,,,,,0.0,1.0,0.7167,0.0,16.0,16.0,16.0,1.0,,,,,,,,,,,,,,,
,,,,,,,,,,,,,,,,,,,,,,,,,,,,,,,,,,,,,,,,,,,,powder_07s.jpg,0.0,Green.png,3.0,12,,,,,,,,,,,,,0.0,1.0,1.6113,0.0,17.0,17.0,17.0,1.0,,,,,,,,,,,,,,,
,,,,,,,,,,,,,,,,,,,,,,,,,,,,,,,,,,,,,,,,,,,,chalice_10s.jpg,0.0,Blue.png,4.0,12,,,,,,,,,,,,,0.0,1.0,0.8989,0.0,18.0,18.0,18.0,1.0,,,,,,,,,,,,,,,
,,,,,,,,,,,,,,,,,,,,,,,,,,,,,,,,,,,,,,,,,,,,air_pump_05s.jpg,0.0,Purple.png,4.0,12,,,,,,,,,,,,,0.0,1.0,0.8717,0.0,19.0,19.0,19.0,1.0,,,,,,,,,,,,,,,
,,,,,,,,,,,,,,,,,,,,,,,,,,,,,,,,,,,,,,,,,,,,microwave_02s.jpg,0.0,Red.png,4.0,12,,,,,,,,,,,,,0.0,1.0,0.8269,0.0,20.0,20.0,20.0,1.0,,,,,,,,,,,,,,,
,,,,,,,,,,,,,,,,,,,,,,,,,,,,,,,,,,,,,,,,,,,,cereal_04s.jpg,0.0,Orange.png,4.0,12,,,,,,,,,,,,,0.0,1.0,1.0776,0.0,21.0,21.0,21.0,1.0,,,,,,,,,,,,,,,
,,,,,,,,,,,,,,,,,,,,,,,,,,,,,,,,,,,,,,,,,,,,mushroom_10n.jpg,0.0,Yellow.png,4.0,12,,,,,,,,,,,,,0.0,1.0,1.1057,0.0,22.0,22.0,22.0,1.0,,,,,,,,,,,,,,,
,,,,,,,,,,,,,,,,,,,,,,,,,,,,,,,,,,,,,,,,,,,,red_carpet_03s.jpg,0.0,Green.png,4.0,12,,,,,,,,,,,,,0.0,1.0,0.8254,0.0,23.0,23.0,23.0,1.0,,,,,,,,,,,,,,,
,,,,,,,,,,,,,,,,,,,,,,,,,,,,,,,,,,,,,,,,,,,,throne_11s.jpg,0.0,Blue.png,5.0,12,,,,,,,,,,,,,1.0,0.0,1.5592,0.0,24.0,24.0,24.0,1.0,,,,,,,,,,,,,,,
,,,,,,,,,,,,,,,,,,,,,,,,,,,,,,,,,,,,,,,,,,,,koala_13s.jpg,0.0,Purple.png,5.0,12,,,,,,,,,,,,,0.0,1.0,0.7583,0.0,25.0,25.0,25.0,1.0,,,,,,,,,,,,,,,
,,,,,,,,,,,,,,,,,,,,,,,,,,,,,,,,,,,,,,,,,,,,throne_11s.jpg,1.0,Red.png,5.0,12,,,,,,,,,,,,,1.0,1.0,1.009,0.0,26.0,26.0,26.0,1.0,,,,,,,,,,,,,,,
,,,,,,,,,,,,,,,,,,,,,,,,,,,,,,,,,,,,,,,,,,,,rocket_02s.jpg,0.0,Orange.png,5.0,12,,,,,,,,,,,,,0.0,1.0,0.7619,0.0,27.0,27.0,27.0,1.0,,,,,,,,,,,,,,,
,,,,,,,,,,,,,,,,,,,,,,,,,,,,,,,,,,,,,,,,,,,,swordfish_05s.jpg,0.0,Yellow.png,5.0,12,,,,,,,,,,,,,0.0,1.0,0.91,0.0,28.0,28.0,28.0,1.0,,,,,,,,,,,,,,,
,,,,,,,,,,,,,,,,,,,,,,,,,,,,,,,,,,,,,,,,,,,,rocket_02s.jpg,1.0,Green.png,5.0,12,,,,,,,,,,,,,1.0,1.0,1.6723,0.0,29.0,29.0,29.0,1.0,,,,,,,,,,,,,,,
,,,,,,,,,,,,,,,,,,,,,,,,,,,,,,,,,,,,,,,,,,,,icicle_04s.jpg,0.0,Blue.png,6.0,12,,,,,,,,,,,,,0.0,1.0,0.6148,0.0,30.0,30.0,30.0,1.0,,,,,,,,,,,,,,,
,,,,,,,,,,,,,,,,,,,,,,,,,,,,,,,,,,,,,,,,,,,,keyboard_05s.jpg,0.0,Purple.png,6.0,12,,,,,,,,,,,,,0.0,1.0,0.8933,0.0,31.0,31.0,31.0,1.0,,,,,,,,,,,,,,,
,,,,,,,,,,,,,,,,,,,,,,,,,,,,,,,,,,,,,,,,,,,,pocket_watch_16s.jpg,0.0,Red.png,6.0,12,,,,,,,,,,,,,0.0,1.0,0.5333,0.0,32.0,32.0,32.0,1.0,,,,,,,,,,,,,,,
,,,,,,,,,,,,,,,,,,,,,,,,,,,,,,,,,,,,,,,,,,,,tablet_04s.jpg,0.0,Orange.png,6.0,12,,,,,,,,,,,,,0.0,1.0,0.6254,0.0,33.0,33.0,33.0,1.0,,,,,,,,,,,,,,,
,,,,,,,,,,,,,,,,,,,,,,,,,,,,,,,,,,,,,,,,,,,,chocolate_01b.jpg,0.0,Yellow.png,6.0,12,,,,,,,,,,,,,0.0,1.0,0.5909,0.0,34.0,34.0,34.0,1.0,,,,,,,,,,,,,,,
,,,,,,,,,,,,,,,,,,,,,,,,,,,,,,,,,,,,,,,,,,,,light_switch_02s.jpg,0.0,Green.png,6.0,12,,,,,,,,,,,,,0.0,1.0,0.5734,0.0,35.0,35.0,35.0,1.0,,,,,,,,,,,,,,,
,,,,,,,,,,,,,,,,,,,,,,,,,,,,,,,,,,,,,,,,,,,,,0.0,,,12,,,,,,,,,chalice_10s.jpg,sea_urchin_09s.jpg,,,,,,,,,,,1.0,0.0,0.8376,0.0,0.0,0.0,0.0,1.0,,,,,,,
,,,,,,,,,,,,,,,,,,,,,,,,,,,,,,,,,,,,,,,,,,,,,1.0,,,12,,,,,,,,,swordfish_05s.jpg,keyboard_05s.jpg,,,,,,,,,,,0.0,0.0,0.854,0.0,1.0,1.0,1.0,1.0,,,,,,,
,,,,,,,,,,,,,,,,,,,,,,,,,,,,,,,,,,,,,,,,,,,,,0.0,,,12,,,,,,,,,red_carpet_03s.jpg,microwave_02s.jpg,,,,,,,,,,,1.0,0.0,0.7473,0.0,2.0,2.0,2.0,1.0,,,,,,,
,,,,,,,,,,,,,,,,,,,,,,,,,,,,,,,,,,,,,,,,,,,,,0.0,,,12,,,,,,,,,dashboard_02s.jpg,toad_09s.jpg,,,,,,,,,,,1.0,0.0,0.5066,0.0,3.0,3.0,3.0,1.0,,,,,,,
,,,,,,,,,,,,,,,,,,,,,,,,,,,,,,,,,,,,,,,,,,,,,0.0,,,12,,,,,,,,,koala_13s.jpg,mushroom_10n.jpg,,,,,,,,,,,1.0,0.0,0.6841,0.0,4.0,4.0,4.0,1.0,,,,,,,
,,,,,,,,,,,,,,,,,,,,,,,,,,,,,,,,,,,,,,,,,,,,,1.0,,,12,,,,,,,,,icicle_04s.jpg,tablet_04s.jpg,,,,,,,,,,,1.0,1.0,0.6141,0.0,5.0,5.0,5.0,1.0,,,,,,,
,,,,,,,,,,,,,,,,,,,,,,,,,,,,,,,,,,,,,,,,,,,,,,,,12,,,,,,,,,,,,,,,,,,,,,,,,,,,,,0.0,8.0,8.0,8.0,1.0,new2backpresent_9_4.xlsx,new2back_compare_task_9_4.xlsx
