key_resp_3.keys,key_resp_3.rt,key_resp_4.keys,key_resp_4.rt,key_resp_5.keys,key_resp_5.rt,key_resp_6.keys,key_resp_6.rt,key_resp_7.keys,key_resp_7.rt,key_resp_8.keys,key_resp_8.rt,key_resp_9.keys,key_resp_9.rt,key_resp_10.keys,key_resp_10.rt,key_resp_11.keys,key_resp_11.rt,key_resp_12.keys,key_resp_12.rt,key_resp_13.keys,key_resp_13.rt,key_resp_14.keys,key_resp_14.rt,key_resp_15.keys,key_resp_15.rt,key_resp_16.keys,key_resp_16.rt,key_resp_17.keys,key_resp_17.rt,key_resp_18.keys,key_resp_18.rt,key_resp_19.keys,key_resp_19.rt,key_resp_20.keys,key_resp_20.rt,key_resp_21.keys,key_resp_21.corr,key_resp_21.rt,trials.thisRepN,trials.thisTrialN,trials.thisN,trials.thisIndex,trials.ran,pictures,answer,clock,segment,participant,key_resp_22.keys,key_resp_22.corr,key_resp_22.rt,trials_2.thisRepN,trials_2.thisTrialN,trials_2.thisN,trials_2.thisIndex,trials_2.ran,item_a,item_b,key_resp_23.keys,key_resp_23.rt,key_resp.keys,key_resp.corr,key_resp.rt,present_segment.thisRepN,present_segment.thisTrialN,present_segment.thisN,present_segment.thisIndex,present_segment.ran,key_resp_2.keys,key_resp_2.corr,key_resp_2.rt,compare_segment.thisRepN,compare_segment.thisTrialN,compare_segment.thisN,compare_segment.thisIndex,compare_segment.ran,clock_conditions.thisRepN,clock_conditions.thisTrialN,clock_conditions.thisN,clock_conditions.thisIndex,clock_conditions.ran,present,compare
space,77.2276,space,5.1842,0.0,11.5978,0.0,1.6259,1.0,1.4742,0.0,1.0671,0.0,1.4611,1.0,1.0302,0.0,26.7521,0.0,1.0376,1.0,0.8494,0.0,1.5123,0.0,0.9985,0.0,2.8742,space,12.8495,1.0,2.3723,0.0,3.1509,space,3.1202,0.0,1.0,1.0026,0.0,0.0,0.0,0.0,1.0,whipped_cream_02s.jpg,0.0,Blue.png,1.0,75,,,,,,,,,,,,,,,,,,,,,,,,,,,,,,,,,,,
,,,,,,,,,,,,,,,,,,,,,,,,,,,,,,,,,,,,0.0,1.0,0.9358,0.0,1.0,1.0,1.0,1.0,sheep_02s.jpg,0.0,Purple.png,1.0,75,,,,,,,,,,,,,,,,,,,,,,,,,,,,,,,,,,,
,,,,,,,,,,,,,,,,,,,,,,,,,,,,,,,,,,,,1.0,1.0,1.0453,0.0,2.0,2.0,2.0,1.0,sheep_02s.jpg,1.0,Red.png,1.0,75,,,,,,,,,,,,,,,,,,,,,,,,,,,,,,,,,,,
,,,,,,,,,,,,,,,,,,,,,,,,,,,,,,,,,,,,0.0,1.0,0.9405,0.0,3.0,3.0,3.0,1.0,sequin_02s.jpg,0.0,Orange.png,1.0,75,,,,,,,,,,,,,,,,,,,,,,,,,,,,,,,,,,,
,,,,,,,,,,,,,,,,,,,,,,,,,,,,,,,,,,,,1.0,1.0,1.7029,0.0,4.0,4.0,4.0,1.0,sheep_02s.jpg,1.0,Yellow.png,1.0,75,,,,,,,,,,,,,,,,,,,,,,,,,,,,,,,,,,,
,,,,,,,,,,,,,,,,,,,,,,,,,,,,,,,,,,,,0.0,1.0,0.9088,0.0,5.0,5.0,5.0,1.0,scoop_05s.jpg,0.0,Green.png,1.0,75,,,,,,,,,,,,,,,,,,,,,,,,,,,,,,,,,,,
,,,,,,,,,,,,,,,,,,,,,,,,,,,,,,,,,,,,,0.0,,0.0,6.0,6.0,6.0,1.0,wagon_12s.jpg,0.0,Blue.png,2.0,75,,,,,,,,,,,,,,,,,,,,,,,,,,,,,,,,,,,
,,,,,,,,,,,,,,,,,,,,,,,,,,,,,,,,,,,,0.0,1.0,0.7975,0.0,7.0,7.0,7.0,1.0,scrabble_05s.jpg,0.0,Purple.png,2.0,75,,,,,,,,,,,,,,,,,,,,,,,,,,,,,,,,,,,
,,,,,,,,,,,,,,,,,,,,,,,,,,,,,,,,,,,,1.0,1.0,0.8334,0.0,8.0,8.0,8.0,1.0,wagon_12s.jpg,1.0,Red.png,2.0,75,,,,,,,,,,,,,,,,,,,,,,,,,,,,,,,,,,,
,,,,,,,,,,,,,,,,,,,,,,,,,,,,,,,,,,,,1.0,1.0,1.8408,0.0,9.0,9.0,9.0,1.0,scrabble_05s.jpg,1.0,Orange.png,2.0,75,,,,,,,,,,,,,,,,,,,,,,,,,,,,,,,,,,,
,,,,,,,,,,,,,,,,,,,,,,,,,,,,,,,,,,,,0.0,1.0,0.9567,0.0,10.0,10.0,10.0,1.0,weasel_08s.jpg,0.0,Yellow.png,2.0,75,,,,,,,,,,,,,,,,,,,,,,,,,,,,,,,,,,,
,,,,,,,,,,,,,,,,,,,,,,,,,,,,,,,,,,,,0.0,1.0,0.9258,0.0,11.0,11.0,11.0,1.0,scooter_06s.jpg,0.0,Green.png,2.0,75,,,,,,,,,,,,,,,,,,,,,,,,,,,,,,,,,,,
,,,,,,,,,,,,,,,,,,,,,,,,,,,,,,,,,,,,0.0,1.0,1.0944,0.0,12.0,12.0,12.0,1.0,wetsuit_04s.jpg,0.0,Blue.png,3.0,75,,,,,,,,,,,,,,,,,,,,,,,,,,,,,,,,,,,
,,,,,,,,,,,,,,,,,,,,,,,,,,,,,,,,,,,,1.0,1.0,1.1849,0.0,13.0,13.0,13.0,1.0,wetsuit_04s.jpg,1.0,Purple.png,3.0,75,,,,,,,,,,,,,,,,,,,,,,,,,,,,,,,,,,,
,,,,,,,,,,,,,,,,,,,,,,,,,,,,,,,,,,,,1.0,1.0,1.1232,0.0,14.0,14.0,14.0,1.0,wetsuit_04s.jpg,1.0,Red.png,3.0,75,,,,,,,,,,,,,,,,,,,,,,,,,,,,,,,,,,,
,,,,,,,,,,,,,,,,,,,,,,,,,,,,,,,,,,,,0.0,1.0,0.6984,0.0,15.0,15.0,15.0,1.0,water_fountain_01b.jpg,0.0,Orange.png,3.0,75,,,,,,,,,,,,,,,,,,,,,,,,,,,,,,,,,,,
,,,,,,,,,,,,,,,,,,,,,,,,,,,,,,,,,,,,0.0,1.0,1.2817,0.0,16.0,16.0,16.0,1.0,wagon_12s.jpg,0.0,Yellow.png,3.0,75,,,,,,,,,,,,,,,,,,,,,,,,,,,,,,,,,,,
,,,,,,,,,,,,,,,,,,,,,,,,,,,,,,,,,,,,0.0,1.0,1.0676,0.0,17.0,17.0,17.0,1.0,wing_08s.jpg,0.0,Green.png,3.0,75,,,,,,,,,,,,,,,,,,,,,,,,,,,,,,,,,,,
,,,,,,,,,,,,,,,,,,,,,,,,,,,,,,,,,,,,0.0,1.0,1.2507,0.0,18.0,18.0,18.0,1.0,shield_02s.jpg,0.0,Blue.png,4.0,75,,,,,,,,,,,,,,,,,,,,,,,,,,,,,,,,,,,
,,,,,,,,,,,,,,,,,,,,,,,,,,,,,,,,,,,,0.0,1.0,0.848,0.0,19.0,19.0,19.0,1.0,shovel_09s.jpg,0.0,Purple.png,4.0,75,,,,,,,,,,,,,,,,,,,,,,,,,,,,,,,,,,,
,,,,,,,,,,,,,,,,,,,,,,,,,,,,,,,,,,,,0.0,1.0,0.8337,0.0,20.0,20.0,20.0,1.0,watch_09s.jpg,0.0,Red.png,4.0,75,,,,,,,,,,,,,,,,,,,,,,,,,,,,,,,,,,,
,,,,,,,,,,,,,,,,,,,,,,,,,,,,,,,,,,,,1.0,1.0,0.9033,0.0,21.0,21.0,21.0,1.0,shovel_09s.jpg,1.0,Orange.png,4.0,75,,,,,,,,,,,,,,,,,,,,,,,,,,,,,,,,,,,
,,,,,,,,,,,,,,,,,,,,,,,,,,,,,,,,,,,,1.0,1.0,0.8922,0.0,22.0,22.0,22.0,1.0,shovel_09s.jpg,1.0,Yellow.png,4.0,75,,,,,,,,,,,,,,,,,,,,,,,,,,,,,,,,,,,
,,,,,,,,,,,,,,,,,,,,,,,,,,,,,,,,,,,,0.0,1.0,0.9612,0.0,23.0,23.0,23.0,1.0,watering_can_14s.jpg,0.0,Green.png,4.0,75,,,,,,,,,,,,,,,,,,,,,,,,,,,,,,,,,,,
,,,,,,,,,,,,,,,,,,,,,,,,,,,,,,,,,,,,0.0,1.0,0.8697,0.0,24.0,24.0,24.0,1.0,wasp_13n.jpg,0.0,Blue.png,5.0,75,,,,,,,,,,,,,,,,,,,,,,,,,,,,,,,,,,,
,,,,,,,,,,,,,,,,,,,,,,,,,,,,,,,,,,,,0.0,1.0,1.1676,0.0,25.0,25.0,25.0,1.0,shoelace_13s.jpg,0.0,Purple.png,5.0,75,,,,,,,,,,,,,,,,,,,,,,,,,,,,,,,,,,,
,,,,,,,,,,,,,,,,,,,,,,,,,,,,,,,,,,,,0.0,1.0,0.7025,0.0,26.0,26.0,26.0,1.0,scarf_16s.jpg,0.0,Red.png,5.0,75,,,,,,,,,,,,,,,,,,,,,,,,,,,,,,,,,,,
,,,,,,,,,,,,,,,,,,,,,,,,,,,,,,,,,,,,0.0,1.0,0.8277,0.0,27.0,27.0,27.0,1.0,screwdriver_07s.jpg,0.0,Orange.png,5.0,75,,,,,,,,,,,,,,,,,,,,,,,,,,,,,,,,,,,
,,,,,,,,,,,,,,,,,,,,,,,,,,,,,,,,,,,,0.0,1.0,0.6826,0.0,28.0,28.0,28.0,1.0,drink_05s.jpg,0.0,Yellow.png,5.0,75,,,,,,,,,,,,,,,,,,,,,,,,,,,,,,,,,,,
,,,,,,,,,,,,,,,,,,,,,,,,,,,,,,,,,,,,1.0,1.0,0.9639,0.0,29.0,29.0,29.0,1.0,screwdriver_07s.jpg,1.0,Green.png,5.0,75,,,,,,,,,,,,,,,,,,,,,,,,,,,,,,,,,,,
,,,,,,,,,,,,,,,,,,,,,,,,,,,,,,,,,,,,0.0,1.0,0.7895,0.0,30.0,30.0,30.0,1.0,seaweed_07s.jpg,0.0,Blue.png,6.0,75,,,,,,,,,,,,,,,,,,,,,,,,,,,,,,,,,,,
,,,,,,,,,,,,,,,,,,,,,,,,,,,,,,,,,,,,0.0,1.0,0.6633,0.0,31.0,31.0,31.0,1.0,saxophone_04s.jpg,0.0,Purple.png,6.0,75,,,,,,,,,,,,,,,,,,,,,,,,,,,,,,,,,,,
,,,,,,,,,,,,,,,,,,,,,,,,,,,,,,,,,,,,1.0,1.0,1.1538,0.0,32.0,32.0,32.0,1.0,saxophone_04s.jpg,1.0,Red.png,6.0,75,,,,,,,,,,,,,,,,,,,,,,,,,,,,,,,,,,,
,,,,,,,,,,,,,,,,,,,,,,,,,,,,,,,,,,,,0.0,1.0,0.595,0.0,33.0,33.0,33.0,1.0,scorpion_01b.jpg,0.0,Orange.png,6.0,75,,,,,,,,,,,,,,,,,,,,,,,,,,,,,,,,,,,
,,,,,,,,,,,,,,,,,,,,,,,,,,,,,,,,,,,,0.0,1.0,0.9929,0.0,34.0,34.0,34.0,1.0,shovel_09s.jpg,0.0,Yellow.png,6.0,75,,,,,,,,,,,,,,,,,,,,,,,,,,,,,,,,,,,
,,,,,,,,,,,,,,,,,,,,,,,,,,,,,,,,,,,,1.0,1.0,1.0661,0.0,35.0,35.0,35.0,1.0,saxophone_04s.jpg,1.0,Green.png,6.0,75,,,,,,,,,,,,,,,,,,,,,,,,,,,,,,,,,,,
,,,,,,,,,,,,,,,,,,,,,,,,,,,,,,,,,,,,,,,,,,,,,1.0,,,75,1.0,1.0,1.7958,0.0,0.0,0.0,0.0,1.0,water_fountain_01b.jpg,shield_02s.jpg,,,,,,,,,,,,,,,,,,,,,,,,,
,,,,,,,,,,,,,,,,,,,,,,,,,,,,,,,,,,,,,,,,,,,,,0.0,,,75,1.0,0.0,2.4301,0.0,1.0,1.0,1.0,1.0,watch_09s.jpg,wing_08s.jpg,,,,,,,,,,,,,,,,,,,,,,,,,
,,,,,,,,,,,,,,,,,,,,,,,,,,,,,,,,,,,,,,,,,,,,,1.0,,,75,0.0,0.0,1.4158,0.0,2.0,2.0,2.0,1.0,watering_can_14s.jpg,scarf_16s.jpg,,,,,,,,,,,,,,,,,,,,,,,,,
,,,,,,,,,,,,,,,,,,,,,,,,,,,,,,,,,,,,,,,,,,,,,1.0,,,75,1.0,1.0,1.5135,0.0,3.0,3.0,3.0,1.0,whipped_cream_02s.jpg,sequin_02s.jpg,,,,,,,,,,,,,,,,,,,,,,,,,
,,,,,,,,,,,,,,,,,,,,,,,,,,,,,,,,,,,,,,,,,,,,,0.0,,,75,0.0,1.0,1.3707,0.0,4.0,4.0,4.0,1.0,drink_05s.jpg,shoelace_13s.jpg,,,,,,,,,,,,,,,,,,,,,,,,,
,,,,,,,,,,,,,,,,,,,,,,,,,,,,,,,,,,,,,,,,,,,,,1.0,,,75,1.0,1.0,2.0024,0.0,5.0,5.0,5.0,1.0,seaweed_07s.jpg,scorpion_01b.jpg,,,,,,,,,,,,,,,,,,,,,,,,,
,,,,,,,,,,,,,,,,,,,,,,,,,,,,,,,,,,,,,,,,,,,,mailbox_11s.jpg,0.0,Blue.png,1.0,75,,,,,,,,,,,space,17.9561,0.0,1.0,0.9977,0.0,0.0,0.0,0.0,1.0,,,,,,,,,,,,,,,
,,,,,,,,,,,,,,,,,,,,,,,,,,,,,,,,,,,,,,,,,,,,mailbox_11s.jpg,1.0,Purple.png,1.0,75,,,,,,,,,,,,,1.0,1.0,1.0733,0.0,1.0,1.0,1.0,1.0,,,,,,,,,,,,,,,
,,,,,,,,,,,,,,,,,,,,,,,,,,,,,,,,,,,,,,,,,,,,checkbook_11s.jpg,0.0,Red.png,1.0,75,,,,,,,,,,,,,0.0,1.0,0.8768,0.0,2.0,2.0,2.0,1.0,,,,,,,,,,,,,,,
,,,,,,,,,,,,,,,,,,,,,,,,,,,,,,,,,,,,,,,,,,,,rocking_chair_05s.jpg,0.0,Orange.png,1.0,75,,,,,,,,,,,,,0.0,1.0,0.8567,0.0,3.0,3.0,3.0,1.0,,,,,,,,,,,,,,,
,,,,,,,,,,,,,,,,,,,,,,,,,,,,,,,,,,,,,,,,,,,,checkbook_11s.jpg,1.0,Yellow.png,1.0,75,,,,,,,,,,,,,1.0,1.0,1.0065,0.0,4.0,4.0,4.0,1.0,,,,,,,,,,,,,,,
,,,,,,,,,,,,,,,,,,,,,,,,,,,,,,,,,,,,,,,,,,,,rocking_chair_05s.jpg,1.0,Green.png,1.0,75,,,,,,,,,,,,,1.0,1.0,1.4685,0.0,5.0,5.0,5.0,1.0,,,,,,,,,,,,,,,
,,,,,,,,,,,,,,,,,,,,,,,,,,,,,,,,,,,,,,,,,,,,eggshell_14s.jpg,0.0,Blue.png,2.0,75,,,,,,,,,,,,,0.0,1.0,0.9195,0.0,6.0,6.0,6.0,1.0,,,,,,,,,,,,,,,
,,,,,,,,,,,,,,,,,,,,,,,,,,,,,,,,,,,,,,,,,,,,rocking_chair_05s.jpg,0.0,Purple.png,2.0,75,,,,,,,,,,,,,0.0,1.0,1.1232,0.0,7.0,7.0,7.0,1.0,,,,,,,,,,,,,,,
,,,,,,,,,,,,,,,,,,,,,,,,,,,,,,,,,,,,,,,,,,,,powder_07s.jpg,0.0,Red.png,2.0,75,,,,,,,,,,,,,0.0,1.0,1.2766,0.0,8.0,8.0,8.0,1.0,,,,,,,,,,,,,,,
,,,,,,,,,,,,,,,,,,,,,,,,,,,,,,,,,,,,,,,,,,,,meatball_13s.jpg,0.0,Orange.png,2.0,75,,,,,,,,,,,,,0.0,1.0,0.7041,0.0,9.0,9.0,9.0,1.0,,,,,,,,,,,,,,,
,,,,,,,,,,,,,,,,,,,,,,,,,,,,,,,,,,,,,,,,,,,,rolling_pin_02s.jpg,0.0,Yellow.png,2.0,75,,,,,,,,,,,,,0.0,1.0,1.2923,0.0,10.0,10.0,10.0,1.0,,,,,,,,,,,,,,,
,,,,,,,,,,,,,,,,,,,,,,,,,,,,,,,,,,,,,,,,,,,,gingerbread_man_03s.jpg,0.0,Green.png,2.0,75,,,,,,,,,,,,,0.0,1.0,0.8642,0.0,11.0,11.0,11.0,1.0,,,,,,,,,,,,,,,
,,,,,,,,,,,,,,,,,,,,,,,,,,,,,,,,,,,,,,,,,,,,rocking_chair_05s.jpg,0.0,Blue.png,3.0,75,,,,,,,,,,,,,0.0,1.0,1.4575,0.0,12.0,12.0,12.0,1.0,,,,,,,,,,,,,,,
,,,,,,,,,,,,,,,,,,,,,,,,,,,,,,,,,,,,,,,,,,,,bowler_hat_10s.jpg,0.0,Purple.png,3.0,75,,,,,,,,,,,,,0.0,1.0,0.7948,0.0,13.0,13.0,13.0,1.0,,,,,,,,,,,,,,,
,,,,,,,,,,,,,,,,,,,,,,,,,,,,,,,,,,,,,,,,,,,,rocking_chair_05s.jpg,1.0,Red.png,3.0,75,,,,,,,,,,,,,0.0,0.0,1.3824,0.0,14.0,14.0,14.0,1.0,,,,,,,,,,,,,,,
,,,,,,,,,,,,,,,,,,,,,,,,,,,,,,,,,,,,,,,,,,,,rocking_chair_05s.jpg,1.0,Orange.png,3.0,75,,,,,,,,,,,,,1.0,1.0,0.8083,0.0,15.0,15.0,15.0,1.0,,,,,,,,,,,,,,,
,,,,,,,,,,,,,,,,,,,,,,,,,,,,,,,,,,,,,,,,,,,,rocking_chair_05s.jpg,1.0,Yellow.png,3.0,75,,,,,,,,,,,,,1.0,1.0,0.9259,0.0,16.0,16.0,16.0,1.0,,,,,,,,,,,,,,,
,,,,,,,,,,,,,,,,,,,,,,,,,,,,,,,,,,,,,,,,,,,,projector_08s.jpg,0.0,Green.png,3.0,75,,,,,,,,,,,,,0.0,1.0,0.9925,0.0,17.0,17.0,17.0,1.0,,,,,,,,,,,,,,,
,,,,,,,,,,,,,,,,,,,,,,,,,,,,,,,,,,,,,,,,,,,,checkbook_11s.jpg,0.0,Blue.png,4.0,75,,,,,,,,,,,,,0.0,1.0,1.2994,0.0,18.0,18.0,18.0,1.0,,,,,,,,,,,,,,,
,,,,,,,,,,,,,,,,,,,,,,,,,,,,,,,,,,,,,,,,,,,,checkbook_11s.jpg,1.0,Purple.png,4.0,75,,,,,,,,,,,,,1.0,1.0,0.8421,0.0,19.0,19.0,19.0,1.0,,,,,,,,,,,,,,,
,,,,,,,,,,,,,,,,,,,,,,,,,,,,,,,,,,,,,,,,,,,,crab_16s.jpg,0.0,Red.png,4.0,75,,,,,,,,,,,,,0.0,1.0,1.2733,0.0,20.0,20.0,20.0,1.0,,,,,,,,,,,,,,,
,,,,,,,,,,,,,,,,,,,,,,,,,,,,,,,,,,,,,,,,,,,,checkbook_11s.jpg,1.0,Orange.png,4.0,75,,,,,,,,,,,,,0.0,0.0,1.7101,0.0,21.0,21.0,21.0,1.0,,,,,,,,,,,,,,,
,,,,,,,,,,,,,,,,,,,,,,,,,,,,,,,,,,,,,,,,,,,,peanut_butter_08s.jpg,0.0,Yellow.png,4.0,75,,,,,,,,,,,,,0.0,1.0,1.2412,0.0,22.0,22.0,22.0,1.0,,,,,,,,,,,,,,,
,,,,,,,,,,,,,,,,,,,,,,,,,,,,,,,,,,,,,,,,,,,,breadstick_08s.jpg,0.0,Green.png,4.0,75,,,,,,,,,,,,,0.0,1.0,0.8977,0.0,23.0,23.0,23.0,1.0,,,,,,,,,,,,,,,
,,,,,,,,,,,,,,,,,,,,,,,,,,,,,,,,,,,,,,,,,,,,stethoscope_01b.jpg,0.0,Blue.png,5.0,75,,,,,,,,,,,,,0.0,1.0,0.9734,0.0,24.0,24.0,24.0,1.0,,,,,,,,,,,,,,,
,,,,,,,,,,,,,,,,,,,,,,,,,,,,,,,,,,,,,,,,,,,,pineapple_12s.jpg,0.0,Purple.png,5.0,75,,,,,,,,,,,,,0.0,1.0,0.7393,0.0,25.0,25.0,25.0,1.0,,,,,,,,,,,,,,,
,,,,,,,,,,,,,,,,,,,,,,,,,,,,,,,,,,,,,,,,,,,,stethoscope_01b.jpg,1.0,Red.png,5.0,75,,,,,,,,,,,,,1.0,1.0,1.3999,0.0,26.0,26.0,26.0,1.0,,,,,,,,,,,,,,,
,,,,,,,,,,,,,,,,,,,,,,,,,,,,,,,,,,,,,,,,,,,,pineapple_12s.jpg,1.0,Orange.png,5.0,75,,,,,,,,,,,,,1.0,1.0,0.8073,0.0,27.0,27.0,27.0,1.0,,,,,,,,,,,,,,,
,,,,,,,,,,,,,,,,,,,,,,,,,,,,,,,,,,,,,,,,,,,,air_pump_05s.jpg,0.0,Yellow.png,5.0,75,,,,,,,,,,,,,0.0,1.0,0.7123,0.0,28.0,28.0,28.0,1.0,,,,,,,,,,,,,,,
,,,,,,,,,,,,,,,,,,,,,,,,,,,,,,,,,,,,,,,,,,,,birdcage_08s.jpg,0.0,Green.png,5.0,75,,,,,,,,,,,,,0.0,1.0,0.6065,0.0,29.0,29.0,29.0,1.0,,,,,,,,,,,,,,,
,,,,,,,,,,,,,,,,,,,,,,,,,,,,,,,,,,,,,,,,,,,,kangaroo_02s.jpg,0.0,Blue.png,6.0,75,,,,,,,,,,,,,0.0,1.0,0.8554,0.0,30.0,30.0,30.0,1.0,,,,,,,,,,,,,,,
,,,,,,,,,,,,,,,,,,,,,,,,,,,,,,,,,,,,,,,,,,,,juicer2_06s.jpg,0.0,Purple.png,6.0,75,,,,,,,,,,,,,0.0,1.0,1.0314,0.0,31.0,31.0,31.0,1.0,,,,,,,,,,,,,,,
,,,,,,,,,,,,,,,,,,,,,,,,,,,,,,,,,,,,,,,,,,,,harpoon.jpg,0.0,Red.png,6.0,75,,,,,,,,,,,,,0.0,1.0,0.6403,0.0,32.0,32.0,32.0,1.0,,,,,,,,,,,,,,,
,,,,,,,,,,,,,,,,,,,,,,,,,,,,,,,,,,,,,,,,,,,,mirror_12s.jpg,0.0,Orange.png,6.0,75,,,,,,,,,,,,,0.0,1.0,1.3426,0.0,33.0,33.0,33.0,1.0,,,,,,,,,,,,,,,
,,,,,,,,,,,,,,,,,,,,,,,,,,,,,,,,,,,,,,,,,,,,gear_07s.jpg,0.0,Yellow.png,6.0,75,,,,,,,,,,,,,0.0,1.0,0.592,0.0,34.0,34.0,34.0,1.0,,,,,,,,,,,,,,,
,,,,,,,,,,,,,,,,,,,,,,,,,,,,,,,,,,,,,,,,,,,,timer_03s.jpg,0.0,Green.png,6.0,75,,,,,,,,,,,,,0.0,1.0,0.9899,0.0,35.0,35.0,35.0,1.0,,,,,,,,,,,,,,,
,,,,,,,,,,,,,,,,,,,,,,,,,,,,,,,,,,,,,,,,,,,,,1.0,,,75,,,,,,,,,powder_07s.jpg,gingerbread_man_03s.jpg,,,,,,,,,,,1.0,1.0,1.7556,0.0,0.0,0.0,0.0,1.0,,,,,,,
,,,,,,,,,,,,,,,,,,,,,,,,,,,,,,,,,,,,,,,,,,,,,1.0,,,75,,,,,,,,,air_pump_05s.jpg,juicer2_06s.jpg,,,,,,,,,,,1.0,1.0,1.8714,0.0,1.0,1.0,1.0,1.0,,,,,,,
,,,,,,,,,,,,,,,,,,,,,,,,,,,,,,,,,,,,,,,,,,,,,0.0,,,75,,,,,,,,,crab_16s.jpg,projector_08s.jpg,,,,,,,,,,,1.0,0.0,1.9388,0.0,2.0,2.0,2.0,1.0,,,,,,,
,,,,,,,,,,,,,,,,,,,,,,,,,,,,,,,,,,,,,,,,,,,,,0.0,,,75,,,,,,,,,mirror_12s.jpg,kangaroo_02s.jpg,,,,,,,,,,,0.0,1.0,1.8465,0.0,3.0,3.0,3.0,1.0,,,,,,,
,,,,,,,,,,,,,,,,,,,,,,,,,,,,,,,,,,,,,,,,,,,,,0.0,,,75,,,,,,,,,bowler_hat_10s.jpg,rolling_pin_02s.jpg,,,,,,,,,,,1.0,0.0,1.4973,0.0,4.0,4.0,4.0,1.0,,,,,,,
,,,,,,,,,,,,,,,,,,,,,,,,,,,,,,,,,,,,,,,,,,,,,1.0,,,75,,,,,,,,,eggshell_14s.jpg,meatball_13s.jpg,,,,,,,,,,,1.0,1.0,1.5337,0.0,5.0,5.0,5.0,1.0,,,,,,,
,,,,,,,,,,,,,,,,,,,,,,,,,,,,,,,,,,,,,,,,,,,,,,,,75,,,,,,,,,,,,,,,,,,,,,,,,,,,,,0.0,0.0,0.0,0.0,1.0,newclockpresent_1_1.xlsx,newclock_compare_task_1_1.xlsx
,,,,,,,,,,,,,,,,,,,,,,,,,,,,,,,,,,,,,,,,,,,,trident_07s.jpg,0.0,Blue.png,1.0,75,,,,,,,,,,,,,0.0,1.0,1.9359,0.0,0.0,0.0,0.0,1.0,,,,,,,,,,,,,,,
,,,,,,,,,,,,,,,,,,,,,,,,,,,,,,,,,,,,,,,,,,,,rosary_03s.jpg,0.0,Purple.png,1.0,75,,,,,,,,,,,,,0.0,1.0,1.0124,0.0,1.0,1.0,1.0,1.0,,,,,,,,,,,,,,,
,,,,,,,,,,,,,,,,,,,,,,,,,,,,,,,,,,,,,,,,,,,,toilet_paper_12s.jpg,0.0,Red.png,1.0,75,,,,,,,,,,,,,0.0,1.0,0.6221,0.0,2.0,2.0,2.0,1.0,,,,,,,,,,,,,,,
,,,,,,,,,,,,,,,,,,,,,,,,,,,,,,,,,,,,,,,,,,,,rosary_03s.jpg,1.0,Orange.png,1.0,75,,,,,,,,,,,,,1.0,1.0,0.9573,0.0,3.0,3.0,3.0,1.0,,,,,,,,,,,,,,,
,,,,,,,,,,,,,,,,,,,,,,,,,,,,,,,,,,,,,,,,,,,,toilet_paper_12s.jpg,1.0,Yellow.png,1.0,75,,,,,,,,,,,,,1.0,1.0,0.8406,0.0,4.0,4.0,4.0,1.0,,,,,,,,,,,,,,,
,,,,,,,,,,,,,,,,,,,,,,,,,,,,,,,,,,,,,,,,,,,,potpourri_03s.jpg,0.0,Green.png,1.0,75,,,,,,,,,,,,,0.0,1.0,0.7803,0.0,5.0,5.0,5.0,1.0,,,,,,,,,,,,,,,
,,,,,,,,,,,,,,,,,,,,,,,,,,,,,,,,,,,,,,,,,,,,rocket_02s.jpg,0.0,Blue.png,2.0,75,,,,,,,,,,,,,0.0,1.0,0.7067,0.0,6.0,6.0,6.0,1.0,,,,,,,,,,,,,,,
,,,,,,,,,,,,,,,,,,,,,,,,,,,,,,,,,,,,,,,,,,,,piano_13n.jpg,0.0,Purple.png,2.0,75,,,,,,,,,,,,,0.0,1.0,0.624,0.0,7.0,7.0,7.0,1.0,,,,,,,,,,,,,,,
,,,,,,,,,,,,,,,,,,,,,,,,,,,,,,,,,,,,,,,,,,,,rocket_02s.jpg,1.0,Red.png,2.0,75,,,,,,,,,,,,,1.0,1.0,0.6741,0.0,8.0,8.0,8.0,1.0,,,,,,,,,,,,,,,
,,,,,,,,,,,,,,,,,,,,,,,,,,,,,,,,,,,,,,,,,,,,rocket_02s.jpg,1.0,Orange.png,2.0,75,,,,,,,,,,,,,1.0,1.0,0.807,0.0,9.0,9.0,9.0,1.0,,,,,,,,,,,,,,,
,,,,,,,,,,,,,,,,,,,,,,,,,,,,,,,,,,,,,,,,,,,,umbrella_15s.jpg,0.0,Yellow.png,2.0,75,,,,,,,,,,,,,0.0,1.0,0.9641,0.0,10.0,10.0,10.0,1.0,,,,,,,,,,,,,,,
,,,,,,,,,,,,,,,,,,,,,,,,,,,,,,,,,,,,,,,,,,,,touchpad_11s.jpg,0.0,Green.png,2.0,75,,,,,,,,,,,,,0.0,1.0,0.7407,0.0,11.0,11.0,11.0,1.0,,,,,,,,,,,,,,,
,,,,,,,,,,,,,,,,,,,,,,,,,,,,,,,,,,,,,,,,,,,,rocket_02s.jpg,0.0,Blue.png,3.0,75,,,,,,,,,,,,,0.0,1.0,1.0937,0.0,12.0,12.0,12.0,1.0,,,,,,,,,,,,,,,
,,,,,,,,,,,,,,,,,,,,,,,,,,,,,,,,,,,,,,,,,,,,rocket_02s.jpg,1.0,Purple.png,3.0,75,,,,,,,,,,,,,1.0,1.0,0.9565,0.0,13.0,13.0,13.0,1.0,,,,,,,,,,,,,,,
,,,,,,,,,,,,,,,,,,,,,,,,,,,,,,,,,,,,,,,,,,,,rocket_02s.jpg,1.0,Red.png,3.0,75,,,,,,,,,,,,,1.0,1.0,0.86,0.0,14.0,14.0,14.0,1.0,,,,,,,,,,,,,,,
,,,,,,,,,,,,,,,,,,,,,,,,,,,,,,,,,,,,,,,,,,,,roller_coaster_07s.jpg,0.0,Orange.png,3.0,75,,,,,,,,,,,,,0.0,1.0,1.0951,0.0,15.0,15.0,15.0,1.0,,,,,,,,,,,,,,,
,,,,,,,,,,,,,,,,,,,,,,,,,,,,,,,,,,,,,,,,,,,,torch_02s.jpg,0.0,Yellow.png,3.0,75,,,,,,,,,,,,,0.0,1.0,0.8253,0.0,16.0,16.0,16.0,1.0,,,,,,,,,,,,,,,
,,,,,,,,,,,,,,,,,,,,,,,,,,,,,,,,,,,,,,,,,,,,lion_18s.jpg,0.0,Green.png,3.0,75,,,,,,,,,,,,,0.0,1.0,1.846,0.0,17.0,17.0,17.0,1.0,,,,,,,,,,,,,,,
,,,,,,,,,,,,,,,,,,,,,,,,,,,,,,,,,,,,,,,,,,,,microwave_02s.jpg,0.0,Blue.png,4.0,75,,,,,,,,,,,,,0.0,1.0,0.8965,0.0,18.0,18.0,18.0,1.0,,,,,,,,,,,,,,,
,,,,,,,,,,,,,,,,,,,,,,,,,,,,,,,,,,,,,,,,,,,,denture_03s.jpg,0.0,Purple.png,4.0,75,,,,,,,,,,,,,0.0,1.0,0.7576,0.0,19.0,19.0,19.0,1.0,,,,,,,,,,,,,,,
,,,,,,,,,,,,,,,,,,,,,,,,,,,,,,,,,,,,,,,,,,,,fur_coat_11s.jpg,0.0,Red.png,4.0,75,,,,,,,,,,,,,0.0,1.0,0.9249,0.0,20.0,20.0,20.0,1.0,,,,,,,,,,,,,,,
,,,,,,,,,,,,,,,,,,,,,,,,,,,,,,,,,,,,,,,,,,,,pepper_mill_03s.jpg,0.0,Orange.png,4.0,75,,,,,,,,,,,,,0.0,1.0,0.9403,0.0,21.0,21.0,21.0,1.0,,,,,,,,,,,,,,,
,,,,,,,,,,,,,,,,,,,,,,,,,,,,,,,,,,,,,,,,,,,,antenna_01b.jpg,0.0,Yellow.png,4.0,75,,,,,,,,,,,,,0.0,1.0,0.5147,0.0,22.0,22.0,22.0,1.0,,,,,,,,,,,,,,,
,,,,,,,,,,,,,,,,,,,,,,,,,,,,,,,,,,,,,,,,,,,,pepper_mill_03s.jpg,1.0,Green.png,4.0,75,,,,,,,,,,,,,1.0,1.0,1.1418,0.0,23.0,23.0,23.0,1.0,,,,,,,,,,,,,,,
,,,,,,,,,,,,,,,,,,,,,,,,,,,,,,,,,,,,,,,,,,,,touchpad_11s.jpg,0.0,Blue.png,5.0,75,,,,,,,,,,,,,0.0,1.0,0.9782,0.0,24.0,24.0,24.0,1.0,,,,,,,,,,,,,,,
,,,,,,,,,,,,,,,,,,,,,,,,,,,,,,,,,,,,,,,,,,,,otter_05s.jpg,0.0,Purple.png,5.0,75,,,,,,,,,,,,,0.0,1.0,0.8079,0.0,25.0,25.0,25.0,1.0,,,,,,,,,,,,,,,
,,,,,,,,,,,,,,,,,,,,,,,,,,,,,,,,,,,,,,,,,,,,squirt_gun_03s.jpg,0.0,Red.png,5.0,75,,,,,,,,,,,,,0.0,1.0,0.9252,0.0,26.0,26.0,26.0,1.0,,,,,,,,,,,,,,,
,,,,,,,,,,,,,,,,,,,,,,,,,,,,,,,,,,,,,,,,,,,,otter_05s.jpg,1.0,Orange.png,5.0,75,,,,,,,,,,,,,0.0,0.0,2.444,0.0,27.0,27.0,27.0,1.0,,,,,,,,,,,,,,,
,,,,,,,,,,,,,,,,,,,,,,,,,,,,,,,,,,,,,,,,,,,,touchpad_11s.jpg,1.0,Yellow.png,5.0,75,,,,,,,,,,,,,1.0,1.0,0.6829,0.0,28.0,28.0,28.0,1.0,,,,,,,,,,,,,,,
,,,,,,,,,,,,,,,,,,,,,,,,,,,,,,,,,,,,,,,,,,,,touchpad_11s.jpg,1.0,Green.png,5.0,75,,,,,,,,,,,,,1.0,1.0,0.9283,0.0,29.0,29.0,29.0,1.0,,,,,,,,,,,,,,,
,,,,,,,,,,,,,,,,,,,,,,,,,,,,,,,,,,,,,,,,,,,,kayak_08s.jpg,0.0,Blue.png,6.0,75,,,,,,,,,,,,,0.0,1.0,0.957,0.0,30.0,30.0,30.0,1.0,,,,,,,,,,,,,,,
,,,,,,,,,,,,,,,,,,,,,,,,,,,,,,,,,,,,,,,,,,,,mascara_03s.jpg,0.0,Purple.png,6.0,75,,,,,,,,,,,,,0.0,1.0,0.7936,0.0,31.0,31.0,31.0,1.0,,,,,,,,,,,,,,,
,,,,,,,,,,,,,,,,,,,,,,,,,,,,,,,,,,,,,,,,,,,,ink_08s.jpg,0.0,Red.png,6.0,75,,,,,,,,,,,,,0.0,1.0,0.8568,0.0,32.0,32.0,32.0,1.0,,,,,,,,,,,,,,,
,,,,,,,,,,,,,,,,,,,,,,,,,,,,,,,,,,,,,,,,,,,,kayak_08s.jpg,1.0,Orange.png,6.0,75,,,,,,,,,,,,,1.0,1.0,0.8274,0.0,33.0,33.0,33.0,1.0,,,,,,,,,,,,,,,
,,,,,,,,,,,,,,,,,,,,,,,,,,,,,,,,,,,,,,,,,,,,towel_rack_04s.jpg,0.0,Yellow.png,6.0,75,,,,,,,,,,,,,0.0,1.0,1.2586,0.0,34.0,34.0,34.0,1.0,,,,,,,,,,,,,,,
,,,,,,,,,,,,,,,,,,,,,,,,,,,,,,,,,,,,,,,,,,,,jewel_01b.jpg,0.0,Green.png,6.0,75,,,,,,,,,,,,,0.0,1.0,0.6644,0.0,35.0,35.0,35.0,1.0,,,,,,,,,,,,,,,
,,,,,,,,,,,,,,,,,,,,,,,,,,,,,,,,,,,,,,,,,,,,,1.0,,,75,,,,,,,,,torch_02s.jpg,denture_03s.jpg,,,,,,,,,,,1.0,1.0,1.8449,0.0,0.0,0.0,0.0,1.0,,,,,,,
,,,,,,,,,,,,,,,,,,,,,,,,,,,,,,,,,,,,,,,,,,,,,0.0,,,75,,,,,,,,,towel_rack_04s.jpg,mascara_03s.jpg,,,,,,,,,,,0.0,1.0,1.7813,0.0,1.0,1.0,1.0,1.0,,,,,,,
,,,,,,,,,,,,,,,,,,,,,,,,,,,,,,,,,,,,,,,,,,,,,1.0,,,75,,,,,,,,,piano_13n.jpg,umbrella_15s.jpg,,,,,,,,,,,1.0,1.0,2.3525,0.0,2.0,2.0,2.0,1.0,,,,,,,
,,,,,,,,,,,,,,,,,,,,,,,,,,,,,,,,,,,,,,,,,,,,,0.0,,,75,,,,,,,,,fur_coat_11s.jpg,lion_18s.jpg,,,,,,,,,,,0.0,1.0,1.315,0.0,3.0,3.0,3.0,1.0,,,,,,,
,,,,,,,,,,,,,,,,,,,,,,,,,,,,,,,,,,,,,,,,,,,,,1.0,,,75,,,,,,,,,roller_coaster_07s.jpg,microwave_02s.jpg,,,,,,,,,,,1.0,1.0,1.8036,0.0,4.0,4.0,4.0,1.0,,,,,,,
,,,,,,,,,,,,,,,,,,,,,,,,,,,,,,,,,,,,,,,,,,,,,1.0,,,75,,,,,,,,,ink_08s.jpg,jewel_01b.jpg,,,,,,,,,,,1.0,1.0,1.4492,0.0,5.0,5.0,5.0,1.0,,,,,,,
,,,,,,,,,,,,,,,,,,,,,,,,,,,,,,,,,,,,,,,,,,,,,,,,75,,,,,,,,,,,,,,,,,,,,,,,,,,,,,0.0,1.0,1.0,1.0,1.0,newclockpresent_2_1.xlsx,newclock_compare_task_2_1.xlsx
,,,,,,,,,,,,,,,,,,,,,,,,,,,,,,,,,,,,,,,,,,,,icemaker_10s.jpg,0.0,Blue.png,1.0,75,,,,,,,,,,,,,0.0,1.0,1.1728,0.0,0.0,0.0,0.0,1.0,,,,,,,,,,,,,,,
,,,,,,,,,,,,,,,,,,,,,,,,,,,,,,,,,,,,,,,,,,,,icemaker_10s.jpg,1.0,Purple.png,1.0,75,,,,,,,,,,,,,1.0,1.0,0.725,0.0,1.0,1.0,1.0,1.0,,,,,,,,,,,,,,,
,,,,,,,,,,,,,,,,,,,,,,,,,,,,,,,,,,,,,,,,,,,,tile_08s.jpg,0.0,Red.png,1.0,75,,,,,,,,,,,,,0.0,1.0,0.8456,0.0,2.0,2.0,2.0,1.0,,,,,,,,,,,,,,,
,,,,,,,,,,,,,,,,,,,,,,,,,,,,,,,,,,,,,,,,,,,,fossil_06s.jpg,0.0,Orange.png,1.0,75,,,,,,,,,,,,,0.0,1.0,0.8091,0.0,3.0,3.0,3.0,1.0,,,,,,,,,,,,,,,
,,,,,,,,,,,,,,,,,,,,,,,,,,,,,,,,,,,,,,,,,,,,fossil_06s.jpg,1.0,Yellow.png,1.0,75,,,,,,,,,,,,,1.0,1.0,1.0071,0.0,4.0,4.0,4.0,1.0,,,,,,,,,,,,,,,
,,,,,,,,,,,,,,,,,,,,,,,,,,,,,,,,,,,,,,,,,,,,ravioli_08s.jpg,0.0,Green.png,1.0,75,,,,,,,,,,,,,0.0,1.0,0.8564,0.0,5.0,5.0,5.0,1.0,,,,,,,,,,,,,,,
,,,,,,,,,,,,,,,,,,,,,,,,,,,,,,,,,,,,,,,,,,,,top_hat_11s.jpg,0.0,Blue.png,2.0,75,,,,,,,,,,,,,0.0,1.0,0.6442,0.0,6.0,6.0,6.0,1.0,,,,,,,,,,,,,,,
,,,,,,,,,,,,,,,,,,,,,,,,,,,,,,,,,,,,,,,,,,,,raccoon_02s.jpg,0.0,Purple.png,2.0,75,,,,,,,,,,,,,0.0,1.0,0.8086,0.0,7.0,7.0,7.0,1.0,,,,,,,,,,,,,,,
,,,,,,,,,,,,,,,,,,,,,,,,,,,,,,,,,,,,,,,,,,,,snowman_02s.jpg,0.0,Red.png,2.0,75,,,,,,,,,,,,,0.0,1.0,0.9399,0.0,8.0,8.0,8.0,1.0,,,,,,,,,,,,,,,
,,,,,,,,,,,,,,,,,,,,,,,,,,,,,,,,,,,,,,,,,,,,peach_04s.jpg,0.0,Orange.png,2.0,75,,,,,,,,,,,,,0.0,1.0,0.6806,0.0,9.0,9.0,9.0,1.0,,,,,,,,,,,,,,,
,,,,,,,,,,,,,,,,,,,,,,,,,,,,,,,,,,,,,,,,,,,,beard_16s.jpg,0.0,Yellow.png,2.0,75,,,,,,,,,,,,,0.0,1.0,0.8241,0.0,10.0,10.0,10.0,1.0,,,,,,,,,,,,,,,
,,,,,,,,,,,,,,,,,,,,,,,,,,,,,,,,,,,,,,,,,,,,rollerskate_03s.jpg,0.0,Green.png,2.0,75,,,,,,,,,,,,,0.0,1.0,1.0444,0.0,11.0,11.0,11.0,1.0,,,,,,,,,,,,,,,
,,,,,,,,,,,,,,,,,,,,,,,,,,,,,,,,,,,,,,,,,,,,mango_09s.jpg,0.0,Blue.png,3.0,75,,,,,,,,,,,,,0.0,1.0,0.8732,0.0,12.0,12.0,12.0,1.0,,,,,,,,,,,,,,,
,,,,,,,,,,,,,,,,,,,,,,,,,,,,,,,,,,,,,,,,,,,,mango_09s.jpg,1.0,Purple.png,3.0,75,,,,,,,,,,,,,1.0,1.0,0.8791,0.0,13.0,13.0,13.0,1.0,,,,,,,,,,,,,,,
,,,,,,,,,,,,,,,,,,,,,,,,,,,,,,,,,,,,,,,,,,,,magnet_03s.jpg,0.0,Red.png,3.0,75,,,,,,,,,,,,,0.0,1.0,0.6876,0.0,14.0,14.0,14.0,1.0,,,,,,,,,,,,,,,
,,,,,,,,,,,,,,,,,,,,,,,,,,,,,,,,,,,,,,,,,,,,mango_09s.jpg,1.0,Orange.png,3.0,75,,,,,,,,,,,,,1.0,1.0,0.9471,0.0,15.0,15.0,15.0,1.0,,,,,,,,,,,,,,,
,,,,,,,,,,,,,,,,,,,,,,,,,,,,,,,,,,,,,,,,,,,,mango_09s.jpg,1.0,Yellow.png,3.0,75,,,,,,,,,,,,,1.0,1.0,0.8601,0.0,16.0,16.0,16.0,1.0,,,,,,,,,,,,,,,
,,,,,,,,,,,,,,,,,,,,,,,,,,,,,,,,,,,,,,,,,,,,mango_09s.jpg,1.0,Green.png,3.0,75,,,,,,,,,,,,,1.0,1.0,0.8579,0.0,17.0,17.0,17.0,1.0,,,,,,,,,,,,,,,
,,,,,,,,,,,,,,,,,,,,,,,,,,,,,,,,,,,,,,,,,,,,punch2_09s.jpg,0.0,Blue.png,4.0,75,,,,,,,,,,,,,0.0,1.0,0.792,0.0,18.0,18.0,18.0,1.0,,,,,,,,,,,,,,,
,,,,,,,,,,,,,,,,,,,,,,,,,,,,,,,,,,,,,,,,,,,,jelly_bean_06s.jpg,0.0,Purple.png,4.0,75,,,,,,,,,,,,,0.0,1.0,0.4905,0.0,19.0,19.0,19.0,1.0,,,,,,,,,,,,,,,
,,,,,,,,,,,,,,,,,,,,,,,,,,,,,,,,,,,,,,,,,,,,punch2_09s.jpg,1.0,Red.png,4.0,75,,,,,,,,,,,,,1.0,1.0,0.9763,0.0,20.0,20.0,20.0,1.0,,,,,,,,,,,,,,,
,,,,,,,,,,,,,,,,,,,,,,,,,,,,,,,,,,,,,,,,,,,,jelly_bean_06s.jpg,1.0,Orange.png,4.0,75,,,,,,,,,,,,,1.0,1.0,0.8066,0.0,21.0,21.0,21.0,1.0,,,,,,,,,,,,,,,
,,,,,,,,,,,,,,,,,,,,,,,,,,,,,,,,,,,,,,,,,,,,jelly_bean_06s.jpg,1.0,Yellow.png,4.0,75,,,,,,,,,,,,,1.0,1.0,0.8254,0.0,22.0,22.0,22.0,1.0,,,,,,,,,,,,,,,
,,,,,,,,,,,,,,,,,,,,,,,,,,,,,,,,,,,,,,,,,,,,typewriter_11s.jpg,0.0,Green.png,4.0,75,,,,,,,,,,,,,0.0,1.0,0.8035,0.0,23.0,23.0,23.0,1.0,,,,,,,,,,,,,,,
,,,,,,,,,,,,,,,,,,,,,,,,,,,,,,,,,,,,,,,,,,,,icemaker_10s.jpg,0.0,Blue.png,5.0,75,,,,,,,,,,,,,0.0,1.0,1.3749,0.0,24.0,24.0,24.0,1.0,,,,,,,,,,,,,,,
,,,,,,,,,,,,,,,,,,,,,,,,,,,,,,,,,,,,,,,,,,,,typewriter_11s.jpg,0.0,Purple.png,5.0,75,,,,,,,,,,,,,0.0,1.0,1.3916,0.0,25.0,25.0,25.0,1.0,,,,,,,,,,,,,,,
,,,,,,,,,,,,,,,,,,,,,,,,,,,,,,,,,,,,,,,,,,,,key_07s.jpg,0.0,Red.png,5.0,75,,,,,,,,,,,,,0.0,1.0,0.6576,0.0,26.0,26.0,26.0,1.0,,,,,,,,,,,,,,,
,,,,,,,,,,,,,,,,,,,,,,,,,,,,,,,,,,,,,,,,,,,,foam_03s.jpg,0.0,Orange.png,5.0,75,,,,,,,,,,,,,0.0,1.0,1.0461,0.0,27.0,27.0,27.0,1.0,,,,,,,,,,,,,,,
,,,,,,,,,,,,,,,,,,,,,,,,,,,,,,,,,,,,,,,,,,,,candy_cane_06s.jpg,0.0,Yellow.png,5.0,75,,,,,,,,,,,,,0.0,1.0,0.7246,0.0,28.0,28.0,28.0,1.0,,,,,,,,,,,,,,,
,,,,,,,,,,,,,,,,,,,,,,,,,,,,,,,,,,,,,,,,,,,,puffin_19s.jpg,0.0,Green.png,5.0,75,,,,,,,,,,,,,0.0,1.0,0.9244,0.0,29.0,29.0,29.0,1.0,,,,,,,,,,,,,,,
,,,,,,,,,,,,,,,,,,,,,,,,,,,,,,,,,,,,,,,,,,,,outlet_10s.jpg,0.0,Blue.png,6.0,75,,,,,,,,,,,,,0.0,1.0,0.6985,0.0,30.0,30.0,30.0,1.0,,,,,,,,,,,,,,,
,,,,,,,,,,,,,,,,,,,,,,,,,,,,,,,,,,,,,,,,,,,,lasagna_06s.jpg,0.0,Purple.png,6.0,75,,,,,,,,,,,,,0.0,1.0,0.9556,0.0,31.0,31.0,31.0,1.0,,,,,,,,,,,,,,,
,,,,,,,,,,,,,,,,,,,,,,,,,,,,,,,,,,,,,,,,,,,,lasagna_06s.jpg,1.0,Red.png,6.0,75,,,,,,,,,,,,,1.0,1.0,0.9062,0.0,32.0,32.0,32.0,1.0,,,,,,,,,,,,,,,
,,,,,,,,,,,,,,,,,,,,,,,,,,,,,,,,,,,,,,,,,,,,marker_05s.jpg,0.0,Orange.png,6.0,75,,,,,,,,,,,,,0.0,1.0,0.8056,0.0,33.0,33.0,33.0,1.0,,,,,,,,,,,,,,,
,,,,,,,,,,,,,,,,,,,,,,,,,,,,,,,,,,,,,,,,,,,,cushion_08s.jpg,0.0,Yellow.png,6.0,75,,,,,,,,,,,,,0.0,1.0,0.8414,0.0,34.0,34.0,34.0,1.0,,,,,,,,,,,,,,,
,,,,,,,,,,,,,,,,,,,,,,,,,,,,,,,,,,,,,,,,,,,,badge_03s.jpg,0.0,Green.png,6.0,75,,,,,,,,,,,,,0.0,1.0,0.6245,0.0,35.0,35.0,35.0,1.0,,,,,,,,,,,,,,,
,,,,,,,,,,,,,,,,,,,,,,,,,,,,,,,,,,,,,,,,,,,,,0.0,,,75,,,,,,,,,beard_16s.jpg,raccoon_02s.jpg,,,,,,,,,,,0.0,1.0,2.4982,0.0,0.0,0.0,0.0,1.0,,,,,,,
,,,,,,,,,,,,,,,,,,,,,,,,,,,,,,,,,,,,,,,,,,,,,0.0,,,75,,,,,,,,,peach_04s.jpg,top_hat_11s.jpg,,,,,,,,,,,0.0,1.0,1.3298,0.0,1.0,1.0,1.0,1.0,,,,,,,
,,,,,,,,,,,,,,,,,,,,,,,,,,,,,,,,,,,,,,,,,,,,,1.0,,,75,,,,,,,,,rollerskate_03s.jpg,magnet_03s.jpg,,,,,,,,,,,0.0,0.0,2.7539,0.0,2.0,2.0,2.0,1.0,,,,,,,
,,,,,,,,,,,,,,,,,,,,,,,,,,,,,,,,,,,,,,,,,,,,,1.0,,,75,,,,,,,,,foam_03s.jpg,outlet_10s.jpg,,,,,,,,,,,0.0,0.0,1.3051,0.0,3.0,3.0,3.0,1.0,,,,,,,
,,,,,,,,,,,,,,,,,,,,,,,,,,,,,,,,,,,,,,,,,,,,,0.0,,,75,,,,,,,,,snowman_02s.jpg,ravioli_08s.jpg,,,,,,,,,,,1.0,0.0,1.3982,0.0,4.0,4.0,4.0,1.0,,,,,,,
,,,,,,,,,,,,,,,,,,,,,,,,,,,,,,,,,,,,,,,,,,,,,0.0,,,75,,,,,,,,,puffin_19s.jpg,key_07s.jpg,,,,,,,,,,,1.0,0.0,2.1164,0.0,5.0,5.0,5.0,1.0,,,,,,,
,,,,,,,,,,,,,,,,,,,,,,,,,,,,,,,,,,,,,,,,,,,,,,,,75,,,,,,,,,,,,,,,,,,,,,,,,,,,,,0.0,2.0,2.0,2.0,1.0,newclockpresent_3_1.xlsx,newclock_compare_task_3_1.xlsx
,,,,,,,,,,,,,,,,,,,,,,,,,,,,,,,,,,,,,,,,,,,,lollipop_08s.jpg,0.0,Blue.png,1.0,75,,,,,,,,,,,,,0.0,1.0,1.4711,0.0,0.0,0.0,0.0,1.0,,,,,,,,,,,,,,,
,,,,,,,,,,,,,,,,,,,,,,,,,,,,,,,,,,,,,,,,,,,,keyboard_05s.jpg,0.0,Purple.png,1.0,75,,,,,,,,,,,,,0.0,1.0,0.5576,0.0,1.0,1.0,1.0,1.0,,,,,,,,,,,,,,,
,,,,,,,,,,,,,,,,,,,,,,,,,,,,,,,,,,,,,,,,,,,,pomegranate_04s.jpg,0.0,Red.png,1.0,75,,,,,,,,,,,,,0.0,1.0,0.9546,0.0,2.0,2.0,2.0,1.0,,,,,,,,,,,,,,,
,,,,,,,,,,,,,,,,,,,,,,,,,,,,,,,,,,,,,,,,,,,,olive_05s.jpg,0.0,Orange.png,1.0,75,,,,,,,,,,,,,0.0,1.0,0.6207,0.0,3.0,3.0,3.0,1.0,,,,,,,,,,,,,,,
,,,,,,,,,,,,,,,,,,,,,,,,,,,,,,,,,,,,,,,,,,,,hummingbird_05s.jpg,0.0,Yellow.png,1.0,75,,,,,,,,,,,,,0.0,1.0,0.8052,0.0,4.0,4.0,4.0,1.0,,,,,,,,,,,,,,,
,,,,,,,,,,,,,,,,,,,,,,,,,,,,,,,,,,,,,,,,,,,,cucumber_07s.jpg,0.0,Green.png,1.0,75,,,,,,,,,,,,,0.0,1.0,1.0096,0.0,5.0,5.0,5.0,1.0,,,,,,,,,,,,,,,
,,,,,,,,,,,,,,,,,,,,,,,,,,,,,,,,,,,,,,,,,,,,olive_05s.jpg,0.0,Blue.png,2.0,75,,,,,,,,,,,,,0.0,1.0,1.1099,0.0,6.0,6.0,6.0,1.0,,,,,,,,,,,,,,,
,,,,,,,,,,,,,,,,,,,,,,,,,,,,,,,,,,,,,,,,,,,,pinwheel_06s.jpg,0.0,Purple.png,2.0,75,,,,,,,,,,,,,0.0,1.0,0.6745,0.0,7.0,7.0,7.0,1.0,,,,,,,,,,,,,,,
,,,,,,,,,,,,,,,,,,,,,,,,,,,,,,,,,,,,,,,,,,,,olive_05s.jpg,1.0,Red.png,2.0,75,,,,,,,,,,,,,1.0,1.0,1.1299,0.0,8.0,8.0,8.0,1.0,,,,,,,,,,,,,,,
,,,,,,,,,,,,,,,,,,,,,,,,,,,,,,,,,,,,,,,,,,,,orchid_01b.jpg,0.0,Orange.png,2.0,75,,,,,,,,,,,,,0.0,1.0,0.8402,0.0,9.0,9.0,9.0,1.0,,,,,,,,,,,,,,,
,,,,,,,,,,,,,,,,,,,,,,,,,,,,,,,,,,,,,,,,,,,,olive_05s.jpg,1.0,Yellow.png,2.0,75,,,,,,,,,,,,,1.0,1.0,1.1232,0.0,10.0,10.0,10.0,1.0,,,,,,,,,,,,,,,
,,,,,,,,,,,,,,,,,,,,,,,,,,,,,,,,,,,,,,,,,,,,lectern_08s.jpg,0.0,Green.png,2.0,75,,,,,,,,,,,,,0.0,1.0,1.1004,0.0,11.0,11.0,11.0,1.0,,,,,,,,,,,,,,,
,,,,,,,,,,,,,,,,,,,,,,,,,,,,,,,,,,,,,,,,,,,,margarita_03s.jpg,0.0,Blue.png,3.0,75,,,,,,,,,,,,,0.0,1.0,0.8106,0.0,12.0,12.0,12.0,1.0,,,,,,,,,,,,,,,
,,,,,,,,,,,,,,,,,,,,,,,,,,,,,,,,,,,,,,,,,,,,margarita_03s.jpg,1.0,Purple.png,3.0,75,,,,,,,,,,,,,1.0,1.0,0.8645,0.0,13.0,13.0,13.0,1.0,,,,,,,,,,,,,,,
,,,,,,,,,,,,,,,,,,,,,,,,,,,,,,,,,,,,,,,,,,,,swan_11s.jpg,0.0,Red.png,3.0,75,,,,,,,,,,,,,0.0,1.0,0.5885,0.0,14.0,14.0,14.0,1.0,,,,,,,,,,,,,,,
,,,,,,,,,,,,,,,,,,,,,,,,,,,,,,,,,,,,,,,,,,,,tripod_01b.jpg,0.0,Orange.png,3.0,75,,,,,,,,,,,,,0.0,1.0,0.7565,0.0,15.0,15.0,15.0,1.0,,,,,,,,,,,,,,,
,,,,,,,,,,,,,,,,,,,,,,,,,,,,,,,,,,,,,,,,,,,,mop_08s.jpg,0.0,Yellow.png,3.0,75,,,,,,,,,,,,,0.0,1.0,0.8425,0.0,16.0,16.0,16.0,1.0,,,,,,,,,,,,,,,
,,,,,,,,,,,,,,,,,,,,,,,,,,,,,,,,,,,,,,,,,,,,plaster_cast_13s.jpg,0.0,Green.png,3.0,75,,,,,,,,,,,,,0.0,1.0,1.3772,0.0,17.0,17.0,17.0,1.0,,,,,,,,,,,,,,,
,,,,,,,,,,,,,,,,,,,,,,,,,,,,,,,,,,,,,,,,,,,,gas_mask_11s.jpg,0.0,Blue.png,4.0,75,,,,,,,,,,,,,0.0,1.0,1.0069,0.0,18.0,18.0,18.0,1.0,,,,,,,,,,,,,,,
,,,,,,,,,,,,,,,,,,,,,,,,,,,,,,,,,,,,,,,,,,,,tinsel_12s.jpg,0.0,Purple.png,4.0,75,,,,,,,,,,,,,0.0,1.0,0.8584,0.0,19.0,19.0,19.0,1.0,,,,,,,,,,,,,,,
,,,,,,,,,,,,,,,,,,,,,,,,,,,,,,,,,,,,,,,,,,,,smokingpipe.jpg,0.0,Red.png,4.0,75,,,,,,,,,,,,,0.0,1.0,0.9069,0.0,20.0,20.0,20.0,1.0,,,,,,,,,,,,,,,
,,,,,,,,,,,,,,,,,,,,,,,,,,,,,,,,,,,,,,,,,,,,iron_13s.jpg,0.0,Orange.png,4.0,75,,,,,,,,,,,,,0.0,1.0,0.5728,0.0,21.0,21.0,21.0,1.0,,,,,,,,,,,,,,,
,,,,,,,,,,,,,,,,,,,,,,,,,,,,,,,,,,,,,,,,,,,,iron_13s.jpg,1.0,Yellow.png,4.0,75,,,,,,,,,,,,,1.0,1.0,1.0782,0.0,22.0,22.0,22.0,1.0,,,,,,,,,,,,,,,
,,,,,,,,,,,,,,,,,,,,,,,,,,,,,,,,,,,,,,,,,,,,iron_13s.jpg,1.0,Green.png,4.0,75,,,,,,,,,,,,,1.0,1.0,0.9817,0.0,23.0,23.0,23.0,1.0,,,,,,,,,,,,,,,
,,,,,,,,,,,,,,,,,,,,,,,,,,,,,,,,,,,,,,,,,,,,rhubarb_03s.jpg,0.0,Blue.png,5.0,75,,,,,,,,,,,,,0.0,1.0,0.8731,0.0,24.0,24.0,24.0,1.0,,,,,,,,,,,,,,,
,,,,,,,,,,,,,,,,,,,,,,,,,,,,,,,,,,,,,,,,,,,,tambourine_06s.jpg,0.0,Purple.png,5.0,75,,,,,,,,,,,,,0.0,1.0,0.6246,0.0,25.0,25.0,25.0,1.0,,,,,,,,,,,,,,,
,,,,,,,,,,,,,,,,,,,,,,,,,,,,,,,,,,,,,,,,,,,,tambourine_06s.jpg,1.0,Red.png,5.0,75,,,,,,,,,,,,,1.0,1.0,0.8119,0.0,26.0,26.0,26.0,1.0,,,,,,,,,,,,,,,
,,,,,,,,,,,,,,,,,,,,,,,,,,,,,,,,,,,,,,,,,,,,mousetrap_15n.jpg,0.0,Orange.png,5.0,75,,,,,,,,,,,,,0.0,1.0,1.0567,0.0,27.0,27.0,27.0,1.0,,,,,,,,,,,,,,,
,,,,,,,,,,,,,,,,,,,,,,,,,,,,,,,,,,,,,,,,,,,,ticktacktoe_08s.jpg,0.0,Yellow.png,5.0,75,,,,,,,,,,,,,0.0,1.0,0.9776,0.0,28.0,28.0,28.0,1.0,,,,,,,,,,,,,,,
,,,,,,,,,,,,,,,,,,,,,,,,,,,,,,,,,,,,,,,,,,,,sunflower_17s.jpg,0.0,Green.png,5.0,75,,,,,,,,,,,,,0.0,1.0,0.7137,0.0,29.0,29.0,29.0,1.0,,,,,,,,,,,,,,,
,,,,,,,,,,,,,,,,,,,,,,,,,,,,,,,,,,,,,,,,,,,,onion_10s.jpg,0.0,Blue.png,6.0,75,,,,,,,,,,,,,0.0,1.0,1.0418,0.0,30.0,30.0,30.0,1.0,,,,,,,,,,,,,,,
,,,,,,,,,,,,,,,,,,,,,,,,,,,,,,,,,,,,,,,,,,,,ant_12s.jpg,0.0,Purple.png,6.0,75,,,,,,,,,,,,,0.0,1.0,0.8046,0.0,31.0,31.0,31.0,1.0,,,,,,,,,,,,,,,
,,,,,,,,,,,,,,,,,,,,,,,,,,,,,,,,,,,,,,,,,,,,insole_11s.jpg,0.0,Red.png,6.0,75,,,,,,,,,,,,,0.0,1.0,0.7593,0.0,32.0,32.0,32.0,1.0,,,,,,,,,,,,,,,
,,,,,,,,,,,,,,,,,,,,,,,,,,,,,,,,,,,,,,,,,,,,keyboard_05s.jpg,0.0,Orange.png,6.0,75,,,,,,,,,,,,,0.0,1.0,0.7424,0.0,33.0,33.0,33.0,1.0,,,,,,,,,,,,,,,
,,,,,,,,,,,,,,,,,,,,,,,,,,,,,,,,,,,,,,,,,,,,aluminum_foil_08s.jpg,0.0,Yellow.png,6.0,75,,,,,,,,,,,,,0.0,1.0,0.7897,0.0,34.0,34.0,34.0,1.0,,,,,,,,,,,,,,,
,,,,,,,,,,,,,,,,,,,,,,,,,,,,,,,,,,,,,,,,,,,,money_07s.jpg,0.0,Green.png,6.0,75,,,,,,,,,,,,,0.0,1.0,0.7299,0.0,35.0,35.0,35.0,1.0,,,,,,,,,,,,,,,
,,,,,,,,,,,,,,,,,,,,,,,,,,,,,,,,,,,,,,,,,,,,,0.0,,,75,,,,,,,,,pinwheel_06s.jpg,hummingbird_05s.jpg,,,,,,,,,,,1.0,0.0,1.511,0.0,0.0,0.0,0.0,1.0,,,,,,,
,,,,,,,,,,,,,,,,,,,,,,,,,,,,,,,,,,,,,,,,,,,,,1.0,,,75,,,,,,,,,mop_08s.jpg,tinsel_12s.jpg,,,,,,,,,,,0.0,0.0,2.3387,0.0,1.0,1.0,1.0,1.0,,,,,,,
,,,,,,,,,,,,,,,,,,,,,,,,,,,,,,,,,,,,,,,,,,,,,1.0,,,75,,,,,,,,,pomegranate_04s.jpg,cucumber_07s.jpg,,,,,,,,,,,1.0,1.0,1.4526,0.0,2.0,2.0,2.0,1.0,,,,,,,
,,,,,,,,,,,,,,,,,,,,,,,,,,,,,,,,,,,,,,,,,,,,,0.0,,,75,,,,,,,,,aluminum_foil_08s.jpg,ant_12s.jpg,,,,,,,,,,,1.0,0.0,1.986,0.0,3.0,3.0,3.0,1.0,,,,,,,
,,,,,,,,,,,,,,,,,,,,,,,,,,,,,,,,,,,,,,,,,,,,,0.0,,,75,,,,,,,,,gas_mask_11s.jpg,tripod_01b.jpg,,,,,,,,,,,1.0,0.0,1.9242,0.0,4.0,4.0,4.0,1.0,,,,,,,
,,,,,,,,,,,,,,,,,,,,,,,,,,,,,,,,,,,,,,,,,,,,,0.0,,,75,,,,,,,,,mousetrap_15n.jpg,rhubarb_03s.jpg,,,,,,,,,,,1.0,0.0,1.6343,0.0,5.0,5.0,5.0,1.0,,,,,,,
,,,,,,,,,,,,,,,,,,,,,,,,,,,,,,,,,,,,,,,,,,,,,,,,75,,,,,,,,,,,,,,,,,,,,,,,,,,,,,0.0,3.0,3.0,3.0,1.0,newclockpresent_4_1.xlsx,newclock_compare_task_4_1.xlsx
,,,,,,,,,,,,,,,,,,,,,,,,,,,,,,,,,,,,,,,,,,,,jalapeno_15s.jpg,0.0,Blue.png,1.0,75,,,,,,,,,,,,,0.0,1.0,1.3307,0.0,0.0,0.0,0.0,1.0,,,,,,,,,,,,,,,
,,,,,,,,,,,,,,,,,,,,,,,,,,,,,,,,,,,,,,,,,,,,pincushion_10s.jpg,0.0,Purple.png,1.0,75,,,,,,,,,,,,,0.0,1.0,0.8997,0.0,1.0,1.0,1.0,1.0,,,,,,,,,,,,,,,
,,,,,,,,,,,,,,,,,,,,,,,,,,,,,,,,,,,,,,,,,,,,fondue_07s.jpg,0.0,Red.png,1.0,75,,,,,,,,,,,,,0.0,1.0,0.8918,0.0,2.0,2.0,2.0,1.0,,,,,,,,,,,,,,,
,,,,,,,,,,,,,,,,,,,,,,,,,,,,,,,,,,,,,,,,,,,,safety_pin_02s.jpg,0.0,Orange.png,1.0,75,,,,,,,,,,,,,0.0,1.0,0.6242,0.0,3.0,3.0,3.0,1.0,,,,,,,,,,,,,,,
,,,,,,,,,,,,,,,,,,,,,,,,,,,,,,,,,,,,,,,,,,,,turf_03s.jpg,0.0,Yellow.png,1.0,75,,,,,,,,,,,,,0.0,1.0,0.8316,0.0,4.0,4.0,4.0,1.0,,,,,,,,,,,,,,,
,,,,,,,,,,,,,,,,,,,,,,,,,,,,,,,,,,,,,,,,,,,,jalapeno_15s.jpg,1.0,Green.png,1.0,75,,,,,,,,,,,,,1.0,1.0,1.7247,0.0,5.0,5.0,5.0,1.0,,,,,,,,,,,,,,,
,,,,,,,,,,,,,,,,,,,,,,,,,,,,,,,,,,,,,,,,,,,,jalapeno_15s.jpg,0.0,Blue.png,2.0,75,,,,,,,,,,,,,0.0,1.0,1.164,0.0,6.0,6.0,6.0,1.0,,,,,,,,,,,,,,,
,,,,,,,,,,,,,,,,,,,,,,,,,,,,,,,,,,,,,,,,,,,,jalapeno_15s.jpg,1.0,Purple.png,2.0,75,,,,,,,,,,,,,1.0,1.0,1.5932,0.0,7.0,7.0,7.0,1.0,,,,,,,,,,,,,,,
,,,,,,,,,,,,,,,,,,,,,,,,,,,,,,,,,,,,,,,,,,,,spoon02a.jpg,0.0,Red.png,2.0,75,,,,,,,,,,,,,0.0,1.0,1.3447,0.0,8.0,8.0,8.0,1.0,,,,,,,,,,,,,,,
,,,,,,,,,,,,,,,,,,,,,,,,,,,,,,,,,,,,,,,,,,,,puppet_01b.jpg,0.0,Orange.png,2.0,75,,,,,,,,,,,,,0.0,1.0,1.1488,0.0,9.0,9.0,9.0,1.0,,,,,,,,,,,,,,,
,,,,,,,,,,,,,,,,,,,,,,,,,,,,,,,,,,,,,,,,,,,,jalapeno_15s.jpg,1.0,Yellow.png,2.0,75,,,,,,,,,,,,,1.0,1.0,1.3611,0.0,10.0,10.0,10.0,1.0,,,,,,,,,,,,,,,
,,,,,,,,,,,,,,,,,,,,,,,,,,,,,,,,,,,,,,,,,,,,jalapeno_15s.jpg,1.0,Green.png,2.0,75,,,,,,,,,,,,,1.0,1.0,0.7899,0.0,11.0,11.0,11.0,1.0,,,,,,,,,,,,,,,
,,,,,,,,,,,,,,,,,,,,,,,,,,,,,,,,,,,,,,,,,,,,popcorn_09s.jpg,0.0,Blue.png,3.0,75,,,,,,,,,,,,,0.0,1.0,1.0094,0.0,12.0,12.0,12.0,1.0,,,,,,,,,,,,,,,
,,,,,,,,,,,,,,,,,,,,,,,,,,,,,,,,,,,,,,,,,,,,popcorn_09s.jpg,1.0,Purple.png,3.0,75,,,,,,,,,,,,,1.0,1.0,1.3401,0.0,13.0,13.0,13.0,1.0,,,,,,,,,,,,,,,
,,,,,,,,,,,,,,,,,,,,,,,,,,,,,,,,,,,,,,,,,,,,swordfish_05s.jpg,0.0,Red.png,3.0,75,,,,,,,,,,,,,0.0,1.0,0.6222,0.0,14.0,14.0,14.0,1.0,,,,,,,,,,,,,,,
,,,,,,,,,,,,,,,,,,,,,,,,,,,,,,,,,,,,,,,,,,,,popcorn_09s.jpg,1.0,Orange.png,3.0,75,,,,,,,,,,,,,1.0,1.0,1.0498,0.0,15.0,15.0,15.0,1.0,,,,,,,,,,,,,,,
,,,,,,,,,,,,,,,,,,,,,,,,,,,,,,,,,,,,,,,,,,,,police_car_01s.jpg,0.0,Yellow.png,3.0,75,,,,,,,,,,,,,0.0,1.0,1.0591,0.0,16.0,16.0,16.0,1.0,,,,,,,,,,,,,,,
,,,,,,,,,,,,,,,,,,,,,,,,,,,,,,,,,,,,,,,,,,,,ginger_09s.jpg,0.0,Green.png,3.0,75,,,,,,,,,,,,,0.0,1.0,0.9893,0.0,17.0,17.0,17.0,1.0,,,,,,,,,,,,,,,
,,,,,,,,,,,,,,,,,,,,,,,,,,,,,,,,,,,,,,,,,,,,cap_05s.jpg,0.0,Blue.png,4.0,75,,,,,,,,,,,,,0.0,1.0,1.1579,0.0,18.0,18.0,18.0,1.0,,,,,,,,,,,,,,,
,,,,,,,,,,,,,,,,,,,,,,,,,,,,,,,,,,,,,,,,,,,,ice-cream_cone_06s.jpg,0.0,Purple.png,4.0,75,,,,,,,,,,,,,0.0,1.0,1.275,0.0,19.0,19.0,19.0,1.0,,,,,,,,,,,,,,,
,,,,,,,,,,,,,,,,,,,,,,,,,,,,,,,,,,,,,,,,,,,,purse_05s.jpg,0.0,Red.png,4.0,75,,,,,,,,,,,,,0.0,1.0,0.811,0.0,20.0,20.0,20.0,1.0,,,,,,,,,,,,,,,
,,,,,,,,,,,,,,,,,,,,,,,,,,,,,,,,,,,,,,,,,,,,squirrel_02s.jpg,0.0,Orange.png,4.0,75,,,,,,,,,,,,,0.0,1.0,0.6624,0.0,21.0,21.0,21.0,1.0,,,,,,,,,,,,,,,
,,,,,,,,,,,,,,,,,,,,,,,,,,,,,,,,,,,,,,,,,,,,cap_05s.jpg,1.0,Yellow.png,4.0,75,,,,,,,,,,,,,1.0,1.0,0.958,0.0,22.0,22.0,22.0,1.0,,,,,,,,,,,,,,,
,,,,,,,,,,,,,,,,,,,,,,,,,,,,,,,,,,,,,,,,,,,,pie_08s.jpg,0.0,Green.png,4.0,75,,,,,,,,,,,,,0.0,1.0,1.089,0.0,23.0,23.0,23.0,1.0,,,,,,,,,,,,,,,
,,,,,,,,,,,,,,,,,,,,,,,,,,,,,,,,,,,,,,,,,,,,thread_08s.jpg,0.0,Blue.png,5.0,75,,,,,,,,,,,,,0.0,1.0,0.9752,0.0,24.0,24.0,24.0,1.0,,,,,,,,,,,,,,,
,,,,,,,,,,,,,,,,,,,,,,,,,,,,,,,,,,,,,,,,,,,,punch1_10s.jpg,0.0,Purple.png,5.0,75,,,,,,,,,,,,,0.0,1.0,0.8901,0.0,25.0,25.0,25.0,1.0,,,,,,,,,,,,,,,
,,,,,,,,,,,,,,,,,,,,,,,,,,,,,,,,,,,,,,,,,,,,cereal_04s.jpg,0.0,Red.png,5.0,75,,,,,,,,,,,,,0.0,1.0,0.5883,0.0,26.0,26.0,26.0,1.0,,,,,,,,,,,,,,,
,,,,,,,,,,,,,,,,,,,,,,,,,,,,,,,,,,,,,,,,,,,,espresso_01b.jpg,0.0,Orange.png,5.0,75,,,,,,,,,,,,,0.0,1.0,0.8737,0.0,27.0,27.0,27.0,1.0,,,,,,,,,,,,,,,
,,,,,,,,,,,,,,,,,,,,,,,,,,,,,,,,,,,,,,,,,,,,cereal_04s.jpg,1.0,Yellow.png,5.0,75,,,,,,,,,,,,,1.0,1.0,1.9619,0.0,28.0,28.0,28.0,1.0,,,,,,,,,,,,,,,
,,,,,,,,,,,,,,,,,,,,,,,,,,,,,,,,,,,,,,,,,,,,cereal_04s.jpg,1.0,Green.png,5.0,75,,,,,,,,,,,,,1.0,1.0,0.9449,0.0,29.0,29.0,29.0,1.0,,,,,,,,,,,,,,,
,,,,,,,,,,,,,,,,,,,,,,,,,,,,,,,,,,,,,,,,,,,,tube_top_03s.jpg,0.0,Blue.png,6.0,75,,,,,,,,,,,,,0.0,1.0,1.5608,0.0,30.0,30.0,30.0,1.0,,,,,,,,,,,,,,,
,,,,,,,,,,,,,,,,,,,,,,,,,,,,,,,,,,,,,,,,,,,,pepper2_21s.jpg,0.0,Purple.png,6.0,75,,,,,,,,,,,,,0.0,1.0,0.9069,0.0,31.0,31.0,31.0,1.0,,,,,,,,,,,,,,,
,,,,,,,,,,,,,,,,,,,,,,,,,,,,,,,,,,,,,,,,,,,,jersey_02s.jpg,0.0,Red.png,6.0,75,,,,,,,,,,,,,0.0,1.0,0.7247,0.0,32.0,32.0,32.0,1.0,,,,,,,,,,,,,,,
,,,,,,,,,,,,,,,,,,,,,,,,,,,,,,,,,,,,,,,,,,,,mussel_11s.jpg,0.0,Orange.png,6.0,75,,,,,,,,,,,,,0.0,1.0,0.586,0.0,33.0,33.0,33.0,1.0,,,,,,,,,,,,,,,
,,,,,,,,,,,,,,,,,,,,,,,,,,,,,,,,,,,,,,,,,,,,toaster_03s.jpg,0.0,Yellow.png,6.0,75,,,,,,,,,,,,,0.0,1.0,0.5909,0.0,34.0,34.0,34.0,1.0,,,,,,,,,,,,,,,
,,,,,,,,,,,,,,,,,,,,,,,,,,,,,,,,,,,,,,,,,,,,tie_03s.jpg,0.0,Green.png,6.0,75,,,,,,,,,,,,,0.0,1.0,1.5079,0.0,35.0,35.0,35.0,1.0,,,,,,,,,,,,,,,
,,,,,,,,,,,,,,,,,,,,,,,,,,,,,,,,,,,,,,,,,,,,,0.0,,,75,,,,,,,,,ice-cream_cone_06s.jpg,police_car_01s.jpg,,,,,,,,,,,1.0,0.0,1.248,0.0,0.0,0.0,0.0,1.0,,,,,,,
,,,,,,,,,,,,,,,,,,,,,,,,,,,,,,,,,,,,,,,,,,,,,0.0,,,75,,,,,,,,,turf_03s.jpg,pincushion_10s.jpg,,,,,,,,,,,0.0,1.0,1.7213,0.0,1.0,1.0,1.0,1.0,,,,,,,
,,,,,,,,,,,,,,,,,,,,,,,,,,,,,,,,,,,,,,,,,,,,,0.0,,,75,,,,,,,,,purse_05s.jpg,ginger_09s.jpg,,,,,,,,,,,1.0,0.0,2.0976,0.0,2.0,2.0,2.0,1.0,,,,,,,
,,,,,,,,,,,,,,,,,,,,,,,,,,,,,,,,,,,,,,,,,,,,,1.0,,,75,,,,,,,,,jersey_02s.jpg,tie_03s.jpg,,,,,,,,,,,1.0,1.0,1.2341,0.0,3.0,3.0,3.0,1.0,,,,,,,
,,,,,,,,,,,,,,,,,,,,,,,,,,,,,,,,,,,,,,,,,,,,,0.0,,,75,,,,,,,,,toaster_03s.jpg,pepper2_21s.jpg,,,,,,,,,,,0.0,1.0,1.6193,0.0,4.0,4.0,4.0,1.0,,,,,,,
,,,,,,,,,,,,,,,,,,,,,,,,,,,,,,,,,,,,,,,,,,,,,0.0,,,75,,,,,,,,,thread_08s.jpg,squirrel_02s.jpg,,,,,,,,,,,1.0,0.0,1.2136,0.0,5.0,5.0,5.0,1.0,,,,,,,
,,,,,,,,,,,,,,,,,,,,,,,,,,,,,,,,,,,,,,,,,,,,,,,,75,,,,,,,,,,,,,,,,,,,,,,,,,,,,,0.0,4.0,4.0,4.0,1.0,newclockpresent_5_1.xlsx,newclock_compare_task_5_1.xlsx
,,,,,,,,,,,,,,,,,,,,,,,,,,,,,,,,,,,,,,,,,,,,omelet_07s.jpg,0.0,Blue.png,1.0,75,,,,,,,,,,,,,0.0,1.0,1.3939,0.0,0.0,0.0,0.0,1.0,,,,,,,,,,,,,,,
,,,,,,,,,,,,,,,,,,,,,,,,,,,,,,,,,,,,,,,,,,,,popsicle_02s.jpg,0.0,Purple.png,1.0,75,,,,,,,,,,,,,0.0,1.0,1.0118,0.0,1.0,1.0,1.0,1.0,,,,,,,,,,,,,,,
,,,,,,,,,,,,,,,,,,,,,,,,,,,,,,,,,,,,,,,,,,,,letter_opener_03s.jpg,0.0,Red.png,1.0,75,,,,,,,,,,,,,0.0,1.0,1.0268,0.0,2.0,2.0,2.0,1.0,,,,,,,,,,,,,,,
,,,,,,,,,,,,,,,,,,,,,,,,,,,,,,,,,,,,,,,,,,,,diving_board_07s.jpg,0.0,Orange.png,1.0,75,,,,,,,,,,,,,0.0,1.0,0.6404,0.0,3.0,3.0,3.0,1.0,,,,,,,,,,,,,,,
,,,,,,,,,,,,,,,,,,,,,,,,,,,,,,,,,,,,,,,,,,,,omelet_07s.jpg,1.0,Yellow.png,1.0,75,,,,,,,,,,,,,1.0,1.0,0.8888,0.0,4.0,4.0,4.0,1.0,,,,,,,,,,,,,,,
,,,,,,,,,,,,,,,,,,,,,,,,,,,,,,,,,,,,,,,,,,,,letter_opener_03s.jpg,1.0,Green.png,1.0,75,,,,,,,,,,,,,1.0,1.0,0.961,0.0,5.0,5.0,5.0,1.0,,,,,,,,,,,,,,,
,,,,,,,,,,,,,,,,,,,,,,,,,,,,,,,,,,,,,,,,,,,,omelet_07s.jpg,0.0,Blue.png,2.0,75,,,,,,,,,,,,,0.0,1.0,0.9608,0.0,6.0,6.0,6.0,1.0,,,,,,,,,,,,,,,
,,,,,,,,,,,,,,,,,,,,,,,,,,,,,,,,,,,,,,,,,,,,cape_11s.jpg,0.0,Purple.png,2.0,75,,,,,,,,,,,,,0.0,1.0,1.3061,0.0,7.0,7.0,7.0,1.0,,,,,,,,,,,,,,,
,,,,,,,,,,,,,,,,,,,,,,,,,,,,,,,,,,,,,,,,,,,,omelet_07s.jpg,1.0,Red.png,2.0,75,,,,,,,,,,,,,1.0,1.0,0.855,0.0,8.0,8.0,8.0,1.0,,,,,,,,,,,,,,,
,,,,,,,,,,,,,,,,,,,,,,,,,,,,,,,,,,,,,,,,,,,,lantern_04s.jpg,0.0,Orange.png,2.0,75,,,,,,,,,,,,,0.0,1.0,1.9431,0.0,9.0,9.0,9.0,1.0,,,,,,,,,,,,,,,
,,,,,,,,,,,,,,,,,,,,,,,,,,,,,,,,,,,,,,,,,,,,leotard_08s.jpg,0.0,Yellow.png,2.0,75,,,,,,,,,,,,,0.0,1.0,0.7206,0.0,10.0,10.0,10.0,1.0,,,,,,,,,,,,,,,
,,,,,,,,,,,,,,,,,,,,,,,,,,,,,,,,,,,,,,,,,,,,pacifier_09s.jpg,0.0,Green.png,2.0,75,,,,,,,,,,,,,0.0,1.0,1.0388,0.0,11.0,11.0,11.0,1.0,,,,,,,,,,,,,,,
,,,,,,,,,,,,,,,,,,,,,,,,,,,,,,,,,,,,,,,,,,,,rocking_horse_03s.jpg,0.0,Blue.png,3.0,75,,,,,,,,,,,,,0.0,1.0,0.9224,0.0,12.0,12.0,12.0,1.0,,,,,,,,,,,,,,,
,,,,,,,,,,,,,,,,,,,,,,,,,,,,,,,,,,,,,,,,,,,,cardinal_07s.jpg,0.0,Purple.png,3.0,75,,,,,,,,,,,,,0.0,1.0,1.1263,0.0,13.0,13.0,13.0,1.0,,,,,,,,,,,,,,,
,,,,,,,,,,,,,,,,,,,,,,,,,,,,,,,,,,,,,,,,,,,,hyena_16s.jpg,0.0,Red.png,3.0,75,,,,,,,,,,,,,0.0,1.0,1.9325,0.0,14.0,14.0,14.0,1.0,,,,,,,,,,,,,,,
,,,,,,,,,,,,,,,,,,,,,,,,,,,,,,,,,,,,,,,,,,,,oil_02s.jpg,0.0,Orange.png,3.0,75,,,,,,,,,,,,,0.0,1.0,0.8242,0.0,15.0,15.0,15.0,1.0,,,,,,,,,,,,,,,
,,,,,,,,,,,,,,,,,,,,,,,,,,,,,,,,,,,,,,,,,,,,marshmallow_08s.jpg,0.0,Yellow.png,3.0,75,,,,,,,,,,,,,0.0,1.0,0.5209,0.0,16.0,16.0,16.0,1.0,,,,,,,,,,,,,,,
,,,,,,,,,,,,,,,,,,,,,,,,,,,,,,,,,,,,,,,,,,,,oil_02s.jpg,1.0,Green.png,3.0,75,,,,,,,,,,,,,1.0,1.0,0.9054,0.0,17.0,17.0,17.0,1.0,,,,,,,,,,,,,,,
,,,,,,,,,,,,,,,,,,,,,,,,,,,,,,,,,,,,,,,,,,,,omelet_07s.jpg,0.0,Blue.png,4.0,75,,,,,,,,,,,,,0.0,1.0,0.94,0.0,18.0,18.0,18.0,1.0,,,,,,,,,,,,,,,
,,,,,,,,,,,,,,,,,,,,,,,,,,,,,,,,,,,,,,,,,,,,oil_02s.jpg,0.0,Purple.png,4.0,75,,,,,,,,,,,,,0.0,1.0,0.9155,0.0,19.0,19.0,19.0,1.0,,,,,,,,,,,,,,,
,,,,,,,,,,,,,,,,,,,,,,,,,,,,,,,,,,,,,,,,,,,,knitting_needle_04s.jpg,0.0,Red.png,4.0,75,,,,,,,,,,,,,0.0,1.0,0.6716,0.0,20.0,20.0,20.0,1.0,,,,,,,,,,,,,,,
,,,,,,,,,,,,,,,,,,,,,,,,,,,,,,,,,,,,,,,,,,,,oil_02s.jpg,1.0,Orange.png,4.0,75,,,,,,,,,,,,,1.0,1.0,1.6311,0.0,21.0,21.0,21.0,1.0,,,,,,,,,,,,,,,
,,,,,,,,,,,,,,,,,,,,,,,,,,,,,,,,,,,,,,,,,,,,ice_pack_09s.jpg,0.0,Yellow.png,4.0,75,,,,,,,,,,,,,0.0,1.0,1.0246,0.0,22.0,22.0,22.0,1.0,,,,,,,,,,,,,,,
,,,,,,,,,,,,,,,,,,,,,,,,,,,,,,,,,,,,,,,,,,,,peppermint_07s.jpg,0.0,Green.png,4.0,75,,,,,,,,,,,,,0.0,1.0,0.8236,0.0,23.0,23.0,23.0,1.0,,,,,,,,,,,,,,,
,,,,,,,,,,,,,,,,,,,,,,,,,,,,,,,,,,,,,,,,,,,,submarine_11n.jpg,0.0,Blue.png,5.0,75,,,,,,,,,,,,,0.0,1.0,1.407,0.0,24.0,24.0,24.0,1.0,,,,,,,,,,,,,,,
,,,,,,,,,,,,,,,,,,,,,,,,,,,,,,,,,,,,,,,,,,,,seagull_01b.jpg,0.0,Purple.png,5.0,75,,,,,,,,,,,,,0.0,1.0,1.0251,0.0,25.0,25.0,25.0,1.0,,,,,,,,,,,,,,,
,,,,,,,,,,,,,,,,,,,,,,,,,,,,,,,,,,,,,,,,,,,,omelet_07s.jpg,0.0,Red.png,5.0,75,,,,,,,,,,,,,0.0,1.0,0.8256,0.0,26.0,26.0,26.0,1.0,,,,,,,,,,,,,,,
,,,,,,,,,,,,,,,,,,,,,,,,,,,,,,,,,,,,,,,,,,,,bonsai_07s.jpg,0.0,Orange.png,5.0,75,,,,,,,,,,,,,0.0,1.0,1.141,0.0,27.0,27.0,27.0,1.0,,,,,,,,,,,,,,,
,,,,,,,,,,,,,,,,,,,,,,,,,,,,,,,,,,,,,,,,,,,,bonsai_07s.jpg,1.0,Yellow.png,5.0,75,,,,,,,,,,,,,0.0,0.0,0.6981,0.0,28.0,28.0,28.0,1.0,,,,,,,,,,,,,,,
,,,,,,,,,,,,,,,,,,,,,,,,,,,,,,,,,,,,,,,,,,,,omelet_07s.jpg,1.0,Green.png,5.0,75,,,,,,,,,,,,,0.0,0.0,0.8295,0.0,29.0,29.0,29.0,1.0,,,,,,,,,,,,,,,
,,,,,,,,,,,,,,,,,,,,,,,,,,,,,,,,,,,,,,,,,,,,bonsai_07s.jpg,0.0,Blue.png,6.0,75,,,,,,,,,,,,,0.0,1.0,0.9584,0.0,30.0,30.0,30.0,1.0,,,,,,,,,,,,,,,
,,,,,,,,,,,,,,,,,,,,,,,,,,,,,,,,,,,,,,,,,,,,quilt_03s.jpg,0.0,Purple.png,6.0,75,,,,,,,,,,,,,0.0,1.0,1.0634,0.0,31.0,31.0,31.0,1.0,,,,,,,,,,,,,,,
,,,,,,,,,,,,,,,,,,,,,,,,,,,,,,,,,,,,,,,,,,,,incense_02s.jpg,0.0,Red.png,6.0,75,,,,,,,,,,,,,0.0,1.0,1.1244,0.0,32.0,32.0,32.0,1.0,,,,,,,,,,,,,,,
,,,,,,,,,,,,,,,,,,,,,,,,,,,,,,,,,,,,,,,,,,,,quilt_03s.jpg,1.0,Orange.png,6.0,75,,,,,,,,,,,,,1.0,1.0,1.2732,0.0,33.0,33.0,33.0,1.0,,,,,,,,,,,,,,,
,,,,,,,,,,,,,,,,,,,,,,,,,,,,,,,,,,,,,,,,,,,,incense_02s.jpg,1.0,Yellow.png,6.0,75,,,,,,,,,,,,,1.0,1.0,0.7084,0.0,34.0,34.0,34.0,1.0,,,,,,,,,,,,,,,
,,,,,,,,,,,,,,,,,,,,,,,,,,,,,,,,,,,,,,,,,,,,incense_02s.jpg,1.0,Green.png,6.0,75,,,,,,,,,,,,,1.0,1.0,1.0282,0.0,35.0,35.0,35.0,1.0,,,,,,,,,,,,,,,
,,,,,,,,,,,,,,,,,,,,,,,,,,,,,,,,,,,,,,,,,,,,,1.0,,,75,,,,,,,,,pacifier_09s.jpg,hyena_16s.jpg,,,,,,,,,,,0.0,0.0,2.2937,0.0,0.0,0.0,0.0,1.0,,,,,,,
,,,,,,,,,,,,,,,,,,,,,,,,,,,,,,,,,,,,,,,,,,,,,0.0,,,75,,,,,,,,,peppermint_07s.jpg,knitting_needle_04s.jpg,,,,,,,,,,,0.0,1.0,2.1681,0.0,1.0,1.0,1.0,1.0,,,,,,,
,,,,,,,,,,,,,,,,,,,,,,,,,,,,,,,,,,,,,,,,,,,,,1.0,,,75,,,,,,,,,ice_pack_09s.jpg,seagull_01b.jpg,,,,,,,,,,,0.0,0.0,1.6305,0.0,2.0,2.0,2.0,1.0,,,,,,,
,,,,,,,,,,,,,,,,,,,,,,,,,,,,,,,,,,,,,,,,,,,,,0.0,,,75,,,,,,,,,marshmallow_08s.jpg,cardinal_07s.jpg,,,,,,,,,,,1.0,0.0,1.5359,0.0,3.0,3.0,3.0,1.0,,,,,,,
,,,,,,,,,,,,,,,,,,,,,,,,,,,,,,,,,,,,,,,,,,,,,1.0,,,75,,,,,,,,,cape_11s.jpg,leotard_08s.jpg,,,,,,,,,,,1.0,1.0,2.0219,0.0,4.0,4.0,4.0,1.0,,,,,,,
,,,,,,,,,,,,,,,,,,,,,,,,,,,,,,,,,,,,,,,,,,,,,1.0,,,75,,,,,,,,,lantern_04s.jpg,rocking_horse_03s.jpg,,,,,,,,,,,1.0,1.0,1.505,0.0,5.0,5.0,5.0,1.0,,,,,,,
,,,,,,,,,,,,,,,,,,,,,,,,,,,,,,,,,,,,,,,,,,,,,,,,75,,,,,,,,,,,,,,,,,,,,,,,,,,,,,0.0,5.0,5.0,5.0,1.0,newclockpresent_6_1.xlsx,newclock_compare_task_6_1.xlsx
,,,,,,,,,,,,,,,,,,,,,,,,,,,,,,,,,,,,,,,,,,,,petri_dish_12s.jpg,0.0,Blue.png,1.0,75,,,,,,,,,,,,,0.0,1.0,1.1836,0.0,0.0,0.0,0.0,1.0,,,,,,,,,,,,,,,
,,,,,,,,,,,,,,,,,,,,,,,,,,,,,,,,,,,,,,,,,,,,toothpaste_12s.jpg,0.0,Purple.png,1.0,75,,,,,,,,,,,,,0.0,1.0,1.5447,0.0,1.0,1.0,1.0,1.0,,,,,,,,,,,,,,,
,,,,,,,,,,,,,,,,,,,,,,,,,,,,,,,,,,,,,,,,,,,,medal_04s.jpg,0.0,Red.png,1.0,75,,,,,,,,,,,,,0.0,1.0,0.8595,0.0,2.0,2.0,2.0,1.0,,,,,,,,,,,,,,,
,,,,,,,,,,,,,,,,,,,,,,,,,,,,,,,,,,,,,,,,,,,,potholder_02s.jpg,0.0,Orange.png,1.0,75,,,,,,,,,,,,,0.0,1.0,0.5292,0.0,3.0,3.0,3.0,1.0,,,,,,,,,,,,,,,
,,,,,,,,,,,,,,,,,,,,,,,,,,,,,,,,,,,,,,,,,,,,puck_06s.jpg,0.0,Yellow.png,1.0,75,,,,,,,,,,,,,0.0,1.0,0.9655,0.0,4.0,4.0,4.0,1.0,,,,,,,,,,,,,,,
,,,,,,,,,,,,,,,,,,,,,,,,,,,,,,,,,,,,,,,,,,,,bagel_15s.jpg,0.0,Green.png,1.0,75,,,,,,,,,,,,,0.0,1.0,1.7237,0.0,5.0,5.0,5.0,1.0,,,,,,,,,,,,,,,
,,,,,,,,,,,,,,,,,,,,,,,,,,,,,,,,,,,,,,,,,,,,golf_club_03s.jpg,0.0,Blue.png,2.0,75,,,,,,,,,,,,,0.0,1.0,0.9903,0.0,6.0,6.0,6.0,1.0,,,,,,,,,,,,,,,
,,,,,,,,,,,,,,,,,,,,,,,,,,,,,,,,,,,,,,,,,,,,golf_club_03s.jpg,1.0,Purple.png,2.0,75,,,,,,,,,,,,,1.0,1.0,0.9592,0.0,7.0,7.0,7.0,1.0,,,,,,,,,,,,,,,
,,,,,,,,,,,,,,,,,,,,,,,,,,,,,,,,,,,,,,,,,,,,golf_club_03s.jpg,1.0,Red.png,2.0,75,,,,,,,,,,,,,1.0,1.0,0.6231,0.0,8.0,8.0,8.0,1.0,,,,,,,,,,,,,,,
,,,,,,,,,,,,,,,,,,,,,,,,,,,,,,,,,,,,,,,,,,,,inhaler_01b.jpg,0.0,Orange.png,2.0,75,,,,,,,,,,,,,0.0,1.0,0.989,0.0,9.0,9.0,9.0,1.0,,,,,,,,,,,,,,,
,,,,,,,,,,,,,,,,,,,,,,,,,,,,,,,,,,,,,,,,,,,,golf_club_03s.jpg,1.0,Yellow.png,2.0,75,,,,,,,,,,,,,1.0,1.0,0.8648,0.0,10.0,10.0,10.0,1.0,,,,,,,,,,,,,,,
,,,,,,,,,,,,,,,,,,,,,,,,,,,,,,,,,,,,,,,,,,,,tiger_06s.jpg,0.0,Green.png,2.0,75,,,,,,,,,,,,,0.0,1.0,0.9494,0.0,11.0,11.0,11.0,1.0,,,,,,,,,,,,,,,
,,,,,,,,,,,,,,,,,,,,,,,,,,,,,,,,,,,,,,,,,,,,medal_04s.jpg,0.0,Blue.png,3.0,75,,,,,,,,,,,,,0.0,1.0,1.0556,0.0,12.0,12.0,12.0,1.0,,,,,,,,,,,,,,,
,,,,,,,,,,,,,,,,,,,,,,,,,,,,,,,,,,,,,,,,,,,,medal_04s.jpg,1.0,Purple.png,3.0,75,,,,,,,,,,,,,1.0,1.0,1.4733,0.0,13.0,13.0,13.0,1.0,,,,,,,,,,,,,,,
,,,,,,,,,,,,,,,,,,,,,,,,,,,,,,,,,,,,,,,,,,,,medal_04s.jpg,1.0,Red.png,3.0,75,,,,,,,,,,,,,1.0,1.0,1.2109,0.0,14.0,14.0,14.0,1.0,,,,,,,,,,,,,,,
,,,,,,,,,,,,,,,,,,,,,,,,,,,,,,,,,,,,,,,,,,,,licorice_06s.jpg,0.0,Orange.png,3.0,75,,,,,,,,,,,,,0.0,1.0,0.8216,0.0,15.0,15.0,15.0,1.0,,,,,,,,,,,,,,,
,,,,,,,,,,,,,,,,,,,,,,,,,,,,,,,,,,,,,,,,,,,,medal_04s.jpg,1.0,Yellow.png,3.0,75,,,,,,,,,,,,,1.0,1.0,1.6641,0.0,16.0,16.0,16.0,1.0,,,,,,,,,,,,,,,
,,,,,,,,,,,,,,,,,,,,,,,,,,,,,,,,,,,,,,,,,,,,frog_09s.jpg,0.0,Green.png,3.0,75,,,,,,,,,,,,,0.0,1.0,0.8241,0.0,17.0,17.0,17.0,1.0,,,,,,,,,,,,,,,
,,,,,,,,,,,,,,,,,,,,,,,,,,,,,,,,,,,,,,,,,,,,laser_pointer_02s.jpg,0.0,Blue.png,4.0,75,,,,,,,,,,,,,0.0,1.0,0.8592,0.0,18.0,18.0,18.0,1.0,,,,,,,,,,,,,,,
,,,,,,,,,,,,,,,,,,,,,,,,,,,,,,,,,,,,,,,,,,,,treasure_08s.jpg,0.0,Purple.png,4.0,75,,,,,,,,,,,,,0.0,1.0,1.0431,0.0,19.0,19.0,19.0,1.0,,,,,,,,,,,,,,,
,,,,,,,,,,,,,,,,,,,,,,,,,,,,,,,,,,,,,,,,,,,,padlock_07s.jpg,0.0,Red.png,4.0,75,,,,,,,,,,,,,0.0,1.0,0.7133,0.0,20.0,20.0,20.0,1.0,,,,,,,,,,,,,,,
,,,,,,,,,,,,,,,,,,,,,,,,,,,,,,,,,,,,,,,,,,,,panda_02s.jpg,0.0,Orange.png,4.0,75,,,,,,,,,,,,,0.0,1.0,0.6736,0.0,21.0,21.0,21.0,1.0,,,,,,,,,,,,,,,
,,,,,,,,,,,,,,,,,,,,,,,,,,,,,,,,,,,,,,,,,,,,plunger_08s.jpg,0.0,Yellow.png,4.0,75,,,,,,,,,,,,,0.0,1.0,0.8234,0.0,22.0,22.0,22.0,1.0,,,,,,,,,,,,,,,
,,,,,,,,,,,,,,,,,,,,,,,,,,,,,,,,,,,,,,,,,,,,pancake_12s.jpg,0.0,Green.png,4.0,75,,,,,,,,,,,,,0.0,1.0,0.6498,0.0,23.0,23.0,23.0,1.0,,,,,,,,,,,,,,,
,,,,,,,,,,,,,,,,,,,,,,,,,,,,,,,,,,,,,,,,,,,,fire_pit_10s.jpg,0.0,Blue.png,5.0,75,,,,,,,,,,,,,0.0,1.0,2.428,0.0,24.0,24.0,24.0,1.0,,,,,,,,,,,,,,,
,,,,,,,,,,,,,,,,,,,,,,,,,,,,,,,,,,,,,,,,,,,,bubble_01b.jpg,0.0,Purple.png,5.0,75,,,,,,,,,,,,,0.0,1.0,0.5745,0.0,25.0,25.0,25.0,1.0,,,,,,,,,,,,,,,
,,,,,,,,,,,,,,,,,,,,,,,,,,,,,,,,,,,,,,,,,,,,bubble_01b.jpg,1.0,Red.png,5.0,75,,,,,,,,,,,,,1.0,1.0,0.791,0.0,26.0,26.0,26.0,1.0,,,,,,,,,,,,,,,
,,,,,,,,,,,,,,,,,,,,,,,,,,,,,,,,,,,,,,,,,,,,bubble_01b.jpg,1.0,Orange.png,5.0,75,,,,,,,,,,,,,1.0,1.0,0.7779,0.0,27.0,27.0,27.0,1.0,,,,,,,,,,,,,,,
,,,,,,,,,,,,,,,,,,,,,,,,,,,,,,,,,,,,,,,,,,,,bubble_01b.jpg,1.0,Yellow.png,5.0,75,,,,,,,,,,,,,1.0,1.0,0.5743,0.0,28.0,28.0,28.0,1.0,,,,,,,,,,,,,,,
,,,,,,,,,,,,,,,,,,,,,,,,,,,,,,,,,,,,,,,,,,,,power_line_08s.jpg,0.0,Green.png,5.0,75,,,,,,,,,,,,,0.0,1.0,1.2225,0.0,29.0,29.0,29.0,1.0,,,,,,,,,,,,,,,
,,,,,,,,,,,,,,,,,,,,,,,,,,,,,,,,,,,,,,,,,,,,golf_club_03s.jpg,0.0,Blue.png,6.0,75,,,,,,,,,,,,,0.0,1.0,0.9591,0.0,30.0,30.0,30.0,1.0,,,,,,,,,,,,,,,
,,,,,,,,,,,,,,,,,,,,,,,,,,,,,,,,,,,,,,,,,,,,kilt_18s.jpg,0.0,Purple.png,6.0,75,,,,,,,,,,,,,0.0,1.0,1.1377,0.0,31.0,31.0,31.0,1.0,,,,,,,,,,,,,,,
,,,,,,,,,,,,,,,,,,,,,,,,,,,,,,,,,,,,,,,,,,,,tupperware_09s.jpg,0.0,Red.png,6.0,75,,,,,,,,,,,,,0.0,1.0,0.7632,0.0,32.0,32.0,32.0,1.0,,,,,,,,,,,,,,,
,,,,,,,,,,,,,,,,,,,,,,,,,,,,,,,,,,,,,,,,,,,,go-kart_10s.jpg,0.0,Orange.png,6.0,75,,,,,,,,,,,,,0.0,1.0,0.6121,0.0,33.0,33.0,33.0,1.0,,,,,,,,,,,,,,,
,,,,,,,,,,,,,,,,,,,,,,,,,,,,,,,,,,,,,,,,,,,,bottle_opener_11s.jpg,0.0,Yellow.png,6.0,75,,,,,,,,,,,,,0.0,1.0,0.9896,0.0,34.0,34.0,34.0,1.0,,,,,,,,,,,,,,,
,,,,,,,,,,,,,,,,,,,,,,,,,,,,,,,,,,,,,,,,,,,,go-kart_10s.jpg,1.0,Green.png,6.0,75,,,,,,,,,,,,,1.0,1.0,1.0324,0.0,35.0,35.0,35.0,1.0,,,,,,,,,,,,,,,
,,,,,,,,,,,,,,,,,,,,,,,,,,,,,,,,,,,,,,,,,,,,,1.0,,,75,,,,,,,,,toothpaste_12s.jpg,puck_06s.jpg,,,,,,,,,,,1.0,1.0,1.8761,0.0,0.0,0.0,0.0,1.0,,,,,,,
,,,,,,,,,,,,,,,,,,,,,,,,,,,,,,,,,,,,,,,,,,,,,0.0,,,75,,,,,,,,,padlock_07s.jpg,frog_09s.jpg,,,,,,,,,,,1.0,0.0,1.7356,0.0,1.0,1.0,1.0,1.0,,,,,,,
,,,,,,,,,,,,,,,,,,,,,,,,,,,,,,,,,,,,,,,,,,,,,0.0,,,75,,,,,,,,,plunger_08s.jpg,treasure_08s.jpg,,,,,,,,,,,0.0,1.0,1.749,0.0,2.0,2.0,2.0,1.0,,,,,,,
,,,,,,,,,,,,,,,,,,,,,,,,,,,,,,,,,,,,,,,,,,,,,1.0,,,75,,,,,,,,,licorice_06s.jpg,laser_pointer_02s.jpg,,,,,,,,,,,1.0,1.0,1.5463,0.0,3.0,3.0,3.0,1.0,,,,,,,
,,,,,,,,,,,,,,,,,,,,,,,,,,,,,,,,,,,,,,,,,,,,,1.0,,,75,,,,,,,,,petri_dish_12s.jpg,potholder_02s.jpg,,,,,,,,,,,1.0,1.0,1.2037,0.0,4.0,4.0,4.0,1.0,,,,,,,
,,,,,,,,,,,,,,,,,,,,,,,,,,,,,,,,,,,,,,,,,,,,,0.0,,,75,,,,,,,,,tupperware_09s.jpg,power_line_08s.jpg,,,,,,,,,,,1.0,0.0,1.2812,0.0,5.0,5.0,5.0,1.0,,,,,,,
,,,,,,,,,,,,,,,,,,,,,,,,,,,,,,,,,,,,,,,,,,,,,,,,75,,,,,,,,,,,,,,,,,,,,,,,,,,,,,0.0,6.0,6.0,6.0,1.0,newclockpresent_7_1.xlsx,newclock_compare_task_7_1.xlsx
,,,,,,,,,,,,,,,,,,,,,,,,,,,,,,,,,,,,,,,,,,,,toad_09s.jpg,0.0,Blue.png,1.0,75,,,,,,,,,,,,,0.0,1.0,0.8331,0.0,0.0,0.0,0.0,1.0,,,,,,,,,,,,,,,
,,,,,,,,,,,,,,,,,,,,,,,,,,,,,,,,,,,,,,,,,,,,toad_09s.jpg,1.0,Purple.png,1.0,75,,,,,,,,,,,,,1.0,1.0,0.9419,0.0,1.0,1.0,1.0,1.0,,,,,,,,,,,,,,,
,,,,,,,,,,,,,,,,,,,,,,,,,,,,,,,,,,,,,,,,,,,,toad_09s.jpg,1.0,Red.png,1.0,75,,,,,,,,,,,,,1.0,1.0,0.7307,0.0,2.0,2.0,2.0,1.0,,,,,,,,,,,,,,,
,,,,,,,,,,,,,,,,,,,,,,,,,,,,,,,,,,,,,,,,,,,,lamb_04s.jpg,0.0,Orange.png,1.0,75,,,,,,,,,,,,,0.0,1.0,0.6753,0.0,3.0,3.0,3.0,1.0,,,,,,,,,,,,,,,
,,,,,,,,,,,,,,,,,,,,,,,,,,,,,,,,,,,,,,,,,,,,toad_09s.jpg,1.0,Yellow.png,1.0,75,,,,,,,,,,,,,1.0,1.0,0.9475,0.0,4.0,4.0,4.0,1.0,,,,,,,,,,,,,,,
,,,,,,,,,,,,,,,,,,,,,,,,,,,,,,,,,,,,,,,,,,,,possum_09s.jpg,0.0,Green.png,1.0,75,,,,,,,,,,,,,0.0,1.0,0.6911,0.0,5.0,5.0,5.0,1.0,,,,,,,,,,,,,,,
,,,,,,,,,,,,,,,,,,,,,,,,,,,,,,,,,,,,,,,,,,,,reindeer_08s.jpg,0.0,Blue.png,2.0,75,,,,,,,,,,,,,0.0,1.0,0.7965,0.0,6.0,6.0,6.0,1.0,,,,,,,,,,,,,,,
,,,,,,,,,,,,,,,,,,,,,,,,,,,,,,,,,,,,,,,,,,,,reindeer_08s.jpg,1.0,Purple.png,2.0,75,,,,,,,,,,,,,0.0,0.0,2.1432,0.0,7.0,7.0,7.0,1.0,,,,,,,,,,,,,,,
,,,,,,,,,,,,,,,,,,,,,,,,,,,,,,,,,,,,,,,,,,,,knot_01b.jpg,0.0,Red.png,2.0,75,,,,,,,,,,,,,0.0,1.0,1.4924,0.0,8.0,8.0,8.0,1.0,,,,,,,,,,,,,,,
,,,,,,,,,,,,,,,,,,,,,,,,,,,,,,,,,,,,,,,,,,,,reindeer_08s.jpg,1.0,Orange.png,2.0,75,,,,,,,,,,,,,1.0,1.0,1.2407,0.0,9.0,9.0,9.0,1.0,,,,,,,,,,,,,,,
,,,,,,,,,,,,,,,,,,,,,,,,,,,,,,,,,,,,,,,,,,,,pan_02s.jpg,0.0,Yellow.png,2.0,75,,,,,,,,,,,,,0.0,1.0,0.8571,0.0,10.0,10.0,10.0,1.0,,,,,,,,,,,,,,,
,,,,,,,,,,,,,,,,,,,,,,,,,,,,,,,,,,,,,,,,,,,,ladle_04s.jpg,0.0,Green.png,2.0,75,,,,,,,,,,,,,0.0,1.0,0.8408,0.0,11.0,11.0,11.0,1.0,,,,,,,,,,,,,,,
,,,,,,,,,,,,,,,,,,,,,,,,,,,,,,,,,,,,,,,,,,,,tuxedo_01b.jpg,0.0,Blue.png,3.0,75,,,,,,,,,,,,,0.0,1.0,1.1277,0.0,12.0,12.0,12.0,1.0,,,,,,,,,,,,,,,
,,,,,,,,,,,,,,,,,,,,,,,,,,,,,,,,,,,,,,,,,,,,lemonade_04s.jpg,0.0,Purple.png,3.0,75,,,,,,,,,,,,,0.0,1.0,1.266,0.0,13.0,13.0,13.0,1.0,,,,,,,,,,,,,,,
,,,,,,,,,,,,,,,,,,,,,,,,,,,,,,,,,,,,,,,,,,,,cobra_05s.jpg,0.0,Red.png,3.0,75,,,,,,,,,,,,,0.0,1.0,1.9484,0.0,14.0,14.0,14.0,1.0,,,,,,,,,,,,,,,
,,,,,,,,,,,,,,,,,,,,,,,,,,,,,,,,,,,,,,,,,,,,pocketknife_12s.jpg,0.0,Orange.png,3.0,75,,,,,,,,,,,,,0.0,1.0,1.0228,0.0,15.0,15.0,15.0,1.0,,,,,,,,,,,,,,,
,,,,,,,,,,,,,,,,,,,,,,,,,,,,,,,,,,,,,,,,,,,,kettle_08s.jpg,0.0,Yellow.png,3.0,75,,,,,,,,,,,,,0.0,1.0,0.7459,0.0,16.0,16.0,16.0,1.0,,,,,,,,,,,,,,,
,,,,,,,,,,,,,,,,,,,,,,,,,,,,,,,,,,,,,,,,,,,,spider_web_03s.jpg,0.0,Green.png,3.0,75,,,,,,,,,,,,,0.0,1.0,1.1076,0.0,17.0,17.0,17.0,1.0,,,,,,,,,,,,,,,
,,,,,,,,,,,,,,,,,,,,,,,,,,,,,,,,,,,,,,,,,,,,pretzel_09s.jpg,0.0,Blue.png,4.0,75,,,,,,,,,,,,,0.0,1.0,1.0727,0.0,18.0,18.0,18.0,1.0,,,,,,,,,,,,,,,
,,,,,,,,,,,,,,,,,,,,,,,,,,,,,,,,,,,,,,,,,,,,rock_08s.jpg,0.0,Purple.png,4.0,75,,,,,,,,,,,,,0.0,1.0,1.3122,0.0,19.0,19.0,19.0,1.0,,,,,,,,,,,,,,,
,,,,,,,,,,,,,,,,,,,,,,,,,,,,,,,,,,,,,,,,,,,,boar_10s.jpg,0.0,Red.png,4.0,75,,,,,,,,,,,,,0.0,1.0,1.2421,0.0,20.0,20.0,20.0,1.0,,,,,,,,,,,,,,,
,,,,,,,,,,,,,,,,,,,,,,,,,,,,,,,,,,,,,,,,,,,,sunglasses_11s.jpg,0.0,Orange.png,4.0,75,,,,,,,,,,,,,0.0,1.0,0.6671,0.0,21.0,21.0,21.0,1.0,,,,,,,,,,,,,,,
,,,,,,,,,,,,,,,,,,,,,,,,,,,,,,,,,,,,,,,,,,,,boar_10s.jpg,1.0,Yellow.png,4.0,75,,,,,,,,,,,,,1.0,1.0,1.8411,0.0,22.0,22.0,22.0,1.0,,,,,,,,,,,,,,,
,,,,,,,,,,,,,,,,,,,,,,,,,,,,,,,,,,,,,,,,,,,,smoothie_09s.jpg,0.0,Green.png,4.0,75,,,,,,,,,,,,,0.0,1.0,1.0761,0.0,23.0,23.0,23.0,1.0,,,,,,,,,,,,,,,
,,,,,,,,,,,,,,,,,,,,,,,,,,,,,,,,,,,,,,,,,,,,latch_15s.jpg,0.0,Blue.png,5.0,75,,,,,,,,,,,,,0.0,1.0,1.0253,0.0,24.0,24.0,24.0,1.0,,,,,,,,,,,,,,,
,,,,,,,,,,,,,,,,,,,,,,,,,,,,,,,,,,,,,,,,,,,,amber_04s.jpg,0.0,Purple.png,5.0,75,,,,,,,,,,,,,0.0,1.0,1.162,0.0,25.0,25.0,25.0,1.0,,,,,,,,,,,,,,,
,,,,,,,,,,,,,,,,,,,,,,,,,,,,,,,,,,,,,,,,,,,,amber_04s.jpg,1.0,Red.png,5.0,75,,,,,,,,,,,,,1.0,1.0,0.7064,0.0,26.0,26.0,26.0,1.0,,,,,,,,,,,,,,,
,,,,,,,,,,,,,,,,,,,,,,,,,,,,,,,,,,,,,,,,,,,,tennis_ball_06s.jpg,0.0,Orange.png,5.0,75,,,,,,,,,,,,,0.0,1.0,0.9747,0.0,27.0,27.0,27.0,1.0,,,,,,,,,,,,,,,
,,,,,,,,,,,,,,,,,,,,,,,,,,,,,,,,,,,,,,,,,,,,amber_04s.jpg,1.0,Yellow.png,5.0,75,,,,,,,,,,,,,1.0,1.0,0.9244,0.0,28.0,28.0,28.0,1.0,,,,,,,,,,,,,,,
,,,,,,,,,,,,,,,,,,,,,,,,,,,,,,,,,,,,,,,,,,,,milk_02s.jpg,0.0,Green.png,5.0,75,,,,,,,,,,,,,0.0,1.0,1.0404,0.0,29.0,29.0,29.0,1.0,,,,,,,,,,,,,,,
,,,,,,,,,,,,,,,,,,,,,,,,,,,,,,,,,,,,,,,,,,,,coat_rack_01b.jpg,0.0,Blue.png,6.0,75,,,,,,,,,,,,,0.0,1.0,0.858,0.0,30.0,30.0,30.0,1.0,,,,,,,,,,,,,,,
,,,,,,,,,,,,,,,,,,,,,,,,,,,,,,,,,,,,,,,,,,,,thorn_13s.jpg,0.0,Purple.png,6.0,75,,,,,,,,,,,,,0.0,1.0,0.6641,0.0,31.0,31.0,31.0,1.0,,,,,,,,,,,,,,,
,,,,,,,,,,,,,,,,,,,,,,,,,,,,,,,,,,,,,,,,,,,,coat_rack_01b.jpg,1.0,Red.png,6.0,75,,,,,,,,,,,,,1.0,1.0,0.996,0.0,32.0,32.0,32.0,1.0,,,,,,,,,,,,,,,
,,,,,,,,,,,,,,,,,,,,,,,,,,,,,,,,,,,,,,,,,,,,razor_blade_01b.jpg,0.0,Orange.png,6.0,75,,,,,,,,,,,,,0.0,1.0,1.1561,0.0,33.0,33.0,33.0,1.0,,,,,,,,,,,,,,,
,,,,,,,,,,,,,,,,,,,,,,,,,,,,,,,,,,,,,,,,,,,,lid_10s.jpg,0.0,Yellow.png,6.0,75,,,,,,,,,,,,,0.0,1.0,0.7229,0.0,34.0,34.0,34.0,1.0,,,,,,,,,,,,,,,
,,,,,,,,,,,,,,,,,,,,,,,,,,,,,,,,,,,,,,,,,,,,lid_10s.jpg,1.0,Green.png,6.0,75,,,,,,,,,,,,,1.0,1.0,1.1967,0.0,35.0,35.0,35.0,1.0,,,,,,,,,,,,,,,
,,,,,,,,,,,,,,,,,,,,,,,,,,,,,,,,,,,,,,,,,,,,,0.0,,,75,,,,,,,,,pocketknife_12s.jpg,tuxedo_01b.jpg,,,,,,,,,,,0.0,1.0,1.658,0.0,0.0,0.0,0.0,1.0,,,,,,,
,,,,,,,,,,,,,,,,,,,,,,,,,,,,,,,,,,,,,,,,,,,,,1.0,,,75,,,,,,,,,possum_09s.jpg,knot_01b.jpg,,,,,,,,,,,1.0,1.0,1.5148,0.0,1.0,1.0,1.0,1.0,,,,,,,
,,,,,,,,,,,,,,,,,,,,,,,,,,,,,,,,,,,,,,,,,,,,,1.0,,,75,,,,,,,,,pan_02s.jpg,lemonade_04s.jpg,,,,,,,,,,,1.0,1.0,1.1815,0.0,2.0,2.0,2.0,1.0,,,,,,,
,,,,,,,,,,,,,,,,,,,,,,,,,,,,,,,,,,,,,,,,,,,,,0.0,,,75,,,,,,,,,tennis_ball_06s.jpg,latch_15s.jpg,,,,,,,,,,,0.0,1.0,1.3534,0.0,3.0,3.0,3.0,1.0,,,,,,,
,,,,,,,,,,,,,,,,,,,,,,,,,,,,,,,,,,,,,,,,,,,,,0.0,,,75,,,,,,,,,rock_08s.jpg,kettle_08s.jpg,,,,,,,,,,,1.0,0.0,1.0645,0.0,4.0,4.0,4.0,1.0,,,,,,,
,,,,,,,,,,,,,,,,,,,,,,,,,,,,,,,,,,,,,,,,,,,,,1.0,,,75,,,,,,,,,cobra_05s.jpg,spider_web_03s.jpg,,,,,,,,,,,1.0,1.0,1.1971,0.0,5.0,5.0,5.0,1.0,,,,,,,
,,,,,,,,,,,,,,,,,,,,,,,,,,,,,,,,,,,,,,,,,,,,,,,,75,,,,,,,,,,,,,,,,,,,,,,,,,,,,,0.0,7.0,7.0,7.0,1.0,newclockpresent_8_1.xlsx,newclock_compare_task_8_1.xlsx
,,,,,,,,,,,,,,,,,,,,,,,,,,,,,,,,,,,,,,,,,,,,recliner_02s.jpg,0.0,Blue.png,1.0,75,,,,,,,,,,,,,0.0,1.0,0.9518,0.0,0.0,0.0,0.0,1.0,,,,,,,,,,,,,,,
,,,,,,,,,,,,,,,,,,,,,,,,,,,,,,,,,,,,,,,,,,,,lava_02s.jpg,0.0,Purple.png,1.0,75,,,,,,,,,,,,,0.0,1.0,0.6944,0.0,1.0,1.0,1.0,1.0,,,,,,,,,,,,,,,
,,,,,,,,,,,,,,,,,,,,,,,,,,,,,,,,,,,,,,,,,,,,quesadilla_07s.jpg,0.0,Red.png,1.0,75,,,,,,,,,,,,,0.0,1.0,0.503,0.0,2.0,2.0,2.0,1.0,,,,,,,,,,,,,,,
,,,,,,,,,,,,,,,,,,,,,,,,,,,,,,,,,,,,,,,,,,,,chalice_10s.jpg,0.0,Orange.png,1.0,75,,,,,,,,,,,,,0.0,1.0,0.7299,0.0,3.0,3.0,3.0,1.0,,,,,,,,,,,,,,,
,,,,,,,,,,,,,,,,,,,,,,,,,,,,,,,,,,,,,,,,,,,,tulip_02s.jpg,0.0,Yellow.png,1.0,75,,,,,,,,,,,,,0.0,1.0,1.1308,0.0,4.0,4.0,4.0,1.0,,,,,,,,,,,,,,,
,,,,,,,,,,,,,,,,,,,,,,,,,,,,,,,,,,,,,,,,,,,,quesadilla_07s.jpg,1.0,Green.png,1.0,75,,,,,,,,,,,,,1.0,1.0,1.1908,0.0,5.0,5.0,5.0,1.0,,,,,,,,,,,,,,,
,,,,,,,,,,,,,,,,,,,,,,,,,,,,,,,,,,,,,,,,,,,,lamppost_09s.jpg,0.0,Blue.png,2.0,75,,,,,,,,,,,,,0.0,1.0,1.4564,0.0,6.0,6.0,6.0,1.0,,,,,,,,,,,,,,,
,,,,,,,,,,,,,,,,,,,,,,,,,,,,,,,,,,,,,,,,,,,,chopsticks_08s.jpg,0.0,Purple.png,2.0,75,,,,,,,,,,,,,0.0,1.0,0.8747,0.0,7.0,7.0,7.0,1.0,,,,,,,,,,,,,,,
,,,,,,,,,,,,,,,,,,,,,,,,,,,,,,,,,,,,,,,,,,,,refrigerator_07s.jpg,0.0,Red.png,2.0,75,,,,,,,,,,,,,0.0,1.0,0.7588,0.0,8.0,8.0,8.0,1.0,,,,,,,,,,,,,,,
,,,,,,,,,,,,,,,,,,,,,,,,,,,,,,,,,,,,,,,,,,,,chopsticks_08s.jpg,1.0,Orange.png,2.0,75,,,,,,,,,,,,,1.0,1.0,1.1983,0.0,9.0,9.0,9.0,1.0,,,,,,,,,,,,,,,
,,,,,,,,,,,,,,,,,,,,,,,,,,,,,,,,,,,,,,,,,,,,paper_towel_03s.jpg,0.0,Yellow.png,2.0,75,,,,,,,,,,,,,0.0,1.0,0.7773,0.0,10.0,10.0,10.0,1.0,,,,,,,,,,,,,,,
,,,,,,,,,,,,,,,,,,,,,,,,,,,,,,,,,,,,,,,,,,,,flask_04s.jpg,0.0,Green.png,2.0,75,,,,,,,,,,,,,0.0,1.0,1.1064,0.0,11.0,11.0,11.0,1.0,,,,,,,,,,,,,,,
,,,,,,,,,,,,,,,,,,,,,,,,,,,,,,,,,,,,,,,,,,,,pantyhose_07s.jpg,0.0,Blue.png,3.0,75,,,,,,,,,,,,,0.0,1.0,0.7915,0.0,12.0,12.0,12.0,1.0,,,,,,,,,,,,,,,
,,,,,,,,,,,,,,,,,,,,,,,,,,,,,,,,,,,,,,,,,,,,flask_04s.jpg,0.0,Purple.png,3.0,75,,,,,,,,,,,,,1.0,0.0,1.0752,0.0,13.0,13.0,13.0,1.0,,,,,,,,,,,,,,,
,,,,,,,,,,,,,,,,,,,,,,,,,,,,,,,,,,,,,,,,,,,,chopsticks_08s.jpg,0.0,Red.png,3.0,75,,,,,,,,,,,,,1.0,0.0,1.3403,0.0,14.0,14.0,14.0,1.0,,,,,,,,,,,,,,,
,,,,,,,,,,,,,,,,,,,,,,,,,,,,,,,,,,,,,,,,,,,,seahorse_13s.jpg,0.0,Orange.png,3.0,75,,,,,,,,,,,,,0.0,1.0,1.4421,0.0,15.0,15.0,15.0,1.0,,,,,,,,,,,,,,,
,,,,,,,,,,,,,,,,,,,,,,,,,,,,,,,,,,,,,,,,,,,,pencil_sharpener_09n.jpg,0.0,Yellow.png,3.0,75,,,,,,,,,,,,,0.0,1.0,0.6913,0.0,16.0,16.0,16.0,1.0,,,,,,,,,,,,,,,
,,,,,,,,,,,,,,,,,,,,,,,,,,,,,,,,,,,,,,,,,,,,clover_04s.jpg,0.0,Green.png,3.0,75,,,,,,,,,,,,,0.0,1.0,0.823,0.0,17.0,17.0,17.0,1.0,,,,,,,,,,,,,,,
,,,,,,,,,,,,,,,,,,,,,,,,,,,,,,,,,,,,,,,,,,,,pencil_sharpener_09n.jpg,0.0,Blue.png,4.0,75,,,,,,,,,,,,,0.0,1.0,1.728,0.0,18.0,18.0,18.0,1.0,,,,,,,,,,,,,,,
,,,,,,,,,,,,,,,,,,,,,,,,,,,,,,,,,,,,,,,,,,,,fishhook_06s.jpg,0.0,Purple.png,4.0,75,,,,,,,,,,,,,0.0,1.0,1.0557,0.0,19.0,19.0,19.0,1.0,,,,,,,,,,,,,,,
,,,,,,,,,,,,,,,,,,,,,,,,,,,,,,,,,,,,,,,,,,,,clover_04s.jpg,0.0,Red.png,4.0,75,,,,,,,,,,,,,0.0,1.0,0.9251,0.0,20.0,20.0,20.0,1.0,,,,,,,,,,,,,,,
,,,,,,,,,,,,,,,,,,,,,,,,,,,,,,,,,,,,,,,,,,,,stopwatch_04s.jpg,0.0,Orange.png,4.0,75,,,,,,,,,,,,,0.0,1.0,0.7752,0.0,21.0,21.0,21.0,1.0,,,,,,,,,,,,,,,
,,,,,,,,,,,,,,,,,,,,,,,,,,,,,,,,,,,,,,,,,,,,comic_book_02s.jpg,0.0,Yellow.png,4.0,75,,,,,,,,,,,,,0.0,1.0,0.891,0.0,22.0,22.0,22.0,1.0,,,,,,,,,,,,,,,
,,,,,,,,,,,,,,,,,,,,,,,,,,,,,,,,,,,,,,,,,,,,lab_coat_11s.jpg,0.0,Green.png,4.0,75,,,,,,,,,,,,,0.0,1.0,0.8554,0.0,23.0,23.0,23.0,1.0,,,,,,,,,,,,,,,
,,,,,,,,,,,,,,,,,,,,,,,,,,,,,,,,,,,,,,,,,,,,bolo_tie_08s.jpg,0.0,Blue.png,5.0,75,,,,,,,,,,,,,0.0,1.0,0.8266,0.0,24.0,24.0,24.0,1.0,,,,,,,,,,,,,,,
,,,,,,,,,,,,,,,,,,,,,,,,,,,,,,,,,,,,,,,,,,,,teacup_07s.jpg,0.0,Purple.png,5.0,75,,,,,,,,,,,,,0.0,1.0,1.3343,0.0,25.0,25.0,25.0,1.0,,,,,,,,,,,,,,,
,,,,,,,,,,,,,,,,,,,,,,,,,,,,,,,,,,,,,,,,,,,,eyedropper_12s.jpg,0.0,Red.png,5.0,75,,,,,,,,,,,,,0.0,1.0,0.6409,0.0,26.0,26.0,26.0,1.0,,,,,,,,,,,,,,,
,,,,,,,,,,,,,,,,,,,,,,,,,,,,,,,,,,,,,,,,,,,,frame_06s.jpg,0.0,Orange.png,5.0,75,,,,,,,,,,,,,0.0,1.0,0.9774,0.0,27.0,27.0,27.0,1.0,,,,,,,,,,,,,,,
,,,,,,,,,,,,,,,,,,,,,,,,,,,,,,,,,,,,,,,,,,,,treadmill_06s.jpg,0.0,Yellow.png,5.0,75,,,,,,,,,,,,,0.0,1.0,0.9076,0.0,28.0,28.0,28.0,1.0,,,,,,,,,,,,,,,
,,,,,,,,,,,,,,,,,,,,,,,,,,,,,,,,,,,,,,,,,,,,mug_06s.jpg,0.0,Green.png,5.0,75,,,,,,,,,,,,,0.0,1.0,0.7598,0.0,29.0,29.0,29.0,1.0,,,,,,,,,,,,,,,
,,,,,,,,,,,,,,,,,,,,,,,,,,,,,,,,,,,,,,,,,,,,mug_06s.jpg,0.0,Blue.png,6.0,75,,,,,,,,,,,,,0.0,1.0,1.357,0.0,30.0,30.0,30.0,1.0,,,,,,,,,,,,,,,
,,,,,,,,,,,,,,,,,,,,,,,,,,,,,,,,,,,,,,,,,,,,mug_06s.jpg,1.0,Purple.png,6.0,75,,,,,,,,,,,,,1.0,1.0,0.941,0.0,31.0,31.0,31.0,1.0,,,,,,,,,,,,,,,
,,,,,,,,,,,,,,,,,,,,,,,,,,,,,,,,,,,,,,,,,,,,chip_04s.jpg,0.0,Red.png,6.0,75,,,,,,,,,,,,,0.0,1.0,0.7577,0.0,32.0,32.0,32.0,1.0,,,,,,,,,,,,,,,
,,,,,,,,,,,,,,,,,,,,,,,,,,,,,,,,,,,,,,,,,,,,gazelle_10s.jpg,0.0,Orange.png,6.0,75,,,,,,,,,,,,,0.0,1.0,1.091,0.0,33.0,33.0,33.0,1.0,,,,,,,,,,,,,,,
,,,,,,,,,,,,,,,,,,,,,,,,,,,,,,,,,,,,,,,,,,,,chip_04s.jpg,1.0,Yellow.png,6.0,75,,,,,,,,,,,,,1.0,1.0,1.3728,0.0,34.0,34.0,34.0,1.0,,,,,,,,,,,,,,,
,,,,,,,,,,,,,,,,,,,,,,,,,,,,,,,,,,,,,,,,,,,,quill_09s.jpg,0.0,Green.png,6.0,75,,,,,,,,,,,,,0.0,1.0,0.7733,0.0,35.0,35.0,35.0,1.0,,,,,,,,,,,,,,,
,,,,,,,,,,,,,,,,,,,,,,,,,,,,,,,,,,,,,,,,,,,,,0.0,,,75,,,,,,,,,bolo_tie_08s.jpg,stopwatch_04s.jpg,,,,,,,,,,,0.0,1.0,1.3808,0.0,0.0,0.0,0.0,1.0,,,,,,,
,,,,,,,,,,,,,,,,,,,,,,,,,,,,,,,,,,,,,,,,,,,,,0.0,,,75,,,,,,,,,lamppost_09s.jpg,chalice_10s.jpg,,,,,,,,,,,0.0,1.0,1.645,0.0,1.0,1.0,1.0,1.0,,,,,,,
,,,,,,,,,,,,,,,,,,,,,,,,,,,,,,,,,,,,,,,,,,,,,0.0,,,75,,,,,,,,,eyedropper_12s.jpg,lab_coat_11s.jpg,,,,,,,,,,,1.0,0.0,1.6797,0.0,2.0,2.0,2.0,1.0,,,,,,,
,,,,,,,,,,,,,,,,,,,,,,,,,,,,,,,,,,,,,,,,,,,,,1.0,,,75,,,,,,,,,lava_02s.jpg,tulip_02s.jpg,,,,,,,,,,,1.0,1.0,1.9146,0.0,3.0,3.0,3.0,1.0,,,,,,,
,,,,,,,,,,,,,,,,,,,,,,,,,,,,,,,,,,,,,,,,,,,,,0.0,,,75,,,,,,,,,seahorse_13s.jpg,pantyhose_07s.jpg,,,,,,,,,,,0.0,1.0,1.938,0.0,4.0,4.0,4.0,1.0,,,,,,,
,,,,,,,,,,,,,,,,,,,,,,,,,,,,,,,,,,,,,,,,,,,,,1.0,,,75,,,,,,,,,fishhook_06s.jpg,comic_book_02s.jpg,,,,,,,,,,,1.0,1.0,2.5038,0.0,5.0,5.0,5.0,1.0,,,,,,,
,,,,,,,,,,,,,,,,,,,,,,,,,,,,,,,,,,,,,,,,,,,,,,,,75,,,,,,,,,,,,,,,,,,,,,,,,,,,,,0.0,8.0,8.0,8.0,1.0,newclockpresent_9_1.xlsx,newclock_compare_task_9_1.xlsx
