key_resp_3.keys,key_resp_3.rt,key_resp_4.keys,key_resp_4.rt,key_resp_5.keys,key_resp_5.rt,key_resp_6.keys,key_resp_6.rt,key_resp_7.keys,key_resp_7.rt,key_resp_8.keys,key_resp_8.rt,key_resp_9.keys,key_resp_9.rt,key_resp_10.keys,key_resp_10.rt,key_resp_11.keys,key_resp_11.rt,key_resp_12.keys,key_resp_12.rt,key_resp_13.keys,key_resp_13.rt,key_resp_14.keys,key_resp_14.rt,key_resp_15.keys,key_resp_15.rt,key_resp_16.keys,key_resp_16.rt,key_resp_17.keys,key_resp_17.rt,key_resp_18.keys,key_resp_18.rt,key_resp_19.keys,key_resp_19.rt,key_resp_20.keys,key_resp_20.rt,key_resp_21.keys,key_resp_21.corr,key_resp_21.rt,trials.thisRepN,trials.thisTrialN,trials.thisN,trials.thisIndex,trials.ran,pictures,answer,clock,segment,participant,key_resp_22.keys,key_resp_22.corr,key_resp_22.rt,trials_2.thisRepN,trials_2.thisTrialN,trials_2.thisN,trials_2.thisIndex,trials_2.ran,item_a,item_b,key_resp_23.keys,key_resp_23.rt,key_resp.keys,key_resp.corr,key_resp.rt,present_segment.thisRepN,present_segment.thisTrialN,present_segment.thisN,present_segment.thisIndex,present_segment.ran,key_resp_2.keys,key_resp_2.corr,key_resp_2.rt,compare_segment.thisRepN,compare_segment.thisTrialN,compare_segment.thisN,compare_segment.thisIndex,compare_segment.ran,clock_conditions.thisRepN,clock_conditions.thisTrialN,clock_conditions.thisN,clock_conditions.thisIndex,clock_conditions.ran,present,compare
space,17.65,space,3.137,0.0,2.928,0.0,0.765,1.0,0.652,0.0,0.579,0.0,0.601,0.0,2.072,0.0,1.343,0.0,0.712,1.0,1.03,0.0,0.594,0.0,0.781,0.0,0.628,space,2.284,1.0,2.209,0.0,1.114,space,1.819,0.0,1.0,1.581,0.0,0.0,0.0,0.0,1.0,whipped_cream_02s.jpg,0.0,Blue.png,1.0,15,,,,,,,,,,,,,,,,,,,,,,,,,,,,,,,,,,,
,,,,,,,,,,,,,,,,,,,,,,,,,,,,,,,,,,,,0.0,1.0,0.649,0.0,1.0,1.0,1.0,1.0,sheep_02s.jpg,0.0,Purple.png,1.0,15,,,,,,,,,,,,,,,,,,,,,,,,,,,,,,,,,,,
,,,,,,,,,,,,,,,,,,,,,,,,,,,,,,,,,,,,0.0,1.0,1.037,0.0,2.0,2.0,2.0,1.0,sheep_02s.jpg,0.0,Red.png,1.0,15,,,,,,,,,,,,,,,,,,,,,,,,,,,,,,,,,,,
,,,,,,,,,,,,,,,,,,,,,,,,,,,,,,,,,,,,0.0,1.0,0.737,0.0,3.0,3.0,3.0,1.0,sequin_02s.jpg,0.0,Orange.png,1.0,15,,,,,,,,,,,,,,,,,,,,,,,,,,,,,,,,,,,
,,,,,,,,,,,,,,,,,,,,,,,,,,,,,,,,,,,,1.0,1.0,0.865,0.0,4.0,4.0,4.0,1.0,sheep_02s.jpg,1.0,Yellow.png,1.0,15,,,,,,,,,,,,,,,,,,,,,,,,,,,,,,,,,,,
,,,,,,,,,,,,,,,,,,,,,,,,,,,,,,,,,,,,0.0,1.0,0.785,0.0,5.0,5.0,5.0,1.0,scoop_05s.jpg,0.0,Green.png,1.0,15,,,,,,,,,,,,,,,,,,,,,,,,,,,,,,,,,,,
,,,,,,,,,,,,,,,,,,,,,,,,,,,,,,,,,,,,0.0,1.0,0.813,0.0,6.0,6.0,6.0,1.0,wagon_12s.jpg,0.0,Blue.png,2.0,15,,,,,,,,,,,,,,,,,,,,,,,,,,,,,,,,,,,
,,,,,,,,,,,,,,,,,,,,,,,,,,,,,,,,,,,,0.0,1.0,0.815,0.0,7.0,7.0,7.0,1.0,scrabble_05s.jpg,0.0,Purple.png,2.0,15,,,,,,,,,,,,,,,,,,,,,,,,,,,,,,,,,,,
,,,,,,,,,,,,,,,,,,,,,,,,,,,,,,,,,,,,1.0,1.0,0.901,0.0,8.0,8.0,8.0,1.0,wagon_12s.jpg,1.0,Red.png,2.0,15,,,,,,,,,,,,,,,,,,,,,,,,,,,,,,,,,,,
,,,,,,,,,,,,,,,,,,,,,,,,,,,,,,,,,,,,1.0,1.0,0.815,0.0,9.0,9.0,9.0,1.0,scrabble_05s.jpg,1.0,Orange.png,2.0,15,,,,,,,,,,,,,,,,,,,,,,,,,,,,,,,,,,,
,,,,,,,,,,,,,,,,,,,,,,,,,,,,,,,,,,,,0.0,1.0,0.582,0.0,10.0,10.0,10.0,1.0,weasel_08s.jpg,0.0,Yellow.png,2.0,15,,,,,,,,,,,,,,,,,,,,,,,,,,,,,,,,,,,
,,,,,,,,,,,,,,,,,,,,,,,,,,,,,,,,,,,,0.0,1.0,0.558,0.0,11.0,11.0,11.0,1.0,scooter_06s.jpg,0.0,Green.png,2.0,15,,,,,,,,,,,,,,,,,,,,,,,,,,,,,,,,,,,
,,,,,,,,,,,,,,,,,,,,,,,,,,,,,,,,,,,,0.0,1.0,0.622,0.0,12.0,12.0,12.0,1.0,wetsuit_04s.jpg,0.0,Blue.png,3.0,15,,,,,,,,,,,,,,,,,,,,,,,,,,,,,,,,,,,
,,,,,,,,,,,,,,,,,,,,,,,,,,,,,,,,,,,,0.0,1.0,1.978,0.0,13.0,13.0,13.0,1.0,wetsuit_04s.jpg,0.0,Purple.png,3.0,15,,,,,,,,,,,,,,,,,,,,,,,,,,,,,,,,,,,
,,,,,,,,,,,,,,,,,,,,,,,,,,,,,,,,,,,,1.0,1.0,1.195,0.0,14.0,14.0,14.0,1.0,wetsuit_04s.jpg,1.0,Red.png,3.0,15,,,,,,,,,,,,,,,,,,,,,,,,,,,,,,,,,,,
,,,,,,,,,,,,,,,,,,,,,,,,,,,,,,,,,,,,0.0,1.0,0.527,0.0,15.0,15.0,15.0,1.0,water_fountain_01b.jpg,0.0,Orange.png,3.0,15,,,,,,,,,,,,,,,,,,,,,,,,,,,,,,,,,,,
,,,,,,,,,,,,,,,,,,,,,,,,,,,,,,,,,,,,0.0,1.0,0.794,0.0,16.0,16.0,16.0,1.0,waffle_iron_11s.jpg,0.0,Yellow.png,3.0,15,,,,,,,,,,,,,,,,,,,,,,,,,,,,,,,,,,,
,,,,,,,,,,,,,,,,,,,,,,,,,,,,,,,,,,,,0.0,1.0,0.626,0.0,17.0,17.0,17.0,1.0,wing_08s.jpg,0.0,Green.png,3.0,15,,,,,,,,,,,,,,,,,,,,,,,,,,,,,,,,,,,
,,,,,,,,,,,,,,,,,,,,,,,,,,,,,,,,,,,,0.0,1.0,0.811,0.0,18.0,18.0,18.0,1.0,shield_02s.jpg,0.0,Blue.png,4.0,15,,,,,,,,,,,,,,,,,,,,,,,,,,,,,,,,,,,
,,,,,,,,,,,,,,,,,,,,,,,,,,,,,,,,,,,,0.0,1.0,0.659,0.0,19.0,19.0,19.0,1.0,shovel_09s.jpg,0.0,Purple.png,4.0,15,,,,,,,,,,,,,,,,,,,,,,,,,,,,,,,,,,,
,,,,,,,,,,,,,,,,,,,,,,,,,,,,,,,,,,,,0.0,1.0,0.753,0.0,20.0,20.0,20.0,1.0,watch_09s.jpg,0.0,Red.png,4.0,15,,,,,,,,,,,,,,,,,,,,,,,,,,,,,,,,,,,
,,,,,,,,,,,,,,,,,,,,,,,,,,,,,,,,,,,,1.0,1.0,0.707,0.0,21.0,21.0,21.0,1.0,shovel_09s.jpg,1.0,Orange.png,4.0,15,,,,,,,,,,,,,,,,,,,,,,,,,,,,,,,,,,,
,,,,,,,,,,,,,,,,,,,,,,,,,,,,,,,,,,,,0.0,1.0,0.867,0.0,22.0,22.0,22.0,1.0,shovel_09s.jpg,0.0,Yellow.png,4.0,15,,,,,,,,,,,,,,,,,,,,,,,,,,,,,,,,,,,
,,,,,,,,,,,,,,,,,,,,,,,,,,,,,,,,,,,,0.0,1.0,0.693,0.0,23.0,23.0,23.0,1.0,watering_can_14s.jpg,0.0,Green.png,4.0,15,,,,,,,,,,,,,,,,,,,,,,,,,,,,,,,,,,,
,,,,,,,,,,,,,,,,,,,,,,,,,,,,,,,,,,,,0.0,1.0,0.613,0.0,24.0,24.0,24.0,1.0,wasp_13n.jpg,0.0,Blue.png,5.0,15,,,,,,,,,,,,,,,,,,,,,,,,,,,,,,,,,,,
,,,,,,,,,,,,,,,,,,,,,,,,,,,,,,,,,,,,0.0,1.0,0.607,0.0,25.0,25.0,25.0,1.0,shoelace_13s.jpg,0.0,Purple.png,5.0,15,,,,,,,,,,,,,,,,,,,,,,,,,,,,,,,,,,,
,,,,,,,,,,,,,,,,,,,,,,,,,,,,,,,,,,,,0.0,1.0,0.49,0.0,26.0,26.0,26.0,1.0,scarf_16s.jpg,0.0,Red.png,5.0,15,,,,,,,,,,,,,,,,,,,,,,,,,,,,,,,,,,,
,,,,,,,,,,,,,,,,,,,,,,,,,,,,,,,,,,,,0.0,1.0,0.656,0.0,27.0,27.0,27.0,1.0,screwdriver_07s.jpg,0.0,Orange.png,5.0,15,,,,,,,,,,,,,,,,,,,,,,,,,,,,,,,,,,,
,,,,,,,,,,,,,,,,,,,,,,,,,,,,,,,,,,,,0.0,1.0,0.657,0.0,28.0,28.0,28.0,1.0,drink_05s.jpg,0.0,Yellow.png,5.0,15,,,,,,,,,,,,,,,,,,,,,,,,,,,,,,,,,,,
,,,,,,,,,,,,,,,,,,,,,,,,,,,,,,,,,,,,1.0,1.0,0.514,0.0,29.0,29.0,29.0,1.0,screwdriver_07s.jpg,1.0,Green.png,5.0,15,,,,,,,,,,,,,,,,,,,,,,,,,,,,,,,,,,,
,,,,,,,,,,,,,,,,,,,,,,,,,,,,,,,,,,,,0.0,1.0,0.764,0.0,30.0,30.0,30.0,1.0,seaweed_07s.jpg,0.0,Blue.png,6.0,15,,,,,,,,,,,,,,,,,,,,,,,,,,,,,,,,,,,
,,,,,,,,,,,,,,,,,,,,,,,,,,,,,,,,,,,,0.0,1.0,0.533,0.0,31.0,31.0,31.0,1.0,saxophone_04s.jpg,0.0,Purple.png,6.0,15,,,,,,,,,,,,,,,,,,,,,,,,,,,,,,,,,,,
,,,,,,,,,,,,,,,,,,,,,,,,,,,,,,,,,,,,0.0,1.0,0.864,0.0,32.0,32.0,32.0,1.0,saxophone_04s.jpg,0.0,Red.png,6.0,15,,,,,,,,,,,,,,,,,,,,,,,,,,,,,,,,,,,
,,,,,,,,,,,,,,,,,,,,,,,,,,,,,,,,,,,,0.0,1.0,0.592,0.0,33.0,33.0,33.0,1.0,scorpion_01b.jpg,0.0,Orange.png,6.0,15,,,,,,,,,,,,,,,,,,,,,,,,,,,,,,,,,,,
,,,,,,,,,,,,,,,,,,,,,,,,,,,,,,,,,,,,1.0,1.0,1.167,0.0,34.0,34.0,34.0,1.0,saxophone_04s.jpg,1.0,Yellow.png,6.0,15,,,,,,,,,,,,,,,,,,,,,,,,,,,,,,,,,,,
,,,,,,,,,,,,,,,,,,,,,,,,,,,,,,,,,,,,0.0,1.0,0.614,0.0,35.0,35.0,35.0,1.0,saxophone_04s.jpg,0.0,Green.png,6.0,15,,,,,,,,,,,,,,,,,,,,,,,,,,,,,,,,,,,
,,,,,,,,,,,,,,,,,,,,,,,,,,,,,,,,,,,,,,,,,,,,,1.0,,,15,0.0,0.0,3.65,0.0,0.0,0.0,0.0,1.0,water_fountain_01b.jpg,shield_02s.jpg,,,,,,,,,,,,,,,,,,,,,,,,,
,,,,,,,,,,,,,,,,,,,,,,,,,,,,,,,,,,,,,,,,,,,,,0.0,,,15,0.0,1.0,1.892,0.0,1.0,1.0,1.0,1.0,watch_09s.jpg,wing_08s.jpg,,,,,,,,,,,,,,,,,,,,,,,,,
,,,,,,,,,,,,,,,,,,,,,,,,,,,,,,,,,,,,,,,,,,,,,1.0,,,15,1.0,1.0,1.378,0.0,2.0,2.0,2.0,1.0,watering_can_14s.jpg,scarf_16s.jpg,,,,,,,,,,,,,,,,,,,,,,,,,
,,,,,,,,,,,,,,,,,,,,,,,,,,,,,,,,,,,,,,,,,,,,,1.0,,,15,1.0,1.0,1.562,0.0,3.0,3.0,3.0,1.0,whipped_cream_02s.jpg,sequin_02s.jpg,,,,,,,,,,,,,,,,,,,,,,,,,
,,,,,,,,,,,,,,,,,,,,,,,,,,,,,,,,,,,,,,,,,,,,,0.0,,,15,0.0,1.0,1.75,0.0,4.0,4.0,4.0,1.0,drink_05s.jpg,shoelace_13s.jpg,,,,,,,,,,,,,,,,,,,,,,,,,
,,,,,,,,,,,,,,,,,,,,,,,,,,,,,,,,,,,,,,,,,,,,,1.0,,,15,1.0,1.0,1.615,0.0,5.0,5.0,5.0,1.0,seaweed_07s.jpg,scorpion_01b.jpg,,,,,,,,,,,,,,,,,,,,,,,,,
,,,,,,,,,,,,,,,,,,,,,,,,,,,,,,,,,,,,,,,,,,,,insole_11s.jpg,0.0,Blue.png,1.0,15,,,,,,,,,,,space,2.417,0.0,1.0,1.366,0.0,0.0,0.0,0.0,1.0,,,,,,,,,,,,,,,
,,,,,,,,,,,,,,,,,,,,,,,,,,,,,,,,,,,,,,,,,,,,tupperware_09s.jpg,0.0,Purple.png,1.0,15,,,,,,,,,,,,,0.0,1.0,0.855,0.0,1.0,1.0,1.0,1.0,,,,,,,,,,,,,,,
,,,,,,,,,,,,,,,,,,,,,,,,,,,,,,,,,,,,,,,,,,,,tupperware_09s.jpg,0.0,Red.png,1.0,15,,,,,,,,,,,,,0.0,1.0,0.786,0.0,2.0,2.0,2.0,1.0,,,,,,,,,,,,,,,
,,,,,,,,,,,,,,,,,,,,,,,,,,,,,,,,,,,,,,,,,,,,fox_13s.jpg,0.0,Orange.png,1.0,15,,,,,,,,,,,,,0.0,1.0,0.767,0.0,3.0,3.0,3.0,1.0,,,,,,,,,,,,,,,
,,,,,,,,,,,,,,,,,,,,,,,,,,,,,,,,,,,,,,,,,,,,tupperware_09s.jpg,1.0,Yellow.png,1.0,15,,,,,,,,,,,,,1.0,1.0,0.853,0.0,4.0,4.0,4.0,1.0,,,,,,,,,,,,,,,
,,,,,,,,,,,,,,,,,,,,,,,,,,,,,,,,,,,,,,,,,,,,lavender_10s.jpg,0.0,Green.png,1.0,15,,,,,,,,,,,,,0.0,1.0,0.457,0.0,5.0,5.0,5.0,1.0,,,,,,,,,,,,,,,
,,,,,,,,,,,,,,,,,,,,,,,,,,,,,,,,,,,,,,,,,,,,tupperware_09s.jpg,1.0,Blue.png,2.0,15,,,,,,,,,,,,,1.0,1.0,0.619,0.0,6.0,6.0,6.0,1.0,,,,,,,,,,,,,,,
,,,,,,,,,,,,,,,,,,,,,,,,,,,,,,,,,,,,,,,,,,,,poinsettia_04s.jpg,0.0,Purple.png,2.0,15,,,,,,,,,,,,,0.0,1.0,0.768,0.0,7.0,7.0,7.0,1.0,,,,,,,,,,,,,,,
,,,,,,,,,,,,,,,,,,,,,,,,,,,,,,,,,,,,,,,,,,,,margarita_03s.jpg,0.0,Red.png,2.0,15,,,,,,,,,,,,,0.0,1.0,0.85,0.0,8.0,8.0,8.0,1.0,,,,,,,,,,,,,,,
,,,,,,,,,,,,,,,,,,,,,,,,,,,,,,,,,,,,,,,,,,,,toothpaste_12s.jpg,0.0,Orange.png,2.0,15,,,,,,,,,,,,,0.0,1.0,0.585,0.0,9.0,9.0,9.0,1.0,,,,,,,,,,,,,,,
,,,,,,,,,,,,,,,,,,,,,,,,,,,,,,,,,,,,,,,,,,,,ladder_15s.jpg,0.0,Yellow.png,2.0,15,,,,,,,,,,,,,0.0,1.0,0.503,0.0,10.0,10.0,10.0,1.0,,,,,,,,,,,,,,,
,,,,,,,,,,,,,,,,,,,,,,,,,,,,,,,,,,,,,,,,,,,,pocketknife_12s.jpg,0.0,Green.png,2.0,15,,,,,,,,,,,,,0.0,1.0,0.552,0.0,11.0,11.0,11.0,1.0,,,,,,,,,,,,,,,
,,,,,,,,,,,,,,,,,,,,,,,,,,,,,,,,,,,,,,,,,,,,spoon02a.jpg,0.0,Blue.png,3.0,15,,,,,,,,,,,,,0.0,1.0,0.554,0.0,12.0,12.0,12.0,1.0,,,,,,,,,,,,,,,
,,,,,,,,,,,,,,,,,,,,,,,,,,,,,,,,,,,,,,,,,,,,mango_09s.jpg,0.0,Purple.png,3.0,15,,,,,,,,,,,,,0.0,1.0,0.653,0.0,13.0,13.0,13.0,1.0,,,,,,,,,,,,,,,
,,,,,,,,,,,,,,,,,,,,,,,,,,,,,,,,,,,,,,,,,,,,chalice_10s.jpg,0.0,Red.png,3.0,15,,,,,,,,,,,,,0.0,1.0,0.733,0.0,14.0,14.0,14.0,1.0,,,,,,,,,,,,,,,
,,,,,,,,,,,,,,,,,,,,,,,,,,,,,,,,,,,,,,,,,,,,pocketknife_12s.jpg,0.0,Orange.png,3.0,15,,,,,,,,,,,,,0.0,1.0,0.902,0.0,15.0,15.0,15.0,1.0,,,,,,,,,,,,,,,
,,,,,,,,,,,,,,,,,,,,,,,,,,,,,,,,,,,,,,,,,,,,abacus_12s.jpg,0.0,Yellow.png,3.0,15,,,,,,,,,,,,,0.0,1.0,0.508,0.0,16.0,16.0,16.0,1.0,,,,,,,,,,,,,,,
,,,,,,,,,,,,,,,,,,,,,,,,,,,,,,,,,,,,,,,,,,,,abacus_12s.jpg,0.0,Green.png,3.0,15,,,,,,,,,,,,,0.0,1.0,0.966,0.0,17.0,17.0,17.0,1.0,,,,,,,,,,,,,,,
,,,,,,,,,,,,,,,,,,,,,,,,,,,,,,,,,,,,,,,,,,,,abacus_12s.jpg,1.0,Blue.png,4.0,15,,,,,,,,,,,,,1.0,1.0,0.999,0.0,18.0,18.0,18.0,1.0,,,,,,,,,,,,,,,
,,,,,,,,,,,,,,,,,,,,,,,,,,,,,,,,,,,,,,,,,,,,abacus_12s.jpg,1.0,Purple.png,4.0,15,,,,,,,,,,,,,1.0,1.0,0.57,0.0,19.0,19.0,19.0,1.0,,,,,,,,,,,,,,,
,,,,,,,,,,,,,,,,,,,,,,,,,,,,,,,,,,,,,,,,,,,,sushi_08s.jpg,0.0,Red.png,4.0,15,,,,,,,,,,,,,0.0,1.0,0.488,0.0,20.0,20.0,20.0,1.0,,,,,,,,,,,,,,,
,,,,,,,,,,,,,,,,,,,,,,,,,,,,,,,,,,,,,,,,,,,,funnel_01b.jpg,0.0,Orange.png,4.0,15,,,,,,,,,,,,,0.0,1.0,0.57,0.0,21.0,21.0,21.0,1.0,,,,,,,,,,,,,,,
,,,,,,,,,,,,,,,,,,,,,,,,,,,,,,,,,,,,,,,,,,,,rooster_03s.jpg,0.0,Yellow.png,4.0,15,,,,,,,,,,,,,0.0,1.0,0.465,0.0,22.0,22.0,22.0,1.0,,,,,,,,,,,,,,,
,,,,,,,,,,,,,,,,,,,,,,,,,,,,,,,,,,,,,,,,,,,,ukulele_02s.jpg,0.0,Green.png,4.0,15,,,,,,,,,,,,,0.0,1.0,0.835,0.0,23.0,23.0,23.0,1.0,,,,,,,,,,,,,,,
,,,,,,,,,,,,,,,,,,,,,,,,,,,,,,,,,,,,,,,,,,,,pocketknife_12s.jpg,0.0,Blue.png,5.0,15,,,,,,,,,,,,,0.0,1.0,0.825,0.0,24.0,24.0,24.0,1.0,,,,,,,,,,,,,,,
,,,,,,,,,,,,,,,,,,,,,,,,,,,,,,,,,,,,,,,,,,,,pocketknife_12s.jpg,0.0,Purple.png,5.0,15,,,,,,,,,,,,,0.0,1.0,0.938,0.0,25.0,25.0,25.0,1.0,,,,,,,,,,,,,,,
,,,,,,,,,,,,,,,,,,,,,,,,,,,,,,,,,,,,,,,,,,,,pocketknife_12s.jpg,1.0,Red.png,5.0,15,,,,,,,,,,,,,1.0,1.0,0.605,0.0,26.0,26.0,26.0,1.0,,,,,,,,,,,,,,,
,,,,,,,,,,,,,,,,,,,,,,,,,,,,,,,,,,,,,,,,,,,,stapler_01b.jpg,0.0,Orange.png,5.0,15,,,,,,,,,,,,,0.0,1.0,1.15,0.0,27.0,27.0,27.0,1.0,,,,,,,,,,,,,,,
,,,,,,,,,,,,,,,,,,,,,,,,,,,,,,,,,,,,,,,,,,,,birthday_cake_09s.jpg,0.0,Yellow.png,5.0,15,,,,,,,,,,,,,0.0,1.0,0.537,0.0,28.0,28.0,28.0,1.0,,,,,,,,,,,,,,,
,,,,,,,,,,,,,,,,,,,,,,,,,,,,,,,,,,,,,,,,,,,,meatball_13s.jpg,0.0,Green.png,5.0,15,,,,,,,,,,,,,0.0,1.0,0.653,0.0,29.0,29.0,29.0,1.0,,,,,,,,,,,,,,,
,,,,,,,,,,,,,,,,,,,,,,,,,,,,,,,,,,,,,,,,,,,,cape_11s.jpg,0.0,Blue.png,6.0,15,,,,,,,,,,,,,0.0,1.0,0.532,0.0,30.0,30.0,30.0,1.0,,,,,,,,,,,,,,,
,,,,,,,,,,,,,,,,,,,,,,,,,,,,,,,,,,,,,,,,,,,,cape_11s.jpg,0.0,Purple.png,6.0,15,,,,,,,,,,,,,0.0,1.0,0.743,0.0,31.0,31.0,31.0,1.0,,,,,,,,,,,,,,,
,,,,,,,,,,,,,,,,,,,,,,,,,,,,,,,,,,,,,,,,,,,,lizard_10n.jpg,0.0,Red.png,6.0,15,,,,,,,,,,,,,0.0,1.0,0.701,0.0,32.0,32.0,32.0,1.0,,,,,,,,,,,,,,,
,,,,,,,,,,,,,,,,,,,,,,,,,,,,,,,,,,,,,,,,,,,,refrigerator_07s.jpg,0.0,Orange.png,6.0,15,,,,,,,,,,,,,0.0,1.0,0.519,0.0,33.0,33.0,33.0,1.0,,,,,,,,,,,,,,,
,,,,,,,,,,,,,,,,,,,,,,,,,,,,,,,,,,,,,,,,,,,,refrigerator_07s.jpg,0.0,Yellow.png,6.0,15,,,,,,,,,,,,,0.0,1.0,1.042,0.0,34.0,34.0,34.0,1.0,,,,,,,,,,,,,,,
,,,,,,,,,,,,,,,,,,,,,,,,,,,,,,,,,,,,,,,,,,,,touchpad_11s.jpg,0.0,Green.png,6.0,15,,,,,,,,,,,,,0.0,1.0,0.669,0.0,35.0,35.0,35.0,1.0,,,,,,,,,,,,,,,
,,,,,,,,,,,,,,,,,,,,,,,,,,,,,,,,,,,,,,,,,,,,,1.0,,,15,,,,,,,,,lavender_10s.jpg,margarita_03s.jpg,,,,,,,,,,,1.0,1.0,2.679,0.0,0.0,0.0,0.0,1.0,,,,,,,
,,,,,,,,,,,,,,,,,,,,,,,,,,,,,,,,,,,,,,,,,,,,,1.0,,,15,,,,,,,,,toothpaste_12s.jpg,spoon02a.jpg,,,,,,,,,,,1.0,1.0,1.563,0.0,1.0,1.0,1.0,1.0,,,,,,,
,,,,,,,,,,,,,,,,,,,,,,,,,,,,,,,,,,,,,,,,,,,,,1.0,,,15,,,,,,,,,ladder_15s.jpg,mango_09s.jpg,,,,,,,,,,,1.0,1.0,1.767,0.0,2.0,2.0,2.0,1.0,,,,,,,
,,,,,,,,,,,,,,,,,,,,,,,,,,,,,,,,,,,,,,,,,,,,,0.0,,,15,,,,,,,,,fox_13s.jpg,insole_11s.jpg,,,,,,,,,,,0.0,1.0,1.785,0.0,3.0,3.0,3.0,1.0,,,,,,,
,,,,,,,,,,,,,,,,,,,,,,,,,,,,,,,,,,,,,,,,,,,,,0.0,,,15,,,,,,,,,ukulele_02s.jpg,sushi_08s.jpg,,,,,,,,,,,0.0,1.0,1.397,0.0,4.0,4.0,4.0,1.0,,,,,,,
,,,,,,,,,,,,,,,,,,,,,,,,,,,,,,,,,,,,,,,,,,,,,0.0,,,15,,,,,,,,,touchpad_11s.jpg,lizard_10n.jpg,,,,,,,,,,,0.0,1.0,1.885,0.0,5.0,5.0,5.0,1.0,,,,,,,
,,,,,,,,,,,,,,,,,,,,,,,,,,,,,,,,,,,,,,,,,,,,,,,,15,,,,,,,,,,,,,,,,,,,,,,,,,,,,,0.0,0.0,0.0,0.0,1.0,new2backpresent_1_2.xlsx,new2back_compare_task_1_2.xlsx
,,,,,,,,,,,,,,,,,,,,,,,,,,,,,,,,,,,,,,,,,,,,juicer2_06s.jpg,0.0,Blue.png,1.0,15,,,,,,,,,,,,,0.0,1.0,0.961,0.0,0.0,0.0,0.0,1.0,,,,,,,,,,,,,,,
,,,,,,,,,,,,,,,,,,,,,,,,,,,,,,,,,,,,,,,,,,,,juicer2_06s.jpg,0.0,Purple.png,1.0,15,,,,,,,,,,,,,0.0,1.0,0.711,0.0,1.0,1.0,1.0,1.0,,,,,,,,,,,,,,,
,,,,,,,,,,,,,,,,,,,,,,,,,,,,,,,,,,,,,,,,,,,,tambourine_06s.jpg,0.0,Red.png,1.0,15,,,,,,,,,,,,,0.0,1.0,0.829,0.0,2.0,2.0,2.0,1.0,,,,,,,,,,,,,,,
,,,,,,,,,,,,,,,,,,,,,,,,,,,,,,,,,,,,,,,,,,,,luggage_08s.jpg,0.0,Orange.png,1.0,15,,,,,,,,,,,,,0.0,1.0,0.788,0.0,3.0,3.0,3.0,1.0,,,,,,,,,,,,,,,
,,,,,,,,,,,,,,,,,,,,,,,,,,,,,,,,,,,,,,,,,,,,tambourine_06s.jpg,1.0,Yellow.png,1.0,15,,,,,,,,,,,,,1.0,1.0,1.001,0.0,4.0,4.0,4.0,1.0,,,,,,,,,,,,,,,
,,,,,,,,,,,,,,,,,,,,,,,,,,,,,,,,,,,,,,,,,,,,towel_rack_04s.jpg,0.0,Green.png,1.0,15,,,,,,,,,,,,,0.0,1.0,0.902,0.0,5.0,5.0,5.0,1.0,,,,,,,,,,,,,,,
,,,,,,,,,,,,,,,,,,,,,,,,,,,,,,,,,,,,,,,,,,,,crayon_09s.jpg,0.0,Blue.png,2.0,15,,,,,,,,,,,,,0.0,1.0,0.765,0.0,6.0,6.0,6.0,1.0,,,,,,,,,,,,,,,
,,,,,,,,,,,,,,,,,,,,,,,,,,,,,,,,,,,,,,,,,,,,gargoyle_08s.jpg,0.0,Purple.png,2.0,15,,,,,,,,,,,,,0.0,1.0,0.701,0.0,7.0,7.0,7.0,1.0,,,,,,,,,,,,,,,
,,,,,,,,,,,,,,,,,,,,,,,,,,,,,,,,,,,,,,,,,,,,boar_10s.jpg,0.0,Red.png,2.0,15,,,,,,,,,,,,,0.0,1.0,0.624,0.0,8.0,8.0,8.0,1.0,,,,,,,,,,,,,,,
,,,,,,,,,,,,,,,,,,,,,,,,,,,,,,,,,,,,,,,,,,,,gargoyle_08s.jpg,1.0,Orange.png,2.0,15,,,,,,,,,,,,,1.0,1.0,0.733,0.0,9.0,9.0,9.0,1.0,,,,,,,,,,,,,,,
,,,,,,,,,,,,,,,,,,,,,,,,,,,,,,,,,,,,,,,,,,,,limousine_12s.jpg,0.0,Yellow.png,2.0,15,,,,,,,,,,,,,0.0,1.0,0.57,0.0,10.0,10.0,10.0,1.0,,,,,,,,,,,,,,,
,,,,,,,,,,,,,,,,,,,,,,,,,,,,,,,,,,,,,,,,,,,,outlet_10s.jpg,0.0,Green.png,2.0,15,,,,,,,,,,,,,0.0,1.0,0.529,0.0,11.0,11.0,11.0,1.0,,,,,,,,,,,,,,,
,,,,,,,,,,,,,,,,,,,,,,,,,,,,,,,,,,,,,,,,,,,,comic_book_02s.jpg,0.0,Blue.png,3.0,15,,,,,,,,,,,,,0.0,1.0,0.656,0.0,12.0,12.0,12.0,1.0,,,,,,,,,,,,,,,
,,,,,,,,,,,,,,,,,,,,,,,,,,,,,,,,,,,,,,,,,,,,mask_09s.jpg,0.0,Purple.png,3.0,15,,,,,,,,,,,,,0.0,1.0,0.627,0.0,13.0,13.0,13.0,1.0,,,,,,,,,,,,,,,
,,,,,,,,,,,,,,,,,,,,,,,,,,,,,,,,,,,,,,,,,,,,lasagna_06s.jpg,0.0,Red.png,3.0,15,,,,,,,,,,,,,0.0,1.0,0.584,0.0,14.0,14.0,14.0,1.0,,,,,,,,,,,,,,,
,,,,,,,,,,,,,,,,,,,,,,,,,,,,,,,,,,,,,,,,,,,,diving_board_07s.jpg,0.0,Orange.png,3.0,15,,,,,,,,,,,,,0.0,1.0,0.57,0.0,15.0,15.0,15.0,1.0,,,,,,,,,,,,,,,
,,,,,,,,,,,,,,,,,,,,,,,,,,,,,,,,,,,,,,,,,,,,lion_18s.jpg,0.0,Yellow.png,3.0,15,,,,,,,,,,,,,0.0,1.0,0.716,0.0,16.0,16.0,16.0,1.0,,,,,,,,,,,,,,,
,,,,,,,,,,,,,,,,,,,,,,,,,,,,,,,,,,,,,,,,,,,,diving_board_07s.jpg,1.0,Green.png,3.0,15,,,,,,,,,,,,,1.0,1.0,1.083,0.0,17.0,17.0,17.0,1.0,,,,,,,,,,,,,,,
,,,,,,,,,,,,,,,,,,,,,,,,,,,,,,,,,,,,,,,,,,,,lion_18s.jpg,1.0,Blue.png,4.0,15,,,,,,,,,,,,,1.0,1.0,0.668,0.0,18.0,18.0,18.0,1.0,,,,,,,,,,,,,,,
,,,,,,,,,,,,,,,,,,,,,,,,,,,,,,,,,,,,,,,,,,,,medal_04s.jpg,0.0,Purple.png,4.0,15,,,,,,,,,,,,,0.0,1.0,0.575,0.0,19.0,19.0,19.0,1.0,,,,,,,,,,,,,,,
,,,,,,,,,,,,,,,,,,,,,,,,,,,,,,,,,,,,,,,,,,,,incense_02s.jpg,0.0,Red.png,4.0,15,,,,,,,,,,,,,0.0,1.0,0.536,0.0,20.0,20.0,20.0,1.0,,,,,,,,,,,,,,,
,,,,,,,,,,,,,,,,,,,,,,,,,,,,,,,,,,,,,,,,,,,,tape_06s.jpg,0.0,Orange.png,4.0,15,,,,,,,,,,,,,0.0,1.0,0.586,0.0,21.0,21.0,21.0,1.0,,,,,,,,,,,,,,,
,,,,,,,,,,,,,,,,,,,,,,,,,,,,,,,,,,,,,,,,,,,,medal_04s.jpg,0.0,Yellow.png,4.0,15,,,,,,,,,,,,,0.0,1.0,1.084,0.0,22.0,22.0,22.0,1.0,,,,,,,,,,,,,,,
,,,,,,,,,,,,,,,,,,,,,,,,,,,,,,,,,,,,,,,,,,,,buoy_04s.jpg,0.0,Green.png,4.0,15,,,,,,,,,,,,,0.0,1.0,0.674,0.0,23.0,23.0,23.0,1.0,,,,,,,,,,,,,,,
,,,,,,,,,,,,,,,,,,,,,,,,,,,,,,,,,,,,,,,,,,,,limousine_12s.jpg,0.0,Blue.png,5.0,15,,,,,,,,,,,,,0.0,1.0,0.753,0.0,24.0,24.0,24.0,1.0,,,,,,,,,,,,,,,
,,,,,,,,,,,,,,,,,,,,,,,,,,,,,,,,,,,,,,,,,,,,jewel_01b.jpg,0.0,Purple.png,5.0,15,,,,,,,,,,,,,0.0,1.0,0.609,0.0,25.0,25.0,25.0,1.0,,,,,,,,,,,,,,,
,,,,,,,,,,,,,,,,,,,,,,,,,,,,,,,,,,,,,,,,,,,,parachute_03s.jpg,0.0,Red.png,5.0,15,,,,,,,,,,,,,0.0,1.0,0.704,0.0,26.0,26.0,26.0,1.0,,,,,,,,,,,,,,,
,,,,,,,,,,,,,,,,,,,,,,,,,,,,,,,,,,,,,,,,,,,,mannequin_05s.jpg,0.0,Orange.png,5.0,15,,,,,,,,,,,,,0.0,1.0,0.821,0.0,27.0,27.0,27.0,1.0,,,,,,,,,,,,,,,
,,,,,,,,,,,,,,,,,,,,,,,,,,,,,,,,,,,,,,,,,,,,snowman_02s.jpg,0.0,Yellow.png,5.0,15,,,,,,,,,,,,,0.0,1.0,0.658,0.0,28.0,28.0,28.0,1.0,,,,,,,,,,,,,,,
,,,,,,,,,,,,,,,,,,,,,,,,,,,,,,,,,,,,,,,,,,,,fossil_06s.jpg,0.0,Green.png,5.0,15,,,,,,,,,,,,,0.0,1.0,0.967,0.0,29.0,29.0,29.0,1.0,,,,,,,,,,,,,,,
,,,,,,,,,,,,,,,,,,,,,,,,,,,,,,,,,,,,,,,,,,,,perfume_06s.jpg,0.0,Blue.png,6.0,15,,,,,,,,,,,,,0.0,1.0,0.649,0.0,30.0,30.0,30.0,1.0,,,,,,,,,,,,,,,
,,,,,,,,,,,,,,,,,,,,,,,,,,,,,,,,,,,,,,,,,,,,fossil_06s.jpg,1.0,Purple.png,6.0,15,,,,,,,,,,,,,1.0,1.0,0.796,0.0,31.0,31.0,31.0,1.0,,,,,,,,,,,,,,,
,,,,,,,,,,,,,,,,,,,,,,,,,,,,,,,,,,,,,,,,,,,,pancake_12s.jpg,0.0,Red.png,6.0,15,,,,,,,,,,,,,0.0,1.0,0.771,0.0,32.0,32.0,32.0,1.0,,,,,,,,,,,,,,,
,,,,,,,,,,,,,,,,,,,,,,,,,,,,,,,,,,,,,,,,,,,,tie_03s.jpg,0.0,Orange.png,6.0,15,,,,,,,,,,,,,0.0,1.0,0.76,0.0,33.0,33.0,33.0,1.0,,,,,,,,,,,,,,,
,,,,,,,,,,,,,,,,,,,,,,,,,,,,,,,,,,,,,,,,,,,,pancake_12s.jpg,1.0,Yellow.png,6.0,15,,,,,,,,,,,,,1.0,1.0,0.527,0.0,34.0,34.0,34.0,1.0,,,,,,,,,,,,,,,
,,,,,,,,,,,,,,,,,,,,,,,,,,,,,,,,,,,,,,,,,,,,padlock_07s.jpg,0.0,Green.png,6.0,15,,,,,,,,,,,,,0.0,1.0,0.691,0.0,35.0,35.0,35.0,1.0,,,,,,,,,,,,,,,
,,,,,,,,,,,,,,,,,,,,,,,,,,,,,,,,,,,,,,,,,,,,,0.0,,,15,,,,,,,,,crayon_09s.jpg,luggage_08s.jpg,,,,,,,,,,,0.0,1.0,3.702,0.0,0.0,0.0,0.0,1.0,,,,,,,
,,,,,,,,,,,,,,,,,,,,,,,,,,,,,,,,,,,,,,,,,,,,,1.0,,,15,,,,,,,,,towel_rack_04s.jpg,boar_10s.jpg,,,,,,,,,,,0.0,0.0,2.003,0.0,1.0,1.0,1.0,1.0,,,,,,,
,,,,,,,,,,,,,,,,,,,,,,,,,,,,,,,,,,,,,,,,,,,,,0.0,,,15,,,,,,,,,lasagna_06s.jpg,outlet_10s.jpg,,,,,,,,,,,0.0,1.0,1.869,0.0,2.0,2.0,2.0,1.0,,,,,,,
,,,,,,,,,,,,,,,,,,,,,,,,,,,,,,,,,,,,,,,,,,,,,1.0,,,15,,,,,,,,,jewel_01b.jpg,snowman_02s.jpg,,,,,,,,,,,1.0,1.0,2.032,0.0,3.0,3.0,3.0,1.0,,,,,,,
,,,,,,,,,,,,,,,,,,,,,,,,,,,,,,,,,,,,,,,,,,,,,0.0,,,15,,,,,,,,,buoy_04s.jpg,incense_02s.jpg,,,,,,,,,,,1.0,0.0,1.686,0.0,4.0,4.0,4.0,1.0,,,,,,,
,,,,,,,,,,,,,,,,,,,,,,,,,,,,,,,,,,,,,,,,,,,,,0.0,,,15,,,,,,,,,tie_03s.jpg,perfume_06s.jpg,,,,,,,,,,,0.0,1.0,2.76,0.0,5.0,5.0,5.0,1.0,,,,,,,
,,,,,,,,,,,,,,,,,,,,,,,,,,,,,,,,,,,,,,,,,,,,,,,,15,,,,,,,,,,,,,,,,,,,,,,,,,,,,,0.0,1.0,1.0,1.0,1.0,new2backpresent_2_2.xlsx,new2back_compare_task_2_2.xlsx
,,,,,,,,,,,,,,,,,,,,,,,,,,,,,,,,,,,,,,,,,,,,surfboard_11s.jpg,0.0,Blue.png,1.0,15,,,,,,,,,,,,,0.0,1.0,0.788,0.0,0.0,0.0,0.0,1.0,,,,,,,,,,,,,,,
,,,,,,,,,,,,,,,,,,,,,,,,,,,,,,,,,,,,,,,,,,,,surfboard_11s.jpg,0.0,Purple.png,1.0,15,,,,,,,,,,,,,0.0,1.0,0.969,0.0,1.0,1.0,1.0,1.0,,,,,,,,,,,,,,,
,,,,,,,,,,,,,,,,,,,,,,,,,,,,,,,,,,,,,,,,,,,,surfboard_11s.jpg,0.0,Red.png,1.0,15,,,,,,,,,,,,,1.0,0.0,0.847,0.0,2.0,2.0,2.0,1.0,,,,,,,,,,,,,,,
,,,,,,,,,,,,,,,,,,,,,,,,,,,,,,,,,,,,,,,,,,,,badge_03s.jpg,0.0,Orange.png,1.0,15,,,,,,,,,,,,,0.0,1.0,0.676,0.0,3.0,3.0,3.0,1.0,,,,,,,,,,,,,,,
,,,,,,,,,,,,,,,,,,,,,,,,,,,,,,,,,,,,,,,,,,,,surfboard_11s.jpg,1.0,Yellow.png,1.0,15,,,,,,,,,,,,,1.0,1.0,0.886,0.0,4.0,4.0,4.0,1.0,,,,,,,,,,,,,,,
,,,,,,,,,,,,,,,,,,,,,,,,,,,,,,,,,,,,,,,,,,,,surfboard_11s.jpg,0.0,Green.png,1.0,15,,,,,,,,,,,,,0.0,1.0,0.89,0.0,5.0,5.0,5.0,1.0,,,,,,,,,,,,,,,
,,,,,,,,,,,,,,,,,,,,,,,,,,,,,,,,,,,,,,,,,,,,surfboard_11s.jpg,1.0,Blue.png,2.0,15,,,,,,,,,,,,,1.0,1.0,0.616,0.0,6.0,6.0,6.0,1.0,,,,,,,,,,,,,,,
,,,,,,,,,,,,,,,,,,,,,,,,,,,,,,,,,,,,,,,,,,,,playpen_11s.jpg,0.0,Purple.png,2.0,15,,,,,,,,,,,,,0.0,1.0,0.69,0.0,7.0,7.0,7.0,1.0,,,,,,,,,,,,,,,
,,,,,,,,,,,,,,,,,,,,,,,,,,,,,,,,,,,,,,,,,,,,surfboard_11s.jpg,1.0,Red.png,2.0,15,,,,,,,,,,,,,1.0,1.0,0.756,0.0,8.0,8.0,8.0,1.0,,,,,,,,,,,,,,,
,,,,,,,,,,,,,,,,,,,,,,,,,,,,,,,,,,,,,,,,,,,,popcorn_09s.jpg,0.0,Orange.png,2.0,15,,,,,,,,,,,,,0.0,1.0,0.834,0.0,9.0,9.0,9.0,1.0,,,,,,,,,,,,,,,
,,,,,,,,,,,,,,,,,,,,,,,,,,,,,,,,,,,,,,,,,,,,surfboard_11s.jpg,1.0,Yellow.png,2.0,15,,,,,,,,,,,,,1.0,1.0,0.639,0.0,10.0,10.0,10.0,1.0,,,,,,,,,,,,,,,
,,,,,,,,,,,,,,,,,,,,,,,,,,,,,,,,,,,,,,,,,,,,popcorn_09s.jpg,1.0,Green.png,2.0,15,,,,,,,,,,,,,1.0,1.0,0.623,0.0,11.0,11.0,11.0,1.0,,,,,,,,,,,,,,,
,,,,,,,,,,,,,,,,,,,,,,,,,,,,,,,,,,,,,,,,,,,,lollipop_08s.jpg,0.0,Blue.png,3.0,15,,,,,,,,,,,,,0.0,1.0,0.613,0.0,12.0,12.0,12.0,1.0,,,,,,,,,,,,,,,
,,,,,,,,,,,,,,,,,,,,,,,,,,,,,,,,,,,,,,,,,,,,popcorn_09s.jpg,1.0,Purple.png,3.0,15,,,,,,,,,,,,,1.0,1.0,0.736,0.0,13.0,13.0,13.0,1.0,,,,,,,,,,,,,,,
,,,,,,,,,,,,,,,,,,,,,,,,,,,,,,,,,,,,,,,,,,,,fire_pit_10s.jpg,0.0,Red.png,3.0,15,,,,,,,,,,,,,0.0,1.0,0.653,0.0,14.0,14.0,14.0,1.0,,,,,,,,,,,,,,,
,,,,,,,,,,,,,,,,,,,,,,,,,,,,,,,,,,,,,,,,,,,,joystick_01b.jpg,0.0,Orange.png,3.0,15,,,,,,,,,,,,,0.0,1.0,0.654,0.0,15.0,15.0,15.0,1.0,,,,,,,,,,,,,,,
,,,,,,,,,,,,,,,,,,,,,,,,,,,,,,,,,,,,,,,,,,,,panda_02s.jpg,0.0,Yellow.png,3.0,15,,,,,,,,,,,,,0.0,1.0,0.722,0.0,16.0,16.0,16.0,1.0,,,,,,,,,,,,,,,
,,,,,,,,,,,,,,,,,,,,,,,,,,,,,,,,,,,,,,,,,,,,sundae_08s.jpg,0.0,Green.png,3.0,15,,,,,,,,,,,,,0.0,1.0,0.576,0.0,17.0,17.0,17.0,1.0,,,,,,,,,,,,,,,
,,,,,,,,,,,,,,,,,,,,,,,,,,,,,,,,,,,,,,,,,,,,boomerang_06s.jpg,0.0,Blue.png,4.0,15,,,,,,,,,,,,,0.0,1.0,0.637,0.0,18.0,18.0,18.0,1.0,,,,,,,,,,,,,,,
,,,,,,,,,,,,,,,,,,,,,,,,,,,,,,,,,,,,,,,,,,,,bagel_15s.jpg,0.0,Purple.png,4.0,15,,,,,,,,,,,,,0.0,1.0,0.587,0.0,19.0,19.0,19.0,1.0,,,,,,,,,,,,,,,
,,,,,,,,,,,,,,,,,,,,,,,,,,,,,,,,,,,,,,,,,,,,powder_07s.jpg,0.0,Red.png,4.0,15,,,,,,,,,,,,,0.0,1.0,0.627,0.0,20.0,20.0,20.0,1.0,,,,,,,,,,,,,,,
,,,,,,,,,,,,,,,,,,,,,,,,,,,,,,,,,,,,,,,,,,,,lipstick_02s.jpg,0.0,Orange.png,4.0,15,,,,,,,,,,,,,0.0,1.0,0.62,0.0,21.0,21.0,21.0,1.0,,,,,,,,,,,,,,,
,,,,,,,,,,,,,,,,,,,,,,,,,,,,,,,,,,,,,,,,,,,,bagel_15s.jpg,0.0,Yellow.png,4.0,15,,,,,,,,,,,,,0.0,1.0,0.97,0.0,22.0,22.0,22.0,1.0,,,,,,,,,,,,,,,
,,,,,,,,,,,,,,,,,,,,,,,,,,,,,,,,,,,,,,,,,,,,ladle_04s.jpg,0.0,Green.png,4.0,15,,,,,,,,,,,,,0.0,1.0,0.851,0.0,23.0,23.0,23.0,1.0,,,,,,,,,,,,,,,
,,,,,,,,,,,,,,,,,,,,,,,,,,,,,,,,,,,,,,,,,,,,megaphone_03s.jpg,0.0,Blue.png,5.0,15,,,,,,,,,,,,,0.0,1.0,0.619,0.0,24.0,24.0,24.0,1.0,,,,,,,,,,,,,,,
,,,,,,,,,,,,,,,,,,,,,,,,,,,,,,,,,,,,,,,,,,,,puck_06s.jpg,0.0,Purple.png,5.0,15,,,,,,,,,,,,,0.0,1.0,0.587,0.0,25.0,25.0,25.0,1.0,,,,,,,,,,,,,,,
,,,,,,,,,,,,,,,,,,,,,,,,,,,,,,,,,,,,,,,,,,,,cardinal_07s.jpg,0.0,Red.png,5.0,15,,,,,,,,,,,,,0.0,1.0,0.522,0.0,26.0,26.0,26.0,1.0,,,,,,,,,,,,,,,
,,,,,,,,,,,,,,,,,,,,,,,,,,,,,,,,,,,,,,,,,,,,puck_06s.jpg,1.0,Orange.png,5.0,15,,,,,,,,,,,,,1.0,1.0,0.621,0.0,27.0,27.0,27.0,1.0,,,,,,,,,,,,,,,
,,,,,,,,,,,,,,,,,,,,,,,,,,,,,,,,,,,,,,,,,,,,bee_20s.jpg,0.0,Yellow.png,5.0,15,,,,,,,,,,,,,0.0,1.0,0.572,0.0,28.0,28.0,28.0,1.0,,,,,,,,,,,,,,,
,,,,,,,,,,,,,,,,,,,,,,,,,,,,,,,,,,,,,,,,,,,,toilet_paper_12s.jpg,0.0,Green.png,5.0,15,,,,,,,,,,,,,0.0,1.0,0.684,0.0,29.0,29.0,29.0,1.0,,,,,,,,,,,,,,,
,,,,,,,,,,,,,,,,,,,,,,,,,,,,,,,,,,,,,,,,,,,,mud_13s.jpg,0.0,Blue.png,6.0,15,,,,,,,,,,,,,0.0,1.0,0.517,0.0,30.0,30.0,30.0,1.0,,,,,,,,,,,,,,,
,,,,,,,,,,,,,,,,,,,,,,,,,,,,,,,,,,,,,,,,,,,,measuring_cup_02s.jpg,0.0,Purple.png,6.0,15,,,,,,,,,,,,,0.0,1.0,0.549,0.0,31.0,31.0,31.0,1.0,,,,,,,,,,,,,,,
,,,,,,,,,,,,,,,,,,,,,,,,,,,,,,,,,,,,,,,,,,,,ostrich_06s.jpg,0.0,Red.png,6.0,15,,,,,,,,,,,,,0.0,1.0,0.536,0.0,32.0,32.0,32.0,1.0,,,,,,,,,,,,,,,
,,,,,,,,,,,,,,,,,,,,,,,,,,,,,,,,,,,,,,,,,,,,raspberry_12s.jpg,0.0,Orange.png,6.0,15,,,,,,,,,,,,,0.0,1.0,0.568,0.0,33.0,33.0,33.0,1.0,,,,,,,,,,,,,,,
,,,,,,,,,,,,,,,,,,,,,,,,,,,,,,,,,,,,,,,,,,,,mud_13s.jpg,0.0,Yellow.png,6.0,15,,,,,,,,,,,,,0.0,1.0,1.066,0.0,34.0,34.0,34.0,1.0,,,,,,,,,,,,,,,
,,,,,,,,,,,,,,,,,,,,,,,,,,,,,,,,,,,,,,,,,,,,radiator_05s.jpg,0.0,Green.png,6.0,15,,,,,,,,,,,,,0.0,1.0,0.634,0.0,35.0,35.0,35.0,1.0,,,,,,,,,,,,,,,
,,,,,,,,,,,,,,,,,,,,,,,,,,,,,,,,,,,,,,,,,,,,,0.0,,,15,,,,,,,,,measuring_cup_02s.jpg,bee_20s.jpg,,,,,,,,,,,1.0,0.0,2.041,0.0,0.0,0.0,0.0,1.0,,,,,,,
,,,,,,,,,,,,,,,,,,,,,,,,,,,,,,,,,,,,,,,,,,,,,1.0,,,15,,,,,,,,,lipstick_02s.jpg,megaphone_03s.jpg,,,,,,,,,,,1.0,1.0,1.443,0.0,1.0,1.0,1.0,1.0,,,,,,,
,,,,,,,,,,,,,,,,,,,,,,,,,,,,,,,,,,,,,,,,,,,,,0.0,,,15,,,,,,,,,boomerang_06s.jpg,joystick_01b.jpg,,,,,,,,,,,1.0,0.0,1.53,0.0,2.0,2.0,2.0,1.0,,,,,,,
,,,,,,,,,,,,,,,,,,,,,,,,,,,,,,,,,,,,,,,,,,,,,0.0,,,15,,,,,,,,,sundae_08s.jpg,fire_pit_10s.jpg,,,,,,,,,,,0.0,1.0,1.488,0.0,3.0,3.0,3.0,1.0,,,,,,,
,,,,,,,,,,,,,,,,,,,,,,,,,,,,,,,,,,,,,,,,,,,,,0.0,,,15,,,,,,,,,radiator_05s.jpg,ostrich_06s.jpg,,,,,,,,,,,0.0,1.0,1.698,0.0,4.0,4.0,4.0,1.0,,,,,,,
,,,,,,,,,,,,,,,,,,,,,,,,,,,,,,,,,,,,,,,,,,,,,0.0,,,15,,,,,,,,,ladle_04s.jpg,powder_07s.jpg,,,,,,,,,,,0.0,1.0,2.549,0.0,5.0,5.0,5.0,1.0,,,,,,,
,,,,,,,,,,,,,,,,,,,,,,,,,,,,,,,,,,,,,,,,,,,,,,,,15,,,,,,,,,,,,,,,,,,,,,,,,,,,,,0.0,2.0,2.0,2.0,1.0,new2backpresent_3_2.xlsx,new2back_compare_task_3_2.xlsx
,,,,,,,,,,,,,,,,,,,,,,,,,,,,,,,,,,,,,,,,,,,,glasses01a.jpg,0.0,Blue.png,1.0,15,,,,,,,,,,,,,0.0,1.0,0.937,0.0,0.0,0.0,0.0,1.0,,,,,,,,,,,,,,,
,,,,,,,,,,,,,,,,,,,,,,,,,,,,,,,,,,,,,,,,,,,,piano_13n.jpg,0.0,Purple.png,1.0,15,,,,,,,,,,,,,0.0,1.0,0.557,0.0,1.0,1.0,1.0,1.0,,,,,,,,,,,,,,,
,,,,,,,,,,,,,,,,,,,,,,,,,,,,,,,,,,,,,,,,,,,,candy_cane_06s.jpg,0.0,Red.png,1.0,15,,,,,,,,,,,,,0.0,1.0,0.553,0.0,2.0,2.0,2.0,1.0,,,,,,,,,,,,,,,
,,,,,,,,,,,,,,,,,,,,,,,,,,,,,,,,,,,,,,,,,,,,cushion_08s.jpg,0.0,Orange.png,1.0,15,,,,,,,,,,,,,0.0,1.0,0.817,0.0,3.0,3.0,3.0,1.0,,,,,,,,,,,,,,,
,,,,,,,,,,,,,,,,,,,,,,,,,,,,,,,,,,,,,,,,,,,,candy_cane_06s.jpg,1.0,Yellow.png,1.0,15,,,,,,,,,,,,,1.0,1.0,0.818,0.0,4.0,4.0,4.0,1.0,,,,,,,,,,,,,,,
,,,,,,,,,,,,,,,,,,,,,,,,,,,,,,,,,,,,,,,,,,,,candy_cane_06s.jpg,0.0,Green.png,1.0,15,,,,,,,,,,,,,0.0,1.0,1.053,0.0,5.0,5.0,5.0,1.0,,,,,,,,,,,,,,,
,,,,,,,,,,,,,,,,,,,,,,,,,,,,,,,,,,,,,,,,,,,,rosary_03s.jpg,0.0,Blue.png,2.0,15,,,,,,,,,,,,,0.0,1.0,0.642,0.0,6.0,6.0,6.0,1.0,,,,,,,,,,,,,,,
,,,,,,,,,,,,,,,,,,,,,,,,,,,,,,,,,,,,,,,,,,,,rosary_03s.jpg,0.0,Purple.png,2.0,15,,,,,,,,,,,,,0.0,1.0,0.95,0.0,7.0,7.0,7.0,1.0,,,,,,,,,,,,,,,
,,,,,,,,,,,,,,,,,,,,,,,,,,,,,,,,,,,,,,,,,,,,rosary_03s.jpg,1.0,Red.png,2.0,15,,,,,,,,,,,,,1.0,1.0,0.614,0.0,8.0,8.0,8.0,1.0,,,,,,,,,,,,,,,
,,,,,,,,,,,,,,,,,,,,,,,,,,,,,,,,,,,,,,,,,,,,rosary_03s.jpg,1.0,Orange.png,2.0,15,,,,,,,,,,,,,1.0,1.0,0.589,0.0,9.0,9.0,9.0,1.0,,,,,,,,,,,,,,,
,,,,,,,,,,,,,,,,,,,,,,,,,,,,,,,,,,,,,,,,,,,,kangaroo_02s.jpg,0.0,Yellow.png,2.0,15,,,,,,,,,,,,,0.0,1.0,0.622,0.0,10.0,10.0,10.0,1.0,,,,,,,,,,,,,,,
,,,,,,,,,,,,,,,,,,,,,,,,,,,,,,,,,,,,,,,,,,,,kangaroo_02s.jpg,0.0,Green.png,2.0,15,,,,,,,,,,,,,0.0,1.0,0.998,0.0,11.0,11.0,11.0,1.0,,,,,,,,,,,,,,,
,,,,,,,,,,,,,,,,,,,,,,,,,,,,,,,,,,,,,,,,,,,,kangaroo_02s.jpg,1.0,Blue.png,3.0,15,,,,,,,,,,,,,1.0,1.0,0.568,0.0,12.0,12.0,12.0,1.0,,,,,,,,,,,,,,,
,,,,,,,,,,,,,,,,,,,,,,,,,,,,,,,,,,,,,,,,,,,,kangaroo_02s.jpg,1.0,Purple.png,3.0,15,,,,,,,,,,,,,1.0,1.0,0.902,0.0,13.0,13.0,13.0,1.0,,,,,,,,,,,,,,,
,,,,,,,,,,,,,,,,,,,,,,,,,,,,,,,,,,,,,,,,,,,,ironing_board_07s.jpg,0.0,Red.png,3.0,15,,,,,,,,,,,,,0.0,1.0,0.679,0.0,14.0,14.0,14.0,1.0,,,,,,,,,,,,,,,
,,,,,,,,,,,,,,,,,,,,,,,,,,,,,,,,,,,,,,,,,,,,kangaroo_02s.jpg,1.0,Orange.png,3.0,15,,,,,,,,,,,,,1.0,1.0,0.887,0.0,15.0,15.0,15.0,1.0,,,,,,,,,,,,,,,
,,,,,,,,,,,,,,,,,,,,,,,,,,,,,,,,,,,,,,,,,,,,punch2_09s.jpg,0.0,Yellow.png,3.0,15,,,,,,,,,,,,,0.0,1.0,0.635,0.0,16.0,16.0,16.0,1.0,,,,,,,,,,,,,,,
,,,,,,,,,,,,,,,,,,,,,,,,,,,,,,,,,,,,,,,,,,,,ironing_board_07s.jpg,0.0,Green.png,3.0,15,,,,,,,,,,,,,1.0,0.0,1.101,0.0,17.0,17.0,17.0,1.0,,,,,,,,,,,,,,,
,,,,,,,,,,,,,,,,,,,,,,,,,,,,,,,,,,,,,,,,,,,,owl_15s.jpg,0.0,Blue.png,4.0,15,,,,,,,,,,,,,0.0,1.0,0.803,0.0,18.0,18.0,18.0,1.0,,,,,,,,,,,,,,,
,,,,,,,,,,,,,,,,,,,,,,,,,,,,,,,,,,,,,,,,,,,,teabag_12s.jpg,0.0,Purple.png,4.0,15,,,,,,,,,,,,,0.0,1.0,0.618,0.0,19.0,19.0,19.0,1.0,,,,,,,,,,,,,,,
,,,,,,,,,,,,,,,,,,,,,,,,,,,,,,,,,,,,,,,,,,,,owl_15s.jpg,1.0,Red.png,4.0,15,,,,,,,,,,,,,1.0,1.0,0.484,0.0,20.0,20.0,20.0,1.0,,,,,,,,,,,,,,,
,,,,,,,,,,,,,,,,,,,,,,,,,,,,,,,,,,,,,,,,,,,,otter_05s.jpg,0.0,Orange.png,4.0,15,,,,,,,,,,,,,0.0,1.0,0.622,0.0,21.0,21.0,21.0,1.0,,,,,,,,,,,,,,,
,,,,,,,,,,,,,,,,,,,,,,,,,,,,,,,,,,,,,,,,,,,,owl_15s.jpg,1.0,Yellow.png,4.0,15,,,,,,,,,,,,,1.0,1.0,0.903,0.0,22.0,22.0,22.0,1.0,,,,,,,,,,,,,,,
,,,,,,,,,,,,,,,,,,,,,,,,,,,,,,,,,,,,,,,,,,,,mold2_04s.jpg,0.0,Green.png,4.0,15,,,,,,,,,,,,,0.0,1.0,0.885,0.0,23.0,23.0,23.0,1.0,,,,,,,,,,,,,,,
,,,,,,,,,,,,,,,,,,,,,,,,,,,,,,,,,,,,,,,,,,,,mattress_01s.jpg,0.0,Blue.png,5.0,15,,,,,,,,,,,,,0.0,1.0,0.652,0.0,24.0,24.0,24.0,1.0,,,,,,,,,,,,,,,
,,,,,,,,,,,,,,,,,,,,,,,,,,,,,,,,,,,,,,,,,,,,police_car_01s.jpg,0.0,Purple.png,5.0,15,,,,,,,,,,,,,0.0,1.0,0.637,0.0,25.0,25.0,25.0,1.0,,,,,,,,,,,,,,,
,,,,,,,,,,,,,,,,,,,,,,,,,,,,,,,,,,,,,,,,,,,,stethoscope_01b.jpg,0.0,Red.png,5.0,15,,,,,,,,,,,,,0.0,1.0,0.654,0.0,26.0,26.0,26.0,1.0,,,,,,,,,,,,,,,
,,,,,,,,,,,,,,,,,,,,,,,,,,,,,,,,,,,,,,,,,,,,police_car_01s.jpg,1.0,Orange.png,5.0,15,,,,,,,,,,,,,1.0,1.0,0.723,0.0,27.0,27.0,27.0,1.0,,,,,,,,,,,,,,,
,,,,,,,,,,,,,,,,,,,,,,,,,,,,,,,,,,,,,,,,,,,,sparkler_02s.jpg,0.0,Yellow.png,5.0,15,,,,,,,,,,,,,0.0,1.0,0.588,0.0,28.0,28.0,28.0,1.0,,,,,,,,,,,,,,,
,,,,,,,,,,,,,,,,,,,,,,,,,,,,,,,,,,,,,,,,,,,,pacifier_09s.jpg,0.0,Green.png,5.0,15,,,,,,,,,,,,,0.0,1.0,0.593,0.0,29.0,29.0,29.0,1.0,,,,,,,,,,,,,,,
,,,,,,,,,,,,,,,,,,,,,,,,,,,,,,,,,,,,,,,,,,,,machine_gun_09s.jpg,0.0,Blue.png,6.0,15,,,,,,,,,,,,,0.0,1.0,0.585,0.0,30.0,30.0,30.0,1.0,,,,,,,,,,,,,,,
,,,,,,,,,,,,,,,,,,,,,,,,,,,,,,,,,,,,,,,,,,,,ram_05s.jpg,0.0,Purple.png,6.0,15,,,,,,,,,,,,,0.0,1.0,0.717,0.0,31.0,31.0,31.0,1.0,,,,,,,,,,,,,,,
,,,,,,,,,,,,,,,,,,,,,,,,,,,,,,,,,,,,,,,,,,,,keyboard_05s.jpg,0.0,Red.png,6.0,15,,,,,,,,,,,,,0.0,1.0,0.537,0.0,32.0,32.0,32.0,1.0,,,,,,,,,,,,,,,
,,,,,,,,,,,,,,,,,,,,,,,,,,,,,,,,,,,,,,,,,,,,leash_10s.jpg,0.0,Orange.png,6.0,15,,,,,,,,,,,,,0.0,1.0,0.766,0.0,33.0,33.0,33.0,1.0,,,,,,,,,,,,,,,
,,,,,,,,,,,,,,,,,,,,,,,,,,,,,,,,,,,,,,,,,,,,pan_02s.jpg,0.0,Yellow.png,6.0,15,,,,,,,,,,,,,0.0,1.0,0.569,0.0,34.0,34.0,34.0,1.0,,,,,,,,,,,,,,,
,,,,,,,,,,,,,,,,,,,,,,,,,,,,,,,,,,,,,,,,,,,,mixer_12s.jpg,0.0,Green.png,6.0,15,,,,,,,,,,,,,0.0,1.0,0.668,0.0,35.0,35.0,35.0,1.0,,,,,,,,,,,,,,,
,,,,,,,,,,,,,,,,,,,,,,,,,,,,,,,,,,,,,,,,,,,,,0.0,,,15,,,,,,,,,teabag_12s.jpg,punch2_09s.jpg,,,,,,,,,,,0.0,1.0,2.459,0.0,0.0,0.0,0.0,1.0,,,,,,,
,,,,,,,,,,,,,,,,,,,,,,,,,,,,,,,,,,,,,,,,,,,,,0.0,,,15,,,,,,,,,mattress_01s.jpg,otter_05s.jpg,,,,,,,,,,,0.0,1.0,2.496,0.0,1.0,1.0,1.0,1.0,,,,,,,
,,,,,,,,,,,,,,,,,,,,,,,,,,,,,,,,,,,,,,,,,,,,,0.0,,,15,,,,,,,,,stethoscope_01b.jpg,mold2_04s.jpg,,,,,,,,,,,1.0,0.0,2.464,0.0,2.0,2.0,2.0,1.0,,,,,,,
,,,,,,,,,,,,,,,,,,,,,,,,,,,,,,,,,,,,,,,,,,,,,1.0,,,15,,,,,,,,,glasses01a.jpg,cushion_08s.jpg,,,,,,,,,,,1.0,1.0,0.823,0.0,3.0,3.0,3.0,1.0,,,,,,,
,,,,,,,,,,,,,,,,,,,,,,,,,,,,,,,,,,,,,,,,,,,,,1.0,,,15,,,,,,,,,machine_gun_09s.jpg,leash_10s.jpg,,,,,,,,,,,1.0,1.0,2.136,0.0,4.0,4.0,4.0,1.0,,,,,,,
,,,,,,,,,,,,,,,,,,,,,,,,,,,,,,,,,,,,,,,,,,,,,0.0,,,15,,,,,,,,,pan_02s.jpg,ram_05s.jpg,,,,,,,,,,,1.0,0.0,2.371,0.0,5.0,5.0,5.0,1.0,,,,,,,
,,,,,,,,,,,,,,,,,,,,,,,,,,,,,,,,,,,,,,,,,,,,,,,,15,,,,,,,,,,,,,,,,,,,,,,,,,,,,,0.0,3.0,3.0,3.0,1.0,new2backpresent_4_2.xlsx,new2back_compare_task_4_2.xlsx
,,,,,,,,,,,,,,,,,,,,,,,,,,,,,,,,,,,,,,,,,,,,golf_club_03s.jpg,0.0,Blue.png,1.0,15,,,,,,,,,,,,,0.0,1.0,1.285,0.0,0.0,0.0,0.0,1.0,,,,,,,,,,,,,,,
,,,,,,,,,,,,,,,,,,,,,,,,,,,,,,,,,,,,,,,,,,,,golf_club_03s.jpg,0.0,Purple.png,1.0,15,,,,,,,,,,,,,0.0,1.0,0.818,0.0,1.0,1.0,1.0,1.0,,,,,,,,,,,,,,,
,,,,,,,,,,,,,,,,,,,,,,,,,,,,,,,,,,,,,,,,,,,,golf_club_03s.jpg,0.0,Red.png,1.0,15,,,,,,,,,,,,,1.0,0.0,0.795,0.0,2.0,2.0,2.0,1.0,,,,,,,,,,,,,,,
,,,,,,,,,,,,,,,,,,,,,,,,,,,,,,,,,,,,,,,,,,,,turnstile_08s.jpg,0.0,Orange.png,1.0,15,,,,,,,,,,,,,0.0,1.0,0.786,0.0,3.0,3.0,3.0,1.0,,,,,,,,,,,,,,,
,,,,,,,,,,,,,,,,,,,,,,,,,,,,,,,,,,,,,,,,,,,,golf_club_03s.jpg,1.0,Yellow.png,1.0,15,,,,,,,,,,,,,1.0,1.0,0.855,0.0,4.0,4.0,4.0,1.0,,,,,,,,,,,,,,,
,,,,,,,,,,,,,,,,,,,,,,,,,,,,,,,,,,,,,,,,,,,,milk_02s.jpg,0.0,Green.png,1.0,15,,,,,,,,,,,,,0.0,1.0,0.654,0.0,5.0,5.0,5.0,1.0,,,,,,,,,,,,,,,
,,,,,,,,,,,,,,,,,,,,,,,,,,,,,,,,,,,,,,,,,,,,orange_12s.jpg,0.0,Blue.png,2.0,15,,,,,,,,,,,,,0.0,1.0,0.821,0.0,6.0,6.0,6.0,1.0,,,,,,,,,,,,,,,
,,,,,,,,,,,,,,,,,,,,,,,,,,,,,,,,,,,,,,,,,,,,milk_02s.jpg,1.0,Purple.png,2.0,15,,,,,,,,,,,,,1.0,1.0,0.743,0.0,7.0,7.0,7.0,1.0,,,,,,,,,,,,,,,
,,,,,,,,,,,,,,,,,,,,,,,,,,,,,,,,,,,,,,,,,,,,latch_15s.jpg,0.0,Red.png,2.0,15,,,,,,,,,,,,,0.0,1.0,0.692,0.0,8.0,8.0,8.0,1.0,,,,,,,,,,,,,,,
,,,,,,,,,,,,,,,,,,,,,,,,,,,,,,,,,,,,,,,,,,,,bank_06s.jpg,0.0,Orange.png,2.0,15,,,,,,,,,,,,,0.0,1.0,0.57,0.0,9.0,9.0,9.0,1.0,,,,,,,,,,,,,,,
,,,,,,,,,,,,,,,,,,,,,,,,,,,,,,,,,,,,,,,,,,,,milk_02s.jpg,0.0,Yellow.png,2.0,15,,,,,,,,,,,,,0.0,1.0,0.585,0.0,10.0,10.0,10.0,1.0,,,,,,,,,,,,,,,
,,,,,,,,,,,,,,,,,,,,,,,,,,,,,,,,,,,,,,,,,,,,crab_16s.jpg,0.0,Green.png,2.0,15,,,,,,,,,,,,,0.0,1.0,0.657,0.0,11.0,11.0,11.0,1.0,,,,,,,,,,,,,,,
,,,,,,,,,,,,,,,,,,,,,,,,,,,,,,,,,,,,,,,,,,,,birdcage_08s.jpg,0.0,Blue.png,3.0,15,,,,,,,,,,,,,0.0,1.0,0.554,0.0,12.0,12.0,12.0,1.0,,,,,,,,,,,,,,,
,,,,,,,,,,,,,,,,,,,,,,,,,,,,,,,,,,,,,,,,,,,,spider_web_03s.jpg,0.0,Purple.png,3.0,15,,,,,,,,,,,,,0.0,1.0,1.05,0.0,13.0,13.0,13.0,1.0,,,,,,,,,,,,,,,
,,,,,,,,,,,,,,,,,,,,,,,,,,,,,,,,,,,,,,,,,,,,knitting_needle_04s.jpg,0.0,Red.png,3.0,15,,,,,,,,,,,,,0.0,1.0,0.639,0.0,14.0,14.0,14.0,1.0,,,,,,,,,,,,,,,
,,,,,,,,,,,,,,,,,,,,,,,,,,,,,,,,,,,,,,,,,,,,sugar_cube_11s.jpg,0.0,Orange.png,3.0,15,,,,,,,,,,,,,0.0,1.0,0.651,0.0,15.0,15.0,15.0,1.0,,,,,,,,,,,,,,,
,,,,,,,,,,,,,,,,,,,,,,,,,,,,,,,,,,,,,,,,,,,,light_switch_02s.jpg,0.0,Yellow.png,3.0,15,,,,,,,,,,,,,0.0,1.0,0.552,0.0,16.0,16.0,16.0,1.0,,,,,,,,,,,,,,,
,,,,,,,,,,,,,,,,,,,,,,,,,,,,,,,,,,,,,,,,,,,,gear_07s.jpg,0.0,Green.png,3.0,15,,,,,,,,,,,,,0.0,1.0,0.616,0.0,17.0,17.0,17.0,1.0,,,,,,,,,,,,,,,
,,,,,,,,,,,,,,,,,,,,,,,,,,,,,,,,,,,,,,,,,,,,tongs_08s.jpg,0.0,Blue.png,4.0,15,,,,,,,,,,,,,0.0,1.0,0.668,0.0,18.0,18.0,18.0,1.0,,,,,,,,,,,,,,,
,,,,,,,,,,,,,,,,,,,,,,,,,,,,,,,,,,,,,,,,,,,,recliner_02s.jpg,0.0,Purple.png,4.0,15,,,,,,,,,,,,,0.0,1.0,0.553,0.0,19.0,19.0,19.0,1.0,,,,,,,,,,,,,,,
,,,,,,,,,,,,,,,,,,,,,,,,,,,,,,,,,,,,,,,,,,,,orangutan_03s.jpg,0.0,Red.png,4.0,15,,,,,,,,,,,,,0.0,1.0,0.636,0.0,20.0,20.0,20.0,1.0,,,,,,,,,,,,,,,
,,,,,,,,,,,,,,,,,,,,,,,,,,,,,,,,,,,,,,,,,,,,golf_club_03s.jpg,0.0,Orange.png,4.0,15,,,,,,,,,,,,,0.0,1.0,0.817,0.0,21.0,21.0,21.0,1.0,,,,,,,,,,,,,,,
,,,,,,,,,,,,,,,,,,,,,,,,,,,,,,,,,,,,,,,,,,,,lava_02s.jpg,0.0,Yellow.png,4.0,15,,,,,,,,,,,,,0.0,1.0,0.686,0.0,22.0,22.0,22.0,1.0,,,,,,,,,,,,,,,
,,,,,,,,,,,,,,,,,,,,,,,,,,,,,,,,,,,,,,,,,,,,toilet_07s.jpg,0.0,Green.png,4.0,15,,,,,,,,,,,,,0.0,1.0,0.516,0.0,23.0,23.0,23.0,1.0,,,,,,,,,,,,,,,
,,,,,,,,,,,,,,,,,,,,,,,,,,,,,,,,,,,,,,,,,,,,turnstile_08s.jpg,0.0,Blue.png,5.0,15,,,,,,,,,,,,,0.0,1.0,0.651,0.0,24.0,24.0,24.0,1.0,,,,,,,,,,,,,,,
,,,,,,,,,,,,,,,,,,,,,,,,,,,,,,,,,,,,,,,,,,,,turnstile_08s.jpg,0.0,Purple.png,5.0,15,,,,,,,,,,,,,0.0,1.0,0.752,0.0,25.0,25.0,25.0,1.0,,,,,,,,,,,,,,,
,,,,,,,,,,,,,,,,,,,,,,,,,,,,,,,,,,,,,,,,,,,,teacup_07s.jpg,0.0,Red.png,5.0,15,,,,,,,,,,,,,0.0,1.0,0.619,0.0,26.0,26.0,26.0,1.0,,,,,,,,,,,,,,,
,,,,,,,,,,,,,,,,,,,,,,,,,,,,,,,,,,,,,,,,,,,,turnstile_08s.jpg,1.0,Orange.png,5.0,15,,,,,,,,,,,,,1.0,1.0,0.854,0.0,27.0,27.0,27.0,1.0,,,,,,,,,,,,,,,
,,,,,,,,,,,,,,,,,,,,,,,,,,,,,,,,,,,,,,,,,,,,turnstile_08s.jpg,0.0,Yellow.png,5.0,15,,,,,,,,,,,,,0.0,1.0,1.461,0.0,28.0,28.0,28.0,1.0,,,,,,,,,,,,,,,
,,,,,,,,,,,,,,,,,,,,,,,,,,,,,,,,,,,,,,,,,,,,antenna_01b.jpg,0.0,Green.png,5.0,15,,,,,,,,,,,,,0.0,1.0,0.675,0.0,29.0,29.0,29.0,1.0,,,,,,,,,,,,,,,
,,,,,,,,,,,,,,,,,,,,,,,,,,,,,,,,,,,,,,,,,,,,keyhole_03s.jpg,0.0,Blue.png,6.0,15,,,,,,,,,,,,,0.0,1.0,0.688,0.0,30.0,30.0,30.0,1.0,,,,,,,,,,,,,,,
,,,,,,,,,,,,,,,,,,,,,,,,,,,,,,,,,,,,,,,,,,,,air_pump_05s.jpg,0.0,Purple.png,6.0,15,,,,,,,,,,,,,0.0,1.0,0.502,0.0,31.0,31.0,31.0,1.0,,,,,,,,,,,,,,,
,,,,,,,,,,,,,,,,,,,,,,,,,,,,,,,,,,,,,,,,,,,,eggshell_14s.jpg,0.0,Red.png,6.0,15,,,,,,,,,,,,,0.0,1.0,0.586,0.0,32.0,32.0,32.0,1.0,,,,,,,,,,,,,,,
,,,,,,,,,,,,,,,,,,,,,,,,,,,,,,,,,,,,,,,,,,,,eyedropper_12s.jpg,0.0,Orange.png,6.0,15,,,,,,,,,,,,,0.0,1.0,0.636,0.0,33.0,33.0,33.0,1.0,,,,,,,,,,,,,,,
,,,,,,,,,,,,,,,,,,,,,,,,,,,,,,,,,,,,,,,,,,,,machete_06s.jpg,0.0,Yellow.png,6.0,15,,,,,,,,,,,,,0.0,1.0,0.632,0.0,34.0,34.0,34.0,1.0,,,,,,,,,,,,,,,
,,,,,,,,,,,,,,,,,,,,,,,,,,,,,,,,,,,,,,,,,,,,eyedropper_12s.jpg,1.0,Green.png,6.0,15,,,,,,,,,,,,,1.0,1.0,0.784,0.0,35.0,35.0,35.0,1.0,,,,,,,,,,,,,,,
,,,,,,,,,,,,,,,,,,,,,,,,,,,,,,,,,,,,,,,,,,,,,1.0,,,15,,,,,,,,,sugar_cube_11s.jpg,tongs_08s.jpg,,,,,,,,,,,0.0,0.0,2.116,0.0,0.0,0.0,0.0,1.0,,,,,,,
,,,,,,,,,,,,,,,,,,,,,,,,,,,,,,,,,,,,,,,,,,,,,1.0,,,15,,,,,,,,,antenna_01b.jpg,eggshell_14s.jpg,,,,,,,,,,,0.0,0.0,1.745,0.0,1.0,1.0,1.0,1.0,,,,,,,
,,,,,,,,,,,,,,,,,,,,,,,,,,,,,,,,,,,,,,,,,,,,,1.0,,,15,,,,,,,,,bank_06s.jpg,birdcage_08s.jpg,,,,,,,,,,,1.0,1.0,2.015,0.0,2.0,2.0,2.0,1.0,,,,,,,
,,,,,,,,,,,,,,,,,,,,,,,,,,,,,,,,,,,,,,,,,,,,,1.0,,,15,,,,,,,,,air_pump_05s.jpg,machete_06s.jpg,,,,,,,,,,,1.0,1.0,1.637,0.0,3.0,3.0,3.0,1.0,,,,,,,
,,,,,,,,,,,,,,,,,,,,,,,,,,,,,,,,,,,,,,,,,,,,,1.0,,,15,,,,,,,,,latch_15s.jpg,crab_16s.jpg,,,,,,,,,,,0.0,0.0,1.505,0.0,4.0,4.0,4.0,1.0,,,,,,,
,,,,,,,,,,,,,,,,,,,,,,,,,,,,,,,,,,,,,,,,,,,,,1.0,,,15,,,,,,,,,spider_web_03s.jpg,light_switch_02s.jpg,,,,,,,,,,,1.0,1.0,1.328,0.0,5.0,5.0,5.0,1.0,,,,,,,
,,,,,,,,,,,,,,,,,,,,,,,,,,,,,,,,,,,,,,,,,,,,,,,,15,,,,,,,,,,,,,,,,,,,,,,,,,,,,,0.0,4.0,4.0,4.0,1.0,new2backpresent_5_2.xlsx,new2back_compare_task_5_2.xlsx
,,,,,,,,,,,,,,,,,,,,,,,,,,,,,,,,,,,,,,,,,,,,gazelle_10s.jpg,0.0,Blue.png,1.0,15,,,,,,,,,,,,,0.0,1.0,1.194,0.0,0.0,0.0,0.0,1.0,,,,,,,,,,,,,,,
,,,,,,,,,,,,,,,,,,,,,,,,,,,,,,,,,,,,,,,,,,,,saddle_06s.jpg,0.0,Purple.png,1.0,15,,,,,,,,,,,,,0.0,1.0,0.785,0.0,1.0,1.0,1.0,1.0,,,,,,,,,,,,,,,
,,,,,,,,,,,,,,,,,,,,,,,,,,,,,,,,,,,,,,,,,,,,saddle_06s.jpg,0.0,Red.png,1.0,15,,,,,,,,,,,,,0.0,1.0,0.521,0.0,2.0,2.0,2.0,1.0,,,,,,,,,,,,,,,
,,,,,,,,,,,,,,,,,,,,,,,,,,,,,,,,,,,,,,,,,,,,kimono_13s.jpg,0.0,Orange.png,1.0,15,,,,,,,,,,,,,0.0,1.0,0.728,0.0,3.0,3.0,3.0,1.0,,,,,,,,,,,,,,,
,,,,,,,,,,,,,,,,,,,,,,,,,,,,,,,,,,,,,,,,,,,,timer_03s.jpg,0.0,Yellow.png,1.0,15,,,,,,,,,,,,,0.0,1.0,0.551,0.0,4.0,4.0,4.0,1.0,,,,,,,,,,,,,,,
,,,,,,,,,,,,,,,,,,,,,,,,,,,,,,,,,,,,,,,,,,,,tulip_02s.jpg,0.0,Green.png,1.0,15,,,,,,,,,,,,,0.0,1.0,0.556,0.0,5.0,5.0,5.0,1.0,,,,,,,,,,,,,,,
,,,,,,,,,,,,,,,,,,,,,,,,,,,,,,,,,,,,,,,,,,,,prism_10s.jpg,0.0,Blue.png,2.0,15,,,,,,,,,,,,,0.0,1.0,0.607,0.0,6.0,6.0,6.0,1.0,,,,,,,,,,,,,,,
,,,,,,,,,,,,,,,,,,,,,,,,,,,,,,,,,,,,,,,,,,,,razor_12s.jpg,0.0,Purple.png,2.0,15,,,,,,,,,,,,,0.0,1.0,0.602,0.0,7.0,7.0,7.0,1.0,,,,,,,,,,,,,,,
,,,,,,,,,,,,,,,,,,,,,,,,,,,,,,,,,,,,,,,,,,,,blazer_02s.jpg,0.0,Red.png,2.0,15,,,,,,,,,,,,,0.0,1.0,0.662,0.0,8.0,8.0,8.0,1.0,,,,,,,,,,,,,,,
,,,,,,,,,,,,,,,,,,,,,,,,,,,,,,,,,,,,,,,,,,,,razor_12s.jpg,1.0,Orange.png,2.0,15,,,,,,,,,,,,,1.0,1.0,0.502,0.0,9.0,9.0,9.0,1.0,,,,,,,,,,,,,,,
,,,,,,,,,,,,,,,,,,,,,,,,,,,,,,,,,,,,,,,,,,,,lamb_chop_07s.jpg,0.0,Yellow.png,2.0,15,,,,,,,,,,,,,0.0,1.0,0.7,0.0,10.0,10.0,10.0,1.0,,,,,,,,,,,,,,,
,,,,,,,,,,,,,,,,,,,,,,,,,,,,,,,,,,,,,,,,,,,,razor_12s.jpg,1.0,Green.png,2.0,15,,,,,,,,,,,,,1.0,1.0,0.65,0.0,11.0,11.0,11.0,1.0,,,,,,,,,,,,,,,
,,,,,,,,,,,,,,,,,,,,,,,,,,,,,,,,,,,,,,,,,,,,lamb_chop_07s.jpg,1.0,Blue.png,3.0,15,,,,,,,,,,,,,1.0,1.0,0.601,0.0,12.0,12.0,12.0,1.0,,,,,,,,,,,,,,,
,,,,,,,,,,,,,,,,,,,,,,,,,,,,,,,,,,,,,,,,,,,,lamb_chop_07s.jpg,0.0,Purple.png,3.0,15,,,,,,,,,,,,,0.0,1.0,0.769,0.0,13.0,13.0,13.0,1.0,,,,,,,,,,,,,,,
,,,,,,,,,,,,,,,,,,,,,,,,,,,,,,,,,,,,,,,,,,,,timer_03s.jpg,0.0,Red.png,3.0,15,,,,,,,,,,,,,0.0,1.0,0.673,0.0,14.0,14.0,14.0,1.0,,,,,,,,,,,,,,,
,,,,,,,,,,,,,,,,,,,,,,,,,,,,,,,,,,,,,,,,,,,,lamb_chop_07s.jpg,1.0,Orange.png,3.0,15,,,,,,,,,,,,,1.0,1.0,0.634,0.0,15.0,15.0,15.0,1.0,,,,,,,,,,,,,,,
,,,,,,,,,,,,,,,,,,,,,,,,,,,,,,,,,,,,,,,,,,,,glue_01s.jpg,0.0,Yellow.png,3.0,15,,,,,,,,,,,,,0.0,1.0,0.786,0.0,16.0,16.0,16.0,1.0,,,,,,,,,,,,,,,
,,,,,,,,,,,,,,,,,,,,,,,,,,,,,,,,,,,,,,,,,,,,solar_panel_02s.jpg,0.0,Green.png,3.0,15,,,,,,,,,,,,,0.0,1.0,0.853,0.0,17.0,17.0,17.0,1.0,,,,,,,,,,,,,,,
,,,,,,,,,,,,,,,,,,,,,,,,,,,,,,,,,,,,,,,,,,,,muffin_12n.jpg,0.0,Blue.png,4.0,15,,,,,,,,,,,,,0.0,1.0,0.536,0.0,18.0,18.0,18.0,1.0,,,,,,,,,,,,,,,
,,,,,,,,,,,,,,,,,,,,,,,,,,,,,,,,,,,,,,,,,,,,pepper2_21s.jpg,0.0,Purple.png,4.0,15,,,,,,,,,,,,,0.0,1.0,0.501,0.0,19.0,19.0,19.0,1.0,,,,,,,,,,,,,,,
,,,,,,,,,,,,,,,,,,,,,,,,,,,,,,,,,,,,,,,,,,,,marker_05s.jpg,0.0,Red.png,4.0,15,,,,,,,,,,,,,0.0,1.0,0.702,0.0,20.0,20.0,20.0,1.0,,,,,,,,,,,,,,,
,,,,,,,,,,,,,,,,,,,,,,,,,,,,,,,,,,,,,,,,,,,,soccer_ball_12s.jpg,0.0,Orange.png,4.0,15,,,,,,,,,,,,,0.0,1.0,0.583,0.0,21.0,21.0,21.0,1.0,,,,,,,,,,,,,,,
,,,,,,,,,,,,,,,,,,,,,,,,,,,,,,,,,,,,,,,,,,,,amber_04s.jpg,0.0,Yellow.png,4.0,15,,,,,,,,,,,,,0.0,1.0,0.668,0.0,22.0,22.0,22.0,1.0,,,,,,,,,,,,,,,
,,,,,,,,,,,,,,,,,,,,,,,,,,,,,,,,,,,,,,,,,,,,stopwatch_04s.jpg,0.0,Green.png,4.0,15,,,,,,,,,,,,,0.0,1.0,0.905,0.0,23.0,23.0,23.0,1.0,,,,,,,,,,,,,,,
,,,,,,,,,,,,,,,,,,,,,,,,,,,,,,,,,,,,,,,,,,,,amber_04s.jpg,1.0,Blue.png,5.0,15,,,,,,,,,,,,,1.0,1.0,0.734,0.0,24.0,24.0,24.0,1.0,,,,,,,,,,,,,,,
,,,,,,,,,,,,,,,,,,,,,,,,,,,,,,,,,,,,,,,,,,,,racehorse_03s.jpg,0.0,Purple.png,5.0,15,,,,,,,,,,,,,0.0,1.0,0.734,0.0,25.0,25.0,25.0,1.0,,,,,,,,,,,,,,,
,,,,,,,,,,,,,,,,,,,,,,,,,,,,,,,,,,,,,,,,,,,,amber_04s.jpg,1.0,Red.png,5.0,15,,,,,,,,,,,,,1.0,1.0,1.235,0.0,26.0,26.0,26.0,1.0,,,,,,,,,,,,,,,
,,,,,,,,,,,,,,,,,,,,,,,,,,,,,,,,,,,,,,,,,,,,duck_01b.jpg,0.0,Orange.png,5.0,15,,,,,,,,,,,,,0.0,1.0,0.658,0.0,27.0,27.0,27.0,1.0,,,,,,,,,,,,,,,
,,,,,,,,,,,,,,,,,,,,,,,,,,,,,,,,,,,,,,,,,,,,amber_04s.jpg,1.0,Yellow.png,5.0,15,,,,,,,,,,,,,1.0,1.0,0.542,0.0,28.0,28.0,28.0,1.0,,,,,,,,,,,,,,,
,,,,,,,,,,,,,,,,,,,,,,,,,,,,,,,,,,,,,,,,,,,,duck_01b.jpg,1.0,Green.png,5.0,15,,,,,,,,,,,,,1.0,1.0,0.912,0.0,29.0,29.0,29.0,1.0,,,,,,,,,,,,,,,
,,,,,,,,,,,,,,,,,,,,,,,,,,,,,,,,,,,,,,,,,,,,duck_01b.jpg,0.0,Blue.png,6.0,15,,,,,,,,,,,,,0.0,1.0,0.842,0.0,30.0,30.0,30.0,1.0,,,,,,,,,,,,,,,
,,,,,,,,,,,,,,,,,,,,,,,,,,,,,,,,,,,,,,,,,,,,duck_01b.jpg,1.0,Purple.png,6.0,15,,,,,,,,,,,,,1.0,1.0,0.55,0.0,31.0,31.0,31.0,1.0,,,,,,,,,,,,,,,
,,,,,,,,,,,,,,,,,,,,,,,,,,,,,,,,,,,,,,,,,,,,magnet_03s.jpg,0.0,Red.png,6.0,15,,,,,,,,,,,,,0.0,1.0,0.603,0.0,32.0,32.0,32.0,1.0,,,,,,,,,,,,,,,
,,,,,,,,,,,,,,,,,,,,,,,,,,,,,,,,,,,,,,,,,,,,duck_01b.jpg,1.0,Orange.png,6.0,15,,,,,,,,,,,,,1.0,1.0,0.568,0.0,33.0,33.0,33.0,1.0,,,,,,,,,,,,,,,
,,,,,,,,,,,,,,,,,,,,,,,,,,,,,,,,,,,,,,,,,,,,swimming_pool_17s.jpg,0.0,Yellow.png,6.0,15,,,,,,,,,,,,,0.0,1.0,0.661,0.0,34.0,34.0,34.0,1.0,,,,,,,,,,,,,,,
,,,,,,,,,,,,,,,,,,,,,,,,,,,,,,,,,,,,,,,,,,,,roulette_wheel_04s.jpg,0.0,Green.png,6.0,15,,,,,,,,,,,,,0.0,1.0,0.764,0.0,35.0,35.0,35.0,1.0,,,,,,,,,,,,,,,
,,,,,,,,,,,,,,,,,,,,,,,,,,,,,,,,,,,,,,,,,,,,,0.0,,,15,,,,,,,,,blazer_02s.jpg,tulip_02s.jpg,,,,,,,,,,,0.0,1.0,2.984,0.0,0.0,0.0,0.0,1.0,,,,,,,
,,,,,,,,,,,,,,,,,,,,,,,,,,,,,,,,,,,,,,,,,,,,,1.0,,,15,,,,,,,,,glue_01s.jpg,pepper2_21s.jpg,,,,,,,,,,,0.0,0.0,1.694,0.0,1.0,1.0,1.0,1.0,,,,,,,
,,,,,,,,,,,,,,,,,,,,,,,,,,,,,,,,,,,,,,,,,,,,,1.0,,,15,,,,,,,,,kimono_13s.jpg,prism_10s.jpg,,,,,,,,,,,1.0,1.0,1.062,0.0,2.0,2.0,2.0,1.0,,,,,,,
,,,,,,,,,,,,,,,,,,,,,,,,,,,,,,,,,,,,,,,,,,,,,0.0,,,15,,,,,,,,,soccer_ball_12s.jpg,muffin_12n.jpg,,,,,,,,,,,1.0,0.0,1.948,0.0,3.0,3.0,3.0,1.0,,,,,,,
,,,,,,,,,,,,,,,,,,,,,,,,,,,,,,,,,,,,,,,,,,,,,1.0,,,15,,,,,,,,,magnet_03s.jpg,roulette_wheel_04s.jpg,,,,,,,,,,,1.0,1.0,1.763,0.0,4.0,4.0,4.0,1.0,,,,,,,
,,,,,,,,,,,,,,,,,,,,,,,,,,,,,,,,,,,,,,,,,,,,,0.0,,,15,,,,,,,,,stopwatch_04s.jpg,marker_05s.jpg,,,,,,,,,,,0.0,1.0,1.297,0.0,5.0,5.0,5.0,1.0,,,,,,,
,,,,,,,,,,,,,,,,,,,,,,,,,,,,,,,,,,,,,,,,,,,,,,,,15,,,,,,,,,,,,,,,,,,,,,,,,,,,,,0.0,5.0,5.0,5.0,1.0,new2backpresent_6_2.xlsx,new2back_compare_task_6_2.xlsx
,,,,,,,,,,,,,,,,,,,,,,,,,,,,,,,,,,,,,,,,,,,,slingshot_07s.jpg,0.0,Blue.png,1.0,15,,,,,,,,,,,,,0.0,1.0,0.653,0.0,0.0,0.0,0.0,1.0,,,,,,,,,,,,,,,
,,,,,,,,,,,,,,,,,,,,,,,,,,,,,,,,,,,,,,,,,,,,slingshot_07s.jpg,0.0,Purple.png,1.0,15,,,,,,,,,,,,,0.0,1.0,0.467,0.0,1.0,1.0,1.0,1.0,,,,,,,,,,,,,,,
,,,,,,,,,,,,,,,,,,,,,,,,,,,,,,,,,,,,,,,,,,,,aluminum_foil_08s.jpg,0.0,Red.png,1.0,15,,,,,,,,,,,,,0.0,1.0,0.834,0.0,2.0,2.0,2.0,1.0,,,,,,,,,,,,,,,
,,,,,,,,,,,,,,,,,,,,,,,,,,,,,,,,,,,,,,,,,,,,ink_08s.jpg,0.0,Orange.png,1.0,15,,,,,,,,,,,,,0.0,1.0,0.835,0.0,3.0,3.0,3.0,1.0,,,,,,,,,,,,,,,
,,,,,,,,,,,,,,,,,,,,,,,,,,,,,,,,,,,,,,,,,,,,aluminum_foil_08s.jpg,1.0,Yellow.png,1.0,15,,,,,,,,,,,,,1.0,1.0,0.92,0.0,4.0,4.0,4.0,1.0,,,,,,,,,,,,,,,
,,,,,,,,,,,,,,,,,,,,,,,,,,,,,,,,,,,,,,,,,,,,slingshot_07s.jpg,0.0,Green.png,1.0,15,,,,,,,,,,,,,0.0,1.0,0.966,0.0,5.0,5.0,5.0,1.0,,,,,,,,,,,,,,,
,,,,,,,,,,,,,,,,,,,,,,,,,,,,,,,,,,,,,,,,,,,,aluminum_foil_08s.jpg,1.0,Blue.png,2.0,15,,,,,,,,,,,,,1.0,1.0,0.749,0.0,6.0,6.0,6.0,1.0,,,,,,,,,,,,,,,
,,,,,,,,,,,,,,,,,,,,,,,,,,,,,,,,,,,,,,,,,,,,aluminum_foil_08s.jpg,0.0,Purple.png,2.0,15,,,,,,,,,,,,,0.0,1.0,0.785,0.0,7.0,7.0,7.0,1.0,,,,,,,,,,,,,,,
,,,,,,,,,,,,,,,,,,,,,,,,,,,,,,,,,,,,,,,,,,,,ice-cream_cone_06s.jpg,0.0,Red.png,2.0,15,,,,,,,,,,,,,0.0,1.0,0.75,0.0,8.0,8.0,8.0,1.0,,,,,,,,,,,,,,,
,,,,,,,,,,,,,,,,,,,,,,,,,,,,,,,,,,,,,,,,,,,,ink_08s.jpg,0.0,Orange.png,2.0,15,,,,,,,,,,,,,0.0,1.0,1.001,0.0,9.0,9.0,9.0,1.0,,,,,,,,,,,,,,,
,,,,,,,,,,,,,,,,,,,,,,,,,,,,,,,,,,,,,,,,,,,,emerald_02s.jpg,0.0,Yellow.png,2.0,15,,,,,,,,,,,,,0.0,1.0,0.733,0.0,10.0,10.0,10.0,1.0,,,,,,,,,,,,,,,
,,,,,,,,,,,,,,,,,,,,,,,,,,,,,,,,,,,,,,,,,,,,bathtub_23s.jpg,0.0,Green.png,2.0,15,,,,,,,,,,,,,0.0,1.0,0.535,0.0,11.0,11.0,11.0,1.0,,,,,,,,,,,,,,,
,,,,,,,,,,,,,,,,,,,,,,,,,,,,,,,,,,,,,,,,,,,,bubble_01b.jpg,0.0,Blue.png,3.0,15,,,,,,,,,,,,,0.0,1.0,0.571,0.0,12.0,12.0,12.0,1.0,,,,,,,,,,,,,,,
,,,,,,,,,,,,,,,,,,,,,,,,,,,,,,,,,,,,,,,,,,,,mirror_12s.jpg,0.0,Purple.png,3.0,15,,,,,,,,,,,,,0.0,1.0,0.565,0.0,13.0,13.0,13.0,1.0,,,,,,,,,,,,,,,
,,,,,,,,,,,,,,,,,,,,,,,,,,,,,,,,,,,,,,,,,,,,swing_set_15s.jpg,0.0,Red.png,3.0,15,,,,,,,,,,,,,0.0,1.0,0.868,0.0,14.0,14.0,14.0,1.0,,,,,,,,,,,,,,,
,,,,,,,,,,,,,,,,,,,,,,,,,,,,,,,,,,,,,,,,,,,,pinwheel_06s.jpg,0.0,Orange.png,3.0,15,,,,,,,,,,,,,0.0,1.0,0.636,0.0,15.0,15.0,15.0,1.0,,,,,,,,,,,,,,,
,,,,,,,,,,,,,,,,,,,,,,,,,,,,,,,,,,,,,,,,,,,,swing_set_15s.jpg,1.0,Yellow.png,3.0,15,,,,,,,,,,,,,1.0,1.0,0.602,0.0,16.0,16.0,16.0,1.0,,,,,,,,,,,,,,,
,,,,,,,,,,,,,,,,,,,,,,,,,,,,,,,,,,,,,,,,,,,,pinwheel_06s.jpg,1.0,Green.png,3.0,15,,,,,,,,,,,,,1.0,1.0,0.552,0.0,17.0,17.0,17.0,1.0,,,,,,,,,,,,,,,
,,,,,,,,,,,,,,,,,,,,,,,,,,,,,,,,,,,,,,,,,,,,ink_08s.jpg,0.0,Blue.png,4.0,15,,,,,,,,,,,,,0.0,1.0,0.467,0.0,18.0,18.0,18.0,1.0,,,,,,,,,,,,,,,
,,,,,,,,,,,,,,,,,,,,,,,,,,,,,,,,,,,,,,,,,,,,plunger_08s.jpg,0.0,Purple.png,4.0,15,,,,,,,,,,,,,0.0,1.0,0.632,0.0,19.0,19.0,19.0,1.0,,,,,,,,,,,,,,,
,,,,,,,,,,,,,,,,,,,,,,,,,,,,,,,,,,,,,,,,,,,,ink_08s.jpg,1.0,Red.png,4.0,15,,,,,,,,,,,,,1.0,1.0,0.707,0.0,20.0,20.0,20.0,1.0,,,,,,,,,,,,,,,
,,,,,,,,,,,,,,,,,,,,,,,,,,,,,,,,,,,,,,,,,,,,ink_08s.jpg,0.0,Orange.png,4.0,15,,,,,,,,,,,,,0.0,1.0,0.753,0.0,21.0,21.0,21.0,1.0,,,,,,,,,,,,,,,
,,,,,,,,,,,,,,,,,,,,,,,,,,,,,,,,,,,,,,,,,,,,metronome_03s.jpg,0.0,Yellow.png,4.0,15,,,,,,,,,,,,,0.0,1.0,0.616,0.0,22.0,22.0,22.0,1.0,,,,,,,,,,,,,,,
,,,,,,,,,,,,,,,,,,,,,,,,,,,,,,,,,,,,,,,,,,,,puppy_08s.jpg,0.0,Green.png,4.0,15,,,,,,,,,,,,,0.0,1.0,0.682,0.0,23.0,23.0,23.0,1.0,,,,,,,,,,,,,,,
,,,,,,,,,,,,,,,,,,,,,,,,,,,,,,,,,,,,,,,,,,,,treasure_08s.jpg,0.0,Blue.png,5.0,15,,,,,,,,,,,,,0.0,1.0,0.666,0.0,24.0,24.0,24.0,1.0,,,,,,,,,,,,,,,
,,,,,,,,,,,,,,,,,,,,,,,,,,,,,,,,,,,,,,,,,,,,penguin_16s.jpg,0.0,Purple.png,5.0,15,,,,,,,,,,,,,0.0,1.0,0.535,0.0,25.0,25.0,25.0,1.0,,,,,,,,,,,,,,,
,,,,,,,,,,,,,,,,,,,,,,,,,,,,,,,,,,,,,,,,,,,,bacon_05s.jpg,0.0,Red.png,5.0,15,,,,,,,,,,,,,0.0,1.0,0.535,0.0,26.0,26.0,26.0,1.0,,,,,,,,,,,,,,,
,,,,,,,,,,,,,,,,,,,,,,,,,,,,,,,,,,,,,,,,,,,,giraffe_11s.jpg,0.0,Orange.png,5.0,15,,,,,,,,,,,,,0.0,1.0,0.77,0.0,27.0,27.0,27.0,1.0,,,,,,,,,,,,,,,
,,,,,,,,,,,,,,,,,,,,,,,,,,,,,,,,,,,,,,,,,,,,rug_09s.jpg,0.0,Yellow.png,5.0,15,,,,,,,,,,,,,0.0,1.0,0.602,0.0,28.0,28.0,28.0,1.0,,,,,,,,,,,,,,,
,,,,,,,,,,,,,,,,,,,,,,,,,,,,,,,,,,,,,,,,,,,,lamp_08s.jpg,0.0,Green.png,5.0,15,,,,,,,,,,,,,0.0,1.0,0.85,0.0,29.0,29.0,29.0,1.0,,,,,,,,,,,,,,,
,,,,,,,,,,,,,,,,,,,,,,,,,,,,,,,,,,,,,,,,,,,,metronome_03s.jpg,0.0,Blue.png,6.0,15,,,,,,,,,,,,,0.0,1.0,0.758,0.0,30.0,30.0,30.0,1.0,,,,,,,,,,,,,,,
,,,,,,,,,,,,,,,,,,,,,,,,,,,,,,,,,,,,,,,,,,,,metronome_03s.jpg,0.0,Purple.png,6.0,15,,,,,,,,,,,,,0.0,1.0,0.885,0.0,31.0,31.0,31.0,1.0,,,,,,,,,,,,,,,
,,,,,,,,,,,,,,,,,,,,,,,,,,,,,,,,,,,,,,,,,,,,lip_gloss_06s.jpg,0.0,Red.png,6.0,15,,,,,,,,,,,,,0.0,1.0,0.818,0.0,32.0,32.0,32.0,1.0,,,,,,,,,,,,,,,
,,,,,,,,,,,,,,,,,,,,,,,,,,,,,,,,,,,,,,,,,,,,metronome_03s.jpg,1.0,Orange.png,6.0,15,,,,,,,,,,,,,1.0,1.0,0.536,0.0,33.0,33.0,33.0,1.0,,,,,,,,,,,,,,,
,,,,,,,,,,,,,,,,,,,,,,,,,,,,,,,,,,,,,,,,,,,,laser_pointer_02s.jpg,0.0,Yellow.png,6.0,15,,,,,,,,,,,,,0.0,1.0,0.557,0.0,34.0,34.0,34.0,1.0,,,,,,,,,,,,,,,
,,,,,,,,,,,,,,,,,,,,,,,,,,,,,,,,,,,,,,,,,,,,metronome_03s.jpg,1.0,Green.png,6.0,15,,,,,,,,,,,,,1.0,1.0,0.72,0.0,35.0,35.0,35.0,1.0,,,,,,,,,,,,,,,
,,,,,,,,,,,,,,,,,,,,,,,,,,,,,,,,,,,,,,,,,,,,,1.0,,,15,,,,,,,,,emerald_02s.jpg,mirror_12s.jpg,,,,,,,,,,,1.0,1.0,1.684,0.0,0.0,0.0,0.0,1.0,,,,,,,
,,,,,,,,,,,,,,,,,,,,,,,,,,,,,,,,,,,,,,,,,,,,,1.0,,,15,,,,,,,,,puppy_08s.jpg,bacon_05s.jpg,,,,,,,,,,,1.0,1.0,1.766,0.0,1.0,1.0,1.0,1.0,,,,,,,
,,,,,,,,,,,,,,,,,,,,,,,,,,,,,,,,,,,,,,,,,,,,,0.0,,,15,,,,,,,,,lip_gloss_06s.jpg,lamp_08s.jpg,,,,,,,,,,,0.0,1.0,1.346,0.0,2.0,2.0,2.0,1.0,,,,,,,
,,,,,,,,,,,,,,,,,,,,,,,,,,,,,,,,,,,,,,,,,,,,,0.0,,,15,,,,,,,,,bathtub_23s.jpg,ice-cream_cone_06s.jpg,,,,,,,,,,,0.0,1.0,1.445,0.0,3.0,3.0,3.0,1.0,,,,,,,
,,,,,,,,,,,,,,,,,,,,,,,,,,,,,,,,,,,,,,,,,,,,,0.0,,,15,,,,,,,,,giraffe_11s.jpg,treasure_08s.jpg,,,,,,,,,,,1.0,0.0,1.464,0.0,4.0,4.0,4.0,1.0,,,,,,,
,,,,,,,,,,,,,,,,,,,,,,,,,,,,,,,,,,,,,,,,,,,,,0.0,,,15,,,,,,,,,rug_09s.jpg,penguin_16s.jpg,,,,,,,,,,,1.0,0.0,2.843,0.0,5.0,5.0,5.0,1.0,,,,,,,
,,,,,,,,,,,,,,,,,,,,,,,,,,,,,,,,,,,,,,,,,,,,,,,,15,,,,,,,,,,,,,,,,,,,,,,,,,,,,,0.0,6.0,6.0,6.0,1.0,new2backpresent_7_2.xlsx,new2back_compare_task_7_2.xlsx
,,,,,,,,,,,,,,,,,,,,,,,,,,,,,,,,,,,,,,,,,,,,ant_12s.jpg,0.0,Blue.png,1.0,15,,,,,,,,,,,,,0.0,1.0,0.932,0.0,0.0,0.0,0.0,1.0,,,,,,,,,,,,,,,
,,,,,,,,,,,,,,,,,,,,,,,,,,,,,,,,,,,,,,,,,,,,ant_12s.jpg,0.0,Purple.png,1.0,15,,,,,,,,,,,,,0.0,1.0,0.803,0.0,1.0,1.0,1.0,1.0,,,,,,,,,,,,,,,
,,,,,,,,,,,,,,,,,,,,,,,,,,,,,,,,,,,,,,,,,,,,ticktacktoe_08s.jpg,0.0,Red.png,1.0,15,,,,,,,,,,,,,0.0,1.0,0.503,0.0,2.0,2.0,2.0,1.0,,,,,,,,,,,,,,,
,,,,,,,,,,,,,,,,,,,,,,,,,,,,,,,,,,,,,,,,,,,,frog_09s.jpg,0.0,Orange.png,1.0,15,,,,,,,,,,,,,0.0,1.0,0.5,0.0,3.0,3.0,3.0,1.0,,,,,,,,,,,,,,,
,,,,,,,,,,,,,,,,,,,,,,,,,,,,,,,,,,,,,,,,,,,,ticktacktoe_08s.jpg,1.0,Yellow.png,1.0,15,,,,,,,,,,,,,1.0,1.0,0.47,0.0,4.0,4.0,4.0,1.0,,,,,,,,,,,,,,,
,,,,,,,,,,,,,,,,,,,,,,,,,,,,,,,,,,,,,,,,,,,,feather02.jpg,0.0,Green.png,1.0,15,,,,,,,,,,,,,0.0,1.0,0.817,0.0,5.0,5.0,5.0,1.0,,,,,,,,,,,,,,,
,,,,,,,,,,,,,,,,,,,,,,,,,,,,,,,,,,,,,,,,,,,,gas_mask_11s.jpg,0.0,Blue.png,2.0,15,,,,,,,,,,,,,0.0,1.0,0.535,0.0,6.0,6.0,6.0,1.0,,,,,,,,,,,,,,,
,,,,,,,,,,,,,,,,,,,,,,,,,,,,,,,,,,,,,,,,,,,,gas_mask_11s.jpg,0.0,Purple.png,2.0,15,,,,,,,,,,,,,0.0,1.0,0.986,0.0,7.0,7.0,7.0,1.0,,,,,,,,,,,,,,,
,,,,,,,,,,,,,,,,,,,,,,,,,,,,,,,,,,,,,,,,,,,,mop_08s.jpg,0.0,Red.png,2.0,15,,,,,,,,,,,,,0.0,1.0,0.785,0.0,8.0,8.0,8.0,1.0,,,,,,,,,,,,,,,
,,,,,,,,,,,,,,,,,,,,,,,,,,,,,,,,,,,,,,,,,,,,gas_mask_11s.jpg,1.0,Orange.png,2.0,15,,,,,,,,,,,,,1.0,1.0,0.857,0.0,9.0,9.0,9.0,1.0,,,,,,,,,,,,,,,
,,,,,,,,,,,,,,,,,,,,,,,,,,,,,,,,,,,,,,,,,,,,pea_11s.jpg,0.0,Yellow.png,2.0,15,,,,,,,,,,,,,0.0,1.0,0.613,0.0,10.0,10.0,10.0,1.0,,,,,,,,,,,,,,,
,,,,,,,,,,,,,,,,,,,,,,,,,,,,,,,,,,,,,,,,,,,,bowler_hat_10s.jpg,0.0,Green.png,2.0,15,,,,,,,,,,,,,0.0,1.0,0.653,0.0,11.0,11.0,11.0,1.0,,,,,,,,,,,,,,,
,,,,,,,,,,,,,,,,,,,,,,,,,,,,,,,,,,,,,,,,,,,,pencil_sharpener_09n.jpg,0.0,Blue.png,3.0,15,,,,,,,,,,,,,0.0,1.0,1.184,0.0,12.0,12.0,12.0,1.0,,,,,,,,,,,,,,,
,,,,,,,,,,,,,,,,,,,,,,,,,,,,,,,,,,,,,,,,,,,,rice_12s.jpg,0.0,Purple.png,3.0,15,,,,,,,,,,,,,0.0,1.0,0.55,0.0,13.0,13.0,13.0,1.0,,,,,,,,,,,,,,,
,,,,,,,,,,,,,,,,,,,,,,,,,,,,,,,,,,,,,,,,,,,,stamp1_11s.jpg,0.0,Red.png,3.0,15,,,,,,,,,,,,,0.0,1.0,0.801,0.0,14.0,14.0,14.0,1.0,,,,,,,,,,,,,,,
,,,,,,,,,,,,,,,,,,,,,,,,,,,,,,,,,,,,,,,,,,,,jersey_02s.jpg,0.0,Orange.png,3.0,15,,,,,,,,,,,,,0.0,1.0,0.521,0.0,15.0,15.0,15.0,1.0,,,,,,,,,,,,,,,
,,,,,,,,,,,,,,,,,,,,,,,,,,,,,,,,,,,,,,,,,,,,tiara_05s.jpg,0.0,Yellow.png,3.0,15,,,,,,,,,,,,,0.0,1.0,0.668,0.0,16.0,16.0,16.0,1.0,,,,,,,,,,,,,,,
,,,,,,,,,,,,,,,,,,,,,,,,,,,,,,,,,,,,,,,,,,,,target_11s.jpg,0.0,Green.png,3.0,15,,,,,,,,,,,,,0.0,1.0,0.651,0.0,17.0,17.0,17.0,1.0,,,,,,,,,,,,,,,
,,,,,,,,,,,,,,,,,,,,,,,,,,,,,,,,,,,,,,,,,,,,dirt_bike_11s.jpg,0.0,Blue.png,4.0,15,,,,,,,,,,,,,0.0,1.0,1.035,0.0,18.0,18.0,18.0,1.0,,,,,,,,,,,,,,,
,,,,,,,,,,,,,,,,,,,,,,,,,,,,,,,,,,,,,,,,,,,,doily_13s.jpg,0.0,Purple.png,4.0,15,,,,,,,,,,,,,0.0,1.0,0.653,0.0,19.0,19.0,19.0,1.0,,,,,,,,,,,,,,,
,,,,,,,,,,,,,,,,,,,,,,,,,,,,,,,,,,,,,,,,,,,,sunglasses_11s.jpg,0.0,Red.png,4.0,15,,,,,,,,,,,,,0.0,1.0,0.544,0.0,20.0,20.0,20.0,1.0,,,,,,,,,,,,,,,
,,,,,,,,,,,,,,,,,,,,,,,,,,,,,,,,,,,,,,,,,,,,compass_10n.jpg,0.0,Orange.png,4.0,15,,,,,,,,,,,,,0.0,1.0,0.809,0.0,21.0,21.0,21.0,1.0,,,,,,,,,,,,,,,
,,,,,,,,,,,,,,,,,,,,,,,,,,,,,,,,,,,,,,,,,,,,sunglasses_11s.jpg,1.0,Yellow.png,4.0,15,,,,,,,,,,,,,1.0,1.0,0.577,0.0,22.0,22.0,22.0,1.0,,,,,,,,,,,,,,,
,,,,,,,,,,,,,,,,,,,,,,,,,,,,,,,,,,,,,,,,,,,,sunglasses_11s.jpg,0.0,Green.png,4.0,15,,,,,,,,,,,,,0.0,1.0,1.088,0.0,23.0,23.0,23.0,1.0,,,,,,,,,,,,,,,
,,,,,,,,,,,,,,,,,,,,,,,,,,,,,,,,,,,,,,,,,,,,seagull_01b.jpg,0.0,Blue.png,5.0,15,,,,,,,,,,,,,0.0,1.0,0.561,0.0,24.0,24.0,24.0,1.0,,,,,,,,,,,,,,,
,,,,,,,,,,,,,,,,,,,,,,,,,,,,,,,,,,,,,,,,,,,,footprint_11s.jpg,0.0,Purple.png,5.0,15,,,,,,,,,,,,,0.0,1.0,0.624,0.0,25.0,25.0,25.0,1.0,,,,,,,,,,,,,,,
,,,,,,,,,,,,,,,,,,,,,,,,,,,,,,,,,,,,,,,,,,,,projector_08s.jpg,0.0,Red.png,5.0,15,,,,,,,,,,,,,0.0,1.0,0.626,0.0,26.0,26.0,26.0,1.0,,,,,,,,,,,,,,,
,,,,,,,,,,,,,,,,,,,,,,,,,,,,,,,,,,,,,,,,,,,,projector_08s.jpg,0.0,Orange.png,5.0,15,,,,,,,,,,,,,0.0,1.0,0.876,0.0,27.0,27.0,27.0,1.0,,,,,,,,,,,,,,,
,,,,,,,,,,,,,,,,,,,,,,,,,,,,,,,,,,,,,,,,,,,,money_07s.jpg,0.0,Yellow.png,5.0,15,,,,,,,,,,,,,0.0,1.0,0.588,0.0,28.0,28.0,28.0,1.0,,,,,,,,,,,,,,,
,,,,,,,,,,,,,,,,,,,,,,,,,,,,,,,,,,,,,,,,,,,,flip_flop_03s.jpg,0.0,Green.png,5.0,15,,,,,,,,,,,,,0.0,1.0,0.55,0.0,29.0,29.0,29.0,1.0,,,,,,,,,,,,,,,
,,,,,,,,,,,,,,,,,,,,,,,,,,,,,,,,,,,,,,,,,,,,ring_03s.jpg,0.0,Blue.png,6.0,15,,,,,,,,,,,,,0.0,1.0,0.518,0.0,30.0,30.0,30.0,1.0,,,,,,,,,,,,,,,
,,,,,,,,,,,,,,,,,,,,,,,,,,,,,,,,,,,,,,,,,,,,flip_flop_03s.jpg,1.0,Purple.png,6.0,15,,,,,,,,,,,,,1.0,1.0,0.634,0.0,31.0,31.0,31.0,1.0,,,,,,,,,,,,,,,
,,,,,,,,,,,,,,,,,,,,,,,,,,,,,,,,,,,,,,,,,,,,flip_flop_03s.jpg,0.0,Red.png,6.0,15,,,,,,,,,,,,,0.0,1.0,0.875,0.0,32.0,32.0,32.0,1.0,,,,,,,,,,,,,,,
,,,,,,,,,,,,,,,,,,,,,,,,,,,,,,,,,,,,,,,,,,,,flip_flop_03s.jpg,1.0,Orange.png,6.0,15,,,,,,,,,,,,,1.0,1.0,0.535,0.0,33.0,33.0,33.0,1.0,,,,,,,,,,,,,,,
,,,,,,,,,,,,,,,,,,,,,,,,,,,,,,,,,,,,,,,,,,,,screwdriver02a.jpg,0.0,Yellow.png,6.0,15,,,,,,,,,,,,,0.0,1.0,0.628,0.0,34.0,34.0,34.0,1.0,,,,,,,,,,,,,,,
,,,,,,,,,,,,,,,,,,,,,,,,,,,,,,,,,,,,,,,,,,,,screwdriver02a.jpg,0.0,Green.png,6.0,15,,,,,,,,,,,,,0.0,1.0,0.808,0.0,35.0,35.0,35.0,1.0,,,,,,,,,,,,,,,
,,,,,,,,,,,,,,,,,,,,,,,,,,,,,,,,,,,,,,,,,,,,,0.0,,,15,,,,,,,,,mop_08s.jpg,feather02.jpg,,,,,,,,,,,0.0,1.0,3.231,0.0,0.0,0.0,0.0,1.0,,,,,,,
,,,,,,,,,,,,,,,,,,,,,,,,,,,,,,,,,,,,,,,,,,,,,1.0,,,15,,,,,,,,,pea_11s.jpg,rice_12s.jpg,,,,,,,,,,,1.0,1.0,1.247,0.0,1.0,1.0,1.0,1.0,,,,,,,
,,,,,,,,,,,,,,,,,,,,,,,,,,,,,,,,,,,,,,,,,,,,,1.0,,,15,,,,,,,,,tiara_05s.jpg,doily_13s.jpg,,,,,,,,,,,1.0,1.0,1.39,0.0,2.0,2.0,2.0,1.0,,,,,,,
,,,,,,,,,,,,,,,,,,,,,,,,,,,,,,,,,,,,,,,,,,,,,1.0,,,15,,,,,,,,,footprint_11s.jpg,money_07s.jpg,,,,,,,,,,,1.0,1.0,1.412,0.0,3.0,3.0,3.0,1.0,,,,,,,
,,,,,,,,,,,,,,,,,,,,,,,,,,,,,,,,,,,,,,,,,,,,,1.0,,,15,,,,,,,,,pencil_sharpener_09n.jpg,jersey_02s.jpg,,,,,,,,,,,0.0,0.0,1.412,0.0,4.0,4.0,4.0,1.0,,,,,,,
,,,,,,,,,,,,,,,,,,,,,,,,,,,,,,,,,,,,,,,,,,,,,1.0,,,15,,,,,,,,,stamp1_11s.jpg,target_11s.jpg,,,,,,,,,,,0.0,0.0,1.445,0.0,5.0,5.0,5.0,1.0,,,,,,,
,,,,,,,,,,,,,,,,,,,,,,,,,,,,,,,,,,,,,,,,,,,,,,,,15,,,,,,,,,,,,,,,,,,,,,,,,,,,,,0.0,7.0,7.0,7.0,1.0,new2backpresent_8_2.xlsx,new2back_compare_task_8_2.xlsx
,,,,,,,,,,,,,,,,,,,,,,,,,,,,,,,,,,,,,,,,,,,,quilt_03s.jpg,0.0,Blue.png,1.0,15,,,,,,,,,,,,,0.0,1.0,0.94,0.0,0.0,0.0,0.0,1.0,,,,,,,,,,,,,,,
,,,,,,,,,,,,,,,,,,,,,,,,,,,,,,,,,,,,,,,,,,,,stingray_02s.jpg,0.0,Purple.png,1.0,15,,,,,,,,,,,,,0.0,1.0,0.723,0.0,1.0,1.0,1.0,1.0,,,,,,,,,,,,,,,
,,,,,,,,,,,,,,,,,,,,,,,,,,,,,,,,,,,,,,,,,,,,mousetrap_15n.jpg,0.0,Red.png,1.0,15,,,,,,,,,,,,,0.0,1.0,0.65,0.0,2.0,2.0,2.0,1.0,,,,,,,,,,,,,,,
,,,,,,,,,,,,,,,,,,,,,,,,,,,,,,,,,,,,,,,,,,,,dashboard_02s.jpg,0.0,Orange.png,1.0,15,,,,,,,,,,,,,0.0,1.0,0.644,0.0,3.0,3.0,3.0,1.0,,,,,,,,,,,,,,,
,,,,,,,,,,,,,,,,,,,,,,,,,,,,,,,,,,,,,,,,,,,,quilt_03s.jpg,0.0,Yellow.png,1.0,15,,,,,,,,,,,,,0.0,1.0,0.857,0.0,4.0,4.0,4.0,1.0,,,,,,,,,,,,,,,
,,,,,,,,,,,,,,,,,,,,,,,,,,,,,,,,,,,,,,,,,,,,quilt_03s.jpg,0.0,Green.png,1.0,15,,,,,,,,,,,,,0.0,1.0,0.944,0.0,5.0,5.0,5.0,1.0,,,,,,,,,,,,,,,
,,,,,,,,,,,,,,,,,,,,,,,,,,,,,,,,,,,,,,,,,,,,thorn_13s.jpg,0.0,Blue.png,2.0,15,,,,,,,,,,,,,0.0,1.0,0.669,0.0,6.0,6.0,6.0,1.0,,,,,,,,,,,,,,,
,,,,,,,,,,,,,,,,,,,,,,,,,,,,,,,,,,,,,,,,,,,,mitten_10s.jpg,0.0,Purple.png,2.0,15,,,,,,,,,,,,,0.0,1.0,0.577,0.0,7.0,7.0,7.0,1.0,,,,,,,,,,,,,,,
,,,,,,,,,,,,,,,,,,,,,,,,,,,,,,,,,,,,,,,,,,,,fondue_07s.jpg,0.0,Red.png,2.0,15,,,,,,,,,,,,,0.0,1.0,0.619,0.0,8.0,8.0,8.0,1.0,,,,,,,,,,,,,,,
,,,,,,,,,,,,,,,,,,,,,,,,,,,,,,,,,,,,,,,,,,,,peach_04s.jpg,0.0,Orange.png,2.0,15,,,,,,,,,,,,,0.0,1.0,0.832,0.0,9.0,9.0,9.0,1.0,,,,,,,,,,,,,,,
,,,,,,,,,,,,,,,,,,,,,,,,,,,,,,,,,,,,,,,,,,,,stump_02s.jpg,0.0,Yellow.png,2.0,15,,,,,,,,,,,,,0.0,1.0,0.663,0.0,10.0,10.0,10.0,1.0,,,,,,,,,,,,,,,
,,,,,,,,,,,,,,,,,,,,,,,,,,,,,,,,,,,,,,,,,,,,rabbit_03s.jpg,0.0,Green.png,2.0,15,,,,,,,,,,,,,0.0,1.0,0.662,0.0,11.0,11.0,11.0,1.0,,,,,,,,,,,,,,,
,,,,,,,,,,,,,,,,,,,,,,,,,,,,,,,,,,,,,,,,,,,,champagne_18s.jpg,0.0,Blue.png,3.0,15,,,,,,,,,,,,,0.0,1.0,0.576,0.0,12.0,12.0,12.0,1.0,,,,,,,,,,,,,,,
,,,,,,,,,,,,,,,,,,,,,,,,,,,,,,,,,,,,,,,,,,,,rabbit_03s.jpg,1.0,Purple.png,3.0,15,,,,,,,,,,,,,1.0,1.0,0.54,0.0,13.0,13.0,13.0,1.0,,,,,,,,,,,,,,,
,,,,,,,,,,,,,,,,,,,,,,,,,,,,,,,,,,,,,,,,,,,,denture_03s.jpg,0.0,Red.png,3.0,15,,,,,,,,,,,,,0.0,1.0,0.523,0.0,14.0,14.0,14.0,1.0,,,,,,,,,,,,,,,
,,,,,,,,,,,,,,,,,,,,,,,,,,,,,,,,,,,,,,,,,,,,rabbit_03s.jpg,1.0,Orange.png,3.0,15,,,,,,,,,,,,,1.0,1.0,0.783,0.0,15.0,15.0,15.0,1.0,,,,,,,,,,,,,,,
,,,,,,,,,,,,,,,,,,,,,,,,,,,,,,,,,,,,,,,,,,,,turtleneck_11s.jpg,0.0,Yellow.png,3.0,15,,,,,,,,,,,,,0.0,1.0,0.596,0.0,16.0,16.0,16.0,1.0,,,,,,,,,,,,,,,
,,,,,,,,,,,,,,,,,,,,,,,,,,,,,,,,,,,,,,,,,,,,rabbit_03s.jpg,1.0,Green.png,3.0,15,,,,,,,,,,,,,1.0,1.0,0.634,0.0,17.0,17.0,17.0,1.0,,,,,,,,,,,,,,,
,,,,,,,,,,,,,,,,,,,,,,,,,,,,,,,,,,,,,,,,,,,,typewriter_11s.jpg,0.0,Blue.png,4.0,15,,,,,,,,,,,,,0.0,1.0,0.734,0.0,18.0,18.0,18.0,1.0,,,,,,,,,,,,,,,
,,,,,,,,,,,,,,,,,,,,,,,,,,,,,,,,,,,,,,,,,,,,thread_08s.jpg,0.0,Purple.png,4.0,15,,,,,,,,,,,,,0.0,1.0,0.652,0.0,19.0,19.0,19.0,1.0,,,,,,,,,,,,,,,
,,,,,,,,,,,,,,,,,,,,,,,,,,,,,,,,,,,,,,,,,,,,bean_06s.jpg,0.0,Red.png,4.0,15,,,,,,,,,,,,,0.0,1.0,0.719,0.0,20.0,20.0,20.0,1.0,,,,,,,,,,,,,,,
,,,,,,,,,,,,,,,,,,,,,,,,,,,,,,,,,,,,,,,,,,,,rolling_pin_02s.jpg,0.0,Orange.png,4.0,15,,,,,,,,,,,,,0.0,1.0,0.654,0.0,21.0,21.0,21.0,1.0,,,,,,,,,,,,,,,
,,,,,,,,,,,,,,,,,,,,,,,,,,,,,,,,,,,,,,,,,,,,tattoo_14s.jpg,0.0,Yellow.png,4.0,15,,,,,,,,,,,,,0.0,1.0,0.651,0.0,22.0,22.0,22.0,1.0,,,,,,,,,,,,,,,
,,,,,,,,,,,,,,,,,,,,,,,,,,,,,,,,,,,,,,,,,,,,eiffeltower.jpg,0.0,Green.png,4.0,15,,,,,,,,,,,,,0.0,1.0,0.551,0.0,23.0,23.0,23.0,1.0,,,,,,,,,,,,,,,
,,,,,,,,,,,,,,,,,,,,,,,,,,,,,,,,,,,,,,,,,,,,fondue_07s.jpg,0.0,Blue.png,5.0,15,,,,,,,,,,,,,0.0,1.0,0.639,0.0,24.0,24.0,24.0,1.0,,,,,,,,,,,,,,,
,,,,,,,,,,,,,,,,,,,,,,,,,,,,,,,,,,,,,,,,,,,,fondue_07s.jpg,0.0,Purple.png,5.0,15,,,,,,,,,,,,,0.0,1.0,0.804,0.0,25.0,25.0,25.0,1.0,,,,,,,,,,,,,,,
,,,,,,,,,,,,,,,,,,,,,,,,,,,,,,,,,,,,,,,,,,,,omelet_07s.jpg,0.0,Red.png,5.0,15,,,,,,,,,,,,,0.0,1.0,0.639,0.0,26.0,26.0,26.0,1.0,,,,,,,,,,,,,,,
,,,,,,,,,,,,,,,,,,,,,,,,,,,,,,,,,,,,,,,,,,,,fondue_07s.jpg,1.0,Orange.png,5.0,15,,,,,,,,,,,,,1.0,1.0,0.638,0.0,27.0,27.0,27.0,1.0,,,,,,,,,,,,,,,
,,,,,,,,,,,,,,,,,,,,,,,,,,,,,,,,,,,,,,,,,,,,radio_09s.jpg,0.0,Yellow.png,5.0,15,,,,,,,,,,,,,0.0,1.0,0.71,0.0,28.0,28.0,28.0,1.0,,,,,,,,,,,,,,,
,,,,,,,,,,,,,,,,,,,,,,,,,,,,,,,,,,,,,,,,,,,,fondue_07s.jpg,1.0,Green.png,5.0,15,,,,,,,,,,,,,1.0,1.0,1.238,0.0,29.0,29.0,29.0,1.0,,,,,,,,,,,,,,,
,,,,,,,,,,,,,,,,,,,,,,,,,,,,,,,,,,,,,,,,,,,,roller_coaster_07s.jpg,0.0,Blue.png,6.0,15,,,,,,,,,,,,,0.0,1.0,0.549,0.0,30.0,30.0,30.0,1.0,,,,,,,,,,,,,,,
,,,,,,,,,,,,,,,,,,,,,,,,,,,,,,,,,,,,,,,,,,,,loveseat_08s.jpg,0.0,Purple.png,6.0,15,,,,,,,,,,,,,0.0,1.0,0.585,0.0,31.0,31.0,31.0,1.0,,,,,,,,,,,,,,,
,,,,,,,,,,,,,,,,,,,,,,,,,,,,,,,,,,,,,,,,,,,,roller_coaster_07s.jpg,1.0,Red.png,6.0,15,,,,,,,,,,,,,1.0,1.0,0.811,0.0,32.0,32.0,32.0,1.0,,,,,,,,,,,,,,,
,,,,,,,,,,,,,,,,,,,,,,,,,,,,,,,,,,,,,,,,,,,,roller_coaster_07s.jpg,0.0,Orange.png,6.0,15,,,,,,,,,,,,,0.0,1.0,1.608,0.0,33.0,33.0,33.0,1.0,,,,,,,,,,,,,,,
,,,,,,,,,,,,,,,,,,,,,,,,,,,,,,,,,,,,,,,,,,,,roller_coaster_07s.jpg,1.0,Yellow.png,6.0,15,,,,,,,,,,,,,1.0,1.0,0.809,0.0,34.0,34.0,34.0,1.0,,,,,,,,,,,,,,,
,,,,,,,,,,,,,,,,,,,,,,,,,,,,,,,,,,,,,,,,,,,,roller_coaster_07s.jpg,1.0,Green.png,6.0,15,,,,,,,,,,,,,1.0,1.0,0.771,0.0,35.0,35.0,35.0,1.0,,,,,,,,,,,,,,,
,,,,,,,,,,,,,,,,,,,,,,,,,,,,,,,,,,,,,,,,,,,,,0.0,,,15,,,,,,,,,loveseat_08s.jpg,radio_09s.jpg,,,,,,,,,,,1.0,0.0,1.482,0.0,0.0,0.0,0.0,1.0,,,,,,,
,,,,,,,,,,,,,,,,,,,,,,,,,,,,,,,,,,,,,,,,,,,,,1.0,,,15,,,,,,,,,dashboard_02s.jpg,thorn_13s.jpg,,,,,,,,,,,1.0,1.0,2.454,0.0,1.0,1.0,1.0,1.0,,,,,,,
,,,,,,,,,,,,,,,,,,,,,,,,,,,,,,,,,,,,,,,,,,,,,0.0,,,15,,,,,,,,,champagne_18s.jpg,peach_04s.jpg,,,,,,,,,,,0.0,1.0,1.355,0.0,2.0,2.0,2.0,1.0,,,,,,,
,,,,,,,,,,,,,,,,,,,,,,,,,,,,,,,,,,,,,,,,,,,,,1.0,,,15,,,,,,,,,mitten_10s.jpg,stump_02s.jpg,,,,,,,,,,,1.0,1.0,2.52,0.0,3.0,3.0,3.0,1.0,,,,,,,
,,,,,,,,,,,,,,,,,,,,,,,,,,,,,,,,,,,,,,,,,,,,,1.0,,,15,,,,,,,,,typewriter_11s.jpg,rolling_pin_02s.jpg,,,,,,,,,,,0.0,0.0,2.865,0.0,4.0,4.0,4.0,1.0,,,,,,,
,,,,,,,,,,,,,,,,,,,,,,,,,,,,,,,,,,,,,,,,,,,,,1.0,,,15,,,,,,,,,thread_08s.jpg,tattoo_14s.jpg,,,,,,,,,,,1.0,1.0,1.239,0.0,5.0,5.0,5.0,1.0,,,,,,,
,,,,,,,,,,,,,,,,,,,,,,,,,,,,,,,,,,,,,,,,,,,,,,,,15,,,,,,,,,,,,,,,,,,,,,,,,,,,,,0.0,8.0,8.0,8.0,1.0,new2backpresent_9_2.xlsx,new2back_compare_task_9_2.xlsx
