key_resp_3.keys,key_resp_3.rt,key_resp_4.keys,key_resp_4.rt,key_resp_5.keys,key_resp_5.rt,key_resp_6.keys,key_resp_6.rt,key_resp_7.keys,key_resp_7.rt,key_resp_8.keys,key_resp_8.rt,key_resp_9.keys,key_resp_9.rt,key_resp_10.keys,key_resp_10.rt,key_resp_11.keys,key_resp_11.rt,key_resp_12.keys,key_resp_12.rt,key_resp_13.keys,key_resp_13.rt,key_resp_14.keys,key_resp_14.rt,key_resp_15.keys,key_resp_15.rt,key_resp_16.keys,key_resp_16.rt,key_resp_17.keys,key_resp_17.rt,key_resp_18.keys,key_resp_18.rt,key_resp_19.keys,key_resp_19.rt,key_resp_20.keys,key_resp_20.rt,key_resp_21.keys,key_resp_21.corr,key_resp_21.rt,trials.thisRepN,trials.thisTrialN,trials.thisN,trials.thisIndex,trials.ran,pictures,answer,clock,segment,participant,key_resp_22.keys,key_resp_22.corr,key_resp_22.rt,trials_2.thisRepN,trials_2.thisTrialN,trials_2.thisN,trials_2.thisIndex,trials_2.ran,item_a,item_b,key_resp_23.keys,key_resp_23.rt,key_resp.keys,key_resp.corr,present_segment.thisRepN,present_segment.thisTrialN,present_segment.thisN,present_segment.thisIndex,present_segment.ran,key_resp.rt,key_resp_2.keys,key_resp_2.corr,key_resp_2.rt,compare_segment.thisRepN,compare_segment.thisTrialN,compare_segment.thisN,compare_segment.thisIndex,compare_segment.ran,clock_conditions.thisRepN,clock_conditions.thisTrialN,clock_conditions.thisN,clock_conditions.thisIndex,clock_conditions.ran,present,compare
space,73.946115,space,1.238445,0.0,4.80402,0.0,1.306495,1.0,1.6565,0.0,0.849485,0.0,1.50511,0.0,0.948325,0.0,5.274565,0.0,1.022535,1.0,0.74296,0.0,1.335915,0.0,0.74724,0.0,1.07744,space,1.485875,1.0,6.474505,0.0,2.795195,space,1.188045,0.0,1.0,1.144555,0.0,0.0,0.0,0.0,1.0,whipped_cream_02s.jpg,0.0,Blue.png,1.0,110,,,,,,,,,,,,,,,,,,,,,,,,,,,,,,,,,,,
,,,,,,,,,,,,,,,,,,,,,,,,,,,,,,,,,,,,0.0,1.0,0.53265,0.0,1.0,1.0,1.0,1.0,sheep_02s.jpg,0.0,Purple.png,1.0,110,,,,,,,,,,,,,,,,,,,,,,,,,,,,,,,,,,,
,,,,,,,,,,,,,,,,,,,,,,,,,,,,,,,,,,,,0.0,1.0,1.087725,0.0,2.0,2.0,2.0,1.0,sheep_02s.jpg,0.0,Red.png,1.0,110,,,,,,,,,,,,,,,,,,,,,,,,,,,,,,,,,,,
,,,,,,,,,,,,,,,,,,,,,,,,,,,,,,,,,,,,0.0,1.0,0.68973,0.0,3.0,3.0,3.0,1.0,sequin_02s.jpg,0.0,Orange.png,1.0,110,,,,,,,,,,,,,,,,,,,,,,,,,,,,,,,,,,,
,,,,,,,,,,,,,,,,,,,,,,,,,,,,,,,,,,,,1.0,1.0,0.709725,0.0,4.0,4.0,4.0,1.0,sheep_02s.jpg,1.0,Yellow.png,1.0,110,,,,,,,,,,,,,,,,,,,,,,,,,,,,,,,,,,,
,,,,,,,,,,,,,,,,,,,,,,,,,,,,,,,,,,,,0.0,1.0,1.761465,0.0,5.0,5.0,5.0,1.0,scoop_05s.jpg,0.0,Green.png,1.0,110,,,,,,,,,,,,,,,,,,,,,,,,,,,,,,,,,,,
,,,,,,,,,,,,,,,,,,,,,,,,,,,,,,,,,,,,0.0,1.0,1.17672,0.0,6.0,6.0,6.0,1.0,wagon_12s.jpg,0.0,Blue.png,2.0,110,,,,,,,,,,,,,,,,,,,,,,,,,,,,,,,,,,,
,,,,,,,,,,,,,,,,,,,,,,,,,,,,,,,,,,,,0.0,1.0,1.840155,0.0,7.0,7.0,7.0,1.0,scrabble_05s.jpg,0.0,Purple.png,2.0,110,,,,,,,,,,,,,,,,,,,,,,,,,,,,,,,,,,,
,,,,,,,,,,,,,,,,,,,,,,,,,,,,,,,,,,,,,0.0,,0.0,8.0,8.0,8.0,1.0,wagon_12s.jpg,1.0,Red.png,2.0,110,,,,,,,,,,,,,,,,,,,,,,,,,,,,,,,,,,,
,,,,,,,,,,,,,,,,,,,,,,,,,,,,,,,,,,,,,0.0,,0.0,9.0,9.0,9.0,1.0,scrabble_05s.jpg,1.0,Orange.png,2.0,110,,,,,,,,,,,,,,,,,,,,,,,,,,,,,,,,,,,
,,,,,,,,,,,,,,,,,,,,,,,,,,,,,,,,,,,,0.0,1.0,0.89019,0.0,10.0,10.0,10.0,1.0,weasel_08s.jpg,0.0,Yellow.png,2.0,110,,,,,,,,,,,,,,,,,,,,,,,,,,,,,,,,,,,
,,,,,,,,,,,,,,,,,,,,,,,,,,,,,,,,,,,,0.0,1.0,0.684425,0.0,11.0,11.0,11.0,1.0,scooter_06s.jpg,0.0,Green.png,2.0,110,,,,,,,,,,,,,,,,,,,,,,,,,,,,,,,,,,,
,,,,,,,,,,,,,,,,,,,,,,,,,,,,,,,,,,,,0.0,1.0,0.850885,0.0,12.0,12.0,12.0,1.0,wetsuit_04s.jpg,0.0,Blue.png,3.0,110,,,,,,,,,,,,,,,,,,,,,,,,,,,,,,,,,,,
,,,,,,,,,,,,,,,,,,,,,,,,,,,,,,,,,,,,0.0,1.0,1.193505,0.0,13.0,13.0,13.0,1.0,wetsuit_04s.jpg,0.0,Purple.png,3.0,110,,,,,,,,,,,,,,,,,,,,,,,,,,,,,,,,,,,
,,,,,,,,,,,,,,,,,,,,,,,,,,,,,,,,,,,,1.0,1.0,0.846355,0.0,14.0,14.0,14.0,1.0,wetsuit_04s.jpg,1.0,Red.png,3.0,110,,,,,,,,,,,,,,,,,,,,,,,,,,,,,,,,,,,
,,,,,,,,,,,,,,,,,,,,,,,,,,,,,,,,,,,,0.0,1.0,0.70186,0.0,15.0,15.0,15.0,1.0,water_fountain_01b.jpg,0.0,Orange.png,3.0,110,,,,,,,,,,,,,,,,,,,,,,,,,,,,,,,,,,,
,,,,,,,,,,,,,,,,,,,,,,,,,,,,,,,,,,,,0.0,1.0,0.957745,0.0,16.0,16.0,16.0,1.0,waffle_iron_11s.jpg,0.0,Yellow.png,3.0,110,,,,,,,,,,,,,,,,,,,,,,,,,,,,,,,,,,,
,,,,,,,,,,,,,,,,,,,,,,,,,,,,,,,,,,,,0.0,1.0,1.060525,0.0,17.0,17.0,17.0,1.0,wing_08s.jpg,0.0,Green.png,3.0,110,,,,,,,,,,,,,,,,,,,,,,,,,,,,,,,,,,,
,,,,,,,,,,,,,,,,,,,,,,,,,,,,,,,,,,,,0.0,1.0,0.726105,0.0,18.0,18.0,18.0,1.0,shield_02s.jpg,0.0,Blue.png,4.0,110,,,,,,,,,,,,,,,,,,,,,,,,,,,,,,,,,,,
,,,,,,,,,,,,,,,,,,,,,,,,,,,,,,,,,,,,0.0,1.0,1.341745,0.0,19.0,19.0,19.0,1.0,shovel_09s.jpg,0.0,Purple.png,4.0,110,,,,,,,,,,,,,,,,,,,,,,,,,,,,,,,,,,,
,,,,,,,,,,,,,,,,,,,,,,,,,,,,,,,,,,,,0.0,1.0,0.559525,0.0,20.0,20.0,20.0,1.0,watch_09s.jpg,0.0,Red.png,4.0,110,,,,,,,,,,,,,,,,,,,,,,,,,,,,,,,,,,,
,,,,,,,,,,,,,,,,,,,,,,,,,,,,,,,,,,,,1.0,1.0,0.7914,0.0,21.0,21.0,21.0,1.0,shovel_09s.jpg,1.0,Orange.png,4.0,110,,,,,,,,,,,,,,,,,,,,,,,,,,,,,,,,,,,
,,,,,,,,,,,,,,,,,,,,,,,,,,,,,,,,,,,,0.0,1.0,1.389055,0.0,22.0,22.0,22.0,1.0,shovel_09s.jpg,0.0,Yellow.png,4.0,110,,,,,,,,,,,,,,,,,,,,,,,,,,,,,,,,,,,
,,,,,,,,,,,,,,,,,,,,,,,,,,,,,,,,,,,,0.0,1.0,1.138705,0.0,23.0,23.0,23.0,1.0,watering_can_14s.jpg,0.0,Green.png,4.0,110,,,,,,,,,,,,,,,,,,,,,,,,,,,,,,,,,,,
,,,,,,,,,,,,,,,,,,,,,,,,,,,,,,,,,,,,0.0,1.0,0.805485,0.0,24.0,24.0,24.0,1.0,wasp_13n.jpg,0.0,Blue.png,5.0,110,,,,,,,,,,,,,,,,,,,,,,,,,,,,,,,,,,,
,,,,,,,,,,,,,,,,,,,,,,,,,,,,,,,,,,,,0.0,1.0,0.867915,0.0,25.0,25.0,25.0,1.0,shoelace_13s.jpg,0.0,Purple.png,5.0,110,,,,,,,,,,,,,,,,,,,,,,,,,,,,,,,,,,,
,,,,,,,,,,,,,,,,,,,,,,,,,,,,,,,,,,,,0.0,1.0,0.95272,0.0,26.0,26.0,26.0,1.0,scarf_16s.jpg,0.0,Red.png,5.0,110,,,,,,,,,,,,,,,,,,,,,,,,,,,,,,,,,,,
,,,,,,,,,,,,,,,,,,,,,,,,,,,,,,,,,,,,0.0,1.0,0.53386,0.0,27.0,27.0,27.0,1.0,screwdriver_07s.jpg,0.0,Orange.png,5.0,110,,,,,,,,,,,,,,,,,,,,,,,,,,,,,,,,,,,
,,,,,,,,,,,,,,,,,,,,,,,,,,,,,,,,,,,,0.0,1.0,0.6018,0.0,28.0,28.0,28.0,1.0,drink_05s.jpg,0.0,Yellow.png,5.0,110,,,,,,,,,,,,,,,,,,,,,,,,,,,,,,,,,,,
,,,,,,,,,,,,,,,,,,,,,,,,,,,,,,,,,,,,1.0,1.0,0.78024,0.0,29.0,29.0,29.0,1.0,screwdriver_07s.jpg,1.0,Green.png,5.0,110,,,,,,,,,,,,,,,,,,,,,,,,,,,,,,,,,,,
,,,,,,,,,,,,,,,,,,,,,,,,,,,,,,,,,,,,0.0,1.0,0.644945,0.0,30.0,30.0,30.0,1.0,seaweed_07s.jpg,0.0,Blue.png,6.0,110,,,,,,,,,,,,,,,,,,,,,,,,,,,,,,,,,,,
,,,,,,,,,,,,,,,,,,,,,,,,,,,,,,,,,,,,0.0,1.0,0.816255,0.0,31.0,31.0,31.0,1.0,saxophone_04s.jpg,0.0,Purple.png,6.0,110,,,,,,,,,,,,,,,,,,,,,,,,,,,,,,,,,,,
,,,,,,,,,,,,,,,,,,,,,,,,,,,,,,,,,,,,1.0,0.0,1.588915,0.0,32.0,32.0,32.0,1.0,saxophone_04s.jpg,0.0,Red.png,6.0,110,,,,,,,,,,,,,,,,,,,,,,,,,,,,,,,,,,,
,,,,,,,,,,,,,,,,,,,,,,,,,,,,,,,,,,,,0.0,1.0,0.47662,0.0,33.0,33.0,33.0,1.0,scorpion_01b.jpg,0.0,Orange.png,6.0,110,,,,,,,,,,,,,,,,,,,,,,,,,,,,,,,,,,,
,,,,,,,,,,,,,,,,,,,,,,,,,,,,,,,,,,,,1.0,1.0,0.95788,0.0,34.0,34.0,34.0,1.0,saxophone_04s.jpg,1.0,Yellow.png,6.0,110,,,,,,,,,,,,,,,,,,,,,,,,,,,,,,,,,,,
,,,,,,,,,,,,,,,,,,,,,,,,,,,,,,,,,,,,0.0,1.0,1.084175,0.0,35.0,35.0,35.0,1.0,saxophone_04s.jpg,0.0,Green.png,6.0,110,,,,,,,,,,,,,,,,,,,,,,,,,,,,,,,,,,,
,,,,,,,,,,,,,,,,,,,,,,,,,,,,,,,,,,,,,,,,,,,,,1.0,,,110,1.0,1.0,2.859215,0.0,0.0,0.0,0.0,1.0,water_fountain_01b.jpg,shield_02s.jpg,,,,,,,,,,,,,,,,,,,,,,,,,
,,,,,,,,,,,,,,,,,,,,,,,,,,,,,,,,,,,,,,,,,,,,,0.0,,,110,0.0,1.0,1.46783,0.0,1.0,1.0,1.0,1.0,watch_09s.jpg,wing_08s.jpg,,,,,,,,,,,,,,,,,,,,,,,,,
,,,,,,,,,,,,,,,,,,,,,,,,,,,,,,,,,,,,,,,,,,,,,1.0,,,110,1.0,1.0,1.68097,0.0,2.0,2.0,2.0,1.0,watering_can_14s.jpg,scarf_16s.jpg,,,,,,,,,,,,,,,,,,,,,,,,,
,,,,,,,,,,,,,,,,,,,,,,,,,,,,,,,,,,,,,,,,,,,,,1.0,,,110,0.0,0.0,1.305105,0.0,3.0,3.0,3.0,1.0,whipped_cream_02s.jpg,sequin_02s.jpg,,,,,,,,,,,,,,,,,,,,,,,,,
,,,,,,,,,,,,,,,,,,,,,,,,,,,,,,,,,,,,,,,,,,,,,0.0,,,110,1.0,0.0,1.55034,0.0,4.0,4.0,4.0,1.0,drink_05s.jpg,shoelace_13s.jpg,,,,,,,,,,,,,,,,,,,,,,,,,
,,,,,,,,,,,,,,,,,,,,,,,,,,,,,,,,,,,,,,,,,,,,,1.0,,,110,1.0,1.0,2.28561,0.0,5.0,5.0,5.0,1.0,seaweed_07s.jpg,scorpion_01b.jpg,,,,,,,,,,,,,,,,,,,,,,,,,
,,,,,,,,,,,,,,,,,,,,,,,,,,,,,,,,,,,,,,,,,,,,lamppost_09s.jpg,0.0,Blue.png,1.0,110,,,,,,,,,,,space,0.758085,,0.0,0.0,0.0,0.0,0.0,1.0,,,,,,,,,,,,,,,,
,,,,,,,,,,,,,,,,,,,,,,,,,,,,,,,,,,,,,,,,,,,,mushroom_10n.jpg,0.0,Purple.png,1.0,110,,,,,,,,,,,,,0.0,1.0,0.0,1.0,1.0,1.0,1.0,1.219165,,,,,,,,,,,,,,,
,,,,,,,,,,,,,,,,,,,,,,,,,,,,,,,,,,,,,,,,,,,,mushroom_10n.jpg,0.0,Red.png,1.0,110,,,,,,,,,,,,,0.0,1.0,0.0,2.0,2.0,2.0,1.0,0.99905,,,,,,,,,,,,,,,
,,,,,,,,,,,,,,,,,,,,,,,,,,,,,,,,,,,,,,,,,,,,megaphone_03s.jpg,0.0,Orange.png,1.0,110,,,,,,,,,,,,,0.0,1.0,0.0,3.0,3.0,3.0,1.0,1.17041,,,,,,,,,,,,,,,
,,,,,,,,,,,,,,,,,,,,,,,,,,,,,,,,,,,,,,,,,,,,popsicle_02s.jpg,0.0,Yellow.png,1.0,110,,,,,,,,,,,,,0.0,1.0,0.0,4.0,4.0,4.0,1.0,0.932775,,,,,,,,,,,,,,,
,,,,,,,,,,,,,,,,,,,,,,,,,,,,,,,,,,,,,,,,,,,,kangaroo_02s.jpg,0.0,Green.png,1.0,110,,,,,,,,,,,,,0.0,1.0,0.0,5.0,5.0,5.0,1.0,0.562705,,,,,,,,,,,,,,,
,,,,,,,,,,,,,,,,,,,,,,,,,,,,,,,,,,,,,,,,,,,,kangaroo_02s.jpg,0.0,Blue.png,2.0,110,,,,,,,,,,,,,1.0,0.0,0.0,6.0,6.0,6.0,1.0,0.90559,,,,,,,,,,,,,,,
,,,,,,,,,,,,,,,,,,,,,,,,,,,,,,,,,,,,,,,,,,,,ivy_12s.jpg,0.0,Purple.png,2.0,110,,,,,,,,,,,,,0.0,1.0,0.0,7.0,7.0,7.0,1.0,0.711465,,,,,,,,,,,,,,,
,,,,,,,,,,,,,,,,,,,,,,,,,,,,,,,,,,,,,,,,,,,,kangaroo_02s.jpg,1.0,Red.png,2.0,110,,,,,,,,,,,,,1.0,1.0,0.0,8.0,8.0,8.0,1.0,0.981115,,,,,,,,,,,,,,,
,,,,,,,,,,,,,,,,,,,,,,,,,,,,,,,,,,,,,,,,,,,,peanut_butter_08s.jpg,0.0,Orange.png,2.0,110,,,,,,,,,,,,,0.0,1.0,0.0,9.0,9.0,9.0,1.0,0.991265,,,,,,,,,,,,,,,
,,,,,,,,,,,,,,,,,,,,,,,,,,,,,,,,,,,,,,,,,,,,spoon02a.jpg,0.0,Yellow.png,2.0,110,,,,,,,,,,,,,0.0,1.0,0.0,10.0,10.0,10.0,1.0,0.69796,,,,,,,,,,,,,,,
,,,,,,,,,,,,,,,,,,,,,,,,,,,,,,,,,,,,,,,,,,,,air_pump_05s.jpg,0.0,Green.png,2.0,110,,,,,,,,,,,,,0.0,1.0,0.0,11.0,11.0,11.0,1.0,0.657165,,,,,,,,,,,,,,,
,,,,,,,,,,,,,,,,,,,,,,,,,,,,,,,,,,,,,,,,,,,,powder_07s.jpg,0.0,Blue.png,3.0,110,,,,,,,,,,,,,0.0,1.0,0.0,12.0,12.0,12.0,1.0,2.34018,,,,,,,,,,,,,,,
,,,,,,,,,,,,,,,,,,,,,,,,,,,,,,,,,,,,,,,,,,,,sunglasses_11s.jpg,0.0,Purple.png,3.0,110,,,,,,,,,,,,,0.0,1.0,0.0,13.0,13.0,13.0,1.0,0.827705,,,,,,,,,,,,,,,
,,,,,,,,,,,,,,,,,,,,,,,,,,,,,,,,,,,,,,,,,,,,timer_03s.jpg,0.0,Red.png,3.0,110,,,,,,,,,,,,,0.0,1.0,0.0,14.0,14.0,14.0,1.0,0.738685,,,,,,,,,,,,,,,
,,,,,,,,,,,,,,,,,,,,,,,,,,,,,,,,,,,,,,,,,,,,sunglasses_11s.jpg,1.0,Orange.png,3.0,110,,,,,,,,,,,,,1.0,1.0,0.0,15.0,15.0,15.0,1.0,1.01383,,,,,,,,,,,,,,,
,,,,,,,,,,,,,,,,,,,,,,,,,,,,,,,,,,,,,,,,,,,,stethoscope_01b.jpg,0.0,Yellow.png,3.0,110,,,,,,,,,,,,,0.0,1.0,0.0,16.0,16.0,16.0,1.0,0.58516,,,,,,,,,,,,,,,
,,,,,,,,,,,,,,,,,,,,,,,,,,,,,,,,,,,,,,,,,,,,sunglasses_11s.jpg,1.0,Green.png,3.0,110,,,,,,,,,,,,,1.0,1.0,0.0,17.0,17.0,17.0,1.0,0.88935,,,,,,,,,,,,,,,
,,,,,,,,,,,,,,,,,,,,,,,,,,,,,,,,,,,,,,,,,,,,sunglasses_11s.jpg,0.0,Blue.png,4.0,110,,,,,,,,,,,,,0.0,1.0,0.0,18.0,18.0,18.0,1.0,1.67857,,,,,,,,,,,,,,,
,,,,,,,,,,,,,,,,,,,,,,,,,,,,,,,,,,,,,,,,,,,,sunglasses_11s.jpg,1.0,Purple.png,4.0,110,,,,,,,,,,,,,1.0,1.0,0.0,19.0,19.0,19.0,1.0,1.224905,,,,,,,,,,,,,,,
,,,,,,,,,,,,,,,,,,,,,,,,,,,,,,,,,,,,,,,,,,,,radiator_05s.jpg,0.0,Red.png,4.0,110,,,,,,,,,,,,,0.0,1.0,0.0,20.0,20.0,20.0,1.0,0.80935,,,,,,,,,,,,,,,
,,,,,,,,,,,,,,,,,,,,,,,,,,,,,,,,,,,,,,,,,,,,radiator_05s.jpg,0.0,Orange.png,4.0,110,,,,,,,,,,,,,1.0,0.0,0.0,21.0,21.0,21.0,1.0,1.025315,,,,,,,,,,,,,,,
,,,,,,,,,,,,,,,,,,,,,,,,,,,,,,,,,,,,,,,,,,,,sunglasses_11s.jpg,0.0,Yellow.png,4.0,110,,,,,,,,,,,,,1.0,0.0,0.0,22.0,22.0,22.0,1.0,1.955215,,,,,,,,,,,,,,,
,,,,,,,,,,,,,,,,,,,,,,,,,,,,,,,,,,,,,,,,,,,,radiator_05s.jpg,1.0,Green.png,4.0,110,,,,,,,,,,,,,1.0,1.0,0.0,23.0,23.0,23.0,1.0,0.974415,,,,,,,,,,,,,,,
,,,,,,,,,,,,,,,,,,,,,,,,,,,,,,,,,,,,,,,,,,,,stump_02s.jpg,0.0,Blue.png,5.0,110,,,,,,,,,,,,,0.0,1.0,0.0,24.0,24.0,24.0,1.0,1.470985,,,,,,,,,,,,,,,
,,,,,,,,,,,,,,,,,,,,,,,,,,,,,,,,,,,,,,,,,,,,jet_15s.jpg,0.0,Purple.png,5.0,110,,,,,,,,,,,,,0.0,1.0,0.0,25.0,25.0,25.0,1.0,0.864075,,,,,,,,,,,,,,,
,,,,,,,,,,,,,,,,,,,,,,,,,,,,,,,,,,,,,,,,,,,,bubble_01b.jpg,0.0,Red.png,5.0,110,,,,,,,,,,,,,0.0,1.0,0.0,26.0,26.0,26.0,1.0,0.72686,,,,,,,,,,,,,,,
,,,,,,,,,,,,,,,,,,,,,,,,,,,,,,,,,,,,,,,,,,,,footprint_11s.jpg,0.0,Orange.png,5.0,110,,,,,,,,,,,,,0.0,1.0,0.0,27.0,27.0,27.0,1.0,0.651355,,,,,,,,,,,,,,,
,,,,,,,,,,,,,,,,,,,,,,,,,,,,,,,,,,,,,,,,,,,,knitting_needle_04s.jpg,0.0,Yellow.png,5.0,110,,,,,,,,,,,,,0.0,1.0,0.0,28.0,28.0,28.0,1.0,0.57378,,,,,,,,,,,,,,,
,,,,,,,,,,,,,,,,,,,,,,,,,,,,,,,,,,,,,,,,,,,,bubble_01b.jpg,0.0,Green.png,5.0,110,,,,,,,,,,,,,1.0,0.0,0.0,29.0,29.0,29.0,1.0,1.49108,,,,,,,,,,,,,,,
,,,,,,,,,,,,,,,,,,,,,,,,,,,,,,,,,,,,,,,,,,,,lizard_10n.jpg,0.0,Blue.png,6.0,110,,,,,,,,,,,,,0.0,1.0,0.0,30.0,30.0,30.0,1.0,0.729805,,,,,,,,,,,,,,,
,,,,,,,,,,,,,,,,,,,,,,,,,,,,,,,,,,,,,,,,,,,,bubble_01b.jpg,1.0,Purple.png,6.0,110,,,,,,,,,,,,,1.0,1.0,0.0,31.0,31.0,31.0,1.0,0.97447,,,,,,,,,,,,,,,
,,,,,,,,,,,,,,,,,,,,,,,,,,,,,,,,,,,,,,,,,,,,frame_06s.jpg,0.0,Red.png,6.0,110,,,,,,,,,,,,,0.0,1.0,0.0,32.0,32.0,32.0,1.0,0.977075,,,,,,,,,,,,,,,
,,,,,,,,,,,,,,,,,,,,,,,,,,,,,,,,,,,,,,,,,,,,tube_top_03s.jpg,0.0,Orange.png,6.0,110,,,,,,,,,,,,,0.0,1.0,0.0,33.0,33.0,33.0,1.0,0.71206,,,,,,,,,,,,,,,
,,,,,,,,,,,,,,,,,,,,,,,,,,,,,,,,,,,,,,,,,,,,bubble_01b.jpg,0.0,Yellow.png,6.0,110,,,,,,,,,,,,,1.0,0.0,0.0,34.0,34.0,34.0,1.0,0.965615,,,,,,,,,,,,,,,
,,,,,,,,,,,,,,,,,,,,,,,,,,,,,,,,,,,,,,,,,,,,bubble_01b.jpg,0.0,Green.png,6.0,110,,,,,,,,,,,,,0.0,1.0,0.0,35.0,35.0,35.0,1.0,1.54813,,,,,,,,,,,,,,,
,,,,,,,,,,,,,,,,,,,,,,,,,,,,,,,,,,,,,,,,,,,,,0.0,,,110,,,,,,,,,powder_07s.jpg,peanut_butter_08s.jpg,,,,,,,,,,,1.0,0.0,2.64842,0.0,0.0,0.0,0.0,1.0,,,,,,,
,,,,,,,,,,,,,,,,,,,,,,,,,,,,,,,,,,,,,,,,,,,,,1.0,,,110,,,,,,,,,air_pump_05s.jpg,timer_03s.jpg,,,,,,,,,,,1.0,1.0,2.176635,0.0,1.0,1.0,1.0,1.0,,,,,,,
,,,,,,,,,,,,,,,,,,,,,,,,,,,,,,,,,,,,,,,,,,,,,0.0,,,110,,,,,,,,,ivy_12s.jpg,popsicle_02s.jpg,,,,,,,,,,,0.0,1.0,2.15733,0.0,2.0,2.0,2.0,1.0,,,,,,,
,,,,,,,,,,,,,,,,,,,,,,,,,,,,,,,,,,,,,,,,,,,,,0.0,,,110,,,,,,,,,megaphone_03s.jpg,lamppost_09s.jpg,,,,,,,,,,,1.0,0.0,1.08728,0.0,3.0,3.0,3.0,1.0,,,,,,,
,,,,,,,,,,,,,,,,,,,,,,,,,,,,,,,,,,,,,,,,,,,,,1.0,,,110,,,,,,,,,jet_15s.jpg,knitting_needle_04s.jpg,,,,,,,,,,,0.0,0.0,2.632925,0.0,4.0,4.0,4.0,1.0,,,,,,,
,,,,,,,,,,,,,,,,,,,,,,,,,,,,,,,,,,,,,,,,,,,,,0.0,,,110,,,,,,,,,footprint_11s.jpg,stump_02s.jpg,,,,,,,,,,,1.0,0.0,1.715685,0.0,5.0,5.0,5.0,1.0,,,,,,,
,,,,,,,,,,,,,,,,,,,,,,,,,,,,,,,,,,,,,,,,,,,,,,,,110,,,,,,,,,,,,,,,,,,,,,,,,,,,,,0.0,0.0,0.0,0.0,1.0,new2backpresent_1_3.xlsx,new2back_compare_task_1_3.xlsx
,,,,,,,,,,,,,,,,,,,,,,,,,,,,,,,,,,,,,,,,,,,,mirror_12s.jpg,0.0,Blue.png,1.0,110,,,,,,,,,,,,,0.0,1.0,0.0,0.0,0.0,0.0,1.0,1.19572,,,,,,,,,,,,,,,
,,,,,,,,,,,,,,,,,,,,,,,,,,,,,,,,,,,,,,,,,,,,rake_06s.jpg,0.0,Purple.png,1.0,110,,,,,,,,,,,,,0.0,1.0,0.0,1.0,1.0,1.0,1.0,0.363815,,,,,,,,,,,,,,,
,,,,,,,,,,,,,,,,,,,,,,,,,,,,,,,,,,,,,,,,,,,,rhubarb_03s.jpg,0.0,Red.png,1.0,110,,,,,,,,,,,,,0.0,1.0,0.0,2.0,2.0,2.0,1.0,0.699355,,,,,,,,,,,,,,,
,,,,,,,,,,,,,,,,,,,,,,,,,,,,,,,,,,,,,,,,,,,,mirror_12s.jpg,0.0,Orange.png,1.0,110,,,,,,,,,,,,,1.0,0.0,0.0,3.0,3.0,3.0,1.0,1.73761,,,,,,,,,,,,,,,
,,,,,,,,,,,,,,,,,,,,,,,,,,,,,,,,,,,,,,,,,,,,tomato_sauce_09s.jpg,0.0,Yellow.png,1.0,110,,,,,,,,,,,,,0.0,1.0,0.0,4.0,4.0,4.0,1.0,0.9919,,,,,,,,,,,,,,,
,,,,,,,,,,,,,,,,,,,,,,,,,,,,,,,,,,,,,,,,,,,,mirror_12s.jpg,1.0,Green.png,1.0,110,,,,,,,,,,,,,1.0,1.0,0.0,5.0,5.0,5.0,1.0,2.089825,,,,,,,,,,,,,,,
,,,,,,,,,,,,,,,,,,,,,,,,,,,,,,,,,,,,,,,,,,,,medal_04s.jpg,0.0,Blue.png,2.0,110,,,,,,,,,,,,,0.0,1.0,0.0,6.0,6.0,6.0,1.0,0.846955,,,,,,,,,,,,,,,
,,,,,,,,,,,,,,,,,,,,,,,,,,,,,,,,,,,,,,,,,,,,fountain_pen_06s.jpg,0.0,Purple.png,2.0,110,,,,,,,,,,,,,0.0,1.0,0.0,7.0,7.0,7.0,1.0,0.890315,,,,,,,,,,,,,,,
,,,,,,,,,,,,,,,,,,,,,,,,,,,,,,,,,,,,,,,,,,,,rudder_02s.jpg,0.0,Red.png,2.0,110,,,,,,,,,,,,,0.0,1.0,0.0,8.0,8.0,8.0,1.0,0.756175,,,,,,,,,,,,,,,
,,,,,,,,,,,,,,,,,,,,,,,,,,,,,,,,,,,,,,,,,,,,fountain_pen_06s.jpg,1.0,Orange.png,2.0,110,,,,,,,,,,,,,1.0,1.0,0.0,9.0,9.0,9.0,1.0,1.417145,,,,,,,,,,,,,,,
,,,,,,,,,,,,,,,,,,,,,,,,,,,,,,,,,,,,,,,,,,,,medal_04s.jpg,0.0,Yellow.png,2.0,110,,,,,,,,,,,,,1.0,0.0,0.0,10.0,10.0,10.0,1.0,1.25014,,,,,,,,,,,,,,,
,,,,,,,,,,,,,,,,,,,,,,,,,,,,,,,,,,,,,,,,,,,,owl_15s.jpg,0.0,Green.png,2.0,110,,,,,,,,,,,,,0.0,1.0,0.0,11.0,11.0,11.0,1.0,0.73925,,,,,,,,,,,,,,,
,,,,,,,,,,,,,,,,,,,,,,,,,,,,,,,,,,,,,,,,,,,,swan_11s.jpg,0.0,Blue.png,3.0,110,,,,,,,,,,,,,0.0,1.0,0.0,12.0,12.0,12.0,1.0,0.668565,,,,,,,,,,,,,,,
,,,,,,,,,,,,,,,,,,,,,,,,,,,,,,,,,,,,,,,,,,,,penguin_16s.jpg,0.0,Purple.png,3.0,110,,,,,,,,,,,,,0.0,1.0,0.0,13.0,13.0,13.0,1.0,0.806885,,,,,,,,,,,,,,,
,,,,,,,,,,,,,,,,,,,,,,,,,,,,,,,,,,,,,,,,,,,,piano_13n.jpg,0.0,Red.png,3.0,110,,,,,,,,,,,,,0.0,1.0,0.0,14.0,14.0,14.0,1.0,1.23627,,,,,,,,,,,,,,,
,,,,,,,,,,,,,,,,,,,,,,,,,,,,,,,,,,,,,,,,,,,,penguin_16s.jpg,1.0,Orange.png,3.0,110,,,,,,,,,,,,,1.0,1.0,0.0,15.0,15.0,15.0,1.0,0.879995,,,,,,,,,,,,,,,
,,,,,,,,,,,,,,,,,,,,,,,,,,,,,,,,,,,,,,,,,,,,feather02.jpg,0.0,Yellow.png,3.0,110,,,,,,,,,,,,,0.0,1.0,0.0,16.0,16.0,16.0,1.0,0.616465,,,,,,,,,,,,,,,
,,,,,,,,,,,,,,,,,,,,,,,,,,,,,,,,,,,,,,,,,,,,boar_10s.jpg,0.0,Green.png,3.0,110,,,,,,,,,,,,,0.0,1.0,0.0,17.0,17.0,17.0,1.0,0.62362,,,,,,,,,,,,,,,
,,,,,,,,,,,,,,,,,,,,,,,,,,,,,,,,,,,,,,,,,,,,keyboard_05s.jpg,0.0,Blue.png,4.0,110,,,,,,,,,,,,,0.0,1.0,0.0,18.0,18.0,18.0,1.0,0.634805,,,,,,,,,,,,,,,
,,,,,,,,,,,,,,,,,,,,,,,,,,,,,,,,,,,,,,,,,,,,gas_mask_11s.jpg,0.0,Purple.png,4.0,110,,,,,,,,,,,,,0.0,1.0,0.0,19.0,19.0,19.0,1.0,0.865945,,,,,,,,,,,,,,,
,,,,,,,,,,,,,,,,,,,,,,,,,,,,,,,,,,,,,,,,,,,,pocketknife_12s.jpg,0.0,Red.png,4.0,110,,,,,,,,,,,,,0.0,1.0,0.0,20.0,20.0,20.0,1.0,0.56577,,,,,,,,,,,,,,,
,,,,,,,,,,,,,,,,,,,,,,,,,,,,,,,,,,,,,,,,,,,,keyboard_05s.jpg,0.0,Orange.png,4.0,110,,,,,,,,,,,,,1.0,0.0,0.0,21.0,21.0,21.0,1.0,1.35697,,,,,,,,,,,,,,,
,,,,,,,,,,,,,,,,,,,,,,,,,,,,,,,,,,,,,,,,,,,,roulette_wheel_04s.jpg,0.0,Yellow.png,4.0,110,,,,,,,,,,,,,0.0,1.0,0.0,22.0,22.0,22.0,1.0,1.193015,,,,,,,,,,,,,,,
,,,,,,,,,,,,,,,,,,,,,,,,,,,,,,,,,,,,,,,,,,,,roulette_wheel_04s.jpg,0.0,Green.png,4.0,110,,,,,,,,,,,,,0.0,1.0,0.0,23.0,23.0,23.0,1.0,2.257065,,,,,,,,,,,,,,,
,,,,,,,,,,,,,,,,,,,,,,,,,,,,,,,,,,,,,,,,,,,,keyboard_05s.jpg,0.0,Blue.png,5.0,110,,,,,,,,,,,,,1.0,0.0,0.0,24.0,24.0,24.0,1.0,1.82171,,,,,,,,,,,,,,,
,,,,,,,,,,,,,,,,,,,,,,,,,,,,,,,,,,,,,,,,,,,,roulette_wheel_04s.jpg,1.0,Purple.png,5.0,110,,,,,,,,,,,,,1.0,1.0,0.0,25.0,25.0,25.0,1.0,1.285485,,,,,,,,,,,,,,,
,,,,,,,,,,,,,,,,,,,,,,,,,,,,,,,,,,,,,,,,,,,,limousine_12s.jpg,0.0,Red.png,5.0,110,,,,,,,,,,,,,0.0,1.0,0.0,26.0,26.0,26.0,1.0,0.68982,,,,,,,,,,,,,,,
,,,,,,,,,,,,,,,,,,,,,,,,,,,,,,,,,,,,,,,,,,,,tape_06s.jpg,0.0,Orange.png,5.0,110,,,,,,,,,,,,,0.0,1.0,0.0,27.0,27.0,27.0,1.0,0.97958,,,,,,,,,,,,,,,
,,,,,,,,,,,,,,,,,,,,,,,,,,,,,,,,,,,,,,,,,,,,quesadilla_07s.jpg,0.0,Yellow.png,5.0,110,,,,,,,,,,,,,0.0,1.0,0.0,28.0,28.0,28.0,1.0,2.28024,,,,,,,,,,,,,,,
,,,,,,,,,,,,,,,,,,,,,,,,,,,,,,,,,,,,,,,,,,,,breadstick_08s.jpg,0.0,Green.png,5.0,110,,,,,,,,,,,,,0.0,1.0,0.0,29.0,29.0,29.0,1.0,1.70979,,,,,,,,,,,,,,,
,,,,,,,,,,,,,,,,,,,,,,,,,,,,,,,,,,,,,,,,,,,,sundae_08s.jpg,0.0,Blue.png,6.0,110,,,,,,,,,,,,,0.0,1.0,0.0,30.0,30.0,30.0,1.0,0.61175,,,,,,,,,,,,,,,
,,,,,,,,,,,,,,,,,,,,,,,,,,,,,,,,,,,,,,,,,,,,sushi_08s.jpg,0.0,Purple.png,6.0,110,,,,,,,,,,,,,0.0,1.0,0.0,31.0,31.0,31.0,1.0,0.79314,,,,,,,,,,,,,,,
,,,,,,,,,,,,,,,,,,,,,,,,,,,,,,,,,,,,,,,,,,,,abacus_12s.jpg,0.0,Red.png,6.0,110,,,,,,,,,,,,,0.0,1.0,0.0,32.0,32.0,32.0,1.0,0.89942,,,,,,,,,,,,,,,
,,,,,,,,,,,,,,,,,,,,,,,,,,,,,,,,,,,,,,,,,,,,peppermint_07s.jpg,0.0,Orange.png,6.0,110,,,,,,,,,,,,,0.0,1.0,0.0,33.0,33.0,33.0,1.0,0.524295,,,,,,,,,,,,,,,
,,,,,,,,,,,,,,,,,,,,,,,,,,,,,,,,,,,,,,,,,,,,marshmallow_08s.jpg,0.0,Yellow.png,6.0,110,,,,,,,,,,,,,0.0,1.0,0.0,34.0,34.0,34.0,1.0,0.74241,,,,,,,,,,,,,,,
,,,,,,,,,,,,,,,,,,,,,,,,,,,,,,,,,,,,,,,,,,,,sundae_08s.jpg,0.0,Green.png,6.0,110,,,,,,,,,,,,,0.0,1.0,0.0,35.0,35.0,35.0,1.0,1.73463,,,,,,,,,,,,,,,
,,,,,,,,,,,,,,,,,,,,,,,,,,,,,,,,,,,,,,,,,,,,,1.0,,,110,,,,,,,,,feather02.jpg,gas_mask_11s.jpg,,,,,,,,,,,1.0,1.0,1.6305,0.0,0.0,0.0,0.0,1.0,,,,,,,
,,,,,,,,,,,,,,,,,,,,,,,,,,,,,,,,,,,,,,,,,,,,,1.0,,,110,,,,,,,,,boar_10s.jpg,pocketknife_12s.jpg,,,,,,,,,,,1.0,1.0,1.55621,0.0,1.0,1.0,1.0,1.0,,,,,,,
,,,,,,,,,,,,,,,,,,,,,,,,,,,,,,,,,,,,,,,,,,,,,0.0,,,110,,,,,,,,,sushi_08s.jpg,quesadilla_07s.jpg,,,,,,,,,,,0.0,1.0,2.43124,0.0,2.0,2.0,2.0,1.0,,,,,,,
,,,,,,,,,,,,,,,,,,,,,,,,,,,,,,,,,,,,,,,,,,,,,0.0,,,110,,,,,,,,,tomato_sauce_09s.jpg,rake_06s.jpg,,,,,,,,,,,1.0,0.0,1.780735,0.0,3.0,3.0,3.0,1.0,,,,,,,
,,,,,,,,,,,,,,,,,,,,,,,,,,,,,,,,,,,,,,,,,,,,,1.0,,,110,,,,,,,,,rudder_02s.jpg,owl_15s.jpg,,,,,,,,,,,0.0,0.0,1.82225,0.0,4.0,4.0,4.0,1.0,,,,,,,
,,,,,,,,,,,,,,,,,,,,,,,,,,,,,,,,,,,,,,,,,,,,,1.0,,,110,,,,,,,,,limousine_12s.jpg,breadstick_08s.jpg,,,,,,,,,,,0.0,0.0,2.690645,0.0,5.0,5.0,5.0,1.0,,,,,,,
,,,,,,,,,,,,,,,,,,,,,,,,,,,,,,,,,,,,,,,,,,,,,,,,110,,,,,,,,,,,,,,,,,,,,,,,,,,,,,0.0,1.0,1.0,1.0,1.0,new2backpresent_2_3.xlsx,new2back_compare_task_2_3.xlsx
,,,,,,,,,,,,,,,,,,,,,,,,,,,,,,,,,,,,,,,,,,,,lip_gloss_06s.jpg,0.0,Blue.png,1.0,110,,,,,,,,,,,,,0.0,1.0,0.0,0.0,0.0,0.0,1.0,1.430215,,,,,,,,,,,,,,,
,,,,,,,,,,,,,,,,,,,,,,,,,,,,,,,,,,,,,,,,,,,,lip_gloss_06s.jpg,0.0,Purple.png,1.0,110,,,,,,,,,,,,,0.0,1.0,0.0,1.0,1.0,1.0,1.0,0.959675,,,,,,,,,,,,,,,
,,,,,,,,,,,,,,,,,,,,,,,,,,,,,,,,,,,,,,,,,,,,memory_stick_11s.jpg,0.0,Red.png,1.0,110,,,,,,,,,,,,,0.0,1.0,0.0,2.0,2.0,2.0,1.0,0.959075,,,,,,,,,,,,,,,
,,,,,,,,,,,,,,,,,,,,,,,,,,,,,,,,,,,,,,,,,,,,torch_02s.jpg,0.0,Orange.png,1.0,110,,,,,,,,,,,,,0.0,1.0,0.0,3.0,3.0,3.0,1.0,0.643795,,,,,,,,,,,,,,,
,,,,,,,,,,,,,,,,,,,,,,,,,,,,,,,,,,,,,,,,,,,,lip_gloss_06s.jpg,0.0,Yellow.png,1.0,110,,,,,,,,,,,,,1.0,0.0,0.0,4.0,4.0,4.0,1.0,1.180485,,,,,,,,,,,,,,,
,,,,,,,,,,,,,,,,,,,,,,,,,,,,,,,,,,,,,,,,,,,,triangle_10s.jpg,0.0,Green.png,1.0,110,,,,,,,,,,,,,0.0,1.0,0.0,5.0,5.0,5.0,1.0,0.75765,,,,,,,,,,,,,,,
,,,,,,,,,,,,,,,,,,,,,,,,,,,,,,,,,,,,,,,,,,,,lip_gloss_06s.jpg,1.0,Blue.png,2.0,110,,,,,,,,,,,,,1.0,1.0,0.0,6.0,6.0,6.0,1.0,1.194165,,,,,,,,,,,,,,,
,,,,,,,,,,,,,,,,,,,,,,,,,,,,,,,,,,,,,,,,,,,,lip_gloss_06s.jpg,0.0,Purple.png,2.0,110,,,,,,,,,,,,,0.0,1.0,0.0,7.0,7.0,7.0,1.0,1.822805,,,,,,,,,,,,,,,
,,,,,,,,,,,,,,,,,,,,,,,,,,,,,,,,,,,,,,,,,,,,prism_10s.jpg,0.0,Red.png,2.0,110,,,,,,,,,,,,,0.0,1.0,0.0,8.0,8.0,8.0,1.0,0.890085,,,,,,,,,,,,,,,
,,,,,,,,,,,,,,,,,,,,,,,,,,,,,,,,,,,,,,,,,,,,soccer_ball_12s.jpg,0.0,Orange.png,2.0,110,,,,,,,,,,,,,0.0,1.0,0.0,9.0,9.0,9.0,1.0,0.6191,,,,,,,,,,,,,,,
,,,,,,,,,,,,,,,,,,,,,,,,,,,,,,,,,,,,,,,,,,,,lip_gloss_06s.jpg,0.0,Yellow.png,2.0,110,,,,,,,,,,,,,,0.0,0.0,10.0,10.0,10.0,1.0,,,,,,,,,,,,,,,,
,,,,,,,,,,,,,,,,,,,,,,,,,,,,,,,,,,,,,,,,,,,,petri_dish_12s.jpg,0.0,Green.png,2.0,110,,,,,,,,,,,,,0.0,1.0,0.0,11.0,11.0,11.0,1.0,1.081895,,,,,,,,,,,,,,,
,,,,,,,,,,,,,,,,,,,,,,,,,,,,,,,,,,,,,,,,,,,,crystal_ball_12s.jpg,0.0,Blue.png,3.0,110,,,,,,,,,,,,,0.0,1.0,0.0,12.0,12.0,12.0,1.0,0.76588,,,,,,,,,,,,,,,
,,,,,,,,,,,,,,,,,,,,,,,,,,,,,,,,,,,,,,,,,,,,trampoline_13s.jpg,0.0,Purple.png,3.0,110,,,,,,,,,,,,,0.0,1.0,0.0,13.0,13.0,13.0,1.0,0.60831,,,,,,,,,,,,,,,
,,,,,,,,,,,,,,,,,,,,,,,,,,,,,,,,,,,,,,,,,,,,joystick_01b.jpg,0.0,Red.png,3.0,110,,,,,,,,,,,,,0.0,1.0,0.0,14.0,14.0,14.0,1.0,0.74597,,,,,,,,,,,,,,,
,,,,,,,,,,,,,,,,,,,,,,,,,,,,,,,,,,,,,,,,,,,,trampoline_13s.jpg,1.0,Orange.png,3.0,110,,,,,,,,,,,,,0.0,0.0,0.0,15.0,15.0,15.0,1.0,1.47788,,,,,,,,,,,,,,,
,,,,,,,,,,,,,,,,,,,,,,,,,,,,,,,,,,,,,,,,,,,,sparkler_02s.jpg,0.0,Yellow.png,3.0,110,,,,,,,,,,,,,0.0,1.0,0.0,16.0,16.0,16.0,1.0,0.57991,,,,,,,,,,,,,,,
,,,,,,,,,,,,,,,,,,,,,,,,,,,,,,,,,,,,,,,,,,,,kayak_08s.jpg,0.0,Green.png,3.0,110,,,,,,,,,,,,,0.0,1.0,0.0,17.0,17.0,17.0,1.0,0.685785,,,,,,,,,,,,,,,
,,,,,,,,,,,,,,,,,,,,,,,,,,,,,,,,,,,,,,,,,,,,foam_03s.jpg,0.0,Blue.png,4.0,110,,,,,,,,,,,,,0.0,1.0,0.0,18.0,18.0,18.0,1.0,0.609005,,,,,,,,,,,,,,,
,,,,,,,,,,,,,,,,,,,,,,,,,,,,,,,,,,,,,,,,,,,,dirt_bike_11s.jpg,0.0,Purple.png,4.0,110,,,,,,,,,,,,,0.0,1.0,0.0,19.0,19.0,19.0,1.0,0.55147,,,,,,,,,,,,,,,
,,,,,,,,,,,,,,,,,,,,,,,,,,,,,,,,,,,,,,,,,,,,tortilla_06s.jpg,0.0,Red.png,4.0,110,,,,,,,,,,,,,0.0,1.0,0.0,20.0,20.0,20.0,1.0,0.798405,,,,,,,,,,,,,,,
,,,,,,,,,,,,,,,,,,,,,,,,,,,,,,,,,,,,,,,,,,,,dirt_bike_11s.jpg,1.0,Orange.png,4.0,110,,,,,,,,,,,,,1.0,1.0,0.0,21.0,21.0,21.0,1.0,1.06734,,,,,,,,,,,,,,,
,,,,,,,,,,,,,,,,,,,,,,,,,,,,,,,,,,,,,,,,,,,,otter_05s.jpg,0.0,Yellow.png,4.0,110,,,,,,,,,,,,,0.0,1.0,0.0,22.0,22.0,22.0,1.0,0.522915,,,,,,,,,,,,,,,
,,,,,,,,,,,,,,,,,,,,,,,,,,,,,,,,,,,,,,,,,,,,playpen_11s.jpg,0.0,Green.png,4.0,110,,,,,,,,,,,,,0.0,1.0,0.0,23.0,23.0,23.0,1.0,0.655575,,,,,,,,,,,,,,,
,,,,,,,,,,,,,,,,,,,,,,,,,,,,,,,,,,,,,,,,,,,,pear_02s.jpg,0.0,Blue.png,5.0,110,,,,,,,,,,,,,0.0,1.0,0.0,24.0,24.0,24.0,1.0,1.72688,,,,,,,,,,,,,,,
,,,,,,,,,,,,,,,,,,,,,,,,,,,,,,,,,,,,,,,,,,,,omelet_07s.jpg,0.0,Purple.png,5.0,110,,,,,,,,,,,,,0.0,1.0,0.0,25.0,25.0,25.0,1.0,0.637445,,,,,,,,,,,,,,,
,,,,,,,,,,,,,,,,,,,,,,,,,,,,,,,,,,,,,,,,,,,,camcorder_10s.jpg,0.0,Red.png,5.0,110,,,,,,,,,,,,,0.0,1.0,0.0,26.0,26.0,26.0,1.0,0.52085,,,,,,,,,,,,,,,
,,,,,,,,,,,,,,,,,,,,,,,,,,,,,,,,,,,,,,,,,,,,omelet_07s.jpg,1.0,Orange.png,5.0,110,,,,,,,,,,,,,1.0,1.0,0.0,27.0,27.0,27.0,1.0,0.99167,,,,,,,,,,,,,,,
,,,,,,,,,,,,,,,,,,,,,,,,,,,,,,,,,,,,,,,,,,,,possum_09s.jpg,0.0,Yellow.png,5.0,110,,,,,,,,,,,,,0.0,1.0,0.0,28.0,28.0,28.0,1.0,0.789795,,,,,,,,,,,,,,,
,,,,,,,,,,,,,,,,,,,,,,,,,,,,,,,,,,,,,,,,,,,,omelet_07s.jpg,1.0,Green.png,5.0,110,,,,,,,,,,,,,1.0,1.0,0.0,29.0,29.0,29.0,1.0,1.101695,,,,,,,,,,,,,,,
,,,,,,,,,,,,,,,,,,,,,,,,,,,,,,,,,,,,,,,,,,,,plaster_cast_13s.jpg,0.0,Blue.png,6.0,110,,,,,,,,,,,,,0.0,1.0,0.0,30.0,30.0,30.0,1.0,0.876375,,,,,,,,,,,,,,,
,,,,,,,,,,,,,,,,,,,,,,,,,,,,,,,,,,,,,,,,,,,,ram_05s.jpg,0.0,Purple.png,6.0,110,,,,,,,,,,,,,0.0,1.0,0.0,31.0,31.0,31.0,1.0,0.68541,,,,,,,,,,,,,,,
,,,,,,,,,,,,,,,,,,,,,,,,,,,,,,,,,,,,,,,,,,,,plug_08s.jpg,0.0,Red.png,6.0,110,,,,,,,,,,,,,0.0,1.0,0.0,32.0,32.0,32.0,1.0,0.67865,,,,,,,,,,,,,,,
,,,,,,,,,,,,,,,,,,,,,,,,,,,,,,,,,,,,,,,,,,,,plaster_cast_13s.jpg,0.0,Orange.png,6.0,110,,,,,,,,,,,,,1.0,0.0,0.0,33.0,33.0,33.0,1.0,0.89357,,,,,,,,,,,,,,,
,,,,,,,,,,,,,,,,,,,,,,,,,,,,,,,,,,,,,,,,,,,,lavender_10s.jpg,0.0,Yellow.png,6.0,110,,,,,,,,,,,,,0.0,1.0,0.0,34.0,34.0,34.0,1.0,0.92291,,,,,,,,,,,,,,,
,,,,,,,,,,,,,,,,,,,,,,,,,,,,,,,,,,,,,,,,,,,,plug_08s.jpg,0.0,Green.png,6.0,110,,,,,,,,,,,,,0.0,1.0,0.0,35.0,35.0,35.0,1.0,1.52135,,,,,,,,,,,,,,,
,,,,,,,,,,,,,,,,,,,,,,,,,,,,,,,,,,,,,,,,,,,,,1.0,,,110,,,,,,,,,soccer_ball_12s.jpg,crystal_ball_12s.jpg,,,,,,,,,,,1.0,1.0,1.72606,0.0,0.0,0.0,0.0,1.0,,,,,,,
,,,,,,,,,,,,,,,,,,,,,,,,,,,,,,,,,,,,,,,,,,,,,1.0,,,110,,,,,,,,,playpen_11s.jpg,camcorder_10s.jpg,,,,,,,,,,,1.0,1.0,1.37245,0.0,1.0,1.0,1.0,1.0,,,,,,,
,,,,,,,,,,,,,,,,,,,,,,,,,,,,,,,,,,,,,,,,,,,,,1.0,,,110,,,,,,,,,possum_09s.jpg,ram_05s.jpg,,,,,,,,,,,1.0,1.0,1.855295,0.0,2.0,2.0,2.0,1.0,,,,,,,
,,,,,,,,,,,,,,,,,,,,,,,,,,,,,,,,,,,,,,,,,,,,,1.0,,,110,,,,,,,,,memory_stick_11s.jpg,triangle_10s.jpg,,,,,,,,,,,0.0,0.0,1.66921,0.0,3.0,3.0,3.0,1.0,,,,,,,
,,,,,,,,,,,,,,,,,,,,,,,,,,,,,,,,,,,,,,,,,,,,,0.0,,,110,,,,,,,,,petri_dish_12s.jpg,prism_10s.jpg,,,,,,,,,,,0.0,1.0,1.680225,0.0,4.0,4.0,4.0,1.0,,,,,,,
,,,,,,,,,,,,,,,,,,,,,,,,,,,,,,,,,,,,,,,,,,,,,0.0,,,110,,,,,,,,,kayak_08s.jpg,joystick_01b.jpg,,,,,,,,,,,0.0,1.0,1.34024,0.0,5.0,5.0,5.0,1.0,,,,,,,
,,,,,,,,,,,,,,,,,,,,,,,,,,,,,,,,,,,,,,,,,,,,,,,,110,,,,,,,,,,,,,,,,,,,,,,,,,,,,,0.0,2.0,2.0,2.0,1.0,new2backpresent_3_3.xlsx,new2back_compare_task_3_3.xlsx
,,,,,,,,,,,,,,,,,,,,,,,,,,,,,,,,,,,,,,,,,,,,towel_rack_04s.jpg,0.0,Blue.png,1.0,110,,,,,,,,,,,,,0.0,1.0,0.0,0.0,0.0,0.0,1.0,1.11204,,,,,,,,,,,,,,,
,,,,,,,,,,,,,,,,,,,,,,,,,,,,,,,,,,,,,,,,,,,,iron_13s.jpg,0.0,Purple.png,1.0,110,,,,,,,,,,,,,0.0,1.0,0.0,1.0,1.0,1.0,1.0,0.57603,,,,,,,,,,,,,,,
,,,,,,,,,,,,,,,,,,,,,,,,,,,,,,,,,,,,,,,,,,,,iron_13s.jpg,0.0,Red.png,1.0,110,,,,,,,,,,,,,0.0,1.0,0.0,2.0,2.0,2.0,1.0,0.6866,,,,,,,,,,,,,,,
,,,,,,,,,,,,,,,,,,,,,,,,,,,,,,,,,,,,,,,,,,,,icemaker_10s.jpg,0.0,Orange.png,1.0,110,,,,,,,,,,,,,0.0,1.0,0.0,3.0,3.0,3.0,1.0,0.59694,,,,,,,,,,,,,,,
,,,,,,,,,,,,,,,,,,,,,,,,,,,,,,,,,,,,,,,,,,,,teacup_07s.jpg,0.0,Yellow.png,1.0,110,,,,,,,,,,,,,0.0,1.0,0.0,4.0,4.0,4.0,1.0,0.76911,,,,,,,,,,,,,,,
,,,,,,,,,,,,,,,,,,,,,,,,,,,,,,,,,,,,,,,,,,,,iron_13s.jpg,0.0,Green.png,1.0,110,,,,,,,,,,,,,1.0,0.0,0.0,5.0,5.0,5.0,1.0,0.8207,,,,,,,,,,,,,,,
,,,,,,,,,,,,,,,,,,,,,,,,,,,,,,,,,,,,,,,,,,,,teacup_07s.jpg,1.0,Blue.png,2.0,110,,,,,,,,,,,,,1.0,1.0,0.0,6.0,6.0,6.0,1.0,1.008955,,,,,,,,,,,,,,,
,,,,,,,,,,,,,,,,,,,,,,,,,,,,,,,,,,,,,,,,,,,,iron_13s.jpg,1.0,Purple.png,2.0,110,,,,,,,,,,,,,0.0,0.0,0.0,7.0,7.0,7.0,1.0,1.482875,,,,,,,,,,,,,,,
,,,,,,,,,,,,,,,,,,,,,,,,,,,,,,,,,,,,,,,,,,,,teacup_07s.jpg,1.0,Red.png,2.0,110,,,,,,,,,,,,,1.0,1.0,0.0,8.0,8.0,8.0,1.0,2.06151,,,,,,,,,,,,,,,
,,,,,,,,,,,,,,,,,,,,,,,,,,,,,,,,,,,,,,,,,,,,pincushion_10s.jpg,0.0,Orange.png,2.0,110,,,,,,,,,,,,,0.0,1.0,0.0,9.0,9.0,9.0,1.0,0.79141,,,,,,,,,,,,,,,
,,,,,,,,,,,,,,,,,,,,,,,,,,,,,,,,,,,,,,,,,,,,teacup_07s.jpg,1.0,Yellow.png,2.0,110,,,,,,,,,,,,,1.0,1.0,0.0,10.0,10.0,10.0,1.0,0.995855,,,,,,,,,,,,,,,
,,,,,,,,,,,,,,,,,,,,,,,,,,,,,,,,,,,,,,,,,,,,lamb_04s.jpg,0.0,Green.png,2.0,110,,,,,,,,,,,,,0.0,1.0,0.0,11.0,11.0,11.0,1.0,1.91279,,,,,,,,,,,,,,,
,,,,,,,,,,,,,,,,,,,,,,,,,,,,,,,,,,,,,,,,,,,,blowfish_03s.jpg,0.0,Blue.png,3.0,110,,,,,,,,,,,,,0.0,1.0,0.0,12.0,12.0,12.0,1.0,0.803465,,,,,,,,,,,,,,,
,,,,,,,,,,,,,,,,,,,,,,,,,,,,,,,,,,,,,,,,,,,,gear_07s.jpg,0.0,Purple.png,3.0,110,,,,,,,,,,,,,0.0,1.0,0.0,13.0,13.0,13.0,1.0,0.66039,,,,,,,,,,,,,,,
,,,,,,,,,,,,,,,,,,,,,,,,,,,,,,,,,,,,,,,,,,,,rug_09s.jpg,0.0,Red.png,3.0,110,,,,,,,,,,,,,0.0,1.0,0.0,14.0,14.0,14.0,1.0,0.63993,,,,,,,,,,,,,,,
,,,,,,,,,,,,,,,,,,,,,,,,,,,,,,,,,,,,,,,,,,,,gear_07s.jpg,1.0,Orange.png,3.0,110,,,,,,,,,,,,,1.0,1.0,0.0,15.0,15.0,15.0,1.0,1.024665,,,,,,,,,,,,,,,
,,,,,,,,,,,,,,,,,,,,,,,,,,,,,,,,,,,,,,,,,,,,binder_21s.jpg,0.0,Yellow.png,3.0,110,,,,,,,,,,,,,0.0,1.0,0.0,16.0,16.0,16.0,1.0,1.230105,,,,,,,,,,,,,,,
,,,,,,,,,,,,,,,,,,,,,,,,,,,,,,,,,,,,,,,,,,,,bacon_05s.jpg,0.0,Green.png,3.0,110,,,,,,,,,,,,,0.0,1.0,0.0,17.0,17.0,17.0,1.0,0.82814,,,,,,,,,,,,,,,
,,,,,,,,,,,,,,,,,,,,,,,,,,,,,,,,,,,,,,,,,,,,rocking_horse_03s.jpg,0.0,Blue.png,4.0,110,,,,,,,,,,,,,0.0,1.0,0.0,18.0,18.0,18.0,1.0,0.9914,,,,,,,,,,,,,,,
,,,,,,,,,,,,,,,,,,,,,,,,,,,,,,,,,,,,,,,,,,,,bacon_05s.jpg,1.0,Purple.png,4.0,110,,,,,,,,,,,,,1.0,1.0,0.0,19.0,19.0,19.0,1.0,1.36961,,,,,,,,,,,,,,,
,,,,,,,,,,,,,,,,,,,,,,,,,,,,,,,,,,,,,,,,,,,,perfume_06s.jpg,0.0,Red.png,4.0,110,,,,,,,,,,,,,0.0,1.0,0.0,20.0,20.0,20.0,1.0,0.57941,,,,,,,,,,,,,,,
,,,,,,,,,,,,,,,,,,,,,,,,,,,,,,,,,,,,,,,,,,,,raccoon_02s.jpg,0.0,Orange.png,4.0,110,,,,,,,,,,,,,0.0,1.0,0.0,21.0,21.0,21.0,1.0,0.63627,,,,,,,,,,,,,,,
,,,,,,,,,,,,,,,,,,,,,,,,,,,,,,,,,,,,,,,,,,,,mixer_12s.jpg,0.0,Yellow.png,4.0,110,,,,,,,,,,,,,0.0,1.0,0.0,22.0,22.0,22.0,1.0,1.05525,,,,,,,,,,,,,,,
,,,,,,,,,,,,,,,,,,,,,,,,,,,,,,,,,,,,,,,,,,,,slingshot_07s.jpg,0.0,Green.png,4.0,110,,,,,,,,,,,,,0.0,1.0,0.0,23.0,23.0,23.0,1.0,0.585805,,,,,,,,,,,,,,,
,,,,,,,,,,,,,,,,,,,,,,,,,,,,,,,,,,,,,,,,,,,,smokingpipe.jpg,0.0,Blue.png,5.0,110,,,,,,,,,,,,,0.0,1.0,0.0,24.0,24.0,24.0,1.0,0.64492,,,,,,,,,,,,,,,
,,,,,,,,,,,,,,,,,,,,,,,,,,,,,,,,,,,,,,,,,,,,film_03s.jpg,0.0,Purple.png,5.0,110,,,,,,,,,,,,,0.0,1.0,0.0,25.0,25.0,25.0,1.0,0.93297,,,,,,,,,,,,,,,
,,,,,,,,,,,,,,,,,,,,,,,,,,,,,,,,,,,,,,,,,,,,film_03s.jpg,0.0,Red.png,5.0,110,,,,,,,,,,,,,1.0,0.0,0.0,26.0,26.0,26.0,1.0,1.13981,,,,,,,,,,,,,,,
,,,,,,,,,,,,,,,,,,,,,,,,,,,,,,,,,,,,,,,,,,,,film_03s.jpg,1.0,Orange.png,5.0,110,,,,,,,,,,,,,0.0,0.0,0.0,27.0,27.0,27.0,1.0,1.61663,,,,,,,,,,,,,,,
,,,,,,,,,,,,,,,,,,,,,,,,,,,,,,,,,,,,,,,,,,,,film_03s.jpg,1.0,Yellow.png,5.0,110,,,,,,,,,,,,,1.0,1.0,0.0,28.0,28.0,28.0,1.0,1.34897,,,,,,,,,,,,,,,
,,,,,,,,,,,,,,,,,,,,,,,,,,,,,,,,,,,,,,,,,,,,insole_11s.jpg,0.0,Green.png,5.0,110,,,,,,,,,,,,,0.0,1.0,0.0,29.0,29.0,29.0,1.0,0.72528,,,,,,,,,,,,,,,
,,,,,,,,,,,,,,,,,,,,,,,,,,,,,,,,,,,,,,,,,,,,soda_fountain_03s.jpg,0.0,Blue.png,6.0,110,,,,,,,,,,,,,0.0,1.0,0.0,30.0,30.0,30.0,1.0,2.025295,,,,,,,,,,,,,,,
,,,,,,,,,,,,,,,,,,,,,,,,,,,,,,,,,,,,,,,,,,,,soda_fountain_03s.jpg,0.0,Purple.png,6.0,110,,,,,,,,,,,,,0.0,1.0,0.0,31.0,31.0,31.0,1.0,1.793745,,,,,,,,,,,,,,,
,,,,,,,,,,,,,,,,,,,,,,,,,,,,,,,,,,,,,,,,,,,,coconut_08s.jpg,0.0,Red.png,6.0,110,,,,,,,,,,,,,0.0,1.0,0.0,32.0,32.0,32.0,1.0,1.2064,,,,,,,,,,,,,,,
,,,,,,,,,,,,,,,,,,,,,,,,,,,,,,,,,,,,,,,,,,,,hydrant_10s.jpg,0.0,Orange.png,6.0,110,,,,,,,,,,,,,0.0,1.0,0.0,33.0,33.0,33.0,1.0,0.778415,,,,,,,,,,,,,,,
,,,,,,,,,,,,,,,,,,,,,,,,,,,,,,,,,,,,,,,,,,,,hydrant_10s.jpg,0.0,Yellow.png,6.0,110,,,,,,,,,,,,,1.0,0.0,0.0,34.0,34.0,34.0,1.0,1.918845,,,,,,,,,,,,,,,
,,,,,,,,,,,,,,,,,,,,,,,,,,,,,,,,,,,,,,,,,,,,hydrant_10s.jpg,1.0,Green.png,6.0,110,,,,,,,,,,,,,1.0,1.0,0.0,35.0,35.0,35.0,1.0,1.55456,,,,,,,,,,,,,,,
,,,,,,,,,,,,,,,,,,,,,,,,,,,,,,,,,,,,,,,,,,,,,0.0,,,110,,,,,,,,,blowfish_03s.jpg,pincushion_10s.jpg,,,,,,,,,,,1.0,0.0,1.9136,0.0,0.0,0.0,0.0,1.0,,,,,,,
,,,,,,,,,,,,,,,,,,,,,,,,,,,,,,,,,,,,,,,,,,,,,0.0,,,110,,,,,,,,,rug_09s.jpg,lamb_04s.jpg,,,,,,,,,,,1.0,0.0,1.882565,0.0,1.0,1.0,1.0,1.0,,,,,,,
,,,,,,,,,,,,,,,,,,,,,,,,,,,,,,,,,,,,,,,,,,,,,1.0,,,110,,,,,,,,,insole_11s.jpg,coconut_08s.jpg,,,,,,,,,,,1.0,1.0,2.77566,0.0,2.0,2.0,2.0,1.0,,,,,,,
,,,,,,,,,,,,,,,,,,,,,,,,,,,,,,,,,,,,,,,,,,,,,0.0,,,110,,,,,,,,,icemaker_10s.jpg,towel_rack_04s.jpg,,,,,,,,,,,0.0,1.0,1.46566,0.0,3.0,3.0,3.0,1.0,,,,,,,
,,,,,,,,,,,,,,,,,,,,,,,,,,,,,,,,,,,,,,,,,,,,,0.0,,,110,,,,,,,,,slingshot_07s.jpg,perfume_06s.jpg,,,,,,,,,,,1.0,0.0,1.31697,0.0,4.0,4.0,4.0,1.0,,,,,,,
,,,,,,,,,,,,,,,,,,,,,,,,,,,,,,,,,,,,,,,,,,,,,0.0,,,110,,,,,,,,,raccoon_02s.jpg,rocking_horse_03s.jpg,,,,,,,,,,,0.0,1.0,1.972665,0.0,5.0,5.0,5.0,1.0,,,,,,,
,,,,,,,,,,,,,,,,,,,,,,,,,,,,,,,,,,,,,,,,,,,,,,,,110,,,,,,,,,,,,,,,,,,,,,,,,,,,,,0.0,3.0,3.0,3.0,1.0,new2backpresent_4_3.xlsx,new2back_compare_task_4_3.xlsx
,,,,,,,,,,,,,,,,,,,,,,,,,,,,,,,,,,,,,,,,,,,,birthday_cake_09s.jpg,0.0,Blue.png,1.0,110,,,,,,,,,,,,,1.0,0.0,0.0,0.0,0.0,0.0,1.0,1.018625,,,,,,,,,,,,,,,
,,,,,,,,,,,,,,,,,,,,,,,,,,,,,,,,,,,,,,,,,,,,laser_pointer_02s.jpg,0.0,Purple.png,1.0,110,,,,,,,,,,,,,0.0,1.0,0.0,1.0,1.0,1.0,1.0,0.710325,,,,,,,,,,,,,,,
,,,,,,,,,,,,,,,,,,,,,,,,,,,,,,,,,,,,,,,,,,,,amber_04s.jpg,0.0,Red.png,1.0,110,,,,,,,,,,,,,0.0,1.0,0.0,2.0,2.0,2.0,1.0,0.863905,,,,,,,,,,,,,,,
,,,,,,,,,,,,,,,,,,,,,,,,,,,,,,,,,,,,,,,,,,,,amber_04s.jpg,0.0,Orange.png,1.0,110,,,,,,,,,,,,,0.0,1.0,0.0,3.0,3.0,3.0,1.0,0.97562,,,,,,,,,,,,,,,
,,,,,,,,,,,,,,,,,,,,,,,,,,,,,,,,,,,,,,,,,,,,amber_04s.jpg,1.0,Yellow.png,1.0,110,,,,,,,,,,,,,1.0,1.0,0.0,4.0,4.0,4.0,1.0,0.95129,,,,,,,,,,,,,,,
,,,,,,,,,,,,,,,,,,,,,,,,,,,,,,,,,,,,,,,,,,,,amber_04s.jpg,1.0,Green.png,1.0,110,,,,,,,,,,,,,0.0,0.0,0.0,5.0,5.0,5.0,1.0,1.377825,,,,,,,,,,,,,,,
,,,,,,,,,,,,,,,,,,,,,,,,,,,,,,,,,,,,,,,,,,,,mask_09s.jpg,0.0,Blue.png,2.0,110,,,,,,,,,,,,,0.0,1.0,0.0,6.0,6.0,6.0,1.0,0.97541,,,,,,,,,,,,,,,
,,,,,,,,,,,,,,,,,,,,,,,,,,,,,,,,,,,,,,,,,,,,mask_09s.jpg,0.0,Purple.png,2.0,110,,,,,,,,,,,,,0.0,1.0,0.0,7.0,7.0,7.0,1.0,2.16187,,,,,,,,,,,,,,,
,,,,,,,,,,,,,,,,,,,,,,,,,,,,,,,,,,,,,,,,,,,,amber_04s.jpg,0.0,Red.png,2.0,110,,,,,,,,,,,,,1.0,0.0,0.0,8.0,8.0,8.0,1.0,0.96117,,,,,,,,,,,,,,,
,,,,,,,,,,,,,,,,,,,,,,,,,,,,,,,,,,,,,,,,,,,,swordfish_05s.jpg,0.0,Orange.png,2.0,110,,,,,,,,,,,,,0.0,1.0,0.0,9.0,9.0,9.0,1.0,1.243035,,,,,,,,,,,,,,,
,,,,,,,,,,,,,,,,,,,,,,,,,,,,,,,,,,,,,,,,,,,,beard_16s.jpg,0.0,Yellow.png,2.0,110,,,,,,,,,,,,,0.0,1.0,0.0,10.0,10.0,10.0,1.0,1.136625,,,,,,,,,,,,,,,
,,,,,,,,,,,,,,,,,,,,,,,,,,,,,,,,,,,,,,,,,,,,swordfish_05s.jpg,1.0,Green.png,2.0,110,,,,,,,,,,,,,0.0,0.0,0.0,11.0,11.0,11.0,1.0,1.641745,,,,,,,,,,,,,,,
,,,,,,,,,,,,,,,,,,,,,,,,,,,,,,,,,,,,,,,,,,,,amber_04s.jpg,0.0,Blue.png,3.0,110,,,,,,,,,,,,,0.0,1.0,0.0,12.0,12.0,12.0,1.0,1.17754,,,,,,,,,,,,,,,
,,,,,,,,,,,,,,,,,,,,,,,,,,,,,,,,,,,,,,,,,,,,rope_16s.jpg,0.0,Purple.png,3.0,110,,,,,,,,,,,,,0.0,1.0,0.0,13.0,13.0,13.0,1.0,1.78395,,,,,,,,,,,,,,,
,,,,,,,,,,,,,,,,,,,,,,,,,,,,,,,,,,,,,,,,,,,,swing_set_15s.jpg,0.0,Red.png,3.0,110,,,,,,,,,,,,,0.0,1.0,0.0,14.0,14.0,14.0,1.0,0.622995,,,,,,,,,,,,,,,
,,,,,,,,,,,,,,,,,,,,,,,,,,,,,,,,,,,,,,,,,,,,totem_pole_05s.jpg,0.0,Orange.png,3.0,110,,,,,,,,,,,,,0.0,1.0,0.0,15.0,15.0,15.0,1.0,0.72895,,,,,,,,,,,,,,,
,,,,,,,,,,,,,,,,,,,,,,,,,,,,,,,,,,,,,,,,,,,,beaker_01b.jpg,0.0,Yellow.png,3.0,110,,,,,,,,,,,,,0.0,1.0,0.0,16.0,16.0,16.0,1.0,0.65889,,,,,,,,,,,,,,,
,,,,,,,,,,,,,,,,,,,,,,,,,,,,,,,,,,,,,,,,,,,,ostrich_06s.jpg,0.0,Green.png,3.0,110,,,,,,,,,,,,,0.0,1.0,0.0,17.0,17.0,17.0,1.0,0.81927,,,,,,,,,,,,,,,
,,,,,,,,,,,,,,,,,,,,,,,,,,,,,,,,,,,,,,,,,,,,ostrich_06s.jpg,0.0,Blue.png,4.0,110,,,,,,,,,,,,,0.0,1.0,0.0,18.0,18.0,18.0,1.0,2.04265,,,,,,,,,,,,,,,
,,,,,,,,,,,,,,,,,,,,,,,,,,,,,,,,,,,,,,,,,,,,syringe_02s.jpg,0.0,Purple.png,4.0,110,,,,,,,,,,,,,0.0,1.0,0.0,19.0,19.0,19.0,1.0,0.958905,,,,,,,,,,,,,,,
,,,,,,,,,,,,,,,,,,,,,,,,,,,,,,,,,,,,,,,,,,,,mold2_04s.jpg,0.0,Red.png,4.0,110,,,,,,,,,,,,,0.0,1.0,0.0,20.0,20.0,20.0,1.0,0.65679,,,,,,,,,,,,,,,
,,,,,,,,,,,,,,,,,,,,,,,,,,,,,,,,,,,,,,,,,,,,ostrich_06s.jpg,0.0,Orange.png,4.0,110,,,,,,,,,,,,,1.0,0.0,0.0,21.0,21.0,21.0,1.0,0.849655,,,,,,,,,,,,,,,
,,,,,,,,,,,,,,,,,,,,,,,,,,,,,,,,,,,,,,,,,,,,mousetrap_15n.jpg,0.0,Yellow.png,4.0,110,,,,,,,,,,,,,0.0,1.0,0.0,22.0,22.0,22.0,1.0,0.85305,,,,,,,,,,,,,,,
,,,,,,,,,,,,,,,,,,,,,,,,,,,,,,,,,,,,,,,,,,,,paper_towel_03s.jpg,0.0,Green.png,4.0,110,,,,,,,,,,,,,0.0,1.0,0.0,23.0,23.0,23.0,1.0,0.956725,,,,,,,,,,,,,,,
,,,,,,,,,,,,,,,,,,,,,,,,,,,,,,,,,,,,,,,,,,,,swordfish_05s.jpg,0.0,Blue.png,5.0,110,,,,,,,,,,,,,1.0,0.0,0.0,24.0,24.0,24.0,1.0,1.174425,,,,,,,,,,,,,,,
,,,,,,,,,,,,,,,,,,,,,,,,,,,,,,,,,,,,,,,,,,,,pump_11s.jpg,0.0,Purple.png,5.0,110,,,,,,,,,,,,,0.0,1.0,0.0,25.0,25.0,25.0,1.0,0.78442,,,,,,,,,,,,,,,
,,,,,,,,,,,,,,,,,,,,,,,,,,,,,,,,,,,,,,,,,,,,swordfish_05s.jpg,1.0,Red.png,5.0,110,,,,,,,,,,,,,1.0,1.0,0.0,26.0,26.0,26.0,1.0,1.460055,,,,,,,,,,,,,,,
,,,,,,,,,,,,,,,,,,,,,,,,,,,,,,,,,,,,,,,,,,,,swordfish_05s.jpg,0.0,Orange.png,5.0,110,,,,,,,,,,,,,1.0,0.0,0.0,27.0,27.0,27.0,1.0,1.24534,,,,,,,,,,,,,,,
,,,,,,,,,,,,,,,,,,,,,,,,,,,,,,,,,,,,,,,,,,,,pump_11s.jpg,0.0,Yellow.png,5.0,110,,,,,,,,,,,,,1.0,0.0,0.0,28.0,28.0,28.0,1.0,0.89128,,,,,,,,,,,,,,,
,,,,,,,,,,,,,,,,,,,,,,,,,,,,,,,,,,,,,,,,,,,,pepper2_21s.jpg,0.0,Green.png,5.0,110,,,,,,,,,,,,,0.0,1.0,0.0,29.0,29.0,29.0,1.0,0.67009,,,,,,,,,,,,,,,
,,,,,,,,,,,,,,,,,,,,,,,,,,,,,,,,,,,,,,,,,,,,champagne_18s.jpg,0.0,Blue.png,6.0,110,,,,,,,,,,,,,0.0,1.0,0.0,30.0,30.0,30.0,1.0,0.699315,,,,,,,,,,,,,,,
,,,,,,,,,,,,,,,,,,,,,,,,,,,,,,,,,,,,,,,,,,,,piggy_bank_02s.jpg,0.0,Purple.png,6.0,110,,,,,,,,,,,,,0.0,1.0,0.0,31.0,31.0,31.0,1.0,0.58096,,,,,,,,,,,,,,,
,,,,,,,,,,,,,,,,,,,,,,,,,,,,,,,,,,,,,,,,,,,,fondue_07s.jpg,0.0,Red.png,6.0,110,,,,,,,,,,,,,0.0,1.0,0.0,32.0,32.0,32.0,1.0,0.584445,,,,,,,,,,,,,,,
,,,,,,,,,,,,,,,,,,,,,,,,,,,,,,,,,,,,,,,,,,,,metronome_03s.jpg,0.0,Orange.png,6.0,110,,,,,,,,,,,,,0.0,1.0,0.0,33.0,33.0,33.0,1.0,0.641515,,,,,,,,,,,,,,,
,,,,,,,,,,,,,,,,,,,,,,,,,,,,,,,,,,,,,,,,,,,,butter_14s.jpg,0.0,Yellow.png,6.0,110,,,,,,,,,,,,,0.0,1.0,0.0,34.0,34.0,34.0,1.0,0.560635,,,,,,,,,,,,,,,
,,,,,,,,,,,,,,,,,,,,,,,,,,,,,,,,,,,,,,,,,,,,submarine_11n.jpg,0.0,Green.png,6.0,110,,,,,,,,,,,,,0.0,1.0,0.0,35.0,35.0,35.0,1.0,0.767535,,,,,,,,,,,,,,,
,,,,,,,,,,,,,,,,,,,,,,,,,,,,,,,,,,,,,,,,,,,,,1.0,,,110,,,,,,,,,beard_16s.jpg,rope_16s.jpg,,,,,,,,,,,1.0,1.0,2.084465,0.0,0.0,0.0,0.0,1.0,,,,,,,
,,,,,,,,,,,,,,,,,,,,,,,,,,,,,,,,,,,,,,,,,,,,,0.0,,,110,,,,,,,,,fondue_07s.jpg,pepper2_21s.jpg,,,,,,,,,,,0.0,1.0,2.03519,0.0,1.0,1.0,1.0,1.0,,,,,,,
,,,,,,,,,,,,,,,,,,,,,,,,,,,,,,,,,,,,,,,,,,,,,1.0,,,110,,,,,,,,,beaker_01b.jpg,syringe_02s.jpg,,,,,,,,,,,1.0,1.0,2.222815,0.0,2.0,2.0,2.0,1.0,,,,,,,
,,,,,,,,,,,,,,,,,,,,,,,,,,,,,,,,,,,,,,,,,,,,,1.0,,,110,,,,,,,,,mold2_04s.jpg,paper_towel_03s.jpg,,,,,,,,,,,1.0,1.0,0.96601,0.0,3.0,3.0,3.0,1.0,,,,,,,
,,,,,,,,,,,,,,,,,,,,,,,,,,,,,,,,,,,,,,,,,,,,,0.0,,,110,,,,,,,,,metronome_03s.jpg,champagne_18s.jpg,,,,,,,,,,,1.0,0.0,1.59207,0.0,4.0,4.0,4.0,1.0,,,,,,,
,,,,,,,,,,,,,,,,,,,,,,,,,,,,,,,,,,,,,,,,,,,,,0.0,,,110,,,,,,,,,butter_14s.jpg,piggy_bank_02s.jpg,,,,,,,,,,,1.0,0.0,2.166105,0.0,5.0,5.0,5.0,1.0,,,,,,,
,,,,,,,,,,,,,,,,,,,,,,,,,,,,,,,,,,,,,,,,,,,,,,,,110,,,,,,,,,,,,,,,,,,,,,,,,,,,,,0.0,4.0,4.0,4.0,1.0,new2backpresent_5_3.xlsx,new2back_compare_task_5_3.xlsx
,,,,,,,,,,,,,,,,,,,,,,,,,,,,,,,,,,,,,,,,,,,,teabag_12s.jpg,0.0,Blue.png,1.0,110,,,,,,,,,,,,,0.0,1.0,0.0,0.0,0.0,0.0,1.0,2.03725,,,,,,,,,,,,,,,
,,,,,,,,,,,,,,,,,,,,,,,,,,,,,,,,,,,,,,,,,,,,teabag_12s.jpg,0.0,Purple.png,1.0,110,,,,,,,,,,,,,0.0,1.0,0.0,1.0,1.0,1.0,1.0,1.067835,,,,,,,,,,,,,,,
,,,,,,,,,,,,,,,,,,,,,,,,,,,,,,,,,,,,,,,,,,,,cereal_04s.jpg,0.0,Red.png,1.0,110,,,,,,,,,,,,,0.0,1.0,0.0,2.0,2.0,2.0,1.0,0.708035,,,,,,,,,,,,,,,
,,,,,,,,,,,,,,,,,,,,,,,,,,,,,,,,,,,,,,,,,,,,pocket_watch_16s.jpg,0.0,Orange.png,1.0,110,,,,,,,,,,,,,0.0,1.0,0.0,3.0,3.0,3.0,1.0,0.61621,,,,,,,,,,,,,,,
,,,,,,,,,,,,,,,,,,,,,,,,,,,,,,,,,,,,,,,,,,,,cucumber_07s.jpg,0.0,Yellow.png,1.0,110,,,,,,,,,,,,,0.0,1.0,0.0,4.0,4.0,4.0,1.0,0.598695,,,,,,,,,,,,,,,
,,,,,,,,,,,,,,,,,,,,,,,,,,,,,,,,,,,,,,,,,,,,teabag_12s.jpg,0.0,Green.png,1.0,110,,,,,,,,,,,,,1.0,0.0,0.0,5.0,5.0,5.0,1.0,2.453365,,,,,,,,,,,,,,,
,,,,,,,,,,,,,,,,,,,,,,,,,,,,,,,,,,,,,,,,,,,,recliner_02s.jpg,0.0,Blue.png,2.0,110,,,,,,,,,,,,,0.0,1.0,0.0,6.0,6.0,6.0,1.0,0.75904,,,,,,,,,,,,,,,
,,,,,,,,,,,,,,,,,,,,,,,,,,,,,,,,,,,,,,,,,,,,tupperware_09s.jpg,0.0,Purple.png,2.0,110,,,,,,,,,,,,,0.0,1.0,0.0,7.0,7.0,7.0,1.0,0.772505,,,,,,,,,,,,,,,
,,,,,,,,,,,,,,,,,,,,,,,,,,,,,,,,,,,,,,,,,,,,ticktacktoe_08s.jpg,0.0,Red.png,2.0,110,,,,,,,,,,,,,0.0,1.0,0.0,8.0,8.0,8.0,1.0,0.78727,,,,,,,,,,,,,,,
,,,,,,,,,,,,,,,,,,,,,,,,,,,,,,,,,,,,,,,,,,,,peach_04s.jpg,0.0,Orange.png,2.0,110,,,,,,,,,,,,,0.0,1.0,0.0,9.0,9.0,9.0,1.0,0.614225,,,,,,,,,,,,,,,
,,,,,,,,,,,,,,,,,,,,,,,,,,,,,,,,,,,,,,,,,,,,taxi_15s.jpg,0.0,Yellow.png,2.0,110,,,,,,,,,,,,,0.0,1.0,0.0,10.0,10.0,10.0,1.0,0.60549,,,,,,,,,,,,,,,
,,,,,,,,,,,,,,,,,,,,,,,,,,,,,,,,,,,,,,,,,,,,peach_04s.jpg,1.0,Green.png,2.0,110,,,,,,,,,,,,,0.0,0.0,0.0,11.0,11.0,11.0,1.0,1.989485,,,,,,,,,,,,,,,
,,,,,,,,,,,,,,,,,,,,,,,,,,,,,,,,,,,,,,,,,,,,letter_opener_03s.jpg,0.0,Blue.png,3.0,110,,,,,,,,,,,,,0.0,1.0,0.0,12.0,12.0,12.0,1.0,0.65503,,,,,,,,,,,,,,,
,,,,,,,,,,,,,,,,,,,,,,,,,,,,,,,,,,,,,,,,,,,,letter_opener_03s.jpg,0.0,Purple.png,3.0,110,,,,,,,,,,,,,0.0,1.0,0.0,13.0,13.0,13.0,1.0,1.39689,,,,,,,,,,,,,,,
,,,,,,,,,,,,,,,,,,,,,,,,,,,,,,,,,,,,,,,,,,,,letter_opener_03s.jpg,1.0,Red.png,3.0,110,,,,,,,,,,,,,1.0,1.0,0.0,14.0,14.0,14.0,1.0,1.551175,,,,,,,,,,,,,,,
,,,,,,,,,,,,,,,,,,,,,,,,,,,,,,,,,,,,,,,,,,,,latte_06s.jpg,0.0,Orange.png,3.0,110,,,,,,,,,,,,,0.0,1.0,0.0,15.0,15.0,15.0,1.0,1.405025,,,,,,,,,,,,,,,
,,,,,,,,,,,,,,,,,,,,,,,,,,,,,,,,,,,,,,,,,,,,letter_opener_03s.jpg,1.0,Yellow.png,3.0,110,,,,,,,,,,,,,1.0,1.0,0.0,16.0,16.0,16.0,1.0,0.84373,,,,,,,,,,,,,,,
,,,,,,,,,,,,,,,,,,,,,,,,,,,,,,,,,,,,,,,,,,,,icicle_04s.jpg,0.0,Green.png,3.0,110,,,,,,,,,,,,,0.0,1.0,0.0,17.0,17.0,17.0,1.0,1.05134,,,,,,,,,,,,,,,
,,,,,,,,,,,,,,,,,,,,,,,,,,,,,,,,,,,,,,,,,,,,taxi_15s.jpg,0.0,Blue.png,4.0,110,,,,,,,,,,,,,0.0,1.0,0.0,18.0,18.0,18.0,1.0,0.828115,,,,,,,,,,,,,,,
,,,,,,,,,,,,,,,,,,,,,,,,,,,,,,,,,,,,,,,,,,,,chopsticks_08s.jpg,0.0,Purple.png,4.0,110,,,,,,,,,,,,,0.0,1.0,0.0,19.0,19.0,19.0,1.0,1.55877,,,,,,,,,,,,,,,
,,,,,,,,,,,,,,,,,,,,,,,,,,,,,,,,,,,,,,,,,,,,doily_13s.jpg,0.0,Red.png,4.0,110,,,,,,,,,,,,,0.0,1.0,0.0,20.0,20.0,20.0,1.0,0.833295,,,,,,,,,,,,,,,
,,,,,,,,,,,,,,,,,,,,,,,,,,,,,,,,,,,,,,,,,,,,pretzel_09s.jpg,0.0,Orange.png,4.0,110,,,,,,,,,,,,,0.0,1.0,0.0,21.0,21.0,21.0,1.0,1.292515,,,,,,,,,,,,,,,
,,,,,,,,,,,,,,,,,,,,,,,,,,,,,,,,,,,,,,,,,,,,tie_03s.jpg,0.0,Yellow.png,4.0,110,,,,,,,,,,,,,0.0,1.0,0.0,22.0,22.0,22.0,1.0,1.359495,,,,,,,,,,,,,,,
,,,,,,,,,,,,,,,,,,,,,,,,,,,,,,,,,,,,,,,,,,,,pepper_mill_03s.jpg,0.0,Green.png,4.0,110,,,,,,,,,,,,,0.0,1.0,0.0,23.0,23.0,23.0,1.0,0.728815,,,,,,,,,,,,,,,
,,,,,,,,,,,,,,,,,,,,,,,,,,,,,,,,,,,,,,,,,,,,bee_20s.jpg,0.0,Blue.png,5.0,110,,,,,,,,,,,,,0.0,1.0,0.0,24.0,24.0,24.0,1.0,0.509135,,,,,,,,,,,,,,,
,,,,,,,,,,,,,,,,,,,,,,,,,,,,,,,,,,,,,,,,,,,,pepper_mill_03s.jpg,1.0,Purple.png,5.0,110,,,,,,,,,,,,,1.0,1.0,0.0,25.0,25.0,25.0,1.0,1.342885,,,,,,,,,,,,,,,
,,,,,,,,,,,,,,,,,,,,,,,,,,,,,,,,,,,,,,,,,,,,bee_20s.jpg,1.0,Red.png,5.0,110,,,,,,,,,,,,,1.0,1.0,0.0,26.0,26.0,26.0,1.0,0.915375,,,,,,,,,,,,,,,
,,,,,,,,,,,,,,,,,,,,,,,,,,,,,,,,,,,,,,,,,,,,tinsel_12s.jpg,0.0,Orange.png,5.0,110,,,,,,,,,,,,,0.0,1.0,0.0,27.0,27.0,27.0,1.0,0.8733,,,,,,,,,,,,,,,
,,,,,,,,,,,,,,,,,,,,,,,,,,,,,,,,,,,,,,,,,,,,fireworks_18s.jpg,0.0,Yellow.png,5.0,110,,,,,,,,,,,,,0.0,1.0,0.0,28.0,28.0,28.0,1.0,1.087705,,,,,,,,,,,,,,,
,,,,,,,,,,,,,,,,,,,,,,,,,,,,,,,,,,,,,,,,,,,,key_07s.jpg,0.0,Green.png,5.0,110,,,,,,,,,,,,,,0.0,0.0,29.0,29.0,29.0,1.0,,,,,,,,,,,,,,,,
,,,,,,,,,,,,,,,,,,,,,,,,,,,,,,,,,,,,,,,,,,,,frog_09s.jpg,0.0,Blue.png,6.0,110,,,,,,,,,,,,,0.0,1.0,0.0,30.0,30.0,30.0,1.0,1.06826,,,,,,,,,,,,,,,
,,,,,,,,,,,,,,,,,,,,,,,,,,,,,,,,,,,,,,,,,,,,key_07s.jpg,1.0,Purple.png,6.0,110,,,,,,,,,,,,,1.0,1.0,0.0,31.0,31.0,31.0,1.0,0.825865,,,,,,,,,,,,,,,
,,,,,,,,,,,,,,,,,,,,,,,,,,,,,,,,,,,,,,,,,,,,rolling_pin_02s.jpg,0.0,Red.png,6.0,110,,,,,,,,,,,,,0.0,1.0,0.0,32.0,32.0,32.0,1.0,1.341265,,,,,,,,,,,,,,,
,,,,,,,,,,,,,,,,,,,,,,,,,,,,,,,,,,,,,,,,,,,,coral_08s.jpg,0.0,Orange.png,6.0,110,,,,,,,,,,,,,0.0,1.0,0.0,33.0,33.0,33.0,1.0,0.776315,,,,,,,,,,,,,,,
,,,,,,,,,,,,,,,,,,,,,,,,,,,,,,,,,,,,,,,,,,,,key_07s.jpg,0.0,Yellow.png,6.0,110,,,,,,,,,,,,,1.0,0.0,0.0,34.0,34.0,34.0,1.0,0.91103,,,,,,,,,,,,,,,
,,,,,,,,,,,,,,,,,,,,,,,,,,,,,,,,,,,,,,,,,,,,margarita_03s.jpg,0.0,Green.png,6.0,110,,,,,,,,,,,,,0.0,1.0,0.0,35.0,35.0,35.0,1.0,1.06362,,,,,,,,,,,,,,,
,,,,,,,,,,,,,,,,,,,,,,,,,,,,,,,,,,,,,,,,,,,,,0.0,,,110,,,,,,,,,recliner_02s.jpg,pocket_watch_16s.jpg,,,,,,,,,,,1.0,0.0,1.734315,0.0,0.0,0.0,0.0,1.0,,,,,,,
,,,,,,,,,,,,,,,,,,,,,,,,,,,,,,,,,,,,,,,,,,,,,1.0,,,110,,,,,,,,,cucumber_07s.jpg,tupperware_09s.jpg,,,,,,,,,,,1.0,1.0,1.53789,0.0,1.0,1.0,1.0,1.0,,,,,,,
,,,,,,,,,,,,,,,,,,,,,,,,,,,,,,,,,,,,,,,,,,,,,1.0,,,110,,,,,,,,,icicle_04s.jpg,doily_13s.jpg,,,,,,,,,,,1.0,1.0,1.264655,0.0,2.0,2.0,2.0,1.0,,,,,,,
,,,,,,,,,,,,,,,,,,,,,,,,,,,,,,,,,,,,,,,,,,,,,0.0,,,110,,,,,,,,,tie_03s.jpg,chopsticks_08s.jpg,,,,,,,,,,,1.0,0.0,1.718025,0.0,3.0,3.0,3.0,1.0,,,,,,,
,,,,,,,,,,,,,,,,,,,,,,,,,,,,,,,,,,,,,,,,,,,,,1.0,,,110,,,,,,,,,rolling_pin_02s.jpg,margarita_03s.jpg,,,,,,,,,,,0.0,0.0,2.140675,0.0,4.0,4.0,4.0,1.0,,,,,,,
,,,,,,,,,,,,,,,,,,,,,,,,,,,,,,,,,,,,,,,,,,,,,0.0,,,110,,,,,,,,,coral_08s.jpg,frog_09s.jpg,,,,,,,,,,,1.0,0.0,1.590325,0.0,5.0,5.0,5.0,1.0,,,,,,,
,,,,,,,,,,,,,,,,,,,,,,,,,,,,,,,,,,,,,,,,,,,,,,,,110,,,,,,,,,,,,,,,,,,,,,,,,,,,,,0.0,5.0,5.0,5.0,1.0,new2backpresent_6_3.xlsx,new2back_compare_task_6_3.xlsx
,,,,,,,,,,,,,,,,,,,,,,,,,,,,,,,,,,,,,,,,,,,,polar_bear_02s.jpg,0.0,Blue.png,1.0,110,,,,,,,,,,,,,0.0,1.0,0.0,0.0,0.0,0.0,1.0,1.335375,,,,,,,,,,,,,,,
,,,,,,,,,,,,,,,,,,,,,,,,,,,,,,,,,,,,,,,,,,,,screwdriver02a.jpg,0.0,Purple.png,1.0,110,,,,,,,,,,,,,0.0,1.0,0.0,1.0,1.0,1.0,1.0,0.88692,,,,,,,,,,,,,,,
,,,,,,,,,,,,,,,,,,,,,,,,,,,,,,,,,,,,,,,,,,,,screwdriver02a.jpg,0.0,Red.png,1.0,110,,,,,,,,,,,,,0.0,1.0,0.0,2.0,2.0,2.0,1.0,0.93345,,,,,,,,,,,,,,,
,,,,,,,,,,,,,,,,,,,,,,,,,,,,,,,,,,,,,,,,,,,,phone_01b.jpg,0.0,Orange.png,1.0,110,,,,,,,,,,,,,0.0,1.0,0.0,3.0,3.0,3.0,1.0,0.626485,,,,,,,,,,,,,,,
,,,,,,,,,,,,,,,,,,,,,,,,,,,,,,,,,,,,,,,,,,,,eyedropper_12s.jpg,0.0,Yellow.png,1.0,110,,,,,,,,,,,,,0.0,1.0,0.0,4.0,4.0,4.0,1.0,0.699065,,,,,,,,,,,,,,,
,,,,,,,,,,,,,,,,,,,,,,,,,,,,,,,,,,,,,,,,,,,,mailbox_11s.jpg,0.0,Green.png,1.0,110,,,,,,,,,,,,,0.0,1.0,0.0,5.0,5.0,5.0,1.0,0.582625,,,,,,,,,,,,,,,
,,,,,,,,,,,,,,,,,,,,,,,,,,,,,,,,,,,,,,,,,,,,mascara_03s.jpg,0.0,Blue.png,2.0,110,,,,,,,,,,,,,0.0,1.0,0.0,6.0,6.0,6.0,1.0,0.842355,,,,,,,,,,,,,,,
,,,,,,,,,,,,,,,,,,,,,,,,,,,,,,,,,,,,,,,,,,,,mailbox_11s.jpg,1.0,Purple.png,2.0,110,,,,,,,,,,,,,0.0,0.0,0.0,7.0,7.0,7.0,1.0,1.166725,,,,,,,,,,,,,,,
,,,,,,,,,,,,,,,,,,,,,,,,,,,,,,,,,,,,,,,,,,,,eiffeltower.jpg,0.0,Red.png,2.0,110,,,,,,,,,,,,,0.0,1.0,0.0,8.0,8.0,8.0,1.0,0.61495,,,,,,,,,,,,,,,
,,,,,,,,,,,,,,,,,,,,,,,,,,,,,,,,,,,,,,,,,,,,bagel_15s.jpg,0.0,Orange.png,2.0,110,,,,,,,,,,,,,0.0,1.0,0.0,9.0,9.0,9.0,1.0,0.848175,,,,,,,,,,,,,,,
,,,,,,,,,,,,,,,,,,,,,,,,,,,,,,,,,,,,,,,,,,,,thumbtack_14s.jpg,0.0,Yellow.png,2.0,110,,,,,,,,,,,,,1.0,0.0,0.0,10.0,10.0,10.0,1.0,0.63245,,,,,,,,,,,,,,,
,,,,,,,,,,,,,,,,,,,,,,,,,,,,,,,,,,,,,,,,,,,,checkbook_11s.jpg,0.0,Green.png,2.0,110,,,,,,,,,,,,,0.0,1.0,0.0,11.0,11.0,11.0,1.0,0.9079,,,,,,,,,,,,,,,
,,,,,,,,,,,,,,,,,,,,,,,,,,,,,,,,,,,,,,,,,,,,phone_01b.jpg,0.0,Blue.png,3.0,110,,,,,,,,,,,,,0.0,1.0,0.0,12.0,12.0,12.0,1.0,1.620975,,,,,,,,,,,,,,,
,,,,,,,,,,,,,,,,,,,,,,,,,,,,,,,,,,,,,,,,,,,,crossbow_10s.jpg,0.0,Purple.png,3.0,110,,,,,,,,,,,,,0.0,1.0,0.0,13.0,13.0,13.0,1.0,0.973995,,,,,,,,,,,,,,,
,,,,,,,,,,,,,,,,,,,,,,,,,,,,,,,,,,,,,,,,,,,,fire_pit_10s.jpg,0.0,Red.png,3.0,110,,,,,,,,,,,,,0.0,1.0,0.0,14.0,14.0,14.0,1.0,0.749295,,,,,,,,,,,,,,,
,,,,,,,,,,,,,,,,,,,,,,,,,,,,,,,,,,,,,,,,,,,,phone_01b.jpg,0.0,Orange.png,3.0,110,,,,,,,,,,,,,1.0,0.0,0.0,15.0,15.0,15.0,1.0,1.374025,,,,,,,,,,,,,,,
,,,,,,,,,,,,,,,,,,,,,,,,,,,,,,,,,,,,,,,,,,,,basket_05s.jpg,0.0,Yellow.png,3.0,110,,,,,,,,,,,,,0.0,1.0,0.0,16.0,16.0,16.0,1.0,1.401715,,,,,,,,,,,,,,,
,,,,,,,,,,,,,,,,,,,,,,,,,,,,,,,,,,,,,,,,,,,,tablet_04s.jpg,0.0,Green.png,3.0,110,,,,,,,,,,,,,0.0,1.0,0.0,17.0,17.0,17.0,1.0,0.77357,,,,,,,,,,,,,,,
,,,,,,,,,,,,,,,,,,,,,,,,,,,,,,,,,,,,,,,,,,,,eyedropper_12s.jpg,0.0,Blue.png,4.0,110,,,,,,,,,,,,,1.0,0.0,0.0,18.0,18.0,18.0,1.0,2.007835,,,,,,,,,,,,,,,
,,,,,,,,,,,,,,,,,,,,,,,,,,,,,,,,,,,,,,,,,,,,milk_02s.jpg,0.0,Purple.png,4.0,110,,,,,,,,,,,,,0.0,1.0,0.0,19.0,19.0,19.0,1.0,1.3096,,,,,,,,,,,,,,,
,,,,,,,,,,,,,,,,,,,,,,,,,,,,,,,,,,,,,,,,,,,,pomegranate_04s.jpg,0.0,Red.png,4.0,110,,,,,,,,,,,,,0.0,1.0,0.0,20.0,20.0,20.0,1.0,0.79756,,,,,,,,,,,,,,,
,,,,,,,,,,,,,,,,,,,,,,,,,,,,,,,,,,,,,,,,,,,,mug_06s.jpg,0.0,Orange.png,4.0,110,,,,,,,,,,,,,0.0,1.0,0.0,21.0,21.0,21.0,1.0,0.813475,,,,,,,,,,,,,,,
,,,,,,,,,,,,,,,,,,,,,,,,,,,,,,,,,,,,,,,,,,,,eyedropper_12s.jpg,0.0,Yellow.png,4.0,110,,,,,,,,,,,,,1.0,0.0,0.0,22.0,22.0,22.0,1.0,1.12342,,,,,,,,,,,,,,,
,,,,,,,,,,,,,,,,,,,,,,,,,,,,,,,,,,,,,,,,,,,,laundry_basket_11s.jpg,0.0,Green.png,4.0,110,,,,,,,,,,,,,0.0,1.0,0.0,23.0,23.0,23.0,1.0,0.99826,,,,,,,,,,,,,,,
,,,,,,,,,,,,,,,,,,,,,,,,,,,,,,,,,,,,,,,,,,,,eyedropper_12s.jpg,1.0,Blue.png,5.0,110,,,,,,,,,,,,,1.0,1.0,0.0,24.0,24.0,24.0,1.0,1.224315,,,,,,,,,,,,,,,
,,,,,,,,,,,,,,,,,,,,,,,,,,,,,,,,,,,,,,,,,,,,laundry_basket_11s.jpg,1.0,Purple.png,5.0,110,,,,,,,,,,,,,1.0,1.0,0.0,25.0,25.0,25.0,1.0,1.12054,,,,,,,,,,,,,,,
,,,,,,,,,,,,,,,,,,,,,,,,,,,,,,,,,,,,,,,,,,,,magnet_03s.jpg,0.0,Red.png,5.0,110,,,,,,,,,,,,,0.0,1.0,0.0,26.0,26.0,26.0,1.0,0.850715,,,,,,,,,,,,,,,
,,,,,,,,,,,,,,,,,,,,,,,,,,,,,,,,,,,,,,,,,,,,laundry_basket_11s.jpg,1.0,Orange.png,5.0,110,,,,,,,,,,,,,1.0,1.0,0.0,27.0,27.0,27.0,1.0,1.830285,,,,,,,,,,,,,,,
,,,,,,,,,,,,,,,,,,,,,,,,,,,,,,,,,,,,,,,,,,,,laundry_basket_11s.jpg,0.0,Yellow.png,5.0,110,,,,,,,,,,,,,0.0,1.0,0.0,28.0,28.0,28.0,1.0,1.641345,,,,,,,,,,,,,,,
,,,,,,,,,,,,,,,,,,,,,,,,,,,,,,,,,,,,,,,,,,,,tambourine_06s.jpg,0.0,Green.png,5.0,110,,,,,,,,,,,,,0.0,1.0,0.0,29.0,29.0,29.0,1.0,1.062965,,,,,,,,,,,,,,,
,,,,,,,,,,,,,,,,,,,,,,,,,,,,,,,,,,,,,,,,,,,,lab_coat_11s.jpg,0.0,Blue.png,6.0,110,,,,,,,,,,,,,0.0,1.0,0.0,30.0,30.0,30.0,1.0,1.00908,,,,,,,,,,,,,,,
,,,,,,,,,,,,,,,,,,,,,,,,,,,,,,,,,,,,,,,,,,,,lab_coat_11s.jpg,0.0,Purple.png,6.0,110,,,,,,,,,,,,,1.0,0.0,0.0,31.0,31.0,31.0,1.0,1.09494,,,,,,,,,,,,,,,
,,,,,,,,,,,,,,,,,,,,,,,,,,,,,,,,,,,,,,,,,,,,lab_coat_11s.jpg,1.0,Red.png,6.0,110,,,,,,,,,,,,,0.0,0.0,0.0,32.0,32.0,32.0,1.0,1.646205,,,,,,,,,,,,,,,
,,,,,,,,,,,,,,,,,,,,,,,,,,,,,,,,,,,,,,,,,,,,lab_coat_11s.jpg,1.0,Orange.png,6.0,110,,,,,,,,,,,,,0.0,0.0,0.0,33.0,33.0,33.0,1.0,1.605915,,,,,,,,,,,,,,,
,,,,,,,,,,,,,,,,,,,,,,,,,,,,,,,,,,,,,,,,,,,,cap_05s.jpg,0.0,Yellow.png,6.0,110,,,,,,,,,,,,,0.0,1.0,0.0,34.0,34.0,34.0,1.0,0.75661,,,,,,,,,,,,,,,
,,,,,,,,,,,,,,,,,,,,,,,,,,,,,,,,,,,,,,,,,,,,puck_06s.jpg,0.0,Green.png,6.0,110,,,,,,,,,,,,,0.0,1.0,0.0,35.0,35.0,35.0,1.0,1.110655,,,,,,,,,,,,,,,
,,,,,,,,,,,,,,,,,,,,,,,,,,,,,,,,,,,,,,,,,,,,,1.0,,,110,,,,,,,,,thumbtack_14s.jpg,crossbow_10s.jpg,,,,,,,,,,,0.0,0.0,1.836035,0.0,0.0,0.0,0.0,1.0,,,,,,,
,,,,,,,,,,,,,,,,,,,,,,,,,,,,,,,,,,,,,,,,,,,,,0.0,,,110,,,,,,,,,milk_02s.jpg,basket_05s.jpg,,,,,,,,,,,1.0,0.0,1.506925,0.0,1.0,1.0,1.0,1.0,,,,,,,
,,,,,,,,,,,,,,,,,,,,,,,,,,,,,,,,,,,,,,,,,,,,,1.0,,,110,,,,,,,,,tablet_04s.jpg,pomegranate_04s.jpg,,,,,,,,,,,1.0,1.0,1.32519,0.0,2.0,2.0,2.0,1.0,,,,,,,
,,,,,,,,,,,,,,,,,,,,,,,,,,,,,,,,,,,,,,,,,,,,,1.0,,,110,,,,,,,,,mascara_03s.jpg,bagel_15s.jpg,,,,,,,,,,,0.0,0.0,2.33319,0.0,3.0,3.0,3.0,1.0,,,,,,,
,,,,,,,,,,,,,,,,,,,,,,,,,,,,,,,,,,,,,,,,,,,,,0.0,,,110,,,,,,,,,tambourine_06s.jpg,magnet_03s.jpg,,,,,,,,,,,1.0,0.0,1.312995,0.0,4.0,4.0,4.0,1.0,,,,,,,
,,,,,,,,,,,,,,,,,,,,,,,,,,,,,,,,,,,,,,,,,,,,,0.0,,,110,,,,,,,,,checkbook_11s.jpg,eiffeltower.jpg,,,,,,,,,,,1.0,0.0,0.869495,0.0,5.0,5.0,5.0,1.0,,,,,,,
,,,,,,,,,,,,,,,,,,,,,,,,,,,,,,,,,,,,,,,,,,,,,,,,110,,,,,,,,,,,,,,,,,,,,,,,,,,,,,0.0,6.0,6.0,6.0,1.0,new2backpresent_7_3.xlsx,new2back_compare_task_7_3.xlsx
,,,,,,,,,,,,,,,,,,,,,,,,,,,,,,,,,,,,,,,,,,,,projector_08s.jpg,0.0,Blue.png,1.0,110,,,,,,,,,,,,,0.0,1.0,0.0,0.0,0.0,0.0,1.0,1.60902,,,,,,,,,,,,,,,
,,,,,,,,,,,,,,,,,,,,,,,,,,,,,,,,,,,,,,,,,,,,projector_08s.jpg,0.0,Purple.png,1.0,110,,,,,,,,,,,,,0.0,1.0,0.0,1.0,1.0,1.0,1.0,0.93146,,,,,,,,,,,,,,,
,,,,,,,,,,,,,,,,,,,,,,,,,,,,,,,,,,,,,,,,,,,,projector_08s.jpg,1.0,Red.png,1.0,110,,,,,,,,,,,,,1.0,1.0,0.0,2.0,2.0,2.0,1.0,1.55971,,,,,,,,,,,,,,,
,,,,,,,,,,,,,,,,,,,,,,,,,,,,,,,,,,,,,,,,,,,,pumpkin_03s.jpg,0.0,Orange.png,1.0,110,,,,,,,,,,,,,0.0,1.0,0.0,3.0,3.0,3.0,1.0,0.69104,,,,,,,,,,,,,,,
,,,,,,,,,,,,,,,,,,,,,,,,,,,,,,,,,,,,,,,,,,,,orangutan_03s.jpg,0.0,Yellow.png,1.0,110,,,,,,,,,,,,,0.0,1.0,0.0,4.0,4.0,4.0,1.0,0.543455,,,,,,,,,,,,,,,
,,,,,,,,,,,,,,,,,,,,,,,,,,,,,,,,,,,,,,,,,,,,projector_08s.jpg,0.0,Green.png,1.0,110,,,,,,,,,,,,,,0.0,0.0,5.0,5.0,5.0,1.0,,,,,,,,,,,,,,,,
,,,,,,,,,,,,,,,,,,,,,,,,,,,,,,,,,,,,,,,,,,,,rollerskate_03s.jpg,0.0,Blue.png,2.0,110,,,,,,,,,,,,,0.0,1.0,0.0,6.0,6.0,6.0,1.0,0.743275,,,,,,,,,,,,,,,
,,,,,,,,,,,,,,,,,,,,,,,,,,,,,,,,,,,,,,,,,,,,projector_08s.jpg,1.0,Purple.png,2.0,110,,,,,,,,,,,,,1.0,1.0,0.0,7.0,7.0,7.0,1.0,0.906725,,,,,,,,,,,,,,,
,,,,,,,,,,,,,,,,,,,,,,,,,,,,,,,,,,,,,,,,,,,,racehorse_03s.jpg,0.0,Red.png,2.0,110,,,,,,,,,,,,,0.0,1.0,0.0,8.0,8.0,8.0,1.0,0.744435,,,,,,,,,,,,,,,
,,,,,,,,,,,,,,,,,,,,,,,,,,,,,,,,,,,,,,,,,,,,projector_08s.jpg,1.0,Orange.png,2.0,110,,,,,,,,,,,,,1.0,1.0,0.0,9.0,9.0,9.0,1.0,1.6206,,,,,,,,,,,,,,,
,,,,,,,,,,,,,,,,,,,,,,,,,,,,,,,,,,,,,,,,,,,,toy_04s.jpg,0.0,Yellow.png,2.0,110,,,,,,,,,,,,,0.0,1.0,0.0,10.0,10.0,10.0,1.0,0.676515,,,,,,,,,,,,,,,
,,,,,,,,,,,,,,,,,,,,,,,,,,,,,,,,,,,,,,,,,,,,projector_08s.jpg,1.0,Green.png,2.0,110,,,,,,,,,,,,,1.0,1.0,0.0,11.0,11.0,11.0,1.0,1.07678,,,,,,,,,,,,,,,
,,,,,,,,,,,,,,,,,,,,,,,,,,,,,,,,,,,,,,,,,,,,toy_04s.jpg,1.0,Blue.png,3.0,110,,,,,,,,,,,,,1.0,1.0,0.0,12.0,12.0,12.0,1.0,0.972435,,,,,,,,,,,,,,,
,,,,,,,,,,,,,,,,,,,,,,,,,,,,,,,,,,,,,,,,,,,,toy_04s.jpg,0.0,Purple.png,3.0,110,,,,,,,,,,,,,0.0,1.0,0.0,13.0,13.0,13.0,1.0,1.134855,,,,,,,,,,,,,,,
,,,,,,,,,,,,,,,,,,,,,,,,,,,,,,,,,,,,,,,,,,,,loveseat_08s.jpg,0.0,Red.png,3.0,110,,,,,,,,,,,,,0.0,1.0,0.0,14.0,14.0,14.0,1.0,0.959905,,,,,,,,,,,,,,,
,,,,,,,,,,,,,,,,,,,,,,,,,,,,,,,,,,,,,,,,,,,,toy_04s.jpg,1.0,Orange.png,3.0,110,,,,,,,,,,,,,1.0,1.0,0.0,15.0,15.0,15.0,1.0,0.976495,,,,,,,,,,,,,,,
,,,,,,,,,,,,,,,,,,,,,,,,,,,,,,,,,,,,,,,,,,,,toy_04s.jpg,0.0,Yellow.png,3.0,110,,,,,,,,,,,,,1.0,0.0,0.0,16.0,16.0,16.0,1.0,0.78323,,,,,,,,,,,,,,,
,,,,,,,,,,,,,,,,,,,,,,,,,,,,,,,,,,,,,,,,,,,,muffin_12n.jpg,0.0,Green.png,3.0,110,,,,,,,,,,,,,0.0,1.0,0.0,17.0,17.0,17.0,1.0,0.744415,,,,,,,,,,,,,,,
,,,,,,,,,,,,,,,,,,,,,,,,,,,,,,,,,,,,,,,,,,,,oil_02s.jpg,0.0,Blue.png,4.0,110,,,,,,,,,,,,,0.0,1.0,0.0,18.0,18.0,18.0,1.0,0.727845,,,,,,,,,,,,,,,
,,,,,,,,,,,,,,,,,,,,,,,,,,,,,,,,,,,,,,,,,,,,ring_03s.jpg,0.0,Purple.png,4.0,110,,,,,,,,,,,,,0.0,1.0,0.0,19.0,19.0,19.0,1.0,0.943845,,,,,,,,,,,,,,,
,,,,,,,,,,,,,,,,,,,,,,,,,,,,,,,,,,,,,,,,,,,,ring_03s.jpg,0.0,Red.png,4.0,110,,,,,,,,,,,,,1.0,0.0,0.0,20.0,20.0,20.0,1.0,1.00938,,,,,,,,,,,,,,,
,,,,,,,,,,,,,,,,,,,,,,,,,,,,,,,,,,,,,,,,,,,,harpoon.jpg,0.0,Orange.png,4.0,110,,,,,,,,,,,,,0.0,1.0,0.0,21.0,21.0,21.0,1.0,1.43778,,,,,,,,,,,,,,,
,,,,,,,,,,,,,,,,,,,,,,,,,,,,,,,,,,,,,,,,,,,,swimming_pool_17s.jpg,0.0,Yellow.png,4.0,110,,,,,,,,,,,,,0.0,1.0,0.0,22.0,22.0,22.0,1.0,0.761105,,,,,,,,,,,,,,,
,,,,,,,,,,,,,,,,,,,,,,,,,,,,,,,,,,,,,,,,,,,,ironing_board_07s.jpg,0.0,Green.png,4.0,110,,,,,,,,,,,,,0.0,1.0,0.0,23.0,23.0,23.0,1.0,0.956245,,,,,,,,,,,,,,,
,,,,,,,,,,,,,,,,,,,,,,,,,,,,,,,,,,,,,,,,,,,,projector_08s.jpg,0.0,Blue.png,5.0,110,,,,,,,,,,,,,1.0,0.0,0.0,24.0,24.0,24.0,1.0,1.46585,,,,,,,,,,,,,,,
,,,,,,,,,,,,,,,,,,,,,,,,,,,,,,,,,,,,,,,,,,,,rabbit_03s.jpg,0.0,Purple.png,5.0,110,,,,,,,,,,,,,0.0,1.0,0.0,25.0,25.0,25.0,1.0,0.66675,,,,,,,,,,,,,,,
,,,,,,,,,,,,,,,,,,,,,,,,,,,,,,,,,,,,,,,,,,,,spacesuit_02s.jpg,0.0,Red.png,5.0,110,,,,,,,,,,,,,0.0,1.0,0.0,26.0,26.0,26.0,1.0,0.861425,,,,,,,,,,,,,,,
,,,,,,,,,,,,,,,,,,,,,,,,,,,,,,,,,,,,,,,,,,,,toy_04s.jpg,0.0,Orange.png,5.0,110,,,,,,,,,,,,,0.0,1.0,0.0,27.0,27.0,27.0,1.0,1.40893,,,,,,,,,,,,,,,
,,,,,,,,,,,,,,,,,,,,,,,,,,,,,,,,,,,,,,,,,,,,mannequin_05s.jpg,0.0,Yellow.png,5.0,110,,,,,,,,,,,,,0.0,1.0,0.0,28.0,28.0,28.0,1.0,0.84279,,,,,,,,,,,,,,,
,,,,,,,,,,,,,,,,,,,,,,,,,,,,,,,,,,,,,,,,,,,,toy_04s.jpg,1.0,Green.png,5.0,110,,,,,,,,,,,,,1.0,1.0,0.0,29.0,29.0,29.0,1.0,1.362335,,,,,,,,,,,,,,,
,,,,,,,,,,,,,,,,,,,,,,,,,,,,,,,,,,,,,,,,,,,,dashboard_02s.jpg,0.0,Blue.png,6.0,110,,,,,,,,,,,,,0.0,1.0,0.0,30.0,30.0,30.0,1.0,0.894245,,,,,,,,,,,,,,,
,,,,,,,,,,,,,,,,,,,,,,,,,,,,,,,,,,,,,,,,,,,,exhaust_pipe_10s.jpg,0.0,Purple.png,6.0,110,,,,,,,,,,,,,0.0,1.0,0.0,31.0,31.0,31.0,1.0,0.944005,,,,,,,,,,,,,,,
,,,,,,,,,,,,,,,,,,,,,,,,,,,,,,,,,,,,,,,,,,,,telephone_pole_05s.jpg,0.0,Red.png,6.0,110,,,,,,,,,,,,,0.0,1.0,0.0,32.0,32.0,32.0,1.0,0.74292,,,,,,,,,,,,,,,
,,,,,,,,,,,,,,,,,,,,,,,,,,,,,,,,,,,,,,,,,,,,orangutan_03s.jpg,0.0,Orange.png,6.0,110,,,,,,,,,,,,,0.0,1.0,0.0,33.0,33.0,33.0,1.0,1.56995,,,,,,,,,,,,,,,
,,,,,,,,,,,,,,,,,,,,,,,,,,,,,,,,,,,,,,,,,,,,tuxedo_01b.jpg,0.0,Yellow.png,6.0,110,,,,,,,,,,,,,0.0,1.0,0.0,34.0,34.0,34.0,1.0,0.625645,,,,,,,,,,,,,,,
,,,,,,,,,,,,,,,,,,,,,,,,,,,,,,,,,,,,,,,,,,,,crate_05s.jpg,0.0,Green.png,6.0,110,,,,,,,,,,,,,0.0,1.0,0.0,35.0,35.0,35.0,1.0,0.88516,,,,,,,,,,,,,,,
,,,,,,,,,,,,,,,,,,,,,,,,,,,,,,,,,,,,,,,,,,,,,0.0,,,110,,,,,,,,,rollerskate_03s.jpg,pumpkin_03s.jpg,,,,,,,,,,,0.0,1.0,2.021245,0.0,0.0,0.0,0.0,1.0,,,,,,,
,,,,,,,,,,,,,,,,,,,,,,,,,,,,,,,,,,,,,,,,,,,,,0.0,,,110,,,,,,,,,spacesuit_02s.jpg,ironing_board_07s.jpg,,,,,,,,,,,0.0,1.0,1.37106,0.0,1.0,1.0,1.0,1.0,,,,,,,
,,,,,,,,,,,,,,,,,,,,,,,,,,,,,,,,,,,,,,,,,,,,,1.0,,,110,,,,,,,,,swimming_pool_17s.jpg,rabbit_03s.jpg,,,,,,,,,,,1.0,1.0,1.22339,0.0,2.0,2.0,2.0,1.0,,,,,,,
,,,,,,,,,,,,,,,,,,,,,,,,,,,,,,,,,,,,,,,,,,,,,0.0,,,110,,,,,,,,,muffin_12n.jpg,loveseat_08s.jpg,,,,,,,,,,,1.0,0.0,0.91513,0.0,3.0,3.0,3.0,1.0,,,,,,,
,,,,,,,,,,,,,,,,,,,,,,,,,,,,,,,,,,,,,,,,,,,,,1.0,,,110,,,,,,,,,oil_02s.jpg,harpoon.jpg,,,,,,,,,,,0.0,0.0,1.44162,0.0,4.0,4.0,4.0,1.0,,,,,,,
,,,,,,,,,,,,,,,,,,,,,,,,,,,,,,,,,,,,,,,,,,,,,1.0,,,110,,,,,,,,,telephone_pole_05s.jpg,crate_05s.jpg,,,,,,,,,,,1.0,1.0,1.114115,0.0,5.0,5.0,5.0,1.0,,,,,,,
,,,,,,,,,,,,,,,,,,,,,,,,,,,,,,,,,,,,,,,,,,,,,,,,110,,,,,,,,,,,,,,,,,,,,,,,,,,,,,0.0,7.0,7.0,7.0,1.0,new2backpresent_8_3.xlsx,new2back_compare_task_8_3.xlsx
,,,,,,,,,,,,,,,,,,,,,,,,,,,,,,,,,,,,,,,,,,,,plunger_08s.jpg,0.0,Blue.png,1.0,110,,,,,,,,,,,,,0.0,1.0,0.0,0.0,0.0,0.0,1.0,0.81294,,,,,,,,,,,,,,,
,,,,,,,,,,,,,,,,,,,,,,,,,,,,,,,,,,,,,,,,,,,,mango_09s.jpg,0.0,Purple.png,1.0,110,,,,,,,,,,,,,0.0,1.0,0.0,1.0,1.0,1.0,1.0,0.60917,,,,,,,,,,,,,,,
,,,,,,,,,,,,,,,,,,,,,,,,,,,,,,,,,,,,,,,,,,,,panda_02s.jpg,0.0,Red.png,1.0,110,,,,,,,,,,,,,0.0,1.0,0.0,2.0,2.0,2.0,1.0,0.54309,,,,,,,,,,,,,,,
,,,,,,,,,,,,,,,,,,,,,,,,,,,,,,,,,,,,,,,,,,,,spatula04.jpg,0.0,Orange.png,1.0,110,,,,,,,,,,,,,0.0,1.0,0.0,3.0,3.0,3.0,1.0,0.55376,,,,,,,,,,,,,,,
,,,,,,,,,,,,,,,,,,,,,,,,,,,,,,,,,,,,,,,,,,,,tuba_12s.jpg,0.0,Yellow.png,1.0,110,,,,,,,,,,,,,0.0,1.0,0.0,4.0,4.0,4.0,1.0,0.912285,,,,,,,,,,,,,,,
,,,,,,,,,,,,,,,,,,,,,,,,,,,,,,,,,,,,,,,,,,,,lipstick_02s.jpg,0.0,Green.png,1.0,110,,,,,,,,,,,,,0.0,1.0,0.0,5.0,5.0,5.0,1.0,0.662295,,,,,,,,,,,,,,,
,,,,,,,,,,,,,,,,,,,,,,,,,,,,,,,,,,,,,,,,,,,,tuba_12s.jpg,1.0,Blue.png,2.0,110,,,,,,,,,,,,,1.0,1.0,0.0,6.0,6.0,6.0,1.0,0.950295,,,,,,,,,,,,,,,
,,,,,,,,,,,,,,,,,,,,,,,,,,,,,,,,,,,,,,,,,,,,jelly_bean_06s.jpg,0.0,Purple.png,2.0,110,,,,,,,,,,,,,0.0,1.0,0.0,7.0,7.0,7.0,1.0,1.070915,,,,,,,,,,,,,,,
,,,,,,,,,,,,,,,,,,,,,,,,,,,,,,,,,,,,,,,,,,,,penlight_12s.jpg,0.0,Red.png,2.0,110,,,,,,,,,,,,,0.0,1.0,0.0,8.0,8.0,8.0,1.0,0.715065,,,,,,,,,,,,,,,
,,,,,,,,,,,,,,,,,,,,,,,,,,,,,,,,,,,,,,,,,,,,rooster_03s.jpg,0.0,Orange.png,2.0,110,,,,,,,,,,,,,0.0,1.0,0.0,9.0,9.0,9.0,1.0,0.61577,,,,,,,,,,,,,,,
,,,,,,,,,,,,,,,,,,,,,,,,,,,,,,,,,,,,,,,,,,,,raft_09s.jpg,0.0,Yellow.png,2.0,110,,,,,,,,,,,,,0.0,1.0,0.0,10.0,10.0,10.0,1.0,0.542895,,,,,,,,,,,,,,,
,,,,,,,,,,,,,,,,,,,,,,,,,,,,,,,,,,,,,,,,,,,,briefcase_03s.jpg,0.0,Green.png,2.0,110,,,,,,,,,,,,,0.0,1.0,0.0,11.0,11.0,11.0,1.0,1.214225,,,,,,,,,,,,,,,
,,,,,,,,,,,,,,,,,,,,,,,,,,,,,,,,,,,,,,,,,,,,fossil_06s.jpg,0.0,Blue.png,3.0,110,,,,,,,,,,,,,0.0,1.0,0.0,12.0,12.0,12.0,1.0,0.738165,,,,,,,,,,,,,,,
,,,,,,,,,,,,,,,,,,,,,,,,,,,,,,,,,,,,,,,,,,,,fossil_06s.jpg,0.0,Purple.png,3.0,110,,,,,,,,,,,,,0.0,1.0,0.0,13.0,13.0,13.0,1.0,1.393295,,,,,,,,,,,,,,,
,,,,,,,,,,,,,,,,,,,,,,,,,,,,,,,,,,,,,,,,,,,,emerald_02s.jpg,0.0,Red.png,3.0,110,,,,,,,,,,,,,0.0,1.0,0.0,14.0,14.0,14.0,1.0,1.32524,,,,,,,,,,,,,,,
,,,,,,,,,,,,,,,,,,,,,,,,,,,,,,,,,,,,,,,,,,,,fossil_06s.jpg,1.0,Orange.png,3.0,110,,,,,,,,,,,,,1.0,1.0,0.0,15.0,15.0,15.0,1.0,1.18215,,,,,,,,,,,,,,,
,,,,,,,,,,,,,,,,,,,,,,,,,,,,,,,,,,,,,,,,,,,,tiara_05s.jpg,0.0,Yellow.png,3.0,110,,,,,,,,,,,,,0.0,1.0,0.0,16.0,16.0,16.0,1.0,0.80375,,,,,,,,,,,,,,,
,,,,,,,,,,,,,,,,,,,,,,,,,,,,,,,,,,,,,,,,,,,,fossil_06s.jpg,1.0,Green.png,3.0,110,,,,,,,,,,,,,1.0,1.0,0.0,17.0,17.0,17.0,1.0,1.00517,,,,,,,,,,,,,,,
,,,,,,,,,,,,,,,,,,,,,,,,,,,,,,,,,,,,,,,,,,,,rooster_03s.jpg,0.0,Blue.png,4.0,110,,,,,,,,,,,,,1.0,0.0,0.0,18.0,18.0,18.0,1.0,1.092595,,,,,,,,,,,,,,,
,,,,,,,,,,,,,,,,,,,,,,,,,,,,,,,,,,,,,,,,,,,,rooster_03s.jpg,0.0,Purple.png,4.0,110,,,,,,,,,,,,,1.0,0.0,0.0,19.0,19.0,19.0,1.0,1.344405,,,,,,,,,,,,,,,
,,,,,,,,,,,,,,,,,,,,,,,,,,,,,,,,,,,,,,,,,,,,squirrel_02s.jpg,0.0,Red.png,4.0,110,,,,,,,,,,,,,0.0,1.0,0.0,20.0,20.0,20.0,1.0,0.724075,,,,,,,,,,,,,,,
,,,,,,,,,,,,,,,,,,,,,,,,,,,,,,,,,,,,,,,,,,,,plunger_08s.jpg,0.0,Orange.png,4.0,110,,,,,,,,,,,,,0.0,1.0,0.0,21.0,21.0,21.0,1.0,1.080115,,,,,,,,,,,,,,,
,,,,,,,,,,,,,,,,,,,,,,,,,,,,,,,,,,,,,,,,,,,,rooster_03s.jpg,0.0,Yellow.png,4.0,110,,,,,,,,,,,,,1.0,0.0,0.0,22.0,22.0,22.0,1.0,1.09407,,,,,,,,,,,,,,,
,,,,,,,,,,,,,,,,,,,,,,,,,,,,,,,,,,,,,,,,,,,,pencil_sharpener_09n.jpg,0.0,Green.png,4.0,110,,,,,,,,,,,,,0.0,1.0,0.0,23.0,23.0,23.0,1.0,0.639405,,,,,,,,,,,,,,,
,,,,,,,,,,,,,,,,,,,,,,,,,,,,,,,,,,,,,,,,,,,,latch_15s.jpg,0.0,Blue.png,5.0,110,,,,,,,,,,,,,0.0,1.0,0.0,24.0,24.0,24.0,1.0,0.751875,,,,,,,,,,,,,,,
,,,,,,,,,,,,,,,,,,,,,,,,,,,,,,,,,,,,,,,,,,,,pipe1_10s.jpg,0.0,Purple.png,5.0,110,,,,,,,,,,,,,0.0,1.0,0.0,25.0,25.0,25.0,1.0,0.912245,,,,,,,,,,,,,,,
,,,,,,,,,,,,,,,,,,,,,,,,,,,,,,,,,,,,,,,,,,,,padlock_07s.jpg,0.0,Red.png,5.0,110,,,,,,,,,,,,,0.0,1.0,0.0,26.0,26.0,26.0,1.0,0.74717,,,,,,,,,,,,,,,
,,,,,,,,,,,,,,,,,,,,,,,,,,,,,,,,,,,,,,,,,,,,padlock_07s.jpg,0.0,Orange.png,5.0,110,,,,,,,,,,,,,1.0,0.0,0.0,27.0,27.0,27.0,1.0,1.04229,,,,,,,,,,,,,,,
,,,,,,,,,,,,,,,,,,,,,,,,,,,,,,,,,,,,,,,,,,,,mosquito_12s.jpg,0.0,Yellow.png,5.0,110,,,,,,,,,,,,,0.0,1.0,0.0,28.0,28.0,28.0,1.0,0.66026,,,,,,,,,,,,,,,
,,,,,,,,,,,,,,,,,,,,,,,,,,,,,,,,,,,,,,,,,,,,chalice_10s.jpg,0.0,Green.png,5.0,110,,,,,,,,,,,,,0.0,1.0,0.0,29.0,29.0,29.0,1.0,1.01091,,,,,,,,,,,,,,,
,,,,,,,,,,,,,,,,,,,,,,,,,,,,,,,,,,,,,,,,,,,,turf_03s.jpg,0.0,Blue.png,6.0,110,,,,,,,,,,,,,0.0,1.0,0.0,30.0,30.0,30.0,1.0,0.53163,,,,,,,,,,,,,,,
,,,,,,,,,,,,,,,,,,,,,,,,,,,,,,,,,,,,,,,,,,,,smoothie_09s.jpg,0.0,Purple.png,6.0,110,,,,,,,,,,,,,0.0,1.0,0.0,31.0,31.0,31.0,1.0,0.60749,,,,,,,,,,,,,,,
,,,,,,,,,,,,,,,,,,,,,,,,,,,,,,,,,,,,,,,,,,,,comic_book_02s.jpg,0.0,Red.png,6.0,110,,,,,,,,,,,,,0.0,1.0,0.0,32.0,32.0,32.0,1.0,0.524385,,,,,,,,,,,,,,,
,,,,,,,,,,,,,,,,,,,,,,,,,,,,,,,,,,,,,,,,,,,,stopwatch_04s.jpg,0.0,Orange.png,6.0,110,,,,,,,,,,,,,0.0,1.0,0.0,33.0,33.0,33.0,1.0,0.793345,,,,,,,,,,,,,,,
,,,,,,,,,,,,,,,,,,,,,,,,,,,,,,,,,,,,,,,,,,,,turf_03s.jpg,0.0,Yellow.png,6.0,110,,,,,,,,,,,,,1.0,0.0,0.0,34.0,34.0,34.0,1.0,1.018295,,,,,,,,,,,,,,,
,,,,,,,,,,,,,,,,,,,,,,,,,,,,,,,,,,,,,,,,,,,,turnstile_08s.jpg,0.0,Green.png,6.0,110,,,,,,,,,,,,,0.0,1.0,0.0,35.0,35.0,35.0,1.0,0.709125,,,,,,,,,,,,,,,
,,,,,,,,,,,,,,,,,,,,,,,,,,,,,,,,,,,,,,,,,,,,,1.0,,,110,,,,,,,,,briefcase_03s.jpg,emerald_02s.jpg,,,,,,,,,,,1.0,1.0,1.186085,0.0,0.0,0.0,0.0,1.0,,,,,,,
,,,,,,,,,,,,,,,,,,,,,,,,,,,,,,,,,,,,,,,,,,,,,1.0,,,110,,,,,,,,,mosquito_12s.jpg,smoothie_09s.jpg,,,,,,,,,,,1.0,1.0,1.09846,0.0,1.0,1.0,1.0,1.0,,,,,,,
,,,,,,,,,,,,,,,,,,,,,,,,,,,,,,,,,,,,,,,,,,,,,1.0,,,110,,,,,,,,,chalice_10s.jpg,comic_book_02s.jpg,,,,,,,,,,,1.0,1.0,1.21893,0.0,2.0,2.0,2.0,1.0,,,,,,,
,,,,,,,,,,,,,,,,,,,,,,,,,,,,,,,,,,,,,,,,,,,,,1.0,,,110,,,,,,,,,jelly_bean_06s.jpg,raft_09s.jpg,,,,,,,,,,,1.0,1.0,1.021535,0.0,3.0,3.0,3.0,1.0,,,,,,,
,,,,,,,,,,,,,,,,,,,,,,,,,,,,,,,,,,,,,,,,,,,,,1.0,,,110,,,,,,,,,squirrel_02s.jpg,pencil_sharpener_09n.jpg,,,,,,,,,,,1.0,1.0,1.232035,0.0,4.0,4.0,4.0,1.0,,,,,,,
,,,,,,,,,,,,,,,,,,,,,,,,,,,,,,,,,,,,,,,,,,,,,0.0,,,110,,,,,,,,,lipstick_02s.jpg,panda_02s.jpg,,,,,,,,,,,1.0,0.0,1.242275,0.0,5.0,5.0,5.0,1.0,,,,,,,
,,,,,,,,,,,,,,,,,,,,,,,,,,,,,,,,,,,,,,,,,,,,,,,,110,,,,,,,,,,,,,,,,,,,,,,,,,,,,,0.0,8.0,8.0,8.0,1.0,new2backpresent_9_3.xlsx,new2back_compare_task_9_3.xlsx
