key_resp_3.keys,key_resp_3.rt,key_resp_4.keys,key_resp_4.rt,key_resp_5.keys,key_resp_5.rt,key_resp_6.keys,key_resp_6.rt,key_resp_7.keys,key_resp_7.rt,key_resp_8.keys,key_resp_8.rt,key_resp_9.keys,key_resp_9.rt,key_resp_10.keys,key_resp_10.rt,key_resp_11.keys,key_resp_11.rt,key_resp_12.keys,key_resp_12.rt,key_resp_13.keys,key_resp_13.rt,key_resp_14.keys,key_resp_14.rt,key_resp_15.keys,key_resp_15.rt,key_resp_16.keys,key_resp_16.rt,key_resp_17.keys,key_resp_17.rt,key_resp_18.keys,key_resp_18.rt,key_resp_19.keys,key_resp_19.rt,key_resp_20.keys,key_resp_20.rt,key_resp_21.keys,key_resp_21.corr,key_resp_21.rt,trials.thisRepN,trials.thisTrialN,trials.thisN,trials.thisIndex,trials.ran,pictures,answer,clock,segment,participant,key_resp_22.keys,key_resp_22.corr,key_resp_22.rt,trials_2.thisRepN,trials_2.thisTrialN,trials_2.thisN,trials_2.thisIndex,trials_2.ran,item_a,item_b,key_resp_23.keys,key_resp_23.rt,key_resp.keys,key_resp.corr,present_segment.thisRepN,present_segment.thisTrialN,present_segment.thisN,present_segment.thisIndex,present_segment.ran,key_resp.rt,key_resp_2.keys,key_resp_2.corr,key_resp_2.rt,compare_segment.thisRepN,compare_segment.thisTrialN,compare_segment.thisN,compare_segment.thisIndex,compare_segment.ran,clock_conditions.thisRepN,clock_conditions.thisTrialN,clock_conditions.thisN,clock_conditions.thisIndex,clock_conditions.ran,present,compare
space,154.0157,space,3.6881,0.0,74.0446,0.0,7.8741,1.0,6.0496,0.0,5.5853,0.0,5.9559,1.0,2.7162,0.0,19.3898,0.0,7.7579,1.0,2.7718,0.0,6.3316,0.0,1.2241,0.0,1.396,space,17.0784,1.0,7.8066,0.0,3.8719,space,5.5783,0.0,1.0,1.433,0.0,0.0,0.0,0.0,1.0,whipped_cream_02s.jpg,0.0,Blue.png,1.0,65,,,,,,,,,,,,,,,,,,,,,,,,,,,,,,,,,,,
,,,,,,,,,,,,,,,,,,,,,,,,,,,,,,,,,,,,,0.0,,0.0,1.0,1.0,1.0,1.0,sheep_02s.jpg,0.0,Purple.png,1.0,65,,,,,,,,,,,,,,,,,,,,,,,,,,,,,,,,,,,
,,,,,,,,,,,,,,,,,,,,,,,,,,,,,,,,,,,,0.0,0.0,0.9824,0.0,2.0,2.0,2.0,1.0,sheep_02s.jpg,1.0,Red.png,1.0,65,,,,,,,,,,,,,,,,,,,,,,,,,,,,,,,,,,,
,,,,,,,,,,,,,,,,,,,,,,,,,,,,,,,,,,,,0.0,1.0,1.2338,0.0,3.0,3.0,3.0,1.0,sequin_02s.jpg,0.0,Orange.png,1.0,65,,,,,,,,,,,,,,,,,,,,,,,,,,,,,,,,,,,
,,,,,,,,,,,,,,,,,,,,,,,,,,,,,,,,,,,,1.0,1.0,1.0535,0.0,4.0,4.0,4.0,1.0,sheep_02s.jpg,1.0,Yellow.png,1.0,65,,,,,,,,,,,,,,,,,,,,,,,,,,,,,,,,,,,
,,,,,,,,,,,,,,,,,,,,,,,,,,,,,,,,,,,,0.0,1.0,0.8287,0.0,5.0,5.0,5.0,1.0,scoop_05s.jpg,0.0,Green.png,1.0,65,,,,,,,,,,,,,,,,,,,,,,,,,,,,,,,,,,,
,,,,,,,,,,,,,,,,,,,,,,,,,,,,,,,,,,,,0.0,1.0,0.7015,0.0,6.0,6.0,6.0,1.0,wagon_12s.jpg,0.0,Blue.png,2.0,65,,,,,,,,,,,,,,,,,,,,,,,,,,,,,,,,,,,
,,,,,,,,,,,,,,,,,,,,,,,,,,,,,,,,,,,,0.0,1.0,0.6412,0.0,7.0,7.0,7.0,1.0,scrabble_05s.jpg,0.0,Purple.png,2.0,65,,,,,,,,,,,,,,,,,,,,,,,,,,,,,,,,,,,
,,,,,,,,,,,,,,,,,,,,,,,,,,,,,,,,,,,,1.0,1.0,0.7479,0.0,8.0,8.0,8.0,1.0,wagon_12s.jpg,1.0,Red.png,2.0,65,,,,,,,,,,,,,,,,,,,,,,,,,,,,,,,,,,,
,,,,,,,,,,,,,,,,,,,,,,,,,,,,,,,,,,,,1.0,1.0,0.8132,0.0,9.0,9.0,9.0,1.0,scrabble_05s.jpg,1.0,Orange.png,2.0,65,,,,,,,,,,,,,,,,,,,,,,,,,,,,,,,,,,,
,,,,,,,,,,,,,,,,,,,,,,,,,,,,,,,,,,,,0.0,1.0,0.7526,0.0,10.0,10.0,10.0,1.0,weasel_08s.jpg,0.0,Yellow.png,2.0,65,,,,,,,,,,,,,,,,,,,,,,,,,,,,,,,,,,,
,,,,,,,,,,,,,,,,,,,,,,,,,,,,,,,,,,,,0.0,1.0,0.7444,0.0,11.0,11.0,11.0,1.0,scooter_06s.jpg,0.0,Green.png,2.0,65,,,,,,,,,,,,,,,,,,,,,,,,,,,,,,,,,,,
,,,,,,,,,,,,,,,,,,,,,,,,,,,,,,,,,,,,0.0,1.0,0.7589,0.0,12.0,12.0,12.0,1.0,wetsuit_04s.jpg,0.0,Blue.png,3.0,65,,,,,,,,,,,,,,,,,,,,,,,,,,,,,,,,,,,
,,,,,,,,,,,,,,,,,,,,,,,,,,,,,,,,,,,,1.0,1.0,0.9912,0.0,13.0,13.0,13.0,1.0,wetsuit_04s.jpg,1.0,Purple.png,3.0,65,,,,,,,,,,,,,,,,,,,,,,,,,,,,,,,,,,,
,,,,,,,,,,,,,,,,,,,,,,,,,,,,,,,,,,,,1.0,1.0,0.7202,0.0,14.0,14.0,14.0,1.0,wetsuit_04s.jpg,1.0,Red.png,3.0,65,,,,,,,,,,,,,,,,,,,,,,,,,,,,,,,,,,,
,,,,,,,,,,,,,,,,,,,,,,,,,,,,,,,,,,,,0.0,1.0,0.9533,0.0,15.0,15.0,15.0,1.0,water_fountain_01b.jpg,0.0,Orange.png,3.0,65,,,,,,,,,,,,,,,,,,,,,,,,,,,,,,,,,,,
,,,,,,,,,,,,,,,,,,,,,,,,,,,,,,,,,,,,1.0,0.0,1.1592,0.0,16.0,16.0,16.0,1.0,wagon_12s.jpg,0.0,Yellow.png,3.0,65,,,,,,,,,,,,,,,,,,,,,,,,,,,,,,,,,,,
,,,,,,,,,,,,,,,,,,,,,,,,,,,,,,,,,,,,0.0,1.0,2.1096,0.0,17.0,17.0,17.0,1.0,wing_08s.jpg,0.0,Green.png,3.0,65,,,,,,,,,,,,,,,,,,,,,,,,,,,,,,,,,,,
,,,,,,,,,,,,,,,,,,,,,,,,,,,,,,,,,,,,0.0,1.0,0.8963,0.0,18.0,18.0,18.0,1.0,shield_02s.jpg,0.0,Blue.png,4.0,65,,,,,,,,,,,,,,,,,,,,,,,,,,,,,,,,,,,
,,,,,,,,,,,,,,,,,,,,,,,,,,,,,,,,,,,,0.0,1.0,0.7863,0.0,19.0,19.0,19.0,1.0,shovel_09s.jpg,0.0,Purple.png,4.0,65,,,,,,,,,,,,,,,,,,,,,,,,,,,,,,,,,,,
,,,,,,,,,,,,,,,,,,,,,,,,,,,,,,,,,,,,0.0,1.0,0.8783,0.0,20.0,20.0,20.0,1.0,watch_09s.jpg,0.0,Red.png,4.0,65,,,,,,,,,,,,,,,,,,,,,,,,,,,,,,,,,,,
,,,,,,,,,,,,,,,,,,,,,,,,,,,,,,,,,,,,1.0,1.0,1.4687,0.0,21.0,21.0,21.0,1.0,shovel_09s.jpg,1.0,Orange.png,4.0,65,,,,,,,,,,,,,,,,,,,,,,,,,,,,,,,,,,,
,,,,,,,,,,,,,,,,,,,,,,,,,,,,,,,,,,,,0.0,0.0,1.5223,0.0,22.0,22.0,22.0,1.0,shovel_09s.jpg,1.0,Yellow.png,4.0,65,,,,,,,,,,,,,,,,,,,,,,,,,,,,,,,,,,,
,,,,,,,,,,,,,,,,,,,,,,,,,,,,,,,,,,,,0.0,1.0,0.9435,0.0,23.0,23.0,23.0,1.0,watering_can_14s.jpg,0.0,Green.png,4.0,65,,,,,,,,,,,,,,,,,,,,,,,,,,,,,,,,,,,
,,,,,,,,,,,,,,,,,,,,,,,,,,,,,,,,,,,,0.0,1.0,0.7214,0.0,24.0,24.0,24.0,1.0,wasp_13n.jpg,0.0,Blue.png,5.0,65,,,,,,,,,,,,,,,,,,,,,,,,,,,,,,,,,,,
,,,,,,,,,,,,,,,,,,,,,,,,,,,,,,,,,,,,0.0,1.0,0.7784,0.0,25.0,25.0,25.0,1.0,shoelace_13s.jpg,0.0,Purple.png,5.0,65,,,,,,,,,,,,,,,,,,,,,,,,,,,,,,,,,,,
,,,,,,,,,,,,,,,,,,,,,,,,,,,,,,,,,,,,0.0,1.0,1.0304,0.0,26.0,26.0,26.0,1.0,scarf_16s.jpg,0.0,Red.png,5.0,65,,,,,,,,,,,,,,,,,,,,,,,,,,,,,,,,,,,
,,,,,,,,,,,,,,,,,,,,,,,,,,,,,,,,,,,,0.0,1.0,0.7732,0.0,27.0,27.0,27.0,1.0,screwdriver_07s.jpg,0.0,Orange.png,5.0,65,,,,,,,,,,,,,,,,,,,,,,,,,,,,,,,,,,,
,,,,,,,,,,,,,,,,,,,,,,,,,,,,,,,,,,,,0.0,1.0,0.7491,0.0,28.0,28.0,28.0,1.0,drink_05s.jpg,0.0,Yellow.png,5.0,65,,,,,,,,,,,,,,,,,,,,,,,,,,,,,,,,,,,
,,,,,,,,,,,,,,,,,,,,,,,,,,,,,,,,,,,,,0.0,,0.0,29.0,29.0,29.0,1.0,screwdriver_07s.jpg,1.0,Green.png,5.0,65,,,,,,,,,,,,,,,,,,,,,,,,,,,,,,,,,,,
,,,,,,,,,,,,,,,,,,,,,,,,,,,,,,,,,,,,0.0,1.0,1.4084,0.0,30.0,30.0,30.0,1.0,seaweed_07s.jpg,0.0,Blue.png,6.0,65,,,,,,,,,,,,,,,,,,,,,,,,,,,,,,,,,,,
,,,,,,,,,,,,,,,,,,,,,,,,,,,,,,,,,,,,0.0,1.0,0.6686,0.0,31.0,31.0,31.0,1.0,saxophone_04s.jpg,0.0,Purple.png,6.0,65,,,,,,,,,,,,,,,,,,,,,,,,,,,,,,,,,,,
,,,,,,,,,,,,,,,,,,,,,,,,,,,,,,,,,,,,1.0,1.0,0.8636,0.0,32.0,32.0,32.0,1.0,saxophone_04s.jpg,1.0,Red.png,6.0,65,,,,,,,,,,,,,,,,,,,,,,,,,,,,,,,,,,,
,,,,,,,,,,,,,,,,,,,,,,,,,,,,,,,,,,,,0.0,1.0,0.9744,0.0,33.0,33.0,33.0,1.0,scorpion_01b.jpg,0.0,Orange.png,6.0,65,,,,,,,,,,,,,,,,,,,,,,,,,,,,,,,,,,,
,,,,,,,,,,,,,,,,,,,,,,,,,,,,,,,,,,,,1.0,0.0,0.8884,0.0,34.0,34.0,34.0,1.0,shovel_09s.jpg,0.0,Yellow.png,6.0,65,,,,,,,,,,,,,,,,,,,,,,,,,,,,,,,,,,,
,,,,,,,,,,,,,,,,,,,,,,,,,,,,,,,,,,,,1.0,1.0,1.0702,0.0,35.0,35.0,35.0,1.0,saxophone_04s.jpg,1.0,Green.png,6.0,65,,,,,,,,,,,,,,,,,,,,,,,,,,,,,,,,,,,
,,,,,,,,,,,,,,,,,,,,,,,,,,,,,,,,,,,,,,,,,,,,,1.0,,,65,0.0,0.0,10.3046,0.0,0.0,0.0,0.0,1.0,water_fountain_01b.jpg,shield_02s.jpg,,,,,,,,,,,,,,,,,,,,,,,,,
,,,,,,,,,,,,,,,,,,,,,,,,,,,,,,,,,,,,,,,,,,,,,0.0,,,65,0.0,1.0,1.9092,0.0,1.0,1.0,1.0,1.0,watch_09s.jpg,wing_08s.jpg,,,,,,,,,,,,,,,,,,,,,,,,,
,,,,,,,,,,,,,,,,,,,,,,,,,,,,,,,,,,,,,,,,,,,,,1.0,,,65,1.0,1.0,3.9865,0.0,2.0,2.0,2.0,1.0,watering_can_14s.jpg,scarf_16s.jpg,,,,,,,,,,,,,,,,,,,,,,,,,
,,,,,,,,,,,,,,,,,,,,,,,,,,,,,,,,,,,,,,,,,,,,,1.0,,,65,0.0,0.0,1.4434,0.0,3.0,3.0,3.0,1.0,whipped_cream_02s.jpg,sequin_02s.jpg,,,,,,,,,,,,,,,,,,,,,,,,,
,,,,,,,,,,,,,,,,,,,,,,,,,,,,,,,,,,,,,,,,,,,,,0.0,,,65,0.0,1.0,1.38,0.0,4.0,4.0,4.0,1.0,drink_05s.jpg,shoelace_13s.jpg,,,,,,,,,,,,,,,,,,,,,,,,,
,,,,,,,,,,,,,,,,,,,,,,,,,,,,,,,,,,,,,,,,,,,,,1.0,,,65,0.0,0.0,1.2241,0.0,5.0,5.0,5.0,1.0,seaweed_07s.jpg,scorpion_01b.jpg,,,,,,,,,,,,,,,,,,,,,,,,,
,,,,,,,,,,,,,,,,,,,,,,,,,,,,,,,,,,,,,,,,,,,,insole_11s.jpg,0.0,Blue.png,1.0,65,,,,,,,,,,,space,2.3233,,0.0,0.0,0.0,0.0,0.0,1.0,,,,,,,,,,,,,,,,
,,,,,,,,,,,,,,,,,,,,,,,,,,,,,,,,,,,,,,,,,,,,tupperware_09s.jpg,0.0,Purple.png,1.0,65,,,,,,,,,,,,,0.0,1.0,0.0,1.0,1.0,1.0,1.0,0.9326,,,,,,,,,,,,,,,
,,,,,,,,,,,,,,,,,,,,,,,,,,,,,,,,,,,,,,,,,,,,tupperware_09s.jpg,1.0,Red.png,1.0,65,,,,,,,,,,,,,0.0,0.0,0.0,2.0,2.0,2.0,1.0,1.5455,,,,,,,,,,,,,,,
,,,,,,,,,,,,,,,,,,,,,,,,,,,,,,,,,,,,,,,,,,,,fox_13s.jpg,0.0,Orange.png,1.0,65,,,,,,,,,,,,,0.0,1.0,0.0,3.0,3.0,3.0,1.0,1.6186,,,,,,,,,,,,,,,
,,,,,,,,,,,,,,,,,,,,,,,,,,,,,,,,,,,,,,,,,,,,tupperware_09s.jpg,1.0,Yellow.png,1.0,65,,,,,,,,,,,,,1.0,1.0,0.0,4.0,4.0,4.0,1.0,0.8035,,,,,,,,,,,,,,,
,,,,,,,,,,,,,,,,,,,,,,,,,,,,,,,,,,,,,,,,,,,,lavender_10s.jpg,0.0,Green.png,1.0,65,,,,,,,,,,,,,0.0,1.0,0.0,5.0,5.0,5.0,1.0,0.7924,,,,,,,,,,,,,,,
,,,,,,,,,,,,,,,,,,,,,,,,,,,,,,,,,,,,,,,,,,,,tupperware_09s.jpg,0.0,Blue.png,2.0,65,,,,,,,,,,,,,1.0,0.0,0.0,6.0,6.0,6.0,1.0,0.8367,,,,,,,,,,,,,,,
,,,,,,,,,,,,,,,,,,,,,,,,,,,,,,,,,,,,,,,,,,,,poinsettia_04s.jpg,0.0,Purple.png,2.0,65,,,,,,,,,,,,,0.0,1.0,0.0,7.0,7.0,7.0,1.0,0.813,,,,,,,,,,,,,,,
,,,,,,,,,,,,,,,,,,,,,,,,,,,,,,,,,,,,,,,,,,,,margarita_03s.jpg,0.0,Red.png,2.0,65,,,,,,,,,,,,,0.0,1.0,0.0,8.0,8.0,8.0,1.0,0.6535,,,,,,,,,,,,,,,
,,,,,,,,,,,,,,,,,,,,,,,,,,,,,,,,,,,,,,,,,,,,toothpaste_12s.jpg,0.0,Orange.png,2.0,65,,,,,,,,,,,,,0.0,1.0,0.0,9.0,9.0,9.0,1.0,0.6945,,,,,,,,,,,,,,,
,,,,,,,,,,,,,,,,,,,,,,,,,,,,,,,,,,,,,,,,,,,,ladder_15s.jpg,0.0,Yellow.png,2.0,65,,,,,,,,,,,,,0.0,1.0,0.0,10.0,10.0,10.0,1.0,0.7117,,,,,,,,,,,,,,,
,,,,,,,,,,,,,,,,,,,,,,,,,,,,,,,,,,,,,,,,,,,,pocketknife_12s.jpg,0.0,Green.png,2.0,65,,,,,,,,,,,,,0.0,1.0,0.0,11.0,11.0,11.0,1.0,0.6758,,,,,,,,,,,,,,,
,,,,,,,,,,,,,,,,,,,,,,,,,,,,,,,,,,,,,,,,,,,,spoon02a.jpg,0.0,Blue.png,3.0,65,,,,,,,,,,,,,0.0,1.0,0.0,12.0,12.0,12.0,1.0,0.6306,,,,,,,,,,,,,,,
,,,,,,,,,,,,,,,,,,,,,,,,,,,,,,,,,,,,,,,,,,,,mango_09s.jpg,0.0,Purple.png,3.0,65,,,,,,,,,,,,,0.0,1.0,0.0,13.0,13.0,13.0,1.0,0.5855,,,,,,,,,,,,,,,
,,,,,,,,,,,,,,,,,,,,,,,,,,,,,,,,,,,,,,,,,,,,chalice_10s.jpg,0.0,Red.png,3.0,65,,,,,,,,,,,,,0.0,1.0,0.0,14.0,14.0,14.0,1.0,0.6793,,,,,,,,,,,,,,,
,,,,,,,,,,,,,,,,,,,,,,,,,,,,,,,,,,,,,,,,,,,,pocketknife_12s.jpg,0.0,Orange.png,3.0,65,,,,,,,,,,,,,1.0,0.0,0.0,15.0,15.0,15.0,1.0,2.2314,,,,,,,,,,,,,,,
,,,,,,,,,,,,,,,,,,,,,,,,,,,,,,,,,,,,,,,,,,,,abacus_12s.jpg,0.0,Yellow.png,3.0,65,,,,,,,,,,,,,0.0,1.0,0.0,16.0,16.0,16.0,1.0,0.6123,,,,,,,,,,,,,,,
,,,,,,,,,,,,,,,,,,,,,,,,,,,,,,,,,,,,,,,,,,,,abacus_12s.jpg,1.0,Green.png,3.0,65,,,,,,,,,,,,,0.0,0.0,0.0,17.0,17.0,17.0,1.0,0.5311,,,,,,,,,,,,,,,
,,,,,,,,,,,,,,,,,,,,,,,,,,,,,,,,,,,,,,,,,,,,abacus_12s.jpg,0.0,Blue.png,4.0,65,,,,,,,,,,,,,1.0,0.0,0.0,18.0,18.0,18.0,1.0,0.7494,,,,,,,,,,,,,,,
,,,,,,,,,,,,,,,,,,,,,,,,,,,,,,,,,,,,,,,,,,,,abacus_12s.jpg,1.0,Purple.png,4.0,65,,,,,,,,,,,,,1.0,1.0,0.0,19.0,19.0,19.0,1.0,0.6214,,,,,,,,,,,,,,,
,,,,,,,,,,,,,,,,,,,,,,,,,,,,,,,,,,,,,,,,,,,,sushi_08s.jpg,0.0,Red.png,4.0,65,,,,,,,,,,,,,0.0,1.0,0.0,20.0,20.0,20.0,1.0,1.3477,,,,,,,,,,,,,,,
,,,,,,,,,,,,,,,,,,,,,,,,,,,,,,,,,,,,,,,,,,,,funnel_01b.jpg,0.0,Orange.png,4.0,65,,,,,,,,,,,,,0.0,1.0,0.0,21.0,21.0,21.0,1.0,0.9058,,,,,,,,,,,,,,,
,,,,,,,,,,,,,,,,,,,,,,,,,,,,,,,,,,,,,,,,,,,,rooster_03s.jpg,0.0,Yellow.png,4.0,65,,,,,,,,,,,,,0.0,1.0,0.0,22.0,22.0,22.0,1.0,0.9273,,,,,,,,,,,,,,,
,,,,,,,,,,,,,,,,,,,,,,,,,,,,,,,,,,,,,,,,,,,,ukulele_02s.jpg,0.0,Green.png,4.0,65,,,,,,,,,,,,,0.0,1.0,0.0,23.0,23.0,23.0,1.0,1.6791,,,,,,,,,,,,,,,
,,,,,,,,,,,,,,,,,,,,,,,,,,,,,,,,,,,,,,,,,,,,pocketknife_12s.jpg,0.0,Blue.png,5.0,65,,,,,,,,,,,,,1.0,0.0,0.0,24.0,24.0,24.0,1.0,1.2041,,,,,,,,,,,,,,,
,,,,,,,,,,,,,,,,,,,,,,,,,,,,,,,,,,,,,,,,,,,,pocketknife_12s.jpg,1.0,Purple.png,5.0,65,,,,,,,,,,,,,1.0,1.0,0.0,25.0,25.0,25.0,1.0,0.7177,,,,,,,,,,,,,,,
,,,,,,,,,,,,,,,,,,,,,,,,,,,,,,,,,,,,,,,,,,,,pocketknife_12s.jpg,1.0,Red.png,5.0,65,,,,,,,,,,,,,1.0,1.0,0.0,26.0,26.0,26.0,1.0,0.8651,,,,,,,,,,,,,,,
,,,,,,,,,,,,,,,,,,,,,,,,,,,,,,,,,,,,,,,,,,,,stapler_01b.jpg,0.0,Orange.png,5.0,65,,,,,,,,,,,,,0.0,1.0,0.0,27.0,27.0,27.0,1.0,0.9195,,,,,,,,,,,,,,,
,,,,,,,,,,,,,,,,,,,,,,,,,,,,,,,,,,,,,,,,,,,,birthday_cake_09s.jpg,0.0,Yellow.png,5.0,65,,,,,,,,,,,,,0.0,1.0,0.0,28.0,28.0,28.0,1.0,1.5954,,,,,,,,,,,,,,,
,,,,,,,,,,,,,,,,,,,,,,,,,,,,,,,,,,,,,,,,,,,,meatball_13s.jpg,0.0,Green.png,5.0,65,,,,,,,,,,,,,0.0,1.0,0.0,29.0,29.0,29.0,1.0,1.1449,,,,,,,,,,,,,,,
,,,,,,,,,,,,,,,,,,,,,,,,,,,,,,,,,,,,,,,,,,,,cape_11s.jpg,0.0,Blue.png,6.0,65,,,,,,,,,,,,,0.0,1.0,0.0,30.0,30.0,30.0,1.0,0.755,,,,,,,,,,,,,,,
,,,,,,,,,,,,,,,,,,,,,,,,,,,,,,,,,,,,,,,,,,,,cape_11s.jpg,1.0,Purple.png,6.0,65,,,,,,,,,,,,,1.0,1.0,0.0,31.0,31.0,31.0,1.0,0.8473,,,,,,,,,,,,,,,
,,,,,,,,,,,,,,,,,,,,,,,,,,,,,,,,,,,,,,,,,,,,lizard_10n.jpg,0.0,Red.png,6.0,65,,,,,,,,,,,,,0.0,1.0,0.0,32.0,32.0,32.0,1.0,0.6967,,,,,,,,,,,,,,,
,,,,,,,,,,,,,,,,,,,,,,,,,,,,,,,,,,,,,,,,,,,,refrigerator_07s.jpg,0.0,Orange.png,6.0,65,,,,,,,,,,,,,0.0,1.0,0.0,33.0,33.0,33.0,1.0,0.8286,,,,,,,,,,,,,,,
,,,,,,,,,,,,,,,,,,,,,,,,,,,,,,,,,,,,,,,,,,,,refrigerator_07s.jpg,1.0,Yellow.png,6.0,65,,,,,,,,,,,,,1.0,1.0,0.0,34.0,34.0,34.0,1.0,1.6534,,,,,,,,,,,,,,,
,,,,,,,,,,,,,,,,,,,,,,,,,,,,,,,,,,,,,,,,,,,,touchpad_11s.jpg,0.0,Green.png,6.0,65,,,,,,,,,,,,,0.0,1.0,0.0,35.0,35.0,35.0,1.0,0.7773,,,,,,,,,,,,,,,
,,,,,,,,,,,,,,,,,,,,,,,,,,,,,,,,,,,,,,,,,,,,,1.0,,,65,,,,,,,,,lavender_10s.jpg,margarita_03s.jpg,,,,,,,,,,,1.0,1.0,3.6946,0.0,0.0,0.0,0.0,1.0,,,,,,,
,,,,,,,,,,,,,,,,,,,,,,,,,,,,,,,,,,,,,,,,,,,,,1.0,,,65,,,,,,,,,toothpaste_12s.jpg,spoon02a.jpg,,,,,,,,,,,1.0,1.0,2.8862,0.0,1.0,1.0,1.0,1.0,,,,,,,
,,,,,,,,,,,,,,,,,,,,,,,,,,,,,,,,,,,,,,,,,,,,,1.0,,,65,,,,,,,,,ladder_15s.jpg,mango_09s.jpg,,,,,,,,,,,0.0,0.0,1.4776,0.0,2.0,2.0,2.0,1.0,,,,,,,
,,,,,,,,,,,,,,,,,,,,,,,,,,,,,,,,,,,,,,,,,,,,,0.0,,,65,,,,,,,,,fox_13s.jpg,insole_11s.jpg,,,,,,,,,,,0.0,1.0,3.7833,0.0,3.0,3.0,3.0,1.0,,,,,,,
,,,,,,,,,,,,,,,,,,,,,,,,,,,,,,,,,,,,,,,,,,,,,0.0,,,65,,,,,,,,,ukulele_02s.jpg,sushi_08s.jpg,,,,,,,,,,,0.0,1.0,1.422,0.0,4.0,4.0,4.0,1.0,,,,,,,
,,,,,,,,,,,,,,,,,,,,,,,,,,,,,,,,,,,,,,,,,,,,,0.0,,,65,,,,,,,,,touchpad_11s.jpg,lizard_10n.jpg,,,,,,,,,,,1.0,0.0,2.2996,0.0,5.0,5.0,5.0,1.0,,,,,,,
,,,,,,,,,,,,,,,,,,,,,,,,,,,,,,,,,,,,,,,,,,,,,,,,65,,,,,,,,,,,,,,,,,,,,,,,,,,,,,0.0,0.0,0.0,0.0,1.0,newclockpresent_1_2.xlsx,newclock_compare_task_1_2.xlsx
,,,,,,,,,,,,,,,,,,,,,,,,,,,,,,,,,,,,,,,,,,,,juicer2_06s.jpg,0.0,Blue.png,1.0,65,,,,,,,,,,,,,0.0,1.0,0.0,0.0,0.0,0.0,1.0,2.4277,,,,,,,,,,,,,,,
,,,,,,,,,,,,,,,,,,,,,,,,,,,,,,,,,,,,,,,,,,,,juicer2_06s.jpg,1.0,Purple.png,1.0,65,,,,,,,,,,,,,1.0,1.0,0.0,1.0,1.0,1.0,1.0,1.3504,,,,,,,,,,,,,,,
,,,,,,,,,,,,,,,,,,,,,,,,,,,,,,,,,,,,,,,,,,,,tambourine_06s.jpg,0.0,Red.png,1.0,65,,,,,,,,,,,,,0.0,1.0,0.0,2.0,2.0,2.0,1.0,0.7498,,,,,,,,,,,,,,,
,,,,,,,,,,,,,,,,,,,,,,,,,,,,,,,,,,,,,,,,,,,,luggage_08s.jpg,0.0,Orange.png,1.0,65,,,,,,,,,,,,,0.0,1.0,0.0,3.0,3.0,3.0,1.0,1.0492,,,,,,,,,,,,,,,
,,,,,,,,,,,,,,,,,,,,,,,,,,,,,,,,,,,,,,,,,,,,tambourine_06s.jpg,1.0,Yellow.png,1.0,65,,,,,,,,,,,,,1.0,1.0,0.0,4.0,4.0,4.0,1.0,1.467,,,,,,,,,,,,,,,
,,,,,,,,,,,,,,,,,,,,,,,,,,,,,,,,,,,,,,,,,,,,towel_rack_04s.jpg,0.0,Green.png,1.0,65,,,,,,,,,,,,,0.0,1.0,0.0,5.0,5.0,5.0,1.0,0.9298,,,,,,,,,,,,,,,
,,,,,,,,,,,,,,,,,,,,,,,,,,,,,,,,,,,,,,,,,,,,crayon_09s.jpg,0.0,Blue.png,2.0,65,,,,,,,,,,,,,0.0,1.0,0.0,6.0,6.0,6.0,1.0,0.6774,,,,,,,,,,,,,,,
,,,,,,,,,,,,,,,,,,,,,,,,,,,,,,,,,,,,,,,,,,,,gargoyle_08s.jpg,0.0,Purple.png,2.0,65,,,,,,,,,,,,,0.0,1.0,0.0,7.0,7.0,7.0,1.0,0.83,,,,,,,,,,,,,,,
,,,,,,,,,,,,,,,,,,,,,,,,,,,,,,,,,,,,,,,,,,,,boar_10s.jpg,0.0,Red.png,2.0,65,,,,,,,,,,,,,0.0,1.0,0.0,8.0,8.0,8.0,1.0,1.0692,,,,,,,,,,,,,,,
,,,,,,,,,,,,,,,,,,,,,,,,,,,,,,,,,,,,,,,,,,,,gargoyle_08s.jpg,1.0,Orange.png,2.0,65,,,,,,,,,,,,,1.0,1.0,0.0,9.0,9.0,9.0,1.0,0.9124,,,,,,,,,,,,,,,
,,,,,,,,,,,,,,,,,,,,,,,,,,,,,,,,,,,,,,,,,,,,limousine_12s.jpg,0.0,Yellow.png,2.0,65,,,,,,,,,,,,,0.0,1.0,0.0,10.0,10.0,10.0,1.0,1.0413,,,,,,,,,,,,,,,
,,,,,,,,,,,,,,,,,,,,,,,,,,,,,,,,,,,,,,,,,,,,outlet_10s.jpg,0.0,Green.png,2.0,65,,,,,,,,,,,,,0.0,1.0,0.0,11.0,11.0,11.0,1.0,0.7124,,,,,,,,,,,,,,,
,,,,,,,,,,,,,,,,,,,,,,,,,,,,,,,,,,,,,,,,,,,,comic_book_02s.jpg,0.0,Blue.png,3.0,65,,,,,,,,,,,,,0.0,1.0,0.0,12.0,12.0,12.0,1.0,0.7101,,,,,,,,,,,,,,,
,,,,,,,,,,,,,,,,,,,,,,,,,,,,,,,,,,,,,,,,,,,,mask_09s.jpg,0.0,Purple.png,3.0,65,,,,,,,,,,,,,0.0,1.0,0.0,13.0,13.0,13.0,1.0,0.6795,,,,,,,,,,,,,,,
,,,,,,,,,,,,,,,,,,,,,,,,,,,,,,,,,,,,,,,,,,,,lasagna_06s.jpg,0.0,Red.png,3.0,65,,,,,,,,,,,,,0.0,1.0,0.0,14.0,14.0,14.0,1.0,0.7071,,,,,,,,,,,,,,,
,,,,,,,,,,,,,,,,,,,,,,,,,,,,,,,,,,,,,,,,,,,,diving_board_07s.jpg,0.0,Orange.png,3.0,65,,,,,,,,,,,,,0.0,1.0,0.0,15.0,15.0,15.0,1.0,1.1658,,,,,,,,,,,,,,,
,,,,,,,,,,,,,,,,,,,,,,,,,,,,,,,,,,,,,,,,,,,,lion_18s.jpg,0.0,Yellow.png,3.0,65,,,,,,,,,,,,,0.0,1.0,0.0,16.0,16.0,16.0,1.0,0.7936,,,,,,,,,,,,,,,
,,,,,,,,,,,,,,,,,,,,,,,,,,,,,,,,,,,,,,,,,,,,diving_board_07s.jpg,1.0,Green.png,3.0,65,,,,,,,,,,,,,1.0,1.0,0.0,17.0,17.0,17.0,1.0,0.7498,,,,,,,,,,,,,,,
,,,,,,,,,,,,,,,,,,,,,,,,,,,,,,,,,,,,,,,,,,,,lion_18s.jpg,0.0,Blue.png,4.0,65,,,,,,,,,,,,,1.0,0.0,0.0,18.0,18.0,18.0,1.0,0.8628,,,,,,,,,,,,,,,
,,,,,,,,,,,,,,,,,,,,,,,,,,,,,,,,,,,,,,,,,,,,medal_04s.jpg,0.0,Purple.png,4.0,65,,,,,,,,,,,,,0.0,1.0,0.0,19.0,19.0,19.0,1.0,0.9144,,,,,,,,,,,,,,,
,,,,,,,,,,,,,,,,,,,,,,,,,,,,,,,,,,,,,,,,,,,,incense_02s.jpg,0.0,Red.png,4.0,65,,,,,,,,,,,,,0.0,1.0,0.0,20.0,20.0,20.0,1.0,0.9234,,,,,,,,,,,,,,,
,,,,,,,,,,,,,,,,,,,,,,,,,,,,,,,,,,,,,,,,,,,,tape_06s.jpg,0.0,Orange.png,4.0,65,,,,,,,,,,,,,0.0,1.0,0.0,21.0,21.0,21.0,1.0,0.8337,,,,,,,,,,,,,,,
,,,,,,,,,,,,,,,,,,,,,,,,,,,,,,,,,,,,,,,,,,,,medal_04s.jpg,1.0,Yellow.png,4.0,65,,,,,,,,,,,,,1.0,1.0,0.0,22.0,22.0,22.0,1.0,0.9082,,,,,,,,,,,,,,,
,,,,,,,,,,,,,,,,,,,,,,,,,,,,,,,,,,,,,,,,,,,,buoy_04s.jpg,0.0,Green.png,4.0,65,,,,,,,,,,,,,0.0,1.0,0.0,23.0,23.0,23.0,1.0,0.8252,,,,,,,,,,,,,,,
,,,,,,,,,,,,,,,,,,,,,,,,,,,,,,,,,,,,,,,,,,,,limousine_12s.jpg,0.0,Blue.png,5.0,65,,,,,,,,,,,,,1.0,0.0,0.0,24.0,24.0,24.0,1.0,0.92,,,,,,,,,,,,,,,
,,,,,,,,,,,,,,,,,,,,,,,,,,,,,,,,,,,,,,,,,,,,jewel_01b.jpg,0.0,Purple.png,5.0,65,,,,,,,,,,,,,0.0,1.0,0.0,25.0,25.0,25.0,1.0,0.9567,,,,,,,,,,,,,,,
,,,,,,,,,,,,,,,,,,,,,,,,,,,,,,,,,,,,,,,,,,,,parachute_03s.jpg,0.0,Red.png,5.0,65,,,,,,,,,,,,,0.0,1.0,0.0,26.0,26.0,26.0,1.0,0.7463,,,,,,,,,,,,,,,
,,,,,,,,,,,,,,,,,,,,,,,,,,,,,,,,,,,,,,,,,,,,mannequin_05s.jpg,0.0,Orange.png,5.0,65,,,,,,,,,,,,,0.0,1.0,0.0,27.0,27.0,27.0,1.0,0.7707,,,,,,,,,,,,,,,
,,,,,,,,,,,,,,,,,,,,,,,,,,,,,,,,,,,,,,,,,,,,snowman_02s.jpg,0.0,Yellow.png,5.0,65,,,,,,,,,,,,,0.0,1.0,0.0,28.0,28.0,28.0,1.0,1.647,,,,,,,,,,,,,,,
,,,,,,,,,,,,,,,,,,,,,,,,,,,,,,,,,,,,,,,,,,,,fossil_06s.jpg,0.0,Green.png,5.0,65,,,,,,,,,,,,,0.0,1.0,0.0,29.0,29.0,29.0,1.0,1.3674,,,,,,,,,,,,,,,
,,,,,,,,,,,,,,,,,,,,,,,,,,,,,,,,,,,,,,,,,,,,perfume_06s.jpg,0.0,Blue.png,6.0,65,,,,,,,,,,,,,0.0,1.0,0.0,30.0,30.0,30.0,1.0,1.7713,,,,,,,,,,,,,,,
,,,,,,,,,,,,,,,,,,,,,,,,,,,,,,,,,,,,,,,,,,,,fossil_06s.jpg,0.0,Purple.png,6.0,65,,,,,,,,,,,,,1.0,0.0,0.0,31.0,31.0,31.0,1.0,0.8495,,,,,,,,,,,,,,,
,,,,,,,,,,,,,,,,,,,,,,,,,,,,,,,,,,,,,,,,,,,,pancake_12s.jpg,0.0,Red.png,6.0,65,,,,,,,,,,,,,0.0,1.0,0.0,32.0,32.0,32.0,1.0,1.2166,,,,,,,,,,,,,,,
,,,,,,,,,,,,,,,,,,,,,,,,,,,,,,,,,,,,,,,,,,,,tie_03s.jpg,0.0,Orange.png,6.0,65,,,,,,,,,,,,,0.0,1.0,0.0,33.0,33.0,33.0,1.0,1.036,,,,,,,,,,,,,,,
,,,,,,,,,,,,,,,,,,,,,,,,,,,,,,,,,,,,,,,,,,,,pancake_12s.jpg,1.0,Yellow.png,6.0,65,,,,,,,,,,,,,1.0,1.0,0.0,34.0,34.0,34.0,1.0,0.7888,,,,,,,,,,,,,,,
,,,,,,,,,,,,,,,,,,,,,,,,,,,,,,,,,,,,,,,,,,,,padlock_07s.jpg,0.0,Green.png,6.0,65,,,,,,,,,,,,,0.0,1.0,0.0,35.0,35.0,35.0,1.0,1.2154,,,,,,,,,,,,,,,
,,,,,,,,,,,,,,,,,,,,,,,,,,,,,,,,,,,,,,,,,,,,,0.0,,,65,,,,,,,,,crayon_09s.jpg,luggage_08s.jpg,,,,,,,,,,,1.0,0.0,2.4613,0.0,0.0,0.0,0.0,1.0,,,,,,,
,,,,,,,,,,,,,,,,,,,,,,,,,,,,,,,,,,,,,,,,,,,,,1.0,,,65,,,,,,,,,towel_rack_04s.jpg,boar_10s.jpg,,,,,,,,,,,0.0,0.0,1.4414,0.0,1.0,1.0,1.0,1.0,,,,,,,
,,,,,,,,,,,,,,,,,,,,,,,,,,,,,,,,,,,,,,,,,,,,,0.0,,,65,,,,,,,,,lasagna_06s.jpg,outlet_10s.jpg,,,,,,,,,,,0.0,1.0,1.3575,0.0,2.0,2.0,2.0,1.0,,,,,,,
,,,,,,,,,,,,,,,,,,,,,,,,,,,,,,,,,,,,,,,,,,,,,1.0,,,65,,,,,,,,,jewel_01b.jpg,snowman_02s.jpg,,,,,,,,,,,1.0,1.0,1.4475,0.0,3.0,3.0,3.0,1.0,,,,,,,
,,,,,,,,,,,,,,,,,,,,,,,,,,,,,,,,,,,,,,,,,,,,,0.0,,,65,,,,,,,,,buoy_04s.jpg,incense_02s.jpg,,,,,,,,,,,0.0,1.0,1.6975,0.0,4.0,4.0,4.0,1.0,,,,,,,
,,,,,,,,,,,,,,,,,,,,,,,,,,,,,,,,,,,,,,,,,,,,,0.0,,,65,,,,,,,,,tie_03s.jpg,perfume_06s.jpg,,,,,,,,,,,1.0,0.0,1.6506,0.0,5.0,5.0,5.0,1.0,,,,,,,
,,,,,,,,,,,,,,,,,,,,,,,,,,,,,,,,,,,,,,,,,,,,,,,,65,,,,,,,,,,,,,,,,,,,,,,,,,,,,,0.0,1.0,1.0,1.0,1.0,newclockpresent_2_2.xlsx,newclock_compare_task_2_2.xlsx
,,,,,,,,,,,,,,,,,,,,,,,,,,,,,,,,,,,,,,,,,,,,surfboard_11s.jpg,0.0,Blue.png,1.0,65,,,,,,,,,,,,,0.0,1.0,0.0,0.0,0.0,0.0,1.0,1.1708,,,,,,,,,,,,,,,
,,,,,,,,,,,,,,,,,,,,,,,,,,,,,,,,,,,,,,,,,,,,surfboard_11s.jpg,1.0,Purple.png,1.0,65,,,,,,,,,,,,,1.0,1.0,0.0,1.0,1.0,1.0,1.0,0.7451,,,,,,,,,,,,,,,
,,,,,,,,,,,,,,,,,,,,,,,,,,,,,,,,,,,,,,,,,,,,surfboard_11s.jpg,1.0,Red.png,1.0,65,,,,,,,,,,,,,1.0,1.0,0.0,2.0,2.0,2.0,1.0,0.9298,,,,,,,,,,,,,,,
,,,,,,,,,,,,,,,,,,,,,,,,,,,,,,,,,,,,,,,,,,,,badge_03s.jpg,0.0,Orange.png,1.0,65,,,,,,,,,,,,,0.0,1.0,0.0,3.0,3.0,3.0,1.0,1.3227,,,,,,,,,,,,,,,
,,,,,,,,,,,,,,,,,,,,,,,,,,,,,,,,,,,,,,,,,,,,surfboard_11s.jpg,1.0,Yellow.png,1.0,65,,,,,,,,,,,,,1.0,1.0,0.0,4.0,4.0,4.0,1.0,0.8663,,,,,,,,,,,,,,,
,,,,,,,,,,,,,,,,,,,,,,,,,,,,,,,,,,,,,,,,,,,,surfboard_11s.jpg,1.0,Green.png,1.0,65,,,,,,,,,,,,,1.0,1.0,0.0,5.0,5.0,5.0,1.0,1.2745,,,,,,,,,,,,,,,
,,,,,,,,,,,,,,,,,,,,,,,,,,,,,,,,,,,,,,,,,,,,surfboard_11s.jpg,0.0,Blue.png,2.0,65,,,,,,,,,,,,,1.0,0.0,0.0,6.0,6.0,6.0,1.0,0.696,,,,,,,,,,,,,,,
,,,,,,,,,,,,,,,,,,,,,,,,,,,,,,,,,,,,,,,,,,,,playpen_11s.jpg,0.0,Purple.png,2.0,65,,,,,,,,,,,,,0.0,1.0,0.0,7.0,7.0,7.0,1.0,0.8094,,,,,,,,,,,,,,,
,,,,,,,,,,,,,,,,,,,,,,,,,,,,,,,,,,,,,,,,,,,,surfboard_11s.jpg,1.0,Red.png,2.0,65,,,,,,,,,,,,,1.0,1.0,0.0,8.0,8.0,8.0,1.0,0.7603,,,,,,,,,,,,,,,
,,,,,,,,,,,,,,,,,,,,,,,,,,,,,,,,,,,,,,,,,,,,popcorn_09s.jpg,0.0,Orange.png,2.0,65,,,,,,,,,,,,,0.0,1.0,0.0,9.0,9.0,9.0,1.0,0.8198,,,,,,,,,,,,,,,
,,,,,,,,,,,,,,,,,,,,,,,,,,,,,,,,,,,,,,,,,,,,surfboard_11s.jpg,1.0,Yellow.png,2.0,65,,,,,,,,,,,,,1.0,1.0,0.0,10.0,10.0,10.0,1.0,0.6963,,,,,,,,,,,,,,,
,,,,,,,,,,,,,,,,,,,,,,,,,,,,,,,,,,,,,,,,,,,,popcorn_09s.jpg,1.0,Green.png,2.0,65,,,,,,,,,,,,,1.0,1.0,0.0,11.0,11.0,11.0,1.0,0.8196,,,,,,,,,,,,,,,
,,,,,,,,,,,,,,,,,,,,,,,,,,,,,,,,,,,,,,,,,,,,lollipop_08s.jpg,0.0,Blue.png,3.0,65,,,,,,,,,,,,,0.0,1.0,0.0,12.0,12.0,12.0,1.0,0.8126,,,,,,,,,,,,,,,
,,,,,,,,,,,,,,,,,,,,,,,,,,,,,,,,,,,,,,,,,,,,popcorn_09s.jpg,0.0,Purple.png,3.0,65,,,,,,,,,,,,,1.0,0.0,0.0,13.0,13.0,13.0,1.0,1.9984,,,,,,,,,,,,,,,
,,,,,,,,,,,,,,,,,,,,,,,,,,,,,,,,,,,,,,,,,,,,fire_pit_10s.jpg,0.0,Red.png,3.0,65,,,,,,,,,,,,,0.0,1.0,0.0,14.0,14.0,14.0,1.0,0.9807,,,,,,,,,,,,,,,
,,,,,,,,,,,,,,,,,,,,,,,,,,,,,,,,,,,,,,,,,,,,joystick_01b.jpg,0.0,Orange.png,3.0,65,,,,,,,,,,,,,0.0,1.0,0.0,15.0,15.0,15.0,1.0,0.8509,,,,,,,,,,,,,,,
,,,,,,,,,,,,,,,,,,,,,,,,,,,,,,,,,,,,,,,,,,,,panda_02s.jpg,0.0,Yellow.png,3.0,65,,,,,,,,,,,,,0.0,1.0,0.0,16.0,16.0,16.0,1.0,0.7015,,,,,,,,,,,,,,,
,,,,,,,,,,,,,,,,,,,,,,,,,,,,,,,,,,,,,,,,,,,,sundae_08s.jpg,0.0,Green.png,3.0,65,,,,,,,,,,,,,0.0,1.0,0.0,17.0,17.0,17.0,1.0,1.2134,,,,,,,,,,,,,,,
,,,,,,,,,,,,,,,,,,,,,,,,,,,,,,,,,,,,,,,,,,,,boomerang_06s.jpg,0.0,Blue.png,4.0,65,,,,,,,,,,,,,0.0,1.0,0.0,18.0,18.0,18.0,1.0,0.748,,,,,,,,,,,,,,,
,,,,,,,,,,,,,,,,,,,,,,,,,,,,,,,,,,,,,,,,,,,,bagel_15s.jpg,0.0,Purple.png,4.0,65,,,,,,,,,,,,,0.0,1.0,0.0,19.0,19.0,19.0,1.0,0.8658,,,,,,,,,,,,,,,
,,,,,,,,,,,,,,,,,,,,,,,,,,,,,,,,,,,,,,,,,,,,powder_07s.jpg,0.0,Red.png,4.0,65,,,,,,,,,,,,,0.0,1.0,0.0,20.0,20.0,20.0,1.0,0.8836,,,,,,,,,,,,,,,
,,,,,,,,,,,,,,,,,,,,,,,,,,,,,,,,,,,,,,,,,,,,lipstick_02s.jpg,0.0,Orange.png,4.0,65,,,,,,,,,,,,,0.0,1.0,0.0,21.0,21.0,21.0,1.0,1.2725,,,,,,,,,,,,,,,
,,,,,,,,,,,,,,,,,,,,,,,,,,,,,,,,,,,,,,,,,,,,bagel_15s.jpg,1.0,Yellow.png,4.0,65,,,,,,,,,,,,,1.0,1.0,0.0,22.0,22.0,22.0,1.0,0.9185,,,,,,,,,,,,,,,
,,,,,,,,,,,,,,,,,,,,,,,,,,,,,,,,,,,,,,,,,,,,ladle_04s.jpg,0.0,Green.png,4.0,65,,,,,,,,,,,,,0.0,1.0,0.0,23.0,23.0,23.0,1.0,0.861,,,,,,,,,,,,,,,
,,,,,,,,,,,,,,,,,,,,,,,,,,,,,,,,,,,,,,,,,,,,megaphone_03s.jpg,0.0,Blue.png,5.0,65,,,,,,,,,,,,,0.0,1.0,0.0,24.0,24.0,24.0,1.0,1.0094,,,,,,,,,,,,,,,
,,,,,,,,,,,,,,,,,,,,,,,,,,,,,,,,,,,,,,,,,,,,puck_06s.jpg,0.0,Purple.png,5.0,65,,,,,,,,,,,,,0.0,1.0,0.0,25.0,25.0,25.0,1.0,1.1655,,,,,,,,,,,,,,,
,,,,,,,,,,,,,,,,,,,,,,,,,,,,,,,,,,,,,,,,,,,,cardinal_07s.jpg,0.0,Red.png,5.0,65,,,,,,,,,,,,,0.0,1.0,0.0,26.0,26.0,26.0,1.0,0.8151,,,,,,,,,,,,,,,
,,,,,,,,,,,,,,,,,,,,,,,,,,,,,,,,,,,,,,,,,,,,puck_06s.jpg,1.0,Orange.png,5.0,65,,,,,,,,,,,,,1.0,1.0,0.0,27.0,27.0,27.0,1.0,0.958,,,,,,,,,,,,,,,
,,,,,,,,,,,,,,,,,,,,,,,,,,,,,,,,,,,,,,,,,,,,bee_20s.jpg,0.0,Yellow.png,5.0,65,,,,,,,,,,,,,0.0,1.0,0.0,28.0,28.0,28.0,1.0,1.2806,,,,,,,,,,,,,,,
,,,,,,,,,,,,,,,,,,,,,,,,,,,,,,,,,,,,,,,,,,,,toilet_paper_12s.jpg,0.0,Green.png,5.0,65,,,,,,,,,,,,,0.0,1.0,0.0,29.0,29.0,29.0,1.0,0.7875,,,,,,,,,,,,,,,
,,,,,,,,,,,,,,,,,,,,,,,,,,,,,,,,,,,,,,,,,,,,mud_13s.jpg,0.0,Blue.png,6.0,65,,,,,,,,,,,,,0.0,1.0,0.0,30.0,30.0,30.0,1.0,0.8298,,,,,,,,,,,,,,,
,,,,,,,,,,,,,,,,,,,,,,,,,,,,,,,,,,,,,,,,,,,,measuring_cup_02s.jpg,0.0,Purple.png,6.0,65,,,,,,,,,,,,,0.0,1.0,0.0,31.0,31.0,31.0,1.0,0.807,,,,,,,,,,,,,,,
,,,,,,,,,,,,,,,,,,,,,,,,,,,,,,,,,,,,,,,,,,,,ostrich_06s.jpg,0.0,Red.png,6.0,65,,,,,,,,,,,,,0.0,1.0,0.0,32.0,32.0,32.0,1.0,0.8562,,,,,,,,,,,,,,,
,,,,,,,,,,,,,,,,,,,,,,,,,,,,,,,,,,,,,,,,,,,,raspberry_12s.jpg,0.0,Orange.png,6.0,65,,,,,,,,,,,,,0.0,1.0,0.0,33.0,33.0,33.0,1.0,0.8297,,,,,,,,,,,,,,,
,,,,,,,,,,,,,,,,,,,,,,,,,,,,,,,,,,,,,,,,,,,,mud_13s.jpg,1.0,Yellow.png,6.0,65,,,,,,,,,,,,,1.0,1.0,0.0,34.0,34.0,34.0,1.0,1.0124,,,,,,,,,,,,,,,
,,,,,,,,,,,,,,,,,,,,,,,,,,,,,,,,,,,,,,,,,,,,radiator_05s.jpg,0.0,Green.png,6.0,65,,,,,,,,,,,,,0.0,1.0,0.0,35.0,35.0,35.0,1.0,0.7924,,,,,,,,,,,,,,,
,,,,,,,,,,,,,,,,,,,,,,,,,,,,,,,,,,,,,,,,,,,,,0.0,,,65,,,,,,,,,measuring_cup_02s.jpg,bee_20s.jpg,,,,,,,,,,,1.0,0.0,2.2343,0.0,0.0,0.0,0.0,1.0,,,,,,,
,,,,,,,,,,,,,,,,,,,,,,,,,,,,,,,,,,,,,,,,,,,,,1.0,,,65,,,,,,,,,lipstick_02s.jpg,megaphone_03s.jpg,,,,,,,,,,,0.0,0.0,1.6022,0.0,1.0,1.0,1.0,1.0,,,,,,,
,,,,,,,,,,,,,,,,,,,,,,,,,,,,,,,,,,,,,,,,,,,,,0.0,,,65,,,,,,,,,boomerang_06s.jpg,joystick_01b.jpg,,,,,,,,,,,0.0,1.0,1.9662,0.0,2.0,2.0,2.0,1.0,,,,,,,
,,,,,,,,,,,,,,,,,,,,,,,,,,,,,,,,,,,,,,,,,,,,,0.0,,,65,,,,,,,,,sundae_08s.jpg,fire_pit_10s.jpg,,,,,,,,,,,1.0,0.0,1.4866,0.0,3.0,3.0,3.0,1.0,,,,,,,
,,,,,,,,,,,,,,,,,,,,,,,,,,,,,,,,,,,,,,,,,,,,,0.0,,,65,,,,,,,,,radiator_05s.jpg,ostrich_06s.jpg,,,,,,,,,,,0.0,1.0,1.3622,0.0,4.0,4.0,4.0,1.0,,,,,,,
,,,,,,,,,,,,,,,,,,,,,,,,,,,,,,,,,,,,,,,,,,,,,0.0,,,65,,,,,,,,,ladle_04s.jpg,powder_07s.jpg,,,,,,,,,,,1.0,0.0,1.6281,0.0,5.0,5.0,5.0,1.0,,,,,,,
,,,,,,,,,,,,,,,,,,,,,,,,,,,,,,,,,,,,,,,,,,,,,,,,65,,,,,,,,,,,,,,,,,,,,,,,,,,,,,0.0,2.0,2.0,2.0,1.0,newclockpresent_3_2.xlsx,newclock_compare_task_3_2.xlsx
,,,,,,,,,,,,,,,,,,,,,,,,,,,,,,,,,,,,,,,,,,,,glasses01a.jpg,0.0,Blue.png,1.0,65,,,,,,,,,,,,,0.0,1.0,0.0,0.0,0.0,0.0,1.0,1.4902,,,,,,,,,,,,,,,
,,,,,,,,,,,,,,,,,,,,,,,,,,,,,,,,,,,,,,,,,,,,piano_13n.jpg,0.0,Purple.png,1.0,65,,,,,,,,,,,,,0.0,1.0,0.0,1.0,1.0,1.0,1.0,0.8457,,,,,,,,,,,,,,,
,,,,,,,,,,,,,,,,,,,,,,,,,,,,,,,,,,,,,,,,,,,,candy_cane_06s.jpg,0.0,Red.png,1.0,65,,,,,,,,,,,,,0.0,1.0,0.0,2.0,2.0,2.0,1.0,0.8539,,,,,,,,,,,,,,,
,,,,,,,,,,,,,,,,,,,,,,,,,,,,,,,,,,,,,,,,,,,,cushion_08s.jpg,0.0,Orange.png,1.0,65,,,,,,,,,,,,,0.0,1.0,0.0,3.0,3.0,3.0,1.0,0.9177,,,,,,,,,,,,,,,
,,,,,,,,,,,,,,,,,,,,,,,,,,,,,,,,,,,,,,,,,,,,candy_cane_06s.jpg,1.0,Yellow.png,1.0,65,,,,,,,,,,,,,1.0,1.0,0.0,4.0,4.0,4.0,1.0,1.1778,,,,,,,,,,,,,,,
,,,,,,,,,,,,,,,,,,,,,,,,,,,,,,,,,,,,,,,,,,,,candy_cane_06s.jpg,1.0,Green.png,1.0,65,,,,,,,,,,,,,1.0,1.0,0.0,5.0,5.0,5.0,1.0,0.7968,,,,,,,,,,,,,,,
,,,,,,,,,,,,,,,,,,,,,,,,,,,,,,,,,,,,,,,,,,,,rosary_03s.jpg,0.0,Blue.png,2.0,65,,,,,,,,,,,,,0.0,1.0,0.0,6.0,6.0,6.0,1.0,0.8984,,,,,,,,,,,,,,,
,,,,,,,,,,,,,,,,,,,,,,,,,,,,,,,,,,,,,,,,,,,,rosary_03s.jpg,1.0,Purple.png,2.0,65,,,,,,,,,,,,,0.0,0.0,0.0,7.0,7.0,7.0,1.0,1.7805,,,,,,,,,,,,,,,
,,,,,,,,,,,,,,,,,,,,,,,,,,,,,,,,,,,,,,,,,,,,rosary_03s.jpg,1.0,Red.png,2.0,65,,,,,,,,,,,,,1.0,1.0,0.0,8.0,8.0,8.0,1.0,0.8225,,,,,,,,,,,,,,,
,,,,,,,,,,,,,,,,,,,,,,,,,,,,,,,,,,,,,,,,,,,,rosary_03s.jpg,1.0,Orange.png,2.0,65,,,,,,,,,,,,,1.0,1.0,0.0,9.0,9.0,9.0,1.0,0.6722,,,,,,,,,,,,,,,
,,,,,,,,,,,,,,,,,,,,,,,,,,,,,,,,,,,,,,,,,,,,kangaroo_02s.jpg,0.0,Yellow.png,2.0,65,,,,,,,,,,,,,0.0,1.0,0.0,10.0,10.0,10.0,1.0,0.8665,,,,,,,,,,,,,,,
,,,,,,,,,,,,,,,,,,,,,,,,,,,,,,,,,,,,,,,,,,,,kangaroo_02s.jpg,1.0,Green.png,2.0,65,,,,,,,,,,,,,1.0,1.0,0.0,11.0,11.0,11.0,1.0,0.7275,,,,,,,,,,,,,,,
,,,,,,,,,,,,,,,,,,,,,,,,,,,,,,,,,,,,,,,,,,,,kangaroo_02s.jpg,0.0,Blue.png,3.0,65,,,,,,,,,,,,,1.0,0.0,0.0,12.0,12.0,12.0,1.0,0.7445,,,,,,,,,,,,,,,
,,,,,,,,,,,,,,,,,,,,,,,,,,,,,,,,,,,,,,,,,,,,kangaroo_02s.jpg,1.0,Purple.png,3.0,65,,,,,,,,,,,,,1.0,1.0,0.0,13.0,13.0,13.0,1.0,0.7462,,,,,,,,,,,,,,,
,,,,,,,,,,,,,,,,,,,,,,,,,,,,,,,,,,,,,,,,,,,,ironing_board_07s.jpg,0.0,Red.png,3.0,65,,,,,,,,,,,,,0.0,1.0,0.0,14.0,14.0,14.0,1.0,0.9112,,,,,,,,,,,,,,,
,,,,,,,,,,,,,,,,,,,,,,,,,,,,,,,,,,,,,,,,,,,,kangaroo_02s.jpg,1.0,Orange.png,3.0,65,,,,,,,,,,,,,1.0,1.0,0.0,15.0,15.0,15.0,1.0,0.7121,,,,,,,,,,,,,,,
,,,,,,,,,,,,,,,,,,,,,,,,,,,,,,,,,,,,,,,,,,,,punch2_09s.jpg,0.0,Yellow.png,3.0,65,,,,,,,,,,,,,0.0,1.0,0.0,16.0,16.0,16.0,1.0,0.8714,,,,,,,,,,,,,,,
,,,,,,,,,,,,,,,,,,,,,,,,,,,,,,,,,,,,,,,,,,,,ironing_board_07s.jpg,1.0,Green.png,3.0,65,,,,,,,,,,,,,1.0,1.0,0.0,17.0,17.0,17.0,1.0,0.8296,,,,,,,,,,,,,,,
,,,,,,,,,,,,,,,,,,,,,,,,,,,,,,,,,,,,,,,,,,,,owl_15s.jpg,0.0,Blue.png,4.0,65,,,,,,,,,,,,,0.0,1.0,0.0,18.0,18.0,18.0,1.0,0.7793,,,,,,,,,,,,,,,
,,,,,,,,,,,,,,,,,,,,,,,,,,,,,,,,,,,,,,,,,,,,teabag_12s.jpg,0.0,Purple.png,4.0,65,,,,,,,,,,,,,0.0,1.0,0.0,19.0,19.0,19.0,1.0,1.6972,,,,,,,,,,,,,,,
,,,,,,,,,,,,,,,,,,,,,,,,,,,,,,,,,,,,,,,,,,,,owl_15s.jpg,1.0,Red.png,4.0,65,,,,,,,,,,,,,1.0,1.0,0.0,20.0,20.0,20.0,1.0,1.0554,,,,,,,,,,,,,,,
,,,,,,,,,,,,,,,,,,,,,,,,,,,,,,,,,,,,,,,,,,,,otter_05s.jpg,0.0,Orange.png,4.0,65,,,,,,,,,,,,,0.0,1.0,0.0,21.0,21.0,21.0,1.0,0.9451,,,,,,,,,,,,,,,
,,,,,,,,,,,,,,,,,,,,,,,,,,,,,,,,,,,,,,,,,,,,owl_15s.jpg,1.0,Yellow.png,4.0,65,,,,,,,,,,,,,1.0,1.0,0.0,22.0,22.0,22.0,1.0,1.046,,,,,,,,,,,,,,,
,,,,,,,,,,,,,,,,,,,,,,,,,,,,,,,,,,,,,,,,,,,,mold2_04s.jpg,0.0,Green.png,4.0,65,,,,,,,,,,,,,0.0,1.0,0.0,23.0,23.0,23.0,1.0,1.285,,,,,,,,,,,,,,,
,,,,,,,,,,,,,,,,,,,,,,,,,,,,,,,,,,,,,,,,,,,,mattress_01s.jpg,0.0,Blue.png,5.0,65,,,,,,,,,,,,,0.0,1.0,0.0,24.0,24.0,24.0,1.0,0.7243,,,,,,,,,,,,,,,
,,,,,,,,,,,,,,,,,,,,,,,,,,,,,,,,,,,,,,,,,,,,police_car_01s.jpg,0.0,Purple.png,5.0,65,,,,,,,,,,,,,0.0,1.0,0.0,25.0,25.0,25.0,1.0,0.7796,,,,,,,,,,,,,,,
,,,,,,,,,,,,,,,,,,,,,,,,,,,,,,,,,,,,,,,,,,,,stethoscope_01b.jpg,0.0,Red.png,5.0,65,,,,,,,,,,,,,0.0,1.0,0.0,26.0,26.0,26.0,1.0,0.8729,,,,,,,,,,,,,,,
,,,,,,,,,,,,,,,,,,,,,,,,,,,,,,,,,,,,,,,,,,,,police_car_01s.jpg,1.0,Orange.png,5.0,65,,,,,,,,,,,,,1.0,1.0,0.0,27.0,27.0,27.0,1.0,1.1269,,,,,,,,,,,,,,,
,,,,,,,,,,,,,,,,,,,,,,,,,,,,,,,,,,,,,,,,,,,,sparkler_02s.jpg,0.0,Yellow.png,5.0,65,,,,,,,,,,,,,0.0,1.0,0.0,28.0,28.0,28.0,1.0,0.7429,,,,,,,,,,,,,,,
,,,,,,,,,,,,,,,,,,,,,,,,,,,,,,,,,,,,,,,,,,,,pacifier_09s.jpg,0.0,Green.png,5.0,65,,,,,,,,,,,,,0.0,1.0,0.0,29.0,29.0,29.0,1.0,0.8944,,,,,,,,,,,,,,,
,,,,,,,,,,,,,,,,,,,,,,,,,,,,,,,,,,,,,,,,,,,,machine_gun_09s.jpg,0.0,Blue.png,6.0,65,,,,,,,,,,,,,0.0,1.0,0.0,30.0,30.0,30.0,1.0,0.8419,,,,,,,,,,,,,,,
,,,,,,,,,,,,,,,,,,,,,,,,,,,,,,,,,,,,,,,,,,,,ram_05s.jpg,0.0,Purple.png,6.0,65,,,,,,,,,,,,,0.0,1.0,0.0,31.0,31.0,31.0,1.0,0.929,,,,,,,,,,,,,,,
,,,,,,,,,,,,,,,,,,,,,,,,,,,,,,,,,,,,,,,,,,,,keyboard_05s.jpg,0.0,Red.png,6.0,65,,,,,,,,,,,,,0.0,1.0,0.0,32.0,32.0,32.0,1.0,0.759,,,,,,,,,,,,,,,
,,,,,,,,,,,,,,,,,,,,,,,,,,,,,,,,,,,,,,,,,,,,leash_10s.jpg,0.0,Orange.png,6.0,65,,,,,,,,,,,,,0.0,1.0,0.0,33.0,33.0,33.0,1.0,0.8288,,,,,,,,,,,,,,,
,,,,,,,,,,,,,,,,,,,,,,,,,,,,,,,,,,,,,,,,,,,,pan_02s.jpg,0.0,Yellow.png,6.0,65,,,,,,,,,,,,,0.0,1.0,0.0,34.0,34.0,34.0,1.0,0.7975,,,,,,,,,,,,,,,
,,,,,,,,,,,,,,,,,,,,,,,,,,,,,,,,,,,,,,,,,,,,mixer_12s.jpg,0.0,Green.png,6.0,65,,,,,,,,,,,,,0.0,1.0,0.0,35.0,35.0,35.0,1.0,1.9108,,,,,,,,,,,,,,,
,,,,,,,,,,,,,,,,,,,,,,,,,,,,,,,,,,,,,,,,,,,,,0.0,,,65,,,,,,,,,teabag_12s.jpg,punch2_09s.jpg,,,,,,,,,,,0.0,1.0,2.0626,0.0,0.0,0.0,0.0,1.0,,,,,,,
,,,,,,,,,,,,,,,,,,,,,,,,,,,,,,,,,,,,,,,,,,,,,0.0,,,65,,,,,,,,,mattress_01s.jpg,otter_05s.jpg,,,,,,,,,,,0.0,1.0,1.4472,0.0,1.0,1.0,1.0,1.0,,,,,,,
,,,,,,,,,,,,,,,,,,,,,,,,,,,,,,,,,,,,,,,,,,,,,0.0,,,65,,,,,,,,,stethoscope_01b.jpg,mold2_04s.jpg,,,,,,,,,,,1.0,0.0,1.4532,0.0,2.0,2.0,2.0,1.0,,,,,,,
,,,,,,,,,,,,,,,,,,,,,,,,,,,,,,,,,,,,,,,,,,,,,1.0,,,65,,,,,,,,,glasses01a.jpg,cushion_08s.jpg,,,,,,,,,,,0.0,0.0,1.6536,0.0,3.0,3.0,3.0,1.0,,,,,,,
,,,,,,,,,,,,,,,,,,,,,,,,,,,,,,,,,,,,,,,,,,,,,1.0,,,65,,,,,,,,,machine_gun_09s.jpg,leash_10s.jpg,,,,,,,,,,,1.0,1.0,1.5617,0.0,4.0,4.0,4.0,1.0,,,,,,,
,,,,,,,,,,,,,,,,,,,,,,,,,,,,,,,,,,,,,,,,,,,,,0.0,,,65,,,,,,,,,pan_02s.jpg,ram_05s.jpg,,,,,,,,,,,0.0,1.0,1.3927,0.0,5.0,5.0,5.0,1.0,,,,,,,
,,,,,,,,,,,,,,,,,,,,,,,,,,,,,,,,,,,,,,,,,,,,,,,,65,,,,,,,,,,,,,,,,,,,,,,,,,,,,,0.0,3.0,3.0,3.0,1.0,newclockpresent_4_2.xlsx,newclock_compare_task_4_2.xlsx
,,,,,,,,,,,,,,,,,,,,,,,,,,,,,,,,,,,,,,,,,,,,golf_club_03s.jpg,0.0,Blue.png,1.0,65,,,,,,,,,,,,,0.0,1.0,0.0,0.0,0.0,0.0,1.0,1.198,,,,,,,,,,,,,,,
,,,,,,,,,,,,,,,,,,,,,,,,,,,,,,,,,,,,,,,,,,,,golf_club_03s.jpg,1.0,Purple.png,1.0,65,,,,,,,,,,,,,1.0,1.0,0.0,1.0,1.0,1.0,1.0,0.5218,,,,,,,,,,,,,,,
,,,,,,,,,,,,,,,,,,,,,,,,,,,,,,,,,,,,,,,,,,,,golf_club_03s.jpg,1.0,Red.png,1.0,65,,,,,,,,,,,,,1.0,1.0,0.0,2.0,2.0,2.0,1.0,0.6128,,,,,,,,,,,,,,,
,,,,,,,,,,,,,,,,,,,,,,,,,,,,,,,,,,,,,,,,,,,,turnstile_08s.jpg,0.0,Orange.png,1.0,65,,,,,,,,,,,,,0.0,1.0,0.0,3.0,3.0,3.0,1.0,0.6746,,,,,,,,,,,,,,,
,,,,,,,,,,,,,,,,,,,,,,,,,,,,,,,,,,,,,,,,,,,,golf_club_03s.jpg,1.0,Yellow.png,1.0,65,,,,,,,,,,,,,1.0,1.0,0.0,4.0,4.0,4.0,1.0,0.7056,,,,,,,,,,,,,,,
,,,,,,,,,,,,,,,,,,,,,,,,,,,,,,,,,,,,,,,,,,,,milk_02s.jpg,0.0,Green.png,1.0,65,,,,,,,,,,,,,0.0,1.0,0.0,5.0,5.0,5.0,1.0,0.8737,,,,,,,,,,,,,,,
,,,,,,,,,,,,,,,,,,,,,,,,,,,,,,,,,,,,,,,,,,,,orange_12s.jpg,0.0,Blue.png,2.0,65,,,,,,,,,,,,,0.0,1.0,0.0,6.0,6.0,6.0,1.0,0.9019,,,,,,,,,,,,,,,
,,,,,,,,,,,,,,,,,,,,,,,,,,,,,,,,,,,,,,,,,,,,milk_02s.jpg,0.0,Purple.png,2.0,65,,,,,,,,,,,,,1.0,0.0,0.0,7.0,7.0,7.0,1.0,1.9768,,,,,,,,,,,,,,,
,,,,,,,,,,,,,,,,,,,,,,,,,,,,,,,,,,,,,,,,,,,,latch_15s.jpg,0.0,Red.png,2.0,65,,,,,,,,,,,,,0.0,1.0,0.0,8.0,8.0,8.0,1.0,2.1459,,,,,,,,,,,,,,,
,,,,,,,,,,,,,,,,,,,,,,,,,,,,,,,,,,,,,,,,,,,,bank_06s.jpg,0.0,Orange.png,2.0,65,,,,,,,,,,,,,0.0,1.0,0.0,9.0,9.0,9.0,1.0,0.7972,,,,,,,,,,,,,,,
,,,,,,,,,,,,,,,,,,,,,,,,,,,,,,,,,,,,,,,,,,,,milk_02s.jpg,1.0,Yellow.png,2.0,65,,,,,,,,,,,,,1.0,1.0,0.0,10.0,10.0,10.0,1.0,0.6469,,,,,,,,,,,,,,,
,,,,,,,,,,,,,,,,,,,,,,,,,,,,,,,,,,,,,,,,,,,,crab_16s.jpg,0.0,Green.png,2.0,65,,,,,,,,,,,,,0.0,1.0,0.0,11.0,11.0,11.0,1.0,0.7747,,,,,,,,,,,,,,,
,,,,,,,,,,,,,,,,,,,,,,,,,,,,,,,,,,,,,,,,,,,,birdcage_08s.jpg,0.0,Blue.png,3.0,65,,,,,,,,,,,,,0.0,1.0,0.0,12.0,12.0,12.0,1.0,1.5637,,,,,,,,,,,,,,,
,,,,,,,,,,,,,,,,,,,,,,,,,,,,,,,,,,,,,,,,,,,,spider_web_03s.jpg,0.0,Purple.png,3.0,65,,,,,,,,,,,,,0.0,1.0,0.0,13.0,13.0,13.0,1.0,1.2258,,,,,,,,,,,,,,,
,,,,,,,,,,,,,,,,,,,,,,,,,,,,,,,,,,,,,,,,,,,,knitting_needle_04s.jpg,0.0,Red.png,3.0,65,,,,,,,,,,,,,0.0,1.0,0.0,14.0,14.0,14.0,1.0,1.2376,,,,,,,,,,,,,,,
,,,,,,,,,,,,,,,,,,,,,,,,,,,,,,,,,,,,,,,,,,,,sugar_cube_11s.jpg,0.0,Orange.png,3.0,65,,,,,,,,,,,,,0.0,1.0,0.0,15.0,15.0,15.0,1.0,0.7128,,,,,,,,,,,,,,,
,,,,,,,,,,,,,,,,,,,,,,,,,,,,,,,,,,,,,,,,,,,,light_switch_02s.jpg,0.0,Yellow.png,3.0,65,,,,,,,,,,,,,0.0,1.0,0.0,16.0,16.0,16.0,1.0,1.521,,,,,,,,,,,,,,,
,,,,,,,,,,,,,,,,,,,,,,,,,,,,,,,,,,,,,,,,,,,,gear_07s.jpg,0.0,Green.png,3.0,65,,,,,,,,,,,,,0.0,1.0,0.0,17.0,17.0,17.0,1.0,0.8087,,,,,,,,,,,,,,,
,,,,,,,,,,,,,,,,,,,,,,,,,,,,,,,,,,,,,,,,,,,,tongs_08s.jpg,0.0,Blue.png,4.0,65,,,,,,,,,,,,,0.0,1.0,0.0,18.0,18.0,18.0,1.0,0.639,,,,,,,,,,,,,,,
,,,,,,,,,,,,,,,,,,,,,,,,,,,,,,,,,,,,,,,,,,,,recliner_02s.jpg,0.0,Purple.png,4.0,65,,,,,,,,,,,,,0.0,1.0,0.0,19.0,19.0,19.0,1.0,0.7025,,,,,,,,,,,,,,,
,,,,,,,,,,,,,,,,,,,,,,,,,,,,,,,,,,,,,,,,,,,,orangutan_03s.jpg,0.0,Red.png,4.0,65,,,,,,,,,,,,,0.0,1.0,0.0,20.0,20.0,20.0,1.0,0.7226,,,,,,,,,,,,,,,
,,,,,,,,,,,,,,,,,,,,,,,,,,,,,,,,,,,,,,,,,,,,golf_club_03s.jpg,0.0,Orange.png,4.0,65,,,,,,,,,,,,,1.0,0.0,0.0,21.0,21.0,21.0,1.0,1.0761,,,,,,,,,,,,,,,
,,,,,,,,,,,,,,,,,,,,,,,,,,,,,,,,,,,,,,,,,,,,lava_02s.jpg,0.0,Yellow.png,4.0,65,,,,,,,,,,,,,0.0,1.0,0.0,22.0,22.0,22.0,1.0,1.1964,,,,,,,,,,,,,,,
,,,,,,,,,,,,,,,,,,,,,,,,,,,,,,,,,,,,,,,,,,,,toilet_07s.jpg,0.0,Green.png,4.0,65,,,,,,,,,,,,,0.0,1.0,0.0,23.0,23.0,23.0,1.0,0.8574,,,,,,,,,,,,,,,
,,,,,,,,,,,,,,,,,,,,,,,,,,,,,,,,,,,,,,,,,,,,turnstile_08s.jpg,0.0,Blue.png,5.0,65,,,,,,,,,,,,,0.0,1.0,0.0,24.0,24.0,24.0,1.0,1.313,,,,,,,,,,,,,,,
,,,,,,,,,,,,,,,,,,,,,,,,,,,,,,,,,,,,,,,,,,,,turnstile_08s.jpg,1.0,Purple.png,5.0,65,,,,,,,,,,,,,1.0,1.0,0.0,25.0,25.0,25.0,1.0,1.0511,,,,,,,,,,,,,,,
,,,,,,,,,,,,,,,,,,,,,,,,,,,,,,,,,,,,,,,,,,,,teacup_07s.jpg,0.0,Red.png,5.0,65,,,,,,,,,,,,,0.0,1.0,0.0,26.0,26.0,26.0,1.0,0.7799,,,,,,,,,,,,,,,
,,,,,,,,,,,,,,,,,,,,,,,,,,,,,,,,,,,,,,,,,,,,turnstile_08s.jpg,1.0,Orange.png,5.0,65,,,,,,,,,,,,,1.0,1.0,0.0,27.0,27.0,27.0,1.0,1.0805,,,,,,,,,,,,,,,
,,,,,,,,,,,,,,,,,,,,,,,,,,,,,,,,,,,,,,,,,,,,turnstile_08s.jpg,1.0,Yellow.png,5.0,65,,,,,,,,,,,,,1.0,1.0,0.0,28.0,28.0,28.0,1.0,0.6274,,,,,,,,,,,,,,,
,,,,,,,,,,,,,,,,,,,,,,,,,,,,,,,,,,,,,,,,,,,,antenna_01b.jpg,0.0,Green.png,5.0,65,,,,,,,,,,,,,0.0,1.0,0.0,29.0,29.0,29.0,1.0,0.7565,,,,,,,,,,,,,,,
,,,,,,,,,,,,,,,,,,,,,,,,,,,,,,,,,,,,,,,,,,,,keyhole_03s.jpg,0.0,Blue.png,6.0,65,,,,,,,,,,,,,0.0,1.0,0.0,30.0,30.0,30.0,1.0,1.0401,,,,,,,,,,,,,,,
,,,,,,,,,,,,,,,,,,,,,,,,,,,,,,,,,,,,,,,,,,,,air_pump_05s.jpg,0.0,Purple.png,6.0,65,,,,,,,,,,,,,0.0,1.0,0.0,31.0,31.0,31.0,1.0,0.8573,,,,,,,,,,,,,,,
,,,,,,,,,,,,,,,,,,,,,,,,,,,,,,,,,,,,,,,,,,,,eggshell_14s.jpg,0.0,Red.png,6.0,65,,,,,,,,,,,,,0.0,1.0,0.0,32.0,32.0,32.0,1.0,0.7788,,,,,,,,,,,,,,,
,,,,,,,,,,,,,,,,,,,,,,,,,,,,,,,,,,,,,,,,,,,,eyedropper_12s.jpg,0.0,Orange.png,6.0,65,,,,,,,,,,,,,0.0,1.0,0.0,33.0,33.0,33.0,1.0,0.872,,,,,,,,,,,,,,,
,,,,,,,,,,,,,,,,,,,,,,,,,,,,,,,,,,,,,,,,,,,,machete_06s.jpg,0.0,Yellow.png,6.0,65,,,,,,,,,,,,,0.0,1.0,0.0,34.0,34.0,34.0,1.0,0.6887,,,,,,,,,,,,,,,
,,,,,,,,,,,,,,,,,,,,,,,,,,,,,,,,,,,,,,,,,,,,eyedropper_12s.jpg,1.0,Green.png,6.0,65,,,,,,,,,,,,,1.0,1.0,0.0,35.0,35.0,35.0,1.0,1.6257,,,,,,,,,,,,,,,
,,,,,,,,,,,,,,,,,,,,,,,,,,,,,,,,,,,,,,,,,,,,,1.0,,,65,,,,,,,,,sugar_cube_11s.jpg,tongs_08s.jpg,,,,,,,,,,,0.0,0.0,1.3293,0.0,0.0,0.0,0.0,1.0,,,,,,,
,,,,,,,,,,,,,,,,,,,,,,,,,,,,,,,,,,,,,,,,,,,,,1.0,,,65,,,,,,,,,antenna_01b.jpg,eggshell_14s.jpg,,,,,,,,,,,0.0,0.0,1.4381,0.0,1.0,1.0,1.0,1.0,,,,,,,
,,,,,,,,,,,,,,,,,,,,,,,,,,,,,,,,,,,,,,,,,,,,,1.0,,,65,,,,,,,,,bank_06s.jpg,birdcage_08s.jpg,,,,,,,,,,,1.0,1.0,1.906,0.0,2.0,2.0,2.0,1.0,,,,,,,
,,,,,,,,,,,,,,,,,,,,,,,,,,,,,,,,,,,,,,,,,,,,,1.0,,,65,,,,,,,,,air_pump_05s.jpg,machete_06s.jpg,,,,,,,,,,,1.0,1.0,1.5192,0.0,3.0,3.0,3.0,1.0,,,,,,,
,,,,,,,,,,,,,,,,,,,,,,,,,,,,,,,,,,,,,,,,,,,,,1.0,,,65,,,,,,,,,latch_15s.jpg,crab_16s.jpg,,,,,,,,,,,0.0,0.0,1.2884,0.0,4.0,4.0,4.0,1.0,,,,,,,
,,,,,,,,,,,,,,,,,,,,,,,,,,,,,,,,,,,,,,,,,,,,,1.0,,,65,,,,,,,,,spider_web_03s.jpg,light_switch_02s.jpg,,,,,,,,,,,0.0,0.0,1.8059,0.0,5.0,5.0,5.0,1.0,,,,,,,
,,,,,,,,,,,,,,,,,,,,,,,,,,,,,,,,,,,,,,,,,,,,,,,,65,,,,,,,,,,,,,,,,,,,,,,,,,,,,,0.0,4.0,4.0,4.0,1.0,newclockpresent_5_2.xlsx,newclock_compare_task_5_2.xlsx
,,,,,,,,,,,,,,,,,,,,,,,,,,,,,,,,,,,,,,,,,,,,gazelle_10s.jpg,0.0,Blue.png,1.0,65,,,,,,,,,,,,,0.0,1.0,0.0,0.0,0.0,0.0,1.0,1.766,,,,,,,,,,,,,,,
,,,,,,,,,,,,,,,,,,,,,,,,,,,,,,,,,,,,,,,,,,,,saddle_06s.jpg,0.0,Purple.png,1.0,65,,,,,,,,,,,,,0.0,1.0,0.0,1.0,1.0,1.0,1.0,0.6522,,,,,,,,,,,,,,,
,,,,,,,,,,,,,,,,,,,,,,,,,,,,,,,,,,,,,,,,,,,,saddle_06s.jpg,1.0,Red.png,1.0,65,,,,,,,,,,,,,1.0,1.0,0.0,2.0,2.0,2.0,1.0,0.8567,,,,,,,,,,,,,,,
,,,,,,,,,,,,,,,,,,,,,,,,,,,,,,,,,,,,,,,,,,,,kimono_13s.jpg,0.0,Orange.png,1.0,65,,,,,,,,,,,,,0.0,1.0,0.0,3.0,3.0,3.0,1.0,0.661,,,,,,,,,,,,,,,
,,,,,,,,,,,,,,,,,,,,,,,,,,,,,,,,,,,,,,,,,,,,timer_03s.jpg,0.0,Yellow.png,1.0,65,,,,,,,,,,,,,0.0,1.0,0.0,4.0,4.0,4.0,1.0,0.9458,,,,,,,,,,,,,,,
,,,,,,,,,,,,,,,,,,,,,,,,,,,,,,,,,,,,,,,,,,,,tulip_02s.jpg,0.0,Green.png,1.0,65,,,,,,,,,,,,,0.0,1.0,0.0,5.0,5.0,5.0,1.0,0.6836,,,,,,,,,,,,,,,
,,,,,,,,,,,,,,,,,,,,,,,,,,,,,,,,,,,,,,,,,,,,prism_10s.jpg,0.0,Blue.png,2.0,65,,,,,,,,,,,,,0.0,1.0,0.0,6.0,6.0,6.0,1.0,1.1434,,,,,,,,,,,,,,,
,,,,,,,,,,,,,,,,,,,,,,,,,,,,,,,,,,,,,,,,,,,,razor_12s.jpg,0.0,Purple.png,2.0,65,,,,,,,,,,,,,0.0,1.0,0.0,7.0,7.0,7.0,1.0,0.9645,,,,,,,,,,,,,,,
,,,,,,,,,,,,,,,,,,,,,,,,,,,,,,,,,,,,,,,,,,,,blazer_02s.jpg,0.0,Red.png,2.0,65,,,,,,,,,,,,,0.0,1.0,0.0,8.0,8.0,8.0,1.0,1.115,,,,,,,,,,,,,,,
,,,,,,,,,,,,,,,,,,,,,,,,,,,,,,,,,,,,,,,,,,,,razor_12s.jpg,1.0,Orange.png,2.0,65,,,,,,,,,,,,,1.0,1.0,0.0,9.0,9.0,9.0,1.0,0.7871,,,,,,,,,,,,,,,
,,,,,,,,,,,,,,,,,,,,,,,,,,,,,,,,,,,,,,,,,,,,lamb_chop_07s.jpg,0.0,Yellow.png,2.0,65,,,,,,,,,,,,,0.0,1.0,0.0,10.0,10.0,10.0,1.0,0.7414,,,,,,,,,,,,,,,
,,,,,,,,,,,,,,,,,,,,,,,,,,,,,,,,,,,,,,,,,,,,razor_12s.jpg,1.0,Green.png,2.0,65,,,,,,,,,,,,,1.0,1.0,0.0,11.0,11.0,11.0,1.0,1.2989,,,,,,,,,,,,,,,
,,,,,,,,,,,,,,,,,,,,,,,,,,,,,,,,,,,,,,,,,,,,lamb_chop_07s.jpg,0.0,Blue.png,3.0,65,,,,,,,,,,,,,1.0,0.0,0.0,12.0,12.0,12.0,1.0,1.3457,,,,,,,,,,,,,,,
,,,,,,,,,,,,,,,,,,,,,,,,,,,,,,,,,,,,,,,,,,,,lamb_chop_07s.jpg,1.0,Purple.png,3.0,65,,,,,,,,,,,,,1.0,1.0,0.0,13.0,13.0,13.0,1.0,0.6916,,,,,,,,,,,,,,,
,,,,,,,,,,,,,,,,,,,,,,,,,,,,,,,,,,,,,,,,,,,,timer_03s.jpg,0.0,Red.png,3.0,65,,,,,,,,,,,,,0.0,1.0,0.0,14.0,14.0,14.0,1.0,1.6988,,,,,,,,,,,,,,,
,,,,,,,,,,,,,,,,,,,,,,,,,,,,,,,,,,,,,,,,,,,,lamb_chop_07s.jpg,1.0,Orange.png,3.0,65,,,,,,,,,,,,,1.0,1.0,0.0,15.0,15.0,15.0,1.0,1.7449,,,,,,,,,,,,,,,
,,,,,,,,,,,,,,,,,,,,,,,,,,,,,,,,,,,,,,,,,,,,glue_01s.jpg,0.0,Yellow.png,3.0,65,,,,,,,,,,,,,0.0,1.0,0.0,16.0,16.0,16.0,1.0,0.7479,,,,,,,,,,,,,,,
,,,,,,,,,,,,,,,,,,,,,,,,,,,,,,,,,,,,,,,,,,,,solar_panel_02s.jpg,0.0,Green.png,3.0,65,,,,,,,,,,,,,0.0,1.0,0.0,17.0,17.0,17.0,1.0,0.9127,,,,,,,,,,,,,,,
,,,,,,,,,,,,,,,,,,,,,,,,,,,,,,,,,,,,,,,,,,,,muffin_12n.jpg,0.0,Blue.png,4.0,65,,,,,,,,,,,,,0.0,1.0,0.0,18.0,18.0,18.0,1.0,0.6607,,,,,,,,,,,,,,,
,,,,,,,,,,,,,,,,,,,,,,,,,,,,,,,,,,,,,,,,,,,,pepper2_21s.jpg,0.0,Purple.png,4.0,65,,,,,,,,,,,,,0.0,1.0,0.0,19.0,19.0,19.0,1.0,0.6669,,,,,,,,,,,,,,,
,,,,,,,,,,,,,,,,,,,,,,,,,,,,,,,,,,,,,,,,,,,,marker_05s.jpg,0.0,Red.png,4.0,65,,,,,,,,,,,,,0.0,1.0,0.0,20.0,20.0,20.0,1.0,0.7137,,,,,,,,,,,,,,,
,,,,,,,,,,,,,,,,,,,,,,,,,,,,,,,,,,,,,,,,,,,,soccer_ball_12s.jpg,0.0,Orange.png,4.0,65,,,,,,,,,,,,,0.0,1.0,0.0,21.0,21.0,21.0,1.0,0.6817,,,,,,,,,,,,,,,
,,,,,,,,,,,,,,,,,,,,,,,,,,,,,,,,,,,,,,,,,,,,amber_04s.jpg,0.0,Yellow.png,4.0,65,,,,,,,,,,,,,0.0,1.0,0.0,22.0,22.0,22.0,1.0,0.7263,,,,,,,,,,,,,,,
,,,,,,,,,,,,,,,,,,,,,,,,,,,,,,,,,,,,,,,,,,,,stopwatch_04s.jpg,0.0,Green.png,4.0,65,,,,,,,,,,,,,0.0,1.0,0.0,23.0,23.0,23.0,1.0,0.8439,,,,,,,,,,,,,,,
,,,,,,,,,,,,,,,,,,,,,,,,,,,,,,,,,,,,,,,,,,,,amber_04s.jpg,0.0,Blue.png,5.0,65,,,,,,,,,,,,,1.0,0.0,0.0,24.0,24.0,24.0,1.0,1.9139,,,,,,,,,,,,,,,
,,,,,,,,,,,,,,,,,,,,,,,,,,,,,,,,,,,,,,,,,,,,racehorse_03s.jpg,0.0,Purple.png,5.0,65,,,,,,,,,,,,,0.0,1.0,0.0,25.0,25.0,25.0,1.0,0.6308,,,,,,,,,,,,,,,
,,,,,,,,,,,,,,,,,,,,,,,,,,,,,,,,,,,,,,,,,,,,amber_04s.jpg,1.0,Red.png,5.0,65,,,,,,,,,,,,,1.0,1.0,0.0,26.0,26.0,26.0,1.0,1.6306,,,,,,,,,,,,,,,
,,,,,,,,,,,,,,,,,,,,,,,,,,,,,,,,,,,,,,,,,,,,duck_01b.jpg,0.0,Orange.png,5.0,65,,,,,,,,,,,,,0.0,1.0,0.0,27.0,27.0,27.0,1.0,1.0747,,,,,,,,,,,,,,,
,,,,,,,,,,,,,,,,,,,,,,,,,,,,,,,,,,,,,,,,,,,,amber_04s.jpg,1.0,Yellow.png,5.0,65,,,,,,,,,,,,,1.0,1.0,0.0,28.0,28.0,28.0,1.0,1.711,,,,,,,,,,,,,,,
,,,,,,,,,,,,,,,,,,,,,,,,,,,,,,,,,,,,,,,,,,,,duck_01b.jpg,1.0,Green.png,5.0,65,,,,,,,,,,,,,1.0,1.0,0.0,29.0,29.0,29.0,1.0,2.1793,,,,,,,,,,,,,,,
,,,,,,,,,,,,,,,,,,,,,,,,,,,,,,,,,,,,,,,,,,,,duck_01b.jpg,0.0,Blue.png,6.0,65,,,,,,,,,,,,,1.0,0.0,0.0,30.0,30.0,30.0,1.0,0.6793,,,,,,,,,,,,,,,
,,,,,,,,,,,,,,,,,,,,,,,,,,,,,,,,,,,,,,,,,,,,duck_01b.jpg,1.0,Purple.png,6.0,65,,,,,,,,,,,,,1.0,1.0,0.0,31.0,31.0,31.0,1.0,0.5184,,,,,,,,,,,,,,,
,,,,,,,,,,,,,,,,,,,,,,,,,,,,,,,,,,,,,,,,,,,,magnet_03s.jpg,0.0,Red.png,6.0,65,,,,,,,,,,,,,0.0,1.0,0.0,32.0,32.0,32.0,1.0,2.0305,,,,,,,,,,,,,,,
,,,,,,,,,,,,,,,,,,,,,,,,,,,,,,,,,,,,,,,,,,,,duck_01b.jpg,1.0,Orange.png,6.0,65,,,,,,,,,,,,,1.0,1.0,0.0,33.0,33.0,33.0,1.0,1.6243,,,,,,,,,,,,,,,
,,,,,,,,,,,,,,,,,,,,,,,,,,,,,,,,,,,,,,,,,,,,swimming_pool_17s.jpg,0.0,Yellow.png,6.0,65,,,,,,,,,,,,,0.0,1.0,0.0,34.0,34.0,34.0,1.0,0.7649,,,,,,,,,,,,,,,
,,,,,,,,,,,,,,,,,,,,,,,,,,,,,,,,,,,,,,,,,,,,roulette_wheel_04s.jpg,0.0,Green.png,6.0,65,,,,,,,,,,,,,0.0,1.0,0.0,35.0,35.0,35.0,1.0,0.857,,,,,,,,,,,,,,,
,,,,,,,,,,,,,,,,,,,,,,,,,,,,,,,,,,,,,,,,,,,,,0.0,,,65,,,,,,,,,blazer_02s.jpg,tulip_02s.jpg,,,,,,,,,,,0.0,1.0,1.8739,0.0,0.0,0.0,0.0,1.0,,,,,,,
,,,,,,,,,,,,,,,,,,,,,,,,,,,,,,,,,,,,,,,,,,,,,1.0,,,65,,,,,,,,,glue_01s.jpg,pepper2_21s.jpg,,,,,,,,,,,1.0,1.0,2.2157,0.0,1.0,1.0,1.0,1.0,,,,,,,
,,,,,,,,,,,,,,,,,,,,,,,,,,,,,,,,,,,,,,,,,,,,,1.0,,,65,,,,,,,,,kimono_13s.jpg,prism_10s.jpg,,,,,,,,,,,0.0,0.0,1.9093,0.0,2.0,2.0,2.0,1.0,,,,,,,
,,,,,,,,,,,,,,,,,,,,,,,,,,,,,,,,,,,,,,,,,,,,,0.0,,,65,,,,,,,,,soccer_ball_12s.jpg,muffin_12n.jpg,,,,,,,,,,,0.0,1.0,1.1646,0.0,3.0,3.0,3.0,1.0,,,,,,,
,,,,,,,,,,,,,,,,,,,,,,,,,,,,,,,,,,,,,,,,,,,,,1.0,,,65,,,,,,,,,magnet_03s.jpg,roulette_wheel_04s.jpg,,,,,,,,,,,0.0,0.0,1.9822,0.0,4.0,4.0,4.0,1.0,,,,,,,
,,,,,,,,,,,,,,,,,,,,,,,,,,,,,,,,,,,,,,,,,,,,,0.0,,,65,,,,,,,,,stopwatch_04s.jpg,marker_05s.jpg,,,,,,,,,,,1.0,0.0,1.3802,0.0,5.0,5.0,5.0,1.0,,,,,,,
,,,,,,,,,,,,,,,,,,,,,,,,,,,,,,,,,,,,,,,,,,,,,,,,65,,,,,,,,,,,,,,,,,,,,,,,,,,,,,0.0,5.0,5.0,5.0,1.0,newclockpresent_6_2.xlsx,newclock_compare_task_6_2.xlsx
,,,,,,,,,,,,,,,,,,,,,,,,,,,,,,,,,,,,,,,,,,,,slingshot_07s.jpg,0.0,Blue.png,1.0,65,,,,,,,,,,,,,0.0,1.0,0.0,0.0,0.0,0.0,1.0,1.3536,,,,,,,,,,,,,,,
,,,,,,,,,,,,,,,,,,,,,,,,,,,,,,,,,,,,,,,,,,,,slingshot_07s.jpg,1.0,Purple.png,1.0,65,,,,,,,,,,,,,1.0,1.0,0.0,1.0,1.0,1.0,1.0,0.7328,,,,,,,,,,,,,,,
,,,,,,,,,,,,,,,,,,,,,,,,,,,,,,,,,,,,,,,,,,,,aluminum_foil_08s.jpg,0.0,Red.png,1.0,65,,,,,,,,,,,,,0.0,1.0,0.0,2.0,2.0,2.0,1.0,0.7075,,,,,,,,,,,,,,,
,,,,,,,,,,,,,,,,,,,,,,,,,,,,,,,,,,,,,,,,,,,,ink_08s.jpg,0.0,Orange.png,1.0,65,,,,,,,,,,,,,0.0,1.0,0.0,3.0,3.0,3.0,1.0,1.0816,,,,,,,,,,,,,,,
,,,,,,,,,,,,,,,,,,,,,,,,,,,,,,,,,,,,,,,,,,,,aluminum_foil_08s.jpg,1.0,Yellow.png,1.0,65,,,,,,,,,,,,,1.0,1.0,0.0,4.0,4.0,4.0,1.0,0.897,,,,,,,,,,,,,,,
,,,,,,,,,,,,,,,,,,,,,,,,,,,,,,,,,,,,,,,,,,,,slingshot_07s.jpg,1.0,Green.png,1.0,65,,,,,,,,,,,,,1.0,1.0,0.0,5.0,5.0,5.0,1.0,1.377,,,,,,,,,,,,,,,
,,,,,,,,,,,,,,,,,,,,,,,,,,,,,,,,,,,,,,,,,,,,aluminum_foil_08s.jpg,0.0,Blue.png,2.0,65,,,,,,,,,,,,,1.0,0.0,0.0,6.0,6.0,6.0,1.0,0.9016,,,,,,,,,,,,,,,
,,,,,,,,,,,,,,,,,,,,,,,,,,,,,,,,,,,,,,,,,,,,aluminum_foil_08s.jpg,1.0,Purple.png,2.0,65,,,,,,,,,,,,,1.0,1.0,0.0,7.0,7.0,7.0,1.0,0.7461,,,,,,,,,,,,,,,
,,,,,,,,,,,,,,,,,,,,,,,,,,,,,,,,,,,,,,,,,,,,ice-cream_cone_06s.jpg,0.0,Red.png,2.0,65,,,,,,,,,,,,,0.0,1.0,0.0,8.0,8.0,8.0,1.0,1.8399,,,,,,,,,,,,,,,
,,,,,,,,,,,,,,,,,,,,,,,,,,,,,,,,,,,,,,,,,,,,ink_08s.jpg,0.0,Orange.png,2.0,65,,,,,,,,,,,,,1.0,0.0,0.0,9.0,9.0,9.0,1.0,0.9785,,,,,,,,,,,,,,,
,,,,,,,,,,,,,,,,,,,,,,,,,,,,,,,,,,,,,,,,,,,,emerald_02s.jpg,0.0,Yellow.png,2.0,65,,,,,,,,,,,,,0.0,1.0,0.0,10.0,10.0,10.0,1.0,0.7698,,,,,,,,,,,,,,,
,,,,,,,,,,,,,,,,,,,,,,,,,,,,,,,,,,,,,,,,,,,,bathtub_23s.jpg,0.0,Green.png,2.0,65,,,,,,,,,,,,,0.0,1.0,0.0,11.0,11.0,11.0,1.0,0.8817,,,,,,,,,,,,,,,
,,,,,,,,,,,,,,,,,,,,,,,,,,,,,,,,,,,,,,,,,,,,bubble_01b.jpg,0.0,Blue.png,3.0,65,,,,,,,,,,,,,0.0,1.0,0.0,12.0,12.0,12.0,1.0,1.2582,,,,,,,,,,,,,,,
,,,,,,,,,,,,,,,,,,,,,,,,,,,,,,,,,,,,,,,,,,,,mirror_12s.jpg,0.0,Purple.png,3.0,65,,,,,,,,,,,,,0.0,1.0,0.0,13.0,13.0,13.0,1.0,1.7462,,,,,,,,,,,,,,,
,,,,,,,,,,,,,,,,,,,,,,,,,,,,,,,,,,,,,,,,,,,,swing_set_15s.jpg,0.0,Red.png,3.0,65,,,,,,,,,,,,,0.0,1.0,0.0,14.0,14.0,14.0,1.0,1.8073,,,,,,,,,,,,,,,
,,,,,,,,,,,,,,,,,,,,,,,,,,,,,,,,,,,,,,,,,,,,pinwheel_06s.jpg,0.0,Orange.png,3.0,65,,,,,,,,,,,,,0.0,1.0,0.0,15.0,15.0,15.0,1.0,0.6643,,,,,,,,,,,,,,,
,,,,,,,,,,,,,,,,,,,,,,,,,,,,,,,,,,,,,,,,,,,,swing_set_15s.jpg,1.0,Yellow.png,3.0,65,,,,,,,,,,,,,0.0,0.0,0.0,16.0,16.0,16.0,1.0,1.1464,,,,,,,,,,,,,,,
,,,,,,,,,,,,,,,,,,,,,,,,,,,,,,,,,,,,,,,,,,,,pinwheel_06s.jpg,1.0,Green.png,3.0,65,,,,,,,,,,,,,0.0,0.0,0.0,17.0,17.0,17.0,1.0,0.7532,,,,,,,,,,,,,,,
,,,,,,,,,,,,,,,,,,,,,,,,,,,,,,,,,,,,,,,,,,,,ink_08s.jpg,0.0,Blue.png,4.0,65,,,,,,,,,,,,,1.0,0.0,0.0,18.0,18.0,18.0,1.0,1.5594,,,,,,,,,,,,,,,
,,,,,,,,,,,,,,,,,,,,,,,,,,,,,,,,,,,,,,,,,,,,plunger_08s.jpg,0.0,Purple.png,4.0,65,,,,,,,,,,,,,0.0,1.0,0.0,19.0,19.0,19.0,1.0,0.8623,,,,,,,,,,,,,,,
,,,,,,,,,,,,,,,,,,,,,,,,,,,,,,,,,,,,,,,,,,,,ink_08s.jpg,1.0,Red.png,4.0,65,,,,,,,,,,,,,1.0,1.0,0.0,20.0,20.0,20.0,1.0,1.4047,,,,,,,,,,,,,,,
,,,,,,,,,,,,,,,,,,,,,,,,,,,,,,,,,,,,,,,,,,,,ink_08s.jpg,1.0,Orange.png,4.0,65,,,,,,,,,,,,,1.0,1.0,0.0,21.0,21.0,21.0,1.0,1.2501,,,,,,,,,,,,,,,
,,,,,,,,,,,,,,,,,,,,,,,,,,,,,,,,,,,,,,,,,,,,metronome_03s.jpg,0.0,Yellow.png,4.0,65,,,,,,,,,,,,,0.0,1.0,0.0,22.0,22.0,22.0,1.0,1.8378,,,,,,,,,,,,,,,
,,,,,,,,,,,,,,,,,,,,,,,,,,,,,,,,,,,,,,,,,,,,puppy_08s.jpg,0.0,Green.png,4.0,65,,,,,,,,,,,,,0.0,1.0,0.0,23.0,23.0,23.0,1.0,1.016,,,,,,,,,,,,,,,
,,,,,,,,,,,,,,,,,,,,,,,,,,,,,,,,,,,,,,,,,,,,treasure_08s.jpg,0.0,Blue.png,5.0,65,,,,,,,,,,,,,0.0,1.0,0.0,24.0,24.0,24.0,1.0,0.8744,,,,,,,,,,,,,,,
,,,,,,,,,,,,,,,,,,,,,,,,,,,,,,,,,,,,,,,,,,,,penguin_16s.jpg,0.0,Purple.png,5.0,65,,,,,,,,,,,,,0.0,1.0,0.0,25.0,25.0,25.0,1.0,1.346,,,,,,,,,,,,,,,
,,,,,,,,,,,,,,,,,,,,,,,,,,,,,,,,,,,,,,,,,,,,bacon_05s.jpg,0.0,Red.png,5.0,65,,,,,,,,,,,,,0.0,1.0,0.0,26.0,26.0,26.0,1.0,0.8876,,,,,,,,,,,,,,,
,,,,,,,,,,,,,,,,,,,,,,,,,,,,,,,,,,,,,,,,,,,,giraffe_11s.jpg,0.0,Orange.png,5.0,65,,,,,,,,,,,,,0.0,1.0,0.0,27.0,27.0,27.0,1.0,0.7928,,,,,,,,,,,,,,,
,,,,,,,,,,,,,,,,,,,,,,,,,,,,,,,,,,,,,,,,,,,,rug_09s.jpg,0.0,Yellow.png,5.0,65,,,,,,,,,,,,,0.0,1.0,0.0,28.0,28.0,28.0,1.0,0.89,,,,,,,,,,,,,,,
,,,,,,,,,,,,,,,,,,,,,,,,,,,,,,,,,,,,,,,,,,,,lamp_08s.jpg,0.0,Green.png,5.0,65,,,,,,,,,,,,,0.0,1.0,0.0,29.0,29.0,29.0,1.0,0.8295,,,,,,,,,,,,,,,
,,,,,,,,,,,,,,,,,,,,,,,,,,,,,,,,,,,,,,,,,,,,metronome_03s.jpg,0.0,Blue.png,6.0,65,,,,,,,,,,,,,0.0,1.0,0.0,30.0,30.0,30.0,1.0,0.6553,,,,,,,,,,,,,,,
,,,,,,,,,,,,,,,,,,,,,,,,,,,,,,,,,,,,,,,,,,,,metronome_03s.jpg,1.0,Purple.png,6.0,65,,,,,,,,,,,,,1.0,1.0,0.0,31.0,31.0,31.0,1.0,1.8845,,,,,,,,,,,,,,,
,,,,,,,,,,,,,,,,,,,,,,,,,,,,,,,,,,,,,,,,,,,,lip_gloss_06s.jpg,0.0,Red.png,6.0,65,,,,,,,,,,,,,0.0,1.0,0.0,32.0,32.0,32.0,1.0,1.6122,,,,,,,,,,,,,,,
,,,,,,,,,,,,,,,,,,,,,,,,,,,,,,,,,,,,,,,,,,,,metronome_03s.jpg,1.0,Orange.png,6.0,65,,,,,,,,,,,,,,0.0,0.0,33.0,33.0,33.0,1.0,,,,,,,,,,,,,,,,
,,,,,,,,,,,,,,,,,,,,,,,,,,,,,,,,,,,,,,,,,,,,laser_pointer_02s.jpg,0.0,Yellow.png,6.0,65,,,,,,,,,,,,,0.0,1.0,0.0,34.0,34.0,34.0,1.0,1.7045,,,,,,,,,,,,,,,
,,,,,,,,,,,,,,,,,,,,,,,,,,,,,,,,,,,,,,,,,,,,metronome_03s.jpg,1.0,Green.png,6.0,65,,,,,,,,,,,,,1.0,1.0,0.0,35.0,35.0,35.0,1.0,1.4998,,,,,,,,,,,,,,,
,,,,,,,,,,,,,,,,,,,,,,,,,,,,,,,,,,,,,,,,,,,,,1.0,,,65,,,,,,,,,emerald_02s.jpg,mirror_12s.jpg,,,,,,,,,,,0.0,0.0,2.2806,0.0,0.0,0.0,0.0,1.0,,,,,,,
,,,,,,,,,,,,,,,,,,,,,,,,,,,,,,,,,,,,,,,,,,,,,1.0,,,65,,,,,,,,,puppy_08s.jpg,bacon_05s.jpg,,,,,,,,,,,1.0,1.0,2.222,0.0,1.0,1.0,1.0,1.0,,,,,,,
,,,,,,,,,,,,,,,,,,,,,,,,,,,,,,,,,,,,,,,,,,,,,0.0,,,65,,,,,,,,,lip_gloss_06s.jpg,lamp_08s.jpg,,,,,,,,,,,0.0,1.0,1.163,0.0,2.0,2.0,2.0,1.0,,,,,,,
,,,,,,,,,,,,,,,,,,,,,,,,,,,,,,,,,,,,,,,,,,,,,0.0,,,65,,,,,,,,,bathtub_23s.jpg,ice-cream_cone_06s.jpg,,,,,,,,,,,1.0,0.0,1.3812,0.0,3.0,3.0,3.0,1.0,,,,,,,
,,,,,,,,,,,,,,,,,,,,,,,,,,,,,,,,,,,,,,,,,,,,,0.0,,,65,,,,,,,,,giraffe_11s.jpg,treasure_08s.jpg,,,,,,,,,,,1.0,0.0,1.4356,0.0,4.0,4.0,4.0,1.0,,,,,,,
,,,,,,,,,,,,,,,,,,,,,,,,,,,,,,,,,,,,,,,,,,,,,0.0,,,65,,,,,,,,,rug_09s.jpg,penguin_16s.jpg,,,,,,,,,,,0.0,1.0,1.8501,0.0,5.0,5.0,5.0,1.0,,,,,,,
,,,,,,,,,,,,,,,,,,,,,,,,,,,,,,,,,,,,,,,,,,,,,,,,65,,,,,,,,,,,,,,,,,,,,,,,,,,,,,0.0,6.0,6.0,6.0,1.0,newclockpresent_7_2.xlsx,newclock_compare_task_7_2.xlsx
,,,,,,,,,,,,,,,,,,,,,,,,,,,,,,,,,,,,,,,,,,,,ant_12s.jpg,0.0,Blue.png,1.0,65,,,,,,,,,,,,,0.0,1.0,0.0,0.0,0.0,0.0,1.0,1.2988,,,,,,,,,,,,,,,
,,,,,,,,,,,,,,,,,,,,,,,,,,,,,,,,,,,,,,,,,,,,ant_12s.jpg,1.0,Purple.png,1.0,65,,,,,,,,,,,,,1.0,1.0,0.0,1.0,1.0,1.0,1.0,1.6246,,,,,,,,,,,,,,,
,,,,,,,,,,,,,,,,,,,,,,,,,,,,,,,,,,,,,,,,,,,,ticktacktoe_08s.jpg,0.0,Red.png,1.0,65,,,,,,,,,,,,,0.0,1.0,0.0,2.0,2.0,2.0,1.0,1.7658,,,,,,,,,,,,,,,
,,,,,,,,,,,,,,,,,,,,,,,,,,,,,,,,,,,,,,,,,,,,frog_09s.jpg,0.0,Orange.png,1.0,65,,,,,,,,,,,,,0.0,1.0,0.0,3.0,3.0,3.0,1.0,0.8221,,,,,,,,,,,,,,,
,,,,,,,,,,,,,,,,,,,,,,,,,,,,,,,,,,,,,,,,,,,,ticktacktoe_08s.jpg,1.0,Yellow.png,1.0,65,,,,,,,,,,,,,1.0,1.0,0.0,4.0,4.0,4.0,1.0,1.9396,,,,,,,,,,,,,,,
,,,,,,,,,,,,,,,,,,,,,,,,,,,,,,,,,,,,,,,,,,,,feather02.jpg,0.0,Green.png,1.0,65,,,,,,,,,,,,,0.0,1.0,0.0,5.0,5.0,5.0,1.0,0.6785,,,,,,,,,,,,,,,
,,,,,,,,,,,,,,,,,,,,,,,,,,,,,,,,,,,,,,,,,,,,gas_mask_11s.jpg,0.0,Blue.png,2.0,65,,,,,,,,,,,,,0.0,1.0,0.0,6.0,6.0,6.0,1.0,0.6619,,,,,,,,,,,,,,,
,,,,,,,,,,,,,,,,,,,,,,,,,,,,,,,,,,,,,,,,,,,,gas_mask_11s.jpg,1.0,Purple.png,2.0,65,,,,,,,,,,,,,1.0,1.0,0.0,7.0,7.0,7.0,1.0,1.0196,,,,,,,,,,,,,,,
,,,,,,,,,,,,,,,,,,,,,,,,,,,,,,,,,,,,,,,,,,,,mop_08s.jpg,0.0,Red.png,2.0,65,,,,,,,,,,,,,0.0,1.0,0.0,8.0,8.0,8.0,1.0,0.699,,,,,,,,,,,,,,,
,,,,,,,,,,,,,,,,,,,,,,,,,,,,,,,,,,,,,,,,,,,,gas_mask_11s.jpg,1.0,Orange.png,2.0,65,,,,,,,,,,,,,1.0,1.0,0.0,9.0,9.0,9.0,1.0,1.606,,,,,,,,,,,,,,,
,,,,,,,,,,,,,,,,,,,,,,,,,,,,,,,,,,,,,,,,,,,,pea_11s.jpg,0.0,Yellow.png,2.0,65,,,,,,,,,,,,,0.0,1.0,0.0,10.0,10.0,10.0,1.0,0.5887,,,,,,,,,,,,,,,
,,,,,,,,,,,,,,,,,,,,,,,,,,,,,,,,,,,,,,,,,,,,bowler_hat_10s.jpg,0.0,Green.png,2.0,65,,,,,,,,,,,,,0.0,1.0,0.0,11.0,11.0,11.0,1.0,0.7619,,,,,,,,,,,,,,,
,,,,,,,,,,,,,,,,,,,,,,,,,,,,,,,,,,,,,,,,,,,,pencil_sharpener_09n.jpg,0.0,Blue.png,3.0,65,,,,,,,,,,,,,0.0,1.0,0.0,12.0,12.0,12.0,1.0,1.4345,,,,,,,,,,,,,,,
,,,,,,,,,,,,,,,,,,,,,,,,,,,,,,,,,,,,,,,,,,,,rice_12s.jpg,0.0,Purple.png,3.0,65,,,,,,,,,,,,,0.0,1.0,0.0,13.0,13.0,13.0,1.0,1.3564,,,,,,,,,,,,,,,
,,,,,,,,,,,,,,,,,,,,,,,,,,,,,,,,,,,,,,,,,,,,stamp1_11s.jpg,0.0,Red.png,3.0,65,,,,,,,,,,,,,0.0,1.0,0.0,14.0,14.0,14.0,1.0,0.9479,,,,,,,,,,,,,,,
,,,,,,,,,,,,,,,,,,,,,,,,,,,,,,,,,,,,,,,,,,,,jersey_02s.jpg,0.0,Orange.png,3.0,65,,,,,,,,,,,,,0.0,1.0,0.0,15.0,15.0,15.0,1.0,0.7317,,,,,,,,,,,,,,,
,,,,,,,,,,,,,,,,,,,,,,,,,,,,,,,,,,,,,,,,,,,,tiara_05s.jpg,0.0,Yellow.png,3.0,65,,,,,,,,,,,,,0.0,1.0,0.0,16.0,16.0,16.0,1.0,0.8076,,,,,,,,,,,,,,,
,,,,,,,,,,,,,,,,,,,,,,,,,,,,,,,,,,,,,,,,,,,,target_11s.jpg,0.0,Green.png,3.0,65,,,,,,,,,,,,,0.0,1.0,0.0,17.0,17.0,17.0,1.0,0.7277,,,,,,,,,,,,,,,
,,,,,,,,,,,,,,,,,,,,,,,,,,,,,,,,,,,,,,,,,,,,dirt_bike_11s.jpg,0.0,Blue.png,4.0,65,,,,,,,,,,,,,0.0,1.0,0.0,18.0,18.0,18.0,1.0,1.3594,,,,,,,,,,,,,,,
,,,,,,,,,,,,,,,,,,,,,,,,,,,,,,,,,,,,,,,,,,,,doily_13s.jpg,0.0,Purple.png,4.0,65,,,,,,,,,,,,,0.0,1.0,0.0,19.0,19.0,19.0,1.0,1.1256,,,,,,,,,,,,,,,
,,,,,,,,,,,,,,,,,,,,,,,,,,,,,,,,,,,,,,,,,,,,sunglasses_11s.jpg,0.0,Red.png,4.0,65,,,,,,,,,,,,,0.0,1.0,0.0,20.0,20.0,20.0,1.0,0.6643,,,,,,,,,,,,,,,
,,,,,,,,,,,,,,,,,,,,,,,,,,,,,,,,,,,,,,,,,,,,compass_10n.jpg,0.0,Orange.png,4.0,65,,,,,,,,,,,,,0.0,1.0,0.0,21.0,21.0,21.0,1.0,2.1708,,,,,,,,,,,,,,,
,,,,,,,,,,,,,,,,,,,,,,,,,,,,,,,,,,,,,,,,,,,,sunglasses_11s.jpg,1.0,Yellow.png,4.0,65,,,,,,,,,,,,,0.0,0.0,0.0,22.0,22.0,22.0,1.0,2.2679,,,,,,,,,,,,,,,
,,,,,,,,,,,,,,,,,,,,,,,,,,,,,,,,,,,,,,,,,,,,sunglasses_11s.jpg,1.0,Green.png,4.0,65,,,,,,,,,,,,,1.0,1.0,0.0,23.0,23.0,23.0,1.0,0.7793,,,,,,,,,,,,,,,
,,,,,,,,,,,,,,,,,,,,,,,,,,,,,,,,,,,,,,,,,,,,seagull_01b.jpg,0.0,Blue.png,5.0,65,,,,,,,,,,,,,0.0,1.0,0.0,24.0,24.0,24.0,1.0,0.6517,,,,,,,,,,,,,,,
,,,,,,,,,,,,,,,,,,,,,,,,,,,,,,,,,,,,,,,,,,,,footprint_11s.jpg,0.0,Purple.png,5.0,65,,,,,,,,,,,,,0.0,1.0,0.0,25.0,25.0,25.0,1.0,1.0418,,,,,,,,,,,,,,,
,,,,,,,,,,,,,,,,,,,,,,,,,,,,,,,,,,,,,,,,,,,,projector_08s.jpg,0.0,Red.png,5.0,65,,,,,,,,,,,,,0.0,1.0,0.0,26.0,26.0,26.0,1.0,2.1574,,,,,,,,,,,,,,,
,,,,,,,,,,,,,,,,,,,,,,,,,,,,,,,,,,,,,,,,,,,,projector_08s.jpg,1.0,Orange.png,5.0,65,,,,,,,,,,,,,1.0,1.0,0.0,27.0,27.0,27.0,1.0,1.2725,,,,,,,,,,,,,,,
,,,,,,,,,,,,,,,,,,,,,,,,,,,,,,,,,,,,,,,,,,,,money_07s.jpg,0.0,Yellow.png,5.0,65,,,,,,,,,,,,,0.0,1.0,0.0,28.0,28.0,28.0,1.0,0.7946,,,,,,,,,,,,,,,
,,,,,,,,,,,,,,,,,,,,,,,,,,,,,,,,,,,,,,,,,,,,flip_flop_03s.jpg,0.0,Green.png,5.0,65,,,,,,,,,,,,,0.0,1.0,0.0,29.0,29.0,29.0,1.0,0.782,,,,,,,,,,,,,,,
,,,,,,,,,,,,,,,,,,,,,,,,,,,,,,,,,,,,,,,,,,,,ring_03s.jpg,0.0,Blue.png,6.0,65,,,,,,,,,,,,,0.0,1.0,0.0,30.0,30.0,30.0,1.0,1.1737,,,,,,,,,,,,,,,
,,,,,,,,,,,,,,,,,,,,,,,,,,,,,,,,,,,,,,,,,,,,flip_flop_03s.jpg,0.0,Purple.png,6.0,65,,,,,,,,,,,,,1.0,0.0,0.0,31.0,31.0,31.0,1.0,1.236,,,,,,,,,,,,,,,
,,,,,,,,,,,,,,,,,,,,,,,,,,,,,,,,,,,,,,,,,,,,flip_flop_03s.jpg,1.0,Red.png,6.0,65,,,,,,,,,,,,,1.0,1.0,0.0,32.0,32.0,32.0,1.0,0.7634,,,,,,,,,,,,,,,
,,,,,,,,,,,,,,,,,,,,,,,,,,,,,,,,,,,,,,,,,,,,flip_flop_03s.jpg,1.0,Orange.png,6.0,65,,,,,,,,,,,,,1.0,1.0,0.0,33.0,33.0,33.0,1.0,0.7719,,,,,,,,,,,,,,,
,,,,,,,,,,,,,,,,,,,,,,,,,,,,,,,,,,,,,,,,,,,,screwdriver02a.jpg,0.0,Yellow.png,6.0,65,,,,,,,,,,,,,0.0,1.0,0.0,34.0,34.0,34.0,1.0,1.6483,,,,,,,,,,,,,,,
,,,,,,,,,,,,,,,,,,,,,,,,,,,,,,,,,,,,,,,,,,,,screwdriver02a.jpg,1.0,Green.png,6.0,65,,,,,,,,,,,,,1.0,1.0,0.0,35.0,35.0,35.0,1.0,1.5542,,,,,,,,,,,,,,,
,,,,,,,,,,,,,,,,,,,,,,,,,,,,,,,,,,,,,,,,,,,,,0.0,,,65,,,,,,,,,mop_08s.jpg,feather02.jpg,,,,,,,,,,,0.0,1.0,2.466,0.0,0.0,0.0,0.0,1.0,,,,,,,
,,,,,,,,,,,,,,,,,,,,,,,,,,,,,,,,,,,,,,,,,,,,,1.0,,,65,,,,,,,,,pea_11s.jpg,rice_12s.jpg,,,,,,,,,,,1.0,1.0,1.4407,0.0,1.0,1.0,1.0,1.0,,,,,,,
,,,,,,,,,,,,,,,,,,,,,,,,,,,,,,,,,,,,,,,,,,,,,1.0,,,65,,,,,,,,,tiara_05s.jpg,doily_13s.jpg,,,,,,,,,,,1.0,1.0,1.0879,0.0,2.0,2.0,2.0,1.0,,,,,,,
,,,,,,,,,,,,,,,,,,,,,,,,,,,,,,,,,,,,,,,,,,,,,1.0,,,65,,,,,,,,,footprint_11s.jpg,money_07s.jpg,,,,,,,,,,,0.0,0.0,1.2715,0.0,3.0,3.0,3.0,1.0,,,,,,,
,,,,,,,,,,,,,,,,,,,,,,,,,,,,,,,,,,,,,,,,,,,,,1.0,,,65,,,,,,,,,pencil_sharpener_09n.jpg,jersey_02s.jpg,,,,,,,,,,,1.0,1.0,1.1885,0.0,4.0,4.0,4.0,1.0,,,,,,,
,,,,,,,,,,,,,,,,,,,,,,,,,,,,,,,,,,,,,,,,,,,,,1.0,,,65,,,,,,,,,stamp1_11s.jpg,target_11s.jpg,,,,,,,,,,,1.0,1.0,1.1722,0.0,5.0,5.0,5.0,1.0,,,,,,,
,,,,,,,,,,,,,,,,,,,,,,,,,,,,,,,,,,,,,,,,,,,,,,,,65,,,,,,,,,,,,,,,,,,,,,,,,,,,,,0.0,7.0,7.0,7.0,1.0,newclockpresent_8_2.xlsx,newclock_compare_task_8_2.xlsx
,,,,,,,,,,,,,,,,,,,,,,,,,,,,,,,,,,,,,,,,,,,,quilt_03s.jpg,0.0,Blue.png,1.0,65,,,,,,,,,,,,,0.0,1.0,0.0,0.0,0.0,0.0,1.0,1.5149,,,,,,,,,,,,,,,
,,,,,,,,,,,,,,,,,,,,,,,,,,,,,,,,,,,,,,,,,,,,stingray_02s.jpg,0.0,Purple.png,1.0,65,,,,,,,,,,,,,0.0,1.0,0.0,1.0,1.0,1.0,1.0,0.5421,,,,,,,,,,,,,,,
,,,,,,,,,,,,,,,,,,,,,,,,,,,,,,,,,,,,,,,,,,,,mousetrap_15n.jpg,0.0,Red.png,1.0,65,,,,,,,,,,,,,0.0,1.0,0.0,2.0,2.0,2.0,1.0,0.6008,,,,,,,,,,,,,,,
,,,,,,,,,,,,,,,,,,,,,,,,,,,,,,,,,,,,,,,,,,,,dashboard_02s.jpg,0.0,Orange.png,1.0,65,,,,,,,,,,,,,0.0,1.0,0.0,3.0,3.0,3.0,1.0,0.5623,,,,,,,,,,,,,,,
,,,,,,,,,,,,,,,,,,,,,,,,,,,,,,,,,,,,,,,,,,,,quilt_03s.jpg,1.0,Yellow.png,1.0,65,,,,,,,,,,,,,1.0,1.0,0.0,4.0,4.0,4.0,1.0,1.7835,,,,,,,,,,,,,,,
,,,,,,,,,,,,,,,,,,,,,,,,,,,,,,,,,,,,,,,,,,,,quilt_03s.jpg,1.0,Green.png,1.0,65,,,,,,,,,,,,,1.0,1.0,0.0,5.0,5.0,5.0,1.0,0.5754,,,,,,,,,,,,,,,
,,,,,,,,,,,,,,,,,,,,,,,,,,,,,,,,,,,,,,,,,,,,thorn_13s.jpg,0.0,Blue.png,2.0,65,,,,,,,,,,,,,0.0,1.0,0.0,6.0,6.0,6.0,1.0,0.9113,,,,,,,,,,,,,,,
,,,,,,,,,,,,,,,,,,,,,,,,,,,,,,,,,,,,,,,,,,,,mitten_10s.jpg,0.0,Purple.png,2.0,65,,,,,,,,,,,,,0.0,1.0,0.0,7.0,7.0,7.0,1.0,1.8177,,,,,,,,,,,,,,,
,,,,,,,,,,,,,,,,,,,,,,,,,,,,,,,,,,,,,,,,,,,,fondue_07s.jpg,0.0,Red.png,2.0,65,,,,,,,,,,,,,0.0,1.0,0.0,8.0,8.0,8.0,1.0,1.2761,,,,,,,,,,,,,,,
,,,,,,,,,,,,,,,,,,,,,,,,,,,,,,,,,,,,,,,,,,,,peach_04s.jpg,0.0,Orange.png,2.0,65,,,,,,,,,,,,,0.0,1.0,0.0,9.0,9.0,9.0,1.0,0.7795,,,,,,,,,,,,,,,
,,,,,,,,,,,,,,,,,,,,,,,,,,,,,,,,,,,,,,,,,,,,stump_02s.jpg,0.0,Yellow.png,2.0,65,,,,,,,,,,,,,0.0,1.0,0.0,10.0,10.0,10.0,1.0,0.6681,,,,,,,,,,,,,,,
,,,,,,,,,,,,,,,,,,,,,,,,,,,,,,,,,,,,,,,,,,,,rabbit_03s.jpg,0.0,Green.png,2.0,65,,,,,,,,,,,,,0.0,1.0,0.0,11.0,11.0,11.0,1.0,0.8765,,,,,,,,,,,,,,,
,,,,,,,,,,,,,,,,,,,,,,,,,,,,,,,,,,,,,,,,,,,,champagne_18s.jpg,0.0,Blue.png,3.0,65,,,,,,,,,,,,,0.0,1.0,0.0,12.0,12.0,12.0,1.0,1.1071,,,,,,,,,,,,,,,
,,,,,,,,,,,,,,,,,,,,,,,,,,,,,,,,,,,,,,,,,,,,rabbit_03s.jpg,0.0,Purple.png,3.0,65,,,,,,,,,,,,,,0.0,0.0,13.0,13.0,13.0,1.0,,,,,,,,,,,,,,,,
,,,,,,,,,,,,,,,,,,,,,,,,,,,,,,,,,,,,,,,,,,,,denture_03s.jpg,0.0,Red.png,3.0,65,,,,,,,,,,,,,0.0,1.0,0.0,14.0,14.0,14.0,1.0,0.7084,,,,,,,,,,,,,,,
,,,,,,,,,,,,,,,,,,,,,,,,,,,,,,,,,,,,,,,,,,,,rabbit_03s.jpg,1.0,Orange.png,3.0,65,,,,,,,,,,,,,1.0,1.0,0.0,15.0,15.0,15.0,1.0,1.2812,,,,,,,,,,,,,,,
,,,,,,,,,,,,,,,,,,,,,,,,,,,,,,,,,,,,,,,,,,,,turtleneck_11s.jpg,0.0,Yellow.png,3.0,65,,,,,,,,,,,,,0.0,1.0,0.0,16.0,16.0,16.0,1.0,0.941,,,,,,,,,,,,,,,
,,,,,,,,,,,,,,,,,,,,,,,,,,,,,,,,,,,,,,,,,,,,rabbit_03s.jpg,1.0,Green.png,3.0,65,,,,,,,,,,,,,1.0,1.0,0.0,17.0,17.0,17.0,1.0,0.7321,,,,,,,,,,,,,,,
,,,,,,,,,,,,,,,,,,,,,,,,,,,,,,,,,,,,,,,,,,,,typewriter_11s.jpg,0.0,Blue.png,4.0,65,,,,,,,,,,,,,0.0,1.0,0.0,18.0,18.0,18.0,1.0,0.6525,,,,,,,,,,,,,,,
,,,,,,,,,,,,,,,,,,,,,,,,,,,,,,,,,,,,,,,,,,,,thread_08s.jpg,0.0,Purple.png,4.0,65,,,,,,,,,,,,,0.0,1.0,0.0,19.0,19.0,19.0,1.0,0.6235,,,,,,,,,,,,,,,
,,,,,,,,,,,,,,,,,,,,,,,,,,,,,,,,,,,,,,,,,,,,bean_06s.jpg,0.0,Red.png,4.0,65,,,,,,,,,,,,,1.0,0.0,0.0,20.0,20.0,20.0,1.0,1.7927,,,,,,,,,,,,,,,
,,,,,,,,,,,,,,,,,,,,,,,,,,,,,,,,,,,,,,,,,,,,rolling_pin_02s.jpg,0.0,Orange.png,4.0,65,,,,,,,,,,,,,0.0,1.0,0.0,21.0,21.0,21.0,1.0,0.8486,,,,,,,,,,,,,,,
,,,,,,,,,,,,,,,,,,,,,,,,,,,,,,,,,,,,,,,,,,,,tattoo_14s.jpg,0.0,Yellow.png,4.0,65,,,,,,,,,,,,,0.0,1.0,0.0,22.0,22.0,22.0,1.0,1.4338,,,,,,,,,,,,,,,
,,,,,,,,,,,,,,,,,,,,,,,,,,,,,,,,,,,,,,,,,,,,eiffeltower.jpg,0.0,Green.png,4.0,65,,,,,,,,,,,,,0.0,1.0,0.0,23.0,23.0,23.0,1.0,1.9903,,,,,,,,,,,,,,,
,,,,,,,,,,,,,,,,,,,,,,,,,,,,,,,,,,,,,,,,,,,,fondue_07s.jpg,0.0,Blue.png,5.0,65,,,,,,,,,,,,,,0.0,0.0,24.0,24.0,24.0,1.0,,,,,,,,,,,,,,,,
,,,,,,,,,,,,,,,,,,,,,,,,,,,,,,,,,,,,,,,,,,,,fondue_07s.jpg,1.0,Purple.png,5.0,65,,,,,,,,,,,,,1.0,1.0,0.0,25.0,25.0,25.0,1.0,0.713,,,,,,,,,,,,,,,
,,,,,,,,,,,,,,,,,,,,,,,,,,,,,,,,,,,,,,,,,,,,omelet_07s.jpg,0.0,Red.png,5.0,65,,,,,,,,,,,,,0.0,1.0,0.0,26.0,26.0,26.0,1.0,1.7698,,,,,,,,,,,,,,,
,,,,,,,,,,,,,,,,,,,,,,,,,,,,,,,,,,,,,,,,,,,,fondue_07s.jpg,1.0,Orange.png,5.0,65,,,,,,,,,,,,,1.0,1.0,0.0,27.0,27.0,27.0,1.0,0.6963,,,,,,,,,,,,,,,
,,,,,,,,,,,,,,,,,,,,,,,,,,,,,,,,,,,,,,,,,,,,radio_09s.jpg,0.0,Yellow.png,5.0,65,,,,,,,,,,,,,0.0,1.0,0.0,28.0,28.0,28.0,1.0,0.7255,,,,,,,,,,,,,,,
,,,,,,,,,,,,,,,,,,,,,,,,,,,,,,,,,,,,,,,,,,,,fondue_07s.jpg,1.0,Green.png,5.0,65,,,,,,,,,,,,,1.0,1.0,0.0,29.0,29.0,29.0,1.0,0.9474,,,,,,,,,,,,,,,
,,,,,,,,,,,,,,,,,,,,,,,,,,,,,,,,,,,,,,,,,,,,roller_coaster_07s.jpg,0.0,Blue.png,6.0,65,,,,,,,,,,,,,0.0,1.0,0.0,30.0,30.0,30.0,1.0,1.3267,,,,,,,,,,,,,,,
,,,,,,,,,,,,,,,,,,,,,,,,,,,,,,,,,,,,,,,,,,,,loveseat_08s.jpg,0.0,Purple.png,6.0,65,,,,,,,,,,,,,0.0,1.0,0.0,31.0,31.0,31.0,1.0,1.4664,,,,,,,,,,,,,,,
,,,,,,,,,,,,,,,,,,,,,,,,,,,,,,,,,,,,,,,,,,,,roller_coaster_07s.jpg,1.0,Red.png,6.0,65,,,,,,,,,,,,,1.0,1.0,0.0,32.0,32.0,32.0,1.0,0.89,,,,,,,,,,,,,,,
,,,,,,,,,,,,,,,,,,,,,,,,,,,,,,,,,,,,,,,,,,,,roller_coaster_07s.jpg,1.0,Orange.png,6.0,65,,,,,,,,,,,,,1.0,1.0,0.0,33.0,33.0,33.0,1.0,0.7052,,,,,,,,,,,,,,,
,,,,,,,,,,,,,,,,,,,,,,,,,,,,,,,,,,,,,,,,,,,,roller_coaster_07s.jpg,1.0,Yellow.png,6.0,65,,,,,,,,,,,,,1.0,1.0,0.0,34.0,34.0,34.0,1.0,0.4625,,,,,,,,,,,,,,,
,,,,,,,,,,,,,,,,,,,,,,,,,,,,,,,,,,,,,,,,,,,,roller_coaster_07s.jpg,1.0,Green.png,6.0,65,,,,,,,,,,,,,1.0,1.0,0.0,35.0,35.0,35.0,1.0,0.4484,,,,,,,,,,,,,,,
,,,,,,,,,,,,,,,,,,,,,,,,,,,,,,,,,,,,,,,,,,,,,0.0,,,65,,,,,,,,,loveseat_08s.jpg,radio_09s.jpg,,,,,,,,,,,0.0,1.0,2.7021,0.0,0.0,0.0,0.0,1.0,,,,,,,
,,,,,,,,,,,,,,,,,,,,,,,,,,,,,,,,,,,,,,,,,,,,,1.0,,,65,,,,,,,,,dashboard_02s.jpg,thorn_13s.jpg,,,,,,,,,,,0.0,0.0,1.5806,0.0,1.0,1.0,1.0,1.0,,,,,,,
,,,,,,,,,,,,,,,,,,,,,,,,,,,,,,,,,,,,,,,,,,,,,0.0,,,65,,,,,,,,,champagne_18s.jpg,peach_04s.jpg,,,,,,,,,,,1.0,0.0,1.1994,0.0,2.0,2.0,2.0,1.0,,,,,,,
,,,,,,,,,,,,,,,,,,,,,,,,,,,,,,,,,,,,,,,,,,,,,1.0,,,65,,,,,,,,,mitten_10s.jpg,stump_02s.jpg,,,,,,,,,,,1.0,1.0,2.2706,0.0,3.0,3.0,3.0,1.0,,,,,,,
,,,,,,,,,,,,,,,,,,,,,,,,,,,,,,,,,,,,,,,,,,,,,1.0,,,65,,,,,,,,,typewriter_11s.jpg,rolling_pin_02s.jpg,,,,,,,,,,,0.0,0.0,1.9506,0.0,4.0,4.0,4.0,1.0,,,,,,,
,,,,,,,,,,,,,,,,,,,,,,,,,,,,,,,,,,,,,,,,,,,,,1.0,,,65,,,,,,,,,thread_08s.jpg,tattoo_14s.jpg,,,,,,,,,,,0.0,0.0,1.4928,0.0,5.0,5.0,5.0,1.0,,,,,,,
,,,,,,,,,,,,,,,,,,,,,,,,,,,,,,,,,,,,,,,,,,,,,,,,65,,,,,,,,,,,,,,,,,,,,,,,,,,,,,0.0,8.0,8.0,8.0,1.0,newclockpresent_9_2.xlsx,newclock_compare_task_9_2.xlsx
