key_resp_3.keys,key_resp_3.rt,key_resp_4.keys,key_resp_4.rt,key_resp_5.keys,key_resp_5.rt,key_resp_6.keys,key_resp_6.rt,key_resp_7.keys,key_resp_7.rt,key_resp_8.keys,key_resp_8.rt,key_resp_9.keys,key_resp_9.rt,key_resp_10.keys,key_resp_10.rt,key_resp_11.keys,key_resp_11.rt,key_resp_12.keys,key_resp_12.rt,key_resp_13.keys,key_resp_13.rt,key_resp_14.keys,key_resp_14.rt,key_resp_15.keys,key_resp_15.rt,key_resp_16.keys,key_resp_16.rt,key_resp_17.keys,key_resp_17.rt,key_resp_18.keys,key_resp_18.rt,key_resp_19.keys,key_resp_19.rt,key_resp_20.keys,key_resp_20.rt,key_resp_21.keys,key_resp_21.corr,key_resp_21.rt,trials.thisRepN,trials.thisTrialN,trials.thisN,trials.thisIndex,trials.ran,pictures,answer,clock,segment,participant,key_resp_22.keys,key_resp_22.corr,key_resp_22.rt,trials_2.thisRepN,trials_2.thisTrialN,trials_2.thisN,trials_2.thisIndex,trials_2.ran,item_a,item_b,key_resp_23.keys,key_resp_23.rt,key_resp.keys,key_resp.corr,key_resp.rt,present_segment.thisRepN,present_segment.thisTrialN,present_segment.thisN,present_segment.thisIndex,present_segment.ran,key_resp_2.keys,key_resp_2.corr,key_resp_2.rt,compare_segment.thisRepN,compare_segment.thisTrialN,compare_segment.thisN,compare_segment.thisIndex,compare_segment.ran,clock_conditions.thisRepN,clock_conditions.thisTrialN,clock_conditions.thisN,clock_conditions.thisIndex,clock_conditions.ran,present,compare
space,23.0605,space,2.5828,0.0,3.2539,0.0,0.9232,1.0,0.7334,0.0,0.5998,0.0,0.7275,0.0,0.7947,0.0,1.3168,0.0,0.6573,1.0,0.4872,0.0,0.9883,0.0,0.9172,0.0,3.7809,space,4487.1297,1.0,2.3706,0.0,3.7353,space,11.8753,0.0,1.0,1.0887,0.0,0.0,0.0,0.0,1.0,whipped_cream_02s.jpg,0.0,Blue.png,1.0,32,,,,,,,,,,,,,,,,,,,,,,,,,,,,,,,,,,,
,,,,,,,,,,,,,,,,,,,,,,,,,,,,,,,,,,,,0.0,1.0,0.6596,0.0,1.0,1.0,1.0,1.0,sheep_02s.jpg,0.0,Purple.png,1.0,32,,,,,,,,,,,,,,,,,,,,,,,,,,,,,,,,,,,
,,,,,,,,,,,,,,,,,,,,,,,,,,,,,,,,,,,,0.0,1.0,0.8291,0.0,2.0,2.0,2.0,1.0,sheep_02s.jpg,0.0,Red.png,1.0,32,,,,,,,,,,,,,,,,,,,,,,,,,,,,,,,,,,,
,,,,,,,,,,,,,,,,,,,,,,,,,,,,,,,,,,,,0.0,1.0,0.6982,0.0,3.0,3.0,3.0,1.0,sequin_02s.jpg,0.0,Orange.png,1.0,32,,,,,,,,,,,,,,,,,,,,,,,,,,,,,,,,,,,
,,,,,,,,,,,,,,,,,,,,,,,,,,,,,,,,,,,,1.0,1.0,0.5597,0.0,4.0,4.0,4.0,1.0,sheep_02s.jpg,1.0,Yellow.png,1.0,32,,,,,,,,,,,,,,,,,,,,,,,,,,,,,,,,,,,
,,,,,,,,,,,,,,,,,,,,,,,,,,,,,,,,,,,,0.0,1.0,0.7939,0.0,5.0,5.0,5.0,1.0,scoop_05s.jpg,0.0,Green.png,1.0,32,,,,,,,,,,,,,,,,,,,,,,,,,,,,,,,,,,,
,,,,,,,,,,,,,,,,,,,,,,,,,,,,,,,,,,,,0.0,1.0,0.6956,0.0,6.0,6.0,6.0,1.0,wagon_12s.jpg,0.0,Blue.png,2.0,32,,,,,,,,,,,,,,,,,,,,,,,,,,,,,,,,,,,
,,,,,,,,,,,,,,,,,,,,,,,,,,,,,,,,,,,,0.0,1.0,0.6434,0.0,7.0,7.0,7.0,1.0,scrabble_05s.jpg,0.0,Purple.png,2.0,32,,,,,,,,,,,,,,,,,,,,,,,,,,,,,,,,,,,
,,,,,,,,,,,,,,,,,,,,,,,,,,,,,,,,,,,,0.0,0.0,0.7363,0.0,8.0,8.0,8.0,1.0,wagon_12s.jpg,1.0,Red.png,2.0,32,,,,,,,,,,,,,,,,,,,,,,,,,,,,,,,,,,,
,,,,,,,,,,,,,,,,,,,,,,,,,,,,,,,,,,,,1.0,1.0,0.8491,0.0,9.0,9.0,9.0,1.0,scrabble_05s.jpg,1.0,Orange.png,2.0,32,,,,,,,,,,,,,,,,,,,,,,,,,,,,,,,,,,,
,,,,,,,,,,,,,,,,,,,,,,,,,,,,,,,,,,,,0.0,1.0,0.6047,0.0,10.0,10.0,10.0,1.0,weasel_08s.jpg,0.0,Yellow.png,2.0,32,,,,,,,,,,,,,,,,,,,,,,,,,,,,,,,,,,,
,,,,,,,,,,,,,,,,,,,,,,,,,,,,,,,,,,,,0.0,1.0,0.6328,0.0,11.0,11.0,11.0,1.0,scooter_06s.jpg,0.0,Green.png,2.0,32,,,,,,,,,,,,,,,,,,,,,,,,,,,,,,,,,,,
,,,,,,,,,,,,,,,,,,,,,,,,,,,,,,,,,,,,1.0,0.0,0.6861,0.0,12.0,12.0,12.0,1.0,wetsuit_04s.jpg,0.0,Blue.png,3.0,32,,,,,,,,,,,,,,,,,,,,,,,,,,,,,,,,,,,
,,,,,,,,,,,,,,,,,,,,,,,,,,,,,,,,,,,,0.0,1.0,0.9459,0.0,13.0,13.0,13.0,1.0,wetsuit_04s.jpg,0.0,Purple.png,3.0,32,,,,,,,,,,,,,,,,,,,,,,,,,,,,,,,,,,,
,,,,,,,,,,,,,,,,,,,,,,,,,,,,,,,,,,,,1.0,1.0,0.9004,0.0,14.0,14.0,14.0,1.0,wetsuit_04s.jpg,1.0,Red.png,3.0,32,,,,,,,,,,,,,,,,,,,,,,,,,,,,,,,,,,,
,,,,,,,,,,,,,,,,,,,,,,,,,,,,,,,,,,,,0.0,1.0,0.8377,0.0,15.0,15.0,15.0,1.0,water_fountain_01b.jpg,0.0,Orange.png,3.0,32,,,,,,,,,,,,,,,,,,,,,,,,,,,,,,,,,,,
,,,,,,,,,,,,,,,,,,,,,,,,,,,,,,,,,,,,0.0,1.0,0.7041,0.0,16.0,16.0,16.0,1.0,waffle_iron_11s.jpg,0.0,Yellow.png,3.0,32,,,,,,,,,,,,,,,,,,,,,,,,,,,,,,,,,,,
,,,,,,,,,,,,,,,,,,,,,,,,,,,,,,,,,,,,0.0,1.0,0.8701,0.0,17.0,17.0,17.0,1.0,wing_08s.jpg,0.0,Green.png,3.0,32,,,,,,,,,,,,,,,,,,,,,,,,,,,,,,,,,,,
,,,,,,,,,,,,,,,,,,,,,,,,,,,,,,,,,,,,0.0,1.0,0.6134,0.0,18.0,18.0,18.0,1.0,shield_02s.jpg,0.0,Blue.png,4.0,32,,,,,,,,,,,,,,,,,,,,,,,,,,,,,,,,,,,
,,,,,,,,,,,,,,,,,,,,,,,,,,,,,,,,,,,,0.0,1.0,0.6763,0.0,19.0,19.0,19.0,1.0,shovel_09s.jpg,0.0,Purple.png,4.0,32,,,,,,,,,,,,,,,,,,,,,,,,,,,,,,,,,,,
,,,,,,,,,,,,,,,,,,,,,,,,,,,,,,,,,,,,0.0,1.0,0.7002,0.0,20.0,20.0,20.0,1.0,watch_09s.jpg,0.0,Red.png,4.0,32,,,,,,,,,,,,,,,,,,,,,,,,,,,,,,,,,,,
,,,,,,,,,,,,,,,,,,,,,,,,,,,,,,,,,,,,1.0,1.0,0.816,0.0,21.0,21.0,21.0,1.0,shovel_09s.jpg,1.0,Orange.png,4.0,32,,,,,,,,,,,,,,,,,,,,,,,,,,,,,,,,,,,
,,,,,,,,,,,,,,,,,,,,,,,,,,,,,,,,,,,,0.0,1.0,1.1657,0.0,22.0,22.0,22.0,1.0,shovel_09s.jpg,0.0,Yellow.png,4.0,32,,,,,,,,,,,,,,,,,,,,,,,,,,,,,,,,,,,
,,,,,,,,,,,,,,,,,,,,,,,,,,,,,,,,,,,,0.0,1.0,0.6039,0.0,23.0,23.0,23.0,1.0,watering_can_14s.jpg,0.0,Green.png,4.0,32,,,,,,,,,,,,,,,,,,,,,,,,,,,,,,,,,,,
,,,,,,,,,,,,,,,,,,,,,,,,,,,,,,,,,,,,0.0,1.0,0.7967,0.0,24.0,24.0,24.0,1.0,wasp_13n.jpg,0.0,Blue.png,5.0,32,,,,,,,,,,,,,,,,,,,,,,,,,,,,,,,,,,,
,,,,,,,,,,,,,,,,,,,,,,,,,,,,,,,,,,,,0.0,1.0,0.6749,0.0,25.0,25.0,25.0,1.0,shoelace_13s.jpg,0.0,Purple.png,5.0,32,,,,,,,,,,,,,,,,,,,,,,,,,,,,,,,,,,,
,,,,,,,,,,,,,,,,,,,,,,,,,,,,,,,,,,,,0.0,1.0,0.6613,0.0,26.0,26.0,26.0,1.0,scarf_16s.jpg,0.0,Red.png,5.0,32,,,,,,,,,,,,,,,,,,,,,,,,,,,,,,,,,,,
,,,,,,,,,,,,,,,,,,,,,,,,,,,,,,,,,,,,0.0,1.0,0.8699,0.0,27.0,27.0,27.0,1.0,screwdriver_07s.jpg,0.0,Orange.png,5.0,32,,,,,,,,,,,,,,,,,,,,,,,,,,,,,,,,,,,
,,,,,,,,,,,,,,,,,,,,,,,,,,,,,,,,,,,,0.0,1.0,0.5604,0.0,28.0,28.0,28.0,1.0,drink_05s.jpg,0.0,Yellow.png,5.0,32,,,,,,,,,,,,,,,,,,,,,,,,,,,,,,,,,,,
,,,,,,,,,,,,,,,,,,,,,,,,,,,,,,,,,,,,1.0,1.0,0.7354,0.0,29.0,29.0,29.0,1.0,screwdriver_07s.jpg,1.0,Green.png,5.0,32,,,,,,,,,,,,,,,,,,,,,,,,,,,,,,,,,,,
,,,,,,,,,,,,,,,,,,,,,,,,,,,,,,,,,,,,0.0,1.0,0.8277,0.0,30.0,30.0,30.0,1.0,seaweed_07s.jpg,0.0,Blue.png,6.0,32,,,,,,,,,,,,,,,,,,,,,,,,,,,,,,,,,,,
,,,,,,,,,,,,,,,,,,,,,,,,,,,,,,,,,,,,0.0,1.0,0.5896,0.0,31.0,31.0,31.0,1.0,saxophone_04s.jpg,0.0,Purple.png,6.0,32,,,,,,,,,,,,,,,,,,,,,,,,,,,,,,,,,,,
,,,,,,,,,,,,,,,,,,,,,,,,,,,,,,,,,,,,1.0,0.0,0.8354,0.0,32.0,32.0,32.0,1.0,saxophone_04s.jpg,0.0,Red.png,6.0,32,,,,,,,,,,,,,,,,,,,,,,,,,,,,,,,,,,,
,,,,,,,,,,,,,,,,,,,,,,,,,,,,,,,,,,,,0.0,1.0,0.5652,0.0,33.0,33.0,33.0,1.0,scorpion_01b.jpg,0.0,Orange.png,6.0,32,,,,,,,,,,,,,,,,,,,,,,,,,,,,,,,,,,,
,,,,,,,,,,,,,,,,,,,,,,,,,,,,,,,,,,,,1.0,1.0,0.9069,0.0,34.0,34.0,34.0,1.0,saxophone_04s.jpg,1.0,Yellow.png,6.0,32,,,,,,,,,,,,,,,,,,,,,,,,,,,,,,,,,,,
,,,,,,,,,,,,,,,,,,,,,,,,,,,,,,,,,,,,0.0,1.0,1.1159,0.0,35.0,35.0,35.0,1.0,saxophone_04s.jpg,0.0,Green.png,6.0,32,,,,,,,,,,,,,,,,,,,,,,,,,,,,,,,,,,,
,,,,,,,,,,,,,,,,,,,,,,,,,,,,,,,,,,,,,,,,,,,,,1.0,,,32,1.0,1.0,1.556,0.0,0.0,0.0,0.0,1.0,water_fountain_01b.jpg,shield_02s.jpg,,,,,,,,,,,,,,,,,,,,,,,,,
,,,,,,,,,,,,,,,,,,,,,,,,,,,,,,,,,,,,,,,,,,,,,0.0,,,32,1.0,0.0,1.7738,0.0,1.0,1.0,1.0,1.0,watch_09s.jpg,wing_08s.jpg,,,,,,,,,,,,,,,,,,,,,,,,,
,,,,,,,,,,,,,,,,,,,,,,,,,,,,,,,,,,,,,,,,,,,,,1.0,,,32,0.0,0.0,1.4696,0.0,2.0,2.0,2.0,1.0,watering_can_14s.jpg,scarf_16s.jpg,,,,,,,,,,,,,,,,,,,,,,,,,
,,,,,,,,,,,,,,,,,,,,,,,,,,,,,,,,,,,,,,,,,,,,,1.0,,,32,1.0,1.0,1.3842,0.0,3.0,3.0,3.0,1.0,whipped_cream_02s.jpg,sequin_02s.jpg,,,,,,,,,,,,,,,,,,,,,,,,,
,,,,,,,,,,,,,,,,,,,,,,,,,,,,,,,,,,,,,,,,,,,,,0.0,,,32,0.0,1.0,1.5747,0.0,4.0,4.0,4.0,1.0,drink_05s.jpg,shoelace_13s.jpg,,,,,,,,,,,,,,,,,,,,,,,,,
,,,,,,,,,,,,,,,,,,,,,,,,,,,,,,,,,,,,,,,,,,,,,1.0,,,32,1.0,1.0,1.8195,0.0,5.0,5.0,5.0,1.0,seaweed_07s.jpg,scorpion_01b.jpg,,,,,,,,,,,,,,,,,,,,,,,,,
,,,,,,,,,,,,,,,,,,,,,,,,,,,,,,,,,,,,,,,,,,,,insole_11s.jpg,0.0,Blue.png,1.0,32,,,,,,,,,,,space,1.2897,0.0,1.0,1.1516,0.0,0.0,0.0,0.0,1.0,,,,,,,,,,,,,,,
,,,,,,,,,,,,,,,,,,,,,,,,,,,,,,,,,,,,,,,,,,,,tupperware_09s.jpg,0.0,Purple.png,1.0,32,,,,,,,,,,,,,0.0,1.0,0.8562,0.0,1.0,1.0,1.0,1.0,,,,,,,,,,,,,,,
,,,,,,,,,,,,,,,,,,,,,,,,,,,,,,,,,,,,,,,,,,,,tupperware_09s.jpg,0.0,Red.png,1.0,32,,,,,,,,,,,,,0.0,1.0,0.7159,0.0,2.0,2.0,2.0,1.0,,,,,,,,,,,,,,,
,,,,,,,,,,,,,,,,,,,,,,,,,,,,,,,,,,,,,,,,,,,,fox_13s.jpg,0.0,Orange.png,1.0,32,,,,,,,,,,,,,0.0,1.0,0.5715,0.0,3.0,3.0,3.0,1.0,,,,,,,,,,,,,,,
,,,,,,,,,,,,,,,,,,,,,,,,,,,,,,,,,,,,,,,,,,,,tupperware_09s.jpg,1.0,Yellow.png,1.0,32,,,,,,,,,,,,,1.0,1.0,0.5517,0.0,4.0,4.0,4.0,1.0,,,,,,,,,,,,,,,
,,,,,,,,,,,,,,,,,,,,,,,,,,,,,,,,,,,,,,,,,,,,lavender_10s.jpg,0.0,Green.png,1.0,32,,,,,,,,,,,,,0.0,1.0,0.875,0.0,5.0,5.0,5.0,1.0,,,,,,,,,,,,,,,
,,,,,,,,,,,,,,,,,,,,,,,,,,,,,,,,,,,,,,,,,,,,tupperware_09s.jpg,1.0,Blue.png,2.0,32,,,,,,,,,,,,,1.0,1.0,0.6384,0.0,6.0,6.0,6.0,1.0,,,,,,,,,,,,,,,
,,,,,,,,,,,,,,,,,,,,,,,,,,,,,,,,,,,,,,,,,,,,poinsettia_04s.jpg,0.0,Purple.png,2.0,32,,,,,,,,,,,,,0.0,1.0,0.6611,0.0,7.0,7.0,7.0,1.0,,,,,,,,,,,,,,,
,,,,,,,,,,,,,,,,,,,,,,,,,,,,,,,,,,,,,,,,,,,,margarita_03s.jpg,0.0,Red.png,2.0,32,,,,,,,,,,,,,0.0,1.0,0.5259,0.0,8.0,8.0,8.0,1.0,,,,,,,,,,,,,,,
,,,,,,,,,,,,,,,,,,,,,,,,,,,,,,,,,,,,,,,,,,,,toothpaste_12s.jpg,0.0,Orange.png,2.0,32,,,,,,,,,,,,,0.0,1.0,0.7673,0.0,9.0,9.0,9.0,1.0,,,,,,,,,,,,,,,
,,,,,,,,,,,,,,,,,,,,,,,,,,,,,,,,,,,,,,,,,,,,ladder_15s.jpg,0.0,Yellow.png,2.0,32,,,,,,,,,,,,,0.0,1.0,0.7374,0.0,10.0,10.0,10.0,1.0,,,,,,,,,,,,,,,
,,,,,,,,,,,,,,,,,,,,,,,,,,,,,,,,,,,,,,,,,,,,pocketknife_12s.jpg,0.0,Green.png,2.0,32,,,,,,,,,,,,,0.0,1.0,0.7093,0.0,11.0,11.0,11.0,1.0,,,,,,,,,,,,,,,
,,,,,,,,,,,,,,,,,,,,,,,,,,,,,,,,,,,,,,,,,,,,spoon02a.jpg,0.0,Blue.png,3.0,32,,,,,,,,,,,,,0.0,1.0,0.6245,0.0,12.0,12.0,12.0,1.0,,,,,,,,,,,,,,,
,,,,,,,,,,,,,,,,,,,,,,,,,,,,,,,,,,,,,,,,,,,,mango_09s.jpg,0.0,Purple.png,3.0,32,,,,,,,,,,,,,0.0,1.0,0.5071,0.0,13.0,13.0,13.0,1.0,,,,,,,,,,,,,,,
,,,,,,,,,,,,,,,,,,,,,,,,,,,,,,,,,,,,,,,,,,,,chalice_10s.jpg,0.0,Red.png,3.0,32,,,,,,,,,,,,,0.0,1.0,0.5912,0.0,14.0,14.0,14.0,1.0,,,,,,,,,,,,,,,
,,,,,,,,,,,,,,,,,,,,,,,,,,,,,,,,,,,,,,,,,,,,pocketknife_12s.jpg,0.0,Orange.png,3.0,32,,,,,,,,,,,,,1.0,0.0,0.6343,0.0,15.0,15.0,15.0,1.0,,,,,,,,,,,,,,,
,,,,,,,,,,,,,,,,,,,,,,,,,,,,,,,,,,,,,,,,,,,,abacus_12s.jpg,0.0,Yellow.png,3.0,32,,,,,,,,,,,,,0.0,1.0,0.6228,0.0,16.0,16.0,16.0,1.0,,,,,,,,,,,,,,,
,,,,,,,,,,,,,,,,,,,,,,,,,,,,,,,,,,,,,,,,,,,,abacus_12s.jpg,0.0,Green.png,3.0,32,,,,,,,,,,,,,0.0,1.0,1.0586,0.0,17.0,17.0,17.0,1.0,,,,,,,,,,,,,,,
,,,,,,,,,,,,,,,,,,,,,,,,,,,,,,,,,,,,,,,,,,,,abacus_12s.jpg,1.0,Blue.png,4.0,32,,,,,,,,,,,,,1.0,1.0,0.7485,0.0,18.0,18.0,18.0,1.0,,,,,,,,,,,,,,,
,,,,,,,,,,,,,,,,,,,,,,,,,,,,,,,,,,,,,,,,,,,,abacus_12s.jpg,1.0,Purple.png,4.0,32,,,,,,,,,,,,,1.0,1.0,1.1347,0.0,19.0,19.0,19.0,1.0,,,,,,,,,,,,,,,
,,,,,,,,,,,,,,,,,,,,,,,,,,,,,,,,,,,,,,,,,,,,sushi_08s.jpg,0.0,Red.png,4.0,32,,,,,,,,,,,,,0.0,1.0,0.6502,0.0,20.0,20.0,20.0,1.0,,,,,,,,,,,,,,,
,,,,,,,,,,,,,,,,,,,,,,,,,,,,,,,,,,,,,,,,,,,,funnel_01b.jpg,0.0,Orange.png,4.0,32,,,,,,,,,,,,,0.0,1.0,0.9894,0.0,21.0,21.0,21.0,1.0,,,,,,,,,,,,,,,
,,,,,,,,,,,,,,,,,,,,,,,,,,,,,,,,,,,,,,,,,,,,rooster_03s.jpg,0.0,Yellow.png,4.0,32,,,,,,,,,,,,,0.0,1.0,0.639,0.0,22.0,22.0,22.0,1.0,,,,,,,,,,,,,,,
,,,,,,,,,,,,,,,,,,,,,,,,,,,,,,,,,,,,,,,,,,,,ukulele_02s.jpg,0.0,Green.png,4.0,32,,,,,,,,,,,,,0.0,1.0,0.75,0.0,23.0,23.0,23.0,1.0,,,,,,,,,,,,,,,
,,,,,,,,,,,,,,,,,,,,,,,,,,,,,,,,,,,,,,,,,,,,pocketknife_12s.jpg,0.0,Blue.png,5.0,32,,,,,,,,,,,,,0.0,1.0,1.171,0.0,24.0,24.0,24.0,1.0,,,,,,,,,,,,,,,
,,,,,,,,,,,,,,,,,,,,,,,,,,,,,,,,,,,,,,,,,,,,pocketknife_12s.jpg,0.0,Purple.png,5.0,32,,,,,,,,,,,,,1.0,0.0,0.8504,0.0,25.0,25.0,25.0,1.0,,,,,,,,,,,,,,,
,,,,,,,,,,,,,,,,,,,,,,,,,,,,,,,,,,,,,,,,,,,,pocketknife_12s.jpg,1.0,Red.png,5.0,32,,,,,,,,,,,,,1.0,1.0,1.3488,0.0,26.0,26.0,26.0,1.0,,,,,,,,,,,,,,,
,,,,,,,,,,,,,,,,,,,,,,,,,,,,,,,,,,,,,,,,,,,,stapler_01b.jpg,0.0,Orange.png,5.0,32,,,,,,,,,,,,,0.0,1.0,0.5677,0.0,27.0,27.0,27.0,1.0,,,,,,,,,,,,,,,
,,,,,,,,,,,,,,,,,,,,,,,,,,,,,,,,,,,,,,,,,,,,birthday_cake_09s.jpg,0.0,Yellow.png,5.0,32,,,,,,,,,,,,,0.0,1.0,0.6096,0.0,28.0,28.0,28.0,1.0,,,,,,,,,,,,,,,
,,,,,,,,,,,,,,,,,,,,,,,,,,,,,,,,,,,,,,,,,,,,meatball_13s.jpg,0.0,Green.png,5.0,32,,,,,,,,,,,,,0.0,1.0,0.5995,0.0,29.0,29.0,29.0,1.0,,,,,,,,,,,,,,,
,,,,,,,,,,,,,,,,,,,,,,,,,,,,,,,,,,,,,,,,,,,,cape_11s.jpg,0.0,Blue.png,6.0,32,,,,,,,,,,,,,0.0,1.0,0.6862,0.0,30.0,30.0,30.0,1.0,,,,,,,,,,,,,,,
,,,,,,,,,,,,,,,,,,,,,,,,,,,,,,,,,,,,,,,,,,,,cape_11s.jpg,0.0,Purple.png,6.0,32,,,,,,,,,,,,,1.0,0.0,1.3326,0.0,31.0,31.0,31.0,1.0,,,,,,,,,,,,,,,
,,,,,,,,,,,,,,,,,,,,,,,,,,,,,,,,,,,,,,,,,,,,lizard_10n.jpg,0.0,Red.png,6.0,32,,,,,,,,,,,,,0.0,1.0,0.8733,0.0,32.0,32.0,32.0,1.0,,,,,,,,,,,,,,,
,,,,,,,,,,,,,,,,,,,,,,,,,,,,,,,,,,,,,,,,,,,,refrigerator_07s.jpg,0.0,Orange.png,6.0,32,,,,,,,,,,,,,0.0,1.0,0.6402,0.0,33.0,33.0,33.0,1.0,,,,,,,,,,,,,,,
,,,,,,,,,,,,,,,,,,,,,,,,,,,,,,,,,,,,,,,,,,,,refrigerator_07s.jpg,0.0,Yellow.png,6.0,32,,,,,,,,,,,,,0.0,1.0,0.8819,0.0,34.0,34.0,34.0,1.0,,,,,,,,,,,,,,,
,,,,,,,,,,,,,,,,,,,,,,,,,,,,,,,,,,,,,,,,,,,,touchpad_11s.jpg,0.0,Green.png,6.0,32,,,,,,,,,,,,,0.0,1.0,0.8521,0.0,35.0,35.0,35.0,1.0,,,,,,,,,,,,,,,
,,,,,,,,,,,,,,,,,,,,,,,,,,,,,,,,,,,,,,,,,,,,,1.0,,,32,,,,,,,,,lavender_10s.jpg,margarita_03s.jpg,,,,,,,,,,,1.0,1.0,1.76,0.0,0.0,0.0,0.0,1.0,,,,,,,
,,,,,,,,,,,,,,,,,,,,,,,,,,,,,,,,,,,,,,,,,,,,,1.0,,,32,,,,,,,,,toothpaste_12s.jpg,spoon02a.jpg,,,,,,,,,,,1.0,1.0,1.709,0.0,1.0,1.0,1.0,1.0,,,,,,,
,,,,,,,,,,,,,,,,,,,,,,,,,,,,,,,,,,,,,,,,,,,,,1.0,,,32,,,,,,,,,ladder_15s.jpg,mango_09s.jpg,,,,,,,,,,,1.0,1.0,2.6169,0.0,2.0,2.0,2.0,1.0,,,,,,,
,,,,,,,,,,,,,,,,,,,,,,,,,,,,,,,,,,,,,,,,,,,,,0.0,,,32,,,,,,,,,fox_13s.jpg,insole_11s.jpg,,,,,,,,,,,0.0,1.0,1.0073,0.0,3.0,3.0,3.0,1.0,,,,,,,
,,,,,,,,,,,,,,,,,,,,,,,,,,,,,,,,,,,,,,,,,,,,,0.0,,,32,,,,,,,,,ukulele_02s.jpg,sushi_08s.jpg,,,,,,,,,,,1.0,0.0,2.1915,0.0,4.0,4.0,4.0,1.0,,,,,,,
,,,,,,,,,,,,,,,,,,,,,,,,,,,,,,,,,,,,,,,,,,,,,0.0,,,32,,,,,,,,,touchpad_11s.jpg,lizard_10n.jpg,,,,,,,,,,,1.0,0.0,1.4255,0.0,5.0,5.0,5.0,1.0,,,,,,,
,,,,,,,,,,,,,,,,,,,,,,,,,,,,,,,,,,,,,,,,,,,,,,,,32,,,,,,,,,,,,,,,,,,,,,,,,,,,,,0.0,0.0,0.0,0.0,1.0,new2backpresent_1_2.xlsx,new2back_compare_task_1_2.xlsx
,,,,,,,,,,,,,,,,,,,,,,,,,,,,,,,,,,,,,,,,,,,,juicer2_06s.jpg,0.0,Blue.png,1.0,32,,,,,,,,,,,,,0.0,1.0,1.0809,0.0,0.0,0.0,0.0,1.0,,,,,,,,,,,,,,,
,,,,,,,,,,,,,,,,,,,,,,,,,,,,,,,,,,,,,,,,,,,,juicer2_06s.jpg,0.0,Purple.png,1.0,32,,,,,,,,,,,,,0.0,1.0,0.4328,0.0,1.0,1.0,1.0,1.0,,,,,,,,,,,,,,,
,,,,,,,,,,,,,,,,,,,,,,,,,,,,,,,,,,,,,,,,,,,,tambourine_06s.jpg,0.0,Red.png,1.0,32,,,,,,,,,,,,,0.0,1.0,0.6238,0.0,2.0,2.0,2.0,1.0,,,,,,,,,,,,,,,
,,,,,,,,,,,,,,,,,,,,,,,,,,,,,,,,,,,,,,,,,,,,luggage_08s.jpg,0.0,Orange.png,1.0,32,,,,,,,,,,,,,0.0,1.0,0.7834,0.0,3.0,3.0,3.0,1.0,,,,,,,,,,,,,,,
,,,,,,,,,,,,,,,,,,,,,,,,,,,,,,,,,,,,,,,,,,,,tambourine_06s.jpg,1.0,Yellow.png,1.0,32,,,,,,,,,,,,,1.0,1.0,0.9664,0.0,4.0,4.0,4.0,1.0,,,,,,,,,,,,,,,
,,,,,,,,,,,,,,,,,,,,,,,,,,,,,,,,,,,,,,,,,,,,towel_rack_04s.jpg,0.0,Green.png,1.0,32,,,,,,,,,,,,,0.0,1.0,0.8387,0.0,5.0,5.0,5.0,1.0,,,,,,,,,,,,,,,
,,,,,,,,,,,,,,,,,,,,,,,,,,,,,,,,,,,,,,,,,,,,crayon_09s.jpg,0.0,Blue.png,2.0,32,,,,,,,,,,,,,0.0,1.0,0.6508,0.0,6.0,6.0,6.0,1.0,,,,,,,,,,,,,,,
,,,,,,,,,,,,,,,,,,,,,,,,,,,,,,,,,,,,,,,,,,,,gargoyle_08s.jpg,0.0,Purple.png,2.0,32,,,,,,,,,,,,,0.0,1.0,0.8017,0.0,7.0,7.0,7.0,1.0,,,,,,,,,,,,,,,
,,,,,,,,,,,,,,,,,,,,,,,,,,,,,,,,,,,,,,,,,,,,boar_10s.jpg,0.0,Red.png,2.0,32,,,,,,,,,,,,,0.0,1.0,0.6223,0.0,8.0,8.0,8.0,1.0,,,,,,,,,,,,,,,
,,,,,,,,,,,,,,,,,,,,,,,,,,,,,,,,,,,,,,,,,,,,gargoyle_08s.jpg,1.0,Orange.png,2.0,32,,,,,,,,,,,,,1.0,1.0,0.8011,0.0,9.0,9.0,9.0,1.0,,,,,,,,,,,,,,,
,,,,,,,,,,,,,,,,,,,,,,,,,,,,,,,,,,,,,,,,,,,,limousine_12s.jpg,0.0,Yellow.png,2.0,32,,,,,,,,,,,,,0.0,1.0,0.6018,0.0,10.0,10.0,10.0,1.0,,,,,,,,,,,,,,,
,,,,,,,,,,,,,,,,,,,,,,,,,,,,,,,,,,,,,,,,,,,,outlet_10s.jpg,0.0,Green.png,2.0,32,,,,,,,,,,,,,0.0,1.0,0.5846,0.0,11.0,11.0,11.0,1.0,,,,,,,,,,,,,,,
,,,,,,,,,,,,,,,,,,,,,,,,,,,,,,,,,,,,,,,,,,,,comic_book_02s.jpg,0.0,Blue.png,3.0,32,,,,,,,,,,,,,0.0,1.0,0.7195,0.0,12.0,12.0,12.0,1.0,,,,,,,,,,,,,,,
,,,,,,,,,,,,,,,,,,,,,,,,,,,,,,,,,,,,,,,,,,,,mask_09s.jpg,0.0,Purple.png,3.0,32,,,,,,,,,,,,,0.0,1.0,0.8001,0.0,13.0,13.0,13.0,1.0,,,,,,,,,,,,,,,
,,,,,,,,,,,,,,,,,,,,,,,,,,,,,,,,,,,,,,,,,,,,lasagna_06s.jpg,0.0,Red.png,3.0,32,,,,,,,,,,,,,0.0,1.0,0.6545,0.0,14.0,14.0,14.0,1.0,,,,,,,,,,,,,,,
,,,,,,,,,,,,,,,,,,,,,,,,,,,,,,,,,,,,,,,,,,,,diving_board_07s.jpg,0.0,Orange.png,3.0,32,,,,,,,,,,,,,0.0,1.0,0.6503,0.0,15.0,15.0,15.0,1.0,,,,,,,,,,,,,,,
,,,,,,,,,,,,,,,,,,,,,,,,,,,,,,,,,,,,,,,,,,,,lion_18s.jpg,0.0,Yellow.png,3.0,32,,,,,,,,,,,,,0.0,1.0,0.5681,0.0,16.0,16.0,16.0,1.0,,,,,,,,,,,,,,,
,,,,,,,,,,,,,,,,,,,,,,,,,,,,,,,,,,,,,,,,,,,,diving_board_07s.jpg,1.0,Green.png,3.0,32,,,,,,,,,,,,,1.0,1.0,0.8369,0.0,17.0,17.0,17.0,1.0,,,,,,,,,,,,,,,
,,,,,,,,,,,,,,,,,,,,,,,,,,,,,,,,,,,,,,,,,,,,lion_18s.jpg,1.0,Blue.png,4.0,32,,,,,,,,,,,,,0.0,0.0,1.2565,0.0,18.0,18.0,18.0,1.0,,,,,,,,,,,,,,,
,,,,,,,,,,,,,,,,,,,,,,,,,,,,,,,,,,,,,,,,,,,,medal_04s.jpg,0.0,Purple.png,4.0,32,,,,,,,,,,,,,0.0,1.0,0.6853,0.0,19.0,19.0,19.0,1.0,,,,,,,,,,,,,,,
,,,,,,,,,,,,,,,,,,,,,,,,,,,,,,,,,,,,,,,,,,,,incense_02s.jpg,0.0,Red.png,4.0,32,,,,,,,,,,,,,0.0,1.0,0.666,0.0,20.0,20.0,20.0,1.0,,,,,,,,,,,,,,,
,,,,,,,,,,,,,,,,,,,,,,,,,,,,,,,,,,,,,,,,,,,,tape_06s.jpg,0.0,Orange.png,4.0,32,,,,,,,,,,,,,0.0,1.0,0.6552,0.0,21.0,21.0,21.0,1.0,,,,,,,,,,,,,,,
,,,,,,,,,,,,,,,,,,,,,,,,,,,,,,,,,,,,,,,,,,,,medal_04s.jpg,0.0,Yellow.png,4.0,32,,,,,,,,,,,,,1.0,0.0,1.0502,0.0,22.0,22.0,22.0,1.0,,,,,,,,,,,,,,,
,,,,,,,,,,,,,,,,,,,,,,,,,,,,,,,,,,,,,,,,,,,,buoy_04s.jpg,0.0,Green.png,4.0,32,,,,,,,,,,,,,0.0,1.0,0.7661,0.0,23.0,23.0,23.0,1.0,,,,,,,,,,,,,,,
,,,,,,,,,,,,,,,,,,,,,,,,,,,,,,,,,,,,,,,,,,,,limousine_12s.jpg,0.0,Blue.png,5.0,32,,,,,,,,,,,,,0.0,1.0,0.9041,0.0,24.0,24.0,24.0,1.0,,,,,,,,,,,,,,,
,,,,,,,,,,,,,,,,,,,,,,,,,,,,,,,,,,,,,,,,,,,,jewel_01b.jpg,0.0,Purple.png,5.0,32,,,,,,,,,,,,,0.0,1.0,0.6395,0.0,25.0,25.0,25.0,1.0,,,,,,,,,,,,,,,
,,,,,,,,,,,,,,,,,,,,,,,,,,,,,,,,,,,,,,,,,,,,parachute_03s.jpg,0.0,Red.png,5.0,32,,,,,,,,,,,,,0.0,1.0,0.7197,0.0,26.0,26.0,26.0,1.0,,,,,,,,,,,,,,,
,,,,,,,,,,,,,,,,,,,,,,,,,,,,,,,,,,,,,,,,,,,,mannequin_05s.jpg,0.0,Orange.png,5.0,32,,,,,,,,,,,,,0.0,1.0,0.7839,0.0,27.0,27.0,27.0,1.0,,,,,,,,,,,,,,,
,,,,,,,,,,,,,,,,,,,,,,,,,,,,,,,,,,,,,,,,,,,,snowman_02s.jpg,0.0,Yellow.png,5.0,32,,,,,,,,,,,,,0.0,1.0,0.6952,0.0,28.0,28.0,28.0,1.0,,,,,,,,,,,,,,,
,,,,,,,,,,,,,,,,,,,,,,,,,,,,,,,,,,,,,,,,,,,,fossil_06s.jpg,0.0,Green.png,5.0,32,,,,,,,,,,,,,0.0,1.0,0.5515,0.0,29.0,29.0,29.0,1.0,,,,,,,,,,,,,,,
,,,,,,,,,,,,,,,,,,,,,,,,,,,,,,,,,,,,,,,,,,,,perfume_06s.jpg,0.0,Blue.png,6.0,32,,,,,,,,,,,,,0.0,1.0,0.7198,0.0,30.0,30.0,30.0,1.0,,,,,,,,,,,,,,,
,,,,,,,,,,,,,,,,,,,,,,,,,,,,,,,,,,,,,,,,,,,,fossil_06s.jpg,1.0,Purple.png,6.0,32,,,,,,,,,,,,,1.0,1.0,0.7538,0.0,31.0,31.0,31.0,1.0,,,,,,,,,,,,,,,
,,,,,,,,,,,,,,,,,,,,,,,,,,,,,,,,,,,,,,,,,,,,pancake_12s.jpg,0.0,Red.png,6.0,32,,,,,,,,,,,,,0.0,1.0,0.7434,0.0,32.0,32.0,32.0,1.0,,,,,,,,,,,,,,,
,,,,,,,,,,,,,,,,,,,,,,,,,,,,,,,,,,,,,,,,,,,,tie_03s.jpg,0.0,Orange.png,6.0,32,,,,,,,,,,,,,0.0,1.0,0.6002,0.0,33.0,33.0,33.0,1.0,,,,,,,,,,,,,,,
,,,,,,,,,,,,,,,,,,,,,,,,,,,,,,,,,,,,,,,,,,,,pancake_12s.jpg,1.0,Yellow.png,6.0,32,,,,,,,,,,,,,0.0,0.0,0.6402,0.0,34.0,34.0,34.0,1.0,,,,,,,,,,,,,,,
,,,,,,,,,,,,,,,,,,,,,,,,,,,,,,,,,,,,,,,,,,,,padlock_07s.jpg,0.0,Green.png,6.0,32,,,,,,,,,,,,,0.0,1.0,0.6021,0.0,35.0,35.0,35.0,1.0,,,,,,,,,,,,,,,
,,,,,,,,,,,,,,,,,,,,,,,,,,,,,,,,,,,,,,,,,,,,,0.0,,,32,,,,,,,,,crayon_09s.jpg,luggage_08s.jpg,,,,,,,,,,,0.0,1.0,1.76,0.0,0.0,0.0,0.0,1.0,,,,,,,
,,,,,,,,,,,,,,,,,,,,,,,,,,,,,,,,,,,,,,,,,,,,,1.0,,,32,,,,,,,,,towel_rack_04s.jpg,boar_10s.jpg,,,,,,,,,,,1.0,1.0,2.7336,0.0,1.0,1.0,1.0,1.0,,,,,,,
,,,,,,,,,,,,,,,,,,,,,,,,,,,,,,,,,,,,,,,,,,,,,0.0,,,32,,,,,,,,,lasagna_06s.jpg,outlet_10s.jpg,,,,,,,,,,,1.0,0.0,1.8756,0.0,2.0,2.0,2.0,1.0,,,,,,,
,,,,,,,,,,,,,,,,,,,,,,,,,,,,,,,,,,,,,,,,,,,,,1.0,,,32,,,,,,,,,jewel_01b.jpg,snowman_02s.jpg,,,,,,,,,,,1.0,1.0,1.3922,0.0,3.0,3.0,3.0,1.0,,,,,,,
,,,,,,,,,,,,,,,,,,,,,,,,,,,,,,,,,,,,,,,,,,,,,0.0,,,32,,,,,,,,,buoy_04s.jpg,incense_02s.jpg,,,,,,,,,,,1.0,0.0,1.6111,0.0,4.0,4.0,4.0,1.0,,,,,,,
,,,,,,,,,,,,,,,,,,,,,,,,,,,,,,,,,,,,,,,,,,,,,0.0,,,32,,,,,,,,,tie_03s.jpg,perfume_06s.jpg,,,,,,,,,,,1.0,0.0,1.1359,0.0,5.0,5.0,5.0,1.0,,,,,,,
,,,,,,,,,,,,,,,,,,,,,,,,,,,,,,,,,,,,,,,,,,,,,,,,32,,,,,,,,,,,,,,,,,,,,,,,,,,,,,0.0,1.0,1.0,1.0,1.0,new2backpresent_2_2.xlsx,new2back_compare_task_2_2.xlsx
,,,,,,,,,,,,,,,,,,,,,,,,,,,,,,,,,,,,,,,,,,,,surfboard_11s.jpg,0.0,Blue.png,1.0,32,,,,,,,,,,,,,0.0,1.0,1.1666,0.0,0.0,0.0,0.0,1.0,,,,,,,,,,,,,,,
,,,,,,,,,,,,,,,,,,,,,,,,,,,,,,,,,,,,,,,,,,,,surfboard_11s.jpg,0.0,Purple.png,1.0,32,,,,,,,,,,,,,0.0,1.0,1.0898,0.0,1.0,1.0,1.0,1.0,,,,,,,,,,,,,,,
,,,,,,,,,,,,,,,,,,,,,,,,,,,,,,,,,,,,,,,,,,,,surfboard_11s.jpg,0.0,Red.png,1.0,32,,,,,,,,,,,,,1.0,0.0,0.9636,0.0,2.0,2.0,2.0,1.0,,,,,,,,,,,,,,,
,,,,,,,,,,,,,,,,,,,,,,,,,,,,,,,,,,,,,,,,,,,,badge_03s.jpg,0.0,Orange.png,1.0,32,,,,,,,,,,,,,0.0,1.0,0.9458,0.0,3.0,3.0,3.0,1.0,,,,,,,,,,,,,,,
,,,,,,,,,,,,,,,,,,,,,,,,,,,,,,,,,,,,,,,,,,,,surfboard_11s.jpg,1.0,Yellow.png,1.0,32,,,,,,,,,,,,,1.0,1.0,0.6228,0.0,4.0,4.0,4.0,1.0,,,,,,,,,,,,,,,
,,,,,,,,,,,,,,,,,,,,,,,,,,,,,,,,,,,,,,,,,,,,surfboard_11s.jpg,0.0,Green.png,1.0,32,,,,,,,,,,,,,1.0,0.0,1.3668,0.0,5.0,5.0,5.0,1.0,,,,,,,,,,,,,,,
,,,,,,,,,,,,,,,,,,,,,,,,,,,,,,,,,,,,,,,,,,,,surfboard_11s.jpg,1.0,Blue.png,2.0,32,,,,,,,,,,,,,1.0,1.0,0.6854,0.0,6.0,6.0,6.0,1.0,,,,,,,,,,,,,,,
,,,,,,,,,,,,,,,,,,,,,,,,,,,,,,,,,,,,,,,,,,,,playpen_11s.jpg,0.0,Purple.png,2.0,32,,,,,,,,,,,,,0.0,1.0,0.6639,0.0,7.0,7.0,7.0,1.0,,,,,,,,,,,,,,,
,,,,,,,,,,,,,,,,,,,,,,,,,,,,,,,,,,,,,,,,,,,,surfboard_11s.jpg,1.0,Red.png,2.0,32,,,,,,,,,,,,,1.0,1.0,1.5493,0.0,8.0,8.0,8.0,1.0,,,,,,,,,,,,,,,
,,,,,,,,,,,,,,,,,,,,,,,,,,,,,,,,,,,,,,,,,,,,popcorn_09s.jpg,0.0,Orange.png,2.0,32,,,,,,,,,,,,,0.0,1.0,0.9579,0.0,9.0,9.0,9.0,1.0,,,,,,,,,,,,,,,
,,,,,,,,,,,,,,,,,,,,,,,,,,,,,,,,,,,,,,,,,,,,surfboard_11s.jpg,1.0,Yellow.png,2.0,32,,,,,,,,,,,,,1.0,1.0,1.1007,0.0,10.0,10.0,10.0,1.0,,,,,,,,,,,,,,,
,,,,,,,,,,,,,,,,,,,,,,,,,,,,,,,,,,,,,,,,,,,,popcorn_09s.jpg,1.0,Green.png,2.0,32,,,,,,,,,,,,,1.0,1.0,1.1675,0.0,11.0,11.0,11.0,1.0,,,,,,,,,,,,,,,
,,,,,,,,,,,,,,,,,,,,,,,,,,,,,,,,,,,,,,,,,,,,lollipop_08s.jpg,0.0,Blue.png,3.0,32,,,,,,,,,,,,,0.0,1.0,0.6498,0.0,12.0,12.0,12.0,1.0,,,,,,,,,,,,,,,
,,,,,,,,,,,,,,,,,,,,,,,,,,,,,,,,,,,,,,,,,,,,popcorn_09s.jpg,1.0,Purple.png,3.0,32,,,,,,,,,,,,,1.0,1.0,1.4209,0.0,13.0,13.0,13.0,1.0,,,,,,,,,,,,,,,
,,,,,,,,,,,,,,,,,,,,,,,,,,,,,,,,,,,,,,,,,,,,fire_pit_10s.jpg,0.0,Red.png,3.0,32,,,,,,,,,,,,,0.0,1.0,0.6434,0.0,14.0,14.0,14.0,1.0,,,,,,,,,,,,,,,
,,,,,,,,,,,,,,,,,,,,,,,,,,,,,,,,,,,,,,,,,,,,joystick_01b.jpg,0.0,Orange.png,3.0,32,,,,,,,,,,,,,0.0,1.0,0.6863,0.0,15.0,15.0,15.0,1.0,,,,,,,,,,,,,,,
,,,,,,,,,,,,,,,,,,,,,,,,,,,,,,,,,,,,,,,,,,,,panda_02s.jpg,0.0,Yellow.png,3.0,32,,,,,,,,,,,,,0.0,1.0,0.6734,0.0,16.0,16.0,16.0,1.0,,,,,,,,,,,,,,,
,,,,,,,,,,,,,,,,,,,,,,,,,,,,,,,,,,,,,,,,,,,,sundae_08s.jpg,0.0,Green.png,3.0,32,,,,,,,,,,,,,0.0,1.0,1.2857,0.0,17.0,17.0,17.0,1.0,,,,,,,,,,,,,,,
,,,,,,,,,,,,,,,,,,,,,,,,,,,,,,,,,,,,,,,,,,,,boomerang_06s.jpg,0.0,Blue.png,4.0,32,,,,,,,,,,,,,0.0,1.0,0.7393,0.0,18.0,18.0,18.0,1.0,,,,,,,,,,,,,,,
,,,,,,,,,,,,,,,,,,,,,,,,,,,,,,,,,,,,,,,,,,,,bagel_15s.jpg,0.0,Purple.png,4.0,32,,,,,,,,,,,,,0.0,1.0,0.6424,0.0,19.0,19.0,19.0,1.0,,,,,,,,,,,,,,,
,,,,,,,,,,,,,,,,,,,,,,,,,,,,,,,,,,,,,,,,,,,,powder_07s.jpg,0.0,Red.png,4.0,32,,,,,,,,,,,,,0.0,1.0,0.8693,0.0,20.0,20.0,20.0,1.0,,,,,,,,,,,,,,,
,,,,,,,,,,,,,,,,,,,,,,,,,,,,,,,,,,,,,,,,,,,,lipstick_02s.jpg,0.0,Orange.png,4.0,32,,,,,,,,,,,,,0.0,1.0,0.8005,0.0,21.0,21.0,21.0,1.0,,,,,,,,,,,,,,,
,,,,,,,,,,,,,,,,,,,,,,,,,,,,,,,,,,,,,,,,,,,,bagel_15s.jpg,0.0,Yellow.png,4.0,32,,,,,,,,,,,,,0.0,1.0,1.0369,0.0,22.0,22.0,22.0,1.0,,,,,,,,,,,,,,,
,,,,,,,,,,,,,,,,,,,,,,,,,,,,,,,,,,,,,,,,,,,,ladle_04s.jpg,0.0,Green.png,4.0,32,,,,,,,,,,,,,0.0,1.0,0.9586,0.0,23.0,23.0,23.0,1.0,,,,,,,,,,,,,,,
,,,,,,,,,,,,,,,,,,,,,,,,,,,,,,,,,,,,,,,,,,,,megaphone_03s.jpg,0.0,Blue.png,5.0,32,,,,,,,,,,,,,0.0,1.0,0.9021,0.0,24.0,24.0,24.0,1.0,,,,,,,,,,,,,,,
,,,,,,,,,,,,,,,,,,,,,,,,,,,,,,,,,,,,,,,,,,,,puck_06s.jpg,0.0,Purple.png,5.0,32,,,,,,,,,,,,,0.0,1.0,1.1211,0.0,25.0,25.0,25.0,1.0,,,,,,,,,,,,,,,
,,,,,,,,,,,,,,,,,,,,,,,,,,,,,,,,,,,,,,,,,,,,cardinal_07s.jpg,0.0,Red.png,5.0,32,,,,,,,,,,,,,0.0,1.0,0.9232,0.0,26.0,26.0,26.0,1.0,,,,,,,,,,,,,,,
,,,,,,,,,,,,,,,,,,,,,,,,,,,,,,,,,,,,,,,,,,,,puck_06s.jpg,1.0,Orange.png,5.0,32,,,,,,,,,,,,,1.0,1.0,1.1216,0.0,27.0,27.0,27.0,1.0,,,,,,,,,,,,,,,
,,,,,,,,,,,,,,,,,,,,,,,,,,,,,,,,,,,,,,,,,,,,bee_20s.jpg,0.0,Yellow.png,5.0,32,,,,,,,,,,,,,0.0,1.0,0.7023,0.0,28.0,28.0,28.0,1.0,,,,,,,,,,,,,,,
,,,,,,,,,,,,,,,,,,,,,,,,,,,,,,,,,,,,,,,,,,,,toilet_paper_12s.jpg,0.0,Green.png,5.0,32,,,,,,,,,,,,,0.0,1.0,0.8865,0.0,29.0,29.0,29.0,1.0,,,,,,,,,,,,,,,
,,,,,,,,,,,,,,,,,,,,,,,,,,,,,,,,,,,,,,,,,,,,mud_13s.jpg,0.0,Blue.png,6.0,32,,,,,,,,,,,,,0.0,1.0,0.96,0.0,30.0,30.0,30.0,1.0,,,,,,,,,,,,,,,
,,,,,,,,,,,,,,,,,,,,,,,,,,,,,,,,,,,,,,,,,,,,measuring_cup_02s.jpg,0.0,Purple.png,6.0,32,,,,,,,,,,,,,0.0,1.0,1.0345,0.0,31.0,31.0,31.0,1.0,,,,,,,,,,,,,,,
,,,,,,,,,,,,,,,,,,,,,,,,,,,,,,,,,,,,,,,,,,,,ostrich_06s.jpg,0.0,Red.png,6.0,32,,,,,,,,,,,,,0.0,1.0,0.6344,0.0,32.0,32.0,32.0,1.0,,,,,,,,,,,,,,,
,,,,,,,,,,,,,,,,,,,,,,,,,,,,,,,,,,,,,,,,,,,,raspberry_12s.jpg,0.0,Orange.png,6.0,32,,,,,,,,,,,,,0.0,1.0,0.7539,0.0,33.0,33.0,33.0,1.0,,,,,,,,,,,,,,,
,,,,,,,,,,,,,,,,,,,,,,,,,,,,,,,,,,,,,,,,,,,,mud_13s.jpg,0.0,Yellow.png,6.0,32,,,,,,,,,,,,,1.0,0.0,1.1484,0.0,34.0,34.0,34.0,1.0,,,,,,,,,,,,,,,
,,,,,,,,,,,,,,,,,,,,,,,,,,,,,,,,,,,,,,,,,,,,radiator_05s.jpg,0.0,Green.png,6.0,32,,,,,,,,,,,,,0.0,1.0,0.7468,0.0,35.0,35.0,35.0,1.0,,,,,,,,,,,,,,,
,,,,,,,,,,,,,,,,,,,,,,,,,,,,,,,,,,,,,,,,,,,,,0.0,,,32,,,,,,,,,measuring_cup_02s.jpg,bee_20s.jpg,,,,,,,,,,,0.0,1.0,1.4571,0.0,0.0,0.0,0.0,1.0,,,,,,,
,,,,,,,,,,,,,,,,,,,,,,,,,,,,,,,,,,,,,,,,,,,,,1.0,,,32,,,,,,,,,lipstick_02s.jpg,megaphone_03s.jpg,,,,,,,,,,,1.0,1.0,1.4056,0.0,1.0,1.0,1.0,1.0,,,,,,,
,,,,,,,,,,,,,,,,,,,,,,,,,,,,,,,,,,,,,,,,,,,,,0.0,,,32,,,,,,,,,boomerang_06s.jpg,joystick_01b.jpg,,,,,,,,,,,1.0,0.0,1.322,0.0,2.0,2.0,2.0,1.0,,,,,,,
,,,,,,,,,,,,,,,,,,,,,,,,,,,,,,,,,,,,,,,,,,,,,0.0,,,32,,,,,,,,,sundae_08s.jpg,fire_pit_10s.jpg,,,,,,,,,,,1.0,0.0,1.3831,0.0,3.0,3.0,3.0,1.0,,,,,,,
,,,,,,,,,,,,,,,,,,,,,,,,,,,,,,,,,,,,,,,,,,,,,0.0,,,32,,,,,,,,,radiator_05s.jpg,ostrich_06s.jpg,,,,,,,,,,,1.0,0.0,1.6285,0.0,4.0,4.0,4.0,1.0,,,,,,,
,,,,,,,,,,,,,,,,,,,,,,,,,,,,,,,,,,,,,,,,,,,,,0.0,,,32,,,,,,,,,ladle_04s.jpg,powder_07s.jpg,,,,,,,,,,,0.0,1.0,1.2358,0.0,5.0,5.0,5.0,1.0,,,,,,,
,,,,,,,,,,,,,,,,,,,,,,,,,,,,,,,,,,,,,,,,,,,,,,,,32,,,,,,,,,,,,,,,,,,,,,,,,,,,,,0.0,2.0,2.0,2.0,1.0,new2backpresent_3_2.xlsx,new2back_compare_task_3_2.xlsx
,,,,,,,,,,,,,,,,,,,,,,,,,,,,,,,,,,,,,,,,,,,,glasses01a.jpg,0.0,Blue.png,1.0,32,,,,,,,,,,,,,0.0,1.0,1.0412,0.0,0.0,0.0,0.0,1.0,,,,,,,,,,,,,,,
,,,,,,,,,,,,,,,,,,,,,,,,,,,,,,,,,,,,,,,,,,,,piano_13n.jpg,0.0,Purple.png,1.0,32,,,,,,,,,,,,,0.0,1.0,0.6029,0.0,1.0,1.0,1.0,1.0,,,,,,,,,,,,,,,
,,,,,,,,,,,,,,,,,,,,,,,,,,,,,,,,,,,,,,,,,,,,candy_cane_06s.jpg,0.0,Red.png,1.0,32,,,,,,,,,,,,,0.0,1.0,0.5142,0.0,2.0,2.0,2.0,1.0,,,,,,,,,,,,,,,
,,,,,,,,,,,,,,,,,,,,,,,,,,,,,,,,,,,,,,,,,,,,cushion_08s.jpg,0.0,Orange.png,1.0,32,,,,,,,,,,,,,0.0,1.0,0.503,0.0,3.0,3.0,3.0,1.0,,,,,,,,,,,,,,,
,,,,,,,,,,,,,,,,,,,,,,,,,,,,,,,,,,,,,,,,,,,,candy_cane_06s.jpg,1.0,Yellow.png,1.0,32,,,,,,,,,,,,,1.0,1.0,0.8421,0.0,4.0,4.0,4.0,1.0,,,,,,,,,,,,,,,
,,,,,,,,,,,,,,,,,,,,,,,,,,,,,,,,,,,,,,,,,,,,candy_cane_06s.jpg,0.0,Green.png,1.0,32,,,,,,,,,,,,,0.0,1.0,0.961,0.0,5.0,5.0,5.0,1.0,,,,,,,,,,,,,,,
,,,,,,,,,,,,,,,,,,,,,,,,,,,,,,,,,,,,,,,,,,,,rosary_03s.jpg,0.0,Blue.png,2.0,32,,,,,,,,,,,,,0.0,1.0,0.8169,0.0,6.0,6.0,6.0,1.0,,,,,,,,,,,,,,,
,,,,,,,,,,,,,,,,,,,,,,,,,,,,,,,,,,,,,,,,,,,,rosary_03s.jpg,0.0,Purple.png,2.0,32,,,,,,,,,,,,,0.0,1.0,1.4709,0.0,7.0,7.0,7.0,1.0,,,,,,,,,,,,,,,
,,,,,,,,,,,,,,,,,,,,,,,,,,,,,,,,,,,,,,,,,,,,rosary_03s.jpg,1.0,Red.png,2.0,32,,,,,,,,,,,,,1.0,1.0,0.8803,0.0,8.0,8.0,8.0,1.0,,,,,,,,,,,,,,,
,,,,,,,,,,,,,,,,,,,,,,,,,,,,,,,,,,,,,,,,,,,,rosary_03s.jpg,1.0,Orange.png,2.0,32,,,,,,,,,,,,,1.0,1.0,0.921,0.0,9.0,9.0,9.0,1.0,,,,,,,,,,,,,,,
,,,,,,,,,,,,,,,,,,,,,,,,,,,,,,,,,,,,,,,,,,,,kangaroo_02s.jpg,0.0,Yellow.png,2.0,32,,,,,,,,,,,,,0.0,1.0,0.9176,0.0,10.0,10.0,10.0,1.0,,,,,,,,,,,,,,,
,,,,,,,,,,,,,,,,,,,,,,,,,,,,,,,,,,,,,,,,,,,,kangaroo_02s.jpg,0.0,Green.png,2.0,32,,,,,,,,,,,,,0.0,1.0,1.3246,0.0,11.0,11.0,11.0,1.0,,,,,,,,,,,,,,,
,,,,,,,,,,,,,,,,,,,,,,,,,,,,,,,,,,,,,,,,,,,,kangaroo_02s.jpg,1.0,Blue.png,3.0,32,,,,,,,,,,,,,1.0,1.0,0.5827,0.0,12.0,12.0,12.0,1.0,,,,,,,,,,,,,,,
,,,,,,,,,,,,,,,,,,,,,,,,,,,,,,,,,,,,,,,,,,,,kangaroo_02s.jpg,1.0,Purple.png,3.0,32,,,,,,,,,,,,,1.0,1.0,1.3518,0.0,13.0,13.0,13.0,1.0,,,,,,,,,,,,,,,
,,,,,,,,,,,,,,,,,,,,,,,,,,,,,,,,,,,,,,,,,,,,ironing_board_07s.jpg,0.0,Red.png,3.0,32,,,,,,,,,,,,,0.0,1.0,0.741,0.0,14.0,14.0,14.0,1.0,,,,,,,,,,,,,,,
,,,,,,,,,,,,,,,,,,,,,,,,,,,,,,,,,,,,,,,,,,,,kangaroo_02s.jpg,1.0,Orange.png,3.0,32,,,,,,,,,,,,,1.0,1.0,1.1504,0.0,15.0,15.0,15.0,1.0,,,,,,,,,,,,,,,
,,,,,,,,,,,,,,,,,,,,,,,,,,,,,,,,,,,,,,,,,,,,punch2_09s.jpg,0.0,Yellow.png,3.0,32,,,,,,,,,,,,,0.0,1.0,0.7195,0.0,16.0,16.0,16.0,1.0,,,,,,,,,,,,,,,
,,,,,,,,,,,,,,,,,,,,,,,,,,,,,,,,,,,,,,,,,,,,ironing_board_07s.jpg,0.0,Green.png,3.0,32,,,,,,,,,,,,,1.0,0.0,1.2737,0.0,17.0,17.0,17.0,1.0,,,,,,,,,,,,,,,
,,,,,,,,,,,,,,,,,,,,,,,,,,,,,,,,,,,,,,,,,,,,owl_15s.jpg,0.0,Blue.png,4.0,32,,,,,,,,,,,,,0.0,1.0,0.6847,0.0,18.0,18.0,18.0,1.0,,,,,,,,,,,,,,,
,,,,,,,,,,,,,,,,,,,,,,,,,,,,,,,,,,,,,,,,,,,,teabag_12s.jpg,0.0,Purple.png,4.0,32,,,,,,,,,,,,,0.0,1.0,0.8185,0.0,19.0,19.0,19.0,1.0,,,,,,,,,,,,,,,
,,,,,,,,,,,,,,,,,,,,,,,,,,,,,,,,,,,,,,,,,,,,owl_15s.jpg,1.0,Red.png,4.0,32,,,,,,,,,,,,,1.0,1.0,0.5016,0.0,20.0,20.0,20.0,1.0,,,,,,,,,,,,,,,
,,,,,,,,,,,,,,,,,,,,,,,,,,,,,,,,,,,,,,,,,,,,otter_05s.jpg,0.0,Orange.png,4.0,32,,,,,,,,,,,,,0.0,1.0,0.5657,0.0,21.0,21.0,21.0,1.0,,,,,,,,,,,,,,,
,,,,,,,,,,,,,,,,,,,,,,,,,,,,,,,,,,,,,,,,,,,,owl_15s.jpg,1.0,Yellow.png,4.0,32,,,,,,,,,,,,,0.0,0.0,1.8192,0.0,22.0,22.0,22.0,1.0,,,,,,,,,,,,,,,
,,,,,,,,,,,,,,,,,,,,,,,,,,,,,,,,,,,,,,,,,,,,mold2_04s.jpg,0.0,Green.png,4.0,32,,,,,,,,,,,,,0.0,1.0,0.9096,0.0,23.0,23.0,23.0,1.0,,,,,,,,,,,,,,,
,,,,,,,,,,,,,,,,,,,,,,,,,,,,,,,,,,,,,,,,,,,,mattress_01s.jpg,0.0,Blue.png,5.0,32,,,,,,,,,,,,,0.0,1.0,0.7416,0.0,24.0,24.0,24.0,1.0,,,,,,,,,,,,,,,
,,,,,,,,,,,,,,,,,,,,,,,,,,,,,,,,,,,,,,,,,,,,police_car_01s.jpg,0.0,Purple.png,5.0,32,,,,,,,,,,,,,0.0,1.0,0.7191,0.0,25.0,25.0,25.0,1.0,,,,,,,,,,,,,,,
,,,,,,,,,,,,,,,,,,,,,,,,,,,,,,,,,,,,,,,,,,,,stethoscope_01b.jpg,0.0,Red.png,5.0,32,,,,,,,,,,,,,0.0,1.0,0.5335,0.0,26.0,26.0,26.0,1.0,,,,,,,,,,,,,,,
,,,,,,,,,,,,,,,,,,,,,,,,,,,,,,,,,,,,,,,,,,,,police_car_01s.jpg,1.0,Orange.png,5.0,32,,,,,,,,,,,,,1.0,1.0,0.9521,0.0,27.0,27.0,27.0,1.0,,,,,,,,,,,,,,,
,,,,,,,,,,,,,,,,,,,,,,,,,,,,,,,,,,,,,,,,,,,,sparkler_02s.jpg,0.0,Yellow.png,5.0,32,,,,,,,,,,,,,0.0,1.0,0.5959,0.0,28.0,28.0,28.0,1.0,,,,,,,,,,,,,,,
,,,,,,,,,,,,,,,,,,,,,,,,,,,,,,,,,,,,,,,,,,,,pacifier_09s.jpg,0.0,Green.png,5.0,32,,,,,,,,,,,,,0.0,1.0,0.7606,0.0,29.0,29.0,29.0,1.0,,,,,,,,,,,,,,,
,,,,,,,,,,,,,,,,,,,,,,,,,,,,,,,,,,,,,,,,,,,,machine_gun_09s.jpg,0.0,Blue.png,6.0,32,,,,,,,,,,,,,0.0,1.0,0.9093,0.0,30.0,30.0,30.0,1.0,,,,,,,,,,,,,,,
,,,,,,,,,,,,,,,,,,,,,,,,,,,,,,,,,,,,,,,,,,,,ram_05s.jpg,0.0,Purple.png,6.0,32,,,,,,,,,,,,,0.0,1.0,0.6825,0.0,31.0,31.0,31.0,1.0,,,,,,,,,,,,,,,
,,,,,,,,,,,,,,,,,,,,,,,,,,,,,,,,,,,,,,,,,,,,keyboard_05s.jpg,0.0,Red.png,6.0,32,,,,,,,,,,,,,0.0,1.0,0.6183,0.0,32.0,32.0,32.0,1.0,,,,,,,,,,,,,,,
,,,,,,,,,,,,,,,,,,,,,,,,,,,,,,,,,,,,,,,,,,,,leash_10s.jpg,0.0,Orange.png,6.0,32,,,,,,,,,,,,,0.0,1.0,0.7836,0.0,33.0,33.0,33.0,1.0,,,,,,,,,,,,,,,
,,,,,,,,,,,,,,,,,,,,,,,,,,,,,,,,,,,,,,,,,,,,pan_02s.jpg,0.0,Yellow.png,6.0,32,,,,,,,,,,,,,0.0,1.0,0.8802,0.0,34.0,34.0,34.0,1.0,,,,,,,,,,,,,,,
,,,,,,,,,,,,,,,,,,,,,,,,,,,,,,,,,,,,,,,,,,,,mixer_12s.jpg,0.0,Green.png,6.0,32,,,,,,,,,,,,,0.0,1.0,0.682,0.0,35.0,35.0,35.0,1.0,,,,,,,,,,,,,,,
,,,,,,,,,,,,,,,,,,,,,,,,,,,,,,,,,,,,,,,,,,,,,0.0,,,32,,,,,,,,,teabag_12s.jpg,punch2_09s.jpg,,,,,,,,,,,1.0,0.0,2.1656,0.0,0.0,0.0,0.0,1.0,,,,,,,
,,,,,,,,,,,,,,,,,,,,,,,,,,,,,,,,,,,,,,,,,,,,,0.0,,,32,,,,,,,,,mattress_01s.jpg,otter_05s.jpg,,,,,,,,,,,1.0,0.0,1.2183,0.0,1.0,1.0,1.0,1.0,,,,,,,
,,,,,,,,,,,,,,,,,,,,,,,,,,,,,,,,,,,,,,,,,,,,,0.0,,,32,,,,,,,,,stethoscope_01b.jpg,mold2_04s.jpg,,,,,,,,,,,0.0,1.0,1.5508,0.0,2.0,2.0,2.0,1.0,,,,,,,
,,,,,,,,,,,,,,,,,,,,,,,,,,,,,,,,,,,,,,,,,,,,,1.0,,,32,,,,,,,,,glasses01a.jpg,cushion_08s.jpg,,,,,,,,,,,1.0,1.0,1.5863,0.0,3.0,3.0,3.0,1.0,,,,,,,
,,,,,,,,,,,,,,,,,,,,,,,,,,,,,,,,,,,,,,,,,,,,,1.0,,,32,,,,,,,,,machine_gun_09s.jpg,leash_10s.jpg,,,,,,,,,,,0.0,0.0,1.822,0.0,4.0,4.0,4.0,1.0,,,,,,,
,,,,,,,,,,,,,,,,,,,,,,,,,,,,,,,,,,,,,,,,,,,,,0.0,,,32,,,,,,,,,pan_02s.jpg,ram_05s.jpg,,,,,,,,,,,1.0,0.0,1.6354,0.0,5.0,5.0,5.0,1.0,,,,,,,
,,,,,,,,,,,,,,,,,,,,,,,,,,,,,,,,,,,,,,,,,,,,,,,,32,,,,,,,,,,,,,,,,,,,,,,,,,,,,,0.0,3.0,3.0,3.0,1.0,new2backpresent_4_2.xlsx,new2back_compare_task_4_2.xlsx
,,,,,,,,,,,,,,,,,,,,,,,,,,,,,,,,,,,,,,,,,,,,golf_club_03s.jpg,0.0,Blue.png,1.0,32,,,,,,,,,,,,,0.0,1.0,1.0998,0.0,0.0,0.0,0.0,1.0,,,,,,,,,,,,,,,
,,,,,,,,,,,,,,,,,,,,,,,,,,,,,,,,,,,,,,,,,,,,golf_club_03s.jpg,0.0,Purple.png,1.0,32,,,,,,,,,,,,,1.0,0.0,0.76,0.0,1.0,1.0,1.0,1.0,,,,,,,,,,,,,,,
,,,,,,,,,,,,,,,,,,,,,,,,,,,,,,,,,,,,,,,,,,,,golf_club_03s.jpg,0.0,Red.png,1.0,32,,,,,,,,,,,,,1.0,0.0,0.6534,0.0,2.0,2.0,2.0,1.0,,,,,,,,,,,,,,,
,,,,,,,,,,,,,,,,,,,,,,,,,,,,,,,,,,,,,,,,,,,,turnstile_08s.jpg,0.0,Orange.png,1.0,32,,,,,,,,,,,,,0.0,1.0,0.6533,0.0,3.0,3.0,3.0,1.0,,,,,,,,,,,,,,,
,,,,,,,,,,,,,,,,,,,,,,,,,,,,,,,,,,,,,,,,,,,,golf_club_03s.jpg,1.0,Yellow.png,1.0,32,,,,,,,,,,,,,1.0,1.0,0.7333,0.0,4.0,4.0,4.0,1.0,,,,,,,,,,,,,,,
,,,,,,,,,,,,,,,,,,,,,,,,,,,,,,,,,,,,,,,,,,,,milk_02s.jpg,0.0,Green.png,1.0,32,,,,,,,,,,,,,0.0,1.0,0.967,0.0,5.0,5.0,5.0,1.0,,,,,,,,,,,,,,,
,,,,,,,,,,,,,,,,,,,,,,,,,,,,,,,,,,,,,,,,,,,,orange_12s.jpg,0.0,Blue.png,2.0,32,,,,,,,,,,,,,0.0,1.0,1.4294,0.0,6.0,6.0,6.0,1.0,,,,,,,,,,,,,,,
,,,,,,,,,,,,,,,,,,,,,,,,,,,,,,,,,,,,,,,,,,,,milk_02s.jpg,1.0,Purple.png,2.0,32,,,,,,,,,,,,,0.0,0.0,0.7125,0.0,7.0,7.0,7.0,1.0,,,,,,,,,,,,,,,
,,,,,,,,,,,,,,,,,,,,,,,,,,,,,,,,,,,,,,,,,,,,latch_15s.jpg,0.0,Red.png,2.0,32,,,,,,,,,,,,,0.0,1.0,1.2287,0.0,8.0,8.0,8.0,1.0,,,,,,,,,,,,,,,
,,,,,,,,,,,,,,,,,,,,,,,,,,,,,,,,,,,,,,,,,,,,bank_06s.jpg,0.0,Orange.png,2.0,32,,,,,,,,,,,,,0.0,1.0,0.8172,0.0,9.0,9.0,9.0,1.0,,,,,,,,,,,,,,,
,,,,,,,,,,,,,,,,,,,,,,,,,,,,,,,,,,,,,,,,,,,,milk_02s.jpg,0.0,Yellow.png,2.0,32,,,,,,,,,,,,,1.0,0.0,1.4175,0.0,10.0,10.0,10.0,1.0,,,,,,,,,,,,,,,
,,,,,,,,,,,,,,,,,,,,,,,,,,,,,,,,,,,,,,,,,,,,crab_16s.jpg,0.0,Green.png,2.0,32,,,,,,,,,,,,,0.0,1.0,0.8972,0.0,11.0,11.0,11.0,1.0,,,,,,,,,,,,,,,
,,,,,,,,,,,,,,,,,,,,,,,,,,,,,,,,,,,,,,,,,,,,birdcage_08s.jpg,0.0,Blue.png,3.0,32,,,,,,,,,,,,,0.0,1.0,0.7508,0.0,12.0,12.0,12.0,1.0,,,,,,,,,,,,,,,
,,,,,,,,,,,,,,,,,,,,,,,,,,,,,,,,,,,,,,,,,,,,spider_web_03s.jpg,0.0,Purple.png,3.0,32,,,,,,,,,,,,,0.0,1.0,0.8806,0.0,13.0,13.0,13.0,1.0,,,,,,,,,,,,,,,
,,,,,,,,,,,,,,,,,,,,,,,,,,,,,,,,,,,,,,,,,,,,knitting_needle_04s.jpg,0.0,Red.png,3.0,32,,,,,,,,,,,,,0.0,1.0,0.9484,0.0,14.0,14.0,14.0,1.0,,,,,,,,,,,,,,,
,,,,,,,,,,,,,,,,,,,,,,,,,,,,,,,,,,,,,,,,,,,,sugar_cube_11s.jpg,0.0,Orange.png,3.0,32,,,,,,,,,,,,,0.0,1.0,0.7663,0.0,15.0,15.0,15.0,1.0,,,,,,,,,,,,,,,
,,,,,,,,,,,,,,,,,,,,,,,,,,,,,,,,,,,,,,,,,,,,light_switch_02s.jpg,0.0,Yellow.png,3.0,32,,,,,,,,,,,,,0.0,1.0,1.0314,0.0,16.0,16.0,16.0,1.0,,,,,,,,,,,,,,,
,,,,,,,,,,,,,,,,,,,,,,,,,,,,,,,,,,,,,,,,,,,,gear_07s.jpg,0.0,Green.png,3.0,32,,,,,,,,,,,,,0.0,1.0,0.625,0.0,17.0,17.0,17.0,1.0,,,,,,,,,,,,,,,
,,,,,,,,,,,,,,,,,,,,,,,,,,,,,,,,,,,,,,,,,,,,tongs_08s.jpg,0.0,Blue.png,4.0,32,,,,,,,,,,,,,0.0,1.0,1.8069,0.0,18.0,18.0,18.0,1.0,,,,,,,,,,,,,,,
,,,,,,,,,,,,,,,,,,,,,,,,,,,,,,,,,,,,,,,,,,,,recliner_02s.jpg,0.0,Purple.png,4.0,32,,,,,,,,,,,,,0.0,1.0,1.9633,0.0,19.0,19.0,19.0,1.0,,,,,,,,,,,,,,,
,,,,,,,,,,,,,,,,,,,,,,,,,,,,,,,,,,,,,,,,,,,,orangutan_03s.jpg,0.0,Red.png,4.0,32,,,,,,,,,,,,,0.0,1.0,0.6584,0.0,20.0,20.0,20.0,1.0,,,,,,,,,,,,,,,
,,,,,,,,,,,,,,,,,,,,,,,,,,,,,,,,,,,,,,,,,,,,golf_club_03s.jpg,0.0,Orange.png,4.0,32,,,,,,,,,,,,,0.0,1.0,0.7238,0.0,21.0,21.0,21.0,1.0,,,,,,,,,,,,,,,
,,,,,,,,,,,,,,,,,,,,,,,,,,,,,,,,,,,,,,,,,,,,lava_02s.jpg,0.0,Yellow.png,4.0,32,,,,,,,,,,,,,0.0,1.0,0.5838,0.0,22.0,22.0,22.0,1.0,,,,,,,,,,,,,,,
,,,,,,,,,,,,,,,,,,,,,,,,,,,,,,,,,,,,,,,,,,,,toilet_07s.jpg,0.0,Green.png,4.0,32,,,,,,,,,,,,,0.0,1.0,2.1018,0.0,23.0,23.0,23.0,1.0,,,,,,,,,,,,,,,
,,,,,,,,,,,,,,,,,,,,,,,,,,,,,,,,,,,,,,,,,,,,turnstile_08s.jpg,0.0,Blue.png,5.0,32,,,,,,,,,,,,,0.0,1.0,2.2653,0.0,24.0,24.0,24.0,1.0,,,,,,,,,,,,,,,
,,,,,,,,,,,,,,,,,,,,,,,,,,,,,,,,,,,,,,,,,,,,turnstile_08s.jpg,0.0,Purple.png,5.0,32,,,,,,,,,,,,,0.0,1.0,1.3784,0.0,25.0,25.0,25.0,1.0,,,,,,,,,,,,,,,
,,,,,,,,,,,,,,,,,,,,,,,,,,,,,,,,,,,,,,,,,,,,teacup_07s.jpg,0.0,Red.png,5.0,32,,,,,,,,,,,,,0.0,1.0,0.661,0.0,26.0,26.0,26.0,1.0,,,,,,,,,,,,,,,
,,,,,,,,,,,,,,,,,,,,,,,,,,,,,,,,,,,,,,,,,,,,turnstile_08s.jpg,1.0,Orange.png,5.0,32,,,,,,,,,,,,,1.0,1.0,0.5415,0.0,27.0,27.0,27.0,1.0,,,,,,,,,,,,,,,
,,,,,,,,,,,,,,,,,,,,,,,,,,,,,,,,,,,,,,,,,,,,turnstile_08s.jpg,0.0,Yellow.png,5.0,32,,,,,,,,,,,,,1.0,0.0,1.5698,0.0,28.0,28.0,28.0,1.0,,,,,,,,,,,,,,,
,,,,,,,,,,,,,,,,,,,,,,,,,,,,,,,,,,,,,,,,,,,,antenna_01b.jpg,0.0,Green.png,5.0,32,,,,,,,,,,,,,0.0,1.0,0.6667,0.0,29.0,29.0,29.0,1.0,,,,,,,,,,,,,,,
,,,,,,,,,,,,,,,,,,,,,,,,,,,,,,,,,,,,,,,,,,,,keyhole_03s.jpg,0.0,Blue.png,6.0,32,,,,,,,,,,,,,0.0,1.0,0.7154,0.0,30.0,30.0,30.0,1.0,,,,,,,,,,,,,,,
,,,,,,,,,,,,,,,,,,,,,,,,,,,,,,,,,,,,,,,,,,,,air_pump_05s.jpg,0.0,Purple.png,6.0,32,,,,,,,,,,,,,0.0,1.0,0.7138,0.0,31.0,31.0,31.0,1.0,,,,,,,,,,,,,,,
,,,,,,,,,,,,,,,,,,,,,,,,,,,,,,,,,,,,,,,,,,,,eggshell_14s.jpg,0.0,Red.png,6.0,32,,,,,,,,,,,,,0.0,1.0,1.8343,0.0,32.0,32.0,32.0,1.0,,,,,,,,,,,,,,,
,,,,,,,,,,,,,,,,,,,,,,,,,,,,,,,,,,,,,,,,,,,,eyedropper_12s.jpg,0.0,Orange.png,6.0,32,,,,,,,,,,,,,0.0,1.0,0.9012,0.0,33.0,33.0,33.0,1.0,,,,,,,,,,,,,,,
,,,,,,,,,,,,,,,,,,,,,,,,,,,,,,,,,,,,,,,,,,,,machete_06s.jpg,0.0,Yellow.png,6.0,32,,,,,,,,,,,,,0.0,1.0,1.0293,0.0,34.0,34.0,34.0,1.0,,,,,,,,,,,,,,,
,,,,,,,,,,,,,,,,,,,,,,,,,,,,,,,,,,,,,,,,,,,,eyedropper_12s.jpg,1.0,Green.png,6.0,32,,,,,,,,,,,,,1.0,1.0,1.1971,0.0,35.0,35.0,35.0,1.0,,,,,,,,,,,,,,,
,,,,,,,,,,,,,,,,,,,,,,,,,,,,,,,,,,,,,,,,,,,,,1.0,,,32,,,,,,,,,sugar_cube_11s.jpg,tongs_08s.jpg,,,,,,,,,,,1.0,1.0,1.5794,0.0,0.0,0.0,0.0,1.0,,,,,,,
,,,,,,,,,,,,,,,,,,,,,,,,,,,,,,,,,,,,,,,,,,,,,1.0,,,32,,,,,,,,,antenna_01b.jpg,eggshell_14s.jpg,,,,,,,,,,,1.0,1.0,1.7177,0.0,1.0,1.0,1.0,1.0,,,,,,,
,,,,,,,,,,,,,,,,,,,,,,,,,,,,,,,,,,,,,,,,,,,,,1.0,,,32,,,,,,,,,bank_06s.jpg,birdcage_08s.jpg,,,,,,,,,,,1.0,1.0,1.7403,0.0,2.0,2.0,2.0,1.0,,,,,,,
,,,,,,,,,,,,,,,,,,,,,,,,,,,,,,,,,,,,,,,,,,,,,1.0,,,32,,,,,,,,,air_pump_05s.jpg,machete_06s.jpg,,,,,,,,,,,0.0,0.0,1.3754,0.0,3.0,3.0,3.0,1.0,,,,,,,
,,,,,,,,,,,,,,,,,,,,,,,,,,,,,,,,,,,,,,,,,,,,,1.0,,,32,,,,,,,,,latch_15s.jpg,crab_16s.jpg,,,,,,,,,,,1.0,1.0,1.2556,0.0,4.0,4.0,4.0,1.0,,,,,,,
,,,,,,,,,,,,,,,,,,,,,,,,,,,,,,,,,,,,,,,,,,,,,1.0,,,32,,,,,,,,,spider_web_03s.jpg,light_switch_02s.jpg,,,,,,,,,,,1.0,1.0,1.178,0.0,5.0,5.0,5.0,1.0,,,,,,,
,,,,,,,,,,,,,,,,,,,,,,,,,,,,,,,,,,,,,,,,,,,,,,,,32,,,,,,,,,,,,,,,,,,,,,,,,,,,,,0.0,4.0,4.0,4.0,1.0,new2backpresent_5_2.xlsx,new2back_compare_task_5_2.xlsx
,,,,,,,,,,,,,,,,,,,,,,,,,,,,,,,,,,,,,,,,,,,,gazelle_10s.jpg,0.0,Blue.png,1.0,32,,,,,,,,,,,,,0.0,1.0,0.9345,0.0,0.0,0.0,0.0,1.0,,,,,,,,,,,,,,,
,,,,,,,,,,,,,,,,,,,,,,,,,,,,,,,,,,,,,,,,,,,,saddle_06s.jpg,0.0,Purple.png,1.0,32,,,,,,,,,,,,,0.0,1.0,0.763,0.0,1.0,1.0,1.0,1.0,,,,,,,,,,,,,,,
,,,,,,,,,,,,,,,,,,,,,,,,,,,,,,,,,,,,,,,,,,,,saddle_06s.jpg,0.0,Red.png,1.0,32,,,,,,,,,,,,,0.0,1.0,0.8052,0.0,2.0,2.0,2.0,1.0,,,,,,,,,,,,,,,
,,,,,,,,,,,,,,,,,,,,,,,,,,,,,,,,,,,,,,,,,,,,kimono_13s.jpg,0.0,Orange.png,1.0,32,,,,,,,,,,,,,0.0,1.0,0.6506,0.0,3.0,3.0,3.0,1.0,,,,,,,,,,,,,,,
,,,,,,,,,,,,,,,,,,,,,,,,,,,,,,,,,,,,,,,,,,,,timer_03s.jpg,0.0,Yellow.png,1.0,32,,,,,,,,,,,,,0.0,1.0,1.1167,0.0,4.0,4.0,4.0,1.0,,,,,,,,,,,,,,,
,,,,,,,,,,,,,,,,,,,,,,,,,,,,,,,,,,,,,,,,,,,,tulip_02s.jpg,0.0,Green.png,1.0,32,,,,,,,,,,,,,0.0,1.0,0.5564,0.0,5.0,5.0,5.0,1.0,,,,,,,,,,,,,,,
,,,,,,,,,,,,,,,,,,,,,,,,,,,,,,,,,,,,,,,,,,,,prism_10s.jpg,0.0,Blue.png,2.0,32,,,,,,,,,,,,,0.0,1.0,0.7242,0.0,6.0,6.0,6.0,1.0,,,,,,,,,,,,,,,
,,,,,,,,,,,,,,,,,,,,,,,,,,,,,,,,,,,,,,,,,,,,razor_12s.jpg,0.0,Purple.png,2.0,32,,,,,,,,,,,,,0.0,1.0,0.7599,0.0,7.0,7.0,7.0,1.0,,,,,,,,,,,,,,,
,,,,,,,,,,,,,,,,,,,,,,,,,,,,,,,,,,,,,,,,,,,,blazer_02s.jpg,0.0,Red.png,2.0,32,,,,,,,,,,,,,0.0,1.0,0.6359,0.0,8.0,8.0,8.0,1.0,,,,,,,,,,,,,,,
,,,,,,,,,,,,,,,,,,,,,,,,,,,,,,,,,,,,,,,,,,,,razor_12s.jpg,1.0,Orange.png,2.0,32,,,,,,,,,,,,,1.0,1.0,1.1218,0.0,9.0,9.0,9.0,1.0,,,,,,,,,,,,,,,
,,,,,,,,,,,,,,,,,,,,,,,,,,,,,,,,,,,,,,,,,,,,lamb_chop_07s.jpg,0.0,Yellow.png,2.0,32,,,,,,,,,,,,,0.0,1.0,0.9359,0.0,10.0,10.0,10.0,1.0,,,,,,,,,,,,,,,
,,,,,,,,,,,,,,,,,,,,,,,,,,,,,,,,,,,,,,,,,,,,razor_12s.jpg,1.0,Green.png,2.0,32,,,,,,,,,,,,,1.0,1.0,1.2016,0.0,11.0,11.0,11.0,1.0,,,,,,,,,,,,,,,
,,,,,,,,,,,,,,,,,,,,,,,,,,,,,,,,,,,,,,,,,,,,lamb_chop_07s.jpg,1.0,Blue.png,3.0,32,,,,,,,,,,,,,1.0,1.0,0.9283,0.0,12.0,12.0,12.0,1.0,,,,,,,,,,,,,,,
,,,,,,,,,,,,,,,,,,,,,,,,,,,,,,,,,,,,,,,,,,,,lamb_chop_07s.jpg,0.0,Purple.png,3.0,32,,,,,,,,,,,,,0.0,1.0,0.8363,0.0,13.0,13.0,13.0,1.0,,,,,,,,,,,,,,,
,,,,,,,,,,,,,,,,,,,,,,,,,,,,,,,,,,,,,,,,,,,,timer_03s.jpg,0.0,Red.png,3.0,32,,,,,,,,,,,,,0.0,1.0,1.3166,0.0,14.0,14.0,14.0,1.0,,,,,,,,,,,,,,,
,,,,,,,,,,,,,,,,,,,,,,,,,,,,,,,,,,,,,,,,,,,,lamb_chop_07s.jpg,1.0,Orange.png,3.0,32,,,,,,,,,,,,,1.0,1.0,1.1646,0.0,15.0,15.0,15.0,1.0,,,,,,,,,,,,,,,
,,,,,,,,,,,,,,,,,,,,,,,,,,,,,,,,,,,,,,,,,,,,glue_01s.jpg,0.0,Yellow.png,3.0,32,,,,,,,,,,,,,0.0,1.0,0.8149,0.0,16.0,16.0,16.0,1.0,,,,,,,,,,,,,,,
,,,,,,,,,,,,,,,,,,,,,,,,,,,,,,,,,,,,,,,,,,,,solar_panel_02s.jpg,0.0,Green.png,3.0,32,,,,,,,,,,,,,0.0,1.0,0.6316,0.0,17.0,17.0,17.0,1.0,,,,,,,,,,,,,,,
,,,,,,,,,,,,,,,,,,,,,,,,,,,,,,,,,,,,,,,,,,,,muffin_12n.jpg,0.0,Blue.png,4.0,32,,,,,,,,,,,,,0.0,1.0,0.7284,0.0,18.0,18.0,18.0,1.0,,,,,,,,,,,,,,,
,,,,,,,,,,,,,,,,,,,,,,,,,,,,,,,,,,,,,,,,,,,,pepper2_21s.jpg,0.0,Purple.png,4.0,32,,,,,,,,,,,,,0.0,1.0,0.8024,0.0,19.0,19.0,19.0,1.0,,,,,,,,,,,,,,,
,,,,,,,,,,,,,,,,,,,,,,,,,,,,,,,,,,,,,,,,,,,,marker_05s.jpg,0.0,Red.png,4.0,32,,,,,,,,,,,,,0.0,1.0,0.7968,0.0,20.0,20.0,20.0,1.0,,,,,,,,,,,,,,,
,,,,,,,,,,,,,,,,,,,,,,,,,,,,,,,,,,,,,,,,,,,,soccer_ball_12s.jpg,0.0,Orange.png,4.0,32,,,,,,,,,,,,,0.0,1.0,0.8183,0.0,21.0,21.0,21.0,1.0,,,,,,,,,,,,,,,
,,,,,,,,,,,,,,,,,,,,,,,,,,,,,,,,,,,,,,,,,,,,amber_04s.jpg,0.0,Yellow.png,4.0,32,,,,,,,,,,,,,0.0,1.0,1.0291,0.0,22.0,22.0,22.0,1.0,,,,,,,,,,,,,,,
,,,,,,,,,,,,,,,,,,,,,,,,,,,,,,,,,,,,,,,,,,,,stopwatch_04s.jpg,0.0,Green.png,4.0,32,,,,,,,,,,,,,0.0,1.0,0.7378,0.0,23.0,23.0,23.0,1.0,,,,,,,,,,,,,,,
,,,,,,,,,,,,,,,,,,,,,,,,,,,,,,,,,,,,,,,,,,,,amber_04s.jpg,1.0,Blue.png,5.0,32,,,,,,,,,,,,,1.0,1.0,0.9343,0.0,24.0,24.0,24.0,1.0,,,,,,,,,,,,,,,
,,,,,,,,,,,,,,,,,,,,,,,,,,,,,,,,,,,,,,,,,,,,racehorse_03s.jpg,0.0,Purple.png,5.0,32,,,,,,,,,,,,,0.0,1.0,0.6702,0.0,25.0,25.0,25.0,1.0,,,,,,,,,,,,,,,
,,,,,,,,,,,,,,,,,,,,,,,,,,,,,,,,,,,,,,,,,,,,amber_04s.jpg,1.0,Red.png,5.0,32,,,,,,,,,,,,,1.0,1.0,0.8874,0.0,26.0,26.0,26.0,1.0,,,,,,,,,,,,,,,
,,,,,,,,,,,,,,,,,,,,,,,,,,,,,,,,,,,,,,,,,,,,duck_01b.jpg,0.0,Orange.png,5.0,32,,,,,,,,,,,,,0.0,1.0,0.9015,0.0,27.0,27.0,27.0,1.0,,,,,,,,,,,,,,,
,,,,,,,,,,,,,,,,,,,,,,,,,,,,,,,,,,,,,,,,,,,,amber_04s.jpg,1.0,Yellow.png,5.0,32,,,,,,,,,,,,,1.0,1.0,0.743,0.0,28.0,28.0,28.0,1.0,,,,,,,,,,,,,,,
,,,,,,,,,,,,,,,,,,,,,,,,,,,,,,,,,,,,,,,,,,,,duck_01b.jpg,1.0,Green.png,5.0,32,,,,,,,,,,,,,1.0,1.0,1.2983,0.0,29.0,29.0,29.0,1.0,,,,,,,,,,,,,,,
,,,,,,,,,,,,,,,,,,,,,,,,,,,,,,,,,,,,,,,,,,,,duck_01b.jpg,0.0,Blue.png,6.0,32,,,,,,,,,,,,,0.0,1.0,1.4628,0.0,30.0,30.0,30.0,1.0,,,,,,,,,,,,,,,
,,,,,,,,,,,,,,,,,,,,,,,,,,,,,,,,,,,,,,,,,,,,duck_01b.jpg,1.0,Purple.png,6.0,32,,,,,,,,,,,,,1.0,1.0,0.6729,0.0,31.0,31.0,31.0,1.0,,,,,,,,,,,,,,,
,,,,,,,,,,,,,,,,,,,,,,,,,,,,,,,,,,,,,,,,,,,,magnet_03s.jpg,0.0,Red.png,6.0,32,,,,,,,,,,,,,0.0,1.0,0.8025,0.0,32.0,32.0,32.0,1.0,,,,,,,,,,,,,,,
,,,,,,,,,,,,,,,,,,,,,,,,,,,,,,,,,,,,,,,,,,,,duck_01b.jpg,1.0,Orange.png,6.0,32,,,,,,,,,,,,,1.0,1.0,1.3022,0.0,33.0,33.0,33.0,1.0,,,,,,,,,,,,,,,
,,,,,,,,,,,,,,,,,,,,,,,,,,,,,,,,,,,,,,,,,,,,swimming_pool_17s.jpg,0.0,Yellow.png,6.0,32,,,,,,,,,,,,,0.0,1.0,0.726,0.0,34.0,34.0,34.0,1.0,,,,,,,,,,,,,,,
,,,,,,,,,,,,,,,,,,,,,,,,,,,,,,,,,,,,,,,,,,,,roulette_wheel_04s.jpg,0.0,Green.png,6.0,32,,,,,,,,,,,,,0.0,1.0,0.6845,0.0,35.0,35.0,35.0,1.0,,,,,,,,,,,,,,,
,,,,,,,,,,,,,,,,,,,,,,,,,,,,,,,,,,,,,,,,,,,,,0.0,,,32,,,,,,,,,blazer_02s.jpg,tulip_02s.jpg,,,,,,,,,,,1.0,0.0,1.6038,0.0,0.0,0.0,0.0,1.0,,,,,,,
,,,,,,,,,,,,,,,,,,,,,,,,,,,,,,,,,,,,,,,,,,,,,1.0,,,32,,,,,,,,,glue_01s.jpg,pepper2_21s.jpg,,,,,,,,,,,1.0,1.0,1.8861,0.0,1.0,1.0,1.0,1.0,,,,,,,
,,,,,,,,,,,,,,,,,,,,,,,,,,,,,,,,,,,,,,,,,,,,,1.0,,,32,,,,,,,,,kimono_13s.jpg,prism_10s.jpg,,,,,,,,,,,0.0,0.0,2.2641,0.0,2.0,2.0,2.0,1.0,,,,,,,
,,,,,,,,,,,,,,,,,,,,,,,,,,,,,,,,,,,,,,,,,,,,,0.0,,,32,,,,,,,,,soccer_ball_12s.jpg,muffin_12n.jpg,,,,,,,,,,,0.0,1.0,1.7059,0.0,3.0,3.0,3.0,1.0,,,,,,,
,,,,,,,,,,,,,,,,,,,,,,,,,,,,,,,,,,,,,,,,,,,,,1.0,,,32,,,,,,,,,magnet_03s.jpg,roulette_wheel_04s.jpg,,,,,,,,,,,1.0,1.0,1.7549,0.0,4.0,4.0,4.0,1.0,,,,,,,
,,,,,,,,,,,,,,,,,,,,,,,,,,,,,,,,,,,,,,,,,,,,,0.0,,,32,,,,,,,,,stopwatch_04s.jpg,marker_05s.jpg,,,,,,,,,,,1.0,0.0,2.1064,0.0,5.0,5.0,5.0,1.0,,,,,,,
,,,,,,,,,,,,,,,,,,,,,,,,,,,,,,,,,,,,,,,,,,,,,,,,32,,,,,,,,,,,,,,,,,,,,,,,,,,,,,0.0,5.0,5.0,5.0,1.0,new2backpresent_6_2.xlsx,new2back_compare_task_6_2.xlsx
,,,,,,,,,,,,,,,,,,,,,,,,,,,,,,,,,,,,,,,,,,,,slingshot_07s.jpg,0.0,Blue.png,1.0,32,,,,,,,,,,,,,0.0,1.0,1.2144,0.0,0.0,0.0,0.0,1.0,,,,,,,,,,,,,,,
,,,,,,,,,,,,,,,,,,,,,,,,,,,,,,,,,,,,,,,,,,,,slingshot_07s.jpg,0.0,Purple.png,1.0,32,,,,,,,,,,,,,0.0,1.0,0.9229,0.0,1.0,1.0,1.0,1.0,,,,,,,,,,,,,,,
,,,,,,,,,,,,,,,,,,,,,,,,,,,,,,,,,,,,,,,,,,,,aluminum_foil_08s.jpg,0.0,Red.png,1.0,32,,,,,,,,,,,,,0.0,1.0,0.6652,0.0,2.0,2.0,2.0,1.0,,,,,,,,,,,,,,,
,,,,,,,,,,,,,,,,,,,,,,,,,,,,,,,,,,,,,,,,,,,,ink_08s.jpg,0.0,Orange.png,1.0,32,,,,,,,,,,,,,0.0,1.0,0.7464,0.0,3.0,3.0,3.0,1.0,,,,,,,,,,,,,,,
,,,,,,,,,,,,,,,,,,,,,,,,,,,,,,,,,,,,,,,,,,,,aluminum_foil_08s.jpg,1.0,Yellow.png,1.0,32,,,,,,,,,,,,,0.0,0.0,0.5475,0.0,4.0,4.0,4.0,1.0,,,,,,,,,,,,,,,
,,,,,,,,,,,,,,,,,,,,,,,,,,,,,,,,,,,,,,,,,,,,slingshot_07s.jpg,0.0,Green.png,1.0,32,,,,,,,,,,,,,0.0,1.0,1.5121,0.0,5.0,5.0,5.0,1.0,,,,,,,,,,,,,,,
,,,,,,,,,,,,,,,,,,,,,,,,,,,,,,,,,,,,,,,,,,,,aluminum_foil_08s.jpg,1.0,Blue.png,2.0,32,,,,,,,,,,,,,1.0,1.0,1.0617,0.0,6.0,6.0,6.0,1.0,,,,,,,,,,,,,,,
,,,,,,,,,,,,,,,,,,,,,,,,,,,,,,,,,,,,,,,,,,,,aluminum_foil_08s.jpg,0.0,Purple.png,2.0,32,,,,,,,,,,,,,0.0,1.0,0.9858,0.0,7.0,7.0,7.0,1.0,,,,,,,,,,,,,,,
,,,,,,,,,,,,,,,,,,,,,,,,,,,,,,,,,,,,,,,,,,,,ice-cream_cone_06s.jpg,0.0,Red.png,2.0,32,,,,,,,,,,,,,0.0,1.0,0.5611,0.0,8.0,8.0,8.0,1.0,,,,,,,,,,,,,,,
,,,,,,,,,,,,,,,,,,,,,,,,,,,,,,,,,,,,,,,,,,,,ink_08s.jpg,0.0,Orange.png,2.0,32,,,,,,,,,,,,,0.0,1.0,0.7486,0.0,9.0,9.0,9.0,1.0,,,,,,,,,,,,,,,
,,,,,,,,,,,,,,,,,,,,,,,,,,,,,,,,,,,,,,,,,,,,emerald_02s.jpg,0.0,Yellow.png,2.0,32,,,,,,,,,,,,,0.0,1.0,1.1746,0.0,10.0,10.0,10.0,1.0,,,,,,,,,,,,,,,
,,,,,,,,,,,,,,,,,,,,,,,,,,,,,,,,,,,,,,,,,,,,bathtub_23s.jpg,0.0,Green.png,2.0,32,,,,,,,,,,,,,0.0,1.0,0.6818,0.0,11.0,11.0,11.0,1.0,,,,,,,,,,,,,,,
,,,,,,,,,,,,,,,,,,,,,,,,,,,,,,,,,,,,,,,,,,,,bubble_01b.jpg,0.0,Blue.png,3.0,32,,,,,,,,,,,,,0.0,1.0,0.5797,0.0,12.0,12.0,12.0,1.0,,,,,,,,,,,,,,,
,,,,,,,,,,,,,,,,,,,,,,,,,,,,,,,,,,,,,,,,,,,,mirror_12s.jpg,0.0,Purple.png,3.0,32,,,,,,,,,,,,,0.0,1.0,1.2518,0.0,13.0,13.0,13.0,1.0,,,,,,,,,,,,,,,
,,,,,,,,,,,,,,,,,,,,,,,,,,,,,,,,,,,,,,,,,,,,swing_set_15s.jpg,0.0,Red.png,3.0,32,,,,,,,,,,,,,0.0,1.0,0.8666,0.0,14.0,14.0,14.0,1.0,,,,,,,,,,,,,,,
,,,,,,,,,,,,,,,,,,,,,,,,,,,,,,,,,,,,,,,,,,,,pinwheel_06s.jpg,0.0,Orange.png,3.0,32,,,,,,,,,,,,,0.0,1.0,0.8726,0.0,15.0,15.0,15.0,1.0,,,,,,,,,,,,,,,
,,,,,,,,,,,,,,,,,,,,,,,,,,,,,,,,,,,,,,,,,,,,swing_set_15s.jpg,1.0,Yellow.png,3.0,32,,,,,,,,,,,,,1.0,1.0,0.9227,0.0,16.0,16.0,16.0,1.0,,,,,,,,,,,,,,,
,,,,,,,,,,,,,,,,,,,,,,,,,,,,,,,,,,,,,,,,,,,,pinwheel_06s.jpg,1.0,Green.png,3.0,32,,,,,,,,,,,,,1.0,1.0,1.0402,0.0,17.0,17.0,17.0,1.0,,,,,,,,,,,,,,,
,,,,,,,,,,,,,,,,,,,,,,,,,,,,,,,,,,,,,,,,,,,,ink_08s.jpg,0.0,Blue.png,4.0,32,,,,,,,,,,,,,1.0,0.0,0.8209,0.0,18.0,18.0,18.0,1.0,,,,,,,,,,,,,,,
,,,,,,,,,,,,,,,,,,,,,,,,,,,,,,,,,,,,,,,,,,,,plunger_08s.jpg,0.0,Purple.png,4.0,32,,,,,,,,,,,,,0.0,1.0,0.5692,0.0,19.0,19.0,19.0,1.0,,,,,,,,,,,,,,,
,,,,,,,,,,,,,,,,,,,,,,,,,,,,,,,,,,,,,,,,,,,,ink_08s.jpg,1.0,Red.png,4.0,32,,,,,,,,,,,,,1.0,1.0,0.6349,0.0,20.0,20.0,20.0,1.0,,,,,,,,,,,,,,,
,,,,,,,,,,,,,,,,,,,,,,,,,,,,,,,,,,,,,,,,,,,,ink_08s.jpg,0.0,Orange.png,4.0,32,,,,,,,,,,,,,0.0,1.0,1.1749,0.0,21.0,21.0,21.0,1.0,,,,,,,,,,,,,,,
,,,,,,,,,,,,,,,,,,,,,,,,,,,,,,,,,,,,,,,,,,,,metronome_03s.jpg,0.0,Yellow.png,4.0,32,,,,,,,,,,,,,0.0,1.0,0.9862,0.0,22.0,22.0,22.0,1.0,,,,,,,,,,,,,,,
,,,,,,,,,,,,,,,,,,,,,,,,,,,,,,,,,,,,,,,,,,,,puppy_08s.jpg,0.0,Green.png,4.0,32,,,,,,,,,,,,,0.0,1.0,0.6013,0.0,23.0,23.0,23.0,1.0,,,,,,,,,,,,,,,
,,,,,,,,,,,,,,,,,,,,,,,,,,,,,,,,,,,,,,,,,,,,treasure_08s.jpg,0.0,Blue.png,5.0,32,,,,,,,,,,,,,0.0,1.0,0.7601,0.0,24.0,24.0,24.0,1.0,,,,,,,,,,,,,,,
,,,,,,,,,,,,,,,,,,,,,,,,,,,,,,,,,,,,,,,,,,,,penguin_16s.jpg,0.0,Purple.png,5.0,32,,,,,,,,,,,,,0.0,1.0,1.8241,0.0,25.0,25.0,25.0,1.0,,,,,,,,,,,,,,,
,,,,,,,,,,,,,,,,,,,,,,,,,,,,,,,,,,,,,,,,,,,,bacon_05s.jpg,0.0,Red.png,5.0,32,,,,,,,,,,,,,0.0,1.0,1.0316,0.0,26.0,26.0,26.0,1.0,,,,,,,,,,,,,,,
,,,,,,,,,,,,,,,,,,,,,,,,,,,,,,,,,,,,,,,,,,,,giraffe_11s.jpg,0.0,Orange.png,5.0,32,,,,,,,,,,,,,0.0,1.0,0.7291,0.0,27.0,27.0,27.0,1.0,,,,,,,,,,,,,,,
,,,,,,,,,,,,,,,,,,,,,,,,,,,,,,,,,,,,,,,,,,,,rug_09s.jpg,0.0,Yellow.png,5.0,32,,,,,,,,,,,,,0.0,1.0,0.7772,0.0,28.0,28.0,28.0,1.0,,,,,,,,,,,,,,,
,,,,,,,,,,,,,,,,,,,,,,,,,,,,,,,,,,,,,,,,,,,,lamp_08s.jpg,0.0,Green.png,5.0,32,,,,,,,,,,,,,0.0,1.0,0.843,0.0,29.0,29.0,29.0,1.0,,,,,,,,,,,,,,,
,,,,,,,,,,,,,,,,,,,,,,,,,,,,,,,,,,,,,,,,,,,,metronome_03s.jpg,0.0,Blue.png,6.0,32,,,,,,,,,,,,,0.0,1.0,1.1364,0.0,30.0,30.0,30.0,1.0,,,,,,,,,,,,,,,
,,,,,,,,,,,,,,,,,,,,,,,,,,,,,,,,,,,,,,,,,,,,metronome_03s.jpg,0.0,Purple.png,6.0,32,,,,,,,,,,,,,0.0,1.0,1.6651,0.0,31.0,31.0,31.0,1.0,,,,,,,,,,,,,,,
,,,,,,,,,,,,,,,,,,,,,,,,,,,,,,,,,,,,,,,,,,,,lip_gloss_06s.jpg,0.0,Red.png,6.0,32,,,,,,,,,,,,,0.0,1.0,1.3146,0.0,32.0,32.0,32.0,1.0,,,,,,,,,,,,,,,
,,,,,,,,,,,,,,,,,,,,,,,,,,,,,,,,,,,,,,,,,,,,metronome_03s.jpg,1.0,Orange.png,6.0,32,,,,,,,,,,,,,1.0,1.0,1.0673,0.0,33.0,33.0,33.0,1.0,,,,,,,,,,,,,,,
,,,,,,,,,,,,,,,,,,,,,,,,,,,,,,,,,,,,,,,,,,,,laser_pointer_02s.jpg,0.0,Yellow.png,6.0,32,,,,,,,,,,,,,0.0,1.0,2.1721,0.0,34.0,34.0,34.0,1.0,,,,,,,,,,,,,,,
,,,,,,,,,,,,,,,,,,,,,,,,,,,,,,,,,,,,,,,,,,,,metronome_03s.jpg,1.0,Green.png,6.0,32,,,,,,,,,,,,,1.0,1.0,0.8879,0.0,35.0,35.0,35.0,1.0,,,,,,,,,,,,,,,
,,,,,,,,,,,,,,,,,,,,,,,,,,,,,,,,,,,,,,,,,,,,,1.0,,,32,,,,,,,,,emerald_02s.jpg,mirror_12s.jpg,,,,,,,,,,,1.0,1.0,1.331,0.0,0.0,0.0,0.0,1.0,,,,,,,
,,,,,,,,,,,,,,,,,,,,,,,,,,,,,,,,,,,,,,,,,,,,,1.0,,,32,,,,,,,,,puppy_08s.jpg,bacon_05s.jpg,,,,,,,,,,,1.0,1.0,1.8782,0.0,1.0,1.0,1.0,1.0,,,,,,,
,,,,,,,,,,,,,,,,,,,,,,,,,,,,,,,,,,,,,,,,,,,,,0.0,,,32,,,,,,,,,lip_gloss_06s.jpg,lamp_08s.jpg,,,,,,,,,,,0.0,1.0,1.4479,0.0,2.0,2.0,2.0,1.0,,,,,,,
,,,,,,,,,,,,,,,,,,,,,,,,,,,,,,,,,,,,,,,,,,,,,0.0,,,32,,,,,,,,,bathtub_23s.jpg,ice-cream_cone_06s.jpg,,,,,,,,,,,1.0,0.0,2.3464,0.0,3.0,3.0,3.0,1.0,,,,,,,
,,,,,,,,,,,,,,,,,,,,,,,,,,,,,,,,,,,,,,,,,,,,,0.0,,,32,,,,,,,,,giraffe_11s.jpg,treasure_08s.jpg,,,,,,,,,,,1.0,0.0,1.0496,0.0,4.0,4.0,4.0,1.0,,,,,,,
,,,,,,,,,,,,,,,,,,,,,,,,,,,,,,,,,,,,,,,,,,,,,0.0,,,32,,,,,,,,,rug_09s.jpg,penguin_16s.jpg,,,,,,,,,,,1.0,0.0,1.1622,0.0,5.0,5.0,5.0,1.0,,,,,,,
,,,,,,,,,,,,,,,,,,,,,,,,,,,,,,,,,,,,,,,,,,,,,,,,32,,,,,,,,,,,,,,,,,,,,,,,,,,,,,0.0,6.0,6.0,6.0,1.0,new2backpresent_7_2.xlsx,new2back_compare_task_7_2.xlsx
,,,,,,,,,,,,,,,,,,,,,,,,,,,,,,,,,,,,,,,,,,,,ant_12s.jpg,0.0,Blue.png,1.0,32,,,,,,,,,,,,,0.0,1.0,0.8506,0.0,0.0,0.0,0.0,1.0,,,,,,,,,,,,,,,
,,,,,,,,,,,,,,,,,,,,,,,,,,,,,,,,,,,,,,,,,,,,ant_12s.jpg,0.0,Purple.png,1.0,32,,,,,,,,,,,,,0.0,1.0,0.5109,0.0,1.0,1.0,1.0,1.0,,,,,,,,,,,,,,,
,,,,,,,,,,,,,,,,,,,,,,,,,,,,,,,,,,,,,,,,,,,,ticktacktoe_08s.jpg,0.0,Red.png,1.0,32,,,,,,,,,,,,,0.0,1.0,0.4647,0.0,2.0,2.0,2.0,1.0,,,,,,,,,,,,,,,
,,,,,,,,,,,,,,,,,,,,,,,,,,,,,,,,,,,,,,,,,,,,frog_09s.jpg,0.0,Orange.png,1.0,32,,,,,,,,,,,,,0.0,1.0,0.6521,0.0,3.0,3.0,3.0,1.0,,,,,,,,,,,,,,,
,,,,,,,,,,,,,,,,,,,,,,,,,,,,,,,,,,,,,,,,,,,,ticktacktoe_08s.jpg,1.0,Yellow.png,1.0,32,,,,,,,,,,,,,1.0,1.0,1.036,0.0,4.0,4.0,4.0,1.0,,,,,,,,,,,,,,,
,,,,,,,,,,,,,,,,,,,,,,,,,,,,,,,,,,,,,,,,,,,,feather02.jpg,0.0,Green.png,1.0,32,,,,,,,,,,,,,0.0,1.0,1.0586,0.0,5.0,5.0,5.0,1.0,,,,,,,,,,,,,,,
,,,,,,,,,,,,,,,,,,,,,,,,,,,,,,,,,,,,,,,,,,,,gas_mask_11s.jpg,0.0,Blue.png,2.0,32,,,,,,,,,,,,,0.0,1.0,1.1294,0.0,6.0,6.0,6.0,1.0,,,,,,,,,,,,,,,
,,,,,,,,,,,,,,,,,,,,,,,,,,,,,,,,,,,,,,,,,,,,gas_mask_11s.jpg,0.0,Purple.png,2.0,32,,,,,,,,,,,,,0.0,1.0,1.1779,0.0,7.0,7.0,7.0,1.0,,,,,,,,,,,,,,,
,,,,,,,,,,,,,,,,,,,,,,,,,,,,,,,,,,,,,,,,,,,,mop_08s.jpg,0.0,Red.png,2.0,32,,,,,,,,,,,,,0.0,1.0,1.4578,0.0,8.0,8.0,8.0,1.0,,,,,,,,,,,,,,,
,,,,,,,,,,,,,,,,,,,,,,,,,,,,,,,,,,,,,,,,,,,,gas_mask_11s.jpg,1.0,Orange.png,2.0,32,,,,,,,,,,,,,1.0,1.0,1.1601,0.0,9.0,9.0,9.0,1.0,,,,,,,,,,,,,,,
,,,,,,,,,,,,,,,,,,,,,,,,,,,,,,,,,,,,,,,,,,,,pea_11s.jpg,0.0,Yellow.png,2.0,32,,,,,,,,,,,,,0.0,1.0,0.7952,0.0,10.0,10.0,10.0,1.0,,,,,,,,,,,,,,,
,,,,,,,,,,,,,,,,,,,,,,,,,,,,,,,,,,,,,,,,,,,,bowler_hat_10s.jpg,0.0,Green.png,2.0,32,,,,,,,,,,,,,0.0,1.0,0.719,0.0,11.0,11.0,11.0,1.0,,,,,,,,,,,,,,,
,,,,,,,,,,,,,,,,,,,,,,,,,,,,,,,,,,,,,,,,,,,,pencil_sharpener_09n.jpg,0.0,Blue.png,3.0,32,,,,,,,,,,,,,0.0,1.0,0.6448,0.0,12.0,12.0,12.0,1.0,,,,,,,,,,,,,,,
,,,,,,,,,,,,,,,,,,,,,,,,,,,,,,,,,,,,,,,,,,,,rice_12s.jpg,0.0,Purple.png,3.0,32,,,,,,,,,,,,,0.0,1.0,0.908,0.0,13.0,13.0,13.0,1.0,,,,,,,,,,,,,,,
,,,,,,,,,,,,,,,,,,,,,,,,,,,,,,,,,,,,,,,,,,,,stamp1_11s.jpg,0.0,Red.png,3.0,32,,,,,,,,,,,,,0.0,1.0,0.9001,0.0,14.0,14.0,14.0,1.0,,,,,,,,,,,,,,,
,,,,,,,,,,,,,,,,,,,,,,,,,,,,,,,,,,,,,,,,,,,,jersey_02s.jpg,0.0,Orange.png,3.0,32,,,,,,,,,,,,,0.0,1.0,0.6534,0.0,15.0,15.0,15.0,1.0,,,,,,,,,,,,,,,
,,,,,,,,,,,,,,,,,,,,,,,,,,,,,,,,,,,,,,,,,,,,tiara_05s.jpg,0.0,Yellow.png,3.0,32,,,,,,,,,,,,,0.0,1.0,0.9266,0.0,16.0,16.0,16.0,1.0,,,,,,,,,,,,,,,
,,,,,,,,,,,,,,,,,,,,,,,,,,,,,,,,,,,,,,,,,,,,target_11s.jpg,0.0,Green.png,3.0,32,,,,,,,,,,,,,0.0,1.0,0.9724,0.0,17.0,17.0,17.0,1.0,,,,,,,,,,,,,,,
,,,,,,,,,,,,,,,,,,,,,,,,,,,,,,,,,,,,,,,,,,,,dirt_bike_11s.jpg,0.0,Blue.png,4.0,32,,,,,,,,,,,,,0.0,1.0,1.7027,0.0,18.0,18.0,18.0,1.0,,,,,,,,,,,,,,,
,,,,,,,,,,,,,,,,,,,,,,,,,,,,,,,,,,,,,,,,,,,,doily_13s.jpg,0.0,Purple.png,4.0,32,,,,,,,,,,,,,0.0,1.0,1.2015,0.0,19.0,19.0,19.0,1.0,,,,,,,,,,,,,,,
,,,,,,,,,,,,,,,,,,,,,,,,,,,,,,,,,,,,,,,,,,,,sunglasses_11s.jpg,0.0,Red.png,4.0,32,,,,,,,,,,,,,0.0,1.0,0.5524,0.0,20.0,20.0,20.0,1.0,,,,,,,,,,,,,,,
,,,,,,,,,,,,,,,,,,,,,,,,,,,,,,,,,,,,,,,,,,,,compass_10n.jpg,0.0,Orange.png,4.0,32,,,,,,,,,,,,,0.0,1.0,2.045,0.0,21.0,21.0,21.0,1.0,,,,,,,,,,,,,,,
,,,,,,,,,,,,,,,,,,,,,,,,,,,,,,,,,,,,,,,,,,,,sunglasses_11s.jpg,1.0,Yellow.png,4.0,32,,,,,,,,,,,,,0.0,0.0,0.6257,0.0,22.0,22.0,22.0,1.0,,,,,,,,,,,,,,,
,,,,,,,,,,,,,,,,,,,,,,,,,,,,,,,,,,,,,,,,,,,,sunglasses_11s.jpg,0.0,Green.png,4.0,32,,,,,,,,,,,,,0.0,1.0,1.512,0.0,23.0,23.0,23.0,1.0,,,,,,,,,,,,,,,
,,,,,,,,,,,,,,,,,,,,,,,,,,,,,,,,,,,,,,,,,,,,seagull_01b.jpg,0.0,Blue.png,5.0,32,,,,,,,,,,,,,0.0,1.0,0.9579,0.0,24.0,24.0,24.0,1.0,,,,,,,,,,,,,,,
,,,,,,,,,,,,,,,,,,,,,,,,,,,,,,,,,,,,,,,,,,,,footprint_11s.jpg,0.0,Purple.png,5.0,32,,,,,,,,,,,,,0.0,1.0,1.8082,0.0,25.0,25.0,25.0,1.0,,,,,,,,,,,,,,,
,,,,,,,,,,,,,,,,,,,,,,,,,,,,,,,,,,,,,,,,,,,,projector_08s.jpg,0.0,Red.png,5.0,32,,,,,,,,,,,,,0.0,1.0,1.0706,0.0,26.0,26.0,26.0,1.0,,,,,,,,,,,,,,,
,,,,,,,,,,,,,,,,,,,,,,,,,,,,,,,,,,,,,,,,,,,,projector_08s.jpg,0.0,Orange.png,5.0,32,,,,,,,,,,,,,0.0,1.0,1.7544,0.0,27.0,27.0,27.0,1.0,,,,,,,,,,,,,,,
,,,,,,,,,,,,,,,,,,,,,,,,,,,,,,,,,,,,,,,,,,,,money_07s.jpg,0.0,Yellow.png,5.0,32,,,,,,,,,,,,,0.0,1.0,0.6781,0.0,28.0,28.0,28.0,1.0,,,,,,,,,,,,,,,
,,,,,,,,,,,,,,,,,,,,,,,,,,,,,,,,,,,,,,,,,,,,flip_flop_03s.jpg,0.0,Green.png,5.0,32,,,,,,,,,,,,,0.0,1.0,0.6423,0.0,29.0,29.0,29.0,1.0,,,,,,,,,,,,,,,
,,,,,,,,,,,,,,,,,,,,,,,,,,,,,,,,,,,,,,,,,,,,ring_03s.jpg,0.0,Blue.png,6.0,32,,,,,,,,,,,,,0.0,1.0,1.9783,0.0,30.0,30.0,30.0,1.0,,,,,,,,,,,,,,,
,,,,,,,,,,,,,,,,,,,,,,,,,,,,,,,,,,,,,,,,,,,,flip_flop_03s.jpg,1.0,Purple.png,6.0,32,,,,,,,,,,,,,1.0,1.0,1.0738,0.0,31.0,31.0,31.0,1.0,,,,,,,,,,,,,,,
,,,,,,,,,,,,,,,,,,,,,,,,,,,,,,,,,,,,,,,,,,,,flip_flop_03s.jpg,0.0,Red.png,6.0,32,,,,,,,,,,,,,1.0,0.0,1.7661,0.0,32.0,32.0,32.0,1.0,,,,,,,,,,,,,,,
,,,,,,,,,,,,,,,,,,,,,,,,,,,,,,,,,,,,,,,,,,,,flip_flop_03s.jpg,1.0,Orange.png,6.0,32,,,,,,,,,,,,,,0.0,,0.0,33.0,33.0,33.0,1.0,,,,,,,,,,,,,,,
,,,,,,,,,,,,,,,,,,,,,,,,,,,,,,,,,,,,,,,,,,,,screwdriver02a.jpg,0.0,Yellow.png,6.0,32,,,,,,,,,,,,,0.0,1.0,0.7227,0.0,34.0,34.0,34.0,1.0,,,,,,,,,,,,,,,
,,,,,,,,,,,,,,,,,,,,,,,,,,,,,,,,,,,,,,,,,,,,screwdriver02a.jpg,0.0,Green.png,6.0,32,,,,,,,,,,,,,0.0,1.0,0.8975,0.0,35.0,35.0,35.0,1.0,,,,,,,,,,,,,,,
,,,,,,,,,,,,,,,,,,,,,,,,,,,,,,,,,,,,,,,,,,,,,0.0,,,32,,,,,,,,,mop_08s.jpg,feather02.jpg,,,,,,,,,,,1.0,0.0,1.9246,0.0,0.0,0.0,0.0,1.0,,,,,,,
,,,,,,,,,,,,,,,,,,,,,,,,,,,,,,,,,,,,,,,,,,,,,1.0,,,32,,,,,,,,,pea_11s.jpg,rice_12s.jpg,,,,,,,,,,,1.0,1.0,1.7013,0.0,1.0,1.0,1.0,1.0,,,,,,,
,,,,,,,,,,,,,,,,,,,,,,,,,,,,,,,,,,,,,,,,,,,,,1.0,,,32,,,,,,,,,tiara_05s.jpg,doily_13s.jpg,,,,,,,,,,,1.0,1.0,1.3583,0.0,2.0,2.0,2.0,1.0,,,,,,,
,,,,,,,,,,,,,,,,,,,,,,,,,,,,,,,,,,,,,,,,,,,,,1.0,,,32,,,,,,,,,footprint_11s.jpg,money_07s.jpg,,,,,,,,,,,0.0,0.0,1.878,0.0,3.0,3.0,3.0,1.0,,,,,,,
,,,,,,,,,,,,,,,,,,,,,,,,,,,,,,,,,,,,,,,,,,,,,1.0,,,32,,,,,,,,,pencil_sharpener_09n.jpg,jersey_02s.jpg,,,,,,,,,,,0.0,0.0,1.0759,0.0,4.0,4.0,4.0,1.0,,,,,,,
,,,,,,,,,,,,,,,,,,,,,,,,,,,,,,,,,,,,,,,,,,,,,1.0,,,32,,,,,,,,,stamp1_11s.jpg,target_11s.jpg,,,,,,,,,,,0.0,0.0,1.5727,0.0,5.0,5.0,5.0,1.0,,,,,,,
,,,,,,,,,,,,,,,,,,,,,,,,,,,,,,,,,,,,,,,,,,,,,,,,32,,,,,,,,,,,,,,,,,,,,,,,,,,,,,0.0,7.0,7.0,7.0,1.0,new2backpresent_8_2.xlsx,new2back_compare_task_8_2.xlsx
,,,,,,,,,,,,,,,,,,,,,,,,,,,,,,,,,,,,,,,,,,,,quilt_03s.jpg,0.0,Blue.png,1.0,32,,,,,,,,,,,,,0.0,1.0,1.8269,0.0,0.0,0.0,0.0,1.0,,,,,,,,,,,,,,,
,,,,,,,,,,,,,,,,,,,,,,,,,,,,,,,,,,,,,,,,,,,,stingray_02s.jpg,0.0,Purple.png,1.0,32,,,,,,,,,,,,,0.0,1.0,0.7875,0.0,1.0,1.0,1.0,1.0,,,,,,,,,,,,,,,
,,,,,,,,,,,,,,,,,,,,,,,,,,,,,,,,,,,,,,,,,,,,mousetrap_15n.jpg,0.0,Red.png,1.0,32,,,,,,,,,,,,,0.0,1.0,1.32,0.0,2.0,2.0,2.0,1.0,,,,,,,,,,,,,,,
,,,,,,,,,,,,,,,,,,,,,,,,,,,,,,,,,,,,,,,,,,,,dashboard_02s.jpg,0.0,Orange.png,1.0,32,,,,,,,,,,,,,0.0,1.0,0.7145,0.0,3.0,3.0,3.0,1.0,,,,,,,,,,,,,,,
,,,,,,,,,,,,,,,,,,,,,,,,,,,,,,,,,,,,,,,,,,,,quilt_03s.jpg,0.0,Yellow.png,1.0,32,,,,,,,,,,,,,0.0,1.0,1.173,0.0,4.0,4.0,4.0,1.0,,,,,,,,,,,,,,,
,,,,,,,,,,,,,,,,,,,,,,,,,,,,,,,,,,,,,,,,,,,,quilt_03s.jpg,0.0,Green.png,1.0,32,,,,,,,,,,,,,1.0,0.0,1.4478,0.0,5.0,5.0,5.0,1.0,,,,,,,,,,,,,,,
,,,,,,,,,,,,,,,,,,,,,,,,,,,,,,,,,,,,,,,,,,,,thorn_13s.jpg,0.0,Blue.png,2.0,32,,,,,,,,,,,,,0.0,1.0,0.8091,0.0,6.0,6.0,6.0,1.0,,,,,,,,,,,,,,,
,,,,,,,,,,,,,,,,,,,,,,,,,,,,,,,,,,,,,,,,,,,,mitten_10s.jpg,0.0,Purple.png,2.0,32,,,,,,,,,,,,,0.0,1.0,1.1781,0.0,7.0,7.0,7.0,1.0,,,,,,,,,,,,,,,
,,,,,,,,,,,,,,,,,,,,,,,,,,,,,,,,,,,,,,,,,,,,fondue_07s.jpg,0.0,Red.png,2.0,32,,,,,,,,,,,,,0.0,1.0,0.7442,0.0,8.0,8.0,8.0,1.0,,,,,,,,,,,,,,,
,,,,,,,,,,,,,,,,,,,,,,,,,,,,,,,,,,,,,,,,,,,,peach_04s.jpg,0.0,Orange.png,2.0,32,,,,,,,,,,,,,0.0,1.0,0.8606,0.0,9.0,9.0,9.0,1.0,,,,,,,,,,,,,,,
,,,,,,,,,,,,,,,,,,,,,,,,,,,,,,,,,,,,,,,,,,,,stump_02s.jpg,0.0,Yellow.png,2.0,32,,,,,,,,,,,,,,0.0,,0.0,10.0,10.0,10.0,1.0,,,,,,,,,,,,,,,
,,,,,,,,,,,,,,,,,,,,,,,,,,,,,,,,,,,,,,,,,,,,rabbit_03s.jpg,0.0,Green.png,2.0,32,,,,,,,,,,,,,0.0,1.0,0.6413,0.0,11.0,11.0,11.0,1.0,,,,,,,,,,,,,,,
,,,,,,,,,,,,,,,,,,,,,,,,,,,,,,,,,,,,,,,,,,,,champagne_18s.jpg,0.0,Blue.png,3.0,32,,,,,,,,,,,,,0.0,1.0,0.5047,0.0,12.0,12.0,12.0,1.0,,,,,,,,,,,,,,,
,,,,,,,,,,,,,,,,,,,,,,,,,,,,,,,,,,,,,,,,,,,,rabbit_03s.jpg,1.0,Purple.png,3.0,32,,,,,,,,,,,,,1.0,1.0,0.807,0.0,13.0,13.0,13.0,1.0,,,,,,,,,,,,,,,
,,,,,,,,,,,,,,,,,,,,,,,,,,,,,,,,,,,,,,,,,,,,denture_03s.jpg,0.0,Red.png,3.0,32,,,,,,,,,,,,,0.0,1.0,0.6325,0.0,14.0,14.0,14.0,1.0,,,,,,,,,,,,,,,
,,,,,,,,,,,,,,,,,,,,,,,,,,,,,,,,,,,,,,,,,,,,rabbit_03s.jpg,1.0,Orange.png,3.0,32,,,,,,,,,,,,,1.0,1.0,2.1268,0.0,15.0,15.0,15.0,1.0,,,,,,,,,,,,,,,
,,,,,,,,,,,,,,,,,,,,,,,,,,,,,,,,,,,,,,,,,,,,turtleneck_11s.jpg,0.0,Yellow.png,3.0,32,,,,,,,,,,,,,0.0,1.0,0.4875,0.0,16.0,16.0,16.0,1.0,,,,,,,,,,,,,,,
,,,,,,,,,,,,,,,,,,,,,,,,,,,,,,,,,,,,,,,,,,,,rabbit_03s.jpg,1.0,Green.png,3.0,32,,,,,,,,,,,,,1.0,1.0,0.8781,0.0,17.0,17.0,17.0,1.0,,,,,,,,,,,,,,,
,,,,,,,,,,,,,,,,,,,,,,,,,,,,,,,,,,,,,,,,,,,,typewriter_11s.jpg,0.0,Blue.png,4.0,32,,,,,,,,,,,,,0.0,1.0,0.611,0.0,18.0,18.0,18.0,1.0,,,,,,,,,,,,,,,
,,,,,,,,,,,,,,,,,,,,,,,,,,,,,,,,,,,,,,,,,,,,thread_08s.jpg,0.0,Purple.png,4.0,32,,,,,,,,,,,,,0.0,1.0,0.7302,0.0,19.0,19.0,19.0,1.0,,,,,,,,,,,,,,,
,,,,,,,,,,,,,,,,,,,,,,,,,,,,,,,,,,,,,,,,,,,,bean_06s.jpg,0.0,Red.png,4.0,32,,,,,,,,,,,,,0.0,1.0,0.5011,0.0,20.0,20.0,20.0,1.0,,,,,,,,,,,,,,,
,,,,,,,,,,,,,,,,,,,,,,,,,,,,,,,,,,,,,,,,,,,,rolling_pin_02s.jpg,0.0,Orange.png,4.0,32,,,,,,,,,,,,,0.0,1.0,0.9113,0.0,21.0,21.0,21.0,1.0,,,,,,,,,,,,,,,
,,,,,,,,,,,,,,,,,,,,,,,,,,,,,,,,,,,,,,,,,,,,tattoo_14s.jpg,0.0,Yellow.png,4.0,32,,,,,,,,,,,,,1.0,0.0,0.6129,0.0,22.0,22.0,22.0,1.0,,,,,,,,,,,,,,,
,,,,,,,,,,,,,,,,,,,,,,,,,,,,,,,,,,,,,,,,,,,,eiffeltower.jpg,0.0,Green.png,4.0,32,,,,,,,,,,,,,0.0,1.0,0.6517,0.0,23.0,23.0,23.0,1.0,,,,,,,,,,,,,,,
,,,,,,,,,,,,,,,,,,,,,,,,,,,,,,,,,,,,,,,,,,,,fondue_07s.jpg,0.0,Blue.png,5.0,32,,,,,,,,,,,,,0.0,1.0,0.9859,0.0,24.0,24.0,24.0,1.0,,,,,,,,,,,,,,,
,,,,,,,,,,,,,,,,,,,,,,,,,,,,,,,,,,,,,,,,,,,,fondue_07s.jpg,0.0,Purple.png,5.0,32,,,,,,,,,,,,,0.0,1.0,1.418,0.0,25.0,25.0,25.0,1.0,,,,,,,,,,,,,,,
,,,,,,,,,,,,,,,,,,,,,,,,,,,,,,,,,,,,,,,,,,,,omelet_07s.jpg,0.0,Red.png,5.0,32,,,,,,,,,,,,,0.0,1.0,0.7989,0.0,26.0,26.0,26.0,1.0,,,,,,,,,,,,,,,
,,,,,,,,,,,,,,,,,,,,,,,,,,,,,,,,,,,,,,,,,,,,fondue_07s.jpg,1.0,Orange.png,5.0,32,,,,,,,,,,,,,1.0,1.0,1.0329,0.0,27.0,27.0,27.0,1.0,,,,,,,,,,,,,,,
,,,,,,,,,,,,,,,,,,,,,,,,,,,,,,,,,,,,,,,,,,,,radio_09s.jpg,0.0,Yellow.png,5.0,32,,,,,,,,,,,,,0.0,1.0,0.7912,0.0,28.0,28.0,28.0,1.0,,,,,,,,,,,,,,,
,,,,,,,,,,,,,,,,,,,,,,,,,,,,,,,,,,,,,,,,,,,,fondue_07s.jpg,1.0,Green.png,5.0,32,,,,,,,,,,,,,1.0,1.0,0.843,0.0,29.0,29.0,29.0,1.0,,,,,,,,,,,,,,,
,,,,,,,,,,,,,,,,,,,,,,,,,,,,,,,,,,,,,,,,,,,,roller_coaster_07s.jpg,0.0,Blue.png,6.0,32,,,,,,,,,,,,,0.0,1.0,1.0253,0.0,30.0,30.0,30.0,1.0,,,,,,,,,,,,,,,
,,,,,,,,,,,,,,,,,,,,,,,,,,,,,,,,,,,,,,,,,,,,loveseat_08s.jpg,0.0,Purple.png,6.0,32,,,,,,,,,,,,,0.0,1.0,0.8175,0.0,31.0,31.0,31.0,1.0,,,,,,,,,,,,,,,
,,,,,,,,,,,,,,,,,,,,,,,,,,,,,,,,,,,,,,,,,,,,roller_coaster_07s.jpg,1.0,Red.png,6.0,32,,,,,,,,,,,,,0.0,0.0,1.1927,0.0,32.0,32.0,32.0,1.0,,,,,,,,,,,,,,,
,,,,,,,,,,,,,,,,,,,,,,,,,,,,,,,,,,,,,,,,,,,,roller_coaster_07s.jpg,0.0,Orange.png,6.0,32,,,,,,,,,,,,,1.0,0.0,1.0975,0.0,33.0,33.0,33.0,1.0,,,,,,,,,,,,,,,
,,,,,,,,,,,,,,,,,,,,,,,,,,,,,,,,,,,,,,,,,,,,roller_coaster_07s.jpg,1.0,Yellow.png,6.0,32,,,,,,,,,,,,,,0.0,,0.0,34.0,34.0,34.0,1.0,,,,,,,,,,,,,,,
,,,,,,,,,,,,,,,,,,,,,,,,,,,,,,,,,,,,,,,,,,,,roller_coaster_07s.jpg,1.0,Green.png,6.0,32,,,,,,,,,,,,,1.0,1.0,0.7969,0.0,35.0,35.0,35.0,1.0,,,,,,,,,,,,,,,
,,,,,,,,,,,,,,,,,,,,,,,,,,,,,,,,,,,,,,,,,,,,,0.0,,,32,,,,,,,,,loveseat_08s.jpg,radio_09s.jpg,,,,,,,,,,,0.0,1.0,2.5137,0.0,0.0,0.0,0.0,1.0,,,,,,,
,,,,,,,,,,,,,,,,,,,,,,,,,,,,,,,,,,,,,,,,,,,,,1.0,,,32,,,,,,,,,dashboard_02s.jpg,thorn_13s.jpg,,,,,,,,,,,1.0,1.0,1.8249,0.0,1.0,1.0,1.0,1.0,,,,,,,
,,,,,,,,,,,,,,,,,,,,,,,,,,,,,,,,,,,,,,,,,,,,,0.0,,,32,,,,,,,,,champagne_18s.jpg,peach_04s.jpg,,,,,,,,,,,0.0,1.0,1.7572,0.0,2.0,2.0,2.0,1.0,,,,,,,
,,,,,,,,,,,,,,,,,,,,,,,,,,,,,,,,,,,,,,,,,,,,,1.0,,,32,,,,,,,,,mitten_10s.jpg,stump_02s.jpg,,,,,,,,,,,1.0,1.0,1.2177,0.0,3.0,3.0,3.0,1.0,,,,,,,
,,,,,,,,,,,,,,,,,,,,,,,,,,,,,,,,,,,,,,,,,,,,,1.0,,,32,,,,,,,,,typewriter_11s.jpg,rolling_pin_02s.jpg,,,,,,,,,,,0.0,0.0,1.8831,0.0,4.0,4.0,4.0,1.0,,,,,,,
,,,,,,,,,,,,,,,,,,,,,,,,,,,,,,,,,,,,,,,,,,,,,1.0,,,32,,,,,,,,,thread_08s.jpg,tattoo_14s.jpg,,,,,,,,,,,0.0,0.0,1.5167,0.0,5.0,5.0,5.0,1.0,,,,,,,
,,,,,,,,,,,,,,,,,,,,,,,,,,,,,,,,,,,,,,,,,,,,,,,,32,,,,,,,,,,,,,,,,,,,,,,,,,,,,,0.0,8.0,8.0,8.0,1.0,new2backpresent_9_2.xlsx,new2back_compare_task_9_2.xlsx
