key_resp.keys,key_resp.corr,noclock_loop.thisRepN,noclock_loop.thisTrialN,noclock_loop.thisN,noclock_loop.thisIndex,noclock_loop.ran,pictures,answer,clock,segment,participant,key_resp_2.keys,key_resp_2.corr,key_resp_2.rt,noclock_loop2.thisRepN,noclock_loop2.thisTrialN,noclock_loop2.thisN,noclock_loop2.thisIndex,noclock_loop2.ran,item_a,item_b,noclock_condition.thisRepN,noclock_condition.thisTrialN,noclock_condition.thisN,noclock_condition.thisIndex,noclock_condition.ran,present,compare,key_resp.rt,present_segment.thisRepN,present_segment.thisTrialN,present_segment.thisN,present_segment.thisIndex,present_segment.ran,compare_segment.thisRepN,compare_segment.thisTrialN,compare_segment.thisN,compare_segment.thisIndex,compare_segment.ran,clock_conditions.thisRepN,clock_conditions.thisTrialN,clock_conditions.thisN,clock_conditions.thisIndex,clock_conditions.ran
,0.0,0.0,0.0,0.0,0.0,1.0,exhaust_pipe_10s.jpg,0.0,clockno_up.jpg,1.0,53,,,,,,,,,,,,,,,,,,,,,,,,,,,,,,,,,
,0.0,0.0,1.0,1.0,1.0,1.0,breadstick_08s.jpg,0.0,clockno_default.jpg,1.0,53,,,,,,,,,,,,,,,,,,,,,,,,,,,,,,,,,
,0.0,0.0,2.0,2.0,2.0,1.0,reindeer_08s.jpg,0.0,clockno_default.jpg,1.0,53,,,,,,,,,,,,,,,,,,,,,,,,,,,,,,,,,
,0.0,0.0,3.0,3.0,3.0,1.0,megaphone_03s.jpg,0.0,clockno_default.jpg,1.0,53,,,,,,,,,,,,,,,,,,,,,,,,,,,,,,,,,
,0.0,0.0,4.0,4.0,4.0,1.0,lasagna_06s.jpg,0.0,clockno_default.jpg,1.0,53,,,,,,,,,,,,,,,,,,,,,,,,,,,,,,,,,
,0.0,0.0,5.0,5.0,5.0,1.0,kilt_18s.jpg,0.0,clockno_default.jpg,1.0,53,,,,,,,,,,,,,,,,,,,,,,,,,,,,,,,,,
,0.0,0.0,6.0,6.0,6.0,1.0,touchpad_11s.jpg,0.0,clockno_up.jpg,2.0,53,,,,,,,,,,,,,,,,,,,,,,,,,,,,,,,,,
,0.0,0.0,7.0,7.0,7.0,1.0,mango_09s.jpg,0.0,clockno_default.jpg,2.0,53,,,,,,,,,,,,,,,,,,,,,,,,,,,,,,,,,
,0.0,0.0,8.0,8.0,8.0,1.0,sushi_08s.jpg,0.0,clockno_default.jpg,2.0,53,,,,,,,,,,,,,,,,,,,,,,,,,,,,,,,,,
,0.0,0.0,9.0,9.0,9.0,1.0,pencil02a.jpg,0.0,clockno_default.jpg,2.0,53,,,,,,,,,,,,,,,,,,,,,,,,,,,,,,,,,
,0.0,0.0,10.0,10.0,10.0,1.0,lavender_10s.jpg,0.0,clockno_default.jpg,2.0,53,,,,,,,,,,,,,,,,,,,,,,,,,,,,,,,,,
,0.0,0.0,11.0,11.0,11.0,1.0,oil_02s.jpg,0.0,clockno_up.jpg,3.0,53,,,,,,,,,,,,,,,,,,,,,,,,,,,,,,,,,
,0.0,0.0,12.0,12.0,12.0,1.0,pan_02s.jpg,0.0,clockno_default.jpg,3.0,53,,,,,,,,,,,,,,,,,,,,,,,,,,,,,,,,,
,0.0,0.0,13.0,13.0,13.0,1.0,power_line_08s.jpg,0.0,clockno_default.jpg,3.0,53,,,,,,,,,,,,,,,,,,,,,,,,,,,,,,,,,
,0.0,0.0,14.0,14.0,14.0,1.0,pan_02s.jpg,1.0,clockno_default.jpg,3.0,53,,,,,,,,,,,,,,,,,,,,,,,,,,,,,,,,,
,0.0,0.0,15.0,15.0,15.0,1.0,pan_02s.jpg,1.0,clockno_default.jpg,3.0,53,,,,,,,,,,,,,,,,,,,,,,,,,,,,,,,,,
,0.0,0.0,16.0,16.0,16.0,1.0,tambourine_06s.jpg,0.0,clockno_up.jpg,4.0,53,,,,,,,,,,,,,,,,,,,,,,,,,,,,,,,,,
,0.0,0.0,17.0,17.0,17.0,1.0,fireworks_18s.jpg,0.0,clockno_default.jpg,4.0,53,,,,,,,,,,,,,,,,,,,,,,,,,,,,,,,,,
,0.0,0.0,18.0,18.0,18.0,1.0,bacon_05s.jpg,0.0,clockno_default.jpg,4.0,53,,,,,,,,,,,,,,,,,,,,,,,,,,,,,,,,,
,0.0,0.0,19.0,19.0,19.0,1.0,kangaroo_02s.jpg,0.0,clockno_default.jpg,4.0,53,,,,,,,,,,,,,,,,,,,,,,,,,,,,,,,,,
,0.0,0.0,20.0,20.0,20.0,1.0,bacon_05s.jpg,1.0,clockno_default.jpg,4.0,53,,,,,,,,,,,,,,,,,,,,,,,,,,,,,,,,,
,0.0,0.0,21.0,21.0,21.0,1.0,foam_03s.jpg,0.0,clockno_default.jpg,4.0,53,,,,,,,,,,,,,,,,,,,,,,,,,,,,,,,,,
,0.0,0.0,22.0,22.0,22.0,1.0,jigsaw_puzzle_11s.jpg,0.0,clockno_default.jpg,4.0,53,,,,,,,,,,,,,,,,,,,,,,,,,,,,,,,,,
,0.0,0.0,23.0,23.0,23.0,1.0,letter_opener_03s.jpg,0.0,clockno_up.jpg,5.0,53,,,,,,,,,,,,,,,,,,,,,,,,,,,,,,,,,
,0.0,0.0,24.0,24.0,24.0,1.0,pencil02a.jpg,0.0,clockno_default.jpg,5.0,53,,,,,,,,,,,,,,,,,,,,,,,,,,,,,,,,,
,0.0,0.0,25.0,25.0,25.0,1.0,boomerang_06s.jpg,0.0,clockno_default.jpg,5.0,53,,,,,,,,,,,,,,,,,,,,,,,,,,,,,,,,,
,0.0,0.0,26.0,26.0,26.0,1.0,letter_opener_03s.jpg,1.0,clockno_default.jpg,5.0,53,,,,,,,,,,,,,,,,,,,,,,,,,,,,,,,,,
,0.0,0.0,27.0,27.0,27.0,1.0,polaroid_05s.jpg,0.0,clockno_default.jpg,5.0,53,,,,,,,,,,,,,,,,,,,,,,,,,,,,,,,,,
,0.0,0.0,28.0,28.0,28.0,1.0,tambourine_06s.jpg,0.0,clockno_default.jpg,5.0,53,,,,,,,,,,,,,,,,,,,,,,,,,,,,,,,,,
,0.0,0.0,29.0,29.0,29.0,1.0,possum_09s.jpg,0.0,clockno_up.jpg,6.0,53,,,,,,,,,,,,,,,,,,,,,,,,,,,,,,,,,
,0.0,0.0,30.0,30.0,30.0,1.0,gong_02s.jpg,0.0,clockno_default.jpg,6.0,53,,,,,,,,,,,,,,,,,,,,,,,,,,,,,,,,,
,0.0,0.0,31.0,31.0,31.0,1.0,sea_urchin_09s.jpg,0.0,clockno_default.jpg,6.0,53,,,,,,,,,,,,,,,,,,,,,,,,,,,,,,,,,
,0.0,0.0,32.0,32.0,32.0,1.0,keyboard_05s.jpg,0.0,clockno_default.jpg,6.0,53,,,,,,,,,,,,,,,,,,,,,,,,,,,,,,,,,
,0.0,0.0,33.0,33.0,33.0,1.0,lamp_08s.jpg,0.0,clockno_default.jpg,6.0,53,,,,,,,,,,,,,,,,,,,,,,,,,,,,,,,,,
,0.0,0.0,34.0,34.0,34.0,1.0,roulette_wheel_04s.jpg,0.0,clockno_default.jpg,6.0,53,,,,,,,,,,,,,,,,,,,,,,,,,,,,,,,,,
,0.0,0.0,35.0,35.0,35.0,1.0,scooter.jpg,0.0,clockno_default.jpg,6.0,53,,,,,,,,,,,,,,,,,,,,,,,,,,,,,,,,,
,,,,,,,,1.0,,,53,1.0,1.0,7.49413,0.0,0.0,0.0,0.0,1.0,sushi_08s.jpg,oil_02s.jpg,,,,,,,,,,,,,,,,,,,,,,,
,,,,,,,,1.0,,,53,1.0,1.0,3.553405,0.0,1.0,1.0,1.0,1.0,megaphone_03s.jpg,touchpad_11s.jpg,,,,,,,,,,,,,,,,,,,,,,,
,,,,,,,,1.0,,,53,1.0,1.0,4.0035,0.0,2.0,2.0,2.0,1.0,lavender_10s.jpg,power_line_08s.jpg,,,,,,,,,,,,,,,,,,,,,,,
,,,,,,,,1.0,,,53,1.0,1.0,1.667945,0.0,3.0,3.0,3.0,1.0,possum_09s.jpg,keyboard_05s.jpg,,,,,,,,,,,,,,,,,,,,,,,
,,,,,,,,1.0,,,53,1.0,1.0,1.166795,0.0,4.0,4.0,4.0,1.0,sea_urchin_09s.jpg,roulette_wheel_04s.jpg,,,,,,,,,,,,,,,,,,,,,,,
,,,,,,,,1.0,,,53,1.0,1.0,0.9834,0.0,5.0,5.0,5.0,1.0,breadstick_08s.jpg,lasagna_06s.jpg,,,,,,,,,,,,,,,,,,,,,,,
,,,,,,,,,,,53,,,,,,,,,,,0.0,0.0,0.0,0.0,1.0,clockno_present_1_19.xlsx,clockno_compare_task_1_19.xlsx,,,,,,,,,,,,,,,,
,0.0,0.0,0.0,0.0,0.0,1.0,pacifier_09s.jpg,0.0,clockno_up.jpg,1.0,53,,,,,,,,,,,,,,,,,,,,,,,,,,,,,,,,,
,0.0,0.0,1.0,1.0,1.0,1.0,mud_13s.jpg,0.0,clockno_default.jpg,1.0,53,,,,,,,,,,,,,,,,,,,,,,,,,,,,,,,,,
,0.0,0.0,2.0,2.0,2.0,1.0,fork_04s.jpg,0.0,clockno_default.jpg,1.0,53,,,,,,,,,,,,,,,,,,,,,,,,,,,,,,,,,
,0.0,0.0,3.0,3.0,3.0,1.0,tiara_05s.jpg,0.0,clockno_default.jpg,1.0,53,,,,,,,,,,,,,,,,,,,,,,,,,,,,,,,,,
,0.0,0.0,4.0,4.0,4.0,1.0,checkbook_11s.jpg,0.0,clockno_default.jpg,1.0,53,,,,,,,,,,,,,,,,,,,,,,,,,,,,,,,,,
,0.0,0.0,5.0,5.0,5.0,1.0,jukebox_03n.jpg,0.0,clockno_default.jpg,1.0,53,,,,,,,,,,,,,,,,,,,,,,,,,,,,,,,,,
,0.0,0.0,6.0,6.0,6.0,1.0,giraffe_11s.jpg,0.0,clockno_up.jpg,2.0,53,,,,,,,,,,,,,,,,,,,,,,,,,,,,,,,,,
1.0,0.0,0.0,7.0,7.0,7.0,1.0,jukebox_03n.jpg,0.0,clockno_default.jpg,2.0,53,,,,,,,,,,,,,,,,,,1.13355,,,,,,,,,,,,,,,
1.0,0.0,0.0,8.0,8.0,8.0,1.0,lantern_04s.jpg,0.0,clockno_default.jpg,2.0,53,,,,,,,,,,,,,,,,,,0.382865,,,,,,,,,,,,,,,
1.0,0.0,0.0,9.0,9.0,9.0,1.0,owl_15s.jpg,0.0,clockno_default.jpg,2.0,53,,,,,,,,,,,,,,,,,,2.417825,,,,,,,,,,,,,,,
1.0,0.0,0.0,10.0,10.0,10.0,1.0,mold2_04s.jpg,0.0,clockno_default.jpg,2.0,53,,,,,,,,,,,,,,,,,,0.881115,,,,,,,,,,,,,,,
,0.0,0.0,11.0,11.0,11.0,1.0,joystick_01b.jpg,0.0,clockno_up.jpg,3.0,53,,,,,,,,,,,,,,,,,,,,,,,,,,,,,,,,,
1.0,0.0,0.0,12.0,12.0,12.0,1.0,throne_11s.jpg,0.0,clockno_default.jpg,3.0,53,,,,,,,,,,,,,,,,,,1.620235,,,,,,,,,,,,,,,
,0.0,0.0,13.0,13.0,13.0,1.0,binder_21s.jpg,0.0,clockno_default.jpg,3.0,53,,,,,,,,,,,,,,,,,,,,,,,,,,,,,,,,,
,0.0,0.0,14.0,14.0,14.0,1.0,golf_club_03s.jpg,0.0,clockno_default.jpg,3.0,53,,,,,,,,,,,,,,,,,,,,,,,,,,,,,,,,,
,0.0,0.0,15.0,15.0,15.0,1.0,golf_club_03s.jpg,1.0,clockno_default.jpg,3.0,53,,,,,,,,,,,,,,,,,,,,,,,,,,,,,,,,,
1.0,1.0,0.0,16.0,16.0,16.0,1.0,throne_11s.jpg,1.0,clockno_default.jpg,3.0,53,,,,,,,,,,,,,,,,,,2.397825,,,,,,,,,,,,,,,
,0.0,0.0,17.0,17.0,17.0,1.0,binder_21s.jpg,1.0,clockno_default.jpg,3.0,53,,,,,,,,,,,,,,,,,,,,,,,,,,,,,,,,,
1.0,0.0,0.0,18.0,18.0,18.0,1.0,birdcage_08s.jpg,0.0,clockno_up.jpg,4.0,53,,,,,,,,,,,,,,,,,,1.367745,,,,,,,,,,,,,,,
1.0,1.0,0.0,19.0,19.0,19.0,1.0,birdcage_08s.jpg,1.0,clockno_default.jpg,4.0,53,,,,,,,,,,,,,,,,,,1.435385,,,,,,,,,,,,,,,
,0.0,0.0,20.0,20.0,20.0,1.0,ukulele_02s.jpg,0.0,clockno_default.jpg,4.0,53,,,,,,,,,,,,,,,,,,,,,,,,,,,,,,,,,
,0.0,0.0,21.0,21.0,21.0,1.0,air_pump_05s.jpg,0.0,clockno_default.jpg,4.0,53,,,,,,,,,,,,,,,,,,,,,,,,,,,,,,,,,
,0.0,0.0,22.0,22.0,22.0,1.0,rocket_02s.jpg,0.0,clockno_default.jpg,4.0,53,,,,,,,,,,,,,,,,,,,,,,,,,,,,,,,,,
,0.0,0.0,23.0,23.0,23.0,1.0,paper_towel_03s.jpg,0.0,clockno_up.jpg,5.0,53,,,,,,,,,,,,,,,,,,,,,,,,,,,,,,,,,
1.0,1.0,0.0,24.0,24.0,24.0,1.0,paper_towel_03s.jpg,1.0,clockno_default.jpg,5.0,53,,,,,,,,,,,,,,,,,,0.96662,,,,,,,,,,,,,,,
,0.0,0.0,25.0,25.0,25.0,1.0,machine_gun_09s.jpg,0.0,clockno_default.jpg,5.0,53,,,,,,,,,,,,,,,,,,,,,,,,,,,,,,,,,
1.0,0.0,0.0,26.0,26.0,26.0,1.0,ladle_04s.jpg,0.0,clockno_default.jpg,5.0,53,,,,,,,,,,,,,,,,,,1.26876,,,,,,,,,,,,,,,
1.0,0.0,0.0,27.0,27.0,27.0,1.0,bee_20s.jpg,0.0,clockno_default.jpg,5.0,53,,,,,,,,,,,,,,,,,,1.603575,,,,,,,,,,,,,,,
,0.0,0.0,28.0,28.0,28.0,1.0,playpen_11s.jpg,0.0,clockno_default.jpg,5.0,53,,,,,,,,,,,,,,,,,,,,,,,,,,,,,,,,,
,0.0,0.0,29.0,29.0,29.0,1.0,mussel_11s.jpg,0.0,clockno_default.jpg,5.0,53,,,,,,,,,,,,,,,,,,,,,,,,,,,,,,,,,
1.0,0.0,0.0,30.0,30.0,30.0,1.0,polar_bear_02s.jpg,0.0,clockno_up.jpg,6.0,53,,,,,,,,,,,,,,,,,,1.029405,,,,,,,,,,,,,,,
,0.0,0.0,31.0,31.0,31.0,1.0,plug_08s.jpg,0.0,clockno_default.jpg,6.0,53,,,,,,,,,,,,,,,,,,,,,,,,,,,,,,,,,
,0.0,0.0,32.0,32.0,32.0,1.0,mug_06s.jpg,0.0,clockno_default.jpg,6.0,53,,,,,,,,,,,,,,,,,,,,,,,,,,,,,,,,,
,0.0,0.0,33.0,33.0,33.0,1.0,crossbow_10s.jpg,0.0,clockno_default.jpg,6.0,53,,,,,,,,,,,,,,,,,,,,,,,,,,,,,,,,,
,0.0,0.0,34.0,34.0,34.0,1.0,polar_bear_02s.jpg,1.0,clockno_default.jpg,6.0,53,,,,,,,,,,,,,,,,,,,,,,,,,,,,,,,,,
,0.0,0.0,35.0,35.0,35.0,1.0,raft_09s.jpg,0.0,clockno_default.jpg,6.0,53,,,,,,,,,,,,,,,,,,,,,,,,,,,,,,,,,
,,,,,,,,0.0,,,53,1.0,0.0,3.817235,0.0,0.0,0.0,0.0,1.0,joystick_01b.jpg,lantern_04s.jpg,,,,,,,,,,,,,,,,,,,,,,,
,,,,,,,,0.0,,,53,1.0,0.0,0.785665,0.0,1.0,1.0,1.0,1.0,machine_gun_09s.jpg,rocket_02s.jpg,,,,,,,,,,,,,,,,,,,,,,,
,,,,,,,,0.0,,,53,1.0,0.0,1.402665,0.0,2.0,2.0,2.0,1.0,plug_08s.jpg,playpen_11s.jpg,,,,,,,,,,,,,,,,,,,,,,,
,,,,,,,,0.0,,,53,1.0,0.0,8.72654,0.0,3.0,3.0,3.0,1.0,checkbook_11s.jpg,mud_13s.jpg,,,,,,,,,,,,,,,,,,,,,,,
,,,,,,,,0.0,,,53,0.0,1.0,1.298605,0.0,4.0,4.0,4.0,1.0,tiara_05s.jpg,pacifier_09s.jpg,,,,,,,,,,,,,,,,,,,,,,,
,,,,,,,,0.0,,,53,0.0,1.0,1.536595,0.0,5.0,5.0,5.0,1.0,owl_15s.jpg,giraffe_11s.jpg,,,,,,,,,,,,,,,,,,,,,,,
,,,,,,,,,,,53,,,,,,,,,,,0.0,1.0,1.0,1.0,1.0,clockno_present_2_19.xlsx,clockno_compare_task_2_19.xlsx,,,,,,,,,,,,,,,,
,0.0,0.0,0.0,0.0,0.0,1.0,toilet_paper_12s.jpg,0.0,clockno_up.jpg,1.0,53,,,,,,,,,,,,,,,,,,,,,,,,,,,,,,,,,
0.0,1.0,0.0,1.0,1.0,1.0,1.0,towel_rack_04s.jpg,0.0,clockno_default.jpg,1.0,53,,,,,,,,,,,,,,,,,,2.102565,,,,,,,,,,,,,,,
1.0,0.0,0.0,2.0,2.0,2.0,1.0,fountain_pen_06s.jpg,0.0,clockno_default.jpg,1.0,53,,,,,,,,,,,,,,,,,,1.01594,,,,,,,,,,,,,,,
1.0,1.0,0.0,3.0,3.0,3.0,1.0,towel_rack_04s.jpg,1.0,clockno_default.jpg,1.0,53,,,,,,,,,,,,,,,,,,0.35578,,,,,,,,,,,,,,,
1.0,0.0,0.0,4.0,4.0,4.0,1.0,measuring_cup_02s.jpg,0.0,clockno_default.jpg,1.0,53,,,,,,,,,,,,,,,,,,0.763605,,,,,,,,,,,,,,,
0.0,1.0,0.0,5.0,5.0,5.0,1.0,denture_03s.jpg,0.0,clockno_default.jpg,1.0,53,,,,,,,,,,,,,,,,,,0.48503,,,,,,,,,,,,,,,
0.0,1.0,0.0,6.0,6.0,6.0,1.0,tongs_08s.jpg,0.0,clockno_up.jpg,2.0,53,,,,,,,,,,,,,,,,,,0.953005,,,,,,,,,,,,,,,
0.0,1.0,0.0,7.0,7.0,7.0,1.0,thermostat_02s.jpg,0.0,clockno_default.jpg,2.0,53,,,,,,,,,,,,,,,,,,0.712535,,,,,,,,,,,,,,,
,0.0,0.0,8.0,8.0,8.0,1.0,coral_08s.jpg,0.0,clockno_default.jpg,2.0,53,,,,,,,,,,,,,,,,,,,,,,,,,,,,,,,,,
,0.0,0.0,9.0,9.0,9.0,1.0,spatula04.jpg,0.0,clockno_default.jpg,2.0,53,,,,,,,,,,,,,,,,,,,,,,,,,,,,,,,,,
1.0,1.0,0.0,10.0,10.0,10.0,1.0,spatula04.jpg,1.0,clockno_default.jpg,2.0,53,,,,,,,,,,,,,,,,,,1.307725,,,,,,,,,,,,,,,
0.0,1.0,0.0,11.0,11.0,11.0,1.0,phone_01b.jpg,0.0,clockno_up.jpg,3.0,53,,,,,,,,,,,,,,,,,,1.818845,,,,,,,,,,,,,,,
1.0,1.0,0.0,12.0,12.0,12.0,1.0,phone_01b.jpg,1.0,clockno_default.jpg,3.0,53,,,,,,,,,,,,,,,,,,1.984305,,,,,,,,,,,,,,,
0.0,1.0,0.0,13.0,13.0,13.0,1.0,quesadilla_07s.jpg,0.0,clockno_default.jpg,3.0,53,,,,,,,,,,,,,,,,,,2.336245,,,,,,,,,,,,,,,
0.0,1.0,0.0,14.0,14.0,14.0,1.0,chalice_10s.jpg,0.0,clockno_default.jpg,3.0,53,,,,,,,,,,,,,,,,,,1.20087,,,,,,,,,,,,,,,
0.0,1.0,0.0,15.0,15.0,15.0,1.0,leash_10s.jpg,0.0,clockno_default.jpg,3.0,53,,,,,,,,,,,,,,,,,,1.612985,,,,,,,,,,,,,,,
0.0,1.0,0.0,16.0,16.0,16.0,1.0,recliner_02s.jpg,0.0,clockno_default.jpg,3.0,53,,,,,,,,,,,,,,,,,,1.632945,,,,,,,,,,,,,,,
0.0,1.0,0.0,17.0,17.0,17.0,1.0,pillow_03s.jpg,0.0,clockno_up.jpg,4.0,53,,,,,,,,,,,,,,,,,,1.684955,,,,,,,,,,,,,,,
1.0,0.0,0.0,18.0,18.0,18.0,1.0,puppet_01b.jpg,0.0,clockno_default.jpg,4.0,53,,,,,,,,,,,,,,,,,,0.465415,,,,,,,,,,,,,,,
,0.0,0.0,19.0,19.0,19.0,1.0,quilt_03s.jpg,0.0,clockno_default.jpg,4.0,53,,,,,,,,,,,,,,,,,,,,,,,,,,,,,,,,,
1.0,1.0,0.0,20.0,20.0,20.0,1.0,pillow_03s.jpg,1.0,clockno_default.jpg,4.0,53,,,,,,,,,,,,,,,,,,2.352615,,,,,,,,,,,,,,,
,0.0,0.0,21.0,21.0,21.0,1.0,piano_13n.jpg,0.0,clockno_default.jpg,4.0,53,,,,,,,,,,,,,,,,,,,,,,,,,,,,,,,,,
,0.0,0.0,22.0,22.0,22.0,1.0,seahorse_13s.jpg,0.0,clockno_up.jpg,5.0,53,,,,,,,,,,,,,,,,,,,,,,,,,,,,,,,,,
,0.0,0.0,23.0,23.0,23.0,1.0,lamb_04s.jpg,0.0,clockno_default.jpg,5.0,53,,,,,,,,,,,,,,,,,,,,,,,,,,,,,,,,,
,0.0,0.0,24.0,24.0,24.0,1.0,bagel_15s.jpg,0.0,clockno_default.jpg,5.0,53,,,,,,,,,,,,,,,,,,,,,,,,,,,,,,,,,
,0.0,0.0,25.0,25.0,25.0,1.0,meatball_13s.jpg,0.0,clockno_default.jpg,5.0,53,,,,,,,,,,,,,,,,,,,,,,,,,,,,,,,,,
,0.0,0.0,26.0,26.0,26.0,1.0,meatball_13s.jpg,1.0,clockno_default.jpg,5.0,53,,,,,,,,,,,,,,,,,,,,,,,,,,,,,,,,,
,0.0,0.0,27.0,27.0,27.0,1.0,microwave_02s.jpg,0.0,clockno_default.jpg,5.0,53,,,,,,,,,,,,,,,,,,,,,,,,,,,,,,,,,
,0.0,0.0,28.0,28.0,28.0,1.0,meatball_13s.jpg,1.0,clockno_default.jpg,5.0,53,,,,,,,,,,,,,,,,,,,,,,,,,,,,,,,,,
,0.0,0.0,29.0,29.0,29.0,1.0,peach_04s.jpg,0.0,clockno_up.jpg,6.0,53,,,,,,,,,,,,,,,,,,,,,,,,,,,,,,,,,
,0.0,0.0,30.0,30.0,30.0,1.0,basket_05s.jpg,0.0,clockno_default.jpg,6.0,53,,,,,,,,,,,,,,,,,,,,,,,,,,,,,,,,,
,0.0,0.0,31.0,31.0,31.0,1.0,quill_09s.jpg,0.0,clockno_default.jpg,6.0,53,,,,,,,,,,,,,,,,,,,,,,,,,,,,,,,,,
,0.0,0.0,32.0,32.0,32.0,1.0,road_sign_05s.jpg,0.0,clockno_default.jpg,6.0,53,,,,,,,,,,,,,,,,,,,,,,,,,,,,,,,,,
,0.0,0.0,33.0,33.0,33.0,1.0,umbrella_15s.jpg,0.0,clockno_default.jpg,6.0,53,,,,,,,,,,,,,,,,,,,,,,,,,,,,,,,,,
,0.0,0.0,34.0,34.0,34.0,1.0,lava_02s.jpg,0.0,clockno_default.jpg,6.0,53,,,,,,,,,,,,,,,,,,,,,,,,,,,,,,,,,
,0.0,0.0,35.0,35.0,35.0,1.0,swimming_pool_17s.jpg,0.0,clockno_default.jpg,6.0,53,,,,,,,,,,,,,,,,,,,,,,,,,,,,,,,,,
,,,,,,,,0.0,,,53,1.0,0.0,5.95549,0.0,0.0,0.0,0.0,1.0,thermostat_02s.jpg,measuring_cup_02s.jpg,,,,,,,,,,,,,,,,,,,,,,,
,,,,,,,,1.0,,,53,1.0,1.0,0.987205,0.0,1.0,1.0,1.0,1.0,quilt_03s.jpg,seahorse_13s.jpg,,,,,,,,,,,,,,,,,,,,,,,
,,,,,,,,1.0,,,53,0.0,0.0,1.80584,0.0,2.0,2.0,2.0,1.0,denture_03s.jpg,coral_08s.jpg,,,,,,,,,,,,,,,,,,,,,,,
,,,,,,,,0.0,,,53,1.0,0.0,2.434615,0.0,3.0,3.0,3.0,1.0,road_sign_05s.jpg,peach_04s.jpg,,,,,,,,,,,,,,,,,,,,,,,
,,,,,,,,1.0,,,53,1.0,1.0,1.769535,0.0,4.0,4.0,4.0,1.0,quill_09s.jpg,lava_02s.jpg,,,,,,,,,,,,,,,,,,,,,,,
,,,,,,,,1.0,,,53,1.0,1.0,1.605685,0.0,5.0,5.0,5.0,1.0,quesadilla_07s.jpg,recliner_02s.jpg,,,,,,,,,,,,,,,,,,,,,,,
,,,,,,,,,,,53,,,,,,,,,,,0.0,2.0,2.0,2.0,1.0,clockno_present_3_19.xlsx,clockno_compare_task_3_19.xlsx,,,,,,,,,,,,,,,,
,0.0,0.0,0.0,0.0,0.0,1.0,knitting_needle_04s.jpg,0.0,clockno_up.jpg,1.0,53,,,,,,,,,,,,,,,,,,,,,,,,,,,,,,,,,
0.0,1.0,0.0,1.0,1.0,1.0,1.0,mop_08s.jpg,0.0,clockno_default.jpg,1.0,53,,,,,,,,,,,,,,,,,,0.750855,,,,,,,,,,,,,,,
0.0,1.0,0.0,2.0,2.0,2.0,1.0,diving_board_07s.jpg,0.0,clockno_default.jpg,1.0,53,,,,,,,,,,,,,,,,,,0.71979,,,,,,,,,,,,,,,
0.0,1.0,0.0,3.0,3.0,3.0,1.0,police_car_01s.jpg,0.0,clockno_default.jpg,1.0,53,,,,,,,,,,,,,,,,,,0.498765,,,,,,,,,,,,,,,
1.0,1.0,0.0,4.0,4.0,4.0,1.0,mop_08s.jpg,1.0,clockno_default.jpg,1.0,53,,,,,,,,,,,,,,,,,,2.0012,,,,,,,,,,,,,,,
0.0,1.0,0.0,5.0,5.0,5.0,1.0,popsicle_02s.jpg,0.0,clockno_up.jpg,2.0,53,,,,,,,,,,,,,,,,,,2.23471,,,,,,,,,,,,,,,
0.0,1.0,0.0,6.0,6.0,6.0,1.0,icemaker_10s.jpg,0.0,clockno_default.jpg,2.0,53,,,,,,,,,,,,,,,,,,2.41866,,,,,,,,,,,,,,,
1.0,0.0,0.0,7.0,7.0,7.0,1.0,diving_board_07s.jpg,0.0,clockno_default.jpg,2.0,53,,,,,,,,,,,,,,,,,,2.43357,,,,,,,,,,,,,,,
0.0,1.0,0.0,8.0,8.0,8.0,1.0,poinsettia_04s.jpg,0.0,clockno_default.jpg,2.0,53,,,,,,,,,,,,,,,,,,1.30348,,,,,,,,,,,,,,,
,0.0,0.0,9.0,9.0,9.0,1.0,ticktacktoe_08s.jpg,0.0,clockno_default.jpg,2.0,53,,,,,,,,,,,,,,,,,,,,,,,,,,,,,,,,,
,0.0,0.0,10.0,10.0,10.0,1.0,ticktacktoe_08s.jpg,1.0,clockno_default.jpg,2.0,53,,,,,,,,,,,,,,,,,,,,,,,,,,,,,,,,,
0.0,1.0,0.0,11.0,11.0,11.0,1.0,otter_05s.jpg,0.0,clockno_up.jpg,3.0,53,,,,,,,,,,,,,,,,,,1.33153,,,,,,,,,,,,,,,
1.0,1.0,0.0,12.0,12.0,12.0,1.0,otter_05s.jpg,1.0,clockno_default.jpg,3.0,53,,,,,,,,,,,,,,,,,,1.90043,,,,,,,,,,,,,,,
0.0,1.0,0.0,13.0,13.0,13.0,1.0,projector_08s.jpg,0.0,clockno_default.jpg,3.0,53,,,,,,,,,,,,,,,,,,2.43472,,,,,,,,,,,,,,,
1.0,1.0,0.0,14.0,14.0,14.0,1.0,projector_08s.jpg,1.0,clockno_default.jpg,3.0,53,,,,,,,,,,,,,,,,,,1.189145,,,,,,,,,,,,,,,
0.0,1.0,0.0,15.0,15.0,15.0,1.0,treadmill_06s.jpg,0.0,clockno_default.jpg,3.0,53,,,,,,,,,,,,,,,,,,1.399175,,,,,,,,,,,,,,,
1.0,1.0,0.0,16.0,16.0,16.0,1.0,treadmill_06s.jpg,1.0,clockno_default.jpg,3.0,53,,,,,,,,,,,,,,,,,,1.13334,,,,,,,,,,,,,,,
1.0,0.0,0.0,17.0,17.0,17.0,1.0,pomegranate_04s.jpg,0.0,clockno_default.jpg,3.0,53,,,,,,,,,,,,,,,,,,1.933375,,,,,,,,,,,,,,,
0.0,1.0,0.0,18.0,18.0,18.0,1.0,surfboard_11s.jpg,0.0,clockno_up.jpg,4.0,53,,,,,,,,,,,,,,,,,,1.800635,,,,,,,,,,,,,,,
,0.0,0.0,19.0,19.0,19.0,1.0,sunglasses_11s.jpg,0.0,clockno_default.jpg,4.0,53,,,,,,,,,,,,,,,,,,,,,,,,,,,,,,,,,
,0.0,0.0,20.0,20.0,20.0,1.0,smoothie_09s.jpg,0.0,clockno_default.jpg,4.0,53,,,,,,,,,,,,,,,,,,,,,,,,,,,,,,,,,
1.0,0.0,0.0,21.0,21.0,21.0,1.0,blowfish_03s.jpg,0.0,clockno_default.jpg,4.0,53,,,,,,,,,,,,,,,,,,2.131115,,,,,,,,,,,,,,,
1.0,0.0,0.0,22.0,22.0,22.0,1.0,gazelle_10s.jpg,0.0,clockno_default.jpg,4.0,53,,,,,,,,,,,,,,,,,,0.633585,,,,,,,,,,,,,,,
0.0,1.0,0.0,23.0,23.0,23.0,1.0,rhubarb_03s.jpg,0.0,clockno_default.jpg,4.0,53,,,,,,,,,,,,,,,,,,0.849155,,,,,,,,,,,,,,,
1.0,0.0,0.0,24.0,24.0,24.0,1.0,swing_set_15s.jpg,0.0,clockno_default.jpg,4.0,53,,,,,,,,,,,,,,,,,,0.89881,,,,,,,,,,,,,,,
0.0,1.0,0.0,25.0,25.0,25.0,1.0,tuxedo_01b.jpg,0.0,clockno_up.jpg,5.0,53,,,,,,,,,,,,,,,,,,0.462275,,,,,,,,,,,,,,,
0.0,0.0,0.0,26.0,26.0,26.0,1.0,tuxedo_01b.jpg,1.0,clockno_default.jpg,5.0,53,,,,,,,,,,,,,,,,,,0.664275,,,,,,,,,,,,,,,
0.0,1.0,0.0,27.0,27.0,27.0,1.0,slingshot_07s.jpg,0.0,clockno_default.jpg,5.0,53,,,,,,,,,,,,,,,,,,1.477525,,,,,,,,,,,,,,,
1.0,0.0,0.0,28.0,28.0,28.0,1.0,abacus_12s.jpg,0.0,clockno_default.jpg,5.0,53,,,,,,,,,,,,,,,,,,0.296095,,,,,,,,,,,,,,,
0.0,1.0,0.0,29.0,29.0,29.0,1.0,crystal_ball_12s.jpg,0.0,clockno_default.jpg,5.0,53,,,,,,,,,,,,,,,,,,1.33312,,,,,,,,,,,,,,,
1.0,0.0,0.0,30.0,30.0,30.0,1.0,otter_05s.jpg,0.0,clockno_default.jpg,5.0,53,,,,,,,,,,,,,,,,,,1.449755,,,,,,,,,,,,,,,
1.0,0.0,0.0,31.0,31.0,31.0,1.0,penguin_16s.jpg,0.0,clockno_up.jpg,6.0,53,,,,,,,,,,,,,,,,,,0.928325,,,,,,,,,,,,,,,
0.0,1.0,0.0,32.0,32.0,32.0,1.0,glasses01a.jpg,0.0,clockno_default.jpg,6.0,53,,,,,,,,,,,,,,,,,,2.287065,,,,,,,,,,,,,,,
0.0,0.0,0.0,33.0,33.0,33.0,1.0,glasses01a.jpg,1.0,clockno_default.jpg,6.0,53,,,,,,,,,,,,,,,,,,1.446465,,,,,,,,,,,,,,,
0.0,1.0,0.0,34.0,34.0,34.0,1.0,beard_16s.jpg,0.0,clockno_default.jpg,6.0,53,,,,,,,,,,,,,,,,,,2.428245,,,,,,,,,,,,,,,
1.0,0.0,0.0,35.0,35.0,35.0,1.0,inhaler_01b.jpg,0.0,clockno_default.jpg,6.0,53,,,,,,,,,,,,,,,,,,2.04642,,,,,,,,,,,,,,,
,,,,,,,,0.0,,,53,1.0,0.0,0.77262,0.0,0.0,0.0,0.0,1.0,icemaker_10s.jpg,police_car_01s.jpg,,,,,,,,,,,,,,,,,,,,,,,
,,,,,,,,0.0,,,53,1.0,0.0,1.088225,0.0,1.0,1.0,1.0,1.0,smoothie_09s.jpg,pomegranate_04s.jpg,,,,,,,,,,,,,,,,,,,,,,,
,,,,,,,,0.0,,,53,0.0,1.0,0.900745,0.0,2.0,2.0,2.0,1.0,slingshot_07s.jpg,swing_set_15s.jpg,,,,,,,,,,,,,,,,,,,,,,,
,,,,,,,,1.0,,,53,1.0,1.0,1.11583,0.0,3.0,3.0,3.0,1.0,popsicle_02s.jpg,poinsettia_04s.jpg,,,,,,,,,,,,,,,,,,,,,,,
,,,,,,,,1.0,,,53,1.0,1.0,1.368065,0.0,4.0,4.0,4.0,1.0,surfboard_11s.jpg,blowfish_03s.jpg,,,,,,,,,,,,,,,,,,,,,,,
,,,,,,,,0.0,,,53,0.0,1.0,3.187485,0.0,5.0,5.0,5.0,1.0,gazelle_10s.jpg,sunglasses_11s.jpg,,,,,,,,,,,,,,,,,,,,,,,
,,,,,,,,,,,53,,,,,,,,,,,0.0,3.0,3.0,3.0,1.0,clockno_present_4_19.xlsx,clockno_compare_task_4_19.xlsx,,,,,,,,,,,,,,,,
0.0,1.0,0.0,0.0,0.0,0.0,1.0,crayon_09s.jpg,0.0,clockno_up.jpg,1.0,53,,,,,,,,,,,,,,,,,,1.4037,,,,,,,,,,,,,,,
0.0,1.0,0.0,1.0,1.0,1.0,1.0,tweezers_03s.jpg,0.0,clockno_default.jpg,1.0,53,,,,,,,,,,,,,,,,,,1.014195,,,,,,,,,,,,,,,
1.0,0.0,0.0,2.0,2.0,2.0,1.0,powder_07s.jpg,0.0,clockno_default.jpg,1.0,53,,,,,,,,,,,,,,,,,,1.01363,,,,,,,,,,,,,,,
0.0,1.0,0.0,3.0,3.0,3.0,1.0,pear_02s.jpg,0.0,clockno_default.jpg,1.0,53,,,,,,,,,,,,,,,,,,0.761835,,,,,,,,,,,,,,,
1.0,1.0,0.0,4.0,4.0,4.0,1.0,crayon_09s.jpg,1.0,clockno_default.jpg,1.0,53,,,,,,,,,,,,,,,,,,1.0182,,,,,,,,,,,,,,,
1.0,1.0,0.0,5.0,5.0,5.0,1.0,tweezers_03s.jpg,1.0,clockno_default.jpg,1.0,53,,,,,,,,,,,,,,,,,,0.735025,,,,,,,,,,,,,,,
0.0,1.0,0.0,6.0,6.0,6.0,1.0,briefcase_03s.jpg,0.0,clockno_default.jpg,1.0,53,,,,,,,,,,,,,,,,,,1.450485,,,,,,,,,,,,,,,
0.0,1.0,0.0,7.0,7.0,7.0,1.0,soccer_ball_12s.jpg,0.0,clockno_up.jpg,2.0,53,,,,,,,,,,,,,,,,,,0.781635,,,,,,,,,,,,,,,
1.0,1.0,0.0,8.0,8.0,8.0,1.0,soccer_ball_12s.jpg,1.0,clockno_default.jpg,2.0,53,,,,,,,,,,,,,,,,,,1.583585,,,,,,,,,,,,,,,
0.0,1.0,0.0,9.0,9.0,9.0,1.0,mascara_03s.jpg,0.0,clockno_default.jpg,2.0,53,,,,,,,,,,,,,,,,,,2.28344,,,,,,,,,,,,,,,
1.0,0.0,0.0,10.0,10.0,10.0,1.0,crayon_09s.jpg,0.0,clockno_default.jpg,2.0,53,,,,,,,,,,,,,,,,,,1.19544,,,,,,,,,,,,,,,
1.0,0.0,0.0,11.0,11.0,11.0,1.0,rice_12s.jpg,0.0,clockno_default.jpg,2.0,53,,,,,,,,,,,,,,,,,,1.984425,,,,,,,,,,,,,,,
1.0,0.0,0.0,12.0,12.0,12.0,1.0,razor_blade_01b.jpg,0.0,clockno_default.jpg,2.0,53,,,,,,,,,,,,,,,,,,2.030345,,,,,,,,,,,,,,,
,0.0,0.0,13.0,13.0,13.0,1.0,champagne_18s.jpg,0.0,clockno_up.jpg,3.0,53,,,,,,,,,,,,,,,,,,,,,,,,,,,,,,,,,
,0.0,0.0,14.0,14.0,14.0,1.0,ruby_15s.jpg,0.0,clockno_default.jpg,3.0,53,,,,,,,,,,,,,,,,,,,,,,,,,,,,,,,,,
,0.0,0.0,15.0,15.0,15.0,1.0,gas_mask_11s.jpg,0.0,clockno_default.jpg,3.0,53,,,,,,,,,,,,,,,,,,,,,,,,,,,,,,,,,
1.0,1.0,0.0,16.0,16.0,16.0,1.0,gas_mask_11s.jpg,1.0,clockno_default.jpg,3.0,53,,,,,,,,,,,,,,,,,,2.050425,,,,,,,,,,,,,,,
,0.0,0.0,17.0,17.0,17.0,1.0,cape_11s.jpg,0.0,clockno_default.jpg,3.0,53,,,,,,,,,,,,,,,,,,,,,,,,,,,,,,,,,
,0.0,0.0,18.0,18.0,18.0,1.0,solar_panel_02s.jpg,0.0,clockno_default.jpg,3.0,53,,,,,,,,,,,,,,,,,,,,,,,,,,,,,,,,,
,0.0,0.0,19.0,19.0,19.0,1.0,solar_panel_02s.jpg,1.0,clockno_default.jpg,3.0,53,,,,,,,,,,,,,,,,,,,,,,,,,,,,,,,,,
,0.0,0.0,20.0,20.0,20.0,1.0,target_11s.jpg,0.0,clockno_up.jpg,4.0,53,,,,,,,,,,,,,,,,,,,,,,,,,,,,,,,,,
,0.0,0.0,21.0,21.0,21.0,1.0,knot_01b.jpg,0.0,clockno_default.jpg,4.0,53,,,,,,,,,,,,,,,,,,,,,,,,,,,,,,,,,
,0.0,0.0,22.0,22.0,22.0,1.0,buoy_04s.jpg,0.0,clockno_default.jpg,4.0,53,,,,,,,,,,,,,,,,,,,,,,,,,,,,,,,,,
,0.0,0.0,23.0,23.0,23.0,1.0,funnel_01b.jpg,0.0,clockno_default.jpg,4.0,53,,,,,,,,,,,,,,,,,,,,,,,,,,,,,,,,,
,0.0,0.0,24.0,24.0,24.0,1.0,buoy_04s.jpg,1.0,clockno_default.jpg,4.0,53,,,,,,,,,,,,,,,,,,,,,,,,,,,,,,,,,
,0.0,0.0,25.0,25.0,25.0,1.0,pretzel_09s.jpg,0.0,clockno_default.jpg,4.0,53,,,,,,,,,,,,,,,,,,,,,,,,,,,,,,,,,
,0.0,0.0,26.0,26.0,26.0,1.0,kettle_08s.jpg,0.0,clockno_up.jpg,5.0,53,,,,,,,,,,,,,,,,,,,,,,,,,,,,,,,,,
,0.0,0.0,27.0,27.0,27.0,1.0,milk_02s.jpg,0.0,clockno_default.jpg,5.0,53,,,,,,,,,,,,,,,,,,,,,,,,,,,,,,,,,
,0.0,0.0,28.0,28.0,28.0,1.0,dashboard_02s.jpg,0.0,clockno_default.jpg,5.0,53,,,,,,,,,,,,,,,,,,,,,,,,,,,,,,,,,
,0.0,0.0,29.0,29.0,29.0,1.0,toilet_07s.jpg,0.0,clockno_default.jpg,5.0,53,,,,,,,,,,,,,,,,,,,,,,,,,,,,,,,,,
1.0,0.0,0.0,30.0,30.0,30.0,1.0,spacesuit_02s.jpg,0.0,clockno_default.jpg,5.0,53,,,,,,,,,,,,,,,,,,1.89462,,,,,,,,,,,,,,,
,0.0,0.0,31.0,31.0,31.0,1.0,lifesaver_10s.jpg,0.0,clockno_up.jpg,6.0,53,,,,,,,,,,,,,,,,,,,,,,,,,,,,,,,,,
,0.0,0.0,32.0,32.0,32.0,1.0,stamp1_11s.jpg,0.0,clockno_default.jpg,6.0,53,,,,,,,,,,,,,,,,,,,,,,,,,,,,,,,,,
1.0,0.0,0.0,33.0,33.0,33.0,1.0,stingray_02s.jpg,0.0,clockno_default.jpg,6.0,53,,,,,,,,,,,,,,,,,,1.221815,,,,,,,,,,,,,,,
,0.0,0.0,34.0,34.0,34.0,1.0,torch_02s.jpg,0.0,clockno_default.jpg,6.0,53,,,,,,,,,,,,,,,,,,,,,,,,,,,,,,,,,
,0.0,0.0,35.0,35.0,35.0,1.0,powder_07s.jpg,0.0,clockno_default.jpg,6.0,53,,,,,,,,,,,,,,,,,,,,,,,,,,,,,,,,,
,,,,,,,,0.0,,,53,1.0,0.0,2.312355,0.0,0.0,0.0,0.0,1.0,dashboard_02s.jpg,pretzel_09s.jpg,,,,,,,,,,,,,,,,,,,,,,,
,,,,,,,,0.0,,,53,0.0,1.0,1.62001,0.0,1.0,1.0,1.0,1.0,ruby_15s.jpg,rice_12s.jpg,,,,,,,,,,,,,,,,,,,,,,,
,,,,,,,,0.0,,,53,0.0,1.0,1.165665,0.0,2.0,2.0,2.0,1.0,stamp1_11s.jpg,toilet_07s.jpg,,,,,,,,,,,,,,,,,,,,,,,
,,,,,,,,0.0,,,53,1.0,0.0,0.8008,0.0,3.0,3.0,3.0,1.0,briefcase_03s.jpg,pear_02s.jpg,,,,,,,,,,,,,,,,,,,,,,,
,,,,,,,,1.0,,,53,0.0,0.0,1.017905,0.0,4.0,4.0,4.0,1.0,mascara_03s.jpg,razor_blade_01b.jpg,,,,,,,,,,,,,,,,,,,,,,,
,,,,,,,,0.0,,,53,0.0,1.0,1.118875,0.0,5.0,5.0,5.0,1.0,spacesuit_02s.jpg,milk_02s.jpg,,,,,,,,,,,,,,,,,,,,,,,
,,,,,,,,,,,53,,,,,,,,,,,0.0,4.0,4.0,4.0,1.0,clockno_present_5_19.xlsx,clockno_compare_task_5_19.xlsx,,,,,,,,,,,,,,,,
0.0,1.0,0.0,0.0,0.0,0.0,1.0,onion_10s.jpg,0.0,clockno_up.jpg,1.0,53,,,,,,,,,,,,,,,,,,2.097545,,,,,,,,,,,,,,,
,0.0,0.0,1.0,1.0,1.0,1.0,eiffeltower.jpg,0.0,clockno_default.jpg,1.0,53,,,,,,,,,,,,,,,,,,,,,,,,,,,,,,,,,
,0.0,0.0,2.0,2.0,2.0,1.0,ostrich_06s.jpg,0.0,clockno_default.jpg,1.0,53,,,,,,,,,,,,,,,,,,,,,,,,,,,,,,,,,
,0.0,0.0,3.0,3.0,3.0,1.0,eiffeltower.jpg,1.0,clockno_default.jpg,1.0,53,,,,,,,,,,,,,,,,,,,,,,,,,,,,,,,,,
1.0,0.0,0.0,4.0,4.0,4.0,1.0,punch2_09s.jpg,0.0,clockno_default.jpg,1.0,53,,,,,,,,,,,,,,,,,,1.933305,,,,,,,,,,,,,,,
0.0,1.0,0.0,5.0,5.0,5.0,1.0,trumpet_06s.jpg,0.0,clockno_default.jpg,1.0,53,,,,,,,,,,,,,,,,,,1.11635,,,,,,,,,,,,,,,
0.0,1.0,0.0,6.0,6.0,6.0,1.0,puck_06s.jpg,0.0,clockno_default.jpg,1.0,53,,,,,,,,,,,,,,,,,,2.403,,,,,,,,,,,,,,,
0.0,1.0,0.0,7.0,7.0,7.0,1.0,cushion_08s.jpg,0.0,clockno_up.jpg,2.0,53,,,,,,,,,,,,,,,,,,2.153365,,,,,,,,,,,,,,,
0.0,1.0,0.0,8.0,8.0,8.0,1.0,pea_11s.jpg,0.0,clockno_default.jpg,2.0,53,,,,,,,,,,,,,,,,,,1.972805,,,,,,,,,,,,,,,
0.0,1.0,0.0,9.0,9.0,9.0,1.0,kayak_08s.jpg,0.0,clockno_default.jpg,2.0,53,,,,,,,,,,,,,,,,,,1.895705,,,,,,,,,,,,,,,
,0.0,0.0,10.0,10.0,10.0,1.0,swan_11s.jpg,0.0,clockno_default.jpg,2.0,53,,,,,,,,,,,,,,,,,,,,,,,,,,,,,,,,,
,0.0,0.0,11.0,11.0,11.0,1.0,ostrich_06s.jpg,0.0,clockno_default.jpg,2.0,53,,,,,,,,,,,,,,,,,,,,,,,,,,,,,,,,,
,0.0,0.0,12.0,12.0,12.0,1.0,eiffeltower.jpg,0.0,clockno_default.jpg,2.0,53,,,,,,,,,,,,,,,,,,,,,,,,,,,,,,,,,
0.0,1.0,0.0,13.0,13.0,13.0,1.0,toy_04s.jpg,0.0,clockno_up.jpg,3.0,53,,,,,,,,,,,,,,,,,,2.18331,,,,,,,,,,,,,,,
,0.0,0.0,14.0,14.0,14.0,1.0,rocking_chair_05s.jpg,0.0,clockno_default.jpg,3.0,53,,,,,,,,,,,,,,,,,,,,,,,,,,,,,,,,,
,0.0,0.0,15.0,15.0,15.0,1.0,toy_04s.jpg,1.0,clockno_default.jpg,3.0,53,,,,,,,,,,,,,,,,,,,,,,,,,,,,,,,,,
,0.0,0.0,16.0,16.0,16.0,1.0,sledgehammer_03s.jpg,0.0,clockno_default.jpg,3.0,53,,,,,,,,,,,,,,,,,,,,,,,,,,,,,,,,,
0.0,1.0,0.0,17.0,17.0,17.0,1.0,luggage_08s.jpg,0.0,clockno_default.jpg,3.0,53,,,,,,,,,,,,,,,,,,1.450685,,,,,,,,,,,,,,,
,0.0,0.0,18.0,18.0,18.0,1.0,marshmallow_08s.jpg,0.0,clockno_default.jpg,3.0,53,,,,,,,,,,,,,,,,,,,,,,,,,,,,,,,,,
,0.0,0.0,19.0,19.0,19.0,1.0,laundry_basket_11s.jpg,0.0,clockno_up.jpg,4.0,53,,,,,,,,,,,,,,,,,,,,,,,,,,,,,,,,,
,0.0,0.0,20.0,20.0,20.0,1.0,cap_05s.jpg,0.0,clockno_default.jpg,4.0,53,,,,,,,,,,,,,,,,,,,,,,,,,,,,,,,,,
,0.0,0.0,21.0,21.0,21.0,1.0,totem_pole_05s.jpg,0.0,clockno_default.jpg,4.0,53,,,,,,,,,,,,,,,,,,,,,,,,,,,,,,,,,
,0.0,0.0,22.0,22.0,22.0,1.0,tape_06s.jpg,0.0,clockno_default.jpg,4.0,53,,,,,,,,,,,,,,,,,,,,,,,,,,,,,,,,,
,0.0,0.0,23.0,23.0,23.0,1.0,laundry_basket_11s.jpg,1.0,clockno_default.jpg,4.0,53,,,,,,,,,,,,,,,,,,,,,,,,,,,,,,,,,
,0.0,0.0,24.0,24.0,24.0,1.0,tape_06s.jpg,1.0,clockno_default.jpg,4.0,53,,,,,,,,,,,,,,,,,,,,,,,,,,,,,,,,,
,0.0,0.0,25.0,25.0,25.0,1.0,totem_pole_05s.jpg,1.0,clockno_default.jpg,4.0,53,,,,,,,,,,,,,,,,,,,,,,,,,,,,,,,,,
,0.0,0.0,26.0,26.0,26.0,1.0,espresso_01b.jpg,0.0,clockno_up.jpg,5.0,53,,,,,,,,,,,,,,,,,,,,,,,,,,,,,,,,,
,0.0,0.0,27.0,27.0,27.0,1.0,sugar_cube_11s.jpg,0.0,clockno_default.jpg,5.0,53,,,,,,,,,,,,,,,,,,,,,,,,,,,,,,,,,
,0.0,0.0,28.0,28.0,28.0,1.0,timer_03s.jpg,0.0,clockno_default.jpg,5.0,53,,,,,,,,,,,,,,,,,,,,,,,,,,,,,,,,,
,0.0,0.0,29.0,29.0,29.0,1.0,squirt_gun_03s.jpg,0.0,clockno_default.jpg,5.0,53,,,,,,,,,,,,,,,,,,,,,,,,,,,,,,,,,
1.0,0.0,0.0,30.0,30.0,30.0,1.0,stamp2_08s.jpg,0.0,clockno_default.jpg,5.0,53,,,,,,,,,,,,,,,,,,2.08348,,,,,,,,,,,,,,,
,0.0,0.0,31.0,31.0,31.0,1.0,ravioli_08s.jpg,0.0,clockno_up.jpg,6.0,53,,,,,,,,,,,,,,,,,,,,,,,,,,,,,,,,,
,0.0,0.0,32.0,32.0,32.0,1.0,tattoo_14s.jpg,0.0,clockno_default.jpg,6.0,53,,,,,,,,,,,,,,,,,,,,,,,,,,,,,,,,,
,0.0,0.0,33.0,33.0,33.0,1.0,racehorse_03s.jpg,0.0,clockno_default.jpg,6.0,53,,,,,,,,,,,,,,,,,,,,,,,,,,,,,,,,,
,0.0,0.0,34.0,34.0,34.0,1.0,tie_03s.jpg,0.0,clockno_default.jpg,6.0,53,,,,,,,,,,,,,,,,,,,,,,,,,,,,,,,,,
,0.0,0.0,35.0,35.0,35.0,1.0,chocolate_01b.jpg,0.0,clockno_default.jpg,6.0,53,,,,,,,,,,,,,,,,,,,,,,,,,,,,,,,,,
,,,,,,,,1.0,,,53,0.0,0.0,3.08837,0.0,0.0,0.0,0.0,1.0,trumpet_06s.jpg,pea_11s.jpg,,,,,,,,,,,,,,,,,,,,,,,
,,,,,,,,0.0,,,53,1.0,0.0,0.335095,0.0,1.0,1.0,1.0,1.0,kayak_08s.jpg,puck_06s.jpg,,,,,,,,,,,,,,,,,,,,,,,
,,,,,,,,1.0,,,53,0.0,0.0,0.356255,0.0,2.0,2.0,2.0,1.0,punch2_09s.jpg,cushion_08s.jpg,,,,,,,,,,,,,,,,,,,,,,,
,,,,,,,,0.0,,,53,1.0,0.0,0.235065,0.0,3.0,3.0,3.0,1.0,luggage_08s.jpg,rocking_chair_05s.jpg,,,,,,,,,,,,,,,,,,,,,,,
,,,,,,,,1.0,,,53,1.0,1.0,0.23469,0.0,4.0,4.0,4.0,1.0,espresso_01b.jpg,squirt_gun_03s.jpg,,,,,,,,,,,,,,,,,,,,,,,
,,,,,,,,0.0,,,53,1.0,0.0,0.165695,0.0,5.0,5.0,5.0,1.0,stamp2_08s.jpg,sugar_cube_11s.jpg,,,,,,,,,,,,,,,,,,,,,,,
,0.0,,,,,,pump_11s.jpg,0.0,clock_6_1.png,1.0,53,,,,,,,,,,,,,,,,,,,0.0,0.0,0.0,0.0,1.0,,,,,,,,,,
,0.0,,,,,,lip_gloss_06s.jpg,0.0,clock_6_2.png,1.0,53,,,,,,,,,,,,,,,,,,,0.0,1.0,1.0,1.0,1.0,,,,,,,,,,
,0.0,,,,,,mailbox_11s.jpg,0.0,clock_6_3.png,1.0,53,,,,,,,,,,,,,,,,,,,0.0,2.0,2.0,2.0,1.0,,,,,,,,,,
1.0,1.0,,,,,,mailbox_11s.jpg,1.0,clock_6_4.png,1.0,53,,,,,,,,,,,,,,,,,,1.984985,0.0,3.0,3.0,3.0,1.0,,,,,,,,,,
0.0,1.0,,,,,,tablet_04s.jpg,0.0,clock_6_5.png,1.0,53,,,,,,,,,,,,,,,,,,2.338835,0.0,4.0,4.0,4.0,1.0,,,,,,,,,,
0.0,0.0,,,,,,mailbox_11s.jpg,1.0,clock_6_6.png,1.0,53,,,,,,,,,,,,,,,,,,0.962005,0.0,5.0,5.0,5.0,1.0,,,,,,,,,,
0.0,1.0,,,,,,squirrel_02s.jpg,0.0,clock_5_1.png,2.0,53,,,,,,,,,,,,,,,,,,2.128745,0.0,6.0,6.0,6.0,1.0,,,,,,,,,,
,0.0,,,,,,crab_16s.jpg,0.0,clock_5_2.png,2.0,53,,,,,,,,,,,,,,,,,,,0.0,7.0,7.0,7.0,1.0,,,,,,,,,,
,0.0,,,,,,kitten_07s.jpg,0.0,clock_5_3.png,2.0,53,,,,,,,,,,,,,,,,,,,0.0,8.0,8.0,8.0,1.0,,,,,,,,,,
0.0,1.0,,,,,,birthday_cake_09s.jpg,0.0,clock_5_4.png,2.0,53,,,,,,,,,,,,,,,,,,0.478455,0.0,9.0,9.0,9.0,1.0,,,,,,,,,,
,0.0,,,,,,rudder_02s.jpg,0.0,clock_5_5.png,2.0,53,,,,,,,,,,,,,,,,,,,0.0,10.0,10.0,10.0,1.0,,,,,,,,,,
,0.0,,,,,,mushroom_10n.jpg,0.0,clock_5_1.png,3.0,53,,,,,,,,,,,,,,,,,,,0.0,11.0,11.0,11.0,1.0,,,,,,,,,,
,0.0,,,,,,mushroom_10n.jpg,1.0,clock_5_2.png,3.0,53,,,,,,,,,,,,,,,,,,,0.0,12.0,12.0,12.0,1.0,,,,,,,,,,
,0.0,,,,,,peanut_butter_08s.jpg,0.0,clock_5_3.png,3.0,53,,,,,,,,,,,,,,,,,,,0.0,13.0,13.0,13.0,1.0,,,,,,,,,,
,0.0,,,,,,lid_10s.jpg,0.0,clock_5_4.png,3.0,53,,,,,,,,,,,,,,,,,,,0.0,14.0,14.0,14.0,1.0,,,,,,,,,,
,0.0,,,,,,ant_12s.jpg,0.0,clock_5_5.png,3.0,53,,,,,,,,,,,,,,,,,,,0.0,15.0,15.0,15.0,1.0,,,,,,,,,,
,0.0,,,,,,ice_pack_09s.jpg,0.0,clock_7_1.png,4.0,53,,,,,,,,,,,,,,,,,,,0.0,16.0,16.0,16.0,1.0,,,,,,,,,,
,0.0,,,,,,medal_04s.jpg,0.0,clock_7_2.png,4.0,53,,,,,,,,,,,,,,,,,,,0.0,17.0,17.0,17.0,1.0,,,,,,,,,,
,0.0,,,,,,ice_pack_09s.jpg,1.0,clock_7_3.png,4.0,53,,,,,,,,,,,,,,,,,,,0.0,18.0,18.0,18.0,1.0,,,,,,,,,,
,0.0,,,,,,medal_04s.jpg,1.0,clock_7_4.png,4.0,53,,,,,,,,,,,,,,,,,,,0.0,19.0,19.0,19.0,1.0,,,,,,,,,,
,0.0,,,,,,snowman_02s.jpg,0.0,clock_7_5.png,4.0,53,,,,,,,,,,,,,,,,,,,0.0,20.0,20.0,20.0,1.0,,,,,,,,,,
1.0,0.0,,,,,,butter_14s.jpg,0.0,clock_7_6.png,4.0,53,,,,,,,,,,,,,,,,,,1.969415,0.0,21.0,21.0,21.0,1.0,,,,,,,,,,
,0.0,,,,,,tiger_06s.jpg,0.0,clock_7_7.png,4.0,53,,,,,,,,,,,,,,,,,,,0.0,22.0,22.0,22.0,1.0,,,,,,,,,,
,0.0,,,,,,quad_04s.jpg,0.0,clock_6_1.png,5.0,53,,,,,,,,,,,,,,,,,,,0.0,23.0,23.0,23.0,1.0,,,,,,,,,,
,0.0,,,,,,bottle_opener_11s.jpg,0.0,clock_6_2.png,5.0,53,,,,,,,,,,,,,,,,,,,0.0,24.0,24.0,24.0,1.0,,,,,,,,,,
,0.0,,,,,,turtleneck_11s.jpg,0.0,clock_6_3.png,5.0,53,,,,,,,,,,,,,,,,,,,0.0,25.0,25.0,25.0,1.0,,,,,,,,,,
,0.0,,,,,,bank_06s.jpg,0.0,clock_6_4.png,5.0,53,,,,,,,,,,,,,,,,,,,0.0,26.0,26.0,26.0,1.0,,,,,,,,,,
,0.0,,,,,,key_07s.jpg,0.0,clock_6_5.png,5.0,53,,,,,,,,,,,,,,,,,,,0.0,27.0,27.0,27.0,1.0,,,,,,,,,,
,0.0,,,,,,bottle_opener_11s.jpg,1.0,clock_6_6.png,5.0,53,,,,,,,,,,,,,,,,,,,0.0,28.0,28.0,28.0,1.0,,,,,,,,,,
,0.0,,,,,,lamb_chop_07s.jpg,0.0,clock_7_1.png,6.0,53,,,,,,,,,,,,,,,,,,,0.0,29.0,29.0,29.0,1.0,,,,,,,,,,
,0.0,,,,,,incense_02s.jpg,0.0,clock_7_2.png,6.0,53,,,,,,,,,,,,,,,,,,,0.0,30.0,30.0,30.0,1.0,,,,,,,,,,
,0.0,,,,,,medal_04s.jpg,0.0,clock_7_3.png,6.0,53,,,,,,,,,,,,,,,,,,,0.0,31.0,31.0,31.0,1.0,,,,,,,,,,
1.0,0.0,,,,,,hummingbird_05s.jpg,0.0,clock_7_4.png,6.0,53,,,,,,,,,,,,,,,,,,1.48223,0.0,32.0,32.0,32.0,1.0,,,,,,,,,,
,0.0,,,,,,icicle_04s.jpg,0.0,clock_7_5.png,6.0,53,,,,,,,,,,,,,,,,,,,0.0,33.0,33.0,33.0,1.0,,,,,,,,,,
,0.0,,,,,,outlet_10s.jpg,0.0,clock_7_6.png,6.0,53,,,,,,,,,,,,,,,,,,,0.0,34.0,34.0,34.0,1.0,,,,,,,,,,
,0.0,,,,,,outlet_10s.jpg,1.0,clock_7_7.png,6.0,53,,,,,,,,,,,,,,,,,,,0.0,35.0,35.0,35.0,1.0,,,,,,,,,,
,,,,,,,,0.0,,,53,1.0,0.0,2.30795,,,,,,turtleneck_11s.jpg,tiger_06s.jpg,,,,,,,,,,,,,,0.0,0.0,0.0,0.0,1.0,,,,,
,,,,,,,,0.0,,,53,1.0,0.0,1.135085,,,,,,peanut_butter_08s.jpg,rudder_02s.jpg,,,,,,,,,,,,,,0.0,1.0,1.0,1.0,1.0,,,,,
,,,,,,,,0.0,,,53,0.0,1.0,0.383785,,,,,,quad_04s.jpg,snowman_02s.jpg,,,,,,,,,,,,,,0.0,2.0,2.0,2.0,1.0,,,,,
,,,,,,,,1.0,,,53,1.0,1.0,7.090235,,,,,,squirrel_02s.jpg,birthday_cake_09s.jpg,,,,,,,,,,,,,,0.0,3.0,3.0,3.0,1.0,,,,,
,,,,,,,,1.0,,,53,0.0,0.0,0.704255,,,,,,lip_gloss_06s.jpg,tablet_04s.jpg,,,,,,,,,,,,,,0.0,4.0,4.0,4.0,1.0,,,,,
,,,,,,,,1.0,,,53,0.0,0.0,1.10292,,,,,,lamb_chop_07s.jpg,hummingbird_05s.jpg,,,,,,,,,,,,,,0.0,5.0,5.0,5.0,1.0,,,,,
,,,,,,,,,,,53,,,,,,,,,,,,,,,,clock_present_1_19.xlsx,clock_compare_task_1_19.xlsx,,,,,,,,,,,,0.0,0.0,0.0,0.0,1.0
1.0,0.0,,,,,,toad_09s.jpg,0.0,clock_7_1.png,1.0,53,,,,,,,,,,,,,,,,,,0.698645,0.0,0.0,0.0,0.0,1.0,,,,,,,,,,
,0.0,,,,,,pineapple_12s.jpg,0.0,clock_7_2.png,1.0,53,,,,,,,,,,,,,,,,,,,0.0,1.0,1.0,1.0,1.0,,,,,,,,,,
,0.0,,,,,,sparkler_02s.jpg,0.0,clock_7_3.png,1.0,53,,,,,,,,,,,,,,,,,,,0.0,2.0,2.0,2.0,1.0,,,,,,,,,,
,0.0,,,,,,teapot_03s.jpg,0.0,clock_7_4.png,1.0,53,,,,,,,,,,,,,,,,,,,0.0,3.0,3.0,3.0,1.0,,,,,,,,,,
,0.0,,,,,,eggshell_14s.jpg,0.0,clock_7_5.png,1.0,53,,,,,,,,,,,,,,,,,,,0.0,4.0,4.0,4.0,1.0,,,,,,,,,,
,0.0,,,,,,typewriter_11s.jpg,0.0,clock_7_6.png,1.0,53,,,,,,,,,,,,,,,,,,,0.0,5.0,5.0,5.0,1.0,,,,,,,,,,
,0.0,,,,,,soda_fountain_03s.jpg,0.0,clock_7_7.png,1.0,53,,,,,,,,,,,,,,,,,,,0.0,6.0,6.0,6.0,1.0,,,,,,,,,,
,0.0,,,,,,jewel_01b.jpg,0.0,clock_5_1.png,2.0,53,,,,,,,,,,,,,,,,,,,0.0,7.0,7.0,7.0,1.0,,,,,,,,,,
,0.0,,,,,,trampoline_13s.jpg,0.0,clock_5_2.png,2.0,53,,,,,,,,,,,,,,,,,,,0.0,8.0,8.0,8.0,1.0,,,,,,,,,,
,0.0,,,,,,lion_18s.jpg,0.0,clock_5_3.png,2.0,53,,,,,,,,,,,,,,,,,,,0.0,9.0,9.0,9.0,1.0,,,,,,,,,,
1.0,0.0,,,,,,lollipop_08s.jpg,0.0,clock_5_4.png,2.0,53,,,,,,,,,,,,,,,,,,1.13282,0.0,10.0,10.0,10.0,1.0,,,,,,,,,,
,0.0,,,,,,trampoline_13s.jpg,1.0,clock_5_5.png,2.0,53,,,,,,,,,,,,,,,,,,,0.0,11.0,11.0,11.0,1.0,,,,,,,,,,
1.0,0.0,,,,,,puffin_19s.jpg,0.0,clock_6_1.png,3.0,53,,,,,,,,,,,,,,,,,,0.961555,0.0,12.0,12.0,12.0,1.0,,,,,,,,,,
,0.0,,,,,,prism_10s.jpg,0.0,clock_6_2.png,3.0,53,,,,,,,,,,,,,,,,,,,0.0,13.0,13.0,13.0,1.0,,,,,,,,,,
,0.0,,,,,,puffin_19s.jpg,1.0,clock_6_3.png,3.0,53,,,,,,,,,,,,,,,,,,,0.0,14.0,14.0,14.0,1.0,,,,,,,,,,
,0.0,,,,,,prism_10s.jpg,1.0,clock_6_4.png,3.0,53,,,,,,,,,,,,,,,,,,,0.0,15.0,15.0,15.0,1.0,,,,,,,,,,
,0.0,,,,,,treasure_08s.jpg,0.0,clock_6_5.png,3.0,53,,,,,,,,,,,,,,,,,,,0.0,16.0,16.0,16.0,1.0,,,,,,,,,,
,0.0,,,,,,fox_13s.jpg,0.0,clock_6_6.png,3.0,53,,,,,,,,,,,,,,,,,,,0.0,17.0,17.0,17.0,1.0,,,,,,,,,,
,0.0,,,,,,chopsticks_08s.jpg,0.0,clock_7_1.png,4.0,53,,,,,,,,,,,,,,,,,,,0.0,18.0,18.0,18.0,1.0,,,,,,,,,,
1.0,1.0,,,,,,chopsticks_08s.jpg,1.0,clock_7_2.png,4.0,53,,,,,,,,,,,,,,,,,,2.337475,0.0,19.0,19.0,19.0,1.0,,,,,,,,,,
1.0,1.0,,,,,,chopsticks_08s.jpg,1.0,clock_7_3.png,4.0,53,,,,,,,,,,,,,,,,,,2.13456,0.0,20.0,20.0,20.0,1.0,,,,,,,,,,
1.0,0.0,,,,,,cucumber_07s.jpg,0.0,clock_7_4.png,4.0,53,,,,,,,,,,,,,,,,,,0.96705,0.0,21.0,21.0,21.0,1.0,,,,,,,,,,
0.0,1.0,,,,,,prism_10s.jpg,0.0,clock_7_5.png,4.0,53,,,,,,,,,,,,,,,,,,1.766235,0.0,22.0,22.0,22.0,1.0,,,,,,,,,,
,0.0,,,,,,lollipop_08s.jpg,0.0,clock_7_6.png,4.0,53,,,,,,,,,,,,,,,,,,,0.0,23.0,23.0,23.0,1.0,,,,,,,,,,
,0.0,,,,,,smokingpipe.jpg,0.0,clock_7_7.png,4.0,53,,,,,,,,,,,,,,,,,,,0.0,24.0,24.0,24.0,1.0,,,,,,,,,,
,0.0,,,,,,loom_05s.jpg,0.0,clock_6_1.png,5.0,53,,,,,,,,,,,,,,,,,,,0.0,25.0,25.0,25.0,1.0,,,,,,,,,,
,0.0,,,,,,loom_05s.jpg,1.0,clock_6_2.png,5.0,53,,,,,,,,,,,,,,,,,,,0.0,26.0,26.0,26.0,1.0,,,,,,,,,,
,0.0,,,,,,blazer_02s.jpg,0.0,clock_6_3.png,5.0,53,,,,,,,,,,,,,,,,,,,0.0,27.0,27.0,27.0,1.0,,,,,,,,,,
,0.0,,,,,,lectern_08s.jpg,0.0,clock_6_4.png,5.0,53,,,,,,,,,,,,,,,,,,,0.0,28.0,28.0,28.0,1.0,,,,,,,,,,
,0.0,,,,,,printer_09s.jpg,0.0,clock_6_5.png,5.0,53,,,,,,,,,,,,,,,,,,,0.0,29.0,29.0,29.0,1.0,,,,,,,,,,
1.0,0.0,,,,,,olive_05s.jpg,0.0,clock_6_6.png,5.0,53,,,,,,,,,,,,,,,,,,0.41472,0.0,30.0,30.0,30.0,1.0,,,,,,,,,,
1.0,0.0,,,,,,bean_06s.jpg,0.0,clock_5_1.png,6.0,53,,,,,,,,,,,,,,,,,,1.012405,0.0,31.0,31.0,31.0,1.0,,,,,,,,,,
1.0,0.0,,,,,,gear_07s.jpg,0.0,clock_5_2.png,6.0,53,,,,,,,,,,,,,,,,,,1.95258,0.0,32.0,32.0,32.0,1.0,,,,,,,,,,
,0.0,,,,,,jet_15s.jpg,0.0,clock_5_3.png,6.0,53,,,,,,,,,,,,,,,,,,,0.0,33.0,33.0,33.0,1.0,,,,,,,,,,
,0.0,,,,,,cucumber_07s.jpg,0.0,clock_5_4.png,6.0,53,,,,,,,,,,,,,,,,,,,0.0,34.0,34.0,34.0,1.0,,,,,,,,,,
,0.0,,,,,,fox_13s.jpg,0.0,clock_5_5.png,6.0,53,,,,,,,,,,,,,,,,,,,0.0,35.0,35.0,35.0,1.0,,,,,,,,,,
,,,,,,,,0.0,,,53,1.0,0.0,1.542575,,,,,,bean_06s.jpg,lectern_08s.jpg,,,,,,,,,,,,,,0.0,0.0,0.0,0.0,1.0,,,,,
,,,,,,,,0.0,,,53,0.0,1.0,0.585395,,,,,,gear_07s.jpg,printer_09s.jpg,,,,,,,,,,,,,,0.0,1.0,1.0,1.0,1.0,,,,,
,,,,,,,,0.0,,,53,1.0,0.0,0.33557,,,,,,jewel_01b.jpg,eggshell_14s.jpg,,,,,,,,,,,,,,0.0,2.0,2.0,2.0,1.0,,,,,
,,,,,,,,0.0,,,53,0.0,1.0,0.317145,,,,,,teapot_03s.jpg,toad_09s.jpg,,,,,,,,,,,,,,0.0,3.0,3.0,3.0,1.0,,,,,
,,,,,,,,1.0,,,53,1.0,1.0,0.321595,,,,,,sparkler_02s.jpg,typewriter_11s.jpg,,,,,,,,,,,,,,0.0,4.0,4.0,4.0,1.0,,,,,
,,,,,,,,0.0,,,53,0.0,1.0,0.240955,,,,,,olive_05s.jpg,blazer_02s.jpg,,,,,,,,,,,,,,0.0,5.0,5.0,5.0,1.0,,,,,
,,,,,,,,,,,53,,,,,,,,,,,,,,,,clock_present_2_19.xlsx,clock_compare_task_2_19.xlsx,,,,,,,,,,,,0.0,1.0,1.0,1.0,1.0
1.0,0.0,,,,,,petri_dish_12s.jpg,0.0,clock_6_1.png,1.0,53,,,,,,,,,,,,,,,,,,1.68236,0.0,0.0,0.0,0.0,1.0,,,,,,,,,,
,0.0,,,,,,tube_top_03s.jpg,0.0,clock_6_2.png,1.0,53,,,,,,,,,,,,,,,,,,,0.0,1.0,1.0,1.0,1.0,,,,,,,,,,
,0.0,,,,,,razor_12s.jpg,0.0,clock_6_3.png,1.0,53,,,,,,,,,,,,,,,,,,,0.0,2.0,2.0,2.0,1.0,,,,,,,,,,
,0.0,,,,,,doily_13s.jpg,0.0,clock_6_4.png,1.0,53,,,,,,,,,,,,,,,,,,,0.0,3.0,3.0,3.0,1.0,,,,,,,,,,
,0.0,,,,,,doily_13s.jpg,1.0,clock_6_5.png,1.0,53,,,,,,,,,,,,,,,,,,,0.0,4.0,4.0,4.0,1.0,,,,,,,,,,
,0.0,,,,,,syringe_02s.jpg,0.0,clock_6_6.png,1.0,53,,,,,,,,,,,,,,,,,,,0.0,5.0,5.0,5.0,1.0,,,,,,,,,,
,0.0,,,,,,mirror_12s.jpg,0.0,clock_7_1.png,2.0,53,,,,,,,,,,,,,,,,,,,0.0,6.0,6.0,6.0,1.0,,,,,,,,,,
,0.0,,,,,,tinsel_12s.jpg,0.0,clock_7_2.png,2.0,53,,,,,,,,,,,,,,,,,,,0.0,7.0,7.0,7.0,1.0,,,,,,,,,,
,0.0,,,,,,mirror_12s.jpg,1.0,clock_7_3.png,2.0,53,,,,,,,,,,,,,,,,,,,0.0,8.0,8.0,8.0,1.0,,,,,,,,,,
,0.0,,,,,,trident_07s.jpg,0.0,clock_7_4.png,2.0,53,,,,,,,,,,,,,,,,,,,0.0,9.0,9.0,9.0,1.0,,,,,,,,,,
,0.0,,,,,,mirror_12s.jpg,1.0,clock_7_5.png,2.0,53,,,,,,,,,,,,,,,,,,,0.0,10.0,10.0,10.0,1.0,,,,,,,,,,
,0.0,,,,,,ring_03s.jpg,0.0,clock_7_6.png,2.0,53,,,,,,,,,,,,,,,,,,,0.0,11.0,11.0,11.0,1.0,,,,,,,,,,
,0.0,,,,,,thread_08s.jpg,0.0,clock_7_7.png,2.0,53,,,,,,,,,,,,,,,,,,,0.0,12.0,12.0,12.0,1.0,,,,,,,,,,
,0.0,,,,,,pocketknife_12s.jpg,0.0,clock_7_1.png,3.0,53,,,,,,,,,,,,,,,,,,,0.0,13.0,13.0,13.0,1.0,,,,,,,,,,
,0.0,,,,,,pocketknife_12s.jpg,1.0,clock_7_2.png,3.0,53,,,,,,,,,,,,,,,,,,,0.0,14.0,14.0,14.0,1.0,,,,,,,,,,
,0.0,,,,,,pocketknife_12s.jpg,1.0,clock_7_3.png,3.0,53,,,,,,,,,,,,,,,,,,,0.0,15.0,15.0,15.0,1.0,,,,,,,,,,
,0.0,,,,,,turtle_08s.jpg,0.0,clock_7_4.png,3.0,53,,,,,,,,,,,,,,,,,,,0.0,16.0,16.0,16.0,1.0,,,,,,,,,,
,0.0,,,,,,mannequin_05s.jpg,0.0,clock_7_5.png,3.0,53,,,,,,,,,,,,,,,,,,,0.0,17.0,17.0,17.0,1.0,,,,,,,,,,
,0.0,,,,,,cereal_04s.jpg,0.0,clock_7_6.png,3.0,53,,,,,,,,,,,,,,,,,,,0.0,18.0,18.0,18.0,1.0,,,,,,,,,,
,0.0,,,,,,plaster_cast_13s.jpg,0.0,clock_7_7.png,3.0,53,,,,,,,,,,,,,,,,,,,0.0,19.0,19.0,19.0,1.0,,,,,,,,,,
,0.0,,,,,,bolo_tie_08s.jpg,0.0,clock_6_1.png,4.0,53,,,,,,,,,,,,,,,,,,,0.0,20.0,20.0,20.0,1.0,,,,,,,,,,
,0.0,,,,,,red_carpet_03s.jpg,0.0,clock_6_2.png,4.0,53,,,,,,,,,,,,,,,,,,,0.0,21.0,21.0,21.0,1.0,,,,,,,,,,
,0.0,,,,,,boar_10s.jpg,0.0,clock_6_3.png,4.0,53,,,,,,,,,,,,,,,,,,,0.0,22.0,22.0,22.0,1.0,,,,,,,,,,
,0.0,,,,,,contact_lens_15s.jpg,0.0,clock_6_4.png,4.0,53,,,,,,,,,,,,,,,,,,,0.0,23.0,23.0,23.0,1.0,,,,,,,,,,
,0.0,,,,,,bonsai_07s.jpg,0.0,clock_6_5.png,4.0,53,,,,,,,,,,,,,,,,,,,0.0,24.0,24.0,24.0,1.0,,,,,,,,,,
,0.0,,,,,,light_switch_02s.jpg,0.0,clock_6_6.png,4.0,53,,,,,,,,,,,,,,,,,,,0.0,25.0,25.0,25.0,1.0,,,,,,,,,,
,0.0,,,,,,panda_02s.jpg,0.0,clock_5_1.png,5.0,53,,,,,,,,,,,,,,,,,,,0.0,26.0,26.0,26.0,1.0,,,,,,,,,,
,0.0,,,,,,dynamite_01b.jpg,0.0,clock_5_2.png,5.0,53,,,,,,,,,,,,,,,,,,,0.0,27.0,27.0,27.0,1.0,,,,,,,,,,
,0.0,,,,,,mixer_12s.jpg,0.0,clock_5_3.png,5.0,53,,,,,,,,,,,,,,,,,,,0.0,28.0,28.0,28.0,1.0,,,,,,,,,,
,0.0,,,,,,kite_04s.jpg,0.0,clock_5_4.png,5.0,53,,,,,,,,,,,,,,,,,,,0.0,29.0,29.0,29.0,1.0,,,,,,,,,,
,0.0,,,,,,popcorn_09s.jpg,0.0,clock_5_5.png,5.0,53,,,,,,,,,,,,,,,,,,,0.0,30.0,30.0,30.0,1.0,,,,,,,,,,
,0.0,,,,,,kimono_13s.jpg,0.0,clock_5_1.png,6.0,53,,,,,,,,,,,,,,,,,,,0.0,31.0,31.0,31.0,1.0,,,,,,,,,,
,0.0,,,,,,pepper_mill_03s.jpg,0.0,clock_5_2.png,6.0,53,,,,,,,,,,,,,,,,,,,0.0,32.0,32.0,32.0,1.0,,,,,,,,,,
,0.0,,,,,,chip_04s.jpg,0.0,clock_5_3.png,6.0,53,,,,,,,,,,,,,,,,,,,0.0,33.0,33.0,33.0,1.0,,,,,,,,,,
,0.0,,,,,,emerald_02s.jpg,0.0,clock_5_4.png,6.0,53,,,,,,,,,,,,,,,,,,,0.0,34.0,34.0,34.0,1.0,,,,,,,,,,
,0.0,,,,,,tennis_ball_06s.jpg,0.0,clock_5_5.png,6.0,53,,,,,,,,,,,,,,,,,,,0.0,35.0,35.0,35.0,1.0,,,,,,,,,,
,,,,,,,,1.0,,,53,1.0,1.0,0.93721,,,,,,mannequin_05s.jpg,bolo_tie_08s.jpg,,,,,,,,,,,,,,0.0,0.0,0.0,0.0,1.0,,,,,
,,,,,,,,0.0,,,53,1.0,0.0,0.37043,,,,,,red_carpet_03s.jpg,cereal_04s.jpg,,,,,,,,,,,,,,0.0,1.0,1.0,1.0,1.0,,,,,
,,,,,,,,1.0,,,53,0.0,0.0,0.621875,,,,,,light_switch_02s.jpg,mixer_12s.jpg,,,,,,,,,,,,,,0.0,2.0,2.0,2.0,1.0,,,,,
,,,,,,,,0.0,,,53,1.0,0.0,0.265805,,,,,,syringe_02s.jpg,razor_12s.jpg,,,,,,,,,,,,,,0.0,3.0,3.0,3.0,1.0,,,,,
,,,,,,,,1.0,,,53,0.0,0.0,0.23289,,,,,,trident_07s.jpg,thread_08s.jpg,,,,,,,,,,,,,,0.0,4.0,4.0,4.0,1.0,,,,,
,,,,,,,,1.0,,,53,1.0,1.0,0.24781,,,,,,turtle_08s.jpg,plaster_cast_13s.jpg,,,,,,,,,,,,,,0.0,5.0,5.0,5.0,1.0,,,,,
,,,,,,,,,,,53,,,,,,,,,,,,,,,,clock_present_3_19.xlsx,clock_compare_task_3_19.xlsx,,,,,,,,,,,,0.0,2.0,2.0,2.0,1.0
0.0,1.0,,,,,,tab_09s.jpg,0.0,clock_5_1.png,1.0,53,,,,,,,,,,,,,,,,,,2.33459,0.0,0.0,0.0,0.0,1.0,,,,,,,,,,
0.0,1.0,,,,,,harpoon.jpg,0.0,clock_5_2.png,1.0,53,,,,,,,,,,,,,,,,,,1.098245,0.0,1.0,1.0,1.0,1.0,,,,,,,,,,
,0.0,,,,,,swordfish_05s.jpg,0.0,clock_5_3.png,1.0,53,,,,,,,,,,,,,,,,,,,0.0,2.0,2.0,2.0,1.0,,,,,,,,,,
,0.0,,,,,,jelly_bean_06s.jpg,0.0,clock_5_4.png,1.0,53,,,,,,,,,,,,,,,,,,,0.0,3.0,3.0,3.0,1.0,,,,,,,,,,
0.0,1.0,,,,,,fossil_06s.jpg,0.0,clock_5_5.png,1.0,53,,,,,,,,,,,,,,,,,,0.39758,0.0,4.0,4.0,4.0,1.0,,,,,,,,,,
0.0,1.0,,,,,,lamppost_09s.jpg,0.0,clock_5_1.png,2.0,53,,,,,,,,,,,,,,,,,,2.084225,0.0,5.0,5.0,5.0,1.0,,,,,,,,,,
1.0,0.0,,,,,,harpoon.jpg,0.0,clock_5_2.png,2.0,53,,,,,,,,,,,,,,,,,,0.80004,0.0,6.0,6.0,6.0,1.0,,,,,,,,,,
1.0,0.0,,,,,,sleeping_bag_12s.jpg,0.0,clock_5_3.png,2.0,53,,,,,,,,,,,,,,,,,,2.31424,0.0,7.0,7.0,7.0,1.0,,,,,,,,,,
0.0,1.0,,,,,,fur_coat_11s.jpg,0.0,clock_5_4.png,2.0,53,,,,,,,,,,,,,,,,,,1.15237,0.0,8.0,8.0,8.0,1.0,,,,,,,,,,
0.0,1.0,,,,,,undershirt_02s.jpg,0.0,clock_5_5.png,2.0,53,,,,,,,,,,,,,,,,,,1.59665,0.0,9.0,9.0,9.0,1.0,,,,,,,,,,
0.0,1.0,,,,,,tomato_sauce_09s.jpg,0.0,clock_7_1.png,3.0,53,,,,,,,,,,,,,,,,,,2.11724,0.0,10.0,10.0,10.0,1.0,,,,,,,,,,
0.0,1.0,,,,,,keyhole_03s.jpg,0.0,clock_7_2.png,3.0,53,,,,,,,,,,,,,,,,,,0.577785,0.0,11.0,11.0,11.0,1.0,,,,,,,,,,
,0.0,,,,,,moth_06n.jpg,0.0,clock_7_3.png,3.0,53,,,,,,,,,,,,,,,,,,,0.0,12.0,12.0,12.0,1.0,,,,,,,,,,
,0.0,,,,,,tomato_sauce_09s.jpg,1.0,clock_7_4.png,3.0,53,,,,,,,,,,,,,,,,,,,0.0,13.0,13.0,13.0,1.0,,,,,,,,,,
,0.0,,,,,,undershirt_02s.jpg,0.0,clock_7_5.png,3.0,53,,,,,,,,,,,,,,,,,,,0.0,14.0,14.0,14.0,1.0,,,,,,,,,,
,0.0,,,,,,clover_04s.jpg,0.0,clock_7_6.png,3.0,53,,,,,,,,,,,,,,,,,,,0.0,15.0,15.0,15.0,1.0,,,,,,,,,,
,0.0,,,,,,puddle_02s.jpg,0.0,clock_7_7.png,3.0,53,,,,,,,,,,,,,,,,,,,0.0,16.0,16.0,16.0,1.0,,,,,,,,,,
,0.0,,,,,,frame_06s.jpg,0.0,clock_6_1.png,4.0,53,,,,,,,,,,,,,,,,,,,0.0,17.0,17.0,17.0,1.0,,,,,,,,,,
1.0,0.0,,,,,,ivy_12s.jpg,0.0,clock_6_2.png,4.0,53,,,,,,,,,,,,,,,,,,2.46448,0.0,18.0,18.0,18.0,1.0,,,,,,,,,,
,0.0,,,,,,ivy_12s.jpg,1.0,clock_6_3.png,4.0,53,,,,,,,,,,,,,,,,,,,0.0,19.0,19.0,19.0,1.0,,,,,,,,,,
,0.0,,,,,,dirt_bike_11s.jpg,0.0,clock_6_4.png,4.0,53,,,,,,,,,,,,,,,,,,,0.0,20.0,20.0,20.0,1.0,,,,,,,,,,
1.0,0.0,,,,,,tomato_sauce_09s.jpg,0.0,clock_6_5.png,4.0,53,,,,,,,,,,,,,,,,,,1.391685,0.0,21.0,21.0,21.0,1.0,,,,,,,,,,
1.0,0.0,,,,,,tortilla_06s.jpg,0.0,clock_6_6.png,4.0,53,,,,,,,,,,,,,,,,,,1.299055,0.0,22.0,22.0,22.0,1.0,,,,,,,,,,
1.0,0.0,,,,,,turf_03s.jpg,0.0,clock_6_1.png,5.0,53,,,,,,,,,,,,,,,,,,1.499885,0.0,23.0,23.0,23.0,1.0,,,,,,,,,,
0.0,1.0,,,,,,stapler_01b.jpg,0.0,clock_6_2.png,5.0,53,,,,,,,,,,,,,,,,,,1.41971,0.0,24.0,24.0,24.0,1.0,,,,,,,,,,
,0.0,,,,,,stapler_01b.jpg,1.0,clock_6_3.png,5.0,53,,,,,,,,,,,,,,,,,,,0.0,25.0,25.0,25.0,1.0,,,,,,,,,,
,0.0,,,,,,turf_03s.jpg,1.0,clock_6_4.png,5.0,53,,,,,,,,,,,,,,,,,,,0.0,26.0,26.0,26.0,1.0,,,,,,,,,,
,0.0,,,,,,turkey_10s.jpg,0.0,clock_6_5.png,5.0,53,,,,,,,,,,,,,,,,,,,0.0,27.0,27.0,27.0,1.0,,,,,,,,,,
,0.0,,,,,,koala_13s.jpg,0.0,clock_6_6.png,5.0,53,,,,,,,,,,,,,,,,,,,0.0,28.0,28.0,28.0,1.0,,,,,,,,,,
,0.0,,,,,,flask_04s.jpg,0.0,clock_7_1.png,6.0,53,,,,,,,,,,,,,,,,,,,0.0,29.0,29.0,29.0,1.0,,,,,,,,,,
,0.0,,,,,,flask_04s.jpg,1.0,clock_7_2.png,6.0,53,,,,,,,,,,,,,,,,,,,0.0,30.0,30.0,30.0,1.0,,,,,,,,,,
,0.0,,,,,,puppy_08s.jpg,0.0,clock_7_3.png,6.0,53,,,,,,,,,,,,,,,,,,,0.0,31.0,31.0,31.0,1.0,,,,,,,,,,
,0.0,,,,,,tape_measure_11s.jpg,0.0,clock_7_4.png,6.0,53,,,,,,,,,,,,,,,,,,,0.0,32.0,32.0,32.0,1.0,,,,,,,,,,
,0.0,,,,,,ram_05s.jpg,0.0,clock_7_5.png,6.0,53,,,,,,,,,,,,,,,,,,,0.0,33.0,33.0,33.0,1.0,,,,,,,,,,
0.0,1.0,,,,,,footprint_11s.jpg,0.0,clock_7_6.png,6.0,53,,,,,,,,,,,,,,,,,,2.36795,0.0,34.0,34.0,34.0,1.0,,,,,,,,,,
,0.0,,,,,,metronome_03s.jpg,0.0,clock_7_7.png,6.0,53,,,,,,,,,,,,,,,,,,,0.0,35.0,35.0,35.0,1.0,,,,,,,,,,
,,,,,,,,1.0,,,53,0.0,0.0,1.45445,,,,,,fossil_06s.jpg,sleeping_bag_12s.jpg,,,,,,,,,,,,,,0.0,0.0,0.0,0.0,1.0,,,,,
,,,,,,,,1.0,,,53,0.0,0.0,0.91734,,,,,,swordfish_05s.jpg,lamppost_09s.jpg,,,,,,,,,,,,,,0.0,1.0,1.0,1.0,1.0,,,,,
,,,,,,,,1.0,,,53,0.0,0.0,2.02391,,,,,,fur_coat_11s.jpg,keyhole_03s.jpg,,,,,,,,,,,,,,0.0,2.0,2.0,2.0,1.0,,,,,
,,,,,,,,0.0,,,53,1.0,0.0,0.79985,,,,,,jelly_bean_06s.jpg,tab_09s.jpg,,,,,,,,,,,,,,0.0,3.0,3.0,3.0,1.0,,,,,
,,,,,,,,1.0,,,53,1.0,1.0,0.918,,,,,,moth_06n.jpg,clover_04s.jpg,,,,,,,,,,,,,,0.0,4.0,4.0,4.0,1.0,,,,,
,,,,,,,,0.0,,,53,0.0,1.0,0.78321,,,,,,dirt_bike_11s.jpg,frame_06s.jpg,,,,,,,,,,,,,,0.0,5.0,5.0,5.0,1.0,,,,,
,,,,,,,,,,,53,,,,,,,,,,,,,,,,clock_present_4_19.xlsx,clock_compare_task_4_19.xlsx,,,,,,,,,,,,0.0,3.0,3.0,3.0,1.0
0.0,1.0,,,,,,spoon02a.jpg,0.0,clock_5_1.png,1.0,53,,,,,,,,,,,,,,,,,,1.71136,0.0,0.0,0.0,0.0,1.0,,,,,,,,,,
1.0,1.0,,,,,,spoon02a.jpg,1.0,clock_5_2.png,1.0,53,,,,,,,,,,,,,,,,,,2.383175,0.0,1.0,1.0,1.0,1.0,,,,,,,,,,
0.0,1.0,,,,,,roller_coaster_07s.jpg,0.0,clock_5_3.png,1.0,53,,,,,,,,,,,,,,,,,,0.883445,0.0,2.0,2.0,2.0,1.0,,,,,,,,,,
0.0,1.0,,,,,,orchid_01b.jpg,0.0,clock_5_4.png,1.0,53,,,,,,,,,,,,,,,,,,0.73165,0.0,3.0,3.0,3.0,1.0,,,,,,,,,,
1.0,1.0,,,,,,roller_coaster_07s.jpg,1.0,clock_5_5.png,1.0,53,,,,,,,,,,,,,,,,,,1.367845,0.0,4.0,4.0,4.0,1.0,,,,,,,,,,
0.0,1.0,,,,,,rolling_pin_02s.jpg,0.0,clock_5_1.png,2.0,53,,,,,,,,,,,,,,,,,,0.88419,0.0,5.0,5.0,5.0,1.0,,,,,,,,,,
1.0,1.0,,,,,,rolling_pin_02s.jpg,1.0,clock_5_2.png,2.0,53,,,,,,,,,,,,,,,,,,1.36721,0.0,6.0,6.0,6.0,1.0,,,,,,,,,,
0.0,1.0,,,,,,jetski_10s.jpg,0.0,clock_5_3.png,2.0,53,,,,,,,,,,,,,,,,,,1.03456,0.0,7.0,7.0,7.0,1.0,,,,,,,,,,
0.0,1.0,,,,,,rock_08s.jpg,0.0,clock_5_4.png,2.0,53,,,,,,,,,,,,,,,,,,0.932915,0.0,8.0,8.0,8.0,1.0,,,,,,,,,,
0.0,1.0,,,,,,beaker_01b.jpg,0.0,clock_5_5.png,2.0,53,,,,,,,,,,,,,,,,,,0.91205,0.0,9.0,9.0,9.0,1.0,,,,,,,,,,
0.0,1.0,,,,,,eyedropper_12s.jpg,0.0,clock_6_1.png,3.0,53,,,,,,,,,,,,,,,,,,0.96269,0.0,10.0,10.0,10.0,1.0,,,,,,,,,,
0.0,1.0,,,,,,cardinal_07s.jpg,0.0,clock_6_2.png,3.0,53,,,,,,,,,,,,,,,,,,0.871025,0.0,11.0,11.0,11.0,1.0,,,,,,,,,,
0.0,1.0,,,,,,feather02.jpg,0.0,clock_6_3.png,3.0,53,,,,,,,,,,,,,,,,,,1.171765,0.0,12.0,12.0,12.0,1.0,,,,,,,,,,
0.0,0.0,,,,,,cardinal_07s.jpg,1.0,clock_6_4.png,3.0,53,,,,,,,,,,,,,,,,,,1.18491,0.0,13.0,13.0,13.0,1.0,,,,,,,,,,
1.0,0.0,,,,,,rabbit_03s.jpg,0.0,clock_6_5.png,3.0,53,,,,,,,,,,,,,,,,,,1.099295,0.0,14.0,14.0,14.0,1.0,,,,,,,,,,
1.0,0.0,,,,,,bathtub_23s.jpg,0.0,clock_6_6.png,3.0,53,,,,,,,,,,,,,,,,,,1.196715,0.0,15.0,15.0,15.0,1.0,,,,,,,,,,
0.0,1.0,,,,,,fondue_07s.jpg,0.0,clock_7_1.png,4.0,53,,,,,,,,,,,,,,,,,,1.26705,0.0,16.0,16.0,16.0,1.0,,,,,,,,,,
0.0,1.0,,,,,,blender_08s.jpg,0.0,clock_7_2.png,4.0,53,,,,,,,,,,,,,,,,,,1.11724,0.0,17.0,17.0,17.0,1.0,,,,,,,,,,
0.0,0.0,,,,,,blender_08s.jpg,1.0,clock_7_3.png,4.0,53,,,,,,,,,,,,,,,,,,1.2878,0.0,18.0,18.0,18.0,1.0,,,,,,,,,,
0.0,1.0,,,,,,hydrant_10s.jpg,0.0,clock_7_4.png,4.0,53,,,,,,,,,,,,,,,,,,1.400525,0.0,19.0,19.0,19.0,1.0,,,,,,,,,,
1.0,1.0,,,,,,hydrant_10s.jpg,1.0,clock_7_5.png,4.0,53,,,,,,,,,,,,,,,,,,0.916315,0.0,20.0,20.0,20.0,1.0,,,,,,,,,,
,0.0,,,,,,ironing_board_07s.jpg,0.0,clock_7_6.png,4.0,53,,,,,,,,,,,,,,,,,,,0.0,21.0,21.0,21.0,1.0,,,,,,,,,,
,0.0,,,,,,fire_pit_10s.jpg,0.0,clock_7_7.png,4.0,53,,,,,,,,,,,,,,,,,,,0.0,22.0,22.0,22.0,1.0,,,,,,,,,,
,0.0,,,,,,stump_02s.jpg,0.0,clock_6_1.png,5.0,53,,,,,,,,,,,,,,,,,,,0.0,23.0,23.0,23.0,1.0,,,,,,,,,,
,0.0,,,,,,go-kart_10s.jpg,0.0,clock_6_2.png,5.0,53,,,,,,,,,,,,,,,,,,,0.0,24.0,24.0,24.0,1.0,,,,,,,,,,
,0.0,,,,,,stump_02s.jpg,1.0,clock_6_3.png,5.0,53,,,,,,,,,,,,,,,,,,,0.0,25.0,25.0,25.0,1.0,,,,,,,,,,
,0.0,,,,,,bubble_01b.jpg,0.0,clock_6_4.png,5.0,53,,,,,,,,,,,,,,,,,,,0.0,26.0,26.0,26.0,1.0,,,,,,,,,,
,0.0,,,,,,ladder_15s.jpg,0.0,clock_6_5.png,5.0,53,,,,,,,,,,,,,,,,,,,0.0,27.0,27.0,27.0,1.0,,,,,,,,,,
,0.0,,,,,,rabbit_03s.jpg,0.0,clock_6_6.png,5.0,53,,,,,,,,,,,,,,,,,,,0.0,28.0,28.0,28.0,1.0,,,,,,,,,,
,0.0,,,,,,sunflower_17s.jpg,0.0,clock_7_1.png,6.0,53,,,,,,,,,,,,,,,,,,,0.0,29.0,29.0,29.0,1.0,,,,,,,,,,
0.0,1.0,,,,,,ginger_09s.jpg,0.0,clock_7_2.png,6.0,53,,,,,,,,,,,,,,,,,,1.024665,0.0,30.0,30.0,30.0,1.0,,,,,,,,,,
0.0,1.0,,,,,,compass_10n.jpg,0.0,clock_7_3.png,6.0,53,,,,,,,,,,,,,,,,,,0.78333,0.0,31.0,31.0,31.0,1.0,,,,,,,,,,
1.0,0.0,,,,,,iron_13s.jpg,0.0,clock_7_4.png,6.0,53,,,,,,,,,,,,,,,,,,1.78272,0.0,32.0,32.0,32.0,1.0,,,,,,,,,,
0.0,1.0,,,,,,pepper2_21s.jpg,0.0,clock_7_5.png,6.0,53,,,,,,,,,,,,,,,,,,1.36566,0.0,33.0,33.0,33.0,1.0,,,,,,,,,,
0.0,1.0,,,,,,leotard_08s.jpg,0.0,clock_7_6.png,6.0,53,,,,,,,,,,,,,,,,,,2.347065,0.0,34.0,34.0,34.0,1.0,,,,,,,,,,
0.0,1.0,,,,,,punch1_10s.jpg,0.0,clock_7_7.png,6.0,53,,,,,,,,,,,,,,,,,,0.914755,0.0,35.0,35.0,35.0,1.0,,,,,,,,,,
,,,,,,,,0.0,,,53,0.0,1.0,1.39935,,,,,,eyedropper_12s.jpg,jetski_10s.jpg,,,,,,,,,,,,,,0.0,0.0,0.0,0.0,1.0,,,,,
,,,,,,,,0.0,,,53,0.0,1.0,1.36854,,,,,,feather02.jpg,beaker_01b.jpg,,,,,,,,,,,,,,0.0,1.0,1.0,1.0,1.0,,,,,
,,,,,,,,0.0,,,53,0.0,1.0,1.26897,,,,,,go-kart_10s.jpg,ironing_board_07s.jpg,,,,,,,,,,,,,,0.0,2.0,2.0,2.0,1.0,,,,,
,,,,,,,,0.0,,,53,1.0,0.0,1.63651,,,,,,leotard_08s.jpg,compass_10n.jpg,,,,,,,,,,,,,,0.0,3.0,3.0,3.0,1.0,,,,,
,,,,,,,,0.0,,,53,0.0,1.0,1.61711,,,,,,punch1_10s.jpg,iron_13s.jpg,,,,,,,,,,,,,,0.0,4.0,4.0,4.0,1.0,,,,,
,,,,,,,,0.0,,,53,1.0,0.0,0.901185,,,,,,pepper2_21s.jpg,ginger_09s.jpg,,,,,,,,,,,,,,0.0,5.0,5.0,5.0,1.0,,,,,
,,,,,,,,,,,53,,,,,,,,,,,,,,,,clock_present_5_19.xlsx,clock_compare_task_5_19.xlsx,,,,,,,,,,,,0.0,4.0,4.0,4.0,1.0
0.0,1.0,,,,,,latte_06s.jpg,0.0,clock_7_1.png,1.0,53,,,,,,,,,,,,,,,,,,2.420695,0.0,0.0,0.0,0.0,1.0,,,,,,,,,,
0.0,1.0,,,,,,pancake_12s.jpg,0.0,clock_7_2.png,1.0,53,,,,,,,,,,,,,,,,,,0.37006,0.0,1.0,1.0,1.0,1.0,,,,,,,,,,
1.0,1.0,,,,,,pancake_12s.jpg,1.0,clock_7_3.png,1.0,53,,,,,,,,,,,,,,,,,,1.8683,0.0,2.0,2.0,2.0,1.0,,,,,,,,,,
0.0,1.0,,,,,,raspberry_12s.jpg,0.0,clock_7_4.png,1.0,53,,,,,,,,,,,,,,,,,,1.200555,0.0,3.0,3.0,3.0,1.0,,,,,,,,,,
0.0,1.0,,,,,,safety_pin_02s.jpg,0.0,clock_7_5.png,1.0,53,,,,,,,,,,,,,,,,,,0.700055,0.0,4.0,4.0,4.0,1.0,,,,,,,,,,
0.0,1.0,,,,,,spider_web_03s.jpg,0.0,clock_7_6.png,1.0,53,,,,,,,,,,,,,,,,,,0.782,0.0,5.0,5.0,5.0,1.0,,,,,,,,,,
1.0,1.0,,,,,,safety_pin_02s.jpg,1.0,clock_7_7.png,1.0,53,,,,,,,,,,,,,,,,,,1.585995,0.0,6.0,6.0,6.0,1.0,,,,,,,,,,
0.0,1.0,,,,,,juicer1_08s.jpg,0.0,clock_5_1.png,2.0,53,,,,,,,,,,,,,,,,,,1.682845,0.0,7.0,7.0,7.0,1.0,,,,,,,,,,
1.0,0.0,,,,,,spider_web_03s.jpg,0.0,clock_5_2.png,2.0,53,,,,,,,,,,,,,,,,,,1.345345,0.0,8.0,8.0,8.0,1.0,,,,,,,,,,
0.0,1.0,,,,,,juicer2_06s.jpg,0.0,clock_5_3.png,2.0,53,,,,,,,,,,,,,,,,,,1.645925,0.0,9.0,9.0,9.0,1.0,,,,,,,,,,
0.0,1.0,,,,,,telephone_pole_05s.jpg,0.0,clock_5_4.png,2.0,53,,,,,,,,,,,,,,,,,,1.17865,0.0,10.0,10.0,10.0,1.0,,,,,,,,,,
1.0,1.0,,,,,,juicer1_08s.jpg,1.0,clock_5_5.png,2.0,53,,,,,,,,,,,,,,,,,,1.953735,0.0,11.0,11.0,11.0,1.0,,,,,,,,,,
0.0,1.0,,,,,,teabag_12s.jpg,0.0,clock_5_1.png,3.0,53,,,,,,,,,,,,,,,,,,0.932775,0.0,12.0,12.0,12.0,1.0,,,,,,,,,,
0.0,1.0,,,,,,coffee_filter_10s.jpg,0.0,clock_5_2.png,3.0,53,,,,,,,,,,,,,,,,,,1.201595,0.0,13.0,13.0,13.0,1.0,,,,,,,,,,
0.0,1.0,,,,,,plunger_08s.jpg,0.0,clock_5_3.png,3.0,53,,,,,,,,,,,,,,,,,,1.21598,0.0,14.0,14.0,14.0,1.0,,,,,,,,,,
0.0,1.0,,,,,,rug_09s.jpg,0.0,clock_5_4.png,3.0,53,,,,,,,,,,,,,,,,,,0.76545,0.0,15.0,15.0,15.0,1.0,,,,,,,,,,
0.0,1.0,,,,,,paper_bag_12s.jpg,0.0,clock_5_5.png,3.0,53,,,,,,,,,,,,,,,,,,0.93432,0.0,16.0,16.0,16.0,1.0,,,,,,,,,,
0.0,1.0,,,,,,purse_05s.jpg,0.0,clock_6_1.png,4.0,53,,,,,,,,,,,,,,,,,,0.97013,0.0,17.0,17.0,17.0,1.0,,,,,,,,,,
1.0,1.0,,,,,,purse_05s.jpg,1.0,clock_6_2.png,4.0,53,,,,,,,,,,,,,,,,,,1.36534,0.0,18.0,18.0,18.0,1.0,,,,,,,,,,
0.0,1.0,,,,,,omelet_07s.jpg,0.0,clock_6_3.png,4.0,53,,,,,,,,,,,,,,,,,,0.64682,0.0,19.0,19.0,19.0,1.0,,,,,,,,,,
0.0,1.0,,,,,,top_hat_11s.jpg,0.0,clock_6_4.png,4.0,53,,,,,,,,,,,,,,,,,,0.867395,0.0,20.0,20.0,20.0,1.0,,,,,,,,,,
0.0,1.0,,,,,,radiator_05s.jpg,0.0,clock_6_5.png,4.0,53,,,,,,,,,,,,,,,,,,0.650145,0.0,21.0,21.0,21.0,1.0,,,,,,,,,,
0.0,1.0,,,,,,cobra_05s.jpg,0.0,clock_6_6.png,4.0,53,,,,,,,,,,,,,,,,,,0.73147,0.0,22.0,22.0,22.0,1.0,,,,,,,,,,
0.0,1.0,,,,,,limousine_12s.jpg,0.0,clock_7_1.png,5.0,53,,,,,,,,,,,,,,,,,,0.671885,0.0,23.0,23.0,23.0,1.0,,,,,,,,,,
0.0,1.0,,,,,,stopwatch_04s.jpg,0.0,clock_7_2.png,5.0,53,,,,,,,,,,,,,,,,,,0.85098,0.0,24.0,24.0,24.0,1.0,,,,,,,,,,
0.0,1.0,,,,,,stethoscope_01b.jpg,0.0,clock_7_3.png,5.0,53,,,,,,,,,,,,,,,,,,0.760815,0.0,25.0,25.0,25.0,1.0,,,,,,,,,,
1.0,0.0,,,,,,toaster_03s.jpg,0.0,clock_7_4.png,5.0,53,,,,,,,,,,,,,,,,,,2.013105,0.0,26.0,26.0,26.0,1.0,,,,,,,,,,
0.0,1.0,,,,,,coat_rack_01b.jpg,0.0,clock_7_5.png,5.0,53,,,,,,,,,,,,,,,,,,0.71644,0.0,27.0,27.0,27.0,1.0,,,,,,,,,,
0.0,0.0,,,,,,toaster_03s.jpg,1.0,clock_7_6.png,5.0,53,,,,,,,,,,,,,,,,,,0.988235,0.0,28.0,28.0,28.0,1.0,,,,,,,,,,
,0.0,,,,,,stopwatch_04s.jpg,1.0,clock_7_7.png,5.0,53,,,,,,,,,,,,,,,,,,,0.0,29.0,29.0,29.0,1.0,,,,,,,,,,
,0.0,,,,,,rake_06s.jpg,0.0,clock_6_1.png,6.0,53,,,,,,,,,,,,,,,,,,,0.0,30.0,30.0,30.0,1.0,,,,,,,,,,
,0.0,,,,,,padlock_07s.jpg,0.0,clock_6_2.png,6.0,53,,,,,,,,,,,,,,,,,,,0.0,31.0,31.0,31.0,1.0,,,,,,,,,,
,0.0,,,,,,pipe1_10s.jpg,0.0,clock_6_3.png,6.0,53,,,,,,,,,,,,,,,,,,,0.0,32.0,32.0,32.0,1.0,,,,,,,,,,
,0.0,,,,,,ice-cream_cone_06s.jpg,0.0,clock_6_4.png,6.0,53,,,,,,,,,,,,,,,,,,,0.0,33.0,33.0,33.0,1.0,,,,,,,,,,
,0.0,,,,,,refrigerator_07s.jpg,0.0,clock_6_5.png,6.0,53,,,,,,,,,,,,,,,,,,,0.0,34.0,34.0,34.0,1.0,,,,,,,,,,
,0.0,,,,,,fishhook_06s.jpg,0.0,clock_6_6.png,6.0,53,,,,,,,,,,,,,,,,,,,0.0,35.0,35.0,35.0,1.0,,,,,,,,,,
,,,,,,,,0.0,,,53,0.0,1.0,2.9105,,,,,,limousine_12s.jpg,top_hat_11s.jpg,,,,,,,,,,,,,,0.0,0.0,0.0,0.0,1.0,,,,,
,,,,,,,,0.0,,,53,1.0,0.0,1.833825,,,,,,teabag_12s.jpg,juicer2_06s.jpg,,,,,,,,,,,,,,0.0,1.0,1.0,1.0,1.0,,,,,
,,,,,,,,0.0,,,53,1.0,0.0,1.14979,,,,,,coffee_filter_10s.jpg,telephone_pole_05s.jpg,,,,,,,,,,,,,,0.0,2.0,2.0,2.0,1.0,,,,,
,,,,,,,,1.0,,,53,0.0,0.0,1.23456,,,,,,latte_06s.jpg,raspberry_12s.jpg,,,,,,,,,,,,,,0.0,3.0,3.0,3.0,1.0,,,,,
,,,,,,,,1.0,,,53,1.0,1.0,1.18366,,,,,,padlock_07s.jpg,refrigerator_07s.jpg,,,,,,,,,,,,,,0.0,4.0,4.0,4.0,1.0,,,,,
,,,,,,,,1.0,,,53,1.0,1.0,0.997685,,,,,,pipe1_10s.jpg,fishhook_06s.jpg,,,,,,,,,,,,,,0.0,5.0,5.0,5.0,1.0,,,,,
