key_resp.keys,key_resp.corr,key_resp.rt,present_segment.thisRepN,present_segment.thisTrialN,present_segment.thisN,present_segment.thisIndex,present_segment.ran,pictures,answer,clock,segment,participant,key_resp_2.keys,key_resp_2.corr,key_resp_2.rt,compare_segment.thisRepN,compare_segment.thisTrialN,compare_segment.thisN,compare_segment.thisIndex,compare_segment.ran,item_a,item_b,clock_conditions.thisRepN,clock_conditions.thisTrialN,clock_conditions.thisN,clock_conditions.thisIndex,clock_conditions.ran,present,compare,noclock_present.thisRepN,noclock_present.thisTrialN,noclock_present.thisN,noclock_present.thisIndex,noclock_present.ran,noclock_compare.thisRepN,noclock_compare.thisTrialN,noclock_compare.thisN,noclock_compare.thisIndex,noclock_compare.ran,noclock_conditions.thisRepN,noclock_conditions.thisTrialN,noclock_conditions.thisN,noclock_conditions.thisIndex,noclock_conditions.ran
0.0,1.0,1.294035,0.0,0.0,0.0,0.0,1.0,rolling_pin_02s.jpg,0.0,clock_7_1.png,1.0,74,,,,,,,,,,,,,,,,,,,,,,,,,,,,,,,,
1.0,1.0,1.503315,0.0,1.0,1.0,1.0,1.0,rolling_pin_02s.jpg,1.0,clock_7_2.png,1.0,74,,,,,,,,,,,,,,,,,,,,,,,,,,,,,,,,
0.0,1.0,0.62491,0.0,2.0,2.0,2.0,1.0,roller_coaster_07s.jpg,0.0,clock_7_3.png,1.0,74,,,,,,,,,,,,,,,,,,,,,,,,,,,,,,,,
0.0,1.0,0.654955,0.0,3.0,3.0,3.0,1.0,ice_pack_09s.jpg,0.0,clock_7_4.png,1.0,74,,,,,,,,,,,,,,,,,,,,,,,,,,,,,,,,
1.0,1.0,0.799565,0.0,4.0,4.0,4.0,1.0,rolling_pin_02s.jpg,1.0,clock_7_5.png,1.0,74,,,,,,,,,,,,,,,,,,,,,,,,,,,,,,,,
1.0,1.0,0.468075,0.0,5.0,5.0,5.0,1.0,roller_coaster_07s.jpg,1.0,clock_7_6.png,1.0,74,,,,,,,,,,,,,,,,,,,,,,,,,,,,,,,,
0.0,1.0,0.555595,0.0,6.0,6.0,6.0,1.0,jalapeno_15s.jpg,0.0,clock_7_7.png,1.0,74,,,,,,,,,,,,,,,,,,,,,,,,,,,,,,,,
0.0,1.0,1.18296,0.0,7.0,7.0,7.0,1.0,iron_13s.jpg,0.0,clock_6_1.png,2.0,74,,,,,,,,,,,,,,,,,,,,,,,,,,,,,,,,
,0.0,,0.0,8.0,8.0,8.0,1.0,joystick_01b.jpg,0.0,clock_6_2.png,2.0,74,,,,,,,,,,,,,,,,,,,,,,,,,,,,,,,,
0.0,1.0,1.120205,0.0,9.0,9.0,9.0,1.0,tiara_05s.jpg,0.0,clock_6_3.png,2.0,74,,,,,,,,,,,,,,,,,,,,,,,,,,,,,,,,
0.0,1.0,1.022665,0.0,10.0,10.0,10.0,1.0,tie_03s.jpg,0.0,clock_6_4.png,2.0,74,,,,,,,,,,,,,,,,,,,,,,,,,,,,,,,,
1.0,1.0,1.06186,0.0,11.0,11.0,11.0,1.0,tiara_05s.jpg,1.0,clock_6_5.png,2.0,74,,,,,,,,,,,,,,,,,,,,,,,,,,,,,,,,
0.0,1.0,0.73056,0.0,12.0,12.0,12.0,1.0,padlock_07s.jpg,0.0,clock_6_6.png,2.0,74,,,,,,,,,,,,,,,,,,,,,,,,,,,,,,,,
0.0,1.0,0.709025,0.0,13.0,13.0,13.0,1.0,keyboard_05s.jpg,0.0,clock_5_1.png,3.0,74,,,,,,,,,,,,,,,,,,,,,,,,,,,,,,,,
0.0,1.0,0.713635,0.0,14.0,14.0,14.0,1.0,lamb_chop_07s.jpg,0.0,clock_5_2.png,3.0,74,,,,,,,,,,,,,,,,,,,,,,,,,,,,,,,,
0.0,1.0,1.158385,0.0,15.0,15.0,15.0,1.0,projector_08s.jpg,0.0,clock_5_3.png,3.0,74,,,,,,,,,,,,,,,,,,,,,,,,,,,,,,,,
0.0,1.0,0.65362,0.0,16.0,16.0,16.0,1.0,soccer_ball_12s.jpg,0.0,clock_5_4.png,3.0,74,,,,,,,,,,,,,,,,,,,,,,,,,,,,,,,,
0.0,1.0,0.680755,0.0,17.0,17.0,17.0,1.0,chocolate_01b.jpg,0.0,clock_5_5.png,3.0,74,,,,,,,,,,,,,,,,,,,,,,,,,,,,,,,,
0.0,1.0,1.121345,0.0,18.0,18.0,18.0,1.0,sea_urchin_09s.jpg,0.0,clock_5_1.png,4.0,74,,,,,,,,,,,,,,,,,,,,,,,,,,,,,,,,
0.0,1.0,0.69747,0.0,19.0,19.0,19.0,1.0,surfboard_11s.jpg,0.0,clock_5_2.png,4.0,74,,,,,,,,,,,,,,,,,,,,,,,,,,,,,,,,
0.0,1.0,1.07815,0.0,20.0,20.0,20.0,1.0,ink_08s.jpg,0.0,clock_5_3.png,4.0,74,,,,,,,,,,,,,,,,,,,,,,,,,,,,,,,,
0.0,1.0,1.033285,0.0,21.0,21.0,21.0,1.0,air_pump_05s.jpg,0.0,clock_5_4.png,4.0,74,,,,,,,,,,,,,,,,,,,,,,,,,,,,,,,,
0.0,1.0,0.648575,0.0,22.0,22.0,22.0,1.0,stamp2_08s.jpg,0.0,clock_5_5.png,4.0,74,,,,,,,,,,,,,,,,,,,,,,,,,,,,,,,,
0.0,1.0,0.687565,0.0,23.0,23.0,23.0,1.0,magnet_03s.jpg,0.0,clock_7_1.png,5.0,74,,,,,,,,,,,,,,,,,,,,,,,,,,,,,,,,
0.0,1.0,0.660415,0.0,24.0,24.0,24.0,1.0,razor_12s.jpg,0.0,clock_7_2.png,5.0,74,,,,,,,,,,,,,,,,,,,,,,,,,,,,,,,,
0.0,1.0,0.630935,0.0,25.0,25.0,25.0,1.0,trident_07s.jpg,0.0,clock_7_3.png,5.0,74,,,,,,,,,,,,,,,,,,,,,,,,,,,,,,,,
1.0,1.0,1.55727,0.0,26.0,26.0,26.0,1.0,magnet_03s.jpg,1.0,clock_7_4.png,5.0,74,,,,,,,,,,,,,,,,,,,,,,,,,,,,,,,,
0.0,1.0,1.308595,0.0,27.0,27.0,27.0,1.0,lamb_04s.jpg,0.0,clock_7_5.png,5.0,74,,,,,,,,,,,,,,,,,,,,,,,,,,,,,,,,
1.0,1.0,0.858535,0.0,28.0,28.0,28.0,1.0,magnet_03s.jpg,1.0,clock_7_6.png,5.0,74,,,,,,,,,,,,,,,,,,,,,,,,,,,,,,,,
0.0,1.0,0.740385,0.0,29.0,29.0,29.0,1.0,plug_08s.jpg,0.0,clock_7_7.png,5.0,74,,,,,,,,,,,,,,,,,,,,,,,,,,,,,,,,
0.0,1.0,0.929955,0.0,30.0,30.0,30.0,1.0,ticktacktoe_08s.jpg,0.0,clock_6_1.png,6.0,74,,,,,,,,,,,,,,,,,,,,,,,,,,,,,,,,
0.0,1.0,0.90938,0.0,31.0,31.0,31.0,1.0,treasure_08s.jpg,0.0,clock_6_2.png,6.0,74,,,,,,,,,,,,,,,,,,,,,,,,,,,,,,,,
0.0,1.0,0.770575,0.0,32.0,32.0,32.0,1.0,tulip_02s.jpg,0.0,clock_6_3.png,6.0,74,,,,,,,,,,,,,,,,,,,,,,,,,,,,,,,,
0.0,1.0,0.89962,0.0,33.0,33.0,33.0,1.0,telephone_pole_05s.jpg,0.0,clock_6_4.png,6.0,74,,,,,,,,,,,,,,,,,,,,,,,,,,,,,,,,
0.0,1.0,1.34654,0.0,34.0,34.0,34.0,1.0,luggage_08s.jpg,0.0,clock_6_5.png,6.0,74,,,,,,,,,,,,,,,,,,,,,,,,,,,,,,,,
0.0,1.0,0.507015,0.0,35.0,35.0,35.0,1.0,dirt_bike_11s.jpg,0.0,clock_6_6.png,6.0,74,,,,,,,,,,,,,,,,,,,,,,,,,,,,,,,,
,,,,,,,,,1.0,,,74,0.0,0.0,5.910065,0.0,0.0,0.0,0.0,1.0,padlock_07s.jpg,projector_08s.jpg,,,,,,,,,,,,,,,,,,,,,,
,,,,,,,,,0.0,,,74,1.0,0.0,3.53423,0.0,1.0,1.0,1.0,1.0,ink_08s.jpg,chocolate_01b.jpg,,,,,,,,,,,,,,,,,,,,,,
,,,,,,,,,0.0,,,74,0.0,1.0,2.37015,0.0,2.0,2.0,2.0,1.0,trident_07s.jpg,stamp2_08s.jpg,,,,,,,,,,,,,,,,,,,,,,
,,,,,,,,,1.0,,,74,1.0,1.0,1.833565,0.0,3.0,3.0,3.0,1.0,ice_pack_09s.jpg,jalapeno_15s.jpg,,,,,,,,,,,,,,,,,,,,,,
,,,,,,,,,1.0,,,74,1.0,1.0,1.269665,0.0,4.0,4.0,4.0,1.0,treasure_08s.jpg,luggage_08s.jpg,,,,,,,,,,,,,,,,,,,,,,
,,,,,,,,,1.0,,,74,0.0,0.0,1.386015,0.0,5.0,5.0,5.0,1.0,iron_13s.jpg,tie_03s.jpg,,,,,,,,,,,,,,,,,,,,,,
,,,,,,,,,,,,74,,,,,,,,,,,0.0,0.0,0.0,0.0,1.0,clock_present_1_13.xlsx,clock_compare_task_1_13.xlsx,,,,,,,,,,,,,,,
0.0,1.0,1.477855,0.0,0.0,0.0,0.0,1.0,pocket_watch_16s.jpg,0.0,clock_6_1.png,1.0,74,,,,,,,,,,,,,,,,,,,,,,,,,,,,,,,,
0.0,1.0,0.648515,0.0,1.0,1.0,1.0,1.0,throne_11s.jpg,0.0,clock_6_2.png,1.0,74,,,,,,,,,,,,,,,,,,,,,,,,,,,,,,,,
0.0,1.0,0.964625,0.0,2.0,2.0,2.0,1.0,flask_04s.jpg,0.0,clock_6_3.png,1.0,74,,,,,,,,,,,,,,,,,,,,,,,,,,,,,,,,
0.0,1.0,0.56984,0.0,3.0,3.0,3.0,1.0,funnel_01b.jpg,0.0,clock_6_4.png,1.0,74,,,,,,,,,,,,,,,,,,,,,,,,,,,,,,,,
0.0,1.0,0.754235,0.0,4.0,4.0,4.0,1.0,lid_10s.jpg,0.0,clock_6_5.png,1.0,74,,,,,,,,,,,,,,,,,,,,,,,,,,,,,,,,
0.0,1.0,0.61853,0.0,5.0,5.0,5.0,1.0,polaroid_05s.jpg,0.0,clock_6_6.png,1.0,74,,,,,,,,,,,,,,,,,,,,,,,,,,,,,,,,
0.0,1.0,0.502095,0.0,6.0,6.0,6.0,1.0,inhaler_01b.jpg,0.0,clock_7_1.png,2.0,74,,,,,,,,,,,,,,,,,,,,,,,,,,,,,,,,
1.0,1.0,1.165515,0.0,7.0,7.0,7.0,1.0,inhaler_01b.jpg,1.0,clock_7_2.png,2.0,74,,,,,,,,,,,,,,,,,,,,,,,,,,,,,,,,
0.0,1.0,1.05964,0.0,8.0,8.0,8.0,1.0,jewel_01b.jpg,0.0,clock_7_3.png,2.0,74,,,,,,,,,,,,,,,,,,,,,,,,,,,,,,,,
0.0,1.0,1.002035,0.0,9.0,9.0,9.0,1.0,pea_11s.jpg,0.0,clock_7_4.png,2.0,74,,,,,,,,,,,,,,,,,,,,,,,,,,,,,,,,
0.0,1.0,0.632975,0.0,10.0,10.0,10.0,1.0,frog_09s.jpg,0.0,clock_7_5.png,2.0,74,,,,,,,,,,,,,,,,,,,,,,,,,,,,,,,,
1.0,1.0,1.00256,0.0,11.0,11.0,11.0,1.0,inhaler_01b.jpg,1.0,clock_7_6.png,2.0,74,,,,,,,,,,,,,,,,,,,,,,,,,,,,,,,,
0.0,1.0,1.153105,0.0,12.0,12.0,12.0,1.0,purse_05s.jpg,0.0,clock_7_7.png,2.0,74,,,,,,,,,,,,,,,,,,,,,,,,,,,,,,,,
0.0,1.0,0.83311,0.0,13.0,13.0,13.0,1.0,hydrant_10s.jpg,0.0,clock_7_1.png,3.0,74,,,,,,,,,,,,,,,,,,,,,,,,,,,,,,,,
0.0,1.0,0.798285,0.0,14.0,14.0,14.0,1.0,film_03s.jpg,0.0,clock_7_2.png,3.0,74,,,,,,,,,,,,,,,,,,,,,,,,,,,,,,,,
0.0,1.0,1.49639,0.0,15.0,15.0,15.0,1.0,quilt_03s.jpg,0.0,clock_7_3.png,3.0,74,,,,,,,,,,,,,,,,,,,,,,,,,,,,,,,,
0.0,1.0,0.702825,0.0,16.0,16.0,16.0,1.0,popsicle_02s.jpg,0.0,clock_7_4.png,3.0,74,,,,,,,,,,,,,,,,,,,,,,,,,,,,,,,,
0.0,1.0,1.152555,0.0,17.0,17.0,17.0,1.0,fox_13s.jpg,0.0,clock_7_5.png,3.0,74,,,,,,,,,,,,,,,,,,,,,,,,,,,,,,,,
0.0,1.0,0.635825,0.0,18.0,18.0,18.0,1.0,orchid_01b.jpg,0.0,clock_7_6.png,3.0,74,,,,,,,,,,,,,,,,,,,,,,,,,,,,,,,,
0.0,1.0,0.732305,0.0,19.0,19.0,19.0,1.0,marshmallow_08s.jpg,0.0,clock_7_7.png,3.0,74,,,,,,,,,,,,,,,,,,,,,,,,,,,,,,,,
0.0,1.0,0.83246,0.0,20.0,20.0,20.0,1.0,taxi_15s.jpg,0.0,clock_5_1.png,4.0,74,,,,,,,,,,,,,,,,,,,,,,,,,,,,,,,,
0.0,1.0,0.722305,0.0,21.0,21.0,21.0,1.0,fork_04s.jpg,0.0,clock_5_2.png,4.0,74,,,,,,,,,,,,,,,,,,,,,,,,,,,,,,,,
0.0,1.0,0.72008,0.0,22.0,22.0,22.0,1.0,puppet_01b.jpg,0.0,clock_5_3.png,4.0,74,,,,,,,,,,,,,,,,,,,,,,,,,,,,,,,,
0.0,1.0,1.301875,0.0,23.0,23.0,23.0,1.0,megaphone_03s.jpg,0.0,clock_5_4.png,4.0,74,,,,,,,,,,,,,,,,,,,,,,,,,,,,,,,,
1.0,1.0,0.717865,0.0,24.0,24.0,24.0,1.0,megaphone_03s.jpg,1.0,clock_5_5.png,4.0,74,,,,,,,,,,,,,,,,,,,,,,,,,,,,,,,,
0.0,1.0,0.647565,0.0,25.0,25.0,25.0,1.0,cotton_candy_01b.jpg,0.0,clock_5_1.png,5.0,74,,,,,,,,,,,,,,,,,,,,,,,,,,,,,,,,
0.0,1.0,0.807995,0.0,26.0,26.0,26.0,1.0,puppy_08s.jpg,0.0,clock_5_2.png,5.0,74,,,,,,,,,,,,,,,,,,,,,,,,,,,,,,,,
0.0,1.0,0.714435,0.0,27.0,27.0,27.0,1.0,glasses01a.jpg,0.0,clock_5_3.png,5.0,74,,,,,,,,,,,,,,,,,,,,,,,,,,,,,,,,
1.0,1.0,0.71369,0.0,28.0,28.0,28.0,1.0,glasses01a.jpg,1.0,clock_5_4.png,5.0,74,,,,,,,,,,,,,,,,,,,,,,,,,,,,,,,,
0.0,1.0,0.78024,0.0,29.0,29.0,29.0,1.0,typewriter_11s.jpg,0.0,clock_5_5.png,5.0,74,,,,,,,,,,,,,,,,,,,,,,,,,,,,,,,,
0.0,1.0,0.62673,0.0,30.0,30.0,30.0,1.0,fur_coat_11s.jpg,0.0,clock_6_1.png,6.0,74,,,,,,,,,,,,,,,,,,,,,,,,,,,,,,,,
0.0,1.0,0.60547,0.0,31.0,31.0,31.0,1.0,rudder_02s.jpg,0.0,clock_6_2.png,6.0,74,,,,,,,,,,,,,,,,,,,,,,,,,,,,,,,,
0.0,1.0,0.57643,0.0,32.0,32.0,32.0,1.0,chip_04s.jpg,0.0,clock_6_3.png,6.0,74,,,,,,,,,,,,,,,,,,,,,,,,,,,,,,,,
0.0,1.0,0.57994,0.0,33.0,33.0,33.0,1.0,thread_08s.jpg,0.0,clock_6_4.png,6.0,74,,,,,,,,,,,,,,,,,,,,,,,,,,,,,,,,
0.0,1.0,0.591895,0.0,34.0,34.0,34.0,1.0,quilt_03s.jpg,0.0,clock_6_5.png,6.0,74,,,,,,,,,,,,,,,,,,,,,,,,,,,,,,,,
0.0,1.0,0.916735,0.0,35.0,35.0,35.0,1.0,polar_bear_02s.jpg,0.0,clock_6_6.png,6.0,74,,,,,,,,,,,,,,,,,,,,,,,,,,,,,,,,
,,,,,,,,,0.0,,,74,0.0,1.0,2.829665,0.0,0.0,0.0,0.0,1.0,fork_04s.jpg,orchid_01b.jpg,,,,,,,,,,,,,,,,,,,,,,
,,,,,,,,,0.0,,,74,0.0,1.0,1.16457,0.0,1.0,1.0,1.0,1.0,cotton_candy_01b.jpg,puppet_01b.jpg,,,,,,,,,,,,,,,,,,,,,,
,,,,,,,,,1.0,,,74,1.0,1.0,1.468065,0.0,2.0,2.0,2.0,1.0,polaroid_05s.jpg,jewel_01b.jpg,,,,,,,,,,,,,,,,,,,,,,
,,,,,,,,,1.0,,,74,0.0,0.0,1.406035,0.0,3.0,3.0,3.0,1.0,pocket_watch_16s.jpg,funnel_01b.jpg,,,,,,,,,,,,,,,,,,,,,,
,,,,,,,,,0.0,,,74,0.0,1.0,1.289065,0.0,4.0,4.0,4.0,1.0,lid_10s.jpg,throne_11s.jpg,,,,,,,,,,,,,,,,,,,,,,
,,,,,,,,,1.0,,,74,0.0,0.0,1.313905,0.0,5.0,5.0,5.0,1.0,pea_11s.jpg,purse_05s.jpg,,,,,,,,,,,,,,,,,,,,,,
,,,,,,,,,,,,74,,,,,,,,,,,0.0,1.0,1.0,1.0,1.0,clock_present_2_13.xlsx,clock_compare_task_2_13.xlsx,,,,,,,,,,,,,,,
0.0,1.0,1.483755,0.0,0.0,0.0,0.0,1.0,trumpet_06s.jpg,0.0,clock_6_1.png,1.0,74,,,,,,,,,,,,,,,,,,,,,,,,,,,,,,,,
0.0,1.0,0.664825,0.0,1.0,1.0,1.0,1.0,pantyhose_07s.jpg,0.0,clock_6_2.png,1.0,74,,,,,,,,,,,,,,,,,,,,,,,,,,,,,,,,
0.0,1.0,0.684295,0.0,2.0,2.0,2.0,1.0,latte_06s.jpg,0.0,clock_6_3.png,1.0,74,,,,,,,,,,,,,,,,,,,,,,,,,,,,,,,,
0.0,0.0,1.89841,0.0,3.0,3.0,3.0,1.0,trumpet_06s.jpg,1.0,clock_6_4.png,1.0,74,,,,,,,,,,,,,,,,,,,,,,,,,,,,,,,,
0.0,1.0,0.670705,0.0,4.0,4.0,4.0,1.0,jetski_10s.jpg,0.0,clock_6_5.png,1.0,74,,,,,,,,,,,,,,,,,,,,,,,,,,,,,,,,
0.0,1.0,0.64865,0.0,5.0,5.0,5.0,1.0,toy_04s.jpg,0.0,clock_6_6.png,1.0,74,,,,,,,,,,,,,,,,,,,,,,,,,,,,,,,,
0.0,1.0,0.93406,0.0,6.0,6.0,6.0,1.0,espresso_01b.jpg,0.0,clock_5_1.png,2.0,74,,,,,,,,,,,,,,,,,,,,,,,,,,,,,,,,
,0.0,,0.0,7.0,7.0,7.0,1.0,tambourine_06s.jpg,0.0,clock_5_2.png,2.0,74,,,,,,,,,,,,,,,,,,,,,,,,,,,,,,,,
0.0,1.0,1.775865,0.0,8.0,8.0,8.0,1.0,comic_book_02s.jpg,0.0,clock_5_3.png,2.0,74,,,,,,,,,,,,,,,,,,,,,,,,,,,,,,,,
0.0,1.0,1.11419,0.0,9.0,9.0,9.0,1.0,snowman_02s.jpg,0.0,clock_5_4.png,2.0,74,,,,,,,,,,,,,,,,,,,,,,,,,,,,,,,,
1.0,1.0,0.816905,0.0,10.0,10.0,10.0,1.0,espresso_01b.jpg,1.0,clock_5_5.png,2.0,74,,,,,,,,,,,,,,,,,,,,,,,,,,,,,,,,
0.0,1.0,1.3387,0.0,11.0,11.0,11.0,1.0,blowfish_03s.jpg,0.0,clock_7_1.png,3.0,74,,,,,,,,,,,,,,,,,,,,,,,,,,,,,,,,
1.0,1.0,1.43103,0.0,12.0,12.0,12.0,1.0,blowfish_03s.jpg,1.0,clock_7_2.png,3.0,74,,,,,,,,,,,,,,,,,,,,,,,,,,,,,,,,
1.0,1.0,0.72046,0.0,13.0,13.0,13.0,1.0,blowfish_03s.jpg,1.0,clock_7_3.png,3.0,74,,,,,,,,,,,,,,,,,,,,,,,,,,,,,,,,
1.0,1.0,0.538865,0.0,14.0,14.0,14.0,1.0,blowfish_03s.jpg,1.0,clock_7_4.png,3.0,74,,,,,,,,,,,,,,,,,,,,,,,,,,,,,,,,
0.0,1.0,0.927975,0.0,15.0,15.0,15.0,1.0,beard_16s.jpg,0.0,clock_7_5.png,3.0,74,,,,,,,,,,,,,,,,,,,,,,,,,,,,,,,,
0.0,1.0,0.959005,0.0,16.0,16.0,16.0,1.0,police_car_01s.jpg,0.0,clock_7_6.png,3.0,74,,,,,,,,,,,,,,,,,,,,,,,,,,,,,,,,
1.0,0.0,0.79766,0.0,17.0,17.0,17.0,1.0,comic_book_02s.jpg,0.0,clock_7_7.png,3.0,74,,,,,,,,,,,,,,,,,,,,,,,,,,,,,,,,
,0.0,,0.0,18.0,18.0,18.0,1.0,gazelle_10s.jpg,0.0,clock_7_1.png,4.0,74,,,,,,,,,,,,,,,,,,,,,,,,,,,,,,,,
0.0,1.0,0.92187,0.0,19.0,19.0,19.0,1.0,chalice_10s.jpg,0.0,clock_7_2.png,4.0,74,,,,,,,,,,,,,,,,,,,,,,,,,,,,,,,,
0.0,1.0,0.65634,0.0,20.0,20.0,20.0,1.0,foam_03s.jpg,0.0,clock_7_3.png,4.0,74,,,,,,,,,,,,,,,,,,,,,,,,,,,,,,,,
0.0,1.0,0.662755,0.0,21.0,21.0,21.0,1.0,jersey_02s.jpg,0.0,clock_7_4.png,4.0,74,,,,,,,,,,,,,,,,,,,,,,,,,,,,,,,,
1.0,1.0,1.014775,0.0,22.0,22.0,22.0,1.0,foam_03s.jpg,1.0,clock_7_5.png,4.0,74,,,,,,,,,,,,,,,,,,,,,,,,,,,,,,,,
0.0,1.0,0.56456,0.0,23.0,23.0,23.0,1.0,contact_lens_15s.jpg,0.0,clock_7_6.png,4.0,74,,,,,,,,,,,,,,,,,,,,,,,,,,,,,,,,
1.0,1.0,0.664555,0.0,24.0,24.0,24.0,1.0,contact_lens_15s.jpg,1.0,clock_7_7.png,4.0,74,,,,,,,,,,,,,,,,,,,,,,,,,,,,,,,,
0.0,1.0,1.157545,0.0,25.0,25.0,25.0,1.0,pacifier_09s.jpg,0.0,clock_6_1.png,5.0,74,,,,,,,,,,,,,,,,,,,,,,,,,,,,,,,,
0.0,1.0,0.80516,0.0,26.0,26.0,26.0,1.0,onion_10s.jpg,0.0,clock_6_2.png,5.0,74,,,,,,,,,,,,,,,,,,,,,,,,,,,,,,,,
0.0,1.0,0.61983,0.0,27.0,27.0,27.0,1.0,knot_01b.jpg,0.0,clock_6_3.png,5.0,74,,,,,,,,,,,,,,,,,,,,,,,,,,,,,,,,
0.0,1.0,1.09237,0.0,28.0,28.0,28.0,1.0,cucumber_07s.jpg,0.0,clock_6_4.png,5.0,74,,,,,,,,,,,,,,,,,,,,,,,,,,,,,,,,
0.0,1.0,1.45447,0.0,29.0,29.0,29.0,1.0,pump_11s.jpg,0.0,clock_6_5.png,5.0,74,,,,,,,,,,,,,,,,,,,,,,,,,,,,,,,,
0.0,1.0,0.6685,0.0,30.0,30.0,30.0,1.0,stingray_02s.jpg,0.0,clock_6_6.png,5.0,74,,,,,,,,,,,,,,,,,,,,,,,,,,,,,,,,
0.0,1.0,0.852365,0.0,31.0,31.0,31.0,1.0,spacesuit_02s.jpg,0.0,clock_5_1.png,6.0,74,,,,,,,,,,,,,,,,,,,,,,,,,,,,,,,,
1.0,0.0,0.8819,0.0,32.0,32.0,32.0,1.0,contact_lens_15s.jpg,0.0,clock_5_2.png,6.0,74,,,,,,,,,,,,,,,,,,,,,,,,,,,,,,,,
0.0,1.0,0.63821,0.0,33.0,33.0,33.0,1.0,paper_towel_03s.jpg,0.0,clock_5_3.png,6.0,74,,,,,,,,,,,,,,,,,,,,,,,,,,,,,,,,
1.0,1.0,0.8475,0.0,34.0,34.0,34.0,1.0,paper_towel_03s.jpg,1.0,clock_5_4.png,6.0,74,,,,,,,,,,,,,,,,,,,,,,,,,,,,,,,,
1.0,1.0,0.772065,0.0,35.0,35.0,35.0,1.0,spacesuit_02s.jpg,1.0,clock_5_5.png,6.0,74,,,,,,,,,,,,,,,,,,,,,,,,,,,,,,,,
,,,,,,,,,1.0,,,74,0.0,0.0,1.72661,0.0,0.0,0.0,0.0,1.0,police_car_01s.jpg,chalice_10s.jpg,,,,,,,,,,,,,,,,,,,,,,
,,,,,,,,,1.0,,,74,1.0,1.0,1.390545,0.0,1.0,1.0,1.0,1.0,jetski_10s.jpg,tambourine_06s.jpg,,,,,,,,,,,,,,,,,,,,,,
,,,,,,,,,0.0,,,74,1.0,0.0,1.547045,0.0,2.0,2.0,2.0,1.0,gazelle_10s.jpg,beard_16s.jpg,,,,,,,,,,,,,,,,,,,,,,
,,,,,,,,,1.0,,,74,1.0,1.0,1.434475,0.0,3.0,3.0,3.0,1.0,latte_06s.jpg,toy_04s.jpg,,,,,,,,,,,,,,,,,,,,,,
,,,,,,,,,1.0,,,74,0.0,0.0,1.774075,0.0,4.0,4.0,4.0,1.0,pacifier_09s.jpg,cucumber_07s.jpg,,,,,,,,,,,,,,,,,,,,,,
,,,,,,,,,1.0,,,74,0.0,0.0,1.18212,0.0,5.0,5.0,5.0,1.0,onion_10s.jpg,pump_11s.jpg,,,,,,,,,,,,,,,,,,,,,,
,,,,,,,,,,,,74,,,,,,,,,,,0.0,2.0,2.0,2.0,1.0,clock_present_3_13.xlsx,clock_compare_task_3_13.xlsx,,,,,,,,,,,,,,,
0.0,1.0,0.80976,0.0,0.0,0.0,0.0,1.0,lipstick_02s.jpg,0.0,clock_7_1.png,1.0,74,,,,,,,,,,,,,,,,,,,,,,,,,,,,,,,,
0.0,1.0,0.852045,0.0,1.0,1.0,1.0,1.0,kettle_08s.jpg,0.0,clock_7_2.png,1.0,74,,,,,,,,,,,,,,,,,,,,,,,,,,,,,,,,
1.0,1.0,0.6324,0.0,2.0,2.0,2.0,1.0,lipstick_02s.jpg,1.0,clock_7_3.png,1.0,74,,,,,,,,,,,,,,,,,,,,,,,,,,,,,,,,
1.0,1.0,0.56723,0.0,3.0,3.0,3.0,1.0,lipstick_02s.jpg,1.0,clock_7_4.png,1.0,74,,,,,,,,,,,,,,,,,,,,,,,,,,,,,,,,
0.0,1.0,0.648395,0.0,4.0,4.0,4.0,1.0,pomegranate_04s.jpg,0.0,clock_7_5.png,1.0,74,,,,,,,,,,,,,,,,,,,,,,,,,,,,,,,,
,0.0,,0.0,5.0,5.0,5.0,1.0,pencil02a.jpg,0.0,clock_7_6.png,1.0,74,,,,,,,,,,,,,,,,,,,,,,,,,,,,,,,,
,0.0,,0.0,6.0,6.0,6.0,1.0,lollipop_08s.jpg,0.0,clock_7_7.png,1.0,74,,,,,,,,,,,,,,,,,,,,,,,,,,,,,,,,
0.0,1.0,0.51495,0.0,7.0,7.0,7.0,1.0,road_sign_05s.jpg,0.0,clock_6_1.png,2.0,74,,,,,,,,,,,,,,,,,,,,,,,,,,,,,,,,
1.0,1.0,0.75669,0.0,8.0,8.0,8.0,1.0,road_sign_05s.jpg,1.0,clock_6_2.png,2.0,74,,,,,,,,,,,,,,,,,,,,,,,,,,,,,,,,
0.0,1.0,0.63468,0.0,9.0,9.0,9.0,1.0,leash_10s.jpg,0.0,clock_6_3.png,2.0,74,,,,,,,,,,,,,,,,,,,,,,,,,,,,,,,,
0.0,1.0,0.4978,0.0,10.0,10.0,10.0,1.0,licorice_06s.jpg,0.0,clock_6_4.png,2.0,74,,,,,,,,,,,,,,,,,,,,,,,,,,,,,,,,
0.0,1.0,0.569845,0.0,11.0,11.0,11.0,1.0,mixer_12s.jpg,0.0,clock_6_5.png,2.0,74,,,,,,,,,,,,,,,,,,,,,,,,,,,,,,,,
1.0,0.0,1.75807,0.0,12.0,12.0,12.0,1.0,lipstick_02s.jpg,0.0,clock_6_6.png,2.0,74,,,,,,,,,,,,,,,,,,,,,,,,,,,,,,,,
0.0,1.0,1.066635,0.0,13.0,13.0,13.0,1.0,rocking_chair_05s.jpg,0.0,clock_6_1.png,3.0,74,,,,,,,,,,,,,,,,,,,,,,,,,,,,,,,,
0.0,1.0,0.6646,0.0,14.0,14.0,14.0,1.0,syringe_02s.jpg,0.0,clock_6_2.png,3.0,74,,,,,,,,,,,,,,,,,,,,,,,,,,,,,,,,
0.0,1.0,1.01425,0.0,15.0,15.0,15.0,1.0,golf_club_03s.jpg,0.0,clock_6_3.png,3.0,74,,,,,,,,,,,,,,,,,,,,,,,,,,,,,,,,
0.0,1.0,0.55722,0.0,16.0,16.0,16.0,1.0,potholder_02s.jpg,0.0,clock_6_4.png,3.0,74,,,,,,,,,,,,,,,,,,,,,,,,,,,,,,,,
1.0,0.0,1.69879,0.0,17.0,17.0,17.0,1.0,pencil02a.jpg,0.0,clock_6_5.png,3.0,74,,,,,,,,,,,,,,,,,,,,,,,,,,,,,,,,
0.0,1.0,0.575225,0.0,18.0,18.0,18.0,1.0,fire_pit_10s.jpg,0.0,clock_6_6.png,3.0,74,,,,,,,,,,,,,,,,,,,,,,,,,,,,,,,,
0.0,1.0,0.61427,0.0,19.0,19.0,19.0,1.0,tinsel_12s.jpg,0.0,clock_5_1.png,4.0,74,,,,,,,,,,,,,,,,,,,,,,,,,,,,,,,,
0.0,1.0,1.414695,0.0,20.0,20.0,20.0,1.0,sledgehammer_03s.jpg,0.0,clock_5_2.png,4.0,74,,,,,,,,,,,,,,,,,,,,,,,,,,,,,,,,
1.0,0.0,0.86773,0.0,21.0,21.0,21.0,1.0,pomegranate_04s.jpg,0.0,clock_5_3.png,4.0,74,,,,,,,,,,,,,,,,,,,,,,,,,,,,,,,,
0.0,1.0,0.741805,0.0,22.0,22.0,22.0,1.0,tattoo_14s.jpg,0.0,clock_5_4.png,4.0,74,,,,,,,,,,,,,,,,,,,,,,,,,,,,,,,,
0.0,1.0,0.73961,0.0,23.0,23.0,23.0,1.0,turkey_10s.jpg,0.0,clock_5_5.png,4.0,74,,,,,,,,,,,,,,,,,,,,,,,,,,,,,,,,
0.0,1.0,0.859385,0.0,24.0,24.0,24.0,1.0,eyedropper_12s.jpg,0.0,clock_5_1.png,5.0,74,,,,,,,,,,,,,,,,,,,,,,,,,,,,,,,,
0.0,1.0,0.703675,0.0,25.0,25.0,25.0,1.0,fondue_07s.jpg,0.0,clock_5_2.png,5.0,74,,,,,,,,,,,,,,,,,,,,,,,,,,,,,,,,
0.0,1.0,0.76496,0.0,26.0,26.0,26.0,1.0,fire_alarm_05s.jpg,0.0,clock_5_3.png,5.0,74,,,,,,,,,,,,,,,,,,,,,,,,,,,,,,,,
1.0,1.0,0.90345,0.0,27.0,27.0,27.0,1.0,eyedropper_12s.jpg,1.0,clock_5_4.png,5.0,74,,,,,,,,,,,,,,,,,,,,,,,,,,,,,,,,
1.0,1.0,1.08347,0.0,28.0,28.0,28.0,1.0,eyedropper_12s.jpg,1.0,clock_5_5.png,5.0,74,,,,,,,,,,,,,,,,,,,,,,,,,,,,,,,,
0.0,1.0,0.58142,0.0,29.0,29.0,29.0,1.0,badge_03s.jpg,0.0,clock_7_1.png,6.0,74,,,,,,,,,,,,,,,,,,,,,,,,,,,,,,,,
0.0,1.0,0.87109,0.0,30.0,30.0,30.0,1.0,lion_18s.jpg,0.0,clock_7_2.png,6.0,74,,,,,,,,,,,,,,,,,,,,,,,,,,,,,,,,
0.0,1.0,0.83274,0.0,31.0,31.0,31.0,1.0,lasagna_06s.jpg,0.0,clock_7_3.png,6.0,74,,,,,,,,,,,,,,,,,,,,,,,,,,,,,,,,
0.0,1.0,0.68132,0.0,32.0,32.0,32.0,1.0,turf_03s.jpg,0.0,clock_7_4.png,6.0,74,,,,,,,,,,,,,,,,,,,,,,,,,,,,,,,,
0.0,1.0,0.68134,0.0,33.0,33.0,33.0,1.0,kitten_07s.jpg,0.0,clock_7_5.png,6.0,74,,,,,,,,,,,,,,,,,,,,,,,,,,,,,,,,
1.0,1.0,0.77615,0.0,34.0,34.0,34.0,1.0,badge_03s.jpg,1.0,clock_7_6.png,6.0,74,,,,,,,,,,,,,,,,,,,,,,,,,,,,,,,,
1.0,0.0,1.92348,0.0,35.0,35.0,35.0,1.0,tinsel_12s.jpg,0.0,clock_7_7.png,6.0,74,,,,,,,,,,,,,,,,,,,,,,,,,,,,,,,,
,,,,,,,,,1.0,,,74,0.0,0.0,1.42762,0.0,0.0,0.0,0.0,1.0,lollipop_08s.jpg,leash_10s.jpg,,,,,,,,,,,,,,,,,,,,,,
,,,,,,,,,1.0,,,74,0.0,0.0,1.452885,0.0,1.0,1.0,1.0,1.0,mixer_12s.jpg,syringe_02s.jpg,,,,,,,,,,,,,,,,,,,,,,
,,,,,,,,,1.0,,,74,0.0,0.0,1.19795,0.0,2.0,2.0,2.0,1.0,tattoo_14s.jpg,fondue_07s.jpg,,,,,,,,,,,,,,,,,,,,,,
,,,,,,,,,1.0,,,74,0.0,0.0,1.147375,0.0,3.0,3.0,3.0,1.0,golf_club_03s.jpg,fire_pit_10s.jpg,,,,,,,,,,,,,,,,,,,,,,
,,,,,,,,,0.0,,,74,0.0,1.0,1.090925,0.0,4.0,4.0,4.0,1.0,kitten_07s.jpg,lion_18s.jpg,,,,,,,,,,,,,,,,,,,,,,
,,,,,,,,,0.0,,,74,0.0,1.0,1.230225,0.0,5.0,5.0,5.0,1.0,potholder_02s.jpg,rocking_chair_05s.jpg,,,,,,,,,,,,,,,,,,,,,,
,,,,,,,,,,,,74,,,,,,,,,,,0.0,3.0,3.0,3.0,1.0,clock_present_4_13.xlsx,clock_compare_task_4_13.xlsx,,,,,,,,,,,,,,,
0.0,1.0,0.815745,0.0,0.0,0.0,0.0,1.0,insole_11s.jpg,0.0,clock_7_1.png,1.0,74,,,,,,,,,,,,,,,,,,,,,,,,,,,,,,,,
0.0,1.0,0.809615,0.0,1.0,1.0,1.0,1.0,aluminum_foil_08s.jpg,0.0,clock_7_2.png,1.0,74,,,,,,,,,,,,,,,,,,,,,,,,,,,,,,,,
1.0,1.0,1.03088,0.0,2.0,2.0,2.0,1.0,aluminum_foil_08s.jpg,1.0,clock_7_3.png,1.0,74,,,,,,,,,,,,,,,,,,,,,,,,,,,,,,,,
1.0,1.0,0.87675,0.0,3.0,3.0,3.0,1.0,insole_11s.jpg,1.0,clock_7_4.png,1.0,74,,,,,,,,,,,,,,,,,,,,,,,,,,,,,,,,
0.0,1.0,0.946965,0.0,4.0,4.0,4.0,1.0,feather02.jpg,0.0,clock_7_5.png,1.0,74,,,,,,,,,,,,,,,,,,,,,,,,,,,,,,,,
1.0,1.0,0.77471,0.0,5.0,5.0,5.0,1.0,aluminum_foil_08s.jpg,1.0,clock_7_6.png,1.0,74,,,,,,,,,,,,,,,,,,,,,,,,,,,,,,,,
0.0,1.0,1.065515,0.0,6.0,6.0,6.0,1.0,panda_02s.jpg,0.0,clock_7_7.png,1.0,74,,,,,,,,,,,,,,,,,,,,,,,,,,,,,,,,
0.0,1.0,2.330975,0.0,7.0,7.0,7.0,1.0,orange_12s.jpg,0.0,clock_7_1.png,2.0,74,,,,,,,,,,,,,,,,,,,,,,,,,,,,,,,,
1.0,1.0,0.94068,0.0,8.0,8.0,8.0,1.0,orange_12s.jpg,1.0,clock_7_2.png,2.0,74,,,,,,,,,,,,,,,,,,,,,,,,,,,,,,,,
0.0,1.0,0.80385,0.0,9.0,9.0,9.0,1.0,loom_05s.jpg,0.0,clock_7_3.png,2.0,74,,,,,,,,,,,,,,,,,,,,,,,,,,,,,,,,
0.0,1.0,0.71068,0.0,10.0,10.0,10.0,1.0,knitting_needle_04s.jpg,0.0,clock_7_4.png,2.0,74,,,,,,,,,,,,,,,,,,,,,,,,,,,,,,,,
1.0,1.0,0.880655,0.0,11.0,11.0,11.0,1.0,knitting_needle_04s.jpg,1.0,clock_7_5.png,2.0,74,,,,,,,,,,,,,,,,,,,,,,,,,,,,,,,,
0.0,1.0,2.213595,0.0,12.0,12.0,12.0,1.0,fireworks_18s.jpg,0.0,clock_7_6.png,2.0,74,,,,,,,,,,,,,,,,,,,,,,,,,,,,,,,,
1.0,0.0,0.72458,0.0,13.0,13.0,13.0,1.0,panda_02s.jpg,0.0,clock_7_7.png,2.0,74,,,,,,,,,,,,,,,,,,,,,,,,,,,,,,,,
0.0,1.0,0.804665,0.0,14.0,14.0,14.0,1.0,bacon_05s.jpg,0.0,clock_5_1.png,3.0,74,,,,,,,,,,,,,,,,,,,,,,,,,,,,,,,,
0.0,1.0,0.69933,0.0,15.0,15.0,15.0,1.0,margarita_03s.jpg,0.0,clock_5_2.png,3.0,74,,,,,,,,,,,,,,,,,,,,,,,,,,,,,,,,
0.0,1.0,0.79123,0.0,16.0,16.0,16.0,1.0,tiger_06s.jpg,0.0,clock_5_3.png,3.0,74,,,,,,,,,,,,,,,,,,,,,,,,,,,,,,,,
0.0,1.0,0.73563,0.0,17.0,17.0,17.0,1.0,outlet_10s.jpg,0.0,clock_5_4.png,3.0,74,,,,,,,,,,,,,,,,,,,,,,,,,,,,,,,,
0.0,1.0,0.668505,0.0,18.0,18.0,18.0,1.0,saddle_06s.jpg,0.0,clock_5_5.png,3.0,74,,,,,,,,,,,,,,,,,,,,,,,,,,,,,,,,
0.0,1.0,1.156005,0.0,19.0,19.0,19.0,1.0,moth_06n.jpg,0.0,clock_5_1.png,4.0,74,,,,,,,,,,,,,,,,,,,,,,,,,,,,,,,,
1.0,1.0,1.347075,0.0,20.0,20.0,20.0,1.0,moth_06n.jpg,1.0,clock_5_2.png,4.0,74,,,,,,,,,,,,,,,,,,,,,,,,,,,,,,,,
0.0,1.0,0.78935,0.0,21.0,21.0,21.0,1.0,cardinal_07s.jpg,0.0,clock_5_3.png,4.0,74,,,,,,,,,,,,,,,,,,,,,,,,,,,,,,,,
0.0,1.0,1.19053,0.0,22.0,22.0,22.0,1.0,stapler_01b.jpg,0.0,clock_5_4.png,4.0,74,,,,,,,,,,,,,,,,,,,,,,,,,,,,,,,,
0.0,1.0,0.963425,0.0,23.0,23.0,23.0,1.0,mitten_10s.jpg,0.0,clock_5_5.png,4.0,74,,,,,,,,,,,,,,,,,,,,,,,,,,,,,,,,
0.0,1.0,2.03543,0.0,24.0,24.0,24.0,1.0,sundae_08s.jpg,0.0,clock_6_1.png,5.0,74,,,,,,,,,,,,,,,,,,,,,,,,,,,,,,,,
0.0,1.0,0.73095,0.0,25.0,25.0,25.0,1.0,boomerang_06s.jpg,0.0,clock_6_2.png,5.0,74,,,,,,,,,,,,,,,,,,,,,,,,,,,,,,,,
0.0,1.0,0.985295,0.0,26.0,26.0,26.0,1.0,toaster_03s.jpg,0.0,clock_6_3.png,5.0,74,,,,,,,,,,,,,,,,,,,,,,,,,,,,,,,,
0.0,1.0,0.901875,0.0,27.0,27.0,27.0,1.0,quesadilla_07s.jpg,0.0,clock_6_4.png,5.0,74,,,,,,,,,,,,,,,,,,,,,,,,,,,,,,,,
1.0,1.0,0.972665,0.0,28.0,28.0,28.0,1.0,toaster_03s.jpg,1.0,clock_6_5.png,5.0,74,,,,,,,,,,,,,,,,,,,,,,,,,,,,,,,,
0.0,1.0,0.881515,0.0,29.0,29.0,29.0,1.0,punch1_10s.jpg,0.0,clock_6_6.png,5.0,74,,,,,,,,,,,,,,,,,,,,,,,,,,,,,,,,
0.0,1.0,1.314535,0.0,30.0,30.0,30.0,1.0,tuxedo_01b.jpg,0.0,clock_6_1.png,6.0,74,,,,,,,,,,,,,,,,,,,,,,,,,,,,,,,,
0.0,1.0,0.970925,0.0,31.0,31.0,31.0,1.0,kimono_13s.jpg,0.0,clock_6_2.png,6.0,74,,,,,,,,,,,,,,,,,,,,,,,,,,,,,,,,
0.0,1.0,0.56763,0.0,32.0,32.0,32.0,1.0,power_line_08s.jpg,0.0,clock_6_3.png,6.0,74,,,,,,,,,,,,,,,,,,,,,,,,,,,,,,,,
0.0,1.0,0.62329,0.0,33.0,33.0,33.0,1.0,coral_08s.jpg,0.0,clock_6_4.png,6.0,74,,,,,,,,,,,,,,,,,,,,,,,,,,,,,,,,
0.0,1.0,0.698195,0.0,34.0,34.0,34.0,1.0,undershirt_02s.jpg,0.0,clock_6_5.png,6.0,74,,,,,,,,,,,,,,,,,,,,,,,,,,,,,,,,
0.0,1.0,0.77214,0.0,35.0,35.0,35.0,1.0,ruby_15s.jpg,0.0,clock_6_6.png,6.0,74,,,,,,,,,,,,,,,,,,,,,,,,,,,,,,,,
,,,,,,,,,0.0,,,74,0.0,1.0,1.733005,0.0,0.0,0.0,0.0,1.0,boomerang_06s.jpg,stapler_01b.jpg,,,,,,,,,,,,,,,,,,,,,,
,,,,,,,,,0.0,,,74,1.0,0.0,1.615105,0.0,1.0,1.0,1.0,1.0,cardinal_07s.jpg,saddle_06s.jpg,,,,,,,,,,,,,,,,,,,,,,
,,,,,,,,,0.0,,,74,1.0,0.0,1.39253,0.0,2.0,2.0,2.0,1.0,power_line_08s.jpg,punch1_10s.jpg,,,,,,,,,,,,,,,,,,,,,,
,,,,,,,,,1.0,,,74,0.0,0.0,1.54563,0.0,3.0,3.0,3.0,1.0,bacon_05s.jpg,outlet_10s.jpg,,,,,,,,,,,,,,,,,,,,,,
,,,,,,,,,0.0,,,74,0.0,1.0,1.641835,0.0,4.0,4.0,4.0,1.0,undershirt_02s.jpg,kimono_13s.jpg,,,,,,,,,,,,,,,,,,,,,,
,,,,,,,,,0.0,,,74,1.0,0.0,1.1066,0.0,5.0,5.0,5.0,1.0,fireworks_18s.jpg,loom_05s.jpg,,,,,,,,,,,,,,,,,,,,,,
,,,,,,,,,,,,74,,,,,,,,,,,0.0,4.0,4.0,4.0,1.0,clock_present_5_13.xlsx,clock_compare_task_5_13.xlsx,,,,,,,,,,,,,,,
0.0,1.0,1.11468,0.0,0.0,0.0,0.0,1.0,boar_10s.jpg,0.0,clock_5_1.png,1.0,74,,,,,,,,,,,,,,,,,,,,,,,,,,,,,,,,
0.0,1.0,0.588,0.0,1.0,1.0,1.0,1.0,rocking_horse_03s.jpg,0.0,clock_5_2.png,1.0,74,,,,,,,,,,,,,,,,,,,,,,,,,,,,,,,,
0.0,1.0,0.95554,0.0,2.0,2.0,2.0,1.0,playpen_11s.jpg,0.0,clock_5_3.png,1.0,74,,,,,,,,,,,,,,,,,,,,,,,,,,,,,,,,
0.0,1.0,1.183595,0.0,3.0,3.0,3.0,1.0,ivy_12s.jpg,0.0,clock_5_4.png,1.0,74,,,,,,,,,,,,,,,,,,,,,,,,,,,,,,,,
0.0,1.0,1.50754,0.0,4.0,4.0,4.0,1.0,punch2_09s.jpg,0.0,clock_5_5.png,1.0,74,,,,,,,,,,,,,,,,,,,,,,,,,,,,,,,,
0.0,1.0,0.671195,0.0,5.0,5.0,5.0,1.0,pencil_sharpener_09n.jpg,0.0,clock_7_1.png,2.0,74,,,,,,,,,,,,,,,,,,,,,,,,,,,,,,,,
0.0,1.0,0.65853,0.0,6.0,6.0,6.0,1.0,prism_10s.jpg,0.0,clock_7_2.png,2.0,74,,,,,,,,,,,,,,,,,,,,,,,,,,,,,,,,
0.0,1.0,0.921965,0.0,7.0,7.0,7.0,1.0,bathtub_23s.jpg,0.0,clock_7_3.png,2.0,74,,,,,,,,,,,,,,,,,,,,,,,,,,,,,,,,
0.0,1.0,0.56506,0.0,8.0,8.0,8.0,1.0,potpourri_03s.jpg,0.0,clock_7_4.png,2.0,74,,,,,,,,,,,,,,,,,,,,,,,,,,,,,,,,
0.0,1.0,0.61541,0.0,9.0,9.0,9.0,1.0,rug_09s.jpg,0.0,clock_7_5.png,2.0,74,,,,,,,,,,,,,,,,,,,,,,,,,,,,,,,,
1.0,1.0,0.656205,0.0,10.0,10.0,10.0,1.0,rug_09s.jpg,1.0,clock_7_6.png,2.0,74,,,,,,,,,,,,,,,,,,,,,,,,,,,,,,,,
0.0,1.0,1.0743,0.0,11.0,11.0,11.0,1.0,leotard_08s.jpg,0.0,clock_7_7.png,2.0,74,,,,,,,,,,,,,,,,,,,,,,,,,,,,,,,,
0.0,1.0,0.59104,0.0,12.0,12.0,12.0,1.0,orangutan_03s.jpg,0.0,clock_7_1.png,3.0,74,,,,,,,,,,,,,,,,,,,,,,,,,,,,,,,,
1.0,0.0,0.786755,0.0,13.0,13.0,13.0,1.0,pencil_sharpener_09n.jpg,0.0,clock_7_2.png,3.0,74,,,,,,,,,,,,,,,,,,,,,,,,,,,,,,,,
0.0,1.0,0.58274,0.0,14.0,14.0,14.0,1.0,limousine_12s.jpg,0.0,clock_7_3.png,3.0,74,,,,,,,,,,,,,,,,,,,,,,,,,,,,,,,,
0.0,1.0,1.25809,0.0,15.0,15.0,15.0,1.0,mirror_12s.jpg,0.0,clock_7_4.png,3.0,74,,,,,,,,,,,,,,,,,,,,,,,,,,,,,,,,
1.0,1.0,1.082265,0.0,16.0,16.0,16.0,1.0,orangutan_03s.jpg,1.0,clock_7_5.png,3.0,74,,,,,,,,,,,,,,,,,,,,,,,,,,,,,,,,
,0.0,,0.0,17.0,17.0,17.0,1.0,thumbtack_14s.jpg,0.0,clock_7_6.png,3.0,74,,,,,,,,,,,,,,,,,,,,,,,,,,,,,,,,
0.0,1.0,1.731095,0.0,18.0,18.0,18.0,1.0,potpourri_03s.jpg,0.0,clock_7_7.png,3.0,74,,,,,,,,,,,,,,,,,,,,,,,,,,,,,,,,
0.0,1.0,0.70636,0.0,19.0,19.0,19.0,1.0,crossbow_10s.jpg,0.0,clock_6_1.png,4.0,74,,,,,,,,,,,,,,,,,,,,,,,,,,,,,,,,
0.0,1.0,0.68614,0.0,20.0,20.0,20.0,1.0,mannequin_05s.jpg,0.0,clock_6_2.png,4.0,74,,,,,,,,,,,,,,,,,,,,,,,,,,,,,,,,
0.0,1.0,0.842935,0.0,21.0,21.0,21.0,1.0,sparkler_02s.jpg,0.0,clock_6_3.png,4.0,74,,,,,,,,,,,,,,,,,,,,,,,,,,,,,,,,
0.0,1.0,0.62225,0.0,22.0,22.0,22.0,1.0,soda_fountain_03s.jpg,0.0,clock_6_4.png,4.0,74,,,,,,,,,,,,,,,,,,,,,,,,,,,,,,,,
0.0,1.0,0.66439,0.0,23.0,23.0,23.0,1.0,spider_web_03s.jpg,0.0,clock_6_5.png,4.0,74,,,,,,,,,,,,,,,,,,,,,,,,,,,,,,,,
0.0,1.0,0.6535,0.0,24.0,24.0,24.0,1.0,printer_09s.jpg,0.0,clock_6_6.png,4.0,74,,,,,,,,,,,,,,,,,,,,,,,,,,,,,,,,
0.0,1.0,0.757145,0.0,25.0,25.0,25.0,1.0,hyena_16s.jpg,0.0,clock_5_1.png,5.0,74,,,,,,,,,,,,,,,,,,,,,,,,,,,,,,,,
1.0,0.0,0.863525,0.0,26.0,26.0,26.0,1.0,mirror_12s.jpg,0.0,clock_5_2.png,5.0,74,,,,,,,,,,,,,,,,,,,,,,,,,,,,,,,,
0.0,1.0,0.667525,0.0,27.0,27.0,27.0,1.0,cap_05s.jpg,0.0,clock_5_3.png,5.0,74,,,,,,,,,,,,,,,,,,,,,,,,,,,,,,,,
0.0,1.0,0.84625,0.0,28.0,28.0,28.0,1.0,briefcase_03s.jpg,0.0,clock_5_4.png,5.0,74,,,,,,,,,,,,,,,,,,,,,,,,,,,,,,,,
1.0,1.0,0.62341,0.0,29.0,29.0,29.0,1.0,briefcase_03s.jpg,1.0,clock_5_5.png,5.0,74,,,,,,,,,,,,,,,,,,,,,,,,,,,,,,,,
0.0,1.0,0.778955,0.0,30.0,30.0,30.0,1.0,solar_panel_02s.jpg,0.0,clock_6_1.png,6.0,74,,,,,,,,,,,,,,,,,,,,,,,,,,,,,,,,
0.0,1.0,1.031195,0.0,31.0,31.0,31.0,1.0,turtleneck_11s.jpg,0.0,clock_6_2.png,6.0,74,,,,,,,,,,,,,,,,,,,,,,,,,,,,,,,,
0.0,1.0,1.39493,0.0,32.0,32.0,32.0,1.0,cushion_08s.jpg,0.0,clock_6_3.png,6.0,74,,,,,,,,,,,,,,,,,,,,,,,,,,,,,,,,
0.0,1.0,0.7427,0.0,33.0,33.0,33.0,1.0,stethoscope_01b.jpg,0.0,clock_6_4.png,6.0,74,,,,,,,,,,,,,,,,,,,,,,,,,,,,,,,,
0.0,0.0,0.93309,0.0,34.0,34.0,34.0,1.0,turtleneck_11s.jpg,1.0,clock_6_5.png,6.0,74,,,,,,,,,,,,,,,,,,,,,,,,,,,,,,,,
0.0,1.0,0.94869,0.0,35.0,35.0,35.0,1.0,gear_07s.jpg,0.0,clock_6_6.png,6.0,74,,,,,,,,,,,,,,,,,,,,,,,,,,,,,,,,
,,,,,,,,,1.0,,,74,0.0,0.0,1.50594,0.0,0.0,0.0,0.0,1.0,ivy_12s.jpg,prism_10s.jpg,,,,,,,,,,,,,,,,,,,,,,
,,,,,,,,,0.0,,,74,0.0,1.0,1.550475,0.0,1.0,1.0,1.0,1.0,bathtub_23s.jpg,punch2_09s.jpg,,,,,,,,,,,,,,,,,,,,,,
,,,,,,,,,1.0,,,74,0.0,0.0,1.248135,0.0,2.0,2.0,2.0,1.0,leotard_08s.jpg,limousine_12s.jpg,,,,,,,,,,,,,,,,,,,,,,
,,,,,,,,,0.0,,,74,1.0,0.0,1.52061,0.0,3.0,3.0,3.0,1.0,gear_07s.jpg,cushion_08s.jpg,,,,,,,,,,,,,,,,,,,,,,
,,,,,,,,,1.0,,,74,1.0,1.0,1.968215,0.0,4.0,4.0,4.0,1.0,crossbow_10s.jpg,soda_fountain_03s.jpg,,,,,,,,,,,,,,,,,,,,,,
,,,,,,,,,1.0,,,74,0.0,0.0,1.116955,0.0,5.0,5.0,5.0,1.0,mannequin_05s.jpg,spider_web_03s.jpg,,,,,,,,,,,,,,,,,,,,,,
0.0,1.0,2.3098,,,,,,harpoon.jpg,0.0,clockno_up.jpg,1.0,74,,,,,,,,,,,,,,,,,,0.0,0.0,0.0,0.0,1.0,,,,,,,,,,
0.0,1.0,2.26345,,,,,,blender_08s.jpg,0.0,clockno_default.jpg,1.0,74,,,,,,,,,,,,,,,,,,0.0,1.0,1.0,1.0,1.0,,,,,,,,,,
0.0,1.0,0.663945,,,,,,tube_top_03s.jpg,0.0,clockno_default.jpg,1.0,74,,,,,,,,,,,,,,,,,,0.0,2.0,2.0,2.0,1.0,,,,,,,,,,
0.0,1.0,0.701,,,,,,rocket_02s.jpg,0.0,clockno_default.jpg,1.0,74,,,,,,,,,,,,,,,,,,0.0,3.0,3.0,3.0,1.0,,,,,,,,,,
0.0,1.0,1.571385,,,,,,bonsai_07s.jpg,0.0,clockno_default.jpg,1.0,74,,,,,,,,,,,,,,,,,,0.0,4.0,4.0,4.0,1.0,,,,,,,,,,
1.0,1.0,1.26476,,,,,,blender_08s.jpg,1.0,clockno_default.jpg,1.0,74,,,,,,,,,,,,,,,,,,0.0,5.0,5.0,5.0,1.0,,,,,,,,,,
0.0,1.0,1.442995,,,,,,kayak_08s.jpg,0.0,clockno_up.jpg,2.0,74,,,,,,,,,,,,,,,,,,0.0,6.0,6.0,6.0,1.0,,,,,,,,,,
0.0,1.0,1.284715,,,,,,oil_02s.jpg,0.0,clockno_default.jpg,2.0,74,,,,,,,,,,,,,,,,,,0.0,7.0,7.0,7.0,1.0,,,,,,,,,,
0.0,1.0,1.27934,,,,,,petri_dish_12s.jpg,0.0,clockno_default.jpg,2.0,74,,,,,,,,,,,,,,,,,,0.0,8.0,8.0,8.0,1.0,,,,,,,,,,
0.0,1.0,1.15104,,,,,,ant_12s.jpg,0.0,clockno_default.jpg,2.0,74,,,,,,,,,,,,,,,,,,0.0,9.0,9.0,9.0,1.0,,,,,,,,,,
0.0,1.0,1.023345,,,,,,tile_08s.jpg,0.0,clockno_default.jpg,2.0,74,,,,,,,,,,,,,,,,,,0.0,10.0,10.0,10.0,1.0,,,,,,,,,,
0.0,1.0,0.638295,,,,,,piano_13n.jpg,0.0,clockno_up.jpg,3.0,74,,,,,,,,,,,,,,,,,,0.0,11.0,11.0,11.0,1.0,,,,,,,,,,
0.0,1.0,0.99885,,,,,,beaker_01b.jpg,0.0,clockno_default.jpg,3.0,74,,,,,,,,,,,,,,,,,,0.0,12.0,12.0,12.0,1.0,,,,,,,,,,
0.0,1.0,0.51782,,,,,,ladder_15s.jpg,0.0,clockno_default.jpg,3.0,74,,,,,,,,,,,,,,,,,,0.0,13.0,13.0,13.0,1.0,,,,,,,,,,
0.0,1.0,0.55581,,,,,,abacus_12s.jpg,0.0,clockno_default.jpg,3.0,74,,,,,,,,,,,,,,,,,,0.0,14.0,14.0,14.0,1.0,,,,,,,,,,
0.0,1.0,0.654225,,,,,,puck_06s.jpg,0.0,clockno_default.jpg,3.0,74,,,,,,,,,,,,,,,,,,0.0,15.0,15.0,15.0,1.0,,,,,,,,,,
0.0,1.0,0.568535,,,,,,breadstick_08s.jpg,0.0,clockno_default.jpg,3.0,74,,,,,,,,,,,,,,,,,,0.0,16.0,16.0,16.0,1.0,,,,,,,,,,
0.0,1.0,0.56741,,,,,,mailbox_11s.jpg,0.0,clockno_up.jpg,4.0,74,,,,,,,,,,,,,,,,,,0.0,17.0,17.0,17.0,1.0,,,,,,,,,,
0.0,1.0,0.54183,,,,,,amber_04s.jpg,0.0,clockno_default.jpg,4.0,74,,,,,,,,,,,,,,,,,,0.0,18.0,18.0,18.0,1.0,,,,,,,,,,
0.0,1.0,0.660125,,,,,,fishhook_06s.jpg,0.0,clockno_default.jpg,4.0,74,,,,,,,,,,,,,,,,,,0.0,19.0,19.0,19.0,1.0,,,,,,,,,,
0.0,1.0,0.56596,,,,,,ukulele_02s.jpg,0.0,clockno_default.jpg,4.0,74,,,,,,,,,,,,,,,,,,0.0,20.0,20.0,20.0,1.0,,,,,,,,,,
0.0,1.0,0.57417,,,,,,juicer1_08s.jpg,0.0,clockno_default.jpg,4.0,74,,,,,,,,,,,,,,,,,,0.0,21.0,21.0,21.0,1.0,,,,,,,,,,
0.0,1.0,0.745165,,,,,,glue_01s.jpg,0.0,clockno_up.jpg,5.0,74,,,,,,,,,,,,,,,,,,0.0,22.0,22.0,22.0,1.0,,,,,,,,,,
0.0,1.0,0.64179,,,,,,stump_02s.jpg,0.0,clockno_default.jpg,5.0,74,,,,,,,,,,,,,,,,,,0.0,23.0,23.0,23.0,1.0,,,,,,,,,,
1.0,1.0,0.826395,,,,,,stump_02s.jpg,1.0,clockno_default.jpg,5.0,74,,,,,,,,,,,,,,,,,,0.0,24.0,24.0,24.0,1.0,,,,,,,,,,
1.0,1.0,0.88781,,,,,,stump_02s.jpg,1.0,clockno_default.jpg,5.0,74,,,,,,,,,,,,,,,,,,0.0,25.0,25.0,25.0,1.0,,,,,,,,,,
0.0,1.0,0.8006,,,,,,tube_top_03s.jpg,0.0,clockno_default.jpg,5.0,74,,,,,,,,,,,,,,,,,,0.0,26.0,26.0,26.0,1.0,,,,,,,,,,
0.0,1.0,2.019185,,,,,,red_carpet_03s.jpg,0.0,clockno_default.jpg,5.0,74,,,,,,,,,,,,,,,,,,0.0,27.0,27.0,27.0,1.0,,,,,,,,,,
0.0,1.0,2.313435,,,,,,harpoon.jpg,0.0,clockno_default.jpg,5.0,74,,,,,,,,,,,,,,,,,,0.0,28.0,28.0,28.0,1.0,,,,,,,,,,
0.0,1.0,0.75712,,,,,,paintbrush_04s.jpg,0.0,clockno_up.jpg,6.0,74,,,,,,,,,,,,,,,,,,0.0,29.0,29.0,29.0,1.0,,,,,,,,,,
0.0,1.0,0.64161,,,,,,bank_06s.jpg,0.0,clockno_default.jpg,6.0,74,,,,,,,,,,,,,,,,,,0.0,30.0,30.0,30.0,1.0,,,,,,,,,,
0.0,1.0,0.69521,,,,,,doily_13s.jpg,0.0,clockno_default.jpg,6.0,74,,,,,,,,,,,,,,,,,,0.0,31.0,31.0,31.0,1.0,,,,,,,,,,
0.0,1.0,0.627295,,,,,,pocketknife_12s.jpg,0.0,clockno_default.jpg,6.0,74,,,,,,,,,,,,,,,,,,0.0,32.0,32.0,32.0,1.0,,,,,,,,,,
1.0,1.0,1.26368,,,,,,paintbrush_04s.jpg,1.0,clockno_default.jpg,6.0,74,,,,,,,,,,,,,,,,,,0.0,33.0,33.0,33.0,1.0,,,,,,,,,,
0.0,1.0,0.69276,,,,,,hummingbird_05s.jpg,0.0,clockno_default.jpg,6.0,74,,,,,,,,,,,,,,,,,,0.0,34.0,34.0,34.0,1.0,,,,,,,,,,
0.0,1.0,0.9662,,,,,,abacus_12s.jpg,0.0,clockno_default.jpg,6.0,74,,,,,,,,,,,,,,,,,,0.0,35.0,35.0,35.0,1.0,,,,,,,,,,
,,,,,,,,,1.0,,,74,0.0,0.0,1.68889,,,,,,petri_dish_12s.jpg,piano_13n.jpg,,,,,,,,,,,,,0.0,0.0,0.0,0.0,1.0,,,,,
,,,,,,,,,1.0,,,74,0.0,0.0,1.825615,,,,,,fishhook_06s.jpg,glue_01s.jpg,,,,,,,,,,,,,0.0,1.0,1.0,1.0,1.0,,,,,
,,,,,,,,,0.0,,,74,0.0,1.0,1.46269,,,,,,bank_06s.jpg,red_carpet_03s.jpg,,,,,,,,,,,,,0.0,2.0,2.0,2.0,1.0,,,,,
,,,,,,,,,0.0,,,74,0.0,1.0,1.76598,,,,,,ukulele_02s.jpg,mailbox_11s.jpg,,,,,,,,,,,,,0.0,3.0,3.0,3.0,1.0,,,,,
,,,,,,,,,0.0,,,74,0.0,1.0,2.030995,,,,,,hummingbird_05s.jpg,doily_13s.jpg,,,,,,,,,,,,,0.0,4.0,4.0,4.0,1.0,,,,,
,,,,,,,,,1.0,,,74,1.0,1.0,1.212075,,,,,,amber_04s.jpg,juicer1_08s.jpg,,,,,,,,,,,,,0.0,5.0,5.0,5.0,1.0,,,,,
,,,,,,,,,,,,74,,,,,,,,,,,,,,,,clockno_present_1_13.xlsx,clockno_compare_task_1_13.xlsx,,,,,,,,,,,0.0,0.0,0.0,0.0,1.0
0.0,1.0,1.611525,,,,,,lemonade_04s.jpg,0.0,clockno_up.jpg,1.0,74,,,,,,,,,,,,,,,,,,0.0,0.0,0.0,0.0,1.0,,,,,,,,,,
0.0,1.0,0.750195,,,,,,toilet_paper_12s.jpg,0.0,clockno_default.jpg,1.0,74,,,,,,,,,,,,,,,,,,0.0,1.0,1.0,1.0,1.0,,,,,,,,,,
0.0,1.0,0.936665,,,,,,teacup_07s.jpg,0.0,clockno_default.jpg,1.0,74,,,,,,,,,,,,,,,,,,0.0,2.0,2.0,2.0,1.0,,,,,,,,,,
1.0,1.0,1.046825,,,,,,toilet_paper_12s.jpg,1.0,clockno_default.jpg,1.0,74,,,,,,,,,,,,,,,,,,0.0,3.0,3.0,3.0,1.0,,,,,,,,,,
0.0,1.0,0.738645,,,,,,ice-cream_cone_06s.jpg,0.0,clockno_default.jpg,1.0,74,,,,,,,,,,,,,,,,,,0.0,4.0,4.0,4.0,1.0,,,,,,,,,,
0.0,1.0,0.57378,,,,,,loveseat_08s.jpg,0.0,clockno_default.jpg,1.0,74,,,,,,,,,,,,,,,,,,0.0,5.0,5.0,5.0,1.0,,,,,,,,,,
0.0,1.0,0.723445,,,,,,otter_05s.jpg,0.0,clockno_up.jpg,2.0,74,,,,,,,,,,,,,,,,,,0.0,6.0,6.0,6.0,1.0,,,,,,,,,,
0.0,1.0,0.62976,,,,,,rope_16s.jpg,0.0,clockno_default.jpg,2.0,74,,,,,,,,,,,,,,,,,,0.0,7.0,7.0,7.0,1.0,,,,,,,,,,
0.0,1.0,0.61632,,,,,,raccoon_02s.jpg,0.0,clockno_default.jpg,2.0,74,,,,,,,,,,,,,,,,,,0.0,8.0,8.0,8.0,1.0,,,,,,,,,,
0.0,1.0,0.535455,,,,,,light_switch_02s.jpg,0.0,clockno_default.jpg,2.0,74,,,,,,,,,,,,,,,,,,0.0,9.0,9.0,9.0,1.0,,,,,,,,,,
0.0,1.0,0.573325,,,,,,smokingpipe.jpg,0.0,clockno_default.jpg,2.0,74,,,,,,,,,,,,,,,,,,0.0,10.0,10.0,10.0,1.0,,,,,,,,,,
0.0,1.0,0.60086,,,,,,radio_09s.jpg,0.0,clockno_default.jpg,2.0,74,,,,,,,,,,,,,,,,,,0.0,11.0,11.0,11.0,1.0,,,,,,,,,,
0.0,1.0,1.50725,,,,,,razor_blade_01b.jpg,0.0,clockno_up.jpg,3.0,74,,,,,,,,,,,,,,,,,,0.0,12.0,12.0,12.0,1.0,,,,,,,,,,
0.0,1.0,0.574435,,,,,,sugar_cube_11s.jpg,0.0,clockno_default.jpg,3.0,74,,,,,,,,,,,,,,,,,,0.0,13.0,13.0,13.0,1.0,,,,,,,,,,
0.0,1.0,0.751995,,,,,,ravioli_08s.jpg,0.0,clockno_default.jpg,3.0,74,,,,,,,,,,,,,,,,,,0.0,14.0,14.0,14.0,1.0,,,,,,,,,,
0.0,1.0,0.651945,,,,,,compass_10n.jpg,0.0,clockno_default.jpg,3.0,74,,,,,,,,,,,,,,,,,,0.0,15.0,15.0,15.0,1.0,,,,,,,,,,
0.0,1.0,0.71014,,,,,,memory_stick_11s.jpg,0.0,clockno_default.jpg,3.0,74,,,,,,,,,,,,,,,,,,0.0,16.0,16.0,16.0,1.0,,,,,,,,,,
0.0,1.0,0.822745,,,,,,pancake_12s.jpg,0.0,clockno_up.jpg,4.0,74,,,,,,,,,,,,,,,,,,0.0,17.0,17.0,17.0,1.0,,,,,,,,,,
0.0,1.0,0.598045,,,,,,quill_09s.jpg,0.0,clockno_default.jpg,4.0,74,,,,,,,,,,,,,,,,,,0.0,18.0,18.0,18.0,1.0,,,,,,,,,,
0.0,1.0,0.661515,,,,,,footprint_11s.jpg,0.0,clockno_default.jpg,4.0,74,,,,,,,,,,,,,,,,,,0.0,19.0,19.0,19.0,1.0,,,,,,,,,,
0.0,1.0,0.66093,,,,,,gas_mask_11s.jpg,0.0,clockno_default.jpg,4.0,74,,,,,,,,,,,,,,,,,,0.0,20.0,20.0,20.0,1.0,,,,,,,,,,
1.0,1.0,0.943655,,,,,,pancake_12s.jpg,1.0,clockno_default.jpg,4.0,74,,,,,,,,,,,,,,,,,,0.0,21.0,21.0,21.0,1.0,,,,,,,,,,
0.0,1.0,0.61302,,,,,,crayon_09s.jpg,0.0,clockno_default.jpg,4.0,74,,,,,,,,,,,,,,,,,,0.0,22.0,22.0,22.0,1.0,,,,,,,,,,
0.0,0.0,0.618085,,,,,,footprint_11s.jpg,1.0,clockno_default.jpg,4.0,74,,,,,,,,,,,,,,,,,,0.0,23.0,23.0,23.0,1.0,,,,,,,,,,
0.0,1.0,1.217855,,,,,,pinwheel_06s.jpg,0.0,clockno_up.jpg,5.0,74,,,,,,,,,,,,,,,,,,0.0,24.0,24.0,24.0,1.0,,,,,,,,,,
0.0,1.0,0.50916,,,,,,lectern_08s.jpg,0.0,clockno_default.jpg,5.0,74,,,,,,,,,,,,,,,,,,0.0,25.0,25.0,25.0,1.0,,,,,,,,,,
0.0,1.0,0.66341,,,,,,puffin_19s.jpg,0.0,clockno_default.jpg,5.0,74,,,,,,,,,,,,,,,,,,0.0,26.0,26.0,26.0,1.0,,,,,,,,,,
0.0,1.0,0.587335,,,,,,peach_04s.jpg,0.0,clockno_default.jpg,5.0,74,,,,,,,,,,,,,,,,,,0.0,27.0,27.0,27.0,1.0,,,,,,,,,,
0.0,1.0,0.603815,,,,,,raccoon_02s.jpg,0.0,clockno_default.jpg,5.0,74,,,,,,,,,,,,,,,,,,0.0,28.0,28.0,28.0,1.0,,,,,,,,,,
1.0,0.0,1.276485,,,,,,gas_mask_11s.jpg,0.0,clockno_default.jpg,5.0,74,,,,,,,,,,,,,,,,,,0.0,29.0,29.0,29.0,1.0,,,,,,,,,,
0.0,1.0,0.807945,,,,,,bubble_01b.jpg,0.0,clockno_default.jpg,5.0,74,,,,,,,,,,,,,,,,,,0.0,30.0,30.0,30.0,1.0,,,,,,,,,,
0.0,1.0,0.774155,,,,,,pillbox_04s.jpg,0.0,clockno_up.jpg,6.0,74,,,,,,,,,,,,,,,,,,0.0,31.0,31.0,31.0,1.0,,,,,,,,,,
0.0,1.0,0.882825,,,,,,chopsticks_08s.jpg,0.0,clockno_default.jpg,6.0,74,,,,,,,,,,,,,,,,,,0.0,32.0,32.0,32.0,1.0,,,,,,,,,,
0.0,1.0,0.794035,,,,,,lizard_10n.jpg,0.0,clockno_default.jpg,6.0,74,,,,,,,,,,,,,,,,,,0.0,33.0,33.0,33.0,1.0,,,,,,,,,,
0.0,1.0,1.35929,,,,,,mattress_01s.jpg,0.0,clockno_default.jpg,6.0,74,,,,,,,,,,,,,,,,,,0.0,34.0,34.0,34.0,1.0,,,,,,,,,,
0.0,1.0,0.59578,,,,,,jukebox_03n.jpg,0.0,clockno_default.jpg,6.0,74,,,,,,,,,,,,,,,,,,0.0,35.0,35.0,35.0,1.0,,,,,,,,,,
,,,,,,,,,0.0,,,74,1.0,0.0,1.22876,,,,,,ravioli_08s.jpg,radio_09s.jpg,,,,,,,,,,,,,0.0,0.0,0.0,0.0,1.0,,,,,
,,,,,,,,,0.0,,,74,0.0,1.0,1.79246,,,,,,lectern_08s.jpg,crayon_09s.jpg,,,,,,,,,,,,,0.0,1.0,1.0,1.0,1.0,,,,,
,,,,,,,,,1.0,,,74,1.0,1.0,1.58998,,,,,,ice-cream_cone_06s.jpg,rope_16s.jpg,,,,,,,,,,,,,0.0,2.0,2.0,2.0,1.0,,,,,
,,,,,,,,,1.0,,,74,0.0,0.0,1.241125,,,,,,teacup_07s.jpg,loveseat_08s.jpg,,,,,,,,,,,,,0.0,3.0,3.0,3.0,1.0,,,,,
,,,,,,,,,1.0,,,74,1.0,1.0,1.551885,,,,,,pinwheel_06s.jpg,peach_04s.jpg,,,,,,,,,,,,,0.0,4.0,4.0,4.0,1.0,,,,,
,,,,,,,,,0.0,,,74,1.0,0.0,1.444825,,,,,,mattress_01s.jpg,pillbox_04s.jpg,,,,,,,,,,,,,0.0,5.0,5.0,5.0,1.0,,,,,
,,,,,,,,,,,,74,,,,,,,,,,,,,,,,clockno_present_2_13.xlsx,clockno_compare_task_2_13.xlsx,,,,,,,,,,,0.0,1.0,1.0,1.0,1.0
0.0,1.0,0.93107,,,,,,piggy_bank_02s.jpg,0.0,clockno_up.jpg,1.0,74,,,,,,,,,,,,,,,,,,0.0,0.0,0.0,0.0,1.0,,,,,,,,,,
0.0,1.0,0.659215,,,,,,powder_07s.jpg,0.0,clockno_default.jpg,1.0,74,,,,,,,,,,,,,,,,,,0.0,1.0,1.0,1.0,1.0,,,,,,,,,,
0.0,1.0,0.683805,,,,,,perfume_06s.jpg,0.0,clockno_default.jpg,1.0,74,,,,,,,,,,,,,,,,,,0.0,2.0,2.0,2.0,1.0,,,,,,,,,,
0.0,1.0,0.64227,,,,,,icemaker_10s.jpg,0.0,clockno_default.jpg,1.0,74,,,,,,,,,,,,,,,,,,0.0,3.0,3.0,3.0,1.0,,,,,,,,,,
1.0,1.0,1.8433,,,,,,powder_07s.jpg,1.0,clockno_default.jpg,1.0,74,,,,,,,,,,,,,,,,,,0.0,4.0,4.0,4.0,1.0,,,,,,,,,,
0.0,1.0,0.80803,,,,,,juicer2_06s.jpg,0.0,clockno_up.jpg,2.0,74,,,,,,,,,,,,,,,,,,0.0,5.0,5.0,5.0,1.0,,,,,,,,,,
0.0,1.0,0.618855,,,,,,olive_05s.jpg,0.0,clockno_default.jpg,2.0,74,,,,,,,,,,,,,,,,,,0.0,6.0,6.0,6.0,1.0,,,,,,,,,,
0.0,1.0,0.73408,,,,,,pretzel_09s.jpg,0.0,clockno_default.jpg,2.0,74,,,,,,,,,,,,,,,,,,0.0,7.0,7.0,7.0,1.0,,,,,,,,,,
0.0,1.0,1.02446,,,,,,totem_pole_05s.jpg,0.0,clockno_default.jpg,2.0,74,,,,,,,,,,,,,,,,,,0.0,8.0,8.0,8.0,1.0,,,,,,,,,,
1.0,1.0,0.908385,,,,,,olive_05s.jpg,1.0,clockno_default.jpg,2.0,74,,,,,,,,,,,,,,,,,,0.0,9.0,9.0,9.0,1.0,,,,,,,,,,
0.0,1.0,0.86481,,,,,,mussel_11s.jpg,0.0,clockno_default.jpg,2.0,74,,,,,,,,,,,,,,,,,,0.0,10.0,10.0,10.0,1.0,,,,,,,,,,
0.0,1.0,0.66522,,,,,,bee_20s.jpg,0.0,clockno_up.jpg,3.0,74,,,,,,,,,,,,,,,,,,0.0,11.0,11.0,11.0,1.0,,,,,,,,,,
1.0,1.0,1.069275,,,,,,bee_20s.jpg,1.0,clockno_default.jpg,3.0,74,,,,,,,,,,,,,,,,,,0.0,12.0,12.0,12.0,1.0,,,,,,,,,,
1.0,1.0,0.627765,,,,,,bee_20s.jpg,1.0,clockno_default.jpg,3.0,74,,,,,,,,,,,,,,,,,,0.0,13.0,13.0,13.0,1.0,,,,,,,,,,
0.0,1.0,0.54044,,,,,,clover_04s.jpg,0.0,clockno_default.jpg,3.0,74,,,,,,,,,,,,,,,,,,0.0,14.0,14.0,14.0,1.0,,,,,,,,,,
0.0,1.0,1.63975,,,,,,muffin_12n.jpg,0.0,clockno_default.jpg,3.0,74,,,,,,,,,,,,,,,,,,0.0,15.0,15.0,15.0,1.0,,,,,,,,,,
0.0,1.0,0.867065,,,,,,turtle_08s.jpg,0.0,clockno_default.jpg,3.0,74,,,,,,,,,,,,,,,,,,0.0,16.0,16.0,16.0,1.0,,,,,,,,,,
0.0,1.0,1.733075,,,,,,blazer_02s.jpg,0.0,clockno_default.jpg,3.0,74,,,,,,,,,,,,,,,,,,0.0,17.0,17.0,17.0,1.0,,,,,,,,,,
0.0,1.0,0.996805,,,,,,target_11s.jpg,0.0,clockno_up.jpg,4.0,74,,,,,,,,,,,,,,,,,,0.0,18.0,18.0,18.0,1.0,,,,,,,,,,
0.0,1.0,1.018405,,,,,,machine_gun_09s.jpg,0.0,clockno_default.jpg,4.0,74,,,,,,,,,,,,,,,,,,0.0,19.0,19.0,19.0,1.0,,,,,,,,,,
0.0,1.0,1.04537,,,,,,eiffeltower.jpg,0.0,clockno_default.jpg,4.0,74,,,,,,,,,,,,,,,,,,0.0,20.0,20.0,20.0,1.0,,,,,,,,,,
1.0,1.0,1.162895,,,,,,eiffeltower.jpg,1.0,clockno_default.jpg,4.0,74,,,,,,,,,,,,,,,,,,0.0,21.0,21.0,21.0,1.0,,,,,,,,,,
0.0,1.0,0.57024,,,,,,tablet_04s.jpg,0.0,clockno_default.jpg,4.0,74,,,,,,,,,,,,,,,,,,0.0,22.0,22.0,22.0,1.0,,,,,,,,,,
1.0,1.0,0.832055,,,,,,target_11s.jpg,1.0,clockno_default.jpg,4.0,74,,,,,,,,,,,,,,,,,,0.0,23.0,23.0,23.0,1.0,,,,,,,,,,
0.0,1.0,0.53285,,,,,,ram_05s.jpg,0.0,clockno_up.jpg,5.0,74,,,,,,,,,,,,,,,,,,0.0,24.0,24.0,24.0,1.0,,,,,,,,,,
0.0,1.0,0.61511,,,,,,stamp1_11s.jpg,0.0,clockno_default.jpg,5.0,74,,,,,,,,,,,,,,,,,,0.0,25.0,25.0,25.0,1.0,,,,,,,,,,
0.0,1.0,0.841715,,,,,,marker_05s.jpg,0.0,clockno_default.jpg,5.0,74,,,,,,,,,,,,,,,,,,0.0,26.0,26.0,26.0,1.0,,,,,,,,,,
0.0,1.0,0.870475,,,,,,turtle_08s.jpg,0.0,clockno_default.jpg,5.0,74,,,,,,,,,,,,,,,,,,0.0,27.0,27.0,27.0,1.0,,,,,,,,,,
0.0,1.0,0.74527,,,,,,go-kart_10s.jpg,0.0,clockno_default.jpg,5.0,74,,,,,,,,,,,,,,,,,,0.0,28.0,28.0,28.0,1.0,,,,,,,,,,
0.0,1.0,1.331955,,,,,,peanut_butter_08s.jpg,0.0,clockno_up.jpg,6.0,74,,,,,,,,,,,,,,,,,,0.0,29.0,29.0,29.0,1.0,,,,,,,,,,
0.0,1.0,0.69943,,,,,,measuring_cup_02s.jpg,0.0,clockno_default.jpg,6.0,74,,,,,,,,,,,,,,,,,,0.0,30.0,30.0,30.0,1.0,,,,,,,,,,
0.0,1.0,0.625865,,,,,,laser_pointer_02s.jpg,0.0,clockno_default.jpg,6.0,74,,,,,,,,,,,,,,,,,,0.0,31.0,31.0,31.0,1.0,,,,,,,,,,
0.0,1.0,1.527085,,,,,,marker_05s.jpg,0.0,clockno_default.jpg,6.0,74,,,,,,,,,,,,,,,,,,0.0,32.0,32.0,32.0,1.0,,,,,,,,,,
0.0,1.0,0.633745,,,,,,tuba_12s.jpg,0.0,clockno_default.jpg,6.0,74,,,,,,,,,,,,,,,,,,0.0,33.0,33.0,33.0,1.0,,,,,,,,,,
0.0,1.0,0.604485,,,,,,spoon02a.jpg,0.0,clockno_default.jpg,6.0,74,,,,,,,,,,,,,,,,,,0.0,34.0,34.0,34.0,1.0,,,,,,,,,,
0.0,1.0,0.551805,,,,,,mosquito_12s.jpg,0.0,clockno_default.jpg,6.0,74,,,,,,,,,,,,,,,,,,0.0,35.0,35.0,35.0,1.0,,,,,,,,,,
,,,,,,,,,0.0,,,74,1.0,0.0,2.14946,,,,,,juicer2_06s.jpg,perfume_06s.jpg,,,,,,,,,,,,,0.0,0.0,0.0,0.0,1.0,,,,,
,,,,,,,,,0.0,,,74,0.0,1.0,1.68755,,,,,,stamp1_11s.jpg,tablet_04s.jpg,,,,,,,,,,,,,0.0,1.0,1.0,1.0,1.0,,,,,
,,,,,,,,,0.0,,,74,0.0,1.0,1.467075,,,,,,laser_pointer_02s.jpg,go-kart_10s.jpg,,,,,,,,,,,,,0.0,2.0,2.0,2.0,1.0,,,,,
,,,,,,,,,1.0,,,74,0.0,0.0,1.228995,,,,,,piggy_bank_02s.jpg,icemaker_10s.jpg,,,,,,,,,,,,,0.0,3.0,3.0,3.0,1.0,,,,,
,,,,,,,,,0.0,,,74,0.0,1.0,1.15941,,,,,,mussel_11s.jpg,pretzel_09s.jpg,,,,,,,,,,,,,0.0,4.0,4.0,4.0,1.0,,,,,
,,,,,,,,,0.0,,,74,0.0,1.0,1.23015,,,,,,blazer_02s.jpg,clover_04s.jpg,,,,,,,,,,,,,0.0,5.0,5.0,5.0,1.0,,,,,
,,,,,,,,,,,,74,,,,,,,,,,,,,,,,clockno_present_3_13.xlsx,clockno_compare_task_3_13.xlsx,,,,,,,,,,,0.0,2.0,2.0,2.0,1.0
0.0,1.0,0.926545,,,,,,penguin_16s.jpg,0.0,clockno_up.jpg,1.0,74,,,,,,,,,,,,,,,,,,0.0,0.0,0.0,0.0,1.0,,,,,,,,,,
1.0,1.0,0.529315,,,,,,penguin_16s.jpg,1.0,clockno_default.jpg,1.0,74,,,,,,,,,,,,,,,,,,0.0,1.0,1.0,1.0,1.0,,,,,,,,,,
1.0,1.0,0.457235,,,,,,penguin_16s.jpg,1.0,clockno_default.jpg,1.0,74,,,,,,,,,,,,,,,,,,0.0,2.0,2.0,2.0,1.0,,,,,,,,,,
1.0,1.0,0.610865,,,,,,penguin_16s.jpg,1.0,clockno_default.jpg,1.0,74,,,,,,,,,,,,,,,,,,0.0,3.0,3.0,3.0,1.0,,,,,,,,,,
0.0,1.0,0.639125,,,,,,tripod_01b.jpg,0.0,clockno_default.jpg,1.0,74,,,,,,,,,,,,,,,,,,0.0,4.0,4.0,4.0,1.0,,,,,,,,,,
0.0,1.0,0.936545,,,,,,touchpad_11s.jpg,0.0,clockno_default.jpg,1.0,74,,,,,,,,,,,,,,,,,,0.0,5.0,5.0,5.0,1.0,,,,,,,,,,
0.0,1.0,0.86388,,,,,,possum_09s.jpg,0.0,clockno_up.jpg,2.0,74,,,,,,,,,,,,,,,,,,0.0,6.0,6.0,6.0,1.0,,,,,,,,,,
0.0,1.0,0.56612,,,,,,frame_06s.jpg,0.0,clockno_default.jpg,2.0,74,,,,,,,,,,,,,,,,,,0.0,7.0,7.0,7.0,1.0,,,,,,,,,,
0.0,1.0,1.193275,,,,,,submarine_11n.jpg,0.0,clockno_default.jpg,2.0,74,,,,,,,,,,,,,,,,,,0.0,8.0,8.0,8.0,1.0,,,,,,,,,,
0.0,1.0,0.817215,,,,,,squirt_gun_03s.jpg,0.0,clockno_default.jpg,2.0,74,,,,,,,,,,,,,,,,,,0.0,9.0,9.0,9.0,1.0,,,,,,,,,,
0.0,1.0,0.566965,,,,,,screwdriver02a.jpg,0.0,clockno_default.jpg,2.0,74,,,,,,,,,,,,,,,,,,0.0,10.0,10.0,10.0,1.0,,,,,,,,,,
0.0,1.0,0.62394,,,,,,icicle_04s.jpg,0.0,clockno_default.jpg,2.0,74,,,,,,,,,,,,,,,,,,0.0,11.0,11.0,11.0,1.0,,,,,,,,,,
0.0,1.0,0.64769,,,,,,radiator_05s.jpg,0.0,clockno_up.jpg,3.0,74,,,,,,,,,,,,,,,,,,0.0,12.0,12.0,12.0,1.0,,,,,,,,,,
0.0,1.0,1.506885,,,,,,tupperware_09s.jpg,0.0,clockno_default.jpg,3.0,74,,,,,,,,,,,,,,,,,,0.0,13.0,13.0,13.0,1.0,,,,,,,,,,
0.0,1.0,0.58344,,,,,,lantern_04s.jpg,0.0,clockno_default.jpg,3.0,74,,,,,,,,,,,,,,,,,,0.0,14.0,14.0,14.0,1.0,,,,,,,,,,
0.0,1.0,0.55531,,,,,,quad_04s.jpg,0.0,clockno_default.jpg,3.0,74,,,,,,,,,,,,,,,,,,0.0,15.0,15.0,15.0,1.0,,,,,,,,,,
0.0,1.0,0.57461,,,,,,tape_measure_11s.jpg,0.0,clockno_default.jpg,3.0,74,,,,,,,,,,,,,,,,,,0.0,16.0,16.0,16.0,1.0,,,,,,,,,,
0.0,1.0,0.690755,,,,,,roulette_wheel_04s.jpg,0.0,clockno_default.jpg,3.0,74,,,,,,,,,,,,,,,,,,0.0,17.0,17.0,17.0,1.0,,,,,,,,,,
0.0,1.0,1.074645,,,,,,microwave_02s.jpg,0.0,clockno_default.jpg,3.0,74,,,,,,,,,,,,,,,,,,0.0,18.0,18.0,18.0,1.0,,,,,,,,,,
0.0,1.0,1.4031,,,,,,mop_08s.jpg,0.0,clockno_up.jpg,4.0,74,,,,,,,,,,,,,,,,,,0.0,19.0,19.0,19.0,1.0,,,,,,,,,,
0.0,1.0,0.70123,,,,,,pipe1_10s.jpg,0.0,clockno_default.jpg,4.0,74,,,,,,,,,,,,,,,,,,0.0,20.0,20.0,20.0,1.0,,,,,,,,,,
0.0,1.0,0.627415,,,,,,possum_09s.jpg,0.0,clockno_default.jpg,4.0,74,,,,,,,,,,,,,,,,,,0.0,21.0,21.0,21.0,1.0,,,,,,,,,,
0.0,1.0,0.448975,,,,,,turnstile_08s.jpg,0.0,clockno_default.jpg,4.0,74,,,,,,,,,,,,,,,,,,0.0,22.0,22.0,22.0,1.0,,,,,,,,,,
0.0,1.0,0.959295,,,,,,raft_09s.jpg,0.0,clockno_default.jpg,4.0,74,,,,,,,,,,,,,,,,,,0.0,23.0,23.0,23.0,1.0,,,,,,,,,,
0.0,1.0,0.69149,,,,,,treadmill_06s.jpg,0.0,clockno_up.jpg,5.0,74,,,,,,,,,,,,,,,,,,0.0,24.0,24.0,24.0,1.0,,,,,,,,,,
0.0,1.0,0.64527,,,,,,quad_04s.jpg,0.0,clockno_default.jpg,5.0,74,,,,,,,,,,,,,,,,,,0.0,25.0,25.0,25.0,1.0,,,,,,,,,,
0.0,1.0,0.712575,,,,,,mop_08s.jpg,0.0,clockno_default.jpg,5.0,74,,,,,,,,,,,,,,,,,,0.0,26.0,26.0,26.0,1.0,,,,,,,,,,
0.0,1.0,0.815775,,,,,,pan_02s.jpg,0.0,clockno_default.jpg,5.0,74,,,,,,,,,,,,,,,,,,0.0,27.0,27.0,27.0,1.0,,,,,,,,,,
0.0,1.0,0.59148,,,,,,coconut_08s.jpg,0.0,clockno_default.jpg,5.0,74,,,,,,,,,,,,,,,,,,0.0,28.0,28.0,28.0,1.0,,,,,,,,,,
0.0,1.0,0.976645,,,,,,key_07s.jpg,0.0,clockno_default.jpg,5.0,74,,,,,,,,,,,,,,,,,,0.0,29.0,29.0,29.0,1.0,,,,,,,,,,
0.0,1.0,0.642195,,,,,,sunflower_17s.jpg,0.0,clockno_default.jpg,5.0,74,,,,,,,,,,,,,,,,,,0.0,30.0,30.0,30.0,1.0,,,,,,,,,,
0.0,1.0,0.853645,,,,,,pie_08s.jpg,0.0,clockno_up.jpg,6.0,74,,,,,,,,,,,,,,,,,,0.0,31.0,31.0,31.0,1.0,,,,,,,,,,
0.0,1.0,0.596605,,,,,,tape_06s.jpg,0.0,clockno_default.jpg,6.0,74,,,,,,,,,,,,,,,,,,0.0,32.0,32.0,32.0,1.0,,,,,,,,,,
0.0,1.0,0.78741,,,,,,rooster_03s.jpg,0.0,clockno_default.jpg,6.0,74,,,,,,,,,,,,,,,,,,0.0,33.0,33.0,33.0,1.0,,,,,,,,,,
0.0,1.0,0.52981,,,,,,meatball_13s.jpg,0.0,clockno_default.jpg,6.0,74,,,,,,,,,,,,,,,,,,0.0,34.0,34.0,34.0,1.0,,,,,,,,,,
0.0,1.0,0.536855,,,,,,mask_09s.jpg,0.0,clockno_default.jpg,6.0,74,,,,,,,,,,,,,,,,,,0.0,35.0,35.0,35.0,1.0,,,,,,,,,,
,,,,,,,,,1.0,,,74,1.0,1.0,1.43947,,,,,,squirt_gun_03s.jpg,radiator_05s.jpg,,,,,,,,,,,,,0.0,0.0,0.0,0.0,1.0,,,,,
,,,,,,,,,0.0,,,74,0.0,1.0,1.27968,,,,,,frame_06s.jpg,tripod_01b.jpg,,,,,,,,,,,,,0.0,1.0,1.0,1.0,1.0,,,,,
,,,,,,,,,0.0,,,74,0.0,1.0,1.165295,,,,,,submarine_11n.jpg,touchpad_11s.jpg,,,,,,,,,,,,,0.0,2.0,2.0,2.0,1.0,,,,,
,,,,,,,,,1.0,,,74,1.0,1.0,1.26565,,,,,,treadmill_06s.jpg,pan_02s.jpg,,,,,,,,,,,,,0.0,3.0,3.0,3.0,1.0,,,,,
,,,,,,,,,1.0,,,74,0.0,0.0,1.385025,,,,,,tupperware_09s.jpg,tape_measure_11s.jpg,,,,,,,,,,,,,0.0,4.0,4.0,4.0,1.0,,,,,
,,,,,,,,,0.0,,,74,0.0,1.0,1.015415,,,,,,raft_09s.jpg,pipe1_10s.jpg,,,,,,,,,,,,,0.0,5.0,5.0,5.0,1.0,,,,,
,,,,,,,,,,,,74,,,,,,,,,,,,,,,,clockno_present_4_13.xlsx,clockno_compare_task_4_13.xlsx,,,,,,,,,,,0.0,3.0,3.0,3.0,1.0
0.0,1.0,0.827015,,,,,,dashboard_02s.jpg,0.0,clockno_up.jpg,1.0,74,,,,,,,,,,,,,,,,,,0.0,0.0,0.0,0.0,1.0,,,,,,,,,,
0.0,1.0,0.76596,,,,,,jet_15s.jpg,0.0,clockno_default.jpg,1.0,74,,,,,,,,,,,,,,,,,,0.0,1.0,1.0,1.0,1.0,,,,,,,,,,
0.0,1.0,0.49056,,,,,,sushi_08s.jpg,0.0,clockno_default.jpg,1.0,74,,,,,,,,,,,,,,,,,,0.0,2.0,2.0,2.0,1.0,,,,,,,,,,
0.0,1.0,0.509195,,,,,,denture_03s.jpg,0.0,clockno_default.jpg,1.0,74,,,,,,,,,,,,,,,,,,0.0,3.0,3.0,3.0,1.0,,,,,,,,,,
0.0,1.0,0.691235,,,,,,ironing_board_07s.jpg,0.0,clockno_default.jpg,1.0,74,,,,,,,,,,,,,,,,,,0.0,4.0,4.0,4.0,1.0,,,,,,,,,,
0.0,0.0,0.58321,,,,,,jet_15s.jpg,1.0,clockno_default.jpg,1.0,74,,,,,,,,,,,,,,,,,,0.0,5.0,5.0,5.0,1.0,,,,,,,,,,
0.0,1.0,0.66121,,,,,,owl_15s.jpg,0.0,clockno_up.jpg,2.0,74,,,,,,,,,,,,,,,,,,0.0,6.0,6.0,6.0,1.0,,,,,,,,,,
0.0,1.0,0.646075,,,,,,plaster_cast_13s.jpg,0.0,clockno_default.jpg,2.0,74,,,,,,,,,,,,,,,,,,0.0,7.0,7.0,7.0,1.0,,,,,,,,,,
0.0,0.0,0.610215,,,,,,owl_15s.jpg,1.0,clockno_default.jpg,2.0,74,,,,,,,,,,,,,,,,,,0.0,8.0,8.0,8.0,1.0,,,,,,,,,,
0.0,1.0,0.57702,,,,,,lab_coat_11s.jpg,0.0,clockno_default.jpg,2.0,74,,,,,,,,,,,,,,,,,,0.0,9.0,9.0,9.0,1.0,,,,,,,,,,
0.0,1.0,0.542205,,,,,,mold2_04s.jpg,0.0,clockno_default.jpg,2.0,74,,,,,,,,,,,,,,,,,,0.0,10.0,10.0,10.0,1.0,,,,,,,,,,
0.0,1.0,0.61785,,,,,,umbrella_15s.jpg,0.0,clockno_default.jpg,2.0,74,,,,,,,,,,,,,,,,,,0.0,11.0,11.0,11.0,1.0,,,,,,,,,,
0.0,1.0,0.590425,,,,,,penlight_12s.jpg,0.0,clockno_up.jpg,3.0,74,,,,,,,,,,,,,,,,,,0.0,12.0,12.0,12.0,1.0,,,,,,,,,,
0.0,1.0,0.61679,,,,,,machete_06s.jpg,0.0,clockno_default.jpg,3.0,74,,,,,,,,,,,,,,,,,,0.0,13.0,13.0,13.0,1.0,,,,,,,,,,
0.0,0.0,0.597815,,,,,,penlight_12s.jpg,1.0,clockno_default.jpg,3.0,74,,,,,,,,,,,,,,,,,,0.0,14.0,14.0,14.0,1.0,,,,,,,,,,
0.0,1.0,0.68631,,,,,,keyhole_03s.jpg,0.0,clockno_default.jpg,3.0,74,,,,,,,,,,,,,,,,,,0.0,15.0,15.0,15.0,1.0,,,,,,,,,,
0.0,1.0,0.520765,,,,,,ginger_09s.jpg,0.0,clockno_default.jpg,3.0,74,,,,,,,,,,,,,,,,,,0.0,16.0,16.0,16.0,1.0,,,,,,,,,,
0.0,1.0,0.54393,,,,,,emerald_02s.jpg,0.0,clockno_up.jpg,4.0,74,,,,,,,,,,,,,,,,,,0.0,17.0,17.0,17.0,1.0,,,,,,,,,,
0.0,1.0,0.31095,,,,,,torch_02s.jpg,0.0,clockno_default.jpg,4.0,74,,,,,,,,,,,,,,,,,,0.0,18.0,18.0,18.0,1.0,,,,,,,,,,
0.0,1.0,0.598975,,,,,,flip_flop_03s.jpg,0.0,clockno_default.jpg,4.0,74,,,,,,,,,,,,,,,,,,0.0,19.0,19.0,19.0,1.0,,,,,,,,,,
0.0,1.0,0.44446,,,,,,plunger_08s.jpg,0.0,clockno_default.jpg,4.0,74,,,,,,,,,,,,,,,,,,0.0,20.0,20.0,20.0,1.0,,,,,,,,,,
0.0,1.0,0.425525,,,,,,thorn_13s.jpg,0.0,clockno_default.jpg,4.0,74,,,,,,,,,,,,,,,,,,0.0,21.0,21.0,21.0,1.0,,,,,,,,,,
0.0,1.0,0.31414,,,,,,tongs_08s.jpg,0.0,clockno_default.jpg,4.0,74,,,,,,,,,,,,,,,,,,0.0,22.0,22.0,22.0,1.0,,,,,,,,,,
0.0,1.0,0.544125,,,,,,teapot_03s.jpg,0.0,clockno_default.jpg,4.0,74,,,,,,,,,,,,,,,,,,0.0,23.0,23.0,23.0,1.0,,,,,,,,,,
0.0,1.0,0.60104,,,,,,tennis_ball_06s.jpg,0.0,clockno_up.jpg,5.0,74,,,,,,,,,,,,,,,,,,0.0,24.0,24.0,24.0,1.0,,,,,,,,,,
0.0,1.0,0.976305,,,,,,penlight_12s.jpg,0.0,clockno_default.jpg,5.0,74,,,,,,,,,,,,,,,,,,0.0,25.0,25.0,25.0,1.0,,,,,,,,,,
0.0,1.0,0.574415,,,,,,dynamite_01b.jpg,0.0,clockno_default.jpg,5.0,74,,,,,,,,,,,,,,,,,,0.0,26.0,26.0,26.0,1.0,,,,,,,,,,
0.0,1.0,0.640745,,,,,,rhubarb_03s.jpg,0.0,clockno_default.jpg,5.0,74,,,,,,,,,,,,,,,,,,0.0,27.0,27.0,27.0,1.0,,,,,,,,,,
0.0,1.0,0.53969,,,,,,mango_09s.jpg,0.0,clockno_default.jpg,5.0,74,,,,,,,,,,,,,,,,,,0.0,28.0,28.0,28.0,1.0,,,,,,,,,,
0.0,1.0,0.514135,,,,,,pear_02s.jpg,0.0,clockno_default.jpg,5.0,74,,,,,,,,,,,,,,,,,,0.0,29.0,29.0,29.0,1.0,,,,,,,,,,
0.0,1.0,0.945525,,,,,,tongs_08s.jpg,0.0,clockno_default.jpg,5.0,74,,,,,,,,,,,,,,,,,,0.0,30.0,30.0,30.0,1.0,,,,,,,,,,
0.0,1.0,0.49789,,,,,,rock_08s.jpg,0.0,clockno_up.jpg,6.0,74,,,,,,,,,,,,,,,,,,0.0,31.0,31.0,31.0,1.0,,,,,,,,,,
1.0,1.0,0.766635,,,,,,rock_08s.jpg,1.0,clockno_default.jpg,6.0,74,,,,,,,,,,,,,,,,,,0.0,32.0,32.0,32.0,1.0,,,,,,,,,,
0.0,1.0,0.507245,,,,,,sunglasses_11s.jpg,0.0,clockno_default.jpg,6.0,74,,,,,,,,,,,,,,,,,,0.0,33.0,33.0,33.0,1.0,,,,,,,,,,
0.0,1.0,0.58487,,,,,,phone_01b.jpg,0.0,clockno_default.jpg,6.0,74,,,,,,,,,,,,,,,,,,0.0,34.0,34.0,34.0,1.0,,,,,,,,,,
1.0,1.0,0.71593,,,,,,phone_01b.jpg,1.0,clockno_default.jpg,6.0,74,,,,,,,,,,,,,,,,,,0.0,35.0,35.0,35.0,1.0,,,,,,,,,,
,,,,,,,,,1.0,,,74,0.0,0.0,1.706335,,,,,,ironing_board_07s.jpg,plaster_cast_13s.jpg,,,,,,,,,,,,,0.0,0.0,0.0,0.0,1.0,,,,,
,,,,,,,,,0.0,,,74,1.0,0.0,1.360395,,,,,,torch_02s.jpg,keyhole_03s.jpg,,,,,,,,,,,,,0.0,1.0,1.0,1.0,1.0,,,,,
,,,,,,,,,0.0,,,74,1.0,0.0,1.495055,,,,,,flip_flop_03s.jpg,ginger_09s.jpg,,,,,,,,,,,,,0.0,2.0,2.0,2.0,1.0,,,,,
,,,,,,,,,1.0,,,74,0.0,0.0,1.08579,,,,,,dashboard_02s.jpg,denture_03s.jpg,,,,,,,,,,,,,0.0,3.0,3.0,3.0,1.0,,,,,
,,,,,,,,,0.0,,,74,1.0,0.0,1.02783,,,,,,plunger_08s.jpg,emerald_02s.jpg,,,,,,,,,,,,,0.0,4.0,4.0,4.0,1.0,,,,,
,,,,,,,,,1.0,,,74,1.0,1.0,1.03188,,,,,,tennis_ball_06s.jpg,rhubarb_03s.jpg,,,,,,,,,,,,,0.0,5.0,5.0,5.0,1.0,,,,,
,,,,,,,,,,,,74,,,,,,,,,,,,,,,,clockno_present_5_13.xlsx,clockno_compare_task_5_13.xlsx,,,,,,,,,,,0.0,4.0,4.0,4.0,1.0
0.0,1.0,0.863135,,,,,,kilt_18s.jpg,0.0,clockno_up.jpg,1.0,74,,,,,,,,,,,,,,,,,,0.0,0.0,0.0,0.0,1.0,,,,,,,,,,
1.0,1.0,0.89228,,,,,,kilt_18s.jpg,1.0,clockno_default.jpg,1.0,74,,,,,,,,,,,,,,,,,,0.0,1.0,1.0,1.0,1.0,,,,,,,,,,
0.0,1.0,0.591215,,,,,,puddle_02s.jpg,0.0,clockno_default.jpg,1.0,74,,,,,,,,,,,,,,,,,,0.0,2.0,2.0,2.0,1.0,,,,,,,,,,
0.0,1.0,0.80049,,,,,,ladle_04s.jpg,0.0,clockno_default.jpg,1.0,74,,,,,,,,,,,,,,,,,,0.0,3.0,3.0,3.0,1.0,,,,,,,,,,
0.0,1.0,0.59935,,,,,,mud_13s.jpg,0.0,clockno_default.jpg,1.0,74,,,,,,,,,,,,,,,,,,0.0,4.0,4.0,4.0,1.0,,,,,,,,,,
0.0,1.0,0.65607,,,,,,popcorn_09s.jpg,0.0,clockno_up.jpg,2.0,74,,,,,,,,,,,,,,,,,,0.0,5.0,5.0,5.0,1.0,,,,,,,,,,
1.0,0.0,0.732735,,,,,,kilt_18s.jpg,0.0,clockno_default.jpg,2.0,74,,,,,,,,,,,,,,,,,,0.0,6.0,6.0,6.0,1.0,,,,,,,,,,
0.0,1.0,0.76134,,,,,,lip_gloss_06s.jpg,0.0,clockno_default.jpg,2.0,74,,,,,,,,,,,,,,,,,,0.0,7.0,7.0,7.0,1.0,,,,,,,,,,
0.0,1.0,0.659535,,,,,,bottle_opener_11s.jpg,0.0,clockno_default.jpg,2.0,74,,,,,,,,,,,,,,,,,,0.0,8.0,8.0,8.0,1.0,,,,,,,,,,
0.0,1.0,1.04201,,,,,,cape_11s.jpg,0.0,clockno_default.jpg,2.0,74,,,,,,,,,,,,,,,,,,0.0,9.0,9.0,9.0,1.0,,,,,,,,,,
0.0,1.0,0.73581,,,,,,puddle_02s.jpg,0.0,clockno_default.jpg,2.0,74,,,,,,,,,,,,,,,,,,0.0,10.0,10.0,10.0,1.0,,,,,,,,,,
0.0,1.0,0.806155,,,,,,mushroom_10n.jpg,0.0,clockno_default.jpg,2.0,74,,,,,,,,,,,,,,,,,,0.0,11.0,11.0,11.0,1.0,,,,,,,,,,
0.0,1.0,0.819735,,,,,,paper_bag_12s.jpg,0.0,clockno_up.jpg,3.0,74,,,,,,,,,,,,,,,,,,0.0,12.0,12.0,12.0,1.0,,,,,,,,,,
0.0,1.0,0.793685,,,,,,antenna_01b.jpg,0.0,clockno_default.jpg,3.0,74,,,,,,,,,,,,,,,,,,0.0,13.0,13.0,13.0,1.0,,,,,,,,,,
0.0,1.0,0.62916,,,,,,kangaroo_02s.jpg,0.0,clockno_default.jpg,3.0,74,,,,,,,,,,,,,,,,,,0.0,14.0,14.0,14.0,1.0,,,,,,,,,,
0.0,1.0,0.523645,,,,,,ring_03s.jpg,0.0,clockno_default.jpg,3.0,74,,,,,,,,,,,,,,,,,,0.0,15.0,15.0,15.0,1.0,,,,,,,,,,
0.0,1.0,0.46698,,,,,,pineapple_12s.jpg,0.0,clockno_default.jpg,3.0,74,,,,,,,,,,,,,,,,,,0.0,16.0,16.0,16.0,1.0,,,,,,,,,,
0.0,1.0,0.49857,,,,,,pillow_03s.jpg,0.0,clockno_default.jpg,3.0,74,,,,,,,,,,,,,,,,,,0.0,17.0,17.0,17.0,1.0,,,,,,,,,,
0.0,1.0,0.858735,,,,,,swan_11s.jpg,0.0,clockno_up.jpg,4.0,74,,,,,,,,,,,,,,,,,,0.0,18.0,18.0,18.0,1.0,,,,,,,,,,
1.0,1.0,0.726855,,,,,,swan_11s.jpg,1.0,clockno_default.jpg,4.0,74,,,,,,,,,,,,,,,,,,0.0,19.0,19.0,19.0,1.0,,,,,,,,,,
0.0,1.0,0.479425,,,,,,coat_rack_01b.jpg,0.0,clockno_default.jpg,4.0,74,,,,,,,,,,,,,,,,,,0.0,20.0,20.0,20.0,1.0,,,,,,,,,,
0.0,1.0,0.52988,,,,,,candy_cane_06s.jpg,0.0,clockno_default.jpg,4.0,74,,,,,,,,,,,,,,,,,,0.0,21.0,21.0,21.0,1.0,,,,,,,,,,
0.0,1.0,0.70834,,,,,,swimming_pool_17s.jpg,0.0,clockno_default.jpg,4.0,74,,,,,,,,,,,,,,,,,,0.0,22.0,22.0,22.0,1.0,,,,,,,,,,
0.0,1.0,0.777635,,,,,,incense_02s.jpg,0.0,clockno_default.jpg,4.0,74,,,,,,,,,,,,,,,,,,0.0,23.0,23.0,23.0,1.0,,,,,,,,,,
0.0,1.0,0.623795,,,,,,coffee_filter_10s.jpg,0.0,clockno_default.jpg,4.0,74,,,,,,,,,,,,,,,,,,0.0,24.0,24.0,24.0,1.0,,,,,,,,,,
0.0,1.0,0.77022,,,,,,scooter.jpg,0.0,clockno_up.jpg,5.0,74,,,,,,,,,,,,,,,,,,0.0,25.0,25.0,25.0,1.0,,,,,,,,,,
0.0,1.0,0.60921,,,,,,sleeping_bag_12s.jpg,0.0,clockno_default.jpg,5.0,74,,,,,,,,,,,,,,,,,,0.0,26.0,26.0,26.0,1.0,,,,,,,,,,
0.0,1.0,0.682345,,,,,,pepper_mill_03s.jpg,0.0,clockno_default.jpg,5.0,74,,,,,,,,,,,,,,,,,,0.0,27.0,27.0,27.0,1.0,,,,,,,,,,
0.0,1.0,0.583005,,,,,,gargoyle_08s.jpg,0.0,clockno_default.jpg,5.0,74,,,,,,,,,,,,,,,,,,0.0,28.0,28.0,28.0,1.0,,,,,,,,,,
0.0,1.0,0.61483,,,,,,safety_pin_02s.jpg,0.0,clockno_default.jpg,5.0,74,,,,,,,,,,,,,,,,,,0.0,29.0,29.0,29.0,1.0,,,,,,,,,,
0.0,1.0,0.60857,,,,,,omelet_07s.jpg,0.0,clockno_default.jpg,5.0,74,,,,,,,,,,,,,,,,,,0.0,30.0,30.0,30.0,1.0,,,,,,,,,,
0.0,1.0,0.854295,,,,,,rabbit_03s.jpg,0.0,clockno_up.jpg,6.0,74,,,,,,,,,,,,,,,,,,0.0,31.0,31.0,31.0,1.0,,,,,,,,,,
1.0,1.0,0.742995,,,,,,rabbit_03s.jpg,1.0,clockno_default.jpg,6.0,74,,,,,,,,,,,,,,,,,,0.0,32.0,32.0,32.0,1.0,,,,,,,,,,
1.0,1.0,0.593595,,,,,,rabbit_03s.jpg,1.0,clockno_default.jpg,6.0,74,,,,,,,,,,,,,,,,,,0.0,33.0,33.0,33.0,1.0,,,,,,,,,,
0.0,1.0,0.692765,,,,,,letter_opener_03s.jpg,0.0,clockno_default.jpg,6.0,74,,,,,,,,,,,,,,,,,,0.0,34.0,34.0,34.0,1.0,,,,,,,,,,
0.0,1.0,0.55805,,,,,,rice_12s.jpg,0.0,clockno_default.jpg,6.0,74,,,,,,,,,,,,,,,,,,0.0,35.0,35.0,35.0,1.0,,,,,,,,,,
,,,,,,,,,1.0,,,74,1.0,1.0,1.289075,,,,,,mud_13s.jpg,lip_gloss_06s.jpg,,,,,,,,,,,,,0.0,0.0,0.0,0.0,1.0,,,,,
,,,,,,,,,1.0,,,74,1.0,1.0,1.405195,,,,,,cape_11s.jpg,paper_bag_12s.jpg,,,,,,,,,,,,,0.0,1.0,1.0,1.0,1.0,,,,,
,,,,,,,,,1.0,,,74,0.0,0.0,1.349545,,,,,,swimming_pool_17s.jpg,scooter.jpg,,,,,,,,,,,,,0.0,2.0,2.0,2.0,1.0,,,,,
,,,,,,,,,0.0,,,74,1.0,0.0,1.61288,,,,,,bottle_opener_11s.jpg,popcorn_09s.jpg,,,,,,,,,,,,,0.0,3.0,3.0,3.0,1.0,,,,,
,,,,,,,,,1.0,,,74,0.0,0.0,1.36918,,,,,,antenna_01b.jpg,pineapple_12s.jpg,,,,,,,,,,,,,0.0,4.0,4.0,4.0,1.0,,,,,
,,,,,,,,,1.0,,,74,0.0,0.0,1.4717,,,,,,candy_cane_06s.jpg,coffee_filter_10s.jpg,,,,,,,,,,,,,0.0,5.0,5.0,5.0,1.0,,,,,
