key_resp.keys,key_resp.corr,key_resp.rt,noclock_loop.thisRepN,noclock_loop.thisTrialN,noclock_loop.thisN,noclock_loop.thisIndex,noclock_loop.ran,pictures,answer,clock,segment,participant,key_resp_2.keys,key_resp_2.corr,key_resp_2.rt,noclock_loop2.thisRepN,noclock_loop2.thisTrialN,noclock_loop2.thisN,noclock_loop2.thisIndex,noclock_loop2.ran,item_a,item_b,noclock_condition.thisRepN,noclock_condition.thisTrialN,noclock_condition.thisN,noclock_condition.thisIndex,noclock_condition.ran,present,compare,present_segment.thisRepN,present_segment.thisTrialN,present_segment.thisN,present_segment.thisIndex,present_segment.ran,compare_segment.thisRepN,compare_segment.thisTrialN,compare_segment.thisN,compare_segment.thisIndex,compare_segment.ran,clock_conditions.thisRepN,clock_conditions.thisTrialN,clock_conditions.thisN,clock_conditions.thisIndex,clock_conditions.ran
0.0,1.0,1.141165,0.0,0.0,0.0,0.0,1.0,marshmallow_08s.jpg,0.0,clockno_up.jpg,1.0,39,,,,,,,,,,,,,,,,,,,,,,,,,,,,,,,,
0.0,1.0,2.455785,0.0,1.0,1.0,1.0,1.0,exhaust_pipe_10s.jpg,0.0,clockno_default.jpg,1.0,39,,,,,,,,,,,,,,,,,,,,,,,,,,,,,,,,
0.0,1.0,1.07118,0.0,2.0,2.0,2.0,1.0,olive_05s.jpg,0.0,clockno_default.jpg,1.0,39,,,,,,,,,,,,,,,,,,,,,,,,,,,,,,,,
0.0,1.0,0.925955,0.0,3.0,3.0,3.0,1.0,chime_12s.jpg,0.0,clockno_default.jpg,1.0,39,,,,,,,,,,,,,,,,,,,,,,,,,,,,,,,,
0.0,1.0,0.767015,0.0,4.0,4.0,4.0,1.0,safety_pin_02s.jpg,0.0,clockno_default.jpg,1.0,39,,,,,,,,,,,,,,,,,,,,,,,,,,,,,,,,
0.0,1.0,0.755995,0.0,5.0,5.0,5.0,1.0,squirt_gun_03s.jpg,0.0,clockno_default.jpg,1.0,39,,,,,,,,,,,,,,,,,,,,,,,,,,,,,,,,
0.0,1.0,0.693065,0.0,6.0,6.0,6.0,1.0,seagull_01b.jpg,0.0,clockno_default.jpg,1.0,39,,,,,,,,,,,,,,,,,,,,,,,,,,,,,,,,
0.0,1.0,0.61661,0.0,7.0,7.0,7.0,1.0,sunflower_17s.jpg,0.0,clockno_up.jpg,2.0,39,,,,,,,,,,,,,,,,,,,,,,,,,,,,,,,,
0.0,1.0,0.601175,0.0,8.0,8.0,8.0,1.0,tile_08s.jpg,0.0,clockno_default.jpg,2.0,39,,,,,,,,,,,,,,,,,,,,,,,,,,,,,,,,
0.0,1.0,0.93158,0.0,9.0,9.0,9.0,1.0,butter_14s.jpg,0.0,clockno_default.jpg,2.0,39,,,,,,,,,,,,,,,,,,,,,,,,,,,,,,,,
1.0,1.0,1.213135,0.0,10.0,10.0,10.0,1.0,butter_14s.jpg,1.0,clockno_default.jpg,2.0,39,,,,,,,,,,,,,,,,,,,,,,,,,,,,,,,,
0.0,1.0,0.97497,0.0,11.0,11.0,11.0,1.0,safety_pin_02s.jpg,0.0,clockno_default.jpg,2.0,39,,,,,,,,,,,,,,,,,,,,,,,,,,,,,,,,
0.0,1.0,0.699645,0.0,12.0,12.0,12.0,1.0,owl_15s.jpg,0.0,clockno_default.jpg,2.0,39,,,,,,,,,,,,,,,,,,,,,,,,,,,,,,,,
0.0,1.0,0.92468,0.0,13.0,13.0,13.0,1.0,trampoline_13s.jpg,0.0,clockno_up.jpg,3.0,39,,,,,,,,,,,,,,,,,,,,,,,,,,,,,,,,
0.0,1.0,0.77867,0.0,14.0,14.0,14.0,1.0,penguin_16s.jpg,0.0,clockno_default.jpg,3.0,39,,,,,,,,,,,,,,,,,,,,,,,,,,,,,,,,
0.0,1.0,1.206325,0.0,15.0,15.0,15.0,1.0,espresso_01b.jpg,0.0,clockno_default.jpg,3.0,39,,,,,,,,,,,,,,,,,,,,,,,,,,,,,,,,
0.0,1.0,0.923345,0.0,16.0,16.0,16.0,1.0,smokingpipe.jpg,0.0,clockno_default.jpg,3.0,39,,,,,,,,,,,,,,,,,,,,,,,,,,,,,,,,
0.0,1.0,1.55976,0.0,17.0,17.0,17.0,1.0,ginger_09s.jpg,0.0,clockno_default.jpg,3.0,39,,,,,,,,,,,,,,,,,,,,,,,,,,,,,,,,
0.0,1.0,0.75369,0.0,18.0,18.0,18.0,1.0,lamb_04s.jpg,0.0,clockno_default.jpg,3.0,39,,,,,,,,,,,,,,,,,,,,,,,,,,,,,,,,
0.0,1.0,1.502205,0.0,19.0,19.0,19.0,1.0,tortilla_06s.jpg,0.0,clockno_default.jpg,3.0,39,,,,,,,,,,,,,,,,,,,,,,,,,,,,,,,,
0.0,1.0,0.681575,0.0,20.0,20.0,20.0,1.0,medal_04s.jpg,0.0,clockno_up.jpg,4.0,39,,,,,,,,,,,,,,,,,,,,,,,,,,,,,,,,
0.0,1.0,0.66653,0.0,21.0,21.0,21.0,1.0,laser_pointer_02s.jpg,0.0,clockno_default.jpg,4.0,39,,,,,,,,,,,,,,,,,,,,,,,,,,,,,,,,
0.0,1.0,0.8987,0.0,22.0,22.0,22.0,1.0,mango_09s.jpg,0.0,clockno_default.jpg,4.0,39,,,,,,,,,,,,,,,,,,,,,,,,,,,,,,,,
1.0,1.0,1.353165,0.0,23.0,23.0,23.0,1.0,medal_04s.jpg,1.0,clockno_default.jpg,4.0,39,,,,,,,,,,,,,,,,,,,,,,,,,,,,,,,,
,0.0,,0.0,24.0,24.0,24.0,1.0,fire_alarm_05s.jpg,0.0,clockno_default.jpg,4.0,39,,,,,,,,,,,,,,,,,,,,,,,,,,,,,,,,
0.0,1.0,0.716855,0.0,25.0,25.0,25.0,1.0,tape_measure_11s.jpg,0.0,clockno_up.jpg,5.0,39,,,,,,,,,,,,,,,,,,,,,,,,,,,,,,,,
0.0,1.0,0.695585,0.0,26.0,26.0,26.0,1.0,piano_13n.jpg,0.0,clockno_default.jpg,5.0,39,,,,,,,,,,,,,,,,,,,,,,,,,,,,,,,,
0.0,1.0,0.77365,0.0,27.0,27.0,27.0,1.0,harpoon.jpg,0.0,clockno_default.jpg,5.0,39,,,,,,,,,,,,,,,,,,,,,,,,,,,,,,,,
0.0,1.0,0.977325,0.0,28.0,28.0,28.0,1.0,lemonade_04s.jpg,0.0,clockno_default.jpg,5.0,39,,,,,,,,,,,,,,,,,,,,,,,,,,,,,,,,
0.0,1.0,0.86673,0.0,29.0,29.0,29.0,1.0,thumbtack_14s.jpg,0.0,clockno_default.jpg,5.0,39,,,,,,,,,,,,,,,,,,,,,,,,,,,,,,,,
0.0,1.0,0.93747,0.0,30.0,30.0,30.0,1.0,ink_08s.jpg,0.0,clockno_default.jpg,5.0,39,,,,,,,,,,,,,,,,,,,,,,,,,,,,,,,,
0.0,1.0,0.978525,0.0,31.0,31.0,31.0,1.0,pencil_sharpener_09n.jpg,0.0,clockno_up.jpg,6.0,39,,,,,,,,,,,,,,,,,,,,,,,,,,,,,,,,
0.0,1.0,0.550045,0.0,32.0,32.0,32.0,1.0,hydrant_10s.jpg,0.0,clockno_default.jpg,6.0,39,,,,,,,,,,,,,,,,,,,,,,,,,,,,,,,,
0.0,1.0,1.09845,0.0,33.0,33.0,33.0,1.0,punch1_10s.jpg,0.0,clockno_default.jpg,6.0,39,,,,,,,,,,,,,,,,,,,,,,,,,,,,,,,,
0.0,1.0,1.24824,0.0,34.0,34.0,34.0,1.0,crayon_09s.jpg,0.0,clockno_default.jpg,6.0,39,,,,,,,,,,,,,,,,,,,,,,,,,,,,,,,,
1.0,1.0,2.474395,0.0,35.0,35.0,35.0,1.0,punch1_10s.jpg,1.0,clockno_default.jpg,6.0,39,,,,,,,,,,,,,,,,,,,,,,,,,,,,,,,,
,,,,,,,,,0.0,,,39,0.0,1.0,1.880385,0.0,0.0,0.0,0.0,1.0,tile_08s.jpg,squirt_gun_03s.jpg,,,,,,,,,,,,,,,,,,,,,,
,,,,,,,,,0.0,,,39,0.0,1.0,1.88918,0.0,1.0,1.0,1.0,1.0,espresso_01b.jpg,owl_15s.jpg,,,,,,,,,,,,,,,,,,,,,,
,,,,,,,,,1.0,,,39,1.0,1.0,1.456195,0.0,2.0,2.0,2.0,1.0,tortilla_06s.jpg,mango_09s.jpg,,,,,,,,,,,,,,,,,,,,,,
,,,,,,,,,0.0,,,39,1.0,0.0,0.90961,0.0,3.0,3.0,3.0,1.0,chime_12s.jpg,marshmallow_08s.jpg,,,,,,,,,,,,,,,,,,,,,,
,,,,,,,,,1.0,,,39,1.0,1.0,5.55383,0.0,4.0,4.0,4.0,1.0,trampoline_13s.jpg,smokingpipe.jpg,,,,,,,,,,,,,,,,,,,,,,
,,,,,,,,,1.0,,,39,0.0,0.0,2.66815,0.0,5.0,5.0,5.0,1.0,penguin_16s.jpg,ginger_09s.jpg,,,,,,,,,,,,,,,,,,,,,,
,,,,,,,,,,,,39,,,,,,,,,,,0.0,0.0,0.0,0.0,1.0,clockno_present_1_18.xlsx,clockno_compare_task_1_18.xlsx,,,,,,,,,,,,,,,
0.0,1.0,1.15715,0.0,0.0,0.0,0.0,1.0,potpourri_03s.jpg,0.0,clockno_up.jpg,1.0,39,,,,,,,,,,,,,,,,,,,,,,,,,,,,,,,,
0.0,1.0,1.18309,0.0,1.0,1.0,1.0,1.0,chopsticks_08s.jpg,0.0,clockno_default.jpg,1.0,39,,,,,,,,,,,,,,,,,,,,,,,,,,,,,,,,
0.0,1.0,0.57993,0.0,2.0,2.0,2.0,1.0,slingshot_07s.jpg,0.0,clockno_default.jpg,1.0,39,,,,,,,,,,,,,,,,,,,,,,,,,,,,,,,,
0.0,1.0,1.04028,0.0,3.0,3.0,3.0,1.0,lid_10s.jpg,0.0,clockno_default.jpg,1.0,39,,,,,,,,,,,,,,,,,,,,,,,,,,,,,,,,
0.0,1.0,0.69184,0.0,4.0,4.0,4.0,1.0,bagel_15s.jpg,0.0,clockno_default.jpg,1.0,39,,,,,,,,,,,,,,,,,,,,,,,,,,,,,,,,
1.0,1.0,1.37061,0.0,5.0,5.0,5.0,1.0,potpourri_03s.jpg,1.0,clockno_default.jpg,1.0,39,,,,,,,,,,,,,,,,,,,,,,,,,,,,,,,,
0.0,1.0,0.84995,0.0,6.0,6.0,6.0,1.0,clover_04s.jpg,0.0,clockno_up.jpg,2.0,39,,,,,,,,,,,,,,,,,,,,,,,,,,,,,,,,
0.0,1.0,1.65761,0.0,7.0,7.0,7.0,1.0,dashboard_02s.jpg,0.0,clockno_default.jpg,2.0,39,,,,,,,,,,,,,,,,,,,,,,,,,,,,,,,,
1.0,1.0,0.84215,0.0,8.0,8.0,8.0,1.0,dashboard_02s.jpg,1.0,clockno_default.jpg,2.0,39,,,,,,,,,,,,,,,,,,,,,,,,,,,,,,,,
0.0,1.0,1.19993,0.0,9.0,9.0,9.0,1.0,soccer_ball_12s.jpg,0.0,clockno_default.jpg,2.0,39,,,,,,,,,,,,,,,,,,,,,,,,,,,,,,,,
0.0,1.0,1.33802,0.0,10.0,10.0,10.0,1.0,lava_02s.jpg,0.0,clockno_default.jpg,2.0,39,,,,,,,,,,,,,,,,,,,,,,,,,,,,,,,,
1.0,1.0,0.868305,0.0,11.0,11.0,11.0,1.0,dashboard_02s.jpg,1.0,clockno_default.jpg,2.0,39,,,,,,,,,,,,,,,,,,,,,,,,,,,,,,,,
0.0,1.0,1.23799,0.0,12.0,12.0,12.0,1.0,thread_08s.jpg,0.0,clockno_default.jpg,2.0,39,,,,,,,,,,,,,,,,,,,,,,,,,,,,,,,,
0.0,1.0,0.84904,0.0,13.0,13.0,13.0,1.0,bowler_hat_10s.jpg,0.0,clockno_up.jpg,3.0,39,,,,,,,,,,,,,,,,,,,,,,,,,,,,,,,,
0.0,1.0,0.570505,0.0,14.0,14.0,14.0,1.0,paintbrush_04s.jpg,0.0,clockno_default.jpg,3.0,39,,,,,,,,,,,,,,,,,,,,,,,,,,,,,,,,
0.0,1.0,0.67483,0.0,15.0,15.0,15.0,1.0,rollerskate_03s.jpg,0.0,clockno_default.jpg,3.0,39,,,,,,,,,,,,,,,,,,,,,,,,,,,,,,,,
0.0,1.0,1.251,0.0,16.0,16.0,16.0,1.0,slingshot_07s.jpg,0.0,clockno_default.jpg,3.0,39,,,,,,,,,,,,,,,,,,,,,,,,,,,,,,,,
0.0,1.0,0.86671,0.0,17.0,17.0,17.0,1.0,clover_04s.jpg,0.0,clockno_default.jpg,3.0,39,,,,,,,,,,,,,,,,,,,,,,,,,,,,,,,,
0.0,1.0,1.05066,0.0,18.0,18.0,18.0,1.0,otter_05s.jpg,0.0,clockno_up.jpg,4.0,39,,,,,,,,,,,,,,,,,,,,,,,,,,,,,,,,
0.0,1.0,1.003705,0.0,19.0,19.0,19.0,1.0,teacup_07s.jpg,0.0,clockno_default.jpg,4.0,39,,,,,,,,,,,,,,,,,,,,,,,,,,,,,,,,
0.0,1.0,0.920635,0.0,20.0,20.0,20.0,1.0,joystick_01b.jpg,0.0,clockno_default.jpg,4.0,39,,,,,,,,,,,,,,,,,,,,,,,,,,,,,,,,
0.0,1.0,1.410595,0.0,21.0,21.0,21.0,1.0,paintbrush_04s.jpg,0.0,clockno_default.jpg,4.0,39,,,,,,,,,,,,,,,,,,,,,,,,,,,,,,,,
1.0,1.0,1.11208,0.0,22.0,22.0,22.0,1.0,joystick_01b.jpg,1.0,clockno_default.jpg,4.0,39,,,,,,,,,,,,,,,,,,,,,,,,,,,,,,,,
0.0,1.0,0.98642,0.0,23.0,23.0,23.0,1.0,flask_04s.jpg,0.0,clockno_up.jpg,5.0,39,,,,,,,,,,,,,,,,,,,,,,,,,,,,,,,,
,0.0,,0.0,24.0,24.0,24.0,1.0,stapler_01b.jpg,0.0,clockno_default.jpg,5.0,39,,,,,,,,,,,,,,,,,,,,,,,,,,,,,,,,
1.0,1.0,0.759345,0.0,25.0,25.0,25.0,1.0,flask_04s.jpg,1.0,clockno_default.jpg,5.0,39,,,,,,,,,,,,,,,,,,,,,,,,,,,,,,,,
0.0,1.0,0.992775,0.0,26.0,26.0,26.0,1.0,kettle_08s.jpg,0.0,clockno_default.jpg,5.0,39,,,,,,,,,,,,,,,,,,,,,,,,,,,,,,,,
0.0,1.0,0.561245,0.0,27.0,27.0,27.0,1.0,playpen_11s.jpg,0.0,clockno_default.jpg,5.0,39,,,,,,,,,,,,,,,,,,,,,,,,,,,,,,,,
0.0,1.0,0.763585,0.0,28.0,28.0,28.0,1.0,red_carpet_03s.jpg,0.0,clockno_default.jpg,5.0,39,,,,,,,,,,,,,,,,,,,,,,,,,,,,,,,,
1.0,1.0,1.20633,0.0,29.0,29.0,29.0,1.0,kettle_08s.jpg,1.0,clockno_default.jpg,5.0,39,,,,,,,,,,,,,,,,,,,,,,,,,,,,,,,,
0.0,1.0,0.89513,0.0,30.0,30.0,30.0,1.0,oil_02s.jpg,0.0,clockno_up.jpg,6.0,39,,,,,,,,,,,,,,,,,,,,,,,,,,,,,,,,
0.0,1.0,1.170045,0.0,31.0,31.0,31.0,1.0,flask_04s.jpg,0.0,clockno_default.jpg,6.0,39,,,,,,,,,,,,,,,,,,,,,,,,,,,,,,,,
0.0,1.0,0.89148,0.0,32.0,32.0,32.0,1.0,bottle_opener_11s.jpg,0.0,clockno_default.jpg,6.0,39,,,,,,,,,,,,,,,,,,,,,,,,,,,,,,,,
0.0,1.0,0.81414,0.0,33.0,33.0,33.0,1.0,tuba_12s.jpg,0.0,clockno_default.jpg,6.0,39,,,,,,,,,,,,,,,,,,,,,,,,,,,,,,,,
0.0,1.0,0.793925,0.0,34.0,34.0,34.0,1.0,lifesaver_10s.jpg,0.0,clockno_default.jpg,6.0,39,,,,,,,,,,,,,,,,,,,,,,,,,,,,,,,,
0.0,1.0,0.95975,0.0,35.0,35.0,35.0,1.0,rocking_horse_03s.jpg,0.0,clockno_default.jpg,6.0,39,,,,,,,,,,,,,,,,,,,,,,,,,,,,,,,,
,,,,,,,,,1.0,,,39,0.0,0.0,1.811785,0.0,0.0,0.0,0.0,1.0,lava_02s.jpg,bowler_hat_10s.jpg,,,,,,,,,,,,,,,,,,,,,,
,,,,,,,,,0.0,,,39,1.0,0.0,4.959795,0.0,1.0,1.0,1.0,1.0,otter_05s.jpg,rollerskate_03s.jpg,,,,,,,,,,,,,,,,,,,,,,
,,,,,,,,,1.0,,,39,1.0,1.0,1.90412,0.0,2.0,2.0,2.0,1.0,playpen_11s.jpg,oil_02s.jpg,,,,,,,,,,,,,,,,,,,,,,
,,,,,,,,,1.0,,,39,0.0,0.0,5.16941,0.0,3.0,3.0,3.0,1.0,chopsticks_08s.jpg,bagel_15s.jpg,,,,,,,,,,,,,,,,,,,,,,
,,,,,,,,,1.0,,,39,0.0,0.0,1.3298,0.0,4.0,4.0,4.0,1.0,bottle_opener_11s.jpg,rocking_horse_03s.jpg,,,,,,,,,,,,,,,,,,,,,,
,,,,,,,,,0.0,,,39,0.0,1.0,1.357035,0.0,5.0,5.0,5.0,1.0,thread_08s.jpg,soccer_ball_12s.jpg,,,,,,,,,,,,,,,,,,,,,,
,,,,,,,,,,,,39,,,,,,,,,,,0.0,1.0,1.0,1.0,1.0,clockno_present_2_18.xlsx,clockno_compare_task_2_18.xlsx,,,,,,,,,,,,,,,
0.0,1.0,1.688135,0.0,0.0,0.0,0.0,1.0,tiger_06s.jpg,0.0,clockno_up.jpg,1.0,39,,,,,,,,,,,,,,,,,,,,,,,,,,,,,,,,
0.0,1.0,0.49239,0.0,1.0,1.0,1.0,1.0,kayak_08s.jpg,0.0,clockno_default.jpg,1.0,39,,,,,,,,,,,,,,,,,,,,,,,,,,,,,,,,
0.0,1.0,0.8397,0.0,2.0,2.0,2.0,1.0,ironing_board_07s.jpg,0.0,clockno_default.jpg,1.0,39,,,,,,,,,,,,,,,,,,,,,,,,,,,,,,,,
0.0,1.0,0.69687,0.0,3.0,3.0,3.0,1.0,lavender_10s.jpg,0.0,clockno_default.jpg,1.0,39,,,,,,,,,,,,,,,,,,,,,,,,,,,,,,,,
0.0,1.0,0.566025,0.0,4.0,4.0,4.0,1.0,onion_10s.jpg,0.0,clockno_default.jpg,1.0,39,,,,,,,,,,,,,,,,,,,,,,,,,,,,,,,,
0.0,1.0,0.68819,0.0,5.0,5.0,5.0,1.0,fireworks_18s.jpg,0.0,clockno_up.jpg,2.0,39,,,,,,,,,,,,,,,,,,,,,,,,,,,,,,,,
0.0,1.0,0.579965,0.0,6.0,6.0,6.0,1.0,fork_04s.jpg,0.0,clockno_default.jpg,2.0,39,,,,,,,,,,,,,,,,,,,,,,,,,,,,,,,,
0.0,1.0,0.7906,0.0,7.0,7.0,7.0,1.0,lantern_04s.jpg,0.0,clockno_default.jpg,2.0,39,,,,,,,,,,,,,,,,,,,,,,,,,,,,,,,,
1.0,1.0,1.45187,0.0,8.0,8.0,8.0,1.0,lantern_04s.jpg,1.0,clockno_default.jpg,2.0,39,,,,,,,,,,,,,,,,,,,,,,,,,,,,,,,,
0.0,1.0,1.089075,0.0,9.0,9.0,9.0,1.0,projector_08s.jpg,0.0,clockno_default.jpg,2.0,39,,,,,,,,,,,,,,,,,,,,,,,,,,,,,,,,
0.0,1.0,0.84493,0.0,10.0,10.0,10.0,1.0,glue_01s.jpg,0.0,clockno_up.jpg,3.0,39,,,,,,,,,,,,,,,,,,,,,,,,,,,,,,,,
0.0,1.0,1.56195,0.0,11.0,11.0,11.0,1.0,milk_02s.jpg,0.0,clockno_default.jpg,3.0,39,,,,,,,,,,,,,,,,,,,,,,,,,,,,,,,,
0.0,1.0,1.143075,0.0,12.0,12.0,12.0,1.0,coral_08s.jpg,0.0,clockno_default.jpg,3.0,39,,,,,,,,,,,,,,,,,,,,,,,,,,,,,,,,
0.0,1.0,2.37992,0.0,13.0,13.0,13.0,1.0,ladder_15s.jpg,0.0,clockno_default.jpg,3.0,39,,,,,,,,,,,,,,,,,,,,,,,,,,,,,,,,
0.0,1.0,1.01065,0.0,14.0,14.0,14.0,1.0,margarita_03s.jpg,0.0,clockno_default.jpg,3.0,39,,,,,,,,,,,,,,,,,,,,,,,,,,,,,,,,
0.0,1.0,2.000535,0.0,15.0,15.0,15.0,1.0,onion_10s.jpg,0.0,clockno_default.jpg,3.0,39,,,,,,,,,,,,,,,,,,,,,,,,,,,,,,,,
0.0,1.0,0.826635,0.0,16.0,16.0,16.0,1.0,pan_02s.jpg,0.0,clockno_default.jpg,3.0,39,,,,,,,,,,,,,,,,,,,,,,,,,,,,,,,,
0.0,1.0,1.198085,0.0,17.0,17.0,17.0,1.0,perfume_06s.jpg,0.0,clockno_up.jpg,4.0,39,,,,,,,,,,,,,,,,,,,,,,,,,,,,,,,,
0.0,1.0,1.32023,0.0,18.0,18.0,18.0,1.0,puddle_02s.jpg,0.0,clockno_default.jpg,4.0,39,,,,,,,,,,,,,,,,,,,,,,,,,,,,,,,,
0.0,1.0,1.95143,0.0,19.0,19.0,19.0,1.0,margarita_03s.jpg,0.0,clockno_default.jpg,4.0,39,,,,,,,,,,,,,,,,,,,,,,,,,,,,,,,,
0.0,1.0,1.113995,0.0,20.0,20.0,20.0,1.0,luggage_08s.jpg,0.0,clockno_default.jpg,4.0,39,,,,,,,,,,,,,,,,,,,,,,,,,,,,,,,,
0.0,1.0,1.198635,0.0,21.0,21.0,21.0,1.0,letter_opener_03s.jpg,0.0,clockno_default.jpg,4.0,39,,,,,,,,,,,,,,,,,,,,,,,,,,,,,,,,
0.0,1.0,1.173405,0.0,22.0,22.0,22.0,1.0,top_hat_11s.jpg,0.0,clockno_default.jpg,4.0,39,,,,,,,,,,,,,,,,,,,,,,,,,,,,,,,,
0.0,1.0,1.42666,0.0,23.0,23.0,23.0,1.0,turkey_10s.jpg,0.0,clockno_default.jpg,4.0,39,,,,,,,,,,,,,,,,,,,,,,,,,,,,,,,,
0.0,1.0,1.94323,0.0,24.0,24.0,24.0,1.0,inhaler_01b.jpg,0.0,clockno_up.jpg,5.0,39,,,,,,,,,,,,,,,,,,,,,,,,,,,,,,,,
0.0,1.0,1.97928,0.0,25.0,25.0,25.0,1.0,swing_set_15s.jpg,0.0,clockno_default.jpg,5.0,39,,,,,,,,,,,,,,,,,,,,,,,,,,,,,,,,
0.0,1.0,1.27377,0.0,26.0,26.0,26.0,1.0,memory_stick_11s.jpg,0.0,clockno_default.jpg,5.0,39,,,,,,,,,,,,,,,,,,,,,,,,,,,,,,,,
1.0,1.0,0.977935,0.0,27.0,27.0,27.0,1.0,inhaler_01b.jpg,1.0,clockno_default.jpg,5.0,39,,,,,,,,,,,,,,,,,,,,,,,,,,,,,,,,
0.0,1.0,1.234505,0.0,28.0,28.0,28.0,1.0,gingerbread_man_03s.jpg,0.0,clockno_default.jpg,5.0,39,,,,,,,,,,,,,,,,,,,,,,,,,,,,,,,,
0.0,1.0,0.88902,0.0,29.0,29.0,29.0,1.0,cushion_08s.jpg,0.0,clockno_default.jpg,5.0,39,,,,,,,,,,,,,,,,,,,,,,,,,,,,,,,,
0.0,1.0,1.246875,0.0,30.0,30.0,30.0,1.0,aluminum_foil_08s.jpg,0.0,clockno_up.jpg,6.0,39,,,,,,,,,,,,,,,,,,,,,,,,,,,,,,,,
,0.0,,0.0,31.0,31.0,31.0,1.0,sleeping_bag_12s.jpg,0.0,clockno_default.jpg,6.0,39,,,,,,,,,,,,,,,,,,,,,,,,,,,,,,,,
0.0,1.0,0.647775,0.0,32.0,32.0,32.0,1.0,rock_08s.jpg,0.0,clockno_default.jpg,6.0,39,,,,,,,,,,,,,,,,,,,,,,,,,,,,,,,,
0.0,1.0,0.924155,0.0,33.0,33.0,33.0,1.0,stump_02s.jpg,0.0,clockno_default.jpg,6.0,39,,,,,,,,,,,,,,,,,,,,,,,,,,,,,,,,
0.0,1.0,1.15632,0.0,34.0,34.0,34.0,1.0,road_sign_05s.jpg,0.0,clockno_default.jpg,6.0,39,,,,,,,,,,,,,,,,,,,,,,,,,,,,,,,,
0.0,1.0,1.111355,0.0,35.0,35.0,35.0,1.0,tiger_06s.jpg,0.0,clockno_default.jpg,6.0,39,,,,,,,,,,,,,,,,,,,,,,,,,,,,,,,,
,,,,,,,,,0.0,,,39,0.0,1.0,3.62096,0.0,0.0,0.0,0.0,1.0,fireworks_18s.jpg,ironing_board_07s.jpg,,,,,,,,,,,,,,,,,,,,,,
,,,,,,,,,0.0,,,39,0.0,1.0,3.076575,0.0,1.0,1.0,1.0,1.0,fork_04s.jpg,lavender_10s.jpg,,,,,,,,,,,,,,,,,,,,,,
,,,,,,,,,0.0,,,39,1.0,0.0,1.778905,0.0,2.0,2.0,2.0,1.0,coral_08s.jpg,projector_08s.jpg,,,,,,,,,,,,,,,,,,,,,,
,,,,,,,,,0.0,,,39,1.0,0.0,1.97347,0.0,3.0,3.0,3.0,1.0,ladder_15s.jpg,glue_01s.jpg,,,,,,,,,,,,,,,,,,,,,,
,,,,,,,,,0.0,,,39,1.0,0.0,1.83174,0.0,4.0,4.0,4.0,1.0,luggage_08s.jpg,perfume_06s.jpg,,,,,,,,,,,,,,,,,,,,,,
,,,,,,,,,1.0,,,39,1.0,1.0,2.069115,0.0,5.0,5.0,5.0,1.0,puddle_02s.jpg,letter_opener_03s.jpg,,,,,,,,,,,,,,,,,,,,,,
,,,,,,,,,,,,39,,,,,,,,,,,0.0,2.0,2.0,2.0,1.0,clockno_present_3_18.xlsx,clockno_compare_task_3_18.xlsx,,,,,,,,,,,,,,,
0.0,1.0,2.425205,0.0,0.0,0.0,0.0,1.0,pie_08s.jpg,0.0,clockno_up.jpg,1.0,39,,,,,,,,,,,,,,,,,,,,,,,,,,,,,,,,
0.0,1.0,0.86765,0.0,1.0,1.0,1.0,1.0,tab_09s.jpg,0.0,clockno_default.jpg,1.0,39,,,,,,,,,,,,,,,,,,,,,,,,,,,,,,,,
0.0,1.0,1.03888,0.0,2.0,2.0,2.0,1.0,umbrella_15s.jpg,0.0,clockno_default.jpg,1.0,39,,,,,,,,,,,,,,,,,,,,,,,,,,,,,,,,
1.0,1.0,0.66861,0.0,3.0,3.0,3.0,1.0,tab_09s.jpg,1.0,clockno_default.jpg,1.0,39,,,,,,,,,,,,,,,,,,,,,,,,,,,,,,,,
0.0,1.0,0.79538,0.0,4.0,4.0,4.0,1.0,quad_04s.jpg,0.0,clockno_default.jpg,1.0,39,,,,,,,,,,,,,,,,,,,,,,,,,,,,,,,,
0.0,1.0,0.66798,0.0,5.0,5.0,5.0,1.0,racehorse_03s.jpg,0.0,clockno_default.jpg,1.0,39,,,,,,,,,,,,,,,,,,,,,,,,,,,,,,,,
0.0,1.0,0.72235,0.0,6.0,6.0,6.0,1.0,jelly_bean_06s.jpg,0.0,clockno_up.jpg,2.0,39,,,,,,,,,,,,,,,,,,,,,,,,,,,,,,,,
0.0,1.0,1.51508,0.0,7.0,7.0,7.0,1.0,key_07s.jpg,0.0,clockno_default.jpg,2.0,39,,,,,,,,,,,,,,,,,,,,,,,,,,,,,,,,
,0.0,,0.0,8.0,8.0,8.0,1.0,target_11s.jpg,0.0,clockno_default.jpg,2.0,39,,,,,,,,,,,,,,,,,,,,,,,,,,,,,,,,
0.0,1.0,1.876825,0.0,9.0,9.0,9.0,1.0,air_pump_05s.jpg,0.0,clockno_default.jpg,2.0,39,,,,,,,,,,,,,,,,,,,,,,,,,,,,,,,,
1.0,0.0,0.82308,0.0,10.0,10.0,10.0,1.0,paper_bag_12s.jpg,0.0,clockno_default.jpg,2.0,39,,,,,,,,,,,,,,,,,,,,,,,,,,,,,,,,
0.0,1.0,1.082435,0.0,11.0,11.0,11.0,1.0,frame_06s.jpg,0.0,clockno_default.jpg,2.0,39,,,,,,,,,,,,,,,,,,,,,,,,,,,,,,,,
0.0,1.0,1.35602,0.0,12.0,12.0,12.0,1.0,tambourine_06s.jpg,0.0,clockno_default.jpg,2.0,39,,,,,,,,,,,,,,,,,,,,,,,,,,,,,,,,
0.0,1.0,0.760075,0.0,13.0,13.0,13.0,1.0,crate_05s.jpg,0.0,clockno_up.jpg,3.0,39,,,,,,,,,,,,,,,,,,,,,,,,,,,,,,,,
0.0,1.0,0.56927,0.0,14.0,14.0,14.0,1.0,chip_04s.jpg,0.0,clockno_default.jpg,3.0,39,,,,,,,,,,,,,,,,,,,,,,,,,,,,,,,,
0.0,1.0,0.78275,0.0,15.0,15.0,15.0,1.0,lipstick_02s.jpg,0.0,clockno_default.jpg,3.0,39,,,,,,,,,,,,,,,,,,,,,,,,,,,,,,,,
0.0,1.0,0.938005,0.0,16.0,16.0,16.0,1.0,go-kart_10s.jpg,0.0,clockno_default.jpg,3.0,39,,,,,,,,,,,,,,,,,,,,,,,,,,,,,,,,
1.0,1.0,2.044385,0.0,17.0,17.0,17.0,1.0,crate_05s.jpg,1.0,clockno_default.jpg,3.0,39,,,,,,,,,,,,,,,,,,,,,,,,,,,,,,,,
1.0,0.0,1.97763,0.0,18.0,18.0,18.0,1.0,ravioli_08s.jpg,0.0,clockno_default.jpg,3.0,39,,,,,,,,,,,,,,,,,,,,,,,,,,,,,,,,
0.0,1.0,0.694605,0.0,19.0,19.0,19.0,1.0,latch_15s.jpg,0.0,clockno_default.jpg,3.0,39,,,,,,,,,,,,,,,,,,,,,,,,,,,,,,,,
0.0,1.0,0.993845,0.0,20.0,20.0,20.0,1.0,tulip_02s.jpg,0.0,clockno_up.jpg,4.0,39,,,,,,,,,,,,,,,,,,,,,,,,,,,,,,,,
0.0,1.0,0.84763,0.0,21.0,21.0,21.0,1.0,foam_03s.jpg,0.0,clockno_default.jpg,4.0,39,,,,,,,,,,,,,,,,,,,,,,,,,,,,,,,,
0.0,1.0,0.920645,0.0,22.0,22.0,22.0,1.0,leotard_08s.jpg,0.0,clockno_default.jpg,4.0,39,,,,,,,,,,,,,,,,,,,,,,,,,,,,,,,,
0.0,1.0,0.77134,0.0,23.0,23.0,23.0,1.0,blender_08s.jpg,0.0,clockno_default.jpg,4.0,39,,,,,,,,,,,,,,,,,,,,,,,,,,,,,,,,
1.0,1.0,1.06766,0.0,24.0,24.0,24.0,1.0,leotard_08s.jpg,1.0,clockno_default.jpg,4.0,39,,,,,,,,,,,,,,,,,,,,,,,,,,,,,,,,
0.0,1.0,1.11737,0.0,25.0,25.0,25.0,1.0,tuxedo_01b.jpg,0.0,clockno_default.jpg,4.0,39,,,,,,,,,,,,,,,,,,,,,,,,,,,,,,,,
0.0,1.0,0.694435,0.0,26.0,26.0,26.0,1.0,sunglasses_11s.jpg,0.0,clockno_up.jpg,5.0,39,,,,,,,,,,,,,,,,,,,,,,,,,,,,,,,,
0.0,1.0,1.316415,0.0,27.0,27.0,27.0,1.0,tweezers_03s.jpg,0.0,clockno_default.jpg,5.0,39,,,,,,,,,,,,,,,,,,,,,,,,,,,,,,,,
0.0,1.0,0.757675,0.0,28.0,28.0,28.0,1.0,kimono_13s.jpg,0.0,clockno_default.jpg,5.0,39,,,,,,,,,,,,,,,,,,,,,,,,,,,,,,,,
0.0,1.0,0.51341,0.0,29.0,29.0,29.0,1.0,pineapple_12s.jpg,0.0,clockno_default.jpg,5.0,39,,,,,,,,,,,,,,,,,,,,,,,,,,,,,,,,
0.0,1.0,1.50418,0.0,30.0,30.0,30.0,1.0,measuring_cup_02s.jpg,0.0,clockno_default.jpg,5.0,39,,,,,,,,,,,,,,,,,,,,,,,,,,,,,,,,
0.0,1.0,1.025305,0.0,31.0,31.0,31.0,1.0,ant_12s.jpg,0.0,clockno_up.jpg,6.0,39,,,,,,,,,,,,,,,,,,,,,,,,,,,,,,,,
1.0,0.0,1.834915,0.0,32.0,32.0,32.0,1.0,measuring_cup_02s.jpg,0.0,clockno_default.jpg,6.0,39,,,,,,,,,,,,,,,,,,,,,,,,,,,,,,,,
0.0,1.0,1.055955,0.0,33.0,33.0,33.0,1.0,stamp1_11s.jpg,0.0,clockno_default.jpg,6.0,39,,,,,,,,,,,,,,,,,,,,,,,,,,,,,,,,
0.0,1.0,1.118995,0.0,34.0,34.0,34.0,1.0,cucumber_07s.jpg,0.0,clockno_default.jpg,6.0,39,,,,,,,,,,,,,,,,,,,,,,,,,,,,,,,,
0.0,1.0,0.860425,0.0,35.0,35.0,35.0,1.0,panda_02s.jpg,0.0,clockno_default.jpg,6.0,39,,,,,,,,,,,,,,,,,,,,,,,,,,,,,,,,
,,,,,,,,,0.0,,,39,0.0,1.0,5.99876,0.0,0.0,0.0,0.0,1.0,kimono_13s.jpg,tuxedo_01b.jpg,,,,,,,,,,,,,,,,,,,,,,
,,,,,,,,,0.0,,,39,1.0,0.0,2.96962,0.0,1.0,1.0,1.0,1.0,key_07s.jpg,quad_04s.jpg,,,,,,,,,,,,,,,,,,,,,,
,,,,,,,,,0.0,,,39,1.0,0.0,2.365045,0.0,2.0,2.0,2.0,1.0,chip_04s.jpg,frame_06s.jpg,,,,,,,,,,,,,,,,,,,,,,
,,,,,,,,,1.0,,,39,0.0,0.0,1.595525,0.0,3.0,3.0,3.0,1.0,jelly_bean_06s.jpg,air_pump_05s.jpg,,,,,,,,,,,,,,,,,,,,,,
,,,,,,,,,0.0,,,39,1.0,0.0,2.057445,0.0,4.0,4.0,4.0,1.0,latch_15s.jpg,go-kart_10s.jpg,,,,,,,,,,,,,,,,,,,,,,
,,,,,,,,,0.0,,,39,1.0,0.0,4.41124,0.0,5.0,5.0,5.0,1.0,racehorse_03s.jpg,umbrella_15s.jpg,,,,,,,,,,,,,,,,,,,,,,
,,,,,,,,,,,,39,,,,,,,,,,,0.0,3.0,3.0,3.0,1.0,clockno_present_4_18.xlsx,clockno_compare_task_4_18.xlsx,,,,,,,,,,,,,,,
0.0,1.0,1.30939,0.0,0.0,0.0,0.0,1.0,swimming_pool_17s.jpg,0.0,clockno_up.jpg,1.0,39,,,,,,,,,,,,,,,,,,,,,,,,,,,,,,,,
1.0,1.0,1.231395,0.0,1.0,1.0,1.0,1.0,swimming_pool_17s.jpg,1.0,clockno_default.jpg,1.0,39,,,,,,,,,,,,,,,,,,,,,,,,,,,,,,,,
0.0,1.0,0.79017,0.0,2.0,2.0,2.0,1.0,poinsettia_04s.jpg,0.0,clockno_default.jpg,1.0,39,,,,,,,,,,,,,,,,,,,,,,,,,,,,,,,,
0.0,1.0,1.31465,0.0,3.0,3.0,3.0,1.0,toilet_07s.jpg,0.0,clockno_default.jpg,1.0,39,,,,,,,,,,,,,,,,,,,,,,,,,,,,,,,,
0.0,1.0,0.685405,0.0,4.0,4.0,4.0,1.0,razor_12s.jpg,0.0,clockno_default.jpg,1.0,39,,,,,,,,,,,,,,,,,,,,,,,,,,,,,,,,
0.0,1.0,0.896485,0.0,5.0,5.0,5.0,1.0,bathtub_23s.jpg,0.0,clockno_default.jpg,1.0,39,,,,,,,,,,,,,,,,,,,,,,,,,,,,,,,,
0.0,1.0,0.647165,0.0,6.0,6.0,6.0,1.0,raccoon_02s.jpg,0.0,clockno_default.jpg,1.0,39,,,,,,,,,,,,,,,,,,,,,,,,,,,,,,,,
0.0,1.0,0.65838,0.0,7.0,7.0,7.0,1.0,gazelle_10s.jpg,0.0,clockno_up.jpg,2.0,39,,,,,,,,,,,,,,,,,,,,,,,,,,,,,,,,
0.0,1.0,0.62675,0.0,8.0,8.0,8.0,1.0,mud_13s.jpg,0.0,clockno_default.jpg,2.0,39,,,,,,,,,,,,,,,,,,,,,,,,,,,,,,,,
0.0,1.0,1.896435,0.0,9.0,9.0,9.0,1.0,raspberry_12s.jpg,0.0,clockno_default.jpg,2.0,39,,,,,,,,,,,,,,,,,,,,,,,,,,,,,,,,
0.0,1.0,1.10149,0.0,10.0,10.0,10.0,1.0,typewriter_11s.jpg,0.0,clockno_default.jpg,2.0,39,,,,,,,,,,,,,,,,,,,,,,,,,,,,,,,,
0.0,1.0,1.408955,0.0,11.0,11.0,11.0,1.0,golf_club_03s.jpg,0.0,clockno_default.jpg,2.0,39,,,,,,,,,,,,,,,,,,,,,,,,,,,,,,,,
1.0,1.0,1.076855,0.0,12.0,12.0,12.0,1.0,typewriter_11s.jpg,1.0,clockno_default.jpg,2.0,39,,,,,,,,,,,,,,,,,,,,,,,,,,,,,,,,
0.0,1.0,1.847845,0.0,13.0,13.0,13.0,1.0,beard_16s.jpg,0.0,clockno_default.jpg,2.0,39,,,,,,,,,,,,,,,,,,,,,,,,,,,,,,,,
0.0,1.0,1.602295,0.0,14.0,14.0,14.0,1.0,punch2_09s.jpg,0.0,clockno_up.jpg,3.0,39,,,,,,,,,,,,,,,,,,,,,,,,,,,,,,,,
0.0,1.0,0.75138,0.0,15.0,15.0,15.0,1.0,treasure_08s.jpg,0.0,clockno_default.jpg,3.0,39,,,,,,,,,,,,,,,,,,,,,,,,,,,,,,,,
0.0,1.0,0.95375,0.0,16.0,16.0,16.0,1.0,film_03s.jpg,0.0,clockno_default.jpg,3.0,39,,,,,,,,,,,,,,,,,,,,,,,,,,,,,,,,
0.0,1.0,0.78445,0.0,17.0,17.0,17.0,1.0,mixer_12s.jpg,0.0,clockno_default.jpg,3.0,39,,,,,,,,,,,,,,,,,,,,,,,,,,,,,,,,
0.0,1.0,0.91058,0.0,18.0,18.0,18.0,1.0,poinsettia_04s.jpg,0.0,clockno_default.jpg,3.0,39,,,,,,,,,,,,,,,,,,,,,,,,,,,,,,,,
0.0,1.0,0.537605,0.0,19.0,19.0,19.0,1.0,radio_09s.jpg,0.0,clockno_default.jpg,3.0,39,,,,,,,,,,,,,,,,,,,,,,,,,,,,,,,,
0.0,1.0,1.125675,0.0,20.0,20.0,20.0,1.0,possum_09s.jpg,0.0,clockno_up.jpg,4.0,39,,,,,,,,,,,,,,,,,,,,,,,,,,,,,,,,
0.0,1.0,1.277325,0.0,21.0,21.0,21.0,1.0,ram_05s.jpg,0.0,clockno_default.jpg,4.0,39,,,,,,,,,,,,,,,,,,,,,,,,,,,,,,,,
0.0,1.0,0.901345,0.0,22.0,22.0,22.0,1.0,gear_07s.jpg,0.0,clockno_default.jpg,4.0,39,,,,,,,,,,,,,,,,,,,,,,,,,,,,,,,,
0.0,1.0,1.10787,0.0,23.0,23.0,23.0,1.0,orangutan_03s.jpg,0.0,clockno_default.jpg,4.0,39,,,,,,,,,,,,,,,,,,,,,,,,,,,,,,,,
0.0,1.0,0.92017,0.0,24.0,24.0,24.0,1.0,hyena_16s.jpg,0.0,clockno_default.jpg,4.0,39,,,,,,,,,,,,,,,,,,,,,,,,,,,,,,,,
0.0,1.0,1.02542,0.0,25.0,25.0,25.0,1.0,puck_06s.jpg,0.0,clockno_up.jpg,5.0,39,,,,,,,,,,,,,,,,,,,,,,,,,,,,,,,,
0.0,1.0,1.073735,0.0,26.0,26.0,26.0,1.0,golf_club_03s.jpg,0.0,clockno_default.jpg,5.0,39,,,,,,,,,,,,,,,,,,,,,,,,,,,,,,,,
0.0,1.0,1.50506,0.0,27.0,27.0,27.0,1.0,stingray_02s.jpg,0.0,clockno_default.jpg,5.0,39,,,,,,,,,,,,,,,,,,,,,,,,,,,,,,,,
1.0,1.0,1.64175,0.0,28.0,28.0,28.0,1.0,stingray_02s.jpg,1.0,clockno_default.jpg,5.0,39,,,,,,,,,,,,,,,,,,,,,,,,,,,,,,,,
0.0,1.0,0.781795,0.0,29.0,29.0,29.0,1.0,chalice_10s.jpg,0.0,clockno_default.jpg,5.0,39,,,,,,,,,,,,,,,,,,,,,,,,,,,,,,,,
0.0,1.0,1.301275,0.0,30.0,30.0,30.0,1.0,pepper_mill_03s.jpg,0.0,clockno_up.jpg,6.0,39,,,,,,,,,,,,,,,,,,,,,,,,,,,,,,,,
0.0,1.0,1.105085,0.0,31.0,31.0,31.0,1.0,parachute_03s.jpg,0.0,clockno_default.jpg,6.0,39,,,,,,,,,,,,,,,,,,,,,,,,,,,,,,,,
0.0,1.0,0.90358,0.0,32.0,32.0,32.0,1.0,pinwheel_06s.jpg,0.0,clockno_default.jpg,6.0,39,,,,,,,,,,,,,,,,,,,,,,,,,,,,,,,,
0.0,1.0,0.904265,0.0,33.0,33.0,33.0,1.0,iron_13s.jpg,0.0,clockno_default.jpg,6.0,39,,,,,,,,,,,,,,,,,,,,,,,,,,,,,,,,
,0.0,,0.0,34.0,34.0,34.0,1.0,pepper_mill_03s.jpg,1.0,clockno_default.jpg,6.0,39,,,,,,,,,,,,,,,,,,,,,,,,,,,,,,,,
0.0,1.0,1.206195,0.0,35.0,35.0,35.0,1.0,basket_05s.jpg,0.0,clockno_default.jpg,6.0,39,,,,,,,,,,,,,,,,,,,,,,,,,,,,,,,,
,,,,,,,,,1.0,,,39,1.0,1.0,2.379435,0.0,0.0,0.0,0.0,1.0,razor_12s.jpg,gazelle_10s.jpg,,,,,,,,,,,,,,,,,,,,,,
,,,,,,,,,0.0,,,39,1.0,0.0,3.515435,0.0,1.0,1.0,1.0,1.0,mud_13s.jpg,bathtub_23s.jpg,,,,,,,,,,,,,,,,,,,,,,
,,,,,,,,,1.0,,,39,1.0,1.0,2.012275,0.0,2.0,2.0,2.0,1.0,gear_07s.jpg,puck_06s.jpg,,,,,,,,,,,,,,,,,,,,,,
,,,,,,,,,0.0,,,39,1.0,0.0,2.1463,0.0,3.0,3.0,3.0,1.0,hyena_16s.jpg,ram_05s.jpg,,,,,,,,,,,,,,,,,,,,,,
,,,,,,,,,1.0,,,39,1.0,1.0,2.662,0.0,4.0,4.0,4.0,1.0,toilet_07s.jpg,raccoon_02s.jpg,,,,,,,,,,,,,,,,,,,,,,
,,,,,,,,,0.0,,,39,0.0,1.0,1.803255,0.0,5.0,5.0,5.0,1.0,mixer_12s.jpg,punch2_09s.jpg,,,,,,,,,,,,,,,,,,,,,,
,,,,,,,,,,,,39,,,,,,,,,,,0.0,4.0,4.0,4.0,1.0,clockno_present_5_18.xlsx,clockno_compare_task_5_18.xlsx,,,,,,,,,,,,,,,
0.0,1.0,0.716785,0.0,0.0,0.0,0.0,1.0,spacesuit_02s.jpg,0.0,clockno_up.jpg,1.0,39,,,,,,,,,,,,,,,,,,,,,,,,,,,,,,,,
0.0,1.0,0.87444,0.0,1.0,1.0,1.0,1.0,megaphone_03s.jpg,0.0,clockno_default.jpg,1.0,39,,,,,,,,,,,,,,,,,,,,,,,,,,,,,,,,
0.0,1.0,0.62055,0.0,2.0,2.0,2.0,1.0,power_line_08s.jpg,0.0,clockno_default.jpg,1.0,39,,,,,,,,,,,,,,,,,,,,,,,,,,,,,,,,
0.0,1.0,0.75702,0.0,3.0,3.0,3.0,1.0,insole_11s.jpg,0.0,clockno_default.jpg,1.0,39,,,,,,,,,,,,,,,,,,,,,,,,,,,,,,,,
0.0,1.0,1.60452,0.0,4.0,4.0,4.0,1.0,turtle_08s.jpg,0.0,clockno_default.jpg,1.0,39,,,,,,,,,,,,,,,,,,,,,,,,,,,,,,,,
0.0,1.0,1.039835,0.0,5.0,5.0,5.0,1.0,checkbook_11s.jpg,0.0,clockno_up.jpg,2.0,39,,,,,,,,,,,,,,,,,,,,,,,,,,,,,,,,
0.0,1.0,0.97691,0.0,6.0,6.0,6.0,1.0,sundae_08s.jpg,0.0,clockno_default.jpg,2.0,39,,,,,,,,,,,,,,,,,,,,,,,,,,,,,,,,
0.0,1.0,0.898315,0.0,7.0,7.0,7.0,1.0,puppet_01b.jpg,0.0,clockno_default.jpg,2.0,39,,,,,,,,,,,,,,,,,,,,,,,,,,,,,,,,
,0.0,,0.0,8.0,8.0,8.0,1.0,spacesuit_02s.jpg,0.0,clockno_default.jpg,2.0,39,,,,,,,,,,,,,,,,,,,,,,,,,,,,,,,,
0.0,1.0,0.65064,0.0,9.0,9.0,9.0,1.0,popsicle_02s.jpg,0.0,clockno_default.jpg,2.0,39,,,,,,,,,,,,,,,,,,,,,,,,,,,,,,,,
0.0,1.0,0.781195,0.0,10.0,10.0,10.0,1.0,tinsel_12s.jpg,0.0,clockno_default.jpg,2.0,39,,,,,,,,,,,,,,,,,,,,,,,,,,,,,,,,
0.0,1.0,0.60163,0.0,11.0,11.0,11.0,1.0,saddle_06s.jpg,0.0,clockno_up.jpg,3.0,39,,,,,,,,,,,,,,,,,,,,,,,,,,,,,,,,
0.0,1.0,0.455665,0.0,12.0,12.0,12.0,1.0,tomato_sauce_09s.jpg,0.0,clockno_default.jpg,3.0,39,,,,,,,,,,,,,,,,,,,,,,,,,,,,,,,,
0.0,1.0,0.54858,0.0,13.0,13.0,13.0,1.0,laundry_basket_11s.jpg,0.0,clockno_default.jpg,3.0,39,,,,,,,,,,,,,,,,,,,,,,,,,,,,,,,,
0.0,1.0,0.733715,0.0,14.0,14.0,14.0,1.0,knitting_needle_04s.jpg,0.0,clockno_default.jpg,3.0,39,,,,,,,,,,,,,,,,,,,,,,,,,,,,,,,,
1.0,1.0,2.073545,0.0,15.0,15.0,15.0,1.0,tomato_sauce_09s.jpg,1.0,clockno_default.jpg,3.0,39,,,,,,,,,,,,,,,,,,,,,,,,,,,,,,,,
0.0,1.0,0.779775,0.0,16.0,16.0,16.0,1.0,moth_06n.jpg,0.0,clockno_up.jpg,4.0,39,,,,,,,,,,,,,,,,,,,,,,,,,,,,,,,,
1.0,1.0,0.84895,0.0,17.0,17.0,17.0,1.0,moth_06n.jpg,1.0,clockno_default.jpg,4.0,39,,,,,,,,,,,,,,,,,,,,,,,,,,,,,,,,
0.0,1.0,0.64892,0.0,18.0,18.0,18.0,1.0,tube_top_03s.jpg,0.0,clockno_default.jpg,4.0,39,,,,,,,,,,,,,,,,,,,,,,,,,,,,,,,,
0.0,1.0,0.881175,0.0,19.0,19.0,19.0,1.0,juicer1_08s.jpg,0.0,clockno_default.jpg,4.0,39,,,,,,,,,,,,,,,,,,,,,,,,,,,,,,,,
0.0,1.0,1.17266,0.0,20.0,20.0,20.0,1.0,plaster_cast_13s.jpg,0.0,clockno_default.jpg,4.0,39,,,,,,,,,,,,,,,,,,,,,,,,,,,,,,,,
0.0,1.0,0.78416,0.0,21.0,21.0,21.0,1.0,knot_01b.jpg,0.0,clockno_default.jpg,4.0,39,,,,,,,,,,,,,,,,,,,,,,,,,,,,,,,,
0.0,1.0,1.329415,0.0,22.0,22.0,22.0,1.0,insole_11s.jpg,0.0,clockno_default.jpg,4.0,39,,,,,,,,,,,,,,,,,,,,,,,,,,,,,,,,
0.0,1.0,0.807815,0.0,23.0,23.0,23.0,1.0,frog_09s.jpg,0.0,clockno_up.jpg,5.0,39,,,,,,,,,,,,,,,,,,,,,,,,,,,,,,,,
1.0,1.0,1.479185,0.0,24.0,24.0,24.0,1.0,frog_09s.jpg,1.0,clockno_default.jpg,5.0,39,,,,,,,,,,,,,,,,,,,,,,,,,,,,,,,,
0.0,1.0,2.42191,0.0,25.0,25.0,25.0,1.0,icicle_04s.jpg,0.0,clockno_default.jpg,5.0,39,,,,,,,,,,,,,,,,,,,,,,,,,,,,,,,,
0.0,1.0,1.16181,0.0,26.0,26.0,26.0,1.0,trumpet_06s.jpg,0.0,clockno_default.jpg,5.0,39,,,,,,,,,,,,,,,,,,,,,,,,,,,,,,,,
0.0,1.0,0.715375,0.0,27.0,27.0,27.0,1.0,touchpad_11s.jpg,0.0,clockno_default.jpg,5.0,39,,,,,,,,,,,,,,,,,,,,,,,,,,,,,,,,
0.0,0.0,0.551015,0.0,28.0,28.0,28.0,1.0,trumpet_06s.jpg,1.0,clockno_default.jpg,5.0,39,,,,,,,,,,,,,,,,,,,,,,,,,,,,,,,,
0.0,1.0,1.049765,0.0,29.0,29.0,29.0,1.0,lamb_chop_07s.jpg,0.0,clockno_up.jpg,6.0,39,,,,,,,,,,,,,,,,,,,,,,,,,,,,,,,,
0.0,1.0,0.908175,0.0,30.0,30.0,30.0,1.0,rocket_02s.jpg,0.0,clockno_default.jpg,6.0,39,,,,,,,,,,,,,,,,,,,,,,,,,,,,,,,,
0.0,1.0,1.337625,0.0,31.0,31.0,31.0,1.0,candy_cane_06s.jpg,0.0,clockno_default.jpg,6.0,39,,,,,,,,,,,,,,,,,,,,,,,,,,,,,,,,
0.0,1.0,1.49575,0.0,32.0,32.0,32.0,1.0,coffee_filter_10s.jpg,0.0,clockno_default.jpg,6.0,39,,,,,,,,,,,,,,,,,,,,,,,,,,,,,,,,
1.0,1.0,1.551465,0.0,33.0,33.0,33.0,1.0,candy_cane_06s.jpg,1.0,clockno_default.jpg,6.0,39,,,,,,,,,,,,,,,,,,,,,,,,,,,,,,,,
1.0,1.0,0.92584,0.0,34.0,34.0,34.0,1.0,candy_cane_06s.jpg,1.0,clockno_default.jpg,6.0,39,,,,,,,,,,,,,,,,,,,,,,,,,,,,,,,,
0.0,1.0,1.179735,0.0,35.0,35.0,35.0,1.0,emerald_02s.jpg,0.0,clockno_default.jpg,6.0,39,,,,,,,,,,,,,,,,,,,,,,,,,,,,,,,,
,,,,,,,,,1.0,,,39,0.0,0.0,2.542705,0.0,0.0,0.0,0.0,1.0,power_line_08s.jpg,checkbook_11s.jpg,,,,,,,,,,,,,,,,,,,,,,
,,,,,,,,,1.0,,,39,1.0,1.0,2.323765,0.0,1.0,1.0,1.0,1.0,touchpad_11s.jpg,rocket_02s.jpg,,,,,,,,,,,,,,,,,,,,,,
,,,,,,,,,0.0,,,39,0.0,1.0,2.913815,0.0,2.0,2.0,2.0,1.0,laundry_basket_11s.jpg,tinsel_12s.jpg,,,,,,,,,,,,,,,,,,,,,,
,,,,,,,,,1.0,,,39,0.0,0.0,4.099375,0.0,3.0,3.0,3.0,1.0,sundae_08s.jpg,popsicle_02s.jpg,,,,,,,,,,,,,,,,,,,,,,
,,,,,,,,,0.0,,,39,0.0,1.0,4.28068,0.0,4.0,4.0,4.0,1.0,knitting_needle_04s.jpg,saddle_06s.jpg,,,,,,,,,,,,,,,,,,,,,,
,,,,,,,,,1.0,,,39,0.0,0.0,2.467655,0.0,5.0,5.0,5.0,1.0,tube_top_03s.jpg,knot_01b.jpg,,,,,,,,,,,,,,,,,,,,,,
0.0,1.0,1.173145,,,,,,printer_09s.jpg,0.0,clock_6_1.png,1.0,39,,,,,,,,,,,,,,,,,,0.0,0.0,0.0,0.0,1.0,,,,,,,,,,
0.0,1.0,0.872185,,,,,,rope_16s.jpg,0.0,clock_6_2.png,1.0,39,,,,,,,,,,,,,,,,,,0.0,1.0,1.0,1.0,1.0,,,,,,,,,,
0.0,1.0,0.71963,,,,,,lion_18s.jpg,0.0,clock_6_3.png,1.0,39,,,,,,,,,,,,,,,,,,0.0,2.0,2.0,2.0,1.0,,,,,,,,,,
0.0,1.0,0.513525,,,,,,rabbit_03s.jpg,0.0,clock_6_4.png,1.0,39,,,,,,,,,,,,,,,,,,0.0,3.0,3.0,3.0,1.0,,,,,,,,,,
0.0,1.0,0.665485,,,,,,boomerang_06s.jpg,0.0,clock_6_5.png,1.0,39,,,,,,,,,,,,,,,,,,0.0,4.0,4.0,4.0,1.0,,,,,,,,,,
1.0,1.0,1.62903,,,,,,lion_18s.jpg,1.0,clock_6_6.png,1.0,39,,,,,,,,,,,,,,,,,,0.0,5.0,5.0,5.0,1.0,,,,,,,,,,
0.0,1.0,1.732375,,,,,,pillbox_04s.jpg,0.0,clock_7_1.png,2.0,39,,,,,,,,,,,,,,,,,,0.0,6.0,6.0,6.0,1.0,,,,,,,,,,
0.0,1.0,0.793585,,,,,,blowfish_03s.jpg,0.0,clock_7_2.png,2.0,39,,,,,,,,,,,,,,,,,,0.0,7.0,7.0,7.0,1.0,,,,,,,,,,
0.0,1.0,0.705005,,,,,,rhubarb_03s.jpg,0.0,clock_7_3.png,2.0,39,,,,,,,,,,,,,,,,,,0.0,8.0,8.0,8.0,1.0,,,,,,,,,,
0.0,1.0,0.840525,,,,,,torch_02s.jpg,0.0,clock_7_4.png,2.0,39,,,,,,,,,,,,,,,,,,0.0,9.0,9.0,9.0,1.0,,,,,,,,,,
1.0,1.0,1.454955,,,,,,rhubarb_03s.jpg,1.0,clock_7_5.png,2.0,39,,,,,,,,,,,,,,,,,,0.0,10.0,10.0,10.0,1.0,,,,,,,,,,
0.0,1.0,0.7502,,,,,,tablet_04s.jpg,0.0,clock_7_6.png,2.0,39,,,,,,,,,,,,,,,,,,0.0,11.0,11.0,11.0,1.0,,,,,,,,,,
0.0,1.0,0.840845,,,,,,mop_08s.jpg,0.0,clock_7_7.png,2.0,39,,,,,,,,,,,,,,,,,,0.0,12.0,12.0,12.0,1.0,,,,,,,,,,
0.0,1.0,0.883025,,,,,,mirror_12s.jpg,0.0,clock_5_1.png,3.0,39,,,,,,,,,,,,,,,,,,0.0,13.0,13.0,13.0,1.0,,,,,,,,,,
,0.0,,,,,,,torch_02s.jpg,0.0,clock_5_2.png,3.0,39,,,,,,,,,,,,,,,,,,0.0,14.0,14.0,14.0,1.0,,,,,,,,,,
0.0,1.0,0.656705,,,,,,compass_10n.jpg,0.0,clock_5_3.png,3.0,39,,,,,,,,,,,,,,,,,,0.0,15.0,15.0,15.0,1.0,,,,,,,,,,
0.0,1.0,0.593925,,,,,,peppermint_07s.jpg,0.0,clock_5_4.png,3.0,39,,,,,,,,,,,,,,,,,,0.0,16.0,16.0,16.0,1.0,,,,,,,,,,
0.0,1.0,0.718655,,,,,,surfboard_11s.jpg,0.0,clock_5_5.png,3.0,39,,,,,,,,,,,,,,,,,,0.0,17.0,17.0,17.0,1.0,,,,,,,,,,
,0.0,,,,,,,microwave_02s.jpg,0.0,clock_5_1.png,4.0,39,,,,,,,,,,,,,,,,,,0.0,18.0,18.0,18.0,1.0,,,,,,,,,,
0.0,1.0,0.937695,,,,,,pumpkin_03s.jpg,0.0,clock_5_2.png,4.0,39,,,,,,,,,,,,,,,,,,0.0,19.0,19.0,19.0,1.0,,,,,,,,,,
0.0,1.0,1.18455,,,,,,rhubarb_03s.jpg,0.0,clock_5_3.png,4.0,39,,,,,,,,,,,,,,,,,,0.0,20.0,20.0,20.0,1.0,,,,,,,,,,
0.0,1.0,0.776675,,,,,,metronome_03s.jpg,0.0,clock_5_4.png,4.0,39,,,,,,,,,,,,,,,,,,0.0,21.0,21.0,21.0,1.0,,,,,,,,,,
0.0,1.0,0.841675,,,,,,cardinal_07s.jpg,0.0,clock_5_5.png,4.0,39,,,,,,,,,,,,,,,,,,0.0,22.0,22.0,22.0,1.0,,,,,,,,,,
0.0,1.0,1.032785,,,,,,quesadilla_07s.jpg,0.0,clock_6_1.png,5.0,39,,,,,,,,,,,,,,,,,,0.0,23.0,23.0,23.0,1.0,,,,,,,,,,
0.0,1.0,0.59222,,,,,,bonsai_07s.jpg,0.0,clock_6_2.png,5.0,39,,,,,,,,,,,,,,,,,,0.0,24.0,24.0,24.0,1.0,,,,,,,,,,
0.0,1.0,1.547305,,,,,,lion_18s.jpg,0.0,clock_6_3.png,5.0,39,,,,,,,,,,,,,,,,,,0.0,25.0,25.0,25.0,1.0,,,,,,,,,,
0.0,1.0,1.034425,,,,,,fire_pit_10s.jpg,0.0,clock_6_4.png,5.0,39,,,,,,,,,,,,,,,,,,0.0,26.0,26.0,26.0,1.0,,,,,,,,,,
0.0,1.0,1.4777,,,,,,peppermint_07s.jpg,0.0,clock_6_5.png,5.0,39,,,,,,,,,,,,,,,,,,0.0,27.0,27.0,27.0,1.0,,,,,,,,,,
1.0,1.0,1.702235,,,,,,bonsai_07s.jpg,1.0,clock_6_6.png,5.0,39,,,,,,,,,,,,,,,,,,0.0,28.0,28.0,28.0,1.0,,,,,,,,,,
0.0,1.0,1.555455,,,,,,potholder_02s.jpg,0.0,clock_7_1.png,6.0,39,,,,,,,,,,,,,,,,,,0.0,29.0,29.0,29.0,1.0,,,,,,,,,,
0.0,1.0,1.09739,,,,,,amber_04s.jpg,0.0,clock_7_2.png,6.0,39,,,,,,,,,,,,,,,,,,0.0,30.0,30.0,30.0,1.0,,,,,,,,,,
0.0,1.0,1.217915,,,,,,doily_13s.jpg,0.0,clock_7_3.png,6.0,39,,,,,,,,,,,,,,,,,,0.0,31.0,31.0,31.0,1.0,,,,,,,,,,
0.0,1.0,1.052645,,,,,,champagne_18s.jpg,0.0,clock_7_4.png,6.0,39,,,,,,,,,,,,,,,,,,0.0,32.0,32.0,32.0,1.0,,,,,,,,,,
1.0,1.0,1.333875,,,,,,champagne_18s.jpg,1.0,clock_7_5.png,6.0,39,,,,,,,,,,,,,,,,,,0.0,33.0,33.0,33.0,1.0,,,,,,,,,,
1.0,1.0,1.623175,,,,,,doily_13s.jpg,1.0,clock_7_6.png,6.0,39,,,,,,,,,,,,,,,,,,0.0,34.0,34.0,34.0,1.0,,,,,,,,,,
0.0,1.0,0.666975,,,,,,ice_pack_09s.jpg,0.0,clock_7_7.png,6.0,39,,,,,,,,,,,,,,,,,,0.0,35.0,35.0,35.0,1.0,,,,,,,,,,
,,,,,,,,,0.0,,,39,1.0,0.0,4.65752,,,,,,compass_10n.jpg,mop_08s.jpg,,,,,,,,,,,,,0.0,0.0,0.0,0.0,1.0,,,,,
,,,,,,,,,1.0,,,39,0.0,0.0,3.14701,,,,,,rabbit_03s.jpg,pillbox_04s.jpg,,,,,,,,,,,,,0.0,1.0,1.0,1.0,1.0,,,,,
,,,,,,,,,0.0,,,39,0.0,1.0,1.862945,,,,,,blowfish_03s.jpg,boomerang_06s.jpg,,,,,,,,,,,,,0.0,2.0,2.0,2.0,1.0,,,,,
,,,,,,,,,1.0,,,39,0.0,0.0,1.47511,,,,,,pumpkin_03s.jpg,cardinal_07s.jpg,,,,,,,,,,,,,0.0,3.0,3.0,3.0,1.0,,,,,
,,,,,,,,,0.0,,,39,1.0,0.0,2.29051,,,,,,metronome_03s.jpg,microwave_02s.jpg,,,,,,,,,,,,,0.0,4.0,4.0,4.0,1.0,,,,,
,,,,,,,,,0.0,,,39,1.0,0.0,5.570005,,,,,,fire_pit_10s.jpg,quesadilla_07s.jpg,,,,,,,,,,,,,0.0,5.0,5.0,5.0,1.0,,,,,
,,,,,,,,,,,,39,,,,,,,,,,,,,,,,clock_present_1_18.xlsx,clock_compare_task_1_18.xlsx,,,,,,,,,,,0.0,0.0,0.0,0.0,1.0
0.0,1.0,1.607935,,,,,,thorn_13s.jpg,0.0,clock_7_1.png,1.0,39,,,,,,,,,,,,,,,,,,0.0,0.0,0.0,0.0,1.0,,,,,,,,,,
0.0,1.0,0.52604,,,,,,lamppost_09s.jpg,0.0,clock_7_2.png,1.0,39,,,,,,,,,,,,,,,,,,0.0,1.0,1.0,1.0,1.0,,,,,,,,,,
0.0,1.0,2.067935,,,,,,crystal_ball_12s.jpg,0.0,clock_7_3.png,1.0,39,,,,,,,,,,,,,,,,,,0.0,2.0,2.0,2.0,1.0,,,,,,,,,,
0.0,1.0,0.565305,,,,,,bean_06s.jpg,0.0,clock_7_4.png,1.0,39,,,,,,,,,,,,,,,,,,0.0,3.0,3.0,3.0,1.0,,,,,,,,,,
0.0,1.0,0.62234,,,,,,fossil_06s.jpg,0.0,clock_7_5.png,1.0,39,,,,,,,,,,,,,,,,,,0.0,4.0,4.0,4.0,1.0,,,,,,,,,,
0.0,1.0,1.013225,,,,,,keyhole_03s.jpg,0.0,clock_7_6.png,1.0,39,,,,,,,,,,,,,,,,,,0.0,5.0,5.0,5.0,1.0,,,,,,,,,,
1.0,1.0,1.0185,,,,,,fossil_06s.jpg,1.0,clock_7_7.png,1.0,39,,,,,,,,,,,,,,,,,,0.0,6.0,6.0,6.0,1.0,,,,,,,,,,
0.0,1.0,0.35002,,,,,,eggshell_14s.jpg,0.0,clock_6_1.png,2.0,39,,,,,,,,,,,,,,,,,,0.0,7.0,7.0,7.0,1.0,,,,,,,,,,
0.0,1.0,0.81772,,,,,,crystal_ball_12s.jpg,0.0,clock_6_2.png,2.0,39,,,,,,,,,,,,,,,,,,0.0,8.0,8.0,8.0,1.0,,,,,,,,,,
0.0,1.0,0.98618,,,,,,lamp_08s.jpg,0.0,clock_6_3.png,2.0,39,,,,,,,,,,,,,,,,,,0.0,9.0,9.0,9.0,1.0,,,,,,,,,,
0.0,1.0,0.83579,,,,,,limousine_12s.jpg,0.0,clock_6_4.png,2.0,39,,,,,,,,,,,,,,,,,,0.0,10.0,10.0,10.0,1.0,,,,,,,,,,
1.0,1.0,0.814685,,,,,,limousine_12s.jpg,1.0,clock_6_5.png,2.0,39,,,,,,,,,,,,,,,,,,0.0,11.0,11.0,11.0,1.0,,,,,,,,,,
0.0,1.0,0.706975,,,,,,fur_coat_11s.jpg,0.0,clock_6_6.png,2.0,39,,,,,,,,,,,,,,,,,,0.0,12.0,12.0,12.0,1.0,,,,,,,,,,
0.0,1.0,0.884675,,,,,,meatball_13s.jpg,0.0,clock_6_1.png,3.0,39,,,,,,,,,,,,,,,,,,0.0,13.0,13.0,13.0,1.0,,,,,,,,,,
0.0,1.0,0.78985,,,,,,kitten_07s.jpg,0.0,clock_6_2.png,3.0,39,,,,,,,,,,,,,,,,,,0.0,14.0,14.0,14.0,1.0,,,,,,,,,,
0.0,1.0,0.900795,,,,,,radiator_05s.jpg,0.0,clock_6_3.png,3.0,39,,,,,,,,,,,,,,,,,,0.0,15.0,15.0,15.0,1.0,,,,,,,,,,
0.0,1.0,0.976645,,,,,,bacon_05s.jpg,0.0,clock_6_4.png,3.0,39,,,,,,,,,,,,,,,,,,0.0,16.0,16.0,16.0,1.0,,,,,,,,,,
0.0,1.0,0.87106,,,,,,turtleneck_11s.jpg,0.0,clock_6_5.png,3.0,39,,,,,,,,,,,,,,,,,,0.0,17.0,17.0,17.0,1.0,,,,,,,,,,
0.0,1.0,1.28952,,,,,,pea_11s.jpg,0.0,clock_6_6.png,3.0,39,,,,,,,,,,,,,,,,,,0.0,18.0,18.0,18.0,1.0,,,,,,,,,,
0.0,1.0,1.176985,,,,,,submarine_11n.jpg,0.0,clock_5_1.png,4.0,39,,,,,,,,,,,,,,,,,,0.0,19.0,19.0,19.0,1.0,,,,,,,,,,
0.0,1.0,0.48278,,,,,,phone_01b.jpg,0.0,clock_5_2.png,4.0,39,,,,,,,,,,,,,,,,,,0.0,20.0,20.0,20.0,1.0,,,,,,,,,,
0.0,1.0,0.82854,,,,,,rhinoceros_02s.jpg,0.0,clock_5_3.png,4.0,39,,,,,,,,,,,,,,,,,,0.0,21.0,21.0,21.0,1.0,,,,,,,,,,
0.0,1.0,0.856035,,,,,,spider_web_03s.jpg,0.0,clock_5_4.png,4.0,39,,,,,,,,,,,,,,,,,,0.0,22.0,22.0,22.0,1.0,,,,,,,,,,
0.0,1.0,1.055405,,,,,,reindeer_08s.jpg,0.0,clock_5_5.png,4.0,39,,,,,,,,,,,,,,,,,,0.0,23.0,23.0,23.0,1.0,,,,,,,,,,
0.0,1.0,1.12067,,,,,,jewel_01b.jpg,0.0,clock_5_1.png,5.0,39,,,,,,,,,,,,,,,,,,0.0,24.0,24.0,24.0,1.0,,,,,,,,,,
0.0,1.0,0.87462,,,,,,cap_05s.jpg,0.0,clock_5_2.png,5.0,39,,,,,,,,,,,,,,,,,,0.0,25.0,25.0,25.0,1.0,,,,,,,,,,
0.0,1.0,0.497525,,,,,,cape_11s.jpg,0.0,clock_5_3.png,5.0,39,,,,,,,,,,,,,,,,,,0.0,26.0,26.0,26.0,1.0,,,,,,,,,,
0.0,1.0,0.94511,,,,,,giraffe_11s.jpg,0.0,clock_5_4.png,5.0,39,,,,,,,,,,,,,,,,,,0.0,27.0,27.0,27.0,1.0,,,,,,,,,,
0.0,1.0,0.870455,,,,,,kitten_07s.jpg,0.0,clock_5_5.png,5.0,39,,,,,,,,,,,,,,,,,,0.0,28.0,28.0,28.0,1.0,,,,,,,,,,
0.0,1.0,0.590205,,,,,,sparkler_02s.jpg,0.0,clock_7_1.png,6.0,39,,,,,,,,,,,,,,,,,,0.0,29.0,29.0,29.0,1.0,,,,,,,,,,
1.0,1.0,0.708055,,,,,,sparkler_02s.jpg,1.0,clock_7_2.png,6.0,39,,,,,,,,,,,,,,,,,,0.0,30.0,30.0,30.0,1.0,,,,,,,,,,
0.0,1.0,0.912485,,,,,,bee_20s.jpg,0.0,clock_7_3.png,6.0,39,,,,,,,,,,,,,,,,,,0.0,31.0,31.0,31.0,1.0,,,,,,,,,,
0.0,1.0,0.93485,,,,,,jetski_10s.jpg,0.0,clock_7_4.png,6.0,39,,,,,,,,,,,,,,,,,,0.0,32.0,32.0,32.0,1.0,,,,,,,,,,
0.0,1.0,1.129525,,,,,,pear_02s.jpg,0.0,clock_7_5.png,6.0,39,,,,,,,,,,,,,,,,,,0.0,33.0,33.0,33.0,1.0,,,,,,,,,,
0.0,1.0,1.165465,,,,,,kilt_18s.jpg,0.0,clock_7_6.png,6.0,39,,,,,,,,,,,,,,,,,,0.0,34.0,34.0,34.0,1.0,,,,,,,,,,
0.0,1.0,1.26631,,,,,,bacon_05s.jpg,0.0,clock_7_7.png,6.0,39,,,,,,,,,,,,,,,,,,0.0,35.0,35.0,35.0,1.0,,,,,,,,,,
,,,,,,,,,1.0,,,39,0.0,0.0,7.789825,,,,,,turtleneck_11s.jpg,phone_01b.jpg,,,,,,,,,,,,,0.0,0.0,0.0,0.0,1.0,,,,,
,,,,,,,,,0.0,,,39,1.0,0.0,2.024525,,,,,,rhinoceros_02s.jpg,pea_11s.jpg,,,,,,,,,,,,,0.0,1.0,1.0,1.0,1.0,,,,,
,,,,,,,,,1.0,,,39,1.0,1.0,3.32842,,,,,,spider_web_03s.jpg,cap_05s.jpg,,,,,,,,,,,,,0.0,2.0,2.0,2.0,1.0,,,,,
,,,,,,,,,0.0,,,39,1.0,0.0,2.456525,,,,,,bean_06s.jpg,thorn_13s.jpg,,,,,,,,,,,,,0.0,3.0,3.0,3.0,1.0,,,,,
,,,,,,,,,0.0,,,39,0.0,1.0,2.146755,,,,,,kilt_18s.jpg,bee_20s.jpg,,,,,,,,,,,,,0.0,4.0,4.0,4.0,1.0,,,,,
,,,,,,,,,0.0,,,39,0.0,1.0,1.98128,,,,,,fur_coat_11s.jpg,lamp_08s.jpg,,,,,,,,,,,,,0.0,5.0,5.0,5.0,1.0,,,,,
,,,,,,,,,,,,39,,,,,,,,,,,,,,,,clock_present_2_18.xlsx,clock_compare_task_2_18.xlsx,,,,,,,,,,,0.0,1.0,1.0,1.0,1.0
0.0,1.0,0.858675,,,,,,thermostat_02s.jpg,0.0,clock_7_1.png,1.0,39,,,,,,,,,,,,,,,,,,0.0,0.0,0.0,0.0,1.0,,,,,,,,,,
1.0,1.0,1.206085,,,,,,thermostat_02s.jpg,1.0,clock_7_2.png,1.0,39,,,,,,,,,,,,,,,,,,0.0,1.0,1.0,1.0,1.0,,,,,,,,,,
0.0,1.0,0.68319,,,,,,raft_09s.jpg,0.0,clock_7_3.png,1.0,39,,,,,,,,,,,,,,,,,,0.0,2.0,2.0,2.0,1.0,,,,,,,,,,
0.0,1.0,0.575725,,,,,,magnet_03s.jpg,0.0,clock_7_4.png,1.0,39,,,,,,,,,,,,,,,,,,0.0,3.0,3.0,3.0,1.0,,,,,,,,,,
1.0,1.0,1.095975,,,,,,raft_09s.jpg,1.0,clock_7_5.png,1.0,39,,,,,,,,,,,,,,,,,,0.0,4.0,4.0,4.0,1.0,,,,,,,,,,
0.0,1.0,0.87949,,,,,,duck_01b.jpg,0.0,clock_7_6.png,1.0,39,,,,,,,,,,,,,,,,,,0.0,5.0,5.0,5.0,1.0,,,,,,,,,,
0.0,1.0,0.527415,,,,,,ring_03s.jpg,0.0,clock_7_7.png,1.0,39,,,,,,,,,,,,,,,,,,0.0,6.0,6.0,6.0,1.0,,,,,,,,,,
0.0,1.0,1.201215,,,,,,lectern_08s.jpg,0.0,clock_6_1.png,2.0,39,,,,,,,,,,,,,,,,,,0.0,7.0,7.0,7.0,1.0,,,,,,,,,,
0.0,1.0,1.074355,,,,,,orange_12s.jpg,0.0,clock_6_2.png,2.0,39,,,,,,,,,,,,,,,,,,0.0,8.0,8.0,8.0,1.0,,,,,,,,,,
0.0,1.0,1.26452,,,,,,swan_11s.jpg,0.0,clock_6_3.png,2.0,39,,,,,,,,,,,,,,,,,,0.0,9.0,9.0,9.0,1.0,,,,,,,,,,
0.0,1.0,0.902095,,,,,,seahorse_13s.jpg,0.0,clock_6_4.png,2.0,39,,,,,,,,,,,,,,,,,,0.0,10.0,10.0,10.0,1.0,,,,,,,,,,
0.0,1.0,0.70602,,,,,,mosquito_12s.jpg,0.0,clock_6_5.png,2.0,39,,,,,,,,,,,,,,,,,,0.0,11.0,11.0,11.0,1.0,,,,,,,,,,
0.0,1.0,0.743205,,,,,,leash_10s.jpg,0.0,clock_6_6.png,2.0,39,,,,,,,,,,,,,,,,,,0.0,12.0,12.0,12.0,1.0,,,,,,,,,,
0.0,1.0,0.99546,,,,,,rudder_02s.jpg,0.0,clock_5_1.png,3.0,39,,,,,,,,,,,,,,,,,,0.0,13.0,13.0,13.0,1.0,,,,,,,,,,
0.0,1.0,1.051035,,,,,,quilt_03s.jpg,0.0,clock_5_2.png,3.0,39,,,,,,,,,,,,,,,,,,0.0,14.0,14.0,14.0,1.0,,,,,,,,,,
0.0,1.0,0.9218,,,,,,peach_04s.jpg,0.0,clock_5_3.png,3.0,39,,,,,,,,,,,,,,,,,,0.0,15.0,15.0,15.0,1.0,,,,,,,,,,
1.0,1.0,0.907655,,,,,,quilt_03s.jpg,1.0,clock_5_4.png,3.0,39,,,,,,,,,,,,,,,,,,0.0,16.0,16.0,16.0,1.0,,,,,,,,,,
0.0,1.0,1.447,,,,,,roller_coaster_07s.jpg,0.0,clock_5_5.png,3.0,39,,,,,,,,,,,,,,,,,,0.0,17.0,17.0,17.0,1.0,,,,,,,,,,
0.0,1.0,0.933035,,,,,,gargoyle_08s.jpg,0.0,clock_6_1.png,4.0,39,,,,,,,,,,,,,,,,,,0.0,18.0,18.0,18.0,1.0,,,,,,,,,,
0.0,1.0,1.21095,,,,,,rudder_02s.jpg,0.0,clock_6_2.png,4.0,39,,,,,,,,,,,,,,,,,,0.0,19.0,19.0,19.0,1.0,,,,,,,,,,
0.0,1.0,0.96273,,,,,,mannequin_05s.jpg,0.0,clock_6_3.png,4.0,39,,,,,,,,,,,,,,,,,,0.0,20.0,20.0,20.0,1.0,,,,,,,,,,
0.0,1.0,0.41998,,,,,,machete_06s.jpg,0.0,clock_6_4.png,4.0,39,,,,,,,,,,,,,,,,,,0.0,21.0,21.0,21.0,1.0,,,,,,,,,,
0.0,1.0,0.55678,,,,,,mailbox_11s.jpg,0.0,clock_6_5.png,4.0,39,,,,,,,,,,,,,,,,,,0.0,22.0,22.0,22.0,1.0,,,,,,,,,,
0.0,1.0,0.860155,,,,,,ruby_15s.jpg,0.0,clock_6_6.png,4.0,39,,,,,,,,,,,,,,,,,,0.0,23.0,23.0,23.0,1.0,,,,,,,,,,
0.0,1.0,0.458555,,,,,,glasses01a.jpg,0.0,clock_7_1.png,5.0,39,,,,,,,,,,,,,,,,,,0.0,24.0,24.0,24.0,1.0,,,,,,,,,,
1.0,1.0,1.310025,,,,,,glasses01a.jpg,1.0,clock_7_2.png,5.0,39,,,,,,,,,,,,,,,,,,0.0,25.0,25.0,25.0,1.0,,,,,,,,,,
1.0,1.0,0.96692,,,,,,glasses01a.jpg,1.0,clock_7_3.png,5.0,39,,,,,,,,,,,,,,,,,,0.0,26.0,26.0,26.0,1.0,,,,,,,,,,
0.0,1.0,1.00204,,,,,,rolling_pin_02s.jpg,0.0,clock_7_4.png,5.0,39,,,,,,,,,,,,,,,,,,0.0,27.0,27.0,27.0,1.0,,,,,,,,,,
0.0,1.0,0.686395,,,,,,scooter.jpg,0.0,clock_7_5.png,5.0,39,,,,,,,,,,,,,,,,,,0.0,28.0,28.0,28.0,1.0,,,,,,,,,,
0.0,1.0,0.701075,,,,,,puffin_19s.jpg,0.0,clock_7_6.png,5.0,39,,,,,,,,,,,,,,,,,,0.0,29.0,29.0,29.0,1.0,,,,,,,,,,
0.0,1.0,1.61159,,,,,,roulette_wheel_04s.jpg,0.0,clock_7_7.png,5.0,39,,,,,,,,,,,,,,,,,,0.0,30.0,30.0,30.0,1.0,,,,,,,,,,
0.0,1.0,0.91969,,,,,,crab_16s.jpg,0.0,clock_5_1.png,6.0,39,,,,,,,,,,,,,,,,,,0.0,31.0,31.0,31.0,1.0,,,,,,,,,,
1.0,1.0,1.106515,,,,,,crab_16s.jpg,1.0,clock_5_2.png,6.0,39,,,,,,,,,,,,,,,,,,0.0,32.0,32.0,32.0,1.0,,,,,,,,,,
0.0,1.0,1.15575,,,,,,timer_03s.jpg,0.0,clock_5_3.png,6.0,39,,,,,,,,,,,,,,,,,,0.0,33.0,33.0,33.0,1.0,,,,,,,,,,
0.0,1.0,1.806175,,,,,,paper_towel_03s.jpg,0.0,clock_5_4.png,6.0,39,,,,,,,,,,,,,,,,,,0.0,34.0,34.0,34.0,1.0,,,,,,,,,,
0.0,1.0,1.1383,,,,,,orange_12s.jpg,0.0,clock_5_5.png,6.0,39,,,,,,,,,,,,,,,,,,0.0,35.0,35.0,35.0,1.0,,,,,,,,,,
,,,,,,,,,1.0,,,39,1.0,1.0,4.59496,,,,,,leash_10s.jpg,peach_04s.jpg,,,,,,,,,,,,,0.0,0.0,0.0,0.0,1.0,,,,,
,,,,,,,,,0.0,,,39,1.0,0.0,2.55366,,,,,,mannequin_05s.jpg,roller_coaster_07s.jpg,,,,,,,,,,,,,0.0,1.0,1.0,1.0,1.0,,,,,
,,,,,,,,,0.0,,,39,1.0,0.0,3.401435,,,,,,timer_03s.jpg,roulette_wheel_04s.jpg,,,,,,,,,,,,,0.0,2.0,2.0,2.0,1.0,,,,,
,,,,,,,,,0.0,,,39,1.0,0.0,1.881925,,,,,,seahorse_13s.jpg,lectern_08s.jpg,,,,,,,,,,,,,0.0,3.0,3.0,3.0,1.0,,,,,
,,,,,,,,,0.0,,,39,0.0,1.0,3.069215,,,,,,ring_03s.jpg,magnet_03s.jpg,,,,,,,,,,,,,0.0,4.0,4.0,4.0,1.0,,,,,
,,,,,,,,,0.0,,,39,0.0,1.0,2.741485,,,,,,machete_06s.jpg,gargoyle_08s.jpg,,,,,,,,,,,,,0.0,5.0,5.0,5.0,1.0,,,,,
,,,,,,,,,,,,39,,,,,,,,,,,,,,,,clock_present_3_18.xlsx,clock_compare_task_3_18.xlsx,,,,,,,,,,,0.0,2.0,2.0,2.0,1.0
0.0,1.0,0.976815,,,,,,peeler_06s.jpg,0.0,clock_6_1.png,1.0,39,,,,,,,,,,,,,,,,,,0.0,0.0,0.0,0.0,1.0,,,,,,,,,,
0.0,1.0,1.682405,,,,,,flip_flop_03s.jpg,0.0,clock_6_2.png,1.0,39,,,,,,,,,,,,,,,,,,0.0,1.0,1.0,1.0,1.0,,,,,,,,,,
1.0,1.0,1.63503,,,,,,flip_flop_03s.jpg,1.0,clock_6_3.png,1.0,39,,,,,,,,,,,,,,,,,,0.0,2.0,2.0,2.0,1.0,,,,,,,,,,
0.0,1.0,0.83416,,,,,,orchid_01b.jpg,0.0,clock_6_4.png,1.0,39,,,,,,,,,,,,,,,,,,0.0,3.0,3.0,3.0,1.0,,,,,,,,,,
1.0,1.0,2.38787,,,,,,peeler_06s.jpg,1.0,clock_6_5.png,1.0,39,,,,,,,,,,,,,,,,,,0.0,4.0,4.0,4.0,1.0,,,,,,,,,,
0.0,1.0,1.128825,,,,,,machine_gun_09s.jpg,0.0,clock_6_6.png,1.0,39,,,,,,,,,,,,,,,,,,0.0,5.0,5.0,5.0,1.0,,,,,,,,,,
0.0,1.0,1.16529,,,,,,tattoo_14s.jpg,0.0,clock_5_1.png,2.0,39,,,,,,,,,,,,,,,,,,0.0,6.0,6.0,6.0,1.0,,,,,,,,,,
1.0,1.0,1.545375,,,,,,tattoo_14s.jpg,1.0,clock_5_2.png,2.0,39,,,,,,,,,,,,,,,,,,0.0,7.0,7.0,7.0,1.0,,,,,,,,,,
0.0,1.0,0.58652,,,,,,bolo_tie_08s.jpg,0.0,clock_5_3.png,2.0,39,,,,,,,,,,,,,,,,,,0.0,8.0,8.0,8.0,1.0,,,,,,,,,,
0.0,1.0,1.66026,,,,,,petri_dish_12s.jpg,0.0,clock_5_4.png,2.0,39,,,,,,,,,,,,,,,,,,0.0,9.0,9.0,9.0,1.0,,,,,,,,,,
0.0,1.0,1.50509,,,,,,mushroom_10n.jpg,0.0,clock_5_5.png,2.0,39,,,,,,,,,,,,,,,,,,0.0,10.0,10.0,10.0,1.0,,,,,,,,,,
0.0,1.0,1.213505,,,,,,tape_06s.jpg,0.0,clock_7_1.png,3.0,39,,,,,,,,,,,,,,,,,,0.0,11.0,11.0,11.0,1.0,,,,,,,,,,
1.0,1.0,1.908215,,,,,,tape_06s.jpg,1.0,clock_7_2.png,3.0,39,,,,,,,,,,,,,,,,,,0.0,12.0,12.0,12.0,1.0,,,,,,,,,,
1.0,1.0,1.169695,,,,,,tape_06s.jpg,1.0,clock_7_3.png,3.0,39,,,,,,,,,,,,,,,,,,0.0,13.0,13.0,13.0,1.0,,,,,,,,,,
0.0,1.0,1.719945,,,,,,rug_09s.jpg,0.0,clock_7_4.png,3.0,39,,,,,,,,,,,,,,,,,,0.0,14.0,14.0,14.0,1.0,,,,,,,,,,
0.0,1.0,1.09277,,,,,,teabag_12s.jpg,0.0,clock_7_5.png,3.0,39,,,,,,,,,,,,,,,,,,0.0,15.0,15.0,15.0,1.0,,,,,,,,,,
0.0,1.0,1.155955,,,,,,jet_15s.jpg,0.0,clock_7_6.png,3.0,39,,,,,,,,,,,,,,,,,,0.0,16.0,16.0,16.0,1.0,,,,,,,,,,
0.0,1.0,0.89875,,,,,,throne_11s.jpg,0.0,clock_7_7.png,3.0,39,,,,,,,,,,,,,,,,,,0.0,17.0,17.0,17.0,1.0,,,,,,,,,,
0.0,1.0,1.341655,,,,,,padlock_07s.jpg,0.0,clock_5_1.png,4.0,39,,,,,,,,,,,,,,,,,,0.0,18.0,18.0,18.0,1.0,,,,,,,,,,
1.0,1.0,1.36242,,,,,,padlock_07s.jpg,1.0,clock_5_2.png,4.0,39,,,,,,,,,,,,,,,,,,0.0,19.0,19.0,19.0,1.0,,,,,,,,,,
0.0,1.0,1.297505,,,,,,purse_05s.jpg,0.0,clock_5_3.png,4.0,39,,,,,,,,,,,,,,,,,,0.0,20.0,20.0,20.0,1.0,,,,,,,,,,
0.0,1.0,1.56292,,,,,,snowman_02s.jpg,0.0,clock_5_4.png,4.0,39,,,,,,,,,,,,,,,,,,0.0,21.0,21.0,21.0,1.0,,,,,,,,,,
,0.0,,,,,,,purse_05s.jpg,1.0,clock_5_5.png,4.0,39,,,,,,,,,,,,,,,,,,0.0,22.0,22.0,22.0,1.0,,,,,,,,,,
0.0,1.0,1.146055,,,,,,cotton_candy_01b.jpg,0.0,clock_6_1.png,5.0,39,,,,,,,,,,,,,,,,,,0.0,23.0,23.0,23.0,1.0,,,,,,,,,,
0.0,1.0,2.150025,,,,,,lollipop_08s.jpg,0.0,clock_6_2.png,5.0,39,,,,,,,,,,,,,,,,,,0.0,24.0,24.0,24.0,1.0,,,,,,,,,,
0.0,1.0,1.210935,,,,,,birthday_cake_09s.jpg,0.0,clock_6_3.png,5.0,39,,,,,,,,,,,,,,,,,,0.0,25.0,25.0,25.0,1.0,,,,,,,,,,
0.0,1.0,1.293185,,,,,,pipe1_10s.jpg,0.0,clock_6_4.png,5.0,39,,,,,,,,,,,,,,,,,,0.0,26.0,26.0,26.0,1.0,,,,,,,,,,
0.0,1.0,1.596905,,,,,,totem_pole_05s.jpg,0.0,clock_6_5.png,5.0,39,,,,,,,,,,,,,,,,,,0.0,27.0,27.0,27.0,1.0,,,,,,,,,,
0.0,1.0,1.649395,,,,,,teapot_03s.jpg,0.0,clock_6_6.png,5.0,39,,,,,,,,,,,,,,,,,,0.0,28.0,28.0,28.0,1.0,,,,,,,,,,
0.0,1.0,1.221375,,,,,,polaroid_05s.jpg,0.0,clock_7_1.png,6.0,39,,,,,,,,,,,,,,,,,,0.0,29.0,29.0,29.0,1.0,,,,,,,,,,
0.0,1.0,1.38195,,,,,,marker_05s.jpg,0.0,clock_7_2.png,6.0,39,,,,,,,,,,,,,,,,,,0.0,30.0,30.0,30.0,1.0,,,,,,,,,,
0.0,1.0,1.33487,,,,,,pacifier_09s.jpg,0.0,clock_7_3.png,6.0,39,,,,,,,,,,,,,,,,,,0.0,31.0,31.0,31.0,1.0,,,,,,,,,,
0.0,1.0,1.598275,,,,,,comic_book_02s.jpg,0.0,clock_7_4.png,6.0,39,,,,,,,,,,,,,,,,,,0.0,32.0,32.0,32.0,1.0,,,,,,,,,,
0.0,1.0,1.08877,,,,,,telephone_pole_05s.jpg,0.0,clock_7_5.png,6.0,39,,,,,,,,,,,,,,,,,,0.0,33.0,33.0,33.0,1.0,,,,,,,,,,
0.0,1.0,0.683035,,,,,,turnstile_08s.jpg,0.0,clock_7_6.png,6.0,39,,,,,,,,,,,,,,,,,,0.0,34.0,34.0,34.0,1.0,,,,,,,,,,
0.0,1.0,0.659865,,,,,,jersey_02s.jpg,0.0,clock_7_7.png,6.0,39,,,,,,,,,,,,,,,,,,0.0,35.0,35.0,35.0,1.0,,,,,,,,,,
,,,,,,,,,0.0,,,39,1.0,0.0,3.468955,,,,,,bolo_tie_08s.jpg,machine_gun_09s.jpg,,,,,,,,,,,,,0.0,0.0,0.0,0.0,1.0,,,,,
,,,,,,,,,0.0,,,39,0.0,1.0,2.929855,,,,,,lollipop_08s.jpg,snowman_02s.jpg,,,,,,,,,,,,,0.0,1.0,1.0,1.0,1.0,,,,,
,,,,,,,,,1.0,,,39,0.0,0.0,3.00808,,,,,,pipe1_10s.jpg,polaroid_05s.jpg,,,,,,,,,,,,,0.0,2.0,2.0,2.0,1.0,,,,,
,,,,,,,,,1.0,,,39,1.0,1.0,2.34469,,,,,,rug_09s.jpg,throne_11s.jpg,,,,,,,,,,,,,0.0,3.0,3.0,3.0,1.0,,,,,
,,,,,,,,,0.0,,,39,1.0,0.0,4.31829,,,,,,jersey_02s.jpg,comic_book_02s.jpg,,,,,,,,,,,,,0.0,4.0,4.0,4.0,1.0,,,,,
,,,,,,,,,0.0,,,39,1.0,0.0,3.32424,,,,,,teapot_03s.jpg,birthday_cake_09s.jpg,,,,,,,,,,,,,0.0,5.0,5.0,5.0,1.0,,,,,
,,,,,,,,,,,,39,,,,,,,,,,,,,,,,clock_present_4_18.xlsx,clock_compare_task_4_18.xlsx,,,,,,,,,,,0.0,3.0,3.0,3.0,1.0
0.0,1.0,1.92717,,,,,,plunger_08s.jpg,0.0,clock_7_1.png,1.0,39,,,,,,,,,,,,,,,,,,0.0,0.0,0.0,0.0,1.0,,,,,,,,,,
0.0,1.0,0.73948,,,,,,footprint_11s.jpg,0.0,clock_7_2.png,1.0,39,,,,,,,,,,,,,,,,,,0.0,1.0,1.0,1.0,1.0,,,,,,,,,,
1.0,1.0,1.201125,,,,,,plunger_08s.jpg,1.0,clock_7_3.png,1.0,39,,,,,,,,,,,,,,,,,,0.0,2.0,2.0,2.0,1.0,,,,,,,,,,
0.0,1.0,0.909055,,,,,,pepper2_21s.jpg,0.0,clock_7_4.png,1.0,39,,,,,,,,,,,,,,,,,,0.0,3.0,3.0,3.0,1.0,,,,,,,,,,
0.0,1.0,0.607755,,,,,,mitten_10s.jpg,0.0,clock_7_5.png,1.0,39,,,,,,,,,,,,,,,,,,0.0,4.0,4.0,4.0,1.0,,,,,,,,,,
0.0,1.0,1.82344,,,,,,dynamite_01b.jpg,0.0,clock_7_6.png,1.0,39,,,,,,,,,,,,,,,,,,0.0,5.0,5.0,5.0,1.0,,,,,,,,,,
0.0,1.0,1.327965,,,,,,recliner_02s.jpg,0.0,clock_7_7.png,1.0,39,,,,,,,,,,,,,,,,,,0.0,6.0,6.0,6.0,1.0,,,,,,,,,,
0.0,1.0,1.905205,,,,,,crossbow_10s.jpg,0.0,clock_7_1.png,2.0,39,,,,,,,,,,,,,,,,,,0.0,7.0,7.0,7.0,1.0,,,,,,,,,,
0.0,1.0,1.476905,,,,,,fondue_07s.jpg,0.0,clock_7_2.png,2.0,39,,,,,,,,,,,,,,,,,,0.0,8.0,8.0,8.0,1.0,,,,,,,,,,
0.0,1.0,0.83532,,,,,,sushi_08s.jpg,0.0,clock_7_3.png,2.0,39,,,,,,,,,,,,,,,,,,0.0,9.0,9.0,9.0,1.0,,,,,,,,,,
1.0,1.0,1.200705,,,,,,fondue_07s.jpg,1.0,clock_7_4.png,2.0,39,,,,,,,,,,,,,,,,,,0.0,10.0,10.0,10.0,1.0,,,,,,,,,,
0.0,1.0,1.212155,,,,,,tiara_05s.jpg,0.0,clock_7_5.png,2.0,39,,,,,,,,,,,,,,,,,,0.0,11.0,11.0,11.0,1.0,,,,,,,,,,
0.0,1.0,1.02868,,,,,,contact_lens_15s.jpg,0.0,clock_7_6.png,2.0,39,,,,,,,,,,,,,,,,,,0.0,12.0,12.0,12.0,1.0,,,,,,,,,,
1.0,0.0,1.338605,,,,,,plunger_08s.jpg,0.0,clock_7_7.png,2.0,39,,,,,,,,,,,,,,,,,,0.0,13.0,13.0,13.0,1.0,,,,,,,,,,
0.0,1.0,1.848675,,,,,,polar_bear_02s.jpg,0.0,clock_5_1.png,3.0,39,,,,,,,,,,,,,,,,,,0.0,14.0,14.0,14.0,1.0,,,,,,,,,,
0.0,1.0,1.14065,,,,,,cereal_04s.jpg,0.0,clock_5_2.png,3.0,39,,,,,,,,,,,,,,,,,,0.0,15.0,15.0,15.0,1.0,,,,,,,,,,
0.0,1.0,1.92843,,,,,,hummingbird_05s.jpg,0.0,clock_5_3.png,3.0,39,,,,,,,,,,,,,,,,,,0.0,16.0,16.0,16.0,1.0,,,,,,,,,,
0.0,0.0,1.13991,,,,,,polar_bear_02s.jpg,1.0,clock_5_4.png,3.0,39,,,,,,,,,,,,,,,,,,0.0,17.0,17.0,17.0,1.0,,,,,,,,,,
0.0,1.0,0.65405,,,,,,omelet_07s.jpg,0.0,clock_5_5.png,3.0,39,,,,,,,,,,,,,,,,,,0.0,18.0,18.0,18.0,1.0,,,,,,,,,,
0.0,1.0,1.76216,,,,,,buoy_04s.jpg,0.0,clock_6_1.png,4.0,39,,,,,,,,,,,,,,,,,,0.0,19.0,19.0,19.0,1.0,,,,,,,,,,
0.0,1.0,1.400325,,,,,,dynamite_01b.jpg,0.0,clock_6_2.png,4.0,39,,,,,,,,,,,,,,,,,,0.0,20.0,20.0,20.0,1.0,,,,,,,,,,
0.0,1.0,1.072425,,,,,,peanut_butter_08s.jpg,0.0,clock_6_3.png,4.0,39,,,,,,,,,,,,,,,,,,0.0,21.0,21.0,21.0,1.0,,,,,,,,,,
1.0,1.0,1.042825,,,,,,buoy_04s.jpg,1.0,clock_6_4.png,4.0,39,,,,,,,,,,,,,,,,,,0.0,22.0,22.0,22.0,1.0,,,,,,,,,,
0.0,1.0,0.766015,,,,,,tripod_01b.jpg,0.0,clock_6_5.png,4.0,39,,,,,,,,,,,,,,,,,,0.0,23.0,23.0,23.0,1.0,,,,,,,,,,
1.0,1.0,1.319765,,,,,,tripod_01b.jpg,1.0,clock_6_6.png,4.0,39,,,,,,,,,,,,,,,,,,0.0,24.0,24.0,24.0,1.0,,,,,,,,,,
0.0,1.0,0.9183,,,,,,spoon02a.jpg,0.0,clock_5_1.png,5.0,39,,,,,,,,,,,,,,,,,,0.0,25.0,25.0,25.0,1.0,,,,,,,,,,
0.0,1.0,0.58301,,,,,,spatula04.jpg,0.0,clock_5_2.png,5.0,39,,,,,,,,,,,,,,,,,,0.0,26.0,26.0,26.0,1.0,,,,,,,,,,
0.0,1.0,0.878775,,,,,,sugar_cube_11s.jpg,0.0,clock_5_3.png,5.0,39,,,,,,,,,,,,,,,,,,0.0,27.0,27.0,27.0,1.0,,,,,,,,,,
0.0,1.0,1.36541,,,,,,recliner_02s.jpg,0.0,clock_5_4.png,5.0,39,,,,,,,,,,,,,,,,,,0.0,28.0,28.0,28.0,1.0,,,,,,,,,,
0.0,1.0,0.77622,,,,,,stethoscope_01b.jpg,0.0,clock_5_5.png,5.0,39,,,,,,,,,,,,,,,,,,0.0,29.0,29.0,29.0,1.0,,,,,,,,,,
0.0,1.0,0.86857,,,,,,coconut_08s.jpg,0.0,clock_6_1.png,6.0,39,,,,,,,,,,,,,,,,,,0.0,30.0,30.0,30.0,1.0,,,,,,,,,,
0.0,1.0,0.992425,,,,,,pocketknife_12s.jpg,0.0,clock_6_2.png,6.0,39,,,,,,,,,,,,,,,,,,0.0,31.0,31.0,31.0,1.0,,,,,,,,,,
0.0,1.0,0.93112,,,,,,jigsaw_puzzle_11s.jpg,0.0,clock_6_3.png,6.0,39,,,,,,,,,,,,,,,,,,0.0,32.0,32.0,32.0,1.0,,,,,,,,,,
0.0,1.0,0.85731,,,,,,denture_03s.jpg,0.0,clock_6_4.png,6.0,39,,,,,,,,,,,,,,,,,,0.0,33.0,33.0,33.0,1.0,,,,,,,,,,
0.0,1.0,0.689965,,,,,,mask_09s.jpg,0.0,clock_6_5.png,6.0,39,,,,,,,,,,,,,,,,,,0.0,34.0,34.0,34.0,1.0,,,,,,,,,,
0.0,1.0,0.64816,,,,,,ivy_12s.jpg,0.0,clock_6_6.png,6.0,39,,,,,,,,,,,,,,,,,,0.0,35.0,35.0,35.0,1.0,,,,,,,,,,
,,,,,,,,,0.0,,,39,0.0,1.0,5.88778,,,,,,crossbow_10s.jpg,mitten_10s.jpg,,,,,,,,,,,,,0.0,0.0,0.0,0.0,1.0,,,,,
,,,,,,,,,0.0,,,39,0.0,1.0,4.02375,,,,,,peanut_butter_08s.jpg,omelet_07s.jpg,,,,,,,,,,,,,0.0,1.0,1.0,1.0,1.0,,,,,
,,,,,,,,,1.0,,,39,1.0,1.0,4.44739,,,,,,sugar_cube_11s.jpg,coconut_08s.jpg,,,,,,,,,,,,,0.0,2.0,2.0,2.0,1.0,,,,,
,,,,,,,,,1.0,,,39,0.0,0.0,1.734105,,,,,,pocketknife_12s.jpg,mask_09s.jpg,,,,,,,,,,,,,0.0,3.0,3.0,3.0,1.0,,,,,
,,,,,,,,,0.0,,,39,0.0,1.0,2.71735,,,,,,contact_lens_15s.jpg,sushi_08s.jpg,,,,,,,,,,,,,0.0,4.0,4.0,4.0,1.0,,,,,
,,,,,,,,,0.0,,,39,0.0,1.0,2.957065,,,,,,stethoscope_01b.jpg,spatula04.jpg,,,,,,,,,,,,,0.0,5.0,5.0,5.0,1.0,,,,,
,,,,,,,,,,,,39,,,,,,,,,,,,,,,,clock_present_5_18.xlsx,clock_compare_task_5_18.xlsx,,,,,,,,,,,0.0,4.0,4.0,4.0,1.0
0.0,1.0,2.16994,,,,,,kite_04s.jpg,0.0,clock_5_1.png,1.0,39,,,,,,,,,,,,,,,,,,0.0,0.0,0.0,0.0,1.0,,,,,,,,,,
0.0,1.0,1.7009,,,,,,pretzel_09s.jpg,0.0,clock_5_2.png,1.0,39,,,,,,,,,,,,,,,,,,0.0,1.0,1.0,1.0,1.0,,,,,,,,,,
0.0,1.0,0.98843,,,,,,diving_board_07s.jpg,0.0,clock_5_3.png,1.0,39,,,,,,,,,,,,,,,,,,0.0,2.0,2.0,2.0,1.0,,,,,,,,,,
0.0,1.0,1.13235,,,,,,prism_10s.jpg,0.0,clock_5_4.png,1.0,39,,,,,,,,,,,,,,,,,,0.0,3.0,3.0,3.0,1.0,,,,,,,,,,
0.0,1.0,1.1992,,,,,,plug_08s.jpg,0.0,clock_5_5.png,1.0,39,,,,,,,,,,,,,,,,,,0.0,4.0,4.0,4.0,1.0,,,,,,,,,,
0.0,1.0,0.653205,,,,,,antenna_01b.jpg,0.0,clock_7_1.png,2.0,39,,,,,,,,,,,,,,,,,,0.0,5.0,5.0,5.0,1.0,,,,,,,,,,
0.0,1.0,1.30322,,,,,,pretzel_09s.jpg,0.0,clock_7_2.png,2.0,39,,,,,,,,,,,,,,,,,,0.0,6.0,6.0,6.0,1.0,,,,,,,,,,
0.0,1.0,0.74061,,,,,,mug_06s.jpg,0.0,clock_7_3.png,2.0,39,,,,,,,,,,,,,,,,,,0.0,7.0,7.0,7.0,1.0,,,,,,,,,,
0.0,0.0,1.10156,,,,,,antenna_01b.jpg,1.0,clock_7_4.png,2.0,39,,,,,,,,,,,,,,,,,,0.0,8.0,8.0,8.0,1.0,,,,,,,,,,
0.0,1.0,1.453975,,,,,,sledgehammer_03s.jpg,0.0,clock_7_5.png,2.0,39,,,,,,,,,,,,,,,,,,0.0,9.0,9.0,9.0,1.0,,,,,,,,,,
1.0,0.0,1.653645,,,,,,plug_08s.jpg,0.0,clock_7_6.png,2.0,39,,,,,,,,,,,,,,,,,,0.0,10.0,10.0,10.0,1.0,,,,,,,,,,
0.0,1.0,1.24949,,,,,,gas_mask_11s.jpg,0.0,clock_7_7.png,2.0,39,,,,,,,,,,,,,,,,,,0.0,11.0,11.0,11.0,1.0,,,,,,,,,,
0.0,1.0,1.049225,,,,,,coat_rack_01b.jpg,0.0,clock_7_1.png,3.0,39,,,,,,,,,,,,,,,,,,0.0,12.0,12.0,12.0,1.0,,,,,,,,,,
0.0,1.0,0.96255,,,,,,ladle_04s.jpg,0.0,clock_7_2.png,3.0,39,,,,,,,,,,,,,,,,,,0.0,13.0,13.0,13.0,1.0,,,,,,,,,,
0.0,1.0,0.90462,,,,,,fishhook_06s.jpg,0.0,clock_7_3.png,3.0,39,,,,,,,,,,,,,,,,,,0.0,14.0,14.0,14.0,1.0,,,,,,,,,,
0.0,1.0,1.65584,,,,,,camcorder_10s.jpg,0.0,clock_7_4.png,3.0,39,,,,,,,,,,,,,,,,,,0.0,15.0,15.0,15.0,1.0,,,,,,,,,,
0.0,1.0,0.88916,,,,,,koala_13s.jpg,0.0,clock_7_5.png,3.0,39,,,,,,,,,,,,,,,,,,0.0,16.0,16.0,16.0,1.0,,,,,,,,,,
0.0,1.0,0.81817,,,,,,treadmill_06s.jpg,0.0,clock_7_6.png,3.0,39,,,,,,,,,,,,,,,,,,0.0,17.0,17.0,17.0,1.0,,,,,,,,,,
0.0,1.0,0.99943,,,,,,jukebox_03n.jpg,0.0,clock_7_7.png,3.0,39,,,,,,,,,,,,,,,,,,0.0,18.0,18.0,18.0,1.0,,,,,,,,,,
0.0,1.0,1.11115,,,,,,trident_07s.jpg,0.0,clock_6_1.png,4.0,39,,,,,,,,,,,,,,,,,,0.0,19.0,19.0,19.0,1.0,,,,,,,,,,
0.0,1.0,0.676945,,,,,,loveseat_08s.jpg,0.0,clock_6_2.png,4.0,39,,,,,,,,,,,,,,,,,,0.0,20.0,20.0,20.0,1.0,,,,,,,,,,
0.0,1.0,1.42376,,,,,,muffin_12n.jpg,0.0,clock_6_3.png,4.0,39,,,,,,,,,,,,,,,,,,0.0,21.0,21.0,21.0,1.0,,,,,,,,,,
0.0,1.0,1.390645,,,,,,squirrel_02s.jpg,0.0,clock_6_4.png,4.0,39,,,,,,,,,,,,,,,,,,0.0,22.0,22.0,22.0,1.0,,,,,,,,,,
0.0,1.0,1.5322,,,,,,gas_mask_11s.jpg,0.0,clock_6_5.png,4.0,39,,,,,,,,,,,,,,,,,,0.0,23.0,23.0,23.0,1.0,,,,,,,,,,
0.0,1.0,0.72438,,,,,,birdcage_08s.jpg,0.0,clock_6_6.png,4.0,39,,,,,,,,,,,,,,,,,,0.0,24.0,24.0,24.0,1.0,,,,,,,,,,
0.0,1.0,0.630195,,,,,,sea_urchin_09s.jpg,0.0,clock_5_1.png,5.0,39,,,,,,,,,,,,,,,,,,0.0,25.0,25.0,25.0,1.0,,,,,,,,,,
0.0,1.0,0.78076,,,,,,lizard_10n.jpg,0.0,clock_5_2.png,5.0,39,,,,,,,,,,,,,,,,,,0.0,26.0,26.0,26.0,1.0,,,,,,,,,,
0.0,1.0,1.915345,,,,,,refrigerator_07s.jpg,0.0,clock_5_3.png,5.0,39,,,,,,,,,,,,,,,,,,0.0,27.0,27.0,27.0,1.0,,,,,,,,,,
0.0,1.0,0.866555,,,,,,toilet_paper_12s.jpg,0.0,clock_5_4.png,5.0,39,,,,,,,,,,,,,,,,,,0.0,28.0,28.0,28.0,1.0,,,,,,,,,,
0.0,1.0,1.410495,,,,,,pantyhose_07s.jpg,0.0,clock_5_5.png,5.0,39,,,,,,,,,,,,,,,,,,0.0,29.0,29.0,29.0,1.0,,,,,,,,,,
0.0,1.0,1.170945,,,,,,screwdriver02a.jpg,0.0,clock_6_1.png,6.0,39,,,,,,,,,,,,,,,,,,0.0,30.0,30.0,30.0,1.0,,,,,,,,,,
0.0,1.0,1.494945,,,,,,toaster_03s.jpg,0.0,clock_6_2.png,6.0,39,,,,,,,,,,,,,,,,,,0.0,31.0,31.0,31.0,1.0,,,,,,,,,,
0.0,1.0,1.612445,,,,,,toad_09s.jpg,0.0,clock_6_3.png,6.0,39,,,,,,,,,,,,,,,,,,0.0,32.0,32.0,32.0,1.0,,,,,,,,,,
0.0,1.0,1.55106,,,,,,pincushion_10s.jpg,0.0,clock_6_4.png,6.0,39,,,,,,,,,,,,,,,,,,0.0,33.0,33.0,33.0,1.0,,,,,,,,,,
1.0,1.0,1.50571,,,,,,screwdriver02a.jpg,1.0,clock_6_5.png,6.0,39,,,,,,,,,,,,,,,,,,0.0,34.0,34.0,34.0,1.0,,,,,,,,,,
0.0,1.0,0.87463,,,,,,coat_rack_01b.jpg,0.0,clock_6_6.png,6.0,39,,,,,,,,,,,,,,,,,,0.0,35.0,35.0,35.0,1.0,,,,,,,,,,
,,,,,,,,,0.0,,,39,0.0,1.0,4.87587,,,,,,loveseat_08s.jpg,treadmill_06s.jpg,,,,,,,,,,,,,0.0,0.0,0.0,0.0,1.0,,,,,
,,,,,,,,,1.0,,,39,1.0,1.0,2.487415,,,,,,birdcage_08s.jpg,refrigerator_07s.jpg,,,,,,,,,,,,,0.0,1.0,1.0,1.0,1.0,,,,,
,,,,,,,,,0.0,,,39,1.0,0.0,2.593825,,,,,,toaster_03s.jpg,toilet_paper_12s.jpg,,,,,,,,,,,,,0.0,2.0,2.0,2.0,1.0,,,,,
,,,,,,,,,0.0,,,39,0.0,1.0,2.64926,,,,,,prism_10s.jpg,kite_04s.jpg,,,,,,,,,,,,,0.0,3.0,3.0,3.0,1.0,,,,,
,,,,,,,,,1.0,,,39,0.0,0.0,2.921555,,,,,,ladle_04s.jpg,koala_13s.jpg,,,,,,,,,,,,,0.0,4.0,4.0,4.0,1.0,,,,,
,,,,,,,,,1.0,,,39,1.0,1.0,2.212005,,,,,,camcorder_10s.jpg,jukebox_03n.jpg,,,,,,,,,,,,,0.0,5.0,5.0,5.0,1.0,,,,,
