key_resp.keys,key_resp.corr,key_resp.rt,present_segment.thisRepN,present_segment.thisTrialN,present_segment.thisN,present_segment.thisIndex,present_segment.ran,pictures,answer,clock,segment,participant,key_resp_2.keys,key_resp_2.corr,key_resp_2.rt,compare_segment.thisRepN,compare_segment.thisTrialN,compare_segment.thisN,compare_segment.thisIndex,compare_segment.ran,item_a,item_b,clock_conditions.thisRepN,clock_conditions.thisTrialN,clock_conditions.thisN,clock_conditions.thisIndex,clock_conditions.ran,present,compare,noclock_present.thisRepN,noclock_present.thisTrialN,noclock_present.thisN,noclock_present.thisIndex,noclock_present.ran,noclock_compare.thisRepN,noclock_compare.thisTrialN,noclock_compare.thisN,noclock_compare.thisIndex,noclock_compare.ran,noclock_conditions.thisRepN,noclock_conditions.thisTrialN,noclock_conditions.thisN,noclock_conditions.thisIndex,noclock_conditions.ran
0.0,1.0,0.83963,0.0,0.0,0.0,0.0,1.0,snowman_02s.jpg,0.0,clock_6_1.png,1.0,2,,,,,,,,,,,,,,,,,,,,,,,,,,,,,,,,
0.0,1.0,1.362775,0.0,1.0,1.0,1.0,1.0,juicer1_08s.jpg,0.0,clock_6_2.png,1.0,2,,,,,,,,,,,,,,,,,,,,,,,,,,,,,,,,
1.0,1.0,1.26122,0.0,2.0,2.0,2.0,1.0,juicer1_08s.jpg,1.0,clock_6_3.png,1.0,2,,,,,,,,,,,,,,,,,,,,,,,,,,,,,,,,
0.0,1.0,1.294015,0.0,3.0,3.0,3.0,1.0,comic_book_02s.jpg,0.0,clock_6_4.png,1.0,2,,,,,,,,,,,,,,,,,,,,,,,,,,,,,,,,
1.0,1.0,0.606005,0.0,4.0,4.0,4.0,1.0,comic_book_02s.jpg,1.0,clock_6_5.png,1.0,2,,,,,,,,,,,,,,,,,,,,,,,,,,,,,,,,
1.0,0.0,0.73634,0.0,5.0,5.0,5.0,1.0,rug_09s.jpg,0.0,clock_6_6.png,1.0,2,,,,,,,,,,,,,,,,,,,,,,,,,,,,,,,,
0.0,1.0,0.67398,0.0,6.0,6.0,6.0,1.0,boomerang_06s.jpg,0.0,clock_5_1.png,2.0,2,,,,,,,,,,,,,,,,,,,,,,,,,,,,,,,,
0.0,1.0,0.93973,0.0,7.0,7.0,7.0,1.0,tongs_08s.jpg,0.0,clock_5_2.png,2.0,2,,,,,,,,,,,,,,,,,,,,,,,,,,,,,,,,
0.0,1.0,0.69314,0.0,8.0,8.0,8.0,1.0,crayon_09s.jpg,0.0,clock_5_3.png,2.0,2,,,,,,,,,,,,,,,,,,,,,,,,,,,,,,,,
1.0,0.0,1.27093,0.0,9.0,9.0,9.0,1.0,smokingpipe.jpg,0.0,clock_5_4.png,2.0,2,,,,,,,,,,,,,,,,,,,,,,,,,,,,,,,,
1.0,0.0,1.05582,0.0,10.0,10.0,10.0,1.0,safety_pin_02s.jpg,0.0,clock_5_5.png,2.0,2,,,,,,,,,,,,,,,,,,,,,,,,,,,,,,,,
0.0,1.0,0.92185,0.0,11.0,11.0,11.0,1.0,quesadilla_07s.jpg,0.0,clock_6_1.png,3.0,2,,,,,,,,,,,,,,,,,,,,,,,,,,,,,,,,
1.0,1.0,0.32449,0.0,12.0,12.0,12.0,1.0,quesadilla_07s.jpg,1.0,clock_6_2.png,3.0,2,,,,,,,,,,,,,,,,,,,,,,,,,,,,,,,,
1.0,1.0,0.685755,0.0,13.0,13.0,13.0,1.0,quesadilla_07s.jpg,1.0,clock_6_3.png,3.0,2,,,,,,,,,,,,,,,,,,,,,,,,,,,,,,,,
0.0,1.0,1.199055,0.0,14.0,14.0,14.0,1.0,letter_opener_03s.jpg,0.0,clock_6_4.png,3.0,2,,,,,,,,,,,,,,,,,,,,,,,,,,,,,,,,
0.0,1.0,0.897785,0.0,15.0,15.0,15.0,1.0,feather02.jpg,0.0,clock_6_5.png,3.0,2,,,,,,,,,,,,,,,,,,,,,,,,,,,,,,,,
1.0,0.0,1.41835,0.0,16.0,16.0,16.0,1.0,tongs_08s.jpg,0.0,clock_6_6.png,3.0,2,,,,,,,,,,,,,,,,,,,,,,,,,,,,,,,,
0.0,1.0,0.667325,0.0,17.0,17.0,17.0,1.0,bathtub_23s.jpg,0.0,clock_5_1.png,4.0,2,,,,,,,,,,,,,,,,,,,,,,,,,,,,,,,,
1.0,0.0,1.37379,0.0,18.0,18.0,18.0,1.0,tongs_08s.jpg,0.0,clock_5_2.png,4.0,2,,,,,,,,,,,,,,,,,,,,,,,,,,,,,,,,
0.0,1.0,0.71892,0.0,19.0,19.0,19.0,1.0,loom_05s.jpg,0.0,clock_5_3.png,4.0,2,,,,,,,,,,,,,,,,,,,,,,,,,,,,,,,,
0.0,1.0,1.736875,0.0,20.0,20.0,20.0,1.0,light_switch_02s.jpg,0.0,clock_5_4.png,4.0,2,,,,,,,,,,,,,,,,,,,,,,,,,,,,,,,,
1.0,1.0,1.394975,0.0,21.0,21.0,21.0,1.0,light_switch_02s.jpg,1.0,clock_5_5.png,4.0,2,,,,,,,,,,,,,,,,,,,,,,,,,,,,,,,,
0.0,1.0,1.458695,0.0,22.0,22.0,22.0,1.0,swing_set_15s.jpg,0.0,clock_7_1.png,5.0,2,,,,,,,,,,,,,,,,,,,,,,,,,,,,,,,,
0.0,1.0,1.156445,0.0,23.0,23.0,23.0,1.0,frog_09s.jpg,0.0,clock_7_2.png,5.0,2,,,,,,,,,,,,,,,,,,,,,,,,,,,,,,,,
0.0,1.0,1.797855,0.0,24.0,24.0,24.0,1.0,olive_05s.jpg,0.0,clock_7_3.png,5.0,2,,,,,,,,,,,,,,,,,,,,,,,,,,,,,,,,
0.0,1.0,1.360195,0.0,25.0,25.0,25.0,1.0,safety_pin_02s.jpg,0.0,clock_7_4.png,5.0,2,,,,,,,,,,,,,,,,,,,,,,,,,,,,,,,,
0.0,1.0,0.753135,0.0,26.0,26.0,26.0,1.0,espresso_01b.jpg,0.0,clock_7_5.png,5.0,2,,,,,,,,,,,,,,,,,,,,,,,,,,,,,,,,
0.0,1.0,0.65142,0.0,27.0,27.0,27.0,1.0,doily_13s.jpg,0.0,clock_7_6.png,5.0,2,,,,,,,,,,,,,,,,,,,,,,,,,,,,,,,,
0.0,1.0,0.86795,0.0,28.0,28.0,28.0,1.0,punch2_09s.jpg,0.0,clock_7_7.png,5.0,2,,,,,,,,,,,,,,,,,,,,,,,,,,,,,,,,
0.0,1.0,0.798325,0.0,29.0,29.0,29.0,1.0,keyboard_05s.jpg,0.0,clock_7_1.png,6.0,2,,,,,,,,,,,,,,,,,,,,,,,,,,,,,,,,
0.0,1.0,0.55989,0.0,30.0,30.0,30.0,1.0,lollipop_08s.jpg,0.0,clock_7_2.png,6.0,2,,,,,,,,,,,,,,,,,,,,,,,,,,,,,,,,
0.0,1.0,0.617495,0.0,31.0,31.0,31.0,1.0,soccer_ball_12s.jpg,0.0,clock_7_3.png,6.0,2,,,,,,,,,,,,,,,,,,,,,,,,,,,,,,,,
1.0,1.0,1.34839,0.0,32.0,32.0,32.0,1.0,keyboard_05s.jpg,1.0,clock_7_4.png,6.0,2,,,,,,,,,,,,,,,,,,,,,,,,,,,,,,,,
0.0,1.0,0.636835,0.0,33.0,33.0,33.0,1.0,aluminum_foil_08s.jpg,0.0,clock_7_5.png,6.0,2,,,,,,,,,,,,,,,,,,,,,,,,,,,,,,,,
0.0,1.0,0.718875,0.0,34.0,34.0,34.0,1.0,peach_04s.jpg,0.0,clock_7_6.png,6.0,2,,,,,,,,,,,,,,,,,,,,,,,,,,,,,,,,
0.0,1.0,0.711785,0.0,35.0,35.0,35.0,1.0,binder_21s.jpg,0.0,clock_7_7.png,6.0,2,,,,,,,,,,,,,,,,,,,,,,,,,,,,,,,,
,,,,,,,,,1.0,,,2,0.0,0.0,2.32209,0.0,0.0,0.0,0.0,1.0,rug_09s.jpg,crayon_09s.jpg,,,,,,,,,,,,,,,,,,,,,,
,,,,,,,,,0.0,,,2,0.0,1.0,1.68927,0.0,1.0,1.0,1.0,1.0,bathtub_23s.jpg,letter_opener_03s.jpg,,,,,,,,,,,,,,,,,,,,,,
,,,,,,,,,0.0,,,2,1.0,0.0,1.45739,0.0,2.0,2.0,2.0,1.0,swing_set_15s.jpg,loom_05s.jpg,,,,,,,,,,,,,,,,,,,,,,
,,,,,,,,,1.0,,,2,1.0,1.0,1.59496,0.0,3.0,3.0,3.0,1.0,boomerang_06s.jpg,smokingpipe.jpg,,,,,,,,,,,,,,,,,,,,,,
,,,,,,,,,1.0,,,2,1.0,1.0,1.192265,0.0,4.0,4.0,4.0,1.0,frog_09s.jpg,espresso_01b.jpg,,,,,,,,,,,,,,,,,,,,,,
,,,,,,,,,1.0,,,2,1.0,1.0,1.98921,0.0,5.0,5.0,5.0,1.0,olive_05s.jpg,doily_13s.jpg,,,,,,,,,,,,,,,,,,,,,,
,,,,,,,,,,,,2,,,,,,,,,,,0.0,0.0,0.0,0.0,1.0,clock_present_1_12.xlsx,clock_compare_task_1_12.xlsx,,,,,,,,,,,,,,,
0.0,1.0,0.82033,0.0,0.0,0.0,0.0,1.0,lasagna_06s.jpg,0.0,clock_5_1.png,1.0,2,,,,,,,,,,,,,,,,,,,,,,,,,,,,,,,,
1.0,1.0,1.517565,0.0,1.0,1.0,1.0,1.0,lasagna_06s.jpg,1.0,clock_5_2.png,1.0,2,,,,,,,,,,,,,,,,,,,,,,,,,,,,,,,,
0.0,1.0,0.6386,0.0,2.0,2.0,2.0,1.0,triangle_10s.jpg,0.0,clock_5_3.png,1.0,2,,,,,,,,,,,,,,,,,,,,,,,,,,,,,,,,
0.0,1.0,0.80096,0.0,3.0,3.0,3.0,1.0,recliner_02s.jpg,0.0,clock_5_4.png,1.0,2,,,,,,,,,,,,,,,,,,,,,,,,,,,,,,,,
0.0,1.0,0.915315,0.0,4.0,4.0,4.0,1.0,tab_09s.jpg,0.0,clock_5_5.png,1.0,2,,,,,,,,,,,,,,,,,,,,,,,,,,,,,,,,
0.0,1.0,0.724375,0.0,5.0,5.0,5.0,1.0,crate_05s.jpg,0.0,clock_6_1.png,2.0,2,,,,,,,,,,,,,,,,,,,,,,,,,,,,,,,,
0.0,1.0,0.74859,0.0,6.0,6.0,6.0,1.0,jukebox_03n.jpg,0.0,clock_6_2.png,2.0,2,,,,,,,,,,,,,,,,,,,,,,,,,,,,,,,,
0.0,1.0,0.55085,0.0,7.0,7.0,7.0,1.0,possum_09s.jpg,0.0,clock_6_3.png,2.0,2,,,,,,,,,,,,,,,,,,,,,,,,,,,,,,,,
0.0,1.0,0.681265,0.0,8.0,8.0,8.0,1.0,spacesuit_02s.jpg,0.0,clock_6_4.png,2.0,2,,,,,,,,,,,,,,,,,,,,,,,,,,,,,,,,
0.0,1.0,2.347725,0.0,9.0,9.0,9.0,1.0,recliner_02s.jpg,0.0,clock_6_5.png,2.0,2,,,,,,,,,,,,,,,,,,,,,,,,,,,,,,,,
0.0,1.0,1.25993,0.0,10.0,10.0,10.0,1.0,tab_09s.jpg,0.0,clock_6_6.png,2.0,2,,,,,,,,,,,,,,,,,,,,,,,,,,,,,,,,
0.0,1.0,0.829415,0.0,11.0,11.0,11.0,1.0,key_07s.jpg,0.0,clock_7_1.png,3.0,2,,,,,,,,,,,,,,,,,,,,,,,,,,,,,,,,
0.0,1.0,1.43843,0.0,12.0,12.0,12.0,1.0,badge_03s.jpg,0.0,clock_7_2.png,3.0,2,,,,,,,,,,,,,,,,,,,,,,,,,,,,,,,,
0.0,1.0,1.463325,0.0,13.0,13.0,13.0,1.0,fire_alarm_05s.jpg,0.0,clock_7_3.png,3.0,2,,,,,,,,,,,,,,,,,,,,,,,,,,,,,,,,
0.0,1.0,0.96187,0.0,14.0,14.0,14.0,1.0,fishhook_06s.jpg,0.0,clock_7_4.png,3.0,2,,,,,,,,,,,,,,,,,,,,,,,,,,,,,,,,
0.0,1.0,1.587645,0.0,15.0,15.0,15.0,1.0,tuxedo_01b.jpg,0.0,clock_7_5.png,3.0,2,,,,,,,,,,,,,,,,,,,,,,,,,,,,,,,,
1.0,0.0,1.6538,0.0,16.0,16.0,16.0,1.0,jukebox_03n.jpg,0.0,clock_7_6.png,3.0,2,,,,,,,,,,,,,,,,,,,,,,,,,,,,,,,,
0.0,1.0,0.76652,0.0,17.0,17.0,17.0,1.0,treasure_08s.jpg,0.0,clock_7_7.png,3.0,2,,,,,,,,,,,,,,,,,,,,,,,,,,,,,,,,
0.0,1.0,0.855905,0.0,18.0,18.0,18.0,1.0,tie_03s.jpg,0.0,clock_6_1.png,4.0,2,,,,,,,,,,,,,,,,,,,,,,,,,,,,,,,,
0.0,1.0,1.369175,0.0,19.0,19.0,19.0,1.0,lamb_04s.jpg,0.0,clock_6_2.png,4.0,2,,,,,,,,,,,,,,,,,,,,,,,,,,,,,,,,
0.0,1.0,1.53093,0.0,20.0,20.0,20.0,1.0,hummingbird_05s.jpg,0.0,clock_6_3.png,4.0,2,,,,,,,,,,,,,,,,,,,,,,,,,,,,,,,,
0.0,1.0,1.372735,0.0,21.0,21.0,21.0,1.0,glasses01a.jpg,0.0,clock_6_4.png,4.0,2,,,,,,,,,,,,,,,,,,,,,,,,,,,,,,,,
0.0,1.0,0.798255,0.0,22.0,22.0,22.0,1.0,puck_06s.jpg,0.0,clock_6_5.png,4.0,2,,,,,,,,,,,,,,,,,,,,,,,,,,,,,,,,
0.0,1.0,0.60827,0.0,23.0,23.0,23.0,1.0,mold2_04s.jpg,0.0,clock_6_6.png,4.0,2,,,,,,,,,,,,,,,,,,,,,,,,,,,,,,,,
0.0,1.0,2.21672,0.0,24.0,24.0,24.0,1.0,pocket_watch_16s.jpg,0.0,clock_5_1.png,5.0,2,,,,,,,,,,,,,,,,,,,,,,,,,,,,,,,,
0.0,1.0,1.523535,0.0,25.0,25.0,25.0,1.0,recliner_02s.jpg,0.0,clock_5_2.png,5.0,2,,,,,,,,,,,,,,,,,,,,,,,,,,,,,,,,
1.0,1.0,1.116415,0.0,26.0,26.0,26.0,1.0,pocket_watch_16s.jpg,1.0,clock_5_3.png,5.0,2,,,,,,,,,,,,,,,,,,,,,,,,,,,,,,,,
0.0,1.0,1.25413,0.0,27.0,27.0,27.0,1.0,prism_10s.jpg,0.0,clock_5_4.png,5.0,2,,,,,,,,,,,,,,,,,,,,,,,,,,,,,,,,
0.0,1.0,1.20838,0.0,28.0,28.0,28.0,1.0,piggy_bank_02s.jpg,0.0,clock_5_5.png,5.0,2,,,,,,,,,,,,,,,,,,,,,,,,,,,,,,,,
0.0,1.0,2.15345,0.0,29.0,29.0,29.0,1.0,dashboard_02s.jpg,0.0,clock_7_1.png,6.0,2,,,,,,,,,,,,,,,,,,,,,,,,,,,,,,,,
1.0,1.0,0.92273,0.0,30.0,30.0,30.0,1.0,dashboard_02s.jpg,1.0,clock_7_2.png,6.0,2,,,,,,,,,,,,,,,,,,,,,,,,,,,,,,,,
0.0,1.0,1.108065,0.0,31.0,31.0,31.0,1.0,beaker_01b.jpg,0.0,clock_7_3.png,6.0,2,,,,,,,,,,,,,,,,,,,,,,,,,,,,,,,,
0.0,1.0,1.82156,0.0,32.0,32.0,32.0,1.0,fondue_07s.jpg,0.0,clock_7_4.png,6.0,2,,,,,,,,,,,,,,,,,,,,,,,,,,,,,,,,
0.0,1.0,0.75888,0.0,33.0,33.0,33.0,1.0,seagull_01b.jpg,0.0,clock_7_5.png,6.0,2,,,,,,,,,,,,,,,,,,,,,,,,,,,,,,,,
1.0,1.0,0.715195,0.0,34.0,34.0,34.0,1.0,seagull_01b.jpg,1.0,clock_7_6.png,6.0,2,,,,,,,,,,,,,,,,,,,,,,,,,,,,,,,,
1.0,1.0,1.21895,0.0,35.0,35.0,35.0,1.0,beaker_01b.jpg,1.0,clock_7_7.png,6.0,2,,,,,,,,,,,,,,,,,,,,,,,,,,,,,,,,
,,,,,,,,,1.0,,,2,0.0,0.0,2.09945,0.0,0.0,0.0,0.0,1.0,triangle_10s.jpg,crate_05s.jpg,,,,,,,,,,,,,,,,,,,,,,
,,,,,,,,,1.0,,,2,0.0,0.0,2.4823,0.0,1.0,1.0,1.0,1.0,spacesuit_02s.jpg,key_07s.jpg,,,,,,,,,,,,,,,,,,,,,,
,,,,,,,,,1.0,,,2,1.0,1.0,1.765055,0.0,2.0,2.0,2.0,1.0,tuxedo_01b.jpg,tie_03s.jpg,,,,,,,,,,,,,,,,,,,,,,
,,,,,,,,,1.0,,,2,1.0,1.0,1.473355,0.0,3.0,3.0,3.0,1.0,lamb_04s.jpg,puck_06s.jpg,,,,,,,,,,,,,,,,,,,,,,
,,,,,,,,,0.0,,,2,0.0,1.0,2.19545,0.0,4.0,4.0,4.0,1.0,treasure_08s.jpg,fishhook_06s.jpg,,,,,,,,,,,,,,,,,,,,,,
,,,,,,,,,1.0,,,2,0.0,0.0,1.77566,0.0,5.0,5.0,5.0,1.0,hummingbird_05s.jpg,mold2_04s.jpg,,,,,,,,,,,,,,,,,,,,,,
,,,,,,,,,,,,2,,,,,,,,,,,0.0,1.0,1.0,1.0,1.0,clock_present_2_12.xlsx,clock_compare_task_2_12.xlsx,,,,,,,,,,,,,,,
0.0,1.0,0.830365,0.0,0.0,0.0,0.0,1.0,piano_13n.jpg,0.0,clock_7_1.png,1.0,2,,,,,,,,,,,,,,,,,,,,,,,,,,,,,,,,
0.0,1.0,0.55706,0.0,1.0,1.0,1.0,1.0,pincushion_10s.jpg,0.0,clock_7_2.png,1.0,2,,,,,,,,,,,,,,,,,,,,,,,,,,,,,,,,
0.0,1.0,0.99111,0.0,2.0,2.0,2.0,1.0,lid_10s.jpg,0.0,clock_7_3.png,1.0,2,,,,,,,,,,,,,,,,,,,,,,,,,,,,,,,,
0.0,1.0,0.59166,0.0,3.0,3.0,3.0,1.0,ivy_12s.jpg,0.0,clock_7_4.png,1.0,2,,,,,,,,,,,,,,,,,,,,,,,,,,,,,,,,
0.0,0.0,2.130565,0.0,4.0,4.0,4.0,1.0,piano_13n.jpg,1.0,clock_7_5.png,1.0,2,,,,,,,,,,,,,,,,,,,,,,,,,,,,,,,,
0.0,1.0,1.45937,0.0,5.0,5.0,5.0,1.0,insole_11s.jpg,0.0,clock_7_6.png,1.0,2,,,,,,,,,,,,,,,,,,,,,,,,,,,,,,,,
0.0,1.0,1.228835,0.0,6.0,6.0,6.0,1.0,outlet_10s.jpg,0.0,clock_7_7.png,1.0,2,,,,,,,,,,,,,,,,,,,,,,,,,,,,,,,,
0.0,1.0,1.05504,0.0,7.0,7.0,7.0,1.0,coconut_08s.jpg,0.0,clock_5_1.png,2.0,2,,,,,,,,,,,,,,,,,,,,,,,,,,,,,,,,
0.0,1.0,1.351775,0.0,8.0,8.0,8.0,1.0,rocket_02s.jpg,0.0,clock_5_2.png,2.0,2,,,,,,,,,,,,,,,,,,,,,,,,,,,,,,,,
1.0,1.0,0.937255,0.0,9.0,9.0,9.0,1.0,coconut_08s.jpg,1.0,clock_5_3.png,2.0,2,,,,,,,,,,,,,,,,,,,,,,,,,,,,,,,,
0.0,1.0,1.227055,0.0,10.0,10.0,10.0,1.0,pillbox_04s.jpg,0.0,clock_5_4.png,2.0,2,,,,,,,,,,,,,,,,,,,,,,,,,,,,,,,,
0.0,1.0,1.220895,0.0,11.0,11.0,11.0,1.0,glue_01s.jpg,0.0,clock_5_5.png,2.0,2,,,,,,,,,,,,,,,,,,,,,,,,,,,,,,,,
0.0,1.0,0.88601,0.0,12.0,12.0,12.0,1.0,syringe_02s.jpg,0.0,clock_7_1.png,3.0,2,,,,,,,,,,,,,,,,,,,,,,,,,,,,,,,,
1.0,1.0,1.65693,0.0,13.0,13.0,13.0,1.0,syringe_02s.jpg,1.0,clock_7_2.png,3.0,2,,,,,,,,,,,,,,,,,,,,,,,,,,,,,,,,
0.0,1.0,0.69701,0.0,14.0,14.0,14.0,1.0,stopwatch_04s.jpg,0.0,clock_7_3.png,3.0,2,,,,,,,,,,,,,,,,,,,,,,,,,,,,,,,,
0.0,1.0,1.067665,0.0,15.0,15.0,15.0,1.0,mud_13s.jpg,0.0,clock_7_4.png,3.0,2,,,,,,,,,,,,,,,,,,,,,,,,,,,,,,,,
0.0,1.0,1.48442,0.0,16.0,16.0,16.0,1.0,blender_08s.jpg,0.0,clock_7_5.png,3.0,2,,,,,,,,,,,,,,,,,,,,,,,,,,,,,,,,
0.0,1.0,1.047605,0.0,17.0,17.0,17.0,1.0,roller_coaster_07s.jpg,0.0,clock_7_6.png,3.0,2,,,,,,,,,,,,,,,,,,,,,,,,,,,,,,,,
1.0,1.0,1.13614,0.0,18.0,18.0,18.0,1.0,syringe_02s.jpg,1.0,clock_7_7.png,3.0,2,,,,,,,,,,,,,,,,,,,,,,,,,,,,,,,,
,0.0,,0.0,19.0,19.0,19.0,1.0,pineapple_12s.jpg,0.0,clock_5_1.png,4.0,2,,,,,,,,,,,,,,,,,,,,,,,,,,,,,,,,
0.0,0.0,0.45976,0.0,20.0,20.0,20.0,1.0,pineapple_12s.jpg,1.0,clock_5_2.png,4.0,2,,,,,,,,,,,,,,,,,,,,,,,,,,,,,,,,
0.0,1.0,1.10876,0.0,21.0,21.0,21.0,1.0,target_11s.jpg,0.0,clock_5_3.png,4.0,2,,,,,,,,,,,,,,,,,,,,,,,,,,,,,,,,
1.0,1.0,0.798,0.0,22.0,22.0,22.0,1.0,target_11s.jpg,1.0,clock_5_4.png,4.0,2,,,,,,,,,,,,,,,,,,,,,,,,,,,,,,,,
1.0,1.0,0.663915,0.0,23.0,23.0,23.0,1.0,target_11s.jpg,1.0,clock_5_5.png,4.0,2,,,,,,,,,,,,,,,,,,,,,,,,,,,,,,,,
0.0,1.0,0.72899,0.0,24.0,24.0,24.0,1.0,bolo_tie_08s.jpg,0.0,clock_6_1.png,5.0,2,,,,,,,,,,,,,,,,,,,,,,,,,,,,,,,,
0.0,1.0,1.17079,0.0,25.0,25.0,25.0,1.0,screwdriver02a.jpg,0.0,clock_6_2.png,5.0,2,,,,,,,,,,,,,,,,,,,,,,,,,,,,,,,,
0.0,1.0,1.25215,0.0,26.0,26.0,26.0,1.0,stingray_02s.jpg,0.0,clock_6_3.png,5.0,2,,,,,,,,,,,,,,,,,,,,,,,,,,,,,,,,
0.0,1.0,1.49415,0.0,27.0,27.0,27.0,1.0,mango_09s.jpg,0.0,clock_6_4.png,5.0,2,,,,,,,,,,,,,,,,,,,,,,,,,,,,,,,,
0.0,1.0,0.630445,0.0,28.0,28.0,28.0,1.0,stethoscope_01b.jpg,0.0,clock_6_5.png,5.0,2,,,,,,,,,,,,,,,,,,,,,,,,,,,,,,,,
1.0,0.0,0.681085,0.0,29.0,29.0,29.0,1.0,mannequin_05s.jpg,0.0,clock_6_6.png,5.0,2,,,,,,,,,,,,,,,,,,,,,,,,,,,,,,,,
0.0,1.0,0.810395,0.0,30.0,30.0,30.0,1.0,ginger_09s.jpg,0.0,clock_6_1.png,6.0,2,,,,,,,,,,,,,,,,,,,,,,,,,,,,,,,,
0.0,1.0,0.811875,0.0,31.0,31.0,31.0,1.0,ice-cream_cone_06s.jpg,0.0,clock_6_2.png,6.0,2,,,,,,,,,,,,,,,,,,,,,,,,,,,,,,,,
0.0,1.0,0.59778,0.0,32.0,32.0,32.0,1.0,rolling_pin_02s.jpg,0.0,clock_6_3.png,6.0,2,,,,,,,,,,,,,,,,,,,,,,,,,,,,,,,,
0.0,0.0,0.93588,0.0,33.0,33.0,33.0,1.0,rolling_pin_02s.jpg,1.0,clock_6_4.png,6.0,2,,,,,,,,,,,,,,,,,,,,,,,,,,,,,,,,
1.0,1.0,0.984485,0.0,34.0,34.0,34.0,1.0,ginger_09s.jpg,1.0,clock_6_5.png,6.0,2,,,,,,,,,,,,,,,,,,,,,,,,,,,,,,,,
0.0,1.0,0.889885,0.0,35.0,35.0,35.0,1.0,toilet_07s.jpg,0.0,clock_6_6.png,6.0,2,,,,,,,,,,,,,,,,,,,,,,,,,,,,,,,,
,,,,,,,,,1.0,,,2,1.0,1.0,1.55869,0.0,0.0,0.0,0.0,1.0,stethoscope_01b.jpg,ice-cream_cone_06s.jpg,,,,,,,,,,,,,,,,,,,,,,
,,,,,,,,,0.0,,,2,1.0,0.0,2.603795,0.0,1.0,1.0,1.0,1.0,rocket_02s.jpg,insole_11s.jpg,,,,,,,,,,,,,,,,,,,,,,
,,,,,,,,,1.0,,,2,0.0,0.0,2.3443,0.0,2.0,2.0,2.0,1.0,glue_01s.jpg,stopwatch_04s.jpg,,,,,,,,,,,,,,,,,,,,,,
,,,,,,,,,0.0,,,2,1.0,0.0,1.41443,0.0,3.0,3.0,3.0,1.0,outlet_10s.jpg,ivy_12s.jpg,,,,,,,,,,,,,,,,,,,,,,
,,,,,,,,,1.0,,,2,1.0,1.0,1.58705,0.0,4.0,4.0,4.0,1.0,bolo_tie_08s.jpg,mango_09s.jpg,,,,,,,,,,,,,,,,,,,,,,
,,,,,,,,,1.0,,,2,0.0,0.0,2.023315,0.0,5.0,5.0,5.0,1.0,stingray_02s.jpg,mannequin_05s.jpg,,,,,,,,,,,,,,,,,,,,,,
,,,,,,,,,,,,2,,,,,,,,,,,0.0,2.0,2.0,2.0,1.0,clock_present_3_12.xlsx,clock_compare_task_3_12.xlsx,,,,,,,,,,,,,,,
0.0,1.0,1.148955,0.0,0.0,0.0,0.0,1.0,roulette_wheel_04s.jpg,0.0,clock_7_1.png,1.0,2,,,,,,,,,,,,,,,,,,,,,,,,,,,,,,,,
0.0,1.0,1.003055,0.0,1.0,1.0,1.0,1.0,gas_mask_11s.jpg,0.0,clock_7_2.png,1.0,2,,,,,,,,,,,,,,,,,,,,,,,,,,,,,,,,
0.0,1.0,0.73243,0.0,2.0,2.0,2.0,1.0,laser_pointer_02s.jpg,0.0,clock_7_3.png,1.0,2,,,,,,,,,,,,,,,,,,,,,,,,,,,,,,,,
0.0,1.0,0.606335,0.0,3.0,3.0,3.0,1.0,coral_08s.jpg,0.0,clock_7_4.png,1.0,2,,,,,,,,,,,,,,,,,,,,,,,,,,,,,,,,
0.0,1.0,0.520155,0.0,4.0,4.0,4.0,1.0,owl_15s.jpg,0.0,clock_7_5.png,1.0,2,,,,,,,,,,,,,,,,,,,,,,,,,,,,,,,,
0.0,1.0,1.04976,0.0,5.0,5.0,5.0,1.0,cereal_04s.jpg,0.0,clock_7_6.png,1.0,2,,,,,,,,,,,,,,,,,,,,,,,,,,,,,,,,
0.0,1.0,0.826355,0.0,6.0,6.0,6.0,1.0,kettle_08s.jpg,0.0,clock_7_7.png,1.0,2,,,,,,,,,,,,,,,,,,,,,,,,,,,,,,,,
0.0,1.0,1.15627,0.0,7.0,7.0,7.0,1.0,polaroid_05s.jpg,0.0,clock_7_1.png,2.0,2,,,,,,,,,,,,,,,,,,,,,,,,,,,,,,,,
0.0,1.0,2.047245,0.0,8.0,8.0,8.0,1.0,jalapeno_15s.jpg,0.0,clock_7_2.png,2.0,2,,,,,,,,,,,,,,,,,,,,,,,,,,,,,,,,
0.0,1.0,1.68032,0.0,9.0,9.0,9.0,1.0,joystick_01b.jpg,0.0,clock_7_3.png,2.0,2,,,,,,,,,,,,,,,,,,,,,,,,,,,,,,,,
0.0,1.0,0.489035,0.0,10.0,10.0,10.0,1.0,omelet_07s.jpg,0.0,clock_7_4.png,2.0,2,,,,,,,,,,,,,,,,,,,,,,,,,,,,,,,,
1.0,1.0,1.20348,0.0,11.0,11.0,11.0,1.0,omelet_07s.jpg,1.0,clock_7_5.png,2.0,2,,,,,,,,,,,,,,,,,,,,,,,,,,,,,,,,
0.0,1.0,1.0602,0.0,12.0,12.0,12.0,1.0,ant_12s.jpg,0.0,clock_7_6.png,2.0,2,,,,,,,,,,,,,,,,,,,,,,,,,,,,,,,,
0.0,1.0,0.56513,0.0,13.0,13.0,13.0,1.0,milk_02s.jpg,0.0,clock_7_7.png,2.0,2,,,,,,,,,,,,,,,,,,,,,,,,,,,,,,,,
0.0,1.0,0.55072,0.0,14.0,14.0,14.0,1.0,cotton_candy_01b.jpg,0.0,clock_5_1.png,3.0,2,,,,,,,,,,,,,,,,,,,,,,,,,,,,,,,,
0.0,1.0,0.88923,0.0,15.0,15.0,15.0,1.0,ram_05s.jpg,0.0,clock_5_2.png,3.0,2,,,,,,,,,,,,,,,,,,,,,,,,,,,,,,,,
1.0,0.0,0.883125,0.0,16.0,16.0,16.0,1.0,coral_08s.jpg,0.0,clock_5_3.png,3.0,2,,,,,,,,,,,,,,,,,,,,,,,,,,,,,,,,
0.0,1.0,1.68472,0.0,17.0,17.0,17.0,1.0,incense_02s.jpg,0.0,clock_5_4.png,3.0,2,,,,,,,,,,,,,,,,,,,,,,,,,,,,,,,,
0.0,1.0,0.772615,0.0,18.0,18.0,18.0,1.0,medal_04s.jpg,0.0,clock_5_5.png,3.0,2,,,,,,,,,,,,,,,,,,,,,,,,,,,,,,,,
0.0,1.0,2.143025,0.0,19.0,19.0,19.0,1.0,eyedropper_12s.jpg,0.0,clock_6_1.png,4.0,2,,,,,,,,,,,,,,,,,,,,,,,,,,,,,,,,
0.0,1.0,0.92022,0.0,20.0,20.0,20.0,1.0,touchpad_11s.jpg,0.0,clock_6_2.png,4.0,2,,,,,,,,,,,,,,,,,,,,,,,,,,,,,,,,
0.0,1.0,1.434125,0.0,21.0,21.0,21.0,1.0,fireworks_18s.jpg,0.0,clock_6_3.png,4.0,2,,,,,,,,,,,,,,,,,,,,,,,,,,,,,,,,
0.0,1.0,1.780855,0.0,22.0,22.0,22.0,1.0,cushion_08s.jpg,0.0,clock_6_4.png,4.0,2,,,,,,,,,,,,,,,,,,,,,,,,,,,,,,,,
0.0,1.0,0.5261,0.0,23.0,23.0,23.0,1.0,butter_14s.jpg,0.0,clock_6_5.png,4.0,2,,,,,,,,,,,,,,,,,,,,,,,,,,,,,,,,
0.0,1.0,1.51036,0.0,24.0,24.0,24.0,1.0,gazelle_10s.jpg,0.0,clock_6_6.png,4.0,2,,,,,,,,,,,,,,,,,,,,,,,,,,,,,,,,
0.0,1.0,0.664235,0.0,25.0,25.0,25.0,1.0,gingerbread_man_03s.jpg,0.0,clock_5_1.png,5.0,2,,,,,,,,,,,,,,,,,,,,,,,,,,,,,,,,
0.0,1.0,0.7617,0.0,26.0,26.0,26.0,1.0,lion_18s.jpg,0.0,clock_5_2.png,5.0,2,,,,,,,,,,,,,,,,,,,,,,,,,,,,,,,,
,0.0,,0.0,27.0,27.0,27.0,1.0,rhinoceros_02s.jpg,0.0,clock_5_3.png,5.0,2,,,,,,,,,,,,,,,,,,,,,,,,,,,,,,,,
0.0,1.0,0.692165,0.0,28.0,28.0,28.0,1.0,latch_15s.jpg,0.0,clock_5_4.png,5.0,2,,,,,,,,,,,,,,,,,,,,,,,,,,,,,,,,
0.0,1.0,0.797955,0.0,29.0,29.0,29.0,1.0,megaphone_03s.jpg,0.0,clock_5_5.png,5.0,2,,,,,,,,,,,,,,,,,,,,,,,,,,,,,,,,
0.0,1.0,0.673025,0.0,30.0,30.0,30.0,1.0,plaster_cast_13s.jpg,0.0,clock_6_1.png,6.0,2,,,,,,,,,,,,,,,,,,,,,,,,,,,,,,,,
0.0,1.0,0.689125,0.0,31.0,31.0,31.0,1.0,marshmallow_08s.jpg,0.0,clock_6_2.png,6.0,2,,,,,,,,,,,,,,,,,,,,,,,,,,,,,,,,
0.0,1.0,0.619465,0.0,32.0,32.0,32.0,1.0,medal_04s.jpg,0.0,clock_6_3.png,6.0,2,,,,,,,,,,,,,,,,,,,,,,,,,,,,,,,,
1.0,1.0,1.64548,0.0,33.0,33.0,33.0,1.0,marshmallow_08s.jpg,1.0,clock_6_4.png,6.0,2,,,,,,,,,,,,,,,,,,,,,,,,,,,,,,,,
0.0,0.0,1.974375,0.0,34.0,34.0,34.0,1.0,plaster_cast_13s.jpg,1.0,clock_6_5.png,6.0,2,,,,,,,,,,,,,,,,,,,,,,,,,,,,,,,,
0.0,1.0,2.239855,0.0,35.0,35.0,35.0,1.0,mussel_11s.jpg,0.0,clock_6_6.png,6.0,2,,,,,,,,,,,,,,,,,,,,,,,,,,,,,,,,
,,,,,,,,,0.0,,,2,1.0,0.0,4.11296,0.0,0.0,0.0,0.0,1.0,polaroid_05s.jpg,owl_15s.jpg,,,,,,,,,,,,,,,,,,,,,,
,,,,,,,,,1.0,,,2,1.0,1.0,2.7697,0.0,1.0,1.0,1.0,1.0,cereal_04s.jpg,jalapeno_15s.jpg,,,,,,,,,,,,,,,,,,,,,,
,,,,,,,,,1.0,,,2,1.0,1.0,1.52806,0.0,2.0,2.0,2.0,1.0,kettle_08s.jpg,joystick_01b.jpg,,,,,,,,,,,,,,,,,,,,,,
,,,,,,,,,1.0,,,2,1.0,1.0,1.815165,0.0,3.0,3.0,3.0,1.0,cotton_candy_01b.jpg,incense_02s.jpg,,,,,,,,,,,,,,,,,,,,,,
,,,,,,,,,0.0,,,2,0.0,1.0,1.331055,0.0,4.0,4.0,4.0,1.0,cushion_08s.jpg,eyedropper_12s.jpg,,,,,,,,,,,,,,,,,,,,,,
,,,,,,,,,1.0,,,2,0.0,0.0,2.336275,0.0,5.0,5.0,5.0,1.0,fireworks_18s.jpg,gazelle_10s.jpg,,,,,,,,,,,,,,,,,,,,,,
,,,,,,,,,,,,2,,,,,,,,,,,0.0,3.0,3.0,3.0,1.0,clock_present_4_12.xlsx,clock_compare_task_4_12.xlsx,,,,,,,,,,,,,,,
0.0,1.0,1.217375,0.0,0.0,0.0,0.0,1.0,pillow_03s.jpg,0.0,clock_6_1.png,1.0,2,,,,,,,,,,,,,,,,,,,,,,,,,,,,,,,,
0.0,1.0,0.966655,0.0,1.0,1.0,1.0,1.0,lavender_10s.jpg,0.0,clock_6_2.png,1.0,2,,,,,,,,,,,,,,,,,,,,,,,,,,,,,,,,
1.0,1.0,0.931355,0.0,2.0,2.0,2.0,1.0,pillow_03s.jpg,1.0,clock_6_3.png,1.0,2,,,,,,,,,,,,,,,,,,,,,,,,,,,,,,,,
0.0,1.0,1.051165,0.0,3.0,3.0,3.0,1.0,tiara_05s.jpg,0.0,clock_6_4.png,1.0,2,,,,,,,,,,,,,,,,,,,,,,,,,,,,,,,,
0.0,1.0,0.8364,0.0,4.0,4.0,4.0,1.0,mushroom_10n.jpg,0.0,clock_6_5.png,1.0,2,,,,,,,,,,,,,,,,,,,,,,,,,,,,,,,,
0.0,1.0,0.997345,0.0,5.0,5.0,5.0,1.0,leash_10s.jpg,0.0,clock_6_6.png,1.0,2,,,,,,,,,,,,,,,,,,,,,,,,,,,,,,,,
0.0,1.0,0.680625,0.0,6.0,6.0,6.0,1.0,stump_02s.jpg,0.0,clock_5_1.png,2.0,2,,,,,,,,,,,,,,,,,,,,,,,,,,,,,,,,
0.0,1.0,0.520955,0.0,7.0,7.0,7.0,1.0,treadmill_06s.jpg,0.0,clock_5_2.png,2.0,2,,,,,,,,,,,,,,,,,,,,,,,,,,,,,,,,
0.0,1.0,0.49084,0.0,8.0,8.0,8.0,1.0,pumpkin_03s.jpg,0.0,clock_5_3.png,2.0,2,,,,,,,,,,,,,,,,,,,,,,,,,,,,,,,,
0.0,1.0,0.572635,0.0,9.0,9.0,9.0,1.0,crystal_ball_12s.jpg,0.0,clock_5_4.png,2.0,2,,,,,,,,,,,,,,,,,,,,,,,,,,,,,,,,
0.0,1.0,0.590515,0.0,10.0,10.0,10.0,1.0,puffin_19s.jpg,0.0,clock_5_5.png,2.0,2,,,,,,,,,,,,,,,,,,,,,,,,,,,,,,,,
0.0,1.0,0.806965,0.0,11.0,11.0,11.0,1.0,mousetrap_15n.jpg,0.0,clock_5_1.png,3.0,2,,,,,,,,,,,,,,,,,,,,,,,,,,,,,,,,
1.0,1.0,0.95357,0.0,12.0,12.0,12.0,1.0,mousetrap_15n.jpg,1.0,clock_5_2.png,3.0,2,,,,,,,,,,,,,,,,,,,,,,,,,,,,,,,,
0.0,1.0,0.48139,0.0,13.0,13.0,13.0,1.0,rope_16s.jpg,0.0,clock_5_3.png,3.0,2,,,,,,,,,,,,,,,,,,,,,,,,,,,,,,,,
0.0,1.0,0.53951,0.0,14.0,14.0,14.0,1.0,loveseat_08s.jpg,0.0,clock_5_4.png,3.0,2,,,,,,,,,,,,,,,,,,,,,,,,,,,,,,,,
0.0,1.0,0.59803,0.0,15.0,15.0,15.0,1.0,laundry_basket_11s.jpg,0.0,clock_5_5.png,3.0,2,,,,,,,,,,,,,,,,,,,,,,,,,,,,,,,,
0.0,1.0,0.735795,0.0,16.0,16.0,16.0,1.0,cardinal_07s.jpg,0.0,clock_7_1.png,4.0,2,,,,,,,,,,,,,,,,,,,,,,,,,,,,,,,,
0.0,1.0,0.6413,0.0,17.0,17.0,17.0,1.0,squirrel_02s.jpg,0.0,clock_7_2.png,4.0,2,,,,,,,,,,,,,,,,,,,,,,,,,,,,,,,,
1.0,1.0,0.73154,0.0,18.0,18.0,18.0,1.0,squirrel_02s.jpg,1.0,clock_7_3.png,4.0,2,,,,,,,,,,,,,,,,,,,,,,,,,,,,,,,,
0.0,1.0,0.699555,0.0,19.0,19.0,19.0,1.0,funnel_01b.jpg,0.0,clock_7_4.png,4.0,2,,,,,,,,,,,,,,,,,,,,,,,,,,,,,,,,
1.0,1.0,0.653205,0.0,20.0,20.0,20.0,1.0,squirrel_02s.jpg,1.0,clock_7_5.png,4.0,2,,,,,,,,,,,,,,,,,,,,,,,,,,,,,,,,
1.0,1.0,0.943115,0.0,21.0,21.0,21.0,1.0,cardinal_07s.jpg,1.0,clock_7_6.png,4.0,2,,,,,,,,,,,,,,,,,,,,,,,,,,,,,,,,
0.0,1.0,0.680225,0.0,22.0,22.0,22.0,1.0,ink_08s.jpg,0.0,clock_7_7.png,4.0,2,,,,,,,,,,,,,,,,,,,,,,,,,,,,,,,,
0.0,1.0,0.69838,0.0,23.0,23.0,23.0,1.0,toad_09s.jpg,0.0,clock_7_1.png,5.0,2,,,,,,,,,,,,,,,,,,,,,,,,,,,,,,,,
0.0,1.0,1.36397,0.0,24.0,24.0,24.0,1.0,bagel_15s.jpg,0.0,clock_7_2.png,5.0,2,,,,,,,,,,,,,,,,,,,,,,,,,,,,,,,,
1.0,1.0,0.805585,0.0,25.0,25.0,25.0,1.0,bagel_15s.jpg,1.0,clock_7_3.png,5.0,2,,,,,,,,,,,,,,,,,,,,,,,,,,,,,,,,
0.0,1.0,0.679315,0.0,26.0,26.0,26.0,1.0,treadmill_06s.jpg,0.0,clock_7_4.png,5.0,2,,,,,,,,,,,,,,,,,,,,,,,,,,,,,,,,
0.0,1.0,0.584695,0.0,27.0,27.0,27.0,1.0,rhubarb_03s.jpg,0.0,clock_7_5.png,5.0,2,,,,,,,,,,,,,,,,,,,,,,,,,,,,,,,,
0.0,1.0,0.61028,0.0,28.0,28.0,28.0,1.0,kayak_08s.jpg,0.0,clock_7_6.png,5.0,2,,,,,,,,,,,,,,,,,,,,,,,,,,,,,,,,
1.0,0.0,0.644515,0.0,29.0,29.0,29.0,1.0,cardinal_07s.jpg,0.0,clock_7_7.png,5.0,2,,,,,,,,,,,,,,,,,,,,,,,,,,,,,,,,
0.0,1.0,0.55597,0.0,30.0,30.0,30.0,1.0,pear_02s.jpg,0.0,clock_6_1.png,6.0,2,,,,,,,,,,,,,,,,,,,,,,,,,,,,,,,,
0.0,1.0,0.71047,0.0,31.0,31.0,31.0,1.0,limousine_12s.jpg,0.0,clock_6_2.png,6.0,2,,,,,,,,,,,,,,,,,,,,,,,,,,,,,,,,
1.0,1.0,0.99262,0.0,32.0,32.0,32.0,1.0,limousine_12s.jpg,1.0,clock_6_3.png,6.0,2,,,,,,,,,,,,,,,,,,,,,,,,,,,,,,,,
0.0,1.0,0.578545,0.0,33.0,33.0,33.0,1.0,taxi_15s.jpg,0.0,clock_6_4.png,6.0,2,,,,,,,,,,,,,,,,,,,,,,,,,,,,,,,,
0.0,1.0,0.659665,0.0,34.0,34.0,34.0,1.0,compass_10n.jpg,0.0,clock_6_5.png,6.0,2,,,,,,,,,,,,,,,,,,,,,,,,,,,,,,,,
0.0,1.0,0.532945,0.0,35.0,35.0,35.0,1.0,razor_12s.jpg,0.0,clock_6_6.png,6.0,2,,,,,,,,,,,,,,,,,,,,,,,,,,,,,,,,
,,,,,,,,,0.0,,,2,0.0,1.0,1.61127,0.0,0.0,0.0,0.0,1.0,pumpkin_03s.jpg,leash_10s.jpg,,,,,,,,,,,,,,,,,,,,,,
,,,,,,,,,0.0,,,2,1.0,0.0,1.944775,0.0,1.0,1.0,1.0,1.0,rope_16s.jpg,puffin_19s.jpg,,,,,,,,,,,,,,,,,,,,,,
,,,,,,,,,1.0,,,2,1.0,1.0,1.24916,0.0,2.0,2.0,2.0,1.0,tiara_05s.jpg,stump_02s.jpg,,,,,,,,,,,,,,,,,,,,,,
,,,,,,,,,1.0,,,2,1.0,1.0,1.46594,0.0,3.0,3.0,3.0,1.0,lavender_10s.jpg,mushroom_10n.jpg,,,,,,,,,,,,,,,,,,,,,,
,,,,,,,,,1.0,,,2,0.0,0.0,2.03545,0.0,4.0,4.0,4.0,1.0,funnel_01b.jpg,ink_08s.jpg,,,,,,,,,,,,,,,,,,,,,,
,,,,,,,,,1.0,,,2,1.0,1.0,1.221865,0.0,5.0,5.0,5.0,1.0,pear_02s.jpg,taxi_15s.jpg,,,,,,,,,,,,,,,,,,,,,,
,,,,,,,,,,,,2,,,,,,,,,,,0.0,4.0,4.0,4.0,1.0,clock_present_5_12.xlsx,clock_compare_task_5_12.xlsx,,,,,,,,,,,,,,,
0.0,1.0,1.0783,0.0,0.0,0.0,0.0,1.0,turnstile_08s.jpg,0.0,clock_7_1.png,1.0,2,,,,,,,,,,,,,,,,,,,,,,,,,,,,,,,,
0.0,1.0,0.6147,0.0,1.0,1.0,1.0,1.0,knitting_needle_04s.jpg,0.0,clock_7_2.png,1.0,2,,,,,,,,,,,,,,,,,,,,,,,,,,,,,,,,
1.0,1.0,1.031695,0.0,2.0,2.0,2.0,1.0,turnstile_08s.jpg,1.0,clock_7_3.png,1.0,2,,,,,,,,,,,,,,,,,,,,,,,,,,,,,,,,
1.0,1.0,1.02462,0.0,3.0,3.0,3.0,1.0,turnstile_08s.jpg,1.0,clock_7_4.png,1.0,2,,,,,,,,,,,,,,,,,,,,,,,,,,,,,,,,
1.0,1.0,1.131235,0.0,4.0,4.0,4.0,1.0,knitting_needle_04s.jpg,1.0,clock_7_5.png,1.0,2,,,,,,,,,,,,,,,,,,,,,,,,,,,,,,,,
0.0,1.0,0.579085,0.0,5.0,5.0,5.0,1.0,coat_rack_01b.jpg,0.0,clock_7_6.png,1.0,2,,,,,,,,,,,,,,,,,,,,,,,,,,,,,,,,
1.0,1.0,0.973685,0.0,6.0,6.0,6.0,1.0,turnstile_08s.jpg,1.0,clock_7_7.png,1.0,2,,,,,,,,,,,,,,,,,,,,,,,,,,,,,,,,
0.0,1.0,0.9975,0.0,7.0,7.0,7.0,1.0,eiffeltower.jpg,0.0,clock_7_1.png,2.0,2,,,,,,,,,,,,,,,,,,,,,,,,,,,,,,,,
0.0,1.0,0.599745,0.0,8.0,8.0,8.0,1.0,jelly_bean_06s.jpg,0.0,clock_7_2.png,2.0,2,,,,,,,,,,,,,,,,,,,,,,,,,,,,,,,,
0.0,1.0,0.53729,0.0,9.0,9.0,9.0,1.0,racehorse_03s.jpg,0.0,clock_7_3.png,2.0,2,,,,,,,,,,,,,,,,,,,,,,,,,,,,,,,,
1.0,1.0,1.39498,0.0,10.0,10.0,10.0,1.0,jelly_bean_06s.jpg,1.0,clock_7_4.png,2.0,2,,,,,,,,,,,,,,,,,,,,,,,,,,,,,,,,
0.0,1.0,1.092775,0.0,11.0,11.0,11.0,1.0,turnstile_08s.jpg,0.0,clock_7_5.png,2.0,2,,,,,,,,,,,,,,,,,,,,,,,,,,,,,,,,
1.0,1.0,1.525305,0.0,12.0,12.0,12.0,1.0,racehorse_03s.jpg,1.0,clock_7_6.png,2.0,2,,,,,,,,,,,,,,,,,,,,,,,,,,,,,,,,
0.0,1.0,0.566895,0.0,13.0,13.0,13.0,1.0,cape_11s.jpg,0.0,clock_7_7.png,2.0,2,,,,,,,,,,,,,,,,,,,,,,,,,,,,,,,,
0.0,1.0,0.5448,0.0,14.0,14.0,14.0,1.0,birthday_cake_09s.jpg,0.0,clock_5_1.png,3.0,2,,,,,,,,,,,,,,,,,,,,,,,,,,,,,,,,
0.0,1.0,0.57042,0.0,15.0,15.0,15.0,1.0,refrigerator_07s.jpg,0.0,clock_5_2.png,3.0,2,,,,,,,,,,,,,,,,,,,,,,,,,,,,,,,,
0.0,1.0,0.82078,0.0,16.0,16.0,16.0,1.0,turnstile_08s.jpg,0.0,clock_5_3.png,3.0,2,,,,,,,,,,,,,,,,,,,,,,,,,,,,,,,,
0.0,1.0,0.58981,0.0,17.0,17.0,17.0,1.0,mattress_01s.jpg,0.0,clock_5_4.png,3.0,2,,,,,,,,,,,,,,,,,,,,,,,,,,,,,,,,
0.0,1.0,0.575505,0.0,18.0,18.0,18.0,1.0,chalice_10s.jpg,0.0,clock_5_5.png,3.0,2,,,,,,,,,,,,,,,,,,,,,,,,,,,,,,,,
0.0,1.0,0.432535,0.0,19.0,19.0,19.0,1.0,measuring_cup_02s.jpg,0.0,clock_6_1.png,4.0,2,,,,,,,,,,,,,,,,,,,,,,,,,,,,,,,,
1.0,1.0,1.52245,0.0,20.0,20.0,20.0,1.0,measuring_cup_02s.jpg,1.0,clock_6_2.png,4.0,2,,,,,,,,,,,,,,,,,,,,,,,,,,,,,,,,
0.0,1.0,0.571645,0.0,21.0,21.0,21.0,1.0,jewel_01b.jpg,0.0,clock_6_3.png,4.0,2,,,,,,,,,,,,,,,,,,,,,,,,,,,,,,,,
0.0,1.0,0.91702,0.0,22.0,22.0,22.0,1.0,tennis_ball_06s.jpg,0.0,clock_6_4.png,4.0,2,,,,,,,,,,,,,,,,,,,,,,,,,,,,,,,,
0.0,1.0,0.990895,0.0,23.0,23.0,23.0,1.0,knot_01b.jpg,0.0,clock_6_5.png,4.0,2,,,,,,,,,,,,,,,,,,,,,,,,,,,,,,,,
0.0,1.0,0.76224,0.0,24.0,24.0,24.0,1.0,moth_06n.jpg,0.0,clock_6_6.png,4.0,2,,,,,,,,,,,,,,,,,,,,,,,,,,,,,,,,
0.0,1.0,1.49071,0.0,25.0,25.0,25.0,1.0,perfume_06s.jpg,0.0,clock_6_1.png,5.0,2,,,,,,,,,,,,,,,,,,,,,,,,,,,,,,,,
0.0,1.0,1.019315,0.0,26.0,26.0,26.0,1.0,paper_bag_12s.jpg,0.0,clock_6_2.png,5.0,2,,,,,,,,,,,,,,,,,,,,,,,,,,,,,,,,
0.0,1.0,1.41369,0.0,27.0,27.0,27.0,1.0,sledgehammer_03s.jpg,0.0,clock_6_3.png,5.0,2,,,,,,,,,,,,,,,,,,,,,,,,,,,,,,,,
0.0,1.0,0.95103,0.0,28.0,28.0,28.0,1.0,mattress_01s.jpg,0.0,clock_6_4.png,5.0,2,,,,,,,,,,,,,,,,,,,,,,,,,,,,,,,,
0.0,1.0,1.064285,0.0,29.0,29.0,29.0,1.0,crab_16s.jpg,0.0,clock_6_5.png,5.0,2,,,,,,,,,,,,,,,,,,,,,,,,,,,,,,,,
0.0,1.0,0.658085,0.0,30.0,30.0,30.0,1.0,crossbow_10s.jpg,0.0,clock_6_6.png,5.0,2,,,,,,,,,,,,,,,,,,,,,,,,,,,,,,,,
0.0,1.0,1.165175,0.0,31.0,31.0,31.0,1.0,frame_06s.jpg,0.0,clock_5_1.png,6.0,2,,,,,,,,,,,,,,,,,,,,,,,,,,,,,,,,
0.0,1.0,0.80435,0.0,32.0,32.0,32.0,1.0,pipe1_10s.jpg,0.0,clock_5_2.png,6.0,2,,,,,,,,,,,,,,,,,,,,,,,,,,,,,,,,
0.0,1.0,0.750035,0.0,33.0,33.0,33.0,1.0,smoothie_09s.jpg,0.0,clock_5_3.png,6.0,2,,,,,,,,,,,,,,,,,,,,,,,,,,,,,,,,
0.0,1.0,0.57642,0.0,34.0,34.0,34.0,1.0,reindeer_08s.jpg,0.0,clock_5_4.png,6.0,2,,,,,,,,,,,,,,,,,,,,,,,,,,,,,,,,
0.0,1.0,0.689815,0.0,35.0,35.0,35.0,1.0,saddle_06s.jpg,0.0,clock_5_5.png,6.0,2,,,,,,,,,,,,,,,,,,,,,,,,,,,,,,,,
,,,,,,,,,0.0,,,2,0.0,1.0,1.59285,0.0,0.0,0.0,0.0,1.0,perfume_06s.jpg,tennis_ball_06s.jpg,,,,,,,,,,,,,,,,,,,,,,
,,,,,,,,,0.0,,,2,1.0,0.0,1.692205,0.0,1.0,1.0,1.0,1.0,paper_bag_12s.jpg,knot_01b.jpg,,,,,,,,,,,,,,,,,,,,,,
,,,,,,,,,1.0,,,2,1.0,1.0,1.293085,0.0,2.0,2.0,2.0,1.0,crossbow_10s.jpg,smoothie_09s.jpg,,,,,,,,,,,,,,,,,,,,,,
,,,,,,,,,0.0,,,2,1.0,0.0,0.98935,0.0,3.0,3.0,3.0,1.0,reindeer_08s.jpg,frame_06s.jpg,,,,,,,,,,,,,,,,,,,,,,
,,,,,,,,,1.0,,,2,1.0,1.0,0.97774,0.0,4.0,4.0,4.0,1.0,refrigerator_07s.jpg,chalice_10s.jpg,,,,,,,,,,,,,,,,,,,,,,
,,,,,,,,,1.0,,,2,1.0,1.0,1.127255,0.0,5.0,5.0,5.0,1.0,pipe1_10s.jpg,saddle_06s.jpg,,,,,,,,,,,,,,,,,,,,,,
0.0,1.0,1.72256,,,,,,fossil_06s.jpg,0.0,clockno_up.jpg,1.0,2,,,,,,,,,,,,,,,,,,0.0,0.0,0.0,0.0,1.0,,,,,,,,,,
0.0,1.0,0.96878,,,,,,lamb_chop_07s.jpg,0.0,clockno_default.jpg,1.0,2,,,,,,,,,,,,,,,,,,0.0,1.0,1.0,1.0,1.0,,,,,,,,,,
0.0,1.0,1.867905,,,,,,parachute_03s.jpg,0.0,clockno_default.jpg,1.0,2,,,,,,,,,,,,,,,,,,0.0,2.0,2.0,2.0,1.0,,,,,,,,,,
1.0,1.0,1.14087,,,,,,parachute_03s.jpg,1.0,clockno_default.jpg,1.0,2,,,,,,,,,,,,,,,,,,0.0,3.0,3.0,3.0,1.0,,,,,,,,,,
0.0,1.0,0.965285,,,,,,peppermint_07s.jpg,0.0,clockno_default.jpg,1.0,2,,,,,,,,,,,,,,,,,,0.0,4.0,4.0,4.0,1.0,,,,,,,,,,
0.0,1.0,0.4975,,,,,,slingshot_07s.jpg,0.0,clockno_up.jpg,2.0,2,,,,,,,,,,,,,,,,,,0.0,5.0,5.0,5.0,1.0,,,,,,,,,,
0.0,1.0,1.161435,,,,,,tile_08s.jpg,0.0,clockno_default.jpg,2.0,2,,,,,,,,,,,,,,,,,,0.0,6.0,6.0,6.0,1.0,,,,,,,,,,
0.0,1.0,0.963995,,,,,,ravioli_08s.jpg,0.0,clockno_default.jpg,2.0,2,,,,,,,,,,,,,,,,,,0.0,7.0,7.0,7.0,1.0,,,,,,,,,,
1.0,0.0,1.08467,,,,,,parachute_03s.jpg,0.0,clockno_default.jpg,2.0,2,,,,,,,,,,,,,,,,,,0.0,8.0,8.0,8.0,1.0,,,,,,,,,,
0.0,1.0,1.13539,,,,,,peppermint_07s.jpg,0.0,clockno_default.jpg,2.0,2,,,,,,,,,,,,,,,,,,0.0,9.0,9.0,9.0,1.0,,,,,,,,,,
0.0,1.0,0.81516,,,,,,petri_dish_12s.jpg,0.0,clockno_up.jpg,3.0,2,,,,,,,,,,,,,,,,,,0.0,10.0,10.0,10.0,1.0,,,,,,,,,,
0.0,1.0,0.72103,,,,,,popcorn_09s.jpg,0.0,clockno_default.jpg,3.0,2,,,,,,,,,,,,,,,,,,0.0,11.0,11.0,11.0,1.0,,,,,,,,,,
0.0,1.0,0.59455,,,,,,paintbrush_04s.jpg,0.0,clockno_default.jpg,3.0,2,,,,,,,,,,,,,,,,,,0.0,12.0,12.0,12.0,1.0,,,,,,,,,,
0.0,1.0,0.54063,,,,,,potpourri_03s.jpg,0.0,clockno_default.jpg,3.0,2,,,,,,,,,,,,,,,,,,0.0,13.0,13.0,13.0,1.0,,,,,,,,,,
0.0,1.0,0.534355,,,,,,throne_11s.jpg,0.0,clockno_default.jpg,3.0,2,,,,,,,,,,,,,,,,,,0.0,14.0,14.0,14.0,1.0,,,,,,,,,,
0.0,1.0,1.49771,,,,,,peppermint_07s.jpg,0.0,clockno_default.jpg,3.0,2,,,,,,,,,,,,,,,,,,0.0,15.0,15.0,15.0,1.0,,,,,,,,,,
0.0,1.0,0.616715,,,,,,muffin_12n.jpg,0.0,clockno_up.jpg,4.0,2,,,,,,,,,,,,,,,,,,0.0,16.0,16.0,16.0,1.0,,,,,,,,,,
0.0,1.0,0.594325,,,,,,toothpaste_12s.jpg,0.0,clockno_default.jpg,4.0,2,,,,,,,,,,,,,,,,,,0.0,17.0,17.0,17.0,1.0,,,,,,,,,,
0.0,1.0,0.53239,,,,,,paintbrush_04s.jpg,0.0,clockno_default.jpg,4.0,2,,,,,,,,,,,,,,,,,,0.0,18.0,18.0,18.0,1.0,,,,,,,,,,
0.0,1.0,0.58879,,,,,,police_car_01s.jpg,0.0,clockno_default.jpg,4.0,2,,,,,,,,,,,,,,,,,,0.0,19.0,19.0,19.0,1.0,,,,,,,,,,
1.0,1.0,1.440635,,,,,,toothpaste_12s.jpg,1.0,clockno_default.jpg,4.0,2,,,,,,,,,,,,,,,,,,0.0,20.0,20.0,20.0,1.0,,,,,,,,,,
0.0,1.0,0.93143,,,,,,jet_15s.jpg,0.0,clockno_default.jpg,4.0,2,,,,,,,,,,,,,,,,,,0.0,21.0,21.0,21.0,1.0,,,,,,,,,,
0.0,1.0,0.94791,,,,,,tripod_01b.jpg,0.0,clockno_up.jpg,5.0,2,,,,,,,,,,,,,,,,,,0.0,22.0,22.0,22.0,1.0,,,,,,,,,,
1.0,0.0,1.49222,,,,,,potpourri_03s.jpg,0.0,clockno_default.jpg,5.0,2,,,,,,,,,,,,,,,,,,0.0,23.0,23.0,23.0,1.0,,,,,,,,,,
0.0,1.0,1.047295,,,,,,lava_02s.jpg,0.0,clockno_default.jpg,5.0,2,,,,,,,,,,,,,,,,,,0.0,24.0,24.0,24.0,1.0,,,,,,,,,,
0.0,1.0,0.68748,,,,,,peeler_06s.jpg,0.0,clockno_default.jpg,5.0,2,,,,,,,,,,,,,,,,,,0.0,25.0,25.0,25.0,1.0,,,,,,,,,,
1.0,1.0,1.17778,,,,,,lava_02s.jpg,1.0,clockno_default.jpg,5.0,2,,,,,,,,,,,,,,,,,,0.0,26.0,26.0,26.0,1.0,,,,,,,,,,
0.0,1.0,0.850095,,,,,,solar_panel_02s.jpg,0.0,clockno_default.jpg,5.0,2,,,,,,,,,,,,,,,,,,0.0,27.0,27.0,27.0,1.0,,,,,,,,,,
0.0,1.0,0.667115,,,,,,kilt_18s.jpg,0.0,clockno_default.jpg,5.0,2,,,,,,,,,,,,,,,,,,0.0,28.0,28.0,28.0,1.0,,,,,,,,,,
0.0,1.0,0.6923,,,,,,flask_04s.jpg,0.0,clockno_up.jpg,6.0,2,,,,,,,,,,,,,,,,,,0.0,29.0,29.0,29.0,1.0,,,,,,,,,,
0.0,1.0,0.7586,,,,,,swimming_pool_17s.jpg,0.0,clockno_default.jpg,6.0,2,,,,,,,,,,,,,,,,,,0.0,30.0,30.0,30.0,1.0,,,,,,,,,,
0.0,1.0,1.016415,,,,,,thermostat_02s.jpg,0.0,clockno_default.jpg,6.0,2,,,,,,,,,,,,,,,,,,0.0,31.0,31.0,31.0,1.0,,,,,,,,,,
0.0,1.0,0.81804,,,,,,tape_06s.jpg,0.0,clockno_default.jpg,6.0,2,,,,,,,,,,,,,,,,,,0.0,32.0,32.0,32.0,1.0,,,,,,,,,,
0.0,1.0,0.692115,,,,,,radiator_05s.jpg,0.0,clockno_default.jpg,6.0,2,,,,,,,,,,,,,,,,,,0.0,33.0,33.0,33.0,1.0,,,,,,,,,,
0.0,1.0,0.726075,,,,,,mixer_12s.jpg,0.0,clockno_default.jpg,6.0,2,,,,,,,,,,,,,,,,,,0.0,34.0,34.0,34.0,1.0,,,,,,,,,,
0.0,0.0,0.678705,,,,,,radiator_05s.jpg,1.0,clockno_default.jpg,6.0,2,,,,,,,,,,,,,,,,,,0.0,35.0,35.0,35.0,1.0,,,,,,,,,,
,,,,,,,,,0.0,,,2,0.0,1.0,2.0448,,,,,,petri_dish_12s.jpg,ravioli_08s.jpg,,,,,,,,,,,,,0.0,0.0,0.0,0.0,1.0,,,,,
,,,,,,,,,0.0,,,2,1.0,0.0,1.278525,,,,,,swimming_pool_17s.jpg,solar_panel_02s.jpg,,,,,,,,,,,,,0.0,1.0,1.0,1.0,1.0,,,,,
,,,,,,,,,1.0,,,2,0.0,0.0,1.53636,,,,,,police_car_01s.jpg,tripod_01b.jpg,,,,,,,,,,,,,0.0,2.0,2.0,2.0,1.0,,,,,
,,,,,,,,,0.0,,,2,0.0,1.0,1.13559,,,,,,throne_11s.jpg,popcorn_09s.jpg,,,,,,,,,,,,,0.0,3.0,3.0,3.0,1.0,,,,,
,,,,,,,,,1.0,,,2,0.0,0.0,1.09307,,,,,,flask_04s.jpg,tape_06s.jpg,,,,,,,,,,,,,0.0,4.0,4.0,4.0,1.0,,,,,
,,,,,,,,,0.0,,,2,0.0,1.0,1.16653,,,,,,kilt_18s.jpg,peeler_06s.jpg,,,,,,,,,,,,,0.0,5.0,5.0,5.0,1.0,,,,,
,,,,,,,,,,,,2,,,,,,,,,,,,,,,,clockno_present_1_12.xlsx,clockno_compare_task_1_12.xlsx,,,,,,,,,,,0.0,0.0,0.0,0.0,1.0
0.0,1.0,1.27376,,,,,,tinsel_12s.jpg,0.0,clock_7_1.png,1.0,2,,,,,,,,,,,,,,,,,,0.0,0.0,0.0,0.0,1.0,,,,,,,,,,
0.0,1.0,1.528715,,,,,,cap_05s.jpg,0.0,clock_7_2.png,1.0,2,,,,,,,,,,,,,,,,,,0.0,1.0,1.0,1.0,1.0,,,,,,,,,,
0.0,1.0,0.56122,,,,,,pencil02a.jpg,0.0,clock_7_3.png,1.0,2,,,,,,,,,,,,,,,,,,0.0,2.0,2.0,2.0,1.0,,,,,,,,,,
0.0,1.0,0.578965,,,,,,keyhole_03s.jpg,0.0,clock_7_4.png,1.0,2,,,,,,,,,,,,,,,,,,0.0,3.0,3.0,3.0,1.0,,,,,,,,,,
0.0,0.0,0.541005,,,,,,tinsel_12s.jpg,1.0,clock_7_5.png,1.0,2,,,,,,,,,,,,,,,,,,0.0,4.0,4.0,4.0,1.0,,,,,,,,,,
1.0,1.0,0.727045,,,,,,tinsel_12s.jpg,1.0,clock_7_6.png,1.0,2,,,,,,,,,,,,,,,,,,0.0,5.0,5.0,5.0,1.0,,,,,,,,,,
0.0,1.0,1.04825,,,,,,abacus_12s.jpg,0.0,clock_7_7.png,1.0,2,,,,,,,,,,,,,,,,,,0.0,6.0,6.0,6.0,1.0,,,,,,,,,,
0.0,1.0,1.010145,,,,,,bowler_hat_10s.jpg,0.0,clock_5_1.png,2.0,2,,,,,,,,,,,,,,,,,,0.0,7.0,7.0,7.0,1.0,,,,,,,,,,
0.0,1.0,0.849615,,,,,,spider_web_03s.jpg,0.0,clock_5_2.png,2.0,2,,,,,,,,,,,,,,,,,,0.0,8.0,8.0,8.0,1.0,,,,,,,,,,
0.0,1.0,1.06844,,,,,,bank_06s.jpg,0.0,clock_5_3.png,2.0,2,,,,,,,,,,,,,,,,,,0.0,9.0,9.0,9.0,1.0,,,,,,,,,,
0.0,1.0,1.27847,,,,,,abacus_12s.jpg,0.0,clock_5_4.png,2.0,2,,,,,,,,,,,,,,,,,,0.0,10.0,10.0,10.0,1.0,,,,,,,,,,
0.0,1.0,1.031645,,,,,,inhaler_01b.jpg,0.0,clock_5_5.png,2.0,2,,,,,,,,,,,,,,,,,,0.0,11.0,11.0,11.0,1.0,,,,,,,,,,
0.0,1.0,1.131315,,,,,,sea_urchin_09s.jpg,0.0,clock_6_1.png,3.0,2,,,,,,,,,,,,,,,,,,0.0,12.0,12.0,12.0,1.0,,,,,,,,,,
0.0,1.0,0.890995,,,,,,rocking_chair_05s.jpg,0.0,clock_6_2.png,3.0,2,,,,,,,,,,,,,,,,,,0.0,13.0,13.0,13.0,1.0,,,,,,,,,,
0.0,1.0,0.92456,,,,,,top_hat_11s.jpg,0.0,clock_6_3.png,3.0,2,,,,,,,,,,,,,,,,,,0.0,14.0,14.0,14.0,1.0,,,,,,,,,,
0.0,1.0,0.92563,,,,,,bubble_01b.jpg,0.0,clock_6_4.png,3.0,2,,,,,,,,,,,,,,,,,,0.0,15.0,15.0,15.0,1.0,,,,,,,,,,
0.0,1.0,0.46462,,,,,,sundae_08s.jpg,0.0,clock_6_5.png,3.0,2,,,,,,,,,,,,,,,,,,0.0,16.0,16.0,16.0,1.0,,,,,,,,,,
0.0,1.0,0.881095,,,,,,ruby_15s.jpg,0.0,clock_6_6.png,3.0,2,,,,,,,,,,,,,,,,,,0.0,17.0,17.0,17.0,1.0,,,,,,,,,,
1.0,0.0,1.314765,,,,,,candy_cane_06s.jpg,0.0,clock_5_1.png,4.0,2,,,,,,,,,,,,,,,,,,0.0,18.0,18.0,18.0,1.0,,,,,,,,,,
0.0,1.0,0.731955,,,,,,raft_09s.jpg,0.0,clock_5_2.png,4.0,2,,,,,,,,,,,,,,,,,,0.0,19.0,19.0,19.0,1.0,,,,,,,,,,
0.0,1.0,0.64584,,,,,,purse_05s.jpg,0.0,clock_5_3.png,4.0,2,,,,,,,,,,,,,,,,,,0.0,20.0,20.0,20.0,1.0,,,,,,,,,,
0.0,1.0,0.47866,,,,,,icicle_04s.jpg,0.0,clock_5_4.png,4.0,2,,,,,,,,,,,,,,,,,,0.0,21.0,21.0,21.0,1.0,,,,,,,,,,
0.0,1.0,0.904835,,,,,,microwave_02s.jpg,0.0,clock_5_5.png,4.0,2,,,,,,,,,,,,,,,,,,0.0,22.0,22.0,22.0,1.0,,,,,,,,,,
0.0,1.0,0.79387,,,,,,bacon_05s.jpg,0.0,clock_7_1.png,5.0,2,,,,,,,,,,,,,,,,,,0.0,23.0,23.0,23.0,1.0,,,,,,,,,,
0.0,1.0,0.63607,,,,,,trampoline_13s.jpg,0.0,clock_7_2.png,5.0,2,,,,,,,,,,,,,,,,,,0.0,24.0,24.0,24.0,1.0,,,,,,,,,,
0.0,1.0,0.581545,,,,,,toaster_03s.jpg,0.0,clock_7_3.png,5.0,2,,,,,,,,,,,,,,,,,,0.0,25.0,25.0,25.0,1.0,,,,,,,,,,
0.0,1.0,0.84045,,,,,,raft_09s.jpg,0.0,clock_7_4.png,5.0,2,,,,,,,,,,,,,,,,,,0.0,26.0,26.0,26.0,1.0,,,,,,,,,,
0.0,1.0,0.49743,,,,,,lantern_04s.jpg,0.0,clock_7_5.png,5.0,2,,,,,,,,,,,,,,,,,,0.0,27.0,27.0,27.0,1.0,,,,,,,,,,
0.0,1.0,0.753755,,,,,,kitten_07s.jpg,0.0,clock_7_6.png,5.0,2,,,,,,,,,,,,,,,,,,0.0,28.0,28.0,28.0,1.0,,,,,,,,,,
0.0,1.0,1.36369,,,,,,money_07s.jpg,0.0,clock_7_7.png,5.0,2,,,,,,,,,,,,,,,,,,0.0,29.0,29.0,29.0,1.0,,,,,,,,,,
0.0,1.0,0.630995,,,,,,harpoon.jpg,0.0,clock_6_1.png,6.0,2,,,,,,,,,,,,,,,,,,0.0,30.0,30.0,30.0,1.0,,,,,,,,,,
0.0,1.0,1.055275,,,,,,bonsai_07s.jpg,0.0,clock_6_2.png,6.0,2,,,,,,,,,,,,,,,,,,0.0,31.0,31.0,31.0,1.0,,,,,,,,,,
0.0,1.0,1.000525,,,,,,ticktacktoe_08s.jpg,0.0,clock_6_3.png,6.0,2,,,,,,,,,,,,,,,,,,0.0,32.0,32.0,32.0,1.0,,,,,,,,,,
0.0,1.0,0.65857,,,,,,kangaroo_02s.jpg,0.0,clock_6_4.png,6.0,2,,,,,,,,,,,,,,,,,,0.0,33.0,33.0,33.0,1.0,,,,,,,,,,
0.0,1.0,0.891355,,,,,,meatball_13s.jpg,0.0,clock_6_5.png,6.0,2,,,,,,,,,,,,,,,,,,0.0,34.0,34.0,34.0,1.0,,,,,,,,,,
0.0,1.0,0.5574,,,,,,sugar_cube_11s.jpg,0.0,clock_6_6.png,6.0,2,,,,,,,,,,,,,,,,,,0.0,35.0,35.0,35.0,1.0,,,,,,,,,,
,,,,,,,,,1.0,,,2,1.0,1.0,1.567675,,,,,,purse_05s.jpg,bacon_05s.jpg,,,,,,,,,,,,,0.0,0.0,0.0,0.0,1.0,,,,,
,,,,,,,,,1.0,,,2,1.0,1.0,2.04199,,,,,,bank_06s.jpg,sea_urchin_09s.jpg,,,,,,,,,,,,,0.0,1.0,1.0,1.0,1.0,,,,,
,,,,,,,,,1.0,,,2,1.0,1.0,1.276455,,,,,,microwave_02s.jpg,toaster_03s.jpg,,,,,,,,,,,,,0.0,2.0,2.0,2.0,1.0,,,,,
,,,,,,,,,0.0,,,2,1.0,0.0,1.34207,,,,,,sundae_08s.jpg,rocking_chair_05s.jpg,,,,,,,,,,,,,0.0,3.0,3.0,3.0,1.0,,,,,
,,,,,,,,,1.0,,,2,0.0,0.0,1.388575,,,,,,spider_web_03s.jpg,inhaler_01b.jpg,,,,,,,,,,,,,0.0,4.0,4.0,4.0,1.0,,,,,
,,,,,,,,,1.0,,,2,0.0,0.0,1.073525,,,,,,harpoon.jpg,kangaroo_02s.jpg,,,,,,,,,,,,,0.0,5.0,5.0,5.0,1.0,,,,,
,,,,,,,,,,,,2,,,,,,,,,,,,,,,,clockno_present_2_12.xlsx,clockno_compare_task_2_12.xlsx,,,,,,,,,,,0.0,1.0,1.0,1.0,1.0
0.0,1.0,1.19767,,,,,,rudder_02s.jpg,0.0,clock_7_1.png,1.0,2,,,,,,,,,,,,,,,,,,0.0,0.0,0.0,0.0,1.0,,,,,,,,,,
0.0,1.0,1.82018,,,,,,blowfish_03s.jpg,0.0,clock_7_2.png,1.0,2,,,,,,,,,,,,,,,,,,0.0,1.0,1.0,1.0,1.0,,,,,,,,,,
1.0,1.0,1.998245,,,,,,rudder_02s.jpg,1.0,clock_7_3.png,1.0,2,,,,,,,,,,,,,,,,,,0.0,2.0,2.0,2.0,1.0,,,,,,,,,,
0.0,1.0,1.071725,,,,,,rooster_03s.jpg,0.0,clock_7_4.png,1.0,2,,,,,,,,,,,,,,,,,,0.0,3.0,3.0,3.0,1.0,,,,,,,,,,
1.0,1.0,0.7314,,,,,,rooster_03s.jpg,1.0,clock_7_5.png,1.0,2,,,,,,,,,,,,,,,,,,0.0,4.0,4.0,4.0,1.0,,,,,,,,,,
1.0,1.0,1.14726,,,,,,rudder_02s.jpg,1.0,clock_7_6.png,1.0,2,,,,,,,,,,,,,,,,,,0.0,5.0,5.0,5.0,1.0,,,,,,,,,,
1.0,1.0,1.22042,,,,,,blowfish_03s.jpg,1.0,clock_7_7.png,1.0,2,,,,,,,,,,,,,,,,,,0.0,6.0,6.0,6.0,1.0,,,,,,,,,,
1.0,0.0,1.381315,,,,,,ironing_board_07s.jpg,0.0,clock_7_1.png,2.0,2,,,,,,,,,,,,,,,,,,0.0,7.0,7.0,7.0,1.0,,,,,,,,,,
1.0,1.0,0.575535,,,,,,ironing_board_07s.jpg,1.0,clock_7_2.png,2.0,2,,,,,,,,,,,,,,,,,,0.0,8.0,8.0,8.0,1.0,,,,,,,,,,
0.0,1.0,0.59284,,,,,,ukulele_02s.jpg,0.0,clock_7_3.png,2.0,2,,,,,,,,,,,,,,,,,,0.0,9.0,9.0,9.0,1.0,,,,,,,,,,
0.0,1.0,0.548195,,,,,,stamp1_11s.jpg,0.0,clock_7_4.png,2.0,2,,,,,,,,,,,,,,,,,,0.0,10.0,10.0,10.0,1.0,,,,,,,,,,
0.0,1.0,0.835015,,,,,,lemonade_04s.jpg,0.0,clock_7_5.png,2.0,2,,,,,,,,,,,,,,,,,,0.0,11.0,11.0,11.0,1.0,,,,,,,,,,
0.0,1.0,1.83734,,,,,,foam_03s.jpg,0.0,clock_7_6.png,2.0,2,,,,,,,,,,,,,,,,,,0.0,12.0,12.0,12.0,1.0,,,,,,,,,,
1.0,1.0,1.27914,,,,,,lemonade_04s.jpg,1.0,clock_7_7.png,2.0,2,,,,,,,,,,,,,,,,,,0.0,13.0,13.0,13.0,1.0,,,,,,,,,,
0.0,1.0,0.639555,,,,,,antenna_01b.jpg,0.0,clock_6_1.png,3.0,2,,,,,,,,,,,,,,,,,,0.0,14.0,14.0,14.0,1.0,,,,,,,,,,
1.0,1.0,1.35466,,,,,,antenna_01b.jpg,1.0,clock_6_2.png,3.0,2,,,,,,,,,,,,,,,,,,0.0,15.0,15.0,15.0,1.0,,,,,,,,,,
1.0,1.0,1.268445,,,,,,antenna_01b.jpg,1.0,clock_6_3.png,3.0,2,,,,,,,,,,,,,,,,,,0.0,16.0,16.0,16.0,1.0,,,,,,,,,,
0.0,1.0,1.24464,,,,,,pump_11s.jpg,0.0,clock_6_4.png,3.0,2,,,,,,,,,,,,,,,,,,0.0,17.0,17.0,17.0,1.0,,,,,,,,,,
0.0,1.0,0.67885,,,,,,metronome_03s.jpg,0.0,clock_6_5.png,3.0,2,,,,,,,,,,,,,,,,,,0.0,18.0,18.0,18.0,1.0,,,,,,,,,,
0.0,1.0,0.615945,,,,,,lamp_08s.jpg,0.0,clock_6_6.png,3.0,2,,,,,,,,,,,,,,,,,,0.0,19.0,19.0,19.0,1.0,,,,,,,,,,
0.0,1.0,0.770045,,,,,,bean_06s.jpg,0.0,clock_6_1.png,4.0,2,,,,,,,,,,,,,,,,,,0.0,20.0,20.0,20.0,1.0,,,,,,,,,,
1.0,0.0,1.340215,,,,,,pump_11s.jpg,0.0,clock_6_2.png,4.0,2,,,,,,,,,,,,,,,,,,0.0,21.0,21.0,21.0,1.0,,,,,,,,,,
0.0,1.0,0.669285,,,,,,tortilla_06s.jpg,0.0,clock_6_3.png,4.0,2,,,,,,,,,,,,,,,,,,0.0,22.0,22.0,22.0,1.0,,,,,,,,,,
0.0,1.0,0.83799,,,,,,blowfish_03s.jpg,0.0,clock_6_4.png,4.0,2,,,,,,,,,,,,,,,,,,0.0,23.0,23.0,23.0,1.0,,,,,,,,,,
0.0,1.0,1.08139,,,,,,tweezers_03s.jpg,0.0,clock_6_5.png,4.0,2,,,,,,,,,,,,,,,,,,0.0,24.0,24.0,24.0,1.0,,,,,,,,,,
0.0,1.0,0.86529,,,,,,marker_05s.jpg,0.0,clock_6_6.png,4.0,2,,,,,,,,,,,,,,,,,,0.0,25.0,25.0,25.0,1.0,,,,,,,,,,
0.0,1.0,0.507185,,,,,,film_03s.jpg,0.0,clock_5_1.png,5.0,2,,,,,,,,,,,,,,,,,,0.0,26.0,26.0,26.0,1.0,,,,,,,,,,
0.0,1.0,0.94902,,,,,,lipstick_02s.jpg,0.0,clock_5_2.png,5.0,2,,,,,,,,,,,,,,,,,,0.0,27.0,27.0,27.0,1.0,,,,,,,,,,
0.0,1.0,2.078695,,,,,,ring_03s.jpg,0.0,clock_5_3.png,5.0,2,,,,,,,,,,,,,,,,,,0.0,28.0,28.0,28.0,1.0,,,,,,,,,,
0.0,1.0,0.88165,,,,,,chime_12s.jpg,0.0,clock_5_4.png,5.0,2,,,,,,,,,,,,,,,,,,0.0,29.0,29.0,29.0,1.0,,,,,,,,,,
0.0,1.0,0.721375,,,,,,ice_pack_09s.jpg,0.0,clock_5_5.png,5.0,2,,,,,,,,,,,,,,,,,,0.0,30.0,30.0,30.0,1.0,,,,,,,,,,
0.0,1.0,0.73844,,,,,,koala_13s.jpg,0.0,clock_5_1.png,6.0,2,,,,,,,,,,,,,,,,,,0.0,31.0,31.0,31.0,1.0,,,,,,,,,,
0.0,1.0,1.15696,,,,,,footprint_11s.jpg,0.0,clock_5_2.png,6.0,2,,,,,,,,,,,,,,,,,,0.0,32.0,32.0,32.0,1.0,,,,,,,,,,
1.0,1.0,1.847625,,,,,,footprint_11s.jpg,1.0,clock_5_3.png,6.0,2,,,,,,,,,,,,,,,,,,0.0,33.0,33.0,33.0,1.0,,,,,,,,,,
0.0,1.0,0.64784,,,,,,lab_coat_11s.jpg,0.0,clock_5_4.png,6.0,2,,,,,,,,,,,,,,,,,,0.0,34.0,34.0,34.0,1.0,,,,,,,,,,
0.0,1.0,0.473805,,,,,,toy_04s.jpg,0.0,clock_5_5.png,6.0,2,,,,,,,,,,,,,,,,,,0.0,35.0,35.0,35.0,1.0,,,,,,,,,,
,,,,,,,,,0.0,,,2,1.0,0.0,1.95441,,,,,,tortilla_06s.jpg,lamp_08s.jpg,,,,,,,,,,,,,0.0,0.0,0.0,0.0,1.0,,,,,
,,,,,,,,,0.0,,,2,0.0,1.0,0.925125,,,,,,lipstick_02s.jpg,tweezers_03s.jpg,,,,,,,,,,,,,0.0,1.0,1.0,1.0,1.0,,,,,
,,,,,,,,,0.0,,,2,0.0,1.0,1.708085,,,,,,ring_03s.jpg,marker_05s.jpg,,,,,,,,,,,,,0.0,2.0,2.0,2.0,1.0,,,,,
,,,,,,,,,1.0,,,2,1.0,1.0,1.067605,,,,,,ukulele_02s.jpg,foam_03s.jpg,,,,,,,,,,,,,0.0,3.0,3.0,3.0,1.0,,,,,
,,,,,,,,,1.0,,,2,0.0,0.0,1.004735,,,,,,film_03s.jpg,chime_12s.jpg,,,,,,,,,,,,,0.0,4.0,4.0,4.0,1.0,,,,,
,,,,,,,,,1.0,,,2,0.0,0.0,1.18467,,,,,,koala_13s.jpg,lab_coat_11s.jpg,,,,,,,,,,,,,0.0,5.0,5.0,5.0,1.0,,,,,
,,,,,,,,,,,,2,,,,,,,,,,,,,,,,clockno_present_3_12.xlsx,clockno_compare_task_3_12.xlsx,,,,,,,,,,,0.0,2.0,2.0,2.0,1.0
0.0,1.0,1.06672,,,,,,surfboard_11s.jpg,0.0,clockno_up.jpg,1.0,2,,,,,,,,,,,,,,,,,,0.0,0.0,0.0,0.0,1.0,,,,,,,,,,
0.0,1.0,0.665305,,,,,,pea_11s.jpg,0.0,clockno_default.jpg,1.0,2,,,,,,,,,,,,,,,,,,0.0,1.0,1.0,1.0,1.0,,,,,,,,,,
0.0,1.0,0.93047,,,,,,checkbook_11s.jpg,0.0,clockno_default.jpg,1.0,2,,,,,,,,,,,,,,,,,,0.0,2.0,2.0,2.0,1.0,,,,,,,,,,
0.0,1.0,0.852655,,,,,,golf_club_03s.jpg,0.0,clockno_default.jpg,1.0,2,,,,,,,,,,,,,,,,,,0.0,3.0,3.0,3.0,1.0,,,,,,,,,,
0.0,1.0,0.88618,,,,,,seahorse_13s.jpg,0.0,clockno_default.jpg,1.0,2,,,,,,,,,,,,,,,,,,0.0,4.0,4.0,4.0,1.0,,,,,,,,,,
0.0,1.0,1.351915,,,,,,denture_03s.jpg,0.0,clockno_up.jpg,2.0,2,,,,,,,,,,,,,,,,,,0.0,5.0,5.0,5.0,1.0,,,,,,,,,,
0.0,1.0,0.480285,,,,,,mascara_03s.jpg,0.0,clockno_default.jpg,2.0,2,,,,,,,,,,,,,,,,,,0.0,6.0,6.0,6.0,1.0,,,,,,,,,,
0.0,1.0,1.43406,,,,,,potholder_02s.jpg,0.0,clockno_default.jpg,2.0,2,,,,,,,,,,,,,,,,,,0.0,7.0,7.0,7.0,1.0,,,,,,,,,,
0.0,1.0,0.69993,,,,,,fox_13s.jpg,0.0,clockno_default.jpg,2.0,2,,,,,,,,,,,,,,,,,,0.0,8.0,8.0,8.0,1.0,,,,,,,,,,
1.0,0.0,1.374585,,,,,,surfboard_11s.jpg,0.0,clockno_default.jpg,2.0,2,,,,,,,,,,,,,,,,,,0.0,9.0,9.0,9.0,1.0,,,,,,,,,,
0.0,1.0,0.5275,,,,,,jersey_02s.jpg,0.0,clockno_default.jpg,2.0,2,,,,,,,,,,,,,,,,,,0.0,10.0,10.0,10.0,1.0,,,,,,,,,,
0.0,1.0,0.601405,,,,,,powder_07s.jpg,0.0,clockno_default.jpg,2.0,2,,,,,,,,,,,,,,,,,,0.0,11.0,11.0,11.0,1.0,,,,,,,,,,
0.0,1.0,0.98606,,,,,,paper_towel_03s.jpg,0.0,clockno_up.jpg,3.0,2,,,,,,,,,,,,,,,,,,0.0,12.0,12.0,12.0,1.0,,,,,,,,,,
0.0,0.0,0.79758,,,,,,paper_towel_03s.jpg,1.0,clockno_default.jpg,3.0,2,,,,,,,,,,,,,,,,,,0.0,13.0,13.0,13.0,1.0,,,,,,,,,,
0.0,1.0,0.485435,,,,,,turtle_08s.jpg,0.0,clockno_default.jpg,3.0,2,,,,,,,,,,,,,,,,,,0.0,14.0,14.0,14.0,1.0,,,,,,,,,,
0.0,0.0,1.12817,,,,,,paper_towel_03s.jpg,1.0,clockno_default.jpg,3.0,2,,,,,,,,,,,,,,,,,,0.0,15.0,15.0,15.0,1.0,,,,,,,,,,
0.0,1.0,0.721455,,,,,,checkbook_11s.jpg,0.0,clockno_default.jpg,3.0,2,,,,,,,,,,,,,,,,,,0.0,16.0,16.0,16.0,1.0,,,,,,,,,,
0.0,1.0,0.75465,,,,,,dirt_bike_11s.jpg,0.0,clockno_up.jpg,4.0,2,,,,,,,,,,,,,,,,,,0.0,17.0,17.0,17.0,1.0,,,,,,,,,,
0.0,1.0,0.89967,,,,,,trident_07s.jpg,0.0,clockno_default.jpg,4.0,2,,,,,,,,,,,,,,,,,,0.0,18.0,18.0,18.0,1.0,,,,,,,,,,
0.0,1.0,0.917235,,,,,,denture_03s.jpg,0.0,clockno_default.jpg,4.0,2,,,,,,,,,,,,,,,,,,0.0,19.0,19.0,19.0,1.0,,,,,,,,,,
0.0,1.0,0.630165,,,,,,lip_gloss_06s.jpg,0.0,clockno_default.jpg,4.0,2,,,,,,,,,,,,,,,,,,0.0,20.0,20.0,20.0,1.0,,,,,,,,,,
0.0,1.0,0.976585,,,,,,squirt_gun_03s.jpg,0.0,clockno_default.jpg,4.0,2,,,,,,,,,,,,,,,,,,0.0,21.0,21.0,21.0,1.0,,,,,,,,,,
0.0,1.0,0.61813,,,,,,jigsaw_puzzle_11s.jpg,0.0,clockno_default.jpg,4.0,2,,,,,,,,,,,,,,,,,,0.0,22.0,22.0,22.0,1.0,,,,,,,,,,
0.0,1.0,0.756055,,,,,,pacifier_09s.jpg,0.0,clockno_default.jpg,4.0,2,,,,,,,,,,,,,,,,,,0.0,23.0,23.0,23.0,1.0,,,,,,,,,,
0.0,1.0,0.564455,,,,,,quill_09s.jpg,0.0,clockno_up.jpg,5.0,2,,,,,,,,,,,,,,,,,,0.0,24.0,24.0,24.0,1.0,,,,,,,,,,
0.0,1.0,0.63868,,,,,,seahorse_13s.jpg,0.0,clockno_default.jpg,5.0,2,,,,,,,,,,,,,,,,,,0.0,25.0,25.0,25.0,1.0,,,,,,,,,,
0.0,1.0,0.497535,,,,,,raccoon_02s.jpg,0.0,clockno_default.jpg,5.0,2,,,,,,,,,,,,,,,,,,0.0,26.0,26.0,26.0,1.0,,,,,,,,,,
0.0,1.0,0.922245,,,,,,radio_09s.jpg,0.0,clockno_default.jpg,5.0,2,,,,,,,,,,,,,,,,,,0.0,27.0,27.0,27.0,1.0,,,,,,,,,,
0.0,1.0,0.86716,,,,,,flip_flop_03s.jpg,0.0,clockno_default.jpg,5.0,2,,,,,,,,,,,,,,,,,,0.0,28.0,28.0,28.0,1.0,,,,,,,,,,
0.0,1.0,0.5576,,,,,,rabbit_03s.jpg,0.0,clockno_default.jpg,5.0,2,,,,,,,,,,,,,,,,,,0.0,29.0,29.0,29.0,1.0,,,,,,,,,,
0.0,1.0,0.91001,,,,,,gear_07s.jpg,0.0,clockno_up.jpg,6.0,2,,,,,,,,,,,,,,,,,,0.0,30.0,30.0,30.0,1.0,,,,,,,,,,
0.0,1.0,0.575835,,,,,,otter_05s.jpg,0.0,clockno_default.jpg,6.0,2,,,,,,,,,,,,,,,,,,0.0,31.0,31.0,31.0,1.0,,,,,,,,,,
0.0,1.0,0.553635,,,,,,lectern_08s.jpg,0.0,clockno_default.jpg,6.0,2,,,,,,,,,,,,,,,,,,0.0,32.0,32.0,32.0,1.0,,,,,,,,,,
0.0,1.0,0.539175,,,,,,sparkler_02s.jpg,0.0,clockno_default.jpg,6.0,2,,,,,,,,,,,,,,,,,,0.0,33.0,33.0,33.0,1.0,,,,,,,,,,
0.0,1.0,0.85256,,,,,,fork_04s.jpg,0.0,clockno_default.jpg,6.0,2,,,,,,,,,,,,,,,,,,0.0,34.0,34.0,34.0,1.0,,,,,,,,,,
0.0,1.0,0.550975,,,,,,quill_09s.jpg,0.0,clockno_default.jpg,6.0,2,,,,,,,,,,,,,,,,,,0.0,35.0,35.0,35.0,1.0,,,,,,,,,,
,,,,,,,,,0.0,,,2,1.0,0.0,3.48832,,,,,,mascara_03s.jpg,golf_club_03s.jpg,,,,,,,,,,,,,0.0,0.0,0.0,0.0,1.0,,,,,
,,,,,,,,,0.0,,,2,1.0,0.0,1.563995,,,,,,turtle_08s.jpg,powder_07s.jpg,,,,,,,,,,,,,0.0,1.0,1.0,1.0,1.0,,,,,
,,,,,,,,,1.0,,,2,1.0,1.0,1.29835,,,,,,radio_09s.jpg,gear_07s.jpg,,,,,,,,,,,,,0.0,2.0,2.0,2.0,1.0,,,,,
,,,,,,,,,0.0,,,2,0.0,1.0,1.30572,,,,,,jersey_02s.jpg,potholder_02s.jpg,,,,,,,,,,,,,0.0,3.0,3.0,3.0,1.0,,,,,
,,,,,,,,,0.0,,,2,1.0,0.0,1.266535,,,,,,squirt_gun_03s.jpg,trident_07s.jpg,,,,,,,,,,,,,0.0,4.0,4.0,4.0,1.0,,,,,
,,,,,,,,,0.0,,,2,0.0,1.0,1.59495,,,,,,lip_gloss_06s.jpg,dirt_bike_11s.jpg,,,,,,,,,,,,,0.0,5.0,5.0,5.0,1.0,,,,,
,,,,,,,,,,,,2,,,,,,,,,,,,,,,,clockno_present_4_12.xlsx,clockno_compare_task_4_12.xlsx,,,,,,,,,,,0.0,3.0,3.0,3.0,1.0
0.0,1.0,1.6685,,,,,,pinwheel_06s.jpg,0.0,clockno_up.jpg,1.0,2,,,,,,,,,,,,,,,,,,0.0,0.0,0.0,0.0,1.0,,,,,,,,,,
0.0,1.0,1.114075,,,,,,rice_12s.jpg,0.0,clockno_default.jpg,1.0,2,,,,,,,,,,,,,,,,,,0.0,1.0,1.0,1.0,1.0,,,,,,,,,,
0.0,1.0,0.826955,,,,,,machete_06s.jpg,0.0,clockno_default.jpg,1.0,2,,,,,,,,,,,,,,,,,,0.0,2.0,2.0,2.0,1.0,,,,,,,,,,
0.0,1.0,0.517345,,,,,,timer_03s.jpg,0.0,clockno_default.jpg,1.0,2,,,,,,,,,,,,,,,,,,0.0,3.0,3.0,3.0,1.0,,,,,,,,,,
0.0,1.0,0.670995,,,,,,mug_06s.jpg,0.0,clockno_default.jpg,1.0,2,,,,,,,,,,,,,,,,,,0.0,4.0,4.0,4.0,1.0,,,,,,,,,,
0.0,1.0,0.55912,,,,,,machine_gun_09s.jpg,0.0,clockno_default.jpg,1.0,2,,,,,,,,,,,,,,,,,,0.0,5.0,5.0,5.0,1.0,,,,,,,,,,
0.0,1.0,0.75346,,,,,,plug_08s.jpg,0.0,clockno_default.jpg,1.0,2,,,,,,,,,,,,,,,,,,0.0,6.0,6.0,6.0,1.0,,,,,,,,,,
0.0,1.0,0.827075,,,,,,tupperware_09s.jpg,0.0,clockno_up.jpg,2.0,2,,,,,,,,,,,,,,,,,,0.0,7.0,7.0,7.0,1.0,,,,,,,,,,
1.0,0.0,1.853295,,,,,,rice_12s.jpg,0.0,clockno_default.jpg,2.0,2,,,,,,,,,,,,,,,,,,0.0,8.0,8.0,8.0,1.0,,,,,,,,,,
0.0,1.0,0.581465,,,,,,briefcase_03s.jpg,0.0,clockno_default.jpg,2.0,2,,,,,,,,,,,,,,,,,,0.0,9.0,9.0,9.0,1.0,,,,,,,,,,
1.0,1.0,1.232435,,,,,,briefcase_03s.jpg,1.0,clockno_default.jpg,2.0,2,,,,,,,,,,,,,,,,,,0.0,10.0,10.0,10.0,1.0,,,,,,,,,,
0.0,1.0,0.457085,,,,,,thorn_13s.jpg,0.0,clockno_default.jpg,2.0,2,,,,,,,,,,,,,,,,,,0.0,11.0,11.0,11.0,1.0,,,,,,,,,,
0.0,1.0,0.63451,,,,,,chopsticks_08s.jpg,0.0,clockno_default.jpg,2.0,2,,,,,,,,,,,,,,,,,,0.0,12.0,12.0,12.0,1.0,,,,,,,,,,
0.0,1.0,0.51574,,,,,,oil_02s.jpg,0.0,clockno_up.jpg,3.0,2,,,,,,,,,,,,,,,,,,0.0,13.0,13.0,13.0,1.0,,,,,,,,,,
0.0,1.0,0.549705,,,,,,luggage_08s.jpg,0.0,clockno_default.jpg,3.0,2,,,,,,,,,,,,,,,,,,0.0,14.0,14.0,14.0,1.0,,,,,,,,,,
0.0,1.0,0.54386,,,,,,dynamite_01b.jpg,0.0,clockno_default.jpg,3.0,2,,,,,,,,,,,,,,,,,,0.0,15.0,15.0,15.0,1.0,,,,,,,,,,
0.0,0.0,0.545685,,,,,,oil_02s.jpg,1.0,clockno_default.jpg,3.0,2,,,,,,,,,,,,,,,,,,0.0,16.0,16.0,16.0,1.0,,,,,,,,,,
1.0,1.0,0.660085,,,,,,oil_02s.jpg,1.0,clockno_default.jpg,3.0,2,,,,,,,,,,,,,,,,,,0.0,17.0,17.0,17.0,1.0,,,,,,,,,,
0.0,0.0,0.48435,,,,,,luggage_08s.jpg,1.0,clockno_default.jpg,3.0,2,,,,,,,,,,,,,,,,,,0.0,18.0,18.0,18.0,1.0,,,,,,,,,,
1.0,1.0,0.549615,,,,,,oil_02s.jpg,1.0,clockno_default.jpg,3.0,2,,,,,,,,,,,,,,,,,,0.0,19.0,19.0,19.0,1.0,,,,,,,,,,
0.0,1.0,0.53511,,,,,,soda_fountain_03s.jpg,0.0,clockno_up.jpg,4.0,2,,,,,,,,,,,,,,,,,,0.0,20.0,20.0,20.0,1.0,,,,,,,,,,
0.0,1.0,0.393055,,,,,,thread_08s.jpg,0.0,clockno_default.jpg,4.0,2,,,,,,,,,,,,,,,,,,0.0,21.0,21.0,21.0,1.0,,,,,,,,,,
0.0,1.0,0.642735,,,,,,rice_12s.jpg,0.0,clockno_default.jpg,4.0,2,,,,,,,,,,,,,,,,,,0.0,22.0,22.0,22.0,1.0,,,,,,,,,,
0.0,1.0,0.398315,,,,,,power_line_08s.jpg,0.0,clockno_default.jpg,4.0,2,,,,,,,,,,,,,,,,,,0.0,23.0,23.0,23.0,1.0,,,,,,,,,,
0.0,1.0,0.36503,,,,,,boar_10s.jpg,0.0,clockno_default.jpg,4.0,2,,,,,,,,,,,,,,,,,,0.0,24.0,24.0,24.0,1.0,,,,,,,,,,
0.0,1.0,0.43059,,,,,,teabag_12s.jpg,0.0,clockno_up.jpg,5.0,2,,,,,,,,,,,,,,,,,,0.0,25.0,25.0,25.0,1.0,,,,,,,,,,
0.0,1.0,0.448275,,,,,,ladle_04s.jpg,0.0,clockno_default.jpg,5.0,2,,,,,,,,,,,,,,,,,,0.0,26.0,26.0,26.0,1.0,,,,,,,,,,
0.0,0.0,0.531395,,,,,,teabag_12s.jpg,1.0,clockno_default.jpg,5.0,2,,,,,,,,,,,,,,,,,,0.0,27.0,27.0,27.0,1.0,,,,,,,,,,
0.0,1.0,0.53235,,,,,,timer_03s.jpg,0.0,clockno_default.jpg,5.0,2,,,,,,,,,,,,,,,,,,0.0,28.0,28.0,28.0,1.0,,,,,,,,,,
0.0,1.0,0.565985,,,,,,sunglasses_11s.jpg,0.0,clockno_default.jpg,5.0,2,,,,,,,,,,,,,,,,,,0.0,29.0,29.0,29.0,1.0,,,,,,,,,,
0.0,1.0,0.53424,,,,,,air_pump_05s.jpg,0.0,clockno_up.jpg,6.0,2,,,,,,,,,,,,,,,,,,0.0,30.0,30.0,30.0,1.0,,,,,,,,,,
0.0,1.0,0.560315,,,,,,bottle_opener_11s.jpg,0.0,clockno_default.jpg,6.0,2,,,,,,,,,,,,,,,,,,0.0,31.0,31.0,31.0,1.0,,,,,,,,,,
0.0,1.0,0.666135,,,,,,kimono_13s.jpg,0.0,clockno_default.jpg,6.0,2,,,,,,,,,,,,,,,,,,0.0,32.0,32.0,32.0,1.0,,,,,,,,,,
0.0,0.0,0.572235,,,,,,bottle_opener_11s.jpg,1.0,clockno_default.jpg,6.0,2,,,,,,,,,,,,,,,,,,0.0,33.0,33.0,33.0,1.0,,,,,,,,,,
0.0,1.0,0.70147,,,,,,orangutan_03s.jpg,0.0,clockno_default.jpg,6.0,2,,,,,,,,,,,,,,,,,,0.0,34.0,34.0,34.0,1.0,,,,,,,,,,
0.0,1.0,0.727215,,,,,,turf_03s.jpg,0.0,clockno_default.jpg,6.0,2,,,,,,,,,,,,,,,,,,0.0,35.0,35.0,35.0,1.0,,,,,,,,,,
,,,,,,,,,0.0,,,2,1.0,0.0,4.98079,,,,,,tupperware_09s.jpg,mug_06s.jpg,,,,,,,,,,,,,0.0,0.0,0.0,0.0,1.0,,,,,
,,,,,,,,,0.0,,,2,1.0,0.0,1.198205,,,,,,dynamite_01b.jpg,chopsticks_08s.jpg,,,,,,,,,,,,,0.0,1.0,1.0,1.0,1.0,,,,,
,,,,,,,,,0.0,,,2,0.0,1.0,1.1389,,,,,,ladle_04s.jpg,power_line_08s.jpg,,,,,,,,,,,,,0.0,2.0,2.0,2.0,1.0,,,,,
,,,,,,,,,0.0,,,2,0.0,1.0,1.41038,,,,,,machine_gun_09s.jpg,machete_06s.jpg,,,,,,,,,,,,,0.0,3.0,3.0,3.0,1.0,,,,,
,,,,,,,,,0.0,,,2,0.0,1.0,0.95785,,,,,,boar_10s.jpg,thread_08s.jpg,,,,,,,,,,,,,0.0,4.0,4.0,4.0,1.0,,,,,
,,,,,,,,,1.0,,,2,1.0,1.0,1.419715,,,,,,kimono_13s.jpg,turf_03s.jpg,,,,,,,,,,,,,0.0,5.0,5.0,5.0,1.0,,,,,
,,,,,,,,,,,,2,,,,,,,,,,,,,,,,clockno_present_5_12.xlsx,clockno_compare_task_5_12.xlsx,,,,,,,,,,,0.0,4.0,4.0,4.0,1.0
0.0,1.0,0.78085,,,,,,magnet_03s.jpg,0.0,clock_5_1.png,1.0,2,,,,,,,,,,,,,,,,,,0.0,0.0,0.0,0.0,1.0,,,,,,,,,,
0.0,0.0,0.554645,,,,,,magnet_03s.jpg,1.0,clock_5_2.png,1.0,2,,,,,,,,,,,,,,,,,,0.0,1.0,1.0,1.0,1.0,,,,,,,,,,
1.0,0.0,1.139085,,,,,,margarita_03s.jpg,0.0,clock_5_3.png,1.0,2,,,,,,,,,,,,,,,,,,0.0,2.0,2.0,2.0,1.0,,,,,,,,,,
0.0,1.0,0.54832,,,,,,pepper2_21s.jpg,0.0,clock_5_4.png,1.0,2,,,,,,,,,,,,,,,,,,0.0,3.0,3.0,3.0,1.0,,,,,,,,,,
0.0,1.0,0.574275,,,,,,gargoyle_08s.jpg,0.0,clock_5_5.png,1.0,2,,,,,,,,,,,,,,,,,,0.0,4.0,4.0,4.0,1.0,,,,,,,,,,
0.0,1.0,0.58415,,,,,,exhaust_pipe_10s.jpg,0.0,clock_7_1.png,2.0,2,,,,,,,,,,,,,,,,,,0.0,5.0,5.0,5.0,1.0,,,,,,,,,,
0.0,0.0,0.481315,,,,,,exhaust_pipe_10s.jpg,1.0,clock_7_2.png,2.0,2,,,,,,,,,,,,,,,,,,0.0,6.0,6.0,6.0,1.0,,,,,,,,,,
0.0,1.0,0.565405,,,,,,pepper2_21s.jpg,0.0,clock_7_3.png,2.0,2,,,,,,,,,,,,,,,,,,0.0,7.0,7.0,7.0,1.0,,,,,,,,,,
0.0,1.0,0.731755,,,,,,plunger_08s.jpg,0.0,clock_7_4.png,2.0,2,,,,,,,,,,,,,,,,,,0.0,8.0,8.0,8.0,1.0,,,,,,,,,,
0.0,1.0,0.590495,,,,,,swan_11s.jpg,0.0,clock_7_5.png,2.0,2,,,,,,,,,,,,,,,,,,0.0,9.0,9.0,9.0,1.0,,,,,,,,,,
1.0,1.0,1.072185,,,,,,plunger_08s.jpg,1.0,clock_7_6.png,2.0,2,,,,,,,,,,,,,,,,,,0.0,10.0,10.0,10.0,1.0,,,,,,,,,,
1.0,1.0,0.68985,,,,,,swan_11s.jpg,1.0,clock_7_7.png,2.0,2,,,,,,,,,,,,,,,,,,0.0,11.0,11.0,11.0,1.0,,,,,,,,,,
0.0,1.0,1.331135,,,,,,tambourine_06s.jpg,0.0,clock_6_1.png,3.0,2,,,,,,,,,,,,,,,,,,0.0,12.0,12.0,12.0,1.0,,,,,,,,,,
1.0,1.0,0.781335,,,,,,tambourine_06s.jpg,1.0,clock_6_2.png,3.0,2,,,,,,,,,,,,,,,,,,0.0,13.0,13.0,13.0,1.0,,,,,,,,,,
1.0,1.0,0.68608,,,,,,tambourine_06s.jpg,1.0,clock_6_3.png,3.0,2,,,,,,,,,,,,,,,,,,0.0,14.0,14.0,14.0,1.0,,,,,,,,,,
0.0,1.0,0.519185,,,,,,mask_09s.jpg,0.0,clock_6_4.png,3.0,2,,,,,,,,,,,,,,,,,,0.0,15.0,15.0,15.0,1.0,,,,,,,,,,
0.0,1.0,0.433025,,,,,,spoon02a.jpg,0.0,clock_6_5.png,3.0,2,,,,,,,,,,,,,,,,,,0.0,16.0,16.0,16.0,1.0,,,,,,,,,,
0.0,1.0,0.45882,,,,,,pantyhose_07s.jpg,0.0,clock_6_6.png,3.0,2,,,,,,,,,,,,,,,,,,0.0,17.0,17.0,17.0,1.0,,,,,,,,,,
0.0,1.0,0.67665,,,,,,fire_pit_10s.jpg,0.0,clock_5_1.png,4.0,2,,,,,,,,,,,,,,,,,,0.0,18.0,18.0,18.0,1.0,,,,,,,,,,
0.0,1.0,0.49373,,,,,,tape_measure_11s.jpg,0.0,clock_5_2.png,4.0,2,,,,,,,,,,,,,,,,,,0.0,19.0,19.0,19.0,1.0,,,,,,,,,,
0.0,1.0,0.688675,,,,,,swan_11s.jpg,0.0,clock_5_3.png,4.0,2,,,,,,,,,,,,,,,,,,0.0,20.0,20.0,20.0,1.0,,,,,,,,,,
0.0,1.0,0.89704,,,,,,bee_20s.jpg,0.0,clock_5_4.png,4.0,2,,,,,,,,,,,,,,,,,,0.0,21.0,21.0,21.0,1.0,,,,,,,,,,
0.0,1.0,0.578105,,,,,,puppet_01b.jpg,0.0,clock_5_5.png,4.0,2,,,,,,,,,,,,,,,,,,0.0,22.0,22.0,22.0,1.0,,,,,,,,,,
0.0,1.0,0.508275,,,,,,rock_08s.jpg,0.0,clock_6_1.png,5.0,2,,,,,,,,,,,,,,,,,,0.0,23.0,23.0,23.0,1.0,,,,,,,,,,
0.0,1.0,0.605935,,,,,,scooter.jpg,0.0,clock_6_2.png,5.0,2,,,,,,,,,,,,,,,,,,0.0,24.0,24.0,24.0,1.0,,,,,,,,,,
0.0,1.0,0.46469,,,,,,cucumber_07s.jpg,0.0,clock_6_3.png,5.0,2,,,,,,,,,,,,,,,,,,0.0,25.0,25.0,25.0,1.0,,,,,,,,,,
0.0,1.0,1.354135,,,,,,camcorder_10s.jpg,0.0,clock_6_4.png,5.0,2,,,,,,,,,,,,,,,,,,0.0,26.0,26.0,26.0,1.0,,,,,,,,,,
0.0,0.0,1.049265,,,,,,camcorder_10s.jpg,1.0,clock_6_5.png,5.0,2,,,,,,,,,,,,,,,,,,0.0,27.0,27.0,27.0,1.0,,,,,,,,,,
0.0,0.0,0.74001,,,,,,camcorder_10s.jpg,1.0,clock_6_6.png,5.0,2,,,,,,,,,,,,,,,,,,0.0,28.0,28.0,28.0,1.0,,,,,,,,,,
0.0,1.0,0.894025,,,,,,penguin_16s.jpg,0.0,clock_7_1.png,6.0,2,,,,,,,,,,,,,,,,,,0.0,29.0,29.0,29.0,1.0,,,,,,,,,,
0.0,1.0,0.767395,,,,,,swordfish_05s.jpg,0.0,clock_7_2.png,6.0,2,,,,,,,,,,,,,,,,,,0.0,30.0,30.0,30.0,1.0,,,,,,,,,,
0.0,1.0,0.536725,,,,,,turkey_10s.jpg,0.0,clock_7_3.png,6.0,2,,,,,,,,,,,,,,,,,,0.0,31.0,31.0,31.0,1.0,,,,,,,,,,
0.0,1.0,0.66639,,,,,,quilt_03s.jpg,0.0,clock_7_4.png,6.0,2,,,,,,,,,,,,,,,,,,0.0,32.0,32.0,32.0,1.0,,,,,,,,,,
0.0,1.0,0.55537,,,,,,gong_02s.jpg,0.0,clock_7_5.png,6.0,2,,,,,,,,,,,,,,,,,,0.0,33.0,33.0,33.0,1.0,,,,,,,,,,
0.0,1.0,0.532675,,,,,,cobra_05s.jpg,0.0,clock_7_6.png,6.0,2,,,,,,,,,,,,,,,,,,0.0,34.0,34.0,34.0,1.0,,,,,,,,,,
0.0,1.0,0.50256,,,,,,duck_01b.jpg,0.0,clock_7_7.png,6.0,2,,,,,,,,,,,,,,,,,,0.0,35.0,35.0,35.0,1.0,,,,,,,,,,
,,,,,,,,,1.0,,,2,1.0,1.0,1.828775,,,,,,mask_09s.jpg,fire_pit_10s.jpg,,,,,,,,,,,,,0.0,0.0,0.0,0.0,1.0,,,,,
,,,,,,,,,0.0,,,2,1.0,0.0,0.993595,,,,,,tape_measure_11s.jpg,spoon02a.jpg,,,,,,,,,,,,,0.0,1.0,1.0,1.0,1.0,,,,,
,,,,,,,,,0.0,,,2,0.0,1.0,2.581845,,,,,,scooter.jpg,bee_20s.jpg,,,,,,,,,,,,,0.0,2.0,2.0,2.0,1.0,,,,,
,,,,,,,,,0.0,,,2,1.0,0.0,1.243745,,,,,,quilt_03s.jpg,penguin_16s.jpg,,,,,,,,,,,,,0.0,3.0,3.0,3.0,1.0,,,,,
,,,,,,,,,0.0,,,2,1.0,0.0,1.054605,,,,,,gong_02s.jpg,swordfish_05s.jpg,,,,,,,,,,,,,0.0,4.0,4.0,4.0,1.0,,,,,
,,,,,,,,,0.0,,,2,1.0,0.0,1.624295,,,,,,cobra_05s.jpg,turkey_10s.jpg,,,,,,,,,,,,,0.0,5.0,5.0,5.0,1.0,,,,,
