key_resp.keys,key_resp.corr,key_resp.rt,noclock_loop.thisRepN,noclock_loop.thisTrialN,noclock_loop.thisN,noclock_loop.thisIndex,noclock_loop.ran,pictures,answer,clock,segment,participant,key_resp_2.keys,key_resp_2.corr,key_resp_2.rt,noclock_loop2.thisRepN,noclock_loop2.thisTrialN,noclock_loop2.thisN,noclock_loop2.thisIndex,noclock_loop2.ran,item_a,item_b,noclock_condition.thisRepN,noclock_condition.thisTrialN,noclock_condition.thisN,noclock_condition.thisIndex,noclock_condition.ran,present,compare,present_segment.thisRepN,present_segment.thisTrialN,present_segment.thisN,present_segment.thisIndex,present_segment.ran,compare_segment.thisRepN,compare_segment.thisTrialN,compare_segment.thisN,compare_segment.thisIndex,compare_segment.ran,clock_conditions.thisRepN,clock_conditions.thisTrialN,clock_conditions.thisN,clock_conditions.thisIndex,clock_conditions.ran
0.0,1.0,1.57125,0.0,0.0,0.0,0.0,1.0,tube_top_03s.jpg,0.0,clockno_up.jpg,1.0,15,,,,,,,,,,,,,,,,,,,,,,,,,,,,,,,,
1.0,1.0,1.079845,0.0,1.0,1.0,1.0,1.0,tube_top_03s.jpg,1.0,clockno_default.jpg,1.0,15,,,,,,,,,,,,,,,,,,,,,,,,,,,,,,,,
0.0,1.0,1.152955,0.0,2.0,2.0,2.0,1.0,piggy_bank_02s.jpg,0.0,clockno_default.jpg,1.0,15,,,,,,,,,,,,,,,,,,,,,,,,,,,,,,,,
0.0,1.0,0.63955,0.0,3.0,3.0,3.0,1.0,peach_04s.jpg,0.0,clockno_default.jpg,1.0,15,,,,,,,,,,,,,,,,,,,,,,,,,,,,,,,,
0.0,1.0,0.75073,0.0,4.0,4.0,4.0,1.0,petri_dish_12s.jpg,0.0,clockno_default.jpg,1.0,15,,,,,,,,,,,,,,,,,,,,,,,,,,,,,,,,
0.0,1.0,0.75282,0.0,5.0,5.0,5.0,1.0,memory_stick_11s.jpg,0.0,clockno_default.jpg,1.0,15,,,,,,,,,,,,,,,,,,,,,,,,,,,,,,,,
1.0,1.0,1.015345,0.0,6.0,6.0,6.0,1.0,piggy_bank_02s.jpg,1.0,clockno_default.jpg,1.0,15,,,,,,,,,,,,,,,,,,,,,,,,,,,,,,,,
0.0,1.0,1.140375,0.0,7.0,7.0,7.0,1.0,tweezers_03s.jpg,0.0,clockno_up.jpg,2.0,15,,,,,,,,,,,,,,,,,,,,,,,,,,,,,,,,
0.0,1.0,1.74853,0.0,8.0,8.0,8.0,1.0,coffee_filter_10s.jpg,0.0,clockno_default.jpg,2.0,15,,,,,,,,,,,,,,,,,,,,,,,,,,,,,,,,
0.0,1.0,0.71385,0.0,9.0,9.0,9.0,1.0,tambourine_06s.jpg,0.0,clockno_default.jpg,2.0,15,,,,,,,,,,,,,,,,,,,,,,,,,,,,,,,,
0.0,1.0,0.65889,0.0,10.0,10.0,10.0,1.0,ukulele_02s.jpg,0.0,clockno_default.jpg,2.0,15,,,,,,,,,,,,,,,,,,,,,,,,,,,,,,,,
0.0,1.0,0.70148,0.0,11.0,11.0,11.0,1.0,towel_rack_04s.jpg,0.0,clockno_default.jpg,2.0,15,,,,,,,,,,,,,,,,,,,,,,,,,,,,,,,,
0.0,1.0,0.408985,0.0,12.0,12.0,12.0,1.0,ravioli_08s.jpg,0.0,clockno_up.jpg,3.0,15,,,,,,,,,,,,,,,,,,,,,,,,,,,,,,,,
1.0,1.0,0.92515,0.0,13.0,13.0,13.0,1.0,ravioli_08s.jpg,1.0,clockno_default.jpg,3.0,15,,,,,,,,,,,,,,,,,,,,,,,,,,,,,,,,
0.0,1.0,1.29806,0.0,14.0,14.0,14.0,1.0,peanut_butter_08s.jpg,0.0,clockno_default.jpg,3.0,15,,,,,,,,,,,,,,,,,,,,,,,,,,,,,,,,
0.0,1.0,0.58813,0.0,15.0,15.0,15.0,1.0,sledgehammer_03s.jpg,0.0,clockno_default.jpg,3.0,15,,,,,,,,,,,,,,,,,,,,,,,,,,,,,,,,
0.0,1.0,1.09777,0.0,16.0,16.0,16.0,1.0,syringe_02s.jpg,0.0,clockno_default.jpg,3.0,15,,,,,,,,,,,,,,,,,,,,,,,,,,,,,,,,
0.0,1.0,0.95983,0.0,17.0,17.0,17.0,1.0,quilt_03s.jpg,0.0,clockno_default.jpg,3.0,15,,,,,,,,,,,,,,,,,,,,,,,,,,,,,,,,
1.0,1.0,0.80885,0.0,18.0,18.0,18.0,1.0,syringe_02s.jpg,1.0,clockno_default.jpg,3.0,15,,,,,,,,,,,,,,,,,,,,,,,,,,,,,,,,
0.0,1.0,2.19705,0.0,19.0,19.0,19.0,1.0,radiator_05s.jpg,0.0,clockno_up.jpg,4.0,15,,,,,,,,,,,,,,,,,,,,,,,,,,,,,,,,
0.0,1.0,0.705005,0.0,20.0,20.0,20.0,1.0,jelly_bean_06s.jpg,0.0,clockno_default.jpg,4.0,15,,,,,,,,,,,,,,,,,,,,,,,,,,,,,,,,
0.0,1.0,1.759055,0.0,21.0,21.0,21.0,1.0,top_hat_11s.jpg,0.0,clockno_default.jpg,4.0,15,,,,,,,,,,,,,,,,,,,,,,,,,,,,,,,,
1.0,1.0,0.99855,0.0,22.0,22.0,22.0,1.0,radiator_05s.jpg,1.0,clockno_default.jpg,4.0,15,,,,,,,,,,,,,,,,,,,,,,,,,,,,,,,,
0.0,1.0,0.8588,0.0,23.0,23.0,23.0,1.0,contact_lens_15s.jpg,0.0,clockno_default.jpg,4.0,15,,,,,,,,,,,,,,,,,,,,,,,,,,,,,,,,
0.0,1.0,1.707845,0.0,24.0,24.0,24.0,1.0,rake_06s.jpg,0.0,clockno_default.jpg,4.0,15,,,,,,,,,,,,,,,,,,,,,,,,,,,,,,,,
0.0,1.0,0.55941,0.0,25.0,25.0,25.0,1.0,surfboard_11s.jpg,0.0,clockno_up.jpg,5.0,15,,,,,,,,,,,,,,,,,,,,,,,,,,,,,,,,
0.0,1.0,2.30023,0.0,26.0,26.0,26.0,1.0,toy_04s.jpg,0.0,clockno_default.jpg,5.0,15,,,,,,,,,,,,,,,,,,,,,,,,,,,,,,,,
0.0,1.0,0.9969,0.0,27.0,27.0,27.0,1.0,raccoon_02s.jpg,0.0,clockno_default.jpg,5.0,15,,,,,,,,,,,,,,,,,,,,,,,,,,,,,,,,
0.0,1.0,0.70824,0.0,28.0,28.0,28.0,1.0,phone_01b.jpg,0.0,clockno_default.jpg,5.0,15,,,,,,,,,,,,,,,,,,,,,,,,,,,,,,,,
0.0,1.0,1.016505,0.0,29.0,29.0,29.0,1.0,ukulele_02s.jpg,0.0,clockno_default.jpg,5.0,15,,,,,,,,,,,,,,,,,,,,,,,,,,,,,,,,
0.0,1.0,0.656395,0.0,30.0,30.0,30.0,1.0,raft_09s.jpg,0.0,clockno_default.jpg,5.0,15,,,,,,,,,,,,,,,,,,,,,,,,,,,,,,,,
0.0,1.0,1.10397,0.0,31.0,31.0,31.0,1.0,kettle_08s.jpg,0.0,clockno_up.jpg,6.0,15,,,,,,,,,,,,,,,,,,,,,,,,,,,,,,,,
0.0,1.0,0.74754,0.0,32.0,32.0,32.0,1.0,target_11s.jpg,0.0,clockno_default.jpg,6.0,15,,,,,,,,,,,,,,,,,,,,,,,,,,,,,,,,
0.0,1.0,0.48076,0.0,33.0,33.0,33.0,1.0,icicle_04s.jpg,0.0,clockno_default.jpg,6.0,15,,,,,,,,,,,,,,,,,,,,,,,,,,,,,,,,
0.0,1.0,1.139275,0.0,34.0,34.0,34.0,1.0,timer_03s.jpg,0.0,clockno_default.jpg,6.0,15,,,,,,,,,,,,,,,,,,,,,,,,,,,,,,,,
1.0,1.0,2.23063,0.0,35.0,35.0,35.0,1.0,timer_03s.jpg,1.0,clockno_default.jpg,6.0,15,,,,,,,,,,,,,,,,,,,,,,,,,,,,,,,,
,,,,,,,,,0.0,,,15,1.0,0.0,1.80346,0.0,0.0,0.0,0.0,1.0,tweezers_03s.jpg,petri_dish_12s.jpg,,,,,,,,,,,,,,,,,,,,,,
,,,,,,,,,1.0,,,15,1.0,1.0,2.246945,0.0,1.0,1.0,1.0,1.0,memory_stick_11s.jpg,coffee_filter_10s.jpg,,,,,,,,,,,,,,,,,,,,,,
,,,,,,,,,0.0,,,15,1.0,0.0,2.15241,0.0,2.0,2.0,2.0,1.0,toy_04s.jpg,contact_lens_15s.jpg,,,,,,,,,,,,,,,,,,,,,,
,,,,,,,,,0.0,,,15,1.0,0.0,2.099135,0.0,3.0,3.0,3.0,1.0,rake_06s.jpg,top_hat_11s.jpg,,,,,,,,,,,,,,,,,,,,,,
,,,,,,,,,0.0,,,15,0.0,1.0,1.598255,0.0,4.0,4.0,4.0,1.0,phone_01b.jpg,surfboard_11s.jpg,,,,,,,,,,,,,,,,,,,,,,
,,,,,,,,,1.0,,,15,1.0,1.0,1.46448,0.0,5.0,5.0,5.0,1.0,peanut_butter_08s.jpg,quilt_03s.jpg,,,,,,,,,,,,,,,,,,,,,,
,,,,,,,,,,,,15,,,,,,,,,,,0.0,0.0,0.0,0.0,1.0,clockno_present_1_16.xlsx,clockno_compare_task_1_16.xlsx,,,,,,,,,,,,,,,
0.0,1.0,0.875525,0.0,0.0,0.0,0.0,1.0,juicer2_06s.jpg,0.0,clockno_up.jpg,1.0,15,,,,,,,,,,,,,,,,,,,,,,,,,,,,,,,,
0.0,1.0,0.45007,0.0,1.0,1.0,1.0,1.0,potholder_02s.jpg,0.0,clockno_default.jpg,1.0,15,,,,,,,,,,,,,,,,,,,,,,,,,,,,,,,,
0.0,1.0,0.63391,0.0,2.0,2.0,2.0,1.0,pencil02a.jpg,0.0,clockno_default.jpg,1.0,15,,,,,,,,,,,,,,,,,,,,,,,,,,,,,,,,
0.0,1.0,0.684535,0.0,3.0,3.0,3.0,1.0,chopsticks_08s.jpg,0.0,clockno_default.jpg,1.0,15,,,,,,,,,,,,,,,,,,,,,,,,,,,,,,,,
1.0,1.0,1.150995,0.0,4.0,4.0,4.0,1.0,potholder_02s.jpg,1.0,clockno_default.jpg,1.0,15,,,,,,,,,,,,,,,,,,,,,,,,,,,,,,,,
0.0,1.0,0.6017,0.0,5.0,5.0,5.0,1.0,fondue_07s.jpg,0.0,clockno_up.jpg,2.0,15,,,,,,,,,,,,,,,,,,,,,,,,,,,,,,,,
0.0,1.0,0.72068,0.0,6.0,6.0,6.0,1.0,pillbox_04s.jpg,0.0,clockno_default.jpg,2.0,15,,,,,,,,,,,,,,,,,,,,,,,,,,,,,,,,
0.0,1.0,0.53482,0.0,7.0,7.0,7.0,1.0,pumpkin_03s.jpg,0.0,clockno_default.jpg,2.0,15,,,,,,,,,,,,,,,,,,,,,,,,,,,,,,,,
0.0,1.0,0.564375,0.0,8.0,8.0,8.0,1.0,cardinal_07s.jpg,0.0,clockno_default.jpg,2.0,15,,,,,,,,,,,,,,,,,,,,,,,,,,,,,,,,
0.0,1.0,0.48787,0.0,9.0,9.0,9.0,1.0,swordfish_05s.jpg,0.0,clockno_default.jpg,2.0,15,,,,,,,,,,,,,,,,,,,,,,,,,,,,,,,,
0.0,1.0,0.87547,0.0,10.0,10.0,10.0,1.0,turkey_10s.jpg,0.0,clockno_up.jpg,3.0,15,,,,,,,,,,,,,,,,,,,,,,,,,,,,,,,,
0.0,1.0,0.59747,0.0,11.0,11.0,11.0,1.0,road_sign_05s.jpg,0.0,clockno_default.jpg,3.0,15,,,,,,,,,,,,,,,,,,,,,,,,,,,,,,,,
1.0,1.0,0.92616,0.0,12.0,12.0,12.0,1.0,road_sign_05s.jpg,1.0,clockno_default.jpg,3.0,15,,,,,,,,,,,,,,,,,,,,,,,,,,,,,,,,
0.0,1.0,0.639765,0.0,13.0,13.0,13.0,1.0,rhubarb_03s.jpg,0.0,clockno_default.jpg,3.0,15,,,,,,,,,,,,,,,,,,,,,,,,,,,,,,,,
0.0,1.0,0.78435,0.0,14.0,14.0,14.0,1.0,ivy_12s.jpg,0.0,clockno_default.jpg,3.0,15,,,,,,,,,,,,,,,,,,,,,,,,,,,,,,,,
0.0,1.0,0.594295,0.0,15.0,15.0,15.0,1.0,boar_10s.jpg,0.0,clockno_default.jpg,3.0,15,,,,,,,,,,,,,,,,,,,,,,,,,,,,,,,,
0.0,1.0,0.81522,0.0,16.0,16.0,16.0,1.0,mango_09s.jpg,0.0,clockno_up.jpg,4.0,15,,,,,,,,,,,,,,,,,,,,,,,,,,,,,,,,
0.0,1.0,0.53929,0.0,17.0,17.0,17.0,1.0,feather02.jpg,0.0,clockno_default.jpg,4.0,15,,,,,,,,,,,,,,,,,,,,,,,,,,,,,,,,
0.0,1.0,1.582235,0.0,18.0,18.0,18.0,1.0,pumpkin_03s.jpg,0.0,clockno_default.jpg,4.0,15,,,,,,,,,,,,,,,,,,,,,,,,,,,,,,,,
0.0,1.0,0.58281,0.0,19.0,19.0,19.0,1.0,giraffe_11s.jpg,0.0,clockno_default.jpg,4.0,15,,,,,,,,,,,,,,,,,,,,,,,,,,,,,,,,
0.0,1.0,1.54137,0.0,20.0,20.0,20.0,1.0,meatball_13s.jpg,0.0,clockno_default.jpg,4.0,15,,,,,,,,,,,,,,,,,,,,,,,,,,,,,,,,
0.0,1.0,1.292565,0.0,21.0,21.0,21.0,1.0,turkey_10s.jpg,0.0,clockno_default.jpg,4.0,15,,,,,,,,,,,,,,,,,,,,,,,,,,,,,,,,
0.0,1.0,0.610545,0.0,22.0,22.0,22.0,1.0,stump_02s.jpg,0.0,clockno_up.jpg,5.0,15,,,,,,,,,,,,,,,,,,,,,,,,,,,,,,,,
0.0,1.0,1.165395,0.0,23.0,23.0,23.0,1.0,ostrich_06s.jpg,0.0,clockno_default.jpg,5.0,15,,,,,,,,,,,,,,,,,,,,,,,,,,,,,,,,
0.0,1.0,0.514075,0.0,24.0,24.0,24.0,1.0,amber_04s.jpg,0.0,clockno_default.jpg,5.0,15,,,,,,,,,,,,,,,,,,,,,,,,,,,,,,,,
0.0,1.0,0.559635,0.0,25.0,25.0,25.0,1.0,blender_08s.jpg,0.0,clockno_default.jpg,5.0,15,,,,,,,,,,,,,,,,,,,,,,,,,,,,,,,,
0.0,1.0,1.37312,0.0,26.0,26.0,26.0,1.0,trumpet_06s.jpg,0.0,clockno_default.jpg,5.0,15,,,,,,,,,,,,,,,,,,,,,,,,,,,,,,,,
0.0,1.0,0.793745,0.0,27.0,27.0,27.0,1.0,ivy_12s.jpg,0.0,clockno_default.jpg,5.0,15,,,,,,,,,,,,,,,,,,,,,,,,,,,,,,,,
0.0,1.0,1.182065,0.0,28.0,28.0,28.0,1.0,ironing_board_07s.jpg,0.0,clockno_default.jpg,5.0,15,,,,,,,,,,,,,,,,,,,,,,,,,,,,,,,,
0.0,1.0,0.365065,0.0,29.0,29.0,29.0,1.0,lavender_10s.jpg,0.0,clockno_up.jpg,6.0,15,,,,,,,,,,,,,,,,,,,,,,,,,,,,,,,,
0.0,1.0,0.54916,0.0,30.0,30.0,30.0,1.0,pea_11s.jpg,0.0,clockno_default.jpg,6.0,15,,,,,,,,,,,,,,,,,,,,,,,,,,,,,,,,
0.0,1.0,0.457265,0.0,31.0,31.0,31.0,1.0,sundae_08s.jpg,0.0,clockno_default.jpg,6.0,15,,,,,,,,,,,,,,,,,,,,,,,,,,,,,,,,
0.0,1.0,0.493815,0.0,32.0,32.0,32.0,1.0,champagne_18s.jpg,0.0,clockno_default.jpg,6.0,15,,,,,,,,,,,,,,,,,,,,,,,,,,,,,,,,
0.0,1.0,0.526855,0.0,33.0,33.0,33.0,1.0,turtle_08s.jpg,0.0,clockno_default.jpg,6.0,15,,,,,,,,,,,,,,,,,,,,,,,,,,,,,,,,
0.0,1.0,0.613315,0.0,34.0,34.0,34.0,1.0,gargoyle_08s.jpg,0.0,clockno_default.jpg,6.0,15,,,,,,,,,,,,,,,,,,,,,,,,,,,,,,,,
0.0,1.0,0.45756,0.0,35.0,35.0,35.0,1.0,crate_05s.jpg,0.0,clockno_default.jpg,6.0,15,,,,,,,,,,,,,,,,,,,,,,,,,,,,,,,,
,,,,,,,,,1.0,,,15,1.0,1.0,2.170145,0.0,0.0,0.0,0.0,1.0,pencil02a.jpg,fondue_07s.jpg,,,,,,,,,,,,,,,,,,,,,,
,,,,,,,,,0.0,,,15,0.0,1.0,1.780995,0.0,1.0,1.0,1.0,1.0,mango_09s.jpg,rhubarb_03s.jpg,,,,,,,,,,,,,,,,,,,,,,
,,,,,,,,,1.0,,,15,1.0,1.0,1.572185,0.0,2.0,2.0,2.0,1.0,chopsticks_08s.jpg,pillbox_04s.jpg,,,,,,,,,,,,,,,,,,,,,,
,,,,,,,,,0.0,,,15,0.0,1.0,1.150835,0.0,3.0,3.0,3.0,1.0,turtle_08s.jpg,pea_11s.jpg,,,,,,,,,,,,,,,,,,,,,,
,,,,,,,,,0.0,,,15,0.0,1.0,1.506375,0.0,4.0,4.0,4.0,1.0,crate_05s.jpg,champagne_18s.jpg,,,,,,,,,,,,,,,,,,,,,,
,,,,,,,,,0.0,,,15,1.0,0.0,1.450265,0.0,5.0,5.0,5.0,1.0,meatball_13s.jpg,feather02.jpg,,,,,,,,,,,,,,,,,,,,,,
,,,,,,,,,,,,15,,,,,,,,,,,0.0,1.0,1.0,1.0,1.0,clockno_present_2_16.xlsx,clockno_compare_task_2_16.xlsx,,,,,,,,,,,,,,,
0.0,1.0,0.95932,0.0,0.0,0.0,0.0,1.0,magnet_03s.jpg,0.0,clockno_up.jpg,1.0,15,,,,,,,,,,,,,,,,,,,,,,,,,,,,,,,,
0.0,1.0,0.91648,0.0,1.0,1.0,1.0,1.0,luggage_08s.jpg,0.0,clockno_default.jpg,1.0,15,,,,,,,,,,,,,,,,,,,,,,,,,,,,,,,,
0.0,1.0,1.05446,0.0,2.0,2.0,2.0,1.0,fountain_pen_06s.jpg,0.0,clockno_default.jpg,1.0,15,,,,,,,,,,,,,,,,,,,,,,,,,,,,,,,,
0.0,1.0,0.63588,0.0,3.0,3.0,3.0,1.0,fur_coat_11s.jpg,0.0,clockno_default.jpg,1.0,15,,,,,,,,,,,,,,,,,,,,,,,,,,,,,,,,
0.0,1.0,1.115015,0.0,4.0,4.0,4.0,1.0,ladder_15s.jpg,0.0,clockno_default.jpg,1.0,15,,,,,,,,,,,,,,,,,,,,,,,,,,,,,,,,
0.0,1.0,0.65244,0.0,5.0,5.0,5.0,1.0,mushroom_10n.jpg,0.0,clockno_default.jpg,1.0,15,,,,,,,,,,,,,,,,,,,,,,,,,,,,,,,,
0.0,1.0,0.89196,0.0,6.0,6.0,6.0,1.0,milk_02s.jpg,0.0,clockno_up.jpg,2.0,15,,,,,,,,,,,,,,,,,,,,,,,,,,,,,,,,
0.0,1.0,0.89747,0.0,7.0,7.0,7.0,1.0,fork_04s.jpg,0.0,clockno_default.jpg,2.0,15,,,,,,,,,,,,,,,,,,,,,,,,,,,,,,,,
0.0,1.0,0.71586,0.0,8.0,8.0,8.0,1.0,bank_06s.jpg,0.0,clockno_default.jpg,2.0,15,,,,,,,,,,,,,,,,,,,,,,,,,,,,,,,,
0.0,1.0,0.597725,0.0,9.0,9.0,9.0,1.0,paintbrush_04s.jpg,0.0,clockno_default.jpg,2.0,15,,,,,,,,,,,,,,,,,,,,,,,,,,,,,,,,
1.0,1.0,0.993985,0.0,10.0,10.0,10.0,1.0,fork_04s.jpg,1.0,clockno_default.jpg,2.0,15,,,,,,,,,,,,,,,,,,,,,,,,,,,,,,,,
0.0,1.0,0.634535,0.0,11.0,11.0,11.0,1.0,fireworks_18s.jpg,0.0,clockno_up.jpg,3.0,15,,,,,,,,,,,,,,,,,,,,,,,,,,,,,,,,
1.0,1.0,1.32337,0.0,12.0,12.0,12.0,1.0,fireworks_18s.jpg,1.0,clockno_default.jpg,3.0,15,,,,,,,,,,,,,,,,,,,,,,,,,,,,,,,,
1.0,1.0,0.947425,0.0,13.0,13.0,13.0,1.0,fireworks_18s.jpg,1.0,clockno_default.jpg,3.0,15,,,,,,,,,,,,,,,,,,,,,,,,,,,,,,,,
0.0,1.0,1.0704,0.0,14.0,14.0,14.0,1.0,outlet_10s.jpg,0.0,clockno_default.jpg,3.0,15,,,,,,,,,,,,,,,,,,,,,,,,,,,,,,,,
0.0,1.0,0.781335,0.0,15.0,15.0,15.0,1.0,olive_05s.jpg,0.0,clockno_default.jpg,3.0,15,,,,,,,,,,,,,,,,,,,,,,,,,,,,,,,,
0.0,1.0,1.335325,0.0,16.0,16.0,16.0,1.0,toaster_03s.jpg,0.0,clockno_default.jpg,3.0,15,,,,,,,,,,,,,,,,,,,,,,,,,,,,,,,,
0.0,1.0,1.414285,0.0,17.0,17.0,17.0,1.0,kitten_07s.jpg,0.0,clockno_default.jpg,3.0,15,,,,,,,,,,,,,,,,,,,,,,,,,,,,,,,,
0.0,1.0,2.163575,0.0,18.0,18.0,18.0,1.0,soda_fountain_03s.jpg,0.0,clockno_up.jpg,4.0,15,,,,,,,,,,,,,,,,,,,,,,,,,,,,,,,,
0.0,1.0,0.830205,0.0,19.0,19.0,19.0,1.0,paper_bag_12s.jpg,0.0,clockno_default.jpg,4.0,15,,,,,,,,,,,,,,,,,,,,,,,,,,,,,,,,
0.0,1.0,0.617135,0.0,20.0,20.0,20.0,1.0,frame_06s.jpg,0.0,clockno_default.jpg,4.0,15,,,,,,,,,,,,,,,,,,,,,,,,,,,,,,,,
0.0,1.0,0.755285,0.0,21.0,21.0,21.0,1.0,mold2_04s.jpg,0.0,clockno_default.jpg,4.0,15,,,,,,,,,,,,,,,,,,,,,,,,,,,,,,,,
0.0,1.0,0.773535,0.0,22.0,22.0,22.0,1.0,tupperware_09s.jpg,0.0,clockno_default.jpg,4.0,15,,,,,,,,,,,,,,,,,,,,,,,,,,,,,,,,
0.0,1.0,0.656415,0.0,23.0,23.0,23.0,1.0,eggshell_14s.jpg,0.0,clockno_default.jpg,4.0,15,,,,,,,,,,,,,,,,,,,,,,,,,,,,,,,,
0.0,1.0,0.932475,0.0,24.0,24.0,24.0,1.0,antenna_01b.jpg,0.0,clockno_up.jpg,5.0,15,,,,,,,,,,,,,,,,,,,,,,,,,,,,,,,,
1.0,1.0,0.66596,0.0,25.0,25.0,25.0,1.0,antenna_01b.jpg,1.0,clockno_default.jpg,5.0,15,,,,,,,,,,,,,,,,,,,,,,,,,,,,,,,,
0.0,1.0,0.743685,0.0,26.0,26.0,26.0,1.0,padlock_07s.jpg,0.0,clockno_default.jpg,5.0,15,,,,,,,,,,,,,,,,,,,,,,,,,,,,,,,,
0.0,1.0,1.451495,0.0,27.0,27.0,27.0,1.0,pocket_watch_16s.jpg,0.0,clockno_default.jpg,5.0,15,,,,,,,,,,,,,,,,,,,,,,,,,,,,,,,,
0.0,1.0,1.288215,0.0,28.0,28.0,28.0,1.0,bank_06s.jpg,0.0,clockno_default.jpg,5.0,15,,,,,,,,,,,,,,,,,,,,,,,,,,,,,,,,
0.0,1.0,0.696525,0.0,29.0,29.0,29.0,1.0,incense_02s.jpg,0.0,clockno_up.jpg,6.0,15,,,,,,,,,,,,,,,,,,,,,,,,,,,,,,,,
0.0,1.0,0.701705,0.0,30.0,30.0,30.0,1.0,bagel_15s.jpg,0.0,clockno_default.jpg,6.0,15,,,,,,,,,,,,,,,,,,,,,,,,,,,,,,,,
0.0,1.0,0.54808,0.0,31.0,31.0,31.0,1.0,milk_02s.jpg,0.0,clockno_default.jpg,6.0,15,,,,,,,,,,,,,,,,,,,,,,,,,,,,,,,,
0.0,1.0,1.23146,0.0,32.0,32.0,32.0,1.0,iron_13s.jpg,0.0,clockno_default.jpg,6.0,15,,,,,,,,,,,,,,,,,,,,,,,,,,,,,,,,
0.0,1.0,0.713275,0.0,33.0,33.0,33.0,1.0,duck_01b.jpg,0.0,clockno_default.jpg,6.0,15,,,,,,,,,,,,,,,,,,,,,,,,,,,,,,,,
0.0,1.0,0.83333,0.0,34.0,34.0,34.0,1.0,rooster_03s.jpg,0.0,clockno_default.jpg,6.0,15,,,,,,,,,,,,,,,,,,,,,,,,,,,,,,,,
0.0,1.0,1.58194,0.0,35.0,35.0,35.0,1.0,sugar_cube_11s.jpg,0.0,clockno_default.jpg,6.0,15,,,,,,,,,,,,,,,,,,,,,,,,,,,,,,,,
,,,,,,,,,0.0,,,15,0.0,1.0,1.472405,0.0,0.0,0.0,0.0,1.0,soda_fountain_03s.jpg,olive_05s.jpg,,,,,,,,,,,,,,,,,,,,,,
,,,,,,,,,1.0,,,15,1.0,1.0,1.31492,0.0,1.0,1.0,1.0,1.0,toaster_03s.jpg,paper_bag_12s.jpg,,,,,,,,,,,,,,,,,,,,,,
,,,,,,,,,1.0,,,15,1.0,1.0,1.312265,0.0,2.0,2.0,2.0,1.0,eggshell_14s.jpg,padlock_07s.jpg,,,,,,,,,,,,,,,,,,,,,,
,,,,,,,,,1.0,,,15,1.0,1.0,1.132145,0.0,3.0,3.0,3.0,1.0,magnet_03s.jpg,fur_coat_11s.jpg,,,,,,,,,,,,,,,,,,,,,,
,,,,,,,,,0.0,,,15,0.0,1.0,1.088455,0.0,4.0,4.0,4.0,1.0,ladder_15s.jpg,luggage_08s.jpg,,,,,,,,,,,,,,,,,,,,,,
,,,,,,,,,0.0,,,15,0.0,1.0,1.337975,0.0,5.0,5.0,5.0,1.0,mushroom_10n.jpg,fountain_pen_06s.jpg,,,,,,,,,,,,,,,,,,,,,,
,,,,,,,,,,,,15,,,,,,,,,,,0.0,2.0,2.0,2.0,1.0,clockno_present_3_16.xlsx,clockno_compare_task_3_16.xlsx,,,,,,,,,,,,,,,
0.0,1.0,1.04544,0.0,0.0,0.0,0.0,1.0,insole_11s.jpg,0.0,clockno_up.jpg,1.0,15,,,,,,,,,,,,,,,,,,,,,,,,,,,,,,,,
0.0,1.0,0.885595,0.0,1.0,1.0,1.0,1.0,teapot_03s.jpg,0.0,clockno_default.jpg,1.0,15,,,,,,,,,,,,,,,,,,,,,,,,,,,,,,,,
0.0,1.0,0.65277,0.0,2.0,2.0,2.0,1.0,orange_12s.jpg,0.0,clockno_default.jpg,1.0,15,,,,,,,,,,,,,,,,,,,,,,,,,,,,,,,,
0.0,0.0,0.63973,0.0,3.0,3.0,3.0,1.0,insole_11s.jpg,1.0,clockno_default.jpg,1.0,15,,,,,,,,,,,,,,,,,,,,,,,,,,,,,,,,
0.0,1.0,0.807425,0.0,4.0,4.0,4.0,1.0,jersey_02s.jpg,0.0,clockno_default.jpg,1.0,15,,,,,,,,,,,,,,,,,,,,,,,,,,,,,,,,
0.0,1.0,1.264075,0.0,5.0,5.0,5.0,1.0,dashboard_02s.jpg,0.0,clockno_up.jpg,2.0,15,,,,,,,,,,,,,,,,,,,,,,,,,,,,,,,,
0.0,1.0,0.64762,0.0,6.0,6.0,6.0,1.0,harpoon.jpg,0.0,clockno_default.jpg,2.0,15,,,,,,,,,,,,,,,,,,,,,,,,,,,,,,,,
0.0,1.0,0.882775,0.0,7.0,7.0,7.0,1.0,kilt_18s.jpg,0.0,clockno_default.jpg,2.0,15,,,,,,,,,,,,,,,,,,,,,,,,,,,,,,,,
0.0,1.0,0.839635,0.0,8.0,8.0,8.0,1.0,bowler_hat_10s.jpg,0.0,clockno_default.jpg,2.0,15,,,,,,,,,,,,,,,,,,,,,,,,,,,,,,,,
0.0,1.0,0.70086,0.0,9.0,9.0,9.0,1.0,light_switch_02s.jpg,0.0,clockno_default.jpg,2.0,15,,,,,,,,,,,,,,,,,,,,,,,,,,,,,,,,
0.0,1.0,0.7191,0.0,10.0,10.0,10.0,1.0,mirror_12s.jpg,0.0,clockno_up.jpg,3.0,15,,,,,,,,,,,,,,,,,,,,,,,,,,,,,,,,
0.0,1.0,0.62274,0.0,11.0,11.0,11.0,1.0,raspberry_12s.jpg,0.0,clockno_default.jpg,3.0,15,,,,,,,,,,,,,,,,,,,,,,,,,,,,,,,,
0.0,1.0,0.5751,0.0,12.0,12.0,12.0,1.0,gas_mask_11s.jpg,0.0,clockno_default.jpg,3.0,15,,,,,,,,,,,,,,,,,,,,,,,,,,,,,,,,
0.0,1.0,0.496875,0.0,13.0,13.0,13.0,1.0,teacup_07s.jpg,0.0,clockno_default.jpg,3.0,15,,,,,,,,,,,,,,,,,,,,,,,,,,,,,,,,
0.0,1.0,0.4658,0.0,14.0,14.0,14.0,1.0,icemaker_10s.jpg,0.0,clockno_default.jpg,3.0,15,,,,,,,,,,,,,,,,,,,,,,,,,,,,,,,,
0.0,1.0,0.671785,0.0,15.0,15.0,15.0,1.0,pacifier_09s.jpg,0.0,clockno_default.jpg,3.0,15,,,,,,,,,,,,,,,,,,,,,,,,,,,,,,,,
0.0,1.0,0.736465,0.0,16.0,16.0,16.0,1.0,pepper_mill_03s.jpg,0.0,clockno_default.jpg,3.0,15,,,,,,,,,,,,,,,,,,,,,,,,,,,,,,,,
0.0,1.0,1.04791,0.0,17.0,17.0,17.0,1.0,juicer1_08s.jpg,0.0,clockno_up.jpg,4.0,15,,,,,,,,,,,,,,,,,,,,,,,,,,,,,,,,
0.0,1.0,1.039465,0.0,18.0,18.0,18.0,1.0,lion_18s.jpg,0.0,clockno_default.jpg,4.0,15,,,,,,,,,,,,,,,,,,,,,,,,,,,,,,,,
0.0,1.0,0.46952,0.0,19.0,19.0,19.0,1.0,rocking_chair_05s.jpg,0.0,clockno_default.jpg,4.0,15,,,,,,,,,,,,,,,,,,,,,,,,,,,,,,,,
0.0,1.0,0.5965,0.0,20.0,20.0,20.0,1.0,beaker_01b.jpg,0.0,clockno_default.jpg,4.0,15,,,,,,,,,,,,,,,,,,,,,,,,,,,,,,,,
0.0,1.0,0.83187,0.0,21.0,21.0,21.0,1.0,leotard_08s.jpg,0.0,clockno_default.jpg,4.0,15,,,,,,,,,,,,,,,,,,,,,,,,,,,,,,,,
0.0,1.0,0.55144,0.0,22.0,22.0,22.0,1.0,puppet_01b.jpg,0.0,clockno_default.jpg,4.0,15,,,,,,,,,,,,,,,,,,,,,,,,,,,,,,,,
0.0,1.0,0.66935,0.0,23.0,23.0,23.0,1.0,soccer_ball_12s.jpg,0.0,clockno_up.jpg,5.0,15,,,,,,,,,,,,,,,,,,,,,,,,,,,,,,,,
0.0,1.0,1.07276,0.0,24.0,24.0,24.0,1.0,fox_13s.jpg,0.0,clockno_default.jpg,5.0,15,,,,,,,,,,,,,,,,,,,,,,,,,,,,,,,,
0.0,1.0,0.824665,0.0,25.0,25.0,25.0,1.0,birthday_cake_09s.jpg,0.0,clockno_default.jpg,5.0,15,,,,,,,,,,,,,,,,,,,,,,,,,,,,,,,,
0.0,1.0,0.61349,0.0,26.0,26.0,26.0,1.0,sushi_08s.jpg,0.0,clockno_default.jpg,5.0,15,,,,,,,,,,,,,,,,,,,,,,,,,,,,,,,,
0.0,1.0,0.43267,0.0,27.0,27.0,27.0,1.0,sparkler_02s.jpg,0.0,clockno_default.jpg,5.0,15,,,,,,,,,,,,,,,,,,,,,,,,,,,,,,,,
0.0,1.0,1.031645,0.0,28.0,28.0,28.0,1.0,dashboard_02s.jpg,0.0,clockno_default.jpg,5.0,15,,,,,,,,,,,,,,,,,,,,,,,,,,,,,,,,
0.0,1.0,0.85465,0.0,29.0,29.0,29.0,1.0,lizard_10n.jpg,0.0,clockno_up.jpg,6.0,15,,,,,,,,,,,,,,,,,,,,,,,,,,,,,,,,
0.0,1.0,0.44802,0.0,30.0,30.0,30.0,1.0,purse_05s.jpg,0.0,clockno_default.jpg,6.0,15,,,,,,,,,,,,,,,,,,,,,,,,,,,,,,,,
0.0,1.0,0.423175,0.0,31.0,31.0,31.0,1.0,owl_15s.jpg,0.0,clockno_default.jpg,6.0,15,,,,,,,,,,,,,,,,,,,,,,,,,,,,,,,,
0.0,1.0,0.544825,0.0,32.0,32.0,32.0,1.0,cobra_05s.jpg,0.0,clockno_default.jpg,6.0,15,,,,,,,,,,,,,,,,,,,,,,,,,,,,,,,,
0.0,0.0,0.42221,0.0,33.0,33.0,33.0,1.0,owl_15s.jpg,1.0,clockno_default.jpg,6.0,15,,,,,,,,,,,,,,,,,,,,,,,,,,,,,,,,
0.0,1.0,0.632665,0.0,34.0,34.0,34.0,1.0,pomegranate_04s.jpg,0.0,clockno_default.jpg,6.0,15,,,,,,,,,,,,,,,,,,,,,,,,,,,,,,,,
0.0,1.0,1.257195,0.0,35.0,35.0,35.0,1.0,plug_08s.jpg,0.0,clockno_default.jpg,6.0,15,,,,,,,,,,,,,,,,,,,,,,,,,,,,,,,,
,,,,,,,,,0.0,,,15,0.0,1.0,1.745345,0.0,0.0,0.0,0.0,1.0,kilt_18s.jpg,jersey_02s.jpg,,,,,,,,,,,,,,,,,,,,,,
,,,,,,,,,0.0,,,15,1.0,0.0,1.68663,0.0,1.0,1.0,1.0,1.0,raspberry_12s.jpg,bowler_hat_10s.jpg,,,,,,,,,,,,,,,,,,,,,,
,,,,,,,,,0.0,,,15,1.0,0.0,1.282275,0.0,2.0,2.0,2.0,1.0,birthday_cake_09s.jpg,puppet_01b.jpg,,,,,,,,,,,,,,,,,,,,,,
,,,,,,,,,0.0,,,15,0.0,1.0,1.07318,0.0,3.0,3.0,3.0,1.0,plug_08s.jpg,cobra_05s.jpg,,,,,,,,,,,,,,,,,,,,,,
,,,,,,,,,0.0,,,15,0.0,1.0,1.948625,0.0,4.0,4.0,4.0,1.0,light_switch_02s.jpg,harpoon.jpg,,,,,,,,,,,,,,,,,,,,,,
,,,,,,,,,1.0,,,15,0.0,0.0,1.51484,0.0,5.0,5.0,5.0,1.0,mirror_12s.jpg,teacup_07s.jpg,,,,,,,,,,,,,,,,,,,,,,
,,,,,,,,,,,,15,,,,,,,,,,,0.0,3.0,3.0,3.0,1.0,clockno_present_4_16.xlsx,clockno_compare_task_4_16.xlsx,,,,,,,,,,,,,,,
0.0,1.0,1.10475,0.0,0.0,0.0,0.0,1.0,film_03s.jpg,0.0,clockno_up.jpg,1.0,15,,,,,,,,,,,,,,,,,,,,,,,,,,,,,,,,
0.0,1.0,0.70821,0.0,1.0,1.0,1.0,1.0,stopwatch_04s.jpg,0.0,clockno_default.jpg,1.0,15,,,,,,,,,,,,,,,,,,,,,,,,,,,,,,,,
0.0,1.0,1.05221,0.0,2.0,2.0,2.0,1.0,pepper2_21s.jpg,0.0,clockno_default.jpg,1.0,15,,,,,,,,,,,,,,,,,,,,,,,,,,,,,,,,
1.0,1.0,0.93822,0.0,3.0,3.0,3.0,1.0,film_03s.jpg,1.0,clockno_default.jpg,1.0,15,,,,,,,,,,,,,,,,,,,,,,,,,,,,,,,,
1.0,1.0,0.76343,0.0,4.0,4.0,4.0,1.0,film_03s.jpg,1.0,clockno_default.jpg,1.0,15,,,,,,,,,,,,,,,,,,,,,,,,,,,,,,,,
0.0,1.0,1.44084,0.0,5.0,5.0,5.0,1.0,ginger_09s.jpg,0.0,clockno_default.jpg,1.0,15,,,,,,,,,,,,,,,,,,,,,,,,,,,,,,,,
0.0,0.0,1.35799,0.0,6.0,6.0,6.0,1.0,pepper2_21s.jpg,1.0,clockno_default.jpg,1.0,15,,,,,,,,,,,,,,,,,,,,,,,,,,,,,,,,
0.0,1.0,1.14942,0.0,7.0,7.0,7.0,1.0,puffin_19s.jpg,0.0,clockno_up.jpg,2.0,15,,,,,,,,,,,,,,,,,,,,,,,,,,,,,,,,
0.0,1.0,0.83805,0.0,8.0,8.0,8.0,1.0,golf_club_03s.jpg,0.0,clockno_default.jpg,2.0,15,,,,,,,,,,,,,,,,,,,,,,,,,,,,,,,,
0.0,1.0,0.72959,0.0,9.0,9.0,9.0,1.0,crab_16s.jpg,0.0,clockno_default.jpg,2.0,15,,,,,,,,,,,,,,,,,,,,,,,,,,,,,,,,
0.0,1.0,0.548275,0.0,10.0,10.0,10.0,1.0,bathtub_23s.jpg,0.0,clockno_default.jpg,2.0,15,,,,,,,,,,,,,,,,,,,,,,,,,,,,,,,,
1.0,1.0,0.830625,0.0,11.0,11.0,11.0,1.0,crab_16s.jpg,1.0,clockno_default.jpg,2.0,15,,,,,,,,,,,,,,,,,,,,,,,,,,,,,,,,
0.0,1.0,0.597045,0.0,12.0,12.0,12.0,1.0,pancake_12s.jpg,0.0,clockno_default.jpg,2.0,15,,,,,,,,,,,,,,,,,,,,,,,,,,,,,,,,
0.0,1.0,1.73943,0.0,13.0,13.0,13.0,1.0,lamb_04s.jpg,0.0,clockno_up.jpg,3.0,15,,,,,,,,,,,,,,,,,,,,,,,,,,,,,,,,
0.0,1.0,1.736825,0.0,14.0,14.0,14.0,1.0,ladle_04s.jpg,0.0,clockno_default.jpg,3.0,15,,,,,,,,,,,,,,,,,,,,,,,,,,,,,,,,
0.0,1.0,0.55514,0.0,15.0,15.0,15.0,1.0,popsicle_02s.jpg,0.0,clockno_default.jpg,3.0,15,,,,,,,,,,,,,,,,,,,,,,,,,,,,,,,,
0.0,1.0,0.4466,0.0,16.0,16.0,16.0,1.0,eiffeltower.jpg,0.0,clockno_default.jpg,3.0,15,,,,,,,,,,,,,,,,,,,,,,,,,,,,,,,,
0.0,1.0,0.559185,0.0,17.0,17.0,17.0,1.0,rolling_pin_02s.jpg,0.0,clockno_default.jpg,3.0,15,,,,,,,,,,,,,,,,,,,,,,,,,,,,,,,,
0.0,1.0,0.60005,0.0,18.0,18.0,18.0,1.0,lantern_04s.jpg,0.0,clockno_up.jpg,4.0,15,,,,,,,,,,,,,,,,,,,,,,,,,,,,,,,,
0.0,1.0,0.73426,0.0,19.0,19.0,19.0,1.0,telephone_pole_05s.jpg,0.0,clockno_default.jpg,4.0,15,,,,,,,,,,,,,,,,,,,,,,,,,,,,,,,,
1.0,1.0,0.881045,0.0,20.0,20.0,20.0,1.0,lantern_04s.jpg,1.0,clockno_default.jpg,4.0,15,,,,,,,,,,,,,,,,,,,,,,,,,,,,,,,,
0.0,1.0,0.50533,0.0,21.0,21.0,21.0,1.0,seahorse_13s.jpg,0.0,clockno_default.jpg,4.0,15,,,,,,,,,,,,,,,,,,,,,,,,,,,,,,,,
0.0,1.0,0.702665,0.0,22.0,22.0,22.0,1.0,ruby_15s.jpg,0.0,clockno_default.jpg,4.0,15,,,,,,,,,,,,,,,,,,,,,,,,,,,,,,,,
0.0,1.0,0.7858,0.0,23.0,23.0,23.0,1.0,machete_06s.jpg,0.0,clockno_up.jpg,5.0,15,,,,,,,,,,,,,,,,,,,,,,,,,,,,,,,,
0.0,1.0,0.93482,0.0,24.0,24.0,24.0,1.0,dirt_bike_11s.jpg,0.0,clockno_default.jpg,5.0,15,,,,,,,,,,,,,,,,,,,,,,,,,,,,,,,,
0.0,1.0,2.239295,0.0,25.0,25.0,25.0,1.0,tuxedo_01b.jpg,0.0,clockno_default.jpg,5.0,15,,,,,,,,,,,,,,,,,,,,,,,,,,,,,,,,
0.0,1.0,0.61785,0.0,26.0,26.0,26.0,1.0,mascara_03s.jpg,0.0,clockno_default.jpg,5.0,15,,,,,,,,,,,,,,,,,,,,,,,,,,,,,,,,
0.0,1.0,1.04846,0.0,27.0,27.0,27.0,1.0,puddle_02s.jpg,0.0,clockno_default.jpg,5.0,15,,,,,,,,,,,,,,,,,,,,,,,,,,,,,,,,
1.0,0.0,0.915975,0.0,28.0,28.0,28.0,1.0,lantern_04s.jpg,0.0,clockno_default.jpg,5.0,15,,,,,,,,,,,,,,,,,,,,,,,,,,,,,,,,
0.0,1.0,1.542735,0.0,29.0,29.0,29.0,1.0,pump_11s.jpg,0.0,clockno_up.jpg,6.0,15,,,,,,,,,,,,,,,,,,,,,,,,,,,,,,,,
0.0,1.0,0.791225,0.0,30.0,30.0,30.0,1.0,machine_gun_09s.jpg,0.0,clockno_default.jpg,6.0,15,,,,,,,,,,,,,,,,,,,,,,,,,,,,,,,,
0.0,1.0,0.503015,0.0,31.0,31.0,31.0,1.0,mitten_10s.jpg,0.0,clockno_default.jpg,6.0,15,,,,,,,,,,,,,,,,,,,,,,,,,,,,,,,,
0.0,1.0,0.70709,0.0,32.0,32.0,32.0,1.0,joystick_01b.jpg,0.0,clockno_default.jpg,6.0,15,,,,,,,,,,,,,,,,,,,,,,,,,,,,,,,,
0.0,1.0,1.139865,0.0,33.0,33.0,33.0,1.0,rice_12s.jpg,0.0,clockno_default.jpg,6.0,15,,,,,,,,,,,,,,,,,,,,,,,,,,,,,,,,
0.0,1.0,0.537615,0.0,34.0,34.0,34.0,1.0,lifesaver_10s.jpg,0.0,clockno_default.jpg,6.0,15,,,,,,,,,,,,,,,,,,,,,,,,,,,,,,,,
0.0,1.0,0.78287,0.0,35.0,35.0,35.0,1.0,lamp_08s.jpg,0.0,clockno_default.jpg,6.0,15,,,,,,,,,,,,,,,,,,,,,,,,,,,,,,,,
,,,,,,,,,0.0,,,15,0.0,1.0,1.311195,0.0,0.0,0.0,0.0,1.0,golf_club_03s.jpg,ginger_09s.jpg,,,,,,,,,,,,,,,,,,,,,,
,,,,,,,,,0.0,,,15,0.0,1.0,1.172815,0.0,1.0,1.0,1.0,1.0,popsicle_02s.jpg,pancake_12s.jpg,,,,,,,,,,,,,,,,,,,,,,
,,,,,,,,,1.0,,,15,0.0,0.0,1.09809,0.0,2.0,2.0,2.0,1.0,seahorse_13s.jpg,dirt_bike_11s.jpg,,,,,,,,,,,,,,,,,,,,,,
,,,,,,,,,1.0,,,15,1.0,1.0,1.148045,0.0,3.0,3.0,3.0,1.0,ladle_04s.jpg,rolling_pin_02s.jpg,,,,,,,,,,,,,,,,,,,,,,
,,,,,,,,,1.0,,,15,1.0,1.0,1.232515,0.0,4.0,4.0,4.0,1.0,mitten_10s.jpg,lifesaver_10s.jpg,,,,,,,,,,,,,,,,,,,,,,
,,,,,,,,,0.0,,,15,1.0,0.0,1.74861,0.0,5.0,5.0,5.0,1.0,lamp_08s.jpg,joystick_01b.jpg,,,,,,,,,,,,,,,,,,,,,,
,,,,,,,,,,,,15,,,,,,,,,,,0.0,4.0,4.0,4.0,1.0,clockno_present_5_16.xlsx,clockno_compare_task_5_16.xlsx,,,,,,,,,,,,,,,
0.0,1.0,1.113835,0.0,0.0,0.0,0.0,1.0,seagull_01b.jpg,0.0,clockno_up.jpg,1.0,15,,,,,,,,,,,,,,,,,,,,,,,,,,,,,,,,
0.0,1.0,1.171465,0.0,1.0,1.0,1.0,1.0,denture_03s.jpg,0.0,clockno_default.jpg,1.0,15,,,,,,,,,,,,,,,,,,,,,,,,,,,,,,,,
0.0,0.0,0.54343,0.0,2.0,2.0,2.0,1.0,seagull_01b.jpg,1.0,clockno_default.jpg,1.0,15,,,,,,,,,,,,,,,,,,,,,,,,,,,,,,,,
1.0,1.0,0.710145,0.0,3.0,3.0,3.0,1.0,seagull_01b.jpg,1.0,clockno_default.jpg,1.0,15,,,,,,,,,,,,,,,,,,,,,,,,,,,,,,,,
1.0,1.0,0.59793,0.0,4.0,4.0,4.0,1.0,seagull_01b.jpg,1.0,clockno_default.jpg,1.0,15,,,,,,,,,,,,,,,,,,,,,,,,,,,,,,,,
0.0,1.0,0.68065,0.0,5.0,5.0,5.0,1.0,knitting_needle_04s.jpg,0.0,clockno_default.jpg,1.0,15,,,,,,,,,,,,,,,,,,,,,,,,,,,,,,,,
0.0,1.0,1.03703,0.0,6.0,6.0,6.0,1.0,birdcage_08s.jpg,0.0,clockno_default.jpg,1.0,15,,,,,,,,,,,,,,,,,,,,,,,,,,,,,,,,
0.0,1.0,0.933885,0.0,7.0,7.0,7.0,1.0,pie_08s.jpg,0.0,clockno_up.jpg,2.0,15,,,,,,,,,,,,,,,,,,,,,,,,,,,,,,,,
0.0,1.0,0.522195,0.0,8.0,8.0,8.0,1.0,glasses01a.jpg,0.0,clockno_default.jpg,2.0,15,,,,,,,,,,,,,,,,,,,,,,,,,,,,,,,,
0.0,1.0,0.705965,0.0,9.0,9.0,9.0,1.0,onion_10s.jpg,0.0,clockno_default.jpg,2.0,15,,,,,,,,,,,,,,,,,,,,,,,,,,,,,,,,
0.0,1.0,1.37967,0.0,10.0,10.0,10.0,1.0,seagull_01b.jpg,0.0,clockno_default.jpg,2.0,15,,,,,,,,,,,,,,,,,,,,,,,,,,,,,,,,
0.0,1.0,0.4835,0.0,11.0,11.0,11.0,1.0,tortilla_06s.jpg,0.0,clockno_default.jpg,2.0,15,,,,,,,,,,,,,,,,,,,,,,,,,,,,,,,,
0.0,1.0,1.164865,0.0,12.0,12.0,12.0,1.0,panda_02s.jpg,0.0,clockno_up.jpg,3.0,15,,,,,,,,,,,,,,,,,,,,,,,,,,,,,,,,
0.0,1.0,1.62361,0.0,13.0,13.0,13.0,1.0,lipstick_02s.jpg,0.0,clockno_default.jpg,3.0,15,,,,,,,,,,,,,,,,,,,,,,,,,,,,,,,,
1.0,1.0,1.68043,0.0,14.0,14.0,14.0,1.0,lipstick_02s.jpg,1.0,clockno_default.jpg,3.0,15,,,,,,,,,,,,,,,,,,,,,,,,,,,,,,,,
0.0,1.0,0.75288,0.0,15.0,15.0,15.0,1.0,chime_12s.jpg,0.0,clockno_default.jpg,3.0,15,,,,,,,,,,,,,,,,,,,,,,,,,,,,,,,,
0.0,0.0,1.165065,0.0,16.0,16.0,16.0,1.0,panda_02s.jpg,1.0,clockno_default.jpg,3.0,15,,,,,,,,,,,,,,,,,,,,,,,,,,,,,,,,
0.0,1.0,0.763905,0.0,17.0,17.0,17.0,1.0,mug_06s.jpg,0.0,clockno_default.jpg,3.0,15,,,,,,,,,,,,,,,,,,,,,,,,,,,,,,,,
0.0,1.0,0.6536,0.0,18.0,18.0,18.0,1.0,pie_08s.jpg,0.0,clockno_default.jpg,3.0,15,,,,,,,,,,,,,,,,,,,,,,,,,,,,,,,,
0.0,1.0,1.449975,0.0,19.0,19.0,19.0,1.0,latch_15s.jpg,0.0,clockno_up.jpg,4.0,15,,,,,,,,,,,,,,,,,,,,,,,,,,,,,,,,
1.0,1.0,1.212,0.0,20.0,20.0,20.0,1.0,latch_15s.jpg,1.0,clockno_default.jpg,4.0,15,,,,,,,,,,,,,,,,,,,,,,,,,,,,,,,,
0.0,1.0,0.6062,0.0,21.0,21.0,21.0,1.0,camcorder_10s.jpg,0.0,clockno_default.jpg,4.0,15,,,,,,,,,,,,,,,,,,,,,,,,,,,,,,,,
0.0,1.0,0.67117,0.0,22.0,22.0,22.0,1.0,kimono_13s.jpg,0.0,clockno_default.jpg,4.0,15,,,,,,,,,,,,,,,,,,,,,,,,,,,,,,,,
1.0,1.0,2.14801,0.0,23.0,23.0,23.0,1.0,kimono_13s.jpg,1.0,clockno_default.jpg,4.0,15,,,,,,,,,,,,,,,,,,,,,,,,,,,,,,,,
0.0,1.0,0.697395,0.0,24.0,24.0,24.0,1.0,bee_20s.jpg,0.0,clockno_up.jpg,5.0,15,,,,,,,,,,,,,,,,,,,,,,,,,,,,,,,,
0.0,1.0,0.71764,0.0,25.0,25.0,25.0,1.0,saddle_06s.jpg,0.0,clockno_default.jpg,5.0,15,,,,,,,,,,,,,,,,,,,,,,,,,,,,,,,,
0.0,1.0,1.64888,0.0,26.0,26.0,26.0,1.0,fire_alarm_05s.jpg,0.0,clockno_default.jpg,5.0,15,,,,,,,,,,,,,,,,,,,,,,,,,,,,,,,,
0.0,1.0,0.5918,0.0,27.0,27.0,27.0,1.0,ram_05s.jpg,0.0,clockno_default.jpg,5.0,15,,,,,,,,,,,,,,,,,,,,,,,,,,,,,,,,
0.0,1.0,0.45371,0.0,28.0,28.0,28.0,1.0,coral_08s.jpg,0.0,clockno_default.jpg,5.0,15,,,,,,,,,,,,,,,,,,,,,,,,,,,,,,,,
0.0,1.0,0.659505,0.0,29.0,29.0,29.0,1.0,roller_coaster_07s.jpg,0.0,clockno_default.jpg,5.0,15,,,,,,,,,,,,,,,,,,,,,,,,,,,,,,,,
0.0,1.0,0.50693,0.0,30.0,30.0,30.0,1.0,playpen_11s.jpg,0.0,clockno_up.jpg,6.0,15,,,,,,,,,,,,,,,,,,,,,,,,,,,,,,,,
0.0,1.0,0.599895,0.0,31.0,31.0,31.0,1.0,mask_09s.jpg,0.0,clockno_default.jpg,6.0,15,,,,,,,,,,,,,,,,,,,,,,,,,,,,,,,,
0.0,0.0,0.765105,0.0,32.0,32.0,32.0,1.0,mask_09s.jpg,1.0,clockno_default.jpg,6.0,15,,,,,,,,,,,,,,,,,,,,,,,,,,,,,,,,
0.0,1.0,0.61966,0.0,33.0,33.0,33.0,1.0,turf_03s.jpg,0.0,clockno_default.jpg,6.0,15,,,,,,,,,,,,,,,,,,,,,,,,,,,,,,,,
0.0,1.0,0.537605,0.0,34.0,34.0,34.0,1.0,go-kart_10s.jpg,0.0,clockno_default.jpg,6.0,15,,,,,,,,,,,,,,,,,,,,,,,,,,,,,,,,
0.0,1.0,0.57637,0.0,35.0,35.0,35.0,1.0,polaroid_05s.jpg,0.0,clockno_default.jpg,6.0,15,,,,,,,,,,,,,,,,,,,,,,,,,,,,,,,,
,,,,,,,,,1.0,,,15,1.0,1.0,1.09173,0.0,0.0,0.0,0.0,1.0,birdcage_08s.jpg,onion_10s.jpg,,,,,,,,,,,,,,,,,,,,,,
,,,,,,,,,0.0,,,15,0.0,1.0,1.15112,0.0,1.0,1.0,1.0,1.0,glasses01a.jpg,knitting_needle_04s.jpg,,,,,,,,,,,,,,,,,,,,,,
,,,,,,,,,0.0,,,15,1.0,0.0,1.380235,0.0,2.0,2.0,2.0,1.0,bee_20s.jpg,camcorder_10s.jpg,,,,,,,,,,,,,,,,,,,,,,
,,,,,,,,,0.0,,,15,0.0,1.0,1.08249,0.0,3.0,3.0,3.0,1.0,coral_08s.jpg,saddle_06s.jpg,,,,,,,,,,,,,,,,,,,,,,
,,,,,,,,,1.0,,,15,0.0,0.0,0.89083,0.0,4.0,4.0,4.0,1.0,fire_alarm_05s.jpg,roller_coaster_07s.jpg,,,,,,,,,,,,,,,,,,,,,,
,,,,,,,,,0.0,,,15,0.0,1.0,1.35603,0.0,5.0,5.0,5.0,1.0,turf_03s.jpg,playpen_11s.jpg,,,,,,,,,,,,,,,,,,,,,,
0.0,1.0,1.81403,,,,,,prism_10s.jpg,0.0,clock_5_1.png,1.0,15,,,,,,,,,,,,,,,,,,0.0,0.0,0.0,0.0,1.0,,,,,,,,,,
0.0,1.0,0.83843,,,,,,snowman_02s.jpg,0.0,clock_5_2.png,1.0,15,,,,,,,,,,,,,,,,,,0.0,1.0,1.0,1.0,1.0,,,,,,,,,,
0.0,1.0,0.963335,,,,,,safety_pin_02s.jpg,0.0,clock_5_3.png,1.0,15,,,,,,,,,,,,,,,,,,0.0,2.0,2.0,2.0,1.0,,,,,,,,,,
0.0,0.0,0.69159,,,,,,prism_10s.jpg,1.0,clock_5_4.png,1.0,15,,,,,,,,,,,,,,,,,,0.0,3.0,3.0,3.0,1.0,,,,,,,,,,
0.0,1.0,1.04215,,,,,,peppermint_07s.jpg,0.0,clock_5_5.png,1.0,15,,,,,,,,,,,,,,,,,,0.0,4.0,4.0,4.0,1.0,,,,,,,,,,
0.0,1.0,1.545835,,,,,,radio_09s.jpg,0.0,clock_6_1.png,2.0,15,,,,,,,,,,,,,,,,,,0.0,5.0,5.0,5.0,1.0,,,,,,,,,,
0.0,1.0,0.529535,,,,,,tablet_04s.jpg,0.0,clock_6_2.png,2.0,15,,,,,,,,,,,,,,,,,,0.0,6.0,6.0,6.0,1.0,,,,,,,,,,
0.0,1.0,0.582855,,,,,,sleeping_bag_12s.jpg,0.0,clock_6_3.png,2.0,15,,,,,,,,,,,,,,,,,,0.0,7.0,7.0,7.0,1.0,,,,,,,,,,
0.0,1.0,0.61868,,,,,,racehorse_03s.jpg,0.0,clock_6_4.png,2.0,15,,,,,,,,,,,,,,,,,,0.0,8.0,8.0,8.0,1.0,,,,,,,,,,
1.0,0.0,1.779935,,,,,,peppermint_07s.jpg,0.0,clock_6_5.png,2.0,15,,,,,,,,,,,,,,,,,,0.0,9.0,9.0,9.0,1.0,,,,,,,,,,
0.0,1.0,0.950935,,,,,,jukebox_03n.jpg,0.0,clock_6_6.png,2.0,15,,,,,,,,,,,,,,,,,,0.0,10.0,10.0,10.0,1.0,,,,,,,,,,
0.0,1.0,0.53278,,,,,,moth_06n.jpg,0.0,clock_6_1.png,3.0,15,,,,,,,,,,,,,,,,,,0.0,11.0,11.0,11.0,1.0,,,,,,,,,,
0.0,1.0,0.69817,,,,,,ant_12s.jpg,0.0,clock_6_2.png,3.0,15,,,,,,,,,,,,,,,,,,0.0,12.0,12.0,12.0,1.0,,,,,,,,,,
0.0,1.0,0.514015,,,,,,chocolate_01b.jpg,0.0,clock_6_3.png,3.0,15,,,,,,,,,,,,,,,,,,0.0,13.0,13.0,13.0,1.0,,,,,,,,,,
0.0,1.0,0.44728,,,,,,puck_06s.jpg,0.0,clock_6_4.png,3.0,15,,,,,,,,,,,,,,,,,,0.0,14.0,14.0,14.0,1.0,,,,,,,,,,
1.0,1.0,1.85409,,,,,,chocolate_01b.jpg,1.0,clock_6_5.png,3.0,15,,,,,,,,,,,,,,,,,,0.0,15.0,15.0,15.0,1.0,,,,,,,,,,
0.0,1.0,0.68797,,,,,,orchid_01b.jpg,0.0,clock_6_6.png,3.0,15,,,,,,,,,,,,,,,,,,0.0,16.0,16.0,16.0,1.0,,,,,,,,,,
0.0,1.0,0.592745,,,,,,pillow_03s.jpg,0.0,clock_7_1.png,4.0,15,,,,,,,,,,,,,,,,,,0.0,17.0,17.0,17.0,1.0,,,,,,,,,,
1.0,1.0,1.209575,,,,,,pillow_03s.jpg,1.0,clock_7_2.png,4.0,15,,,,,,,,,,,,,,,,,,0.0,18.0,18.0,18.0,1.0,,,,,,,,,,
0.0,1.0,0.49114,,,,,,loom_05s.jpg,0.0,clock_7_3.png,4.0,15,,,,,,,,,,,,,,,,,,0.0,19.0,19.0,19.0,1.0,,,,,,,,,,
0.0,1.0,1.05809,,,,,,kangaroo_02s.jpg,0.0,clock_7_4.png,4.0,15,,,,,,,,,,,,,,,,,,0.0,20.0,20.0,20.0,1.0,,,,,,,,,,
0.0,1.0,0.823285,,,,,,plunger_08s.jpg,0.0,clock_7_5.png,4.0,15,,,,,,,,,,,,,,,,,,0.0,21.0,21.0,21.0,1.0,,,,,,,,,,
0.0,1.0,1.30458,,,,,,refrigerator_07s.jpg,0.0,clock_7_6.png,4.0,15,,,,,,,,,,,,,,,,,,0.0,22.0,22.0,22.0,1.0,,,,,,,,,,
0.0,1.0,0.488125,,,,,,mousetrap_15n.jpg,0.0,clock_7_7.png,4.0,15,,,,,,,,,,,,,,,,,,0.0,23.0,23.0,23.0,1.0,,,,,,,,,,
0.0,1.0,0.60672,,,,,,margarita_03s.jpg,0.0,clock_5_1.png,5.0,15,,,,,,,,,,,,,,,,,,0.0,24.0,24.0,24.0,1.0,,,,,,,,,,
0.0,1.0,1.66746,,,,,,plaster_cast_13s.jpg,0.0,clock_5_2.png,5.0,15,,,,,,,,,,,,,,,,,,0.0,25.0,25.0,25.0,1.0,,,,,,,,,,
0.0,1.0,0.66761,,,,,,radio_09s.jpg,0.0,clock_5_3.png,5.0,15,,,,,,,,,,,,,,,,,,0.0,26.0,26.0,26.0,1.0,,,,,,,,,,
0.0,1.0,0.686875,,,,,,footprint_11s.jpg,0.0,clock_5_4.png,5.0,15,,,,,,,,,,,,,,,,,,0.0,27.0,27.0,27.0,1.0,,,,,,,,,,
0.0,1.0,1.07436,,,,,,ant_12s.jpg,0.0,clock_5_5.png,5.0,15,,,,,,,,,,,,,,,,,,0.0,28.0,28.0,28.0,1.0,,,,,,,,,,
0.0,1.0,0.381735,,,,,,tiger_06s.jpg,0.0,clock_7_1.png,6.0,15,,,,,,,,,,,,,,,,,,0.0,29.0,29.0,29.0,1.0,,,,,,,,,,
0.0,1.0,0.606295,,,,,,fishhook_06s.jpg,0.0,clock_7_2.png,6.0,15,,,,,,,,,,,,,,,,,,0.0,30.0,30.0,30.0,1.0,,,,,,,,,,
0.0,1.0,0.62064,,,,,,poinsettia_04s.jpg,0.0,clock_7_3.png,6.0,15,,,,,,,,,,,,,,,,,,0.0,31.0,31.0,31.0,1.0,,,,,,,,,,
1.0,1.0,1.34795,,,,,,tiger_06s.jpg,1.0,clock_7_4.png,6.0,15,,,,,,,,,,,,,,,,,,0.0,32.0,32.0,32.0,1.0,,,,,,,,,,
0.0,1.0,0.64153,,,,,,limousine_12s.jpg,0.0,clock_7_5.png,6.0,15,,,,,,,,,,,,,,,,,,0.0,33.0,33.0,33.0,1.0,,,,,,,,,,
0.0,1.0,2.33016,,,,,,submarine_11n.jpg,0.0,clock_7_6.png,6.0,15,,,,,,,,,,,,,,,,,,0.0,34.0,34.0,34.0,1.0,,,,,,,,,,
0.0,1.0,0.557355,,,,,,quill_09s.jpg,0.0,clock_7_7.png,6.0,15,,,,,,,,,,,,,,,,,,0.0,35.0,35.0,35.0,1.0,,,,,,,,,,
,,,,,,,,,0.0,,,15,1.0,0.0,1.93342,,,,,,moth_06n.jpg,racehorse_03s.jpg,,,,,,,,,,,,,0.0,0.0,0.0,0.0,1.0,,,,,
,,,,,,,,,1.0,,,15,0.0,0.0,1.17335,,,,,,orchid_01b.jpg,loom_05s.jpg,,,,,,,,,,,,,0.0,1.0,1.0,1.0,1.0,,,,,
,,,,,,,,,0.0,,,15,0.0,1.0,1.37353,,,,,,margarita_03s.jpg,plunger_08s.jpg,,,,,,,,,,,,,0.0,2.0,2.0,2.0,1.0,,,,,
,,,,,,,,,1.0,,,15,0.0,0.0,0.999525,,,,,,sleeping_bag_12s.jpg,jukebox_03n.jpg,,,,,,,,,,,,,0.0,3.0,3.0,3.0,1.0,,,,,
,,,,,,,,,1.0,,,15,1.0,1.0,1.08665,,,,,,kangaroo_02s.jpg,mousetrap_15n.jpg,,,,,,,,,,,,,0.0,4.0,4.0,4.0,1.0,,,,,
,,,,,,,,,0.0,,,15,0.0,1.0,1.06835,,,,,,submarine_11n.jpg,poinsettia_04s.jpg,,,,,,,,,,,,,0.0,5.0,5.0,5.0,1.0,,,,,
,,,,,,,,,,,,15,,,,,,,,,,,,,,,,clock_present_1_16.xlsx,clock_compare_task_1_16.xlsx,,,,,,,,,,,0.0,0.0,0.0,0.0,1.0
0.0,1.0,1.109545,,,,,,metronome_03s.jpg,0.0,clock_5_1.png,1.0,15,,,,,,,,,,,,,,,,,,0.0,0.0,0.0,0.0,1.0,,,,,,,,,,
0.0,1.0,0.71772,,,,,,cereal_04s.jpg,0.0,clock_5_2.png,1.0,15,,,,,,,,,,,,,,,,,,0.0,1.0,1.0,1.0,1.0,,,,,,,,,,
0.0,1.0,1.09721,,,,,,tripod_01b.jpg,0.0,clock_5_3.png,1.0,15,,,,,,,,,,,,,,,,,,0.0,2.0,2.0,2.0,1.0,,,,,,,,,,
,0.0,,,,,,,thermostat_02s.jpg,0.0,clock_5_4.png,1.0,15,,,,,,,,,,,,,,,,,,0.0,3.0,3.0,3.0,1.0,,,,,,,,,,
0.0,1.0,0.59062,,,,,,jalapeno_15s.jpg,0.0,clock_5_5.png,1.0,15,,,,,,,,,,,,,,,,,,0.0,4.0,4.0,4.0,1.0,,,,,,,,,,
0.0,1.0,0.819115,,,,,,aluminum_foil_08s.jpg,0.0,clock_6_1.png,2.0,15,,,,,,,,,,,,,,,,,,0.0,5.0,5.0,5.0,1.0,,,,,,,,,,
0.0,1.0,1.75713,,,,,,medal_04s.jpg,0.0,clock_6_2.png,2.0,15,,,,,,,,,,,,,,,,,,0.0,6.0,6.0,6.0,1.0,,,,,,,,,,
0.0,1.0,0.75706,,,,,,flip_flop_03s.jpg,0.0,clock_6_3.png,2.0,15,,,,,,,,,,,,,,,,,,0.0,7.0,7.0,7.0,1.0,,,,,,,,,,
0.0,1.0,1.008965,,,,,,orangutan_03s.jpg,0.0,clock_6_4.png,2.0,15,,,,,,,,,,,,,,,,,,0.0,8.0,8.0,8.0,1.0,,,,,,,,,,
0.0,1.0,0.607,,,,,,otter_05s.jpg,0.0,clock_6_5.png,2.0,15,,,,,,,,,,,,,,,,,,0.0,9.0,9.0,9.0,1.0,,,,,,,,,,
0.0,1.0,0.7975,,,,,,polar_bear_02s.jpg,0.0,clock_6_6.png,2.0,15,,,,,,,,,,,,,,,,,,0.0,10.0,10.0,10.0,1.0,,,,,,,,,,
0.0,1.0,1.87102,,,,,,pocketknife_12s.jpg,0.0,clock_7_1.png,3.0,15,,,,,,,,,,,,,,,,,,0.0,11.0,11.0,11.0,1.0,,,,,,,,,,
1.0,1.0,2.08165,,,,,,pocketknife_12s.jpg,1.0,clock_7_2.png,3.0,15,,,,,,,,,,,,,,,,,,0.0,12.0,12.0,12.0,1.0,,,,,,,,,,
,0.0,,,,,,,tulip_02s.jpg,0.0,clock_7_3.png,3.0,15,,,,,,,,,,,,,,,,,,0.0,13.0,13.0,13.0,1.0,,,,,,,,,,
0.0,1.0,0.7534,,,,,,lamb_chop_07s.jpg,0.0,clock_7_4.png,3.0,15,,,,,,,,,,,,,,,,,,0.0,14.0,14.0,14.0,1.0,,,,,,,,,,
0.0,1.0,0.580805,,,,,,tape_measure_11s.jpg,0.0,clock_7_5.png,3.0,15,,,,,,,,,,,,,,,,,,0.0,15.0,15.0,15.0,1.0,,,,,,,,,,
1.0,1.0,1.03115,,,,,,pocketknife_12s.jpg,1.0,clock_7_6.png,3.0,15,,,,,,,,,,,,,,,,,,0.0,16.0,16.0,16.0,1.0,,,,,,,,,,
0.0,1.0,1.169645,,,,,,pear_02s.jpg,0.0,clock_7_7.png,3.0,15,,,,,,,,,,,,,,,,,,0.0,17.0,17.0,17.0,1.0,,,,,,,,,,
0.0,1.0,0.70939,,,,,,lectern_08s.jpg,0.0,clock_6_1.png,4.0,15,,,,,,,,,,,,,,,,,,0.0,18.0,18.0,18.0,1.0,,,,,,,,,,
0.0,1.0,0.69092,,,,,,pineapple_12s.jpg,0.0,clock_6_2.png,4.0,15,,,,,,,,,,,,,,,,,,0.0,19.0,19.0,19.0,1.0,,,,,,,,,,
0.0,1.0,0.5897,,,,,,stamp1_11s.jpg,0.0,clock_6_3.png,4.0,15,,,,,,,,,,,,,,,,,,0.0,20.0,20.0,20.0,1.0,,,,,,,,,,
0.0,1.0,0.72389,,,,,,boomerang_06s.jpg,0.0,clock_6_4.png,4.0,15,,,,,,,,,,,,,,,,,,0.0,21.0,21.0,21.0,1.0,,,,,,,,,,
0.0,1.0,1.674495,,,,,,screwdriver02a.jpg,0.0,clock_6_5.png,4.0,15,,,,,,,,,,,,,,,,,,0.0,22.0,22.0,22.0,1.0,,,,,,,,,,
0.0,1.0,0.513615,,,,,,solar_panel_02s.jpg,0.0,clock_6_6.png,4.0,15,,,,,,,,,,,,,,,,,,0.0,23.0,23.0,23.0,1.0,,,,,,,,,,
0.0,1.0,0.549475,,,,,,tile_08s.jpg,0.0,clock_5_1.png,5.0,15,,,,,,,,,,,,,,,,,,0.0,24.0,24.0,24.0,1.0,,,,,,,,,,
0.0,1.0,0.597155,,,,,,roulette_wheel_04s.jpg,0.0,clock_5_2.png,5.0,15,,,,,,,,,,,,,,,,,,0.0,25.0,25.0,25.0,1.0,,,,,,,,,,
0.0,1.0,0.729695,,,,,,lid_10s.jpg,0.0,clock_5_3.png,5.0,15,,,,,,,,,,,,,,,,,,0.0,26.0,26.0,26.0,1.0,,,,,,,,,,
0.0,1.0,0.68409,,,,,,pineapple_12s.jpg,0.0,clock_5_4.png,5.0,15,,,,,,,,,,,,,,,,,,0.0,27.0,27.0,27.0,1.0,,,,,,,,,,
0.0,1.0,0.48575,,,,,,potpourri_03s.jpg,0.0,clock_5_5.png,5.0,15,,,,,,,,,,,,,,,,,,0.0,28.0,28.0,28.0,1.0,,,,,,,,,,
0.0,1.0,0.51456,,,,,,measuring_cup_02s.jpg,0.0,clock_7_1.png,6.0,15,,,,,,,,,,,,,,,,,,0.0,29.0,29.0,29.0,1.0,,,,,,,,,,
0.0,1.0,0.647835,,,,,,kite_04s.jpg,0.0,clock_7_2.png,6.0,15,,,,,,,,,,,,,,,,,,0.0,30.0,30.0,30.0,1.0,,,,,,,,,,
0.0,1.0,0.51996,,,,,,solar_panel_02s.jpg,0.0,clock_7_3.png,6.0,15,,,,,,,,,,,,,,,,,,0.0,31.0,31.0,31.0,1.0,,,,,,,,,,
0.0,1.0,0.547905,,,,,,piano_13n.jpg,0.0,clock_7_4.png,6.0,15,,,,,,,,,,,,,,,,,,0.0,32.0,32.0,32.0,1.0,,,,,,,,,,
0.0,1.0,0.58856,,,,,,sea_urchin_09s.jpg,0.0,clock_7_5.png,6.0,15,,,,,,,,,,,,,,,,,,0.0,33.0,33.0,33.0,1.0,,,,,,,,,,
0.0,1.0,1.289335,,,,,,thermostat_02s.jpg,0.0,clock_7_6.png,6.0,15,,,,,,,,,,,,,,,,,,0.0,34.0,34.0,34.0,1.0,,,,,,,,,,
0.0,1.0,0.59814,,,,,,stapler_01b.jpg,0.0,clock_7_7.png,6.0,15,,,,,,,,,,,,,,,,,,0.0,35.0,35.0,35.0,1.0,,,,,,,,,,
,,,,,,,,,0.0,,,15,0.0,1.0,1.20017,,,,,,aluminum_foil_08s.jpg,tripod_01b.jpg,,,,,,,,,,,,,0.0,0.0,0.0,0.0,1.0,,,,,
,,,,,,,,,0.0,,,15,0.0,1.0,1.28054,,,,,,tulip_02s.jpg,polar_bear_02s.jpg,,,,,,,,,,,,,0.0,1.0,1.0,1.0,1.0,,,,,
,,,,,,,,,1.0,,,15,1.0,1.0,1.305145,,,,,,tape_measure_11s.jpg,lectern_08s.jpg,,,,,,,,,,,,,0.0,2.0,2.0,2.0,1.0,,,,,
,,,,,,,,,1.0,,,15,0.0,0.0,0.900545,,,,,,medal_04s.jpg,otter_05s.jpg,,,,,,,,,,,,,0.0,3.0,3.0,3.0,1.0,,,,,
,,,,,,,,,1.0,,,15,1.0,1.0,1.008935,,,,,,kite_04s.jpg,sea_urchin_09s.jpg,,,,,,,,,,,,,0.0,4.0,4.0,4.0,1.0,,,,,
,,,,,,,,,1.0,,,15,0.0,0.0,0.8854,,,,,,piano_13n.jpg,stapler_01b.jpg,,,,,,,,,,,,,0.0,5.0,5.0,5.0,1.0,,,,,
,,,,,,,,,,,,15,,,,,,,,,,,,,,,,clock_present_2_16.xlsx,clock_compare_task_2_16.xlsx,,,,,,,,,,,0.0,1.0,1.0,1.0,1.0
0.0,1.0,0.885245,,,,,,trampoline_13s.jpg,0.0,clock_5_1.png,1.0,15,,,,,,,,,,,,,,,,,,0.0,0.0,0.0,0.0,1.0,,,,,,,,,,
0.0,1.0,0.631095,,,,,,ice_pack_09s.jpg,0.0,clock_5_2.png,1.0,15,,,,,,,,,,,,,,,,,,0.0,1.0,1.0,1.0,1.0,,,,,,,,,,
0.0,1.0,0.646445,,,,,,printer_09s.jpg,0.0,clock_5_3.png,1.0,15,,,,,,,,,,,,,,,,,,0.0,2.0,2.0,2.0,1.0,,,,,,,,,,
1.0,1.0,0.698115,,,,,,ice_pack_09s.jpg,1.0,clock_5_4.png,1.0,15,,,,,,,,,,,,,,,,,,0.0,3.0,3.0,3.0,1.0,,,,,,,,,,
0.0,1.0,0.53368,,,,,,koala_13s.jpg,0.0,clock_5_5.png,1.0,15,,,,,,,,,,,,,,,,,,0.0,4.0,4.0,4.0,1.0,,,,,,,,,,
0.0,1.0,0.508565,,,,,,key_07s.jpg,0.0,clock_5_1.png,2.0,15,,,,,,,,,,,,,,,,,,0.0,5.0,5.0,5.0,1.0,,,,,,,,,,
0.0,1.0,0.412735,,,,,,lamppost_09s.jpg,0.0,clock_5_2.png,2.0,15,,,,,,,,,,,,,,,,,,0.0,6.0,6.0,6.0,1.0,,,,,,,,,,
0.0,1.0,0.38526,,,,,,jigsaw_puzzle_11s.jpg,0.0,clock_5_3.png,2.0,15,,,,,,,,,,,,,,,,,,0.0,7.0,7.0,7.0,1.0,,,,,,,,,,
0.0,1.0,0.520175,,,,,,pantyhose_07s.jpg,0.0,clock_5_4.png,2.0,15,,,,,,,,,,,,,,,,,,0.0,8.0,8.0,8.0,1.0,,,,,,,,,,
0.0,1.0,0.525005,,,,,,typewriter_11s.jpg,0.0,clock_5_5.png,2.0,15,,,,,,,,,,,,,,,,,,0.0,9.0,9.0,9.0,1.0,,,,,,,,,,
0.0,1.0,0.517315,,,,,,rocking_horse_03s.jpg,0.0,clock_7_1.png,3.0,15,,,,,,,,,,,,,,,,,,0.0,10.0,10.0,10.0,1.0,,,,,,,,,,
1.0,1.0,0.934795,,,,,,rocking_horse_03s.jpg,1.0,clock_7_2.png,3.0,15,,,,,,,,,,,,,,,,,,0.0,11.0,11.0,11.0,1.0,,,,,,,,,,
0.0,1.0,1.79203,,,,,,spider_web_03s.jpg,0.0,clock_7_3.png,3.0,15,,,,,,,,,,,,,,,,,,0.0,12.0,12.0,12.0,1.0,,,,,,,,,,
0.0,1.0,0.472235,,,,,,hydrant_10s.jpg,0.0,clock_7_4.png,3.0,15,,,,,,,,,,,,,,,,,,0.0,13.0,13.0,13.0,1.0,,,,,,,,,,
0.0,1.0,0.470365,,,,,,recliner_02s.jpg,0.0,clock_7_5.png,3.0,15,,,,,,,,,,,,,,,,,,0.0,14.0,14.0,14.0,1.0,,,,,,,,,,
0.0,1.0,0.567815,,,,,,pantyhose_07s.jpg,0.0,clock_7_6.png,3.0,15,,,,,,,,,,,,,,,,,,0.0,15.0,15.0,15.0,1.0,,,,,,,,,,
0.0,1.0,0.864185,,,,,,mosquito_12s.jpg,0.0,clock_7_7.png,3.0,15,,,,,,,,,,,,,,,,,,0.0,16.0,16.0,16.0,1.0,,,,,,,,,,
0.0,1.0,0.73221,,,,,,pan_02s.jpg,0.0,clock_7_1.png,4.0,15,,,,,,,,,,,,,,,,,,0.0,17.0,17.0,17.0,1.0,,,,,,,,,,
0.0,1.0,2.41526,,,,,,rope_16s.jpg,0.0,clock_7_2.png,4.0,15,,,,,,,,,,,,,,,,,,0.0,18.0,18.0,18.0,1.0,,,,,,,,,,
0.0,1.0,0.451515,,,,,,diving_board_07s.jpg,0.0,clock_7_3.png,4.0,15,,,,,,,,,,,,,,,,,,0.0,19.0,19.0,19.0,1.0,,,,,,,,,,
0.0,1.0,0.514775,,,,,,lamppost_09s.jpg,0.0,clock_7_4.png,4.0,15,,,,,,,,,,,,,,,,,,0.0,20.0,20.0,20.0,1.0,,,,,,,,,,
0.0,1.0,0.426185,,,,,,tape_06s.jpg,0.0,clock_7_5.png,4.0,15,,,,,,,,,,,,,,,,,,0.0,21.0,21.0,21.0,1.0,,,,,,,,,,
0.0,1.0,0.547115,,,,,,keyhole_03s.jpg,0.0,clock_7_6.png,4.0,15,,,,,,,,,,,,,,,,,,0.0,22.0,22.0,22.0,1.0,,,,,,,,,,
0.0,1.0,0.45868,,,,,,compass_10n.jpg,0.0,clock_7_7.png,4.0,15,,,,,,,,,,,,,,,,,,0.0,23.0,23.0,23.0,1.0,,,,,,,,,,
0.0,1.0,0.85694,,,,,,coconut_08s.jpg,0.0,clock_6_1.png,5.0,15,,,,,,,,,,,,,,,,,,0.0,24.0,24.0,24.0,1.0,,,,,,,,,,
0.0,1.0,1.255125,,,,,,bolo_tie_08s.jpg,0.0,clock_6_2.png,5.0,15,,,,,,,,,,,,,,,,,,0.0,25.0,25.0,25.0,1.0,,,,,,,,,,
0.0,1.0,0.53979,,,,,,frog_09s.jpg,0.0,clock_6_3.png,5.0,15,,,,,,,,,,,,,,,,,,0.0,26.0,26.0,26.0,1.0,,,,,,,,,,
0.0,1.0,0.606165,,,,,,mop_08s.jpg,0.0,clock_6_4.png,5.0,15,,,,,,,,,,,,,,,,,,0.0,27.0,27.0,27.0,1.0,,,,,,,,,,
0.0,1.0,0.535805,,,,,,jewel_01b.jpg,0.0,clock_6_5.png,5.0,15,,,,,,,,,,,,,,,,,,0.0,28.0,28.0,28.0,1.0,,,,,,,,,,
1.0,1.0,1.46467,,,,,,mop_08s.jpg,1.0,clock_6_6.png,5.0,15,,,,,,,,,,,,,,,,,,0.0,29.0,29.0,29.0,1.0,,,,,,,,,,
0.0,1.0,1.123825,,,,,,leash_10s.jpg,0.0,clock_6_1.png,6.0,15,,,,,,,,,,,,,,,,,,0.0,30.0,30.0,30.0,1.0,,,,,,,,,,
0.0,0.0,1.38769,,,,,,leash_10s.jpg,1.0,clock_6_2.png,6.0,15,,,,,,,,,,,,,,,,,,0.0,31.0,31.0,31.0,1.0,,,,,,,,,,
1.0,1.0,1.226605,,,,,,leash_10s.jpg,1.0,clock_6_3.png,6.0,15,,,,,,,,,,,,,,,,,,0.0,32.0,32.0,32.0,1.0,,,,,,,,,,
0.0,1.0,1.1531,,,,,,abacus_12s.jpg,0.0,clock_6_4.png,6.0,15,,,,,,,,,,,,,,,,,,0.0,33.0,33.0,33.0,1.0,,,,,,,,,,
0.0,1.0,0.890445,,,,,,compass_10n.jpg,0.0,clock_6_5.png,6.0,15,,,,,,,,,,,,,,,,,,0.0,34.0,34.0,34.0,1.0,,,,,,,,,,
0.0,1.0,1.112975,,,,,,marker_05s.jpg,0.0,clock_6_6.png,6.0,15,,,,,,,,,,,,,,,,,,0.0,35.0,35.0,35.0,1.0,,,,,,,,,,
,,,,,,,,,1.0,,,15,0.0,0.0,3.495125,,,,,,printer_09s.jpg,key_07s.jpg,,,,,,,,,,,,,0.0,0.0,0.0,0.0,1.0,,,,,
,,,,,,,,,1.0,,,15,1.0,1.0,1.491885,,,,,,koala_13s.jpg,jigsaw_puzzle_11s.jpg,,,,,,,,,,,,,0.0,1.0,1.0,1.0,1.0,,,,,
,,,,,,,,,0.0,,,15,0.0,1.0,1.088195,,,,,,spider_web_03s.jpg,typewriter_11s.jpg,,,,,,,,,,,,,0.0,2.0,2.0,2.0,1.0,,,,,
,,,,,,,,,0.0,,,15,0.0,1.0,1.201725,,,,,,mosquito_12s.jpg,hydrant_10s.jpg,,,,,,,,,,,,,0.0,3.0,3.0,3.0,1.0,,,,,
,,,,,,,,,0.0,,,15,1.0,0.0,0.72454,,,,,,tape_06s.jpg,rope_16s.jpg,,,,,,,,,,,,,0.0,4.0,4.0,4.0,1.0,,,,,
,,,,,,,,,0.0,,,15,0.0,1.0,0.91729,,,,,,jewel_01b.jpg,bolo_tie_08s.jpg,,,,,,,,,,,,,0.0,5.0,5.0,5.0,1.0,,,,,
,,,,,,,,,,,,15,,,,,,,,,,,,,,,,clock_present_3_16.xlsx,clock_compare_task_3_16.xlsx,,,,,,,,,,,0.0,2.0,2.0,2.0,1.0
0.0,1.0,1.09693,,,,,,mud_13s.jpg,0.0,clock_5_1.png,1.0,15,,,,,,,,,,,,,,,,,,0.0,0.0,0.0,0.0,1.0,,,,,,,,,,
0.0,1.0,0.521915,,,,,,mannequin_05s.jpg,0.0,clock_5_2.png,1.0,15,,,,,,,,,,,,,,,,,,0.0,1.0,1.0,1.0,1.0,,,,,,,,,,
0.0,1.0,0.538565,,,,,,turtleneck_11s.jpg,0.0,clock_5_3.png,1.0,15,,,,,,,,,,,,,,,,,,0.0,2.0,2.0,2.0,1.0,,,,,,,,,,
0.0,1.0,0.480695,,,,,,umbrella_15s.jpg,0.0,clock_5_4.png,1.0,15,,,,,,,,,,,,,,,,,,0.0,3.0,3.0,3.0,1.0,,,,,,,,,,
1.0,1.0,0.931585,,,,,,mannequin_05s.jpg,1.0,clock_5_5.png,1.0,15,,,,,,,,,,,,,,,,,,0.0,4.0,4.0,4.0,1.0,,,,,,,,,,
0.0,1.0,0.68391,,,,,,quad_04s.jpg,0.0,clock_7_1.png,2.0,15,,,,,,,,,,,,,,,,,,0.0,5.0,5.0,5.0,1.0,,,,,,,,,,
0.0,1.0,0.5042,,,,,,inhaler_01b.jpg,0.0,clock_7_2.png,2.0,15,,,,,,,,,,,,,,,,,,0.0,6.0,6.0,6.0,1.0,,,,,,,,,,
0.0,1.0,0.526325,,,,,,lollipop_08s.jpg,0.0,clock_7_3.png,2.0,15,,,,,,,,,,,,,,,,,,0.0,7.0,7.0,7.0,1.0,,,,,,,,,,
0.0,1.0,1.03744,,,,,,rocket_02s.jpg,0.0,clock_7_4.png,2.0,15,,,,,,,,,,,,,,,,,,0.0,8.0,8.0,8.0,1.0,,,,,,,,,,
0.0,1.0,0.701425,,,,,,spacesuit_02s.jpg,0.0,clock_7_5.png,2.0,15,,,,,,,,,,,,,,,,,,0.0,9.0,9.0,9.0,1.0,,,,,,,,,,
0.0,1.0,0.848185,,,,,,quesadilla_07s.jpg,0.0,clock_7_6.png,2.0,15,,,,,,,,,,,,,,,,,,0.0,10.0,10.0,10.0,1.0,,,,,,,,,,
0.0,1.0,0.706185,,,,,,punch1_10s.jpg,0.0,clock_7_7.png,2.0,15,,,,,,,,,,,,,,,,,,0.0,11.0,11.0,11.0,1.0,,,,,,,,,,
0.0,1.0,0.672825,,,,,,swimming_pool_17s.jpg,0.0,clock_5_1.png,3.0,15,,,,,,,,,,,,,,,,,,0.0,12.0,12.0,12.0,1.0,,,,,,,,,,
0.0,1.0,0.796455,,,,,,espresso_01b.jpg,0.0,clock_5_2.png,3.0,15,,,,,,,,,,,,,,,,,,0.0,13.0,13.0,13.0,1.0,,,,,,,,,,
0.0,1.0,0.38813,,,,,,torch_02s.jpg,0.0,clock_5_3.png,3.0,15,,,,,,,,,,,,,,,,,,0.0,14.0,14.0,14.0,1.0,,,,,,,,,,
0.0,1.0,0.430745,,,,,,spacesuit_02s.jpg,0.0,clock_5_4.png,3.0,15,,,,,,,,,,,,,,,,,,0.0,15.0,15.0,15.0,1.0,,,,,,,,,,
0.0,1.0,0.73895,,,,,,pipe1_10s.jpg,0.0,clock_5_5.png,3.0,15,,,,,,,,,,,,,,,,,,0.0,16.0,16.0,16.0,1.0,,,,,,,,,,
0.0,1.0,0.725985,,,,,,hummingbird_05s.jpg,0.0,clock_6_1.png,4.0,15,,,,,,,,,,,,,,,,,,0.0,17.0,17.0,17.0,1.0,,,,,,,,,,
0.0,1.0,0.39892,,,,,,scooter.jpg,0.0,clock_6_2.png,4.0,15,,,,,,,,,,,,,,,,,,0.0,18.0,18.0,18.0,1.0,,,,,,,,,,
0.0,1.0,0.3662,,,,,,sunglasses_11s.jpg,0.0,clock_6_3.png,4.0,15,,,,,,,,,,,,,,,,,,0.0,19.0,19.0,19.0,1.0,,,,,,,,,,
1.0,1.0,0.76509,,,,,,hummingbird_05s.jpg,1.0,clock_6_4.png,4.0,15,,,,,,,,,,,,,,,,,,0.0,20.0,20.0,20.0,1.0,,,,,,,,,,
0.0,1.0,0.557955,,,,,,ice-cream_cone_06s.jpg,0.0,clock_6_5.png,4.0,15,,,,,,,,,,,,,,,,,,0.0,21.0,21.0,21.0,1.0,,,,,,,,,,
0.0,1.0,0.61006,,,,,,ink_08s.jpg,0.0,clock_6_6.png,4.0,15,,,,,,,,,,,,,,,,,,0.0,22.0,22.0,22.0,1.0,,,,,,,,,,
0.0,1.0,0.65453,,,,,,butter_14s.jpg,0.0,clock_6_1.png,5.0,15,,,,,,,,,,,,,,,,,,0.0,23.0,23.0,23.0,1.0,,,,,,,,,,
1.0,0.0,1.10665,,,,,,ink_08s.jpg,0.0,clock_6_2.png,5.0,15,,,,,,,,,,,,,,,,,,0.0,24.0,24.0,24.0,1.0,,,,,,,,,,
0.0,1.0,0.498395,,,,,,foam_03s.jpg,0.0,clock_6_3.png,5.0,15,,,,,,,,,,,,,,,,,,0.0,25.0,25.0,25.0,1.0,,,,,,,,,,
0.0,1.0,0.45159,,,,,,lava_02s.jpg,0.0,clock_6_4.png,5.0,15,,,,,,,,,,,,,,,,,,0.0,26.0,26.0,26.0,1.0,,,,,,,,,,
0.0,1.0,0.547645,,,,,,rudder_02s.jpg,0.0,clock_6_5.png,5.0,15,,,,,,,,,,,,,,,,,,0.0,27.0,27.0,27.0,1.0,,,,,,,,,,
0.0,1.0,0.9202,,,,,,tab_09s.jpg,0.0,clock_6_6.png,5.0,15,,,,,,,,,,,,,,,,,,0.0,28.0,28.0,28.0,1.0,,,,,,,,,,
0.0,1.0,0.799085,,,,,,lemonade_04s.jpg,0.0,clock_7_1.png,6.0,15,,,,,,,,,,,,,,,,,,0.0,29.0,29.0,29.0,1.0,,,,,,,,,,
0.0,1.0,0.674205,,,,,,lollipop_08s.jpg,0.0,clock_7_2.png,6.0,15,,,,,,,,,,,,,,,,,,0.0,30.0,30.0,30.0,1.0,,,,,,,,,,
0.0,1.0,0.618515,,,,,,teabag_12s.jpg,0.0,clock_7_3.png,6.0,15,,,,,,,,,,,,,,,,,,0.0,31.0,31.0,31.0,1.0,,,,,,,,,,
1.0,0.0,1.36308,,,,,,sunglasses_11s.jpg,0.0,clock_7_4.png,6.0,15,,,,,,,,,,,,,,,,,,0.0,32.0,32.0,32.0,1.0,,,,,,,,,,
0.0,0.0,0.716055,,,,,,lemonade_04s.jpg,1.0,clock_7_5.png,6.0,15,,,,,,,,,,,,,,,,,,0.0,33.0,33.0,33.0,1.0,,,,,,,,,,
0.0,1.0,1.651685,,,,,,fire_pit_10s.jpg,0.0,clock_7_6.png,6.0,15,,,,,,,,,,,,,,,,,,0.0,34.0,34.0,34.0,1.0,,,,,,,,,,
0.0,1.0,0.529255,,,,,,crayon_09s.jpg,0.0,clock_7_7.png,6.0,15,,,,,,,,,,,,,,,,,,0.0,35.0,35.0,35.0,1.0,,,,,,,,,,
,,,,,,,,,0.0,,,15,0.0,1.0,1.3294,,,,,,quad_04s.jpg,turtleneck_11s.jpg,,,,,,,,,,,,,0.0,0.0,0.0,0.0,1.0,,,,,
,,,,,,,,,1.0,,,15,1.0,1.0,1.064755,,,,,,umbrella_15s.jpg,inhaler_01b.jpg,,,,,,,,,,,,,0.0,1.0,1.0,1.0,1.0,,,,,
,,,,,,,,,1.0,,,15,0.0,0.0,0.88151,,,,,,quesadilla_07s.jpg,espresso_01b.jpg,,,,,,,,,,,,,0.0,2.0,2.0,2.0,1.0,,,,,
,,,,,,,,,1.0,,,15,0.0,0.0,0.773315,,,,,,scooter.jpg,ice-cream_cone_06s.jpg,,,,,,,,,,,,,0.0,3.0,3.0,3.0,1.0,,,,,
,,,,,,,,,1.0,,,15,0.0,0.0,1.052965,,,,,,butter_14s.jpg,lava_02s.jpg,,,,,,,,,,,,,0.0,4.0,4.0,4.0,1.0,,,,,
,,,,,,,,,1.0,,,15,1.0,1.0,0.836915,,,,,,rocket_02s.jpg,punch1_10s.jpg,,,,,,,,,,,,,0.0,5.0,5.0,5.0,1.0,,,,,
,,,,,,,,,,,,15,,,,,,,,,,,,,,,,clock_present_4_16.xlsx,clock_compare_task_4_16.xlsx,,,,,,,,,,,0.0,3.0,3.0,3.0,1.0
0.0,1.0,0.921015,,,,,,clover_04s.jpg,0.0,clock_6_1.png,1.0,15,,,,,,,,,,,,,,,,,,0.0,0.0,0.0,0.0,1.0,,,,,,,,,,
0.0,1.0,0.572125,,,,,,kayak_08s.jpg,0.0,clock_6_2.png,1.0,15,,,,,,,,,,,,,,,,,,0.0,1.0,1.0,1.0,1.0,,,,,,,,,,
0.0,1.0,0.57742,,,,,,toothpaste_12s.jpg,0.0,clock_6_3.png,1.0,15,,,,,,,,,,,,,,,,,,0.0,2.0,2.0,2.0,1.0,,,,,,,,,,
0.0,0.0,0.45293,,,,,,kayak_08s.jpg,1.0,clock_6_4.png,1.0,15,,,,,,,,,,,,,,,,,,0.0,3.0,3.0,3.0,1.0,,,,,,,,,,
1.0,1.0,2.118305,,,,,,clover_04s.jpg,1.0,clock_6_5.png,1.0,15,,,,,,,,,,,,,,,,,,0.0,4.0,4.0,4.0,1.0,,,,,,,,,,
0.0,1.0,0.564485,,,,,,bonsai_07s.jpg,0.0,clock_6_6.png,1.0,15,,,,,,,,,,,,,,,,,,0.0,5.0,5.0,5.0,1.0,,,,,,,,,,
0.0,1.0,0.48243,,,,,,comic_book_02s.jpg,0.0,clock_5_1.png,2.0,15,,,,,,,,,,,,,,,,,,0.0,6.0,6.0,6.0,1.0,,,,,,,,,,
0.0,1.0,0.62976,,,,,,penlight_12s.jpg,0.0,clock_5_2.png,2.0,15,,,,,,,,,,,,,,,,,,0.0,7.0,7.0,7.0,1.0,,,,,,,,,,
0.0,1.0,0.92203,,,,,,emerald_02s.jpg,0.0,clock_5_3.png,2.0,15,,,,,,,,,,,,,,,,,,0.0,8.0,8.0,8.0,1.0,,,,,,,,,,
0.0,1.0,0.45465,,,,,,mussel_11s.jpg,0.0,clock_5_4.png,2.0,15,,,,,,,,,,,,,,,,,,0.0,9.0,9.0,9.0,1.0,,,,,,,,,,
0.0,1.0,0.612305,,,,,,rock_08s.jpg,0.0,clock_5_5.png,2.0,15,,,,,,,,,,,,,,,,,,0.0,10.0,10.0,10.0,1.0,,,,,,,,,,
0.0,1.0,0.5645,,,,,,toilet_paper_12s.jpg,0.0,clock_6_1.png,3.0,15,,,,,,,,,,,,,,,,,,0.0,11.0,11.0,11.0,1.0,,,,,,,,,,
0.0,1.0,0.61861,,,,,,microwave_02s.jpg,0.0,clock_6_2.png,3.0,15,,,,,,,,,,,,,,,,,,0.0,12.0,12.0,12.0,1.0,,,,,,,,,,
1.0,1.0,1.45191,,,,,,toilet_paper_12s.jpg,1.0,clock_6_3.png,3.0,15,,,,,,,,,,,,,,,,,,0.0,13.0,13.0,13.0,1.0,,,,,,,,,,
0.0,1.0,0.66383,,,,,,mattress_01s.jpg,0.0,clock_6_4.png,3.0,15,,,,,,,,,,,,,,,,,,0.0,14.0,14.0,14.0,1.0,,,,,,,,,,
0.0,1.0,1.59502,,,,,,cushion_08s.jpg,0.0,clock_6_5.png,3.0,15,,,,,,,,,,,,,,,,,,0.0,15.0,15.0,15.0,1.0,,,,,,,,,,
0.0,1.0,0.59676,,,,,,rhinoceros_02s.jpg,0.0,clock_6_6.png,3.0,15,,,,,,,,,,,,,,,,,,0.0,16.0,16.0,16.0,1.0,,,,,,,,,,
0.0,1.0,0.629475,,,,,,latte_06s.jpg,0.0,clock_5_1.png,4.0,15,,,,,,,,,,,,,,,,,,0.0,17.0,17.0,17.0,1.0,,,,,,,,,,
0.0,1.0,1.474035,,,,,,projector_08s.jpg,0.0,clock_5_2.png,4.0,15,,,,,,,,,,,,,,,,,,0.0,18.0,18.0,18.0,1.0,,,,,,,,,,
0.0,1.0,0.486515,,,,,,rollerskate_03s.jpg,0.0,clock_5_3.png,4.0,15,,,,,,,,,,,,,,,,,,0.0,19.0,19.0,19.0,1.0,,,,,,,,,,
0.0,0.0,0.882085,,,,,,latte_06s.jpg,1.0,clock_5_4.png,4.0,15,,,,,,,,,,,,,,,,,,0.0,20.0,20.0,20.0,1.0,,,,,,,,,,
0.0,1.0,1.04774,,,,,,pincushion_10s.jpg,0.0,clock_5_5.png,4.0,15,,,,,,,,,,,,,,,,,,0.0,21.0,21.0,21.0,1.0,,,,,,,,,,
0.0,1.0,0.787355,,,,,,tuba_12s.jpg,0.0,clock_7_1.png,5.0,15,,,,,,,,,,,,,,,,,,0.0,22.0,22.0,22.0,1.0,,,,,,,,,,
0.0,1.0,1.346745,,,,,,cucumber_07s.jpg,0.0,clock_7_2.png,5.0,15,,,,,,,,,,,,,,,,,,0.0,23.0,23.0,23.0,1.0,,,,,,,,,,
0.0,1.0,0.777695,,,,,,treasure_08s.jpg,0.0,clock_7_3.png,5.0,15,,,,,,,,,,,,,,,,,,0.0,24.0,24.0,24.0,1.0,,,,,,,,,,
1.0,1.0,1.420145,,,,,,cucumber_07s.jpg,1.0,clock_7_4.png,5.0,15,,,,,,,,,,,,,,,,,,0.0,25.0,25.0,25.0,1.0,,,,,,,,,,
0.0,1.0,1.29643,,,,,,razor_12s.jpg,0.0,clock_7_5.png,5.0,15,,,,,,,,,,,,,,,,,,0.0,26.0,26.0,26.0,1.0,,,,,,,,,,
0.0,1.0,0.483355,,,,,,sunflower_17s.jpg,0.0,clock_7_6.png,5.0,15,,,,,,,,,,,,,,,,,,0.0,27.0,27.0,27.0,1.0,,,,,,,,,,
0.0,1.0,0.629445,,,,,,basket_05s.jpg,0.0,clock_7_7.png,5.0,15,,,,,,,,,,,,,,,,,,0.0,28.0,28.0,28.0,1.0,,,,,,,,,,
0.0,1.0,0.90913,,,,,,breadstick_08s.jpg,0.0,clock_7_1.png,6.0,15,,,,,,,,,,,,,,,,,,0.0,29.0,29.0,29.0,1.0,,,,,,,,,,
,0.0,,,,,,,breadstick_08s.jpg,1.0,clock_7_2.png,6.0,15,,,,,,,,,,,,,,,,,,0.0,30.0,30.0,30.0,1.0,,,,,,,,,,
1.0,1.0,1.1991,,,,,,breadstick_08s.jpg,1.0,clock_7_3.png,6.0,15,,,,,,,,,,,,,,,,,,0.0,31.0,31.0,31.0,1.0,,,,,,,,,,
0.0,1.0,1.011355,,,,,,gingerbread_man_03s.jpg,0.0,clock_7_4.png,6.0,15,,,,,,,,,,,,,,,,,,0.0,32.0,32.0,32.0,1.0,,,,,,,,,,
0.0,1.0,0.84996,,,,,,laser_pointer_02s.jpg,0.0,clock_7_5.png,6.0,15,,,,,,,,,,,,,,,,,,0.0,33.0,33.0,33.0,1.0,,,,,,,,,,
0.0,1.0,0.56278,,,,,,marshmallow_08s.jpg,0.0,clock_7_6.png,6.0,15,,,,,,,,,,,,,,,,,,0.0,34.0,34.0,34.0,1.0,,,,,,,,,,
1.0,1.0,1.14216,,,,,,breadstick_08s.jpg,1.0,clock_7_7.png,6.0,15,,,,,,,,,,,,,,,,,,0.0,35.0,35.0,35.0,1.0,,,,,,,,,,
,,,,,,,,,1.0,,,15,0.0,0.0,1.443875,,,,,,rhinoceros_02s.jpg,rollerskate_03s.jpg,,,,,,,,,,,,,0.0,0.0,0.0,0.0,1.0,,,,,
,,,,,,,,,0.0,,,15,0.0,1.0,1.09857,,,,,,emerald_02s.jpg,bonsai_07s.jpg,,,,,,,,,,,,,0.0,1.0,1.0,1.0,1.0,,,,,
,,,,,,,,,0.0,,,15,1.0,0.0,1.07028,,,,,,microwave_02s.jpg,mussel_11s.jpg,,,,,,,,,,,,,0.0,2.0,2.0,2.0,1.0,,,,,
,,,,,,,,,0.0,,,15,1.0,0.0,1.4192,,,,,,rock_08s.jpg,penlight_12s.jpg,,,,,,,,,,,,,0.0,3.0,3.0,3.0,1.0,,,,,
,,,,,,,,,1.0,,,15,0.0,0.0,1.031795,,,,,,treasure_08s.jpg,sunflower_17s.jpg,,,,,,,,,,,,,0.0,4.0,4.0,4.0,1.0,,,,,
,,,,,,,,,1.0,,,15,1.0,1.0,1.01517,,,,,,projector_08s.jpg,pincushion_10s.jpg,,,,,,,,,,,,,0.0,5.0,5.0,5.0,1.0,,,,,
,,,,,,,,,,,,15,,,,,,,,,,,,,,,,clock_present_5_16.xlsx,clock_compare_task_5_16.xlsx,,,,,,,,,,,0.0,4.0,4.0,4.0,1.0
0.0,1.0,1.200185,,,,,,buoy_04s.jpg,0.0,clock_5_1.png,1.0,15,,,,,,,,,,,,,,,,,,0.0,0.0,0.0,0.0,1.0,,,,,,,,,,
0.0,1.0,0.64565,,,,,,punch2_09s.jpg,0.0,clock_5_2.png,1.0,15,,,,,,,,,,,,,,,,,,0.0,1.0,1.0,1.0,1.0,,,,,,,,,,
0.0,1.0,0.551585,,,,,,rosary_03s.jpg,0.0,clock_5_3.png,1.0,15,,,,,,,,,,,,,,,,,,0.0,2.0,2.0,2.0,1.0,,,,,,,,,,
0.0,1.0,0.51785,,,,,,toad_09s.jpg,0.0,clock_5_4.png,1.0,15,,,,,,,,,,,,,,,,,,0.0,3.0,3.0,3.0,1.0,,,,,,,,,,
0.0,1.0,0.565575,,,,,,lab_coat_11s.jpg,0.0,clock_5_5.png,1.0,15,,,,,,,,,,,,,,,,,,0.0,4.0,4.0,4.0,1.0,,,,,,,,,,
0.0,1.0,0.323655,,,,,,swing_set_15s.jpg,0.0,clock_5_1.png,2.0,15,,,,,,,,,,,,,,,,,,0.0,5.0,5.0,5.0,1.0,,,,,,,,,,
1.0,1.0,1.12286,,,,,,swing_set_15s.jpg,1.0,clock_5_2.png,2.0,15,,,,,,,,,,,,,,,,,,0.0,6.0,6.0,6.0,1.0,,,,,,,,,,
1.0,1.0,1.14955,,,,,,swing_set_15s.jpg,1.0,clock_5_3.png,2.0,15,,,,,,,,,,,,,,,,,,0.0,7.0,7.0,7.0,1.0,,,,,,,,,,
1.0,1.0,1.26978,,,,,,swing_set_15s.jpg,1.0,clock_5_4.png,2.0,15,,,,,,,,,,,,,,,,,,0.0,8.0,8.0,8.0,1.0,,,,,,,,,,
0.0,1.0,1.251355,,,,,,tennis_ball_06s.jpg,0.0,clock_5_5.png,2.0,15,,,,,,,,,,,,,,,,,,0.0,9.0,9.0,9.0,1.0,,,,,,,,,,
0.0,1.0,0.349635,,,,,,powder_07s.jpg,0.0,clock_6_1.png,3.0,15,,,,,,,,,,,,,,,,,,0.0,10.0,10.0,10.0,1.0,,,,,,,,,,
0.0,1.0,0.72161,,,,,,tattoo_14s.jpg,0.0,clock_6_2.png,3.0,15,,,,,,,,,,,,,,,,,,0.0,11.0,11.0,11.0,1.0,,,,,,,,,,
0.0,1.0,1.229415,,,,,,cape_11s.jpg,0.0,clock_6_3.png,3.0,15,,,,,,,,,,,,,,,,,,0.0,12.0,12.0,12.0,1.0,,,,,,,,,,
0.0,1.0,0.773955,,,,,,turnstile_08s.jpg,0.0,clock_6_4.png,3.0,15,,,,,,,,,,,,,,,,,,0.0,13.0,13.0,13.0,1.0,,,,,,,,,,
1.0,1.0,1.509055,,,,,,cape_11s.jpg,1.0,clock_6_5.png,3.0,15,,,,,,,,,,,,,,,,,,0.0,14.0,14.0,14.0,1.0,,,,,,,,,,
0.0,1.0,1.02075,,,,,,loveseat_08s.jpg,0.0,clock_6_6.png,3.0,15,,,,,,,,,,,,,,,,,,0.0,15.0,15.0,15.0,1.0,,,,,,,,,,
0.0,1.0,0.55281,,,,,,swan_11s.jpg,0.0,clock_6_1.png,4.0,15,,,,,,,,,,,,,,,,,,0.0,16.0,16.0,16.0,1.0,,,,,,,,,,
0.0,1.0,0.790975,,,,,,totem_pole_05s.jpg,0.0,clock_6_2.png,4.0,15,,,,,,,,,,,,,,,,,,0.0,17.0,17.0,17.0,1.0,,,,,,,,,,
0.0,1.0,0.498435,,,,,,lip_gloss_06s.jpg,0.0,clock_6_3.png,4.0,15,,,,,,,,,,,,,,,,,,0.0,18.0,18.0,18.0,1.0,,,,,,,,,,
0.0,1.0,0.502625,,,,,,toad_09s.jpg,0.0,clock_6_4.png,4.0,15,,,,,,,,,,,,,,,,,,0.0,19.0,19.0,19.0,1.0,,,,,,,,,,
0.0,1.0,0.56826,,,,,,ring_03s.jpg,0.0,clock_6_5.png,4.0,15,,,,,,,,,,,,,,,,,,0.0,20.0,20.0,20.0,1.0,,,,,,,,,,
1.0,0.0,2.02322,,,,,,powder_07s.jpg,0.0,clock_6_6.png,4.0,15,,,,,,,,,,,,,,,,,,0.0,21.0,21.0,21.0,1.0,,,,,,,,,,
0.0,1.0,0.647825,,,,,,taxi_15s.jpg,0.0,clock_7_1.png,5.0,15,,,,,,,,,,,,,,,,,,0.0,22.0,22.0,22.0,1.0,,,,,,,,,,
1.0,1.0,1.529525,,,,,,taxi_15s.jpg,1.0,clock_7_2.png,5.0,15,,,,,,,,,,,,,,,,,,0.0,23.0,23.0,23.0,1.0,,,,,,,,,,
0.0,1.0,1.040885,,,,,,gazelle_10s.jpg,0.0,clock_7_3.png,5.0,15,,,,,,,,,,,,,,,,,,0.0,24.0,24.0,24.0,1.0,,,,,,,,,,
0.0,1.0,0.51518,,,,,,thumbtack_14s.jpg,0.0,clock_7_4.png,5.0,15,,,,,,,,,,,,,,,,,,0.0,25.0,25.0,25.0,1.0,,,,,,,,,,
0.0,1.0,0.689705,,,,,,hyena_16s.jpg,0.0,clock_7_5.png,5.0,15,,,,,,,,,,,,,,,,,,0.0,26.0,26.0,26.0,1.0,,,,,,,,,,
0.0,1.0,0.582545,,,,,,badge_03s.jpg,0.0,clock_7_6.png,5.0,15,,,,,,,,,,,,,,,,,,0.0,27.0,27.0,27.0,1.0,,,,,,,,,,
0.0,1.0,0.699725,,,,,,blazer_02s.jpg,0.0,clock_7_7.png,5.0,15,,,,,,,,,,,,,,,,,,0.0,28.0,28.0,28.0,1.0,,,,,,,,,,
0.0,1.0,0.62358,,,,,,blowfish_03s.jpg,0.0,clock_7_1.png,6.0,15,,,,,,,,,,,,,,,,,,0.0,29.0,29.0,29.0,1.0,,,,,,,,,,
0.0,1.0,0.69738,,,,,,licorice_06s.jpg,0.0,clock_7_2.png,6.0,15,,,,,,,,,,,,,,,,,,0.0,30.0,30.0,30.0,1.0,,,,,,,,,,
0.0,1.0,0.69936,,,,,,checkbook_11s.jpg,0.0,clock_7_3.png,6.0,15,,,,,,,,,,,,,,,,,,0.0,31.0,31.0,31.0,1.0,,,,,,,,,,
0.0,1.0,0.52506,,,,,,reindeer_08s.jpg,0.0,clock_7_4.png,6.0,15,,,,,,,,,,,,,,,,,,0.0,32.0,32.0,32.0,1.0,,,,,,,,,,
0.0,1.0,0.59077,,,,,,doily_13s.jpg,0.0,clock_7_5.png,6.0,15,,,,,,,,,,,,,,,,,,0.0,33.0,33.0,33.0,1.0,,,,,,,,,,
0.0,1.0,0.657575,,,,,,possum_09s.jpg,0.0,clock_7_6.png,6.0,15,,,,,,,,,,,,,,,,,,0.0,34.0,34.0,34.0,1.0,,,,,,,,,,
0.0,1.0,0.697175,,,,,,keyboard_05s.jpg,0.0,clock_7_7.png,6.0,15,,,,,,,,,,,,,,,,,,0.0,35.0,35.0,35.0,1.0,,,,,,,,,,
,,,,,,,,,1.0,,,15,0.0,0.0,0.946635,,,,,,turnstile_08s.jpg,swan_11s.jpg,,,,,,,,,,,,,0.0,0.0,0.0,0.0,1.0,,,,,
,,,,,,,,,1.0,,,15,0.0,0.0,1.48571,,,,,,loveseat_08s.jpg,lip_gloss_06s.jpg,,,,,,,,,,,,,0.0,1.0,1.0,1.0,1.0,,,,,
,,,,,,,,,1.0,,,15,0.0,0.0,1.23087,,,,,,hyena_16s.jpg,blowfish_03s.jpg,,,,,,,,,,,,,0.0,2.0,2.0,2.0,1.0,,,,,
,,,,,,,,,0.0,,,15,1.0,0.0,1.0064,,,,,,lab_coat_11s.jpg,punch2_09s.jpg,,,,,,,,,,,,,0.0,3.0,3.0,3.0,1.0,,,,,
,,,,,,,,,0.0,,,15,0.0,1.0,0.220165,,,,,,ring_03s.jpg,totem_pole_05s.jpg,,,,,,,,,,,,,0.0,4.0,4.0,4.0,1.0,,,,,
,,,,,,,,,0.0,,,15,1.0,0.0,1.29996,,,,,,keyboard_05s.jpg,reindeer_08s.jpg,,,,,,,,,,,,,0.0,5.0,5.0,5.0,1.0,,,,,
