key_resp.keys,key_resp.corr,key_resp.rt,present_segment.thisRepN,present_segment.thisTrialN,present_segment.thisN,present_segment.thisIndex,present_segment.ran,pictures,answer,clock,segment,participant,key_resp_2.keys,key_resp_2.corr,key_resp_2.rt,compare_segment.thisRepN,compare_segment.thisTrialN,compare_segment.thisN,compare_segment.thisIndex,compare_segment.ran,item_a,item_b,clock_conditions.thisRepN,clock_conditions.thisTrialN,clock_conditions.thisN,clock_conditions.thisIndex,clock_conditions.ran,present,compare,noclock_present.thisRepN,noclock_present.thisTrialN,noclock_present.thisN,noclock_present.thisIndex,noclock_present.ran,noclock_compare.thisRepN,noclock_compare.thisTrialN,noclock_compare.thisN,noclock_compare.thisIndex,noclock_compare.ran,noclock_conditions.thisRepN,noclock_conditions.thisTrialN,noclock_conditions.thisN,noclock_conditions.thisIndex,noclock_conditions.ran
0.0,1.0,1.366345,0.0,0.0,0.0,0.0,1.0,spider_web_03s.jpg,0.0,clock_7_1.png,1.0,62,,,,,,,,,,,,,,,,,,,,,,,,,,,,,,,,
0.0,1.0,0.654235,0.0,1.0,1.0,1.0,1.0,blender_08s.jpg,0.0,clock_7_2.png,1.0,62,,,,,,,,,,,,,,,,,,,,,,,,,,,,,,,,
0.0,1.0,0.800015,0.0,2.0,2.0,2.0,1.0,taxi_15s.jpg,0.0,clock_7_3.png,1.0,62,,,,,,,,,,,,,,,,,,,,,,,,,,,,,,,,
0.0,1.0,0.745265,0.0,3.0,3.0,3.0,1.0,toaster_03s.jpg,0.0,clock_7_4.png,1.0,62,,,,,,,,,,,,,,,,,,,,,,,,,,,,,,,,
0.0,1.0,0.67292,0.0,4.0,4.0,4.0,1.0,latch_15s.jpg,0.0,clock_7_5.png,1.0,62,,,,,,,,,,,,,,,,,,,,,,,,,,,,,,,,
1.0,1.0,0.708615,0.0,5.0,5.0,5.0,1.0,latch_15s.jpg,1.0,clock_7_6.png,1.0,62,,,,,,,,,,,,,,,,,,,,,,,,,,,,,,,,
0.0,1.0,0.41264,0.0,6.0,6.0,6.0,1.0,rock_08s.jpg,0.0,clock_7_7.png,1.0,62,,,,,,,,,,,,,,,,,,,,,,,,,,,,,,,,
0.0,1.0,0.94993,0.0,7.0,7.0,7.0,1.0,ticktacktoe_08s.jpg,0.0,clock_6_1.png,2.0,62,,,,,,,,,,,,,,,,,,,,,,,,,,,,,,,,
0.0,0.0,2.44872,0.0,8.0,8.0,8.0,1.0,ticktacktoe_08s.jpg,1.0,clock_6_2.png,2.0,62,,,,,,,,,,,,,,,,,,,,,,,,,,,,,,,,
0.0,1.0,0.582385,0.0,9.0,9.0,9.0,1.0,rhinoceros_02s.jpg,0.0,clock_6_3.png,2.0,62,,,,,,,,,,,,,,,,,,,,,,,,,,,,,,,,
1.0,1.0,0.64141,0.0,10.0,10.0,10.0,1.0,rhinoceros_02s.jpg,1.0,clock_6_4.png,2.0,62,,,,,,,,,,,,,,,,,,,,,,,,,,,,,,,,
0.0,1.0,0.72363,0.0,11.0,11.0,11.0,1.0,timer_03s.jpg,0.0,clock_6_5.png,2.0,62,,,,,,,,,,,,,,,,,,,,,,,,,,,,,,,,
0.0,1.0,0.70092,0.0,12.0,12.0,12.0,1.0,lizard_10n.jpg,0.0,clock_6_6.png,2.0,62,,,,,,,,,,,,,,,,,,,,,,,,,,,,,,,,
0.0,1.0,0.65821,0.0,13.0,13.0,13.0,1.0,thorn_13s.jpg,0.0,clock_7_1.png,3.0,62,,,,,,,,,,,,,,,,,,,,,,,,,,,,,,,,
0.0,1.0,0.748655,0.0,14.0,14.0,14.0,1.0,turtle_08s.jpg,0.0,clock_7_2.png,3.0,62,,,,,,,,,,,,,,,,,,,,,,,,,,,,,,,,
0.0,1.0,0.57746,0.0,15.0,15.0,15.0,1.0,kimono_13s.jpg,0.0,clock_7_3.png,3.0,62,,,,,,,,,,,,,,,,,,,,,,,,,,,,,,,,
0.0,0.0,1.96019,0.0,16.0,16.0,16.0,1.0,thorn_13s.jpg,1.0,clock_7_4.png,3.0,62,,,,,,,,,,,,,,,,,,,,,,,,,,,,,,,,
0.0,1.0,0.482675,0.0,17.0,17.0,17.0,1.0,sleeping_bag_12s.jpg,0.0,clock_7_5.png,3.0,62,,,,,,,,,,,,,,,,,,,,,,,,,,,,,,,,
1.0,1.0,1.512005,0.0,18.0,18.0,18.0,1.0,kimono_13s.jpg,1.0,clock_7_6.png,3.0,62,,,,,,,,,,,,,,,,,,,,,,,,,,,,,,,,
0.0,1.0,0.781775,0.0,19.0,19.0,19.0,1.0,ivy_12s.jpg,0.0,clock_7_7.png,3.0,62,,,,,,,,,,,,,,,,,,,,,,,,,,,,,,,,
0.0,1.0,0.712005,0.0,20.0,20.0,20.0,1.0,orangutan_03s.jpg,0.0,clock_5_1.png,4.0,62,,,,,,,,,,,,,,,,,,,,,,,,,,,,,,,,
0.0,1.0,0.472435,0.0,21.0,21.0,21.0,1.0,eiffeltower.jpg,0.0,clock_5_2.png,4.0,62,,,,,,,,,,,,,,,,,,,,,,,,,,,,,,,,
0.0,1.0,0.501475,0.0,22.0,22.0,22.0,1.0,metronome_03s.jpg,0.0,clock_5_3.png,4.0,62,,,,,,,,,,,,,,,,,,,,,,,,,,,,,,,,
0.0,1.0,0.48281,0.0,23.0,23.0,23.0,1.0,totem_pole_05s.jpg,0.0,clock_5_4.png,4.0,62,,,,,,,,,,,,,,,,,,,,,,,,,,,,,,,,
1.0,1.0,0.732785,0.0,24.0,24.0,24.0,1.0,metronome_03s.jpg,1.0,clock_5_5.png,4.0,62,,,,,,,,,,,,,,,,,,,,,,,,,,,,,,,,
0.0,1.0,1.052065,0.0,25.0,25.0,25.0,1.0,peeler_06s.jpg,0.0,clock_5_1.png,5.0,62,,,,,,,,,,,,,,,,,,,,,,,,,,,,,,,,
0.0,1.0,0.38978,0.0,26.0,26.0,26.0,1.0,quill_09s.jpg,0.0,clock_5_2.png,5.0,62,,,,,,,,,,,,,,,,,,,,,,,,,,,,,,,,
0.0,1.0,0.397,0.0,27.0,27.0,27.0,1.0,toad_09s.jpg,0.0,clock_5_3.png,5.0,62,,,,,,,,,,,,,,,,,,,,,,,,,,,,,,,,
0.0,1.0,0.55612,0.0,28.0,28.0,28.0,1.0,beard_16s.jpg,0.0,clock_5_4.png,5.0,62,,,,,,,,,,,,,,,,,,,,,,,,,,,,,,,,
0.0,1.0,0.446135,0.0,29.0,29.0,29.0,1.0,tube_top_03s.jpg,0.0,clock_5_5.png,5.0,62,,,,,,,,,,,,,,,,,,,,,,,,,,,,,,,,
0.0,1.0,0.25807,0.0,30.0,30.0,30.0,1.0,power_line_08s.jpg,0.0,clock_6_1.png,6.0,62,,,,,,,,,,,,,,,,,,,,,,,,,,,,,,,,
0.0,1.0,0.4608,0.0,31.0,31.0,31.0,1.0,lifesaver_10s.jpg,0.0,clock_6_2.png,6.0,62,,,,,,,,,,,,,,,,,,,,,,,,,,,,,,,,
0.0,1.0,0.564075,0.0,32.0,32.0,32.0,1.0,saddle_06s.jpg,0.0,clock_6_3.png,6.0,62,,,,,,,,,,,,,,,,,,,,,,,,,,,,,,,,
0.0,1.0,0.60702,0.0,33.0,33.0,33.0,1.0,ginger_09s.jpg,0.0,clock_6_4.png,6.0,62,,,,,,,,,,,,,,,,,,,,,,,,,,,,,,,,
0.0,1.0,0.670965,0.0,34.0,34.0,34.0,1.0,orange_12s.jpg,0.0,clock_6_5.png,6.0,62,,,,,,,,,,,,,,,,,,,,,,,,,,,,,,,,
0.0,1.0,0.57654,0.0,35.0,35.0,35.0,1.0,tiara_05s.jpg,0.0,clock_6_6.png,6.0,62,,,,,,,,,,,,,,,,,,,,,,,,,,,,,,,,
,,,,,,,,,0.0,,,62,1.0,0.0,1.97508,0.0,0.0,0.0,0.0,1.0,turtle_08s.jpg,timer_03s.jpg,,,,,,,,,,,,,,,,,,,,,,
,,,,,,,,,0.0,,,62,1.0,0.0,0.83474,0.0,1.0,1.0,1.0,1.0,power_line_08s.jpg,toad_09s.jpg,,,,,,,,,,,,,,,,,,,,,,
,,,,,,,,,1.0,,,62,1.0,1.0,0.922535,0.0,2.0,2.0,2.0,1.0,sleeping_bag_12s.jpg,orangutan_03s.jpg,,,,,,,,,,,,,,,,,,,,,,
,,,,,,,,,1.0,,,62,0.0,0.0,1.08741,0.0,3.0,3.0,3.0,1.0,spider_web_03s.jpg,toaster_03s.jpg,,,,,,,,,,,,,,,,,,,,,,
,,,,,,,,,0.0,,,62,0.0,1.0,1.46316,0.0,4.0,4.0,4.0,1.0,beard_16s.jpg,peeler_06s.jpg,,,,,,,,,,,,,,,,,,,,,,
,,,,,,,,,1.0,,,62,1.0,1.0,1.070085,0.0,5.0,5.0,5.0,1.0,lifesaver_10s.jpg,orange_12s.jpg,,,,,,,,,,,,,,,,,,,,,,
,,,,,,,,,,,,62,,,,,,,,,,,0.0,0.0,0.0,0.0,1.0,clock_present_1_10.xlsx,clock_compare_task_1_10.xlsx,,,,,,,,,,,,,,,
0.0,1.0,1.04472,0.0,0.0,0.0,0.0,1.0,giraffe_11s.jpg,0.0,clock_6_1.png,1.0,62,,,,,,,,,,,,,,,,,,,,,,,,,,,,,,,,
0.0,1.0,0.6954,0.0,1.0,1.0,1.0,1.0,fishhook_06s.jpg,0.0,clock_6_2.png,1.0,62,,,,,,,,,,,,,,,,,,,,,,,,,,,,,,,,
0.0,1.0,0.446985,0.0,2.0,2.0,2.0,1.0,tiger_06s.jpg,0.0,clock_6_3.png,1.0,62,,,,,,,,,,,,,,,,,,,,,,,,,,,,,,,,
0.0,1.0,1.542025,0.0,3.0,3.0,3.0,1.0,fossil_06s.jpg,0.0,clock_6_4.png,1.0,62,,,,,,,,,,,,,,,,,,,,,,,,,,,,,,,,
0.0,1.0,1.211855,0.0,4.0,4.0,4.0,1.0,scooter.jpg,0.0,clock_6_5.png,1.0,62,,,,,,,,,,,,,,,,,,,,,,,,,,,,,,,,
1.0,1.0,1.29472,0.0,5.0,5.0,5.0,1.0,tiger_06s.jpg,1.0,clock_6_6.png,1.0,62,,,,,,,,,,,,,,,,,,,,,,,,,,,,,,,,
0.0,1.0,0.55705,0.0,6.0,6.0,6.0,1.0,mannequin_05s.jpg,0.0,clock_5_1.png,2.0,62,,,,,,,,,,,,,,,,,,,,,,,,,,,,,,,,
0.0,1.0,0.60842,0.0,7.0,7.0,7.0,1.0,air_pump_05s.jpg,0.0,clock_5_2.png,2.0,62,,,,,,,,,,,,,,,,,,,,,,,,,,,,,,,,
0.0,1.0,0.50101,0.0,8.0,8.0,8.0,1.0,cushion_08s.jpg,0.0,clock_5_3.png,2.0,62,,,,,,,,,,,,,,,,,,,,,,,,,,,,,,,,
1.0,0.0,0.88106,0.0,9.0,9.0,9.0,1.0,crossbow_10s.jpg,0.0,clock_5_4.png,2.0,62,,,,,,,,,,,,,,,,,,,,,,,,,,,,,,,,
1.0,1.0,0.994515,0.0,10.0,10.0,10.0,1.0,cushion_08s.jpg,1.0,clock_5_5.png,2.0,62,,,,,,,,,,,,,,,,,,,,,,,,,,,,,,,,
0.0,1.0,0.346265,0.0,11.0,11.0,11.0,1.0,thread_08s.jpg,0.0,clock_5_1.png,3.0,62,,,,,,,,,,,,,,,,,,,,,,,,,,,,,,,,
1.0,1.0,0.5371,0.0,12.0,12.0,12.0,1.0,thread_08s.jpg,1.0,clock_5_2.png,3.0,62,,,,,,,,,,,,,,,,,,,,,,,,,,,,,,,,
0.0,1.0,0.325265,0.0,13.0,13.0,13.0,1.0,tiger_06s.jpg,0.0,clock_5_3.png,3.0,62,,,,,,,,,,,,,,,,,,,,,,,,,,,,,,,,
1.0,1.0,0.66249,0.0,14.0,14.0,14.0,1.0,thread_08s.jpg,1.0,clock_5_4.png,3.0,62,,,,,,,,,,,,,,,,,,,,,,,,,,,,,,,,
0.0,1.0,0.42529,0.0,15.0,15.0,15.0,1.0,tab_09s.jpg,0.0,clock_5_5.png,3.0,62,,,,,,,,,,,,,,,,,,,,,,,,,,,,,,,,
0.0,1.0,0.24221,0.0,16.0,16.0,16.0,1.0,ladle_04s.jpg,0.0,clock_7_1.png,4.0,62,,,,,,,,,,,,,,,,,,,,,,,,,,,,,,,,
0.0,1.0,0.65361,0.0,17.0,17.0,17.0,1.0,ice-cream_cone_06s.jpg,0.0,clock_7_2.png,4.0,62,,,,,,,,,,,,,,,,,,,,,,,,,,,,,,,,
0.0,1.0,0.515525,0.0,18.0,18.0,18.0,1.0,thermostat_02s.jpg,0.0,clock_7_3.png,4.0,62,,,,,,,,,,,,,,,,,,,,,,,,,,,,,,,,
1.0,1.0,0.57701,0.0,19.0,19.0,19.0,1.0,thermostat_02s.jpg,1.0,clock_7_4.png,4.0,62,,,,,,,,,,,,,,,,,,,,,,,,,,,,,,,,
0.0,1.0,0.64846,0.0,20.0,20.0,20.0,1.0,rolling_pin_02s.jpg,0.0,clock_7_5.png,4.0,62,,,,,,,,,,,,,,,,,,,,,,,,,,,,,,,,
0.0,1.0,0.876175,0.0,21.0,21.0,21.0,1.0,lipstick_02s.jpg,0.0,clock_7_6.png,4.0,62,,,,,,,,,,,,,,,,,,,,,,,,,,,,,,,,
0.0,1.0,0.546695,0.0,22.0,22.0,22.0,1.0,incense_02s.jpg,0.0,clock_7_7.png,4.0,62,,,,,,,,,,,,,,,,,,,,,,,,,,,,,,,,
0.0,1.0,0.513295,0.0,23.0,23.0,23.0,1.0,rudder_02s.jpg,0.0,clock_6_1.png,5.0,62,,,,,,,,,,,,,,,,,,,,,,,,,,,,,,,,
0.0,1.0,0.37638,0.0,24.0,24.0,24.0,1.0,radio_09s.jpg,0.0,clock_6_2.png,5.0,62,,,,,,,,,,,,,,,,,,,,,,,,,,,,,,,,
0.0,1.0,0.45582,0.0,25.0,25.0,25.0,1.0,rooster_03s.jpg,0.0,clock_6_3.png,5.0,62,,,,,,,,,,,,,,,,,,,,,,,,,,,,,,,,
0.0,1.0,0.62405,0.0,26.0,26.0,26.0,1.0,surfboard_11s.jpg,0.0,clock_6_4.png,5.0,62,,,,,,,,,,,,,,,,,,,,,,,,,,,,,,,,
0.0,1.0,0.495975,0.0,27.0,27.0,27.0,1.0,perfume_06s.jpg,0.0,clock_6_5.png,5.0,62,,,,,,,,,,,,,,,,,,,,,,,,,,,,,,,,
0.0,1.0,0.52262,0.0,28.0,28.0,28.0,1.0,tortilla_06s.jpg,0.0,clock_6_6.png,5.0,62,,,,,,,,,,,,,,,,,,,,,,,,,,,,,,,,
0.0,1.0,0.343065,0.0,29.0,29.0,29.0,1.0,gingerbread_man_03s.jpg,0.0,clock_7_1.png,6.0,62,,,,,,,,,,,,,,,,,,,,,,,,,,,,,,,,
0.0,1.0,0.41278,0.0,30.0,30.0,30.0,1.0,tambourine_06s.jpg,0.0,clock_7_2.png,6.0,62,,,,,,,,,,,,,,,,,,,,,,,,,,,,,,,,
0.0,1.0,0.883995,0.0,31.0,31.0,31.0,1.0,pomegranate_04s.jpg,0.0,clock_7_3.png,6.0,62,,,,,,,,,,,,,,,,,,,,,,,,,,,,,,,,
0.0,1.0,0.460715,0.0,32.0,32.0,32.0,1.0,birdcage_08s.jpg,0.0,clock_7_4.png,6.0,62,,,,,,,,,,,,,,,,,,,,,,,,,,,,,,,,
0.0,1.0,0.45837,0.0,33.0,33.0,33.0,1.0,cushion_08s.jpg,0.0,clock_7_5.png,6.0,62,,,,,,,,,,,,,,,,,,,,,,,,,,,,,,,,
0.0,1.0,0.896535,0.0,34.0,34.0,34.0,1.0,puppet_01b.jpg,0.0,clock_7_6.png,6.0,62,,,,,,,,,,,,,,,,,,,,,,,,,,,,,,,,
0.0,1.0,0.49451,0.0,35.0,35.0,35.0,1.0,briefcase_03s.jpg,0.0,clock_7_7.png,6.0,62,,,,,,,,,,,,,,,,,,,,,,,,,,,,,,,,
,,,,,,,,,1.0,,,62,1.0,1.0,1.08645,0.0,0.0,0.0,0.0,1.0,scooter.jpg,air_pump_05s.jpg,,,,,,,,,,,,,,,,,,,,,,
,,,,,,,,,1.0,,,62,0.0,0.0,0.946625,0.0,1.0,1.0,1.0,1.0,lipstick_02s.jpg,radio_09s.jpg,,,,,,,,,,,,,,,,,,,,,,
,,,,,,,,,1.0,,,62,0.0,0.0,0.9521,0.0,2.0,2.0,2.0,1.0,incense_02s.jpg,rooster_03s.jpg,,,,,,,,,,,,,,,,,,,,,,
,,,,,,,,,1.0,,,62,1.0,1.0,1.046605,0.0,3.0,3.0,3.0,1.0,birdcage_08s.jpg,briefcase_03s.jpg,,,,,,,,,,,,,,,,,,,,,,
,,,,,,,,,0.0,,,62,1.0,0.0,0.889775,0.0,4.0,4.0,4.0,1.0,fossil_06s.jpg,giraffe_11s.jpg,,,,,,,,,,,,,,,,,,,,,,
,,,,,,,,,1.0,,,62,1.0,1.0,1.012365,0.0,5.0,5.0,5.0,1.0,mannequin_05s.jpg,crossbow_10s.jpg,,,,,,,,,,,,,,,,,,,,,,
,,,,,,,,,,,,62,,,,,,,,,,,0.0,1.0,1.0,1.0,1.0,clock_present_2_10.xlsx,clock_compare_task_2_10.xlsx,,,,,,,,,,,,,,,
0.0,1.0,1.28293,0.0,0.0,0.0,0.0,1.0,dynamite_01b.jpg,0.0,clock_6_1.png,1.0,62,,,,,,,,,,,,,,,,,,,,,,,,,,,,,,,,
1.0,1.0,0.603105,0.0,1.0,1.0,1.0,1.0,dynamite_01b.jpg,1.0,clock_6_2.png,1.0,62,,,,,,,,,,,,,,,,,,,,,,,,,,,,,,,,
1.0,1.0,0.798485,0.0,2.0,2.0,2.0,1.0,dynamite_01b.jpg,1.0,clock_6_3.png,1.0,62,,,,,,,,,,,,,,,,,,,,,,,,,,,,,,,,
1.0,1.0,0.56742,0.0,3.0,3.0,3.0,1.0,dynamite_01b.jpg,1.0,clock_6_4.png,1.0,62,,,,,,,,,,,,,,,,,,,,,,,,,,,,,,,,
0.0,1.0,0.638315,0.0,4.0,4.0,4.0,1.0,lava_02s.jpg,0.0,clock_6_5.png,1.0,62,,,,,,,,,,,,,,,,,,,,,,,,,,,,,,,,
1.0,1.0,0.512155,0.0,5.0,5.0,5.0,1.0,dynamite_01b.jpg,1.0,clock_6_6.png,1.0,62,,,,,,,,,,,,,,,,,,,,,,,,,,,,,,,,
0.0,1.0,0.89275,0.0,6.0,6.0,6.0,1.0,glue_01s.jpg,0.0,clock_7_1.png,2.0,62,,,,,,,,,,,,,,,,,,,,,,,,,,,,,,,,
0.0,1.0,0.49127,0.0,7.0,7.0,7.0,1.0,umbrella_15s.jpg,0.0,clock_7_2.png,2.0,62,,,,,,,,,,,,,,,,,,,,,,,,,,,,,,,,
0.0,1.0,0.609245,0.0,8.0,8.0,8.0,1.0,puppy_08s.jpg,0.0,clock_7_3.png,2.0,62,,,,,,,,,,,,,,,,,,,,,,,,,,,,,,,,
0.0,1.0,0.47964,0.0,9.0,9.0,9.0,1.0,lab_coat_11s.jpg,0.0,clock_7_4.png,2.0,62,,,,,,,,,,,,,,,,,,,,,,,,,,,,,,,,
0.0,1.0,0.4442,0.0,10.0,10.0,10.0,1.0,parachute_03s.jpg,0.0,clock_7_5.png,2.0,62,,,,,,,,,,,,,,,,,,,,,,,,,,,,,,,,
1.0,1.0,0.75973,0.0,11.0,11.0,11.0,1.0,parachute_03s.jpg,1.0,clock_7_6.png,2.0,62,,,,,,,,,,,,,,,,,,,,,,,,,,,,,,,,
0.0,1.0,0.460865,0.0,12.0,12.0,12.0,1.0,keyhole_03s.jpg,0.0,clock_7_7.png,2.0,62,,,,,,,,,,,,,,,,,,,,,,,,,,,,,,,,
0.0,1.0,0.459455,0.0,13.0,13.0,13.0,1.0,marshmallow_08s.jpg,0.0,clock_5_1.png,3.0,62,,,,,,,,,,,,,,,,,,,,,,,,,,,,,,,,
0.0,1.0,0.50946,0.0,14.0,14.0,14.0,1.0,undershirt_02s.jpg,0.0,clock_5_2.png,3.0,62,,,,,,,,,,,,,,,,,,,,,,,,,,,,,,,,
0.0,1.0,0.53471,0.0,15.0,15.0,15.0,1.0,sushi_08s.jpg,0.0,clock_5_3.png,3.0,62,,,,,,,,,,,,,,,,,,,,,,,,,,,,,,,,
0.0,1.0,0.479745,0.0,16.0,16.0,16.0,1.0,piggy_bank_02s.jpg,0.0,clock_5_4.png,3.0,62,,,,,,,,,,,,,,,,,,,,,,,,,,,,,,,,
1.0,1.0,0.519815,0.0,17.0,17.0,17.0,1.0,marshmallow_08s.jpg,1.0,clock_5_5.png,3.0,62,,,,,,,,,,,,,,,,,,,,,,,,,,,,,,,,
0.0,1.0,0.76175,0.0,18.0,18.0,18.0,1.0,syringe_02s.jpg,0.0,clock_7_1.png,4.0,62,,,,,,,,,,,,,,,,,,,,,,,,,,,,,,,,
0.0,1.0,0.517395,0.0,19.0,19.0,19.0,1.0,purse_05s.jpg,0.0,clock_7_2.png,4.0,62,,,,,,,,,,,,,,,,,,,,,,,,,,,,,,,,
0.0,1.0,0.788545,0.0,20.0,20.0,20.0,1.0,tongs_08s.jpg,0.0,clock_7_3.png,4.0,62,,,,,,,,,,,,,,,,,,,,,,,,,,,,,,,,
0.0,1.0,0.525005,0.0,21.0,21.0,21.0,1.0,pocketknife_12s.jpg,0.0,clock_7_4.png,4.0,62,,,,,,,,,,,,,,,,,,,,,,,,,,,,,,,,
0.0,1.0,0.536945,0.0,22.0,22.0,22.0,1.0,rope_16s.jpg,0.0,clock_7_5.png,4.0,62,,,,,,,,,,,,,,,,,,,,,,,,,,,,,,,,
0.0,1.0,0.407005,0.0,23.0,23.0,23.0,1.0,duck_01b.jpg,0.0,clock_7_6.png,4.0,62,,,,,,,,,,,,,,,,,,,,,,,,,,,,,,,,
0.0,1.0,0.597725,0.0,24.0,24.0,24.0,1.0,machete_06s.jpg,0.0,clock_7_7.png,4.0,62,,,,,,,,,,,,,,,,,,,,,,,,,,,,,,,,
0.0,1.0,1.022075,0.0,25.0,25.0,25.0,1.0,eggshell_14s.jpg,0.0,clock_5_1.png,5.0,62,,,,,,,,,,,,,,,,,,,,,,,,,,,,,,,,
0.0,1.0,0.501325,0.0,26.0,26.0,26.0,1.0,roulette_wheel_04s.jpg,0.0,clock_5_2.png,5.0,62,,,,,,,,,,,,,,,,,,,,,,,,,,,,,,,,
0.0,1.0,0.46339,0.0,27.0,27.0,27.0,1.0,tattoo_14s.jpg,0.0,clock_5_3.png,5.0,62,,,,,,,,,,,,,,,,,,,,,,,,,,,,,,,,
1.0,1.0,0.76148,0.0,28.0,28.0,28.0,1.0,roulette_wheel_04s.jpg,1.0,clock_5_4.png,5.0,62,,,,,,,,,,,,,,,,,,,,,,,,,,,,,,,,
1.0,1.0,0.735555,0.0,29.0,29.0,29.0,1.0,tattoo_14s.jpg,1.0,clock_5_5.png,5.0,62,,,,,,,,,,,,,,,,,,,,,,,,,,,,,,,,
0.0,1.0,0.85858,0.0,30.0,30.0,30.0,1.0,kite_04s.jpg,0.0,clock_6_1.png,6.0,62,,,,,,,,,,,,,,,,,,,,,,,,,,,,,,,,
0.0,1.0,0.4929,0.0,31.0,31.0,31.0,1.0,dirt_bike_11s.jpg,0.0,clock_6_2.png,6.0,62,,,,,,,,,,,,,,,,,,,,,,,,,,,,,,,,
1.0,1.0,0.54621,0.0,32.0,32.0,32.0,1.0,kite_04s.jpg,1.0,clock_6_3.png,6.0,62,,,,,,,,,,,,,,,,,,,,,,,,,,,,,,,,
0.0,1.0,0.90169,0.0,33.0,33.0,33.0,1.0,tongs_08s.jpg,0.0,clock_6_4.png,6.0,62,,,,,,,,,,,,,,,,,,,,,,,,,,,,,,,,
0.0,1.0,0.64237,0.0,34.0,34.0,34.0,1.0,go-kart_10s.jpg,0.0,clock_6_5.png,6.0,62,,,,,,,,,,,,,,,,,,,,,,,,,,,,,,,,
0.0,1.0,0.743725,0.0,35.0,35.0,35.0,1.0,red_carpet_03s.jpg,0.0,clock_6_6.png,6.0,62,,,,,,,,,,,,,,,,,,,,,,,,,,,,,,,,
,,,,,,,,,0.0,,,62,0.0,1.0,1.02009,0.0,0.0,0.0,0.0,1.0,umbrella_15s.jpg,lava_02s.jpg,,,,,,,,,,,,,,,,,,,,,,
,,,,,,,,,0.0,,,62,1.0,0.0,1.286915,0.0,1.0,1.0,1.0,1.0,sushi_08s.jpg,keyhole_03s.jpg,,,,,,,,,,,,,,,,,,,,,,
,,,,,,,,,1.0,,,62,1.0,1.0,1.429295,0.0,2.0,2.0,2.0,1.0,piggy_bank_02s.jpg,purse_05s.jpg,,,,,,,,,,,,,,,,,,,,,,
,,,,,,,,,1.0,,,62,1.0,1.0,1.247675,0.0,3.0,3.0,3.0,1.0,glue_01s.jpg,lab_coat_11s.jpg,,,,,,,,,,,,,,,,,,,,,,
,,,,,,,,,1.0,,,62,1.0,1.0,0.88495,0.0,4.0,4.0,4.0,1.0,pocketknife_12s.jpg,machete_06s.jpg,,,,,,,,,,,,,,,,,,,,,,
,,,,,,,,,0.0,,,62,0.0,1.0,1.32965,0.0,5.0,5.0,5.0,1.0,go-kart_10s.jpg,dirt_bike_11s.jpg,,,,,,,,,,,,,,,,,,,,,,
,,,,,,,,,,,,62,,,,,,,,,,,0.0,2.0,2.0,2.0,1.0,clock_present_3_10.xlsx,clock_compare_task_3_10.xlsx,,,,,,,,,,,,,,,
0.0,1.0,0.628125,0.0,0.0,0.0,0.0,1.0,knitting_needle_04s.jpg,0.0,clock_5_1.png,1.0,62,,,,,,,,,,,,,,,,,,,,,,,,,,,,,,,,
1.0,1.0,1.44892,0.0,1.0,1.0,1.0,1.0,knitting_needle_04s.jpg,1.0,clock_5_2.png,1.0,62,,,,,,,,,,,,,,,,,,,,,,,,,,,,,,,,
1.0,1.0,0.502545,0.0,2.0,2.0,2.0,1.0,knitting_needle_04s.jpg,1.0,clock_5_3.png,1.0,62,,,,,,,,,,,,,,,,,,,,,,,,,,,,,,,,
0.0,1.0,0.442915,0.0,3.0,3.0,3.0,1.0,towel_rack_04s.jpg,0.0,clock_5_4.png,1.0,62,,,,,,,,,,,,,,,,,,,,,,,,,,,,,,,,
0.0,1.0,0.795165,0.0,4.0,4.0,4.0,1.0,stump_02s.jpg,0.0,clock_5_5.png,1.0,62,,,,,,,,,,,,,,,,,,,,,,,,,,,,,,,,
0.0,1.0,0.76978,0.0,5.0,5.0,5.0,1.0,pan_02s.jpg,0.0,clock_7_1.png,2.0,62,,,,,,,,,,,,,,,,,,,,,,,,,,,,,,,,
0.0,1.0,0.830825,0.0,6.0,6.0,6.0,1.0,knitting_needle_04s.jpg,0.0,clock_7_2.png,2.0,62,,,,,,,,,,,,,,,,,,,,,,,,,,,,,,,,
0.0,1.0,0.577205,0.0,7.0,7.0,7.0,1.0,lectern_08s.jpg,0.0,clock_7_3.png,2.0,62,,,,,,,,,,,,,,,,,,,,,,,,,,,,,,,,
0.0,1.0,0.489845,0.0,8.0,8.0,8.0,1.0,knot_01b.jpg,0.0,clock_7_4.png,2.0,62,,,,,,,,,,,,,,,,,,,,,,,,,,,,,,,,
0.0,1.0,1.86002,0.0,9.0,9.0,9.0,1.0,towel_rack_04s.jpg,0.0,clock_7_5.png,2.0,62,,,,,,,,,,,,,,,,,,,,,,,,,,,,,,,,
0.0,1.0,0.56715,0.0,10.0,10.0,10.0,1.0,rollerskate_03s.jpg,0.0,clock_7_6.png,2.0,62,,,,,,,,,,,,,,,,,,,,,,,,,,,,,,,,
0.0,1.0,0.603005,0.0,11.0,11.0,11.0,1.0,amber_04s.jpg,0.0,clock_7_7.png,2.0,62,,,,,,,,,,,,,,,,,,,,,,,,,,,,,,,,
0.0,1.0,2.166265,0.0,12.0,12.0,12.0,1.0,razor_blade_01b.jpg,0.0,clock_5_1.png,3.0,62,,,,,,,,,,,,,,,,,,,,,,,,,,,,,,,,
0.0,1.0,0.58533,0.0,13.0,13.0,13.0,1.0,sea_urchin_09s.jpg,0.0,clock_5_2.png,3.0,62,,,,,,,,,,,,,,,,,,,,,,,,,,,,,,,,
0.0,1.0,0.71676,0.0,14.0,14.0,14.0,1.0,toilet_07s.jpg,0.0,clock_5_3.png,3.0,62,,,,,,,,,,,,,,,,,,,,,,,,,,,,,,,,
0.0,1.0,0.473345,0.0,15.0,15.0,15.0,1.0,police_car_01s.jpg,0.0,clock_5_4.png,3.0,62,,,,,,,,,,,,,,,,,,,,,,,,,,,,,,,,
1.0,1.0,1.015765,0.0,16.0,16.0,16.0,1.0,police_car_01s.jpg,1.0,clock_5_5.png,3.0,62,,,,,,,,,,,,,,,,,,,,,,,,,,,,,,,,
0.0,1.0,2.44442,0.0,17.0,17.0,17.0,1.0,feather02.jpg,0.0,clock_6_1.png,4.0,62,,,,,,,,,,,,,,,,,,,,,,,,,,,,,,,,
0.0,1.0,0.40968,0.0,18.0,18.0,18.0,1.0,mushroom_10n.jpg,0.0,clock_6_2.png,4.0,62,,,,,,,,,,,,,,,,,,,,,,,,,,,,,,,,
0.0,1.0,0.672405,0.0,19.0,19.0,19.0,1.0,abacus_12s.jpg,0.0,clock_6_3.png,4.0,62,,,,,,,,,,,,,,,,,,,,,,,,,,,,,,,,
0.0,1.0,0.61251,0.0,20.0,20.0,20.0,1.0,hyena_16s.jpg,0.0,clock_6_4.png,4.0,62,,,,,,,,,,,,,,,,,,,,,,,,,,,,,,,,
0.0,1.0,0.40682,0.0,21.0,21.0,21.0,1.0,owl_15s.jpg,0.0,clock_6_5.png,4.0,62,,,,,,,,,,,,,,,,,,,,,,,,,,,,,,,,
1.0,1.0,1.27715,0.0,22.0,22.0,22.0,1.0,abacus_12s.jpg,1.0,clock_6_6.png,4.0,62,,,,,,,,,,,,,,,,,,,,,,,,,,,,,,,,
0.0,1.0,1.972085,0.0,23.0,23.0,23.0,1.0,ostrich_06s.jpg,0.0,clock_7_1.png,5.0,62,,,,,,,,,,,,,,,,,,,,,,,,,,,,,,,,
0.0,1.0,0.910205,0.0,24.0,24.0,24.0,1.0,candy_cane_06s.jpg,0.0,clock_7_2.png,5.0,62,,,,,,,,,,,,,,,,,,,,,,,,,,,,,,,,
1.0,1.0,1.0449,0.0,25.0,25.0,25.0,1.0,candy_cane_06s.jpg,1.0,clock_7_3.png,5.0,62,,,,,,,,,,,,,,,,,,,,,,,,,,,,,,,,
0.0,1.0,0.581585,0.0,26.0,26.0,26.0,1.0,sunflower_17s.jpg,0.0,clock_7_4.png,5.0,62,,,,,,,,,,,,,,,,,,,,,,,,,,,,,,,,
0.0,1.0,0.349345,0.0,27.0,27.0,27.0,1.0,paper_bag_12s.jpg,0.0,clock_7_5.png,5.0,62,,,,,,,,,,,,,,,,,,,,,,,,,,,,,,,,
0.0,1.0,0.54395,0.0,28.0,28.0,28.0,1.0,submarine_11n.jpg,0.0,clock_7_6.png,5.0,62,,,,,,,,,,,,,,,,,,,,,,,,,,,,,,,,
0.0,1.0,0.689925,0.0,29.0,29.0,29.0,1.0,pretzel_09s.jpg,0.0,clock_7_7.png,5.0,62,,,,,,,,,,,,,,,,,,,,,,,,,,,,,,,,
0.0,1.0,0.55708,0.0,30.0,30.0,30.0,1.0,potpourri_03s.jpg,0.0,clock_6_1.png,6.0,62,,,,,,,,,,,,,,,,,,,,,,,,,,,,,,,,
0.0,1.0,0.55896,0.0,31.0,31.0,31.0,1.0,clover_04s.jpg,0.0,clock_6_2.png,6.0,62,,,,,,,,,,,,,,,,,,,,,,,,,,,,,,,,
0.0,1.0,0.491785,0.0,32.0,32.0,32.0,1.0,sledgehammer_03s.jpg,0.0,clock_6_3.png,6.0,62,,,,,,,,,,,,,,,,,,,,,,,,,,,,,,,,
0.0,1.0,0.516,0.0,33.0,33.0,33.0,1.0,aluminum_foil_08s.jpg,0.0,clock_6_4.png,6.0,62,,,,,,,,,,,,,,,,,,,,,,,,,,,,,,,,
0.0,1.0,0.664755,0.0,34.0,34.0,34.0,1.0,owl_15s.jpg,0.0,clock_6_5.png,6.0,62,,,,,,,,,,,,,,,,,,,,,,,,,,,,,,,,
0.0,1.0,0.418945,0.0,35.0,35.0,35.0,1.0,lamb_chop_07s.jpg,0.0,clock_6_6.png,6.0,62,,,,,,,,,,,,,,,,,,,,,,,,,,,,,,,,
,,,,,,,,,0.0,,,62,0.0,1.0,1.029765,0.0,0.0,0.0,0.0,1.0,clover_04s.jpg,submarine_11n.jpg,,,,,,,,,,,,,,,,,,,,,,
,,,,,,,,,1.0,,,62,1.0,1.0,0.73431,0.0,1.0,1.0,1.0,1.0,stump_02s.jpg,lectern_08s.jpg,,,,,,,,,,,,,,,,,,,,,,
,,,,,,,,,0.0,,,62,0.0,1.0,0.98949,0.0,2.0,2.0,2.0,1.0,sea_urchin_09s.jpg,rollerskate_03s.jpg,,,,,,,,,,,,,,,,,,,,,,
,,,,,,,,,1.0,,,62,0.0,0.0,1.033045,0.0,3.0,3.0,3.0,1.0,pan_02s.jpg,knot_01b.jpg,,,,,,,,,,,,,,,,,,,,,,
,,,,,,,,,1.0,,,62,0.0,0.0,0.72744,0.0,4.0,4.0,4.0,1.0,ostrich_06s.jpg,sunflower_17s.jpg,,,,,,,,,,,,,,,,,,,,,,
,,,,,,,,,0.0,,,62,0.0,1.0,1.16151,0.0,5.0,5.0,5.0,1.0,aluminum_foil_08s.jpg,potpourri_03s.jpg,,,,,,,,,,,,,,,,,,,,,,
,,,,,,,,,,,,62,,,,,,,,,,,0.0,3.0,3.0,3.0,1.0,clock_present_4_10.xlsx,clock_compare_task_4_10.xlsx,,,,,,,,,,,,,,,
0.0,1.0,0.66574,0.0,0.0,0.0,0.0,1.0,bathtub_23s.jpg,0.0,clock_7_1.png,1.0,62,,,,,,,,,,,,,,,,,,,,,,,,,,,,,,,,
1.0,1.0,2.2271,0.0,1.0,1.0,1.0,1.0,bathtub_23s.jpg,1.0,clock_7_2.png,1.0,62,,,,,,,,,,,,,,,,,,,,,,,,,,,,,,,,
1.0,1.0,1.008665,0.0,2.0,2.0,2.0,1.0,bathtub_23s.jpg,1.0,clock_7_3.png,1.0,62,,,,,,,,,,,,,,,,,,,,,,,,,,,,,,,,
1.0,1.0,0.417055,0.0,3.0,3.0,3.0,1.0,bathtub_23s.jpg,1.0,clock_7_4.png,1.0,62,,,,,,,,,,,,,,,,,,,,,,,,,,,,,,,,
1.0,1.0,0.97703,0.0,4.0,4.0,4.0,1.0,bathtub_23s.jpg,1.0,clock_7_5.png,1.0,62,,,,,,,,,,,,,,,,,,,,,,,,,,,,,,,,
1.0,1.0,0.475905,0.0,5.0,5.0,5.0,1.0,bathtub_23s.jpg,1.0,clock_7_6.png,1.0,62,,,,,,,,,,,,,,,,,,,,,,,,,,,,,,,,
1.0,1.0,0.616085,0.0,6.0,6.0,6.0,1.0,bathtub_23s.jpg,1.0,clock_7_7.png,1.0,62,,,,,,,,,,,,,,,,,,,,,,,,,,,,,,,,
0.0,1.0,0.50913,0.0,7.0,7.0,7.0,1.0,breadstick_08s.jpg,0.0,clock_7_1.png,2.0,62,,,,,,,,,,,,,,,,,,,,,,,,,,,,,,,,
0.0,1.0,0.74364,0.0,8.0,8.0,8.0,1.0,petri_dish_12s.jpg,0.0,clock_7_2.png,2.0,62,,,,,,,,,,,,,,,,,,,,,,,,,,,,,,,,
1.0,1.0,0.71128,0.0,9.0,9.0,9.0,1.0,petri_dish_12s.jpg,1.0,clock_7_3.png,2.0,62,,,,,,,,,,,,,,,,,,,,,,,,,,,,,,,,
0.0,1.0,0.596485,0.0,10.0,10.0,10.0,1.0,penlight_12s.jpg,0.0,clock_7_4.png,2.0,62,,,,,,,,,,,,,,,,,,,,,,,,,,,,,,,,
1.0,1.0,0.418465,0.0,11.0,11.0,11.0,1.0,breadstick_08s.jpg,1.0,clock_7_5.png,2.0,62,,,,,,,,,,,,,,,,,,,,,,,,,,,,,,,,
0.0,1.0,0.45718,0.0,12.0,12.0,12.0,1.0,blowfish_03s.jpg,0.0,clock_7_6.png,2.0,62,,,,,,,,,,,,,,,,,,,,,,,,,,,,,,,,
0.0,1.0,0.5989,0.0,13.0,13.0,13.0,1.0,mosquito_12s.jpg,0.0,clock_7_7.png,2.0,62,,,,,,,,,,,,,,,,,,,,,,,,,,,,,,,,
0.0,1.0,2.41926,0.0,14.0,14.0,14.0,1.0,tuxedo_01b.jpg,0.0,clock_6_1.png,3.0,62,,,,,,,,,,,,,,,,,,,,,,,,,,,,,,,,
0.0,1.0,0.32837,0.0,15.0,15.0,15.0,1.0,petri_dish_12s.jpg,0.0,clock_6_2.png,3.0,62,,,,,,,,,,,,,,,,,,,,,,,,,,,,,,,,
0.0,1.0,0.54147,0.0,16.0,16.0,16.0,1.0,raspberry_12s.jpg,0.0,clock_6_3.png,3.0,62,,,,,,,,,,,,,,,,,,,,,,,,,,,,,,,,
0.0,1.0,0.577515,0.0,17.0,17.0,17.0,1.0,pump_11s.jpg,0.0,clock_6_4.png,3.0,62,,,,,,,,,,,,,,,,,,,,,,,,,,,,,,,,
0.0,1.0,0.58965,0.0,18.0,18.0,18.0,1.0,omelet_07s.jpg,0.0,clock_6_5.png,3.0,62,,,,,,,,,,,,,,,,,,,,,,,,,,,,,,,,
0.0,1.0,0.44466,0.0,19.0,19.0,19.0,1.0,lasagna_06s.jpg,0.0,clock_6_6.png,3.0,62,,,,,,,,,,,,,,,,,,,,,,,,,,,,,,,,
0.0,1.0,2.437125,0.0,20.0,20.0,20.0,1.0,lip_gloss_06s.jpg,0.0,clock_5_1.png,4.0,62,,,,,,,,,,,,,,,,,,,,,,,,,,,,,,,,
0.0,1.0,0.5755,0.0,21.0,21.0,21.0,1.0,jigsaw_puzzle_11s.jpg,0.0,clock_5_2.png,4.0,62,,,,,,,,,,,,,,,,,,,,,,,,,,,,,,,,
0.0,1.0,0.568115,0.0,22.0,22.0,22.0,1.0,flask_04s.jpg,0.0,clock_5_3.png,4.0,62,,,,,,,,,,,,,,,,,,,,,,,,,,,,,,,,
0.0,1.0,0.495825,0.0,23.0,23.0,23.0,1.0,bathtub_23s.jpg,0.0,clock_5_4.png,4.0,62,,,,,,,,,,,,,,,,,,,,,,,,,,,,,,,,
0.0,1.0,0.707625,0.0,24.0,24.0,24.0,1.0,antenna_01b.jpg,0.0,clock_5_5.png,4.0,62,,,,,,,,,,,,,,,,,,,,,,,,,,,,,,,,
0.0,1.0,0.720965,0.0,25.0,25.0,25.0,1.0,chip_04s.jpg,0.0,clock_5_1.png,5.0,62,,,,,,,,,,,,,,,,,,,,,,,,,,,,,,,,
0.0,1.0,0.972905,0.0,26.0,26.0,26.0,1.0,kangaroo_02s.jpg,0.0,clock_5_2.png,5.0,62,,,,,,,,,,,,,,,,,,,,,,,,,,,,,,,,
1.0,1.0,0.96098,0.0,27.0,27.0,27.0,1.0,kangaroo_02s.jpg,1.0,clock_5_3.png,5.0,62,,,,,,,,,,,,,,,,,,,,,,,,,,,,,,,,
,0.0,,0.0,28.0,28.0,28.0,1.0,tennis_ball_06s.jpg,0.0,clock_5_4.png,5.0,62,,,,,,,,,,,,,,,,,,,,,,,,,,,,,,,,
0.0,0.0,1.24376,0.0,29.0,29.0,29.0,1.0,tennis_ball_06s.jpg,1.0,clock_5_5.png,5.0,62,,,,,,,,,,,,,,,,,,,,,,,,,,,,,,,,
0.0,1.0,2.21953,0.0,30.0,30.0,30.0,1.0,mixer_12s.jpg,0.0,clock_6_1.png,6.0,62,,,,,,,,,,,,,,,,,,,,,,,,,,,,,,,,
0.0,1.0,1.591055,0.0,31.0,31.0,31.0,1.0,treasure_08s.jpg,0.0,clock_6_2.png,6.0,62,,,,,,,,,,,,,,,,,,,,,,,,,,,,,,,,
0.0,1.0,1.94192,0.0,32.0,32.0,32.0,1.0,toy_04s.jpg,0.0,clock_6_3.png,6.0,62,,,,,,,,,,,,,,,,,,,,,,,,,,,,,,,,
0.0,1.0,0.558205,0.0,33.0,33.0,33.0,1.0,muffin_12n.jpg,0.0,clock_6_4.png,6.0,62,,,,,,,,,,,,,,,,,,,,,,,,,,,,,,,,
0.0,1.0,0.510295,0.0,34.0,34.0,34.0,1.0,possum_09s.jpg,0.0,clock_6_5.png,6.0,62,,,,,,,,,,,,,,,,,,,,,,,,,,,,,,,,
0.0,1.0,0.562975,0.0,35.0,35.0,35.0,1.0,soda_fountain_03s.jpg,0.0,clock_6_6.png,6.0,62,,,,,,,,,,,,,,,,,,,,,,,,,,,,,,,,
,,,,,,,,,1.0,,,62,1.0,1.0,0.818325,0.0,0.0,0.0,0.0,1.0,flask_04s.jpg,chip_04s.jpg,,,,,,,,,,,,,,,,,,,,,,
,,,,,,,,,0.0,,,62,1.0,0.0,0.588335,0.0,1.0,1.0,1.0,1.0,lip_gloss_06s.jpg,pump_11s.jpg,,,,,,,,,,,,,,,,,,,,,,
,,,,,,,,,0.0,,,62,1.0,0.0,0.662545,0.0,2.0,2.0,2.0,1.0,jigsaw_puzzle_11s.jpg,omelet_07s.jpg,,,,,,,,,,,,,,,,,,,,,,
,,,,,,,,,1.0,,,62,0.0,0.0,0.837635,0.0,3.0,3.0,3.0,1.0,mixer_12s.jpg,muffin_12n.jpg,,,,,,,,,,,,,,,,,,,,,,
,,,,,,,,,0.0,,,62,1.0,0.0,0.749225,0.0,4.0,4.0,4.0,1.0,possum_09s.jpg,treasure_08s.jpg,,,,,,,,,,,,,,,,,,,,,,
,,,,,,,,,1.0,,,62,1.0,1.0,0.862775,0.0,5.0,5.0,5.0,1.0,toy_04s.jpg,soda_fountain_03s.jpg,,,,,,,,,,,,,,,,,,,,,,
,,,,,,,,,,,,62,,,,,,,,,,,0.0,4.0,4.0,4.0,1.0,clock_present_5_10.xlsx,clock_compare_task_5_10.xlsx,,,,,,,,,,,,,,,
0.0,1.0,0.68061,0.0,0.0,0.0,0.0,1.0,mattress_01s.jpg,0.0,clock_7_1.png,1.0,62,,,,,,,,,,,,,,,,,,,,,,,,,,,,,,,,
1.0,1.0,0.977465,0.0,1.0,1.0,1.0,1.0,mattress_01s.jpg,1.0,clock_7_2.png,1.0,62,,,,,,,,,,,,,,,,,,,,,,,,,,,,,,,,
0.0,1.0,0.54408,0.0,2.0,2.0,2.0,1.0,plaster_cast_13s.jpg,0.0,clock_7_3.png,1.0,62,,,,,,,,,,,,,,,,,,,,,,,,,,,,,,,,
0.0,1.0,0.8752,0.0,3.0,3.0,3.0,1.0,mussel_11s.jpg,0.0,clock_7_4.png,1.0,62,,,,,,,,,,,,,,,,,,,,,,,,,,,,,,,,
1.0,1.0,0.740545,0.0,4.0,4.0,4.0,1.0,plaster_cast_13s.jpg,1.0,clock_7_5.png,1.0,62,,,,,,,,,,,,,,,,,,,,,,,,,,,,,,,,
0.0,1.0,0.934255,0.0,5.0,5.0,5.0,1.0,ant_12s.jpg,0.0,clock_7_6.png,1.0,62,,,,,,,,,,,,,,,,,,,,,,,,,,,,,,,,
1.0,1.0,0.797825,0.0,6.0,6.0,6.0,1.0,mattress_01s.jpg,1.0,clock_7_7.png,1.0,62,,,,,,,,,,,,,,,,,,,,,,,,,,,,,,,,
0.0,1.0,0.556885,0.0,7.0,7.0,7.0,1.0,coffee_filter_10s.jpg,0.0,clock_6_1.png,2.0,62,,,,,,,,,,,,,,,,,,,,,,,,,,,,,,,,
0.0,1.0,0.70939,0.0,8.0,8.0,8.0,1.0,comic_book_02s.jpg,0.0,clock_6_2.png,2.0,62,,,,,,,,,,,,,,,,,,,,,,,,,,,,,,,,
0.0,1.0,0.39401,0.0,9.0,9.0,9.0,1.0,rocking_chair_05s.jpg,0.0,clock_6_3.png,2.0,62,,,,,,,,,,,,,,,,,,,,,,,,,,,,,,,,
0.0,1.0,0.3988,0.0,10.0,10.0,10.0,1.0,squirt_gun_03s.jpg,0.0,clock_6_4.png,2.0,62,,,,,,,,,,,,,,,,,,,,,,,,,,,,,,,,
0.0,1.0,0.493995,0.0,11.0,11.0,11.0,1.0,ice_pack_09s.jpg,0.0,clock_6_5.png,2.0,62,,,,,,,,,,,,,,,,,,,,,,,,,,,,,,,,
0.0,1.0,0.441525,0.0,12.0,12.0,12.0,1.0,fox_13s.jpg,0.0,clock_6_6.png,2.0,62,,,,,,,,,,,,,,,,,,,,,,,,,,,,,,,,
0.0,1.0,0.474645,0.0,13.0,13.0,13.0,1.0,popcorn_09s.jpg,0.0,clock_6_1.png,3.0,62,,,,,,,,,,,,,,,,,,,,,,,,,,,,,,,,
0.0,1.0,0.992355,0.0,14.0,14.0,14.0,1.0,bowler_hat_10s.jpg,0.0,clock_6_2.png,3.0,62,,,,,,,,,,,,,,,,,,,,,,,,,,,,,,,,
0.0,1.0,0.416745,0.0,15.0,15.0,15.0,1.0,magnet_03s.jpg,0.0,clock_6_3.png,3.0,62,,,,,,,,,,,,,,,,,,,,,,,,,,,,,,,,
0.0,1.0,0.393715,0.0,16.0,16.0,16.0,1.0,tinsel_12s.jpg,0.0,clock_6_4.png,3.0,62,,,,,,,,,,,,,,,,,,,,,,,,,,,,,,,,
0.0,1.0,0.66134,0.0,17.0,17.0,17.0,1.0,kettle_08s.jpg,0.0,clock_6_5.png,3.0,62,,,,,,,,,,,,,,,,,,,,,,,,,,,,,,,,
0.0,1.0,0.400125,0.0,18.0,18.0,18.0,1.0,checkbook_11s.jpg,0.0,clock_6_6.png,3.0,62,,,,,,,,,,,,,,,,,,,,,,,,,,,,,,,,
0.0,1.0,0.481005,0.0,19.0,19.0,19.0,1.0,thumbtack_14s.jpg,0.0,clock_5_1.png,4.0,62,,,,,,,,,,,,,,,,,,,,,,,,,,,,,,,,
0.0,1.0,0.610845,0.0,20.0,20.0,20.0,1.0,turf_03s.jpg,0.0,clock_5_2.png,4.0,62,,,,,,,,,,,,,,,,,,,,,,,,,,,,,,,,
0.0,1.0,0.628015,0.0,21.0,21.0,21.0,1.0,peanut_butter_08s.jpg,0.0,clock_5_3.png,4.0,62,,,,,,,,,,,,,,,,,,,,,,,,,,,,,,,,
0.0,1.0,0.52465,0.0,22.0,22.0,22.0,1.0,lamb_04s.jpg,0.0,clock_5_4.png,4.0,62,,,,,,,,,,,,,,,,,,,,,,,,,,,,,,,,
0.0,1.0,0.708485,0.0,23.0,23.0,23.0,1.0,telephone_pole_05s.jpg,0.0,clock_5_5.png,4.0,62,,,,,,,,,,,,,,,,,,,,,,,,,,,,,,,,
0.0,1.0,1.01369,0.0,24.0,24.0,24.0,1.0,mascara_03s.jpg,0.0,clock_5_1.png,5.0,62,,,,,,,,,,,,,,,,,,,,,,,,,,,,,,,,
0.0,1.0,0.4795,0.0,25.0,25.0,25.0,1.0,prism_10s.jpg,0.0,clock_5_2.png,5.0,62,,,,,,,,,,,,,,,,,,,,,,,,,,,,,,,,
0.0,1.0,0.34021,0.0,26.0,26.0,26.0,1.0,puffin_19s.jpg,0.0,clock_5_3.png,5.0,62,,,,,,,,,,,,,,,,,,,,,,,,,,,,,,,,
0.0,1.0,0.48257,0.0,27.0,27.0,27.0,1.0,lid_10s.jpg,0.0,clock_5_4.png,5.0,62,,,,,,,,,,,,,,,,,,,,,,,,,,,,,,,,
0.0,1.0,0.442515,0.0,28.0,28.0,28.0,1.0,keyboard_05s.jpg,0.0,clock_5_5.png,5.0,62,,,,,,,,,,,,,,,,,,,,,,,,,,,,,,,,
0.0,1.0,1.1928,0.0,29.0,29.0,29.0,1.0,fire_pit_10s.jpg,0.0,clock_7_1.png,6.0,62,,,,,,,,,,,,,,,,,,,,,,,,,,,,,,,,
0.0,1.0,0.491965,0.0,30.0,30.0,30.0,1.0,ice_pack_09s.jpg,0.0,clock_7_2.png,6.0,62,,,,,,,,,,,,,,,,,,,,,,,,,,,,,,,,
0.0,1.0,0.39275,0.0,31.0,31.0,31.0,1.0,hydrant_10s.jpg,0.0,clock_7_3.png,6.0,62,,,,,,,,,,,,,,,,,,,,,,,,,,,,,,,,
1.0,1.0,1.37794,0.0,32.0,32.0,32.0,1.0,hydrant_10s.jpg,1.0,clock_7_4.png,6.0,62,,,,,,,,,,,,,,,,,,,,,,,,,,,,,,,,
0.0,1.0,0.48997,0.0,33.0,33.0,33.0,1.0,tuba_12s.jpg,0.0,clock_7_5.png,6.0,62,,,,,,,,,,,,,,,,,,,,,,,,,,,,,,,,
0.0,1.0,0.359085,0.0,34.0,34.0,34.0,1.0,tulip_02s.jpg,0.0,clock_7_6.png,6.0,62,,,,,,,,,,,,,,,,,,,,,,,,,,,,,,,,
0.0,1.0,0.48937,0.0,35.0,35.0,35.0,1.0,jetski_10s.jpg,0.0,clock_7_7.png,6.0,62,,,,,,,,,,,,,,,,,,,,,,,,,,,,,,,,
,,,,,,,,,0.0,,,62,1.0,0.0,0.45634,0.0,0.0,0.0,0.0,1.0,comic_book_02s.jpg,ant_12s.jpg,,,,,,,,,,,,,,,,,,,,,,
,,,,,,,,,1.0,,,62,0.0,0.0,0.112665,0.0,1.0,1.0,1.0,1.0,puffin_19s.jpg,fire_pit_10s.jpg,,,,,,,,,,,,,,,,,,,,,,
,,,,,,,,,0.0,,,62,1.0,0.0,0.205605,0.0,2.0,2.0,2.0,1.0,peanut_butter_08s.jpg,checkbook_11s.jpg,,,,,,,,,,,,,,,,,,,,,,
,,,,,,,,,0.0,,,62,0.0,1.0,0.417065,0.0,3.0,3.0,3.0,1.0,squirt_gun_03s.jpg,coffee_filter_10s.jpg,,,,,,,,,,,,,,,,,,,,,,
,,,,,,,,,0.0,,,62,0.0,1.0,0.362825,0.0,4.0,4.0,4.0,1.0,fox_13s.jpg,rocking_chair_05s.jpg,,,,,,,,,,,,,,,,,,,,,,
,,,,,,,,,0.0,,,62,0.0,1.0,0.480705,0.0,5.0,5.0,5.0,1.0,kettle_08s.jpg,bowler_hat_10s.jpg,,,,,,,,,,,,,,,,,,,,,,
0.0,1.0,0.619785,,,,,,jelly_bean_06s.jpg,0.0,clockno_up.jpg,1.0,62,,,,,,,,,,,,,,,,,,0.0,0.0,0.0,0.0,1.0,,,,,,,,,,
0.0,1.0,0.420925,,,,,,diving_board_07s.jpg,0.0,clockno_default.jpg,1.0,62,,,,,,,,,,,,,,,,,,0.0,1.0,1.0,1.0,1.0,,,,,,,,,,
1.0,1.0,1.097595,,,,,,jelly_bean_06s.jpg,1.0,clockno_default.jpg,1.0,62,,,,,,,,,,,,,,,,,,0.0,2.0,2.0,2.0,1.0,,,,,,,,,,
0.0,1.0,1.00541,,,,,,top_hat_11s.jpg,0.0,clockno_default.jpg,1.0,62,,,,,,,,,,,,,,,,,,0.0,3.0,3.0,3.0,1.0,,,,,,,,,,
0.0,1.0,0.69753,,,,,,olive_05s.jpg,0.0,clockno_default.jpg,1.0,62,,,,,,,,,,,,,,,,,,0.0,4.0,4.0,4.0,1.0,,,,,,,,,,
1.0,1.0,0.69665,,,,,,top_hat_11s.jpg,1.0,clockno_default.jpg,1.0,62,,,,,,,,,,,,,,,,,,0.0,5.0,5.0,5.0,1.0,,,,,,,,,,
0.0,1.0,0.839575,,,,,,blazer_02s.jpg,0.0,clockno_up.jpg,2.0,62,,,,,,,,,,,,,,,,,,0.0,6.0,6.0,6.0,1.0,,,,,,,,,,
1.0,0.0,0.65344,,,,,,top_hat_11s.jpg,0.0,clockno_default.jpg,2.0,62,,,,,,,,,,,,,,,,,,0.0,7.0,7.0,7.0,1.0,,,,,,,,,,
0.0,1.0,0.714605,,,,,,mango_09s.jpg,0.0,clockno_default.jpg,2.0,62,,,,,,,,,,,,,,,,,,0.0,8.0,8.0,8.0,1.0,,,,,,,,,,
0.0,1.0,0.581725,,,,,,badge_03s.jpg,0.0,clockno_default.jpg,2.0,62,,,,,,,,,,,,,,,,,,0.0,9.0,9.0,9.0,1.0,,,,,,,,,,
0.0,1.0,0.58836,,,,,,swing_set_15s.jpg,0.0,clockno_default.jpg,2.0,62,,,,,,,,,,,,,,,,,,0.0,10.0,10.0,10.0,1.0,,,,,,,,,,
0.0,1.0,0.47486,,,,,,pepper2_21s.jpg,0.0,clockno_up.jpg,3.0,62,,,,,,,,,,,,,,,,,,0.0,11.0,11.0,11.0,1.0,,,,,,,,,,
0.0,1.0,0.791485,,,,,,rosary_03s.jpg,0.0,clockno_default.jpg,3.0,62,,,,,,,,,,,,,,,,,,0.0,12.0,12.0,12.0,1.0,,,,,,,,,,
0.0,1.0,0.50753,,,,,,oil_02s.jpg,0.0,clockno_default.jpg,3.0,62,,,,,,,,,,,,,,,,,,0.0,13.0,13.0,13.0,1.0,,,,,,,,,,
0.0,1.0,0.599,,,,,,swan_11s.jpg,0.0,clockno_default.jpg,3.0,62,,,,,,,,,,,,,,,,,,0.0,14.0,14.0,14.0,1.0,,,,,,,,,,
0.0,1.0,0.33919,,,,,,stamp1_11s.jpg,0.0,clockno_default.jpg,3.0,62,,,,,,,,,,,,,,,,,,0.0,15.0,15.0,15.0,1.0,,,,,,,,,,
0.0,1.0,0.45906,,,,,,contact_lens_15s.jpg,0.0,clockno_default.jpg,3.0,62,,,,,,,,,,,,,,,,,,0.0,16.0,16.0,16.0,1.0,,,,,,,,,,
0.0,1.0,0.477385,,,,,,pocket_watch_16s.jpg,0.0,clockno_default.jpg,3.0,62,,,,,,,,,,,,,,,,,,0.0,17.0,17.0,17.0,1.0,,,,,,,,,,
0.0,1.0,0.224335,,,,,,pie_08s.jpg,0.0,clockno_up.jpg,4.0,62,,,,,,,,,,,,,,,,,,0.0,18.0,18.0,18.0,1.0,,,,,,,,,,
0.0,1.0,0.408215,,,,,,moth_06n.jpg,0.0,clockno_default.jpg,4.0,62,,,,,,,,,,,,,,,,,,0.0,19.0,19.0,19.0,1.0,,,,,,,,,,
1.0,1.0,0.53579,,,,,,moth_06n.jpg,1.0,clockno_default.jpg,4.0,62,,,,,,,,,,,,,,,,,,0.0,20.0,20.0,20.0,1.0,,,,,,,,,,
1.0,1.0,0.490995,,,,,,moth_06n.jpg,1.0,clockno_default.jpg,4.0,62,,,,,,,,,,,,,,,,,,0.0,21.0,21.0,21.0,1.0,,,,,,,,,,
0.0,1.0,0.65611,,,,,,soccer_ball_12s.jpg,0.0,clockno_default.jpg,4.0,62,,,,,,,,,,,,,,,,,,0.0,22.0,22.0,22.0,1.0,,,,,,,,,,
0.0,1.0,0.457885,,,,,,lion_18s.jpg,0.0,clockno_default.jpg,4.0,62,,,,,,,,,,,,,,,,,,0.0,23.0,23.0,23.0,1.0,,,,,,,,,,
1.0,1.0,0.66079,,,,,,soccer_ball_12s.jpg,1.0,clockno_default.jpg,4.0,62,,,,,,,,,,,,,,,,,,0.0,24.0,24.0,24.0,1.0,,,,,,,,,,
0.0,1.0,0.612,,,,,,tweezers_03s.jpg,0.0,clockno_up.jpg,5.0,62,,,,,,,,,,,,,,,,,,0.0,25.0,25.0,25.0,1.0,,,,,,,,,,
0.0,1.0,0.46643,,,,,,tape_06s.jpg,0.0,clockno_default.jpg,5.0,62,,,,,,,,,,,,,,,,,,0.0,26.0,26.0,26.0,1.0,,,,,,,,,,
0.0,1.0,0.376735,,,,,,olive_05s.jpg,0.0,clockno_default.jpg,5.0,62,,,,,,,,,,,,,,,,,,0.0,27.0,27.0,27.0,1.0,,,,,,,,,,
0.0,1.0,0.80927,,,,,,luggage_08s.jpg,0.0,clockno_default.jpg,5.0,62,,,,,,,,,,,,,,,,,,0.0,28.0,28.0,28.0,1.0,,,,,,,,,,
0.0,1.0,0.440995,,,,,,mailbox_11s.jpg,0.0,clockno_default.jpg,5.0,62,,,,,,,,,,,,,,,,,,0.0,29.0,29.0,29.0,1.0,,,,,,,,,,
0.0,1.0,0.508085,,,,,,denture_03s.jpg,0.0,clockno_up.jpg,6.0,62,,,,,,,,,,,,,,,,,,0.0,30.0,30.0,30.0,1.0,,,,,,,,,,
1.0,1.0,1.82855,,,,,,denture_03s.jpg,1.0,clockno_default.jpg,6.0,62,,,,,,,,,,,,,,,,,,0.0,31.0,31.0,31.0,1.0,,,,,,,,,,
0.0,1.0,1.97257,,,,,,megaphone_03s.jpg,0.0,clockno_default.jpg,6.0,62,,,,,,,,,,,,,,,,,,0.0,32.0,32.0,32.0,1.0,,,,,,,,,,
1.0,1.0,0.86869,,,,,,megaphone_03s.jpg,1.0,clockno_default.jpg,6.0,62,,,,,,,,,,,,,,,,,,0.0,33.0,33.0,33.0,1.0,,,,,,,,,,
0.0,1.0,2.17034,,,,,,basket_05s.jpg,0.0,clockno_default.jpg,6.0,62,,,,,,,,,,,,,,,,,,0.0,34.0,34.0,34.0,1.0,,,,,,,,,,
0.0,1.0,1.04628,,,,,,champagne_18s.jpg,0.0,clockno_default.jpg,6.0,62,,,,,,,,,,,,,,,,,,0.0,35.0,35.0,35.0,1.0,,,,,,,,,,
,,,,,,,,,1.0,,,62,0.0,0.0,0.69661,,,,,,mango_09s.jpg,pepper2_21s.jpg,,,,,,,,,,,,,0.0,0.0,0.0,0.0,1.0,,,,,
,,,,,,,,,1.0,,,62,1.0,1.0,0.53623,,,,,,swing_set_15s.jpg,oil_02s.jpg,,,,,,,,,,,,,0.0,1.0,1.0,1.0,1.0,,,,,
,,,,,,,,,0.0,,,62,1.0,0.0,0.500495,,,,,,pie_08s.jpg,stamp1_11s.jpg,,,,,,,,,,,,,0.0,2.0,2.0,2.0,1.0,,,,,
,,,,,,,,,0.0,,,62,0.0,1.0,0.572095,,,,,,pocket_watch_16s.jpg,swan_11s.jpg,,,,,,,,,,,,,0.0,3.0,3.0,3.0,1.0,,,,,
,,,,,,,,,0.0,,,62,1.0,0.0,0.502465,,,,,,luggage_08s.jpg,tweezers_03s.jpg,,,,,,,,,,,,,0.0,4.0,4.0,4.0,1.0,,,,,
,,,,,,,,,1.0,,,62,1.0,1.0,0.713255,,,,,,blazer_02s.jpg,badge_03s.jpg,,,,,,,,,,,,,0.0,5.0,5.0,5.0,1.0,,,,,
,,,,,,,,,,,,62,,,,,,,,,,,,,,,,clockno_present_1_10.xlsx,clockno_compare_task_1_10.xlsx,,,,,,,,,,,0.0,0.0,0.0,0.0,1.0
0.0,1.0,0.60286,,,,,,juicer2_06s.jpg,0.0,clockno_up.jpg,1.0,62,,,,,,,,,,,,,,,,,,0.0,0.0,0.0,0.0,1.0,,,,,,,,,,
1.0,1.0,0.761525,,,,,,juicer2_06s.jpg,1.0,clockno_default.jpg,1.0,62,,,,,,,,,,,,,,,,,,0.0,1.0,1.0,1.0,1.0,,,,,,,,,,
0.0,1.0,0.632115,,,,,,pipe1_10s.jpg,0.0,clockno_default.jpg,1.0,62,,,,,,,,,,,,,,,,,,0.0,2.0,2.0,2.0,1.0,,,,,,,,,,
0.0,1.0,0.81774,,,,,,key_07s.jpg,0.0,clockno_default.jpg,1.0,62,,,,,,,,,,,,,,,,,,0.0,3.0,3.0,3.0,1.0,,,,,,,,,,
1.0,1.0,0.73463,,,,,,pipe1_10s.jpg,1.0,clockno_default.jpg,1.0,62,,,,,,,,,,,,,,,,,,0.0,4.0,4.0,4.0,1.0,,,,,,,,,,
0.0,1.0,1.47888,,,,,,rug_09s.jpg,0.0,clockno_default.jpg,1.0,62,,,,,,,,,,,,,,,,,,0.0,5.0,5.0,5.0,1.0,,,,,,,,,,
0.0,1.0,0.671165,,,,,,fireworks_18s.jpg,0.0,clockno_default.jpg,1.0,62,,,,,,,,,,,,,,,,,,0.0,6.0,6.0,6.0,1.0,,,,,,,,,,
0.0,1.0,0.73029,,,,,,toilet_paper_12s.jpg,0.0,clockno_up.jpg,2.0,62,,,,,,,,,,,,,,,,,,0.0,7.0,7.0,7.0,1.0,,,,,,,,,,
0.0,1.0,0.36724,,,,,,coat_rack_01b.jpg,0.0,clockno_default.jpg,2.0,62,,,,,,,,,,,,,,,,,,0.0,8.0,8.0,8.0,1.0,,,,,,,,,,
0.0,1.0,0.55922,,,,,,jewel_01b.jpg,0.0,clockno_default.jpg,2.0,62,,,,,,,,,,,,,,,,,,0.0,9.0,9.0,9.0,1.0,,,,,,,,,,
0.0,1.0,0.42808,,,,,,stapler_01b.jpg,0.0,clockno_default.jpg,2.0,62,,,,,,,,,,,,,,,,,,0.0,10.0,10.0,10.0,1.0,,,,,,,,,,
0.0,1.0,0.95727,,,,,,mop_08s.jpg,0.0,clockno_default.jpg,2.0,62,,,,,,,,,,,,,,,,,,0.0,11.0,11.0,11.0,1.0,,,,,,,,,,
0.0,1.0,0.48292,,,,,,punch1_10s.jpg,0.0,clockno_default.jpg,2.0,62,,,,,,,,,,,,,,,,,,0.0,12.0,12.0,12.0,1.0,,,,,,,,,,
0.0,1.0,1.033445,,,,,,safety_pin_02s.jpg,0.0,clockno_up.jpg,3.0,62,,,,,,,,,,,,,,,,,,0.0,13.0,13.0,13.0,1.0,,,,,,,,,,
0.0,1.0,0.7223,,,,,,icemaker_10s.jpg,0.0,clockno_default.jpg,3.0,62,,,,,,,,,,,,,,,,,,0.0,14.0,14.0,14.0,1.0,,,,,,,,,,
0.0,1.0,0.657625,,,,,,loom_05s.jpg,0.0,clockno_default.jpg,3.0,62,,,,,,,,,,,,,,,,,,0.0,15.0,15.0,15.0,1.0,,,,,,,,,,
0.0,1.0,0.84331,,,,,,pipe1_10s.jpg,0.0,clockno_default.jpg,3.0,62,,,,,,,,,,,,,,,,,,0.0,16.0,16.0,16.0,1.0,,,,,,,,,,
0.0,1.0,0.46562,,,,,,pillow_03s.jpg,0.0,clockno_default.jpg,3.0,62,,,,,,,,,,,,,,,,,,0.0,17.0,17.0,17.0,1.0,,,,,,,,,,
0.0,1.0,0.39566,,,,,,punch2_09s.jpg,0.0,clockno_default.jpg,3.0,62,,,,,,,,,,,,,,,,,,0.0,18.0,18.0,18.0,1.0,,,,,,,,,,
0.0,1.0,0.40994,,,,,,ravioli_08s.jpg,0.0,clockno_up.jpg,4.0,62,,,,,,,,,,,,,,,,,,0.0,19.0,19.0,19.0,1.0,,,,,,,,,,
0.0,1.0,0.514305,,,,,,key_07s.jpg,0.0,clockno_default.jpg,4.0,62,,,,,,,,,,,,,,,,,,0.0,20.0,20.0,20.0,1.0,,,,,,,,,,
0.0,1.0,0.37039,,,,,,light_switch_02s.jpg,0.0,clockno_default.jpg,4.0,62,,,,,,,,,,,,,,,,,,0.0,21.0,21.0,21.0,1.0,,,,,,,,,,
0.0,1.0,0.408015,,,,,,birthday_cake_09s.jpg,0.0,clockno_default.jpg,4.0,62,,,,,,,,,,,,,,,,,,0.0,22.0,22.0,22.0,1.0,,,,,,,,,,
0.0,1.0,0.66844,,,,,,foam_03s.jpg,0.0,clockno_default.jpg,4.0,62,,,,,,,,,,,,,,,,,,0.0,23.0,23.0,23.0,1.0,,,,,,,,,,
0.0,1.0,0.689315,,,,,,meatball_13s.jpg,0.0,clockno_up.jpg,5.0,62,,,,,,,,,,,,,,,,,,0.0,24.0,24.0,24.0,1.0,,,,,,,,,,
0.0,1.0,0.94768,,,,,,screwdriver02a.jpg,0.0,clockno_default.jpg,5.0,62,,,,,,,,,,,,,,,,,,0.0,25.0,25.0,25.0,1.0,,,,,,,,,,
0.0,1.0,0.840225,,,,,,jewel_01b.jpg,0.0,clockno_default.jpg,5.0,62,,,,,,,,,,,,,,,,,,0.0,26.0,26.0,26.0,1.0,,,,,,,,,,
1.0,1.0,0.632085,,,,,,meatball_13s.jpg,1.0,clockno_default.jpg,5.0,62,,,,,,,,,,,,,,,,,,0.0,27.0,27.0,27.0,1.0,,,,,,,,,,
1.0,1.0,0.80022,,,,,,screwdriver02a.jpg,1.0,clockno_default.jpg,5.0,62,,,,,,,,,,,,,,,,,,0.0,28.0,28.0,28.0,1.0,,,,,,,,,,
0.0,1.0,0.585775,,,,,,jersey_02s.jpg,0.0,clockno_default.jpg,5.0,62,,,,,,,,,,,,,,,,,,0.0,29.0,29.0,29.0,1.0,,,,,,,,,,
0.0,1.0,0.58234,,,,,,jukebox_03n.jpg,0.0,clockno_default.jpg,5.0,62,,,,,,,,,,,,,,,,,,0.0,30.0,30.0,30.0,1.0,,,,,,,,,,
0.0,1.0,0.501215,,,,,,mousetrap_15n.jpg,0.0,clockno_up.jpg,6.0,62,,,,,,,,,,,,,,,,,,0.0,31.0,31.0,31.0,1.0,,,,,,,,,,
0.0,1.0,0.49585,,,,,,bank_06s.jpg,0.0,clockno_default.jpg,6.0,62,,,,,,,,,,,,,,,,,,0.0,32.0,32.0,32.0,1.0,,,,,,,,,,
0.0,1.0,0.42794,,,,,,laundry_basket_11s.jpg,0.0,clockno_default.jpg,6.0,62,,,,,,,,,,,,,,,,,,0.0,33.0,33.0,33.0,1.0,,,,,,,,,,
0.0,1.0,0.649915,,,,,,margarita_03s.jpg,0.0,clockno_default.jpg,6.0,62,,,,,,,,,,,,,,,,,,0.0,34.0,34.0,34.0,1.0,,,,,,,,,,
0.0,1.0,0.55028,,,,,,sundae_08s.jpg,0.0,clockno_default.jpg,6.0,62,,,,,,,,,,,,,,,,,,0.0,35.0,35.0,35.0,1.0,,,,,,,,,,
,,,,,,,,,1.0,,,62,1.0,1.0,0.664235,,,,,,jukebox_03n.jpg,laundry_basket_11s.jpg,,,,,,,,,,,,,0.0,0.0,0.0,0.0,1.0,,,,,
,,,,,,,,,0.0,,,62,1.0,0.0,0.62103,,,,,,coat_rack_01b.jpg,rug_09s.jpg,,,,,,,,,,,,,0.0,1.0,1.0,1.0,1.0,,,,,
,,,,,,,,,0.0,,,62,1.0,0.0,0.67113,,,,,,safety_pin_02s.jpg,stapler_01b.jpg,,,,,,,,,,,,,0.0,2.0,2.0,2.0,1.0,,,,,
,,,,,,,,,0.0,,,62,0.0,1.0,0.71423,,,,,,birthday_cake_09s.jpg,ravioli_08s.jpg,,,,,,,,,,,,,0.0,3.0,3.0,3.0,1.0,,,,,
,,,,,,,,,1.0,,,62,1.0,1.0,0.89511,,,,,,mousetrap_15n.jpg,margarita_03s.jpg,,,,,,,,,,,,,0.0,4.0,4.0,4.0,1.0,,,,,
,,,,,,,,,0.0,,,62,1.0,0.0,0.829335,,,,,,pillow_03s.jpg,icemaker_10s.jpg,,,,,,,,,,,,,0.0,5.0,5.0,5.0,1.0,,,,,
,,,,,,,,,,,,62,,,,,,,,,,,,,,,,clockno_present_2_10.xlsx,clockno_compare_task_2_10.xlsx,,,,,,,,,,,0.0,1.0,1.0,1.0,1.0
0.0,1.0,0.421005,,,,,,crayon_09s.jpg,0.0,clockno_up.jpg,1.0,62,,,,,,,,,,,,,,,,,,0.0,0.0,0.0,0.0,1.0,,,,,,,,,,
0.0,1.0,0.856565,,,,,,trident_07s.jpg,0.0,clockno_default.jpg,1.0,62,,,,,,,,,,,,,,,,,,0.0,1.0,1.0,1.0,1.0,,,,,,,,,,
0.0,1.0,0.62467,,,,,,paintbrush_04s.jpg,0.0,clockno_default.jpg,1.0,62,,,,,,,,,,,,,,,,,,0.0,2.0,2.0,2.0,1.0,,,,,,,,,,
1.0,1.0,0.6151,,,,,,paintbrush_04s.jpg,1.0,clockno_default.jpg,1.0,62,,,,,,,,,,,,,,,,,,0.0,3.0,3.0,3.0,1.0,,,,,,,,,,
1.0,1.0,0.881965,,,,,,crayon_09s.jpg,1.0,clockno_default.jpg,1.0,62,,,,,,,,,,,,,,,,,,0.0,4.0,4.0,4.0,1.0,,,,,,,,,,
0.0,1.0,0.739465,,,,,,dashboard_02s.jpg,0.0,clockno_default.jpg,1.0,62,,,,,,,,,,,,,,,,,,0.0,5.0,5.0,5.0,1.0,,,,,,,,,,
0.0,1.0,0.459145,,,,,,laser_pointer_02s.jpg,0.0,clockno_default.jpg,1.0,62,,,,,,,,,,,,,,,,,,0.0,6.0,6.0,6.0,1.0,,,,,,,,,,
0.0,1.0,0.49718,,,,,,icicle_04s.jpg,0.0,clockno_up.jpg,2.0,62,,,,,,,,,,,,,,,,,,0.0,7.0,7.0,7.0,1.0,,,,,,,,,,
0.0,1.0,0.59501,,,,,,cereal_04s.jpg,0.0,clockno_default.jpg,2.0,62,,,,,,,,,,,,,,,,,,0.0,8.0,8.0,8.0,1.0,,,,,,,,,,
0.0,1.0,0.396455,,,,,,teabag_12s.jpg,0.0,clockno_default.jpg,2.0,62,,,,,,,,,,,,,,,,,,0.0,9.0,9.0,9.0,1.0,,,,,,,,,,
0.0,1.0,0.5232,,,,,,iron_13s.jpg,0.0,clockno_default.jpg,2.0,62,,,,,,,,,,,,,,,,,,0.0,10.0,10.0,10.0,1.0,,,,,,,,,,
1.0,1.0,0.643685,,,,,,teabag_12s.jpg,1.0,clockno_default.jpg,2.0,62,,,,,,,,,,,,,,,,,,0.0,11.0,11.0,11.0,1.0,,,,,,,,,,
1.0,1.0,0.64104,,,,,,cereal_04s.jpg,1.0,clockno_default.jpg,2.0,62,,,,,,,,,,,,,,,,,,0.0,12.0,12.0,12.0,1.0,,,,,,,,,,
0.0,1.0,0.70769,,,,,,coral_08s.jpg,0.0,clockno_up.jpg,3.0,62,,,,,,,,,,,,,,,,,,0.0,13.0,13.0,13.0,1.0,,,,,,,,,,
0.0,1.0,0.55139,,,,,,tape_measure_11s.jpg,0.0,clockno_default.jpg,3.0,62,,,,,,,,,,,,,,,,,,0.0,14.0,14.0,14.0,1.0,,,,,,,,,,
0.0,1.0,0.42116,,,,,,chocolate_01b.jpg,0.0,clockno_default.jpg,3.0,62,,,,,,,,,,,,,,,,,,0.0,15.0,15.0,15.0,1.0,,,,,,,,,,
0.0,1.0,0.610485,,,,,,iron_13s.jpg,0.0,clockno_default.jpg,3.0,62,,,,,,,,,,,,,,,,,,0.0,16.0,16.0,16.0,1.0,,,,,,,,,,
1.0,1.0,0.73491,,,,,,coral_08s.jpg,1.0,clockno_default.jpg,3.0,62,,,,,,,,,,,,,,,,,,0.0,17.0,17.0,17.0,1.0,,,,,,,,,,
0.0,1.0,0.47995,,,,,,turnstile_08s.jpg,0.0,clockno_up.jpg,4.0,62,,,,,,,,,,,,,,,,,,0.0,18.0,18.0,18.0,1.0,,,,,,,,,,
0.0,1.0,0.329325,,,,,,sparkler_02s.jpg,0.0,clockno_default.jpg,4.0,62,,,,,,,,,,,,,,,,,,0.0,19.0,19.0,19.0,1.0,,,,,,,,,,
0.0,1.0,0.405405,,,,,,inhaler_01b.jpg,0.0,clockno_default.jpg,4.0,62,,,,,,,,,,,,,,,,,,0.0,20.0,20.0,20.0,1.0,,,,,,,,,,
0.0,1.0,0.440985,,,,,,pencil02a.jpg,0.0,clockno_default.jpg,4.0,62,,,,,,,,,,,,,,,,,,0.0,21.0,21.0,21.0,1.0,,,,,,,,,,
0.0,1.0,0.34069,,,,,,bubble_01b.jpg,0.0,clockno_default.jpg,4.0,62,,,,,,,,,,,,,,,,,,0.0,22.0,22.0,22.0,1.0,,,,,,,,,,
0.0,1.0,0.528395,,,,,,emerald_02s.jpg,0.0,clockno_default.jpg,4.0,62,,,,,,,,,,,,,,,,,,0.0,23.0,23.0,23.0,1.0,,,,,,,,,,
0.0,1.0,0.399905,,,,,,insole_11s.jpg,0.0,clockno_up.jpg,5.0,62,,,,,,,,,,,,,,,,,,0.0,24.0,24.0,24.0,1.0,,,,,,,,,,
0.0,1.0,0.84755,,,,,,crayon_09s.jpg,0.0,clockno_default.jpg,5.0,62,,,,,,,,,,,,,,,,,,0.0,25.0,25.0,25.0,1.0,,,,,,,,,,
0.0,1.0,0.62492,,,,,,chocolate_01b.jpg,0.0,clockno_default.jpg,5.0,62,,,,,,,,,,,,,,,,,,0.0,26.0,26.0,26.0,1.0,,,,,,,,,,
0.0,1.0,1.05899,,,,,,boar_10s.jpg,0.0,clockno_default.jpg,5.0,62,,,,,,,,,,,,,,,,,,0.0,27.0,27.0,27.0,1.0,,,,,,,,,,
0.0,1.0,0.816935,,,,,,poinsettia_04s.jpg,0.0,clockno_default.jpg,5.0,62,,,,,,,,,,,,,,,,,,0.0,28.0,28.0,28.0,1.0,,,,,,,,,,
0.0,1.0,0.34384,,,,,,bean_06s.jpg,0.0,clockno_default.jpg,5.0,62,,,,,,,,,,,,,,,,,,0.0,29.0,29.0,29.0,1.0,,,,,,,,,,
0.0,1.0,0.43384,,,,,,stethoscope_01b.jpg,0.0,clockno_default.jpg,5.0,62,,,,,,,,,,,,,,,,,,0.0,30.0,30.0,30.0,1.0,,,,,,,,,,
0.0,1.0,0.35103,,,,,,rice_12s.jpg,0.0,clockno_up.jpg,6.0,62,,,,,,,,,,,,,,,,,,0.0,31.0,31.0,31.0,1.0,,,,,,,,,,
0.0,1.0,0.47452,,,,,,camcorder_10s.jpg,0.0,clockno_default.jpg,6.0,62,,,,,,,,,,,,,,,,,,0.0,32.0,32.0,32.0,1.0,,,,,,,,,,
0.0,1.0,0.473795,,,,,,glasses01a.jpg,0.0,clockno_default.jpg,6.0,62,,,,,,,,,,,,,,,,,,0.0,33.0,33.0,33.0,1.0,,,,,,,,,,
0.0,1.0,0.37525,,,,,,kayak_08s.jpg,0.0,clockno_default.jpg,6.0,62,,,,,,,,,,,,,,,,,,0.0,34.0,34.0,34.0,1.0,,,,,,,,,,
0.0,1.0,0.507955,,,,,,triangle_10s.jpg,0.0,clockno_default.jpg,6.0,62,,,,,,,,,,,,,,,,,,0.0,35.0,35.0,35.0,1.0,,,,,,,,,,
,,,,,,,,,1.0,,,62,0.0,0.0,0.24647,,,,,,poinsettia_04s.jpg,rice_12s.jpg,,,,,,,,,,,,,0.0,0.0,0.0,0.0,1.0,,,,,
,,,,,,,,,1.0,,,62,1.0,1.0,0.06056,,,,,,bean_06s.jpg,camcorder_10s.jpg,,,,,,,,,,,,,0.0,1.0,1.0,1.0,1.0,,,,,
,,,,,,,,,1.0,,,62,0.0,0.0,0.27929,,,,,,stethoscope_01b.jpg,glasses01a.jpg,,,,,,,,,,,,,0.0,2.0,2.0,2.0,1.0,,,,,
,,,,,,,,,1.0,,,62,1.0,1.0,0.445375,,,,,,sparkler_02s.jpg,bubble_01b.jpg,,,,,,,,,,,,,0.0,3.0,3.0,3.0,1.0,,,,,
,,,,,,,,,0.0,,,62,0.0,1.0,0.461765,,,,,,emerald_02s.jpg,inhaler_01b.jpg,,,,,,,,,,,,,0.0,4.0,4.0,4.0,1.0,,,,,
,,,,,,,,,0.0,,,62,1.0,0.0,0.354025,,,,,,pencil02a.jpg,turnstile_08s.jpg,,,,,,,,,,,,,0.0,5.0,5.0,5.0,1.0,,,,,
,,,,,,,,,,,,62,,,,,,,,,,,,,,,,clockno_present_3_10.xlsx,clockno_compare_task_3_10.xlsx,,,,,,,,,,,0.0,2.0,2.0,2.0,1.0
0.0,1.0,1.77545,,,,,,quad_04s.jpg,0.0,clockno_up.jpg,1.0,62,,,,,,,,,,,,,,,,,,0.0,0.0,0.0,0.0,1.0,,,,,,,,,,
1.0,1.0,0.67714,,,,,,quad_04s.jpg,1.0,clockno_default.jpg,1.0,62,,,,,,,,,,,,,,,,,,0.0,1.0,1.0,1.0,1.0,,,,,,,,,,
0.0,1.0,0.448325,,,,,,butter_14s.jpg,0.0,clockno_default.jpg,1.0,62,,,,,,,,,,,,,,,,,,0.0,2.0,2.0,2.0,1.0,,,,,,,,,,
0.0,1.0,0.36401,,,,,,cardinal_07s.jpg,0.0,clockno_default.jpg,1.0,62,,,,,,,,,,,,,,,,,,0.0,3.0,3.0,3.0,1.0,,,,,,,,,,
0.0,1.0,0.76522,,,,,,piano_13n.jpg,0.0,clockno_default.jpg,1.0,62,,,,,,,,,,,,,,,,,,0.0,4.0,4.0,4.0,1.0,,,,,,,,,,
0.0,1.0,0.558585,,,,,,sunglasses_11s.jpg,0.0,clockno_up.jpg,2.0,62,,,,,,,,,,,,,,,,,,0.0,5.0,5.0,5.0,1.0,,,,,,,,,,
1.0,0.0,2.264655,,,,,,piano_13n.jpg,0.0,clockno_default.jpg,2.0,62,,,,,,,,,,,,,,,,,,0.0,6.0,6.0,6.0,1.0,,,,,,,,,,
0.0,1.0,0.61539,,,,,,bacon_05s.jpg,0.0,clockno_default.jpg,2.0,62,,,,,,,,,,,,,,,,,,0.0,7.0,7.0,7.0,1.0,,,,,,,,,,
0.0,1.0,0.641715,,,,,,jet_15s.jpg,0.0,clockno_default.jpg,2.0,62,,,,,,,,,,,,,,,,,,0.0,8.0,8.0,8.0,1.0,,,,,,,,,,
1.0,1.0,0.627945,,,,,,jet_15s.jpg,1.0,clockno_default.jpg,2.0,62,,,,,,,,,,,,,,,,,,0.0,9.0,9.0,9.0,1.0,,,,,,,,,,
0.0,1.0,0.55939,,,,,,ukulele_02s.jpg,0.0,clockno_default.jpg,2.0,62,,,,,,,,,,,,,,,,,,0.0,10.0,10.0,10.0,1.0,,,,,,,,,,
1.0,1.0,0.627,,,,,,jet_15s.jpg,1.0,clockno_default.jpg,2.0,62,,,,,,,,,,,,,,,,,,0.0,11.0,11.0,11.0,1.0,,,,,,,,,,
0.0,1.0,0.454795,,,,,,mask_09s.jpg,0.0,clockno_up.jpg,3.0,62,,,,,,,,,,,,,,,,,,0.0,12.0,12.0,12.0,1.0,,,,,,,,,,
0.0,1.0,0.3826,,,,,,treadmill_06s.jpg,0.0,clockno_default.jpg,3.0,62,,,,,,,,,,,,,,,,,,0.0,13.0,13.0,13.0,1.0,,,,,,,,,,
0.0,1.0,0.541135,,,,,,fondue_07s.jpg,0.0,clockno_default.jpg,3.0,62,,,,,,,,,,,,,,,,,,0.0,14.0,14.0,14.0,1.0,,,,,,,,,,
0.0,1.0,0.67457,,,,,,mold2_04s.jpg,0.0,clockno_default.jpg,3.0,62,,,,,,,,,,,,,,,,,,0.0,15.0,15.0,15.0,1.0,,,,,,,,,,
1.0,1.0,0.825905,,,,,,mold2_04s.jpg,1.0,clockno_default.jpg,3.0,62,,,,,,,,,,,,,,,,,,0.0,16.0,16.0,16.0,1.0,,,,,,,,,,
0.0,1.0,0.688115,,,,,,joystick_01b.jpg,0.0,clockno_up.jpg,4.0,62,,,,,,,,,,,,,,,,,,0.0,17.0,17.0,17.0,1.0,,,,,,,,,,
0.0,1.0,0.483545,,,,,,road_sign_05s.jpg,0.0,clockno_default.jpg,4.0,62,,,,,,,,,,,,,,,,,,0.0,18.0,18.0,18.0,1.0,,,,,,,,,,
0.0,1.0,0.441475,,,,,,rabbit_03s.jpg,0.0,clockno_default.jpg,4.0,62,,,,,,,,,,,,,,,,,,0.0,19.0,19.0,19.0,1.0,,,,,,,,,,
0.0,1.0,0.396225,,,,,,mold2_04s.jpg,0.0,clockno_default.jpg,4.0,62,,,,,,,,,,,,,,,,,,0.0,20.0,20.0,20.0,1.0,,,,,,,,,,
0.0,0.0,0.799575,,,,,,joystick_01b.jpg,1.0,clockno_default.jpg,4.0,62,,,,,,,,,,,,,,,,,,0.0,21.0,21.0,21.0,1.0,,,,,,,,,,
1.0,1.0,0.840725,,,,,,rabbit_03s.jpg,1.0,clockno_default.jpg,4.0,62,,,,,,,,,,,,,,,,,,0.0,22.0,22.0,22.0,1.0,,,,,,,,,,
0.0,1.0,0.52492,,,,,,cap_05s.jpg,0.0,clockno_up.jpg,5.0,62,,,,,,,,,,,,,,,,,,0.0,23.0,23.0,23.0,1.0,,,,,,,,,,
0.0,1.0,0.42546,,,,,,doily_13s.jpg,0.0,clockno_default.jpg,5.0,62,,,,,,,,,,,,,,,,,,0.0,24.0,24.0,24.0,1.0,,,,,,,,,,
0.0,1.0,0.491205,,,,,,ironing_board_07s.jpg,0.0,clockno_default.jpg,5.0,62,,,,,,,,,,,,,,,,,,0.0,25.0,25.0,25.0,1.0,,,,,,,,,,
1.0,1.0,0.881955,,,,,,doily_13s.jpg,1.0,clockno_default.jpg,5.0,62,,,,,,,,,,,,,,,,,,0.0,26.0,26.0,26.0,1.0,,,,,,,,,,
0.0,1.0,0.53536,,,,,,lavender_10s.jpg,0.0,clockno_default.jpg,5.0,62,,,,,,,,,,,,,,,,,,0.0,27.0,27.0,27.0,1.0,,,,,,,,,,
0.0,1.0,0.49549,,,,,,kilt_18s.jpg,0.0,clockno_default.jpg,5.0,62,,,,,,,,,,,,,,,,,,0.0,28.0,28.0,28.0,1.0,,,,,,,,,,
0.0,1.0,0.41612,,,,,,peach_04s.jpg,0.0,clockno_default.jpg,5.0,62,,,,,,,,,,,,,,,,,,0.0,29.0,29.0,29.0,1.0,,,,,,,,,,
0.0,1.0,0.88395,,,,,,espresso_01b.jpg,0.0,clockno_up.jpg,6.0,62,,,,,,,,,,,,,,,,,,0.0,30.0,30.0,30.0,1.0,,,,,,,,,,
0.0,1.0,0.98566,,,,,,coconut_08s.jpg,0.0,clockno_default.jpg,6.0,62,,,,,,,,,,,,,,,,,,0.0,31.0,31.0,31.0,1.0,,,,,,,,,,
0.0,1.0,0.44979,,,,,,slingshot_07s.jpg,0.0,clockno_default.jpg,6.0,62,,,,,,,,,,,,,,,,,,0.0,32.0,32.0,32.0,1.0,,,,,,,,,,
0.0,1.0,0.416875,,,,,,swordfish_05s.jpg,0.0,clockno_default.jpg,6.0,62,,,,,,,,,,,,,,,,,,0.0,33.0,33.0,33.0,1.0,,,,,,,,,,
0.0,1.0,0.900775,,,,,,tile_08s.jpg,0.0,clockno_default.jpg,6.0,62,,,,,,,,,,,,,,,,,,0.0,34.0,34.0,34.0,1.0,,,,,,,,,,
0.0,1.0,0.34843,,,,,,footprint_11s.jpg,0.0,clockno_default.jpg,6.0,62,,,,,,,,,,,,,,,,,,0.0,35.0,35.0,35.0,1.0,,,,,,,,,,
,,,,,,,,,0.0,,,62,1.0,0.0,0.268585,,,,,,sunglasses_11s.jpg,butter_14s.jpg,,,,,,,,,,,,,0.0,0.0,0.0,0.0,1.0,,,,,
,,,,,,,,,0.0,,,62,1.0,0.0,0.080505,,,,,,treadmill_06s.jpg,ukulele_02s.jpg,,,,,,,,,,,,,0.0,1.0,1.0,1.0,1.0,,,,,
,,,,,,,,,1.0,,,62,1.0,1.0,0.05111,,,,,,lavender_10s.jpg,espresso_01b.jpg,,,,,,,,,,,,,0.0,2.0,2.0,2.0,1.0,,,,,
,,,,,,,,,1.0,,,62,1.0,1.0,0.04554,,,,,,ironing_board_07s.jpg,kilt_18s.jpg,,,,,,,,,,,,,0.0,3.0,3.0,3.0,1.0,,,,,
,,,,,,,,,0.0,,,62,1.0,0.0,0.066505,,,,,,tile_08s.jpg,coconut_08s.jpg,,,,,,,,,,,,,0.0,4.0,4.0,4.0,1.0,,,,,
,,,,,,,,,0.0,,,62,1.0,0.0,0.23666,,,,,,footprint_11s.jpg,slingshot_07s.jpg,,,,,,,,,,,,,0.0,5.0,5.0,5.0,1.0,,,,,
,,,,,,,,,,,,62,,,,,,,,,,,,,,,,clockno_present_4_10.xlsx,clockno_compare_task_4_10.xlsx,,,,,,,,,,,0.0,3.0,3.0,3.0,1.0
0.0,1.0,0.382775,,,,,,pantyhose_07s.jpg,0.0,clockno_up.jpg,1.0,62,,,,,,,,,,,,,,,,,,0.0,0.0,0.0,0.0,1.0,,,,,,,,,,
0.0,1.0,0.727705,,,,,,chime_12s.jpg,0.0,clockno_default.jpg,1.0,62,,,,,,,,,,,,,,,,,,0.0,1.0,1.0,1.0,1.0,,,,,,,,,,
0.0,1.0,0.4986,,,,,,smoothie_09s.jpg,0.0,clockno_default.jpg,1.0,62,,,,,,,,,,,,,,,,,,0.0,2.0,2.0,2.0,1.0,,,,,,,,,,
0.0,1.0,0.493375,,,,,,tie_03s.jpg,0.0,clockno_default.jpg,1.0,62,,,,,,,,,,,,,,,,,,0.0,3.0,3.0,3.0,1.0,,,,,,,,,,
0.0,1.0,0.355555,,,,,,frame_06s.jpg,0.0,clockno_default.jpg,1.0,62,,,,,,,,,,,,,,,,,,0.0,4.0,4.0,4.0,1.0,,,,,,,,,,
0.0,1.0,0.491065,,,,,,memory_stick_11s.jpg,0.0,clockno_default.jpg,1.0,62,,,,,,,,,,,,,,,,,,0.0,5.0,5.0,5.0,1.0,,,,,,,,,,
0.0,1.0,0.644585,,,,,,limousine_12s.jpg,0.0,clockno_default.jpg,1.0,62,,,,,,,,,,,,,,,,,,0.0,6.0,6.0,6.0,1.0,,,,,,,,,,
0.0,1.0,0.508545,,,,,,pineapple_12s.jpg,0.0,clockno_up.jpg,2.0,62,,,,,,,,,,,,,,,,,,0.0,7.0,7.0,7.0,1.0,,,,,,,,,,
0.0,1.0,0.53148,,,,,,stopwatch_04s.jpg,0.0,clockno_default.jpg,2.0,62,,,,,,,,,,,,,,,,,,0.0,8.0,8.0,8.0,1.0,,,,,,,,,,
1.0,1.0,0.89745,,,,,,pineapple_12s.jpg,1.0,clockno_default.jpg,2.0,62,,,,,,,,,,,,,,,,,,0.0,9.0,9.0,9.0,1.0,,,,,,,,,,
0.0,1.0,0.612915,,,,,,squirrel_02s.jpg,0.0,clockno_default.jpg,2.0,62,,,,,,,,,,,,,,,,,,0.0,10.0,10.0,10.0,1.0,,,,,,,,,,
0.0,1.0,0.506155,,,,,,puddle_02s.jpg,0.0,clockno_default.jpg,2.0,62,,,,,,,,,,,,,,,,,,0.0,11.0,11.0,11.0,1.0,,,,,,,,,,
0.0,1.0,1.290625,,,,,,gas_mask_11s.jpg,0.0,clockno_default.jpg,2.0,62,,,,,,,,,,,,,,,,,,0.0,12.0,12.0,12.0,1.0,,,,,,,,,,
0.0,1.0,0.676805,,,,,,golf_club_03s.jpg,0.0,clockno_default.jpg,2.0,62,,,,,,,,,,,,,,,,,,0.0,13.0,13.0,13.0,1.0,,,,,,,,,,
0.0,1.0,0.49635,,,,,,rake_06s.jpg,0.0,clockno_up.jpg,3.0,62,,,,,,,,,,,,,,,,,,0.0,14.0,14.0,14.0,1.0,,,,,,,,,,
1.0,1.0,0.54558,,,,,,rake_06s.jpg,1.0,clockno_default.jpg,3.0,62,,,,,,,,,,,,,,,,,,0.0,15.0,15.0,15.0,1.0,,,,,,,,,,
0.0,1.0,0.56116,,,,,,snowman_02s.jpg,0.0,clockno_default.jpg,3.0,62,,,,,,,,,,,,,,,,,,0.0,16.0,16.0,16.0,1.0,,,,,,,,,,
0.0,1.0,0.508005,,,,,,buoy_04s.jpg,0.0,clockno_default.jpg,3.0,62,,,,,,,,,,,,,,,,,,0.0,17.0,17.0,17.0,1.0,,,,,,,,,,
0.0,1.0,0.47957,,,,,,crate_05s.jpg,0.0,clockno_default.jpg,3.0,62,,,,,,,,,,,,,,,,,,0.0,18.0,18.0,18.0,1.0,,,,,,,,,,
0.0,1.0,0.48991,,,,,,fork_04s.jpg,0.0,clockno_up.jpg,4.0,62,,,,,,,,,,,,,,,,,,0.0,19.0,19.0,19.0,1.0,,,,,,,,,,
1.0,1.0,0.550055,,,,,,fork_04s.jpg,1.0,clockno_default.jpg,4.0,62,,,,,,,,,,,,,,,,,,0.0,20.0,20.0,20.0,1.0,,,,,,,,,,
0.0,1.0,0.373065,,,,,,frog_09s.jpg,0.0,clockno_default.jpg,4.0,62,,,,,,,,,,,,,,,,,,0.0,21.0,21.0,21.0,1.0,,,,,,,,,,
0.0,1.0,0.36448,,,,,,flip_flop_03s.jpg,0.0,clockno_default.jpg,4.0,62,,,,,,,,,,,,,,,,,,0.0,22.0,22.0,22.0,1.0,,,,,,,,,,
0.0,1.0,0.593825,,,,,,lamp_08s.jpg,0.0,clockno_default.jpg,4.0,62,,,,,,,,,,,,,,,,,,0.0,23.0,23.0,23.0,1.0,,,,,,,,,,
0.0,1.0,0.37505,,,,,,playpen_11s.jpg,0.0,clockno_default.jpg,4.0,62,,,,,,,,,,,,,,,,,,0.0,24.0,24.0,24.0,1.0,,,,,,,,,,
0.0,1.0,0.608625,,,,,,crystal_ball_12s.jpg,0.0,clockno_up.jpg,5.0,62,,,,,,,,,,,,,,,,,,0.0,25.0,25.0,25.0,1.0,,,,,,,,,,
0.0,1.0,0.39131,,,,,,ram_05s.jpg,0.0,clockno_default.jpg,5.0,62,,,,,,,,,,,,,,,,,,0.0,26.0,26.0,26.0,1.0,,,,,,,,,,
0.0,1.0,0.412365,,,,,,teacup_07s.jpg,0.0,clockno_default.jpg,5.0,62,,,,,,,,,,,,,,,,,,0.0,27.0,27.0,27.0,1.0,,,,,,,,,,
0.0,1.0,0.331035,,,,,,beaker_01b.jpg,0.0,clockno_default.jpg,5.0,62,,,,,,,,,,,,,,,,,,0.0,28.0,28.0,28.0,1.0,,,,,,,,,,
1.0,1.0,1.270215,,,,,,ram_05s.jpg,1.0,clockno_default.jpg,5.0,62,,,,,,,,,,,,,,,,,,0.0,29.0,29.0,29.0,1.0,,,,,,,,,,
0.0,1.0,0.540275,,,,,,bottle_opener_11s.jpg,0.0,clockno_up.jpg,6.0,62,,,,,,,,,,,,,,,,,,0.0,30.0,30.0,30.0,1.0,,,,,,,,,,
0.0,1.0,0.37686,,,,,,pinwheel_06s.jpg,0.0,clockno_default.jpg,6.0,62,,,,,,,,,,,,,,,,,,0.0,31.0,31.0,31.0,1.0,,,,,,,,,,
0.0,1.0,0.344515,,,,,,penguin_16s.jpg,0.0,clockno_default.jpg,6.0,62,,,,,,,,,,,,,,,,,,0.0,32.0,32.0,32.0,1.0,,,,,,,,,,
0.0,1.0,0.557375,,,,,,peppermint_07s.jpg,0.0,clockno_default.jpg,6.0,62,,,,,,,,,,,,,,,,,,0.0,33.0,33.0,33.0,1.0,,,,,,,,,,
0.0,1.0,0.44761,,,,,,throne_11s.jpg,0.0,clockno_default.jpg,6.0,62,,,,,,,,,,,,,,,,,,0.0,34.0,34.0,34.0,1.0,,,,,,,,,,
0.0,1.0,0.4636,,,,,,chime_12s.jpg,0.0,clockno_default.jpg,6.0,62,,,,,,,,,,,,,,,,,,0.0,35.0,35.0,35.0,1.0,,,,,,,,,,
,,,,,,,,,1.0,,,62,0.0,0.0,0.24769,,,,,,golf_club_03s.jpg,snowman_02s.jpg,,,,,,,,,,,,,0.0,0.0,0.0,0.0,1.0,,,,,
,,,,,,,,,0.0,,,62,0.0,1.0,0.00244,,,,,,frog_09s.jpg,crate_05s.jpg,,,,,,,,,,,,,0.0,1.0,1.0,1.0,1.0,,,,,
,,,,,,,,,1.0,,,62,0.0,0.0,0.03153,,,,,,flip_flop_03s.jpg,crystal_ball_12s.jpg,,,,,,,,,,,,,0.0,2.0,2.0,2.0,1.0,,,,,
,,,,,,,,,0.0,,,62,0.0,1.0,0.045505,,,,,,tie_03s.jpg,pantyhose_07s.jpg,,,,,,,,,,,,,0.0,3.0,3.0,3.0,1.0,,,,,
,,,,,,,,,0.0,,,62,1.0,0.0,0.02093,,,,,,memory_stick_11s.jpg,smoothie_09s.jpg,,,,,,,,,,,,,0.0,4.0,4.0,4.0,1.0,,,,,
,,,,,,,,,0.0,,,62,0.0,1.0,0.02813,,,,,,puddle_02s.jpg,stopwatch_04s.jpg,,,,,,,,,,,,,0.0,5.0,5.0,5.0,1.0,,,,,
,,,,,,,,,,,,62,,,,,,,,,,,,,,,,clockno_present_5_10.xlsx,clockno_compare_task_5_10.xlsx,,,,,,,,,,,0.0,4.0,4.0,4.0,1.0
0.0,1.0,1.05012,,,,,,potholder_02s.jpg,0.0,clockno_up.jpg,1.0,62,,,,,,,,,,,,,,,,,,0.0,0.0,0.0,0.0,1.0,,,,,,,,,,
1.0,1.0,0.83536,,,,,,potholder_02s.jpg,1.0,clockno_default.jpg,1.0,62,,,,,,,,,,,,,,,,,,0.0,1.0,1.0,1.0,1.0,,,,,,,,,,
0.0,1.0,2.36968,,,,,,phone_01b.jpg,0.0,clockno_default.jpg,1.0,62,,,,,,,,,,,,,,,,,,0.0,2.0,2.0,2.0,1.0,,,,,,,,,,
,0.0,,,,,,,potholder_02s.jpg,1.0,clockno_default.jpg,1.0,62,,,,,,,,,,,,,,,,,,0.0,3.0,3.0,3.0,1.0,,,,,,,,,,
0.0,0.0,0.495045,,,,,,phone_01b.jpg,1.0,clockno_default.jpg,1.0,62,,,,,,,,,,,,,,,,,,0.0,4.0,4.0,4.0,1.0,,,,,,,,,,
0.0,1.0,0.63246,,,,,,puck_06s.jpg,0.0,clockno_default.jpg,1.0,62,,,,,,,,,,,,,,,,,,0.0,5.0,5.0,5.0,1.0,,,,,,,,,,
0.0,1.0,0.490855,,,,,,bagel_15s.jpg,0.0,clockno_up.jpg,2.0,62,,,,,,,,,,,,,,,,,,0.0,6.0,6.0,6.0,1.0,,,,,,,,,,
1.0,1.0,0.52744,,,,,,bagel_15s.jpg,1.0,clockno_default.jpg,2.0,62,,,,,,,,,,,,,,,,,,0.0,7.0,7.0,7.0,1.0,,,,,,,,,,
1.0,0.0,1.495175,,,,,,puck_06s.jpg,0.0,clockno_default.jpg,2.0,62,,,,,,,,,,,,,,,,,,0.0,8.0,8.0,8.0,1.0,,,,,,,,,,
0.0,1.0,0.5774,,,,,,funnel_01b.jpg,0.0,clockno_default.jpg,2.0,62,,,,,,,,,,,,,,,,,,0.0,9.0,9.0,9.0,1.0,,,,,,,,,,
0.0,1.0,0.441615,,,,,,trumpet_06s.jpg,0.0,clockno_default.jpg,2.0,62,,,,,,,,,,,,,,,,,,0.0,10.0,10.0,10.0,1.0,,,,,,,,,,
0.0,1.0,0.45956,,,,,,outlet_10s.jpg,0.0,clockno_default.jpg,2.0,62,,,,,,,,,,,,,,,,,,0.0,11.0,11.0,11.0,1.0,,,,,,,,,,
0.0,1.0,0.41195,,,,,,reindeer_08s.jpg,0.0,clockno_default.jpg,2.0,62,,,,,,,,,,,,,,,,,,0.0,12.0,12.0,12.0,1.0,,,,,,,,,,
0.0,1.0,0.33512,,,,,,tablet_04s.jpg,0.0,clockno_up.jpg,3.0,62,,,,,,,,,,,,,,,,,,0.0,13.0,13.0,13.0,1.0,,,,,,,,,,
0.0,1.0,0.4292,,,,,,latte_06s.jpg,0.0,clockno_default.jpg,3.0,62,,,,,,,,,,,,,,,,,,0.0,14.0,14.0,14.0,1.0,,,,,,,,,,
1.0,1.0,0.993575,,,,,,latte_06s.jpg,1.0,clockno_default.jpg,3.0,62,,,,,,,,,,,,,,,,,,0.0,15.0,15.0,15.0,1.0,,,,,,,,,,
0.0,1.0,0.661545,,,,,,tomato_sauce_09s.jpg,0.0,clockno_default.jpg,3.0,62,,,,,,,,,,,,,,,,,,0.0,16.0,16.0,16.0,1.0,,,,,,,,,,
0.0,1.0,0.777755,,,,,,mitten_10s.jpg,0.0,clockno_default.jpg,3.0,62,,,,,,,,,,,,,,,,,,0.0,17.0,17.0,17.0,1.0,,,,,,,,,,
0.0,1.0,0.787975,,,,,,otter_05s.jpg,0.0,clockno_up.jpg,4.0,62,,,,,,,,,,,,,,,,,,0.0,18.0,18.0,18.0,1.0,,,,,,,,,,
0.0,1.0,0.52663,,,,,,puck_06s.jpg,0.0,clockno_default.jpg,4.0,62,,,,,,,,,,,,,,,,,,0.0,19.0,19.0,19.0,1.0,,,,,,,,,,
0.0,1.0,0.72325,,,,,,polar_bear_02s.jpg,0.0,clockno_default.jpg,4.0,62,,,,,,,,,,,,,,,,,,0.0,20.0,20.0,20.0,1.0,,,,,,,,,,
0.0,1.0,0.546255,,,,,,crab_16s.jpg,0.0,clockno_default.jpg,4.0,62,,,,,,,,,,,,,,,,,,0.0,21.0,21.0,21.0,1.0,,,,,,,,,,
0.0,1.0,0.815535,,,,,,bagel_15s.jpg,0.0,clockno_default.jpg,4.0,62,,,,,,,,,,,,,,,,,,0.0,22.0,22.0,22.0,1.0,,,,,,,,,,
0.0,1.0,0.47304,,,,,,radiator_05s.jpg,0.0,clockno_default.jpg,4.0,62,,,,,,,,,,,,,,,,,,0.0,23.0,23.0,23.0,1.0,,,,,,,,,,
0.0,1.0,0.580625,,,,,,polaroid_05s.jpg,0.0,clockno_up.jpg,5.0,62,,,,,,,,,,,,,,,,,,0.0,24.0,24.0,24.0,1.0,,,,,,,,,,
0.0,1.0,0.63144,,,,,,bee_20s.jpg,0.0,clockno_default.jpg,5.0,62,,,,,,,,,,,,,,,,,,0.0,25.0,25.0,25.0,1.0,,,,,,,,,,
0.0,1.0,0.65578,,,,,,swimming_pool_17s.jpg,0.0,clockno_default.jpg,5.0,62,,,,,,,,,,,,,,,,,,0.0,26.0,26.0,26.0,1.0,,,,,,,,,,
1.0,1.0,0.57648,,,,,,swimming_pool_17s.jpg,1.0,clockno_default.jpg,5.0,62,,,,,,,,,,,,,,,,,,0.0,27.0,27.0,27.0,1.0,,,,,,,,,,
0.0,1.0,0.52209,,,,,,fur_coat_11s.jpg,0.0,clockno_default.jpg,5.0,62,,,,,,,,,,,,,,,,,,0.0,28.0,28.0,28.0,1.0,,,,,,,,,,
0.0,1.0,0.493845,,,,,,projector_08s.jpg,0.0,clockno_default.jpg,5.0,62,,,,,,,,,,,,,,,,,,0.0,29.0,29.0,29.0,1.0,,,,,,,,,,
0.0,1.0,0.602205,,,,,,raft_09s.jpg,0.0,clockno_default.jpg,5.0,62,,,,,,,,,,,,,,,,,,0.0,30.0,30.0,30.0,1.0,,,,,,,,,,
0.0,1.0,0.64729,,,,,,microwave_02s.jpg,0.0,clockno_up.jpg,6.0,62,,,,,,,,,,,,,,,,,,0.0,31.0,31.0,31.0,1.0,,,,,,,,,,
0.0,1.0,0.53138,,,,,,bonsai_07s.jpg,0.0,clockno_default.jpg,6.0,62,,,,,,,,,,,,,,,,,,0.0,32.0,32.0,32.0,1.0,,,,,,,,,,
0.0,1.0,0.58431,,,,,,torch_02s.jpg,0.0,clockno_default.jpg,6.0,62,,,,,,,,,,,,,,,,,,0.0,33.0,33.0,33.0,1.0,,,,,,,,,,
0.0,1.0,0.791025,,,,,,rocket_02s.jpg,0.0,clockno_default.jpg,6.0,62,,,,,,,,,,,,,,,,,,0.0,34.0,34.0,34.0,1.0,,,,,,,,,,
1.0,1.0,1.110205,,,,,,rocket_02s.jpg,1.0,clockno_default.jpg,6.0,62,,,,,,,,,,,,,,,,,,0.0,35.0,35.0,35.0,1.0,,,,,,,,,,
,,,,,,,,,1.0,,,62,1.0,1.0,1.189805,,,,,,projector_08s.jpg,bonsai_07s.jpg,,,,,,,,,,,,,0.0,0.0,0.0,0.0,1.0,,,,,
,,,,,,,,,0.0,,,62,1.0,0.0,0.814625,,,,,,torch_02s.jpg,raft_09s.jpg,,,,,,,,,,,,,0.0,1.0,1.0,1.0,1.0,,,,,
,,,,,,,,,0.0,,,62,1.0,0.0,0.88177,,,,,,tablet_04s.jpg,trumpet_06s.jpg,,,,,,,,,,,,,0.0,2.0,2.0,2.0,1.0,,,,,
,,,,,,,,,0.0,,,62,0.0,1.0,0.672715,,,,,,reindeer_08s.jpg,funnel_01b.jpg,,,,,,,,,,,,,0.0,3.0,3.0,3.0,1.0,,,,,
,,,,,,,,,1.0,,,62,1.0,1.0,0.763025,,,,,,otter_05s.jpg,crab_16s.jpg,,,,,,,,,,,,,0.0,4.0,4.0,4.0,1.0,,,,,
,,,,,,,,,0.0,,,62,1.0,0.0,0.795015,,,,,,radiator_05s.jpg,polar_bear_02s.jpg,,,,,,,,,,,,,0.0,5.0,5.0,5.0,1.0,,,,,
