key_resp.keys,key_resp.corr,key_resp.rt,noclock_loop.thisRepN,noclock_loop.thisTrialN,noclock_loop.thisN,noclock_loop.thisIndex,noclock_loop.ran,pictures,answer,clock,segment,participant,key_resp_2.keys,key_resp_2.corr,key_resp_2.rt,noclock_loop2.thisRepN,noclock_loop2.thisTrialN,noclock_loop2.thisN,noclock_loop2.thisIndex,noclock_loop2.ran,item_a,item_b,noclock_condition.thisRepN,noclock_condition.thisTrialN,noclock_condition.thisN,noclock_condition.thisIndex,noclock_condition.ran,present,compare,present_segment.thisRepN,present_segment.thisTrialN,present_segment.thisN,present_segment.thisIndex,present_segment.ran,compare_segment.thisRepN,compare_segment.thisTrialN,compare_segment.thisN,compare_segment.thisIndex,compare_segment.ran,clock_conditions.thisRepN,clock_conditions.thisTrialN,clock_conditions.thisN,clock_conditions.thisIndex,clock_conditions.ran
0.0,1.0,1.054505,0.0,0.0,0.0,0.0,1.0,hydrant_10s.jpg,0.0,clockno_up.jpg,1.0,7,,,,,,,,,,,,,,,,,,,,,,,,,,,,,,,,
0.0,1.0,1.246575,0.0,1.0,1.0,1.0,1.0,raccoon_02s.jpg,0.0,clockno_default.jpg,1.0,7,,,,,,,,,,,,,,,,,,,,,,,,,,,,,,,,
0.0,1.0,0.761665,0.0,2.0,2.0,2.0,1.0,tinsel_12s.jpg,0.0,clockno_default.jpg,1.0,7,,,,,,,,,,,,,,,,,,,,,,,,,,,,,,,,
0.0,1.0,0.667905,0.0,3.0,3.0,3.0,1.0,toad_09s.jpg,0.0,clockno_default.jpg,1.0,7,,,,,,,,,,,,,,,,,,,,,,,,,,,,,,,,
0.0,1.0,1.331935,0.0,4.0,4.0,4.0,1.0,penguin_16s.jpg,0.0,clockno_default.jpg,1.0,7,,,,,,,,,,,,,,,,,,,,,,,,,,,,,,,,
1.0,1.0,1.119485,0.0,5.0,5.0,5.0,1.0,hydrant_10s.jpg,1.0,clockno_default.jpg,1.0,7,,,,,,,,,,,,,,,,,,,,,,,,,,,,,,,,
0.0,1.0,0.935635,0.0,6.0,6.0,6.0,1.0,ostrich_06s.jpg,0.0,clockno_up.jpg,2.0,7,,,,,,,,,,,,,,,,,,,,,,,,,,,,,,,,
0.0,1.0,0.79187,0.0,7.0,7.0,7.0,1.0,rosary_03s.jpg,0.0,clockno_default.jpg,2.0,7,,,,,,,,,,,,,,,,,,,,,,,,,,,,,,,,
0.0,1.0,1.376195,0.0,8.0,8.0,8.0,1.0,mold2_04s.jpg,0.0,clockno_default.jpg,2.0,7,,,,,,,,,,,,,,,,,,,,,,,,,,,,,,,,
0.0,1.0,0.751655,0.0,9.0,9.0,9.0,1.0,ivy_12s.jpg,0.0,clockno_default.jpg,2.0,7,,,,,,,,,,,,,,,,,,,,,,,,,,,,,,,,
0.0,1.0,0.74812,0.0,10.0,10.0,10.0,1.0,tongs_08s.jpg,0.0,clockno_default.jpg,2.0,7,,,,,,,,,,,,,,,,,,,,,,,,,,,,,,,,
0.0,1.0,0.901245,0.0,11.0,11.0,11.0,1.0,undershirt_02s.jpg,0.0,clockno_up.jpg,3.0,7,,,,,,,,,,,,,,,,,,,,,,,,,,,,,,,,
0.0,1.0,0.769435,0.0,12.0,12.0,12.0,1.0,swing_set_15s.jpg,0.0,clockno_default.jpg,3.0,7,,,,,,,,,,,,,,,,,,,,,,,,,,,,,,,,
0.0,1.0,0.99424,0.0,13.0,13.0,13.0,1.0,beard_16s.jpg,0.0,clockno_default.jpg,3.0,7,,,,,,,,,,,,,,,,,,,,,,,,,,,,,,,,
0.0,1.0,1.938255,0.0,14.0,14.0,14.0,1.0,mold2_04s.jpg,0.0,clockno_default.jpg,3.0,7,,,,,,,,,,,,,,,,,,,,,,,,,,,,,,,,
0.0,1.0,0.678835,0.0,15.0,15.0,15.0,1.0,submarine_11n.jpg,0.0,clockno_default.jpg,3.0,7,,,,,,,,,,,,,,,,,,,,,,,,,,,,,,,,
0.0,1.0,0.95412,0.0,16.0,16.0,16.0,1.0,recliner_02s.jpg,0.0,clockno_default.jpg,3.0,7,,,,,,,,,,,,,,,,,,,,,,,,,,,,,,,,
0.0,1.0,0.70689,0.0,17.0,17.0,17.0,1.0,limousine_12s.jpg,0.0,clockno_default.jpg,3.0,7,,,,,,,,,,,,,,,,,,,,,,,,,,,,,,,,
0.0,1.0,0.573275,0.0,18.0,18.0,18.0,1.0,potpourri_03s.jpg,0.0,clockno_up.jpg,4.0,7,,,,,,,,,,,,,,,,,,,,,,,,,,,,,,,,
1.0,1.0,0.856185,0.0,19.0,19.0,19.0,1.0,potpourri_03s.jpg,1.0,clockno_default.jpg,4.0,7,,,,,,,,,,,,,,,,,,,,,,,,,,,,,,,,
0.0,1.0,0.85665,0.0,20.0,20.0,20.0,1.0,swan_11s.jpg,0.0,clockno_default.jpg,4.0,7,,,,,,,,,,,,,,,,,,,,,,,,,,,,,,,,
0.0,1.0,1.229025,0.0,21.0,21.0,21.0,1.0,mold2_04s.jpg,0.0,clockno_default.jpg,4.0,7,,,,,,,,,,,,,,,,,,,,,,,,,,,,,,,,
0.0,1.0,0.763085,0.0,22.0,22.0,22.0,1.0,plug_08s.jpg,0.0,clockno_default.jpg,4.0,7,,,,,,,,,,,,,,,,,,,,,,,,,,,,,,,,
0.0,1.0,0.897095,0.0,23.0,23.0,23.0,1.0,punch2_09s.jpg,0.0,clockno_up.jpg,5.0,7,,,,,,,,,,,,,,,,,,,,,,,,,,,,,,,,
0.0,1.0,0.79773,0.0,24.0,24.0,24.0,1.0,blowfish_03s.jpg,0.0,clockno_default.jpg,5.0,7,,,,,,,,,,,,,,,,,,,,,,,,,,,,,,,,
0.0,1.0,0.544265,0.0,25.0,25.0,25.0,1.0,badge_03s.jpg,0.0,clockno_default.jpg,5.0,7,,,,,,,,,,,,,,,,,,,,,,,,,,,,,,,,
0.0,1.0,0.91034,0.0,26.0,26.0,26.0,1.0,go-kart_10s.jpg,0.0,clockno_default.jpg,5.0,7,,,,,,,,,,,,,,,,,,,,,,,,,,,,,,,,
0.0,1.0,0.90552,0.0,27.0,27.0,27.0,1.0,surfboard_11s.jpg,0.0,clockno_default.jpg,5.0,7,,,,,,,,,,,,,,,,,,,,,,,,,,,,,,,,
0.0,1.0,0.783135,0.0,28.0,28.0,28.0,1.0,kimono_13s.jpg,0.0,clockno_default.jpg,5.0,7,,,,,,,,,,,,,,,,,,,,,,,,,,,,,,,,
0.0,1.0,0.6821,0.0,29.0,29.0,29.0,1.0,teapot_03s.jpg,0.0,clockno_default.jpg,5.0,7,,,,,,,,,,,,,,,,,,,,,,,,,,,,,,,,
0.0,1.0,2.46911,0.0,30.0,30.0,30.0,1.0,eiffeltower.jpg,0.0,clockno_up.jpg,6.0,7,,,,,,,,,,,,,,,,,,,,,,,,,,,,,,,,
0.0,1.0,1.246355,0.0,31.0,31.0,31.0,1.0,checkbook_11s.jpg,0.0,clockno_default.jpg,6.0,7,,,,,,,,,,,,,,,,,,,,,,,,,,,,,,,,
0.0,1.0,0.75461,0.0,32.0,32.0,32.0,1.0,ostrich_06s.jpg,0.0,clockno_default.jpg,6.0,7,,,,,,,,,,,,,,,,,,,,,,,,,,,,,,,,
1.0,1.0,0.9324,0.0,33.0,33.0,33.0,1.0,eiffeltower.jpg,1.0,clockno_default.jpg,6.0,7,,,,,,,,,,,,,,,,,,,,,,,,,,,,,,,,
0.0,1.0,0.846345,0.0,34.0,34.0,34.0,1.0,sunflower_17s.jpg,0.0,clockno_default.jpg,6.0,7,,,,,,,,,,,,,,,,,,,,,,,,,,,,,,,,
1.0,1.0,0.921715,0.0,35.0,35.0,35.0,1.0,sunflower_17s.jpg,1.0,clockno_default.jpg,6.0,7,,,,,,,,,,,,,,,,,,,,,,,,,,,,,,,,
,,,,,,,,,0.0,,,7,1.0,0.0,6.87581,0.0,0.0,0.0,0.0,1.0,swan_11s.jpg,limousine_12s.jpg,,,,,,,,,,,,,,,,,,,,,,
,,,,,,,,,0.0,,,7,1.0,0.0,1.905615,0.0,1.0,1.0,1.0,1.0,swing_set_15s.jpg,ivy_12s.jpg,,,,,,,,,,,,,,,,,,,,,,
,,,,,,,,,0.0,,,7,0.0,1.0,5.67989,0.0,2.0,2.0,2.0,1.0,badge_03s.jpg,plug_08s.jpg,,,,,,,,,,,,,,,,,,,,,,
,,,,,,,,,1.0,,,7,0.0,0.0,3.419125,0.0,3.0,3.0,3.0,1.0,blowfish_03s.jpg,surfboard_11s.jpg,,,,,,,,,,,,,,,,,,,,,,
,,,,,,,,,1.0,,,7,0.0,0.0,2.56144,0.0,4.0,4.0,4.0,1.0,go-kart_10s.jpg,teapot_03s.jpg,,,,,,,,,,,,,,,,,,,,,,
,,,,,,,,,0.0,,,7,0.0,1.0,2.31676,0.0,5.0,5.0,5.0,1.0,penguin_16s.jpg,raccoon_02s.jpg,,,,,,,,,,,,,,,,,,,,,,
,,,,,,,,,,,,7,,,,,,,,,,,0.0,0.0,0.0,0.0,1.0,clockno_present_1_3.xlsx,clockno_compare_task_1_3.xlsx,,,,,,,,,,,,,,,
,0.0,,0.0,0.0,0.0,0.0,1.0,tulip_02s.jpg,0.0,clockno_up.jpg,1.0,7,,,,,,,,,,,,,,,,,,,,,,,,,,,,,,,,
0.0,1.0,0.92042,0.0,1.0,1.0,1.0,1.0,telephone_pole_05s.jpg,0.0,clockno_default.jpg,1.0,7,,,,,,,,,,,,,,,,,,,,,,,,,,,,,,,,
0.0,1.0,1.005025,0.0,2.0,2.0,2.0,1.0,mousetrap_15n.jpg,0.0,clockno_default.jpg,1.0,7,,,,,,,,,,,,,,,,,,,,,,,,,,,,,,,,
1.0,1.0,0.9038,0.0,3.0,3.0,3.0,1.0,telephone_pole_05s.jpg,1.0,clockno_default.jpg,1.0,7,,,,,,,,,,,,,,,,,,,,,,,,,,,,,,,,
1.0,1.0,0.652305,0.0,4.0,4.0,4.0,1.0,telephone_pole_05s.jpg,1.0,clockno_default.jpg,1.0,7,,,,,,,,,,,,,,,,,,,,,,,,,,,,,,,,
0.0,1.0,1.116495,0.0,5.0,5.0,5.0,1.0,jelly_bean_06s.jpg,0.0,clockno_up.jpg,2.0,7,,,,,,,,,,,,,,,,,,,,,,,,,,,,,,,,
0.0,1.0,0.882665,0.0,6.0,6.0,6.0,1.0,fox_13s.jpg,0.0,clockno_default.jpg,2.0,7,,,,,,,,,,,,,,,,,,,,,,,,,,,,,,,,
0.0,1.0,0.60906,0.0,7.0,7.0,7.0,1.0,ice_pack_09s.jpg,0.0,clockno_default.jpg,2.0,7,,,,,,,,,,,,,,,,,,,,,,,,,,,,,,,,
0.0,1.0,0.60862,0.0,8.0,8.0,8.0,1.0,screwdriver02a.jpg,0.0,clockno_default.jpg,2.0,7,,,,,,,,,,,,,,,,,,,,,,,,,,,,,,,,
1.0,1.0,1.062845,0.0,9.0,9.0,9.0,1.0,jelly_bean_06s.jpg,1.0,clockno_default.jpg,2.0,7,,,,,,,,,,,,,,,,,,,,,,,,,,,,,,,,
0.0,1.0,0.748555,0.0,10.0,10.0,10.0,1.0,puddle_02s.jpg,0.0,clockno_up.jpg,3.0,7,,,,,,,,,,,,,,,,,,,,,,,,,,,,,,,,
0.0,1.0,0.799535,0.0,11.0,11.0,11.0,1.0,lamp_08s.jpg,0.0,clockno_default.jpg,3.0,7,,,,,,,,,,,,,,,,,,,,,,,,,,,,,,,,
1.0,1.0,1.14662,0.0,12.0,12.0,12.0,1.0,puddle_02s.jpg,1.0,clockno_default.jpg,3.0,7,,,,,,,,,,,,,,,,,,,,,,,,,,,,,,,,
0.0,1.0,1.02381,0.0,13.0,13.0,13.0,1.0,jelly_bean_06s.jpg,0.0,clockno_default.jpg,3.0,7,,,,,,,,,,,,,,,,,,,,,,,,,,,,,,,,
0.0,1.0,1.35683,0.0,14.0,14.0,14.0,1.0,kangaroo_02s.jpg,0.0,clockno_default.jpg,3.0,7,,,,,,,,,,,,,,,,,,,,,,,,,,,,,,,,
0.0,1.0,0.74576,0.0,15.0,15.0,15.0,1.0,tape_measure_11s.jpg,0.0,clockno_default.jpg,3.0,7,,,,,,,,,,,,,,,,,,,,,,,,,,,,,,,,
0.0,1.0,1.207325,0.0,16.0,16.0,16.0,1.0,funnel_01b.jpg,0.0,clockno_up.jpg,4.0,7,,,,,,,,,,,,,,,,,,,,,,,,,,,,,,,,
0.0,1.0,0.789605,0.0,17.0,17.0,17.0,1.0,razor_12s.jpg,0.0,clockno_default.jpg,4.0,7,,,,,,,,,,,,,,,,,,,,,,,,,,,,,,,,
0.0,1.0,0.68142,0.0,18.0,18.0,18.0,1.0,duck_01b.jpg,0.0,clockno_default.jpg,4.0,7,,,,,,,,,,,,,,,,,,,,,,,,,,,,,,,,
0.0,1.0,0.70102,0.0,19.0,19.0,19.0,1.0,pocket_watch_16s.jpg,0.0,clockno_default.jpg,4.0,7,,,,,,,,,,,,,,,,,,,,,,,,,,,,,,,,
1.0,1.0,0.85906,0.0,20.0,20.0,20.0,1.0,funnel_01b.jpg,1.0,clockno_default.jpg,4.0,7,,,,,,,,,,,,,,,,,,,,,,,,,,,,,,,,
0.0,1.0,0.66408,0.0,21.0,21.0,21.0,1.0,binder_21s.jpg,0.0,clockno_default.jpg,4.0,7,,,,,,,,,,,,,,,,,,,,,,,,,,,,,,,,
0.0,1.0,2.14208,0.0,22.0,22.0,22.0,1.0,stump_02s.jpg,0.0,clockno_default.jpg,4.0,7,,,,,,,,,,,,,,,,,,,,,,,,,,,,,,,,
0.0,1.0,0.89284,0.0,23.0,23.0,23.0,1.0,mud_13s.jpg,0.0,clockno_up.jpg,5.0,7,,,,,,,,,,,,,,,,,,,,,,,,,,,,,,,,
1.0,1.0,1.4925,0.0,24.0,24.0,24.0,1.0,mud_13s.jpg,1.0,clockno_default.jpg,5.0,7,,,,,,,,,,,,,,,,,,,,,,,,,,,,,,,,
1.0,0.0,1.28933,0.0,25.0,25.0,25.0,1.0,funnel_01b.jpg,0.0,clockno_default.jpg,5.0,7,,,,,,,,,,,,,,,,,,,,,,,,,,,,,,,,
0.0,1.0,0.746925,0.0,26.0,26.0,26.0,1.0,clover_04s.jpg,0.0,clockno_default.jpg,5.0,7,,,,,,,,,,,,,,,,,,,,,,,,,,,,,,,,
0.0,1.0,0.89621,0.0,27.0,27.0,27.0,1.0,letter_opener_03s.jpg,0.0,clockno_default.jpg,5.0,7,,,,,,,,,,,,,,,,,,,,,,,,,,,,,,,,
0.0,1.0,0.864645,0.0,28.0,28.0,28.0,1.0,lasagna_06s.jpg,0.0,clockno_default.jpg,5.0,7,,,,,,,,,,,,,,,,,,,,,,,,,,,,,,,,
0.0,1.0,1.126515,0.0,29.0,29.0,29.0,1.0,bacon_05s.jpg,0.0,clockno_default.jpg,5.0,7,,,,,,,,,,,,,,,,,,,,,,,,,,,,,,,,
0.0,1.0,0.53747,0.0,30.0,30.0,30.0,1.0,dirt_bike_11s.jpg,0.0,clockno_up.jpg,6.0,7,,,,,,,,,,,,,,,,,,,,,,,,,,,,,,,,
0.0,1.0,0.652525,0.0,31.0,31.0,31.0,1.0,rollerskate_03s.jpg,0.0,clockno_default.jpg,6.0,7,,,,,,,,,,,,,,,,,,,,,,,,,,,,,,,,
0.0,1.0,0.924885,0.0,32.0,32.0,32.0,1.0,mitten_10s.jpg,0.0,clockno_default.jpg,6.0,7,,,,,,,,,,,,,,,,,,,,,,,,,,,,,,,,
1.0,1.0,0.91632,0.0,33.0,33.0,33.0,1.0,mitten_10s.jpg,1.0,clockno_default.jpg,6.0,7,,,,,,,,,,,,,,,,,,,,,,,,,,,,,,,,
0.0,1.0,1.39009,0.0,34.0,34.0,34.0,1.0,emerald_02s.jpg,0.0,clockno_default.jpg,6.0,7,,,,,,,,,,,,,,,,,,,,,,,,,,,,,,,,
0.0,1.0,1.01623,0.0,35.0,35.0,35.0,1.0,turf_03s.jpg,0.0,clockno_default.jpg,6.0,7,,,,,,,,,,,,,,,,,,,,,,,,,,,,,,,,
,,,,,,,,,1.0,,,7,0.0,0.0,3.165335,0.0,0.0,0.0,0.0,1.0,letter_opener_03s.jpg,dirt_bike_11s.jpg,,,,,,,,,,,,,,,,,,,,,,
,,,,,,,,,0.0,,,7,1.0,0.0,2.796405,0.0,1.0,1.0,1.0,1.0,lamp_08s.jpg,screwdriver02a.jpg,,,,,,,,,,,,,,,,,,,,,,
,,,,,,,,,0.0,,,7,0.0,1.0,1.595655,0.0,2.0,2.0,2.0,1.0,razor_12s.jpg,kangaroo_02s.jpg,,,,,,,,,,,,,,,,,,,,,,
,,,,,,,,,0.0,,,7,0.0,1.0,1.320115,0.0,3.0,3.0,3.0,1.0,stump_02s.jpg,pocket_watch_16s.jpg,,,,,,,,,,,,,,,,,,,,,,
,,,,,,,,,1.0,,,7,1.0,1.0,1.429185,0.0,4.0,4.0,4.0,1.0,clover_04s.jpg,bacon_05s.jpg,,,,,,,,,,,,,,,,,,,,,,
,,,,,,,,,1.0,,,7,1.0,1.0,2.59663,0.0,5.0,5.0,5.0,1.0,duck_01b.jpg,binder_21s.jpg,,,,,,,,,,,,,,,,,,,,,,
,,,,,,,,,,,,7,,,,,,,,,,,0.0,1.0,1.0,1.0,1.0,clockno_present_2_3.xlsx,clockno_compare_task_2_3.xlsx,,,,,,,,,,,,,,,
0.0,1.0,1.513905,0.0,0.0,0.0,0.0,1.0,mosquito_12s.jpg,0.0,clockno_up.jpg,1.0,7,,,,,,,,,,,,,,,,,,,,,,,,,,,,,,,,
0.0,1.0,0.591795,0.0,1.0,1.0,1.0,1.0,power_line_08s.jpg,0.0,clockno_default.jpg,1.0,7,,,,,,,,,,,,,,,,,,,,,,,,,,,,,,,,
1.0,1.0,0.77654,0.0,2.0,2.0,2.0,1.0,power_line_08s.jpg,1.0,clockno_default.jpg,1.0,7,,,,,,,,,,,,,,,,,,,,,,,,,,,,,,,,
0.0,1.0,1.182495,0.0,3.0,3.0,3.0,1.0,tennis_ball_06s.jpg,0.0,clockno_default.jpg,1.0,7,,,,,,,,,,,,,,,,,,,,,,,,,,,,,,,,
0.0,1.0,0.75692,0.0,4.0,4.0,4.0,1.0,syringe_02s.jpg,0.0,clockno_default.jpg,1.0,7,,,,,,,,,,,,,,,,,,,,,,,,,,,,,,,,
1.0,1.0,1.553305,0.0,5.0,5.0,5.0,1.0,power_line_08s.jpg,1.0,clockno_default.jpg,1.0,7,,,,,,,,,,,,,,,,,,,,,,,,,,,,,,,,
0.0,1.0,0.858305,0.0,6.0,6.0,6.0,1.0,phone_01b.jpg,0.0,clockno_default.jpg,1.0,7,,,,,,,,,,,,,,,,,,,,,,,,,,,,,,,,
0.0,1.0,1.115085,0.0,7.0,7.0,7.0,1.0,keyboard_05s.jpg,0.0,clockno_up.jpg,2.0,7,,,,,,,,,,,,,,,,,,,,,,,,,,,,,,,,
1.0,1.0,1.624205,0.0,8.0,8.0,8.0,1.0,keyboard_05s.jpg,1.0,clockno_default.jpg,2.0,7,,,,,,,,,,,,,,,,,,,,,,,,,,,,,,,,
0.0,1.0,0.77461,0.0,9.0,9.0,9.0,1.0,ant_12s.jpg,0.0,clockno_default.jpg,2.0,7,,,,,,,,,,,,,,,,,,,,,,,,,,,,,,,,
0.0,1.0,0.701375,0.0,10.0,10.0,10.0,1.0,squirrel_02s.jpg,0.0,clockno_default.jpg,2.0,7,,,,,,,,,,,,,,,,,,,,,,,,,,,,,,,,
0.0,1.0,0.68513,0.0,11.0,11.0,11.0,1.0,mailbox_11s.jpg,0.0,clockno_default.jpg,2.0,7,,,,,,,,,,,,,,,,,,,,,,,,,,,,,,,,
0.0,1.0,1.088165,0.0,12.0,12.0,12.0,1.0,medal_04s.jpg,0.0,clockno_up.jpg,3.0,7,,,,,,,,,,,,,,,,,,,,,,,,,,,,,,,,
0.0,1.0,0.715065,0.0,13.0,13.0,13.0,1.0,ice-cream_cone_06s.jpg,0.0,clockno_default.jpg,3.0,7,,,,,,,,,,,,,,,,,,,,,,,,,,,,,,,,
0.0,1.0,0.78911,0.0,14.0,14.0,14.0,1.0,rabbit_03s.jpg,0.0,clockno_default.jpg,3.0,7,,,,,,,,,,,,,,,,,,,,,,,,,,,,,,,,
0.0,1.0,1.34986,0.0,15.0,15.0,15.0,1.0,ukulele_02s.jpg,0.0,clockno_default.jpg,3.0,7,,,,,,,,,,,,,,,,,,,,,,,,,,,,,,,,
0.0,1.0,1.235445,0.0,16.0,16.0,16.0,1.0,marshmallow_08s.jpg,0.0,clockno_default.jpg,3.0,7,,,,,,,,,,,,,,,,,,,,,,,,,,,,,,,,
0.0,1.0,0.892785,0.0,17.0,17.0,17.0,1.0,air_pump_05s.jpg,0.0,clockno_up.jpg,4.0,7,,,,,,,,,,,,,,,,,,,,,,,,,,,,,,,,
0.0,1.0,0.699265,0.0,18.0,18.0,18.0,1.0,pocketknife_12s.jpg,0.0,clockno_default.jpg,4.0,7,,,,,,,,,,,,,,,,,,,,,,,,,,,,,,,,
0.0,1.0,0.877105,0.0,19.0,19.0,19.0,1.0,torch_02s.jpg,0.0,clockno_default.jpg,4.0,7,,,,,,,,,,,,,,,,,,,,,,,,,,,,,,,,
1.0,1.0,0.92896,0.0,20.0,20.0,20.0,1.0,torch_02s.jpg,1.0,clockno_default.jpg,4.0,7,,,,,,,,,,,,,,,,,,,,,,,,,,,,,,,,
0.0,1.0,1.139015,0.0,21.0,21.0,21.0,1.0,bank_06s.jpg,0.0,clockno_default.jpg,4.0,7,,,,,,,,,,,,,,,,,,,,,,,,,,,,,,,,
0.0,1.0,1.060255,0.0,22.0,22.0,22.0,1.0,bottle_opener_11s.jpg,0.0,clockno_default.jpg,4.0,7,,,,,,,,,,,,,,,,,,,,,,,,,,,,,,,,
0.0,1.0,0.83838,0.0,23.0,23.0,23.0,1.0,toilet_07s.jpg,0.0,clockno_default.jpg,4.0,7,,,,,,,,,,,,,,,,,,,,,,,,,,,,,,,,
0.0,1.0,1.251345,0.0,24.0,24.0,24.0,1.0,rocket_02s.jpg,0.0,clockno_up.jpg,5.0,7,,,,,,,,,,,,,,,,,,,,,,,,,,,,,,,,
0.0,1.0,0.911375,0.0,25.0,25.0,25.0,1.0,ravioli_08s.jpg,0.0,clockno_default.jpg,5.0,7,,,,,,,,,,,,,,,,,,,,,,,,,,,,,,,,
1.0,1.0,1.21914,0.0,26.0,26.0,26.0,1.0,ravioli_08s.jpg,1.0,clockno_default.jpg,5.0,7,,,,,,,,,,,,,,,,,,,,,,,,,,,,,,,,
0.0,1.0,0.95211,0.0,27.0,27.0,27.0,1.0,popsicle_02s.jpg,0.0,clockno_default.jpg,5.0,7,,,,,,,,,,,,,,,,,,,,,,,,,,,,,,,,
1.0,1.0,0.866475,0.0,28.0,28.0,28.0,1.0,rocket_02s.jpg,1.0,clockno_default.jpg,5.0,7,,,,,,,,,,,,,,,,,,,,,,,,,,,,,,,,
0.0,1.0,0.633255,0.0,29.0,29.0,29.0,1.0,onion_10s.jpg,0.0,clockno_default.jpg,5.0,7,,,,,,,,,,,,,,,,,,,,,,,,,,,,,,,,
0.0,1.0,1.33646,0.0,30.0,30.0,30.0,1.0,omelet_07s.jpg,0.0,clockno_up.jpg,6.0,7,,,,,,,,,,,,,,,,,,,,,,,,,,,,,,,,
0.0,1.0,0.59698,0.0,31.0,31.0,31.0,1.0,tennis_ball_06s.jpg,0.0,clockno_default.jpg,6.0,7,,,,,,,,,,,,,,,,,,,,,,,,,,,,,,,,
0.0,1.0,2.339845,0.0,32.0,32.0,32.0,1.0,microwave_02s.jpg,0.0,clockno_default.jpg,6.0,7,,,,,,,,,,,,,,,,,,,,,,,,,,,,,,,,
0.0,1.0,0.820265,0.0,33.0,33.0,33.0,1.0,chocolate_01b.jpg,0.0,clockno_default.jpg,6.0,7,,,,,,,,,,,,,,,,,,,,,,,,,,,,,,,,
0.0,1.0,1.319865,0.0,34.0,34.0,34.0,1.0,knot_01b.jpg,0.0,clockno_default.jpg,6.0,7,,,,,,,,,,,,,,,,,,,,,,,,,,,,,,,,
0.0,1.0,0.811485,0.0,35.0,35.0,35.0,1.0,rice_12s.jpg,0.0,clockno_default.jpg,6.0,7,,,,,,,,,,,,,,,,,,,,,,,,,,,,,,,,
,,,,,,,,,0.0,,,7,1.0,0.0,5.54781,0.0,0.0,0.0,0.0,1.0,ant_12s.jpg,phone_01b.jpg,,,,,,,,,,,,,,,,,,,,,,
,,,,,,,,,1.0,,,7,1.0,1.0,1.41164,0.0,1.0,1.0,1.0,1.0,mailbox_11s.jpg,rabbit_03s.jpg,,,,,,,,,,,,,,,,,,,,,,
,,,,,,,,,1.0,,,7,1.0,1.0,1.96392,0.0,2.0,2.0,2.0,1.0,squirrel_02s.jpg,ice-cream_cone_06s.jpg,,,,,,,,,,,,,,,,,,,,,,
,,,,,,,,,1.0,,,7,1.0,1.0,1.3753,0.0,3.0,3.0,3.0,1.0,pocketknife_12s.jpg,bank_06s.jpg,,,,,,,,,,,,,,,,,,,,,,
,,,,,,,,,1.0,,,7,0.0,0.0,1.43033,0.0,4.0,4.0,4.0,1.0,omelet_07s.jpg,chocolate_01b.jpg,,,,,,,,,,,,,,,,,,,,,,
,,,,,,,,,0.0,,,7,1.0,0.0,1.387915,0.0,5.0,5.0,5.0,1.0,rice_12s.jpg,microwave_02s.jpg,,,,,,,,,,,,,,,,,,,,,,
,,,,,,,,,,,,7,,,,,,,,,,,0.0,2.0,2.0,2.0,1.0,clockno_present_3_3.xlsx,clockno_compare_task_3_3.xlsx,,,,,,,,,,,,,,,
0.0,1.0,2.346665,0.0,0.0,0.0,0.0,1.0,trident_07s.jpg,0.0,clockno_up.jpg,1.0,7,,,,,,,,,,,,,,,,,,,,,,,,,,,,,,,,
1.0,1.0,0.71639,0.0,1.0,1.0,1.0,1.0,trident_07s.jpg,1.0,clockno_default.jpg,1.0,7,,,,,,,,,,,,,,,,,,,,,,,,,,,,,,,,
1.0,1.0,0.734675,0.0,2.0,2.0,2.0,1.0,trident_07s.jpg,1.0,clockno_default.jpg,1.0,7,,,,,,,,,,,,,,,,,,,,,,,,,,,,,,,,
0.0,1.0,0.705065,0.0,3.0,3.0,3.0,1.0,tie_03s.jpg,0.0,clockno_default.jpg,1.0,7,,,,,,,,,,,,,,,,,,,,,,,,,,,,,,,,
0.0,1.0,0.441755,0.0,4.0,4.0,4.0,1.0,loveseat_08s.jpg,0.0,clockno_default.jpg,1.0,7,,,,,,,,,,,,,,,,,,,,,,,,,,,,,,,,
0.0,1.0,1.087125,0.0,5.0,5.0,5.0,1.0,penlight_12s.jpg,0.0,clockno_default.jpg,1.0,7,,,,,,,,,,,,,,,,,,,,,,,,,,,,,,,,
1.0,1.0,0.953715,0.0,6.0,6.0,6.0,1.0,tie_03s.jpg,1.0,clockno_default.jpg,1.0,7,,,,,,,,,,,,,,,,,,,,,,,,,,,,,,,,
,0.0,,0.0,7.0,7.0,7.0,1.0,frame_06s.jpg,0.0,clockno_up.jpg,2.0,7,,,,,,,,,,,,,,,,,,,,,,,,,,,,,,,,
0.0,1.0,0.845095,0.0,8.0,8.0,8.0,1.0,tie_03s.jpg,0.0,clockno_default.jpg,2.0,7,,,,,,,,,,,,,,,,,,,,,,,,,,,,,,,,
0.0,1.0,1.71324,0.0,9.0,9.0,9.0,1.0,rocking_chair_05s.jpg,0.0,clockno_default.jpg,2.0,7,,,,,,,,,,,,,,,,,,,,,,,,,,,,,,,,
1.0,1.0,1.70692,0.0,10.0,10.0,10.0,1.0,tie_03s.jpg,1.0,clockno_default.jpg,2.0,7,,,,,,,,,,,,,,,,,,,,,,,,,,,,,,,,
0.0,1.0,0.70895,0.0,11.0,11.0,11.0,1.0,metronome_03s.jpg,0.0,clockno_default.jpg,2.0,7,,,,,,,,,,,,,,,,,,,,,,,,,,,,,,,,
0.0,1.0,0.59398,0.0,12.0,12.0,12.0,1.0,foam_03s.jpg,0.0,clockno_default.jpg,2.0,7,,,,,,,,,,,,,,,,,,,,,,,,,,,,,,,,
0.0,1.0,0.643105,0.0,13.0,13.0,13.0,1.0,refrigerator_07s.jpg,0.0,clockno_up.jpg,3.0,7,,,,,,,,,,,,,,,,,,,,,,,,,,,,,,,,
0.0,1.0,0.73805,0.0,14.0,14.0,14.0,1.0,stingray_02s.jpg,0.0,clockno_default.jpg,3.0,7,,,,,,,,,,,,,,,,,,,,,,,,,,,,,,,,
0.0,1.0,0.715775,0.0,15.0,15.0,15.0,1.0,crystal_ball_12s.jpg,0.0,clockno_default.jpg,3.0,7,,,,,,,,,,,,,,,,,,,,,,,,,,,,,,,,
0.0,1.0,0.702795,0.0,16.0,16.0,16.0,1.0,lava_02s.jpg,0.0,clockno_default.jpg,3.0,7,,,,,,,,,,,,,,,,,,,,,,,,,,,,,,,,
0.0,1.0,0.605675,0.0,17.0,17.0,17.0,1.0,seahorse_13s.jpg,0.0,clockno_default.jpg,3.0,7,,,,,,,,,,,,,,,,,,,,,,,,,,,,,,,,
0.0,1.0,0.55601,0.0,18.0,18.0,18.0,1.0,stamp2_08s.jpg,0.0,clockno_up.jpg,4.0,7,,,,,,,,,,,,,,,,,,,,,,,,,,,,,,,,
0.0,1.0,0.962705,0.0,19.0,19.0,19.0,1.0,trident_07s.jpg,0.0,clockno_default.jpg,4.0,7,,,,,,,,,,,,,,,,,,,,,,,,,,,,,,,,
0.0,1.0,0.857765,0.0,20.0,20.0,20.0,1.0,rake_06s.jpg,0.0,clockno_default.jpg,4.0,7,,,,,,,,,,,,,,,,,,,,,,,,,,,,,,,,
0.0,1.0,0.724615,0.0,21.0,21.0,21.0,1.0,toaster_03s.jpg,0.0,clockno_default.jpg,4.0,7,,,,,,,,,,,,,,,,,,,,,,,,,,,,,,,,
0.0,1.0,2.30128,0.0,22.0,22.0,22.0,1.0,scooter.jpg,0.0,clockno_default.jpg,4.0,7,,,,,,,,,,,,,,,,,,,,,,,,,,,,,,,,
1.0,1.0,0.8801,0.0,23.0,23.0,23.0,1.0,toaster_03s.jpg,1.0,clockno_default.jpg,4.0,7,,,,,,,,,,,,,,,,,,,,,,,,,,,,,,,,
0.0,1.0,0.67007,0.0,24.0,24.0,24.0,1.0,meatball_13s.jpg,0.0,clockno_default.jpg,4.0,7,,,,,,,,,,,,,,,,,,,,,,,,,,,,,,,,
0.0,1.0,1.424465,0.0,25.0,25.0,25.0,1.0,lion_18s.jpg,0.0,clockno_up.jpg,5.0,7,,,,,,,,,,,,,,,,,,,,,,,,,,,,,,,,
0.0,1.0,0.755065,0.0,26.0,26.0,26.0,1.0,playpen_11s.jpg,0.0,clockno_default.jpg,5.0,7,,,,,,,,,,,,,,,,,,,,,,,,,,,,,,,,
0.0,1.0,0.800885,0.0,27.0,27.0,27.0,1.0,mango_09s.jpg,0.0,clockno_default.jpg,5.0,7,,,,,,,,,,,,,,,,,,,,,,,,,,,,,,,,
0.0,1.0,0.728995,0.0,28.0,28.0,28.0,1.0,laundry_basket_11s.jpg,0.0,clockno_default.jpg,5.0,7,,,,,,,,,,,,,,,,,,,,,,,,,,,,,,,,
0.0,1.0,0.83466,0.0,29.0,29.0,29.0,1.0,thermostat_02s.jpg,0.0,clockno_default.jpg,5.0,7,,,,,,,,,,,,,,,,,,,,,,,,,,,,,,,,
0.0,1.0,1.121125,0.0,30.0,30.0,30.0,1.0,treadmill_06s.jpg,0.0,clockno_up.jpg,6.0,7,,,,,,,,,,,,,,,,,,,,,,,,,,,,,,,,
0.0,1.0,0.846445,0.0,31.0,31.0,31.0,1.0,rocking_chair_05s.jpg,0.0,clockno_default.jpg,6.0,7,,,,,,,,,,,,,,,,,,,,,,,,,,,,,,,,
0.0,1.0,0.824225,0.0,32.0,32.0,32.0,1.0,basket_05s.jpg,0.0,clockno_default.jpg,6.0,7,,,,,,,,,,,,,,,,,,,,,,,,,,,,,,,,
1.0,1.0,0.92378,0.0,33.0,33.0,33.0,1.0,treadmill_06s.jpg,1.0,clockno_default.jpg,6.0,7,,,,,,,,,,,,,,,,,,,,,,,,,,,,,,,,
0.0,1.0,0.77365,0.0,34.0,34.0,34.0,1.0,foam_03s.jpg,0.0,clockno_default.jpg,6.0,7,,,,,,,,,,,,,,,,,,,,,,,,,,,,,,,,
1.0,1.0,0.938735,0.0,35.0,35.0,35.0,1.0,foam_03s.jpg,1.0,clockno_default.jpg,6.0,7,,,,,,,,,,,,,,,,,,,,,,,,,,,,,,,,
,,,,,,,,,0.0,,,7,0.0,1.0,3.60248,0.0,0.0,0.0,0.0,1.0,frame_06s.jpg,loveseat_08s.jpg,,,,,,,,,,,,,,,,,,,,,,
,,,,,,,,,1.0,,,7,0.0,0.0,1.476515,0.0,1.0,1.0,1.0,1.0,crystal_ball_12s.jpg,stamp2_08s.jpg,,,,,,,,,,,,,,,,,,,,,,
,,,,,,,,,1.0,,,7,1.0,1.0,2.856145,0.0,2.0,2.0,2.0,1.0,meatball_13s.jpg,mango_09s.jpg,,,,,,,,,,,,,,,,,,,,,,
,,,,,,,,,0.0,,,7,1.0,0.0,1.70057,0.0,3.0,3.0,3.0,1.0,lava_02s.jpg,refrigerator_07s.jpg,,,,,,,,,,,,,,,,,,,,,,
,,,,,,,,,0.0,,,7,0.0,1.0,1.97231,0.0,4.0,4.0,4.0,1.0,laundry_basket_11s.jpg,lion_18s.jpg,,,,,,,,,,,,,,,,,,,,,,
,,,,,,,,,1.0,,,7,1.0,1.0,1.429755,0.0,5.0,5.0,5.0,1.0,playpen_11s.jpg,thermostat_02s.jpg,,,,,,,,,,,,,,,,,,,,,,
,,,,,,,,,,,,7,,,,,,,,,,,0.0,3.0,3.0,3.0,1.0,clockno_present_4_3.xlsx,clockno_compare_task_4_3.xlsx,,,,,,,,,,,,,,,
0.0,1.0,1.5228,0.0,0.0,0.0,0.0,1.0,latte_06s.jpg,0.0,clockno_up.jpg,1.0,7,,,,,,,,,,,,,,,,,,,,,,,,,,,,,,,,
0.0,1.0,1.306375,0.0,1.0,1.0,1.0,1.0,lemonade_04s.jpg,0.0,clockno_default.jpg,1.0,7,,,,,,,,,,,,,,,,,,,,,,,,,,,,,,,,
1.0,1.0,0.849405,0.0,2.0,2.0,2.0,1.0,lemonade_04s.jpg,1.0,clockno_default.jpg,1.0,7,,,,,,,,,,,,,,,,,,,,,,,,,,,,,,,,
1.0,1.0,0.92236,0.0,3.0,3.0,3.0,1.0,latte_06s.jpg,1.0,clockno_default.jpg,1.0,7,,,,,,,,,,,,,,,,,,,,,,,,,,,,,,,,
1.0,1.0,2.431885,0.0,4.0,4.0,4.0,1.0,lemonade_04s.jpg,1.0,clockno_default.jpg,1.0,7,,,,,,,,,,,,,,,,,,,,,,,,,,,,,,,,
0.0,1.0,0.82302,0.0,5.0,5.0,5.0,1.0,orangutan_03s.jpg,0.0,clockno_up.jpg,2.0,7,,,,,,,,,,,,,,,,,,,,,,,,,,,,,,,,
0.0,1.0,0.92104,0.0,6.0,6.0,6.0,1.0,pomegranate_04s.jpg,0.0,clockno_default.jpg,2.0,7,,,,,,,,,,,,,,,,,,,,,,,,,,,,,,,,
0.0,1.0,0.79863,0.0,7.0,7.0,7.0,1.0,jetski_10s.jpg,0.0,clockno_default.jpg,2.0,7,,,,,,,,,,,,,,,,,,,,,,,,,,,,,,,,
0.0,1.0,1.558215,0.0,8.0,8.0,8.0,1.0,champagne_18s.jpg,0.0,clockno_default.jpg,2.0,7,,,,,,,,,,,,,,,,,,,,,,,,,,,,,,,,
0.0,1.0,0.61227,0.0,9.0,9.0,9.0,1.0,spoon02a.jpg,0.0,clockno_default.jpg,2.0,7,,,,,,,,,,,,,,,,,,,,,,,,,,,,,,,,
0.0,1.0,1.64996,0.0,10.0,10.0,10.0,1.0,loom_05s.jpg,0.0,clockno_up.jpg,3.0,7,,,,,,,,,,,,,,,,,,,,,,,,,,,,,,,,
1.0,1.0,0.787315,0.0,11.0,11.0,11.0,1.0,loom_05s.jpg,1.0,clockno_default.jpg,3.0,7,,,,,,,,,,,,,,,,,,,,,,,,,,,,,,,,
0.0,1.0,0.59603,0.0,12.0,12.0,12.0,1.0,bagel_15s.jpg,0.0,clockno_default.jpg,3.0,7,,,,,,,,,,,,,,,,,,,,,,,,,,,,,,,,
0.0,1.0,0.642495,0.0,13.0,13.0,13.0,1.0,boar_10s.jpg,0.0,clockno_default.jpg,3.0,7,,,,,,,,,,,,,,,,,,,,,,,,,,,,,,,,
0.0,1.0,0.62859,0.0,14.0,14.0,14.0,1.0,pipe1_10s.jpg,0.0,clockno_default.jpg,3.0,7,,,,,,,,,,,,,,,,,,,,,,,,,,,,,,,,
0.0,1.0,0.49816,0.0,15.0,15.0,15.0,1.0,pepper2_21s.jpg,0.0,clockno_default.jpg,3.0,7,,,,,,,,,,,,,,,,,,,,,,,,,,,,,,,,
0.0,1.0,1.082795,0.0,16.0,16.0,16.0,1.0,powder_07s.jpg,0.0,clockno_up.jpg,4.0,7,,,,,,,,,,,,,,,,,,,,,,,,,,,,,,,,
0.0,1.0,0.80945,0.0,17.0,17.0,17.0,1.0,fishhook_06s.jpg,0.0,clockno_default.jpg,4.0,7,,,,,,,,,,,,,,,,,,,,,,,,,,,,,,,,
0.0,1.0,0.65751,0.0,18.0,18.0,18.0,1.0,briefcase_03s.jpg,0.0,clockno_default.jpg,4.0,7,,,,,,,,,,,,,,,,,,,,,,,,,,,,,,,,
0.0,1.0,0.71363,0.0,19.0,19.0,19.0,1.0,rug_09s.jpg,0.0,clockno_default.jpg,4.0,7,,,,,,,,,,,,,,,,,,,,,,,,,,,,,,,,
1.0,1.0,1.992005,0.0,20.0,20.0,20.0,1.0,fishhook_06s.jpg,1.0,clockno_default.jpg,4.0,7,,,,,,,,,,,,,,,,,,,,,,,,,,,,,,,,
1.0,1.0,1.272425,0.0,21.0,21.0,21.0,1.0,rug_09s.jpg,1.0,clockno_default.jpg,4.0,7,,,,,,,,,,,,,,,,,,,,,,,,,,,,,,,,
0.0,1.0,0.83729,0.0,22.0,22.0,22.0,1.0,aluminum_foil_08s.jpg,0.0,clockno_up.jpg,5.0,7,,,,,,,,,,,,,,,,,,,,,,,,,,,,,,,,
0.0,1.0,0.955475,0.0,23.0,23.0,23.0,1.0,pea_11s.jpg,0.0,clockno_default.jpg,5.0,7,,,,,,,,,,,,,,,,,,,,,,,,,,,,,,,,
0.0,1.0,0.7806,0.0,24.0,24.0,24.0,1.0,flip_flop_03s.jpg,0.0,clockno_default.jpg,5.0,7,,,,,,,,,,,,,,,,,,,,,,,,,,,,,,,,
0.0,1.0,0.58181,0.0,25.0,25.0,25.0,1.0,mixer_12s.jpg,0.0,clockno_default.jpg,5.0,7,,,,,,,,,,,,,,,,,,,,,,,,,,,,,,,,
0.0,1.0,0.790285,0.0,26.0,26.0,26.0,1.0,ironing_board_07s.jpg,0.0,clockno_default.jpg,5.0,7,,,,,,,,,,,,,,,,,,,,,,,,,,,,,,,,
1.0,0.0,1.244165,0.0,27.0,27.0,27.0,1.0,fishhook_06s.jpg,0.0,clockno_default.jpg,5.0,7,,,,,,,,,,,,,,,,,,,,,,,,,,,,,,,,
1.0,1.0,1.08201,0.0,28.0,28.0,28.0,1.0,pea_11s.jpg,1.0,clockno_default.jpg,5.0,7,,,,,,,,,,,,,,,,,,,,,,,,,,,,,,,,
0.0,1.0,1.69853,0.0,29.0,29.0,29.0,1.0,chalice_10s.jpg,0.0,clockno_up.jpg,6.0,7,,,,,,,,,,,,,,,,,,,,,,,,,,,,,,,,
0.0,1.0,0.78195,0.0,30.0,30.0,30.0,1.0,triangle_10s.jpg,0.0,clockno_default.jpg,6.0,7,,,,,,,,,,,,,,,,,,,,,,,,,,,,,,,,
0.0,1.0,0.85346,0.0,31.0,31.0,31.0,1.0,iron_13s.jpg,0.0,clockno_default.jpg,6.0,7,,,,,,,,,,,,,,,,,,,,,,,,,,,,,,,,
1.0,1.0,0.83443,0.0,32.0,32.0,32.0,1.0,chalice_10s.jpg,1.0,clockno_default.jpg,6.0,7,,,,,,,,,,,,,,,,,,,,,,,,,,,,,,,,
0.0,1.0,0.806865,0.0,33.0,33.0,33.0,1.0,puffin_19s.jpg,0.0,clockno_default.jpg,6.0,7,,,,,,,,,,,,,,,,,,,,,,,,,,,,,,,,
0.0,1.0,1.33344,0.0,34.0,34.0,34.0,1.0,saddle_06s.jpg,0.0,clockno_default.jpg,6.0,7,,,,,,,,,,,,,,,,,,,,,,,,,,,,,,,,
0.0,1.0,0.781585,0.0,35.0,35.0,35.0,1.0,megaphone_03s.jpg,0.0,clockno_default.jpg,6.0,7,,,,,,,,,,,,,,,,,,,,,,,,,,,,,,,,
,,,,,,,,,0.0,,,7,0.0,1.0,1.757805,0.0,0.0,0.0,0.0,1.0,powder_07s.jpg,boar_10s.jpg,,,,,,,,,,,,,,,,,,,,,,
,,,,,,,,,0.0,,,7,0.0,1.0,2.020805,0.0,1.0,1.0,1.0,1.0,briefcase_03s.jpg,pepper2_21s.jpg,,,,,,,,,,,,,,,,,,,,,,
,,,,,,,,,1.0,,,7,0.0,0.0,2.047385,0.0,2.0,2.0,2.0,1.0,spoon02a.jpg,bagel_15s.jpg,,,,,,,,,,,,,,,,,,,,,,
,,,,,,,,,1.0,,,7,0.0,0.0,1.321155,0.0,3.0,3.0,3.0,1.0,orangutan_03s.jpg,champagne_18s.jpg,,,,,,,,,,,,,,,,,,,,,,
,,,,,,,,,0.0,,,7,0.0,1.0,3.15914,0.0,4.0,4.0,4.0,1.0,mixer_12s.jpg,aluminum_foil_08s.jpg,,,,,,,,,,,,,,,,,,,,,,
,,,,,,,,,1.0,,,7,1.0,1.0,1.56692,0.0,5.0,5.0,5.0,1.0,triangle_10s.jpg,puffin_19s.jpg,,,,,,,,,,,,,,,,,,,,,,
,,,,,,,,,,,,7,,,,,,,,,,,0.0,4.0,4.0,4.0,1.0,clockno_present_5_3.xlsx,clockno_compare_task_5_3.xlsx,,,,,,,,,,,,,,,
0.0,1.0,1.70953,0.0,0.0,0.0,0.0,1.0,padlock_07s.jpg,0.0,clockno_up.jpg,1.0,7,,,,,,,,,,,,,,,,,,,,,,,,,,,,,,,,
1.0,1.0,2.07333,0.0,1.0,1.0,1.0,1.0,padlock_07s.jpg,1.0,clockno_default.jpg,1.0,7,,,,,,,,,,,,,,,,,,,,,,,,,,,,,,,,
0.0,1.0,0.692525,0.0,2.0,2.0,2.0,1.0,paper_towel_03s.jpg,0.0,clockno_default.jpg,1.0,7,,,,,,,,,,,,,,,,,,,,,,,,,,,,,,,,
0.0,1.0,1.263195,0.0,3.0,3.0,3.0,1.0,perfume_06s.jpg,0.0,clockno_default.jpg,1.0,7,,,,,,,,,,,,,,,,,,,,,,,,,,,,,,,,
0.0,1.0,0.77012,0.0,4.0,4.0,4.0,1.0,thorn_13s.jpg,0.0,clockno_default.jpg,1.0,7,,,,,,,,,,,,,,,,,,,,,,,,,,,,,,,,
0.0,1.0,1.13726,0.0,5.0,5.0,5.0,1.0,film_03s.jpg,0.0,clockno_up.jpg,2.0,7,,,,,,,,,,,,,,,,,,,,,,,,,,,,,,,,
0.0,1.0,0.95548,0.0,6.0,6.0,6.0,1.0,pan_02s.jpg,0.0,clockno_default.jpg,2.0,7,,,,,,,,,,,,,,,,,,,,,,,,,,,,,,,,
1.0,1.0,1.50852,0.0,7.0,7.0,7.0,1.0,pan_02s.jpg,1.0,clockno_default.jpg,2.0,7,,,,,,,,,,,,,,,,,,,,,,,,,,,,,,,,
0.0,1.0,0.539645,0.0,8.0,8.0,8.0,1.0,seagull_01b.jpg,0.0,clockno_default.jpg,2.0,7,,,,,,,,,,,,,,,,,,,,,,,,,,,,,,,,
1.0,1.0,0.739855,0.0,9.0,9.0,9.0,1.0,seagull_01b.jpg,1.0,clockno_default.jpg,2.0,7,,,,,,,,,,,,,,,,,,,,,,,,,,,,,,,,
1.0,0.0,1.199755,0.0,10.0,10.0,10.0,1.0,perfume_06s.jpg,0.0,clockno_default.jpg,2.0,7,,,,,,,,,,,,,,,,,,,,,,,,,,,,,,,,
0.0,1.0,1.52406,0.0,11.0,11.0,11.0,1.0,ram_05s.jpg,0.0,clockno_up.jpg,3.0,7,,,,,,,,,,,,,,,,,,,,,,,,,,,,,,,,
0.0,1.0,0.90677,0.0,12.0,12.0,12.0,1.0,stamp1_11s.jpg,0.0,clockno_default.jpg,3.0,7,,,,,,,,,,,,,,,,,,,,,,,,,,,,,,,,
0.0,1.0,0.71754,0.0,13.0,13.0,13.0,1.0,thorn_13s.jpg,0.0,clockno_default.jpg,3.0,7,,,,,,,,,,,,,,,,,,,,,,,,,,,,,,,,
0.0,1.0,0.723915,0.0,14.0,14.0,14.0,1.0,jersey_02s.jpg,0.0,clockno_default.jpg,3.0,7,,,,,,,,,,,,,,,,,,,,,,,,,,,,,,,,
1.0,1.0,1.48711,0.0,15.0,15.0,15.0,1.0,thorn_13s.jpg,1.0,clockno_default.jpg,3.0,7,,,,,,,,,,,,,,,,,,,,,,,,,,,,,,,,
0.0,1.0,0.70194,0.0,16.0,16.0,16.0,1.0,coat_rack_01b.jpg,0.0,clockno_default.jpg,3.0,7,,,,,,,,,,,,,,,,,,,,,,,,,,,,,,,,
1.0,1.0,1.222355,0.0,17.0,17.0,17.0,1.0,stamp1_11s.jpg,1.0,clockno_default.jpg,3.0,7,,,,,,,,,,,,,,,,,,,,,,,,,,,,,,,,
0.0,1.0,1.18904,0.0,18.0,18.0,18.0,1.0,flask_04s.jpg,0.0,clockno_up.jpg,4.0,7,,,,,,,,,,,,,,,,,,,,,,,,,,,,,,,,
0.0,1.0,0.84438,0.0,19.0,19.0,19.0,1.0,gazelle_10s.jpg,0.0,clockno_default.jpg,4.0,7,,,,,,,,,,,,,,,,,,,,,,,,,,,,,,,,
0.0,1.0,0.92361,0.0,20.0,20.0,20.0,1.0,mascara_03s.jpg,0.0,clockno_default.jpg,4.0,7,,,,,,,,,,,,,,,,,,,,,,,,,,,,,,,,
0.0,1.0,0.74144,0.0,21.0,21.0,21.0,1.0,tuxedo_01b.jpg,0.0,clockno_default.jpg,4.0,7,,,,,,,,,,,,,,,,,,,,,,,,,,,,,,,,
0.0,1.0,0.953645,0.0,22.0,22.0,22.0,1.0,radiator_05s.jpg,0.0,clockno_default.jpg,4.0,7,,,,,,,,,,,,,,,,,,,,,,,,,,,,,,,,
0.0,1.0,1.980895,0.0,23.0,23.0,23.0,1.0,possum_09s.jpg,0.0,clockno_default.jpg,4.0,7,,,,,,,,,,,,,,,,,,,,,,,,,,,,,,,,
0.0,1.0,0.71053,0.0,24.0,24.0,24.0,1.0,pacifier_09s.jpg,0.0,clockno_up.jpg,5.0,7,,,,,,,,,,,,,,,,,,,,,,,,,,,,,,,,
0.0,1.0,0.524405,0.0,25.0,25.0,25.0,1.0,paper_towel_03s.jpg,0.0,clockno_default.jpg,5.0,7,,,,,,,,,,,,,,,,,,,,,,,,,,,,,,,,
0.0,1.0,0.809275,0.0,26.0,26.0,26.0,1.0,peanut_butter_08s.jpg,0.0,clockno_default.jpg,5.0,7,,,,,,,,,,,,,,,,,,,,,,,,,,,,,,,,
0.0,1.0,1.070005,0.0,27.0,27.0,27.0,1.0,crossbow_10s.jpg,0.0,clockno_default.jpg,5.0,7,,,,,,,,,,,,,,,,,,,,,,,,,,,,,,,,
0.0,1.0,1.05199,0.0,28.0,28.0,28.0,1.0,pepper_mill_03s.jpg,0.0,clockno_default.jpg,5.0,7,,,,,,,,,,,,,,,,,,,,,,,,,,,,,,,,
0.0,1.0,1.05268,0.0,29.0,29.0,29.0,1.0,owl_15s.jpg,0.0,clockno_up.jpg,6.0,7,,,,,,,,,,,,,,,,,,,,,,,,,,,,,,,,
0.0,1.0,0.623005,0.0,30.0,30.0,30.0,1.0,raspberry_12s.jpg,0.0,clockno_default.jpg,6.0,7,,,,,,,,,,,,,,,,,,,,,,,,,,,,,,,,
,0.0,,0.0,31.0,31.0,31.0,1.0,printer_09s.jpg,0.0,clockno_default.jpg,6.0,7,,,,,,,,,,,,,,,,,,,,,,,,,,,,,,,,
0.0,1.0,1.09753,0.0,32.0,32.0,32.0,1.0,stamp1_11s.jpg,0.0,clockno_default.jpg,6.0,7,,,,,,,,,,,,,,,,,,,,,,,,,,,,,,,,
0.0,1.0,1.06001,0.0,33.0,33.0,33.0,1.0,cap_05s.jpg,0.0,clockno_default.jpg,6.0,7,,,,,,,,,,,,,,,,,,,,,,,,,,,,,,,,
1.0,1.0,0.646585,0.0,34.0,34.0,34.0,1.0,cap_05s.jpg,1.0,clockno_default.jpg,6.0,7,,,,,,,,,,,,,,,,,,,,,,,,,,,,,,,,
0.0,1.0,0.69346,0.0,35.0,35.0,35.0,1.0,stethoscope_01b.jpg,0.0,clockno_default.jpg,6.0,7,,,,,,,,,,,,,,,,,,,,,,,,,,,,,,,,
,,,,,,,,,1.0,,,7,0.0,0.0,2.733905,0.0,0.0,0.0,0.0,1.0,peanut_butter_08s.jpg,owl_15s.jpg,,,,,,,,,,,,,,,,,,,,,,
,,,,,,,,,1.0,,,7,0.0,0.0,1.428555,0.0,1.0,1.0,1.0,1.0,pepper_mill_03s.jpg,printer_09s.jpg,,,,,,,,,,,,,,,,,,,,,,
,,,,,,,,,1.0,,,7,0.0,0.0,1.785715,0.0,2.0,2.0,2.0,1.0,coat_rack_01b.jpg,gazelle_10s.jpg,,,,,,,,,,,,,,,,,,,,,,
,,,,,,,,,1.0,,,7,1.0,1.0,1.3104,0.0,3.0,3.0,3.0,1.0,ram_05s.jpg,jersey_02s.jpg,,,,,,,,,,,,,,,,,,,,,,
,,,,,,,,,1.0,,,7,1.0,1.0,1.36007,0.0,4.0,4.0,4.0,1.0,flask_04s.jpg,tuxedo_01b.jpg,,,,,,,,,,,,,,,,,,,,,,
,,,,,,,,,0.0,,,7,1.0,0.0,2.65808,0.0,5.0,5.0,5.0,1.0,possum_09s.jpg,mascara_03s.jpg,,,,,,,,,,,,,,,,,,,,,,
,0.0,,,,,,,peppermint_07s.jpg,0.0,clock_7_1.png,1.0,7,,,,,,,,,,,,,,,,,,0.0,0.0,0.0,0.0,1.0,,,,,,,,,,
0.0,1.0,0.88275,,,,,,buoy_04s.jpg,0.0,clock_7_2.png,1.0,7,,,,,,,,,,,,,,,,,,0.0,1.0,1.0,1.0,1.0,,,,,,,,,,
0.0,1.0,0.771645,,,,,,pancake_12s.jpg,0.0,clock_7_3.png,1.0,7,,,,,,,,,,,,,,,,,,0.0,2.0,2.0,2.0,1.0,,,,,,,,,,
1.0,1.0,1.689785,,,,,,pancake_12s.jpg,1.0,clock_7_4.png,1.0,7,,,,,,,,,,,,,,,,,,0.0,3.0,3.0,3.0,1.0,,,,,,,,,,
0.0,1.0,1.107075,,,,,,tape_06s.jpg,0.0,clock_7_5.png,1.0,7,,,,,,,,,,,,,,,,,,0.0,4.0,4.0,4.0,1.0,,,,,,,,,,
0.0,1.0,0.88362,,,,,,bowler_hat_10s.jpg,0.0,clock_7_6.png,1.0,7,,,,,,,,,,,,,,,,,,0.0,5.0,5.0,5.0,1.0,,,,,,,,,,
1.0,1.0,0.901155,,,,,,tape_06s.jpg,1.0,clock_7_7.png,1.0,7,,,,,,,,,,,,,,,,,,0.0,6.0,6.0,6.0,1.0,,,,,,,,,,
0.0,1.0,0.914655,,,,,,quill_09s.jpg,0.0,clock_6_1.png,2.0,7,,,,,,,,,,,,,,,,,,0.0,7.0,7.0,7.0,1.0,,,,,,,,,,
0.0,1.0,0.756445,,,,,,tablet_04s.jpg,0.0,clock_6_2.png,2.0,7,,,,,,,,,,,,,,,,,,0.0,8.0,8.0,8.0,1.0,,,,,,,,,,
0.0,1.0,0.982845,,,,,,olive_05s.jpg,0.0,clock_6_3.png,2.0,7,,,,,,,,,,,,,,,,,,0.0,9.0,9.0,9.0,1.0,,,,,,,,,,
0.0,1.0,1.118125,,,,,,puppet_01b.jpg,0.0,clock_6_4.png,2.0,7,,,,,,,,,,,,,,,,,,0.0,10.0,10.0,10.0,1.0,,,,,,,,,,
0.0,1.0,0.976785,,,,,,lip_gloss_06s.jpg,0.0,clock_6_5.png,2.0,7,,,,,,,,,,,,,,,,,,0.0,11.0,11.0,11.0,1.0,,,,,,,,,,
0.0,1.0,1.323705,,,,,,hyena_16s.jpg,0.0,clock_6_6.png,2.0,7,,,,,,,,,,,,,,,,,,0.0,12.0,12.0,12.0,1.0,,,,,,,,,,
0.0,1.0,1.65009,,,,,,turnstile_08s.jpg,0.0,clock_6_1.png,3.0,7,,,,,,,,,,,,,,,,,,0.0,13.0,13.0,13.0,1.0,,,,,,,,,,
0.0,1.0,0.79907,,,,,,dynamite_01b.jpg,0.0,clock_6_2.png,3.0,7,,,,,,,,,,,,,,,,,,0.0,14.0,14.0,14.0,1.0,,,,,,,,,,
0.0,1.0,1.051295,,,,,,potholder_02s.jpg,0.0,clock_6_3.png,3.0,7,,,,,,,,,,,,,,,,,,0.0,15.0,15.0,15.0,1.0,,,,,,,,,,
0.0,1.0,0.720805,,,,,,glue_01s.jpg,0.0,clock_6_4.png,3.0,7,,,,,,,,,,,,,,,,,,0.0,16.0,16.0,16.0,1.0,,,,,,,,,,
1.0,1.0,0.87454,,,,,,dynamite_01b.jpg,1.0,clock_6_5.png,3.0,7,,,,,,,,,,,,,,,,,,0.0,17.0,17.0,17.0,1.0,,,,,,,,,,
0.0,1.0,0.68203,,,,,,lizard_10n.jpg,0.0,clock_6_6.png,3.0,7,,,,,,,,,,,,,,,,,,0.0,18.0,18.0,18.0,1.0,,,,,,,,,,
0.0,1.0,1.100905,,,,,,fireworks_18s.jpg,0.0,clock_5_1.png,4.0,7,,,,,,,,,,,,,,,,,,0.0,19.0,19.0,19.0,1.0,,,,,,,,,,
1.0,1.0,0.78038,,,,,,fireworks_18s.jpg,1.0,clock_5_2.png,4.0,7,,,,,,,,,,,,,,,,,,0.0,20.0,20.0,20.0,1.0,,,,,,,,,,
0.0,1.0,0.69812,,,,,,cucumber_07s.jpg,0.0,clock_5_3.png,4.0,7,,,,,,,,,,,,,,,,,,0.0,21.0,21.0,21.0,1.0,,,,,,,,,,
1.0,1.0,0.961725,,,,,,fireworks_18s.jpg,1.0,clock_5_4.png,4.0,7,,,,,,,,,,,,,,,,,,0.0,22.0,22.0,22.0,1.0,,,,,,,,,,
0.0,1.0,0.67246,,,,,,tiara_05s.jpg,0.0,clock_5_5.png,4.0,7,,,,,,,,,,,,,,,,,,0.0,23.0,23.0,23.0,1.0,,,,,,,,,,
0.0,1.0,0.838285,,,,,,timer_03s.jpg,0.0,clock_5_1.png,5.0,7,,,,,,,,,,,,,,,,,,0.0,24.0,24.0,24.0,1.0,,,,,,,,,,
1.0,1.0,0.969515,,,,,,timer_03s.jpg,1.0,clock_5_2.png,5.0,7,,,,,,,,,,,,,,,,,,0.0,25.0,25.0,25.0,1.0,,,,,,,,,,
0.0,1.0,0.63102,,,,,,bean_06s.jpg,0.0,clock_5_3.png,5.0,7,,,,,,,,,,,,,,,,,,0.0,26.0,26.0,26.0,1.0,,,,,,,,,,
0.0,1.0,0.57519,,,,,,ladder_15s.jpg,0.0,clock_5_4.png,5.0,7,,,,,,,,,,,,,,,,,,0.0,27.0,27.0,27.0,1.0,,,,,,,,,,
0.0,1.0,0.767615,,,,,,hyena_16s.jpg,0.0,clock_5_5.png,5.0,7,,,,,,,,,,,,,,,,,,0.0,28.0,28.0,28.0,1.0,,,,,,,,,,
0.0,1.0,1.217565,,,,,,gas_mask_11s.jpg,0.0,clock_7_1.png,6.0,7,,,,,,,,,,,,,,,,,,0.0,29.0,29.0,29.0,1.0,,,,,,,,,,
0.0,1.0,0.88742,,,,,,fire_pit_10s.jpg,0.0,clock_7_2.png,6.0,7,,,,,,,,,,,,,,,,,,0.0,30.0,30.0,30.0,1.0,,,,,,,,,,
1.0,1.0,1.11059,,,,,,gas_mask_11s.jpg,1.0,clock_7_3.png,6.0,7,,,,,,,,,,,,,,,,,,0.0,31.0,31.0,31.0,1.0,,,,,,,,,,
1.0,1.0,1.04757,,,,,,gas_mask_11s.jpg,1.0,clock_7_4.png,6.0,7,,,,,,,,,,,,,,,,,,0.0,32.0,32.0,32.0,1.0,,,,,,,,,,
0.0,1.0,0.732165,,,,,,sugar_cube_11s.jpg,0.0,clock_7_5.png,6.0,7,,,,,,,,,,,,,,,,,,0.0,33.0,33.0,33.0,1.0,,,,,,,,,,
0.0,1.0,0.88682,,,,,,taxi_15s.jpg,0.0,clock_7_6.png,6.0,7,,,,,,,,,,,,,,,,,,0.0,34.0,34.0,34.0,1.0,,,,,,,,,,
0.0,1.0,0.514735,,,,,,juicer2_06s.jpg,0.0,clock_7_7.png,6.0,7,,,,,,,,,,,,,,,,,,0.0,35.0,35.0,35.0,1.0,,,,,,,,,,
,,,,,,,,,0.0,,,7,0.0,1.0,1.78321,,,,,,bean_06s.jpg,tiara_05s.jpg,,,,,,,,,,,,,0.0,0.0,0.0,0.0,1.0,,,,,
,,,,,,,,,0.0,,,7,0.0,1.0,1.250545,,,,,,tablet_04s.jpg,bowler_hat_10s.jpg,,,,,,,,,,,,,0.0,1.0,1.0,1.0,1.0,,,,,
,,,,,,,,,0.0,,,7,0.0,1.0,1.54892,,,,,,cucumber_07s.jpg,lizard_10n.jpg,,,,,,,,,,,,,0.0,2.0,2.0,2.0,1.0,,,,,
,,,,,,,,,0.0,,,7,1.0,0.0,2.130265,,,,,,puppet_01b.jpg,quill_09s.jpg,,,,,,,,,,,,,0.0,3.0,3.0,3.0,1.0,,,,,
,,,,,,,,,0.0,,,7,1.0,0.0,1.39797,,,,,,glue_01s.jpg,turnstile_08s.jpg,,,,,,,,,,,,,0.0,4.0,4.0,4.0,1.0,,,,,
,,,,,,,,,0.0,,,7,0.0,1.0,1.42138,,,,,,sugar_cube_11s.jpg,fire_pit_10s.jpg,,,,,,,,,,,,,0.0,5.0,5.0,5.0,1.0,,,,,
,,,,,,,,,,,,7,,,,,,,,,,,,,,,,clock_present_1_3.xlsx,clock_compare_task_1_3.xlsx,,,,,,,,,,,0.0,0.0,0.0,0.0,1.0
,0.0,,,,,,,polar_bear_02s.jpg,0.0,clock_6_1.png,1.0,7,,,,,,,,,,,,,,,,,,0.0,0.0,0.0,0.0,1.0,,,,,,,,,,
0.0,1.0,1.36154,,,,,,sea_urchin_09s.jpg,0.0,clock_6_2.png,1.0,7,,,,,,,,,,,,,,,,,,0.0,1.0,1.0,1.0,1.0,,,,,,,,,,
1.0,1.0,0.75708,,,,,,sea_urchin_09s.jpg,1.0,clock_6_3.png,1.0,7,,,,,,,,,,,,,,,,,,0.0,2.0,2.0,2.0,1.0,,,,,,,,,,
0.0,1.0,0.795,,,,,,bee_20s.jpg,0.0,clock_6_4.png,1.0,7,,,,,,,,,,,,,,,,,,0.0,3.0,3.0,3.0,1.0,,,,,,,,,,
0.0,1.0,0.839975,,,,,,swordfish_05s.jpg,0.0,clock_6_5.png,1.0,7,,,,,,,,,,,,,,,,,,0.0,4.0,4.0,4.0,1.0,,,,,,,,,,
0.0,1.0,0.82674,,,,,,machete_06s.jpg,0.0,clock_6_6.png,1.0,7,,,,,,,,,,,,,,,,,,0.0,5.0,5.0,5.0,1.0,,,,,,,,,,
0.0,1.0,0.94395,,,,,,sleeping_bag_12s.jpg,0.0,clock_5_1.png,2.0,7,,,,,,,,,,,,,,,,,,0.0,6.0,6.0,6.0,1.0,,,,,,,,,,
0.0,1.0,0.408705,,,,,,toothpaste_12s.jpg,0.0,clock_5_2.png,2.0,7,,,,,,,,,,,,,,,,,,0.0,7.0,7.0,7.0,1.0,,,,,,,,,,
0.0,1.0,1.02682,,,,,,rolling_pin_02s.jpg,0.0,clock_5_3.png,2.0,7,,,,,,,,,,,,,,,,,,0.0,8.0,8.0,8.0,1.0,,,,,,,,,,
0.0,1.0,0.773425,,,,,,dashboard_02s.jpg,0.0,clock_5_4.png,2.0,7,,,,,,,,,,,,,,,,,,0.0,9.0,9.0,9.0,1.0,,,,,,,,,,
0.0,1.0,0.75703,,,,,,toilet_paper_12s.jpg,0.0,clock_5_5.png,2.0,7,,,,,,,,,,,,,,,,,,0.0,10.0,10.0,10.0,1.0,,,,,,,,,,
0.0,1.0,1.52502,,,,,,espresso_01b.jpg,0.0,clock_7_1.png,3.0,7,,,,,,,,,,,,,,,,,,0.0,11.0,11.0,11.0,1.0,,,,,,,,,,
1.0,1.0,0.971575,,,,,,espresso_01b.jpg,1.0,clock_7_2.png,3.0,7,,,,,,,,,,,,,,,,,,0.0,12.0,12.0,12.0,1.0,,,,,,,,,,
1.0,1.0,0.92958,,,,,,espresso_01b.jpg,1.0,clock_7_3.png,3.0,7,,,,,,,,,,,,,,,,,,0.0,13.0,13.0,13.0,1.0,,,,,,,,,,
1.0,1.0,0.59624,,,,,,espresso_01b.jpg,1.0,clock_7_4.png,3.0,7,,,,,,,,,,,,,,,,,,0.0,14.0,14.0,14.0,1.0,,,,,,,,,,
1.0,1.0,0.53335,,,,,,espresso_01b.jpg,1.0,clock_7_5.png,3.0,7,,,,,,,,,,,,,,,,,,0.0,15.0,15.0,15.0,1.0,,,,,,,,,,
0.0,1.0,0.92014,,,,,,sleeping_bag_12s.jpg,0.0,clock_7_6.png,3.0,7,,,,,,,,,,,,,,,,,,0.0,16.0,16.0,16.0,1.0,,,,,,,,,,
0.0,1.0,0.51384,,,,,,money_07s.jpg,0.0,clock_7_7.png,3.0,7,,,,,,,,,,,,,,,,,,0.0,17.0,17.0,17.0,1.0,,,,,,,,,,
0.0,1.0,1.09857,,,,,,knitting_needle_04s.jpg,0.0,clock_5_1.png,4.0,7,,,,,,,,,,,,,,,,,,0.0,18.0,18.0,18.0,1.0,,,,,,,,,,
0.0,1.0,0.7757,,,,,,golf_club_03s.jpg,0.0,clock_5_2.png,4.0,7,,,,,,,,,,,,,,,,,,0.0,19.0,19.0,19.0,1.0,,,,,,,,,,
0.0,1.0,0.66089,,,,,,key_07s.jpg,0.0,clock_5_3.png,4.0,7,,,,,,,,,,,,,,,,,,0.0,20.0,20.0,20.0,1.0,,,,,,,,,,
0.0,1.0,0.82707,,,,,,rocking_horse_03s.jpg,0.0,clock_5_4.png,4.0,7,,,,,,,,,,,,,,,,,,0.0,21.0,21.0,21.0,1.0,,,,,,,,,,
0.0,1.0,0.50736,,,,,,parachute_03s.jpg,0.0,clock_5_5.png,4.0,7,,,,,,,,,,,,,,,,,,0.0,22.0,22.0,22.0,1.0,,,,,,,,,,
0.0,1.0,0.84463,,,,,,koala_13s.jpg,0.0,clock_6_1.png,5.0,7,,,,,,,,,,,,,,,,,,0.0,23.0,23.0,23.0,1.0,,,,,,,,,,
0.0,1.0,0.87126,,,,,,radio_09s.jpg,0.0,clock_6_2.png,5.0,7,,,,,,,,,,,,,,,,,,0.0,24.0,24.0,24.0,1.0,,,,,,,,,,
0.0,1.0,0.680985,,,,,,luggage_08s.jpg,0.0,clock_6_3.png,5.0,7,,,,,,,,,,,,,,,,,,0.0,25.0,25.0,25.0,1.0,,,,,,,,,,
0.0,1.0,0.881665,,,,,,peach_04s.jpg,0.0,clock_6_4.png,5.0,7,,,,,,,,,,,,,,,,,,0.0,26.0,26.0,26.0,1.0,,,,,,,,,,
1.0,1.0,0.794125,,,,,,peach_04s.jpg,1.0,clock_6_5.png,5.0,7,,,,,,,,,,,,,,,,,,0.0,27.0,27.0,27.0,1.0,,,,,,,,,,
0.0,1.0,0.876755,,,,,,cushion_08s.jpg,0.0,clock_6_6.png,5.0,7,,,,,,,,,,,,,,,,,,0.0,28.0,28.0,28.0,1.0,,,,,,,,,,
0.0,1.0,0.87441,,,,,,totem_pole_05s.jpg,0.0,clock_7_1.png,6.0,7,,,,,,,,,,,,,,,,,,0.0,29.0,29.0,29.0,1.0,,,,,,,,,,
1.0,1.0,0.69789,,,,,,totem_pole_05s.jpg,1.0,clock_7_2.png,6.0,7,,,,,,,,,,,,,,,,,,0.0,30.0,30.0,30.0,1.0,,,,,,,,,,
0.0,1.0,0.54597,,,,,,sledgehammer_03s.jpg,0.0,clock_7_3.png,6.0,7,,,,,,,,,,,,,,,,,,0.0,31.0,31.0,31.0,1.0,,,,,,,,,,
0.0,1.0,1.073305,,,,,,cushion_08s.jpg,0.0,clock_7_4.png,6.0,7,,,,,,,,,,,,,,,,,,0.0,32.0,32.0,32.0,1.0,,,,,,,,,,
0.0,1.0,0.68835,,,,,,machete_06s.jpg,0.0,clock_7_5.png,6.0,7,,,,,,,,,,,,,,,,,,0.0,33.0,33.0,33.0,1.0,,,,,,,,,,
0.0,1.0,0.87474,,,,,,towel_rack_04s.jpg,0.0,clock_7_6.png,6.0,7,,,,,,,,,,,,,,,,,,0.0,34.0,34.0,34.0,1.0,,,,,,,,,,
0.0,1.0,0.673685,,,,,,swimming_pool_17s.jpg,0.0,clock_7_7.png,6.0,7,,,,,,,,,,,,,,,,,,0.0,35.0,35.0,35.0,1.0,,,,,,,,,,
,,,,,,,,,1.0,,,7,0.0,0.0,1.765025,,,,,,money_07s.jpg,key_07s.jpg,,,,,,,,,,,,,0.0,0.0,0.0,0.0,1.0,,,,,
,,,,,,,,,0.0,,,7,0.0,1.0,2.25511,,,,,,toothpaste_12s.jpg,swordfish_05s.jpg,,,,,,,,,,,,,0.0,1.0,1.0,1.0,1.0,,,,,
,,,,,,,,,1.0,,,7,1.0,1.0,1.256225,,,,,,rocking_horse_03s.jpg,radio_09s.jpg,,,,,,,,,,,,,0.0,2.0,2.0,2.0,1.0,,,,,
,,,,,,,,,0.0,,,7,1.0,0.0,1.7781,,,,,,bee_20s.jpg,polar_bear_02s.jpg,,,,,,,,,,,,,0.0,3.0,3.0,3.0,1.0,,,,,
,,,,,,,,,1.0,,,7,0.0,0.0,1.428875,,,,,,sledgehammer_03s.jpg,towel_rack_04s.jpg,,,,,,,,,,,,,0.0,4.0,4.0,4.0,1.0,,,,,
,,,,,,,,,1.0,,,7,1.0,1.0,1.04153,,,,,,golf_club_03s.jpg,parachute_03s.jpg,,,,,,,,,,,,,0.0,5.0,5.0,5.0,1.0,,,,,
,,,,,,,,,,,,7,,,,,,,,,,,,,,,,clock_present_2_3.xlsx,clock_compare_task_2_3.xlsx,,,,,,,,,,,0.0,1.0,1.0,1.0,1.0
0.0,1.0,1.303775,,,,,,prism_10s.jpg,0.0,clock_6_1.png,1.0,7,,,,,,,,,,,,,,,,,,0.0,0.0,0.0,0.0,1.0,,,,,,,,,,
1.0,1.0,0.900735,,,,,,prism_10s.jpg,1.0,clock_6_2.png,1.0,7,,,,,,,,,,,,,,,,,,0.0,1.0,1.0,1.0,1.0,,,,,,,,,,
1.0,1.0,0.88653,,,,,,prism_10s.jpg,1.0,clock_6_3.png,1.0,7,,,,,,,,,,,,,,,,,,0.0,2.0,2.0,2.0,1.0,,,,,,,,,,
0.0,1.0,0.82027,,,,,,puck_06s.jpg,0.0,clock_6_4.png,1.0,7,,,,,,,,,,,,,,,,,,0.0,3.0,3.0,3.0,1.0,,,,,,,,,,
0.0,1.0,0.7387,,,,,,mushroom_10n.jpg,0.0,clock_6_5.png,1.0,7,,,,,,,,,,,,,,,,,,0.0,4.0,4.0,4.0,1.0,,,,,,,,,,
0.0,1.0,0.72964,,,,,,chopsticks_08s.jpg,0.0,clock_6_6.png,1.0,7,,,,,,,,,,,,,,,,,,0.0,5.0,5.0,5.0,1.0,,,,,,,,,,
0.0,1.0,0.870715,,,,,,kilt_18s.jpg,0.0,clock_7_1.png,2.0,7,,,,,,,,,,,,,,,,,,0.0,6.0,6.0,6.0,1.0,,,,,,,,,,
0.0,1.0,0.702185,,,,,,diving_board_07s.jpg,0.0,clock_7_2.png,2.0,7,,,,,,,,,,,,,,,,,,0.0,7.0,7.0,7.0,1.0,,,,,,,,,,
0.0,1.0,0.60417,,,,,,jet_15s.jpg,0.0,clock_7_3.png,2.0,7,,,,,,,,,,,,,,,,,,0.0,8.0,8.0,8.0,1.0,,,,,,,,,,
0.0,1.0,0.598605,,,,,,kitten_07s.jpg,0.0,clock_7_4.png,2.0,7,,,,,,,,,,,,,,,,,,0.0,9.0,9.0,9.0,1.0,,,,,,,,,,
1.0,0.0,1.881195,,,,,,prism_10s.jpg,0.0,clock_7_5.png,2.0,7,,,,,,,,,,,,,,,,,,0.0,10.0,10.0,10.0,1.0,,,,,,,,,,
0.0,1.0,0.76525,,,,,,pencil02a.jpg,0.0,clock_7_6.png,2.0,7,,,,,,,,,,,,,,,,,,0.0,11.0,11.0,11.0,1.0,,,,,,,,,,
0.0,1.0,0.59374,,,,,,chip_04s.jpg,0.0,clock_7_7.png,2.0,7,,,,,,,,,,,,,,,,,,0.0,12.0,12.0,12.0,1.0,,,,,,,,,,
0.0,1.0,1.034475,,,,,,ring_03s.jpg,0.0,clock_5_1.png,3.0,7,,,,,,,,,,,,,,,,,,0.0,13.0,13.0,13.0,1.0,,,,,,,,,,
0.0,1.0,0.803145,,,,,,fork_04s.jpg,0.0,clock_5_2.png,3.0,7,,,,,,,,,,,,,,,,,,0.0,14.0,14.0,14.0,1.0,,,,,,,,,,
1.0,1.0,1.27597,,,,,,ring_03s.jpg,1.0,clock_5_3.png,3.0,7,,,,,,,,,,,,,,,,,,0.0,15.0,15.0,15.0,1.0,,,,,,,,,,
0.0,1.0,0.594325,,,,,,mattress_01s.jpg,0.0,clock_5_4.png,3.0,7,,,,,,,,,,,,,,,,,,0.0,16.0,16.0,16.0,1.0,,,,,,,,,,
0.0,1.0,0.57739,,,,,,tupperware_09s.jpg,0.0,clock_5_5.png,3.0,7,,,,,,,,,,,,,,,,,,0.0,17.0,17.0,17.0,1.0,,,,,,,,,,
0.0,1.0,1.9505,,,,,,mussel_11s.jpg,0.0,clock_7_1.png,4.0,7,,,,,,,,,,,,,,,,,,0.0,18.0,18.0,18.0,1.0,,,,,,,,,,
1.0,1.0,2.06955,,,,,,mussel_11s.jpg,1.0,clock_7_2.png,4.0,7,,,,,,,,,,,,,,,,,,0.0,19.0,19.0,19.0,1.0,,,,,,,,,,
0.0,1.0,1.23781,,,,,,pencil_sharpener_09n.jpg,0.0,clock_7_3.png,4.0,7,,,,,,,,,,,,,,,,,,0.0,20.0,20.0,20.0,1.0,,,,,,,,,,
0.0,1.0,0.851965,,,,,,turtle_08s.jpg,0.0,clock_7_4.png,4.0,7,,,,,,,,,,,,,,,,,,0.0,21.0,21.0,21.0,1.0,,,,,,,,,,
0.0,1.0,0.73091,,,,,,mug_06s.jpg,0.0,clock_7_5.png,4.0,7,,,,,,,,,,,,,,,,,,0.0,22.0,22.0,22.0,1.0,,,,,,,,,,
0.0,1.0,1.267715,,,,,,light_switch_02s.jpg,0.0,clock_7_6.png,4.0,7,,,,,,,,,,,,,,,,,,0.0,23.0,23.0,23.0,1.0,,,,,,,,,,
0.0,1.0,1.380385,,,,,,kilt_18s.jpg,0.0,clock_7_7.png,4.0,7,,,,,,,,,,,,,,,,,,0.0,24.0,24.0,24.0,1.0,,,,,,,,,,
0.0,1.0,1.329895,,,,,,ladle_04s.jpg,0.0,clock_5_1.png,5.0,7,,,,,,,,,,,,,,,,,,0.0,25.0,25.0,25.0,1.0,,,,,,,,,,
1.0,1.0,0.7774,,,,,,ladle_04s.jpg,1.0,clock_5_2.png,5.0,7,,,,,,,,,,,,,,,,,,0.0,26.0,26.0,26.0,1.0,,,,,,,,,,
0.0,1.0,0.603545,,,,,,gong_02s.jpg,0.0,clock_5_3.png,5.0,7,,,,,,,,,,,,,,,,,,0.0,27.0,27.0,27.0,1.0,,,,,,,,,,
0.0,1.0,0.62757,,,,,,giraffe_11s.jpg,0.0,clock_5_4.png,5.0,7,,,,,,,,,,,,,,,,,,0.0,28.0,28.0,28.0,1.0,,,,,,,,,,
0.0,1.0,0.68902,,,,,,lid_10s.jpg,0.0,clock_5_5.png,5.0,7,,,,,,,,,,,,,,,,,,0.0,29.0,29.0,29.0,1.0,,,,,,,,,,
0.0,1.0,1.25641,,,,,,muffin_12n.jpg,0.0,clock_6_1.png,6.0,7,,,,,,,,,,,,,,,,,,0.0,30.0,30.0,30.0,1.0,,,,,,,,,,
0.0,1.0,0.643005,,,,,,lavender_10s.jpg,0.0,clock_6_2.png,6.0,7,,,,,,,,,,,,,,,,,,0.0,31.0,31.0,31.0,1.0,,,,,,,,,,
0.0,1.0,1.72535,,,,,,margarita_03s.jpg,0.0,clock_6_3.png,6.0,7,,,,,,,,,,,,,,,,,,0.0,32.0,32.0,32.0,1.0,,,,,,,,,,
0.0,1.0,0.732725,,,,,,throne_11s.jpg,0.0,clock_6_4.png,6.0,7,,,,,,,,,,,,,,,,,,0.0,33.0,33.0,33.0,1.0,,,,,,,,,,
0.0,1.0,0.77835,,,,,,spider_web_03s.jpg,0.0,clock_6_5.png,6.0,7,,,,,,,,,,,,,,,,,,0.0,34.0,34.0,34.0,1.0,,,,,,,,,,
0.0,1.0,0.85887,,,,,,cardinal_07s.jpg,0.0,clock_6_6.png,6.0,7,,,,,,,,,,,,,,,,,,0.0,35.0,35.0,35.0,1.0,,,,,,,,,,
,,,,,,,,,0.0,,,7,0.0,1.0,3.306455,,,,,,diving_board_07s.jpg,mushroom_10n.jpg,,,,,,,,,,,,,0.0,0.0,0.0,0.0,1.0,,,,,
,,,,,,,,,1.0,,,7,1.0,1.0,1.535515,,,,,,chopsticks_08s.jpg,jet_15s.jpg,,,,,,,,,,,,,0.0,1.0,1.0,1.0,1.0,,,,,
,,,,,,,,,1.0,,,7,1.0,1.0,5.34848,,,,,,gong_02s.jpg,muffin_12n.jpg,,,,,,,,,,,,,0.0,2.0,2.0,2.0,1.0,,,,,
,,,,,,,,,1.0,,,7,1.0,1.0,2.200675,,,,,,kitten_07s.jpg,chip_04s.jpg,,,,,,,,,,,,,0.0,3.0,3.0,3.0,1.0,,,,,
,,,,,,,,,1.0,,,7,0.0,0.0,1.574945,,,,,,pencil_sharpener_09n.jpg,light_switch_02s.jpg,,,,,,,,,,,,,0.0,4.0,4.0,4.0,1.0,,,,,
,,,,,,,,,0.0,,,7,1.0,0.0,1.86011,,,,,,spider_web_03s.jpg,lavender_10s.jpg,,,,,,,,,,,,,0.0,5.0,5.0,5.0,1.0,,,,,
,,,,,,,,,,,,7,,,,,,,,,,,,,,,,clock_present_3_3.xlsx,clock_compare_task_3_3.xlsx,,,,,,,,,,,0.0,2.0,2.0,2.0,1.0
0.0,1.0,1.87614,,,,,,typewriter_11s.jpg,0.0,clock_5_1.png,1.0,7,,,,,,,,,,,,,,,,,,0.0,0.0,0.0,0.0,1.0,,,,,,,,,,
1.0,1.0,0.979235,,,,,,typewriter_11s.jpg,1.0,clock_5_2.png,1.0,7,,,,,,,,,,,,,,,,,,0.0,1.0,1.0,1.0,1.0,,,,,,,,,,
0.0,1.0,0.66577,,,,,,tweezers_03s.jpg,0.0,clock_5_3.png,1.0,7,,,,,,,,,,,,,,,,,,0.0,2.0,2.0,2.0,1.0,,,,,,,,,,
0.0,1.0,1.334715,,,,,,peeler_06s.jpg,0.0,clock_5_4.png,1.0,7,,,,,,,,,,,,,,,,,,0.0,3.0,3.0,3.0,1.0,,,,,,,,,,
0.0,1.0,1.94115,,,,,,tripod_01b.jpg,0.0,clock_5_5.png,1.0,7,,,,,,,,,,,,,,,,,,0.0,4.0,4.0,4.0,1.0,,,,,,,,,,
0.0,1.0,1.303665,,,,,,rudder_02s.jpg,0.0,clock_7_1.png,2.0,7,,,,,,,,,,,,,,,,,,0.0,5.0,5.0,5.0,1.0,,,,,,,,,,
0.0,1.0,0.84635,,,,,,pumpkin_03s.jpg,0.0,clock_7_2.png,2.0,7,,,,,,,,,,,,,,,,,,0.0,6.0,6.0,6.0,1.0,,,,,,,,,,
0.0,1.0,0.76955,,,,,,red_carpet_03s.jpg,0.0,clock_7_3.png,2.0,7,,,,,,,,,,,,,,,,,,0.0,7.0,7.0,7.0,1.0,,,,,,,,,,
0.0,1.0,1.010695,,,,,,camcorder_10s.jpg,0.0,clock_7_4.png,2.0,7,,,,,,,,,,,,,,,,,,0.0,8.0,8.0,8.0,1.0,,,,,,,,,,
0.0,1.0,0.985895,,,,,,peeler_06s.jpg,0.0,clock_7_5.png,2.0,7,,,,,,,,,,,,,,,,,,0.0,9.0,9.0,9.0,1.0,,,,,,,,,,
0.0,1.0,0.809015,,,,,,tiger_06s.jpg,0.0,clock_7_6.png,2.0,7,,,,,,,,,,,,,,,,,,0.0,10.0,10.0,10.0,1.0,,,,,,,,,,
0.0,1.0,0.93286,,,,,,tube_top_03s.jpg,0.0,clock_7_7.png,2.0,7,,,,,,,,,,,,,,,,,,0.0,11.0,11.0,11.0,1.0,,,,,,,,,,
0.0,1.0,0.804055,,,,,,harpoon.jpg,0.0,clock_6_1.png,3.0,7,,,,,,,,,,,,,,,,,,0.0,12.0,12.0,12.0,1.0,,,,,,,,,,
0.0,1.0,0.66601,,,,,,paintbrush_04s.jpg,0.0,clock_6_2.png,3.0,7,,,,,,,,,,,,,,,,,,0.0,13.0,13.0,13.0,1.0,,,,,,,,,,
0.0,1.0,0.909895,,,,,,polaroid_05s.jpg,0.0,clock_6_3.png,3.0,7,,,,,,,,,,,,,,,,,,0.0,14.0,14.0,14.0,1.0,,,,,,,,,,
0.0,1.0,0.81727,,,,,,amber_04s.jpg,0.0,clock_6_4.png,3.0,7,,,,,,,,,,,,,,,,,,0.0,15.0,15.0,15.0,1.0,,,,,,,,,,
0.0,1.0,0.65166,,,,,,laser_pointer_02s.jpg,0.0,clock_6_5.png,3.0,7,,,,,,,,,,,,,,,,,,0.0,16.0,16.0,16.0,1.0,,,,,,,,,,
0.0,1.0,0.81339,,,,,,exhaust_pipe_10s.jpg,0.0,clock_6_6.png,3.0,7,,,,,,,,,,,,,,,,,,0.0,17.0,17.0,17.0,1.0,,,,,,,,,,
0.0,1.0,0.560765,,,,,,outlet_10s.jpg,0.0,clock_6_1.png,4.0,7,,,,,,,,,,,,,,,,,,0.0,18.0,18.0,18.0,1.0,,,,,,,,,,
0.0,1.0,0.595485,,,,,,mannequin_05s.jpg,0.0,clock_6_2.png,4.0,7,,,,,,,,,,,,,,,,,,0.0,19.0,19.0,19.0,1.0,,,,,,,,,,
1.0,1.0,0.86112,,,,,,mannequin_05s.jpg,1.0,clock_6_3.png,4.0,7,,,,,,,,,,,,,,,,,,0.0,20.0,20.0,20.0,1.0,,,,,,,,,,
0.0,1.0,0.60471,,,,,,boomerang_06s.jpg,0.0,clock_6_4.png,4.0,7,,,,,,,,,,,,,,,,,,0.0,21.0,21.0,21.0,1.0,,,,,,,,,,
0.0,1.0,0.68664,,,,,,razor_blade_01b.jpg,0.0,clock_6_5.png,4.0,7,,,,,,,,,,,,,,,,,,0.0,22.0,22.0,22.0,1.0,,,,,,,,,,
1.0,1.0,0.95496,,,,,,boomerang_06s.jpg,1.0,clock_6_6.png,4.0,7,,,,,,,,,,,,,,,,,,0.0,23.0,23.0,23.0,1.0,,,,,,,,,,
0.0,1.0,1.614155,,,,,,jalapeno_15s.jpg,0.0,clock_7_1.png,5.0,7,,,,,,,,,,,,,,,,,,0.0,24.0,24.0,24.0,1.0,,,,,,,,,,
0.0,1.0,0.8438,,,,,,footprint_11s.jpg,0.0,clock_7_2.png,5.0,7,,,,,,,,,,,,,,,,,,0.0,25.0,25.0,25.0,1.0,,,,,,,,,,
0.0,1.0,0.82967,,,,,,tiger_06s.jpg,0.0,clock_7_3.png,5.0,7,,,,,,,,,,,,,,,,,,0.0,26.0,26.0,26.0,1.0,,,,,,,,,,
1.0,1.0,0.9346,,,,,,footprint_11s.jpg,1.0,clock_7_4.png,5.0,7,,,,,,,,,,,,,,,,,,0.0,27.0,27.0,27.0,1.0,,,,,,,,,,
0.0,1.0,0.5705,,,,,,treasure_08s.jpg,0.0,clock_7_5.png,5.0,7,,,,,,,,,,,,,,,,,,0.0,28.0,28.0,28.0,1.0,,,,,,,,,,
0.0,1.0,0.784325,,,,,,reindeer_08s.jpg,0.0,clock_7_6.png,5.0,7,,,,,,,,,,,,,,,,,,0.0,29.0,29.0,29.0,1.0,,,,,,,,,,
0.0,1.0,1.1468,,,,,,pie_08s.jpg,0.0,clock_7_7.png,5.0,7,,,,,,,,,,,,,,,,,,0.0,30.0,30.0,30.0,1.0,,,,,,,,,,
0.0,1.0,1.292005,,,,,,fur_coat_11s.jpg,0.0,clock_5_1.png,6.0,7,,,,,,,,,,,,,,,,,,0.0,31.0,31.0,31.0,1.0,,,,,,,,,,
0.0,1.0,0.629135,,,,,,solar_panel_02s.jpg,0.0,clock_5_2.png,6.0,7,,,,,,,,,,,,,,,,,,0.0,32.0,32.0,32.0,1.0,,,,,,,,,,
0.0,1.0,0.87216,,,,,,plunger_08s.jpg,0.0,clock_5_3.png,6.0,7,,,,,,,,,,,,,,,,,,0.0,33.0,33.0,33.0,1.0,,,,,,,,,,
0.0,1.0,0.769385,,,,,,crate_05s.jpg,0.0,clock_5_4.png,6.0,7,,,,,,,,,,,,,,,,,,0.0,34.0,34.0,34.0,1.0,,,,,,,,,,
0.0,1.0,0.42061,,,,,,reindeer_08s.jpg,0.0,clock_5_5.png,6.0,7,,,,,,,,,,,,,,,,,,0.0,35.0,35.0,35.0,1.0,,,,,,,,,,
,,,,,,,,,1.0,,,7,0.0,0.0,3.020815,,,,,,tripod_01b.jpg,red_carpet_03s.jpg,,,,,,,,,,,,,0.0,0.0,0.0,0.0,1.0,,,,,
,,,,,,,,,1.0,,,7,1.0,1.0,1.431465,,,,,,pie_08s.jpg,plunger_08s.jpg,,,,,,,,,,,,,0.0,1.0,1.0,1.0,1.0,,,,,
,,,,,,,,,1.0,,,7,0.0,0.0,1.547205,,,,,,tweezers_03s.jpg,rudder_02s.jpg,,,,,,,,,,,,,0.0,2.0,2.0,2.0,1.0,,,,,
,,,,,,,,,0.0,,,7,1.0,0.0,1.433605,,,,,,laser_pointer_02s.jpg,paintbrush_04s.jpg,,,,,,,,,,,,,0.0,3.0,3.0,3.0,1.0,,,,,
,,,,,,,,,1.0,,,7,1.0,1.0,2.118785,,,,,,camcorder_10s.jpg,tube_top_03s.jpg,,,,,,,,,,,,,0.0,4.0,4.0,4.0,1.0,,,,,
,,,,,,,,,0.0,,,7,0.0,1.0,1.06825,,,,,,amber_04s.jpg,harpoon.jpg,,,,,,,,,,,,,0.0,5.0,5.0,5.0,1.0,,,,,
,,,,,,,,,,,,7,,,,,,,,,,,,,,,,clock_present_4_3.xlsx,clock_compare_task_4_3.xlsx,,,,,,,,,,,0.0,3.0,3.0,3.0,1.0
0.0,1.0,2.02608,,,,,,frog_09s.jpg,0.0,clock_5_1.png,1.0,7,,,,,,,,,,,,,,,,,,0.0,0.0,0.0,0.0,1.0,,,,,,,,,,
,0.0,,,,,,,tile_08s.jpg,0.0,clock_5_2.png,1.0,7,,,,,,,,,,,,,,,,,,0.0,1.0,1.0,1.0,1.0,,,,,,,,,,
1.0,1.0,0.98872,,,,,,tile_08s.jpg,1.0,clock_5_3.png,1.0,7,,,,,,,,,,,,,,,,,,0.0,2.0,2.0,2.0,1.0,,,,,,,,,,
1.0,1.0,0.562315,,,,,,tile_08s.jpg,1.0,clock_5_4.png,1.0,7,,,,,,,,,,,,,,,,,,0.0,3.0,3.0,3.0,1.0,,,,,,,,,,
0.0,1.0,0.78772,,,,,,icicle_04s.jpg,0.0,clock_5_5.png,1.0,7,,,,,,,,,,,,,,,,,,0.0,4.0,4.0,4.0,1.0,,,,,,,,,,
0.0,1.0,1.025195,,,,,,stapler_01b.jpg,0.0,clock_5_1.png,2.0,7,,,,,,,,,,,,,,,,,,0.0,5.0,5.0,5.0,1.0,,,,,,,,,,
0.0,1.0,0.79519,,,,,,roulette_wheel_04s.jpg,0.0,clock_5_2.png,2.0,7,,,,,,,,,,,,,,,,,,0.0,6.0,6.0,6.0,1.0,,,,,,,,,,
0.0,1.0,1.321815,,,,,,lamppost_09s.jpg,0.0,clock_5_3.png,2.0,7,,,,,,,,,,,,,,,,,,0.0,7.0,7.0,7.0,1.0,,,,,,,,,,
1.0,1.0,0.60851,,,,,,lamppost_09s.jpg,1.0,clock_5_4.png,2.0,7,,,,,,,,,,,,,,,,,,0.0,8.0,8.0,8.0,1.0,,,,,,,,,,
0.0,1.0,0.69199,,,,,,trampoline_13s.jpg,0.0,clock_5_5.png,2.0,7,,,,,,,,,,,,,,,,,,0.0,9.0,9.0,9.0,1.0,,,,,,,,,,
0.0,1.0,0.91645,,,,,,crayon_09s.jpg,0.0,clock_7_1.png,3.0,7,,,,,,,,,,,,,,,,,,0.0,10.0,10.0,10.0,1.0,,,,,,,,,,
0.0,1.0,0.853565,,,,,,teacup_07s.jpg,0.0,clock_7_2.png,3.0,7,,,,,,,,,,,,,,,,,,0.0,11.0,11.0,11.0,1.0,,,,,,,,,,
0.0,1.0,1.186295,,,,,,pillbox_04s.jpg,0.0,clock_7_3.png,3.0,7,,,,,,,,,,,,,,,,,,0.0,12.0,12.0,12.0,1.0,,,,,,,,,,
0.0,1.0,0.602355,,,,,,measuring_cup_02s.jpg,0.0,clock_7_4.png,3.0,7,,,,,,,,,,,,,,,,,,0.0,13.0,13.0,13.0,1.0,,,,,,,,,,
0.0,1.0,0.64482,,,,,,turkey_10s.jpg,0.0,clock_7_5.png,3.0,7,,,,,,,,,,,,,,,,,,0.0,14.0,14.0,14.0,1.0,,,,,,,,,,
0.0,1.0,0.604615,,,,,,jukebox_03n.jpg,0.0,clock_7_6.png,3.0,7,,,,,,,,,,,,,,,,,,0.0,15.0,15.0,15.0,1.0,,,,,,,,,,
1.0,1.0,1.00763,,,,,,crayon_09s.jpg,1.0,clock_7_7.png,3.0,7,,,,,,,,,,,,,,,,,,0.0,16.0,16.0,16.0,1.0,,,,,,,,,,
0.0,1.0,1.17221,,,,,,fountain_pen_06s.jpg,0.0,clock_6_1.png,4.0,7,,,,,,,,,,,,,,,,,,0.0,17.0,17.0,17.0,1.0,,,,,,,,,,
1.0,1.0,0.85937,,,,,,fountain_pen_06s.jpg,1.0,clock_6_2.png,4.0,7,,,,,,,,,,,,,,,,,,0.0,18.0,18.0,18.0,1.0,,,,,,,,,,
0.0,1.0,1.033205,,,,,,roulette_wheel_04s.jpg,0.0,clock_6_3.png,4.0,7,,,,,,,,,,,,,,,,,,0.0,19.0,19.0,19.0,1.0,,,,,,,,,,
1.0,1.0,0.95869,,,,,,fountain_pen_06s.jpg,1.0,clock_6_4.png,4.0,7,,,,,,,,,,,,,,,,,,0.0,20.0,20.0,20.0,1.0,,,,,,,,,,
0.0,1.0,1.58992,,,,,,stapler_01b.jpg,0.0,clock_6_5.png,4.0,7,,,,,,,,,,,,,,,,,,0.0,21.0,21.0,21.0,1.0,,,,,,,,,,
0.0,1.0,0.777305,,,,,,jigsaw_puzzle_11s.jpg,0.0,clock_6_6.png,4.0,7,,,,,,,,,,,,,,,,,,0.0,22.0,22.0,22.0,1.0,,,,,,,,,,
0.0,1.0,1.558905,,,,,,pear_02s.jpg,0.0,clock_7_1.png,5.0,7,,,,,,,,,,,,,,,,,,0.0,23.0,23.0,23.0,1.0,,,,,,,,,,
1.0,1.0,1.423215,,,,,,pear_02s.jpg,1.0,clock_7_2.png,5.0,7,,,,,,,,,,,,,,,,,,0.0,24.0,24.0,24.0,1.0,,,,,,,,,,
0.0,1.0,0.789045,,,,,,lamppost_09s.jpg,0.0,clock_7_3.png,5.0,7,,,,,,,,,,,,,,,,,,0.0,25.0,25.0,25.0,1.0,,,,,,,,,,
0.0,1.0,0.678315,,,,,,blender_08s.jpg,0.0,clock_7_4.png,5.0,7,,,,,,,,,,,,,,,,,,0.0,26.0,26.0,26.0,1.0,,,,,,,,,,
0.0,1.0,0.985585,,,,,,chime_12s.jpg,0.0,clock_7_5.png,5.0,7,,,,,,,,,,,,,,,,,,0.0,27.0,27.0,27.0,1.0,,,,,,,,,,
0.0,1.0,0.96467,,,,,,tattoo_14s.jpg,0.0,clock_7_6.png,5.0,7,,,,,,,,,,,,,,,,,,0.0,28.0,28.0,28.0,1.0,,,,,,,,,,
0.0,1.0,0.92952,,,,,,soda_fountain_03s.jpg,0.0,clock_7_7.png,5.0,7,,,,,,,,,,,,,,,,,,0.0,29.0,29.0,29.0,1.0,,,,,,,,,,
0.0,1.0,1.095085,,,,,,contact_lens_15s.jpg,0.0,clock_6_1.png,6.0,7,,,,,,,,,,,,,,,,,,0.0,30.0,30.0,30.0,1.0,,,,,,,,,,
0.0,1.0,0.42135,,,,,,tuba_12s.jpg,0.0,clock_6_2.png,6.0,7,,,,,,,,,,,,,,,,,,0.0,31.0,31.0,31.0,1.0,,,,,,,,,,
0.0,1.0,0.88405,,,,,,projector_08s.jpg,0.0,clock_6_3.png,6.0,7,,,,,,,,,,,,,,,,,,0.0,32.0,32.0,32.0,1.0,,,,,,,,,,
0.0,1.0,1.17152,,,,,,mirror_12s.jpg,0.0,clock_6_4.png,6.0,7,,,,,,,,,,,,,,,,,,0.0,33.0,33.0,33.0,1.0,,,,,,,,,,
0.0,1.0,0.771865,,,,,,plaster_cast_13s.jpg,0.0,clock_6_5.png,6.0,7,,,,,,,,,,,,,,,,,,0.0,34.0,34.0,34.0,1.0,,,,,,,,,,
0.0,1.0,0.782945,,,,,,pump_11s.jpg,0.0,clock_6_6.png,6.0,7,,,,,,,,,,,,,,,,,,0.0,35.0,35.0,35.0,1.0,,,,,,,,,,
,,,,,,,,,1.0,,,7,1.0,1.0,3.97147,,,,,,trampoline_13s.jpg,pillbox_04s.jpg,,,,,,,,,,,,,0.0,0.0,0.0,0.0,1.0,,,,,
,,,,,,,,,1.0,,,7,1.0,1.0,3.06954,,,,,,chime_12s.jpg,contact_lens_15s.jpg,,,,,,,,,,,,,0.0,1.0,1.0,1.0,1.0,,,,,
,,,,,,,,,1.0,,,7,1.0,1.0,1.98128,,,,,,tattoo_14s.jpg,tuba_12s.jpg,,,,,,,,,,,,,0.0,2.0,2.0,2.0,1.0,,,,,
,,,,,,,,,1.0,,,7,0.0,0.0,1.66095,,,,,,teacup_07s.jpg,turkey_10s.jpg,,,,,,,,,,,,,0.0,3.0,3.0,3.0,1.0,,,,,
,,,,,,,,,1.0,,,7,1.0,1.0,1.122955,,,,,,blender_08s.jpg,soda_fountain_03s.jpg,,,,,,,,,,,,,0.0,4.0,4.0,4.0,1.0,,,,,
,,,,,,,,,0.0,,,7,1.0,0.0,2.734245,,,,,,pump_11s.jpg,projector_08s.jpg,,,,,,,,,,,,,0.0,5.0,5.0,5.0,1.0,,,,,
,,,,,,,,,,,,7,,,,,,,,,,,,,,,,clock_present_5_3.xlsx,clock_compare_task_5_3.xlsx,,,,,,,,,,,0.0,4.0,4.0,4.0,1.0
0.0,1.0,2.174005,,,,,,kite_04s.jpg,0.0,clock_7_1.png,1.0,7,,,,,,,,,,,,,,,,,,0.0,0.0,0.0,0.0,1.0,,,,,,,,,,
1.0,1.0,0.65985,,,,,,kite_04s.jpg,1.0,clock_7_2.png,1.0,7,,,,,,,,,,,,,,,,,,0.0,1.0,1.0,1.0,1.0,,,,,,,,,,
1.0,1.0,1.12513,,,,,,kite_04s.jpg,1.0,clock_7_3.png,1.0,7,,,,,,,,,,,,,,,,,,0.0,2.0,2.0,2.0,1.0,,,,,,,,,,
1.0,1.0,0.511355,,,,,,kite_04s.jpg,1.0,clock_7_4.png,1.0,7,,,,,,,,,,,,,,,,,,0.0,3.0,3.0,3.0,1.0,,,,,,,,,,
0.0,1.0,0.735885,,,,,,compass_10n.jpg,0.0,clock_7_5.png,1.0,7,,,,,,,,,,,,,,,,,,0.0,4.0,4.0,4.0,1.0,,,,,,,,,,
1.0,1.0,0.68168,,,,,,kite_04s.jpg,1.0,clock_7_6.png,1.0,7,,,,,,,,,,,,,,,,,,0.0,5.0,5.0,5.0,1.0,,,,,,,,,,
0.0,1.0,0.704665,,,,,,purse_05s.jpg,0.0,clock_7_7.png,1.0,7,,,,,,,,,,,,,,,,,,0.0,6.0,6.0,6.0,1.0,,,,,,,,,,
0.0,1.0,1.865175,,,,,,orange_12s.jpg,0.0,clock_6_1.png,2.0,7,,,,,,,,,,,,,,,,,,0.0,7.0,7.0,7.0,1.0,,,,,,,,,,
0.0,1.0,1.09455,,,,,,eggshell_14s.jpg,0.0,clock_6_2.png,2.0,7,,,,,,,,,,,,,,,,,,0.0,8.0,8.0,8.0,1.0,,,,,,,,,,
,0.0,,,,,,,orange_12s.jpg,1.0,clock_6_3.png,2.0,7,,,,,,,,,,,,,,,,,,0.0,9.0,9.0,9.0,1.0,,,,,,,,,,
0.0,1.0,0.9144,,,,,,purse_05s.jpg,0.0,clock_6_4.png,2.0,7,,,,,,,,,,,,,,,,,,0.0,10.0,10.0,10.0,1.0,,,,,,,,,,
0.0,1.0,0.8677,,,,,,roller_coaster_07s.jpg,0.0,clock_6_5.png,2.0,7,,,,,,,,,,,,,,,,,,0.0,11.0,11.0,11.0,1.0,,,,,,,,,,
0.0,1.0,0.883945,,,,,,sushi_08s.jpg,0.0,clock_6_6.png,2.0,7,,,,,,,,,,,,,,,,,,0.0,12.0,12.0,12.0,1.0,,,,,,,,,,
0.0,1.0,0.60272,,,,,,raft_09s.jpg,0.0,clock_6_1.png,3.0,7,,,,,,,,,,,,,,,,,,0.0,13.0,13.0,13.0,1.0,,,,,,,,,,
0.0,1.0,0.80332,,,,,,orange_12s.jpg,0.0,clock_6_2.png,3.0,7,,,,,,,,,,,,,,,,,,0.0,14.0,14.0,14.0,1.0,,,,,,,,,,
0.0,1.0,0.72127,,,,,,kite_04s.jpg,0.0,clock_6_3.png,3.0,7,,,,,,,,,,,,,,,,,,0.0,15.0,15.0,15.0,1.0,,,,,,,,,,
0.0,1.0,1.250495,,,,,,petri_dish_12s.jpg,0.0,clock_6_4.png,3.0,7,,,,,,,,,,,,,,,,,,0.0,16.0,16.0,16.0,1.0,,,,,,,,,,
0.0,1.0,0.734565,,,,,,rope_16s.jpg,0.0,clock_6_5.png,3.0,7,,,,,,,,,,,,,,,,,,0.0,17.0,17.0,17.0,1.0,,,,,,,,,,
0.0,1.0,0.906095,,,,,,lab_coat_11s.jpg,0.0,clock_6_6.png,3.0,7,,,,,,,,,,,,,,,,,,0.0,18.0,18.0,18.0,1.0,,,,,,,,,,
0.0,1.0,1.61054,,,,,,pretzel_09s.jpg,0.0,clock_5_1.png,4.0,7,,,,,,,,,,,,,,,,,,0.0,19.0,19.0,19.0,1.0,,,,,,,,,,
0.0,1.0,0.38055,,,,,,doily_13s.jpg,0.0,clock_5_2.png,4.0,7,,,,,,,,,,,,,,,,,,0.0,20.0,20.0,20.0,1.0,,,,,,,,,,
0.0,1.0,0.335435,,,,,,rooster_03s.jpg,0.0,clock_5_3.png,4.0,7,,,,,,,,,,,,,,,,,,0.0,21.0,21.0,21.0,1.0,,,,,,,,,,
0.0,1.0,0.68793,,,,,,fondue_07s.jpg,0.0,clock_5_4.png,4.0,7,,,,,,,,,,,,,,,,,,0.0,22.0,22.0,22.0,1.0,,,,,,,,,,
0.0,1.0,0.835565,,,,,,petri_dish_12s.jpg,0.0,clock_5_5.png,4.0,7,,,,,,,,,,,,,,,,,,0.0,23.0,23.0,23.0,1.0,,,,,,,,,,
0.0,1.0,1.16028,,,,,,pinwheel_06s.jpg,0.0,clock_5_1.png,5.0,7,,,,,,,,,,,,,,,,,,0.0,24.0,24.0,24.0,1.0,,,,,,,,,,
0.0,1.0,0.72609,,,,,,police_car_01s.jpg,0.0,clock_5_2.png,5.0,7,,,,,,,,,,,,,,,,,,0.0,25.0,25.0,25.0,1.0,,,,,,,,,,
0.0,1.0,0.492415,,,,,,feather02.jpg,0.0,clock_5_3.png,5.0,7,,,,,,,,,,,,,,,,,,0.0,26.0,26.0,26.0,1.0,,,,,,,,,,
0.0,1.0,0.879935,,,,,,smoothie_09s.jpg,0.0,clock_5_4.png,5.0,7,,,,,,,,,,,,,,,,,,0.0,27.0,27.0,27.0,1.0,,,,,,,,,,
0.0,1.0,0.58591,,,,,,kettle_08s.jpg,0.0,clock_5_5.png,5.0,7,,,,,,,,,,,,,,,,,,0.0,28.0,28.0,28.0,1.0,,,,,,,,,,
0.0,1.0,1.20661,,,,,,spacesuit_02s.jpg,0.0,clock_7_1.png,6.0,7,,,,,,,,,,,,,,,,,,0.0,29.0,29.0,29.0,1.0,,,,,,,,,,
0.0,1.0,0.677345,,,,,,licorice_06s.jpg,0.0,clock_7_2.png,6.0,7,,,,,,,,,,,,,,,,,,0.0,30.0,30.0,30.0,1.0,,,,,,,,,,
0.0,1.0,0.901435,,,,,,quesadilla_07s.jpg,0.0,clock_7_3.png,6.0,7,,,,,,,,,,,,,,,,,,0.0,31.0,31.0,31.0,1.0,,,,,,,,,,
0.0,1.0,0.65699,,,,,,road_sign_05s.jpg,0.0,clock_7_4.png,6.0,7,,,,,,,,,,,,,,,,,,0.0,32.0,32.0,32.0,1.0,,,,,,,,,,
1.0,1.0,1.2387,,,,,,licorice_06s.jpg,1.0,clock_7_5.png,6.0,7,,,,,,,,,,,,,,,,,,0.0,33.0,33.0,33.0,1.0,,,,,,,,,,
1.0,1.0,1.255485,,,,,,licorice_06s.jpg,1.0,clock_7_6.png,6.0,7,,,,,,,,,,,,,,,,,,0.0,34.0,34.0,34.0,1.0,,,,,,,,,,
0.0,1.0,0.672125,,,,,,birthday_cake_09s.jpg,0.0,clock_7_7.png,6.0,7,,,,,,,,,,,,,,,,,,0.0,35.0,35.0,35.0,1.0,,,,,,,,,,
,,,,,,,,,1.0,,,7,1.0,1.0,2.5835,,,,,,rope_16s.jpg,doily_13s.jpg,,,,,,,,,,,,,0.0,0.0,0.0,0.0,1.0,,,,,
,,,,,,,,,1.0,,,7,0.0,0.0,1.248065,,,,,,lab_coat_11s.jpg,rooster_03s.jpg,,,,,,,,,,,,,0.0,1.0,1.0,1.0,1.0,,,,,
,,,,,,,,,1.0,,,7,1.0,1.0,1.390455,,,,,,feather02.jpg,spacesuit_02s.jpg,,,,,,,,,,,,,0.0,2.0,2.0,2.0,1.0,,,,,
,,,,,,,,,1.0,,,7,1.0,1.0,1.125875,,,,,,eggshell_14s.jpg,roller_coaster_07s.jpg,,,,,,,,,,,,,0.0,3.0,3.0,3.0,1.0,,,,,
,,,,,,,,,1.0,,,7,1.0,1.0,1.360175,,,,,,road_sign_05s.jpg,birthday_cake_09s.jpg,,,,,,,,,,,,,0.0,4.0,4.0,4.0,1.0,,,,,
,,,,,,,,,1.0,,,7,1.0,1.0,2.734625,,,,,,pretzel_09s.jpg,fondue_07s.jpg,,,,,,,,,,,,,0.0,5.0,5.0,5.0,1.0,,,,,
