key_resp.keys,key_resp.corr,key_resp.rt,noclock_loop.thisRepN,noclock_loop.thisTrialN,noclock_loop.thisN,noclock_loop.thisIndex,noclock_loop.ran,pictures,answer,clock,segment,participant,key_resp_2.keys,key_resp_2.corr,key_resp_2.rt,noclock_loop2.thisRepN,noclock_loop2.thisTrialN,noclock_loop2.thisN,noclock_loop2.thisIndex,noclock_loop2.ran,item_a,item_b,noclock_condition.thisRepN,noclock_condition.thisTrialN,noclock_condition.thisN,noclock_condition.thisIndex,noclock_condition.ran,present,compare,present_segment.thisRepN,present_segment.thisTrialN,present_segment.thisN,present_segment.thisIndex,present_segment.ran,compare_segment.thisRepN,compare_segment.thisTrialN,compare_segment.thisN,compare_segment.thisIndex,compare_segment.ran,clock_conditions.thisRepN,clock_conditions.thisTrialN,clock_conditions.thisN,clock_conditions.thisIndex,clock_conditions.ran
0.0,1.0,1.131115,0.0,0.0,0.0,0.0,1.0,padlock_07s.jpg,0.0,clockno_up.jpg,1.0,40,,,,,,,,,,,,,,,,,,,,,,,,,,,,,,,,
0.0,1.0,1.02033,0.0,1.0,1.0,1.0,1.0,boar_10s.jpg,0.0,clockno_default.jpg,1.0,40,,,,,,,,,,,,,,,,,,,,,,,,,,,,,,,,
0.0,1.0,0.616,0.0,2.0,2.0,2.0,1.0,rollerskate_03s.jpg,0.0,clockno_default.jpg,1.0,40,,,,,,,,,,,,,,,,,,,,,,,,,,,,,,,,
0.0,1.0,0.777395,0.0,3.0,3.0,3.0,1.0,lip_gloss_06s.jpg,0.0,clockno_default.jpg,1.0,40,,,,,,,,,,,,,,,,,,,,,,,,,,,,,,,,
0.0,1.0,0.79657,0.0,4.0,4.0,4.0,1.0,funnel_01b.jpg,0.0,clockno_default.jpg,1.0,40,,,,,,,,,,,,,,,,,,,,,,,,,,,,,,,,
0.0,1.0,1.12346,0.0,5.0,5.0,5.0,1.0,solar_panel_02s.jpg,0.0,clockno_default.jpg,1.0,40,,,,,,,,,,,,,,,,,,,,,,,,,,,,,,,,
0.0,1.0,0.751215,0.0,6.0,6.0,6.0,1.0,rope_16s.jpg,0.0,clockno_up.jpg,2.0,40,,,,,,,,,,,,,,,,,,,,,,,,,,,,,,,,
0.0,1.0,1.03667,0.0,7.0,7.0,7.0,1.0,pie_08s.jpg,0.0,clockno_default.jpg,2.0,40,,,,,,,,,,,,,,,,,,,,,,,,,,,,,,,,
0.0,1.0,0.96667,0.0,8.0,8.0,8.0,1.0,checkbook_11s.jpg,0.0,clockno_default.jpg,2.0,40,,,,,,,,,,,,,,,,,,,,,,,,,,,,,,,,
0.0,1.0,0.75297,0.0,9.0,9.0,9.0,1.0,tablet_04s.jpg,0.0,clockno_default.jpg,2.0,40,,,,,,,,,,,,,,,,,,,,,,,,,,,,,,,,
0.0,1.0,0.73079,0.0,10.0,10.0,10.0,1.0,quad_04s.jpg,0.0,clockno_default.jpg,2.0,40,,,,,,,,,,,,,,,,,,,,,,,,,,,,,,,,
1.0,1.0,1.00151,0.0,11.0,11.0,11.0,1.0,quad_04s.jpg,1.0,clockno_default.jpg,2.0,40,,,,,,,,,,,,,,,,,,,,,,,,,,,,,,,,
0.0,1.0,0.60182,0.0,12.0,12.0,12.0,1.0,light_switch_02s.jpg,0.0,clockno_default.jpg,2.0,40,,,,,,,,,,,,,,,,,,,,,,,,,,,,,,,,
0.0,1.0,0.64146,0.0,13.0,13.0,13.0,1.0,cotton_candy_01b.jpg,0.0,clockno_up.jpg,3.0,40,,,,,,,,,,,,,,,,,,,,,,,,,,,,,,,,
0.0,1.0,1.034265,0.0,14.0,14.0,14.0,1.0,checkbook_11s.jpg,0.0,clockno_default.jpg,3.0,40,,,,,,,,,,,,,,,,,,,,,,,,,,,,,,,,
0.0,1.0,1.41482,0.0,15.0,15.0,15.0,1.0,pie_08s.jpg,0.0,clockno_default.jpg,3.0,40,,,,,,,,,,,,,,,,,,,,,,,,,,,,,,,,
1.0,1.0,0.878345,0.0,16.0,16.0,16.0,1.0,checkbook_11s.jpg,1.0,clockno_default.jpg,3.0,40,,,,,,,,,,,,,,,,,,,,,,,,,,,,,,,,
0.0,1.0,1.204275,0.0,17.0,17.0,17.0,1.0,boar_10s.jpg,0.0,clockno_default.jpg,3.0,40,,,,,,,,,,,,,,,,,,,,,,,,,,,,,,,,
0.0,0.0,1.36102,0.0,18.0,18.0,18.0,1.0,cotton_candy_01b.jpg,1.0,clockno_default.jpg,3.0,40,,,,,,,,,,,,,,,,,,,,,,,,,,,,,,,,
0.0,1.0,1.012005,0.0,19.0,19.0,19.0,1.0,keyboard_05s.jpg,0.0,clockno_default.jpg,3.0,40,,,,,,,,,,,,,,,,,,,,,,,,,,,,,,,,
0.0,1.0,1.17639,0.0,20.0,20.0,20.0,1.0,binder_21s.jpg,0.0,clockno_up.jpg,4.0,40,,,,,,,,,,,,,,,,,,,,,,,,,,,,,,,,
0.0,1.0,1.22763,0.0,21.0,21.0,21.0,1.0,solar_panel_02s.jpg,0.0,clockno_default.jpg,4.0,40,,,,,,,,,,,,,,,,,,,,,,,,,,,,,,,,
0.0,1.0,1.423575,0.0,22.0,22.0,22.0,1.0,camcorder_10s.jpg,0.0,clockno_default.jpg,4.0,40,,,,,,,,,,,,,,,,,,,,,,,,,,,,,,,,
0.0,1.0,1.06823,0.0,23.0,23.0,23.0,1.0,kettle_08s.jpg,0.0,clockno_default.jpg,4.0,40,,,,,,,,,,,,,,,,,,,,,,,,,,,,,,,,
1.0,1.0,1.1154,0.0,24.0,24.0,24.0,1.0,binder_21s.jpg,1.0,clockno_default.jpg,4.0,40,,,,,,,,,,,,,,,,,,,,,,,,,,,,,,,,
0.0,1.0,1.236105,0.0,25.0,25.0,25.0,1.0,flip_flop_03s.jpg,0.0,clockno_up.jpg,5.0,40,,,,,,,,,,,,,,,,,,,,,,,,,,,,,,,,
0.0,1.0,1.093115,0.0,26.0,26.0,26.0,1.0,mud_13s.jpg,0.0,clockno_default.jpg,5.0,40,,,,,,,,,,,,,,,,,,,,,,,,,,,,,,,,
0.0,1.0,1.15768,0.0,27.0,27.0,27.0,1.0,throne_11s.jpg,0.0,clockno_default.jpg,5.0,40,,,,,,,,,,,,,,,,,,,,,,,,,,,,,,,,
0.0,1.0,1.085645,0.0,28.0,28.0,28.0,1.0,paintbrush_04s.jpg,0.0,clockno_default.jpg,5.0,40,,,,,,,,,,,,,,,,,,,,,,,,,,,,,,,,
,0.0,,0.0,29.0,29.0,29.0,1.0,throne_11s.jpg,1.0,clockno_default.jpg,5.0,40,,,,,,,,,,,,,,,,,,,,,,,,,,,,,,,,
0.0,1.0,0.909365,0.0,30.0,30.0,30.0,1.0,toaster_03s.jpg,0.0,clockno_default.jpg,5.0,40,,,,,,,,,,,,,,,,,,,,,,,,,,,,,,,,
0.0,1.0,1.070455,0.0,31.0,31.0,31.0,1.0,orange_12s.jpg,0.0,clockno_up.jpg,6.0,40,,,,,,,,,,,,,,,,,,,,,,,,,,,,,,,,
0.0,1.0,0.91709,0.0,32.0,32.0,32.0,1.0,ring_03s.jpg,0.0,clockno_default.jpg,6.0,40,,,,,,,,,,,,,,,,,,,,,,,,,,,,,,,,
0.0,1.0,0.53115,0.0,33.0,33.0,33.0,1.0,smoothie_09s.jpg,0.0,clockno_default.jpg,6.0,40,,,,,,,,,,,,,,,,,,,,,,,,,,,,,,,,
0.0,1.0,0.545685,0.0,34.0,34.0,34.0,1.0,lab_coat_11s.jpg,0.0,clockno_default.jpg,6.0,40,,,,,,,,,,,,,,,,,,,,,,,,,,,,,,,,
1.0,1.0,0.9104,0.0,35.0,35.0,35.0,1.0,smoothie_09s.jpg,1.0,clockno_default.jpg,6.0,40,,,,,,,,,,,,,,,,,,,,,,,,,,,,,,,,
,,,,,,,,,0.0,,,40,0.0,1.0,1.932035,0.0,0.0,0.0,0.0,1.0,camcorder_10s.jpg,keyboard_05s.jpg,,,,,,,,,,,,,,,,,,,,,,
,,,,,,,,,0.0,,,40,0.0,1.0,2.09753,0.0,1.0,1.0,1.0,1.0,mud_13s.jpg,kettle_08s.jpg,,,,,,,,,,,,,,,,,,,,,,
,,,,,,,,,0.0,,,40,1.0,0.0,1.330815,0.0,2.0,2.0,2.0,1.0,rope_16s.jpg,lip_gloss_06s.jpg,,,,,,,,,,,,,,,,,,,,,,
,,,,,,,,,0.0,,,40,0.0,1.0,1.62295,0.0,3.0,3.0,3.0,1.0,light_switch_02s.jpg,tablet_04s.jpg,,,,,,,,,,,,,,,,,,,,,,
,,,,,,,,,1.0,,,40,0.0,0.0,1.49409,0.0,4.0,4.0,4.0,1.0,orange_12s.jpg,lab_coat_11s.jpg,,,,,,,,,,,,,,,,,,,,,,
,,,,,,,,,0.0,,,40,1.0,0.0,1.54139,0.0,5.0,5.0,5.0,1.0,paintbrush_04s.jpg,flip_flop_03s.jpg,,,,,,,,,,,,,,,,,,,,,,
,,,,,,,,,,,,40,,,,,,,,,,,0.0,0.0,0.0,0.0,1.0,clockno_present_1_4.xlsx,clockno_compare_task_1_4.xlsx,,,,,,,,,,,,,,,
0.0,1.0,1.228705,0.0,0.0,0.0,0.0,1.0,butter_14s.jpg,0.0,clockno_up.jpg,1.0,40,,,,,,,,,,,,,,,,,,,,,,,,,,,,,,,,
1.0,1.0,0.845795,0.0,1.0,1.0,1.0,1.0,butter_14s.jpg,1.0,clockno_default.jpg,1.0,40,,,,,,,,,,,,,,,,,,,,,,,,,,,,,,,,
0.0,1.0,0.864,0.0,2.0,2.0,2.0,1.0,pepper_mill_03s.jpg,0.0,clockno_default.jpg,1.0,40,,,,,,,,,,,,,,,,,,,,,,,,,,,,,,,,
0.0,1.0,0.851425,0.0,3.0,3.0,3.0,1.0,fox_13s.jpg,0.0,clockno_default.jpg,1.0,40,,,,,,,,,,,,,,,,,,,,,,,,,,,,,,,,
0.0,1.0,0.597045,0.0,4.0,4.0,4.0,1.0,jukebox_03n.jpg,0.0,clockno_default.jpg,1.0,40,,,,,,,,,,,,,,,,,,,,,,,,,,,,,,,,
0.0,1.0,0.99163,0.0,5.0,5.0,5.0,1.0,air_pump_05s.jpg,0.0,clockno_up.jpg,2.0,40,,,,,,,,,,,,,,,,,,,,,,,,,,,,,,,,
0.0,1.0,0.941455,0.0,6.0,6.0,6.0,1.0,koala_13s.jpg,0.0,clockno_default.jpg,2.0,40,,,,,,,,,,,,,,,,,,,,,,,,,,,,,,,,
0.0,1.0,0.84442,0.0,7.0,7.0,7.0,1.0,muffin_12n.jpg,0.0,clockno_default.jpg,2.0,40,,,,,,,,,,,,,,,,,,,,,,,,,,,,,,,,
0.0,1.0,0.650955,0.0,8.0,8.0,8.0,1.0,tie_03s.jpg,0.0,clockno_default.jpg,2.0,40,,,,,,,,,,,,,,,,,,,,,,,,,,,,,,,,
0.0,1.0,1.278455,0.0,9.0,9.0,9.0,1.0,razor_blade_01b.jpg,0.0,clockno_default.jpg,2.0,40,,,,,,,,,,,,,,,,,,,,,,,,,,,,,,,,
1.0,0.0,0.8844,0.0,10.0,10.0,10.0,1.0,butter_14s.jpg,0.0,clockno_default.jpg,2.0,40,,,,,,,,,,,,,,,,,,,,,,,,,,,,,,,,
0.0,1.0,0.674705,0.0,11.0,11.0,11.0,1.0,frame_06s.jpg,0.0,clockno_up.jpg,3.0,40,,,,,,,,,,,,,,,,,,,,,,,,,,,,,,,,
0.0,1.0,0.625475,0.0,12.0,12.0,12.0,1.0,lion_18s.jpg,0.0,clockno_default.jpg,3.0,40,,,,,,,,,,,,,,,,,,,,,,,,,,,,,,,,
1.0,0.0,1.4709,0.0,13.0,13.0,13.0,1.0,pepper_mill_03s.jpg,0.0,clockno_default.jpg,3.0,40,,,,,,,,,,,,,,,,,,,,,,,,,,,,,,,,
1.0,1.0,0.96924,0.0,14.0,14.0,14.0,1.0,lion_18s.jpg,1.0,clockno_default.jpg,3.0,40,,,,,,,,,,,,,,,,,,,,,,,,,,,,,,,,
1.0,1.0,1.73605,0.0,15.0,15.0,15.0,1.0,frame_06s.jpg,1.0,clockno_default.jpg,3.0,40,,,,,,,,,,,,,,,,,,,,,,,,,,,,,,,,
0.0,1.0,0.676045,0.0,16.0,16.0,16.0,1.0,eiffeltower.jpg,0.0,clockno_default.jpg,3.0,40,,,,,,,,,,,,,,,,,,,,,,,,,,,,,,,,
0.0,1.0,0.70362,0.0,17.0,17.0,17.0,1.0,jet_15s.jpg,0.0,clockno_default.jpg,3.0,40,,,,,,,,,,,,,,,,,,,,,,,,,,,,,,,,
0.0,1.0,0.61887,0.0,18.0,18.0,18.0,1.0,duck_01b.jpg,0.0,clockno_up.jpg,4.0,40,,,,,,,,,,,,,,,,,,,,,,,,,,,,,,,,
1.0,1.0,0.980745,0.0,19.0,19.0,19.0,1.0,duck_01b.jpg,1.0,clockno_default.jpg,4.0,40,,,,,,,,,,,,,,,,,,,,,,,,,,,,,,,,
0.0,1.0,1.0503,0.0,20.0,20.0,20.0,1.0,jelly_bean_06s.jpg,0.0,clockno_default.jpg,4.0,40,,,,,,,,,,,,,,,,,,,,,,,,,,,,,,,,
1.0,1.0,0.72152,0.0,21.0,21.0,21.0,1.0,jelly_bean_06s.jpg,1.0,clockno_default.jpg,4.0,40,,,,,,,,,,,,,,,,,,,,,,,,,,,,,,,,
0.0,1.0,1.079095,0.0,22.0,22.0,22.0,1.0,lamp_08s.jpg,0.0,clockno_default.jpg,4.0,40,,,,,,,,,,,,,,,,,,,,,,,,,,,,,,,,
0.0,1.0,0.613725,0.0,23.0,23.0,23.0,1.0,ivy_12s.jpg,0.0,clockno_default.jpg,4.0,40,,,,,,,,,,,,,,,,,,,,,,,,,,,,,,,,
0.0,1.0,1.217875,0.0,24.0,24.0,24.0,1.0,turf_03s.jpg,0.0,clockno_up.jpg,5.0,40,,,,,,,,,,,,,,,,,,,,,,,,,,,,,,,,
1.0,0.0,1.190025,0.0,25.0,25.0,25.0,1.0,duck_01b.jpg,0.0,clockno_default.jpg,5.0,40,,,,,,,,,,,,,,,,,,,,,,,,,,,,,,,,
0.0,1.0,1.060525,0.0,26.0,26.0,26.0,1.0,tuba_12s.jpg,0.0,clockno_default.jpg,5.0,40,,,,,,,,,,,,,,,,,,,,,,,,,,,,,,,,
1.0,0.0,1.11787,0.0,27.0,27.0,27.0,1.0,butter_14s.jpg,0.0,clockno_default.jpg,5.0,40,,,,,,,,,,,,,,,,,,,,,,,,,,,,,,,,
0.0,1.0,0.70665,0.0,28.0,28.0,28.0,1.0,fountain_pen_06s.jpg,0.0,clockno_default.jpg,5.0,40,,,,,,,,,,,,,,,,,,,,,,,,,,,,,,,,
0.0,1.0,1.231815,0.0,29.0,29.0,29.0,1.0,letter_opener_03s.jpg,0.0,clockno_up.jpg,6.0,40,,,,,,,,,,,,,,,,,,,,,,,,,,,,,,,,
0.0,1.0,1.071705,0.0,30.0,30.0,30.0,1.0,gear_07s.jpg,0.0,clockno_default.jpg,6.0,40,,,,,,,,,,,,,,,,,,,,,,,,,,,,,,,,
0.0,1.0,0.5992,0.0,31.0,31.0,31.0,1.0,undershirt_02s.jpg,0.0,clockno_default.jpg,6.0,40,,,,,,,,,,,,,,,,,,,,,,,,,,,,,,,,
0.0,1.0,0.566745,0.0,32.0,32.0,32.0,1.0,target_11s.jpg,0.0,clockno_default.jpg,6.0,40,,,,,,,,,,,,,,,,,,,,,,,,,,,,,,,,
0.0,1.0,0.787215,0.0,33.0,33.0,33.0,1.0,syringe_02s.jpg,0.0,clockno_default.jpg,6.0,40,,,,,,,,,,,,,,,,,,,,,,,,,,,,,,,,
0.0,1.0,0.563635,0.0,34.0,34.0,34.0,1.0,reindeer_08s.jpg,0.0,clockno_default.jpg,6.0,40,,,,,,,,,,,,,,,,,,,,,,,,,,,,,,,,
0.0,1.0,1.451225,0.0,35.0,35.0,35.0,1.0,sea_urchin_09s.jpg,0.0,clockno_default.jpg,6.0,40,,,,,,,,,,,,,,,,,,,,,,,,,,,,,,,,
,,,,,,,,,0.0,,,40,0.0,1.0,2.33903,0.0,0.0,0.0,0.0,1.0,muffin_12n.jpg,jukebox_03n.jpg,,,,,,,,,,,,,,,,,,,,,,
,,,,,,,,,1.0,,,40,0.0,0.0,1.71077,0.0,1.0,1.0,1.0,1.0,ivy_12s.jpg,tuba_12s.jpg,,,,,,,,,,,,,,,,,,,,,,
,,,,,,,,,1.0,,,40,1.0,1.0,1.02179,0.0,2.0,2.0,2.0,1.0,fox_13s.jpg,koala_13s.jpg,,,,,,,,,,,,,,,,,,,,,,
,,,,,,,,,0.0,,,40,0.0,1.0,1.235435,0.0,3.0,3.0,3.0,1.0,tie_03s.jpg,air_pump_05s.jpg,,,,,,,,,,,,,,,,,,,,,,
,,,,,,,,,1.0,,,40,0.0,0.0,1.24648,0.0,4.0,4.0,4.0,1.0,gear_07s.jpg,syringe_02s.jpg,,,,,,,,,,,,,,,,,,,,,,
,,,,,,,,,1.0,,,40,0.0,0.0,1.50716,0.0,5.0,5.0,5.0,1.0,target_11s.jpg,sea_urchin_09s.jpg,,,,,,,,,,,,,,,,,,,,,,
,,,,,,,,,,,,40,,,,,,,,,,,0.0,1.0,1.0,1.0,1.0,clockno_present_2_4.xlsx,clockno_compare_task_2_4.xlsx,,,,,,,,,,,,,,,
0.0,1.0,1.41243,0.0,0.0,0.0,0.0,1.0,tupperware_09s.jpg,0.0,clockno_up.jpg,1.0,40,,,,,,,,,,,,,,,,,,,,,,,,,,,,,,,,
1.0,1.0,0.8238,0.0,1.0,1.0,1.0,1.0,tupperware_09s.jpg,1.0,clockno_default.jpg,1.0,40,,,,,,,,,,,,,,,,,,,,,,,,,,,,,,,,
0.0,1.0,1.01635,0.0,2.0,2.0,2.0,1.0,towel_rack_04s.jpg,0.0,clockno_default.jpg,1.0,40,,,,,,,,,,,,,,,,,,,,,,,,,,,,,,,,
0.0,1.0,0.669195,0.0,3.0,3.0,3.0,1.0,trident_07s.jpg,0.0,clockno_default.jpg,1.0,40,,,,,,,,,,,,,,,,,,,,,,,,,,,,,,,,
0.0,1.0,1.284675,0.0,4.0,4.0,4.0,1.0,doily_13s.jpg,0.0,clockno_default.jpg,1.0,40,,,,,,,,,,,,,,,,,,,,,,,,,,,,,,,,
1.0,1.0,1.04447,0.0,5.0,5.0,5.0,1.0,towel_rack_04s.jpg,1.0,clockno_default.jpg,1.0,40,,,,,,,,,,,,,,,,,,,,,,,,,,,,,,,,
0.0,1.0,0.666855,0.0,6.0,6.0,6.0,1.0,bank_06s.jpg,0.0,clockno_up.jpg,2.0,40,,,,,,,,,,,,,,,,,,,,,,,,,,,,,,,,
0.0,1.0,0.54755,0.0,7.0,7.0,7.0,1.0,rake_06s.jpg,0.0,clockno_default.jpg,2.0,40,,,,,,,,,,,,,,,,,,,,,,,,,,,,,,,,
0.0,1.0,1.826415,0.0,8.0,8.0,8.0,1.0,lava_02s.jpg,0.0,clockno_default.jpg,2.0,40,,,,,,,,,,,,,,,,,,,,,,,,,,,,,,,,
0.0,1.0,0.78394,0.0,9.0,9.0,9.0,1.0,lemonade_04s.jpg,0.0,clockno_default.jpg,2.0,40,,,,,,,,,,,,,,,,,,,,,,,,,,,,,,,,
1.0,1.0,1.0008,0.0,10.0,10.0,10.0,1.0,lava_02s.jpg,1.0,clockno_default.jpg,2.0,40,,,,,,,,,,,,,,,,,,,,,,,,,,,,,,,,
0.0,1.0,0.90031,0.0,11.0,11.0,11.0,1.0,pillow_03s.jpg,0.0,clockno_up.jpg,3.0,40,,,,,,,,,,,,,,,,,,,,,,,,,,,,,,,,
0.0,1.0,0.91121,0.0,12.0,12.0,12.0,1.0,scooter.jpg,0.0,clockno_default.jpg,3.0,40,,,,,,,,,,,,,,,,,,,,,,,,,,,,,,,,
0.0,1.0,0.918025,0.0,13.0,13.0,13.0,1.0,laundry_basket_11s.jpg,0.0,clockno_default.jpg,3.0,40,,,,,,,,,,,,,,,,,,,,,,,,,,,,,,,,
0.0,1.0,0.77276,0.0,14.0,14.0,14.0,1.0,pear_02s.jpg,0.0,clockno_default.jpg,3.0,40,,,,,,,,,,,,,,,,,,,,,,,,,,,,,,,,
0.0,1.0,0.88917,0.0,15.0,15.0,15.0,1.0,hyena_16s.jpg,0.0,clockno_default.jpg,3.0,40,,,,,,,,,,,,,,,,,,,,,,,,,,,,,,,,
1.0,1.0,1.1322,0.0,16.0,16.0,16.0,1.0,laundry_basket_11s.jpg,1.0,clockno_default.jpg,3.0,40,,,,,,,,,,,,,,,,,,,,,,,,,,,,,,,,
0.0,1.0,0.640615,0.0,17.0,17.0,17.0,1.0,spider_web_03s.jpg,0.0,clockno_up.jpg,4.0,40,,,,,,,,,,,,,,,,,,,,,,,,,,,,,,,,
1.0,1.0,0.89496,0.0,18.0,18.0,18.0,1.0,spider_web_03s.jpg,1.0,clockno_default.jpg,4.0,40,,,,,,,,,,,,,,,,,,,,,,,,,,,,,,,,
1.0,1.0,0.570435,0.0,19.0,19.0,19.0,1.0,spider_web_03s.jpg,1.0,clockno_default.jpg,4.0,40,,,,,,,,,,,,,,,,,,,,,,,,,,,,,,,,
0.0,1.0,0.67299,0.0,20.0,20.0,20.0,1.0,chopsticks_08s.jpg,0.0,clockno_default.jpg,4.0,40,,,,,,,,,,,,,,,,,,,,,,,,,,,,,,,,
1.0,1.0,0.704075,0.0,21.0,21.0,21.0,1.0,spider_web_03s.jpg,1.0,clockno_default.jpg,4.0,40,,,,,,,,,,,,,,,,,,,,,,,,,,,,,,,,
0.0,1.0,0.76613,0.0,22.0,22.0,22.0,1.0,blazer_02s.jpg,0.0,clockno_default.jpg,4.0,40,,,,,,,,,,,,,,,,,,,,,,,,,,,,,,,,
0.0,1.0,0.901225,0.0,23.0,23.0,23.0,1.0,mug_06s.jpg,0.0,clockno_default.jpg,4.0,40,,,,,,,,,,,,,,,,,,,,,,,,,,,,,,,,
0.0,1.0,0.69947,0.0,24.0,24.0,24.0,1.0,kangaroo_02s.jpg,0.0,clockno_up.jpg,5.0,40,,,,,,,,,,,,,,,,,,,,,,,,,,,,,,,,
0.0,1.0,1.36919,0.0,25.0,25.0,25.0,1.0,lantern_04s.jpg,0.0,clockno_default.jpg,5.0,40,,,,,,,,,,,,,,,,,,,,,,,,,,,,,,,,
0.0,1.0,1.08989,0.0,26.0,26.0,26.0,1.0,tongs_08s.jpg,0.0,clockno_default.jpg,5.0,40,,,,,,,,,,,,,,,,,,,,,,,,,,,,,,,,
0.0,1.0,0.98376,0.0,27.0,27.0,27.0,1.0,dynamite_01b.jpg,0.0,clockno_default.jpg,5.0,40,,,,,,,,,,,,,,,,,,,,,,,,,,,,,,,,
0.0,1.0,0.701345,0.0,28.0,28.0,28.0,1.0,razor_12s.jpg,0.0,clockno_default.jpg,5.0,40,,,,,,,,,,,,,,,,,,,,,,,,,,,,,,,,
0.0,1.0,0.811505,0.0,29.0,29.0,29.0,1.0,loom_05s.jpg,0.0,clockno_default.jpg,5.0,40,,,,,,,,,,,,,,,,,,,,,,,,,,,,,,,,
0.0,1.0,1.05261,0.0,30.0,30.0,30.0,1.0,compass_10n.jpg,0.0,clockno_default.jpg,5.0,40,,,,,,,,,,,,,,,,,,,,,,,,,,,,,,,,
0.0,1.0,0.93252,0.0,31.0,31.0,31.0,1.0,penguin_16s.jpg,0.0,clockno_up.jpg,6.0,40,,,,,,,,,,,,,,,,,,,,,,,,,,,,,,,,
0.0,1.0,0.977545,0.0,32.0,32.0,32.0,1.0,typewriter_11s.jpg,0.0,clockno_default.jpg,6.0,40,,,,,,,,,,,,,,,,,,,,,,,,,,,,,,,,
0.0,1.0,0.638395,0.0,33.0,33.0,33.0,1.0,champagne_18s.jpg,0.0,clockno_default.jpg,6.0,40,,,,,,,,,,,,,,,,,,,,,,,,,,,,,,,,
0.0,1.0,0.597125,0.0,34.0,34.0,34.0,1.0,bacon_05s.jpg,0.0,clockno_default.jpg,6.0,40,,,,,,,,,,,,,,,,,,,,,,,,,,,,,,,,
0.0,1.0,1.143525,0.0,35.0,35.0,35.0,1.0,limousine_12s.jpg,0.0,clockno_default.jpg,6.0,40,,,,,,,,,,,,,,,,,,,,,,,,,,,,,,,,
,,,,,,,,,0.0,,,40,0.0,1.0,1.45804,0.0,0.0,0.0,0.0,1.0,rake_06s.jpg,doily_13s.jpg,,,,,,,,,,,,,,,,,,,,,,
,,,,,,,,,0.0,,,40,1.0,0.0,1.272,0.0,1.0,1.0,1.0,1.0,bank_06s.jpg,trident_07s.jpg,,,,,,,,,,,,,,,,,,,,,,
,,,,,,,,,0.0,,,40,1.0,0.0,0.954115,0.0,2.0,2.0,2.0,1.0,lantern_04s.jpg,blazer_02s.jpg,,,,,,,,,,,,,,,,,,,,,,
,,,,,,,,,1.0,,,40,0.0,0.0,1.29275,0.0,3.0,3.0,3.0,1.0,pillow_03s.jpg,pear_02s.jpg,,,,,,,,,,,,,,,,,,,,,,
,,,,,,,,,0.0,,,40,1.0,0.0,1.49114,0.0,4.0,4.0,4.0,1.0,dynamite_01b.jpg,kangaroo_02s.jpg,,,,,,,,,,,,,,,,,,,,,,
,,,,,,,,,1.0,,,40,1.0,1.0,0.78675,0.0,5.0,5.0,5.0,1.0,scooter.jpg,hyena_16s.jpg,,,,,,,,,,,,,,,,,,,,,,
,,,,,,,,,,,,40,,,,,,,,,,,0.0,2.0,2.0,2.0,1.0,clockno_present_3_4.xlsx,clockno_compare_task_3_4.xlsx,,,,,,,,,,,,,,,
0.0,1.0,1.358265,0.0,0.0,0.0,0.0,1.0,leash_10s.jpg,0.0,clockno_up.jpg,1.0,40,,,,,,,,,,,,,,,,,,,,,,,,,,,,,,,,
1.0,1.0,1.036065,0.0,1.0,1.0,1.0,1.0,leash_10s.jpg,1.0,clockno_default.jpg,1.0,40,,,,,,,,,,,,,,,,,,,,,,,,,,,,,,,,
0.0,1.0,0.605845,0.0,2.0,2.0,2.0,1.0,ginger_09s.jpg,0.0,clockno_default.jpg,1.0,40,,,,,,,,,,,,,,,,,,,,,,,,,,,,,,,,
0.0,1.0,0.645905,0.0,3.0,3.0,3.0,1.0,lectern_08s.jpg,0.0,clockno_default.jpg,1.0,40,,,,,,,,,,,,,,,,,,,,,,,,,,,,,,,,
0.0,1.0,0.607625,0.0,4.0,4.0,4.0,1.0,candy_cane_06s.jpg,0.0,clockno_default.jpg,1.0,40,,,,,,,,,,,,,,,,,,,,,,,,,,,,,,,,
0.0,1.0,0.998275,0.0,5.0,5.0,5.0,1.0,mushroom_10n.jpg,0.0,clockno_up.jpg,2.0,40,,,,,,,,,,,,,,,,,,,,,,,,,,,,,,,,
0.0,1.0,1.034725,0.0,6.0,6.0,6.0,1.0,totem_pole_05s.jpg,0.0,clockno_default.jpg,2.0,40,,,,,,,,,,,,,,,,,,,,,,,,,,,,,,,,
0.0,1.0,1.07098,0.0,7.0,7.0,7.0,1.0,pump_11s.jpg,0.0,clockno_default.jpg,2.0,40,,,,,,,,,,,,,,,,,,,,,,,,,,,,,,,,
0.0,1.0,0.931525,0.0,8.0,8.0,8.0,1.0,rocket_02s.jpg,0.0,clockno_default.jpg,2.0,40,,,,,,,,,,,,,,,,,,,,,,,,,,,,,,,,
0.0,1.0,0.953875,0.0,9.0,9.0,9.0,1.0,sleeping_bag_12s.jpg,0.0,clockno_default.jpg,2.0,40,,,,,,,,,,,,,,,,,,,,,,,,,,,,,,,,
0.0,1.0,1.03651,0.0,10.0,10.0,10.0,1.0,machine_gun_09s.jpg,0.0,clockno_default.jpg,2.0,40,,,,,,,,,,,,,,,,,,,,,,,,,,,,,,,,
1.0,1.0,1.13023,0.0,11.0,11.0,11.0,1.0,pump_11s.jpg,1.0,clockno_default.jpg,2.0,40,,,,,,,,,,,,,,,,,,,,,,,,,,,,,,,,
0.0,1.0,0.93548,0.0,12.0,12.0,12.0,1.0,pumpkin_03s.jpg,0.0,clockno_up.jpg,3.0,40,,,,,,,,,,,,,,,,,,,,,,,,,,,,,,,,
0.0,1.0,1.944715,0.0,13.0,13.0,13.0,1.0,blender_08s.jpg,0.0,clockno_default.jpg,3.0,40,,,,,,,,,,,,,,,,,,,,,,,,,,,,,,,,
0.0,1.0,1.012105,0.0,14.0,14.0,14.0,1.0,tattoo_14s.jpg,0.0,clockno_default.jpg,3.0,40,,,,,,,,,,,,,,,,,,,,,,,,,,,,,,,,
0.0,1.0,0.82483,0.0,15.0,15.0,15.0,1.0,pincushion_10s.jpg,0.0,clockno_default.jpg,3.0,40,,,,,,,,,,,,,,,,,,,,,,,,,,,,,,,,
0.0,1.0,1.12456,0.0,16.0,16.0,16.0,1.0,snowman_02s.jpg,0.0,clockno_default.jpg,3.0,40,,,,,,,,,,,,,,,,,,,,,,,,,,,,,,,,
0.0,1.0,0.928935,0.0,17.0,17.0,17.0,1.0,pomegranate_04s.jpg,0.0,clockno_default.jpg,3.0,40,,,,,,,,,,,,,,,,,,,,,,,,,,,,,,,,
0.0,1.0,0.9485,0.0,18.0,18.0,18.0,1.0,stamp2_08s.jpg,0.0,clockno_up.jpg,4.0,40,,,,,,,,,,,,,,,,,,,,,,,,,,,,,,,,
1.0,1.0,1.20718,0.0,19.0,19.0,19.0,1.0,stamp2_08s.jpg,1.0,clockno_default.jpg,4.0,40,,,,,,,,,,,,,,,,,,,,,,,,,,,,,,,,
0.0,1.0,0.992425,0.0,20.0,20.0,20.0,1.0,spacesuit_02s.jpg,0.0,clockno_default.jpg,4.0,40,,,,,,,,,,,,,,,,,,,,,,,,,,,,,,,,
1.0,1.0,1.15302,0.0,21.0,21.0,21.0,1.0,spacesuit_02s.jpg,1.0,clockno_default.jpg,4.0,40,,,,,,,,,,,,,,,,,,,,,,,,,,,,,,,,
0.0,1.0,1.160855,0.0,22.0,22.0,22.0,1.0,gargoyle_08s.jpg,0.0,clockno_default.jpg,4.0,40,,,,,,,,,,,,,,,,,,,,,,,,,,,,,,,,
1.0,0.0,1.238185,0.0,23.0,23.0,23.0,1.0,machine_gun_09s.jpg,0.0,clockno_default.jpg,4.0,40,,,,,,,,,,,,,,,,,,,,,,,,,,,,,,,,
,0.0,,0.0,24.0,24.0,24.0,1.0,lectern_08s.jpg,0.0,clockno_default.jpg,4.0,40,,,,,,,,,,,,,,,,,,,,,,,,,,,,,,,,
0.0,1.0,0.703465,0.0,25.0,25.0,25.0,1.0,jigsaw_puzzle_11s.jpg,0.0,clockno_up.jpg,5.0,40,,,,,,,,,,,,,,,,,,,,,,,,,,,,,,,,
0.0,1.0,0.8118,0.0,26.0,26.0,26.0,1.0,bean_06s.jpg,0.0,clockno_default.jpg,5.0,40,,,,,,,,,,,,,,,,,,,,,,,,,,,,,,,,
1.0,1.0,0.63749,0.0,27.0,27.0,27.0,1.0,bean_06s.jpg,1.0,clockno_default.jpg,5.0,40,,,,,,,,,,,,,,,,,,,,,,,,,,,,,,,,
0.0,1.0,1.200715,0.0,28.0,28.0,28.0,1.0,mannequin_05s.jpg,0.0,clockno_default.jpg,5.0,40,,,,,,,,,,,,,,,,,,,,,,,,,,,,,,,,
0.0,1.0,0.93499,0.0,29.0,29.0,29.0,1.0,mascara_03s.jpg,0.0,clockno_default.jpg,5.0,40,,,,,,,,,,,,,,,,,,,,,,,,,,,,,,,,
1.0,1.0,0.794225,0.0,30.0,30.0,30.0,1.0,jigsaw_puzzle_11s.jpg,1.0,clockno_default.jpg,5.0,40,,,,,,,,,,,,,,,,,,,,,,,,,,,,,,,,
0.0,1.0,0.91314,0.0,31.0,31.0,31.0,1.0,badge_03s.jpg,0.0,clockno_up.jpg,6.0,40,,,,,,,,,,,,,,,,,,,,,,,,,,,,,,,,
0.0,1.0,0.73206,0.0,32.0,32.0,32.0,1.0,projector_08s.jpg,0.0,clockno_default.jpg,6.0,40,,,,,,,,,,,,,,,,,,,,,,,,,,,,,,,,
1.0,0.0,1.507505,0.0,33.0,33.0,33.0,1.0,mannequin_05s.jpg,0.0,clockno_default.jpg,6.0,40,,,,,,,,,,,,,,,,,,,,,,,,,,,,,,,,
0.0,1.0,0.65313,0.0,34.0,34.0,34.0,1.0,coffee_filter_10s.jpg,0.0,clockno_default.jpg,6.0,40,,,,,,,,,,,,,,,,,,,,,,,,,,,,,,,,
0.0,1.0,1.00115,0.0,35.0,35.0,35.0,1.0,sushi_08s.jpg,0.0,clockno_default.jpg,6.0,40,,,,,,,,,,,,,,,,,,,,,,,,,,,,,,,,
,,,,,,,,,0.0,,,40,0.0,1.0,5.87286,0.0,0.0,0.0,0.0,1.0,mushroom_10n.jpg,ginger_09s.jpg,,,,,,,,,,,,,,,,,,,,,,
,,,,,,,,,1.0,,,40,0.0,0.0,1.528135,0.0,1.0,1.0,1.0,1.0,mascara_03s.jpg,projector_08s.jpg,,,,,,,,,,,,,,,,,,,,,,
,,,,,,,,,1.0,,,40,1.0,1.0,1.5148,0.0,2.0,2.0,2.0,1.0,sleeping_bag_12s.jpg,pumpkin_03s.jpg,,,,,,,,,,,,,,,,,,,,,,
,,,,,,,,,0.0,,,40,0.0,1.0,1.32111,0.0,3.0,3.0,3.0,1.0,snowman_02s.jpg,blender_08s.jpg,,,,,,,,,,,,,,,,,,,,,,
,,,,,,,,,1.0,,,40,0.0,0.0,2.55898,0.0,4.0,4.0,4.0,1.0,tattoo_14s.jpg,pomegranate_04s.jpg,,,,,,,,,,,,,,,,,,,,,,
,,,,,,,,,1.0,,,40,1.0,1.0,0.85181,0.0,5.0,5.0,5.0,1.0,badge_03s.jpg,coffee_filter_10s.jpg,,,,,,,,,,,,,,,,,,,,,,
,,,,,,,,,,,,40,,,,,,,,,,,0.0,3.0,3.0,3.0,1.0,clockno_present_4_4.xlsx,clockno_compare_task_4_4.xlsx,,,,,,,,,,,,,,,
0.0,1.0,0.98584,0.0,0.0,0.0,0.0,1.0,puppet_01b.jpg,0.0,clockno_up.jpg,1.0,40,,,,,,,,,,,,,,,,,,,,,,,,,,,,,,,,
1.0,1.0,1.111185,0.0,1.0,1.0,1.0,1.0,puppet_01b.jpg,1.0,clockno_default.jpg,1.0,40,,,,,,,,,,,,,,,,,,,,,,,,,,,,,,,,
0.0,1.0,0.77362,0.0,2.0,2.0,2.0,1.0,money_07s.jpg,0.0,clockno_default.jpg,1.0,40,,,,,,,,,,,,,,,,,,,,,,,,,,,,,,,,
1.0,1.0,1.169295,0.0,3.0,3.0,3.0,1.0,puppet_01b.jpg,1.0,clockno_default.jpg,1.0,40,,,,,,,,,,,,,,,,,,,,,,,,,,,,,,,,
1.0,1.0,1.921155,0.0,4.0,4.0,4.0,1.0,money_07s.jpg,1.0,clockno_default.jpg,1.0,40,,,,,,,,,,,,,,,,,,,,,,,,,,,,,,,,
0.0,1.0,0.579265,0.0,5.0,5.0,5.0,1.0,seahorse_13s.jpg,0.0,clockno_default.jpg,1.0,40,,,,,,,,,,,,,,,,,,,,,,,,,,,,,,,,
0.0,1.0,0.762485,0.0,6.0,6.0,6.0,1.0,tinsel_12s.jpg,0.0,clockno_default.jpg,1.0,40,,,,,,,,,,,,,,,,,,,,,,,,,,,,,,,,
0.0,1.0,0.64311,0.0,7.0,7.0,7.0,1.0,medal_04s.jpg,0.0,clockno_up.jpg,2.0,40,,,,,,,,,,,,,,,,,,,,,,,,,,,,,,,,
1.0,1.0,1.150515,0.0,8.0,8.0,8.0,1.0,medal_04s.jpg,1.0,clockno_default.jpg,2.0,40,,,,,,,,,,,,,,,,,,,,,,,,,,,,,,,,
1.0,1.0,1.03511,0.0,9.0,9.0,9.0,1.0,medal_04s.jpg,1.0,clockno_default.jpg,2.0,40,,,,,,,,,,,,,,,,,,,,,,,,,,,,,,,,
1.0,1.0,0.727945,0.0,10.0,10.0,10.0,1.0,medal_04s.jpg,1.0,clockno_default.jpg,2.0,40,,,,,,,,,,,,,,,,,,,,,,,,,,,,,,,,
0.0,1.0,0.991225,0.0,11.0,11.0,11.0,1.0,key_07s.jpg,0.0,clockno_default.jpg,2.0,40,,,,,,,,,,,,,,,,,,,,,,,,,,,,,,,,
0.0,1.0,0.72207,0.0,12.0,12.0,12.0,1.0,swordfish_05s.jpg,0.0,clockno_up.jpg,3.0,40,,,,,,,,,,,,,,,,,,,,,,,,,,,,,,,,
0.0,1.0,0.788915,0.0,13.0,13.0,13.0,1.0,toilet_07s.jpg,0.0,clockno_default.jpg,3.0,40,,,,,,,,,,,,,,,,,,,,,,,,,,,,,,,,
1.0,1.0,1.19268,0.0,14.0,14.0,14.0,1.0,swordfish_05s.jpg,1.0,clockno_default.jpg,3.0,40,,,,,,,,,,,,,,,,,,,,,,,,,,,,,,,,
1.0,1.0,0.855675,0.0,15.0,15.0,15.0,1.0,swordfish_05s.jpg,1.0,clockno_default.jpg,3.0,40,,,,,,,,,,,,,,,,,,,,,,,,,,,,,,,,
0.0,1.0,1.07492,0.0,16.0,16.0,16.0,1.0,tennis_ball_06s.jpg,0.0,clockno_default.jpg,3.0,40,,,,,,,,,,,,,,,,,,,,,,,,,,,,,,,,
0.0,1.0,0.96464,0.0,17.0,17.0,17.0,1.0,penlight_12s.jpg,0.0,clockno_default.jpg,3.0,40,,,,,,,,,,,,,,,,,,,,,,,,,,,,,,,,
0.0,1.0,0.95898,0.0,18.0,18.0,18.0,1.0,rock_08s.jpg,0.0,clockno_default.jpg,3.0,40,,,,,,,,,,,,,,,,,,,,,,,,,,,,,,,,
0.0,1.0,1.414725,0.0,19.0,19.0,19.0,1.0,submarine_11n.jpg,0.0,clockno_up.jpg,4.0,40,,,,,,,,,,,,,,,,,,,,,,,,,,,,,,,,
0.0,1.0,0.91098,0.0,20.0,20.0,20.0,1.0,ostrich_06s.jpg,0.0,clockno_default.jpg,4.0,40,,,,,,,,,,,,,,,,,,,,,,,,,,,,,,,,
0.0,1.0,0.917365,0.0,21.0,21.0,21.0,1.0,rocking_horse_03s.jpg,0.0,clockno_default.jpg,4.0,40,,,,,,,,,,,,,,,,,,,,,,,,,,,,,,,,
0.0,1.0,1.044825,0.0,22.0,22.0,22.0,1.0,abacus_12s.jpg,0.0,clockno_default.jpg,4.0,40,,,,,,,,,,,,,,,,,,,,,,,,,,,,,,,,
0.0,1.0,0.931085,0.0,23.0,23.0,23.0,1.0,refrigerator_07s.jpg,0.0,clockno_default.jpg,4.0,40,,,,,,,,,,,,,,,,,,,,,,,,,,,,,,,,
0.0,1.0,1.060135,0.0,24.0,24.0,24.0,1.0,contact_lens_15s.jpg,0.0,clockno_default.jpg,4.0,40,,,,,,,,,,,,,,,,,,,,,,,,,,,,,,,,
0.0,1.0,1.066115,0.0,25.0,25.0,25.0,1.0,otter_05s.jpg,0.0,clockno_up.jpg,5.0,40,,,,,,,,,,,,,,,,,,,,,,,,,,,,,,,,
0.0,1.0,0.909275,0.0,26.0,26.0,26.0,1.0,ant_12s.jpg,0.0,clockno_default.jpg,5.0,40,,,,,,,,,,,,,,,,,,,,,,,,,,,,,,,,
0.0,1.0,0.933565,0.0,27.0,27.0,27.0,1.0,slingshot_07s.jpg,0.0,clockno_default.jpg,5.0,40,,,,,,,,,,,,,,,,,,,,,,,,,,,,,,,,
0.0,1.0,1.31197,0.0,28.0,28.0,28.0,1.0,bee_20s.jpg,0.0,clockno_default.jpg,5.0,40,,,,,,,,,,,,,,,,,,,,,,,,,,,,,,,,
0.0,1.0,0.93169,0.0,29.0,29.0,29.0,1.0,tile_08s.jpg,0.0,clockno_default.jpg,5.0,40,,,,,,,,,,,,,,,,,,,,,,,,,,,,,,,,
0.0,1.0,1.04599,0.0,30.0,30.0,30.0,1.0,road_sign_05s.jpg,0.0,clockno_up.jpg,6.0,40,,,,,,,,,,,,,,,,,,,,,,,,,,,,,,,,
0.0,1.0,1.100685,0.0,31.0,31.0,31.0,1.0,latch_15s.jpg,0.0,clockno_default.jpg,6.0,40,,,,,,,,,,,,,,,,,,,,,,,,,,,,,,,,
0.0,1.0,0.979785,0.0,32.0,32.0,32.0,1.0,paper_bag_12s.jpg,0.0,clockno_default.jpg,6.0,40,,,,,,,,,,,,,,,,,,,,,,,,,,,,,,,,
1.0,1.0,0.645135,0.0,33.0,33.0,33.0,1.0,paper_bag_12s.jpg,1.0,clockno_default.jpg,6.0,40,,,,,,,,,,,,,,,,,,,,,,,,,,,,,,,,
0.0,1.0,1.018215,0.0,34.0,34.0,34.0,1.0,cushion_08s.jpg,0.0,clockno_default.jpg,6.0,40,,,,,,,,,,,,,,,,,,,,,,,,,,,,,,,,
0.0,1.0,0.89141,0.0,35.0,35.0,35.0,1.0,briefcase_03s.jpg,0.0,clockno_default.jpg,6.0,40,,,,,,,,,,,,,,,,,,,,,,,,,,,,,,,,
,,,,,,,,,1.0,,,40,1.0,1.0,2.338385,0.0,0.0,0.0,0.0,1.0,slingshot_07s.jpg,road_sign_05s.jpg,,,,,,,,,,,,,,,,,,,,,,
,,,,,,,,,1.0,,,40,1.0,1.0,0.804915,0.0,1.0,1.0,1.0,1.0,penlight_12s.jpg,ostrich_06s.jpg,,,,,,,,,,,,,,,,,,,,,,
,,,,,,,,,1.0,,,40,0.0,0.0,0.71157,0.0,2.0,2.0,2.0,1.0,rock_08s.jpg,rocking_horse_03s.jpg,,,,,,,,,,,,,,,,,,,,,,
,,,,,,,,,1.0,,,40,1.0,1.0,1.16289,0.0,3.0,3.0,3.0,1.0,toilet_07s.jpg,tennis_ball_06s.jpg,,,,,,,,,,,,,,,,,,,,,,
,,,,,,,,,1.0,,,40,0.0,0.0,0.65329,0.0,4.0,4.0,4.0,1.0,ant_12s.jpg,tile_08s.jpg,,,,,,,,,,,,,,,,,,,,,,
,,,,,,,,,1.0,,,40,0.0,0.0,1.11841,0.0,5.0,5.0,5.0,1.0,latch_15s.jpg,cushion_08s.jpg,,,,,,,,,,,,,,,,,,,,,,
,,,,,,,,,,,,40,,,,,,,,,,,0.0,4.0,4.0,4.0,1.0,clockno_present_5_4.xlsx,clockno_compare_task_5_4.xlsx,,,,,,,,,,,,,,,
0.0,1.0,1.22072,0.0,0.0,0.0,0.0,1.0,pocket_watch_16s.jpg,0.0,clockno_up.jpg,1.0,40,,,,,,,,,,,,,,,,,,,,,,,,,,,,,,,,
0.0,1.0,1.216625,0.0,1.0,1.0,1.0,1.0,rug_09s.jpg,0.0,clockno_default.jpg,1.0,40,,,,,,,,,,,,,,,,,,,,,,,,,,,,,,,,
1.0,1.0,0.60077,0.0,2.0,2.0,2.0,1.0,pocket_watch_16s.jpg,1.0,clockno_default.jpg,1.0,40,,,,,,,,,,,,,,,,,,,,,,,,,,,,,,,,
1.0,1.0,0.42355,0.0,3.0,3.0,3.0,1.0,pocket_watch_16s.jpg,1.0,clockno_default.jpg,1.0,40,,,,,,,,,,,,,,,,,,,,,,,,,,,,,,,,
1.0,1.0,1.93377,0.0,4.0,4.0,4.0,1.0,rug_09s.jpg,1.0,clockno_default.jpg,1.0,40,,,,,,,,,,,,,,,,,,,,,,,,,,,,,,,,
0.0,1.0,0.900575,0.0,5.0,5.0,5.0,1.0,lasagna_06s.jpg,0.0,clockno_up.jpg,2.0,40,,,,,,,,,,,,,,,,,,,,,,,,,,,,,,,,
0.0,1.0,0.85617,0.0,6.0,6.0,6.0,1.0,ukulele_02s.jpg,0.0,clockno_default.jpg,2.0,40,,,,,,,,,,,,,,,,,,,,,,,,,,,,,,,,
0.0,1.0,1.79704,0.0,7.0,7.0,7.0,1.0,fork_04s.jpg,0.0,clockno_default.jpg,2.0,40,,,,,,,,,,,,,,,,,,,,,,,,,,,,,,,,
0.0,1.0,1.76499,0.0,8.0,8.0,8.0,1.0,red_carpet_03s.jpg,0.0,clockno_default.jpg,2.0,40,,,,,,,,,,,,,,,,,,,,,,,,,,,,,,,,
0.0,1.0,0.505005,0.0,9.0,9.0,9.0,1.0,turkey_10s.jpg,0.0,clockno_default.jpg,2.0,40,,,,,,,,,,,,,,,,,,,,,,,,,,,,,,,,
0.0,1.0,0.56786,0.0,10.0,10.0,10.0,1.0,perfume_06s.jpg,0.0,clockno_up.jpg,3.0,40,,,,,,,,,,,,,,,,,,,,,,,,,,,,,,,,
0.0,1.0,0.51684,0.0,11.0,11.0,11.0,1.0,coral_08s.jpg,0.0,clockno_default.jpg,3.0,40,,,,,,,,,,,,,,,,,,,,,,,,,,,,,,,,
1.0,1.0,1.22768,0.0,12.0,12.0,12.0,1.0,perfume_06s.jpg,1.0,clockno_default.jpg,3.0,40,,,,,,,,,,,,,,,,,,,,,,,,,,,,,,,,
0.0,1.0,0.96467,0.0,13.0,13.0,13.0,1.0,feather02.jpg,0.0,clockno_default.jpg,3.0,40,,,,,,,,,,,,,,,,,,,,,,,,,,,,,,,,
0.0,1.0,0.79412,0.0,14.0,14.0,14.0,1.0,coat_rack_01b.jpg,0.0,clockno_default.jpg,3.0,40,,,,,,,,,,,,,,,,,,,,,,,,,,,,,,,,
0.0,1.0,0.62748,0.0,15.0,15.0,15.0,1.0,mango_09s.jpg,0.0,clockno_default.jpg,3.0,40,,,,,,,,,,,,,,,,,,,,,,,,,,,,,,,,
0.0,1.0,0.65185,0.0,16.0,16.0,16.0,1.0,gong_02s.jpg,0.0,clockno_default.jpg,3.0,40,,,,,,,,,,,,,,,,,,,,,,,,,,,,,,,,
0.0,1.0,0.63217,0.0,17.0,17.0,17.0,1.0,pocketknife_12s.jpg,0.0,clockno_up.jpg,4.0,40,,,,,,,,,,,,,,,,,,,,,,,,,,,,,,,,
0.0,1.0,0.59261,0.0,18.0,18.0,18.0,1.0,rabbit_03s.jpg,0.0,clockno_default.jpg,4.0,40,,,,,,,,,,,,,,,,,,,,,,,,,,,,,,,,
1.0,0.0,1.242895,0.0,19.0,19.0,19.0,1.0,feather02.jpg,0.0,clockno_default.jpg,4.0,40,,,,,,,,,,,,,,,,,,,,,,,,,,,,,,,,
0.0,1.0,0.59887,0.0,20.0,20.0,20.0,1.0,ink_08s.jpg,0.0,clockno_default.jpg,4.0,40,,,,,,,,,,,,,,,,,,,,,,,,,,,,,,,,
0.0,1.0,1.10634,0.0,21.0,21.0,21.0,1.0,red_carpet_03s.jpg,0.0,clockno_default.jpg,4.0,40,,,,,,,,,,,,,,,,,,,,,,,,,,,,,,,,
1.0,0.0,0.783875,0.0,22.0,22.0,22.0,1.0,mango_09s.jpg,0.0,clockno_default.jpg,4.0,40,,,,,,,,,,,,,,,,,,,,,,,,,,,,,,,,
0.0,1.0,0.995585,0.0,23.0,23.0,23.0,1.0,smokingpipe.jpg,0.0,clockno_default.jpg,4.0,40,,,,,,,,,,,,,,,,,,,,,,,,,,,,,,,,
0.0,1.0,1.045035,0.0,24.0,24.0,24.0,1.0,raft_09s.jpg,0.0,clockno_up.jpg,5.0,40,,,,,,,,,,,,,,,,,,,,,,,,,,,,,,,,
0.0,1.0,1.100845,0.0,25.0,25.0,25.0,1.0,glasses01a.jpg,0.0,clockno_default.jpg,5.0,40,,,,,,,,,,,,,,,,,,,,,,,,,,,,,,,,
0.0,1.0,0.94392,0.0,26.0,26.0,26.0,1.0,juicer2_06s.jpg,0.0,clockno_default.jpg,5.0,40,,,,,,,,,,,,,,,,,,,,,,,,,,,,,,,,
0.0,1.0,0.860805,0.0,27.0,27.0,27.0,1.0,jalapeno_15s.jpg,0.0,clockno_default.jpg,5.0,40,,,,,,,,,,,,,,,,,,,,,,,,,,,,,,,,
0.0,1.0,1.26135,0.0,28.0,28.0,28.0,1.0,stethoscope_01b.jpg,0.0,clockno_default.jpg,5.0,40,,,,,,,,,,,,,,,,,,,,,,,,,,,,,,,,
0.0,1.0,0.931485,0.0,29.0,29.0,29.0,1.0,racehorse_03s.jpg,0.0,clockno_default.jpg,5.0,40,,,,,,,,,,,,,,,,,,,,,,,,,,,,,,,,
0.0,1.0,1.126555,0.0,30.0,30.0,30.0,1.0,eyedropper_12s.jpg,0.0,clockno_up.jpg,6.0,40,,,,,,,,,,,,,,,,,,,,,,,,,,,,,,,,
0.0,1.0,1.24041,0.0,31.0,31.0,31.0,1.0,knitting_needle_04s.jpg,0.0,clockno_default.jpg,6.0,40,,,,,,,,,,,,,,,,,,,,,,,,,,,,,,,,
0.0,1.0,1.660235,0.0,32.0,32.0,32.0,1.0,playpen_11s.jpg,0.0,clockno_default.jpg,6.0,40,,,,,,,,,,,,,,,,,,,,,,,,,,,,,,,,
0.0,1.0,1.169905,0.0,33.0,33.0,33.0,1.0,cobra_05s.jpg,0.0,clockno_default.jpg,6.0,40,,,,,,,,,,,,,,,,,,,,,,,,,,,,,,,,
1.0,0.0,1.419355,0.0,34.0,34.0,34.0,1.0,coat_rack_01b.jpg,0.0,clockno_default.jpg,6.0,40,,,,,,,,,,,,,,,,,,,,,,,,,,,,,,,,
0.0,1.0,0.905345,0.0,35.0,35.0,35.0,1.0,ice_pack_09s.jpg,0.0,clockno_default.jpg,6.0,40,,,,,,,,,,,,,,,,,,,,,,,,,,,,,,,,
,,,,,,,,,0.0,,,40,0.0,1.0,1.042375,0.0,0.0,0.0,0.0,1.0,knitting_needle_04s.jpg,stethoscope_01b.jpg,,,,,,,,,,,,,,,,,,,,,,
,,,,,,,,,0.0,,,40,1.0,0.0,2.911135,0.0,1.0,1.0,1.0,1.0,juicer2_06s.jpg,smokingpipe.jpg,,,,,,,,,,,,,,,,,,,,,,
,,,,,,,,,1.0,,,40,1.0,1.0,1.119815,0.0,2.0,2.0,2.0,1.0,jalapeno_15s.jpg,eyedropper_12s.jpg,,,,,,,,,,,,,,,,,,,,,,
,,,,,,,,,1.0,,,40,0.0,0.0,0.73935,0.0,3.0,3.0,3.0,1.0,ukulele_02s.jpg,turkey_10s.jpg,,,,,,,,,,,,,,,,,,,,,,
,,,,,,,,,1.0,,,40,1.0,1.0,1.042125,0.0,4.0,4.0,4.0,1.0,pocketknife_12s.jpg,ink_08s.jpg,,,,,,,,,,,,,,,,,,,,,,
,,,,,,,,,1.0,,,40,1.0,1.0,1.16058,0.0,5.0,5.0,5.0,1.0,playpen_11s.jpg,ice_pack_09s.jpg,,,,,,,,,,,,,,,,,,,,,,
0.0,1.0,1.73589,,,,,,pineapple_12s.jpg,0.0,clock_7_1.png,1.0,40,,,,,,,,,,,,,,,,,,0.0,0.0,0.0,0.0,1.0,,,,,,,,,,
0.0,1.0,0.954945,,,,,,plaster_cast_13s.jpg,0.0,clock_7_2.png,1.0,40,,,,,,,,,,,,,,,,,,0.0,1.0,1.0,1.0,1.0,,,,,,,,,,
0.0,1.0,0.670205,,,,,,frog_09s.jpg,0.0,clock_7_3.png,1.0,40,,,,,,,,,,,,,,,,,,0.0,2.0,2.0,2.0,1.0,,,,,,,,,,
0.0,1.0,0.584635,,,,,,film_03s.jpg,0.0,clock_7_4.png,1.0,40,,,,,,,,,,,,,,,,,,0.0,3.0,3.0,3.0,1.0,,,,,,,,,,
1.0,1.0,1.196855,,,,,,pineapple_12s.jpg,1.0,clock_7_5.png,1.0,40,,,,,,,,,,,,,,,,,,0.0,4.0,4.0,4.0,1.0,,,,,,,,,,
0.0,1.0,0.99376,,,,,,megaphone_03s.jpg,0.0,clock_7_6.png,1.0,40,,,,,,,,,,,,,,,,,,0.0,5.0,5.0,5.0,1.0,,,,,,,,,,
0.0,1.0,1.290115,,,,,,pillbox_04s.jpg,0.0,clock_7_7.png,1.0,40,,,,,,,,,,,,,,,,,,0.0,6.0,6.0,6.0,1.0,,,,,,,,,,
0.0,1.0,1.204555,,,,,,birdcage_08s.jpg,0.0,clock_5_1.png,2.0,40,,,,,,,,,,,,,,,,,,0.0,7.0,7.0,7.0,1.0,,,,,,,,,,
0.0,1.0,1.1159,,,,,,pineapple_12s.jpg,0.0,clock_5_2.png,2.0,40,,,,,,,,,,,,,,,,,,0.0,8.0,8.0,8.0,1.0,,,,,,,,,,
0.0,1.0,1.2819,,,,,,polaroid_05s.jpg,0.0,clock_5_3.png,2.0,40,,,,,,,,,,,,,,,,,,0.0,9.0,9.0,9.0,1.0,,,,,,,,,,
0.0,1.0,1.223915,,,,,,puddle_02s.jpg,0.0,clock_5_4.png,2.0,40,,,,,,,,,,,,,,,,,,0.0,10.0,10.0,10.0,1.0,,,,,,,,,,
1.0,1.0,0.994885,,,,,,polaroid_05s.jpg,1.0,clock_5_5.png,2.0,40,,,,,,,,,,,,,,,,,,0.0,11.0,11.0,11.0,1.0,,,,,,,,,,
0.0,1.0,1.167575,,,,,,lizard_10n.jpg,0.0,clock_7_1.png,3.0,40,,,,,,,,,,,,,,,,,,0.0,12.0,12.0,12.0,1.0,,,,,,,,,,
0.0,1.0,1.1074,,,,,,puddle_02s.jpg,0.0,clock_7_2.png,3.0,40,,,,,,,,,,,,,,,,,,0.0,13.0,13.0,13.0,1.0,,,,,,,,,,
0.0,1.0,0.959045,,,,,,icemaker_10s.jpg,0.0,clock_7_3.png,3.0,40,,,,,,,,,,,,,,,,,,0.0,14.0,14.0,14.0,1.0,,,,,,,,,,
0.0,1.0,0.950585,,,,,,triangle_10s.jpg,0.0,clock_7_4.png,3.0,40,,,,,,,,,,,,,,,,,,0.0,15.0,15.0,15.0,1.0,,,,,,,,,,
0.0,1.0,0.95438,,,,,,orchid_01b.jpg,0.0,clock_7_5.png,3.0,40,,,,,,,,,,,,,,,,,,0.0,16.0,16.0,16.0,1.0,,,,,,,,,,
0.0,1.0,0.65277,,,,,,kimono_13s.jpg,0.0,clock_7_6.png,3.0,40,,,,,,,,,,,,,,,,,,0.0,17.0,17.0,17.0,1.0,,,,,,,,,,
0.0,1.0,0.83419,,,,,,birthday_cake_09s.jpg,0.0,clock_7_7.png,3.0,40,,,,,,,,,,,,,,,,,,0.0,18.0,18.0,18.0,1.0,,,,,,,,,,
0.0,1.0,0.825,,,,,,rooster_03s.jpg,0.0,clock_6_1.png,4.0,40,,,,,,,,,,,,,,,,,,0.0,19.0,19.0,19.0,1.0,,,,,,,,,,
0.0,1.0,0.64069,,,,,,soccer_ball_12s.jpg,0.0,clock_6_2.png,4.0,40,,,,,,,,,,,,,,,,,,0.0,20.0,20.0,20.0,1.0,,,,,,,,,,
0.0,1.0,0.798865,,,,,,crate_05s.jpg,0.0,clock_6_3.png,4.0,40,,,,,,,,,,,,,,,,,,0.0,21.0,21.0,21.0,1.0,,,,,,,,,,
0.0,1.0,0.606655,,,,,,pan_02s.jpg,0.0,clock_6_4.png,4.0,40,,,,,,,,,,,,,,,,,,0.0,22.0,22.0,22.0,1.0,,,,,,,,,,
0.0,1.0,0.864355,,,,,,sunflower_17s.jpg,0.0,clock_6_5.png,4.0,40,,,,,,,,,,,,,,,,,,0.0,23.0,23.0,23.0,1.0,,,,,,,,,,
1.0,1.0,0.946205,,,,,,crate_05s.jpg,1.0,clock_6_6.png,4.0,40,,,,,,,,,,,,,,,,,,0.0,24.0,24.0,24.0,1.0,,,,,,,,,,
0.0,1.0,0.83692,,,,,,moth_06n.jpg,0.0,clock_5_1.png,5.0,40,,,,,,,,,,,,,,,,,,0.0,25.0,25.0,25.0,1.0,,,,,,,,,,
0.0,1.0,1.073765,,,,,,frog_09s.jpg,0.0,clock_5_2.png,5.0,40,,,,,,,,,,,,,,,,,,0.0,26.0,26.0,26.0,1.0,,,,,,,,,,
0.0,1.0,0.86073,,,,,,puddle_02s.jpg,0.0,clock_5_3.png,5.0,40,,,,,,,,,,,,,,,,,,0.0,27.0,27.0,27.0,1.0,,,,,,,,,,
0.0,1.0,0.587715,,,,,,treasure_08s.jpg,0.0,clock_5_4.png,5.0,40,,,,,,,,,,,,,,,,,,0.0,28.0,28.0,28.0,1.0,,,,,,,,,,
0.0,1.0,0.488955,,,,,,glue_01s.jpg,0.0,clock_5_5.png,5.0,40,,,,,,,,,,,,,,,,,,0.0,29.0,29.0,29.0,1.0,,,,,,,,,,
0.0,1.0,0.75362,,,,,,stopwatch_04s.jpg,0.0,clock_6_1.png,6.0,40,,,,,,,,,,,,,,,,,,0.0,30.0,30.0,30.0,1.0,,,,,,,,,,
0.0,1.0,0.75049,,,,,,machete_06s.jpg,0.0,clock_6_2.png,6.0,40,,,,,,,,,,,,,,,,,,0.0,31.0,31.0,31.0,1.0,,,,,,,,,,
0.0,0.0,0.94442,,,,,,stopwatch_04s.jpg,1.0,clock_6_3.png,6.0,40,,,,,,,,,,,,,,,,,,0.0,32.0,32.0,32.0,1.0,,,,,,,,,,
0.0,1.0,0.627485,,,,,,joystick_01b.jpg,0.0,clock_6_4.png,6.0,40,,,,,,,,,,,,,,,,,,0.0,33.0,33.0,33.0,1.0,,,,,,,,,,
0.0,1.0,0.558085,,,,,,onion_10s.jpg,0.0,clock_6_5.png,6.0,40,,,,,,,,,,,,,,,,,,0.0,34.0,34.0,34.0,1.0,,,,,,,,,,
0.0,1.0,1.5319,,,,,,cap_05s.jpg,0.0,clock_6_6.png,6.0,40,,,,,,,,,,,,,,,,,,0.0,35.0,35.0,35.0,1.0,,,,,,,,,,
,,,,,,,,,1.0,,,40,0.0,0.0,2.554275,,,,,,orchid_01b.jpg,rooster_03s.jpg,,,,,,,,,,,,,0.0,0.0,0.0,0.0,1.0,,,,,
,,,,,,,,,1.0,,,40,1.0,1.0,1.42577,,,,,,kimono_13s.jpg,soccer_ball_12s.jpg,,,,,,,,,,,,,0.0,1.0,1.0,1.0,1.0,,,,,
,,,,,,,,,0.0,,,40,0.0,1.0,1.96543,,,,,,moth_06n.jpg,pan_02s.jpg,,,,,,,,,,,,,0.0,2.0,2.0,2.0,1.0,,,,,
,,,,,,,,,0.0,,,40,1.0,0.0,3.02946,,,,,,pillbox_04s.jpg,film_03s.jpg,,,,,,,,,,,,,0.0,3.0,3.0,3.0,1.0,,,,,
,,,,,,,,,0.0,,,40,0.0,1.0,1.57253,,,,,,triangle_10s.jpg,lizard_10n.jpg,,,,,,,,,,,,,0.0,4.0,4.0,4.0,1.0,,,,,
,,,,,,,,,0.0,,,40,0.0,1.0,2.736115,,,,,,onion_10s.jpg,machete_06s.jpg,,,,,,,,,,,,,0.0,5.0,5.0,5.0,1.0,,,,,
,,,,,,,,,,,,40,,,,,,,,,,,,,,,,clock_present_1_4.xlsx,clock_compare_task_1_4.xlsx,,,,,,,,,,,0.0,0.0,0.0,0.0,1.0
0.0,1.0,1.241945,,,,,,swing_set_15s.jpg,0.0,clock_5_1.png,1.0,40,,,,,,,,,,,,,,,,,,0.0,0.0,0.0,0.0,1.0,,,,,,,,,,
1.0,1.0,1.38396,,,,,,swing_set_15s.jpg,1.0,clock_5_2.png,1.0,40,,,,,,,,,,,,,,,,,,0.0,1.0,1.0,1.0,1.0,,,,,,,,,,
0.0,1.0,0.798185,,,,,,fire_alarm_05s.jpg,0.0,clock_5_3.png,1.0,40,,,,,,,,,,,,,,,,,,0.0,2.0,2.0,2.0,1.0,,,,,,,,,,
0.0,1.0,0.601755,,,,,,oil_02s.jpg,0.0,clock_5_4.png,1.0,40,,,,,,,,,,,,,,,,,,0.0,3.0,3.0,3.0,1.0,,,,,,,,,,
0.0,1.0,1.03645,,,,,,lipstick_02s.jpg,0.0,clock_5_5.png,1.0,40,,,,,,,,,,,,,,,,,,0.0,4.0,4.0,4.0,1.0,,,,,,,,,,
0.0,1.0,0.546335,,,,,,puppy_08s.jpg,0.0,clock_6_1.png,2.0,40,,,,,,,,,,,,,,,,,,0.0,5.0,5.0,5.0,1.0,,,,,,,,,,
0.0,1.0,1.441415,,,,,,incense_02s.jpg,0.0,clock_6_2.png,2.0,40,,,,,,,,,,,,,,,,,,0.0,6.0,6.0,6.0,1.0,,,,,,,,,,
0.0,0.0,0.864995,,,,,,puppy_08s.jpg,1.0,clock_6_3.png,2.0,40,,,,,,,,,,,,,,,,,,0.0,7.0,7.0,7.0,1.0,,,,,,,,,,
0.0,1.0,0.71836,,,,,,chip_04s.jpg,0.0,clock_6_4.png,2.0,40,,,,,,,,,,,,,,,,,,0.0,8.0,8.0,8.0,1.0,,,,,,,,,,
0.0,1.0,1.156095,,,,,,ram_05s.jpg,0.0,clock_6_5.png,2.0,40,,,,,,,,,,,,,,,,,,0.0,9.0,9.0,9.0,1.0,,,,,,,,,,
0.0,1.0,0.92274,,,,,,pencil02a.jpg,0.0,clock_6_6.png,2.0,40,,,,,,,,,,,,,,,,,,0.0,10.0,10.0,10.0,1.0,,,,,,,,,,
0.0,1.0,0.938525,,,,,,rhubarb_03s.jpg,0.0,clock_6_1.png,3.0,40,,,,,,,,,,,,,,,,,,0.0,11.0,11.0,11.0,1.0,,,,,,,,,,
0.0,1.0,0.90594,,,,,,loveseat_08s.jpg,0.0,clock_6_2.png,3.0,40,,,,,,,,,,,,,,,,,,0.0,12.0,12.0,12.0,1.0,,,,,,,,,,
0.0,1.0,1.02748,,,,,,fire_alarm_05s.jpg,0.0,clock_6_3.png,3.0,40,,,,,,,,,,,,,,,,,,0.0,13.0,13.0,13.0,1.0,,,,,,,,,,
0.0,1.0,0.989305,,,,,,crayon_09s.jpg,0.0,clock_6_4.png,3.0,40,,,,,,,,,,,,,,,,,,0.0,14.0,14.0,14.0,1.0,,,,,,,,,,
1.0,1.0,1.86535,,,,,,loveseat_08s.jpg,1.0,clock_6_5.png,3.0,40,,,,,,,,,,,,,,,,,,0.0,15.0,15.0,15.0,1.0,,,,,,,,,,
0.0,1.0,0.648605,,,,,,buoy_04s.jpg,0.0,clock_6_6.png,3.0,40,,,,,,,,,,,,,,,,,,0.0,16.0,16.0,16.0,1.0,,,,,,,,,,
0.0,1.0,0.51573,,,,,,licorice_06s.jpg,0.0,clock_5_1.png,4.0,40,,,,,,,,,,,,,,,,,,0.0,17.0,17.0,17.0,1.0,,,,,,,,,,
0.0,1.0,0.66445,,,,,,footprint_11s.jpg,0.0,clock_5_2.png,4.0,40,,,,,,,,,,,,,,,,,,0.0,18.0,18.0,18.0,1.0,,,,,,,,,,
0.0,1.0,0.555055,,,,,,kilt_18s.jpg,0.0,clock_5_3.png,4.0,40,,,,,,,,,,,,,,,,,,0.0,19.0,19.0,19.0,1.0,,,,,,,,,,
1.0,1.0,1.126515,,,,,,licorice_06s.jpg,1.0,clock_5_4.png,4.0,40,,,,,,,,,,,,,,,,,,0.0,20.0,20.0,20.0,1.0,,,,,,,,,,
0.0,1.0,1.19121,,,,,,screwdriver02a.jpg,0.0,clock_5_5.png,4.0,40,,,,,,,,,,,,,,,,,,0.0,21.0,21.0,21.0,1.0,,,,,,,,,,
0.0,1.0,1.28226,,,,,,punch2_09s.jpg,0.0,clock_7_1.png,5.0,40,,,,,,,,,,,,,,,,,,0.0,22.0,22.0,22.0,1.0,,,,,,,,,,
0.0,1.0,1.254545,,,,,,ram_05s.jpg,0.0,clock_7_2.png,5.0,40,,,,,,,,,,,,,,,,,,0.0,23.0,23.0,23.0,1.0,,,,,,,,,,
0.0,1.0,1.121605,,,,,,measuring_cup_02s.jpg,0.0,clock_7_3.png,5.0,40,,,,,,,,,,,,,,,,,,0.0,24.0,24.0,24.0,1.0,,,,,,,,,,
0.0,1.0,1.183105,,,,,,tripod_01b.jpg,0.0,clock_7_4.png,5.0,40,,,,,,,,,,,,,,,,,,0.0,25.0,25.0,25.0,1.0,,,,,,,,,,
0.0,1.0,0.504455,,,,,,thread_08s.jpg,0.0,clock_7_5.png,5.0,40,,,,,,,,,,,,,,,,,,0.0,26.0,26.0,26.0,1.0,,,,,,,,,,
0.0,1.0,0.640365,,,,,,piggy_bank_02s.jpg,0.0,clock_7_6.png,5.0,40,,,,,,,,,,,,,,,,,,0.0,27.0,27.0,27.0,1.0,,,,,,,,,,
1.0,1.0,1.16366,,,,,,thread_08s.jpg,1.0,clock_7_7.png,5.0,40,,,,,,,,,,,,,,,,,,0.0,28.0,28.0,28.0,1.0,,,,,,,,,,
0.0,1.0,1.10191,,,,,,pea_11s.jpg,0.0,clock_7_1.png,6.0,40,,,,,,,,,,,,,,,,,,0.0,29.0,29.0,29.0,1.0,,,,,,,,,,
0.0,1.0,1.090755,,,,,,jewel_01b.jpg,0.0,clock_7_2.png,6.0,40,,,,,,,,,,,,,,,,,,0.0,30.0,30.0,30.0,1.0,,,,,,,,,,
0.0,1.0,1.211865,,,,,,olive_05s.jpg,0.0,clock_7_3.png,6.0,40,,,,,,,,,,,,,,,,,,0.0,31.0,31.0,31.0,1.0,,,,,,,,,,
0.0,1.0,0.505615,,,,,,powder_07s.jpg,0.0,clock_7_4.png,6.0,40,,,,,,,,,,,,,,,,,,0.0,32.0,32.0,32.0,1.0,,,,,,,,,,
0.0,1.0,0.541955,,,,,,raspberry_12s.jpg,0.0,clock_7_5.png,6.0,40,,,,,,,,,,,,,,,,,,0.0,33.0,33.0,33.0,1.0,,,,,,,,,,
0.0,1.0,0.49272,,,,,,puffin_19s.jpg,0.0,clock_7_6.png,6.0,40,,,,,,,,,,,,,,,,,,0.0,34.0,34.0,34.0,1.0,,,,,,,,,,
,0.0,,,,,,,sparkler_02s.jpg,0.0,clock_7_7.png,6.0,40,,,,,,,,,,,,,,,,,,0.0,35.0,35.0,35.0,1.0,,,,,,,,,,
,,,,,,,,,0.0,,,40,0.0,1.0,1.49666,,,,,,incense_02s.jpg,oil_02s.jpg,,,,,,,,,,,,,0.0,0.0,0.0,0.0,1.0,,,,,
,,,,,,,,,0.0,,,40,0.0,1.0,1.61123,,,,,,kilt_18s.jpg,buoy_04s.jpg,,,,,,,,,,,,,0.0,1.0,1.0,1.0,1.0,,,,,
,,,,,,,,,0.0,,,40,1.0,0.0,1.18648,,,,,,rhubarb_03s.jpg,chip_04s.jpg,,,,,,,,,,,,,0.0,2.0,2.0,2.0,1.0,,,,,
,,,,,,,,,0.0,,,40,0.0,1.0,1.423165,,,,,,powder_07s.jpg,pea_11s.jpg,,,,,,,,,,,,,0.0,3.0,3.0,3.0,1.0,,,,,
,,,,,,,,,0.0,,,40,0.0,1.0,2.56477,,,,,,puffin_19s.jpg,olive_05s.jpg,,,,,,,,,,,,,0.0,4.0,4.0,4.0,1.0,,,,,
,,,,,,,,,0.0,,,40,0.0,1.0,1.068215,,,,,,screwdriver02a.jpg,footprint_11s.jpg,,,,,,,,,,,,,0.0,5.0,5.0,5.0,1.0,,,,,
,,,,,,,,,,,,40,,,,,,,,,,,,,,,,clock_present_2_4.xlsx,clock_compare_task_2_4.xlsx,,,,,,,,,,,0.0,1.0,1.0,1.0,1.0
0.0,1.0,1.463665,,,,,,surfboard_11s.jpg,0.0,clock_7_1.png,1.0,40,,,,,,,,,,,,,,,,,,0.0,0.0,0.0,0.0,1.0,,,,,,,,,,
1.0,1.0,1.642515,,,,,,surfboard_11s.jpg,1.0,clock_7_2.png,1.0,40,,,,,,,,,,,,,,,,,,0.0,1.0,1.0,1.0,1.0,,,,,,,,,,
1.0,1.0,1.27666,,,,,,surfboard_11s.jpg,1.0,clock_7_3.png,1.0,40,,,,,,,,,,,,,,,,,,0.0,2.0,2.0,2.0,1.0,,,,,,,,,,
0.0,1.0,0.725145,,,,,,golf_club_03s.jpg,0.0,clock_7_4.png,1.0,40,,,,,,,,,,,,,,,,,,0.0,3.0,3.0,3.0,1.0,,,,,,,,,,
0.0,1.0,0.86594,,,,,,sugar_cube_11s.jpg,0.0,clock_7_5.png,1.0,40,,,,,,,,,,,,,,,,,,0.0,4.0,4.0,4.0,1.0,,,,,,,,,,
0.0,1.0,0.576985,,,,,,mailbox_11s.jpg,0.0,clock_7_6.png,1.0,40,,,,,,,,,,,,,,,,,,0.0,5.0,5.0,5.0,1.0,,,,,,,,,,
0.0,1.0,1.870995,,,,,,spatula04.jpg,0.0,clock_7_7.png,1.0,40,,,,,,,,,,,,,,,,,,0.0,6.0,6.0,6.0,1.0,,,,,,,,,,
0.0,1.0,0.5903,,,,,,umbrella_15s.jpg,0.0,clock_6_1.png,2.0,40,,,,,,,,,,,,,,,,,,0.0,7.0,7.0,7.0,1.0,,,,,,,,,,
0.0,0.0,0.50476,,,,,,umbrella_15s.jpg,1.0,clock_6_2.png,2.0,40,,,,,,,,,,,,,,,,,,0.0,8.0,8.0,8.0,1.0,,,,,,,,,,
1.0,1.0,0.56018,,,,,,umbrella_15s.jpg,1.0,clock_6_3.png,2.0,40,,,,,,,,,,,,,,,,,,0.0,9.0,9.0,9.0,1.0,,,,,,,,,,
0.0,1.0,1.76717,,,,,,inhaler_01b.jpg,0.0,clock_6_4.png,2.0,40,,,,,,,,,,,,,,,,,,0.0,10.0,10.0,10.0,1.0,,,,,,,,,,
1.0,0.0,1.220685,,,,,,surfboard_11s.jpg,0.0,clock_6_5.png,2.0,40,,,,,,,,,,,,,,,,,,0.0,11.0,11.0,11.0,1.0,,,,,,,,,,
,0.0,,,,,,,timer_03s.jpg,0.0,clock_6_6.png,2.0,40,,,,,,,,,,,,,,,,,,0.0,12.0,12.0,12.0,1.0,,,,,,,,,,
0.0,1.0,0.6598,,,,,,eggshell_14s.jpg,0.0,clock_7_1.png,3.0,40,,,,,,,,,,,,,,,,,,0.0,13.0,13.0,13.0,1.0,,,,,,,,,,
0.0,1.0,0.743115,,,,,,omelet_07s.jpg,0.0,clock_7_2.png,3.0,40,,,,,,,,,,,,,,,,,,0.0,14.0,14.0,14.0,1.0,,,,,,,,,,
1.0,0.0,1.26757,,,,,,timer_03s.jpg,0.0,clock_7_3.png,3.0,40,,,,,,,,,,,,,,,,,,0.0,15.0,15.0,15.0,1.0,,,,,,,,,,
1.0,1.0,0.74566,,,,,,eggshell_14s.jpg,1.0,clock_7_4.png,3.0,40,,,,,,,,,,,,,,,,,,0.0,16.0,16.0,16.0,1.0,,,,,,,,,,
0.0,1.0,0.91607,,,,,,memory_stick_11s.jpg,0.0,clock_7_5.png,3.0,40,,,,,,,,,,,,,,,,,,0.0,17.0,17.0,17.0,1.0,,,,,,,,,,
0.0,1.0,1.09438,,,,,,milk_02s.jpg,0.0,clock_7_6.png,3.0,40,,,,,,,,,,,,,,,,,,0.0,18.0,18.0,18.0,1.0,,,,,,,,,,
1.0,1.0,0.661585,,,,,,eggshell_14s.jpg,1.0,clock_7_7.png,3.0,40,,,,,,,,,,,,,,,,,,0.0,19.0,19.0,19.0,1.0,,,,,,,,,,
0.0,1.0,0.972745,,,,,,diving_board_07s.jpg,0.0,clock_5_1.png,4.0,40,,,,,,,,,,,,,,,,,,0.0,20.0,20.0,20.0,1.0,,,,,,,,,,
0.0,1.0,1.338255,,,,,,ironing_board_07s.jpg,0.0,clock_5_2.png,4.0,40,,,,,,,,,,,,,,,,,,0.0,21.0,21.0,21.0,1.0,,,,,,,,,,
1.0,0.0,0.719965,,,,,,inhaler_01b.jpg,0.0,clock_5_3.png,4.0,40,,,,,,,,,,,,,,,,,,0.0,22.0,22.0,22.0,1.0,,,,,,,,,,
0.0,1.0,1.04841,,,,,,punch1_10s.jpg,0.0,clock_5_4.png,4.0,40,,,,,,,,,,,,,,,,,,0.0,23.0,23.0,23.0,1.0,,,,,,,,,,
0.0,1.0,2.18455,,,,,,quilt_03s.jpg,0.0,clock_5_5.png,4.0,40,,,,,,,,,,,,,,,,,,0.0,24.0,24.0,24.0,1.0,,,,,,,,,,
0.0,1.0,1.118165,,,,,,giraffe_11s.jpg,0.0,clock_6_1.png,5.0,40,,,,,,,,,,,,,,,,,,0.0,25.0,25.0,25.0,1.0,,,,,,,,,,
0.0,1.0,0.85445,,,,,,dirt_bike_11s.jpg,0.0,clock_6_2.png,5.0,40,,,,,,,,,,,,,,,,,,0.0,26.0,26.0,26.0,1.0,,,,,,,,,,
0.0,1.0,0.71789,,,,,,go-kart_10s.jpg,0.0,clock_6_3.png,5.0,40,,,,,,,,,,,,,,,,,,0.0,27.0,27.0,27.0,1.0,,,,,,,,,,
0.0,1.0,0.6768,,,,,,squirt_gun_03s.jpg,0.0,clock_6_4.png,5.0,40,,,,,,,,,,,,,,,,,,0.0,28.0,28.0,28.0,1.0,,,,,,,,,,
0.0,1.0,0.737925,,,,,,lifesaver_10s.jpg,0.0,clock_6_5.png,5.0,40,,,,,,,,,,,,,,,,,,0.0,29.0,29.0,29.0,1.0,,,,,,,,,,
1.0,1.0,0.9177,,,,,,lifesaver_10s.jpg,1.0,clock_6_6.png,5.0,40,,,,,,,,,,,,,,,,,,0.0,30.0,30.0,30.0,1.0,,,,,,,,,,
0.0,1.0,0.6613,,,,,,thermostat_02s.jpg,0.0,clock_5_1.png,6.0,40,,,,,,,,,,,,,,,,,,0.0,31.0,31.0,31.0,1.0,,,,,,,,,,
1.0,1.0,0.698535,,,,,,thermostat_02s.jpg,1.0,clock_5_2.png,6.0,40,,,,,,,,,,,,,,,,,,0.0,32.0,32.0,32.0,1.0,,,,,,,,,,
0.0,1.0,0.71916,,,,,,outlet_10s.jpg,0.0,clock_5_3.png,6.0,40,,,,,,,,,,,,,,,,,,0.0,33.0,33.0,33.0,1.0,,,,,,,,,,
1.0,1.0,0.896085,,,,,,outlet_10s.jpg,1.0,clock_5_4.png,6.0,40,,,,,,,,,,,,,,,,,,0.0,34.0,34.0,34.0,1.0,,,,,,,,,,
0.0,1.0,0.95177,,,,,,mousetrap_15n.jpg,0.0,clock_5_5.png,6.0,40,,,,,,,,,,,,,,,,,,0.0,35.0,35.0,35.0,1.0,,,,,,,,,,
,,,,,,,,,0.0,,,40,0.0,1.0,3.695985,,,,,,ironing_board_07s.jpg,milk_02s.jpg,,,,,,,,,,,,,0.0,0.0,0.0,0.0,1.0,,,,,
,,,,,,,,,0.0,,,40,0.0,1.0,1.079415,,,,,,dirt_bike_11s.jpg,punch1_10s.jpg,,,,,,,,,,,,,0.0,1.0,1.0,1.0,1.0,,,,,
,,,,,,,,,0.0,,,40,0.0,1.0,1.04748,,,,,,go-kart_10s.jpg,quilt_03s.jpg,,,,,,,,,,,,,0.0,2.0,2.0,2.0,1.0,,,,,
,,,,,,,,,1.0,,,40,1.0,1.0,2.03429,,,,,,golf_club_03s.jpg,spatula04.jpg,,,,,,,,,,,,,0.0,3.0,3.0,3.0,1.0,,,,,
,,,,,,,,,1.0,,,40,0.0,0.0,2.21242,,,,,,giraffe_11s.jpg,squirt_gun_03s.jpg,,,,,,,,,,,,,0.0,4.0,4.0,4.0,1.0,,,,,
,,,,,,,,,1.0,,,40,1.0,1.0,2.82757,,,,,,omelet_07s.jpg,memory_stick_11s.jpg,,,,,,,,,,,,,0.0,5.0,5.0,5.0,1.0,,,,,
,,,,,,,,,,,,40,,,,,,,,,,,,,,,,clock_present_3_4.xlsx,clock_compare_task_3_4.xlsx,,,,,,,,,,,0.0,2.0,2.0,2.0,1.0
0.0,1.0,2.047195,,,,,,cape_11s.jpg,0.0,clock_5_1.png,1.0,40,,,,,,,,,,,,,,,,,,0.0,0.0,0.0,0.0,1.0,,,,,,,,,,
1.0,1.0,0.651965,,,,,,cape_11s.jpg,1.0,clock_5_2.png,1.0,40,,,,,,,,,,,,,,,,,,0.0,1.0,1.0,1.0,1.0,,,,,,,,,,
1.0,1.0,0.633865,,,,,,cape_11s.jpg,1.0,clock_5_3.png,1.0,40,,,,,,,,,,,,,,,,,,0.0,2.0,2.0,2.0,1.0,,,,,,,,,,
0.0,1.0,0.721135,,,,,,petri_dish_12s.jpg,0.0,clock_5_4.png,1.0,40,,,,,,,,,,,,,,,,,,0.0,3.0,3.0,3.0,1.0,,,,,,,,,,
0.0,1.0,1.04019,,,,,,quill_09s.jpg,0.0,clock_5_5.png,1.0,40,,,,,,,,,,,,,,,,,,0.0,4.0,4.0,4.0,1.0,,,,,,,,,,
0.0,1.0,1.350285,,,,,,pencil_sharpener_09n.jpg,0.0,clock_7_1.png,2.0,40,,,,,,,,,,,,,,,,,,0.0,5.0,5.0,5.0,1.0,,,,,,,,,,
0.0,1.0,1.067895,,,,,,top_hat_11s.jpg,0.0,clock_7_2.png,2.0,40,,,,,,,,,,,,,,,,,,0.0,6.0,6.0,6.0,1.0,,,,,,,,,,
1.0,0.0,0.998845,,,,,,quill_09s.jpg,0.0,clock_7_3.png,2.0,40,,,,,,,,,,,,,,,,,,0.0,7.0,7.0,7.0,1.0,,,,,,,,,,
0.0,1.0,0.66904,,,,,,pancake_12s.jpg,0.0,clock_7_4.png,2.0,40,,,,,,,,,,,,,,,,,,0.0,8.0,8.0,8.0,1.0,,,,,,,,,,
0.0,1.0,1.203355,,,,,,rhinoceros_02s.jpg,0.0,clock_7_5.png,2.0,40,,,,,,,,,,,,,,,,,,0.0,9.0,9.0,9.0,1.0,,,,,,,,,,
0.0,1.0,2.02637,,,,,,potholder_02s.jpg,0.0,clock_7_6.png,2.0,40,,,,,,,,,,,,,,,,,,0.0,10.0,10.0,10.0,1.0,,,,,,,,,,
0.0,1.0,1.03217,,,,,,toy_04s.jpg,0.0,clock_7_7.png,2.0,40,,,,,,,,,,,,,,,,,,0.0,11.0,11.0,11.0,1.0,,,,,,,,,,
0.0,1.0,0.858125,,,,,,tambourine_06s.jpg,0.0,clock_7_1.png,3.0,40,,,,,,,,,,,,,,,,,,0.0,12.0,12.0,12.0,1.0,,,,,,,,,,
0.0,1.0,0.92132,,,,,,flask_04s.jpg,0.0,clock_7_2.png,3.0,40,,,,,,,,,,,,,,,,,,0.0,13.0,13.0,13.0,1.0,,,,,,,,,,
0.0,1.0,1.705395,,,,,,kitten_07s.jpg,0.0,clock_7_3.png,3.0,40,,,,,,,,,,,,,,,,,,0.0,14.0,14.0,14.0,1.0,,,,,,,,,,
0.0,1.0,1.198635,,,,,,breadstick_08s.jpg,0.0,clock_7_4.png,3.0,40,,,,,,,,,,,,,,,,,,0.0,15.0,15.0,15.0,1.0,,,,,,,,,,
1.0,1.0,0.8035,,,,,,flask_04s.jpg,1.0,clock_7_5.png,3.0,40,,,,,,,,,,,,,,,,,,0.0,16.0,16.0,16.0,1.0,,,,,,,,,,
0.0,1.0,1.011355,,,,,,antenna_01b.jpg,0.0,clock_7_6.png,3.0,40,,,,,,,,,,,,,,,,,,0.0,17.0,17.0,17.0,1.0,,,,,,,,,,
1.0,0.0,0.958035,,,,,,quill_09s.jpg,0.0,clock_7_7.png,3.0,40,,,,,,,,,,,,,,,,,,0.0,18.0,18.0,18.0,1.0,,,,,,,,,,
0.0,1.0,1.351945,,,,,,rosary_03s.jpg,0.0,clock_6_1.png,4.0,40,,,,,,,,,,,,,,,,,,0.0,19.0,19.0,19.0,1.0,,,,,,,,,,
0.0,1.0,1.64563,,,,,,tube_top_03s.jpg,0.0,clock_6_2.png,4.0,40,,,,,,,,,,,,,,,,,,0.0,20.0,20.0,20.0,1.0,,,,,,,,,,
1.0,0.0,1.04259,,,,,,flask_04s.jpg,0.0,clock_6_3.png,4.0,40,,,,,,,,,,,,,,,,,,0.0,21.0,21.0,21.0,1.0,,,,,,,,,,
0.0,1.0,1.1268,,,,,,bathtub_23s.jpg,0.0,clock_6_4.png,4.0,40,,,,,,,,,,,,,,,,,,0.0,22.0,22.0,22.0,1.0,,,,,,,,,,
0.0,1.0,1.703765,,,,,,amber_04s.jpg,0.0,clock_6_5.png,4.0,40,,,,,,,,,,,,,,,,,,0.0,23.0,23.0,23.0,1.0,,,,,,,,,,
1.0,1.0,1.04648,,,,,,tube_top_03s.jpg,1.0,clock_6_6.png,4.0,40,,,,,,,,,,,,,,,,,,0.0,24.0,24.0,24.0,1.0,,,,,,,,,,
0.0,1.0,1.40473,,,,,,blowfish_03s.jpg,0.0,clock_6_1.png,5.0,40,,,,,,,,,,,,,,,,,,0.0,25.0,25.0,25.0,1.0,,,,,,,,,,
,0.0,,,,,,,magnet_03s.jpg,0.0,clock_6_2.png,5.0,40,,,,,,,,,,,,,,,,,,0.0,26.0,26.0,26.0,1.0,,,,,,,,,,
1.0,0.0,0.674625,,,,,,flask_04s.jpg,0.0,clock_6_3.png,5.0,40,,,,,,,,,,,,,,,,,,0.0,27.0,27.0,27.0,1.0,,,,,,,,,,
0.0,1.0,0.90894,,,,,,crab_16s.jpg,0.0,clock_6_4.png,5.0,40,,,,,,,,,,,,,,,,,,0.0,28.0,28.0,28.0,1.0,,,,,,,,,,
0.0,1.0,1.263975,,,,,,lid_10s.jpg,0.0,clock_6_5.png,5.0,40,,,,,,,,,,,,,,,,,,0.0,29.0,29.0,29.0,1.0,,,,,,,,,,
0.0,1.0,1.517975,,,,,,margarita_03s.jpg,0.0,clock_6_6.png,5.0,40,,,,,,,,,,,,,,,,,,0.0,30.0,30.0,30.0,1.0,,,,,,,,,,
0.0,1.0,1.177405,,,,,,mask_09s.jpg,0.0,clock_5_1.png,6.0,40,,,,,,,,,,,,,,,,,,0.0,31.0,31.0,31.0,1.0,,,,,,,,,,
0.0,1.0,1.068755,,,,,,toilet_paper_12s.jpg,0.0,clock_5_2.png,6.0,40,,,,,,,,,,,,,,,,,,0.0,32.0,32.0,32.0,1.0,,,,,,,,,,
0.0,1.0,0.90069,,,,,,tiger_06s.jpg,0.0,clock_5_3.png,6.0,40,,,,,,,,,,,,,,,,,,0.0,33.0,33.0,33.0,1.0,,,,,,,,,,
1.0,0.0,1.323755,,,,,,antenna_01b.jpg,0.0,clock_5_4.png,6.0,40,,,,,,,,,,,,,,,,,,0.0,34.0,34.0,34.0,1.0,,,,,,,,,,
,0.0,,,,,,,stingray_02s.jpg,0.0,clock_5_5.png,6.0,40,,,,,,,,,,,,,,,,,,0.0,35.0,35.0,35.0,1.0,,,,,,,,,,
,,,,,,,,,1.0,,,40,0.0,0.0,1.140955,,,,,,margarita_03s.jpg,tiger_06s.jpg,,,,,,,,,,,,,0.0,0.0,0.0,0.0,1.0,,,,,
,,,,,,,,,0.0,,,40,1.0,0.0,2.108745,,,,,,top_hat_11s.jpg,petri_dish_12s.jpg,,,,,,,,,,,,,0.0,1.0,1.0,1.0,1.0,,,,,
,,,,,,,,,0.0,,,40,1.0,0.0,1.09659,,,,,,kitten_07s.jpg,toy_04s.jpg,,,,,,,,,,,,,0.0,2.0,2.0,2.0,1.0,,,,,
,,,,,,,,,0.0,,,40,1.0,0.0,2.283105,,,,,,pancake_12s.jpg,pencil_sharpener_09n.jpg,,,,,,,,,,,,,0.0,3.0,3.0,3.0,1.0,,,,,
,,,,,,,,,1.0,,,40,1.0,1.0,1.169865,,,,,,tambourine_06s.jpg,breadstick_08s.jpg,,,,,,,,,,,,,0.0,4.0,4.0,4.0,1.0,,,,,
,,,,,,,,,0.0,,,40,1.0,0.0,0.866085,,,,,,bathtub_23s.jpg,rosary_03s.jpg,,,,,,,,,,,,,0.0,5.0,5.0,5.0,1.0,,,,,
,,,,,,,,,,,,40,,,,,,,,,,,,,,,,clock_present_4_4.xlsx,clock_compare_task_4_4.xlsx,,,,,,,,,,,0.0,3.0,3.0,3.0,1.0
0.0,1.0,1.028535,,,,,,keyhole_03s.jpg,0.0,clock_6_1.png,1.0,40,,,,,,,,,,,,,,,,,,0.0,0.0,0.0,0.0,1.0,,,,,,,,,,
1.0,0.0,0.846355,,,,,,squirrel_02s.jpg,0.0,clock_6_2.png,1.0,40,,,,,,,,,,,,,,,,,,0.0,1.0,1.0,1.0,1.0,,,,,,,,,,
0.0,1.0,0.403795,,,,,,lamb_chop_07s.jpg,0.0,clock_6_3.png,1.0,40,,,,,,,,,,,,,,,,,,0.0,2.0,2.0,2.0,1.0,,,,,,,,,,
0.0,1.0,1.160525,,,,,,power_line_08s.jpg,0.0,clock_6_4.png,1.0,40,,,,,,,,,,,,,,,,,,0.0,3.0,3.0,3.0,1.0,,,,,,,,,,
0.0,1.0,0.51993,,,,,,fire_pit_10s.jpg,0.0,clock_6_5.png,1.0,40,,,,,,,,,,,,,,,,,,0.0,4.0,4.0,4.0,1.0,,,,,,,,,,
0.0,1.0,1.223565,,,,,,rolling_pin_02s.jpg,0.0,clock_6_6.png,1.0,40,,,,,,,,,,,,,,,,,,0.0,5.0,5.0,5.0,1.0,,,,,,,,,,
0.0,1.0,1.175685,,,,,,mitten_10s.jpg,0.0,clock_7_1.png,2.0,40,,,,,,,,,,,,,,,,,,0.0,6.0,6.0,6.0,1.0,,,,,,,,,,
0.0,1.0,1.29974,,,,,,juicer1_08s.jpg,0.0,clock_7_2.png,2.0,40,,,,,,,,,,,,,,,,,,0.0,7.0,7.0,7.0,1.0,,,,,,,,,,
0.0,1.0,1.10546,,,,,,peach_04s.jpg,0.0,clock_7_3.png,2.0,40,,,,,,,,,,,,,,,,,,0.0,8.0,8.0,8.0,1.0,,,,,,,,,,
0.0,1.0,1.37953,,,,,,plunger_08s.jpg,0.0,clock_7_4.png,2.0,40,,,,,,,,,,,,,,,,,,0.0,9.0,9.0,9.0,1.0,,,,,,,,,,
0.0,1.0,0.98228,,,,,,bolo_tie_08s.jpg,0.0,clock_7_5.png,2.0,40,,,,,,,,,,,,,,,,,,0.0,10.0,10.0,10.0,1.0,,,,,,,,,,
0.0,1.0,1.1045,,,,,,knot_01b.jpg,0.0,clock_7_6.png,2.0,40,,,,,,,,,,,,,,,,,,0.0,11.0,11.0,11.0,1.0,,,,,,,,,,
0.0,1.0,1.10616,,,,,,tulip_02s.jpg,0.0,clock_7_7.png,2.0,40,,,,,,,,,,,,,,,,,,0.0,12.0,12.0,12.0,1.0,,,,,,,,,,
1.0,0.0,1.343245,,,,,,fireworks_18s.jpg,0.0,clock_7_1.png,3.0,40,,,,,,,,,,,,,,,,,,0.0,13.0,13.0,13.0,1.0,,,,,,,,,,
1.0,0.0,1.162685,,,,,,fire_pit_10s.jpg,0.0,clock_7_2.png,3.0,40,,,,,,,,,,,,,,,,,,0.0,14.0,14.0,14.0,1.0,,,,,,,,,,
0.0,1.0,0.976675,,,,,,crystal_ball_12s.jpg,0.0,clock_7_3.png,3.0,40,,,,,,,,,,,,,,,,,,0.0,15.0,15.0,15.0,1.0,,,,,,,,,,
0.0,1.0,1.49324,,,,,,teabag_12s.jpg,0.0,clock_7_4.png,3.0,40,,,,,,,,,,,,,,,,,,0.0,16.0,16.0,16.0,1.0,,,,,,,,,,
0.0,1.0,1.179465,,,,,,popcorn_09s.jpg,0.0,clock_7_5.png,3.0,40,,,,,,,,,,,,,,,,,,0.0,17.0,17.0,17.0,1.0,,,,,,,,,,
0.0,1.0,0.97193,,,,,,swan_11s.jpg,0.0,clock_7_6.png,3.0,40,,,,,,,,,,,,,,,,,,0.0,18.0,18.0,18.0,1.0,,,,,,,,,,
0.0,1.0,0.90863,,,,,,chocolate_01b.jpg,0.0,clock_7_7.png,3.0,40,,,,,,,,,,,,,,,,,,0.0,19.0,19.0,19.0,1.0,,,,,,,,,,
0.0,1.0,0.875455,,,,,,tortilla_06s.jpg,0.0,clock_5_1.png,4.0,40,,,,,,,,,,,,,,,,,,0.0,20.0,20.0,20.0,1.0,,,,,,,,,,
1.0,1.0,0.892795,,,,,,tortilla_06s.jpg,1.0,clock_5_2.png,4.0,40,,,,,,,,,,,,,,,,,,0.0,21.0,21.0,21.0,1.0,,,,,,,,,,
0.0,1.0,0.873595,,,,,,rice_12s.jpg,0.0,clock_5_3.png,4.0,40,,,,,,,,,,,,,,,,,,0.0,22.0,22.0,22.0,1.0,,,,,,,,,,
1.0,1.0,1.0264,,,,,,tortilla_06s.jpg,1.0,clock_5_4.png,4.0,40,,,,,,,,,,,,,,,,,,0.0,23.0,23.0,23.0,1.0,,,,,,,,,,
1.0,1.0,1.37815,,,,,,rice_12s.jpg,1.0,clock_5_5.png,4.0,40,,,,,,,,,,,,,,,,,,0.0,24.0,24.0,24.0,1.0,,,,,,,,,,
0.0,1.0,1.912055,,,,,,ice-cream_cone_06s.jpg,0.0,clock_5_1.png,5.0,40,,,,,,,,,,,,,,,,,,0.0,25.0,25.0,25.0,1.0,,,,,,,,,,
0.0,1.0,0.974165,,,,,,microwave_02s.jpg,0.0,clock_5_2.png,5.0,40,,,,,,,,,,,,,,,,,,0.0,26.0,26.0,26.0,1.0,,,,,,,,,,
0.0,1.0,0.867075,,,,,,ruby_15s.jpg,0.0,clock_5_3.png,5.0,40,,,,,,,,,,,,,,,,,,0.0,27.0,27.0,27.0,1.0,,,,,,,,,,
0.0,1.0,1.028275,,,,,,trampoline_13s.jpg,0.0,clock_5_4.png,5.0,40,,,,,,,,,,,,,,,,,,0.0,28.0,28.0,28.0,1.0,,,,,,,,,,
0.0,1.0,1.11477,,,,,,cereal_04s.jpg,0.0,clock_5_5.png,5.0,40,,,,,,,,,,,,,,,,,,0.0,29.0,29.0,29.0,1.0,,,,,,,,,,
0.0,1.0,0.939795,,,,,,lamb_04s.jpg,0.0,clock_6_1.png,6.0,40,,,,,,,,,,,,,,,,,,0.0,30.0,30.0,30.0,1.0,,,,,,,,,,
0.0,1.0,1.447605,,,,,,quesadilla_07s.jpg,0.0,clock_6_2.png,6.0,40,,,,,,,,,,,,,,,,,,0.0,31.0,31.0,31.0,1.0,,,,,,,,,,
0.0,1.0,0.966245,,,,,,gas_mask_11s.jpg,0.0,clock_6_3.png,6.0,40,,,,,,,,,,,,,,,,,,0.0,32.0,32.0,32.0,1.0,,,,,,,,,,
0.0,1.0,1.00877,,,,,,taxi_15s.jpg,0.0,clock_6_4.png,6.0,40,,,,,,,,,,,,,,,,,,0.0,33.0,33.0,33.0,1.0,,,,,,,,,,
0.0,1.0,1.04486,,,,,,safety_pin_02s.jpg,0.0,clock_6_5.png,6.0,40,,,,,,,,,,,,,,,,,,0.0,34.0,34.0,34.0,1.0,,,,,,,,,,
0.0,1.0,1.102085,,,,,,mold2_04s.jpg,0.0,clock_6_6.png,6.0,40,,,,,,,,,,,,,,,,,,0.0,35.0,35.0,35.0,1.0,,,,,,,,,,
,,,,,,,,,1.0,,,40,0.0,0.0,2.37546,,,,,,ruby_15s.jpg,lamb_04s.jpg,,,,,,,,,,,,,0.0,0.0,0.0,0.0,1.0,,,,,
,,,,,,,,,1.0,,,40,1.0,1.0,1.15634,,,,,,power_line_08s.jpg,mitten_10s.jpg,,,,,,,,,,,,,0.0,1.0,1.0,1.0,1.0,,,,,
,,,,,,,,,1.0,,,40,1.0,1.0,1.82059,,,,,,rolling_pin_02s.jpg,peach_04s.jpg,,,,,,,,,,,,,0.0,2.0,2.0,2.0,1.0,,,,,
,,,,,,,,,1.0,,,40,0.0,0.0,1.41652,,,,,,teabag_12s.jpg,chocolate_01b.jpg,,,,,,,,,,,,,0.0,3.0,3.0,3.0,1.0,,,,,
,,,,,,,,,1.0,,,40,1.0,1.0,1.15471,,,,,,juicer1_08s.jpg,bolo_tie_08s.jpg,,,,,,,,,,,,,0.0,4.0,4.0,4.0,1.0,,,,,
,,,,,,,,,1.0,,,40,0.0,0.0,0.9043,,,,,,plunger_08s.jpg,tulip_02s.jpg,,,,,,,,,,,,,0.0,5.0,5.0,5.0,1.0,,,,,
,,,,,,,,,,,,40,,,,,,,,,,,,,,,,clock_present_5_4.xlsx,clock_compare_task_5_4.xlsx,,,,,,,,,,,0.0,4.0,4.0,4.0,1.0
0.0,1.0,1.01178,,,,,,tiara_05s.jpg,0.0,clock_5_1.png,1.0,40,,,,,,,,,,,,,,,,,,0.0,0.0,0.0,0.0,1.0,,,,,,,,,,
1.0,1.0,0.983075,,,,,,tiara_05s.jpg,1.0,clock_5_2.png,1.0,40,,,,,,,,,,,,,,,,,,0.0,1.0,1.0,1.0,1.0,,,,,,,,,,
1.0,1.0,0.988905,,,,,,tiara_05s.jpg,1.0,clock_5_3.png,1.0,40,,,,,,,,,,,,,,,,,,0.0,2.0,2.0,2.0,1.0,,,,,,,,,,
,0.0,,,,,,,telephone_pole_05s.jpg,0.0,clock_5_4.png,1.0,40,,,,,,,,,,,,,,,,,,0.0,3.0,3.0,3.0,1.0,,,,,,,,,,
1.0,1.0,0.952645,,,,,,tiara_05s.jpg,1.0,clock_5_5.png,1.0,40,,,,,,,,,,,,,,,,,,0.0,4.0,4.0,4.0,1.0,,,,,,,,,,
0.0,1.0,0.90526,,,,,,jersey_02s.jpg,0.0,clock_6_1.png,2.0,40,,,,,,,,,,,,,,,,,,0.0,5.0,5.0,5.0,1.0,,,,,,,,,,
1.0,0.0,0.96947,,,,,,telephone_pole_05s.jpg,0.0,clock_6_2.png,2.0,40,,,,,,,,,,,,,,,,,,0.0,6.0,6.0,6.0,1.0,,,,,,,,,,
0.0,1.0,0.793075,,,,,,rocking_chair_05s.jpg,0.0,clock_6_3.png,2.0,40,,,,,,,,,,,,,,,,,,0.0,7.0,7.0,7.0,1.0,,,,,,,,,,
1.0,1.0,1.54804,,,,,,rocking_chair_05s.jpg,1.0,clock_6_4.png,2.0,40,,,,,,,,,,,,,,,,,,0.0,8.0,8.0,8.0,1.0,,,,,,,,,,
0.0,1.0,1.177835,,,,,,mussel_11s.jpg,0.0,clock_6_5.png,2.0,40,,,,,,,,,,,,,,,,,,0.0,9.0,9.0,9.0,1.0,,,,,,,,,,
0.0,1.0,0.82038,,,,,,comic_book_02s.jpg,0.0,clock_6_6.png,2.0,40,,,,,,,,,,,,,,,,,,0.0,10.0,10.0,10.0,1.0,,,,,,,,,,
1.0,0.0,1.45776,,,,,,bonsai_07s.jpg,0.0,clock_7_1.png,3.0,40,,,,,,,,,,,,,,,,,,0.0,11.0,11.0,11.0,1.0,,,,,,,,,,
0.0,1.0,1.086735,,,,,,teacup_07s.jpg,0.0,clock_7_2.png,3.0,40,,,,,,,,,,,,,,,,,,0.0,12.0,12.0,12.0,1.0,,,,,,,,,,
0.0,1.0,1.81577,,,,,,chime_12s.jpg,0.0,clock_7_3.png,3.0,40,,,,,,,,,,,,,,,,,,0.0,13.0,13.0,13.0,1.0,,,,,,,,,,
0.0,1.0,1.025325,,,,,,beaker_01b.jpg,0.0,clock_7_4.png,3.0,40,,,,,,,,,,,,,,,,,,0.0,14.0,14.0,14.0,1.0,,,,,,,,,,
0.0,1.0,0.92718,,,,,,harpoon.jpg,0.0,clock_7_5.png,3.0,40,,,,,,,,,,,,,,,,,,0.0,15.0,15.0,15.0,1.0,,,,,,,,,,
0.0,1.0,0.855255,,,,,,swimming_pool_17s.jpg,0.0,clock_7_6.png,3.0,40,,,,,,,,,,,,,,,,,,0.0,16.0,16.0,16.0,1.0,,,,,,,,,,
1.0,0.0,0.92564,,,,,,comic_book_02s.jpg,0.0,clock_7_7.png,3.0,40,,,,,,,,,,,,,,,,,,0.0,17.0,17.0,17.0,1.0,,,,,,,,,,
0.0,1.0,0.78116,,,,,,jetski_10s.jpg,0.0,clock_6_1.png,4.0,40,,,,,,,,,,,,,,,,,,0.0,18.0,18.0,18.0,1.0,,,,,,,,,,
0.0,1.0,1.244875,,,,,,cardinal_07s.jpg,0.0,clock_6_2.png,4.0,40,,,,,,,,,,,,,,,,,,0.0,19.0,19.0,19.0,1.0,,,,,,,,,,
,0.0,,,,,,,leotard_08s.jpg,0.0,clock_6_3.png,4.0,40,,,,,,,,,,,,,,,,,,0.0,20.0,20.0,20.0,1.0,,,,,,,,,,
0.0,1.0,0.95557,,,,,,plug_08s.jpg,0.0,clock_6_4.png,4.0,40,,,,,,,,,,,,,,,,,,0.0,21.0,21.0,21.0,1.0,,,,,,,,,,
0.0,1.0,1.015655,,,,,,tab_09s.jpg,0.0,clock_6_5.png,4.0,40,,,,,,,,,,,,,,,,,,0.0,22.0,22.0,22.0,1.0,,,,,,,,,,
0.0,1.0,0.844225,,,,,,tuxedo_01b.jpg,0.0,clock_6_6.png,4.0,40,,,,,,,,,,,,,,,,,,0.0,23.0,23.0,23.0,1.0,,,,,,,,,,
0.0,1.0,0.827125,,,,,,beard_16s.jpg,0.0,clock_5_1.png,5.0,40,,,,,,,,,,,,,,,,,,0.0,24.0,24.0,24.0,1.0,,,,,,,,,,
0.0,1.0,1.21018,,,,,,leotard_08s.jpg,0.0,clock_5_2.png,5.0,40,,,,,,,,,,,,,,,,,,0.0,25.0,25.0,25.0,1.0,,,,,,,,,,
0.0,1.0,0.97804,,,,,,coconut_08s.jpg,0.0,clock_5_3.png,5.0,40,,,,,,,,,,,,,,,,,,0.0,26.0,26.0,26.0,1.0,,,,,,,,,,
0.0,1.0,1.395735,,,,,,hummingbird_05s.jpg,0.0,clock_5_4.png,5.0,40,,,,,,,,,,,,,,,,,,0.0,27.0,27.0,27.0,1.0,,,,,,,,,,
0.0,1.0,0.90404,,,,,,latte_06s.jpg,0.0,clock_5_5.png,5.0,40,,,,,,,,,,,,,,,,,,0.0,28.0,28.0,28.0,1.0,,,,,,,,,,
0.0,1.0,1.492525,,,,,,purse_05s.jpg,0.0,clock_7_1.png,6.0,40,,,,,,,,,,,,,,,,,,0.0,29.0,29.0,29.0,1.0,,,,,,,,,,
0.0,1.0,0.821645,,,,,,stamp1_11s.jpg,0.0,clock_7_2.png,6.0,40,,,,,,,,,,,,,,,,,,0.0,30.0,30.0,30.0,1.0,,,,,,,,,,
0.0,1.0,1.245915,,,,,,dashboard_02s.jpg,0.0,clock_7_3.png,6.0,40,,,,,,,,,,,,,,,,,,0.0,31.0,31.0,31.0,1.0,,,,,,,,,,
1.0,1.0,1.115165,,,,,,dashboard_02s.jpg,1.0,clock_7_4.png,6.0,40,,,,,,,,,,,,,,,,,,0.0,32.0,32.0,32.0,1.0,,,,,,,,,,
0.0,1.0,1.101845,,,,,,fossil_06s.jpg,0.0,clock_7_5.png,6.0,40,,,,,,,,,,,,,,,,,,0.0,33.0,33.0,33.0,1.0,,,,,,,,,,
0.0,1.0,0.787845,,,,,,police_car_01s.jpg,0.0,clock_7_6.png,6.0,40,,,,,,,,,,,,,,,,,,0.0,34.0,34.0,34.0,1.0,,,,,,,,,,
0.0,1.0,0.772235,,,,,,bowler_hat_10s.jpg,0.0,clock_7_7.png,6.0,40,,,,,,,,,,,,,,,,,,0.0,35.0,35.0,35.0,1.0,,,,,,,,,,
,,,,,,,,,0.0,,,40,1.0,0.0,2.897065,,,,,,coconut_08s.jpg,tuxedo_01b.jpg,,,,,,,,,,,,,0.0,0.0,0.0,0.0,1.0,,,,,
,,,,,,,,,1.0,,,40,1.0,1.0,1.52344,,,,,,mussel_11s.jpg,teacup_07s.jpg,,,,,,,,,,,,,0.0,1.0,1.0,1.0,1.0,,,,,
,,,,,,,,,0.0,,,40,0.0,1.0,1.34871,,,,,,jetski_10s.jpg,harpoon.jpg,,,,,,,,,,,,,0.0,2.0,2.0,2.0,1.0,,,,,
,,,,,,,,,1.0,,,40,1.0,1.0,1.62763,,,,,,bonsai_07s.jpg,beaker_01b.jpg,,,,,,,,,,,,,0.0,3.0,3.0,3.0,1.0,,,,,
,,,,,,,,,0.0,,,40,1.0,0.0,1.28881,,,,,,swimming_pool_17s.jpg,chime_12s.jpg,,,,,,,,,,,,,0.0,4.0,4.0,4.0,1.0,,,,,
,,,,,,,,,0.0,,,40,0.0,1.0,1.367965,,,,,,tab_09s.jpg,cardinal_07s.jpg,,,,,,,,,,,,,0.0,5.0,5.0,5.0,1.0,,,,,
