key_resp.keys,key_resp.corr,key_resp.rt,noclock_loop.thisRepN,noclock_loop.thisTrialN,noclock_loop.thisN,noclock_loop.thisIndex,noclock_loop.ran,pictures,answer,clock,segment,participant,key_resp_2.keys,key_resp_2.corr,key_resp_2.rt,noclock_loop2.thisRepN,noclock_loop2.thisTrialN,noclock_loop2.thisN,noclock_loop2.thisIndex,noclock_loop2.ran,item_a,item_b,noclock_condition.thisRepN,noclock_condition.thisTrialN,noclock_condition.thisN,noclock_condition.thisIndex,noclock_condition.ran,present,compare,present_segment.thisRepN,present_segment.thisTrialN,present_segment.thisN,present_segment.thisIndex,present_segment.ran,compare_segment.thisRepN,compare_segment.thisTrialN,compare_segment.thisN,compare_segment.thisIndex,compare_segment.ran,clock_conditions.thisRepN,clock_conditions.thisTrialN,clock_conditions.thisN,clock_conditions.thisIndex,clock_conditions.ran
0.0,1.0,1.658,0.0,0.0,0.0,0.0,1.0,tube_top_03s.jpg,0.0,clockno_up.jpg,1.0,47,,,,,,,,,,,,,,,,,,,,,,,,,,,,,,,,
1.0,1.0,1.37,0.0,1.0,1.0,1.0,1.0,tube_top_03s.jpg,1.0,clockno_default.jpg,1.0,47,,,,,,,,,,,,,,,,,,,,,,,,,,,,,,,,
0.0,1.0,0.768,0.0,2.0,2.0,2.0,1.0,piggy_bank_02s.jpg,0.0,clockno_default.jpg,1.0,47,,,,,,,,,,,,,,,,,,,,,,,,,,,,,,,,
0.0,1.0,0.89,0.0,3.0,3.0,3.0,1.0,peach_04s.jpg,0.0,clockno_default.jpg,1.0,47,,,,,,,,,,,,,,,,,,,,,,,,,,,,,,,,
0.0,1.0,0.587,0.0,4.0,4.0,4.0,1.0,petri_dish_12s.jpg,0.0,clockno_default.jpg,1.0,47,,,,,,,,,,,,,,,,,,,,,,,,,,,,,,,,
0.0,1.0,0.706,0.0,5.0,5.0,5.0,1.0,memory_stick_11s.jpg,0.0,clockno_default.jpg,1.0,47,,,,,,,,,,,,,,,,,,,,,,,,,,,,,,,,
1.0,1.0,2.188,0.0,6.0,6.0,6.0,1.0,piggy_bank_02s.jpg,1.0,clockno_default.jpg,1.0,47,,,,,,,,,,,,,,,,,,,,,,,,,,,,,,,,
0.0,1.0,1.854,0.0,7.0,7.0,7.0,1.0,tweezers_03s.jpg,0.0,clockno_up.jpg,2.0,47,,,,,,,,,,,,,,,,,,,,,,,,,,,,,,,,
0.0,1.0,0.972,0.0,8.0,8.0,8.0,1.0,coffee_filter_10s.jpg,0.0,clockno_default.jpg,2.0,47,,,,,,,,,,,,,,,,,,,,,,,,,,,,,,,,
0.0,1.0,0.939,0.0,9.0,9.0,9.0,1.0,tambourine_06s.jpg,0.0,clockno_default.jpg,2.0,47,,,,,,,,,,,,,,,,,,,,,,,,,,,,,,,,
0.0,1.0,1.269,0.0,10.0,10.0,10.0,1.0,ukulele_02s.jpg,0.0,clockno_default.jpg,2.0,47,,,,,,,,,,,,,,,,,,,,,,,,,,,,,,,,
0.0,1.0,0.653,0.0,11.0,11.0,11.0,1.0,towel_rack_04s.jpg,0.0,clockno_default.jpg,2.0,47,,,,,,,,,,,,,,,,,,,,,,,,,,,,,,,,
0.0,1.0,0.657,0.0,12.0,12.0,12.0,1.0,ravioli_08s.jpg,0.0,clockno_up.jpg,3.0,47,,,,,,,,,,,,,,,,,,,,,,,,,,,,,,,,
0.0,0.0,1.105,0.0,13.0,13.0,13.0,1.0,ravioli_08s.jpg,1.0,clockno_default.jpg,3.0,47,,,,,,,,,,,,,,,,,,,,,,,,,,,,,,,,
0.0,1.0,0.909,0.0,14.0,14.0,14.0,1.0,peanut_butter_08s.jpg,0.0,clockno_default.jpg,3.0,47,,,,,,,,,,,,,,,,,,,,,,,,,,,,,,,,
0.0,1.0,1.155,0.0,15.0,15.0,15.0,1.0,sledgehammer_03s.jpg,0.0,clockno_default.jpg,3.0,47,,,,,,,,,,,,,,,,,,,,,,,,,,,,,,,,
0.0,1.0,0.941,0.0,16.0,16.0,16.0,1.0,syringe_02s.jpg,0.0,clockno_default.jpg,3.0,47,,,,,,,,,,,,,,,,,,,,,,,,,,,,,,,,
0.0,1.0,0.991,0.0,17.0,17.0,17.0,1.0,quilt_03s.jpg,0.0,clockno_default.jpg,3.0,47,,,,,,,,,,,,,,,,,,,,,,,,,,,,,,,,
1.0,1.0,1.504,0.0,18.0,18.0,18.0,1.0,syringe_02s.jpg,1.0,clockno_default.jpg,3.0,47,,,,,,,,,,,,,,,,,,,,,,,,,,,,,,,,
0.0,1.0,0.861,0.0,19.0,19.0,19.0,1.0,radiator_05s.jpg,0.0,clockno_up.jpg,4.0,47,,,,,,,,,,,,,,,,,,,,,,,,,,,,,,,,
0.0,1.0,0.957,0.0,20.0,20.0,20.0,1.0,jelly_bean_06s.jpg,0.0,clockno_default.jpg,4.0,47,,,,,,,,,,,,,,,,,,,,,,,,,,,,,,,,
0.0,1.0,0.621,0.0,21.0,21.0,21.0,1.0,top_hat_11s.jpg,0.0,clockno_default.jpg,4.0,47,,,,,,,,,,,,,,,,,,,,,,,,,,,,,,,,
1.0,1.0,1.779,0.0,22.0,22.0,22.0,1.0,radiator_05s.jpg,1.0,clockno_default.jpg,4.0,47,,,,,,,,,,,,,,,,,,,,,,,,,,,,,,,,
0.0,1.0,1.009,0.0,23.0,23.0,23.0,1.0,contact_lens_15s.jpg,0.0,clockno_default.jpg,4.0,47,,,,,,,,,,,,,,,,,,,,,,,,,,,,,,,,
0.0,1.0,0.972,0.0,24.0,24.0,24.0,1.0,rake_06s.jpg,0.0,clockno_default.jpg,4.0,47,,,,,,,,,,,,,,,,,,,,,,,,,,,,,,,,
0.0,1.0,2.341,0.0,25.0,25.0,25.0,1.0,surfboard_11s.jpg,0.0,clockno_up.jpg,5.0,47,,,,,,,,,,,,,,,,,,,,,,,,,,,,,,,,
0.0,1.0,1.555,0.0,26.0,26.0,26.0,1.0,toy_04s.jpg,0.0,clockno_default.jpg,5.0,47,,,,,,,,,,,,,,,,,,,,,,,,,,,,,,,,
0.0,1.0,0.837,0.0,27.0,27.0,27.0,1.0,raccoon_02s.jpg,0.0,clockno_default.jpg,5.0,47,,,,,,,,,,,,,,,,,,,,,,,,,,,,,,,,
0.0,1.0,0.905,0.0,28.0,28.0,28.0,1.0,phone_01b.jpg,0.0,clockno_default.jpg,5.0,47,,,,,,,,,,,,,,,,,,,,,,,,,,,,,,,,
0.0,1.0,1.089,0.0,29.0,29.0,29.0,1.0,ukulele_02s.jpg,0.0,clockno_default.jpg,5.0,47,,,,,,,,,,,,,,,,,,,,,,,,,,,,,,,,
0.0,1.0,0.827,0.0,30.0,30.0,30.0,1.0,raft_09s.jpg,0.0,clockno_default.jpg,5.0,47,,,,,,,,,,,,,,,,,,,,,,,,,,,,,,,,
0.0,1.0,1.373,0.0,31.0,31.0,31.0,1.0,kettle_08s.jpg,0.0,clockno_up.jpg,6.0,47,,,,,,,,,,,,,,,,,,,,,,,,,,,,,,,,
0.0,1.0,1.341,0.0,32.0,32.0,32.0,1.0,target_11s.jpg,0.0,clockno_default.jpg,6.0,47,,,,,,,,,,,,,,,,,,,,,,,,,,,,,,,,
0.0,1.0,1.172,0.0,33.0,33.0,33.0,1.0,icicle_04s.jpg,0.0,clockno_default.jpg,6.0,47,,,,,,,,,,,,,,,,,,,,,,,,,,,,,,,,
0.0,1.0,1.278,0.0,34.0,34.0,34.0,1.0,timer_03s.jpg,0.0,clockno_default.jpg,6.0,47,,,,,,,,,,,,,,,,,,,,,,,,,,,,,,,,
1.0,1.0,1.656,0.0,35.0,35.0,35.0,1.0,timer_03s.jpg,1.0,clockno_default.jpg,6.0,47,,,,,,,,,,,,,,,,,,,,,,,,,,,,,,,,
,,,,,,,,,0.0,,,47,0.0,1.0,4.707,0.0,0.0,0.0,0.0,1.0,tweezers_03s.jpg,petri_dish_12s.jpg,,,,,,,,,,,,,,,,,,,,,,
,,,,,,,,,1.0,,,47,0.0,0.0,4.604,0.0,1.0,1.0,1.0,1.0,memory_stick_11s.jpg,coffee_filter_10s.jpg,,,,,,,,,,,,,,,,,,,,,,
,,,,,,,,,0.0,,,47,1.0,0.0,3.742,0.0,2.0,2.0,2.0,1.0,toy_04s.jpg,contact_lens_15s.jpg,,,,,,,,,,,,,,,,,,,,,,
,,,,,,,,,0.0,,,47,0.0,1.0,4.506,0.0,3.0,3.0,3.0,1.0,rake_06s.jpg,top_hat_11s.jpg,,,,,,,,,,,,,,,,,,,,,,
,,,,,,,,,0.0,,,47,0.0,1.0,3.821,0.0,4.0,4.0,4.0,1.0,phone_01b.jpg,surfboard_11s.jpg,,,,,,,,,,,,,,,,,,,,,,
,,,,,,,,,1.0,,,47,1.0,1.0,4.935,0.0,5.0,5.0,5.0,1.0,peanut_butter_08s.jpg,quilt_03s.jpg,,,,,,,,,,,,,,,,,,,,,,
,,,,,,,,,,,,47,,,,,,,,,,,0.0,0.0,0.0,0.0,1.0,clockno_present_1_16.xlsx,clockno_compare_task_1_16.xlsx,,,,,,,,,,,,,,,
0.0,1.0,1.53,0.0,0.0,0.0,0.0,1.0,juicer2_06s.jpg,0.0,clock_5_1.png,1.0,47,,,,,,,,,,,,,,,,,,,,,,,,,,,,,,,,
0.0,1.0,1.07,0.0,1.0,1.0,1.0,1.0,potholder_02s.jpg,0.0,clock_5_2.png,1.0,47,,,,,,,,,,,,,,,,,,,,,,,,,,,,,,,,
0.0,1.0,0.769,0.0,2.0,2.0,2.0,1.0,pencil02a.jpg,0.0,clock_5_3.png,1.0,47,,,,,,,,,,,,,,,,,,,,,,,,,,,,,,,,
0.0,1.0,1.06,0.0,3.0,3.0,3.0,1.0,chopsticks_08s.jpg,0.0,clock_5_4.png,1.0,47,,,,,,,,,,,,,,,,,,,,,,,,,,,,,,,,
1.0,1.0,1.666,0.0,4.0,4.0,4.0,1.0,potholder_02s.jpg,1.0,clock_5_5.png,1.0,47,,,,,,,,,,,,,,,,,,,,,,,,,,,,,,,,
0.0,1.0,1.177,0.0,5.0,5.0,5.0,1.0,fondue_07s.jpg,0.0,clock_5_1.png,2.0,47,,,,,,,,,,,,,,,,,,,,,,,,,,,,,,,,
0.0,1.0,1.337,0.0,6.0,6.0,6.0,1.0,pillbox_04s.jpg,0.0,clock_5_2.png,2.0,47,,,,,,,,,,,,,,,,,,,,,,,,,,,,,,,,
0.0,1.0,1.01,0.0,7.0,7.0,7.0,1.0,pumpkin_03s.jpg,0.0,clock_5_3.png,2.0,47,,,,,,,,,,,,,,,,,,,,,,,,,,,,,,,,
0.0,1.0,0.973,0.0,8.0,8.0,8.0,1.0,cardinal_07s.jpg,0.0,clock_5_4.png,2.0,47,,,,,,,,,,,,,,,,,,,,,,,,,,,,,,,,
0.0,1.0,1.131,0.0,9.0,9.0,9.0,1.0,swordfish_05s.jpg,0.0,clock_5_5.png,2.0,47,,,,,,,,,,,,,,,,,,,,,,,,,,,,,,,,
0.0,1.0,1.151,0.0,10.0,10.0,10.0,1.0,turkey_10s.jpg,0.0,clock_6_1.png,3.0,47,,,,,,,,,,,,,,,,,,,,,,,,,,,,,,,,
0.0,1.0,0.684,0.0,11.0,11.0,11.0,1.0,road_sign_05s.jpg,0.0,clock_6_2.png,3.0,47,,,,,,,,,,,,,,,,,,,,,,,,,,,,,,,,
1.0,1.0,1.381,0.0,12.0,12.0,12.0,1.0,road_sign_05s.jpg,1.0,clock_6_3.png,3.0,47,,,,,,,,,,,,,,,,,,,,,,,,,,,,,,,,
0.0,1.0,1.007,0.0,13.0,13.0,13.0,1.0,rhubarb_03s.jpg,0.0,clock_6_4.png,3.0,47,,,,,,,,,,,,,,,,,,,,,,,,,,,,,,,,
0.0,1.0,1.015,0.0,14.0,14.0,14.0,1.0,ivy_12s.jpg,0.0,clock_6_5.png,3.0,47,,,,,,,,,,,,,,,,,,,,,,,,,,,,,,,,
0.0,1.0,1.002,0.0,15.0,15.0,15.0,1.0,boar_10s.jpg,0.0,clock_6_6.png,3.0,47,,,,,,,,,,,,,,,,,,,,,,,,,,,,,,,,
0.0,1.0,0.834,0.0,16.0,16.0,16.0,1.0,mango_09s.jpg,0.0,clock_6_1.png,4.0,47,,,,,,,,,,,,,,,,,,,,,,,,,,,,,,,,
0.0,1.0,0.671,0.0,17.0,17.0,17.0,1.0,feather02.jpg,0.0,clock_6_2.png,4.0,47,,,,,,,,,,,,,,,,,,,,,,,,,,,,,,,,
0.0,1.0,0.526,0.0,18.0,18.0,18.0,1.0,pumpkin_03s.jpg,0.0,clock_6_3.png,4.0,47,,,,,,,,,,,,,,,,,,,,,,,,,,,,,,,,
0.0,1.0,0.889,0.0,19.0,19.0,19.0,1.0,giraffe_11s.jpg,0.0,clock_6_4.png,4.0,47,,,,,,,,,,,,,,,,,,,,,,,,,,,,,,,,
0.0,1.0,0.807,0.0,20.0,20.0,20.0,1.0,meatball_13s.jpg,0.0,clock_6_5.png,4.0,47,,,,,,,,,,,,,,,,,,,,,,,,,,,,,,,,
0.0,1.0,1.213,0.0,21.0,21.0,21.0,1.0,turkey_10s.jpg,0.0,clock_6_6.png,4.0,47,,,,,,,,,,,,,,,,,,,,,,,,,,,,,,,,
0.0,1.0,0.867,0.0,22.0,22.0,22.0,1.0,stump_02s.jpg,0.0,clock_7_1.png,5.0,47,,,,,,,,,,,,,,,,,,,,,,,,,,,,,,,,
0.0,1.0,0.936,0.0,23.0,23.0,23.0,1.0,ostrich_06s.jpg,0.0,clock_7_2.png,5.0,47,,,,,,,,,,,,,,,,,,,,,,,,,,,,,,,,
0.0,1.0,1.018,0.0,24.0,24.0,24.0,1.0,amber_04s.jpg,0.0,clock_7_3.png,5.0,47,,,,,,,,,,,,,,,,,,,,,,,,,,,,,,,,
0.0,1.0,1.121,0.0,25.0,25.0,25.0,1.0,blender_08s.jpg,0.0,clock_7_4.png,5.0,47,,,,,,,,,,,,,,,,,,,,,,,,,,,,,,,,
0.0,1.0,0.869,0.0,26.0,26.0,26.0,1.0,trumpet_06s.jpg,0.0,clock_7_5.png,5.0,47,,,,,,,,,,,,,,,,,,,,,,,,,,,,,,,,
0.0,1.0,0.984,0.0,27.0,27.0,27.0,1.0,ivy_12s.jpg,0.0,clock_7_6.png,5.0,47,,,,,,,,,,,,,,,,,,,,,,,,,,,,,,,,
0.0,1.0,0.704,0.0,28.0,28.0,28.0,1.0,ironing_board_07s.jpg,0.0,clock_7_7.png,5.0,47,,,,,,,,,,,,,,,,,,,,,,,,,,,,,,,,
0.0,1.0,0.988,0.0,29.0,29.0,29.0,1.0,lavender_10s.jpg,0.0,clock_7_1.png,6.0,47,,,,,,,,,,,,,,,,,,,,,,,,,,,,,,,,
0.0,1.0,0.612,0.0,30.0,30.0,30.0,1.0,pea_11s.jpg,0.0,clock_7_2.png,6.0,47,,,,,,,,,,,,,,,,,,,,,,,,,,,,,,,,
0.0,1.0,0.872,0.0,31.0,31.0,31.0,1.0,sundae_08s.jpg,0.0,clock_7_3.png,6.0,47,,,,,,,,,,,,,,,,,,,,,,,,,,,,,,,,
0.0,1.0,0.644,0.0,32.0,32.0,32.0,1.0,champagne_18s.jpg,0.0,clock_7_4.png,6.0,47,,,,,,,,,,,,,,,,,,,,,,,,,,,,,,,,
0.0,1.0,0.749,0.0,33.0,33.0,33.0,1.0,turtle_08s.jpg,0.0,clock_7_5.png,6.0,47,,,,,,,,,,,,,,,,,,,,,,,,,,,,,,,,
0.0,1.0,0.66,0.0,34.0,34.0,34.0,1.0,gargoyle_08s.jpg,0.0,clock_7_6.png,6.0,47,,,,,,,,,,,,,,,,,,,,,,,,,,,,,,,,
0.0,1.0,0.893,0.0,35.0,35.0,35.0,1.0,crate_05s.jpg,0.0,clock_7_7.png,6.0,47,,,,,,,,,,,,,,,,,,,,,,,,,,,,,,,,
,,,,,,,,,1.0,,,47,0.0,0.0,5.105,0.0,0.0,0.0,0.0,1.0,pencil02a.jpg,fondue_07s.jpg,,,,,,,,,,,,,,,,,,,,,,
,,,,,,,,,0.0,,,47,1.0,0.0,2.789,0.0,1.0,1.0,1.0,1.0,mango_09s.jpg,rhubarb_03s.jpg,,,,,,,,,,,,,,,,,,,,,,
,,,,,,,,,1.0,,,47,0.0,0.0,4.447,0.0,2.0,2.0,2.0,1.0,chopsticks_08s.jpg,pillbox_04s.jpg,,,,,,,,,,,,,,,,,,,,,,
,,,,,,,,,0.0,,,47,0.0,1.0,4.581,0.0,3.0,3.0,3.0,1.0,turtle_08s.jpg,pea_11s.jpg,,,,,,,,,,,,,,,,,,,,,,
,,,,,,,,,0.0,,,47,0.0,1.0,4.995,0.0,4.0,4.0,4.0,1.0,crate_05s.jpg,champagne_18s.jpg,,,,,,,,,,,,,,,,,,,,,,
,,,,,,,,,0.0,,,47,0.0,1.0,2.904,0.0,5.0,5.0,5.0,1.0,meatball_13s.jpg,feather02.jpg,,,,,,,,,,,,,,,,,,,,,,
,,,,,,,,,,,,47,,,,,,,,,,,0.0,1.0,1.0,1.0,1.0,clockno_present_2_16.xlsx,clockno_compare_task_2_16.xlsx,,,,,,,,,,,,,,,
0.0,1.0,0.837,0.0,0.0,0.0,0.0,1.0,magnet_03s.jpg,0.0,clock_6_1.png,1.0,47,,,,,,,,,,,,,,,,,,,,,,,,,,,,,,,,
0.0,1.0,0.817,0.0,1.0,1.0,1.0,1.0,luggage_08s.jpg,0.0,clock_6_2.png,1.0,47,,,,,,,,,,,,,,,,,,,,,,,,,,,,,,,,
0.0,1.0,0.69,0.0,2.0,2.0,2.0,1.0,fountain_pen_06s.jpg,0.0,clock_6_3.png,1.0,47,,,,,,,,,,,,,,,,,,,,,,,,,,,,,,,,
0.0,1.0,0.801,0.0,3.0,3.0,3.0,1.0,fur_coat_11s.jpg,0.0,clock_6_4.png,1.0,47,,,,,,,,,,,,,,,,,,,,,,,,,,,,,,,,
0.0,1.0,0.583,0.0,4.0,4.0,4.0,1.0,ladder_15s.jpg,0.0,clock_6_5.png,1.0,47,,,,,,,,,,,,,,,,,,,,,,,,,,,,,,,,
0.0,1.0,0.699,0.0,5.0,5.0,5.0,1.0,mushroom_10n.jpg,0.0,clock_6_6.png,1.0,47,,,,,,,,,,,,,,,,,,,,,,,,,,,,,,,,
0.0,1.0,0.518,0.0,6.0,6.0,6.0,1.0,milk_02s.jpg,0.0,clock_5_1.png,2.0,47,,,,,,,,,,,,,,,,,,,,,,,,,,,,,,,,
0.0,1.0,0.519,0.0,7.0,7.0,7.0,1.0,fork_04s.jpg,0.0,clock_5_2.png,2.0,47,,,,,,,,,,,,,,,,,,,,,,,,,,,,,,,,
0.0,1.0,0.5,0.0,8.0,8.0,8.0,1.0,bank_06s.jpg,0.0,clock_5_3.png,2.0,47,,,,,,,,,,,,,,,,,,,,,,,,,,,,,,,,
0.0,1.0,0.483,0.0,9.0,9.0,9.0,1.0,paintbrush_04s.jpg,0.0,clock_5_4.png,2.0,47,,,,,,,,,,,,,,,,,,,,,,,,,,,,,,,,
1.0,1.0,0.934,0.0,10.0,10.0,10.0,1.0,fork_04s.jpg,1.0,clock_5_5.png,2.0,47,,,,,,,,,,,,,,,,,,,,,,,,,,,,,,,,
0.0,1.0,1.14,0.0,11.0,11.0,11.0,1.0,fireworks_18s.jpg,0.0,clock_7_1.png,3.0,47,,,,,,,,,,,,,,,,,,,,,,,,,,,,,,,,
1.0,1.0,0.856,0.0,12.0,12.0,12.0,1.0,fireworks_18s.jpg,1.0,clock_7_2.png,3.0,47,,,,,,,,,,,,,,,,,,,,,,,,,,,,,,,,
1.0,1.0,1.795,0.0,13.0,13.0,13.0,1.0,fireworks_18s.jpg,1.0,clock_7_3.png,3.0,47,,,,,,,,,,,,,,,,,,,,,,,,,,,,,,,,
0.0,1.0,0.751,0.0,14.0,14.0,14.0,1.0,outlet_10s.jpg,0.0,clock_7_4.png,3.0,47,,,,,,,,,,,,,,,,,,,,,,,,,,,,,,,,
0.0,1.0,1.008,0.0,15.0,15.0,15.0,1.0,olive_05s.jpg,0.0,clock_7_5.png,3.0,47,,,,,,,,,,,,,,,,,,,,,,,,,,,,,,,,
0.0,1.0,0.984,0.0,16.0,16.0,16.0,1.0,toaster_03s.jpg,0.0,clock_7_6.png,3.0,47,,,,,,,,,,,,,,,,,,,,,,,,,,,,,,,,
0.0,1.0,0.985,0.0,17.0,17.0,17.0,1.0,kitten_07s.jpg,0.0,clock_7_7.png,3.0,47,,,,,,,,,,,,,,,,,,,,,,,,,,,,,,,,
0.0,1.0,0.89,0.0,18.0,18.0,18.0,1.0,soda_fountain_03s.jpg,0.0,clock_6_1.png,4.0,47,,,,,,,,,,,,,,,,,,,,,,,,,,,,,,,,
0.0,1.0,0.697,0.0,19.0,19.0,19.0,1.0,paper_bag_12s.jpg,0.0,clock_6_2.png,4.0,47,,,,,,,,,,,,,,,,,,,,,,,,,,,,,,,,
0.0,1.0,0.53,0.0,20.0,20.0,20.0,1.0,frame_06s.jpg,0.0,clock_6_3.png,4.0,47,,,,,,,,,,,,,,,,,,,,,,,,,,,,,,,,
0.0,1.0,0.56,0.0,21.0,21.0,21.0,1.0,mold2_04s.jpg,0.0,clock_6_4.png,4.0,47,,,,,,,,,,,,,,,,,,,,,,,,,,,,,,,,
0.0,1.0,0.969,0.0,22.0,22.0,22.0,1.0,tupperware_09s.jpg,0.0,clock_6_5.png,4.0,47,,,,,,,,,,,,,,,,,,,,,,,,,,,,,,,,
0.0,1.0,0.923,0.0,23.0,23.0,23.0,1.0,eggshell_14s.jpg,0.0,clock_6_6.png,4.0,47,,,,,,,,,,,,,,,,,,,,,,,,,,,,,,,,
0.0,1.0,0.634,0.0,24.0,24.0,24.0,1.0,antenna_01b.jpg,0.0,clock_5_1.png,5.0,47,,,,,,,,,,,,,,,,,,,,,,,,,,,,,,,,
1.0,1.0,0.769,0.0,25.0,25.0,25.0,1.0,antenna_01b.jpg,1.0,clock_5_2.png,5.0,47,,,,,,,,,,,,,,,,,,,,,,,,,,,,,,,,
0.0,1.0,0.617,0.0,26.0,26.0,26.0,1.0,padlock_07s.jpg,0.0,clock_5_3.png,5.0,47,,,,,,,,,,,,,,,,,,,,,,,,,,,,,,,,
0.0,1.0,0.853,0.0,27.0,27.0,27.0,1.0,pocket_watch_16s.jpg,0.0,clock_5_4.png,5.0,47,,,,,,,,,,,,,,,,,,,,,,,,,,,,,,,,
0.0,1.0,1.158,0.0,28.0,28.0,28.0,1.0,bank_06s.jpg,0.0,clock_5_5.png,5.0,47,,,,,,,,,,,,,,,,,,,,,,,,,,,,,,,,
0.0,1.0,0.66,0.0,29.0,29.0,29.0,1.0,incense_02s.jpg,0.0,clock_7_1.png,6.0,47,,,,,,,,,,,,,,,,,,,,,,,,,,,,,,,,
0.0,1.0,0.659,0.0,30.0,30.0,30.0,1.0,bagel_15s.jpg,0.0,clock_7_2.png,6.0,47,,,,,,,,,,,,,,,,,,,,,,,,,,,,,,,,
0.0,1.0,0.664,0.0,31.0,31.0,31.0,1.0,milk_02s.jpg,0.0,clock_7_3.png,6.0,47,,,,,,,,,,,,,,,,,,,,,,,,,,,,,,,,
0.0,1.0,1.009,0.0,32.0,32.0,32.0,1.0,iron_13s.jpg,0.0,clock_7_4.png,6.0,47,,,,,,,,,,,,,,,,,,,,,,,,,,,,,,,,
0.0,1.0,1.05,0.0,33.0,33.0,33.0,1.0,duck_01b.jpg,0.0,clock_7_5.png,6.0,47,,,,,,,,,,,,,,,,,,,,,,,,,,,,,,,,
0.0,1.0,0.851,0.0,34.0,34.0,34.0,1.0,rooster_03s.jpg,0.0,clock_7_6.png,6.0,47,,,,,,,,,,,,,,,,,,,,,,,,,,,,,,,,
0.0,1.0,0.697,0.0,35.0,35.0,35.0,1.0,sugar_cube_11s.jpg,0.0,clock_7_7.png,6.0,47,,,,,,,,,,,,,,,,,,,,,,,,,,,,,,,,
,,,,,,,,,0.0,,,47,1.0,0.0,4.112,0.0,0.0,0.0,0.0,1.0,soda_fountain_03s.jpg,olive_05s.jpg,,,,,,,,,,,,,,,,,,,,,,
,,,,,,,,,1.0,,,47,0.0,0.0,3.122,0.0,1.0,1.0,1.0,1.0,toaster_03s.jpg,paper_bag_12s.jpg,,,,,,,,,,,,,,,,,,,,,,
,,,,,,,,,1.0,,,47,0.0,0.0,3.055,0.0,2.0,2.0,2.0,1.0,eggshell_14s.jpg,padlock_07s.jpg,,,,,,,,,,,,,,,,,,,,,,
,,,,,,,,,1.0,,,47,1.0,1.0,1.735,0.0,3.0,3.0,3.0,1.0,magnet_03s.jpg,fur_coat_11s.jpg,,,,,,,,,,,,,,,,,,,,,,
,,,,,,,,,0.0,,,47,0.0,1.0,2.945,0.0,4.0,4.0,4.0,1.0,ladder_15s.jpg,luggage_08s.jpg,,,,,,,,,,,,,,,,,,,,,,
,,,,,,,,,0.0,,,47,0.0,1.0,2.772,0.0,5.0,5.0,5.0,1.0,mushroom_10n.jpg,fountain_pen_06s.jpg,,,,,,,,,,,,,,,,,,,,,,
,,,,,,,,,,,,47,,,,,,,,,,,0.0,2.0,2.0,2.0,1.0,clockno_present_3_16.xlsx,clockno_compare_task_3_16.xlsx,,,,,,,,,,,,,,,
0.0,1.0,0.915,0.0,0.0,0.0,0.0,1.0,insole_11s.jpg,0.0,clock_5_1.png,1.0,47,,,,,,,,,,,,,,,,,,,,,,,,,,,,,,,,
0.0,1.0,0.72,0.0,1.0,1.0,1.0,1.0,teapot_03s.jpg,0.0,clock_5_2.png,1.0,47,,,,,,,,,,,,,,,,,,,,,,,,,,,,,,,,
0.0,1.0,0.601,0.0,2.0,2.0,2.0,1.0,orange_12s.jpg,0.0,clock_5_3.png,1.0,47,,,,,,,,,,,,,,,,,,,,,,,,,,,,,,,,
1.0,1.0,0.799,0.0,3.0,3.0,3.0,1.0,insole_11s.jpg,1.0,clock_5_4.png,1.0,47,,,,,,,,,,,,,,,,,,,,,,,,,,,,,,,,
0.0,1.0,1.083,0.0,4.0,4.0,4.0,1.0,jersey_02s.jpg,0.0,clock_5_5.png,1.0,47,,,,,,,,,,,,,,,,,,,,,,,,,,,,,,,,
0.0,1.0,1.022,0.0,5.0,5.0,5.0,1.0,dashboard_02s.jpg,0.0,clock_5_1.png,2.0,47,,,,,,,,,,,,,,,,,,,,,,,,,,,,,,,,
0.0,1.0,0.905,0.0,6.0,6.0,6.0,1.0,harpoon.jpg,0.0,clock_5_2.png,2.0,47,,,,,,,,,,,,,,,,,,,,,,,,,,,,,,,,
0.0,1.0,0.84,0.0,7.0,7.0,7.0,1.0,kilt_18s.jpg,0.0,clock_5_3.png,2.0,47,,,,,,,,,,,,,,,,,,,,,,,,,,,,,,,,
0.0,1.0,0.609,0.0,8.0,8.0,8.0,1.0,bowler_hat_10s.jpg,0.0,clock_5_4.png,2.0,47,,,,,,,,,,,,,,,,,,,,,,,,,,,,,,,,
0.0,1.0,0.672,0.0,9.0,9.0,9.0,1.0,light_switch_02s.jpg,0.0,clock_5_5.png,2.0,47,,,,,,,,,,,,,,,,,,,,,,,,,,,,,,,,
0.0,1.0,0.602,0.0,10.0,10.0,10.0,1.0,mirror_12s.jpg,0.0,clock_7_1.png,3.0,47,,,,,,,,,,,,,,,,,,,,,,,,,,,,,,,,
0.0,1.0,0.583,0.0,11.0,11.0,11.0,1.0,raspberry_12s.jpg,0.0,clock_7_2.png,3.0,47,,,,,,,,,,,,,,,,,,,,,,,,,,,,,,,,
0.0,1.0,0.934,0.0,12.0,12.0,12.0,1.0,gas_mask_11s.jpg,0.0,clock_7_3.png,3.0,47,,,,,,,,,,,,,,,,,,,,,,,,,,,,,,,,
0.0,1.0,0.755,0.0,13.0,13.0,13.0,1.0,teacup_07s.jpg,0.0,clock_7_4.png,3.0,47,,,,,,,,,,,,,,,,,,,,,,,,,,,,,,,,
0.0,1.0,1.539,0.0,14.0,14.0,14.0,1.0,icemaker_10s.jpg,0.0,clock_7_5.png,3.0,47,,,,,,,,,,,,,,,,,,,,,,,,,,,,,,,,
0.0,1.0,2.036,0.0,15.0,15.0,15.0,1.0,pacifier_09s.jpg,0.0,clock_7_6.png,3.0,47,,,,,,,,,,,,,,,,,,,,,,,,,,,,,,,,
0.0,1.0,1.042,0.0,16.0,16.0,16.0,1.0,pepper_mill_03s.jpg,0.0,clock_7_7.png,3.0,47,,,,,,,,,,,,,,,,,,,,,,,,,,,,,,,,
0.0,1.0,1.029,0.0,17.0,17.0,17.0,1.0,juicer1_08s.jpg,0.0,clock_6_1.png,4.0,47,,,,,,,,,,,,,,,,,,,,,,,,,,,,,,,,
0.0,1.0,0.518,0.0,18.0,18.0,18.0,1.0,lion_18s.jpg,0.0,clock_6_2.png,4.0,47,,,,,,,,,,,,,,,,,,,,,,,,,,,,,,,,
0.0,1.0,0.582,0.0,19.0,19.0,19.0,1.0,rocking_chair_05s.jpg,0.0,clock_6_3.png,4.0,47,,,,,,,,,,,,,,,,,,,,,,,,,,,,,,,,
0.0,1.0,0.717,0.0,20.0,20.0,20.0,1.0,beaker_01b.jpg,0.0,clock_6_4.png,4.0,47,,,,,,,,,,,,,,,,,,,,,,,,,,,,,,,,
0.0,1.0,0.892,0.0,21.0,21.0,21.0,1.0,leotard_08s.jpg,0.0,clock_6_5.png,4.0,47,,,,,,,,,,,,,,,,,,,,,,,,,,,,,,,,
0.0,1.0,1.169,0.0,22.0,22.0,22.0,1.0,puppet_01b.jpg,0.0,clock_6_6.png,4.0,47,,,,,,,,,,,,,,,,,,,,,,,,,,,,,,,,
0.0,1.0,0.488,0.0,23.0,23.0,23.0,1.0,soccer_ball_12s.jpg,0.0,clock_6_1.png,5.0,47,,,,,,,,,,,,,,,,,,,,,,,,,,,,,,,,
0.0,1.0,0.543,0.0,24.0,24.0,24.0,1.0,fox_13s.jpg,0.0,clock_6_2.png,5.0,47,,,,,,,,,,,,,,,,,,,,,,,,,,,,,,,,
0.0,1.0,0.514,0.0,25.0,25.0,25.0,1.0,birthday_cake_09s.jpg,0.0,clock_6_3.png,5.0,47,,,,,,,,,,,,,,,,,,,,,,,,,,,,,,,,
0.0,1.0,0.956,0.0,26.0,26.0,26.0,1.0,sushi_08s.jpg,0.0,clock_6_4.png,5.0,47,,,,,,,,,,,,,,,,,,,,,,,,,,,,,,,,
0.0,1.0,0.922,0.0,27.0,27.0,27.0,1.0,sparkler_02s.jpg,0.0,clock_6_5.png,5.0,47,,,,,,,,,,,,,,,,,,,,,,,,,,,,,,,,
0.0,1.0,1.039,0.0,28.0,28.0,28.0,1.0,dashboard_02s.jpg,0.0,clock_6_6.png,5.0,47,,,,,,,,,,,,,,,,,,,,,,,,,,,,,,,,
0.0,1.0,0.883,0.0,29.0,29.0,29.0,1.0,lizard_10n.jpg,0.0,clock_7_1.png,6.0,47,,,,,,,,,,,,,,,,,,,,,,,,,,,,,,,,
0.0,1.0,0.467,0.0,30.0,30.0,30.0,1.0,purse_05s.jpg,0.0,clock_7_2.png,6.0,47,,,,,,,,,,,,,,,,,,,,,,,,,,,,,,,,
0.0,1.0,0.719,0.0,31.0,31.0,31.0,1.0,owl_15s.jpg,0.0,clock_7_3.png,6.0,47,,,,,,,,,,,,,,,,,,,,,,,,,,,,,,,,
0.0,1.0,0.626,0.0,32.0,32.0,32.0,1.0,cobra_05s.jpg,0.0,clock_7_4.png,6.0,47,,,,,,,,,,,,,,,,,,,,,,,,,,,,,,,,
1.0,1.0,1.04,0.0,33.0,33.0,33.0,1.0,owl_15s.jpg,1.0,clock_7_5.png,6.0,47,,,,,,,,,,,,,,,,,,,,,,,,,,,,,,,,
0.0,1.0,0.722,0.0,34.0,34.0,34.0,1.0,pomegranate_04s.jpg,0.0,clock_7_6.png,6.0,47,,,,,,,,,,,,,,,,,,,,,,,,,,,,,,,,
0.0,1.0,1.31,0.0,35.0,35.0,35.0,1.0,plug_08s.jpg,0.0,clock_7_7.png,6.0,47,,,,,,,,,,,,,,,,,,,,,,,,,,,,,,,,
,,,,,,,,,0.0,,,47,1.0,0.0,3.813,0.0,0.0,0.0,0.0,1.0,kilt_18s.jpg,jersey_02s.jpg,,,,,,,,,,,,,,,,,,,,,,
,,,,,,,,,0.0,,,47,1.0,0.0,3.722,0.0,1.0,1.0,1.0,1.0,raspberry_12s.jpg,bowler_hat_10s.jpg,,,,,,,,,,,,,,,,,,,,,,
,,,,,,,,,0.0,,,47,1.0,0.0,1.271,0.0,2.0,2.0,2.0,1.0,birthday_cake_09s.jpg,puppet_01b.jpg,,,,,,,,,,,,,,,,,,,,,,
,,,,,,,,,0.0,,,47,0.0,1.0,4.011,0.0,3.0,3.0,3.0,1.0,plug_08s.jpg,cobra_05s.jpg,,,,,,,,,,,,,,,,,,,,,,
,,,,,,,,,0.0,,,47,0.0,1.0,2.334,0.0,4.0,4.0,4.0,1.0,light_switch_02s.jpg,harpoon.jpg,,,,,,,,,,,,,,,,,,,,,,
,,,,,,,,,1.0,,,47,1.0,1.0,2.421,0.0,5.0,5.0,5.0,1.0,mirror_12s.jpg,teacup_07s.jpg,,,,,,,,,,,,,,,,,,,,,,
,,,,,,,,,,,,47,,,,,,,,,,,0.0,3.0,3.0,3.0,1.0,clockno_present_4_16.xlsx,clockno_compare_task_4_16.xlsx,,,,,,,,,,,,,,,
0.0,1.0,2.055,0.0,0.0,0.0,0.0,1.0,film_03s.jpg,0.0,clock_7_1.png,1.0,47,,,,,,,,,,,,,,,,,,,,,,,,,,,,,,,,
0.0,1.0,0.868,0.0,1.0,1.0,1.0,1.0,stopwatch_04s.jpg,0.0,clock_7_2.png,1.0,47,,,,,,,,,,,,,,,,,,,,,,,,,,,,,,,,
0.0,1.0,0.475,0.0,2.0,2.0,2.0,1.0,pepper2_21s.jpg,0.0,clock_7_3.png,1.0,47,,,,,,,,,,,,,,,,,,,,,,,,,,,,,,,,
0.0,0.0,0.536,0.0,3.0,3.0,3.0,1.0,film_03s.jpg,1.0,clock_7_4.png,1.0,47,,,,,,,,,,,,,,,,,,,,,,,,,,,,,,,,
1.0,1.0,0.788,0.0,4.0,4.0,4.0,1.0,film_03s.jpg,1.0,clock_7_5.png,1.0,47,,,,,,,,,,,,,,,,,,,,,,,,,,,,,,,,
0.0,1.0,0.824,0.0,5.0,5.0,5.0,1.0,ginger_09s.jpg,0.0,clock_7_6.png,1.0,47,,,,,,,,,,,,,,,,,,,,,,,,,,,,,,,,
1.0,1.0,0.95,0.0,6.0,6.0,6.0,1.0,pepper2_21s.jpg,1.0,clock_7_7.png,1.0,47,,,,,,,,,,,,,,,,,,,,,,,,,,,,,,,,
0.0,1.0,0.578,0.0,7.0,7.0,7.0,1.0,puffin_19s.jpg,0.0,clock_6_1.png,2.0,47,,,,,,,,,,,,,,,,,,,,,,,,,,,,,,,,
0.0,1.0,0.758,0.0,8.0,8.0,8.0,1.0,golf_club_03s.jpg,0.0,clock_6_2.png,2.0,47,,,,,,,,,,,,,,,,,,,,,,,,,,,,,,,,
0.0,1.0,0.802,0.0,9.0,9.0,9.0,1.0,crab_16s.jpg,0.0,clock_6_3.png,2.0,47,,,,,,,,,,,,,,,,,,,,,,,,,,,,,,,,
0.0,1.0,0.769,0.0,10.0,10.0,10.0,1.0,bathtub_23s.jpg,0.0,clock_6_4.png,2.0,47,,,,,,,,,,,,,,,,,,,,,,,,,,,,,,,,
1.0,1.0,1.573,0.0,11.0,11.0,11.0,1.0,crab_16s.jpg,1.0,clock_6_5.png,2.0,47,,,,,,,,,,,,,,,,,,,,,,,,,,,,,,,,
0.0,1.0,0.834,0.0,12.0,12.0,12.0,1.0,pancake_12s.jpg,0.0,clock_6_6.png,2.0,47,,,,,,,,,,,,,,,,,,,,,,,,,,,,,,,,
0.0,1.0,0.768,0.0,13.0,13.0,13.0,1.0,lamb_04s.jpg,0.0,clock_5_1.png,3.0,47,,,,,,,,,,,,,,,,,,,,,,,,,,,,,,,,
0.0,1.0,0.755,0.0,14.0,14.0,14.0,1.0,ladle_04s.jpg,0.0,clock_5_2.png,3.0,47,,,,,,,,,,,,,,,,,,,,,,,,,,,,,,,,
0.0,1.0,0.85,0.0,15.0,15.0,15.0,1.0,popsicle_02s.jpg,0.0,clock_5_3.png,3.0,47,,,,,,,,,,,,,,,,,,,,,,,,,,,,,,,,
0.0,1.0,0.754,0.0,16.0,16.0,16.0,1.0,eiffeltower.jpg,0.0,clock_5_4.png,3.0,47,,,,,,,,,,,,,,,,,,,,,,,,,,,,,,,,
0.0,1.0,1.456,0.0,17.0,17.0,17.0,1.0,rolling_pin_02s.jpg,0.0,clock_5_5.png,3.0,47,,,,,,,,,,,,,,,,,,,,,,,,,,,,,,,,
0.0,1.0,0.789,0.0,18.0,18.0,18.0,1.0,lantern_04s.jpg,0.0,clock_5_1.png,4.0,47,,,,,,,,,,,,,,,,,,,,,,,,,,,,,,,,
0.0,1.0,0.724,0.0,19.0,19.0,19.0,1.0,telephone_pole_05s.jpg,0.0,clock_5_2.png,4.0,47,,,,,,,,,,,,,,,,,,,,,,,,,,,,,,,,
1.0,1.0,1.022,0.0,20.0,20.0,20.0,1.0,lantern_04s.jpg,1.0,clock_5_3.png,4.0,47,,,,,,,,,,,,,,,,,,,,,,,,,,,,,,,,
0.0,1.0,1.089,0.0,21.0,21.0,21.0,1.0,seahorse_13s.jpg,0.0,clock_5_4.png,4.0,47,,,,,,,,,,,,,,,,,,,,,,,,,,,,,,,,
0.0,1.0,0.556,0.0,22.0,22.0,22.0,1.0,ruby_15s.jpg,0.0,clock_5_5.png,4.0,47,,,,,,,,,,,,,,,,,,,,,,,,,,,,,,,,
0.0,1.0,0.839,0.0,23.0,23.0,23.0,1.0,machete_06s.jpg,0.0,clock_6_1.png,5.0,47,,,,,,,,,,,,,,,,,,,,,,,,,,,,,,,,
0.0,1.0,0.637,0.0,24.0,24.0,24.0,1.0,dirt_bike_11s.jpg,0.0,clock_6_2.png,5.0,47,,,,,,,,,,,,,,,,,,,,,,,,,,,,,,,,
0.0,1.0,0.616,0.0,25.0,25.0,25.0,1.0,tuxedo_01b.jpg,0.0,clock_6_3.png,5.0,47,,,,,,,,,,,,,,,,,,,,,,,,,,,,,,,,
0.0,1.0,0.699,0.0,26.0,26.0,26.0,1.0,mascara_03s.jpg,0.0,clock_6_4.png,5.0,47,,,,,,,,,,,,,,,,,,,,,,,,,,,,,,,,
0.0,1.0,1.036,0.0,27.0,27.0,27.0,1.0,puddle_02s.jpg,0.0,clock_6_5.png,5.0,47,,,,,,,,,,,,,,,,,,,,,,,,,,,,,,,,
1.0,0.0,0.847,0.0,28.0,28.0,28.0,1.0,lantern_04s.jpg,0.0,clock_6_6.png,5.0,47,,,,,,,,,,,,,,,,,,,,,,,,,,,,,,,,
0.0,1.0,1.235,0.0,29.0,29.0,29.0,1.0,pump_11s.jpg,0.0,clock_7_1.png,6.0,47,,,,,,,,,,,,,,,,,,,,,,,,,,,,,,,,
0.0,1.0,1.238,0.0,30.0,30.0,30.0,1.0,machine_gun_09s.jpg,0.0,clock_7_2.png,6.0,47,,,,,,,,,,,,,,,,,,,,,,,,,,,,,,,,
0.0,1.0,0.701,0.0,31.0,31.0,31.0,1.0,mitten_10s.jpg,0.0,clock_7_3.png,6.0,47,,,,,,,,,,,,,,,,,,,,,,,,,,,,,,,,
0.0,1.0,1.15,0.0,32.0,32.0,32.0,1.0,joystick_01b.jpg,0.0,clock_7_4.png,6.0,47,,,,,,,,,,,,,,,,,,,,,,,,,,,,,,,,
0.0,1.0,0.719,0.0,33.0,33.0,33.0,1.0,rice_12s.jpg,0.0,clock_7_5.png,6.0,47,,,,,,,,,,,,,,,,,,,,,,,,,,,,,,,,
0.0,1.0,1.101,0.0,34.0,34.0,34.0,1.0,lifesaver_10s.jpg,0.0,clock_7_6.png,6.0,47,,,,,,,,,,,,,,,,,,,,,,,,,,,,,,,,
0.0,1.0,0.834,0.0,35.0,35.0,35.0,1.0,lamp_08s.jpg,0.0,clock_7_7.png,6.0,47,,,,,,,,,,,,,,,,,,,,,,,,,,,,,,,,
,,,,,,,,,0.0,,,47,1.0,0.0,3.14,0.0,0.0,0.0,0.0,1.0,golf_club_03s.jpg,ginger_09s.jpg,,,,,,,,,,,,,,,,,,,,,,
,,,,,,,,,0.0,,,47,1.0,0.0,3.142,0.0,1.0,1.0,1.0,1.0,popsicle_02s.jpg,pancake_12s.jpg,,,,,,,,,,,,,,,,,,,,,,
,,,,,,,,,1.0,,,47,0.0,0.0,4.777,0.0,2.0,2.0,2.0,1.0,seahorse_13s.jpg,dirt_bike_11s.jpg,,,,,,,,,,,,,,,,,,,,,,
,,,,,,,,,1.0,,,47,1.0,1.0,2.509,0.0,3.0,3.0,3.0,1.0,ladle_04s.jpg,rolling_pin_02s.jpg,,,,,,,,,,,,,,,,,,,,,,
,,,,,,,,,1.0,,,47,1.0,1.0,1.437,0.0,4.0,4.0,4.0,1.0,mitten_10s.jpg,lifesaver_10s.jpg,,,,,,,,,,,,,,,,,,,,,,
,,,,,,,,,0.0,,,47,0.0,1.0,2.038,0.0,5.0,5.0,5.0,1.0,lamp_08s.jpg,joystick_01b.jpg,,,,,,,,,,,,,,,,,,,,,,
,,,,,,,,,,,,47,,,,,,,,,,,0.0,4.0,4.0,4.0,1.0,clockno_present_5_16.xlsx,clockno_compare_task_5_16.xlsx,,,,,,,,,,,,,,,
0.0,1.0,1.268,0.0,0.0,0.0,0.0,1.0,seagull_01b.jpg,0.0,clockno_up.jpg,1.0,47,,,,,,,,,,,,,,,,,,,,,,,,,,,,,,,,
0.0,1.0,0.655,0.0,1.0,1.0,1.0,1.0,denture_03s.jpg,0.0,clockno_default.jpg,1.0,47,,,,,,,,,,,,,,,,,,,,,,,,,,,,,,,,
0.0,0.0,1.677,0.0,2.0,2.0,2.0,1.0,seagull_01b.jpg,1.0,clockno_default.jpg,1.0,47,,,,,,,,,,,,,,,,,,,,,,,,,,,,,,,,
1.0,1.0,1.169,0.0,3.0,3.0,3.0,1.0,seagull_01b.jpg,1.0,clockno_default.jpg,1.0,47,,,,,,,,,,,,,,,,,,,,,,,,,,,,,,,,
1.0,1.0,1.462,0.0,4.0,4.0,4.0,1.0,seagull_01b.jpg,1.0,clockno_default.jpg,1.0,47,,,,,,,,,,,,,,,,,,,,,,,,,,,,,,,,
0.0,1.0,1.225,0.0,5.0,5.0,5.0,1.0,knitting_needle_04s.jpg,0.0,clockno_default.jpg,1.0,47,,,,,,,,,,,,,,,,,,,,,,,,,,,,,,,,
0.0,1.0,1.073,0.0,6.0,6.0,6.0,1.0,birdcage_08s.jpg,0.0,clockno_default.jpg,1.0,47,,,,,,,,,,,,,,,,,,,,,,,,,,,,,,,,
0.0,1.0,2.289,0.0,7.0,7.0,7.0,1.0,pie_08s.jpg,0.0,clockno_up.jpg,2.0,47,,,,,,,,,,,,,,,,,,,,,,,,,,,,,,,,
0.0,1.0,1.039,0.0,8.0,8.0,8.0,1.0,glasses01a.jpg,0.0,clockno_default.jpg,2.0,47,,,,,,,,,,,,,,,,,,,,,,,,,,,,,,,,
0.0,1.0,0.86,0.0,9.0,9.0,9.0,1.0,onion_10s.jpg,0.0,clockno_default.jpg,2.0,47,,,,,,,,,,,,,,,,,,,,,,,,,,,,,,,,
0.0,1.0,1.265,0.0,10.0,10.0,10.0,1.0,seagull_01b.jpg,0.0,clockno_default.jpg,2.0,47,,,,,,,,,,,,,,,,,,,,,,,,,,,,,,,,
0.0,1.0,1.01,0.0,11.0,11.0,11.0,1.0,tortilla_06s.jpg,0.0,clockno_default.jpg,2.0,47,,,,,,,,,,,,,,,,,,,,,,,,,,,,,,,,
0.0,1.0,1.157,0.0,12.0,12.0,12.0,1.0,panda_02s.jpg,0.0,clockno_up.jpg,3.0,47,,,,,,,,,,,,,,,,,,,,,,,,,,,,,,,,
0.0,1.0,1.02,0.0,13.0,13.0,13.0,1.0,lipstick_02s.jpg,0.0,clockno_default.jpg,3.0,47,,,,,,,,,,,,,,,,,,,,,,,,,,,,,,,,
1.0,1.0,1.679,0.0,14.0,14.0,14.0,1.0,lipstick_02s.jpg,1.0,clockno_default.jpg,3.0,47,,,,,,,,,,,,,,,,,,,,,,,,,,,,,,,,
0.0,1.0,1.441,0.0,15.0,15.0,15.0,1.0,chime_12s.jpg,0.0,clockno_default.jpg,3.0,47,,,,,,,,,,,,,,,,,,,,,,,,,,,,,,,,
1.0,1.0,1.513,0.0,16.0,16.0,16.0,1.0,panda_02s.jpg,1.0,clockno_default.jpg,3.0,47,,,,,,,,,,,,,,,,,,,,,,,,,,,,,,,,
0.0,1.0,1.022,0.0,17.0,17.0,17.0,1.0,mug_06s.jpg,0.0,clockno_default.jpg,3.0,47,,,,,,,,,,,,,,,,,,,,,,,,,,,,,,,,
0.0,1.0,1.073,0.0,18.0,18.0,18.0,1.0,pie_08s.jpg,0.0,clockno_default.jpg,3.0,47,,,,,,,,,,,,,,,,,,,,,,,,,,,,,,,,
0.0,1.0,1.179,0.0,19.0,19.0,19.0,1.0,latch_15s.jpg,0.0,clockno_up.jpg,4.0,47,,,,,,,,,,,,,,,,,,,,,,,,,,,,,,,,
1.0,1.0,1.521,0.0,20.0,20.0,20.0,1.0,latch_15s.jpg,1.0,clockno_default.jpg,4.0,47,,,,,,,,,,,,,,,,,,,,,,,,,,,,,,,,
0.0,1.0,0.757,0.0,21.0,21.0,21.0,1.0,camcorder_10s.jpg,0.0,clockno_default.jpg,4.0,47,,,,,,,,,,,,,,,,,,,,,,,,,,,,,,,,
0.0,1.0,0.927,0.0,22.0,22.0,22.0,1.0,kimono_13s.jpg,0.0,clockno_default.jpg,4.0,47,,,,,,,,,,,,,,,,,,,,,,,,,,,,,,,,
1.0,1.0,1.56,0.0,23.0,23.0,23.0,1.0,kimono_13s.jpg,1.0,clockno_default.jpg,4.0,47,,,,,,,,,,,,,,,,,,,,,,,,,,,,,,,,
0.0,1.0,1.321,0.0,24.0,24.0,24.0,1.0,bee_20s.jpg,0.0,clockno_up.jpg,5.0,47,,,,,,,,,,,,,,,,,,,,,,,,,,,,,,,,
0.0,1.0,0.973,0.0,25.0,25.0,25.0,1.0,saddle_06s.jpg,0.0,clockno_default.jpg,5.0,47,,,,,,,,,,,,,,,,,,,,,,,,,,,,,,,,
0.0,1.0,0.79,0.0,26.0,26.0,26.0,1.0,fire_alarm_05s.jpg,0.0,clockno_default.jpg,5.0,47,,,,,,,,,,,,,,,,,,,,,,,,,,,,,,,,
0.0,1.0,1.023,0.0,27.0,27.0,27.0,1.0,ram_05s.jpg,0.0,clockno_default.jpg,5.0,47,,,,,,,,,,,,,,,,,,,,,,,,,,,,,,,,
0.0,1.0,1.038,0.0,28.0,28.0,28.0,1.0,coral_08s.jpg,0.0,clockno_default.jpg,5.0,47,,,,,,,,,,,,,,,,,,,,,,,,,,,,,,,,
0.0,1.0,0.777,0.0,29.0,29.0,29.0,1.0,roller_coaster_07s.jpg,0.0,clockno_default.jpg,5.0,47,,,,,,,,,,,,,,,,,,,,,,,,,,,,,,,,
0.0,1.0,0.942,0.0,30.0,30.0,30.0,1.0,playpen_11s.jpg,0.0,clockno_up.jpg,6.0,47,,,,,,,,,,,,,,,,,,,,,,,,,,,,,,,,
0.0,1.0,1.229,0.0,31.0,31.0,31.0,1.0,mask_09s.jpg,0.0,clockno_default.jpg,6.0,47,,,,,,,,,,,,,,,,,,,,,,,,,,,,,,,,
1.0,1.0,1.749,0.0,32.0,32.0,32.0,1.0,mask_09s.jpg,1.0,clockno_default.jpg,6.0,47,,,,,,,,,,,,,,,,,,,,,,,,,,,,,,,,
0.0,1.0,1.24,0.0,33.0,33.0,33.0,1.0,turf_03s.jpg,0.0,clockno_default.jpg,6.0,47,,,,,,,,,,,,,,,,,,,,,,,,,,,,,,,,
0.0,1.0,0.84,0.0,34.0,34.0,34.0,1.0,go-kart_10s.jpg,0.0,clockno_default.jpg,6.0,47,,,,,,,,,,,,,,,,,,,,,,,,,,,,,,,,
0.0,1.0,1.076,0.0,35.0,35.0,35.0,1.0,polaroid_05s.jpg,0.0,clockno_default.jpg,6.0,47,,,,,,,,,,,,,,,,,,,,,,,,,,,,,,,,
,,,,,,,,,1.0,,,47,1.0,1.0,2.703,0.0,0.0,0.0,0.0,1.0,birdcage_08s.jpg,onion_10s.jpg,,,,,,,,,,,,,,,,,,,,,,
,,,,,,,,,0.0,,,47,0.0,1.0,5.819,0.0,1.0,1.0,1.0,1.0,glasses01a.jpg,knitting_needle_04s.jpg,,,,,,,,,,,,,,,,,,,,,,
,,,,,,,,,0.0,,,47,1.0,0.0,2.272,0.0,2.0,2.0,2.0,1.0,bee_20s.jpg,camcorder_10s.jpg,,,,,,,,,,,,,,,,,,,,,,
,,,,,,,,,0.0,,,47,0.0,1.0,3.078,0.0,3.0,3.0,3.0,1.0,coral_08s.jpg,saddle_06s.jpg,,,,,,,,,,,,,,,,,,,,,,
,,,,,,,,,1.0,,,47,1.0,1.0,4.489,0.0,4.0,4.0,4.0,1.0,fire_alarm_05s.jpg,roller_coaster_07s.jpg,,,,,,,,,,,,,,,,,,,,,,
,,,,,,,,,0.0,,,47,0.0,1.0,2.652,0.0,5.0,5.0,5.0,1.0,turf_03s.jpg,playpen_11s.jpg,,,,,,,,,,,,,,,,,,,,,,
,0.0,,,,,,,prism_10s.jpg,0.0,clock_5_1.png,1.0,47,,,,,,,,,,,,,,,,,,0.0,0.0,0.0,0.0,1.0,,,,,,,,,,
0.0,1.0,1.107,,,,,,snowman_02s.jpg,0.0,clock_5_2.png,1.0,47,,,,,,,,,,,,,,,,,,0.0,1.0,1.0,1.0,1.0,,,,,,,,,,
0.0,1.0,0.95,,,,,,safety_pin_02s.jpg,0.0,clock_5_3.png,1.0,47,,,,,,,,,,,,,,,,,,0.0,2.0,2.0,2.0,1.0,,,,,,,,,,
1.0,1.0,0.954,,,,,,prism_10s.jpg,1.0,clock_5_4.png,1.0,47,,,,,,,,,,,,,,,,,,0.0,3.0,3.0,3.0,1.0,,,,,,,,,,
0.0,1.0,0.718,,,,,,peppermint_07s.jpg,0.0,clock_5_5.png,1.0,47,,,,,,,,,,,,,,,,,,0.0,4.0,4.0,4.0,1.0,,,,,,,,,,
0.0,1.0,0.534,,,,,,radio_09s.jpg,0.0,clock_6_1.png,2.0,47,,,,,,,,,,,,,,,,,,0.0,5.0,5.0,5.0,1.0,,,,,,,,,,
0.0,1.0,0.68,,,,,,tablet_04s.jpg,0.0,clock_6_2.png,2.0,47,,,,,,,,,,,,,,,,,,0.0,6.0,6.0,6.0,1.0,,,,,,,,,,
0.0,1.0,0.883,,,,,,sleeping_bag_12s.jpg,0.0,clock_6_3.png,2.0,47,,,,,,,,,,,,,,,,,,0.0,7.0,7.0,7.0,1.0,,,,,,,,,,
0.0,1.0,1.086,,,,,,racehorse_03s.jpg,0.0,clock_6_4.png,2.0,47,,,,,,,,,,,,,,,,,,0.0,8.0,8.0,8.0,1.0,,,,,,,,,,
0.0,1.0,0.868,,,,,,peppermint_07s.jpg,0.0,clock_6_5.png,2.0,47,,,,,,,,,,,,,,,,,,0.0,9.0,9.0,9.0,1.0,,,,,,,,,,
0.0,1.0,0.957,,,,,,jukebox_03n.jpg,0.0,clock_6_6.png,2.0,47,,,,,,,,,,,,,,,,,,0.0,10.0,10.0,10.0,1.0,,,,,,,,,,
0.0,1.0,0.99,,,,,,moth_06n.jpg,0.0,clock_6_1.png,3.0,47,,,,,,,,,,,,,,,,,,0.0,11.0,11.0,11.0,1.0,,,,,,,,,,
0.0,1.0,0.791,,,,,,ant_12s.jpg,0.0,clock_6_2.png,3.0,47,,,,,,,,,,,,,,,,,,0.0,12.0,12.0,12.0,1.0,,,,,,,,,,
0.0,1.0,1.571,,,,,,chocolate_01b.jpg,0.0,clock_6_3.png,3.0,47,,,,,,,,,,,,,,,,,,0.0,13.0,13.0,13.0,1.0,,,,,,,,,,
0.0,1.0,0.878,,,,,,puck_06s.jpg,0.0,clock_6_4.png,3.0,47,,,,,,,,,,,,,,,,,,0.0,14.0,14.0,14.0,1.0,,,,,,,,,,
1.0,1.0,0.939,,,,,,chocolate_01b.jpg,1.0,clock_6_5.png,3.0,47,,,,,,,,,,,,,,,,,,0.0,15.0,15.0,15.0,1.0,,,,,,,,,,
0.0,1.0,1.156,,,,,,orchid_01b.jpg,0.0,clock_6_6.png,3.0,47,,,,,,,,,,,,,,,,,,0.0,16.0,16.0,16.0,1.0,,,,,,,,,,
0.0,1.0,1.104,,,,,,pillow_03s.jpg,0.0,clock_7_1.png,4.0,47,,,,,,,,,,,,,,,,,,0.0,17.0,17.0,17.0,1.0,,,,,,,,,,
1.0,1.0,0.804,,,,,,pillow_03s.jpg,1.0,clock_7_2.png,4.0,47,,,,,,,,,,,,,,,,,,0.0,18.0,18.0,18.0,1.0,,,,,,,,,,
0.0,1.0,0.692,,,,,,loom_05s.jpg,0.0,clock_7_3.png,4.0,47,,,,,,,,,,,,,,,,,,0.0,19.0,19.0,19.0,1.0,,,,,,,,,,
0.0,1.0,0.651,,,,,,kangaroo_02s.jpg,0.0,clock_7_4.png,4.0,47,,,,,,,,,,,,,,,,,,0.0,20.0,20.0,20.0,1.0,,,,,,,,,,
0.0,1.0,0.821,,,,,,plunger_08s.jpg,0.0,clock_7_5.png,4.0,47,,,,,,,,,,,,,,,,,,0.0,21.0,21.0,21.0,1.0,,,,,,,,,,
0.0,1.0,0.739,,,,,,refrigerator_07s.jpg,0.0,clock_7_6.png,4.0,47,,,,,,,,,,,,,,,,,,0.0,22.0,22.0,22.0,1.0,,,,,,,,,,
0.0,1.0,0.969,,,,,,mousetrap_15n.jpg,0.0,clock_7_7.png,4.0,47,,,,,,,,,,,,,,,,,,0.0,23.0,23.0,23.0,1.0,,,,,,,,,,
0.0,1.0,0.687,,,,,,margarita_03s.jpg,0.0,clock_5_1.png,5.0,47,,,,,,,,,,,,,,,,,,0.0,24.0,24.0,24.0,1.0,,,,,,,,,,
0.0,1.0,0.535,,,,,,plaster_cast_13s.jpg,0.0,clock_5_2.png,5.0,47,,,,,,,,,,,,,,,,,,0.0,25.0,25.0,25.0,1.0,,,,,,,,,,
0.0,1.0,0.979,,,,,,radio_09s.jpg,0.0,clock_5_3.png,5.0,47,,,,,,,,,,,,,,,,,,0.0,26.0,26.0,26.0,1.0,,,,,,,,,,
0.0,1.0,0.687,,,,,,footprint_11s.jpg,0.0,clock_5_4.png,5.0,47,,,,,,,,,,,,,,,,,,0.0,27.0,27.0,27.0,1.0,,,,,,,,,,
0.0,1.0,0.671,,,,,,ant_12s.jpg,0.0,clock_5_5.png,5.0,47,,,,,,,,,,,,,,,,,,0.0,28.0,28.0,28.0,1.0,,,,,,,,,,
0.0,1.0,0.606,,,,,,tiger_06s.jpg,0.0,clock_7_1.png,6.0,47,,,,,,,,,,,,,,,,,,0.0,29.0,29.0,29.0,1.0,,,,,,,,,,
0.0,1.0,1.968,,,,,,fishhook_06s.jpg,0.0,clock_7_2.png,6.0,47,,,,,,,,,,,,,,,,,,0.0,30.0,30.0,30.0,1.0,,,,,,,,,,
0.0,1.0,0.606,,,,,,poinsettia_04s.jpg,0.0,clock_7_3.png,6.0,47,,,,,,,,,,,,,,,,,,0.0,31.0,31.0,31.0,1.0,,,,,,,,,,
1.0,1.0,1.544,,,,,,tiger_06s.jpg,1.0,clock_7_4.png,6.0,47,,,,,,,,,,,,,,,,,,0.0,32.0,32.0,32.0,1.0,,,,,,,,,,
0.0,1.0,0.737,,,,,,limousine_12s.jpg,0.0,clock_7_5.png,6.0,47,,,,,,,,,,,,,,,,,,0.0,33.0,33.0,33.0,1.0,,,,,,,,,,
0.0,1.0,0.776,,,,,,submarine_11n.jpg,0.0,clock_7_6.png,6.0,47,,,,,,,,,,,,,,,,,,0.0,34.0,34.0,34.0,1.0,,,,,,,,,,
0.0,1.0,1.073,,,,,,quill_09s.jpg,0.0,clock_7_7.png,6.0,47,,,,,,,,,,,,,,,,,,0.0,35.0,35.0,35.0,1.0,,,,,,,,,,
,,,,,,,,,0.0,,,47,1.0,0.0,4.051,,,,,,moth_06n.jpg,racehorse_03s.jpg,,,,,,,,,,,,,0.0,0.0,0.0,0.0,1.0,,,,,
,,,,,,,,,1.0,,,47,0.0,0.0,3.488,,,,,,orchid_01b.jpg,loom_05s.jpg,,,,,,,,,,,,,0.0,1.0,1.0,1.0,1.0,,,,,
,,,,,,,,,0.0,,,47,1.0,0.0,4.66,,,,,,margarita_03s.jpg,plunger_08s.jpg,,,,,,,,,,,,,0.0,2.0,2.0,2.0,1.0,,,,,
,,,,,,,,,1.0,,,47,0.0,0.0,5.573,,,,,,sleeping_bag_12s.jpg,jukebox_03n.jpg,,,,,,,,,,,,,0.0,3.0,3.0,3.0,1.0,,,,,
,,,,,,,,,1.0,,,47,1.0,1.0,2.644,,,,,,kangaroo_02s.jpg,mousetrap_15n.jpg,,,,,,,,,,,,,0.0,4.0,4.0,4.0,1.0,,,,,
,,,,,,,,,0.0,,,47,0.0,1.0,2.208,,,,,,submarine_11n.jpg,poinsettia_04s.jpg,,,,,,,,,,,,,0.0,5.0,5.0,5.0,1.0,,,,,
,,,,,,,,,,,,47,,,,,,,,,,,,,,,,clock_present_1_16.xlsx,clock_compare_task_1_16.xlsx,,,,,,,,,,,0.0,0.0,0.0,0.0,1.0
0.0,1.0,0.954,,,,,,metronome_03s.jpg,0.0,clock_5_1.png,1.0,47,,,,,,,,,,,,,,,,,,0.0,0.0,0.0,0.0,1.0,,,,,,,,,,
0.0,1.0,0.542,,,,,,cereal_04s.jpg,0.0,clock_5_2.png,1.0,47,,,,,,,,,,,,,,,,,,0.0,1.0,1.0,1.0,1.0,,,,,,,,,,
0.0,1.0,0.641,,,,,,tripod_01b.jpg,0.0,clock_5_3.png,1.0,47,,,,,,,,,,,,,,,,,,0.0,2.0,2.0,2.0,1.0,,,,,,,,,,
0.0,1.0,0.569,,,,,,thermostat_02s.jpg,0.0,clock_5_4.png,1.0,47,,,,,,,,,,,,,,,,,,0.0,3.0,3.0,3.0,1.0,,,,,,,,,,
0.0,1.0,0.687,,,,,,jalapeno_15s.jpg,0.0,clock_5_5.png,1.0,47,,,,,,,,,,,,,,,,,,0.0,4.0,4.0,4.0,1.0,,,,,,,,,,
0.0,1.0,0.985,,,,,,aluminum_foil_08s.jpg,0.0,clock_6_1.png,2.0,47,,,,,,,,,,,,,,,,,,0.0,5.0,5.0,5.0,1.0,,,,,,,,,,
0.0,1.0,0.838,,,,,,medal_04s.jpg,0.0,clock_6_2.png,2.0,47,,,,,,,,,,,,,,,,,,0.0,6.0,6.0,6.0,1.0,,,,,,,,,,
0.0,1.0,0.622,,,,,,flip_flop_03s.jpg,0.0,clock_6_3.png,2.0,47,,,,,,,,,,,,,,,,,,0.0,7.0,7.0,7.0,1.0,,,,,,,,,,
0.0,1.0,0.685,,,,,,orangutan_03s.jpg,0.0,clock_6_4.png,2.0,47,,,,,,,,,,,,,,,,,,0.0,8.0,8.0,8.0,1.0,,,,,,,,,,
0.0,1.0,1.069,,,,,,otter_05s.jpg,0.0,clock_6_5.png,2.0,47,,,,,,,,,,,,,,,,,,0.0,9.0,9.0,9.0,1.0,,,,,,,,,,
0.0,1.0,0.585,,,,,,polar_bear_02s.jpg,0.0,clock_6_6.png,2.0,47,,,,,,,,,,,,,,,,,,0.0,10.0,10.0,10.0,1.0,,,,,,,,,,
0.0,1.0,2.237,,,,,,pocketknife_12s.jpg,0.0,clock_7_1.png,3.0,47,,,,,,,,,,,,,,,,,,0.0,11.0,11.0,11.0,1.0,,,,,,,,,,
1.0,1.0,1.418,,,,,,pocketknife_12s.jpg,1.0,clock_7_2.png,3.0,47,,,,,,,,,,,,,,,,,,0.0,12.0,12.0,12.0,1.0,,,,,,,,,,
0.0,1.0,0.755,,,,,,tulip_02s.jpg,0.0,clock_7_3.png,3.0,47,,,,,,,,,,,,,,,,,,0.0,13.0,13.0,13.0,1.0,,,,,,,,,,
0.0,1.0,0.785,,,,,,lamb_chop_07s.jpg,0.0,clock_7_4.png,3.0,47,,,,,,,,,,,,,,,,,,0.0,14.0,14.0,14.0,1.0,,,,,,,,,,
0.0,1.0,0.64,,,,,,tape_measure_11s.jpg,0.0,clock_7_5.png,3.0,47,,,,,,,,,,,,,,,,,,0.0,15.0,15.0,15.0,1.0,,,,,,,,,,
1.0,1.0,1.696,,,,,,pocketknife_12s.jpg,1.0,clock_7_6.png,3.0,47,,,,,,,,,,,,,,,,,,0.0,16.0,16.0,16.0,1.0,,,,,,,,,,
0.0,1.0,0.584,,,,,,pear_02s.jpg,0.0,clock_7_7.png,3.0,47,,,,,,,,,,,,,,,,,,0.0,17.0,17.0,17.0,1.0,,,,,,,,,,
0.0,1.0,0.68,,,,,,lectern_08s.jpg,0.0,clock_6_1.png,4.0,47,,,,,,,,,,,,,,,,,,0.0,18.0,18.0,18.0,1.0,,,,,,,,,,
0.0,1.0,0.579,,,,,,pineapple_12s.jpg,0.0,clock_6_2.png,4.0,47,,,,,,,,,,,,,,,,,,0.0,19.0,19.0,19.0,1.0,,,,,,,,,,
0.0,1.0,0.776,,,,,,stamp1_11s.jpg,0.0,clock_6_3.png,4.0,47,,,,,,,,,,,,,,,,,,0.0,20.0,20.0,20.0,1.0,,,,,,,,,,
0.0,1.0,0.873,,,,,,boomerang_06s.jpg,0.0,clock_6_4.png,4.0,47,,,,,,,,,,,,,,,,,,0.0,21.0,21.0,21.0,1.0,,,,,,,,,,
0.0,1.0,1.473,,,,,,screwdriver02a.jpg,0.0,clock_6_5.png,4.0,47,,,,,,,,,,,,,,,,,,0.0,22.0,22.0,22.0,1.0,,,,,,,,,,
0.0,1.0,0.731,,,,,,solar_panel_02s.jpg,0.0,clock_6_6.png,4.0,47,,,,,,,,,,,,,,,,,,0.0,23.0,23.0,23.0,1.0,,,,,,,,,,
0.0,1.0,0.572,,,,,,tile_08s.jpg,0.0,clock_5_1.png,5.0,47,,,,,,,,,,,,,,,,,,0.0,24.0,24.0,24.0,1.0,,,,,,,,,,
0.0,1.0,0.586,,,,,,roulette_wheel_04s.jpg,0.0,clock_5_2.png,5.0,47,,,,,,,,,,,,,,,,,,0.0,25.0,25.0,25.0,1.0,,,,,,,,,,
0.0,1.0,1.102,,,,,,lid_10s.jpg,0.0,clock_5_3.png,5.0,47,,,,,,,,,,,,,,,,,,0.0,26.0,26.0,26.0,1.0,,,,,,,,,,
0.0,1.0,0.962,,,,,,pineapple_12s.jpg,0.0,clock_5_4.png,5.0,47,,,,,,,,,,,,,,,,,,0.0,27.0,27.0,27.0,1.0,,,,,,,,,,
0.0,1.0,0.851,,,,,,potpourri_03s.jpg,0.0,clock_5_5.png,5.0,47,,,,,,,,,,,,,,,,,,0.0,28.0,28.0,28.0,1.0,,,,,,,,,,
0.0,1.0,0.566,,,,,,measuring_cup_02s.jpg,0.0,clock_7_1.png,6.0,47,,,,,,,,,,,,,,,,,,0.0,29.0,29.0,29.0,1.0,,,,,,,,,,
0.0,1.0,0.585,,,,,,kite_04s.jpg,0.0,clock_7_2.png,6.0,47,,,,,,,,,,,,,,,,,,0.0,30.0,30.0,30.0,1.0,,,,,,,,,,
0.0,1.0,0.755,,,,,,solar_panel_02s.jpg,0.0,clock_7_3.png,6.0,47,,,,,,,,,,,,,,,,,,0.0,31.0,31.0,31.0,1.0,,,,,,,,,,
0.0,1.0,0.64,,,,,,piano_13n.jpg,0.0,clock_7_4.png,6.0,47,,,,,,,,,,,,,,,,,,0.0,32.0,32.0,32.0,1.0,,,,,,,,,,
0.0,1.0,1.072,,,,,,sea_urchin_09s.jpg,0.0,clock_7_5.png,6.0,47,,,,,,,,,,,,,,,,,,0.0,33.0,33.0,33.0,1.0,,,,,,,,,,
0.0,1.0,0.773,,,,,,thermostat_02s.jpg,0.0,clock_7_6.png,6.0,47,,,,,,,,,,,,,,,,,,0.0,34.0,34.0,34.0,1.0,,,,,,,,,,
0.0,1.0,0.592,,,,,,stapler_01b.jpg,0.0,clock_7_7.png,6.0,47,,,,,,,,,,,,,,,,,,0.0,35.0,35.0,35.0,1.0,,,,,,,,,,
,,,,,,,,,0.0,,,47,1.0,0.0,2.324,,,,,,aluminum_foil_08s.jpg,tripod_01b.jpg,,,,,,,,,,,,,0.0,0.0,0.0,0.0,1.0,,,,,
,,,,,,,,,0.0,,,47,1.0,0.0,2.24,,,,,,tulip_02s.jpg,polar_bear_02s.jpg,,,,,,,,,,,,,0.0,1.0,1.0,1.0,1.0,,,,,
,,,,,,,,,1.0,,,47,0.0,0.0,2.124,,,,,,tape_measure_11s.jpg,lectern_08s.jpg,,,,,,,,,,,,,0.0,2.0,2.0,2.0,1.0,,,,,
,,,,,,,,,1.0,,,47,1.0,1.0,2.288,,,,,,medal_04s.jpg,otter_05s.jpg,,,,,,,,,,,,,0.0,3.0,3.0,3.0,1.0,,,,,
,,,,,,,,,1.0,,,47,1.0,1.0,2.773,,,,,,kite_04s.jpg,sea_urchin_09s.jpg,,,,,,,,,,,,,0.0,4.0,4.0,4.0,1.0,,,,,
,,,,,,,,,1.0,,,47,1.0,1.0,10.948,,,,,,piano_13n.jpg,stapler_01b.jpg,,,,,,,,,,,,,0.0,5.0,5.0,5.0,1.0,,,,,
,,,,,,,,,,,,47,,,,,,,,,,,,,,,,clock_present_2_16.xlsx,clock_compare_task_2_16.xlsx,,,,,,,,,,,0.0,1.0,1.0,1.0,1.0
0.0,1.0,1.146,,,,,,trampoline_13s.jpg,0.0,clock_5_1.png,1.0,47,,,,,,,,,,,,,,,,,,0.0,0.0,0.0,0.0,1.0,,,,,,,,,,
0.0,1.0,0.688,,,,,,ice_pack_09s.jpg,0.0,clock_5_2.png,1.0,47,,,,,,,,,,,,,,,,,,0.0,1.0,1.0,1.0,1.0,,,,,,,,,,
0.0,1.0,0.519,,,,,,printer_09s.jpg,0.0,clock_5_3.png,1.0,47,,,,,,,,,,,,,,,,,,0.0,2.0,2.0,2.0,1.0,,,,,,,,,,
1.0,1.0,1.46,,,,,,ice_pack_09s.jpg,1.0,clock_5_4.png,1.0,47,,,,,,,,,,,,,,,,,,0.0,3.0,3.0,3.0,1.0,,,,,,,,,,
0.0,1.0,0.688,,,,,,koala_13s.jpg,0.0,clock_5_5.png,1.0,47,,,,,,,,,,,,,,,,,,0.0,4.0,4.0,4.0,1.0,,,,,,,,,,
0.0,1.0,0.524,,,,,,key_07s.jpg,0.0,clock_5_1.png,2.0,47,,,,,,,,,,,,,,,,,,0.0,5.0,5.0,5.0,1.0,,,,,,,,,,
0.0,1.0,0.505,,,,,,lamppost_09s.jpg,0.0,clock_5_2.png,2.0,47,,,,,,,,,,,,,,,,,,0.0,6.0,6.0,6.0,1.0,,,,,,,,,,
0.0,1.0,0.588,,,,,,jigsaw_puzzle_11s.jpg,0.0,clock_5_3.png,2.0,47,,,,,,,,,,,,,,,,,,0.0,7.0,7.0,7.0,1.0,,,,,,,,,,
0.0,1.0,0.49,,,,,,pantyhose_07s.jpg,0.0,clock_5_4.png,2.0,47,,,,,,,,,,,,,,,,,,0.0,8.0,8.0,8.0,1.0,,,,,,,,,,
0.0,1.0,0.709,,,,,,typewriter_11s.jpg,0.0,clock_5_5.png,2.0,47,,,,,,,,,,,,,,,,,,0.0,9.0,9.0,9.0,1.0,,,,,,,,,,
0.0,1.0,1.035,,,,,,rocking_horse_03s.jpg,0.0,clock_7_1.png,3.0,47,,,,,,,,,,,,,,,,,,0.0,10.0,10.0,10.0,1.0,,,,,,,,,,
1.0,1.0,1.584,,,,,,rocking_horse_03s.jpg,1.0,clock_7_2.png,3.0,47,,,,,,,,,,,,,,,,,,0.0,11.0,11.0,11.0,1.0,,,,,,,,,,
0.0,1.0,1.652,,,,,,spider_web_03s.jpg,0.0,clock_7_3.png,3.0,47,,,,,,,,,,,,,,,,,,0.0,12.0,12.0,12.0,1.0,,,,,,,,,,
0.0,1.0,0.734,,,,,,hydrant_10s.jpg,0.0,clock_7_4.png,3.0,47,,,,,,,,,,,,,,,,,,0.0,13.0,13.0,13.0,1.0,,,,,,,,,,
0.0,1.0,1.686,,,,,,recliner_02s.jpg,0.0,clock_7_5.png,3.0,47,,,,,,,,,,,,,,,,,,0.0,14.0,14.0,14.0,1.0,,,,,,,,,,
0.0,1.0,1.002,,,,,,pantyhose_07s.jpg,0.0,clock_7_6.png,3.0,47,,,,,,,,,,,,,,,,,,0.0,15.0,15.0,15.0,1.0,,,,,,,,,,
0.0,1.0,0.752,,,,,,mosquito_12s.jpg,0.0,clock_7_7.png,3.0,47,,,,,,,,,,,,,,,,,,0.0,16.0,16.0,16.0,1.0,,,,,,,,,,
0.0,1.0,0.606,,,,,,pan_02s.jpg,0.0,clock_7_1.png,4.0,47,,,,,,,,,,,,,,,,,,0.0,17.0,17.0,17.0,1.0,,,,,,,,,,
0.0,1.0,0.522,,,,,,rope_16s.jpg,0.0,clock_7_2.png,4.0,47,,,,,,,,,,,,,,,,,,0.0,18.0,18.0,18.0,1.0,,,,,,,,,,
0.0,1.0,0.921,,,,,,diving_board_07s.jpg,0.0,clock_7_3.png,4.0,47,,,,,,,,,,,,,,,,,,0.0,19.0,19.0,19.0,1.0,,,,,,,,,,
0.0,1.0,1.309,,,,,,lamppost_09s.jpg,0.0,clock_7_4.png,4.0,47,,,,,,,,,,,,,,,,,,0.0,20.0,20.0,20.0,1.0,,,,,,,,,,
0.0,1.0,0.788,,,,,,tape_06s.jpg,0.0,clock_7_5.png,4.0,47,,,,,,,,,,,,,,,,,,0.0,21.0,21.0,21.0,1.0,,,,,,,,,,
0.0,1.0,0.621,,,,,,keyhole_03s.jpg,0.0,clock_7_6.png,4.0,47,,,,,,,,,,,,,,,,,,0.0,22.0,22.0,22.0,1.0,,,,,,,,,,
0.0,1.0,1.143,,,,,,compass_10n.jpg,0.0,clock_7_7.png,4.0,47,,,,,,,,,,,,,,,,,,0.0,23.0,23.0,23.0,1.0,,,,,,,,,,
0.0,1.0,0.753,,,,,,coconut_08s.jpg,0.0,clock_6_1.png,5.0,47,,,,,,,,,,,,,,,,,,0.0,24.0,24.0,24.0,1.0,,,,,,,,,,
0.0,1.0,0.552,,,,,,bolo_tie_08s.jpg,0.0,clock_6_2.png,5.0,47,,,,,,,,,,,,,,,,,,0.0,25.0,25.0,25.0,1.0,,,,,,,,,,
0.0,1.0,0.584,,,,,,frog_09s.jpg,0.0,clock_6_3.png,5.0,47,,,,,,,,,,,,,,,,,,0.0,26.0,26.0,26.0,1.0,,,,,,,,,,
0.0,1.0,0.556,,,,,,mop_08s.jpg,0.0,clock_6_4.png,5.0,47,,,,,,,,,,,,,,,,,,0.0,27.0,27.0,27.0,1.0,,,,,,,,,,
0.0,1.0,0.62,,,,,,jewel_01b.jpg,0.0,clock_6_5.png,5.0,47,,,,,,,,,,,,,,,,,,0.0,28.0,28.0,28.0,1.0,,,,,,,,,,
1.0,1.0,2.016,,,,,,mop_08s.jpg,1.0,clock_6_6.png,5.0,47,,,,,,,,,,,,,,,,,,0.0,29.0,29.0,29.0,1.0,,,,,,,,,,
0.0,1.0,0.938,,,,,,leash_10s.jpg,0.0,clock_6_1.png,6.0,47,,,,,,,,,,,,,,,,,,0.0,30.0,30.0,30.0,1.0,,,,,,,,,,
1.0,1.0,1.633,,,,,,leash_10s.jpg,1.0,clock_6_2.png,6.0,47,,,,,,,,,,,,,,,,,,0.0,31.0,31.0,31.0,1.0,,,,,,,,,,
1.0,1.0,0.625,,,,,,leash_10s.jpg,1.0,clock_6_3.png,6.0,47,,,,,,,,,,,,,,,,,,0.0,32.0,32.0,32.0,1.0,,,,,,,,,,
0.0,1.0,1.542,,,,,,abacus_12s.jpg,0.0,clock_6_4.png,6.0,47,,,,,,,,,,,,,,,,,,0.0,33.0,33.0,33.0,1.0,,,,,,,,,,
0.0,1.0,0.922,,,,,,compass_10n.jpg,0.0,clock_6_5.png,6.0,47,,,,,,,,,,,,,,,,,,0.0,34.0,34.0,34.0,1.0,,,,,,,,,,
0.0,1.0,0.932,,,,,,marker_05s.jpg,0.0,clock_6_6.png,6.0,47,,,,,,,,,,,,,,,,,,0.0,35.0,35.0,35.0,1.0,,,,,,,,,,
,,,,,,,,,1.0,,,47,0.0,0.0,5.086,,,,,,printer_09s.jpg,key_07s.jpg,,,,,,,,,,,,,0.0,0.0,0.0,0.0,1.0,,,,,
,,,,,,,,,1.0,,,47,0.0,0.0,2.123,,,,,,koala_13s.jpg,jigsaw_puzzle_11s.jpg,,,,,,,,,,,,,0.0,1.0,1.0,1.0,1.0,,,,,
,,,,,,,,,0.0,,,47,1.0,0.0,6.724,,,,,,spider_web_03s.jpg,typewriter_11s.jpg,,,,,,,,,,,,,0.0,2.0,2.0,2.0,1.0,,,,,
,,,,,,,,,0.0,,,47,0.0,1.0,3.039,,,,,,mosquito_12s.jpg,hydrant_10s.jpg,,,,,,,,,,,,,0.0,3.0,3.0,3.0,1.0,,,,,
,,,,,,,,,0.0,,,47,0.0,1.0,1.505,,,,,,tape_06s.jpg,rope_16s.jpg,,,,,,,,,,,,,0.0,4.0,4.0,4.0,1.0,,,,,
,,,,,,,,,0.0,,,47,0.0,1.0,1.994,,,,,,jewel_01b.jpg,bolo_tie_08s.jpg,,,,,,,,,,,,,0.0,5.0,5.0,5.0,1.0,,,,,
,,,,,,,,,,,,47,,,,,,,,,,,,,,,,clock_present_3_16.xlsx,clock_compare_task_3_16.xlsx,,,,,,,,,,,0.0,2.0,2.0,2.0,1.0
0.0,1.0,1.391,,,,,,mud_13s.jpg,0.0,clock_5_1.png,1.0,47,,,,,,,,,,,,,,,,,,0.0,0.0,0.0,0.0,1.0,,,,,,,,,,
0.0,1.0,0.601,,,,,,mannequin_05s.jpg,0.0,clock_5_2.png,1.0,47,,,,,,,,,,,,,,,,,,0.0,1.0,1.0,1.0,1.0,,,,,,,,,,
0.0,1.0,0.919,,,,,,turtleneck_11s.jpg,0.0,clock_5_3.png,1.0,47,,,,,,,,,,,,,,,,,,0.0,2.0,2.0,2.0,1.0,,,,,,,,,,
0.0,1.0,0.67,,,,,,umbrella_15s.jpg,0.0,clock_5_4.png,1.0,47,,,,,,,,,,,,,,,,,,0.0,3.0,3.0,3.0,1.0,,,,,,,,,,
1.0,1.0,1.651,,,,,,mannequin_05s.jpg,1.0,clock_5_5.png,1.0,47,,,,,,,,,,,,,,,,,,0.0,4.0,4.0,4.0,1.0,,,,,,,,,,
0.0,1.0,1.657,,,,,,quad_04s.jpg,0.0,clock_7_1.png,2.0,47,,,,,,,,,,,,,,,,,,0.0,5.0,5.0,5.0,1.0,,,,,,,,,,
0.0,1.0,0.997,,,,,,inhaler_01b.jpg,0.0,clock_7_2.png,2.0,47,,,,,,,,,,,,,,,,,,0.0,6.0,6.0,6.0,1.0,,,,,,,,,,
0.0,1.0,0.683,,,,,,lollipop_08s.jpg,0.0,clock_7_3.png,2.0,47,,,,,,,,,,,,,,,,,,0.0,7.0,7.0,7.0,1.0,,,,,,,,,,
0.0,1.0,0.838,,,,,,rocket_02s.jpg,0.0,clock_7_4.png,2.0,47,,,,,,,,,,,,,,,,,,0.0,8.0,8.0,8.0,1.0,,,,,,,,,,
0.0,1.0,1.17,,,,,,spacesuit_02s.jpg,0.0,clock_7_5.png,2.0,47,,,,,,,,,,,,,,,,,,0.0,9.0,9.0,9.0,1.0,,,,,,,,,,
0.0,1.0,1.084,,,,,,quesadilla_07s.jpg,0.0,clock_7_6.png,2.0,47,,,,,,,,,,,,,,,,,,0.0,10.0,10.0,10.0,1.0,,,,,,,,,,
0.0,1.0,0.852,,,,,,punch1_10s.jpg,0.0,clock_7_7.png,2.0,47,,,,,,,,,,,,,,,,,,0.0,11.0,11.0,11.0,1.0,,,,,,,,,,
0.0,1.0,1.026,,,,,,swimming_pool_17s.jpg,0.0,clock_5_1.png,3.0,47,,,,,,,,,,,,,,,,,,0.0,12.0,12.0,12.0,1.0,,,,,,,,,,
0.0,1.0,0.54,,,,,,espresso_01b.jpg,0.0,clock_5_2.png,3.0,47,,,,,,,,,,,,,,,,,,0.0,13.0,13.0,13.0,1.0,,,,,,,,,,
0.0,1.0,0.671,,,,,,torch_02s.jpg,0.0,clock_5_3.png,3.0,47,,,,,,,,,,,,,,,,,,0.0,14.0,14.0,14.0,1.0,,,,,,,,,,
0.0,1.0,0.74,,,,,,spacesuit_02s.jpg,0.0,clock_5_4.png,3.0,47,,,,,,,,,,,,,,,,,,0.0,15.0,15.0,15.0,1.0,,,,,,,,,,
0.0,1.0,0.688,,,,,,pipe1_10s.jpg,0.0,clock_5_5.png,3.0,47,,,,,,,,,,,,,,,,,,0.0,16.0,16.0,16.0,1.0,,,,,,,,,,
0.0,1.0,0.5,,,,,,hummingbird_05s.jpg,0.0,clock_6_1.png,4.0,47,,,,,,,,,,,,,,,,,,0.0,17.0,17.0,17.0,1.0,,,,,,,,,,
0.0,1.0,0.44,,,,,,scooter.jpg,0.0,clock_6_2.png,4.0,47,,,,,,,,,,,,,,,,,,0.0,18.0,18.0,18.0,1.0,,,,,,,,,,
0.0,1.0,0.672,,,,,,sunglasses_11s.jpg,0.0,clock_6_3.png,4.0,47,,,,,,,,,,,,,,,,,,0.0,19.0,19.0,19.0,1.0,,,,,,,,,,
0.0,0.0,0.653,,,,,,hummingbird_05s.jpg,1.0,clock_6_4.png,4.0,47,,,,,,,,,,,,,,,,,,0.0,20.0,20.0,20.0,1.0,,,,,,,,,,
0.0,1.0,1.774,,,,,,ice-cream_cone_06s.jpg,0.0,clock_6_5.png,4.0,47,,,,,,,,,,,,,,,,,,0.0,21.0,21.0,21.0,1.0,,,,,,,,,,
0.0,1.0,1.036,,,,,,ink_08s.jpg,0.0,clock_6_6.png,4.0,47,,,,,,,,,,,,,,,,,,0.0,22.0,22.0,22.0,1.0,,,,,,,,,,
0.0,1.0,0.74,,,,,,butter_14s.jpg,0.0,clock_6_1.png,5.0,47,,,,,,,,,,,,,,,,,,0.0,23.0,23.0,23.0,1.0,,,,,,,,,,
0.0,1.0,0.883,,,,,,ink_08s.jpg,0.0,clock_6_2.png,5.0,47,,,,,,,,,,,,,,,,,,0.0,24.0,24.0,24.0,1.0,,,,,,,,,,
0.0,1.0,0.956,,,,,,foam_03s.jpg,0.0,clock_6_3.png,5.0,47,,,,,,,,,,,,,,,,,,0.0,25.0,25.0,25.0,1.0,,,,,,,,,,
0.0,1.0,0.879,,,,,,lava_02s.jpg,0.0,clock_6_4.png,5.0,47,,,,,,,,,,,,,,,,,,0.0,26.0,26.0,26.0,1.0,,,,,,,,,,
0.0,1.0,1.057,,,,,,rudder_02s.jpg,0.0,clock_6_5.png,5.0,47,,,,,,,,,,,,,,,,,,0.0,27.0,27.0,27.0,1.0,,,,,,,,,,
0.0,1.0,1.235,,,,,,tab_09s.jpg,0.0,clock_6_6.png,5.0,47,,,,,,,,,,,,,,,,,,0.0,28.0,28.0,28.0,1.0,,,,,,,,,,
0.0,1.0,0.985,,,,,,lemonade_04s.jpg,0.0,clock_7_1.png,6.0,47,,,,,,,,,,,,,,,,,,0.0,29.0,29.0,29.0,1.0,,,,,,,,,,
0.0,1.0,1.165,,,,,,lollipop_08s.jpg,0.0,clock_7_2.png,6.0,47,,,,,,,,,,,,,,,,,,0.0,30.0,30.0,30.0,1.0,,,,,,,,,,
0.0,1.0,0.753,,,,,,teabag_12s.jpg,0.0,clock_7_3.png,6.0,47,,,,,,,,,,,,,,,,,,0.0,31.0,31.0,31.0,1.0,,,,,,,,,,
0.0,1.0,0.544,,,,,,sunglasses_11s.jpg,0.0,clock_7_4.png,6.0,47,,,,,,,,,,,,,,,,,,0.0,32.0,32.0,32.0,1.0,,,,,,,,,,
1.0,1.0,1.684,,,,,,lemonade_04s.jpg,1.0,clock_7_5.png,6.0,47,,,,,,,,,,,,,,,,,,0.0,33.0,33.0,33.0,1.0,,,,,,,,,,
0.0,1.0,1.401,,,,,,fire_pit_10s.jpg,0.0,clock_7_6.png,6.0,47,,,,,,,,,,,,,,,,,,0.0,34.0,34.0,34.0,1.0,,,,,,,,,,
0.0,1.0,1.252,,,,,,crayon_09s.jpg,0.0,clock_7_7.png,6.0,47,,,,,,,,,,,,,,,,,,0.0,35.0,35.0,35.0,1.0,,,,,,,,,,
,,,,,,,,,0.0,,,47,0.0,1.0,2.425,,,,,,quad_04s.jpg,turtleneck_11s.jpg,,,,,,,,,,,,,0.0,0.0,0.0,0.0,1.0,,,,,
,,,,,,,,,1.0,,,47,0.0,0.0,2.665,,,,,,umbrella_15s.jpg,inhaler_01b.jpg,,,,,,,,,,,,,0.0,1.0,1.0,1.0,1.0,,,,,
,,,,,,,,,1.0,,,47,0.0,0.0,2.306,,,,,,quesadilla_07s.jpg,espresso_01b.jpg,,,,,,,,,,,,,0.0,2.0,2.0,2.0,1.0,,,,,
,,,,,,,,,1.0,,,47,1.0,1.0,2.289,,,,,,scooter.jpg,ice-cream_cone_06s.jpg,,,,,,,,,,,,,0.0,3.0,3.0,3.0,1.0,,,,,
,,,,,,,,,1.0,,,47,1.0,1.0,1.972,,,,,,butter_14s.jpg,lava_02s.jpg,,,,,,,,,,,,,0.0,4.0,4.0,4.0,1.0,,,,,
,,,,,,,,,1.0,,,47,1.0,1.0,3.156,,,,,,rocket_02s.jpg,punch1_10s.jpg,,,,,,,,,,,,,0.0,5.0,5.0,5.0,1.0,,,,,
,,,,,,,,,,,,47,,,,,,,,,,,,,,,,clock_present_4_16.xlsx,clock_compare_task_4_16.xlsx,,,,,,,,,,,0.0,3.0,3.0,3.0,1.0
0.0,1.0,0.763,,,,,,clover_04s.jpg,0.0,clock_6_1.png,1.0,47,,,,,,,,,,,,,,,,,,0.0,0.0,0.0,0.0,1.0,,,,,,,,,,
0.0,1.0,0.518,,,,,,kayak_08s.jpg,0.0,clock_6_2.png,1.0,47,,,,,,,,,,,,,,,,,,0.0,1.0,1.0,1.0,1.0,,,,,,,,,,
0.0,1.0,0.5,,,,,,toothpaste_12s.jpg,0.0,clock_6_3.png,1.0,47,,,,,,,,,,,,,,,,,,0.0,2.0,2.0,2.0,1.0,,,,,,,,,,
1.0,1.0,1.352,,,,,,kayak_08s.jpg,1.0,clock_6_4.png,1.0,47,,,,,,,,,,,,,,,,,,0.0,3.0,3.0,3.0,1.0,,,,,,,,,,
1.0,1.0,1.276,,,,,,clover_04s.jpg,1.0,clock_6_5.png,1.0,47,,,,,,,,,,,,,,,,,,0.0,4.0,4.0,4.0,1.0,,,,,,,,,,
0.0,1.0,2.202,,,,,,bonsai_07s.jpg,0.0,clock_6_6.png,1.0,47,,,,,,,,,,,,,,,,,,0.0,5.0,5.0,5.0,1.0,,,,,,,,,,
0.0,1.0,1.719,,,,,,comic_book_02s.jpg,0.0,clock_5_1.png,2.0,47,,,,,,,,,,,,,,,,,,0.0,6.0,6.0,6.0,1.0,,,,,,,,,,
0.0,1.0,0.774,,,,,,penlight_12s.jpg,0.0,clock_5_2.png,2.0,47,,,,,,,,,,,,,,,,,,0.0,7.0,7.0,7.0,1.0,,,,,,,,,,
0.0,1.0,1.122,,,,,,emerald_02s.jpg,0.0,clock_5_3.png,2.0,47,,,,,,,,,,,,,,,,,,0.0,8.0,8.0,8.0,1.0,,,,,,,,,,
0.0,1.0,1.117,,,,,,mussel_11s.jpg,0.0,clock_5_4.png,2.0,47,,,,,,,,,,,,,,,,,,0.0,9.0,9.0,9.0,1.0,,,,,,,,,,
0.0,1.0,1.05,,,,,,rock_08s.jpg,0.0,clock_5_5.png,2.0,47,,,,,,,,,,,,,,,,,,0.0,10.0,10.0,10.0,1.0,,,,,,,,,,
0.0,1.0,1.289,,,,,,toilet_paper_12s.jpg,0.0,clock_6_1.png,3.0,47,,,,,,,,,,,,,,,,,,0.0,11.0,11.0,11.0,1.0,,,,,,,,,,
0.0,1.0,0.909,,,,,,microwave_02s.jpg,0.0,clock_6_2.png,3.0,47,,,,,,,,,,,,,,,,,,0.0,12.0,12.0,12.0,1.0,,,,,,,,,,
1.0,1.0,1.432,,,,,,toilet_paper_12s.jpg,1.0,clock_6_3.png,3.0,47,,,,,,,,,,,,,,,,,,0.0,13.0,13.0,13.0,1.0,,,,,,,,,,
0.0,1.0,1.071,,,,,,mattress_01s.jpg,0.0,clock_6_4.png,3.0,47,,,,,,,,,,,,,,,,,,0.0,14.0,14.0,14.0,1.0,,,,,,,,,,
0.0,1.0,0.822,,,,,,cushion_08s.jpg,0.0,clock_6_5.png,3.0,47,,,,,,,,,,,,,,,,,,0.0,15.0,15.0,15.0,1.0,,,,,,,,,,
0.0,1.0,0.572,,,,,,rhinoceros_02s.jpg,0.0,clock_6_6.png,3.0,47,,,,,,,,,,,,,,,,,,0.0,16.0,16.0,16.0,1.0,,,,,,,,,,
0.0,1.0,0.839,,,,,,latte_06s.jpg,0.0,clock_5_1.png,4.0,47,,,,,,,,,,,,,,,,,,0.0,17.0,17.0,17.0,1.0,,,,,,,,,,
0.0,1.0,1.789,,,,,,projector_08s.jpg,0.0,clock_5_2.png,4.0,47,,,,,,,,,,,,,,,,,,0.0,18.0,18.0,18.0,1.0,,,,,,,,,,
0.0,1.0,1.724,,,,,,rollerskate_03s.jpg,0.0,clock_5_3.png,4.0,47,,,,,,,,,,,,,,,,,,0.0,19.0,19.0,19.0,1.0,,,,,,,,,,
1.0,1.0,1.539,,,,,,latte_06s.jpg,1.0,clock_5_4.png,4.0,47,,,,,,,,,,,,,,,,,,0.0,20.0,20.0,20.0,1.0,,,,,,,,,,
0.0,1.0,1.453,,,,,,pincushion_10s.jpg,0.0,clock_5_5.png,4.0,47,,,,,,,,,,,,,,,,,,0.0,21.0,21.0,21.0,1.0,,,,,,,,,,
0.0,1.0,2.234,,,,,,tuba_12s.jpg,0.0,clock_7_1.png,5.0,47,,,,,,,,,,,,,,,,,,0.0,22.0,22.0,22.0,1.0,,,,,,,,,,
0.0,1.0,0.588,,,,,,cucumber_07s.jpg,0.0,clock_7_2.png,5.0,47,,,,,,,,,,,,,,,,,,0.0,23.0,23.0,23.0,1.0,,,,,,,,,,
0.0,1.0,0.648,,,,,,treasure_08s.jpg,0.0,clock_7_3.png,5.0,47,,,,,,,,,,,,,,,,,,0.0,24.0,24.0,24.0,1.0,,,,,,,,,,
1.0,1.0,1.585,,,,,,cucumber_07s.jpg,1.0,clock_7_4.png,5.0,47,,,,,,,,,,,,,,,,,,0.0,25.0,25.0,25.0,1.0,,,,,,,,,,
0.0,1.0,1.784,,,,,,razor_12s.jpg,0.0,clock_7_5.png,5.0,47,,,,,,,,,,,,,,,,,,0.0,26.0,26.0,26.0,1.0,,,,,,,,,,
0.0,1.0,1.653,,,,,,sunflower_17s.jpg,0.0,clock_7_6.png,5.0,47,,,,,,,,,,,,,,,,,,0.0,27.0,27.0,27.0,1.0,,,,,,,,,,
0.0,1.0,1.702,,,,,,basket_05s.jpg,0.0,clock_7_7.png,5.0,47,,,,,,,,,,,,,,,,,,0.0,28.0,28.0,28.0,1.0,,,,,,,,,,
0.0,1.0,1.908,,,,,,breadstick_08s.jpg,0.0,clock_7_1.png,6.0,47,,,,,,,,,,,,,,,,,,0.0,29.0,29.0,29.0,1.0,,,,,,,,,,
1.0,1.0,1.571,,,,,,breadstick_08s.jpg,1.0,clock_7_2.png,6.0,47,,,,,,,,,,,,,,,,,,0.0,30.0,30.0,30.0,1.0,,,,,,,,,,
1.0,1.0,1.51,,,,,,breadstick_08s.jpg,1.0,clock_7_3.png,6.0,47,,,,,,,,,,,,,,,,,,0.0,31.0,31.0,31.0,1.0,,,,,,,,,,
0.0,1.0,1.472,,,,,,gingerbread_man_03s.jpg,0.0,clock_7_4.png,6.0,47,,,,,,,,,,,,,,,,,,0.0,32.0,32.0,32.0,1.0,,,,,,,,,,
0.0,1.0,1.007,,,,,,laser_pointer_02s.jpg,0.0,clock_7_5.png,6.0,47,,,,,,,,,,,,,,,,,,0.0,33.0,33.0,33.0,1.0,,,,,,,,,,
0.0,1.0,0.988,,,,,,marshmallow_08s.jpg,0.0,clock_7_6.png,6.0,47,,,,,,,,,,,,,,,,,,0.0,34.0,34.0,34.0,1.0,,,,,,,,,,
1.0,1.0,1.974,,,,,,breadstick_08s.jpg,1.0,clock_7_7.png,6.0,47,,,,,,,,,,,,,,,,,,0.0,35.0,35.0,35.0,1.0,,,,,,,,,,
,,,,,,,,,1.0,,,47,1.0,1.0,5.772,,,,,,rhinoceros_02s.jpg,rollerskate_03s.jpg,,,,,,,,,,,,,0.0,0.0,0.0,0.0,1.0,,,,,
,,,,,,,,,0.0,,,47,1.0,0.0,3.088,,,,,,emerald_02s.jpg,bonsai_07s.jpg,,,,,,,,,,,,,0.0,1.0,1.0,1.0,1.0,,,,,
,,,,,,,,,0.0,,,47,1.0,0.0,1.878,,,,,,microwave_02s.jpg,mussel_11s.jpg,,,,,,,,,,,,,0.0,2.0,2.0,2.0,1.0,,,,,
,,,,,,,,,0.0,,,47,0.0,1.0,2.537,,,,,,rock_08s.jpg,penlight_12s.jpg,,,,,,,,,,,,,0.0,3.0,3.0,3.0,1.0,,,,,
,,,,,,,,,1.0,,,47,1.0,1.0,3.267,,,,,,treasure_08s.jpg,sunflower_17s.jpg,,,,,,,,,,,,,0.0,4.0,4.0,4.0,1.0,,,,,
,,,,,,,,,1.0,,,47,1.0,1.0,2.795,,,,,,projector_08s.jpg,pincushion_10s.jpg,,,,,,,,,,,,,0.0,5.0,5.0,5.0,1.0,,,,,
,,,,,,,,,,,,47,,,,,,,,,,,,,,,,clock_present_5_16.xlsx,clock_compare_task_5_16.xlsx,,,,,,,,,,,0.0,4.0,4.0,4.0,1.0
0.0,1.0,2.074,,,,,,buoy_04s.jpg,0.0,clock_5_1.png,1.0,47,,,,,,,,,,,,,,,,,,0.0,0.0,0.0,0.0,1.0,,,,,,,,,,
0.0,1.0,0.644,,,,,,punch2_09s.jpg,0.0,clock_5_2.png,1.0,47,,,,,,,,,,,,,,,,,,0.0,1.0,1.0,1.0,1.0,,,,,,,,,,
0.0,1.0,0.734,,,,,,rosary_03s.jpg,0.0,clock_5_3.png,1.0,47,,,,,,,,,,,,,,,,,,0.0,2.0,2.0,2.0,1.0,,,,,,,,,,
0.0,1.0,0.978,,,,,,toad_09s.jpg,0.0,clock_5_4.png,1.0,47,,,,,,,,,,,,,,,,,,0.0,3.0,3.0,3.0,1.0,,,,,,,,,,
0.0,1.0,1.011,,,,,,lab_coat_11s.jpg,0.0,clock_5_5.png,1.0,47,,,,,,,,,,,,,,,,,,0.0,4.0,4.0,4.0,1.0,,,,,,,,,,
0.0,1.0,0.62,,,,,,swing_set_15s.jpg,0.0,clock_5_1.png,2.0,47,,,,,,,,,,,,,,,,,,0.0,5.0,5.0,5.0,1.0,,,,,,,,,,
1.0,1.0,1.588,,,,,,swing_set_15s.jpg,1.0,clock_5_2.png,2.0,47,,,,,,,,,,,,,,,,,,0.0,6.0,6.0,6.0,1.0,,,,,,,,,,
1.0,1.0,1.687,,,,,,swing_set_15s.jpg,1.0,clock_5_3.png,2.0,47,,,,,,,,,,,,,,,,,,0.0,7.0,7.0,7.0,1.0,,,,,,,,,,
1.0,1.0,1.232,,,,,,swing_set_15s.jpg,1.0,clock_5_4.png,2.0,47,,,,,,,,,,,,,,,,,,0.0,8.0,8.0,8.0,1.0,,,,,,,,,,
0.0,1.0,1.405,,,,,,tennis_ball_06s.jpg,0.0,clock_5_5.png,2.0,47,,,,,,,,,,,,,,,,,,0.0,9.0,9.0,9.0,1.0,,,,,,,,,,
0.0,1.0,2.362,,,,,,powder_07s.jpg,0.0,clock_6_1.png,3.0,47,,,,,,,,,,,,,,,,,,0.0,10.0,10.0,10.0,1.0,,,,,,,,,,
,0.0,,,,,,,tattoo_14s.jpg,0.0,clock_6_2.png,3.0,47,,,,,,,,,,,,,,,,,,0.0,11.0,11.0,11.0,1.0,,,,,,,,,,
0.0,1.0,1.902,,,,,,cape_11s.jpg,0.0,clock_6_3.png,3.0,47,,,,,,,,,,,,,,,,,,0.0,12.0,12.0,12.0,1.0,,,,,,,,,,
0.0,1.0,1.175,,,,,,turnstile_08s.jpg,0.0,clock_6_4.png,3.0,47,,,,,,,,,,,,,,,,,,0.0,13.0,13.0,13.0,1.0,,,,,,,,,,
1.0,1.0,1.567,,,,,,cape_11s.jpg,1.0,clock_6_5.png,3.0,47,,,,,,,,,,,,,,,,,,0.0,14.0,14.0,14.0,1.0,,,,,,,,,,
0.0,1.0,1.752,,,,,,loveseat_08s.jpg,0.0,clock_6_6.png,3.0,47,,,,,,,,,,,,,,,,,,0.0,15.0,15.0,15.0,1.0,,,,,,,,,,
0.0,1.0,0.811,,,,,,swan_11s.jpg,0.0,clock_6_1.png,4.0,47,,,,,,,,,,,,,,,,,,0.0,16.0,16.0,16.0,1.0,,,,,,,,,,
0.0,1.0,0.855,,,,,,totem_pole_05s.jpg,0.0,clock_6_2.png,4.0,47,,,,,,,,,,,,,,,,,,0.0,17.0,17.0,17.0,1.0,,,,,,,,,,
0.0,1.0,0.729,,,,,,lip_gloss_06s.jpg,0.0,clock_6_3.png,4.0,47,,,,,,,,,,,,,,,,,,0.0,18.0,18.0,18.0,1.0,,,,,,,,,,
0.0,1.0,0.686,,,,,,toad_09s.jpg,0.0,clock_6_4.png,4.0,47,,,,,,,,,,,,,,,,,,0.0,19.0,19.0,19.0,1.0,,,,,,,,,,
0.0,1.0,0.807,,,,,,ring_03s.jpg,0.0,clock_6_5.png,4.0,47,,,,,,,,,,,,,,,,,,0.0,20.0,20.0,20.0,1.0,,,,,,,,,,
0.0,1.0,0.934,,,,,,powder_07s.jpg,0.0,clock_6_6.png,4.0,47,,,,,,,,,,,,,,,,,,0.0,21.0,21.0,21.0,1.0,,,,,,,,,,
0.0,1.0,0.64,,,,,,taxi_15s.jpg,0.0,clock_7_1.png,5.0,47,,,,,,,,,,,,,,,,,,0.0,22.0,22.0,22.0,1.0,,,,,,,,,,
1.0,1.0,1.465,,,,,,taxi_15s.jpg,1.0,clock_7_2.png,5.0,47,,,,,,,,,,,,,,,,,,0.0,23.0,23.0,23.0,1.0,,,,,,,,,,
0.0,1.0,1.55,,,,,,gazelle_10s.jpg,0.0,clock_7_3.png,5.0,47,,,,,,,,,,,,,,,,,,0.0,24.0,24.0,24.0,1.0,,,,,,,,,,
0.0,1.0,0.801,,,,,,thumbtack_14s.jpg,0.0,clock_7_4.png,5.0,47,,,,,,,,,,,,,,,,,,0.0,25.0,25.0,25.0,1.0,,,,,,,,,,
0.0,1.0,0.725,,,,,,hyena_16s.jpg,0.0,clock_7_5.png,5.0,47,,,,,,,,,,,,,,,,,,0.0,26.0,26.0,26.0,1.0,,,,,,,,,,
0.0,1.0,0.835,,,,,,badge_03s.jpg,0.0,clock_7_6.png,5.0,47,,,,,,,,,,,,,,,,,,0.0,27.0,27.0,27.0,1.0,,,,,,,,,,
0.0,1.0,1.185,,,,,,blazer_02s.jpg,0.0,clock_7_7.png,5.0,47,,,,,,,,,,,,,,,,,,0.0,28.0,28.0,28.0,1.0,,,,,,,,,,
0.0,1.0,0.814,,,,,,blowfish_03s.jpg,0.0,clock_7_1.png,6.0,47,,,,,,,,,,,,,,,,,,0.0,29.0,29.0,29.0,1.0,,,,,,,,,,
0.0,1.0,0.712,,,,,,licorice_06s.jpg,0.0,clock_7_2.png,6.0,47,,,,,,,,,,,,,,,,,,0.0,30.0,30.0,30.0,1.0,,,,,,,,,,
0.0,1.0,0.872,,,,,,checkbook_11s.jpg,0.0,clock_7_3.png,6.0,47,,,,,,,,,,,,,,,,,,0.0,31.0,31.0,31.0,1.0,,,,,,,,,,
0.0,1.0,0.589,,,,,,reindeer_08s.jpg,0.0,clock_7_4.png,6.0,47,,,,,,,,,,,,,,,,,,0.0,32.0,32.0,32.0,1.0,,,,,,,,,,
0.0,1.0,0.871,,,,,,doily_13s.jpg,0.0,clock_7_5.png,6.0,47,,,,,,,,,,,,,,,,,,0.0,33.0,33.0,33.0,1.0,,,,,,,,,,
0.0,1.0,0.688,,,,,,possum_09s.jpg,0.0,clock_7_6.png,6.0,47,,,,,,,,,,,,,,,,,,0.0,34.0,34.0,34.0,1.0,,,,,,,,,,
0.0,1.0,1.037,,,,,,keyboard_05s.jpg,0.0,clock_7_7.png,6.0,47,,,,,,,,,,,,,,,,,,0.0,35.0,35.0,35.0,1.0,,,,,,,,,,
,,,,,,,,,1.0,,,47,0.0,0.0,2.318,,,,,,turnstile_08s.jpg,swan_11s.jpg,,,,,,,,,,,,,0.0,0.0,0.0,0.0,1.0,,,,,
,,,,,,,,,1.0,,,47,0.0,0.0,4.009,,,,,,loveseat_08s.jpg,lip_gloss_06s.jpg,,,,,,,,,,,,,0.0,1.0,1.0,1.0,1.0,,,,,
,,,,,,,,,1.0,,,47,0.0,0.0,0.955,,,,,,hyena_16s.jpg,blowfish_03s.jpg,,,,,,,,,,,,,0.0,2.0,2.0,2.0,1.0,,,,,
,,,,,,,,,0.0,,,47,0.0,1.0,2.128,,,,,,lab_coat_11s.jpg,punch2_09s.jpg,,,,,,,,,,,,,0.0,3.0,3.0,3.0,1.0,,,,,
,,,,,,,,,0.0,,,47,0.0,1.0,1.372,,,,,,ring_03s.jpg,totem_pole_05s.jpg,,,,,,,,,,,,,0.0,4.0,4.0,4.0,1.0,,,,,
,,,,,,,,,0.0,,,47,0.0,1.0,4.655,,,,,,keyboard_05s.jpg,reindeer_08s.jpg,,,,,,,,,,,,,0.0,5.0,5.0,5.0,1.0,,,,,
