key_resp.keys,key_resp.corr,key_resp.rt,present_segment.thisRepN,present_segment.thisTrialN,present_segment.thisN,present_segment.thisIndex,present_segment.ran,pictures,answer,clock,segment,participant,key_resp_2.keys,key_resp_2.corr,key_resp_2.rt,compare_segment.thisRepN,compare_segment.thisTrialN,compare_segment.thisN,compare_segment.thisIndex,compare_segment.ran,item_a,item_b,clock_conditions.thisRepN,clock_conditions.thisTrialN,clock_conditions.thisN,clock_conditions.thisIndex,clock_conditions.ran,present,compare,noclock_present.thisRepN,noclock_present.thisTrialN,noclock_present.thisN,noclock_present.thisIndex,noclock_present.ran,noclock_compare.thisRepN,noclock_compare.thisTrialN,noclock_compare.thisN,noclock_compare.thisIndex,noclock_compare.ran,noclock_conditions.thisRepN,noclock_conditions.thisTrialN,noclock_conditions.thisN,noclock_conditions.thisIndex,noclock_conditions.ran
0.0,1.0,0.761855,0.0,0.0,0.0,0.0,1.0,compass_10n.jpg,0.0,clock_5_1.png,1.0,75,,,,,,,,,,,,,,,,,,,,,,,,,,,,,,,,
0.0,1.0,0.68602,0.0,1.0,1.0,1.0,1.0,rollerskate_03s.jpg,0.0,clock_5_2.png,1.0,75,,,,,,,,,,,,,,,,,,,,,,,,,,,,,,,,
1.0,1.0,0.60231,0.0,2.0,2.0,2.0,1.0,rollerskate_03s.jpg,1.0,clock_5_3.png,1.0,75,,,,,,,,,,,,,,,,,,,,,,,,,,,,,,,,
0.0,1.0,0.645795,0.0,3.0,3.0,3.0,1.0,toy_04s.jpg,0.0,clock_5_4.png,1.0,75,,,,,,,,,,,,,,,,,,,,,,,,,,,,,,,,
0.0,1.0,0.761845,0.0,4.0,4.0,4.0,1.0,bowler_hat_10s.jpg,0.0,clock_5_5.png,1.0,75,,,,,,,,,,,,,,,,,,,,,,,,,,,,,,,,
0.0,1.0,1.000485,0.0,5.0,5.0,5.0,1.0,pan_02s.jpg,0.0,clock_6_1.png,2.0,75,,,,,,,,,,,,,,,,,,,,,,,,,,,,,,,,
0.0,1.0,0.578085,0.0,6.0,6.0,6.0,1.0,camcorder_10s.jpg,0.0,clock_6_2.png,2.0,75,,,,,,,,,,,,,,,,,,,,,,,,,,,,,,,,
0.0,1.0,0.76428,0.0,7.0,7.0,7.0,1.0,turtleneck_11s.jpg,0.0,clock_6_3.png,2.0,75,,,,,,,,,,,,,,,,,,,,,,,,,,,,,,,,
0.0,1.0,0.52026,0.0,8.0,8.0,8.0,1.0,pineapple_12s.jpg,0.0,clock_6_4.png,2.0,75,,,,,,,,,,,,,,,,,,,,,,,,,,,,,,,,
0.0,1.0,0.665345,0.0,9.0,9.0,9.0,1.0,stingray_02s.jpg,0.0,clock_6_5.png,2.0,75,,,,,,,,,,,,,,,,,,,,,,,,,,,,,,,,
0.0,1.0,0.622045,0.0,10.0,10.0,10.0,1.0,polar_bear_02s.jpg,0.0,clock_6_6.png,2.0,75,,,,,,,,,,,,,,,,,,,,,,,,,,,,,,,,
0.0,1.0,0.497325,0.0,11.0,11.0,11.0,1.0,jukebox_03n.jpg,0.0,clock_5_1.png,3.0,75,,,,,,,,,,,,,,,,,,,,,,,,,,,,,,,,
0.0,1.0,0.512575,0.0,12.0,12.0,12.0,1.0,tweezers_03s.jpg,0.0,clock_5_2.png,3.0,75,,,,,,,,,,,,,,,,,,,,,,,,,,,,,,,,
0.0,1.0,0.57015,0.0,13.0,13.0,13.0,1.0,clover_04s.jpg,0.0,clock_5_3.png,3.0,75,,,,,,,,,,,,,,,,,,,,,,,,,,,,,,,,
0.0,1.0,0.612905,0.0,14.0,14.0,14.0,1.0,tinsel_12s.jpg,0.0,clock_5_4.png,3.0,75,,,,,,,,,,,,,,,,,,,,,,,,,,,,,,,,
0.0,1.0,0.62988,0.0,15.0,15.0,15.0,1.0,rocking_horse_03s.jpg,0.0,clock_5_5.png,3.0,75,,,,,,,,,,,,,,,,,,,,,,,,,,,,,,,,
0.0,1.0,0.52854,0.0,16.0,16.0,16.0,1.0,hyena_16s.jpg,0.0,clock_7_1.png,4.0,75,,,,,,,,,,,,,,,,,,,,,,,,,,,,,,,,
0.0,1.0,0.570255,0.0,17.0,17.0,17.0,1.0,pear_02s.jpg,0.0,clock_7_2.png,4.0,75,,,,,,,,,,,,,,,,,,,,,,,,,,,,,,,,
0.0,1.0,0.529145,0.0,18.0,18.0,18.0,1.0,ink_08s.jpg,0.0,clock_7_3.png,4.0,75,,,,,,,,,,,,,,,,,,,,,,,,,,,,,,,,
0.0,1.0,0.611475,0.0,19.0,19.0,19.0,1.0,inhaler_01b.jpg,0.0,clock_7_4.png,4.0,75,,,,,,,,,,,,,,,,,,,,,,,,,,,,,,,,
0.0,1.0,0.78518,0.0,20.0,20.0,20.0,1.0,clover_04s.jpg,0.0,clock_7_5.png,4.0,75,,,,,,,,,,,,,,,,,,,,,,,,,,,,,,,,
1.0,1.0,1.24623,0.0,21.0,21.0,21.0,1.0,ink_08s.jpg,1.0,clock_7_6.png,4.0,75,,,,,,,,,,,,,,,,,,,,,,,,,,,,,,,,
0.0,1.0,0.684145,0.0,22.0,22.0,22.0,1.0,throne_11s.jpg,0.0,clock_7_7.png,4.0,75,,,,,,,,,,,,,,,,,,,,,,,,,,,,,,,,
0.0,1.0,0.59873,0.0,23.0,23.0,23.0,1.0,medal_04s.jpg,0.0,clock_6_1.png,5.0,75,,,,,,,,,,,,,,,,,,,,,,,,,,,,,,,,
0.0,1.0,0.770295,0.0,24.0,24.0,24.0,1.0,inhaler_01b.jpg,0.0,clock_6_2.png,5.0,75,,,,,,,,,,,,,,,,,,,,,,,,,,,,,,,,
0.0,1.0,0.71841,0.0,25.0,25.0,25.0,1.0,luggage_08s.jpg,0.0,clock_6_3.png,5.0,75,,,,,,,,,,,,,,,,,,,,,,,,,,,,,,,,
1.0,1.0,0.81324,0.0,26.0,26.0,26.0,1.0,medal_04s.jpg,1.0,clock_6_4.png,5.0,75,,,,,,,,,,,,,,,,,,,,,,,,,,,,,,,,
1.0,1.0,0.93395,0.0,27.0,27.0,27.0,1.0,luggage_08s.jpg,1.0,clock_6_5.png,5.0,75,,,,,,,,,,,,,,,,,,,,,,,,,,,,,,,,
0.0,1.0,0.604375,0.0,28.0,28.0,28.0,1.0,eyedropper_12s.jpg,0.0,clock_6_6.png,5.0,75,,,,,,,,,,,,,,,,,,,,,,,,,,,,,,,,
0.0,1.0,0.53975,0.0,29.0,29.0,29.0,1.0,fire_pit_10s.jpg,0.0,clock_7_1.png,6.0,75,,,,,,,,,,,,,,,,,,,,,,,,,,,,,,,,
0.0,1.0,0.4702,0.0,30.0,30.0,30.0,1.0,camcorder_10s.jpg,0.0,clock_7_2.png,6.0,75,,,,,,,,,,,,,,,,,,,,,,,,,,,,,,,,
0.0,1.0,0.64913,0.0,31.0,31.0,31.0,1.0,mixer_12s.jpg,0.0,clock_7_3.png,6.0,75,,,,,,,,,,,,,,,,,,,,,,,,,,,,,,,,
0.0,1.0,0.62265,0.0,32.0,32.0,32.0,1.0,lipstick_02s.jpg,0.0,clock_7_4.png,6.0,75,,,,,,,,,,,,,,,,,,,,,,,,,,,,,,,,
0.0,1.0,0.553525,0.0,33.0,33.0,33.0,1.0,lifesaver_10s.jpg,0.0,clock_7_5.png,6.0,75,,,,,,,,,,,,,,,,,,,,,,,,,,,,,,,,
1.0,1.0,0.96472,0.0,34.0,34.0,34.0,1.0,lipstick_02s.jpg,1.0,clock_7_6.png,6.0,75,,,,,,,,,,,,,,,,,,,,,,,,,,,,,,,,
0.0,1.0,0.556555,0.0,35.0,35.0,35.0,1.0,polaroid_05s.jpg,0.0,clock_7_7.png,6.0,75,,,,,,,,,,,,,,,,,,,,,,,,,,,,,,,,
,,,,,,,,,1.0,,,75,0.0,0.0,1.005945,0.0,0.0,0.0,0.0,1.0,eyedropper_12s.jpg,mixer_12s.jpg,,,,,,,,,,,,,,,,,,,,,,
,,,,,,,,,0.0,,,75,1.0,0.0,1.031385,0.0,1.0,1.0,1.0,1.0,turtleneck_11s.jpg,bowler_hat_10s.jpg,,,,,,,,,,,,,,,,,,,,,,
,,,,,,,,,0.0,,,75,0.0,1.0,1.115735,0.0,2.0,2.0,2.0,1.0,tweezers_03s.jpg,stingray_02s.jpg,,,,,,,,,,,,,,,,,,,,,,
,,,,,,,,,1.0,,,75,0.0,0.0,1.08838,0.0,3.0,3.0,3.0,1.0,compass_10n.jpg,toy_04s.jpg,,,,,,,,,,,,,,,,,,,,,,
,,,,,,,,,0.0,,,75,0.0,1.0,0.982785,0.0,4.0,4.0,4.0,1.0,pineapple_12s.jpg,pan_02s.jpg,,,,,,,,,,,,,,,,,,,,,,
,,,,,,,,,1.0,,,75,0.0,0.0,1.13044,0.0,5.0,5.0,5.0,1.0,jukebox_03n.jpg,tinsel_12s.jpg,,,,,,,,,,,,,,,,,,,,,,
,,,,,,,,,,,,75,,,,,,,,,,,0.0,0.0,0.0,0.0,1.0,clock_present_1_6.xlsx,clock_compare_task_1_6.xlsx,,,,,,,,,,,,,,,
0.0,1.0,0.76199,0.0,0.0,0.0,0.0,1.0,olive_05s.jpg,0.0,clock_5_1.png,1.0,75,,,,,,,,,,,,,,,,,,,,,,,,,,,,,,,,
0.0,1.0,0.850715,0.0,1.0,1.0,1.0,1.0,lip_gloss_06s.jpg,0.0,clock_5_2.png,1.0,75,,,,,,,,,,,,,,,,,,,,,,,,,,,,,,,,
1.0,1.0,0.780135,0.0,2.0,2.0,2.0,1.0,lip_gloss_06s.jpg,1.0,clock_5_3.png,1.0,75,,,,,,,,,,,,,,,,,,,,,,,,,,,,,,,,
0.0,1.0,0.681035,0.0,3.0,3.0,3.0,1.0,crab_16s.jpg,0.0,clock_5_4.png,1.0,75,,,,,,,,,,,,,,,,,,,,,,,,,,,,,,,,
0.0,1.0,0.645145,0.0,4.0,4.0,4.0,1.0,omelet_07s.jpg,0.0,clock_5_5.png,1.0,75,,,,,,,,,,,,,,,,,,,,,,,,,,,,,,,,
0.0,1.0,0.46817,0.0,5.0,5.0,5.0,1.0,briefcase_03s.jpg,0.0,clock_6_1.png,2.0,75,,,,,,,,,,,,,,,,,,,,,,,,,,,,,,,,
0.0,1.0,0.46375,0.0,6.0,6.0,6.0,1.0,stopwatch_04s.jpg,0.0,clock_6_2.png,2.0,75,,,,,,,,,,,,,,,,,,,,,,,,,,,,,,,,
0.0,1.0,0.467285,0.0,7.0,7.0,7.0,1.0,insole_11s.jpg,0.0,clock_6_3.png,2.0,75,,,,,,,,,,,,,,,,,,,,,,,,,,,,,,,,
1.0,1.0,1.28443,0.0,8.0,8.0,8.0,1.0,briefcase_03s.jpg,1.0,clock_6_4.png,2.0,75,,,,,,,,,,,,,,,,,,,,,,,,,,,,,,,,
0.0,1.0,0.55679,0.0,9.0,9.0,9.0,1.0,beard_16s.jpg,0.0,clock_6_5.png,2.0,75,,,,,,,,,,,,,,,,,,,,,,,,,,,,,,,,
0.0,1.0,0.67,0.0,10.0,10.0,10.0,1.0,thorn_13s.jpg,0.0,clock_6_6.png,2.0,75,,,,,,,,,,,,,,,,,,,,,,,,,,,,,,,,
0.0,1.0,0.765005,0.0,11.0,11.0,11.0,1.0,ostrich_06s.jpg,0.0,clock_6_1.png,3.0,75,,,,,,,,,,,,,,,,,,,,,,,,,,,,,,,,
0.0,1.0,0.523865,0.0,12.0,12.0,12.0,1.0,razor_12s.jpg,0.0,clock_6_2.png,3.0,75,,,,,,,,,,,,,,,,,,,,,,,,,,,,,,,,
0.0,1.0,0.58838,0.0,13.0,13.0,13.0,1.0,onion_10s.jpg,0.0,clock_6_3.png,3.0,75,,,,,,,,,,,,,,,,,,,,,,,,,,,,,,,,
0.0,1.0,0.514155,0.0,14.0,14.0,14.0,1.0,olive_05s.jpg,0.0,clock_6_4.png,3.0,75,,,,,,,,,,,,,,,,,,,,,,,,,,,,,,,,
0.0,1.0,0.59652,0.0,15.0,15.0,15.0,1.0,pump_11s.jpg,0.0,clock_6_5.png,3.0,75,,,,,,,,,,,,,,,,,,,,,,,,,,,,,,,,
0.0,1.0,0.55084,0.0,16.0,16.0,16.0,1.0,perfume_06s.jpg,0.0,clock_6_6.png,3.0,75,,,,,,,,,,,,,,,,,,,,,,,,,,,,,,,,
0.0,1.0,0.602115,0.0,17.0,17.0,17.0,1.0,gas_mask_11s.jpg,0.0,clock_7_1.png,4.0,75,,,,,,,,,,,,,,,,,,,,,,,,,,,,,,,,
0.0,1.0,0.483185,0.0,18.0,18.0,18.0,1.0,powder_07s.jpg,0.0,clock_7_2.png,4.0,75,,,,,,,,,,,,,,,,,,,,,,,,,,,,,,,,
0.0,1.0,0.679955,0.0,19.0,19.0,19.0,1.0,quad_04s.jpg,0.0,clock_7_3.png,4.0,75,,,,,,,,,,,,,,,,,,,,,,,,,,,,,,,,
0.0,1.0,0.731195,0.0,20.0,20.0,20.0,1.0,chalice_10s.jpg,0.0,clock_7_4.png,4.0,75,,,,,,,,,,,,,,,,,,,,,,,,,,,,,,,,
1.0,1.0,1.07352,0.0,21.0,21.0,21.0,1.0,chalice_10s.jpg,1.0,clock_7_5.png,4.0,75,,,,,,,,,,,,,,,,,,,,,,,,,,,,,,,,
0.0,1.0,0.56361,0.0,22.0,22.0,22.0,1.0,pencil02a.jpg,0.0,clock_7_6.png,4.0,75,,,,,,,,,,,,,,,,,,,,,,,,,,,,,,,,
1.0,1.0,0.89983,0.0,23.0,23.0,23.0,1.0,quad_04s.jpg,1.0,clock_7_7.png,4.0,75,,,,,,,,,,,,,,,,,,,,,,,,,,,,,,,,
0.0,1.0,0.450655,0.0,24.0,24.0,24.0,1.0,outlet_10s.jpg,0.0,clock_5_1.png,5.0,75,,,,,,,,,,,,,,,,,,,,,,,,,,,,,,,,
0.0,1.0,0.518,0.0,25.0,25.0,25.0,1.0,pie_08s.jpg,0.0,clock_5_2.png,5.0,75,,,,,,,,,,,,,,,,,,,,,,,,,,,,,,,,
0.0,1.0,0.58414,0.0,26.0,26.0,26.0,1.0,coat_rack_01b.jpg,0.0,clock_5_3.png,5.0,75,,,,,,,,,,,,,,,,,,,,,,,,,,,,,,,,
1.0,1.0,0.8502,0.0,27.0,27.0,27.0,1.0,pie_08s.jpg,1.0,clock_5_4.png,5.0,75,,,,,,,,,,,,,,,,,,,,,,,,,,,,,,,,
0.0,1.0,0.59699,0.0,28.0,28.0,28.0,1.0,basket_05s.jpg,0.0,clock_5_5.png,5.0,75,,,,,,,,,,,,,,,,,,,,,,,,,,,,,,,,
0.0,1.0,0.64008,0.0,29.0,29.0,29.0,1.0,totem_pole_05s.jpg,0.0,clock_7_1.png,6.0,75,,,,,,,,,,,,,,,,,,,,,,,,,,,,,,,,
0.0,1.0,0.546745,0.0,30.0,30.0,30.0,1.0,latch_15s.jpg,0.0,clock_7_2.png,6.0,75,,,,,,,,,,,,,,,,,,,,,,,,,,,,,,,,
0.0,1.0,0.58044,0.0,31.0,31.0,31.0,1.0,sundae_08s.jpg,0.0,clock_7_3.png,6.0,75,,,,,,,,,,,,,,,,,,,,,,,,,,,,,,,,
0.0,1.0,1.339285,0.0,32.0,32.0,32.0,1.0,basket_05s.jpg,0.0,clock_7_4.png,6.0,75,,,,,,,,,,,,,,,,,,,,,,,,,,,,,,,,
0.0,1.0,0.733735,0.0,33.0,33.0,33.0,1.0,rope_16s.jpg,0.0,clock_7_5.png,6.0,75,,,,,,,,,,,,,,,,,,,,,,,,,,,,,,,,
0.0,1.0,0.556965,0.0,34.0,34.0,34.0,1.0,microwave_02s.jpg,0.0,clock_7_6.png,6.0,75,,,,,,,,,,,,,,,,,,,,,,,,,,,,,,,,
1.0,1.0,1.0235,0.0,35.0,35.0,35.0,1.0,rope_16s.jpg,1.0,clock_7_7.png,6.0,75,,,,,,,,,,,,,,,,,,,,,,,,,,,,,,,,
,,,,,,,,,1.0,,,75,1.0,1.0,0.948565,0.0,0.0,0.0,0.0,1.0,coat_rack_01b.jpg,totem_pole_05s.jpg,,,,,,,,,,,,,,,,,,,,,,
,,,,,,,,,0.0,,,75,1.0,0.0,0.89918,0.0,1.0,1.0,1.0,1.0,stopwatch_04s.jpg,crab_16s.jpg,,,,,,,,,,,,,,,,,,,,,,
,,,,,,,,,1.0,,,75,1.0,1.0,1.16564,0.0,2.0,2.0,2.0,1.0,omelet_07s.jpg,insole_11s.jpg,,,,,,,,,,,,,,,,,,,,,,
,,,,,,,,,0.0,,,75,0.0,1.0,1.29715,0.0,3.0,3.0,3.0,1.0,microwave_02s.jpg,sundae_08s.jpg,,,,,,,,,,,,,,,,,,,,,,
,,,,,,,,,0.0,,,75,1.0,0.0,1.01524,0.0,4.0,4.0,4.0,1.0,perfume_06s.jpg,onion_10s.jpg,,,,,,,,,,,,,,,,,,,,,,
,,,,,,,,,1.0,,,75,0.0,0.0,1.101375,0.0,5.0,5.0,5.0,1.0,razor_12s.jpg,pump_11s.jpg,,,,,,,,,,,,,,,,,,,,,,
,,,,,,,,,,,,75,,,,,,,,,,,0.0,1.0,1.0,1.0,1.0,clock_present_2_6.xlsx,clock_compare_task_2_6.xlsx,,,,,,,,,,,,,,,
0.0,1.0,0.70148,0.0,0.0,0.0,0.0,1.0,amber_04s.jpg,0.0,clock_7_1.png,1.0,75,,,,,,,,,,,,,,,,,,,,,,,,,,,,,,,,
0.0,1.0,0.571535,0.0,1.0,1.0,1.0,1.0,mascara_03s.jpg,0.0,clock_7_2.png,1.0,75,,,,,,,,,,,,,,,,,,,,,,,,,,,,,,,,
1.0,1.0,0.71559,0.0,2.0,2.0,2.0,1.0,mascara_03s.jpg,1.0,clock_7_3.png,1.0,75,,,,,,,,,,,,,,,,,,,,,,,,,,,,,,,,
0.0,1.0,0.70197,0.0,3.0,3.0,3.0,1.0,printer_09s.jpg,0.0,clock_7_4.png,1.0,75,,,,,,,,,,,,,,,,,,,,,,,,,,,,,,,,
0.0,1.0,0.6468,0.0,4.0,4.0,4.0,1.0,smokingpipe.jpg,0.0,clock_7_5.png,1.0,75,,,,,,,,,,,,,,,,,,,,,,,,,,,,,,,,
0.0,1.0,0.76417,0.0,5.0,5.0,5.0,1.0,trampoline_13s.jpg,0.0,clock_7_6.png,1.0,75,,,,,,,,,,,,,,,,,,,,,,,,,,,,,,,,
1.0,1.0,1.30075,0.0,6.0,6.0,6.0,1.0,printer_09s.jpg,1.0,clock_7_7.png,1.0,75,,,,,,,,,,,,,,,,,,,,,,,,,,,,,,,,
0.0,1.0,0.739785,0.0,7.0,7.0,7.0,1.0,stump_02s.jpg,0.0,clock_6_1.png,2.0,75,,,,,,,,,,,,,,,,,,,,,,,,,,,,,,,,
0.0,1.0,0.547895,0.0,8.0,8.0,8.0,1.0,pumpkin_03s.jpg,0.0,clock_6_2.png,2.0,75,,,,,,,,,,,,,,,,,,,,,,,,,,,,,,,,
0.0,1.0,0.79674,0.0,9.0,9.0,9.0,1.0,syringe_02s.jpg,0.0,clock_6_3.png,2.0,75,,,,,,,,,,,,,,,,,,,,,,,,,,,,,,,,
0.0,1.0,0.956625,0.0,10.0,10.0,10.0,1.0,lid_10s.jpg,0.0,clock_6_4.png,2.0,75,,,,,,,,,,,,,,,,,,,,,,,,,,,,,,,,
0.0,1.0,0.5824,0.0,11.0,11.0,11.0,1.0,muffin_12n.jpg,0.0,clock_6_5.png,2.0,75,,,,,,,,,,,,,,,,,,,,,,,,,,,,,,,,
1.0,1.0,1.114305,0.0,12.0,12.0,12.0,1.0,syringe_02s.jpg,1.0,clock_6_6.png,2.0,75,,,,,,,,,,,,,,,,,,,,,,,,,,,,,,,,
0.0,1.0,1.056845,0.0,13.0,13.0,13.0,1.0,frog_09s.jpg,0.0,clock_5_1.png,3.0,75,,,,,,,,,,,,,,,,,,,,,,,,,,,,,,,,
0.0,1.0,0.879625,0.0,14.0,14.0,14.0,1.0,sunglasses_11s.jpg,0.0,clock_5_2.png,3.0,75,,,,,,,,,,,,,,,,,,,,,,,,,,,,,,,,
0.0,1.0,0.77048,0.0,15.0,15.0,15.0,1.0,printer_09s.jpg,0.0,clock_5_3.png,3.0,75,,,,,,,,,,,,,,,,,,,,,,,,,,,,,,,,
1.0,1.0,0.60232,0.0,16.0,16.0,16.0,1.0,frog_09s.jpg,1.0,clock_5_4.png,3.0,75,,,,,,,,,,,,,,,,,,,,,,,,,,,,,,,,
0.0,1.0,0.53657,0.0,17.0,17.0,17.0,1.0,jigsaw_puzzle_11s.jpg,0.0,clock_5_5.png,3.0,75,,,,,,,,,,,,,,,,,,,,,,,,,,,,,,,,
0.0,1.0,0.597635,0.0,18.0,18.0,18.0,1.0,gong_02s.jpg,0.0,clock_7_1.png,4.0,75,,,,,,,,,,,,,,,,,,,,,,,,,,,,,,,,
1.0,1.0,0.753025,0.0,19.0,19.0,19.0,1.0,gong_02s.jpg,1.0,clock_7_2.png,4.0,75,,,,,,,,,,,,,,,,,,,,,,,,,,,,,,,,
0.0,1.0,0.712985,0.0,20.0,20.0,20.0,1.0,chip_04s.jpg,0.0,clock_7_3.png,4.0,75,,,,,,,,,,,,,,,,,,,,,,,,,,,,,,,,
0.0,1.0,0.683685,0.0,21.0,21.0,21.0,1.0,tripod_01b.jpg,0.0,clock_7_4.png,4.0,75,,,,,,,,,,,,,,,,,,,,,,,,,,,,,,,,
0.0,1.0,0.516645,0.0,22.0,22.0,22.0,1.0,pepper_mill_03s.jpg,0.0,clock_7_5.png,4.0,75,,,,,,,,,,,,,,,,,,,,,,,,,,,,,,,,
1.0,1.0,1.299275,0.0,23.0,23.0,23.0,1.0,gong_02s.jpg,1.0,clock_7_6.png,4.0,75,,,,,,,,,,,,,,,,,,,,,,,,,,,,,,,,
0.0,1.0,0.566895,0.0,24.0,24.0,24.0,1.0,pomegranate_04s.jpg,0.0,clock_7_7.png,4.0,75,,,,,,,,,,,,,,,,,,,,,,,,,,,,,,,,
0.0,1.0,0.548155,0.0,25.0,25.0,25.0,1.0,funnel_01b.jpg,0.0,clock_5_1.png,5.0,75,,,,,,,,,,,,,,,,,,,,,,,,,,,,,,,,
0.0,1.0,0.733285,0.0,26.0,26.0,26.0,1.0,air_pump_05s.jpg,0.0,clock_5_2.png,5.0,75,,,,,,,,,,,,,,,,,,,,,,,,,,,,,,,,
1.0,1.0,1.017275,0.0,27.0,27.0,27.0,1.0,funnel_01b.jpg,1.0,clock_5_3.png,5.0,75,,,,,,,,,,,,,,,,,,,,,,,,,,,,,,,,
1.0,1.0,0.736865,0.0,28.0,28.0,28.0,1.0,funnel_01b.jpg,1.0,clock_5_4.png,5.0,75,,,,,,,,,,,,,,,,,,,,,,,,,,,,,,,,
0.0,1.0,1.4644,0.0,29.0,29.0,29.0,1.0,fork_04s.jpg,0.0,clock_5_5.png,5.0,75,,,,,,,,,,,,,,,,,,,,,,,,,,,,,,,,
0.0,1.0,0.794765,0.0,30.0,30.0,30.0,1.0,cape_11s.jpg,0.0,clock_6_1.png,6.0,75,,,,,,,,,,,,,,,,,,,,,,,,,,,,,,,,
0.0,1.0,0.546995,0.0,31.0,31.0,31.0,1.0,machine_gun_09s.jpg,0.0,clock_6_2.png,6.0,75,,,,,,,,,,,,,,,,,,,,,,,,,,,,,,,,
0.0,1.0,0.561755,0.0,32.0,32.0,32.0,1.0,timer_03s.jpg,0.0,clock_6_3.png,6.0,75,,,,,,,,,,,,,,,,,,,,,,,,,,,,,,,,
0.0,1.0,0.52969,0.0,33.0,33.0,33.0,1.0,spoon02a.jpg,0.0,clock_6_4.png,6.0,75,,,,,,,,,,,,,,,,,,,,,,,,,,,,,,,,
0.0,1.0,0.875215,0.0,34.0,34.0,34.0,1.0,lid_10s.jpg,0.0,clock_6_5.png,6.0,75,,,,,,,,,,,,,,,,,,,,,,,,,,,,,,,,
0.0,1.0,0.603415,0.0,35.0,35.0,35.0,1.0,reindeer_08s.jpg,0.0,clock_6_6.png,6.0,75,,,,,,,,,,,,,,,,,,,,,,,,,,,,,,,,
,,,,,,,,,1.0,,,75,0.0,0.0,0.8474,0.0,0.0,0.0,0.0,1.0,smokingpipe.jpg,stump_02s.jpg,,,,,,,,,,,,,,,,,,,,,,
,,,,,,,,,0.0,,,75,1.0,0.0,1.274995,0.0,1.0,1.0,1.0,1.0,pumpkin_03s.jpg,trampoline_13s.jpg,,,,,,,,,,,,,,,,,,,,,,
,,,,,,,,,1.0,,,75,1.0,1.0,0.916575,0.0,2.0,2.0,2.0,1.0,jigsaw_puzzle_11s.jpg,chip_04s.jpg,,,,,,,,,,,,,,,,,,,,,,
,,,,,,,,,1.0,,,75,1.0,1.0,1.099885,0.0,3.0,3.0,3.0,1.0,tripod_01b.jpg,pomegranate_04s.jpg,,,,,,,,,,,,,,,,,,,,,,
,,,,,,,,,1.0,,,75,0.0,0.0,0.899165,0.0,4.0,4.0,4.0,1.0,cape_11s.jpg,spoon02a.jpg,,,,,,,,,,,,,,,,,,,,,,
,,,,,,,,,0.0,,,75,0.0,1.0,0.976605,0.0,5.0,5.0,5.0,1.0,fork_04s.jpg,air_pump_05s.jpg,,,,,,,,,,,,,,,,,,,,,,
,,,,,,,,,,,,75,,,,,,,,,,,0.0,2.0,2.0,2.0,1.0,clock_present_3_6.xlsx,clock_compare_task_3_6.xlsx,,,,,,,,,,,,,,,
0.0,1.0,0.760335,0.0,0.0,0.0,0.0,1.0,radiator_05s.jpg,0.0,clock_6_1.png,1.0,75,,,,,,,,,,,,,,,,,,,,,,,,,,,,,,,,
1.0,1.0,1.00605,0.0,1.0,1.0,1.0,1.0,radiator_05s.jpg,1.0,clock_6_2.png,1.0,75,,,,,,,,,,,,,,,,,,,,,,,,,,,,,,,,
0.0,1.0,0.640045,0.0,2.0,2.0,2.0,1.0,kilt_18s.jpg,0.0,clock_6_3.png,1.0,75,,,,,,,,,,,,,,,,,,,,,,,,,,,,,,,,
0.0,1.0,0.639745,0.0,3.0,3.0,3.0,1.0,lavender_10s.jpg,0.0,clock_6_4.png,1.0,75,,,,,,,,,,,,,,,,,,,,,,,,,,,,,,,,
1.0,1.0,1.016215,0.0,4.0,4.0,4.0,1.0,kilt_18s.jpg,1.0,clock_6_5.png,1.0,75,,,,,,,,,,,,,,,,,,,,,,,,,,,,,,,,
0.0,1.0,0.52441,0.0,5.0,5.0,5.0,1.0,undershirt_02s.jpg,0.0,clock_6_6.png,1.0,75,,,,,,,,,,,,,,,,,,,,,,,,,,,,,,,,
0.0,1.0,0.667995,0.0,6.0,6.0,6.0,1.0,coconut_08s.jpg,0.0,clock_7_1.png,2.0,75,,,,,,,,,,,,,,,,,,,,,,,,,,,,,,,,
0.0,1.0,0.516215,0.0,7.0,7.0,7.0,1.0,refrigerator_07s.jpg,0.0,clock_7_2.png,2.0,75,,,,,,,,,,,,,,,,,,,,,,,,,,,,,,,,
0.0,1.0,0.59938,0.0,8.0,8.0,8.0,1.0,feather02.jpg,0.0,clock_7_3.png,2.0,75,,,,,,,,,,,,,,,,,,,,,,,,,,,,,,,,
0.0,1.0,0.71494,0.0,9.0,9.0,9.0,1.0,ivy_12s.jpg,0.0,clock_7_4.png,2.0,75,,,,,,,,,,,,,,,,,,,,,,,,,,,,,,,,
0.0,1.0,0.59513,0.0,10.0,10.0,10.0,1.0,tab_09s.jpg,0.0,clock_7_5.png,2.0,75,,,,,,,,,,,,,,,,,,,,,,,,,,,,,,,,
0.0,1.0,0.615195,0.0,11.0,11.0,11.0,1.0,fossil_06s.jpg,0.0,clock_7_6.png,2.0,75,,,,,,,,,,,,,,,,,,,,,,,,,,,,,,,,
0.0,1.0,0.54775,0.0,12.0,12.0,12.0,1.0,puppy_08s.jpg,0.0,clock_7_7.png,2.0,75,,,,,,,,,,,,,,,,,,,,,,,,,,,,,,,,
0.0,1.0,0.91325,0.0,13.0,13.0,13.0,1.0,flip_flop_03s.jpg,0.0,clock_7_1.png,3.0,75,,,,,,,,,,,,,,,,,,,,,,,,,,,,,,,,
0.0,1.0,0.513825,0.0,14.0,14.0,14.0,1.0,slingshot_07s.jpg,0.0,clock_7_2.png,3.0,75,,,,,,,,,,,,,,,,,,,,,,,,,,,,,,,,
1.0,1.0,1.14164,0.0,15.0,15.0,15.0,1.0,flip_flop_03s.jpg,1.0,clock_7_3.png,3.0,75,,,,,,,,,,,,,,,,,,,,,,,,,,,,,,,,
0.0,1.0,0.613935,0.0,16.0,16.0,16.0,1.0,gargoyle_08s.jpg,0.0,clock_7_4.png,3.0,75,,,,,,,,,,,,,,,,,,,,,,,,,,,,,,,,
0.0,1.0,0.817305,0.0,17.0,17.0,17.0,1.0,undershirt_02s.jpg,0.0,clock_7_5.png,3.0,75,,,,,,,,,,,,,,,,,,,,,,,,,,,,,,,,
0.0,1.0,0.68795,0.0,18.0,18.0,18.0,1.0,toilet_paper_12s.jpg,0.0,clock_7_6.png,3.0,75,,,,,,,,,,,,,,,,,,,,,,,,,,,,,,,,
1.0,1.0,0.70546,0.0,19.0,19.0,19.0,1.0,flip_flop_03s.jpg,1.0,clock_7_7.png,3.0,75,,,,,,,,,,,,,,,,,,,,,,,,,,,,,,,,
0.0,1.0,0.58224,0.0,20.0,20.0,20.0,1.0,rocket_02s.jpg,0.0,clock_6_1.png,4.0,75,,,,,,,,,,,,,,,,,,,,,,,,,,,,,,,,
0.0,1.0,0.567145,0.0,21.0,21.0,21.0,1.0,tattoo_14s.jpg,0.0,clock_6_2.png,4.0,75,,,,,,,,,,,,,,,,,,,,,,,,,,,,,,,,
0.0,1.0,0.570485,0.0,22.0,22.0,22.0,1.0,ukulele_02s.jpg,0.0,clock_6_3.png,4.0,75,,,,,,,,,,,,,,,,,,,,,,,,,,,,,,,,
0.0,1.0,0.601785,0.0,23.0,23.0,23.0,1.0,latte_06s.jpg,0.0,clock_6_4.png,4.0,75,,,,,,,,,,,,,,,,,,,,,,,,,,,,,,,,
0.0,1.0,0.72998,0.0,24.0,24.0,24.0,1.0,petri_dish_12s.jpg,0.0,clock_6_5.png,4.0,75,,,,,,,,,,,,,,,,,,,,,,,,,,,,,,,,
0.0,1.0,0.61606,0.0,25.0,25.0,25.0,1.0,tablet_04s.jpg,0.0,clock_6_6.png,4.0,75,,,,,,,,,,,,,,,,,,,,,,,,,,,,,,,,
0.0,1.0,0.67037,0.0,26.0,26.0,26.0,1.0,projector_08s.jpg,0.0,clock_5_1.png,5.0,75,,,,,,,,,,,,,,,,,,,,,,,,,,,,,,,,
1.0,1.0,1.031365,0.0,27.0,27.0,27.0,1.0,projector_08s.jpg,1.0,clock_5_2.png,5.0,75,,,,,,,,,,,,,,,,,,,,,,,,,,,,,,,,
1.0,1.0,0.800155,0.0,28.0,28.0,28.0,1.0,projector_08s.jpg,1.0,clock_5_3.png,5.0,75,,,,,,,,,,,,,,,,,,,,,,,,,,,,,,,,
0.0,1.0,0.73807,0.0,29.0,29.0,29.0,1.0,cushion_08s.jpg,0.0,clock_5_4.png,5.0,75,,,,,,,,,,,,,,,,,,,,,,,,,,,,,,,,
0.0,1.0,0.56386,0.0,30.0,30.0,30.0,1.0,tomato_sauce_09s.jpg,0.0,clock_5_5.png,5.0,75,,,,,,,,,,,,,,,,,,,,,,,,,,,,,,,,
0.0,1.0,0.662195,0.0,31.0,31.0,31.0,1.0,espresso_01b.jpg,0.0,clock_5_1.png,6.0,75,,,,,,,,,,,,,,,,,,,,,,,,,,,,,,,,
0.0,1.0,0.597905,0.0,32.0,32.0,32.0,1.0,telephone_pole_05s.jpg,0.0,clock_5_2.png,6.0,75,,,,,,,,,,,,,,,,,,,,,,,,,,,,,,,,
0.0,1.0,0.622835,0.0,33.0,33.0,33.0,1.0,exhaust_pipe_10s.jpg,0.0,clock_5_3.png,6.0,75,,,,,,,,,,,,,,,,,,,,,,,,,,,,,,,,
0.0,1.0,0.63355,0.0,34.0,34.0,34.0,1.0,pantyhose_07s.jpg,0.0,clock_5_4.png,6.0,75,,,,,,,,,,,,,,,,,,,,,,,,,,,,,,,,
1.0,1.0,0.838175,0.0,35.0,35.0,35.0,1.0,exhaust_pipe_10s.jpg,1.0,clock_5_5.png,6.0,75,,,,,,,,,,,,,,,,,,,,,,,,,,,,,,,,
,,,,,,,,,0.0,,,75,1.0,0.0,1.04953,0.0,0.0,0.0,0.0,1.0,telephone_pole_05s.jpg,cushion_08s.jpg,,,,,,,,,,,,,,,,,,,,,,
,,,,,,,,,1.0,,,75,0.0,0.0,0.9498,0.0,1.0,1.0,1.0,1.0,lavender_10s.jpg,coconut_08s.jpg,,,,,,,,,,,,,,,,,,,,,,
,,,,,,,,,1.0,,,75,0.0,0.0,0.96537,0.0,2.0,2.0,2.0,1.0,fossil_06s.jpg,slingshot_07s.jpg,,,,,,,,,,,,,,,,,,,,,,
,,,,,,,,,0.0,,,75,1.0,0.0,1.18985,0.0,3.0,3.0,3.0,1.0,tab_09s.jpg,refrigerator_07s.jpg,,,,,,,,,,,,,,,,,,,,,,
,,,,,,,,,1.0,,,75,0.0,0.0,1.00108,0.0,4.0,4.0,4.0,1.0,ivy_12s.jpg,puppy_08s.jpg,,,,,,,,,,,,,,,,,,,,,,
,,,,,,,,,0.0,,,75,1.0,0.0,0.966835,0.0,5.0,5.0,5.0,1.0,latte_06s.jpg,rocket_02s.jpg,,,,,,,,,,,,,,,,,,,,,,
,,,,,,,,,,,,75,,,,,,,,,,,0.0,3.0,3.0,3.0,1.0,clock_present_4_6.xlsx,clock_compare_task_4_6.xlsx,,,,,,,,,,,,,,,
0.0,1.0,0.741515,0.0,0.0,0.0,0.0,1.0,mask_09s.jpg,0.0,clock_6_1.png,1.0,75,,,,,,,,,,,,,,,,,,,,,,,,,,,,,,,,
0.0,1.0,0.71486,0.0,1.0,1.0,1.0,1.0,lab_coat_11s.jpg,0.0,clock_6_2.png,1.0,75,,,,,,,,,,,,,,,,,,,,,,,,,,,,,,,,
0.0,1.0,0.51719,0.0,2.0,2.0,2.0,1.0,radio_09s.jpg,0.0,clock_6_3.png,1.0,75,,,,,,,,,,,,,,,,,,,,,,,,,,,,,,,,
0.0,1.0,0.62499,0.0,3.0,3.0,3.0,1.0,breadstick_08s.jpg,0.0,clock_6_4.png,1.0,75,,,,,,,,,,,,,,,,,,,,,,,,,,,,,,,,
0.0,1.0,0.635165,0.0,4.0,4.0,4.0,1.0,mousetrap_15n.jpg,0.0,clock_6_5.png,1.0,75,,,,,,,,,,,,,,,,,,,,,,,,,,,,,,,,
0.0,1.0,0.554225,0.0,5.0,5.0,5.0,1.0,flask_04s.jpg,0.0,clock_6_6.png,1.0,75,,,,,,,,,,,,,,,,,,,,,,,,,,,,,,,,
0.0,1.0,0.597105,0.0,6.0,6.0,6.0,1.0,orange_12s.jpg,0.0,clock_5_1.png,2.0,75,,,,,,,,,,,,,,,,,,,,,,,,,,,,,,,,
0.0,1.0,0.51458,0.0,7.0,7.0,7.0,1.0,mannequin_05s.jpg,0.0,clock_5_2.png,2.0,75,,,,,,,,,,,,,,,,,,,,,,,,,,,,,,,,
0.0,1.0,0.707345,0.0,8.0,8.0,8.0,1.0,bean_06s.jpg,0.0,clock_5_3.png,2.0,75,,,,,,,,,,,,,,,,,,,,,,,,,,,,,,,,
0.0,1.0,0.605795,0.0,9.0,9.0,9.0,1.0,stamp2_08s.jpg,0.0,clock_5_4.png,2.0,75,,,,,,,,,,,,,,,,,,,,,,,,,,,,,,,,
0.0,1.0,0.56513,0.0,10.0,10.0,10.0,1.0,mosquito_12s.jpg,0.0,clock_5_5.png,2.0,75,,,,,,,,,,,,,,,,,,,,,,,,,,,,,,,,
0.0,1.0,0.52944,0.0,11.0,11.0,11.0,1.0,leotard_08s.jpg,0.0,clock_7_1.png,3.0,75,,,,,,,,,,,,,,,,,,,,,,,,,,,,,,,,
1.0,1.0,0.598605,0.0,12.0,12.0,12.0,1.0,leotard_08s.jpg,1.0,clock_7_2.png,3.0,75,,,,,,,,,,,,,,,,,,,,,,,,,,,,,,,,
0.0,1.0,0.462295,0.0,13.0,13.0,13.0,1.0,juicer2_06s.jpg,0.0,clock_7_3.png,3.0,75,,,,,,,,,,,,,,,,,,,,,,,,,,,,,,,,
0.0,1.0,0.94097,0.0,14.0,14.0,14.0,1.0,breadstick_08s.jpg,0.0,clock_7_4.png,3.0,75,,,,,,,,,,,,,,,,,,,,,,,,,,,,,,,,
0.0,1.0,0.89432,0.0,15.0,15.0,15.0,1.0,blazer_02s.jpg,0.0,clock_7_5.png,3.0,75,,,,,,,,,,,,,,,,,,,,,,,,,,,,,,,,
0.0,1.0,0.620735,0.0,16.0,16.0,16.0,1.0,puddle_02s.jpg,0.0,clock_7_6.png,3.0,75,,,,,,,,,,,,,,,,,,,,,,,,,,,,,,,,
1.0,1.0,0.986435,0.0,17.0,17.0,17.0,1.0,puddle_02s.jpg,1.0,clock_7_7.png,3.0,75,,,,,,,,,,,,,,,,,,,,,,,,,,,,,,,,
0.0,1.0,0.469415,0.0,18.0,18.0,18.0,1.0,bathtub_23s.jpg,0.0,clock_6_1.png,4.0,75,,,,,,,,,,,,,,,,,,,,,,,,,,,,,,,,
1.0,1.0,0.732455,0.0,19.0,19.0,19.0,1.0,bathtub_23s.jpg,1.0,clock_6_2.png,4.0,75,,,,,,,,,,,,,,,,,,,,,,,,,,,,,,,,
0.0,1.0,0.612405,0.0,20.0,20.0,20.0,1.0,target_11s.jpg,0.0,clock_6_3.png,4.0,75,,,,,,,,,,,,,,,,,,,,,,,,,,,,,,,,
0.0,1.0,1.081125,0.0,21.0,21.0,21.0,1.0,tiger_06s.jpg,0.0,clock_6_4.png,4.0,75,,,,,,,,,,,,,,,,,,,,,,,,,,,,,,,,
0.0,1.0,1.273145,0.0,22.0,22.0,22.0,1.0,toad_09s.jpg,0.0,clock_6_5.png,4.0,75,,,,,,,,,,,,,,,,,,,,,,,,,,,,,,,,
0.0,1.0,0.64568,0.0,23.0,23.0,23.0,1.0,jalapeno_15s.jpg,0.0,clock_6_6.png,4.0,75,,,,,,,,,,,,,,,,,,,,,,,,,,,,,,,,
0.0,1.0,0.581765,0.0,24.0,24.0,24.0,1.0,emerald_02s.jpg,0.0,clock_7_1.png,5.0,75,,,,,,,,,,,,,,,,,,,,,,,,,,,,,,,,
1.0,1.0,0.839655,0.0,25.0,25.0,25.0,1.0,emerald_02s.jpg,1.0,clock_7_2.png,5.0,75,,,,,,,,,,,,,,,,,,,,,,,,,,,,,,,,
0.0,1.0,0.62945,0.0,26.0,26.0,26.0,1.0,ticktacktoe_08s.jpg,0.0,clock_7_3.png,5.0,75,,,,,,,,,,,,,,,,,,,,,,,,,,,,,,,,
1.0,1.0,0.870685,0.0,27.0,27.0,27.0,1.0,ticktacktoe_08s.jpg,1.0,clock_7_4.png,5.0,75,,,,,,,,,,,,,,,,,,,,,,,,,,,,,,,,
0.0,1.0,0.5504,0.0,28.0,28.0,28.0,1.0,spacesuit_02s.jpg,0.0,clock_7_5.png,5.0,75,,,,,,,,,,,,,,,,,,,,,,,,,,,,,,,,
0.0,1.0,0.59676,0.0,29.0,29.0,29.0,1.0,sledgehammer_03s.jpg,0.0,clock_7_6.png,5.0,75,,,,,,,,,,,,,,,,,,,,,,,,,,,,,,,,
0.0,1.0,0.630195,0.0,30.0,30.0,30.0,1.0,rhubarb_03s.jpg,0.0,clock_7_7.png,5.0,75,,,,,,,,,,,,,,,,,,,,,,,,,,,,,,,,
0.0,1.0,0.622605,0.0,31.0,31.0,31.0,1.0,kite_04s.jpg,0.0,clock_5_1.png,6.0,75,,,,,,,,,,,,,,,,,,,,,,,,,,,,,,,,
0.0,1.0,0.51799,0.0,32.0,32.0,32.0,1.0,birdcage_08s.jpg,0.0,clock_5_2.png,6.0,75,,,,,,,,,,,,,,,,,,,,,,,,,,,,,,,,
0.0,1.0,0.605855,0.0,33.0,33.0,33.0,1.0,crate_05s.jpg,0.0,clock_5_3.png,6.0,75,,,,,,,,,,,,,,,,,,,,,,,,,,,,,,,,
0.0,1.0,0.44988,0.0,34.0,34.0,34.0,1.0,go-kart_10s.jpg,0.0,clock_5_4.png,6.0,75,,,,,,,,,,,,,,,,,,,,,,,,,,,,,,,,
1.0,1.0,0.945825,0.0,35.0,35.0,35.0,1.0,crate_05s.jpg,1.0,clock_5_5.png,6.0,75,,,,,,,,,,,,,,,,,,,,,,,,,,,,,,,,
,,,,,,,,,1.0,,,75,1.0,1.0,1.09253,0.0,0.0,0.0,0.0,1.0,sledgehammer_03s.jpg,birdcage_08s.jpg,,,,,,,,,,,,,,,,,,,,,,
,,,,,,,,,1.0,,,75,1.0,1.0,1.082705,0.0,1.0,1.0,1.0,1.0,flask_04s.jpg,bean_06s.jpg,,,,,,,,,,,,,,,,,,,,,,
,,,,,,,,,0.0,,,75,0.0,1.0,0.930095,0.0,2.0,2.0,2.0,1.0,juicer2_06s.jpg,mosquito_12s.jpg,,,,,,,,,,,,,,,,,,,,,,
,,,,,,,,,1.0,,,75,0.0,0.0,1.0488,0.0,3.0,3.0,3.0,1.0,orange_12s.jpg,stamp2_08s.jpg,,,,,,,,,,,,,,,,,,,,,,
,,,,,,,,,0.0,,,75,1.0,0.0,1.002955,0.0,4.0,4.0,4.0,1.0,jalapeno_15s.jpg,target_11s.jpg,,,,,,,,,,,,,,,,,,,,,,
,,,,,,,,,0.0,,,75,0.0,1.0,0.821555,0.0,5.0,5.0,5.0,1.0,mousetrap_15n.jpg,lab_coat_11s.jpg,,,,,,,,,,,,,,,,,,,,,,
,,,,,,,,,,,,75,,,,,,,,,,,0.0,4.0,4.0,4.0,1.0,clock_present_5_6.xlsx,clock_compare_task_5_6.xlsx,,,,,,,,,,,,,,,
0.0,1.0,0.80298,0.0,0.0,0.0,0.0,1.0,playpen_11s.jpg,0.0,clock_7_1.png,1.0,75,,,,,,,,,,,,,,,,,,,,,,,,,,,,,,,,
1.0,1.0,0.69835,0.0,1.0,1.0,1.0,1.0,playpen_11s.jpg,1.0,clock_7_2.png,1.0,75,,,,,,,,,,,,,,,,,,,,,,,,,,,,,,,,
0.0,1.0,0.64681,0.0,2.0,2.0,2.0,1.0,abacus_12s.jpg,0.0,clock_7_3.png,1.0,75,,,,,,,,,,,,,,,,,,,,,,,,,,,,,,,,
0.0,1.0,0.58462,0.0,3.0,3.0,3.0,1.0,butter_14s.jpg,0.0,clock_7_4.png,1.0,75,,,,,,,,,,,,,,,,,,,,,,,,,,,,,,,,
1.0,1.0,0.98163,0.0,4.0,4.0,4.0,1.0,abacus_12s.jpg,1.0,clock_7_5.png,1.0,75,,,,,,,,,,,,,,,,,,,,,,,,,,,,,,,,
0.0,1.0,0.650895,0.0,5.0,5.0,5.0,1.0,towel_rack_04s.jpg,0.0,clock_7_6.png,1.0,75,,,,,,,,,,,,,,,,,,,,,,,,,,,,,,,,
0.0,1.0,0.62964,0.0,6.0,6.0,6.0,1.0,bee_20s.jpg,0.0,clock_7_7.png,1.0,75,,,,,,,,,,,,,,,,,,,,,,,,,,,,,,,,
0.0,1.0,1.15209,0.0,7.0,7.0,7.0,1.0,padlock_07s.jpg,0.0,clock_6_1.png,2.0,75,,,,,,,,,,,,,,,,,,,,,,,,,,,,,,,,
0.0,1.0,0.884885,0.0,8.0,8.0,8.0,1.0,butter_14s.jpg,0.0,clock_6_2.png,2.0,75,,,,,,,,,,,,,,,,,,,,,,,,,,,,,,,,
0.0,1.0,0.58045,0.0,9.0,9.0,9.0,1.0,purse_05s.jpg,0.0,clock_6_3.png,2.0,75,,,,,,,,,,,,,,,,,,,,,,,,,,,,,,,,
1.0,1.0,1.25428,0.0,10.0,10.0,10.0,1.0,butter_14s.jpg,1.0,clock_6_4.png,2.0,75,,,,,,,,,,,,,,,,,,,,,,,,,,,,,,,,
0.0,1.0,0.564225,0.0,11.0,11.0,11.0,1.0,peppermint_07s.jpg,0.0,clock_6_5.png,2.0,75,,,,,,,,,,,,,,,,,,,,,,,,,,,,,,,,
0.0,1.0,0.98927,0.0,12.0,12.0,12.0,1.0,cucumber_07s.jpg,0.0,clock_6_6.png,2.0,75,,,,,,,,,,,,,,,,,,,,,,,,,,,,,,,,
0.0,1.0,0.578655,0.0,13.0,13.0,13.0,1.0,orangutan_03s.jpg,0.0,clock_5_1.png,3.0,75,,,,,,,,,,,,,,,,,,,,,,,,,,,,,,,,
0.0,1.0,0.56353,0.0,14.0,14.0,14.0,1.0,chime_12s.jpg,0.0,clock_5_2.png,3.0,75,,,,,,,,,,,,,,,,,,,,,,,,,,,,,,,,
1.0,1.0,0.87898,0.0,15.0,15.0,15.0,1.0,orangutan_03s.jpg,1.0,clock_5_3.png,3.0,75,,,,,,,,,,,,,,,,,,,,,,,,,,,,,,,,
0.0,1.0,0.66333,0.0,16.0,16.0,16.0,1.0,turkey_10s.jpg,0.0,clock_5_4.png,3.0,75,,,,,,,,,,,,,,,,,,,,,,,,,,,,,,,,
1.0,1.0,0.799865,0.0,17.0,17.0,17.0,1.0,orangutan_03s.jpg,1.0,clock_5_5.png,3.0,75,,,,,,,,,,,,,,,,,,,,,,,,,,,,,,,,
0.0,1.0,0.564565,0.0,18.0,18.0,18.0,1.0,birthday_cake_09s.jpg,0.0,clock_5_1.png,4.0,75,,,,,,,,,,,,,,,,,,,,,,,,,,,,,,,,
0.0,1.0,0.504915,0.0,19.0,19.0,19.0,1.0,lizard_10n.jpg,0.0,clock_5_2.png,4.0,75,,,,,,,,,,,,,,,,,,,,,,,,,,,,,,,,
0.0,1.0,0.4716,0.0,20.0,20.0,20.0,1.0,lava_02s.jpg,0.0,clock_5_3.png,4.0,75,,,,,,,,,,,,,,,,,,,,,,,,,,,,,,,,
0.0,1.0,0.60214,0.0,21.0,21.0,21.0,1.0,rudder_02s.jpg,0.0,clock_5_4.png,4.0,75,,,,,,,,,,,,,,,,,,,,,,,,,,,,,,,,
0.0,1.0,0.616665,0.0,22.0,22.0,22.0,1.0,cap_05s.jpg,0.0,clock_5_5.png,4.0,75,,,,,,,,,,,,,,,,,,,,,,,,,,,,,,,,
0.0,1.0,0.633895,0.0,23.0,23.0,23.0,1.0,eggshell_14s.jpg,0.0,clock_6_1.png,5.0,75,,,,,,,,,,,,,,,,,,,,,,,,,,,,,,,,
0.0,1.0,0.49823,0.0,24.0,24.0,24.0,1.0,gear_07s.jpg,0.0,clock_6_2.png,5.0,75,,,,,,,,,,,,,,,,,,,,,,,,,,,,,,,,
0.0,1.0,0.465605,0.0,25.0,25.0,25.0,1.0,icicle_04s.jpg,0.0,clock_6_3.png,5.0,75,,,,,,,,,,,,,,,,,,,,,,,,,,,,,,,,
0.0,1.0,0.67996,0.0,26.0,26.0,26.0,1.0,submarine_11n.jpg,0.0,clock_6_4.png,5.0,75,,,,,,,,,,,,,,,,,,,,,,,,,,,,,,,,
0.0,1.0,0.62366,0.0,27.0,27.0,27.0,1.0,boar_10s.jpg,0.0,clock_6_5.png,5.0,75,,,,,,,,,,,,,,,,,,,,,,,,,,,,,,,,
0.0,1.0,0.6034,0.0,28.0,28.0,28.0,1.0,plunger_08s.jpg,0.0,clock_6_6.png,5.0,75,,,,,,,,,,,,,,,,,,,,,,,,,,,,,,,,
0.0,1.0,0.447945,0.0,29.0,29.0,29.0,1.0,ant_12s.jpg,0.0,clock_7_1.png,6.0,75,,,,,,,,,,,,,,,,,,,,,,,,,,,,,,,,
0.0,1.0,0.547565,0.0,30.0,30.0,30.0,1.0,juicer1_08s.jpg,0.0,clock_7_2.png,6.0,75,,,,,,,,,,,,,,,,,,,,,,,,,,,,,,,,
0.0,1.0,0.982,0.0,31.0,31.0,31.0,1.0,submarine_11n.jpg,0.0,clock_7_3.png,6.0,75,,,,,,,,,,,,,,,,,,,,,,,,,,,,,,,,
1.0,1.0,1.00719,0.0,32.0,32.0,32.0,1.0,juicer1_08s.jpg,1.0,clock_7_4.png,6.0,75,,,,,,,,,,,,,,,,,,,,,,,,,,,,,,,,
0.0,1.0,1.14653,0.0,33.0,33.0,33.0,1.0,cucumber_07s.jpg,0.0,clock_7_5.png,6.0,75,,,,,,,,,,,,,,,,,,,,,,,,,,,,,,,,
0.0,1.0,0.619855,0.0,34.0,34.0,34.0,1.0,mailbox_11s.jpg,0.0,clock_7_6.png,6.0,75,,,,,,,,,,,,,,,,,,,,,,,,,,,,,,,,
1.0,1.0,0.81477,0.0,35.0,35.0,35.0,1.0,juicer1_08s.jpg,1.0,clock_7_7.png,6.0,75,,,,,,,,,,,,,,,,,,,,,,,,,,,,,,,,
,,,,,,,,,1.0,,,75,0.0,0.0,0.90728,0.0,0.0,0.0,0.0,1.0,bee_20s.jpg,purse_05s.jpg,,,,,,,,,,,,,,,,,,,,,,
,,,,,,,,,0.0,,,75,1.0,0.0,0.83274,0.0,1.0,1.0,1.0,1.0,chime_12s.jpg,peppermint_07s.jpg,,,,,,,,,,,,,,,,,,,,,,
,,,,,,,,,1.0,,,75,1.0,1.0,1.065565,0.0,2.0,2.0,2.0,1.0,lava_02s.jpg,eggshell_14s.jpg,,,,,,,,,,,,,,,,,,,,,,
,,,,,,,,,1.0,,,75,0.0,0.0,1.083045,0.0,3.0,3.0,3.0,1.0,birthday_cake_09s.jpg,rudder_02s.jpg,,,,,,,,,,,,,,,,,,,,,,
,,,,,,,,,0.0,,,75,1.0,0.0,0.98307,0.0,4.0,4.0,4.0,1.0,boar_10s.jpg,gear_07s.jpg,,,,,,,,,,,,,,,,,,,,,,
,,,,,,,,,0.0,,,75,1.0,0.0,1.00646,0.0,5.0,5.0,5.0,1.0,plunger_08s.jpg,icicle_04s.jpg,,,,,,,,,,,,,,,,,,,,,,
0.0,1.0,0.799825,,,,,,stamp1_11s.jpg,0.0,clockno_up.jpg,1.0,75,,,,,,,,,,,,,,,,,,0.0,0.0,0.0,0.0,1.0,,,,,,,,,,
1.0,1.0,0.650975,,,,,,stamp1_11s.jpg,1.0,clockno_default.jpg,1.0,75,,,,,,,,,,,,,,,,,,0.0,1.0,1.0,1.0,1.0,,,,,,,,,,
1.0,1.0,1.365515,,,,,,stamp1_11s.jpg,1.0,clockno_default.jpg,1.0,75,,,,,,,,,,,,,,,,,,0.0,2.0,2.0,2.0,1.0,,,,,,,,,,
0.0,1.0,0.921665,,,,,,bacon_05s.jpg,0.0,clockno_default.jpg,1.0,75,,,,,,,,,,,,,,,,,,0.0,3.0,3.0,3.0,1.0,,,,,,,,,,
0.0,1.0,0.683875,,,,,,mold2_04s.jpg,0.0,clockno_default.jpg,1.0,75,,,,,,,,,,,,,,,,,,0.0,4.0,4.0,4.0,1.0,,,,,,,,,,
0.0,1.0,0.75569,,,,,,ravioli_08s.jpg,0.0,clockno_up.jpg,2.0,75,,,,,,,,,,,,,,,,,,0.0,5.0,5.0,5.0,1.0,,,,,,,,,,
0.0,1.0,0.61326,,,,,,lasagna_06s.jpg,0.0,clockno_default.jpg,2.0,75,,,,,,,,,,,,,,,,,,0.0,6.0,6.0,6.0,1.0,,,,,,,,,,
0.0,1.0,0.67416,,,,,,soda_fountain_03s.jpg,0.0,clockno_default.jpg,2.0,75,,,,,,,,,,,,,,,,,,0.0,7.0,7.0,7.0,1.0,,,,,,,,,,
0.0,1.0,0.74623,,,,,,sparkler_02s.jpg,0.0,clockno_default.jpg,2.0,75,,,,,,,,,,,,,,,,,,0.0,8.0,8.0,8.0,1.0,,,,,,,,,,
1.0,1.0,0.95489,,,,,,ravioli_08s.jpg,1.0,clockno_default.jpg,2.0,75,,,,,,,,,,,,,,,,,,0.0,9.0,9.0,9.0,1.0,,,,,,,,,,
0.0,1.0,0.62834,,,,,,raccoon_02s.jpg,0.0,clockno_default.jpg,2.0,75,,,,,,,,,,,,,,,,,,0.0,10.0,10.0,10.0,1.0,,,,,,,,,,
0.0,1.0,0.689705,,,,,,ruby_15s.jpg,0.0,clockno_default.jpg,2.0,75,,,,,,,,,,,,,,,,,,0.0,11.0,11.0,11.0,1.0,,,,,,,,,,
0.0,1.0,0.79569,,,,,,boomerang_06s.jpg,0.0,clockno_up.jpg,3.0,75,,,,,,,,,,,,,,,,,,0.0,12.0,12.0,12.0,1.0,,,,,,,,,,
0.0,1.0,0.67726,,,,,,tape_measure_11s.jpg,0.0,clockno_default.jpg,3.0,75,,,,,,,,,,,,,,,,,,0.0,13.0,13.0,13.0,1.0,,,,,,,,,,
0.0,1.0,0.98059,,,,,,power_line_08s.jpg,0.0,clockno_default.jpg,3.0,75,,,,,,,,,,,,,,,,,,0.0,14.0,14.0,14.0,1.0,,,,,,,,,,
1.0,1.0,0.94493,,,,,,boomerang_06s.jpg,1.0,clockno_default.jpg,3.0,75,,,,,,,,,,,,,,,,,,0.0,15.0,15.0,15.0,1.0,,,,,,,,,,
0.0,1.0,0.68079,,,,,,letter_opener_03s.jpg,0.0,clockno_default.jpg,3.0,75,,,,,,,,,,,,,,,,,,0.0,16.0,16.0,16.0,1.0,,,,,,,,,,
0.0,1.0,0.66547,,,,,,parachute_03s.jpg,0.0,clockno_default.jpg,3.0,75,,,,,,,,,,,,,,,,,,0.0,17.0,17.0,17.0,1.0,,,,,,,,,,
0.0,1.0,0.73992,,,,,,snowman_02s.jpg,0.0,clockno_up.jpg,4.0,75,,,,,,,,,,,,,,,,,,0.0,18.0,18.0,18.0,1.0,,,,,,,,,,
0.0,1.0,0.536665,,,,,,turtle_08s.jpg,0.0,clockno_default.jpg,4.0,75,,,,,,,,,,,,,,,,,,0.0,19.0,19.0,19.0,1.0,,,,,,,,,,
0.0,1.0,0.56317,,,,,,rug_09s.jpg,0.0,clockno_default.jpg,4.0,75,,,,,,,,,,,,,,,,,,0.0,20.0,20.0,20.0,1.0,,,,,,,,,,
0.0,1.0,0.51729,,,,,,soccer_ball_12s.jpg,0.0,clockno_default.jpg,4.0,75,,,,,,,,,,,,,,,,,,0.0,21.0,21.0,21.0,1.0,,,,,,,,,,
0.0,1.0,0.53223,,,,,,paper_bag_12s.jpg,0.0,clockno_default.jpg,4.0,75,,,,,,,,,,,,,,,,,,0.0,22.0,22.0,22.0,1.0,,,,,,,,,,
1.0,1.0,1.16768,,,,,,paper_bag_12s.jpg,1.0,clockno_default.jpg,4.0,75,,,,,,,,,,,,,,,,,,0.0,23.0,23.0,23.0,1.0,,,,,,,,,,
0.0,1.0,1.346495,,,,,,lasagna_06s.jpg,0.0,clockno_default.jpg,4.0,75,,,,,,,,,,,,,,,,,,0.0,24.0,24.0,24.0,1.0,,,,,,,,,,
0.0,1.0,1.062845,,,,,,teapot_03s.jpg,0.0,clockno_up.jpg,5.0,75,,,,,,,,,,,,,,,,,,0.0,25.0,25.0,25.0,1.0,,,,,,,,,,
0.0,1.0,0.546405,,,,,,frame_06s.jpg,0.0,clockno_default.jpg,5.0,75,,,,,,,,,,,,,,,,,,0.0,26.0,26.0,26.0,1.0,,,,,,,,,,
0.0,1.0,0.49965,,,,,,dashboard_02s.jpg,0.0,clockno_default.jpg,5.0,75,,,,,,,,,,,,,,,,,,0.0,27.0,27.0,27.0,1.0,,,,,,,,,,
0.0,1.0,0.56829,,,,,,glasses01a.jpg,0.0,clockno_default.jpg,5.0,75,,,,,,,,,,,,,,,,,,0.0,28.0,28.0,28.0,1.0,,,,,,,,,,
0.0,1.0,0.532925,,,,,,popsicle_02s.jpg,0.0,clockno_default.jpg,5.0,75,,,,,,,,,,,,,,,,,,0.0,29.0,29.0,29.0,1.0,,,,,,,,,,
0.0,1.0,0.563745,,,,,,screwdriver02a.jpg,0.0,clockno_up.jpg,6.0,75,,,,,,,,,,,,,,,,,,0.0,30.0,30.0,30.0,1.0,,,,,,,,,,
0.0,1.0,0.67956,,,,,,kayak_08s.jpg,0.0,clockno_default.jpg,6.0,75,,,,,,,,,,,,,,,,,,0.0,31.0,31.0,31.0,1.0,,,,,,,,,,
0.0,1.0,0.630185,,,,,,marker_05s.jpg,0.0,clockno_default.jpg,6.0,75,,,,,,,,,,,,,,,,,,0.0,32.0,32.0,32.0,1.0,,,,,,,,,,
0.0,1.0,0.48186,,,,,,knot_01b.jpg,0.0,clockno_default.jpg,6.0,75,,,,,,,,,,,,,,,,,,0.0,33.0,33.0,33.0,1.0,,,,,,,,,,
0.0,1.0,0.590995,,,,,,oil_02s.jpg,0.0,clockno_default.jpg,6.0,75,,,,,,,,,,,,,,,,,,0.0,34.0,34.0,34.0,1.0,,,,,,,,,,
0.0,1.0,0.606455,,,,,,light_switch_02s.jpg,0.0,clockno_default.jpg,6.0,75,,,,,,,,,,,,,,,,,,0.0,35.0,35.0,35.0,1.0,,,,,,,,,,
,,,,,,,,,1.0,,,75,1.0,1.0,1.194175,,,,,,mold2_04s.jpg,soda_fountain_03s.jpg,,,,,,,,,,,,,0.0,0.0,0.0,0.0,1.0,,,,,
,,,,,,,,,0.0,,,75,1.0,0.0,1.098775,,,,,,turtle_08s.jpg,letter_opener_03s.jpg,,,,,,,,,,,,,0.0,1.0,1.0,1.0,1.0,,,,,
,,,,,,,,,0.0,,,75,1.0,0.0,1.001075,,,,,,rug_09s.jpg,parachute_03s.jpg,,,,,,,,,,,,,0.0,2.0,2.0,2.0,1.0,,,,,
,,,,,,,,,1.0,,,75,1.0,1.0,1.15833,,,,,,snowman_02s.jpg,soccer_ball_12s.jpg,,,,,,,,,,,,,0.0,3.0,3.0,3.0,1.0,,,,,
,,,,,,,,,0.0,,,75,1.0,0.0,1.09843,,,,,,ruby_15s.jpg,sparkler_02s.jpg,,,,,,,,,,,,,0.0,4.0,4.0,4.0,1.0,,,,,
,,,,,,,,,0.0,,,75,0.0,1.0,0.92136,,,,,,glasses01a.jpg,teapot_03s.jpg,,,,,,,,,,,,,0.0,5.0,5.0,5.0,1.0,,,,,
,,,,,,,,,,,,75,,,,,,,,,,,,,,,,clockno_present_1_6.xlsx,clockno_compare_task_1_6.xlsx,,,,,,,,,,,0.0,0.0,0.0,0.0,1.0
0.0,1.0,2.468185,,,,,,bottle_opener_11s.jpg,0.0,clockno_up.jpg,1.0,75,,,,,,,,,,,,,,,,,,0.0,0.0,0.0,0.0,1.0,,,,,,,,,,
0.0,1.0,0.938345,,,,,,racehorse_03s.jpg,0.0,clockno_default.jpg,1.0,75,,,,,,,,,,,,,,,,,,0.0,1.0,1.0,1.0,1.0,,,,,,,,,,
0.0,1.0,0.56532,,,,,,peach_04s.jpg,0.0,clockno_default.jpg,1.0,75,,,,,,,,,,,,,,,,,,0.0,2.0,2.0,2.0,1.0,,,,,,,,,,
1.0,1.0,0.797855,,,,,,bottle_opener_11s.jpg,1.0,clockno_default.jpg,1.0,75,,,,,,,,,,,,,,,,,,0.0,3.0,3.0,3.0,1.0,,,,,,,,,,
1.0,1.0,0.7663,,,,,,peach_04s.jpg,1.0,clockno_default.jpg,1.0,75,,,,,,,,,,,,,,,,,,0.0,4.0,4.0,4.0,1.0,,,,,,,,,,
0.0,1.0,0.613505,,,,,,tortilla_06s.jpg,0.0,clockno_up.jpg,2.0,75,,,,,,,,,,,,,,,,,,0.0,5.0,5.0,5.0,1.0,,,,,,,,,,
0.0,1.0,0.639975,,,,,,denture_03s.jpg,0.0,clockno_default.jpg,2.0,75,,,,,,,,,,,,,,,,,,0.0,6.0,6.0,6.0,1.0,,,,,,,,,,
0.0,1.0,1.797385,,,,,,cereal_04s.jpg,0.0,clockno_default.jpg,2.0,75,,,,,,,,,,,,,,,,,,0.0,7.0,7.0,7.0,1.0,,,,,,,,,,
0.0,1.0,0.671835,,,,,,antenna_01b.jpg,0.0,clockno_default.jpg,2.0,75,,,,,,,,,,,,,,,,,,0.0,8.0,8.0,8.0,1.0,,,,,,,,,,
0.0,1.0,0.6872,,,,,,milk_02s.jpg,0.0,clockno_default.jpg,2.0,75,,,,,,,,,,,,,,,,,,0.0,9.0,9.0,9.0,1.0,,,,,,,,,,
0.0,1.0,0.60524,,,,,,mushroom_10n.jpg,0.0,clockno_default.jpg,2.0,75,,,,,,,,,,,,,,,,,,0.0,10.0,10.0,10.0,1.0,,,,,,,,,,
0.0,1.0,0.61853,,,,,,racehorse_03s.jpg,0.0,clockno_default.jpg,2.0,75,,,,,,,,,,,,,,,,,,0.0,11.0,11.0,11.0,1.0,,,,,,,,,,
0.0,1.0,0.86305,,,,,,pancake_12s.jpg,0.0,clockno_up.jpg,3.0,75,,,,,,,,,,,,,,,,,,0.0,12.0,12.0,12.0,1.0,,,,,,,,,,
0.0,1.0,0.763445,,,,,,saddle_06s.jpg,0.0,clockno_default.jpg,3.0,75,,,,,,,,,,,,,,,,,,0.0,13.0,13.0,13.0,1.0,,,,,,,,,,
0.0,1.0,0.6206,,,,,,mussel_11s.jpg,0.0,clockno_default.jpg,3.0,75,,,,,,,,,,,,,,,,,,0.0,14.0,14.0,14.0,1.0,,,,,,,,,,
0.0,1.0,0.58504,,,,,,fox_13s.jpg,0.0,clockno_default.jpg,3.0,75,,,,,,,,,,,,,,,,,,0.0,15.0,15.0,15.0,1.0,,,,,,,,,,
0.0,1.0,0.553285,,,,,,laundry_basket_11s.jpg,0.0,clockno_default.jpg,3.0,75,,,,,,,,,,,,,,,,,,0.0,16.0,16.0,16.0,1.0,,,,,,,,,,
0.0,1.0,0.59667,,,,,,kitten_07s.jpg,0.0,clockno_up.jpg,4.0,75,,,,,,,,,,,,,,,,,,0.0,17.0,17.0,17.0,1.0,,,,,,,,,,
1.0,1.0,0.95113,,,,,,kitten_07s.jpg,1.0,clockno_default.jpg,4.0,75,,,,,,,,,,,,,,,,,,0.0,18.0,18.0,18.0,1.0,,,,,,,,,,
0.0,1.0,0.63464,,,,,,tube_top_03s.jpg,0.0,clockno_default.jpg,4.0,75,,,,,,,,,,,,,,,,,,0.0,19.0,19.0,19.0,1.0,,,,,,,,,,
0.0,1.0,0.58736,,,,,,tennis_ball_06s.jpg,0.0,clockno_default.jpg,4.0,75,,,,,,,,,,,,,,,,,,0.0,20.0,20.0,20.0,1.0,,,,,,,,,,
0.0,1.0,1.055935,,,,,,spatula04.jpg,0.0,clockno_default.jpg,4.0,75,,,,,,,,,,,,,,,,,,0.0,21.0,21.0,21.0,1.0,,,,,,,,,,
0.0,1.0,0.63317,,,,,,fishhook_06s.jpg,0.0,clockno_default.jpg,4.0,75,,,,,,,,,,,,,,,,,,0.0,22.0,22.0,22.0,1.0,,,,,,,,,,
0.0,1.0,0.549605,,,,,,sushi_08s.jpg,0.0,clockno_up.jpg,5.0,75,,,,,,,,,,,,,,,,,,0.0,23.0,23.0,23.0,1.0,,,,,,,,,,
0.0,1.0,0.512865,,,,,,ring_03s.jpg,0.0,clockno_default.jpg,5.0,75,,,,,,,,,,,,,,,,,,0.0,24.0,24.0,24.0,1.0,,,,,,,,,,
0.0,1.0,0.632435,,,,,,glue_01s.jpg,0.0,clockno_default.jpg,5.0,75,,,,,,,,,,,,,,,,,,0.0,25.0,25.0,25.0,1.0,,,,,,,,,,
0.0,1.0,0.56279,,,,,,trumpet_06s.jpg,0.0,clockno_default.jpg,5.0,75,,,,,,,,,,,,,,,,,,0.0,26.0,26.0,26.0,1.0,,,,,,,,,,
0.0,1.0,0.53631,,,,,,seagull_01b.jpg,0.0,clockno_default.jpg,5.0,75,,,,,,,,,,,,,,,,,,0.0,27.0,27.0,27.0,1.0,,,,,,,,,,
0.0,1.0,0.867705,,,,,,contact_lens_15s.jpg,0.0,clockno_default.jpg,5.0,75,,,,,,,,,,,,,,,,,,0.0,28.0,28.0,28.0,1.0,,,,,,,,,,
0.0,1.0,0.721795,,,,,,puppet_01b.jpg,0.0,clockno_up.jpg,6.0,75,,,,,,,,,,,,,,,,,,0.0,29.0,29.0,29.0,1.0,,,,,,,,,,
0.0,1.0,0.48143,,,,,,rhinoceros_02s.jpg,0.0,clockno_default.jpg,6.0,75,,,,,,,,,,,,,,,,,,0.0,30.0,30.0,30.0,1.0,,,,,,,,,,
1.0,1.0,0.548195,,,,,,puppet_01b.jpg,1.0,clockno_default.jpg,6.0,75,,,,,,,,,,,,,,,,,,0.0,31.0,31.0,31.0,1.0,,,,,,,,,,
0.0,1.0,0.814135,,,,,,plaster_cast_13s.jpg,0.0,clockno_default.jpg,6.0,75,,,,,,,,,,,,,,,,,,0.0,32.0,32.0,32.0,1.0,,,,,,,,,,
1.0,1.0,0.75432,,,,,,rhinoceros_02s.jpg,1.0,clockno_default.jpg,6.0,75,,,,,,,,,,,,,,,,,,0.0,33.0,33.0,33.0,1.0,,,,,,,,,,
0.0,1.0,0.54636,,,,,,turnstile_08s.jpg,0.0,clockno_default.jpg,6.0,75,,,,,,,,,,,,,,,,,,0.0,34.0,34.0,34.0,1.0,,,,,,,,,,
0.0,1.0,0.61711,,,,,,kimono_13s.jpg,0.0,clockno_default.jpg,6.0,75,,,,,,,,,,,,,,,,,,0.0,35.0,35.0,35.0,1.0,,,,,,,,,,
,,,,,,,,,0.0,,,75,1.0,0.0,1.075775,,,,,,sushi_08s.jpg,tennis_ball_06s.jpg,,,,,,,,,,,,,0.0,0.0,0.0,0.0,1.0,,,,,
,,,,,,,,,0.0,,,75,0.0,1.0,1.291785,,,,,,ring_03s.jpg,spatula04.jpg,,,,,,,,,,,,,0.0,1.0,1.0,1.0,1.0,,,,,
,,,,,,,,,0.0,,,75,0.0,1.0,1.183835,,,,,,pancake_12s.jpg,milk_02s.jpg,,,,,,,,,,,,,0.0,2.0,2.0,2.0,1.0,,,,,
,,,,,,,,,0.0,,,75,0.0,1.0,1.11379,,,,,,antenna_01b.jpg,tortilla_06s.jpg,,,,,,,,,,,,,0.0,3.0,3.0,3.0,1.0,,,,,
,,,,,,,,,1.0,,,75,1.0,1.0,1.24745,,,,,,plaster_cast_13s.jpg,kimono_13s.jpg,,,,,,,,,,,,,0.0,4.0,4.0,4.0,1.0,,,,,
,,,,,,,,,1.0,,,75,0.0,0.0,1.13632,,,,,,cereal_04s.jpg,mushroom_10n.jpg,,,,,,,,,,,,,0.0,5.0,5.0,5.0,1.0,,,,,
,,,,,,,,,,,,75,,,,,,,,,,,,,,,,clockno_present_2_6.xlsx,clockno_compare_task_2_6.xlsx,,,,,,,,,,,0.0,1.0,1.0,1.0,1.0
0.0,1.0,0.944155,,,,,,binder_21s.jpg,0.0,clockno_up.jpg,1.0,75,,,,,,,,,,,,,,,,,,0.0,0.0,0.0,0.0,1.0,,,,,,,,,,
0.0,1.0,0.712345,,,,,,magnet_03s.jpg,0.0,clockno_default.jpg,1.0,75,,,,,,,,,,,,,,,,,,0.0,1.0,1.0,1.0,1.0,,,,,,,,,,
0.0,1.0,0.49918,,,,,,penguin_16s.jpg,0.0,clockno_default.jpg,1.0,75,,,,,,,,,,,,,,,,,,0.0,2.0,2.0,2.0,1.0,,,,,,,,,,
0.0,1.0,0.547985,,,,,,rocking_chair_05s.jpg,0.0,clockno_default.jpg,1.0,75,,,,,,,,,,,,,,,,,,0.0,3.0,3.0,3.0,1.0,,,,,,,,,,
1.0,1.0,0.664905,,,,,,magnet_03s.jpg,1.0,clockno_default.jpg,1.0,75,,,,,,,,,,,,,,,,,,0.0,4.0,4.0,4.0,1.0,,,,,,,,,,
0.0,1.0,0.61462,,,,,,gazelle_10s.jpg,0.0,clockno_up.jpg,2.0,75,,,,,,,,,,,,,,,,,,0.0,5.0,5.0,5.0,1.0,,,,,,,,,,
0.0,1.0,0.530705,,,,,,coffee_filter_10s.jpg,0.0,clockno_default.jpg,2.0,75,,,,,,,,,,,,,,,,,,0.0,6.0,6.0,6.0,1.0,,,,,,,,,,
1.0,1.0,0.70115,,,,,,coffee_filter_10s.jpg,1.0,clockno_default.jpg,2.0,75,,,,,,,,,,,,,,,,,,0.0,7.0,7.0,7.0,1.0,,,,,,,,,,
0.0,1.0,1.53161,,,,,,beaker_01b.jpg,0.0,clockno_default.jpg,2.0,75,,,,,,,,,,,,,,,,,,0.0,8.0,8.0,8.0,1.0,,,,,,,,,,
0.0,1.0,0.763745,,,,,,lamb_04s.jpg,0.0,clockno_default.jpg,2.0,75,,,,,,,,,,,,,,,,,,0.0,9.0,9.0,9.0,1.0,,,,,,,,,,
0.0,1.0,0.563095,,,,,,bagel_15s.jpg,0.0,clockno_default.jpg,2.0,75,,,,,,,,,,,,,,,,,,0.0,10.0,10.0,10.0,1.0,,,,,,,,,,
0.0,1.0,0.522415,,,,,,coral_08s.jpg,0.0,clockno_default.jpg,2.0,75,,,,,,,,,,,,,,,,,,0.0,11.0,11.0,11.0,1.0,,,,,,,,,,
0.0,1.0,0.822965,,,,,,orchid_01b.jpg,0.0,clockno_up.jpg,3.0,75,,,,,,,,,,,,,,,,,,0.0,12.0,12.0,12.0,1.0,,,,,,,,,,
0.0,1.0,0.446875,,,,,,toaster_03s.jpg,0.0,clockno_default.jpg,3.0,75,,,,,,,,,,,,,,,,,,0.0,13.0,13.0,13.0,1.0,,,,,,,,,,
0.0,1.0,0.486035,,,,,,rocking_chair_05s.jpg,0.0,clockno_default.jpg,3.0,75,,,,,,,,,,,,,,,,,,0.0,14.0,14.0,14.0,1.0,,,,,,,,,,
0.0,1.0,0.85056,,,,,,coral_08s.jpg,0.0,clockno_default.jpg,3.0,75,,,,,,,,,,,,,,,,,,0.0,15.0,15.0,15.0,1.0,,,,,,,,,,
0.0,1.0,0.57891,,,,,,megaphone_03s.jpg,0.0,clockno_default.jpg,3.0,75,,,,,,,,,,,,,,,,,,0.0,16.0,16.0,16.0,1.0,,,,,,,,,,
0.0,1.0,0.564255,,,,,,doily_13s.jpg,0.0,clockno_default.jpg,3.0,75,,,,,,,,,,,,,,,,,,0.0,17.0,17.0,17.0,1.0,,,,,,,,,,
0.0,1.0,0.64915,,,,,,harpoon.jpg,0.0,clockno_up.jpg,4.0,75,,,,,,,,,,,,,,,,,,0.0,18.0,18.0,18.0,1.0,,,,,,,,,,
0.0,1.0,0.664035,,,,,,peanut_butter_08s.jpg,0.0,clockno_default.jpg,4.0,75,,,,,,,,,,,,,,,,,,0.0,19.0,19.0,19.0,1.0,,,,,,,,,,
0.0,1.0,0.51272,,,,,,margarita_03s.jpg,0.0,clockno_default.jpg,4.0,75,,,,,,,,,,,,,,,,,,0.0,20.0,20.0,20.0,1.0,,,,,,,,,,
1.0,1.0,0.824005,,,,,,peanut_butter_08s.jpg,1.0,clockno_default.jpg,4.0,75,,,,,,,,,,,,,,,,,,0.0,21.0,21.0,21.0,1.0,,,,,,,,,,
0.0,1.0,0.697685,,,,,,coral_08s.jpg,0.0,clockno_default.jpg,4.0,75,,,,,,,,,,,,,,,,,,0.0,22.0,22.0,22.0,1.0,,,,,,,,,,
0.0,1.0,0.653545,,,,,,punch1_10s.jpg,0.0,clockno_up.jpg,5.0,75,,,,,,,,,,,,,,,,,,0.0,23.0,23.0,23.0,1.0,,,,,,,,,,
0.0,1.0,0.52109,,,,,,bonsai_07s.jpg,0.0,clockno_default.jpg,5.0,75,,,,,,,,,,,,,,,,,,0.0,24.0,24.0,24.0,1.0,,,,,,,,,,
0.0,1.0,0.513865,,,,,,licorice_06s.jpg,0.0,clockno_default.jpg,5.0,75,,,,,,,,,,,,,,,,,,0.0,25.0,25.0,25.0,1.0,,,,,,,,,,
0.0,1.0,0.747785,,,,,,candy_cane_06s.jpg,0.0,clockno_default.jpg,5.0,75,,,,,,,,,,,,,,,,,,0.0,26.0,26.0,26.0,1.0,,,,,,,,,,
0.0,1.0,0.73266,,,,,,quesadilla_07s.jpg,0.0,clockno_default.jpg,5.0,75,,,,,,,,,,,,,,,,,,0.0,27.0,27.0,27.0,1.0,,,,,,,,,,
0.0,1.0,0.81551,,,,,,margarita_03s.jpg,0.0,clockno_default.jpg,5.0,75,,,,,,,,,,,,,,,,,,0.0,28.0,28.0,28.0,1.0,,,,,,,,,,
0.0,1.0,0.879985,,,,,,possum_09s.jpg,0.0,clockno_up.jpg,6.0,75,,,,,,,,,,,,,,,,,,0.0,29.0,29.0,29.0,1.0,,,,,,,,,,
0.0,1.0,0.57901,,,,,,mop_08s.jpg,0.0,clockno_default.jpg,6.0,75,,,,,,,,,,,,,,,,,,0.0,30.0,30.0,30.0,1.0,,,,,,,,,,
0.0,1.0,0.53017,,,,,,rice_12s.jpg,0.0,clockno_default.jpg,6.0,75,,,,,,,,,,,,,,,,,,0.0,31.0,31.0,31.0,1.0,,,,,,,,,,
0.0,1.0,0.54899,,,,,,thumbtack_14s.jpg,0.0,clockno_default.jpg,6.0,75,,,,,,,,,,,,,,,,,,0.0,32.0,32.0,32.0,1.0,,,,,,,,,,
0.0,1.0,0.66595,,,,,,rake_06s.jpg,0.0,clockno_default.jpg,6.0,75,,,,,,,,,,,,,,,,,,0.0,33.0,33.0,33.0,1.0,,,,,,,,,,
0.0,1.0,0.71312,,,,,,police_car_01s.jpg,0.0,clockno_default.jpg,6.0,75,,,,,,,,,,,,,,,,,,0.0,34.0,34.0,34.0,1.0,,,,,,,,,,
1.0,1.0,0.981465,,,,,,mop_08s.jpg,1.0,clockno_default.jpg,6.0,75,,,,,,,,,,,,,,,,,,0.0,35.0,35.0,35.0,1.0,,,,,,,,,,
,,,,,,,,,0.0,,,75,1.0,0.0,1.376975,,,,,,orchid_01b.jpg,lamb_04s.jpg,,,,,,,,,,,,,0.0,0.0,0.0,0.0,1.0,,,,,
,,,,,,,,,1.0,,,75,0.0,0.0,1.31707,,,,,,penguin_16s.jpg,gazelle_10s.jpg,,,,,,,,,,,,,0.0,1.0,1.0,1.0,1.0,,,,,
,,,,,,,,,1.0,,,75,0.0,0.0,1.300855,,,,,,bagel_15s.jpg,toaster_03s.jpg,,,,,,,,,,,,,0.0,2.0,2.0,2.0,1.0,,,,,
,,,,,,,,,0.0,,,75,0.0,1.0,2.17158,,,,,,quesadilla_07s.jpg,bonsai_07s.jpg,,,,,,,,,,,,,0.0,3.0,3.0,3.0,1.0,,,,,
,,,,,,,,,0.0,,,75,0.0,1.0,1.41548,,,,,,police_car_01s.jpg,rice_12s.jpg,,,,,,,,,,,,,0.0,4.0,4.0,4.0,1.0,,,,,
,,,,,,,,,1.0,,,75,0.0,0.0,1.886635,,,,,,punch1_10s.jpg,candy_cane_06s.jpg,,,,,,,,,,,,,0.0,5.0,5.0,5.0,1.0,,,,,
,,,,,,,,,,,,75,,,,,,,,,,,,,,,,clockno_present_3_6.xlsx,clockno_compare_task_3_6.xlsx,,,,,,,,,,,0.0,2.0,2.0,2.0,1.0
0.0,1.0,0.82245,,,,,,teacup_07s.jpg,0.0,clockno_up.jpg,1.0,75,,,,,,,,,,,,,,,,,,0.0,0.0,0.0,0.0,1.0,,,,,,,,,,
0.0,1.0,0.547375,,,,,,hummingbird_05s.jpg,0.0,clockno_default.jpg,1.0,75,,,,,,,,,,,,,,,,,,0.0,1.0,1.0,1.0,1.0,,,,,,,,,,
0.0,1.0,0.59703,,,,,,lion_18s.jpg,0.0,clockno_default.jpg,1.0,75,,,,,,,,,,,,,,,,,,0.0,2.0,2.0,2.0,1.0,,,,,,,,,,
1.0,1.0,0.647395,,,,,,lion_18s.jpg,1.0,clockno_default.jpg,1.0,75,,,,,,,,,,,,,,,,,,0.0,3.0,3.0,3.0,1.0,,,,,,,,,,
1.0,1.0,0.77373,,,,,,hummingbird_05s.jpg,1.0,clockno_default.jpg,1.0,75,,,,,,,,,,,,,,,,,,0.0,4.0,4.0,4.0,1.0,,,,,,,,,,
0.0,1.0,1.03835,,,,,,razor_blade_01b.jpg,0.0,clockno_default.jpg,1.0,75,,,,,,,,,,,,,,,,,,0.0,5.0,5.0,5.0,1.0,,,,,,,,,,
0.0,1.0,0.69603,,,,,,ladle_04s.jpg,0.0,clockno_default.jpg,1.0,75,,,,,,,,,,,,,,,,,,0.0,6.0,6.0,6.0,1.0,,,,,,,,,,
0.0,1.0,0.96412,,,,,,typewriter_11s.jpg,0.0,clockno_up.jpg,2.0,75,,,,,,,,,,,,,,,,,,0.0,7.0,7.0,7.0,1.0,,,,,,,,,,
0.0,1.0,0.512545,,,,,,bubble_01b.jpg,0.0,clockno_default.jpg,2.0,75,,,,,,,,,,,,,,,,,,0.0,8.0,8.0,8.0,1.0,,,,,,,,,,
0.0,1.0,0.497825,,,,,,teacup_07s.jpg,0.0,clockno_default.jpg,2.0,75,,,,,,,,,,,,,,,,,,0.0,9.0,9.0,9.0,1.0,,,,,,,,,,
0.0,1.0,0.520785,,,,,,toothpaste_12s.jpg,0.0,clockno_default.jpg,2.0,75,,,,,,,,,,,,,,,,,,0.0,10.0,10.0,10.0,1.0,,,,,,,,,,
0.0,1.0,0.50383,,,,,,loveseat_08s.jpg,0.0,clockno_default.jpg,2.0,75,,,,,,,,,,,,,,,,,,0.0,11.0,11.0,11.0,1.0,,,,,,,,,,
0.0,1.0,0.56378,,,,,,mirror_12s.jpg,0.0,clockno_up.jpg,3.0,75,,,,,,,,,,,,,,,,,,0.0,12.0,12.0,12.0,1.0,,,,,,,,,,
0.0,1.0,0.58002,,,,,,tupperware_09s.jpg,0.0,clockno_default.jpg,3.0,75,,,,,,,,,,,,,,,,,,0.0,13.0,13.0,13.0,1.0,,,,,,,,,,
0.0,1.0,0.494775,,,,,,keyboard_05s.jpg,0.0,clockno_default.jpg,3.0,75,,,,,,,,,,,,,,,,,,0.0,14.0,14.0,14.0,1.0,,,,,,,,,,
0.0,1.0,0.71394,,,,,,diving_board_07s.jpg,0.0,clockno_default.jpg,3.0,75,,,,,,,,,,,,,,,,,,0.0,15.0,15.0,15.0,1.0,,,,,,,,,,
0.0,1.0,0.51545,,,,,,ironing_board_07s.jpg,0.0,clockno_default.jpg,3.0,75,,,,,,,,,,,,,,,,,,0.0,16.0,16.0,16.0,1.0,,,,,,,,,,
0.0,1.0,0.617125,,,,,,ladle_04s.jpg,0.0,clockno_default.jpg,3.0,75,,,,,,,,,,,,,,,,,,0.0,17.0,17.0,17.0,1.0,,,,,,,,,,
0.0,1.0,0.712355,,,,,,treadmill_06s.jpg,0.0,clockno_default.jpg,3.0,75,,,,,,,,,,,,,,,,,,0.0,18.0,18.0,18.0,1.0,,,,,,,,,,
0.0,1.0,0.8651,,,,,,teabag_12s.jpg,0.0,clockno_up.jpg,4.0,75,,,,,,,,,,,,,,,,,,0.0,19.0,19.0,19.0,1.0,,,,,,,,,,
0.0,1.0,0.789925,,,,,,mango_09s.jpg,0.0,clockno_default.jpg,4.0,75,,,,,,,,,,,,,,,,,,0.0,20.0,20.0,20.0,1.0,,,,,,,,,,
0.0,1.0,0.74087,,,,,,memory_stick_11s.jpg,0.0,clockno_default.jpg,4.0,75,,,,,,,,,,,,,,,,,,0.0,21.0,21.0,21.0,1.0,,,,,,,,,,
0.0,1.0,0.546545,,,,,,tuxedo_01b.jpg,0.0,clockno_default.jpg,4.0,75,,,,,,,,,,,,,,,,,,0.0,22.0,22.0,22.0,1.0,,,,,,,,,,
0.0,1.0,0.92263,,,,,,lion_18s.jpg,0.0,clockno_default.jpg,4.0,75,,,,,,,,,,,,,,,,,,0.0,23.0,23.0,23.0,1.0,,,,,,,,,,
0.0,1.0,0.865475,,,,,,lamb_chop_07s.jpg,0.0,clockno_default.jpg,4.0,75,,,,,,,,,,,,,,,,,,0.0,24.0,24.0,24.0,1.0,,,,,,,,,,
0.0,1.0,0.57061,,,,,,crayon_09s.jpg,0.0,clockno_up.jpg,5.0,75,,,,,,,,,,,,,,,,,,0.0,25.0,25.0,25.0,1.0,,,,,,,,,,
0.0,1.0,0.529615,,,,,,squirt_gun_03s.jpg,0.0,clockno_default.jpg,5.0,75,,,,,,,,,,,,,,,,,,0.0,26.0,26.0,26.0,1.0,,,,,,,,,,
0.0,1.0,0.91388,,,,,,tupperware_09s.jpg,0.0,clockno_default.jpg,5.0,75,,,,,,,,,,,,,,,,,,0.0,27.0,27.0,27.0,1.0,,,,,,,,,,
0.0,1.0,0.48738,,,,,,fireworks_18s.jpg,0.0,clockno_default.jpg,5.0,75,,,,,,,,,,,,,,,,,,0.0,28.0,28.0,28.0,1.0,,,,,,,,,,
0.0,1.0,0.49704,,,,,,golf_club_03s.jpg,0.0,clockno_default.jpg,5.0,75,,,,,,,,,,,,,,,,,,0.0,29.0,29.0,29.0,1.0,,,,,,,,,,
0.0,1.0,0.54662,,,,,,keyboard_05s.jpg,0.0,clockno_default.jpg,5.0,75,,,,,,,,,,,,,,,,,,0.0,30.0,30.0,30.0,1.0,,,,,,,,,,
0.0,1.0,1.047585,,,,,,tiara_05s.jpg,0.0,clockno_up.jpg,6.0,75,,,,,,,,,,,,,,,,,,0.0,31.0,31.0,31.0,1.0,,,,,,,,,,
1.0,1.0,0.93321,,,,,,tiara_05s.jpg,1.0,clockno_default.jpg,6.0,75,,,,,,,,,,,,,,,,,,0.0,32.0,32.0,32.0,1.0,,,,,,,,,,
0.0,1.0,0.58163,,,,,,spider_web_03s.jpg,0.0,clockno_default.jpg,6.0,75,,,,,,,,,,,,,,,,,,0.0,33.0,33.0,33.0,1.0,,,,,,,,,,
0.0,1.0,0.929435,,,,,,chopsticks_08s.jpg,0.0,clockno_default.jpg,6.0,75,,,,,,,,,,,,,,,,,,0.0,34.0,34.0,34.0,1.0,,,,,,,,,,
0.0,1.0,0.530045,,,,,,stethoscope_01b.jpg,0.0,clockno_default.jpg,6.0,75,,,,,,,,,,,,,,,,,,0.0,35.0,35.0,35.0,1.0,,,,,,,,,,
,,,,,,,,,1.0,,,75,1.0,1.0,2.751245,,,,,,razor_blade_01b.jpg,bubble_01b.jpg,,,,,,,,,,,,,0.0,0.0,0.0,0.0,1.0,,,,,
,,,,,,,,,1.0,,,75,0.0,0.0,1.463325,,,,,,ironing_board_07s.jpg,teabag_12s.jpg,,,,,,,,,,,,,0.0,1.0,1.0,1.0,1.0,,,,,
,,,,,,,,,1.0,,,75,1.0,1.0,1.380385,,,,,,treadmill_06s.jpg,memory_stick_11s.jpg,,,,,,,,,,,,,0.0,2.0,2.0,2.0,1.0,,,,,
,,,,,,,,,1.0,,,75,1.0,1.0,1.14827,,,,,,typewriter_11s.jpg,toothpaste_12s.jpg,,,,,,,,,,,,,0.0,3.0,3.0,3.0,1.0,,,,,
,,,,,,,,,1.0,,,75,1.0,1.0,1.099315,,,,,,mirror_12s.jpg,diving_board_07s.jpg,,,,,,,,,,,,,0.0,4.0,4.0,4.0,1.0,,,,,
,,,,,,,,,0.0,,,75,1.0,0.0,1.36563,,,,,,golf_club_03s.jpg,squirt_gun_03s.jpg,,,,,,,,,,,,,0.0,5.0,5.0,5.0,1.0,,,,,
,,,,,,,,,,,,75,,,,,,,,,,,,,,,,clockno_present_4_6.xlsx,clockno_compare_task_4_6.xlsx,,,,,,,,,,,0.0,3.0,3.0,3.0,1.0
0.0,1.0,0.924485,,,,,,ice_pack_09s.jpg,0.0,clockno_up.jpg,1.0,75,,,,,,,,,,,,,,,,,,0.0,0.0,0.0,0.0,1.0,,,,,,,,,,
0.0,1.0,0.429345,,,,,,hydrant_10s.jpg,0.0,clockno_default.jpg,1.0,75,,,,,,,,,,,,,,,,,,0.0,1.0,1.0,1.0,1.0,,,,,,,,,,
0.0,1.0,0.486525,,,,,,stapler_01b.jpg,0.0,clockno_default.jpg,1.0,75,,,,,,,,,,,,,,,,,,0.0,2.0,2.0,2.0,1.0,,,,,,,,,,
0.0,1.0,0.687555,,,,,,mitten_10s.jpg,0.0,clockno_default.jpg,1.0,75,,,,,,,,,,,,,,,,,,0.0,3.0,3.0,3.0,1.0,,,,,,,,,,
1.0,1.0,1.865455,,,,,,ice_pack_09s.jpg,1.0,clockno_default.jpg,1.0,75,,,,,,,,,,,,,,,,,,0.0,4.0,4.0,4.0,1.0,,,,,,,,,,
0.0,1.0,0.586965,,,,,,surfboard_11s.jpg,0.0,clockno_up.jpg,2.0,75,,,,,,,,,,,,,,,,,,0.0,5.0,5.0,5.0,1.0,,,,,,,,,,
0.0,1.0,0.51596,,,,,,pepper2_21s.jpg,0.0,clockno_default.jpg,2.0,75,,,,,,,,,,,,,,,,,,0.0,6.0,6.0,6.0,1.0,,,,,,,,,,
0.0,1.0,0.515685,,,,,,raspberry_12s.jpg,0.0,clockno_default.jpg,2.0,75,,,,,,,,,,,,,,,,,,0.0,7.0,7.0,7.0,1.0,,,,,,,,,,
0.0,1.0,0.59991,,,,,,marshmallow_08s.jpg,0.0,clockno_default.jpg,2.0,75,,,,,,,,,,,,,,,,,,0.0,8.0,8.0,8.0,1.0,,,,,,,,,,
0.0,1.0,0.57927,,,,,,lantern_04s.jpg,0.0,clockno_default.jpg,2.0,75,,,,,,,,,,,,,,,,,,0.0,9.0,9.0,9.0,1.0,,,,,,,,,,
0.0,1.0,0.519675,,,,,,tongs_08s.jpg,0.0,clockno_default.jpg,2.0,75,,,,,,,,,,,,,,,,,,0.0,10.0,10.0,10.0,1.0,,,,,,,,,,
0.0,1.0,0.534175,,,,,,scooter.jpg,0.0,clockno_default.jpg,2.0,75,,,,,,,,,,,,,,,,,,0.0,11.0,11.0,11.0,1.0,,,,,,,,,,
0.0,1.0,0.6297,,,,,,pocketknife_12s.jpg,0.0,clockno_up.jpg,3.0,75,,,,,,,,,,,,,,,,,,0.0,12.0,12.0,12.0,1.0,,,,,,,,,,
0.0,1.0,0.697535,,,,,,popcorn_09s.jpg,0.0,clockno_default.jpg,3.0,75,,,,,,,,,,,,,,,,,,0.0,13.0,13.0,13.0,1.0,,,,,,,,,,
0.0,1.0,0.53607,,,,,,panda_02s.jpg,0.0,clockno_default.jpg,3.0,75,,,,,,,,,,,,,,,,,,0.0,14.0,14.0,14.0,1.0,,,,,,,,,,
1.0,1.0,1.197945,,,,,,panda_02s.jpg,1.0,clockno_default.jpg,3.0,75,,,,,,,,,,,,,,,,,,0.0,15.0,15.0,15.0,1.0,,,,,,,,,,
0.0,1.0,0.703575,,,,,,treasure_08s.jpg,0.0,clockno_default.jpg,3.0,75,,,,,,,,,,,,,,,,,,0.0,16.0,16.0,16.0,1.0,,,,,,,,,,
0.0,1.0,0.611835,,,,,,giraffe_11s.jpg,0.0,clockno_up.jpg,4.0,75,,,,,,,,,,,,,,,,,,0.0,17.0,17.0,17.0,1.0,,,,,,,,,,
0.0,1.0,0.530095,,,,,,recliner_02s.jpg,0.0,clockno_default.jpg,4.0,75,,,,,,,,,,,,,,,,,,0.0,18.0,18.0,18.0,1.0,,,,,,,,,,
0.0,1.0,0.587915,,,,,,bolo_tie_08s.jpg,0.0,clockno_default.jpg,4.0,75,,,,,,,,,,,,,,,,,,0.0,19.0,19.0,19.0,1.0,,,,,,,,,,
0.0,1.0,0.548015,,,,,,potpourri_03s.jpg,0.0,clockno_default.jpg,4.0,75,,,,,,,,,,,,,,,,,,0.0,20.0,20.0,20.0,1.0,,,,,,,,,,
0.0,1.0,0.651015,,,,,,money_07s.jpg,0.0,clockno_default.jpg,4.0,75,,,,,,,,,,,,,,,,,,0.0,21.0,21.0,21.0,1.0,,,,,,,,,,
0.0,1.0,1.149605,,,,,,lamp_08s.jpg,0.0,clockno_default.jpg,4.0,75,,,,,,,,,,,,,,,,,,0.0,22.0,22.0,22.0,1.0,,,,,,,,,,
0.0,1.0,0.78321,,,,,,jersey_02s.jpg,0.0,clockno_up.jpg,5.0,75,,,,,,,,,,,,,,,,,,0.0,23.0,23.0,23.0,1.0,,,,,,,,,,
0.0,1.0,0.846215,,,,,,poinsettia_04s.jpg,0.0,clockno_default.jpg,5.0,75,,,,,,,,,,,,,,,,,,0.0,24.0,24.0,24.0,1.0,,,,,,,,,,
1.0,1.0,0.713535,,,,,,jersey_02s.jpg,1.0,clockno_default.jpg,5.0,75,,,,,,,,,,,,,,,,,,0.0,25.0,25.0,25.0,1.0,,,,,,,,,,
0.0,1.0,0.61761,,,,,,mattress_01s.jpg,0.0,clockno_default.jpg,5.0,75,,,,,,,,,,,,,,,,,,0.0,26.0,26.0,26.0,1.0,,,,,,,,,,
0.0,1.0,1.031125,,,,,,pocketknife_12s.jpg,0.0,clockno_default.jpg,5.0,75,,,,,,,,,,,,,,,,,,0.0,27.0,27.0,27.0,1.0,,,,,,,,,,
0.0,1.0,1.016655,,,,,,swan_11s.jpg,0.0,clockno_default.jpg,5.0,75,,,,,,,,,,,,,,,,,,0.0,28.0,28.0,28.0,1.0,,,,,,,,,,
0.0,1.0,0.67201,,,,,,toilet_07s.jpg,0.0,clockno_default.jpg,5.0,75,,,,,,,,,,,,,,,,,,0.0,29.0,29.0,29.0,1.0,,,,,,,,,,
0.0,1.0,0.871585,,,,,,kettle_08s.jpg,0.0,clockno_up.jpg,6.0,75,,,,,,,,,,,,,,,,,,0.0,30.0,30.0,30.0,1.0,,,,,,,,,,
0.0,1.0,0.58689,,,,,,pea_11s.jpg,0.0,clockno_default.jpg,6.0,75,,,,,,,,,,,,,,,,,,0.0,31.0,31.0,31.0,1.0,,,,,,,,,,
0.0,1.0,0.44738,,,,,,tongs_08s.jpg,0.0,clockno_default.jpg,6.0,75,,,,,,,,,,,,,,,,,,0.0,32.0,32.0,32.0,1.0,,,,,,,,,,
0.0,1.0,0.506035,,,,,,turf_03s.jpg,0.0,clockno_default.jpg,6.0,75,,,,,,,,,,,,,,,,,,0.0,33.0,33.0,33.0,1.0,,,,,,,,,,
0.0,1.0,0.58396,,,,,,blowfish_03s.jpg,0.0,clockno_default.jpg,6.0,75,,,,,,,,,,,,,,,,,,0.0,34.0,34.0,34.0,1.0,,,,,,,,,,
0.0,1.0,0.73371,,,,,,rock_08s.jpg,0.0,clockno_default.jpg,6.0,75,,,,,,,,,,,,,,,,,,0.0,35.0,35.0,35.0,1.0,,,,,,,,,,
,,,,,,,,,0.0,,,75,0.0,1.0,1.662775,,,,,,surfboard_11s.jpg,stapler_01b.jpg,,,,,,,,,,,,,0.0,0.0,0.0,0.0,1.0,,,,,
,,,,,,,,,0.0,,,75,0.0,1.0,1.20345,,,,,,pepper2_21s.jpg,mitten_10s.jpg,,,,,,,,,,,,,0.0,1.0,1.0,1.0,1.0,,,,,
,,,,,,,,,1.0,,,75,1.0,1.0,0.94364,,,,,,money_07s.jpg,poinsettia_04s.jpg,,,,,,,,,,,,,0.0,2.0,2.0,2.0,1.0,,,,,
,,,,,,,,,1.0,,,75,0.0,0.0,0.99891,,,,,,marshmallow_08s.jpg,scooter.jpg,,,,,,,,,,,,,0.0,3.0,3.0,3.0,1.0,,,,,
,,,,,,,,,1.0,,,75,1.0,1.0,1.071685,,,,,,giraffe_11s.jpg,potpourri_03s.jpg,,,,,,,,,,,,,0.0,4.0,4.0,4.0,1.0,,,,,
,,,,,,,,,1.0,,,75,1.0,1.0,1.20643,,,,,,mattress_01s.jpg,toilet_07s.jpg,,,,,,,,,,,,,0.0,5.0,5.0,5.0,1.0,,,,,
,,,,,,,,,,,,75,,,,,,,,,,,,,,,,clockno_present_5_6.xlsx,clockno_compare_task_5_6.xlsx,,,,,,,,,,,0.0,4.0,4.0,4.0,1.0
0.0,1.0,0.76932,,,,,,loom_05s.jpg,0.0,clockno_up.jpg,1.0,75,,,,,,,,,,,,,,,,,,0.0,0.0,0.0,0.0,1.0,,,,,,,,,,
1.0,1.0,0.75763,,,,,,loom_05s.jpg,1.0,clockno_default.jpg,1.0,75,,,,,,,,,,,,,,,,,,0.0,1.0,1.0,1.0,1.0,,,,,,,,,,
0.0,1.0,0.67258,,,,,,metronome_03s.jpg,0.0,clockno_default.jpg,1.0,75,,,,,,,,,,,,,,,,,,0.0,2.0,2.0,2.0,1.0,,,,,,,,,,
0.0,1.0,0.647625,,,,,,eiffeltower.jpg,0.0,clockno_default.jpg,1.0,75,,,,,,,,,,,,,,,,,,0.0,3.0,3.0,3.0,1.0,,,,,,,,,,
1.0,1.0,0.93162,,,,,,metronome_03s.jpg,1.0,clockno_default.jpg,1.0,75,,,,,,,,,,,,,,,,,,0.0,4.0,4.0,4.0,1.0,,,,,,,,,,
0.0,1.0,0.913665,,,,,,road_sign_05s.jpg,0.0,clockno_default.jpg,1.0,75,,,,,,,,,,,,,,,,,,0.0,5.0,5.0,5.0,1.0,,,,,,,,,,
0.0,1.0,0.76986,,,,,,comic_book_02s.jpg,0.0,clockno_up.jpg,2.0,75,,,,,,,,,,,,,,,,,,0.0,6.0,6.0,6.0,1.0,,,,,,,,,,
0.0,1.0,0.611175,,,,,,swordfish_05s.jpg,0.0,clockno_default.jpg,2.0,75,,,,,,,,,,,,,,,,,,0.0,7.0,7.0,7.0,1.0,,,,,,,,,,
0.0,1.0,0.53402,,,,,,potholder_02s.jpg,0.0,clockno_default.jpg,2.0,75,,,,,,,,,,,,,,,,,,0.0,8.0,8.0,8.0,1.0,,,,,,,,,,
0.0,1.0,0.629315,,,,,,prism_10s.jpg,0.0,clockno_default.jpg,2.0,75,,,,,,,,,,,,,,,,,,0.0,9.0,9.0,9.0,1.0,,,,,,,,,,
0.0,1.0,1.06383,,,,,,loom_05s.jpg,0.0,clockno_default.jpg,2.0,75,,,,,,,,,,,,,,,,,,0.0,10.0,10.0,10.0,1.0,,,,,,,,,,
0.0,1.0,0.698625,,,,,,trident_07s.jpg,0.0,clockno_up.jpg,3.0,75,,,,,,,,,,,,,,,,,,0.0,11.0,11.0,11.0,1.0,,,,,,,,,,
1.0,1.0,0.767345,,,,,,trident_07s.jpg,1.0,clockno_default.jpg,3.0,75,,,,,,,,,,,,,,,,,,0.0,12.0,12.0,12.0,1.0,,,,,,,,,,
0.0,1.0,0.94989,,,,,,metronome_03s.jpg,0.0,clockno_default.jpg,3.0,75,,,,,,,,,,,,,,,,,,0.0,13.0,13.0,13.0,1.0,,,,,,,,,,
0.0,1.0,0.644745,,,,,,incense_02s.jpg,0.0,clockno_default.jpg,3.0,75,,,,,,,,,,,,,,,,,,0.0,14.0,14.0,14.0,1.0,,,,,,,,,,
0.0,1.0,0.66432,,,,,,seahorse_13s.jpg,0.0,clockno_default.jpg,3.0,75,,,,,,,,,,,,,,,,,,0.0,15.0,15.0,15.0,1.0,,,,,,,,,,
0.0,1.0,0.979325,,,,,,ice-cream_cone_06s.jpg,0.0,clockno_up.jpg,4.0,75,,,,,,,,,,,,,,,,,,0.0,16.0,16.0,16.0,1.0,,,,,,,,,,
0.0,1.0,0.719805,,,,,,lemonade_04s.jpg,0.0,clockno_default.jpg,4.0,75,,,,,,,,,,,,,,,,,,0.0,17.0,17.0,17.0,1.0,,,,,,,,,,
1.0,1.0,0.687075,,,,,,lemonade_04s.jpg,1.0,clockno_default.jpg,4.0,75,,,,,,,,,,,,,,,,,,0.0,18.0,18.0,18.0,1.0,,,,,,,,,,
0.0,1.0,0.838695,,,,,,thread_08s.jpg,0.0,clockno_default.jpg,4.0,75,,,,,,,,,,,,,,,,,,0.0,19.0,19.0,19.0,1.0,,,,,,,,,,
0.0,1.0,0.65395,,,,,,measuring_cup_02s.jpg,0.0,clockno_default.jpg,4.0,75,,,,,,,,,,,,,,,,,,0.0,20.0,20.0,20.0,1.0,,,,,,,,,,
1.0,1.0,0.78124,,,,,,measuring_cup_02s.jpg,1.0,clockno_default.jpg,4.0,75,,,,,,,,,,,,,,,,,,0.0,21.0,21.0,21.0,1.0,,,,,,,,,,
0.0,1.0,0.8993,,,,,,duck_01b.jpg,0.0,clockno_default.jpg,4.0,75,,,,,,,,,,,,,,,,,,0.0,22.0,22.0,22.0,1.0,,,,,,,,,,
0.0,1.0,0.629965,,,,,,owl_15s.jpg,0.0,clockno_up.jpg,5.0,75,,,,,,,,,,,,,,,,,,0.0,23.0,23.0,23.0,1.0,,,,,,,,,,
0.0,1.0,0.6291,,,,,,paper_towel_03s.jpg,0.0,clockno_default.jpg,5.0,75,,,,,,,,,,,,,,,,,,0.0,24.0,24.0,24.0,1.0,,,,,,,,,,
0.0,1.0,0.614045,,,,,,pillow_03s.jpg,0.0,clockno_default.jpg,5.0,75,,,,,,,,,,,,,,,,,,0.0,25.0,25.0,25.0,1.0,,,,,,,,,,
0.0,1.0,0.63499,,,,,,phone_01b.jpg,0.0,clockno_default.jpg,5.0,75,,,,,,,,,,,,,,,,,,0.0,26.0,26.0,26.0,1.0,,,,,,,,,,
0.0,1.0,0.749275,,,,,,plug_08s.jpg,0.0,clockno_default.jpg,5.0,75,,,,,,,,,,,,,,,,,,0.0,27.0,27.0,27.0,1.0,,,,,,,,,,
0.0,1.0,0.701125,,,,,,triangle_10s.jpg,0.0,clockno_default.jpg,5.0,75,,,,,,,,,,,,,,,,,,0.0,28.0,28.0,28.0,1.0,,,,,,,,,,
0.0,1.0,0.81249,,,,,,moth_06n.jpg,0.0,clockno_up.jpg,6.0,75,,,,,,,,,,,,,,,,,,0.0,29.0,29.0,29.0,1.0,,,,,,,,,,
0.0,1.0,0.481655,,,,,,umbrella_15s.jpg,0.0,clockno_default.jpg,6.0,75,,,,,,,,,,,,,,,,,,0.0,30.0,30.0,30.0,1.0,,,,,,,,,,
0.0,1.0,0.514375,,,,,,penlight_12s.jpg,0.0,clockno_default.jpg,6.0,75,,,,,,,,,,,,,,,,,,0.0,31.0,31.0,31.0,1.0,,,,,,,,,,
0.0,1.0,0.614485,,,,,,tuba_12s.jpg,0.0,clockno_default.jpg,6.0,75,,,,,,,,,,,,,,,,,,0.0,32.0,32.0,32.0,1.0,,,,,,,,,,
0.0,1.0,0.551435,,,,,,squirrel_02s.jpg,0.0,clockno_default.jpg,6.0,75,,,,,,,,,,,,,,,,,,0.0,33.0,33.0,33.0,1.0,,,,,,,,,,
0.0,1.0,0.604825,,,,,,iron_13s.jpg,0.0,clockno_default.jpg,6.0,75,,,,,,,,,,,,,,,,,,0.0,34.0,34.0,34.0,1.0,,,,,,,,,,
0.0,1.0,0.64577,,,,,,ram_05s.jpg,0.0,clockno_default.jpg,6.0,75,,,,,,,,,,,,,,,,,,0.0,35.0,35.0,35.0,1.0,,,,,,,,,,
,,,,,,,,,0.0,,,75,0.0,1.0,1.298425,,,,,,potholder_02s.jpg,road_sign_05s.jpg,,,,,,,,,,,,,0.0,0.0,0.0,0.0,1.0,,,,,
,,,,,,,,,1.0,,,75,0.0,0.0,0.88511,,,,,,eiffeltower.jpg,comic_book_02s.jpg,,,,,,,,,,,,,0.0,1.0,1.0,1.0,1.0,,,,,
,,,,,,,,,1.0,,,75,0.0,0.0,1.12321,,,,,,duck_01b.jpg,pillow_03s.jpg,,,,,,,,,,,,,0.0,2.0,2.0,2.0,1.0,,,,,
,,,,,,,,,1.0,,,75,1.0,1.0,1.35096,,,,,,ice-cream_cone_06s.jpg,thread_08s.jpg,,,,,,,,,,,,,0.0,3.0,3.0,3.0,1.0,,,,,
,,,,,,,,,0.0,,,75,0.0,1.0,1.607905,,,,,,ram_05s.jpg,tuba_12s.jpg,,,,,,,,,,,,,0.0,4.0,4.0,4.0,1.0,,,,,
,,,,,,,,,0.0,,,75,0.0,1.0,1.208375,,,,,,phone_01b.jpg,owl_15s.jpg,,,,,,,,,,,,,0.0,5.0,5.0,5.0,1.0,,,,,
