key_resp.keys,key_resp.corr,key_resp.rt,present_segment.thisRepN,present_segment.thisTrialN,present_segment.thisN,present_segment.thisIndex,present_segment.ran,pictures,answer,clock,segment,participant,key_resp_2.keys,key_resp_2.corr,key_resp_2.rt,compare_segment.thisRepN,compare_segment.thisTrialN,compare_segment.thisN,compare_segment.thisIndex,compare_segment.ran,item_a,item_b,clock_conditions.thisRepN,clock_conditions.thisTrialN,clock_conditions.thisN,clock_conditions.thisIndex,clock_conditions.ran,present,compare,noclock_present.thisRepN,noclock_present.thisTrialN,noclock_present.thisN,noclock_present.thisIndex,noclock_present.ran,noclock_compare.thisRepN,noclock_compare.thisTrialN,noclock_compare.thisN,noclock_compare.thisIndex,noclock_compare.ran,noclock_conditions.thisRepN,noclock_conditions.thisTrialN,noclock_conditions.thisN,noclock_conditions.thisIndex,noclock_conditions.ran
0.0,1.0,1.227205,0.0,0.0,0.0,0.0,1.0,prism_10s.jpg,0.0,clock_5_1.png,1.0,25,,,,,,,,,,,,,,,,,,,,,,,,,,,,,,,,
0.0,1.0,1.123095,0.0,1.0,1.0,1.0,1.0,snowman_02s.jpg,0.0,clock_5_2.png,1.0,25,,,,,,,,,,,,,,,,,,,,,,,,,,,,,,,,
0.0,1.0,0.45441,0.0,2.0,2.0,2.0,1.0,safety_pin_02s.jpg,0.0,clock_5_3.png,1.0,25,,,,,,,,,,,,,,,,,,,,,,,,,,,,,,,,
0.0,0.0,0.513025,0.0,3.0,3.0,3.0,1.0,prism_10s.jpg,1.0,clock_5_4.png,1.0,25,,,,,,,,,,,,,,,,,,,,,,,,,,,,,,,,
0.0,1.0,1.12248,0.0,4.0,4.0,4.0,1.0,peppermint_07s.jpg,0.0,clock_5_5.png,1.0,25,,,,,,,,,,,,,,,,,,,,,,,,,,,,,,,,
0.0,1.0,0.63835,0.0,5.0,5.0,5.0,1.0,radio_09s.jpg,0.0,clock_6_1.png,2.0,25,,,,,,,,,,,,,,,,,,,,,,,,,,,,,,,,
0.0,1.0,0.5048,0.0,6.0,6.0,6.0,1.0,tablet_04s.jpg,0.0,clock_6_2.png,2.0,25,,,,,,,,,,,,,,,,,,,,,,,,,,,,,,,,
0.0,1.0,0.50081,0.0,7.0,7.0,7.0,1.0,sleeping_bag_12s.jpg,0.0,clock_6_3.png,2.0,25,,,,,,,,,,,,,,,,,,,,,,,,,,,,,,,,
0.0,1.0,0.613865,0.0,8.0,8.0,8.0,1.0,racehorse_03s.jpg,0.0,clock_6_4.png,2.0,25,,,,,,,,,,,,,,,,,,,,,,,,,,,,,,,,
,0.0,,0.0,9.0,9.0,9.0,1.0,peppermint_07s.jpg,0.0,clock_6_5.png,2.0,25,,,,,,,,,,,,,,,,,,,,,,,,,,,,,,,,
,0.0,,0.0,10.0,10.0,10.0,1.0,jukebox_03n.jpg,0.0,clock_6_6.png,2.0,25,,,,,,,,,,,,,,,,,,,,,,,,,,,,,,,,
0.0,1.0,1.535965,0.0,11.0,11.0,11.0,1.0,moth_06n.jpg,0.0,clock_6_1.png,3.0,25,,,,,,,,,,,,,,,,,,,,,,,,,,,,,,,,
0.0,1.0,2.057615,0.0,12.0,12.0,12.0,1.0,ant_12s.jpg,0.0,clock_6_2.png,3.0,25,,,,,,,,,,,,,,,,,,,,,,,,,,,,,,,,
0.0,1.0,1.38104,0.0,13.0,13.0,13.0,1.0,chocolate_01b.jpg,0.0,clock_6_3.png,3.0,25,,,,,,,,,,,,,,,,,,,,,,,,,,,,,,,,
0.0,1.0,1.77593,0.0,14.0,14.0,14.0,1.0,puck_06s.jpg,0.0,clock_6_4.png,3.0,25,,,,,,,,,,,,,,,,,,,,,,,,,,,,,,,,
1.0,1.0,1.979515,0.0,15.0,15.0,15.0,1.0,chocolate_01b.jpg,1.0,clock_6_5.png,3.0,25,,,,,,,,,,,,,,,,,,,,,,,,,,,,,,,,
0.0,1.0,1.757875,0.0,16.0,16.0,16.0,1.0,orchid_01b.jpg,0.0,clock_6_6.png,3.0,25,,,,,,,,,,,,,,,,,,,,,,,,,,,,,,,,
0.0,1.0,1.01529,0.0,17.0,17.0,17.0,1.0,pillow_03s.jpg,0.0,clock_7_1.png,4.0,25,,,,,,,,,,,,,,,,,,,,,,,,,,,,,,,,
0.0,0.0,0.77105,0.0,18.0,18.0,18.0,1.0,pillow_03s.jpg,1.0,clock_7_2.png,4.0,25,,,,,,,,,,,,,,,,,,,,,,,,,,,,,,,,
0.0,1.0,0.6777,0.0,19.0,19.0,19.0,1.0,loom_05s.jpg,0.0,clock_7_3.png,4.0,25,,,,,,,,,,,,,,,,,,,,,,,,,,,,,,,,
0.0,1.0,0.671475,0.0,20.0,20.0,20.0,1.0,kangaroo_02s.jpg,0.0,clock_7_4.png,4.0,25,,,,,,,,,,,,,,,,,,,,,,,,,,,,,,,,
0.0,1.0,0.62841,0.0,21.0,21.0,21.0,1.0,plunger_08s.jpg,0.0,clock_7_5.png,4.0,25,,,,,,,,,,,,,,,,,,,,,,,,,,,,,,,,
0.0,1.0,0.75818,0.0,22.0,22.0,22.0,1.0,refrigerator_07s.jpg,0.0,clock_7_6.png,4.0,25,,,,,,,,,,,,,,,,,,,,,,,,,,,,,,,,
0.0,1.0,0.75354,0.0,23.0,23.0,23.0,1.0,mousetrap_15n.jpg,0.0,clock_7_7.png,4.0,25,,,,,,,,,,,,,,,,,,,,,,,,,,,,,,,,
0.0,1.0,0.75604,0.0,24.0,24.0,24.0,1.0,margarita_03s.jpg,0.0,clock_5_1.png,5.0,25,,,,,,,,,,,,,,,,,,,,,,,,,,,,,,,,
0.0,1.0,0.751265,0.0,25.0,25.0,25.0,1.0,plaster_cast_13s.jpg,0.0,clock_5_2.png,5.0,25,,,,,,,,,,,,,,,,,,,,,,,,,,,,,,,,
0.0,1.0,0.4585,0.0,26.0,26.0,26.0,1.0,radio_09s.jpg,0.0,clock_5_3.png,5.0,25,,,,,,,,,,,,,,,,,,,,,,,,,,,,,,,,
0.0,1.0,0.692275,0.0,27.0,27.0,27.0,1.0,footprint_11s.jpg,0.0,clock_5_4.png,5.0,25,,,,,,,,,,,,,,,,,,,,,,,,,,,,,,,,
0.0,1.0,0.83148,0.0,28.0,28.0,28.0,1.0,ant_12s.jpg,0.0,clock_5_5.png,5.0,25,,,,,,,,,,,,,,,,,,,,,,,,,,,,,,,,
0.0,1.0,0.86503,0.0,29.0,29.0,29.0,1.0,tiger_06s.jpg,0.0,clock_7_1.png,6.0,25,,,,,,,,,,,,,,,,,,,,,,,,,,,,,,,,
0.0,1.0,0.515915,0.0,30.0,30.0,30.0,1.0,fishhook_06s.jpg,0.0,clock_7_2.png,6.0,25,,,,,,,,,,,,,,,,,,,,,,,,,,,,,,,,
0.0,1.0,0.42397,0.0,31.0,31.0,31.0,1.0,poinsettia_04s.jpg,0.0,clock_7_3.png,6.0,25,,,,,,,,,,,,,,,,,,,,,,,,,,,,,,,,
1.0,1.0,0.906545,0.0,32.0,32.0,32.0,1.0,tiger_06s.jpg,1.0,clock_7_4.png,6.0,25,,,,,,,,,,,,,,,,,,,,,,,,,,,,,,,,
0.0,1.0,0.47703,0.0,33.0,33.0,33.0,1.0,limousine_12s.jpg,0.0,clock_7_5.png,6.0,25,,,,,,,,,,,,,,,,,,,,,,,,,,,,,,,,
0.0,1.0,0.54278,0.0,34.0,34.0,34.0,1.0,submarine_11n.jpg,0.0,clock_7_6.png,6.0,25,,,,,,,,,,,,,,,,,,,,,,,,,,,,,,,,
0.0,1.0,0.449885,0.0,35.0,35.0,35.0,1.0,quill_09s.jpg,0.0,clock_7_7.png,6.0,25,,,,,,,,,,,,,,,,,,,,,,,,,,,,,,,,
,,,,,,,,,0.0,,,25,0.0,1.0,2.356405,0.0,0.0,0.0,0.0,1.0,moth_06n.jpg,racehorse_03s.jpg,,,,,,,,,,,,,,,,,,,,,,
,,,,,,,,,1.0,,,25,1.0,1.0,5.940045,0.0,1.0,1.0,1.0,1.0,orchid_01b.jpg,loom_05s.jpg,,,,,,,,,,,,,,,,,,,,,,
,,,,,,,,,0.0,,,25,1.0,0.0,1.858585,0.0,2.0,2.0,2.0,1.0,margarita_03s.jpg,plunger_08s.jpg,,,,,,,,,,,,,,,,,,,,,,
,,,,,,,,,1.0,,,25,1.0,1.0,2.01801,0.0,3.0,3.0,3.0,1.0,sleeping_bag_12s.jpg,jukebox_03n.jpg,,,,,,,,,,,,,,,,,,,,,,
,,,,,,,,,1.0,,,25,1.0,1.0,2.26689,0.0,4.0,4.0,4.0,1.0,kangaroo_02s.jpg,mousetrap_15n.jpg,,,,,,,,,,,,,,,,,,,,,,
,,,,,,,,,0.0,,,25,1.0,0.0,1.833215,0.0,5.0,5.0,5.0,1.0,submarine_11n.jpg,poinsettia_04s.jpg,,,,,,,,,,,,,,,,,,,,,,
,,,,,,,,,,,,25,,,,,,,,,,,0.0,0.0,0.0,0.0,1.0,clock_present_1_16.xlsx,clock_compare_task_1_16.xlsx,,,,,,,,,,,,,,,
0.0,1.0,1.455145,0.0,0.0,0.0,0.0,1.0,metronome_03s.jpg,0.0,clock_5_1.png,1.0,25,,,,,,,,,,,,,,,,,,,,,,,,,,,,,,,,
0.0,1.0,0.90723,0.0,1.0,1.0,1.0,1.0,cereal_04s.jpg,0.0,clock_5_2.png,1.0,25,,,,,,,,,,,,,,,,,,,,,,,,,,,,,,,,
0.0,1.0,0.679165,0.0,2.0,2.0,2.0,1.0,tripod_01b.jpg,0.0,clock_5_3.png,1.0,25,,,,,,,,,,,,,,,,,,,,,,,,,,,,,,,,
0.0,1.0,0.97523,0.0,3.0,3.0,3.0,1.0,thermostat_02s.jpg,0.0,clock_5_4.png,1.0,25,,,,,,,,,,,,,,,,,,,,,,,,,,,,,,,,
0.0,1.0,0.57698,0.0,4.0,4.0,4.0,1.0,jalapeno_15s.jpg,0.0,clock_5_5.png,1.0,25,,,,,,,,,,,,,,,,,,,,,,,,,,,,,,,,
0.0,1.0,0.574345,0.0,5.0,5.0,5.0,1.0,aluminum_foil_08s.jpg,0.0,clock_6_1.png,2.0,25,,,,,,,,,,,,,,,,,,,,,,,,,,,,,,,,
0.0,1.0,0.53629,0.0,6.0,6.0,6.0,1.0,medal_04s.jpg,0.0,clock_6_2.png,2.0,25,,,,,,,,,,,,,,,,,,,,,,,,,,,,,,,,
0.0,1.0,0.60373,0.0,7.0,7.0,7.0,1.0,flip_flop_03s.jpg,0.0,clock_6_3.png,2.0,25,,,,,,,,,,,,,,,,,,,,,,,,,,,,,,,,
0.0,1.0,0.54222,0.0,8.0,8.0,8.0,1.0,orangutan_03s.jpg,0.0,clock_6_4.png,2.0,25,,,,,,,,,,,,,,,,,,,,,,,,,,,,,,,,
0.0,1.0,0.54592,0.0,9.0,9.0,9.0,1.0,otter_05s.jpg,0.0,clock_6_5.png,2.0,25,,,,,,,,,,,,,,,,,,,,,,,,,,,,,,,,
0.0,1.0,0.56394,0.0,10.0,10.0,10.0,1.0,polar_bear_02s.jpg,0.0,clock_6_6.png,2.0,25,,,,,,,,,,,,,,,,,,,,,,,,,,,,,,,,
0.0,1.0,0.567135,0.0,11.0,11.0,11.0,1.0,pocketknife_12s.jpg,0.0,clock_7_1.png,3.0,25,,,,,,,,,,,,,,,,,,,,,,,,,,,,,,,,
1.0,1.0,0.817505,0.0,12.0,12.0,12.0,1.0,pocketknife_12s.jpg,1.0,clock_7_2.png,3.0,25,,,,,,,,,,,,,,,,,,,,,,,,,,,,,,,,
0.0,1.0,0.612595,0.0,13.0,13.0,13.0,1.0,tulip_02s.jpg,0.0,clock_7_3.png,3.0,25,,,,,,,,,,,,,,,,,,,,,,,,,,,,,,,,
0.0,1.0,0.60693,0.0,14.0,14.0,14.0,1.0,lamb_chop_07s.jpg,0.0,clock_7_4.png,3.0,25,,,,,,,,,,,,,,,,,,,,,,,,,,,,,,,,
0.0,1.0,0.54613,0.0,15.0,15.0,15.0,1.0,tape_measure_11s.jpg,0.0,clock_7_5.png,3.0,25,,,,,,,,,,,,,,,,,,,,,,,,,,,,,,,,
1.0,1.0,0.956775,0.0,16.0,16.0,16.0,1.0,pocketknife_12s.jpg,1.0,clock_7_6.png,3.0,25,,,,,,,,,,,,,,,,,,,,,,,,,,,,,,,,
0.0,1.0,0.55959,0.0,17.0,17.0,17.0,1.0,pear_02s.jpg,0.0,clock_7_7.png,3.0,25,,,,,,,,,,,,,,,,,,,,,,,,,,,,,,,,
0.0,1.0,0.63427,0.0,18.0,18.0,18.0,1.0,lectern_08s.jpg,0.0,clock_6_1.png,4.0,25,,,,,,,,,,,,,,,,,,,,,,,,,,,,,,,,
0.0,1.0,0.662885,0.0,19.0,19.0,19.0,1.0,pineapple_12s.jpg,0.0,clock_6_2.png,4.0,25,,,,,,,,,,,,,,,,,,,,,,,,,,,,,,,,
0.0,1.0,0.55962,0.0,20.0,20.0,20.0,1.0,stamp1_11s.jpg,0.0,clock_6_3.png,4.0,25,,,,,,,,,,,,,,,,,,,,,,,,,,,,,,,,
0.0,1.0,0.61767,0.0,21.0,21.0,21.0,1.0,boomerang_06s.jpg,0.0,clock_6_4.png,4.0,25,,,,,,,,,,,,,,,,,,,,,,,,,,,,,,,,
0.0,1.0,0.62144,0.0,22.0,22.0,22.0,1.0,screwdriver02a.jpg,0.0,clock_6_5.png,4.0,25,,,,,,,,,,,,,,,,,,,,,,,,,,,,,,,,
0.0,1.0,0.559805,0.0,23.0,23.0,23.0,1.0,solar_panel_02s.jpg,0.0,clock_6_6.png,4.0,25,,,,,,,,,,,,,,,,,,,,,,,,,,,,,,,,
0.0,1.0,0.59625,0.0,24.0,24.0,24.0,1.0,tile_08s.jpg,0.0,clock_5_1.png,5.0,25,,,,,,,,,,,,,,,,,,,,,,,,,,,,,,,,
0.0,1.0,0.789755,0.0,25.0,25.0,25.0,1.0,roulette_wheel_04s.jpg,0.0,clock_5_2.png,5.0,25,,,,,,,,,,,,,,,,,,,,,,,,,,,,,,,,
0.0,1.0,0.55886,0.0,26.0,26.0,26.0,1.0,lid_10s.jpg,0.0,clock_5_3.png,5.0,25,,,,,,,,,,,,,,,,,,,,,,,,,,,,,,,,
1.0,0.0,0.867425,0.0,27.0,27.0,27.0,1.0,pineapple_12s.jpg,0.0,clock_5_4.png,5.0,25,,,,,,,,,,,,,,,,,,,,,,,,,,,,,,,,
0.0,1.0,0.757925,0.0,28.0,28.0,28.0,1.0,potpourri_03s.jpg,0.0,clock_5_5.png,5.0,25,,,,,,,,,,,,,,,,,,,,,,,,,,,,,,,,
0.0,1.0,0.59218,0.0,29.0,29.0,29.0,1.0,measuring_cup_02s.jpg,0.0,clock_7_1.png,6.0,25,,,,,,,,,,,,,,,,,,,,,,,,,,,,,,,,
0.0,1.0,0.642795,0.0,30.0,30.0,30.0,1.0,kite_04s.jpg,0.0,clock_7_2.png,6.0,25,,,,,,,,,,,,,,,,,,,,,,,,,,,,,,,,
1.0,0.0,0.885975,0.0,31.0,31.0,31.0,1.0,solar_panel_02s.jpg,0.0,clock_7_3.png,6.0,25,,,,,,,,,,,,,,,,,,,,,,,,,,,,,,,,
0.0,1.0,0.65695,0.0,32.0,32.0,32.0,1.0,piano_13n.jpg,0.0,clock_7_4.png,6.0,25,,,,,,,,,,,,,,,,,,,,,,,,,,,,,,,,
0.0,1.0,0.58668,0.0,33.0,33.0,33.0,1.0,sea_urchin_09s.jpg,0.0,clock_7_5.png,6.0,25,,,,,,,,,,,,,,,,,,,,,,,,,,,,,,,,
1.0,0.0,1.399355,0.0,34.0,34.0,34.0,1.0,thermostat_02s.jpg,0.0,clock_7_6.png,6.0,25,,,,,,,,,,,,,,,,,,,,,,,,,,,,,,,,
1.0,0.0,1.919865,0.0,35.0,35.0,35.0,1.0,stapler_01b.jpg,0.0,clock_7_7.png,6.0,25,,,,,,,,,,,,,,,,,,,,,,,,,,,,,,,,
,,,,,,,,,0.0,,,25,1.0,0.0,1.550345,0.0,0.0,0.0,0.0,1.0,aluminum_foil_08s.jpg,tripod_01b.jpg,,,,,,,,,,,,,,,,,,,,,,
,,,,,,,,,0.0,,,25,0.0,1.0,3.06771,0.0,1.0,1.0,1.0,1.0,tulip_02s.jpg,polar_bear_02s.jpg,,,,,,,,,,,,,,,,,,,,,,
,,,,,,,,,1.0,,,25,0.0,0.0,2.083675,0.0,2.0,2.0,2.0,1.0,tape_measure_11s.jpg,lectern_08s.jpg,,,,,,,,,,,,,,,,,,,,,,
,,,,,,,,,1.0,,,25,1.0,1.0,2.405505,0.0,3.0,3.0,3.0,1.0,medal_04s.jpg,otter_05s.jpg,,,,,,,,,,,,,,,,,,,,,,
,,,,,,,,,1.0,,,25,1.0,1.0,1.70115,0.0,4.0,4.0,4.0,1.0,kite_04s.jpg,sea_urchin_09s.jpg,,,,,,,,,,,,,,,,,,,,,,
,,,,,,,,,1.0,,,25,0.0,0.0,1.922555,0.0,5.0,5.0,5.0,1.0,piano_13n.jpg,stapler_01b.jpg,,,,,,,,,,,,,,,,,,,,,,
,,,,,,,,,,,,25,,,,,,,,,,,0.0,1.0,1.0,1.0,1.0,clock_present_2_16.xlsx,clock_compare_task_2_16.xlsx,,,,,,,,,,,,,,,
0.0,1.0,1.02077,0.0,0.0,0.0,0.0,1.0,trampoline_13s.jpg,0.0,clock_5_1.png,1.0,25,,,,,,,,,,,,,,,,,,,,,,,,,,,,,,,,
0.0,1.0,0.6965,0.0,1.0,1.0,1.0,1.0,ice_pack_09s.jpg,0.0,clock_5_2.png,1.0,25,,,,,,,,,,,,,,,,,,,,,,,,,,,,,,,,
0.0,1.0,1.048635,0.0,2.0,2.0,2.0,1.0,printer_09s.jpg,0.0,clock_5_3.png,1.0,25,,,,,,,,,,,,,,,,,,,,,,,,,,,,,,,,
1.0,1.0,0.804435,0.0,3.0,3.0,3.0,1.0,ice_pack_09s.jpg,1.0,clock_5_4.png,1.0,25,,,,,,,,,,,,,,,,,,,,,,,,,,,,,,,,
0.0,1.0,0.886785,0.0,4.0,4.0,4.0,1.0,koala_13s.jpg,0.0,clock_5_5.png,1.0,25,,,,,,,,,,,,,,,,,,,,,,,,,,,,,,,,
0.0,1.0,1.033535,0.0,5.0,5.0,5.0,1.0,key_07s.jpg,0.0,clock_5_1.png,2.0,25,,,,,,,,,,,,,,,,,,,,,,,,,,,,,,,,
0.0,1.0,0.603875,0.0,6.0,6.0,6.0,1.0,lamppost_09s.jpg,0.0,clock_5_2.png,2.0,25,,,,,,,,,,,,,,,,,,,,,,,,,,,,,,,,
0.0,1.0,0.727845,0.0,7.0,7.0,7.0,1.0,jigsaw_puzzle_11s.jpg,0.0,clock_5_3.png,2.0,25,,,,,,,,,,,,,,,,,,,,,,,,,,,,,,,,
0.0,1.0,0.58552,0.0,8.0,8.0,8.0,1.0,pantyhose_07s.jpg,0.0,clock_5_4.png,2.0,25,,,,,,,,,,,,,,,,,,,,,,,,,,,,,,,,
0.0,1.0,0.564265,0.0,9.0,9.0,9.0,1.0,typewriter_11s.jpg,0.0,clock_5_5.png,2.0,25,,,,,,,,,,,,,,,,,,,,,,,,,,,,,,,,
0.0,1.0,0.575515,0.0,10.0,10.0,10.0,1.0,rocking_horse_03s.jpg,0.0,clock_7_1.png,3.0,25,,,,,,,,,,,,,,,,,,,,,,,,,,,,,,,,
1.0,1.0,0.658975,0.0,11.0,11.0,11.0,1.0,rocking_horse_03s.jpg,1.0,clock_7_2.png,3.0,25,,,,,,,,,,,,,,,,,,,,,,,,,,,,,,,,
0.0,1.0,0.59541,0.0,12.0,12.0,12.0,1.0,spider_web_03s.jpg,0.0,clock_7_3.png,3.0,25,,,,,,,,,,,,,,,,,,,,,,,,,,,,,,,,
0.0,1.0,0.64755,0.0,13.0,13.0,13.0,1.0,hydrant_10s.jpg,0.0,clock_7_4.png,3.0,25,,,,,,,,,,,,,,,,,,,,,,,,,,,,,,,,
0.0,1.0,0.617975,0.0,14.0,14.0,14.0,1.0,recliner_02s.jpg,0.0,clock_7_5.png,3.0,25,,,,,,,,,,,,,,,,,,,,,,,,,,,,,,,,
0.0,1.0,1.500895,0.0,15.0,15.0,15.0,1.0,pantyhose_07s.jpg,0.0,clock_7_6.png,3.0,25,,,,,,,,,,,,,,,,,,,,,,,,,,,,,,,,
0.0,1.0,0.576175,0.0,16.0,16.0,16.0,1.0,mosquito_12s.jpg,0.0,clock_7_7.png,3.0,25,,,,,,,,,,,,,,,,,,,,,,,,,,,,,,,,
0.0,1.0,0.666325,0.0,17.0,17.0,17.0,1.0,pan_02s.jpg,0.0,clock_7_1.png,4.0,25,,,,,,,,,,,,,,,,,,,,,,,,,,,,,,,,
0.0,1.0,0.556915,0.0,18.0,18.0,18.0,1.0,rope_16s.jpg,0.0,clock_7_2.png,4.0,25,,,,,,,,,,,,,,,,,,,,,,,,,,,,,,,,
0.0,1.0,0.496045,0.0,19.0,19.0,19.0,1.0,diving_board_07s.jpg,0.0,clock_7_3.png,4.0,25,,,,,,,,,,,,,,,,,,,,,,,,,,,,,,,,
0.0,1.0,1.314075,0.0,20.0,20.0,20.0,1.0,lamppost_09s.jpg,0.0,clock_7_4.png,4.0,25,,,,,,,,,,,,,,,,,,,,,,,,,,,,,,,,
0.0,1.0,0.669465,0.0,21.0,21.0,21.0,1.0,tape_06s.jpg,0.0,clock_7_5.png,4.0,25,,,,,,,,,,,,,,,,,,,,,,,,,,,,,,,,
0.0,1.0,0.568415,0.0,22.0,22.0,22.0,1.0,keyhole_03s.jpg,0.0,clock_7_6.png,4.0,25,,,,,,,,,,,,,,,,,,,,,,,,,,,,,,,,
0.0,1.0,0.57947,0.0,23.0,23.0,23.0,1.0,compass_10n.jpg,0.0,clock_7_7.png,4.0,25,,,,,,,,,,,,,,,,,,,,,,,,,,,,,,,,
0.0,1.0,0.52518,0.0,24.0,24.0,24.0,1.0,coconut_08s.jpg,0.0,clock_6_1.png,5.0,25,,,,,,,,,,,,,,,,,,,,,,,,,,,,,,,,
0.0,1.0,0.56842,0.0,25.0,25.0,25.0,1.0,bolo_tie_08s.jpg,0.0,clock_6_2.png,5.0,25,,,,,,,,,,,,,,,,,,,,,,,,,,,,,,,,
0.0,1.0,0.43445,0.0,26.0,26.0,26.0,1.0,frog_09s.jpg,0.0,clock_6_3.png,5.0,25,,,,,,,,,,,,,,,,,,,,,,,,,,,,,,,,
0.0,1.0,0.50165,0.0,27.0,27.0,27.0,1.0,mop_08s.jpg,0.0,clock_6_4.png,5.0,25,,,,,,,,,,,,,,,,,,,,,,,,,,,,,,,,
0.0,1.0,0.424555,0.0,28.0,28.0,28.0,1.0,jewel_01b.jpg,0.0,clock_6_5.png,5.0,25,,,,,,,,,,,,,,,,,,,,,,,,,,,,,,,,
1.0,1.0,1.03074,0.0,29.0,29.0,29.0,1.0,mop_08s.jpg,1.0,clock_6_6.png,5.0,25,,,,,,,,,,,,,,,,,,,,,,,,,,,,,,,,
0.0,1.0,0.59018,0.0,30.0,30.0,30.0,1.0,leash_10s.jpg,0.0,clock_6_1.png,6.0,25,,,,,,,,,,,,,,,,,,,,,,,,,,,,,,,,
1.0,1.0,1.14783,0.0,31.0,31.0,31.0,1.0,leash_10s.jpg,1.0,clock_6_2.png,6.0,25,,,,,,,,,,,,,,,,,,,,,,,,,,,,,,,,
1.0,1.0,0.97198,0.0,32.0,32.0,32.0,1.0,leash_10s.jpg,1.0,clock_6_3.png,6.0,25,,,,,,,,,,,,,,,,,,,,,,,,,,,,,,,,
0.0,1.0,0.605355,0.0,33.0,33.0,33.0,1.0,abacus_12s.jpg,0.0,clock_6_4.png,6.0,25,,,,,,,,,,,,,,,,,,,,,,,,,,,,,,,,
0.0,1.0,1.1218,0.0,34.0,34.0,34.0,1.0,compass_10n.jpg,0.0,clock_6_5.png,6.0,25,,,,,,,,,,,,,,,,,,,,,,,,,,,,,,,,
0.0,1.0,0.57996,0.0,35.0,35.0,35.0,1.0,marker_05s.jpg,0.0,clock_6_6.png,6.0,25,,,,,,,,,,,,,,,,,,,,,,,,,,,,,,,,
,,,,,,,,,1.0,,,25,1.0,1.0,2.40005,0.0,0.0,0.0,0.0,1.0,printer_09s.jpg,key_07s.jpg,,,,,,,,,,,,,,,,,,,,,,
,,,,,,,,,1.0,,,25,1.0,1.0,1.65531,0.0,1.0,1.0,1.0,1.0,koala_13s.jpg,jigsaw_puzzle_11s.jpg,,,,,,,,,,,,,,,,,,,,,,
,,,,,,,,,0.0,,,25,0.0,1.0,2.438335,0.0,2.0,2.0,2.0,1.0,spider_web_03s.jpg,typewriter_11s.jpg,,,,,,,,,,,,,,,,,,,,,,
,,,,,,,,,0.0,,,25,0.0,1.0,3.1169,0.0,3.0,3.0,3.0,1.0,mosquito_12s.jpg,hydrant_10s.jpg,,,,,,,,,,,,,,,,,,,,,,
,,,,,,,,,0.0,,,25,1.0,0.0,1.92819,0.0,4.0,4.0,4.0,1.0,tape_06s.jpg,rope_16s.jpg,,,,,,,,,,,,,,,,,,,,,,
,,,,,,,,,0.0,,,25,0.0,1.0,1.53162,0.0,5.0,5.0,5.0,1.0,jewel_01b.jpg,bolo_tie_08s.jpg,,,,,,,,,,,,,,,,,,,,,,
,,,,,,,,,,,,25,,,,,,,,,,,0.0,2.0,2.0,2.0,1.0,clock_present_3_16.xlsx,clock_compare_task_3_16.xlsx,,,,,,,,,,,,,,,
0.0,1.0,1.084095,0.0,0.0,0.0,0.0,1.0,mud_13s.jpg,0.0,clock_5_1.png,1.0,25,,,,,,,,,,,,,,,,,,,,,,,,,,,,,,,,
0.0,1.0,0.77322,0.0,1.0,1.0,1.0,1.0,mannequin_05s.jpg,0.0,clock_5_2.png,1.0,25,,,,,,,,,,,,,,,,,,,,,,,,,,,,,,,,
0.0,1.0,0.5358,0.0,2.0,2.0,2.0,1.0,turtleneck_11s.jpg,0.0,clock_5_3.png,1.0,25,,,,,,,,,,,,,,,,,,,,,,,,,,,,,,,,
0.0,1.0,0.52194,0.0,3.0,3.0,3.0,1.0,umbrella_15s.jpg,0.0,clock_5_4.png,1.0,25,,,,,,,,,,,,,,,,,,,,,,,,,,,,,,,,
1.0,1.0,0.981235,0.0,4.0,4.0,4.0,1.0,mannequin_05s.jpg,1.0,clock_5_5.png,1.0,25,,,,,,,,,,,,,,,,,,,,,,,,,,,,,,,,
0.0,1.0,0.639355,0.0,5.0,5.0,5.0,1.0,quad_04s.jpg,0.0,clock_7_1.png,2.0,25,,,,,,,,,,,,,,,,,,,,,,,,,,,,,,,,
0.0,1.0,0.52249,0.0,6.0,6.0,6.0,1.0,inhaler_01b.jpg,0.0,clock_7_2.png,2.0,25,,,,,,,,,,,,,,,,,,,,,,,,,,,,,,,,
0.0,1.0,0.62175,0.0,7.0,7.0,7.0,1.0,lollipop_08s.jpg,0.0,clock_7_3.png,2.0,25,,,,,,,,,,,,,,,,,,,,,,,,,,,,,,,,
0.0,1.0,1.04028,0.0,8.0,8.0,8.0,1.0,rocket_02s.jpg,0.0,clock_7_4.png,2.0,25,,,,,,,,,,,,,,,,,,,,,,,,,,,,,,,,
0.0,1.0,0.51387,0.0,9.0,9.0,9.0,1.0,spacesuit_02s.jpg,0.0,clock_7_5.png,2.0,25,,,,,,,,,,,,,,,,,,,,,,,,,,,,,,,,
0.0,1.0,0.46274,0.0,10.0,10.0,10.0,1.0,quesadilla_07s.jpg,0.0,clock_7_6.png,2.0,25,,,,,,,,,,,,,,,,,,,,,,,,,,,,,,,,
0.0,1.0,0.368515,0.0,11.0,11.0,11.0,1.0,punch1_10s.jpg,0.0,clock_7_7.png,2.0,25,,,,,,,,,,,,,,,,,,,,,,,,,,,,,,,,
0.0,1.0,0.69826,0.0,12.0,12.0,12.0,1.0,swimming_pool_17s.jpg,0.0,clock_5_1.png,3.0,25,,,,,,,,,,,,,,,,,,,,,,,,,,,,,,,,
0.0,1.0,0.629055,0.0,13.0,13.0,13.0,1.0,espresso_01b.jpg,0.0,clock_5_2.png,3.0,25,,,,,,,,,,,,,,,,,,,,,,,,,,,,,,,,
0.0,1.0,0.53694,0.0,14.0,14.0,14.0,1.0,torch_02s.jpg,0.0,clock_5_3.png,3.0,25,,,,,,,,,,,,,,,,,,,,,,,,,,,,,,,,
0.0,1.0,1.091545,0.0,15.0,15.0,15.0,1.0,spacesuit_02s.jpg,0.0,clock_5_4.png,3.0,25,,,,,,,,,,,,,,,,,,,,,,,,,,,,,,,,
0.0,1.0,0.75674,0.0,16.0,16.0,16.0,1.0,pipe1_10s.jpg,0.0,clock_5_5.png,3.0,25,,,,,,,,,,,,,,,,,,,,,,,,,,,,,,,,
0.0,1.0,0.504385,0.0,17.0,17.0,17.0,1.0,hummingbird_05s.jpg,0.0,clock_6_1.png,4.0,25,,,,,,,,,,,,,,,,,,,,,,,,,,,,,,,,
0.0,1.0,0.8028,0.0,18.0,18.0,18.0,1.0,scooter.jpg,0.0,clock_6_2.png,4.0,25,,,,,,,,,,,,,,,,,,,,,,,,,,,,,,,,
0.0,1.0,0.85406,0.0,19.0,19.0,19.0,1.0,sunglasses_11s.jpg,0.0,clock_6_3.png,4.0,25,,,,,,,,,,,,,,,,,,,,,,,,,,,,,,,,
0.0,0.0,0.825095,0.0,20.0,20.0,20.0,1.0,hummingbird_05s.jpg,1.0,clock_6_4.png,4.0,25,,,,,,,,,,,,,,,,,,,,,,,,,,,,,,,,
0.0,1.0,0.586665,0.0,21.0,21.0,21.0,1.0,ice-cream_cone_06s.jpg,0.0,clock_6_5.png,4.0,25,,,,,,,,,,,,,,,,,,,,,,,,,,,,,,,,
0.0,1.0,0.926855,0.0,22.0,22.0,22.0,1.0,ink_08s.jpg,0.0,clock_6_6.png,4.0,25,,,,,,,,,,,,,,,,,,,,,,,,,,,,,,,,
0.0,1.0,1.056505,0.0,23.0,23.0,23.0,1.0,butter_14s.jpg,0.0,clock_6_1.png,5.0,25,,,,,,,,,,,,,,,,,,,,,,,,,,,,,,,,
,0.0,,0.0,24.0,24.0,24.0,1.0,ink_08s.jpg,0.0,clock_6_2.png,5.0,25,,,,,,,,,,,,,,,,,,,,,,,,,,,,,,,,
0.0,1.0,1.09642,0.0,25.0,25.0,25.0,1.0,foam_03s.jpg,0.0,clock_6_3.png,5.0,25,,,,,,,,,,,,,,,,,,,,,,,,,,,,,,,,
0.0,1.0,0.512785,0.0,26.0,26.0,26.0,1.0,lava_02s.jpg,0.0,clock_6_4.png,5.0,25,,,,,,,,,,,,,,,,,,,,,,,,,,,,,,,,
0.0,1.0,0.49934,0.0,27.0,27.0,27.0,1.0,rudder_02s.jpg,0.0,clock_6_5.png,5.0,25,,,,,,,,,,,,,,,,,,,,,,,,,,,,,,,,
0.0,1.0,0.550765,0.0,28.0,28.0,28.0,1.0,tab_09s.jpg,0.0,clock_6_6.png,5.0,25,,,,,,,,,,,,,,,,,,,,,,,,,,,,,,,,
0.0,1.0,0.59505,0.0,29.0,29.0,29.0,1.0,lemonade_04s.jpg,0.0,clock_7_1.png,6.0,25,,,,,,,,,,,,,,,,,,,,,,,,,,,,,,,,
0.0,1.0,0.463195,0.0,30.0,30.0,30.0,1.0,lollipop_08s.jpg,0.0,clock_7_2.png,6.0,25,,,,,,,,,,,,,,,,,,,,,,,,,,,,,,,,
0.0,1.0,0.383895,0.0,31.0,31.0,31.0,1.0,teabag_12s.jpg,0.0,clock_7_3.png,6.0,25,,,,,,,,,,,,,,,,,,,,,,,,,,,,,,,,
0.0,1.0,0.658155,0.0,32.0,32.0,32.0,1.0,sunglasses_11s.jpg,0.0,clock_7_4.png,6.0,25,,,,,,,,,,,,,,,,,,,,,,,,,,,,,,,,
0.0,0.0,1.22128,0.0,33.0,33.0,33.0,1.0,lemonade_04s.jpg,1.0,clock_7_5.png,6.0,25,,,,,,,,,,,,,,,,,,,,,,,,,,,,,,,,
0.0,1.0,0.87994,0.0,34.0,34.0,34.0,1.0,fire_pit_10s.jpg,0.0,clock_7_6.png,6.0,25,,,,,,,,,,,,,,,,,,,,,,,,,,,,,,,,
0.0,1.0,0.865675,0.0,35.0,35.0,35.0,1.0,crayon_09s.jpg,0.0,clock_7_7.png,6.0,25,,,,,,,,,,,,,,,,,,,,,,,,,,,,,,,,
,,,,,,,,,0.0,,,25,1.0,0.0,2.147715,0.0,0.0,0.0,0.0,1.0,quad_04s.jpg,turtleneck_11s.jpg,,,,,,,,,,,,,,,,,,,,,,
,,,,,,,,,1.0,,,25,1.0,1.0,2.435165,0.0,1.0,1.0,1.0,1.0,umbrella_15s.jpg,inhaler_01b.jpg,,,,,,,,,,,,,,,,,,,,,,
,,,,,,,,,1.0,,,25,0.0,0.0,2.40212,0.0,2.0,2.0,2.0,1.0,quesadilla_07s.jpg,espresso_01b.jpg,,,,,,,,,,,,,,,,,,,,,,
,,,,,,,,,1.0,,,25,1.0,1.0,3.249985,0.0,3.0,3.0,3.0,1.0,scooter.jpg,ice-cream_cone_06s.jpg,,,,,,,,,,,,,,,,,,,,,,
,,,,,,,,,1.0,,,25,1.0,1.0,1.758755,0.0,4.0,4.0,4.0,1.0,butter_14s.jpg,lava_02s.jpg,,,,,,,,,,,,,,,,,,,,,,
,,,,,,,,,1.0,,,25,1.0,1.0,2.84298,0.0,5.0,5.0,5.0,1.0,rocket_02s.jpg,punch1_10s.jpg,,,,,,,,,,,,,,,,,,,,,,
,,,,,,,,,,,,25,,,,,,,,,,,0.0,3.0,3.0,3.0,1.0,clock_present_4_16.xlsx,clock_compare_task_4_16.xlsx,,,,,,,,,,,,,,,
0.0,1.0,1.252345,0.0,0.0,0.0,0.0,1.0,clover_04s.jpg,0.0,clock_6_1.png,1.0,25,,,,,,,,,,,,,,,,,,,,,,,,,,,,,,,,
0.0,1.0,0.470795,0.0,1.0,1.0,1.0,1.0,kayak_08s.jpg,0.0,clock_6_2.png,1.0,25,,,,,,,,,,,,,,,,,,,,,,,,,,,,,,,,
0.0,1.0,0.32202,0.0,2.0,2.0,2.0,1.0,toothpaste_12s.jpg,0.0,clock_6_3.png,1.0,25,,,,,,,,,,,,,,,,,,,,,,,,,,,,,,,,
1.0,1.0,0.899615,0.0,3.0,3.0,3.0,1.0,kayak_08s.jpg,1.0,clock_6_4.png,1.0,25,,,,,,,,,,,,,,,,,,,,,,,,,,,,,,,,
1.0,1.0,0.751315,0.0,4.0,4.0,4.0,1.0,clover_04s.jpg,1.0,clock_6_5.png,1.0,25,,,,,,,,,,,,,,,,,,,,,,,,,,,,,,,,
0.0,1.0,0.849865,0.0,5.0,5.0,5.0,1.0,bonsai_07s.jpg,0.0,clock_6_6.png,1.0,25,,,,,,,,,,,,,,,,,,,,,,,,,,,,,,,,
0.0,1.0,1.54861,0.0,6.0,6.0,6.0,1.0,comic_book_02s.jpg,0.0,clock_5_1.png,2.0,25,,,,,,,,,,,,,,,,,,,,,,,,,,,,,,,,
0.0,1.0,0.47883,0.0,7.0,7.0,7.0,1.0,penlight_12s.jpg,0.0,clock_5_2.png,2.0,25,,,,,,,,,,,,,,,,,,,,,,,,,,,,,,,,
0.0,1.0,0.530405,0.0,8.0,8.0,8.0,1.0,emerald_02s.jpg,0.0,clock_5_3.png,2.0,25,,,,,,,,,,,,,,,,,,,,,,,,,,,,,,,,
0.0,1.0,0.61351,0.0,9.0,9.0,9.0,1.0,mussel_11s.jpg,0.0,clock_5_4.png,2.0,25,,,,,,,,,,,,,,,,,,,,,,,,,,,,,,,,
0.0,1.0,0.679485,0.0,10.0,10.0,10.0,1.0,rock_08s.jpg,0.0,clock_5_5.png,2.0,25,,,,,,,,,,,,,,,,,,,,,,,,,,,,,,,,
0.0,1.0,0.64271,0.0,11.0,11.0,11.0,1.0,toilet_paper_12s.jpg,0.0,clock_6_1.png,3.0,25,,,,,,,,,,,,,,,,,,,,,,,,,,,,,,,,
0.0,1.0,0.70017,0.0,12.0,12.0,12.0,1.0,microwave_02s.jpg,0.0,clock_6_2.png,3.0,25,,,,,,,,,,,,,,,,,,,,,,,,,,,,,,,,
1.0,1.0,0.848275,0.0,13.0,13.0,13.0,1.0,toilet_paper_12s.jpg,1.0,clock_6_3.png,3.0,25,,,,,,,,,,,,,,,,,,,,,,,,,,,,,,,,
0.0,1.0,0.481815,0.0,14.0,14.0,14.0,1.0,mattress_01s.jpg,0.0,clock_6_4.png,3.0,25,,,,,,,,,,,,,,,,,,,,,,,,,,,,,,,,
0.0,1.0,0.509395,0.0,15.0,15.0,15.0,1.0,cushion_08s.jpg,0.0,clock_6_5.png,3.0,25,,,,,,,,,,,,,,,,,,,,,,,,,,,,,,,,
0.0,1.0,0.67195,0.0,16.0,16.0,16.0,1.0,rhinoceros_02s.jpg,0.0,clock_6_6.png,3.0,25,,,,,,,,,,,,,,,,,,,,,,,,,,,,,,,,
0.0,1.0,0.63466,0.0,17.0,17.0,17.0,1.0,latte_06s.jpg,0.0,clock_5_1.png,4.0,25,,,,,,,,,,,,,,,,,,,,,,,,,,,,,,,,
0.0,1.0,0.484855,0.0,18.0,18.0,18.0,1.0,projector_08s.jpg,0.0,clock_5_2.png,4.0,25,,,,,,,,,,,,,,,,,,,,,,,,,,,,,,,,
0.0,1.0,0.513175,0.0,19.0,19.0,19.0,1.0,rollerskate_03s.jpg,0.0,clock_5_3.png,4.0,25,,,,,,,,,,,,,,,,,,,,,,,,,,,,,,,,
1.0,1.0,0.92352,0.0,20.0,20.0,20.0,1.0,latte_06s.jpg,1.0,clock_5_4.png,4.0,25,,,,,,,,,,,,,,,,,,,,,,,,,,,,,,,,
0.0,1.0,0.54934,0.0,21.0,21.0,21.0,1.0,pincushion_10s.jpg,0.0,clock_5_5.png,4.0,25,,,,,,,,,,,,,,,,,,,,,,,,,,,,,,,,
0.0,1.0,0.528915,0.0,22.0,22.0,22.0,1.0,tuba_12s.jpg,0.0,clock_7_1.png,5.0,25,,,,,,,,,,,,,,,,,,,,,,,,,,,,,,,,
0.0,1.0,0.47546,0.0,23.0,23.0,23.0,1.0,cucumber_07s.jpg,0.0,clock_7_2.png,5.0,25,,,,,,,,,,,,,,,,,,,,,,,,,,,,,,,,
0.0,1.0,0.50951,0.0,24.0,24.0,24.0,1.0,treasure_08s.jpg,0.0,clock_7_3.png,5.0,25,,,,,,,,,,,,,,,,,,,,,,,,,,,,,,,,
1.0,1.0,1.002395,0.0,25.0,25.0,25.0,1.0,cucumber_07s.jpg,1.0,clock_7_4.png,5.0,25,,,,,,,,,,,,,,,,,,,,,,,,,,,,,,,,
0.0,1.0,0.57174,0.0,26.0,26.0,26.0,1.0,razor_12s.jpg,0.0,clock_7_5.png,5.0,25,,,,,,,,,,,,,,,,,,,,,,,,,,,,,,,,
0.0,1.0,0.589235,0.0,27.0,27.0,27.0,1.0,sunflower_17s.jpg,0.0,clock_7_6.png,5.0,25,,,,,,,,,,,,,,,,,,,,,,,,,,,,,,,,
0.0,1.0,0.4412,0.0,28.0,28.0,28.0,1.0,basket_05s.jpg,0.0,clock_7_7.png,5.0,25,,,,,,,,,,,,,,,,,,,,,,,,,,,,,,,,
0.0,1.0,0.466855,0.0,29.0,29.0,29.0,1.0,breadstick_08s.jpg,0.0,clock_7_1.png,6.0,25,,,,,,,,,,,,,,,,,,,,,,,,,,,,,,,,
1.0,1.0,0.7198,0.0,30.0,30.0,30.0,1.0,breadstick_08s.jpg,1.0,clock_7_2.png,6.0,25,,,,,,,,,,,,,,,,,,,,,,,,,,,,,,,,
1.0,1.0,0.833595,0.0,31.0,31.0,31.0,1.0,breadstick_08s.jpg,1.0,clock_7_3.png,6.0,25,,,,,,,,,,,,,,,,,,,,,,,,,,,,,,,,
0.0,1.0,0.595485,0.0,32.0,32.0,32.0,1.0,gingerbread_man_03s.jpg,0.0,clock_7_4.png,6.0,25,,,,,,,,,,,,,,,,,,,,,,,,,,,,,,,,
0.0,1.0,0.58185,0.0,33.0,33.0,33.0,1.0,laser_pointer_02s.jpg,0.0,clock_7_5.png,6.0,25,,,,,,,,,,,,,,,,,,,,,,,,,,,,,,,,
0.0,1.0,0.495755,0.0,34.0,34.0,34.0,1.0,marshmallow_08s.jpg,0.0,clock_7_6.png,6.0,25,,,,,,,,,,,,,,,,,,,,,,,,,,,,,,,,
1.0,1.0,0.69282,0.0,35.0,35.0,35.0,1.0,breadstick_08s.jpg,1.0,clock_7_7.png,6.0,25,,,,,,,,,,,,,,,,,,,,,,,,,,,,,,,,
,,,,,,,,,1.0,,,25,1.0,1.0,2.39695,0.0,0.0,0.0,0.0,1.0,rhinoceros_02s.jpg,rollerskate_03s.jpg,,,,,,,,,,,,,,,,,,,,,,
,,,,,,,,,0.0,,,25,1.0,0.0,1.966195,0.0,1.0,1.0,1.0,1.0,emerald_02s.jpg,bonsai_07s.jpg,,,,,,,,,,,,,,,,,,,,,,
,,,,,,,,,0.0,,,25,0.0,1.0,1.365715,0.0,2.0,2.0,2.0,1.0,microwave_02s.jpg,mussel_11s.jpg,,,,,,,,,,,,,,,,,,,,,,
,,,,,,,,,0.0,,,25,0.0,1.0,1.607875,0.0,3.0,3.0,3.0,1.0,rock_08s.jpg,penlight_12s.jpg,,,,,,,,,,,,,,,,,,,,,,
,,,,,,,,,1.0,,,25,0.0,0.0,2.752875,0.0,4.0,4.0,4.0,1.0,treasure_08s.jpg,sunflower_17s.jpg,,,,,,,,,,,,,,,,,,,,,,
,,,,,,,,,1.0,,,25,1.0,1.0,3.27422,0.0,5.0,5.0,5.0,1.0,projector_08s.jpg,pincushion_10s.jpg,,,,,,,,,,,,,,,,,,,,,,
,,,,,,,,,,,,25,,,,,,,,,,,0.0,4.0,4.0,4.0,1.0,clock_present_5_16.xlsx,clock_compare_task_5_16.xlsx,,,,,,,,,,,,,,,
0.0,1.0,0.766055,0.0,0.0,0.0,0.0,1.0,buoy_04s.jpg,0.0,clock_5_1.png,1.0,25,,,,,,,,,,,,,,,,,,,,,,,,,,,,,,,,
0.0,1.0,0.496085,0.0,1.0,1.0,1.0,1.0,punch2_09s.jpg,0.0,clock_5_2.png,1.0,25,,,,,,,,,,,,,,,,,,,,,,,,,,,,,,,,
0.0,1.0,0.546005,0.0,2.0,2.0,2.0,1.0,rosary_03s.jpg,0.0,clock_5_3.png,1.0,25,,,,,,,,,,,,,,,,,,,,,,,,,,,,,,,,
0.0,1.0,0.846385,0.0,3.0,3.0,3.0,1.0,toad_09s.jpg,0.0,clock_5_4.png,1.0,25,,,,,,,,,,,,,,,,,,,,,,,,,,,,,,,,
0.0,1.0,0.28819,0.0,4.0,4.0,4.0,1.0,lab_coat_11s.jpg,0.0,clock_5_5.png,1.0,25,,,,,,,,,,,,,,,,,,,,,,,,,,,,,,,,
0.0,1.0,0.7383,0.0,5.0,5.0,5.0,1.0,swing_set_15s.jpg,0.0,clock_5_1.png,2.0,25,,,,,,,,,,,,,,,,,,,,,,,,,,,,,,,,
1.0,1.0,0.61361,0.0,6.0,6.0,6.0,1.0,swing_set_15s.jpg,1.0,clock_5_2.png,2.0,25,,,,,,,,,,,,,,,,,,,,,,,,,,,,,,,,
1.0,1.0,0.768465,0.0,7.0,7.0,7.0,1.0,swing_set_15s.jpg,1.0,clock_5_3.png,2.0,25,,,,,,,,,,,,,,,,,,,,,,,,,,,,,,,,
1.0,1.0,0.412745,0.0,8.0,8.0,8.0,1.0,swing_set_15s.jpg,1.0,clock_5_4.png,2.0,25,,,,,,,,,,,,,,,,,,,,,,,,,,,,,,,,
0.0,1.0,0.51158,0.0,9.0,9.0,9.0,1.0,tennis_ball_06s.jpg,0.0,clock_5_5.png,2.0,25,,,,,,,,,,,,,,,,,,,,,,,,,,,,,,,,
0.0,1.0,0.44123,0.0,10.0,10.0,10.0,1.0,powder_07s.jpg,0.0,clock_6_1.png,3.0,25,,,,,,,,,,,,,,,,,,,,,,,,,,,,,,,,
0.0,1.0,0.48276,0.0,11.0,11.0,11.0,1.0,tattoo_14s.jpg,0.0,clock_6_2.png,3.0,25,,,,,,,,,,,,,,,,,,,,,,,,,,,,,,,,
0.0,1.0,0.45358,0.0,12.0,12.0,12.0,1.0,cape_11s.jpg,0.0,clock_6_3.png,3.0,25,,,,,,,,,,,,,,,,,,,,,,,,,,,,,,,,
0.0,1.0,0.6082,0.0,13.0,13.0,13.0,1.0,turnstile_08s.jpg,0.0,clock_6_4.png,3.0,25,,,,,,,,,,,,,,,,,,,,,,,,,,,,,,,,
0.0,0.0,1.61392,0.0,14.0,14.0,14.0,1.0,cape_11s.jpg,1.0,clock_6_5.png,3.0,25,,,,,,,,,,,,,,,,,,,,,,,,,,,,,,,,
0.0,1.0,0.469855,0.0,15.0,15.0,15.0,1.0,loveseat_08s.jpg,0.0,clock_6_6.png,3.0,25,,,,,,,,,,,,,,,,,,,,,,,,,,,,,,,,
0.0,1.0,0.73743,0.0,16.0,16.0,16.0,1.0,swan_11s.jpg,0.0,clock_6_1.png,4.0,25,,,,,,,,,,,,,,,,,,,,,,,,,,,,,,,,
0.0,1.0,0.649865,0.0,17.0,17.0,17.0,1.0,totem_pole_05s.jpg,0.0,clock_6_2.png,4.0,25,,,,,,,,,,,,,,,,,,,,,,,,,,,,,,,,
0.0,1.0,0.49528,0.0,18.0,18.0,18.0,1.0,lip_gloss_06s.jpg,0.0,clock_6_3.png,4.0,25,,,,,,,,,,,,,,,,,,,,,,,,,,,,,,,,
1.0,0.0,1.20965,0.0,19.0,19.0,19.0,1.0,toad_09s.jpg,0.0,clock_6_4.png,4.0,25,,,,,,,,,,,,,,,,,,,,,,,,,,,,,,,,
0.0,1.0,0.708135,0.0,20.0,20.0,20.0,1.0,ring_03s.jpg,0.0,clock_6_5.png,4.0,25,,,,,,,,,,,,,,,,,,,,,,,,,,,,,,,,
1.0,0.0,1.78111,0.0,21.0,21.0,21.0,1.0,powder_07s.jpg,0.0,clock_6_6.png,4.0,25,,,,,,,,,,,,,,,,,,,,,,,,,,,,,,,,
0.0,1.0,0.90545,0.0,22.0,22.0,22.0,1.0,taxi_15s.jpg,0.0,clock_7_1.png,5.0,25,,,,,,,,,,,,,,,,,,,,,,,,,,,,,,,,
1.0,1.0,0.68456,0.0,23.0,23.0,23.0,1.0,taxi_15s.jpg,1.0,clock_7_2.png,5.0,25,,,,,,,,,,,,,,,,,,,,,,,,,,,,,,,,
0.0,1.0,0.57471,0.0,24.0,24.0,24.0,1.0,gazelle_10s.jpg,0.0,clock_7_3.png,5.0,25,,,,,,,,,,,,,,,,,,,,,,,,,,,,,,,,
0.0,1.0,0.762495,0.0,25.0,25.0,25.0,1.0,thumbtack_14s.jpg,0.0,clock_7_4.png,5.0,25,,,,,,,,,,,,,,,,,,,,,,,,,,,,,,,,
0.0,1.0,0.5004,0.0,26.0,26.0,26.0,1.0,hyena_16s.jpg,0.0,clock_7_5.png,5.0,25,,,,,,,,,,,,,,,,,,,,,,,,,,,,,,,,
0.0,1.0,0.518985,0.0,27.0,27.0,27.0,1.0,badge_03s.jpg,0.0,clock_7_6.png,5.0,25,,,,,,,,,,,,,,,,,,,,,,,,,,,,,,,,
0.0,1.0,0.529715,0.0,28.0,28.0,28.0,1.0,blazer_02s.jpg,0.0,clock_7_7.png,5.0,25,,,,,,,,,,,,,,,,,,,,,,,,,,,,,,,,
0.0,1.0,0.49535,0.0,29.0,29.0,29.0,1.0,blowfish_03s.jpg,0.0,clock_7_1.png,6.0,25,,,,,,,,,,,,,,,,,,,,,,,,,,,,,,,,
0.0,1.0,0.51253,0.0,30.0,30.0,30.0,1.0,licorice_06s.jpg,0.0,clock_7_2.png,6.0,25,,,,,,,,,,,,,,,,,,,,,,,,,,,,,,,,
0.0,1.0,0.4815,0.0,31.0,31.0,31.0,1.0,checkbook_11s.jpg,0.0,clock_7_3.png,6.0,25,,,,,,,,,,,,,,,,,,,,,,,,,,,,,,,,
0.0,1.0,0.7809,0.0,32.0,32.0,32.0,1.0,reindeer_08s.jpg,0.0,clock_7_4.png,6.0,25,,,,,,,,,,,,,,,,,,,,,,,,,,,,,,,,
0.0,1.0,0.615905,0.0,33.0,33.0,33.0,1.0,doily_13s.jpg,0.0,clock_7_5.png,6.0,25,,,,,,,,,,,,,,,,,,,,,,,,,,,,,,,,
0.0,1.0,0.41267,0.0,34.0,34.0,34.0,1.0,possum_09s.jpg,0.0,clock_7_6.png,6.0,25,,,,,,,,,,,,,,,,,,,,,,,,,,,,,,,,
0.0,1.0,0.49548,0.0,35.0,35.0,35.0,1.0,keyboard_05s.jpg,0.0,clock_7_7.png,6.0,25,,,,,,,,,,,,,,,,,,,,,,,,,,,,,,,,
,,,,,,,,,1.0,,,25,0.0,0.0,3.307655,0.0,0.0,0.0,0.0,1.0,turnstile_08s.jpg,swan_11s.jpg,,,,,,,,,,,,,,,,,,,,,,
,,,,,,,,,1.0,,,25,1.0,1.0,1.90853,0.0,1.0,1.0,1.0,1.0,loveseat_08s.jpg,lip_gloss_06s.jpg,,,,,,,,,,,,,,,,,,,,,,
,,,,,,,,,1.0,,,25,1.0,1.0,2.016675,0.0,2.0,2.0,2.0,1.0,hyena_16s.jpg,blowfish_03s.jpg,,,,,,,,,,,,,,,,,,,,,,
,,,,,,,,,0.0,,,25,0.0,1.0,1.60974,0.0,3.0,3.0,3.0,1.0,lab_coat_11s.jpg,punch2_09s.jpg,,,,,,,,,,,,,,,,,,,,,,
,,,,,,,,,0.0,,,25,1.0,0.0,1.594535,0.0,4.0,4.0,4.0,1.0,ring_03s.jpg,totem_pole_05s.jpg,,,,,,,,,,,,,,,,,,,,,,
,,,,,,,,,0.0,,,25,0.0,1.0,1.21983,0.0,5.0,5.0,5.0,1.0,keyboard_05s.jpg,reindeer_08s.jpg,,,,,,,,,,,,,,,,,,,,,,
0.0,1.0,0.881215,,,,,,tube_top_03s.jpg,0.0,clockno_up.jpg,1.0,25,,,,,,,,,,,,,,,,,,0.0,0.0,0.0,0.0,1.0,,,,,,,,,,
1.0,1.0,0.628595,,,,,,tube_top_03s.jpg,1.0,clockno_default.jpg,1.0,25,,,,,,,,,,,,,,,,,,0.0,1.0,1.0,1.0,1.0,,,,,,,,,,
0.0,1.0,0.46196,,,,,,piggy_bank_02s.jpg,0.0,clockno_default.jpg,1.0,25,,,,,,,,,,,,,,,,,,0.0,2.0,2.0,2.0,1.0,,,,,,,,,,
0.0,1.0,0.36142,,,,,,peach_04s.jpg,0.0,clockno_default.jpg,1.0,25,,,,,,,,,,,,,,,,,,0.0,3.0,3.0,3.0,1.0,,,,,,,,,,
0.0,1.0,0.635,,,,,,petri_dish_12s.jpg,0.0,clockno_default.jpg,1.0,25,,,,,,,,,,,,,,,,,,0.0,4.0,4.0,4.0,1.0,,,,,,,,,,
0.0,1.0,0.502185,,,,,,memory_stick_11s.jpg,0.0,clockno_default.jpg,1.0,25,,,,,,,,,,,,,,,,,,0.0,5.0,5.0,5.0,1.0,,,,,,,,,,
1.0,1.0,1.369655,,,,,,piggy_bank_02s.jpg,1.0,clockno_default.jpg,1.0,25,,,,,,,,,,,,,,,,,,0.0,6.0,6.0,6.0,1.0,,,,,,,,,,
0.0,1.0,0.85075,,,,,,tweezers_03s.jpg,0.0,clockno_up.jpg,2.0,25,,,,,,,,,,,,,,,,,,0.0,7.0,7.0,7.0,1.0,,,,,,,,,,
0.0,1.0,0.606245,,,,,,coffee_filter_10s.jpg,0.0,clockno_default.jpg,2.0,25,,,,,,,,,,,,,,,,,,0.0,8.0,8.0,8.0,1.0,,,,,,,,,,
0.0,1.0,0.455705,,,,,,tambourine_06s.jpg,0.0,clockno_default.jpg,2.0,25,,,,,,,,,,,,,,,,,,0.0,9.0,9.0,9.0,1.0,,,,,,,,,,
0.0,1.0,0.53946,,,,,,ukulele_02s.jpg,0.0,clockno_default.jpg,2.0,25,,,,,,,,,,,,,,,,,,0.0,10.0,10.0,10.0,1.0,,,,,,,,,,
0.0,1.0,0.461825,,,,,,towel_rack_04s.jpg,0.0,clockno_default.jpg,2.0,25,,,,,,,,,,,,,,,,,,0.0,11.0,11.0,11.0,1.0,,,,,,,,,,
0.0,1.0,0.578715,,,,,,ravioli_08s.jpg,0.0,clockno_up.jpg,3.0,25,,,,,,,,,,,,,,,,,,0.0,12.0,12.0,12.0,1.0,,,,,,,,,,
1.0,1.0,0.701025,,,,,,ravioli_08s.jpg,1.0,clockno_default.jpg,3.0,25,,,,,,,,,,,,,,,,,,0.0,13.0,13.0,13.0,1.0,,,,,,,,,,
0.0,1.0,0.77443,,,,,,peanut_butter_08s.jpg,0.0,clockno_default.jpg,3.0,25,,,,,,,,,,,,,,,,,,0.0,14.0,14.0,14.0,1.0,,,,,,,,,,
0.0,1.0,0.59524,,,,,,sledgehammer_03s.jpg,0.0,clockno_default.jpg,3.0,25,,,,,,,,,,,,,,,,,,0.0,15.0,15.0,15.0,1.0,,,,,,,,,,
0.0,1.0,0.564095,,,,,,syringe_02s.jpg,0.0,clockno_default.jpg,3.0,25,,,,,,,,,,,,,,,,,,0.0,16.0,16.0,16.0,1.0,,,,,,,,,,
0.0,1.0,0.537875,,,,,,quilt_03s.jpg,0.0,clockno_default.jpg,3.0,25,,,,,,,,,,,,,,,,,,0.0,17.0,17.0,17.0,1.0,,,,,,,,,,
0.0,0.0,0.84993,,,,,,syringe_02s.jpg,1.0,clockno_default.jpg,3.0,25,,,,,,,,,,,,,,,,,,0.0,18.0,18.0,18.0,1.0,,,,,,,,,,
0.0,1.0,0.812475,,,,,,radiator_05s.jpg,0.0,clockno_up.jpg,4.0,25,,,,,,,,,,,,,,,,,,0.0,19.0,19.0,19.0,1.0,,,,,,,,,,
0.0,1.0,0.56158,,,,,,jelly_bean_06s.jpg,0.0,clockno_default.jpg,4.0,25,,,,,,,,,,,,,,,,,,0.0,20.0,20.0,20.0,1.0,,,,,,,,,,
0.0,1.0,0.48927,,,,,,top_hat_11s.jpg,0.0,clockno_default.jpg,4.0,25,,,,,,,,,,,,,,,,,,0.0,21.0,21.0,21.0,1.0,,,,,,,,,,
1.0,1.0,2.17946,,,,,,radiator_05s.jpg,1.0,clockno_default.jpg,4.0,25,,,,,,,,,,,,,,,,,,0.0,22.0,22.0,22.0,1.0,,,,,,,,,,
0.0,1.0,0.45498,,,,,,contact_lens_15s.jpg,0.0,clockno_default.jpg,4.0,25,,,,,,,,,,,,,,,,,,0.0,23.0,23.0,23.0,1.0,,,,,,,,,,
0.0,1.0,0.56167,,,,,,rake_06s.jpg,0.0,clockno_default.jpg,4.0,25,,,,,,,,,,,,,,,,,,0.0,24.0,24.0,24.0,1.0,,,,,,,,,,
0.0,1.0,0.532655,,,,,,surfboard_11s.jpg,0.0,clockno_up.jpg,5.0,25,,,,,,,,,,,,,,,,,,0.0,25.0,25.0,25.0,1.0,,,,,,,,,,
0.0,1.0,0.528525,,,,,,toy_04s.jpg,0.0,clockno_default.jpg,5.0,25,,,,,,,,,,,,,,,,,,0.0,26.0,26.0,26.0,1.0,,,,,,,,,,
0.0,1.0,0.428295,,,,,,raccoon_02s.jpg,0.0,clockno_default.jpg,5.0,25,,,,,,,,,,,,,,,,,,0.0,27.0,27.0,27.0,1.0,,,,,,,,,,
0.0,1.0,0.41206,,,,,,phone_01b.jpg,0.0,clockno_default.jpg,5.0,25,,,,,,,,,,,,,,,,,,0.0,28.0,28.0,28.0,1.0,,,,,,,,,,
0.0,1.0,0.5035,,,,,,ukulele_02s.jpg,0.0,clockno_default.jpg,5.0,25,,,,,,,,,,,,,,,,,,0.0,29.0,29.0,29.0,1.0,,,,,,,,,,
0.0,1.0,0.5381,,,,,,raft_09s.jpg,0.0,clockno_default.jpg,5.0,25,,,,,,,,,,,,,,,,,,0.0,30.0,30.0,30.0,1.0,,,,,,,,,,
0.0,1.0,0.716535,,,,,,kettle_08s.jpg,0.0,clockno_up.jpg,6.0,25,,,,,,,,,,,,,,,,,,0.0,31.0,31.0,31.0,1.0,,,,,,,,,,
0.0,1.0,0.471305,,,,,,target_11s.jpg,0.0,clockno_default.jpg,6.0,25,,,,,,,,,,,,,,,,,,0.0,32.0,32.0,32.0,1.0,,,,,,,,,,
0.0,1.0,0.58635,,,,,,icicle_04s.jpg,0.0,clockno_default.jpg,6.0,25,,,,,,,,,,,,,,,,,,0.0,33.0,33.0,33.0,1.0,,,,,,,,,,
0.0,1.0,0.50149,,,,,,timer_03s.jpg,0.0,clockno_default.jpg,6.0,25,,,,,,,,,,,,,,,,,,0.0,34.0,34.0,34.0,1.0,,,,,,,,,,
1.0,1.0,0.8087,,,,,,timer_03s.jpg,1.0,clockno_default.jpg,6.0,25,,,,,,,,,,,,,,,,,,0.0,35.0,35.0,35.0,1.0,,,,,,,,,,
,,,,,,,,,0.0,,,25,0.0,1.0,1.821165,,,,,,tweezers_03s.jpg,petri_dish_12s.jpg,,,,,,,,,,,,,0.0,0.0,0.0,0.0,1.0,,,,,
,,,,,,,,,1.0,,,25,1.0,1.0,1.475745,,,,,,memory_stick_11s.jpg,coffee_filter_10s.jpg,,,,,,,,,,,,,0.0,1.0,1.0,1.0,1.0,,,,,
,,,,,,,,,0.0,,,25,1.0,0.0,2.722115,,,,,,toy_04s.jpg,contact_lens_15s.jpg,,,,,,,,,,,,,0.0,2.0,2.0,2.0,1.0,,,,,
,,,,,,,,,0.0,,,25,1.0,0.0,2.07665,,,,,,rake_06s.jpg,top_hat_11s.jpg,,,,,,,,,,,,,0.0,3.0,3.0,3.0,1.0,,,,,
,,,,,,,,,0.0,,,25,1.0,0.0,1.70751,,,,,,phone_01b.jpg,surfboard_11s.jpg,,,,,,,,,,,,,0.0,4.0,4.0,4.0,1.0,,,,,
,,,,,,,,,1.0,,,25,1.0,1.0,1.43231,,,,,,peanut_butter_08s.jpg,quilt_03s.jpg,,,,,,,,,,,,,0.0,5.0,5.0,5.0,1.0,,,,,
,,,,,,,,,,,,25,,,,,,,,,,,,,,,,clockno_present_1_16.xlsx,clockno_compare_task_1_16.xlsx,,,,,,,,,,,0.0,0.0,0.0,0.0,1.0
0.0,1.0,0.6679,,,,,,juicer2_06s.jpg,0.0,clockno_up.jpg,1.0,25,,,,,,,,,,,,,,,,,,0.0,0.0,0.0,0.0,1.0,,,,,,,,,,
0.0,1.0,0.43948,,,,,,potholder_02s.jpg,0.0,clockno_default.jpg,1.0,25,,,,,,,,,,,,,,,,,,0.0,1.0,1.0,1.0,1.0,,,,,,,,,,
0.0,1.0,0.577845,,,,,,pencil02a.jpg,0.0,clockno_default.jpg,1.0,25,,,,,,,,,,,,,,,,,,0.0,2.0,2.0,2.0,1.0,,,,,,,,,,
0.0,1.0,0.57967,,,,,,chopsticks_08s.jpg,0.0,clockno_default.jpg,1.0,25,,,,,,,,,,,,,,,,,,0.0,3.0,3.0,3.0,1.0,,,,,,,,,,
1.0,1.0,0.9986,,,,,,potholder_02s.jpg,1.0,clockno_default.jpg,1.0,25,,,,,,,,,,,,,,,,,,0.0,4.0,4.0,4.0,1.0,,,,,,,,,,
0.0,1.0,0.57858,,,,,,fondue_07s.jpg,0.0,clockno_up.jpg,2.0,25,,,,,,,,,,,,,,,,,,0.0,5.0,5.0,5.0,1.0,,,,,,,,,,
0.0,1.0,0.59579,,,,,,pillbox_04s.jpg,0.0,clockno_default.jpg,2.0,25,,,,,,,,,,,,,,,,,,0.0,6.0,6.0,6.0,1.0,,,,,,,,,,
0.0,1.0,0.478295,,,,,,pumpkin_03s.jpg,0.0,clockno_default.jpg,2.0,25,,,,,,,,,,,,,,,,,,0.0,7.0,7.0,7.0,1.0,,,,,,,,,,
0.0,1.0,0.43335,,,,,,cardinal_07s.jpg,0.0,clockno_default.jpg,2.0,25,,,,,,,,,,,,,,,,,,0.0,8.0,8.0,8.0,1.0,,,,,,,,,,
0.0,1.0,0.427785,,,,,,swordfish_05s.jpg,0.0,clockno_default.jpg,2.0,25,,,,,,,,,,,,,,,,,,0.0,9.0,9.0,9.0,1.0,,,,,,,,,,
0.0,1.0,0.52856,,,,,,turkey_10s.jpg,0.0,clockno_up.jpg,3.0,25,,,,,,,,,,,,,,,,,,0.0,10.0,10.0,10.0,1.0,,,,,,,,,,
0.0,1.0,0.645425,,,,,,road_sign_05s.jpg,0.0,clockno_default.jpg,3.0,25,,,,,,,,,,,,,,,,,,0.0,11.0,11.0,11.0,1.0,,,,,,,,,,
1.0,1.0,0.691165,,,,,,road_sign_05s.jpg,1.0,clockno_default.jpg,3.0,25,,,,,,,,,,,,,,,,,,0.0,12.0,12.0,12.0,1.0,,,,,,,,,,
0.0,1.0,0.58379,,,,,,rhubarb_03s.jpg,0.0,clockno_default.jpg,3.0,25,,,,,,,,,,,,,,,,,,0.0,13.0,13.0,13.0,1.0,,,,,,,,,,
0.0,1.0,0.498155,,,,,,ivy_12s.jpg,0.0,clockno_default.jpg,3.0,25,,,,,,,,,,,,,,,,,,0.0,14.0,14.0,14.0,1.0,,,,,,,,,,
0.0,1.0,0.72448,,,,,,boar_10s.jpg,0.0,clockno_default.jpg,3.0,25,,,,,,,,,,,,,,,,,,0.0,15.0,15.0,15.0,1.0,,,,,,,,,,
0.0,1.0,0.76752,,,,,,mango_09s.jpg,0.0,clockno_up.jpg,4.0,25,,,,,,,,,,,,,,,,,,0.0,16.0,16.0,16.0,1.0,,,,,,,,,,
0.0,1.0,0.697715,,,,,,feather02.jpg,0.0,clockno_default.jpg,4.0,25,,,,,,,,,,,,,,,,,,0.0,17.0,17.0,17.0,1.0,,,,,,,,,,
0.0,1.0,0.86899,,,,,,pumpkin_03s.jpg,0.0,clockno_default.jpg,4.0,25,,,,,,,,,,,,,,,,,,0.0,18.0,18.0,18.0,1.0,,,,,,,,,,
0.0,1.0,0.5829,,,,,,giraffe_11s.jpg,0.0,clockno_default.jpg,4.0,25,,,,,,,,,,,,,,,,,,0.0,19.0,19.0,19.0,1.0,,,,,,,,,,
0.0,1.0,0.505805,,,,,,meatball_13s.jpg,0.0,clockno_default.jpg,4.0,25,,,,,,,,,,,,,,,,,,0.0,20.0,20.0,20.0,1.0,,,,,,,,,,
0.0,1.0,0.462425,,,,,,turkey_10s.jpg,0.0,clockno_default.jpg,4.0,25,,,,,,,,,,,,,,,,,,0.0,21.0,21.0,21.0,1.0,,,,,,,,,,
0.0,1.0,0.631395,,,,,,stump_02s.jpg,0.0,clockno_up.jpg,5.0,25,,,,,,,,,,,,,,,,,,0.0,22.0,22.0,22.0,1.0,,,,,,,,,,
0.0,1.0,0.82838,,,,,,ostrich_06s.jpg,0.0,clockno_default.jpg,5.0,25,,,,,,,,,,,,,,,,,,0.0,23.0,23.0,23.0,1.0,,,,,,,,,,
0.0,1.0,0.66699,,,,,,amber_04s.jpg,0.0,clockno_default.jpg,5.0,25,,,,,,,,,,,,,,,,,,0.0,24.0,24.0,24.0,1.0,,,,,,,,,,
0.0,1.0,0.58462,,,,,,blender_08s.jpg,0.0,clockno_default.jpg,5.0,25,,,,,,,,,,,,,,,,,,0.0,25.0,25.0,25.0,1.0,,,,,,,,,,
0.0,1.0,0.661375,,,,,,trumpet_06s.jpg,0.0,clockno_default.jpg,5.0,25,,,,,,,,,,,,,,,,,,0.0,26.0,26.0,26.0,1.0,,,,,,,,,,
0.0,1.0,0.58166,,,,,,ivy_12s.jpg,0.0,clockno_default.jpg,5.0,25,,,,,,,,,,,,,,,,,,0.0,27.0,27.0,27.0,1.0,,,,,,,,,,
0.0,1.0,0.61631,,,,,,ironing_board_07s.jpg,0.0,clockno_default.jpg,5.0,25,,,,,,,,,,,,,,,,,,0.0,28.0,28.0,28.0,1.0,,,,,,,,,,
0.0,1.0,0.54647,,,,,,lavender_10s.jpg,0.0,clockno_up.jpg,6.0,25,,,,,,,,,,,,,,,,,,0.0,29.0,29.0,29.0,1.0,,,,,,,,,,
0.0,1.0,0.533155,,,,,,pea_11s.jpg,0.0,clockno_default.jpg,6.0,25,,,,,,,,,,,,,,,,,,0.0,30.0,30.0,30.0,1.0,,,,,,,,,,
0.0,1.0,0.70398,,,,,,sundae_08s.jpg,0.0,clockno_default.jpg,6.0,25,,,,,,,,,,,,,,,,,,0.0,31.0,31.0,31.0,1.0,,,,,,,,,,
0.0,1.0,0.835365,,,,,,champagne_18s.jpg,0.0,clockno_default.jpg,6.0,25,,,,,,,,,,,,,,,,,,0.0,32.0,32.0,32.0,1.0,,,,,,,,,,
0.0,1.0,0.612985,,,,,,turtle_08s.jpg,0.0,clockno_default.jpg,6.0,25,,,,,,,,,,,,,,,,,,0.0,33.0,33.0,33.0,1.0,,,,,,,,,,
0.0,1.0,0.456765,,,,,,gargoyle_08s.jpg,0.0,clockno_default.jpg,6.0,25,,,,,,,,,,,,,,,,,,0.0,34.0,34.0,34.0,1.0,,,,,,,,,,
0.0,1.0,0.43552,,,,,,crate_05s.jpg,0.0,clockno_default.jpg,6.0,25,,,,,,,,,,,,,,,,,,0.0,35.0,35.0,35.0,1.0,,,,,,,,,,
,,,,,,,,,1.0,,,25,0.0,0.0,1.89112,,,,,,pencil02a.jpg,fondue_07s.jpg,,,,,,,,,,,,,0.0,0.0,0.0,0.0,1.0,,,,,
,,,,,,,,,0.0,,,25,0.0,1.0,1.669715,,,,,,mango_09s.jpg,rhubarb_03s.jpg,,,,,,,,,,,,,0.0,1.0,1.0,1.0,1.0,,,,,
,,,,,,,,,1.0,,,25,1.0,1.0,1.29172,,,,,,chopsticks_08s.jpg,pillbox_04s.jpg,,,,,,,,,,,,,0.0,2.0,2.0,2.0,1.0,,,,,
,,,,,,,,,0.0,,,25,1.0,0.0,1.22539,,,,,,turtle_08s.jpg,pea_11s.jpg,,,,,,,,,,,,,0.0,3.0,3.0,3.0,1.0,,,,,
,,,,,,,,,0.0,,,25,0.0,1.0,1.13105,,,,,,crate_05s.jpg,champagne_18s.jpg,,,,,,,,,,,,,0.0,4.0,4.0,4.0,1.0,,,,,
,,,,,,,,,0.0,,,25,0.0,1.0,1.48624,,,,,,meatball_13s.jpg,feather02.jpg,,,,,,,,,,,,,0.0,5.0,5.0,5.0,1.0,,,,,
,,,,,,,,,,,,25,,,,,,,,,,,,,,,,clockno_present_2_16.xlsx,clockno_compare_task_2_16.xlsx,,,,,,,,,,,0.0,1.0,1.0,1.0,1.0
0.0,1.0,0.60508,,,,,,magnet_03s.jpg,0.0,clockno_up.jpg,1.0,25,,,,,,,,,,,,,,,,,,0.0,0.0,0.0,0.0,1.0,,,,,,,,,,
0.0,1.0,0.51283,,,,,,luggage_08s.jpg,0.0,clockno_default.jpg,1.0,25,,,,,,,,,,,,,,,,,,0.0,1.0,1.0,1.0,1.0,,,,,,,,,,
0.0,1.0,0.396015,,,,,,fountain_pen_06s.jpg,0.0,clockno_default.jpg,1.0,25,,,,,,,,,,,,,,,,,,0.0,2.0,2.0,2.0,1.0,,,,,,,,,,
0.0,1.0,0.52754,,,,,,fur_coat_11s.jpg,0.0,clockno_default.jpg,1.0,25,,,,,,,,,,,,,,,,,,0.0,3.0,3.0,3.0,1.0,,,,,,,,,,
0.0,1.0,0.36988,,,,,,ladder_15s.jpg,0.0,clockno_default.jpg,1.0,25,,,,,,,,,,,,,,,,,,0.0,4.0,4.0,4.0,1.0,,,,,,,,,,
0.0,1.0,0.57217,,,,,,mushroom_10n.jpg,0.0,clockno_default.jpg,1.0,25,,,,,,,,,,,,,,,,,,0.0,5.0,5.0,5.0,1.0,,,,,,,,,,
0.0,1.0,0.391525,,,,,,milk_02s.jpg,0.0,clockno_up.jpg,2.0,25,,,,,,,,,,,,,,,,,,0.0,6.0,6.0,6.0,1.0,,,,,,,,,,
0.0,1.0,0.682055,,,,,,fork_04s.jpg,0.0,clockno_default.jpg,2.0,25,,,,,,,,,,,,,,,,,,0.0,7.0,7.0,7.0,1.0,,,,,,,,,,
0.0,1.0,0.396435,,,,,,bank_06s.jpg,0.0,clockno_default.jpg,2.0,25,,,,,,,,,,,,,,,,,,0.0,8.0,8.0,8.0,1.0,,,,,,,,,,
,0.0,,,,,,,paintbrush_04s.jpg,0.0,clockno_default.jpg,2.0,25,,,,,,,,,,,,,,,,,,0.0,9.0,9.0,9.0,1.0,,,,,,,,,,
1.0,1.0,0.60296,,,,,,fork_04s.jpg,1.0,clockno_default.jpg,2.0,25,,,,,,,,,,,,,,,,,,0.0,10.0,10.0,10.0,1.0,,,,,,,,,,
0.0,1.0,0.484865,,,,,,fireworks_18s.jpg,0.0,clockno_up.jpg,3.0,25,,,,,,,,,,,,,,,,,,0.0,11.0,11.0,11.0,1.0,,,,,,,,,,
1.0,1.0,0.561175,,,,,,fireworks_18s.jpg,1.0,clockno_default.jpg,3.0,25,,,,,,,,,,,,,,,,,,0.0,12.0,12.0,12.0,1.0,,,,,,,,,,
1.0,1.0,0.6458,,,,,,fireworks_18s.jpg,1.0,clockno_default.jpg,3.0,25,,,,,,,,,,,,,,,,,,0.0,13.0,13.0,13.0,1.0,,,,,,,,,,
0.0,1.0,0.53305,,,,,,outlet_10s.jpg,0.0,clockno_default.jpg,3.0,25,,,,,,,,,,,,,,,,,,0.0,14.0,14.0,14.0,1.0,,,,,,,,,,
0.0,1.0,0.471835,,,,,,olive_05s.jpg,0.0,clockno_default.jpg,3.0,25,,,,,,,,,,,,,,,,,,0.0,15.0,15.0,15.0,1.0,,,,,,,,,,
0.0,1.0,0.666315,,,,,,toaster_03s.jpg,0.0,clockno_default.jpg,3.0,25,,,,,,,,,,,,,,,,,,0.0,16.0,16.0,16.0,1.0,,,,,,,,,,
0.0,1.0,0.373375,,,,,,kitten_07s.jpg,0.0,clockno_default.jpg,3.0,25,,,,,,,,,,,,,,,,,,0.0,17.0,17.0,17.0,1.0,,,,,,,,,,
0.0,1.0,0.463835,,,,,,soda_fountain_03s.jpg,0.0,clockno_up.jpg,4.0,25,,,,,,,,,,,,,,,,,,0.0,18.0,18.0,18.0,1.0,,,,,,,,,,
0.0,1.0,0.43549,,,,,,paper_bag_12s.jpg,0.0,clockno_default.jpg,4.0,25,,,,,,,,,,,,,,,,,,0.0,19.0,19.0,19.0,1.0,,,,,,,,,,
0.0,1.0,0.42151,,,,,,frame_06s.jpg,0.0,clockno_default.jpg,4.0,25,,,,,,,,,,,,,,,,,,0.0,20.0,20.0,20.0,1.0,,,,,,,,,,
0.0,1.0,0.43244,,,,,,mold2_04s.jpg,0.0,clockno_default.jpg,4.0,25,,,,,,,,,,,,,,,,,,0.0,21.0,21.0,21.0,1.0,,,,,,,,,,
0.0,1.0,1.347955,,,,,,tupperware_09s.jpg,0.0,clockno_default.jpg,4.0,25,,,,,,,,,,,,,,,,,,0.0,22.0,22.0,22.0,1.0,,,,,,,,,,
0.0,1.0,0.461,,,,,,eggshell_14s.jpg,0.0,clockno_default.jpg,4.0,25,,,,,,,,,,,,,,,,,,0.0,23.0,23.0,23.0,1.0,,,,,,,,,,
0.0,1.0,0.3366,,,,,,antenna_01b.jpg,0.0,clockno_up.jpg,5.0,25,,,,,,,,,,,,,,,,,,0.0,24.0,24.0,24.0,1.0,,,,,,,,,,
1.0,1.0,0.60423,,,,,,antenna_01b.jpg,1.0,clockno_default.jpg,5.0,25,,,,,,,,,,,,,,,,,,0.0,25.0,25.0,25.0,1.0,,,,,,,,,,
0.0,1.0,0.445295,,,,,,padlock_07s.jpg,0.0,clockno_default.jpg,5.0,25,,,,,,,,,,,,,,,,,,0.0,26.0,26.0,26.0,1.0,,,,,,,,,,
0.0,1.0,0.361205,,,,,,pocket_watch_16s.jpg,0.0,clockno_default.jpg,5.0,25,,,,,,,,,,,,,,,,,,0.0,27.0,27.0,27.0,1.0,,,,,,,,,,
0.0,1.0,0.45241,,,,,,bank_06s.jpg,0.0,clockno_default.jpg,5.0,25,,,,,,,,,,,,,,,,,,0.0,28.0,28.0,28.0,1.0,,,,,,,,,,
0.0,1.0,0.806795,,,,,,incense_02s.jpg,0.0,clockno_up.jpg,6.0,25,,,,,,,,,,,,,,,,,,0.0,29.0,29.0,29.0,1.0,,,,,,,,,,
0.0,1.0,0.36814,,,,,,bagel_15s.jpg,0.0,clockno_default.jpg,6.0,25,,,,,,,,,,,,,,,,,,0.0,30.0,30.0,30.0,1.0,,,,,,,,,,
0.0,1.0,0.55702,,,,,,milk_02s.jpg,0.0,clockno_default.jpg,6.0,25,,,,,,,,,,,,,,,,,,0.0,31.0,31.0,31.0,1.0,,,,,,,,,,
0.0,1.0,0.470935,,,,,,iron_13s.jpg,0.0,clockno_default.jpg,6.0,25,,,,,,,,,,,,,,,,,,0.0,32.0,32.0,32.0,1.0,,,,,,,,,,
0.0,1.0,0.489245,,,,,,duck_01b.jpg,0.0,clockno_default.jpg,6.0,25,,,,,,,,,,,,,,,,,,0.0,33.0,33.0,33.0,1.0,,,,,,,,,,
0.0,1.0,0.51603,,,,,,rooster_03s.jpg,0.0,clockno_default.jpg,6.0,25,,,,,,,,,,,,,,,,,,0.0,34.0,34.0,34.0,1.0,,,,,,,,,,
0.0,1.0,0.494595,,,,,,sugar_cube_11s.jpg,0.0,clockno_default.jpg,6.0,25,,,,,,,,,,,,,,,,,,0.0,35.0,35.0,35.0,1.0,,,,,,,,,,
,,,,,,,,,0.0,,,25,0.0,1.0,2.022425,,,,,,soda_fountain_03s.jpg,olive_05s.jpg,,,,,,,,,,,,,0.0,0.0,0.0,0.0,1.0,,,,,
,,,,,,,,,1.0,,,25,1.0,1.0,1.915855,,,,,,toaster_03s.jpg,paper_bag_12s.jpg,,,,,,,,,,,,,0.0,1.0,1.0,1.0,1.0,,,,,
,,,,,,,,,1.0,,,25,0.0,0.0,1.18339,,,,,,eggshell_14s.jpg,padlock_07s.jpg,,,,,,,,,,,,,0.0,2.0,2.0,2.0,1.0,,,,,
,,,,,,,,,1.0,,,25,0.0,0.0,1.50554,,,,,,magnet_03s.jpg,fur_coat_11s.jpg,,,,,,,,,,,,,0.0,3.0,3.0,3.0,1.0,,,,,
,,,,,,,,,0.0,,,25,1.0,0.0,0.9143,,,,,,ladder_15s.jpg,luggage_08s.jpg,,,,,,,,,,,,,0.0,4.0,4.0,4.0,1.0,,,,,
,,,,,,,,,0.0,,,25,0.0,1.0,0.82023,,,,,,mushroom_10n.jpg,fountain_pen_06s.jpg,,,,,,,,,,,,,0.0,5.0,5.0,5.0,1.0,,,,,
,,,,,,,,,,,,25,,,,,,,,,,,,,,,,clockno_present_3_16.xlsx,clockno_compare_task_3_16.xlsx,,,,,,,,,,,0.0,2.0,2.0,2.0,1.0
0.0,1.0,1.68365,,,,,,insole_11s.jpg,0.0,clockno_up.jpg,1.0,25,,,,,,,,,,,,,,,,,,0.0,0.0,0.0,0.0,1.0,,,,,,,,,,
0.0,1.0,0.40686,,,,,,teapot_03s.jpg,0.0,clockno_default.jpg,1.0,25,,,,,,,,,,,,,,,,,,0.0,1.0,1.0,1.0,1.0,,,,,,,,,,
0.0,1.0,0.394265,,,,,,orange_12s.jpg,0.0,clockno_default.jpg,1.0,25,,,,,,,,,,,,,,,,,,0.0,2.0,2.0,2.0,1.0,,,,,,,,,,
1.0,1.0,0.661785,,,,,,insole_11s.jpg,1.0,clockno_default.jpg,1.0,25,,,,,,,,,,,,,,,,,,0.0,3.0,3.0,3.0,1.0,,,,,,,,,,
0.0,1.0,0.62985,,,,,,jersey_02s.jpg,0.0,clockno_default.jpg,1.0,25,,,,,,,,,,,,,,,,,,0.0,4.0,4.0,4.0,1.0,,,,,,,,,,
0.0,1.0,0.41694,,,,,,dashboard_02s.jpg,0.0,clockno_up.jpg,2.0,25,,,,,,,,,,,,,,,,,,0.0,5.0,5.0,5.0,1.0,,,,,,,,,,
0.0,1.0,0.57887,,,,,,harpoon.jpg,0.0,clockno_default.jpg,2.0,25,,,,,,,,,,,,,,,,,,0.0,6.0,6.0,6.0,1.0,,,,,,,,,,
0.0,1.0,0.47022,,,,,,kilt_18s.jpg,0.0,clockno_default.jpg,2.0,25,,,,,,,,,,,,,,,,,,0.0,7.0,7.0,7.0,1.0,,,,,,,,,,
0.0,1.0,0.394575,,,,,,bowler_hat_10s.jpg,0.0,clockno_default.jpg,2.0,25,,,,,,,,,,,,,,,,,,0.0,8.0,8.0,8.0,1.0,,,,,,,,,,
0.0,1.0,0.39532,,,,,,light_switch_02s.jpg,0.0,clockno_default.jpg,2.0,25,,,,,,,,,,,,,,,,,,0.0,9.0,9.0,9.0,1.0,,,,,,,,,,
0.0,1.0,0.447025,,,,,,mirror_12s.jpg,0.0,clockno_up.jpg,3.0,25,,,,,,,,,,,,,,,,,,0.0,10.0,10.0,10.0,1.0,,,,,,,,,,
0.0,1.0,0.61819,,,,,,raspberry_12s.jpg,0.0,clockno_default.jpg,3.0,25,,,,,,,,,,,,,,,,,,0.0,11.0,11.0,11.0,1.0,,,,,,,,,,
0.0,1.0,0.58785,,,,,,gas_mask_11s.jpg,0.0,clockno_default.jpg,3.0,25,,,,,,,,,,,,,,,,,,0.0,12.0,12.0,12.0,1.0,,,,,,,,,,
0.0,1.0,0.495025,,,,,,teacup_07s.jpg,0.0,clockno_default.jpg,3.0,25,,,,,,,,,,,,,,,,,,0.0,13.0,13.0,13.0,1.0,,,,,,,,,,
0.0,1.0,0.753555,,,,,,icemaker_10s.jpg,0.0,clockno_default.jpg,3.0,25,,,,,,,,,,,,,,,,,,0.0,14.0,14.0,14.0,1.0,,,,,,,,,,
,0.0,,,,,,,pacifier_09s.jpg,0.0,clockno_default.jpg,3.0,25,,,,,,,,,,,,,,,,,,0.0,15.0,15.0,15.0,1.0,,,,,,,,,,
0.0,1.0,0.46364,,,,,,pepper_mill_03s.jpg,0.0,clockno_default.jpg,3.0,25,,,,,,,,,,,,,,,,,,0.0,16.0,16.0,16.0,1.0,,,,,,,,,,
0.0,1.0,1.11415,,,,,,juicer1_08s.jpg,0.0,clockno_up.jpg,4.0,25,,,,,,,,,,,,,,,,,,0.0,17.0,17.0,17.0,1.0,,,,,,,,,,
0.0,1.0,0.388555,,,,,,lion_18s.jpg,0.0,clockno_default.jpg,4.0,25,,,,,,,,,,,,,,,,,,0.0,18.0,18.0,18.0,1.0,,,,,,,,,,
0.0,1.0,0.351045,,,,,,rocking_chair_05s.jpg,0.0,clockno_default.jpg,4.0,25,,,,,,,,,,,,,,,,,,0.0,19.0,19.0,19.0,1.0,,,,,,,,,,
0.0,1.0,0.57056,,,,,,beaker_01b.jpg,0.0,clockno_default.jpg,4.0,25,,,,,,,,,,,,,,,,,,0.0,20.0,20.0,20.0,1.0,,,,,,,,,,
0.0,1.0,0.63681,,,,,,leotard_08s.jpg,0.0,clockno_default.jpg,4.0,25,,,,,,,,,,,,,,,,,,0.0,21.0,21.0,21.0,1.0,,,,,,,,,,
0.0,1.0,0.544625,,,,,,puppet_01b.jpg,0.0,clockno_default.jpg,4.0,25,,,,,,,,,,,,,,,,,,0.0,22.0,22.0,22.0,1.0,,,,,,,,,,
0.0,1.0,0.619305,,,,,,soccer_ball_12s.jpg,0.0,clockno_up.jpg,5.0,25,,,,,,,,,,,,,,,,,,0.0,23.0,23.0,23.0,1.0,,,,,,,,,,
0.0,1.0,0.532855,,,,,,fox_13s.jpg,0.0,clockno_default.jpg,5.0,25,,,,,,,,,,,,,,,,,,0.0,24.0,24.0,24.0,1.0,,,,,,,,,,
0.0,1.0,0.832525,,,,,,birthday_cake_09s.jpg,0.0,clockno_default.jpg,5.0,25,,,,,,,,,,,,,,,,,,0.0,25.0,25.0,25.0,1.0,,,,,,,,,,
0.0,1.0,0.47848,,,,,,sushi_08s.jpg,0.0,clockno_default.jpg,5.0,25,,,,,,,,,,,,,,,,,,0.0,26.0,26.0,26.0,1.0,,,,,,,,,,
0.0,1.0,0.661925,,,,,,sparkler_02s.jpg,0.0,clockno_default.jpg,5.0,25,,,,,,,,,,,,,,,,,,0.0,27.0,27.0,27.0,1.0,,,,,,,,,,
0.0,1.0,0.585355,,,,,,dashboard_02s.jpg,0.0,clockno_default.jpg,5.0,25,,,,,,,,,,,,,,,,,,0.0,28.0,28.0,28.0,1.0,,,,,,,,,,
0.0,1.0,0.802915,,,,,,lizard_10n.jpg,0.0,clockno_up.jpg,6.0,25,,,,,,,,,,,,,,,,,,0.0,29.0,29.0,29.0,1.0,,,,,,,,,,
0.0,1.0,0.66211,,,,,,purse_05s.jpg,0.0,clockno_default.jpg,6.0,25,,,,,,,,,,,,,,,,,,0.0,30.0,30.0,30.0,1.0,,,,,,,,,,
0.0,1.0,0.536465,,,,,,owl_15s.jpg,0.0,clockno_default.jpg,6.0,25,,,,,,,,,,,,,,,,,,0.0,31.0,31.0,31.0,1.0,,,,,,,,,,
0.0,1.0,0.323125,,,,,,cobra_05s.jpg,0.0,clockno_default.jpg,6.0,25,,,,,,,,,,,,,,,,,,0.0,32.0,32.0,32.0,1.0,,,,,,,,,,
1.0,1.0,0.72897,,,,,,owl_15s.jpg,1.0,clockno_default.jpg,6.0,25,,,,,,,,,,,,,,,,,,0.0,33.0,33.0,33.0,1.0,,,,,,,,,,
0.0,1.0,0.528085,,,,,,pomegranate_04s.jpg,0.0,clockno_default.jpg,6.0,25,,,,,,,,,,,,,,,,,,0.0,34.0,34.0,34.0,1.0,,,,,,,,,,
0.0,1.0,0.52351,,,,,,plug_08s.jpg,0.0,clockno_default.jpg,6.0,25,,,,,,,,,,,,,,,,,,0.0,35.0,35.0,35.0,1.0,,,,,,,,,,
,,,,,,,,,0.0,,,25,0.0,1.0,1.539045,,,,,,kilt_18s.jpg,jersey_02s.jpg,,,,,,,,,,,,,0.0,0.0,0.0,0.0,1.0,,,,,
,,,,,,,,,0.0,,,25,0.0,1.0,1.431225,,,,,,raspberry_12s.jpg,bowler_hat_10s.jpg,,,,,,,,,,,,,0.0,1.0,1.0,1.0,1.0,,,,,
,,,,,,,,,0.0,,,25,0.0,1.0,1.7814,,,,,,birthday_cake_09s.jpg,puppet_01b.jpg,,,,,,,,,,,,,0.0,2.0,2.0,2.0,1.0,,,,,
,,,,,,,,,0.0,,,25,1.0,0.0,1.45291,,,,,,plug_08s.jpg,cobra_05s.jpg,,,,,,,,,,,,,0.0,3.0,3.0,3.0,1.0,,,,,
,,,,,,,,,0.0,,,25,1.0,0.0,1.916155,,,,,,light_switch_02s.jpg,harpoon.jpg,,,,,,,,,,,,,0.0,4.0,4.0,4.0,1.0,,,,,
,,,,,,,,,1.0,,,25,1.0,1.0,1.481645,,,,,,mirror_12s.jpg,teacup_07s.jpg,,,,,,,,,,,,,0.0,5.0,5.0,5.0,1.0,,,,,
,,,,,,,,,,,,25,,,,,,,,,,,,,,,,clockno_present_4_16.xlsx,clockno_compare_task_4_16.xlsx,,,,,,,,,,,0.0,3.0,3.0,3.0,1.0
0.0,1.0,0.493415,,,,,,film_03s.jpg,0.0,clockno_up.jpg,1.0,25,,,,,,,,,,,,,,,,,,0.0,0.0,0.0,0.0,1.0,,,,,,,,,,
0.0,1.0,0.38423,,,,,,stopwatch_04s.jpg,0.0,clockno_default.jpg,1.0,25,,,,,,,,,,,,,,,,,,0.0,1.0,1.0,1.0,1.0,,,,,,,,,,
0.0,1.0,0.697815,,,,,,pepper2_21s.jpg,0.0,clockno_default.jpg,1.0,25,,,,,,,,,,,,,,,,,,0.0,2.0,2.0,2.0,1.0,,,,,,,,,,
1.0,1.0,1.24628,,,,,,film_03s.jpg,1.0,clockno_default.jpg,1.0,25,,,,,,,,,,,,,,,,,,0.0,3.0,3.0,3.0,1.0,,,,,,,,,,
1.0,1.0,1.49656,,,,,,film_03s.jpg,1.0,clockno_default.jpg,1.0,25,,,,,,,,,,,,,,,,,,0.0,4.0,4.0,4.0,1.0,,,,,,,,,,
0.0,1.0,2.129975,,,,,,ginger_09s.jpg,0.0,clockno_default.jpg,1.0,25,,,,,,,,,,,,,,,,,,0.0,5.0,5.0,5.0,1.0,,,,,,,,,,
0.0,0.0,1.52996,,,,,,pepper2_21s.jpg,1.0,clockno_default.jpg,1.0,25,,,,,,,,,,,,,,,,,,0.0,6.0,6.0,6.0,1.0,,,,,,,,,,
0.0,1.0,0.633425,,,,,,puffin_19s.jpg,0.0,clockno_up.jpg,2.0,25,,,,,,,,,,,,,,,,,,0.0,7.0,7.0,7.0,1.0,,,,,,,,,,
0.0,1.0,0.53124,,,,,,golf_club_03s.jpg,0.0,clockno_default.jpg,2.0,25,,,,,,,,,,,,,,,,,,0.0,8.0,8.0,8.0,1.0,,,,,,,,,,
0.0,1.0,0.733555,,,,,,crab_16s.jpg,0.0,clockno_default.jpg,2.0,25,,,,,,,,,,,,,,,,,,0.0,9.0,9.0,9.0,1.0,,,,,,,,,,
0.0,1.0,0.54494,,,,,,bathtub_23s.jpg,0.0,clockno_default.jpg,2.0,25,,,,,,,,,,,,,,,,,,0.0,10.0,10.0,10.0,1.0,,,,,,,,,,
1.0,1.0,1.251275,,,,,,crab_16s.jpg,1.0,clockno_default.jpg,2.0,25,,,,,,,,,,,,,,,,,,0.0,11.0,11.0,11.0,1.0,,,,,,,,,,
0.0,1.0,0.573835,,,,,,pancake_12s.jpg,0.0,clockno_default.jpg,2.0,25,,,,,,,,,,,,,,,,,,0.0,12.0,12.0,12.0,1.0,,,,,,,,,,
0.0,1.0,0.488155,,,,,,lamb_04s.jpg,0.0,clockno_up.jpg,3.0,25,,,,,,,,,,,,,,,,,,0.0,13.0,13.0,13.0,1.0,,,,,,,,,,
0.0,1.0,0.645085,,,,,,ladle_04s.jpg,0.0,clockno_default.jpg,3.0,25,,,,,,,,,,,,,,,,,,0.0,14.0,14.0,14.0,1.0,,,,,,,,,,
0.0,1.0,0.478245,,,,,,popsicle_02s.jpg,0.0,clockno_default.jpg,3.0,25,,,,,,,,,,,,,,,,,,0.0,15.0,15.0,15.0,1.0,,,,,,,,,,
0.0,1.0,0.721325,,,,,,eiffeltower.jpg,0.0,clockno_default.jpg,3.0,25,,,,,,,,,,,,,,,,,,0.0,16.0,16.0,16.0,1.0,,,,,,,,,,
0.0,1.0,0.619625,,,,,,rolling_pin_02s.jpg,0.0,clockno_default.jpg,3.0,25,,,,,,,,,,,,,,,,,,0.0,17.0,17.0,17.0,1.0,,,,,,,,,,
0.0,1.0,0.64575,,,,,,lantern_04s.jpg,0.0,clockno_up.jpg,4.0,25,,,,,,,,,,,,,,,,,,0.0,18.0,18.0,18.0,1.0,,,,,,,,,,
0.0,1.0,0.769535,,,,,,telephone_pole_05s.jpg,0.0,clockno_default.jpg,4.0,25,,,,,,,,,,,,,,,,,,0.0,19.0,19.0,19.0,1.0,,,,,,,,,,
0.0,0.0,0.812005,,,,,,lantern_04s.jpg,1.0,clockno_default.jpg,4.0,25,,,,,,,,,,,,,,,,,,0.0,20.0,20.0,20.0,1.0,,,,,,,,,,
0.0,1.0,0.486035,,,,,,seahorse_13s.jpg,0.0,clockno_default.jpg,4.0,25,,,,,,,,,,,,,,,,,,0.0,21.0,21.0,21.0,1.0,,,,,,,,,,
0.0,1.0,0.785475,,,,,,ruby_15s.jpg,0.0,clockno_default.jpg,4.0,25,,,,,,,,,,,,,,,,,,0.0,22.0,22.0,22.0,1.0,,,,,,,,,,
0.0,1.0,0.55451,,,,,,machete_06s.jpg,0.0,clockno_up.jpg,5.0,25,,,,,,,,,,,,,,,,,,0.0,23.0,23.0,23.0,1.0,,,,,,,,,,
0.0,1.0,0.495145,,,,,,dirt_bike_11s.jpg,0.0,clockno_default.jpg,5.0,25,,,,,,,,,,,,,,,,,,0.0,24.0,24.0,24.0,1.0,,,,,,,,,,
0.0,1.0,0.43455,,,,,,tuxedo_01b.jpg,0.0,clockno_default.jpg,5.0,25,,,,,,,,,,,,,,,,,,0.0,25.0,25.0,25.0,1.0,,,,,,,,,,
0.0,1.0,1.03613,,,,,,mascara_03s.jpg,0.0,clockno_default.jpg,5.0,25,,,,,,,,,,,,,,,,,,0.0,26.0,26.0,26.0,1.0,,,,,,,,,,
0.0,1.0,0.58272,,,,,,puddle_02s.jpg,0.0,clockno_default.jpg,5.0,25,,,,,,,,,,,,,,,,,,0.0,27.0,27.0,27.0,1.0,,,,,,,,,,
0.0,1.0,0.96317,,,,,,lantern_04s.jpg,0.0,clockno_default.jpg,5.0,25,,,,,,,,,,,,,,,,,,0.0,28.0,28.0,28.0,1.0,,,,,,,,,,
0.0,1.0,0.5495,,,,,,pump_11s.jpg,0.0,clockno_up.jpg,6.0,25,,,,,,,,,,,,,,,,,,0.0,29.0,29.0,29.0,1.0,,,,,,,,,,
0.0,1.0,0.55144,,,,,,machine_gun_09s.jpg,0.0,clockno_default.jpg,6.0,25,,,,,,,,,,,,,,,,,,0.0,30.0,30.0,30.0,1.0,,,,,,,,,,
0.0,1.0,0.48264,,,,,,mitten_10s.jpg,0.0,clockno_default.jpg,6.0,25,,,,,,,,,,,,,,,,,,0.0,31.0,31.0,31.0,1.0,,,,,,,,,,
0.0,1.0,0.46115,,,,,,joystick_01b.jpg,0.0,clockno_default.jpg,6.0,25,,,,,,,,,,,,,,,,,,0.0,32.0,32.0,32.0,1.0,,,,,,,,,,
0.0,1.0,0.487205,,,,,,rice_12s.jpg,0.0,clockno_default.jpg,6.0,25,,,,,,,,,,,,,,,,,,0.0,33.0,33.0,33.0,1.0,,,,,,,,,,
0.0,1.0,0.6659,,,,,,lifesaver_10s.jpg,0.0,clockno_default.jpg,6.0,25,,,,,,,,,,,,,,,,,,0.0,34.0,34.0,34.0,1.0,,,,,,,,,,
0.0,1.0,0.5279,,,,,,lamp_08s.jpg,0.0,clockno_default.jpg,6.0,25,,,,,,,,,,,,,,,,,,0.0,35.0,35.0,35.0,1.0,,,,,,,,,,
,,,,,,,,,0.0,,,25,1.0,0.0,2.27637,,,,,,golf_club_03s.jpg,ginger_09s.jpg,,,,,,,,,,,,,0.0,0.0,0.0,0.0,1.0,,,,,
,,,,,,,,,0.0,,,25,1.0,0.0,1.584415,,,,,,popsicle_02s.jpg,pancake_12s.jpg,,,,,,,,,,,,,0.0,1.0,1.0,1.0,1.0,,,,,
,,,,,,,,,1.0,,,25,0.0,0.0,2.29891,,,,,,seahorse_13s.jpg,dirt_bike_11s.jpg,,,,,,,,,,,,,0.0,2.0,2.0,2.0,1.0,,,,,
,,,,,,,,,1.0,,,25,1.0,1.0,4.654145,,,,,,ladle_04s.jpg,rolling_pin_02s.jpg,,,,,,,,,,,,,0.0,3.0,3.0,3.0,1.0,,,,,
,,,,,,,,,1.0,,,25,1.0,1.0,1.94807,,,,,,mitten_10s.jpg,lifesaver_10s.jpg,,,,,,,,,,,,,0.0,4.0,4.0,4.0,1.0,,,,,
,,,,,,,,,0.0,,,25,1.0,0.0,1.647645,,,,,,lamp_08s.jpg,joystick_01b.jpg,,,,,,,,,,,,,0.0,5.0,5.0,5.0,1.0,,,,,
,,,,,,,,,,,,25,,,,,,,,,,,,,,,,clockno_present_5_16.xlsx,clockno_compare_task_5_16.xlsx,,,,,,,,,,,0.0,4.0,4.0,4.0,1.0
0.0,1.0,1.28806,,,,,,seagull_01b.jpg,0.0,clockno_up.jpg,1.0,25,,,,,,,,,,,,,,,,,,0.0,0.0,0.0,0.0,1.0,,,,,,,,,,
0.0,1.0,0.31502,,,,,,denture_03s.jpg,0.0,clockno_default.jpg,1.0,25,,,,,,,,,,,,,,,,,,0.0,1.0,1.0,1.0,1.0,,,,,,,,,,
1.0,1.0,1.22238,,,,,,seagull_01b.jpg,1.0,clockno_default.jpg,1.0,25,,,,,,,,,,,,,,,,,,0.0,2.0,2.0,2.0,1.0,,,,,,,,,,
1.0,1.0,1.21649,,,,,,seagull_01b.jpg,1.0,clockno_default.jpg,1.0,25,,,,,,,,,,,,,,,,,,0.0,3.0,3.0,3.0,1.0,,,,,,,,,,
1.0,1.0,0.923765,,,,,,seagull_01b.jpg,1.0,clockno_default.jpg,1.0,25,,,,,,,,,,,,,,,,,,0.0,4.0,4.0,4.0,1.0,,,,,,,,,,
0.0,1.0,1.32972,,,,,,knitting_needle_04s.jpg,0.0,clockno_default.jpg,1.0,25,,,,,,,,,,,,,,,,,,0.0,5.0,5.0,5.0,1.0,,,,,,,,,,
0.0,1.0,0.93658,,,,,,birdcage_08s.jpg,0.0,clockno_default.jpg,1.0,25,,,,,,,,,,,,,,,,,,0.0,6.0,6.0,6.0,1.0,,,,,,,,,,
0.0,1.0,0.77163,,,,,,pie_08s.jpg,0.0,clockno_up.jpg,2.0,25,,,,,,,,,,,,,,,,,,0.0,7.0,7.0,7.0,1.0,,,,,,,,,,
0.0,1.0,0.461385,,,,,,glasses01a.jpg,0.0,clockno_default.jpg,2.0,25,,,,,,,,,,,,,,,,,,0.0,8.0,8.0,8.0,1.0,,,,,,,,,,
0.0,1.0,0.464025,,,,,,onion_10s.jpg,0.0,clockno_default.jpg,2.0,25,,,,,,,,,,,,,,,,,,0.0,9.0,9.0,9.0,1.0,,,,,,,,,,
0.0,1.0,1.06253,,,,,,seagull_01b.jpg,0.0,clockno_default.jpg,2.0,25,,,,,,,,,,,,,,,,,,0.0,10.0,10.0,10.0,1.0,,,,,,,,,,
0.0,1.0,0.518105,,,,,,tortilla_06s.jpg,0.0,clockno_default.jpg,2.0,25,,,,,,,,,,,,,,,,,,0.0,11.0,11.0,11.0,1.0,,,,,,,,,,
0.0,1.0,0.75205,,,,,,panda_02s.jpg,0.0,clockno_up.jpg,3.0,25,,,,,,,,,,,,,,,,,,0.0,12.0,12.0,12.0,1.0,,,,,,,,,,
0.0,1.0,0.804155,,,,,,lipstick_02s.jpg,0.0,clockno_default.jpg,3.0,25,,,,,,,,,,,,,,,,,,0.0,13.0,13.0,13.0,1.0,,,,,,,,,,
1.0,1.0,1.54685,,,,,,lipstick_02s.jpg,1.0,clockno_default.jpg,3.0,25,,,,,,,,,,,,,,,,,,0.0,14.0,14.0,14.0,1.0,,,,,,,,,,
0.0,1.0,0.544475,,,,,,chime_12s.jpg,0.0,clockno_default.jpg,3.0,25,,,,,,,,,,,,,,,,,,0.0,15.0,15.0,15.0,1.0,,,,,,,,,,
0.0,0.0,0.89456,,,,,,panda_02s.jpg,1.0,clockno_default.jpg,3.0,25,,,,,,,,,,,,,,,,,,0.0,16.0,16.0,16.0,1.0,,,,,,,,,,
0.0,1.0,0.56632,,,,,,mug_06s.jpg,0.0,clockno_default.jpg,3.0,25,,,,,,,,,,,,,,,,,,0.0,17.0,17.0,17.0,1.0,,,,,,,,,,
0.0,1.0,0.896935,,,,,,pie_08s.jpg,0.0,clockno_default.jpg,3.0,25,,,,,,,,,,,,,,,,,,0.0,18.0,18.0,18.0,1.0,,,,,,,,,,
0.0,1.0,0.6205,,,,,,latch_15s.jpg,0.0,clockno_up.jpg,4.0,25,,,,,,,,,,,,,,,,,,0.0,19.0,19.0,19.0,1.0,,,,,,,,,,
1.0,1.0,1.112645,,,,,,latch_15s.jpg,1.0,clockno_default.jpg,4.0,25,,,,,,,,,,,,,,,,,,0.0,20.0,20.0,20.0,1.0,,,,,,,,,,
0.0,1.0,0.61153,,,,,,camcorder_10s.jpg,0.0,clockno_default.jpg,4.0,25,,,,,,,,,,,,,,,,,,0.0,21.0,21.0,21.0,1.0,,,,,,,,,,
0.0,1.0,0.74889,,,,,,kimono_13s.jpg,0.0,clockno_default.jpg,4.0,25,,,,,,,,,,,,,,,,,,0.0,22.0,22.0,22.0,1.0,,,,,,,,,,
1.0,1.0,1.313075,,,,,,kimono_13s.jpg,1.0,clockno_default.jpg,4.0,25,,,,,,,,,,,,,,,,,,0.0,23.0,23.0,23.0,1.0,,,,,,,,,,
0.0,1.0,0.50565,,,,,,bee_20s.jpg,0.0,clockno_up.jpg,5.0,25,,,,,,,,,,,,,,,,,,0.0,24.0,24.0,24.0,1.0,,,,,,,,,,
0.0,1.0,0.468845,,,,,,saddle_06s.jpg,0.0,clockno_default.jpg,5.0,25,,,,,,,,,,,,,,,,,,0.0,25.0,25.0,25.0,1.0,,,,,,,,,,
0.0,1.0,1.095625,,,,,,fire_alarm_05s.jpg,0.0,clockno_default.jpg,5.0,25,,,,,,,,,,,,,,,,,,0.0,26.0,26.0,26.0,1.0,,,,,,,,,,
0.0,1.0,0.578475,,,,,,ram_05s.jpg,0.0,clockno_default.jpg,5.0,25,,,,,,,,,,,,,,,,,,0.0,27.0,27.0,27.0,1.0,,,,,,,,,,
0.0,1.0,1.237365,,,,,,coral_08s.jpg,0.0,clockno_default.jpg,5.0,25,,,,,,,,,,,,,,,,,,0.0,28.0,28.0,28.0,1.0,,,,,,,,,,
0.0,1.0,1.345545,,,,,,roller_coaster_07s.jpg,0.0,clockno_default.jpg,5.0,25,,,,,,,,,,,,,,,,,,0.0,29.0,29.0,29.0,1.0,,,,,,,,,,
0.0,1.0,0.644425,,,,,,playpen_11s.jpg,0.0,clockno_up.jpg,6.0,25,,,,,,,,,,,,,,,,,,0.0,30.0,30.0,30.0,1.0,,,,,,,,,,
0.0,1.0,0.749475,,,,,,mask_09s.jpg,0.0,clockno_default.jpg,6.0,25,,,,,,,,,,,,,,,,,,0.0,31.0,31.0,31.0,1.0,,,,,,,,,,
1.0,1.0,1.463495,,,,,,mask_09s.jpg,1.0,clockno_default.jpg,6.0,25,,,,,,,,,,,,,,,,,,0.0,32.0,32.0,32.0,1.0,,,,,,,,,,
0.0,1.0,0.880355,,,,,,turf_03s.jpg,0.0,clockno_default.jpg,6.0,25,,,,,,,,,,,,,,,,,,0.0,33.0,33.0,33.0,1.0,,,,,,,,,,
0.0,1.0,1.164595,,,,,,go-kart_10s.jpg,0.0,clockno_default.jpg,6.0,25,,,,,,,,,,,,,,,,,,0.0,34.0,34.0,34.0,1.0,,,,,,,,,,
0.0,1.0,1.01134,,,,,,polaroid_05s.jpg,0.0,clockno_default.jpg,6.0,25,,,,,,,,,,,,,,,,,,0.0,35.0,35.0,35.0,1.0,,,,,,,,,,
,,,,,,,,,1.0,,,25,0.0,0.0,2.543635,,,,,,birdcage_08s.jpg,onion_10s.jpg,,,,,,,,,,,,,0.0,0.0,0.0,0.0,1.0,,,,,
,,,,,,,,,0.0,,,25,1.0,0.0,2.8653,,,,,,glasses01a.jpg,knitting_needle_04s.jpg,,,,,,,,,,,,,0.0,1.0,1.0,1.0,1.0,,,,,
,,,,,,,,,0.0,,,25,1.0,0.0,1.830655,,,,,,bee_20s.jpg,camcorder_10s.jpg,,,,,,,,,,,,,0.0,2.0,2.0,2.0,1.0,,,,,
,,,,,,,,,0.0,,,25,0.0,1.0,1.264785,,,,,,coral_08s.jpg,saddle_06s.jpg,,,,,,,,,,,,,0.0,3.0,3.0,3.0,1.0,,,,,
,,,,,,,,,1.0,,,25,0.0,0.0,1.531825,,,,,,fire_alarm_05s.jpg,roller_coaster_07s.jpg,,,,,,,,,,,,,0.0,4.0,4.0,4.0,1.0,,,,,
,,,,,,,,,0.0,,,25,1.0,0.0,1.416295,,,,,,turf_03s.jpg,playpen_11s.jpg,,,,,,,,,,,,,0.0,5.0,5.0,5.0,1.0,,,,,
