key_resp.keys,key_resp.corr,key_resp.rt,present_segment.thisRepN,present_segment.thisTrialN,present_segment.thisN,present_segment.thisIndex,present_segment.ran,pictures,answer,clock,segment,participant,key_resp_2.keys,key_resp_2.corr,key_resp_2.rt,compare_segment.thisRepN,compare_segment.thisTrialN,compare_segment.thisN,compare_segment.thisIndex,compare_segment.ran,item_a,item_b,clock_conditions.thisRepN,clock_conditions.thisTrialN,clock_conditions.thisN,clock_conditions.thisIndex,clock_conditions.ran,present,compare,noclock_present.thisRepN,noclock_present.thisTrialN,noclock_present.thisN,noclock_present.thisIndex,noclock_present.ran,noclock_compare.thisRepN,noclock_compare.thisTrialN,noclock_compare.thisN,noclock_compare.thisIndex,noclock_compare.ran,noclock_conditions.thisRepN,noclock_conditions.thisTrialN,noclock_conditions.thisN,noclock_conditions.thisIndex,noclock_conditions.ran
0.0,1.0,0.75678,0.0,0.0,0.0,0.0,1.0,jetski_10s.jpg,0.0,clock_7_1.png,1.0,4,,,,,,,,,,,,,,,,,,,,,,,,,,,,,,,,
0.0,1.0,0.8152,0.0,1.0,1.0,1.0,1.0,padlock_07s.jpg,0.0,clock_7_2.png,1.0,4,,,,,,,,,,,,,,,,,,,,,,,,,,,,,,,,
1.0,0.0,0.894655,0.0,2.0,2.0,2.0,1.0,antenna_01b.jpg,0.0,clock_7_3.png,1.0,4,,,,,,,,,,,,,,,,,,,,,,,,,,,,,,,,
0.0,1.0,0.740425,0.0,3.0,3.0,3.0,1.0,rhubarb_03s.jpg,0.0,clock_7_4.png,1.0,4,,,,,,,,,,,,,,,,,,,,,,,,,,,,,,,,
1.0,1.0,0.967215,0.0,4.0,4.0,4.0,1.0,jetski_10s.jpg,1.0,clock_7_5.png,1.0,4,,,,,,,,,,,,,,,,,,,,,,,,,,,,,,,,
0.0,1.0,1.17949,0.0,5.0,5.0,5.0,1.0,juicer2_06s.jpg,0.0,clock_7_6.png,1.0,4,,,,,,,,,,,,,,,,,,,,,,,,,,,,,,,,
1.0,1.0,0.784715,0.0,6.0,6.0,6.0,1.0,padlock_07s.jpg,1.0,clock_7_7.png,1.0,4,,,,,,,,,,,,,,,,,,,,,,,,,,,,,,,,
0.0,1.0,0.66837,0.0,7.0,7.0,7.0,1.0,insole_11s.jpg,0.0,clock_5_1.png,2.0,4,,,,,,,,,,,,,,,,,,,,,,,,,,,,,,,,
0.0,1.0,1.301735,0.0,8.0,8.0,8.0,1.0,antenna_01b.jpg,0.0,clock_5_2.png,2.0,4,,,,,,,,,,,,,,,,,,,,,,,,,,,,,,,,
0.0,1.0,1.29929,0.0,9.0,9.0,9.0,1.0,stingray_02s.jpg,0.0,clock_5_3.png,2.0,4,,,,,,,,,,,,,,,,,,,,,,,,,,,,,,,,
0.0,1.0,0.817275,0.0,10.0,10.0,10.0,1.0,lectern_08s.jpg,0.0,clock_5_4.png,2.0,4,,,,,,,,,,,,,,,,,,,,,,,,,,,,,,,,
0.0,1.0,1.079725,0.0,11.0,11.0,11.0,1.0,briefcase_03s.jpg,0.0,clock_5_5.png,2.0,4,,,,,,,,,,,,,,,,,,,,,,,,,,,,,,,,
0.0,1.0,1.0286,0.0,12.0,12.0,12.0,1.0,pepper_mill_03s.jpg,0.0,clock_6_1.png,3.0,4,,,,,,,,,,,,,,,,,,,,,,,,,,,,,,,,
0.0,1.0,0.904245,0.0,13.0,13.0,13.0,1.0,light_switch_02s.jpg,0.0,clock_6_2.png,3.0,4,,,,,,,,,,,,,,,,,,,,,,,,,,,,,,,,
0.0,1.0,1.01149,0.0,14.0,14.0,14.0,1.0,lava_02s.jpg,0.0,clock_6_3.png,3.0,4,,,,,,,,,,,,,,,,,,,,,,,,,,,,,,,,
0.0,1.0,0.966965,0.0,15.0,15.0,15.0,1.0,moth_06n.jpg,0.0,clock_6_4.png,3.0,4,,,,,,,,,,,,,,,,,,,,,,,,,,,,,,,,
0.0,1.0,1.04806,0.0,16.0,16.0,16.0,1.0,pincushion_10s.jpg,0.0,clock_6_5.png,3.0,4,,,,,,,,,,,,,,,,,,,,,,,,,,,,,,,,
0.0,1.0,0.878265,0.0,17.0,17.0,17.0,1.0,quad_04s.jpg,0.0,clock_6_6.png,3.0,4,,,,,,,,,,,,,,,,,,,,,,,,,,,,,,,,
0.0,1.0,0.95297,0.0,18.0,18.0,18.0,1.0,keyhole_03s.jpg,0.0,clock_6_1.png,4.0,4,,,,,,,,,,,,,,,,,,,,,,,,,,,,,,,,
0.0,1.0,1.059575,0.0,19.0,19.0,19.0,1.0,trampoline_13s.jpg,0.0,clock_6_2.png,4.0,4,,,,,,,,,,,,,,,,,,,,,,,,,,,,,,,,
0.0,1.0,1.012525,0.0,20.0,20.0,20.0,1.0,lectern_08s.jpg,0.0,clock_6_3.png,4.0,4,,,,,,,,,,,,,,,,,,,,,,,,,,,,,,,,
0.0,1.0,0.81009,0.0,21.0,21.0,21.0,1.0,fork_04s.jpg,0.0,clock_6_4.png,4.0,4,,,,,,,,,,,,,,,,,,,,,,,,,,,,,,,,
0.0,1.0,0.818705,0.0,22.0,22.0,22.0,1.0,petri_dish_12s.jpg,0.0,clock_6_5.png,4.0,4,,,,,,,,,,,,,,,,,,,,,,,,,,,,,,,,
1.0,1.0,0.788275,0.0,23.0,23.0,23.0,1.0,petri_dish_12s.jpg,1.0,clock_6_6.png,4.0,4,,,,,,,,,,,,,,,,,,,,,,,,,,,,,,,,
0.0,1.0,0.78571,0.0,24.0,24.0,24.0,1.0,metronome_03s.jpg,0.0,clock_7_1.png,5.0,4,,,,,,,,,,,,,,,,,,,,,,,,,,,,,,,,
0.0,1.0,0.87111,0.0,25.0,25.0,25.0,1.0,tiara_05s.jpg,0.0,clock_7_2.png,5.0,4,,,,,,,,,,,,,,,,,,,,,,,,,,,,,,,,
0.0,1.0,0.84356,0.0,26.0,26.0,26.0,1.0,undershirt_02s.jpg,0.0,clock_7_3.png,5.0,4,,,,,,,,,,,,,,,,,,,,,,,,,,,,,,,,
0.0,1.0,1.093335,0.0,27.0,27.0,27.0,1.0,tripod_01b.jpg,0.0,clock_7_4.png,5.0,4,,,,,,,,,,,,,,,,,,,,,,,,,,,,,,,,
0.0,1.0,0.749285,0.0,28.0,28.0,28.0,1.0,parachute_03s.jpg,0.0,clock_7_5.png,5.0,4,,,,,,,,,,,,,,,,,,,,,,,,,,,,,,,,
0.0,1.0,0.756655,0.0,29.0,29.0,29.0,1.0,jelly_bean_06s.jpg,0.0,clock_7_6.png,5.0,4,,,,,,,,,,,,,,,,,,,,,,,,,,,,,,,,
0.0,1.0,0.615895,0.0,30.0,30.0,30.0,1.0,stamp1_11s.jpg,0.0,clock_7_7.png,5.0,4,,,,,,,,,,,,,,,,,,,,,,,,,,,,,,,,
0.0,1.0,0.785775,0.0,31.0,31.0,31.0,1.0,throne_11s.jpg,0.0,clock_5_1.png,6.0,4,,,,,,,,,,,,,,,,,,,,,,,,,,,,,,,,
0.0,1.0,0.599155,0.0,32.0,32.0,32.0,1.0,ice_pack_09s.jpg,0.0,clock_5_2.png,6.0,4,,,,,,,,,,,,,,,,,,,,,,,,,,,,,,,,
0.0,1.0,0.75831,0.0,33.0,33.0,33.0,1.0,latch_15s.jpg,0.0,clock_5_3.png,6.0,4,,,,,,,,,,,,,,,,,,,,,,,,,,,,,,,,
0.0,1.0,0.743135,0.0,34.0,34.0,34.0,1.0,eggshell_14s.jpg,0.0,clock_5_4.png,6.0,4,,,,,,,,,,,,,,,,,,,,,,,,,,,,,,,,
0.0,1.0,0.770675,0.0,35.0,35.0,35.0,1.0,lifesaver_10s.jpg,0.0,clock_5_5.png,6.0,4,,,,,,,,,,,,,,,,,,,,,,,,,,,,,,,,
,,,,,,,,,1.0,,,4,0.0,0.0,2.686635,0.0,0.0,0.0,0.0,1.0,stingray_02s.jpg,pepper_mill_03s.jpg,,,,,,,,,,,,,,,,,,,,,,
,,,,,,,,,1.0,,,4,1.0,1.0,3.42057,0.0,1.0,1.0,1.0,1.0,briefcase_03s.jpg,lava_02s.jpg,,,,,,,,,,,,,,,,,,,,,,
,,,,,,,,,0.0,,,4,0.0,1.0,1.461845,0.0,2.0,2.0,2.0,1.0,trampoline_13s.jpg,pincushion_10s.jpg,,,,,,,,,,,,,,,,,,,,,,
,,,,,,,,,0.0,,,4,1.0,0.0,1.395705,0.0,3.0,3.0,3.0,1.0,tripod_01b.jpg,metronome_03s.jpg,,,,,,,,,,,,,,,,,,,,,,
,,,,,,,,,0.0,,,4,0.0,1.0,1.48804,0.0,4.0,4.0,4.0,1.0,parachute_03s.jpg,tiara_05s.jpg,,,,,,,,,,,,,,,,,,,,,,
,,,,,,,,,0.0,,,4,0.0,1.0,1.50419,0.0,5.0,5.0,5.0,1.0,jelly_bean_06s.jpg,undershirt_02s.jpg,,,,,,,,,,,,,,,,,,,,,,
,,,,,,,,,,,,4,,,,,,,,,,,0.0,0.0,0.0,0.0,1.0,clock_present_1_15.xlsx,clock_compare_task_1_15.xlsx,,,,,,,,,,,,,,,
0.0,1.0,1.237025,0.0,0.0,0.0,0.0,1.0,target_11s.jpg,0.0,clock_6_1.png,1.0,4,,,,,,,,,,,,,,,,,,,,,,,,,,,,,,,,
0.0,1.0,1.228375,0.0,1.0,1.0,1.0,1.0,olive_05s.jpg,0.0,clock_6_2.png,1.0,4,,,,,,,,,,,,,,,,,,,,,,,,,,,,,,,,
1.0,1.0,0.869715,0.0,2.0,2.0,2.0,1.0,olive_05s.jpg,1.0,clock_6_3.png,1.0,4,,,,,,,,,,,,,,,,,,,,,,,,,,,,,,,,
0.0,1.0,0.86856,0.0,3.0,3.0,3.0,1.0,licorice_06s.jpg,0.0,clock_6_4.png,1.0,4,,,,,,,,,,,,,,,,,,,,,,,,,,,,,,,,
0.0,1.0,1.14545,0.0,4.0,4.0,4.0,1.0,sledgehammer_03s.jpg,0.0,clock_6_5.png,1.0,4,,,,,,,,,,,,,,,,,,,,,,,,,,,,,,,,
0.0,1.0,0.820405,0.0,5.0,5.0,5.0,1.0,fur_coat_11s.jpg,0.0,clock_6_6.png,1.0,4,,,,,,,,,,,,,,,,,,,,,,,,,,,,,,,,
0.0,1.0,0.883295,0.0,6.0,6.0,6.0,1.0,rocket_02s.jpg,0.0,clock_6_1.png,2.0,4,,,,,,,,,,,,,,,,,,,,,,,,,,,,,,,,
1.0,1.0,0.72051,0.0,7.0,7.0,7.0,1.0,rocket_02s.jpg,1.0,clock_6_2.png,2.0,4,,,,,,,,,,,,,,,,,,,,,,,,,,,,,,,,
1.0,1.0,0.749715,0.0,8.0,8.0,8.0,1.0,rocket_02s.jpg,1.0,clock_6_3.png,2.0,4,,,,,,,,,,,,,,,,,,,,,,,,,,,,,,,,
1.0,1.0,0.53492,0.0,9.0,9.0,9.0,1.0,rocket_02s.jpg,1.0,clock_6_4.png,2.0,4,,,,,,,,,,,,,,,,,,,,,,,,,,,,,,,,
0.0,1.0,0.46056,0.0,10.0,10.0,10.0,1.0,rug_09s.jpg,0.0,clock_6_5.png,2.0,4,,,,,,,,,,,,,,,,,,,,,,,,,,,,,,,,
0.0,1.0,0.68672,0.0,11.0,11.0,11.0,1.0,peanut_butter_08s.jpg,0.0,clock_6_6.png,2.0,4,,,,,,,,,,,,,,,,,,,,,,,,,,,,,,,,
0.0,1.0,0.72127,0.0,12.0,12.0,12.0,1.0,tie_03s.jpg,0.0,clock_7_1.png,3.0,4,,,,,,,,,,,,,,,,,,,,,,,,,,,,,,,,
0.0,1.0,0.543435,0.0,13.0,13.0,13.0,1.0,pillow_03s.jpg,0.0,clock_7_2.png,3.0,4,,,,,,,,,,,,,,,,,,,,,,,,,,,,,,,,
1.0,1.0,0.764775,0.0,14.0,14.0,14.0,1.0,pillow_03s.jpg,1.0,clock_7_3.png,3.0,4,,,,,,,,,,,,,,,,,,,,,,,,,,,,,,,,
0.0,1.0,0.76001,0.0,15.0,15.0,15.0,1.0,beaker_01b.jpg,0.0,clock_7_4.png,3.0,4,,,,,,,,,,,,,,,,,,,,,,,,,,,,,,,,
0.0,1.0,0.88887,0.0,16.0,16.0,16.0,1.0,saddle_06s.jpg,0.0,clock_7_5.png,3.0,4,,,,,,,,,,,,,,,,,,,,,,,,,,,,,,,,
0.0,1.0,0.846495,0.0,17.0,17.0,17.0,1.0,harpoon.jpg,0.0,clock_7_6.png,3.0,4,,,,,,,,,,,,,,,,,,,,,,,,,,,,,,,,
0.0,1.0,0.775605,0.0,18.0,18.0,18.0,1.0,poinsettia_04s.jpg,0.0,clock_7_7.png,3.0,4,,,,,,,,,,,,,,,,,,,,,,,,,,,,,,,,
0.0,1.0,0.74376,0.0,19.0,19.0,19.0,1.0,peeler_06s.jpg,0.0,clock_5_1.png,4.0,4,,,,,,,,,,,,,,,,,,,,,,,,,,,,,,,,
0.0,1.0,0.8303,0.0,20.0,20.0,20.0,1.0,laundry_basket_11s.jpg,0.0,clock_5_2.png,4.0,4,,,,,,,,,,,,,,,,,,,,,,,,,,,,,,,,
0.0,1.0,0.92266,0.0,21.0,21.0,21.0,1.0,blender_08s.jpg,0.0,clock_5_3.png,4.0,4,,,,,,,,,,,,,,,,,,,,,,,,,,,,,,,,
1.0,1.0,0.977965,0.0,22.0,22.0,22.0,1.0,peeler_06s.jpg,1.0,clock_5_4.png,4.0,4,,,,,,,,,,,,,,,,,,,,,,,,,,,,,,,,
0.0,1.0,0.909575,0.0,23.0,23.0,23.0,1.0,puppy_08s.jpg,0.0,clock_5_5.png,4.0,4,,,,,,,,,,,,,,,,,,,,,,,,,,,,,,,,
0.0,1.0,0.79278,0.0,24.0,24.0,24.0,1.0,frog_09s.jpg,0.0,clock_5_1.png,5.0,4,,,,,,,,,,,,,,,,,,,,,,,,,,,,,,,,
0.0,1.0,0.93909,0.0,25.0,25.0,25.0,1.0,mousetrap_15n.jpg,0.0,clock_5_2.png,5.0,4,,,,,,,,,,,,,,,,,,,,,,,,,,,,,,,,
0.0,1.0,0.826355,0.0,26.0,26.0,26.0,1.0,candy_cane_06s.jpg,0.0,clock_5_3.png,5.0,4,,,,,,,,,,,,,,,,,,,,,,,,,,,,,,,,
0.0,1.0,0.87925,0.0,27.0,27.0,27.0,1.0,jewel_01b.jpg,0.0,clock_5_4.png,5.0,4,,,,,,,,,,,,,,,,,,,,,,,,,,,,,,,,
0.0,1.0,0.759735,0.0,28.0,28.0,28.0,1.0,bolo_tie_08s.jpg,0.0,clock_5_5.png,5.0,4,,,,,,,,,,,,,,,,,,,,,,,,,,,,,,,,
0.0,1.0,1.331425,0.0,29.0,29.0,29.0,1.0,paper_towel_03s.jpg,0.0,clock_7_1.png,6.0,4,,,,,,,,,,,,,,,,,,,,,,,,,,,,,,,,
1.0,1.0,0.74108,0.0,30.0,30.0,30.0,1.0,paper_towel_03s.jpg,1.0,clock_7_2.png,6.0,4,,,,,,,,,,,,,,,,,,,,,,,,,,,,,,,,
0.0,1.0,0.786345,0.0,31.0,31.0,31.0,1.0,crossbow_10s.jpg,0.0,clock_7_3.png,6.0,4,,,,,,,,,,,,,,,,,,,,,,,,,,,,,,,,
0.0,1.0,0.90258,0.0,32.0,32.0,32.0,1.0,golf_club_03s.jpg,0.0,clock_7_4.png,6.0,4,,,,,,,,,,,,,,,,,,,,,,,,,,,,,,,,
0.0,1.0,1.562815,0.0,33.0,33.0,33.0,1.0,ring_03s.jpg,0.0,clock_7_5.png,6.0,4,,,,,,,,,,,,,,,,,,,,,,,,,,,,,,,,
0.0,1.0,0.794,0.0,34.0,34.0,34.0,1.0,roller_coaster_07s.jpg,0.0,clock_7_6.png,6.0,4,,,,,,,,,,,,,,,,,,,,,,,,,,,,,,,,
0.0,1.0,1.194005,0.0,35.0,35.0,35.0,1.0,syringe_02s.jpg,0.0,clock_7_7.png,6.0,4,,,,,,,,,,,,,,,,,,,,,,,,,,,,,,,,
,,,,,,,,,0.0,,,4,1.0,0.0,2.11173,0.0,0.0,0.0,0.0,1.0,laundry_basket_11s.jpg,harpoon.jpg,,,,,,,,,,,,,,,,,,,,,,
,,,,,,,,,1.0,,,4,0.0,0.0,1.89651,0.0,1.0,1.0,1.0,1.0,poinsettia_04s.jpg,blender_08s.jpg,,,,,,,,,,,,,,,,,,,,,,
,,,,,,,,,1.0,,,4,0.0,0.0,2.487685,0.0,2.0,2.0,2.0,1.0,puppy_08s.jpg,candy_cane_06s.jpg,,,,,,,,,,,,,,,,,,,,,,
,,,,,,,,,1.0,,,4,0.0,0.0,1.253165,0.0,3.0,3.0,3.0,1.0,target_11s.jpg,licorice_06s.jpg,,,,,,,,,,,,,,,,,,,,,,
,,,,,,,,,0.0,,,4,1.0,0.0,1.594735,0.0,4.0,4.0,4.0,1.0,beaker_01b.jpg,tie_03s.jpg,,,,,,,,,,,,,,,,,,,,,,
,,,,,,,,,1.0,,,4,1.0,1.0,1.42973,0.0,5.0,5.0,5.0,1.0,golf_club_03s.jpg,syringe_02s.jpg,,,,,,,,,,,,,,,,,,,,,,
,,,,,,,,,,,,4,,,,,,,,,,,0.0,1.0,1.0,1.0,1.0,clock_present_2_15.xlsx,clock_compare_task_2_15.xlsx,,,,,,,,,,,,,,,
0.0,1.0,1.307755,0.0,0.0,0.0,0.0,1.0,squirt_gun_03s.jpg,0.0,clock_6_1.png,1.0,4,,,,,,,,,,,,,,,,,,,,,,,,,,,,,,,,
0.0,1.0,1.02277,0.0,1.0,1.0,1.0,1.0,omelet_07s.jpg,0.0,clock_6_2.png,1.0,4,,,,,,,,,,,,,,,,,,,,,,,,,,,,,,,,
0.0,1.0,0.754345,0.0,2.0,2.0,2.0,1.0,quilt_03s.jpg,0.0,clock_6_3.png,1.0,4,,,,,,,,,,,,,,,,,,,,,,,,,,,,,,,,
0.0,1.0,1.001725,0.0,3.0,3.0,3.0,1.0,muffin_12n.jpg,0.0,clock_6_4.png,1.0,4,,,,,,,,,,,,,,,,,,,,,,,,,,,,,,,,
0.0,1.0,1.094965,0.0,4.0,4.0,4.0,1.0,orange_12s.jpg,0.0,clock_6_5.png,1.0,4,,,,,,,,,,,,,,,,,,,,,,,,,,,,,,,,
1.0,1.0,0.95338,0.0,5.0,5.0,5.0,1.0,squirt_gun_03s.jpg,1.0,clock_6_6.png,1.0,4,,,,,,,,,,,,,,,,,,,,,,,,,,,,,,,,
0.0,1.0,0.77741,0.0,6.0,6.0,6.0,1.0,spider_web_03s.jpg,0.0,clock_7_1.png,2.0,4,,,,,,,,,,,,,,,,,,,,,,,,,,,,,,,,
1.0,1.0,0.88215,0.0,7.0,7.0,7.0,1.0,spider_web_03s.jpg,1.0,clock_7_2.png,2.0,4,,,,,,,,,,,,,,,,,,,,,,,,,,,,,,,,
0.0,1.0,1.488535,0.0,8.0,8.0,8.0,1.0,muffin_12n.jpg,0.0,clock_7_3.png,2.0,4,,,,,,,,,,,,,,,,,,,,,,,,,,,,,,,,
1.0,1.0,1.05529,0.0,9.0,9.0,9.0,1.0,muffin_12n.jpg,1.0,clock_7_4.png,2.0,4,,,,,,,,,,,,,,,,,,,,,,,,,,,,,,,,
0.0,1.0,0.95579,0.0,10.0,10.0,10.0,1.0,boar_10s.jpg,0.0,clock_7_5.png,2.0,4,,,,,,,,,,,,,,,,,,,,,,,,,,,,,,,,
0.0,1.0,0.76988,0.0,11.0,11.0,11.0,1.0,tongs_08s.jpg,0.0,clock_7_6.png,2.0,4,,,,,,,,,,,,,,,,,,,,,,,,,,,,,,,,
0.0,1.0,0.7099,0.0,12.0,12.0,12.0,1.0,toaster_03s.jpg,0.0,clock_7_7.png,2.0,4,,,,,,,,,,,,,,,,,,,,,,,,,,,,,,,,
0.0,1.0,0.785795,0.0,13.0,13.0,13.0,1.0,bacon_05s.jpg,0.0,clock_5_1.png,3.0,4,,,,,,,,,,,,,,,,,,,,,,,,,,,,,,,,
0.0,1.0,0.92662,0.0,14.0,14.0,14.0,1.0,letter_opener_03s.jpg,0.0,clock_5_2.png,3.0,4,,,,,,,,,,,,,,,,,,,,,,,,,,,,,,,,
0.0,1.0,0.87063,0.0,15.0,15.0,15.0,1.0,pipe1_10s.jpg,0.0,clock_5_3.png,3.0,4,,,,,,,,,,,,,,,,,,,,,,,,,,,,,,,,
0.0,1.0,0.91141,0.0,16.0,16.0,16.0,1.0,red_carpet_03s.jpg,0.0,clock_5_4.png,3.0,4,,,,,,,,,,,,,,,,,,,,,,,,,,,,,,,,
1.0,1.0,0.75393,0.0,17.0,17.0,17.0,1.0,pipe1_10s.jpg,1.0,clock_5_5.png,3.0,4,,,,,,,,,,,,,,,,,,,,,,,,,,,,,,,,
0.0,1.0,0.49305,0.0,18.0,18.0,18.0,1.0,fountain_pen_06s.jpg,0.0,clock_5_1.png,4.0,4,,,,,,,,,,,,,,,,,,,,,,,,,,,,,,,,
0.0,1.0,0.636545,0.0,19.0,19.0,19.0,1.0,kimono_13s.jpg,0.0,clock_5_2.png,4.0,4,,,,,,,,,,,,,,,,,,,,,,,,,,,,,,,,
0.0,1.0,1.333635,0.0,20.0,20.0,20.0,1.0,bagel_15s.jpg,0.0,clock_5_3.png,4.0,4,,,,,,,,,,,,,,,,,,,,,,,,,,,,,,,,
0.0,1.0,1.484895,0.0,21.0,21.0,21.0,1.0,marker_05s.jpg,0.0,clock_5_4.png,4.0,4,,,,,,,,,,,,,,,,,,,,,,,,,,,,,,,,
0.0,1.0,1.149155,0.0,22.0,22.0,22.0,1.0,chopsticks_08s.jpg,0.0,clock_5_5.png,4.0,4,,,,,,,,,,,,,,,,,,,,,,,,,,,,,,,,
0.0,1.0,0.96289,0.0,23.0,23.0,23.0,1.0,toy_04s.jpg,0.0,clock_6_1.png,5.0,4,,,,,,,,,,,,,,,,,,,,,,,,,,,,,,,,
1.0,1.0,0.67788,0.0,24.0,24.0,24.0,1.0,toy_04s.jpg,1.0,clock_6_2.png,5.0,4,,,,,,,,,,,,,,,,,,,,,,,,,,,,,,,,
0.0,1.0,0.788545,0.0,25.0,25.0,25.0,1.0,swordfish_05s.jpg,0.0,clock_6_3.png,5.0,4,,,,,,,,,,,,,,,,,,,,,,,,,,,,,,,,
0.0,1.0,0.64646,0.0,26.0,26.0,26.0,1.0,snowman_02s.jpg,0.0,clock_6_4.png,5.0,4,,,,,,,,,,,,,,,,,,,,,,,,,,,,,,,,
1.0,1.0,0.73128,0.0,27.0,27.0,27.0,1.0,snowman_02s.jpg,1.0,clock_6_5.png,5.0,4,,,,,,,,,,,,,,,,,,,,,,,,,,,,,,,,
1.0,1.0,1.15388,0.0,28.0,28.0,28.0,1.0,swordfish_05s.jpg,1.0,clock_6_6.png,5.0,4,,,,,,,,,,,,,,,,,,,,,,,,,,,,,,,,
0.0,1.0,0.57828,0.0,29.0,29.0,29.0,1.0,kayak_08s.jpg,0.0,clock_7_1.png,6.0,4,,,,,,,,,,,,,,,,,,,,,,,,,,,,,,,,
0.0,1.0,0.7462,0.0,30.0,30.0,30.0,1.0,emerald_02s.jpg,0.0,clock_7_2.png,6.0,4,,,,,,,,,,,,,,,,,,,,,,,,,,,,,,,,
0.0,1.0,0.734675,0.0,31.0,31.0,31.0,1.0,fireworks_18s.jpg,0.0,clock_7_3.png,6.0,4,,,,,,,,,,,,,,,,,,,,,,,,,,,,,,,,
0.0,1.0,0.833215,0.0,32.0,32.0,32.0,1.0,lipstick_02s.jpg,0.0,clock_7_4.png,6.0,4,,,,,,,,,,,,,,,,,,,,,,,,,,,,,,,,
1.0,1.0,0.87904,0.0,33.0,33.0,33.0,1.0,fireworks_18s.jpg,1.0,clock_7_5.png,6.0,4,,,,,,,,,,,,,,,,,,,,,,,,,,,,,,,,
1.0,1.0,1.431875,0.0,34.0,34.0,34.0,1.0,kayak_08s.jpg,1.0,clock_7_6.png,6.0,4,,,,,,,,,,,,,,,,,,,,,,,,,,,,,,,,
0.0,1.0,1.46803,0.0,35.0,35.0,35.0,1.0,stump_02s.jpg,0.0,clock_7_7.png,6.0,4,,,,,,,,,,,,,,,,,,,,,,,,,,,,,,,,
,,,,,,,,,0.0,,,4,0.0,1.0,2.277545,0.0,0.0,0.0,0.0,1.0,letter_opener_03s.jpg,tongs_08s.jpg,,,,,,,,,,,,,,,,,,,,,,
,,,,,,,,,1.0,,,4,1.0,1.0,1.612275,0.0,1.0,1.0,1.0,1.0,boar_10s.jpg,bacon_05s.jpg,,,,,,,,,,,,,,,,,,,,,,
,,,,,,,,,1.0,,,4,1.0,1.0,2.041275,0.0,2.0,2.0,2.0,1.0,red_carpet_03s.jpg,kimono_13s.jpg,,,,,,,,,,,,,,,,,,,,,,
,,,,,,,,,0.0,,,4,1.0,0.0,2.79655,0.0,3.0,3.0,3.0,1.0,orange_12s.jpg,omelet_07s.jpg,,,,,,,,,,,,,,,,,,,,,,
,,,,,,,,,0.0,,,4,0.0,1.0,2.46243,0.0,4.0,4.0,4.0,1.0,marker_05s.jpg,fountain_pen_06s.jpg,,,,,,,,,,,,,,,,,,,,,,
,,,,,,,,,0.0,,,4,0.0,1.0,1.4744,0.0,5.0,5.0,5.0,1.0,stump_02s.jpg,lipstick_02s.jpg,,,,,,,,,,,,,,,,,,,,,,
,,,,,,,,,,,,4,,,,,,,,,,,0.0,2.0,2.0,2.0,1.0,clock_present_3_15.xlsx,clock_compare_task_3_15.xlsx,,,,,,,,,,,,,,,
0.0,1.0,1.369645,0.0,0.0,0.0,0.0,1.0,refrigerator_07s.jpg,0.0,clock_6_1.png,1.0,4,,,,,,,,,,,,,,,,,,,,,,,,,,,,,,,,
0.0,1.0,1.37033,0.0,1.0,1.0,1.0,1.0,pencil02a.jpg,0.0,clock_6_2.png,1.0,4,,,,,,,,,,,,,,,,,,,,,,,,,,,,,,,,
0.0,1.0,0.985125,0.0,2.0,2.0,2.0,1.0,crystal_ball_12s.jpg,0.0,clock_6_3.png,1.0,4,,,,,,,,,,,,,,,,,,,,,,,,,,,,,,,,
0.0,1.0,1.029155,0.0,3.0,3.0,3.0,1.0,compass_10n.jpg,0.0,clock_6_4.png,1.0,4,,,,,,,,,,,,,,,,,,,,,,,,,,,,,,,,
0.0,1.0,0.8367,0.0,4.0,4.0,4.0,1.0,kilt_18s.jpg,0.0,clock_6_5.png,1.0,4,,,,,,,,,,,,,,,,,,,,,,,,,,,,,,,,
0.0,1.0,1.160325,0.0,5.0,5.0,5.0,1.0,coat_rack_01b.jpg,0.0,clock_6_6.png,1.0,4,,,,,,,,,,,,,,,,,,,,,,,,,,,,,,,,
0.0,1.0,0.734205,0.0,6.0,6.0,6.0,1.0,prism_10s.jpg,0.0,clock_5_1.png,2.0,4,,,,,,,,,,,,,,,,,,,,,,,,,,,,,,,,
1.0,1.0,0.71262,0.0,7.0,7.0,7.0,1.0,prism_10s.jpg,1.0,clock_5_2.png,2.0,4,,,,,,,,,,,,,,,,,,,,,,,,,,,,,,,,
0.0,1.0,0.48862,0.0,8.0,8.0,8.0,1.0,purse_05s.jpg,0.0,clock_5_3.png,2.0,4,,,,,,,,,,,,,,,,,,,,,,,,,,,,,,,,
0.0,1.0,1.16925,0.0,9.0,9.0,9.0,1.0,refrigerator_07s.jpg,0.0,clock_5_4.png,2.0,4,,,,,,,,,,,,,,,,,,,,,,,,,,,,,,,,
0.0,1.0,1.026305,0.0,10.0,10.0,10.0,1.0,lamb_04s.jpg,0.0,clock_5_5.png,2.0,4,,,,,,,,,,,,,,,,,,,,,,,,,,,,,,,,
0.0,1.0,1.13476,0.0,11.0,11.0,11.0,1.0,leotard_08s.jpg,0.0,clock_6_1.png,3.0,4,,,,,,,,,,,,,,,,,,,,,,,,,,,,,,,,
0.0,1.0,0.65078,0.0,12.0,12.0,12.0,1.0,lavender_10s.jpg,0.0,clock_6_2.png,3.0,4,,,,,,,,,,,,,,,,,,,,,,,,,,,,,,,,
0.0,1.0,0.772235,0.0,13.0,13.0,13.0,1.0,bean_06s.jpg,0.0,clock_6_3.png,3.0,4,,,,,,,,,,,,,,,,,,,,,,,,,,,,,,,,
0.0,1.0,1.06199,0.0,14.0,14.0,14.0,1.0,puddle_02s.jpg,0.0,clock_6_4.png,3.0,4,,,,,,,,,,,,,,,,,,,,,,,,,,,,,,,,
0.0,1.0,1.08033,0.0,15.0,15.0,15.0,1.0,pencil02a.jpg,0.0,clock_6_5.png,3.0,4,,,,,,,,,,,,,,,,,,,,,,,,,,,,,,,,
0.0,1.0,1.28597,0.0,16.0,16.0,16.0,1.0,medal_04s.jpg,0.0,clock_6_6.png,3.0,4,,,,,,,,,,,,,,,,,,,,,,,,,,,,,,,,
0.0,1.0,1.09317,0.0,17.0,17.0,17.0,1.0,lion_18s.jpg,0.0,clock_7_1.png,4.0,4,,,,,,,,,,,,,,,,,,,,,,,,,,,,,,,,
0.0,1.0,1.06421,0.0,18.0,18.0,18.0,1.0,treadmill_06s.jpg,0.0,clock_7_2.png,4.0,4,,,,,,,,,,,,,,,,,,,,,,,,,,,,,,,,
0.0,1.0,1.00475,0.0,19.0,19.0,19.0,1.0,mold2_04s.jpg,0.0,clock_7_3.png,4.0,4,,,,,,,,,,,,,,,,,,,,,,,,,,,,,,,,
0.0,1.0,0.825345,0.0,20.0,20.0,20.0,1.0,pan_02s.jpg,0.0,clock_7_4.png,4.0,4,,,,,,,,,,,,,,,,,,,,,,,,,,,,,,,,
0.0,1.0,0.893105,0.0,21.0,21.0,21.0,1.0,reindeer_08s.jpg,0.0,clock_7_5.png,4.0,4,,,,,,,,,,,,,,,,,,,,,,,,,,,,,,,,
0.0,1.0,0.647985,0.0,22.0,22.0,22.0,1.0,top_hat_11s.jpg,0.0,clock_7_6.png,4.0,4,,,,,,,,,,,,,,,,,,,,,,,,,,,,,,,,
1.0,1.0,1.20495,0.0,23.0,23.0,23.0,1.0,treadmill_06s.jpg,1.0,clock_7_7.png,4.0,4,,,,,,,,,,,,,,,,,,,,,,,,,,,,,,,,
0.0,1.0,0.9268,0.0,24.0,24.0,24.0,1.0,sea_urchin_09s.jpg,0.0,clock_7_1.png,5.0,4,,,,,,,,,,,,,,,,,,,,,,,,,,,,,,,,
0.0,1.0,0.919385,0.0,25.0,25.0,25.0,1.0,breadstick_08s.jpg,0.0,clock_7_2.png,5.0,4,,,,,,,,,,,,,,,,,,,,,,,,,,,,,,,,
0.0,1.0,0.97532,0.0,26.0,26.0,26.0,1.0,rabbit_03s.jpg,0.0,clock_7_3.png,5.0,4,,,,,,,,,,,,,,,,,,,,,,,,,,,,,,,,
1.0,1.0,1.014655,0.0,27.0,27.0,27.0,1.0,sea_urchin_09s.jpg,1.0,clock_7_4.png,5.0,4,,,,,,,,,,,,,,,,,,,,,,,,,,,,,,,,
1.0,1.0,0.945555,0.0,28.0,28.0,28.0,1.0,sea_urchin_09s.jpg,1.0,clock_7_5.png,5.0,4,,,,,,,,,,,,,,,,,,,,,,,,,,,,,,,,
0.0,1.0,0.9464,0.0,29.0,29.0,29.0,1.0,bee_20s.jpg,0.0,clock_7_6.png,5.0,4,,,,,,,,,,,,,,,,,,,,,,,,,,,,,,,,
1.0,1.0,0.98247,0.0,30.0,30.0,30.0,1.0,sea_urchin_09s.jpg,1.0,clock_7_7.png,5.0,4,,,,,,,,,,,,,,,,,,,,,,,,,,,,,,,,
0.0,1.0,1.060315,0.0,31.0,31.0,31.0,1.0,pantyhose_07s.jpg,0.0,clock_5_1.png,6.0,4,,,,,,,,,,,,,,,,,,,,,,,,,,,,,,,,
1.0,1.0,1.00616,0.0,32.0,32.0,32.0,1.0,pantyhose_07s.jpg,1.0,clock_5_2.png,6.0,4,,,,,,,,,,,,,,,,,,,,,,,,,,,,,,,,
0.0,1.0,1.013395,0.0,33.0,33.0,33.0,1.0,birthday_cake_09s.jpg,0.0,clock_5_3.png,6.0,4,,,,,,,,,,,,,,,,,,,,,,,,,,,,,,,,
0.0,1.0,1.06921,0.0,34.0,34.0,34.0,1.0,rooster_03s.jpg,0.0,clock_5_4.png,6.0,4,,,,,,,,,,,,,,,,,,,,,,,,,,,,,,,,
1.0,1.0,0.86501,0.0,35.0,35.0,35.0,1.0,rooster_03s.jpg,1.0,clock_5_5.png,6.0,4,,,,,,,,,,,,,,,,,,,,,,,,,,,,,,,,
,,,,,,,,,0.0,,,4,1.0,0.0,1.76779,0.0,0.0,0.0,0.0,1.0,purse_05s.jpg,coat_rack_01b.jpg,,,,,,,,,,,,,,,,,,,,,,
,,,,,,,,,0.0,,,4,1.0,0.0,2.962085,0.0,1.0,1.0,1.0,1.0,bean_06s.jpg,lamb_04s.jpg,,,,,,,,,,,,,,,,,,,,,,
,,,,,,,,,1.0,,,4,0.0,0.0,1.575615,0.0,2.0,2.0,2.0,1.0,top_hat_11s.jpg,breadstick_08s.jpg,,,,,,,,,,,,,,,,,,,,,,
,,,,,,,,,1.0,,,4,0.0,0.0,1.424915,0.0,3.0,3.0,3.0,1.0,rabbit_03s.jpg,bee_20s.jpg,,,,,,,,,,,,,,,,,,,,,,
,,,,,,,,,0.0,,,4,0.0,1.0,1.281335,0.0,4.0,4.0,4.0,1.0,pan_02s.jpg,lion_18s.jpg,,,,,,,,,,,,,,,,,,,,,,
,,,,,,,,,0.0,,,4,0.0,1.0,1.205095,0.0,5.0,5.0,5.0,1.0,puddle_02s.jpg,leotard_08s.jpg,,,,,,,,,,,,,,,,,,,,,,
,,,,,,,,,,,,4,,,,,,,,,,,0.0,3.0,3.0,3.0,1.0,clock_present_4_15.xlsx,clock_compare_task_4_15.xlsx,,,,,,,,,,,,,,,
0.0,1.0,1.04564,0.0,0.0,0.0,0.0,1.0,bowler_hat_10s.jpg,0.0,clock_7_1.png,1.0,4,,,,,,,,,,,,,,,,,,,,,,,,,,,,,,,,
0.0,1.0,1.76822,0.0,1.0,1.0,1.0,1.0,denture_03s.jpg,0.0,clock_7_2.png,1.0,4,,,,,,,,,,,,,,,,,,,,,,,,,,,,,,,,
0.0,1.0,1.443995,0.0,2.0,2.0,2.0,1.0,road_sign_05s.jpg,0.0,clock_7_3.png,1.0,4,,,,,,,,,,,,,,,,,,,,,,,,,,,,,,,,
1.0,1.0,0.85278,0.0,3.0,3.0,3.0,1.0,road_sign_05s.jpg,1.0,clock_7_4.png,1.0,4,,,,,,,,,,,,,,,,,,,,,,,,,,,,,,,,
0.0,1.0,0.829625,0.0,4.0,4.0,4.0,1.0,keyboard_05s.jpg,0.0,clock_7_5.png,1.0,4,,,,,,,,,,,,,,,,,,,,,,,,,,,,,,,,
1.0,1.0,0.79998,0.0,5.0,5.0,5.0,1.0,keyboard_05s.jpg,1.0,clock_7_6.png,1.0,4,,,,,,,,,,,,,,,,,,,,,,,,,,,,,,,,
0.0,1.0,0.934685,0.0,6.0,6.0,6.0,1.0,pinwheel_06s.jpg,0.0,clock_7_7.png,1.0,4,,,,,,,,,,,,,,,,,,,,,,,,,,,,,,,,
0.0,1.0,0.930055,0.0,7.0,7.0,7.0,1.0,giraffe_11s.jpg,0.0,clock_6_1.png,2.0,4,,,,,,,,,,,,,,,,,,,,,,,,,,,,,,,,
0.0,1.0,0.976635,0.0,8.0,8.0,8.0,1.0,scooter.jpg,0.0,clock_6_2.png,2.0,4,,,,,,,,,,,,,,,,,,,,,,,,,,,,,,,,
0.0,1.0,0.796465,0.0,9.0,9.0,9.0,1.0,turkey_10s.jpg,0.0,clock_6_3.png,2.0,4,,,,,,,,,,,,,,,,,,,,,,,,,,,,,,,,
0.0,1.0,1.36909,0.0,10.0,10.0,10.0,1.0,bubble_01b.jpg,0.0,clock_6_4.png,2.0,4,,,,,,,,,,,,,,,,,,,,,,,,,,,,,,,,
0.0,1.0,0.935775,0.0,11.0,11.0,11.0,1.0,mixer_12s.jpg,0.0,clock_6_5.png,2.0,4,,,,,,,,,,,,,,,,,,,,,,,,,,,,,,,,
0.0,1.0,0.928135,0.0,12.0,12.0,12.0,1.0,gear_07s.jpg,0.0,clock_6_6.png,2.0,4,,,,,,,,,,,,,,,,,,,,,,,,,,,,,,,,
0.0,1.0,0.84114,0.0,13.0,13.0,13.0,1.0,mannequin_05s.jpg,0.0,clock_6_1.png,3.0,4,,,,,,,,,,,,,,,,,,,,,,,,,,,,,,,,
0.0,1.0,0.726215,0.0,14.0,14.0,14.0,1.0,cap_05s.jpg,0.0,clock_6_2.png,3.0,4,,,,,,,,,,,,,,,,,,,,,,,,,,,,,,,,
0.0,1.0,1.0117,0.0,15.0,15.0,15.0,1.0,gazelle_10s.jpg,0.0,clock_6_3.png,3.0,4,,,,,,,,,,,,,,,,,,,,,,,,,,,,,,,,
1.0,1.0,0.872805,0.0,16.0,16.0,16.0,1.0,gazelle_10s.jpg,1.0,clock_6_4.png,3.0,4,,,,,,,,,,,,,,,,,,,,,,,,,,,,,,,,
0.0,1.0,1.182645,0.0,17.0,17.0,17.0,1.0,projector_08s.jpg,0.0,clock_6_5.png,3.0,4,,,,,,,,,,,,,,,,,,,,,,,,,,,,,,,,
1.0,1.0,1.981365,0.0,18.0,18.0,18.0,1.0,mannequin_05s.jpg,1.0,clock_6_6.png,3.0,4,,,,,,,,,,,,,,,,,,,,,,,,,,,,,,,,
0.0,1.0,0.72071,0.0,19.0,19.0,19.0,1.0,fishhook_06s.jpg,0.0,clock_5_1.png,4.0,4,,,,,,,,,,,,,,,,,,,,,,,,,,,,,,,,
0.0,1.0,0.677175,0.0,20.0,20.0,20.0,1.0,buoy_04s.jpg,0.0,clock_5_2.png,4.0,4,,,,,,,,,,,,,,,,,,,,,,,,,,,,,,,,
0.0,1.0,0.70201,0.0,21.0,21.0,21.0,1.0,ant_12s.jpg,0.0,clock_5_3.png,4.0,4,,,,,,,,,,,,,,,,,,,,,,,,,,,,,,,,
0.0,1.0,0.726915,0.0,22.0,22.0,22.0,1.0,tab_09s.jpg,0.0,clock_5_4.png,4.0,4,,,,,,,,,,,,,,,,,,,,,,,,,,,,,,,,
0.0,1.0,0.881555,0.0,23.0,23.0,23.0,1.0,footprint_11s.jpg,0.0,clock_5_5.png,4.0,4,,,,,,,,,,,,,,,,,,,,,,,,,,,,,,,,
0.0,1.0,0.76028,0.0,24.0,24.0,24.0,1.0,blazer_02s.jpg,0.0,clock_7_1.png,5.0,4,,,,,,,,,,,,,,,,,,,,,,,,,,,,,,,,
0.0,1.0,0.76093,0.0,25.0,25.0,25.0,1.0,eyedropper_12s.jpg,0.0,clock_7_2.png,5.0,4,,,,,,,,,,,,,,,,,,,,,,,,,,,,,,,,
0.0,1.0,0.98822,0.0,26.0,26.0,26.0,1.0,bowler_hat_10s.jpg,0.0,clock_7_3.png,5.0,4,,,,,,,,,,,,,,,,,,,,,,,,,,,,,,,,
1.0,1.0,0.99394,0.0,27.0,27.0,27.0,1.0,eyedropper_12s.jpg,1.0,clock_7_4.png,5.0,4,,,,,,,,,,,,,,,,,,,,,,,,,,,,,,,,
0.0,1.0,0.785735,0.0,28.0,28.0,28.0,1.0,incense_02s.jpg,0.0,clock_7_5.png,5.0,4,,,,,,,,,,,,,,,,,,,,,,,,,,,,,,,,
0.0,1.0,0.91157,0.0,29.0,29.0,29.0,1.0,loom_05s.jpg,0.0,clock_7_6.png,5.0,4,,,,,,,,,,,,,,,,,,,,,,,,,,,,,,,,
0.0,1.0,0.86963,0.0,30.0,30.0,30.0,1.0,cape_11s.jpg,0.0,clock_7_7.png,5.0,4,,,,,,,,,,,,,,,,,,,,,,,,,,,,,,,,
0.0,1.0,0.84622,0.0,31.0,31.0,31.0,1.0,coconut_08s.jpg,0.0,clock_5_1.png,6.0,4,,,,,,,,,,,,,,,,,,,,,,,,,,,,,,,,
0.0,1.0,1.103125,0.0,32.0,32.0,32.0,1.0,road_sign_05s.jpg,0.0,clock_5_2.png,6.0,4,,,,,,,,,,,,,,,,,,,,,,,,,,,,,,,,
0.0,1.0,1.3373,0.0,33.0,33.0,33.0,1.0,screwdriver02a.jpg,0.0,clock_5_3.png,6.0,4,,,,,,,,,,,,,,,,,,,,,,,,,,,,,,,,
0.0,1.0,0.978635,0.0,34.0,34.0,34.0,1.0,turnstile_08s.jpg,0.0,clock_5_4.png,6.0,4,,,,,,,,,,,,,,,,,,,,,,,,,,,,,,,,
0.0,1.0,1.118455,0.0,35.0,35.0,35.0,1.0,peppermint_07s.jpg,0.0,clock_5_5.png,6.0,4,,,,,,,,,,,,,,,,,,,,,,,,,,,,,,,,
,,,,,,,,,1.0,,,4,1.0,1.0,1.869665,0.0,0.0,0.0,0.0,1.0,ant_12s.jpg,blazer_02s.jpg,,,,,,,,,,,,,,,,,,,,,,
,,,,,,,,,1.0,,,4,1.0,1.0,1.947245,0.0,1.0,1.0,1.0,1.0,cape_11s.jpg,screwdriver02a.jpg,,,,,,,,,,,,,,,,,,,,,,
,,,,,,,,,1.0,,,4,1.0,1.0,2.1969,0.0,2.0,2.0,2.0,1.0,pinwheel_06s.jpg,turkey_10s.jpg,,,,,,,,,,,,,,,,,,,,,,
,,,,,,,,,1.0,,,4,0.0,0.0,1.52033,0.0,3.0,3.0,3.0,1.0,giraffe_11s.jpg,bubble_01b.jpg,,,,,,,,,,,,,,,,,,,,,,
,,,,,,,,,0.0,,,4,0.0,1.0,1.84596,0.0,4.0,4.0,4.0,1.0,tab_09s.jpg,fishhook_06s.jpg,,,,,,,,,,,,,,,,,,,,,,
,,,,,,,,,0.0,,,4,0.0,1.0,3.328955,0.0,5.0,5.0,5.0,1.0,mixer_12s.jpg,scooter.jpg,,,,,,,,,,,,,,,,,,,,,,
,,,,,,,,,,,,4,,,,,,,,,,,0.0,4.0,4.0,4.0,1.0,clock_present_5_15.xlsx,clock_compare_task_5_15.xlsx,,,,,,,,,,,,,,,
0.0,1.0,0.865975,0.0,0.0,0.0,0.0,1.0,glue_01s.jpg,0.0,clock_7_1.png,1.0,4,,,,,,,,,,,,,,,,,,,,,,,,,,,,,,,,
1.0,1.0,0.811575,0.0,1.0,1.0,1.0,1.0,glue_01s.jpg,1.0,clock_7_2.png,1.0,4,,,,,,,,,,,,,,,,,,,,,,,,,,,,,,,,
0.0,1.0,0.47986,0.0,2.0,2.0,2.0,1.0,tape_06s.jpg,0.0,clock_7_3.png,1.0,4,,,,,,,,,,,,,,,,,,,,,,,,,,,,,,,,
1.0,1.0,1.021685,0.0,3.0,3.0,3.0,1.0,glue_01s.jpg,1.0,clock_7_4.png,1.0,4,,,,,,,,,,,,,,,,,,,,,,,,,,,,,,,,
1.0,1.0,1.669775,0.0,4.0,4.0,4.0,1.0,glue_01s.jpg,1.0,clock_7_5.png,1.0,4,,,,,,,,,,,,,,,,,,,,,,,,,,,,,,,,
0.0,1.0,0.96347,0.0,5.0,5.0,5.0,1.0,powder_07s.jpg,0.0,clock_7_6.png,1.0,4,,,,,,,,,,,,,,,,,,,,,,,,,,,,,,,,
0.0,1.0,0.79344,0.0,6.0,6.0,6.0,1.0,swan_11s.jpg,0.0,clock_7_7.png,1.0,4,,,,,,,,,,,,,,,,,,,,,,,,,,,,,,,,
0.0,1.0,0.999705,0.0,7.0,7.0,7.0,1.0,badge_03s.jpg,0.0,clock_5_1.png,2.0,4,,,,,,,,,,,,,,,,,,,,,,,,,,,,,,,,
0.0,1.0,0.977085,0.0,8.0,8.0,8.0,1.0,turf_03s.jpg,0.0,clock_5_2.png,2.0,4,,,,,,,,,,,,,,,,,,,,,,,,,,,,,,,,
0.0,1.0,0.78459,0.0,9.0,9.0,9.0,1.0,stapler_01b.jpg,0.0,clock_5_3.png,2.0,4,,,,,,,,,,,,,,,,,,,,,,,,,,,,,,,,
0.0,1.0,0.918535,0.0,10.0,10.0,10.0,1.0,taxi_15s.jpg,0.0,clock_5_4.png,2.0,4,,,,,,,,,,,,,,,,,,,,,,,,,,,,,,,,
1.0,1.0,0.962885,0.0,11.0,11.0,11.0,1.0,turf_03s.jpg,1.0,clock_5_5.png,2.0,4,,,,,,,,,,,,,,,,,,,,,,,,,,,,,,,,
0.0,1.0,0.40711,0.0,12.0,12.0,12.0,1.0,turtleneck_11s.jpg,0.0,clock_5_1.png,3.0,4,,,,,,,,,,,,,,,,,,,,,,,,,,,,,,,,
0.0,1.0,0.62259,0.0,13.0,13.0,13.0,1.0,safety_pin_02s.jpg,0.0,clock_5_2.png,3.0,4,,,,,,,,,,,,,,,,,,,,,,,,,,,,,,,,
0.0,1.0,1.113405,0.0,14.0,14.0,14.0,1.0,powder_07s.jpg,0.0,clock_5_3.png,3.0,4,,,,,,,,,,,,,,,,,,,,,,,,,,,,,,,,
0.0,1.0,0.873005,0.0,15.0,15.0,15.0,1.0,lizard_10n.jpg,0.0,clock_5_4.png,3.0,4,,,,,,,,,,,,,,,,,,,,,,,,,,,,,,,,
0.0,1.0,0.758795,0.0,16.0,16.0,16.0,1.0,crate_05s.jpg,0.0,clock_5_5.png,3.0,4,,,,,,,,,,,,,,,,,,,,,,,,,,,,,,,,
0.0,1.0,0.530545,0.0,17.0,17.0,17.0,1.0,tablet_04s.jpg,0.0,clock_7_1.png,4.0,4,,,,,,,,,,,,,,,,,,,,,,,,,,,,,,,,
0.0,1.0,0.460505,0.0,18.0,18.0,18.0,1.0,rudder_02s.jpg,0.0,clock_7_2.png,4.0,4,,,,,,,,,,,,,,,,,,,,,,,,,,,,,,,,
0.0,1.0,0.98841,0.0,19.0,19.0,19.0,1.0,lizard_10n.jpg,0.0,clock_7_3.png,4.0,4,,,,,,,,,,,,,,,,,,,,,,,,,,,,,,,,
0.0,1.0,0.764555,0.0,20.0,20.0,20.0,1.0,limousine_12s.jpg,0.0,clock_7_4.png,4.0,4,,,,,,,,,,,,,,,,,,,,,,,,,,,,,,,,
0.0,1.0,0.826405,0.0,21.0,21.0,21.0,1.0,sleeping_bag_12s.jpg,0.0,clock_7_5.png,4.0,4,,,,,,,,,,,,,,,,,,,,,,,,,,,,,,,,
0.0,1.0,0.668345,0.0,22.0,22.0,22.0,1.0,tennis_ball_06s.jpg,0.0,clock_7_6.png,4.0,4,,,,,,,,,,,,,,,,,,,,,,,,,,,,,,,,
0.0,1.0,0.92337,0.0,23.0,23.0,23.0,1.0,pea_11s.jpg,0.0,clock_7_7.png,4.0,4,,,,,,,,,,,,,,,,,,,,,,,,,,,,,,,,
0.0,1.0,0.77502,0.0,24.0,24.0,24.0,1.0,tile_08s.jpg,0.0,clock_6_1.png,5.0,4,,,,,,,,,,,,,,,,,,,,,,,,,,,,,,,,
0.0,1.0,0.58059,0.0,25.0,25.0,25.0,1.0,paper_bag_12s.jpg,0.0,clock_6_2.png,5.0,4,,,,,,,,,,,,,,,,,,,,,,,,,,,,,,,,
0.0,1.0,0.72542,0.0,26.0,26.0,26.0,1.0,umbrella_15s.jpg,0.0,clock_6_3.png,5.0,4,,,,,,,,,,,,,,,,,,,,,,,,,,,,,,,,
1.0,1.0,0.91936,0.0,27.0,27.0,27.0,1.0,umbrella_15s.jpg,1.0,clock_6_4.png,5.0,4,,,,,,,,,,,,,,,,,,,,,,,,,,,,,,,,
0.0,1.0,0.768055,0.0,28.0,28.0,28.0,1.0,bank_06s.jpg,0.0,clock_6_5.png,5.0,4,,,,,,,,,,,,,,,,,,,,,,,,,,,,,,,,
1.0,1.0,0.820475,0.0,29.0,29.0,29.0,1.0,bank_06s.jpg,1.0,clock_6_6.png,5.0,4,,,,,,,,,,,,,,,,,,,,,,,,,,,,,,,,
0.0,1.0,1.21364,0.0,30.0,30.0,30.0,1.0,crayon_09s.jpg,0.0,clock_6_1.png,6.0,4,,,,,,,,,,,,,,,,,,,,,,,,,,,,,,,,
0.0,1.0,0.90298,0.0,31.0,31.0,31.0,1.0,amber_04s.jpg,0.0,clock_6_2.png,6.0,4,,,,,,,,,,,,,,,,,,,,,,,,,,,,,,,,
0.0,1.0,0.885195,0.0,32.0,32.0,32.0,1.0,towel_rack_04s.jpg,0.0,clock_6_3.png,6.0,4,,,,,,,,,,,,,,,,,,,,,,,,,,,,,,,,
0.0,1.0,0.788795,0.0,33.0,33.0,33.0,1.0,puck_06s.jpg,0.0,clock_6_4.png,6.0,4,,,,,,,,,,,,,,,,,,,,,,,,,,,,,,,,
0.0,1.0,0.798185,0.0,34.0,34.0,34.0,1.0,iron_13s.jpg,0.0,clock_6_5.png,6.0,4,,,,,,,,,,,,,,,,,,,,,,,,,,,,,,,,
0.0,1.0,0.88855,0.0,35.0,35.0,35.0,1.0,rocking_chair_05s.jpg,0.0,clock_6_6.png,6.0,4,,,,,,,,,,,,,,,,,,,,,,,,,,,,,,,,
,,,,,,,,,0.0,,,4,0.0,1.0,2.701365,0.0,0.0,0.0,0.0,1.0,stapler_01b.jpg,swan_11s.jpg,,,,,,,,,,,,,,,,,,,,,,
,,,,,,,,,1.0,,,4,0.0,0.0,1.92865,0.0,1.0,1.0,1.0,1.0,tennis_ball_06s.jpg,paper_bag_12s.jpg,,,,,,,,,,,,,,,,,,,,,,
,,,,,,,,,0.0,,,4,1.0,0.0,2.347485,0.0,2.0,2.0,2.0,1.0,tile_08s.jpg,sleeping_bag_12s.jpg,,,,,,,,,,,,,,,,,,,,,,
,,,,,,,,,1.0,,,4,1.0,1.0,1.34656,0.0,3.0,3.0,3.0,1.0,tablet_04s.jpg,limousine_12s.jpg,,,,,,,,,,,,,,,,,,,,,,
,,,,,,,,,1.0,,,4,1.0,1.0,1.445775,0.0,4.0,4.0,4.0,1.0,crayon_09s.jpg,puck_06s.jpg,,,,,,,,,,,,,,,,,,,,,,
,,,,,,,,,1.0,,,4,1.0,1.0,1.48202,0.0,5.0,5.0,5.0,1.0,amber_04s.jpg,iron_13s.jpg,,,,,,,,,,,,,,,,,,,,,,
0.0,1.0,1.26924,,,,,,lasagna_06s.jpg,0.0,clockno_up.jpg,1.0,4,,,,,,,,,,,,,,,,,,0.0,0.0,0.0,0.0,1.0,,,,,,,,,,
0.0,1.0,1.084565,,,,,,kitten_07s.jpg,0.0,clockno_default.jpg,1.0,4,,,,,,,,,,,,,,,,,,0.0,1.0,1.0,1.0,1.0,,,,,,,,,,
0.0,1.0,0.86702,,,,,,dashboard_02s.jpg,0.0,clockno_default.jpg,1.0,4,,,,,,,,,,,,,,,,,,0.0,2.0,2.0,2.0,1.0,,,,,,,,,,
0.0,1.0,1.56694,,,,,,tattoo_14s.jpg,0.0,clockno_default.jpg,1.0,4,,,,,,,,,,,,,,,,,,0.0,3.0,3.0,3.0,1.0,,,,,,,,,,
0.0,1.0,1.252685,,,,,,razor_12s.jpg,0.0,clockno_default.jpg,1.0,4,,,,,,,,,,,,,,,,,,0.0,4.0,4.0,4.0,1.0,,,,,,,,,,
0.0,1.0,0.93379,,,,,,pumpkin_03s.jpg,0.0,clockno_default.jpg,1.0,4,,,,,,,,,,,,,,,,,,0.0,5.0,5.0,5.0,1.0,,,,,,,,,,
0.0,1.0,0.761435,,,,,,doily_13s.jpg,0.0,clockno_default.jpg,1.0,4,,,,,,,,,,,,,,,,,,0.0,6.0,6.0,6.0,1.0,,,,,,,,,,
0.0,1.0,1.280825,,,,,,lollipop_08s.jpg,0.0,clockno_up.jpg,2.0,4,,,,,,,,,,,,,,,,,,0.0,7.0,7.0,7.0,1.0,,,,,,,,,,
0.0,1.0,1.07916,,,,,,measuring_cup_02s.jpg,0.0,clockno_default.jpg,2.0,4,,,,,,,,,,,,,,,,,,0.0,8.0,8.0,8.0,1.0,,,,,,,,,,
0.0,1.0,0.44552,,,,,,puffin_19s.jpg,0.0,clockno_default.jpg,2.0,4,,,,,,,,,,,,,,,,,,0.0,9.0,9.0,9.0,1.0,,,,,,,,,,
0.0,1.0,0.61123,,,,,,ukulele_02s.jpg,0.0,clockno_default.jpg,2.0,4,,,,,,,,,,,,,,,,,,0.0,10.0,10.0,10.0,1.0,,,,,,,,,,
0.0,1.0,1.12251,,,,,,plunger_08s.jpg,0.0,clockno_default.jpg,2.0,4,,,,,,,,,,,,,,,,,,0.0,11.0,11.0,11.0,1.0,,,,,,,,,,
1.0,1.0,0.72384,,,,,,plunger_08s.jpg,1.0,clockno_default.jpg,2.0,4,,,,,,,,,,,,,,,,,,0.0,12.0,12.0,12.0,1.0,,,,,,,,,,
0.0,1.0,1.162775,,,,,,tupperware_09s.jpg,0.0,clockno_up.jpg,3.0,4,,,,,,,,,,,,,,,,,,0.0,13.0,13.0,13.0,1.0,,,,,,,,,,
1.0,1.0,0.59402,,,,,,tupperware_09s.jpg,1.0,clockno_default.jpg,3.0,4,,,,,,,,,,,,,,,,,,0.0,14.0,14.0,14.0,1.0,,,,,,,,,,
0.0,1.0,1.351355,,,,,,puffin_19s.jpg,0.0,clockno_default.jpg,3.0,4,,,,,,,,,,,,,,,,,,0.0,15.0,15.0,15.0,1.0,,,,,,,,,,
1.0,1.0,1.11074,,,,,,tupperware_09s.jpg,1.0,clockno_default.jpg,3.0,4,,,,,,,,,,,,,,,,,,0.0,16.0,16.0,16.0,1.0,,,,,,,,,,
0.0,1.0,0.657895,,,,,,thread_08s.jpg,0.0,clockno_default.jpg,3.0,4,,,,,,,,,,,,,,,,,,0.0,17.0,17.0,17.0,1.0,,,,,,,,,,
0.0,1.0,0.683675,,,,,,knot_01b.jpg,0.0,clockno_default.jpg,3.0,4,,,,,,,,,,,,,,,,,,0.0,18.0,18.0,18.0,1.0,,,,,,,,,,
0.0,1.0,0.975515,,,,,,tulip_02s.jpg,0.0,clockno_up.jpg,4.0,4,,,,,,,,,,,,,,,,,,0.0,19.0,19.0,19.0,1.0,,,,,,,,,,
0.0,1.0,0.585,,,,,,oil_02s.jpg,0.0,clockno_default.jpg,4.0,4,,,,,,,,,,,,,,,,,,0.0,20.0,20.0,20.0,1.0,,,,,,,,,,
0.0,1.0,0.850815,,,,,,luggage_08s.jpg,0.0,clockno_default.jpg,4.0,4,,,,,,,,,,,,,,,,,,0.0,21.0,21.0,21.0,1.0,,,,,,,,,,
0.0,1.0,0.661695,,,,,,treasure_08s.jpg,0.0,clockno_default.jpg,4.0,4,,,,,,,,,,,,,,,,,,0.0,22.0,22.0,22.0,1.0,,,,,,,,,,
0.0,1.0,0.6095,,,,,,mango_09s.jpg,0.0,clockno_default.jpg,4.0,4,,,,,,,,,,,,,,,,,,0.0,23.0,23.0,23.0,1.0,,,,,,,,,,
0.0,1.0,0.6294,,,,,,printer_09s.jpg,0.0,clockno_default.jpg,4.0,4,,,,,,,,,,,,,,,,,,0.0,24.0,24.0,24.0,1.0,,,,,,,,,,
0.0,1.0,0.80881,,,,,,pump_11s.jpg,0.0,clockno_default.jpg,4.0,4,,,,,,,,,,,,,,,,,,0.0,25.0,25.0,25.0,1.0,,,,,,,,,,
0.0,1.0,0.73381,,,,,,sugar_cube_11s.jpg,0.0,clockno_up.jpg,5.0,4,,,,,,,,,,,,,,,,,,0.0,26.0,26.0,26.0,1.0,,,,,,,,,,
0.0,1.0,0.854855,,,,,,cotton_candy_01b.jpg,0.0,clockno_default.jpg,5.0,4,,,,,,,,,,,,,,,,,,0.0,27.0,27.0,27.0,1.0,,,,,,,,,,
0.0,1.0,0.957025,,,,,,treasure_08s.jpg,0.0,clockno_default.jpg,5.0,4,,,,,,,,,,,,,,,,,,0.0,28.0,28.0,28.0,1.0,,,,,,,,,,
1.0,1.0,1.437175,,,,,,cotton_candy_01b.jpg,1.0,clockno_default.jpg,5.0,4,,,,,,,,,,,,,,,,,,0.0,29.0,29.0,29.0,1.0,,,,,,,,,,
0.0,1.0,0.90314,,,,,,popsicle_02s.jpg,0.0,clockno_default.jpg,5.0,4,,,,,,,,,,,,,,,,,,0.0,30.0,30.0,30.0,1.0,,,,,,,,,,
0.0,1.0,0.751045,,,,,,polar_bear_02s.jpg,0.0,clockno_up.jpg,6.0,4,,,,,,,,,,,,,,,,,,0.0,31.0,31.0,31.0,1.0,,,,,,,,,,
0.0,1.0,0.82464,,,,,,leash_10s.jpg,0.0,clockno_default.jpg,6.0,4,,,,,,,,,,,,,,,,,,0.0,32.0,32.0,32.0,1.0,,,,,,,,,,
0.0,1.0,0.593335,,,,,,rocking_horse_03s.jpg,0.0,clockno_default.jpg,6.0,4,,,,,,,,,,,,,,,,,,0.0,33.0,33.0,33.0,1.0,,,,,,,,,,
1.0,1.0,0.935505,,,,,,leash_10s.jpg,1.0,clockno_default.jpg,6.0,4,,,,,,,,,,,,,,,,,,0.0,34.0,34.0,34.0,1.0,,,,,,,,,,
1.0,1.0,0.829035,,,,,,leash_10s.jpg,1.0,clockno_default.jpg,6.0,4,,,,,,,,,,,,,,,,,,0.0,35.0,35.0,35.0,1.0,,,,,,,,,,
,,,,,,,,,1.0,,,4,1.0,1.0,1.37726,,,,,,popsicle_02s.jpg,rocking_horse_03s.jpg,,,,,,,,,,,,,0.0,0.0,0.0,0.0,1.0,,,,,
,,,,,,,,,1.0,,,4,0.0,0.0,2.056915,,,,,,pumpkin_03s.jpg,measuring_cup_02s.jpg,,,,,,,,,,,,,0.0,1.0,1.0,1.0,1.0,,,,,
,,,,,,,,,1.0,,,4,0.0,0.0,2.03674,,,,,,thread_08s.jpg,oil_02s.jpg,,,,,,,,,,,,,0.0,2.0,2.0,2.0,1.0,,,,,
,,,,,,,,,1.0,,,4,1.0,1.0,1.61257,,,,,,lasagna_06s.jpg,tattoo_14s.jpg,,,,,,,,,,,,,0.0,3.0,3.0,3.0,1.0,,,,,
,,,,,,,,,1.0,,,4,1.0,1.0,2.29607,,,,,,kitten_07s.jpg,razor_12s.jpg,,,,,,,,,,,,,0.0,4.0,4.0,4.0,1.0,,,,,
,,,,,,,,,1.0,,,4,1.0,1.0,2.95821,,,,,,lollipop_08s.jpg,ukulele_02s.jpg,,,,,,,,,,,,,0.0,5.0,5.0,5.0,1.0,,,,,
,,,,,,,,,,,,4,,,,,,,,,,,,,,,,clockno_present_1_15.xlsx,clockno_compare_task_1_15.xlsx,,,,,,,,,,,0.0,0.0,0.0,0.0,1.0
0.0,1.0,0.83052,,,,,,teapot_03s.jpg,0.0,clockno_up.jpg,1.0,4,,,,,,,,,,,,,,,,,,0.0,0.0,0.0,0.0,1.0,,,,,,,,,,
0.0,1.0,0.64518,,,,,,ticktacktoe_08s.jpg,0.0,clockno_default.jpg,1.0,4,,,,,,,,,,,,,,,,,,0.0,1.0,1.0,1.0,1.0,,,,,,,,,,
0.0,1.0,0.66674,,,,,,espresso_01b.jpg,0.0,clockno_default.jpg,1.0,4,,,,,,,,,,,,,,,,,,0.0,2.0,2.0,2.0,1.0,,,,,,,,,,
0.0,1.0,0.74139,,,,,,smoothie_09s.jpg,0.0,clockno_default.jpg,1.0,4,,,,,,,,,,,,,,,,,,0.0,3.0,3.0,3.0,1.0,,,,,,,,,,
1.0,1.0,1.036455,,,,,,espresso_01b.jpg,1.0,clockno_default.jpg,1.0,4,,,,,,,,,,,,,,,,,,0.0,4.0,4.0,4.0,1.0,,,,,,,,,,
0.0,1.0,1.13873,,,,,,latte_06s.jpg,0.0,clockno_default.jpg,1.0,4,,,,,,,,,,,,,,,,,,0.0,5.0,5.0,5.0,1.0,,,,,,,,,,
1.0,1.0,1.061035,,,,,,smoothie_09s.jpg,1.0,clockno_default.jpg,1.0,4,,,,,,,,,,,,,,,,,,0.0,6.0,6.0,6.0,1.0,,,,,,,,,,
0.0,1.0,1.05132,,,,,,milk_02s.jpg,0.0,clockno_up.jpg,2.0,4,,,,,,,,,,,,,,,,,,0.0,7.0,7.0,7.0,1.0,,,,,,,,,,
0.0,1.0,1.01454,,,,,,teapot_03s.jpg,0.0,clockno_default.jpg,2.0,4,,,,,,,,,,,,,,,,,,0.0,8.0,8.0,8.0,1.0,,,,,,,,,,
0.0,1.0,0.767685,,,,,,koala_13s.jpg,0.0,clockno_default.jpg,2.0,4,,,,,,,,,,,,,,,,,,0.0,9.0,9.0,9.0,1.0,,,,,,,,,,
0.0,1.0,0.723045,,,,,,machete_06s.jpg,0.0,clockno_default.jpg,2.0,4,,,,,,,,,,,,,,,,,,0.0,10.0,10.0,10.0,1.0,,,,,,,,,,
0.0,0.0,1.40177,,,,,,teapot_03s.jpg,1.0,clockno_default.jpg,2.0,4,,,,,,,,,,,,,,,,,,0.0,11.0,11.0,11.0,1.0,,,,,,,,,,
0.0,1.0,1.15298,,,,,,mascara_03s.jpg,0.0,clockno_default.jpg,2.0,4,,,,,,,,,,,,,,,,,,0.0,12.0,12.0,12.0,1.0,,,,,,,,,,
0.0,1.0,1.029525,,,,,,hydrant_10s.jpg,0.0,clockno_up.jpg,3.0,4,,,,,,,,,,,,,,,,,,0.0,13.0,13.0,13.0,1.0,,,,,,,,,,
0.0,1.0,1.70338,,,,,,feather02.jpg,0.0,clockno_default.jpg,3.0,4,,,,,,,,,,,,,,,,,,0.0,14.0,14.0,14.0,1.0,,,,,,,,,,
0.0,1.0,1.18852,,,,,,fox_13s.jpg,0.0,clockno_default.jpg,3.0,4,,,,,,,,,,,,,,,,,,0.0,15.0,15.0,15.0,1.0,,,,,,,,,,
0.0,1.0,0.994425,,,,,,thermostat_02s.jpg,0.0,clockno_default.jpg,3.0,4,,,,,,,,,,,,,,,,,,0.0,16.0,16.0,16.0,1.0,,,,,,,,,,
0.0,1.0,0.72883,,,,,,possum_09s.jpg,0.0,clockno_default.jpg,3.0,4,,,,,,,,,,,,,,,,,,0.0,17.0,17.0,17.0,1.0,,,,,,,,,,
0.0,1.0,1.18458,,,,,,memory_stick_11s.jpg,0.0,clockno_up.jpg,4.0,4,,,,,,,,,,,,,,,,,,0.0,18.0,18.0,18.0,1.0,,,,,,,,,,
1.0,1.0,0.82748,,,,,,memory_stick_11s.jpg,1.0,clockno_default.jpg,4.0,4,,,,,,,,,,,,,,,,,,0.0,19.0,19.0,19.0,1.0,,,,,,,,,,
0.0,1.0,1.320125,,,,,,mascara_03s.jpg,0.0,clockno_default.jpg,4.0,4,,,,,,,,,,,,,,,,,,0.0,20.0,20.0,20.0,1.0,,,,,,,,,,
0.0,1.0,1.004495,,,,,,ice-cream_cone_06s.jpg,0.0,clockno_default.jpg,4.0,4,,,,,,,,,,,,,,,,,,0.0,21.0,21.0,21.0,1.0,,,,,,,,,,
0.0,1.0,1.170365,,,,,,cucumber_07s.jpg,0.0,clockno_default.jpg,4.0,4,,,,,,,,,,,,,,,,,,0.0,22.0,22.0,22.0,1.0,,,,,,,,,,
0.0,1.0,0.820575,,,,,,punch1_10s.jpg,0.0,clockno_default.jpg,4.0,4,,,,,,,,,,,,,,,,,,0.0,23.0,23.0,23.0,1.0,,,,,,,,,,
0.0,1.0,1.011065,,,,,,fondue_07s.jpg,0.0,clockno_up.jpg,5.0,4,,,,,,,,,,,,,,,,,,0.0,24.0,24.0,24.0,1.0,,,,,,,,,,
0.0,1.0,0.856395,,,,,,kangaroo_02s.jpg,0.0,clockno_default.jpg,5.0,4,,,,,,,,,,,,,,,,,,0.0,25.0,25.0,25.0,1.0,,,,,,,,,,
0.0,1.0,0.842625,,,,,,teacup_07s.jpg,0.0,clockno_default.jpg,5.0,4,,,,,,,,,,,,,,,,,,0.0,26.0,26.0,26.0,1.0,,,,,,,,,,
0.0,1.0,0.893195,,,,,,lid_10s.jpg,0.0,clockno_default.jpg,5.0,4,,,,,,,,,,,,,,,,,,0.0,27.0,27.0,27.0,1.0,,,,,,,,,,
0.0,1.0,0.835795,,,,,,pear_02s.jpg,0.0,clockno_default.jpg,5.0,4,,,,,,,,,,,,,,,,,,0.0,28.0,28.0,28.0,1.0,,,,,,,,,,
0.0,1.0,1.10998,,,,,,pacifier_09s.jpg,0.0,clockno_up.jpg,6.0,4,,,,,,,,,,,,,,,,,,0.0,29.0,29.0,29.0,1.0,,,,,,,,,,
0.0,1.0,0.859835,,,,,,raspberry_12s.jpg,0.0,clockno_default.jpg,6.0,4,,,,,,,,,,,,,,,,,,0.0,30.0,30.0,30.0,1.0,,,,,,,,,,
1.0,1.0,0.989715,,,,,,pacifier_09s.jpg,1.0,clockno_default.jpg,6.0,4,,,,,,,,,,,,,,,,,,0.0,31.0,31.0,31.0,1.0,,,,,,,,,,
1.0,1.0,1.134665,,,,,,raspberry_12s.jpg,1.0,clockno_default.jpg,6.0,4,,,,,,,,,,,,,,,,,,0.0,32.0,32.0,32.0,1.0,,,,,,,,,,
1.0,1.0,0.78811,,,,,,raspberry_12s.jpg,1.0,clockno_default.jpg,6.0,4,,,,,,,,,,,,,,,,,,0.0,33.0,33.0,33.0,1.0,,,,,,,,,,
1.0,1.0,0.952925,,,,,,pacifier_09s.jpg,1.0,clockno_default.jpg,6.0,4,,,,,,,,,,,,,,,,,,0.0,34.0,34.0,34.0,1.0,,,,,,,,,,
0.0,1.0,1.08576,,,,,,cereal_04s.jpg,0.0,clockno_default.jpg,6.0,4,,,,,,,,,,,,,,,,,,0.0,35.0,35.0,35.0,1.0,,,,,,,,,,
,,,,,,,,,0.0,,,4,1.0,0.0,1.749585,,,,,,teacup_07s.jpg,punch1_10s.jpg,,,,,,,,,,,,,0.0,0.0,0.0,0.0,1.0,,,,,
,,,,,,,,,1.0,,,4,1.0,1.0,3.27057,,,,,,ice-cream_cone_06s.jpg,fondue_07s.jpg,,,,,,,,,,,,,0.0,1.0,1.0,1.0,1.0,,,,,
,,,,,,,,,1.0,,,4,1.0,1.0,1.20256,,,,,,cucumber_07s.jpg,kangaroo_02s.jpg,,,,,,,,,,,,,0.0,2.0,2.0,2.0,1.0,,,,,
,,,,,,,,,0.0,,,4,1.0,0.0,1.88114,,,,,,possum_09s.jpg,feather02.jpg,,,,,,,,,,,,,0.0,3.0,3.0,3.0,1.0,,,,,
,,,,,,,,,1.0,,,4,0.0,0.0,1.611675,,,,,,milk_02s.jpg,machete_06s.jpg,,,,,,,,,,,,,0.0,4.0,4.0,4.0,1.0,,,,,
,,,,,,,,,1.0,,,4,0.0,0.0,1.90707,,,,,,hydrant_10s.jpg,thermostat_02s.jpg,,,,,,,,,,,,,0.0,5.0,5.0,5.0,1.0,,,,,
,,,,,,,,,,,,4,,,,,,,,,,,,,,,,clockno_present_2_15.xlsx,clockno_compare_task_2_15.xlsx,,,,,,,,,,,0.0,1.0,1.0,1.0,1.0
0.0,1.0,0.790315,,,,,,soda_fountain_03s.jpg,0.0,clock_5_1.png,1.0,4,,,,,,,,,,,,,,,,,,0.0,0.0,0.0,0.0,1.0,,,,,,,,,,
0.0,1.0,1.211715,,,,,,playpen_11s.jpg,0.0,clock_5_2.png,1.0,4,,,,,,,,,,,,,,,,,,0.0,1.0,1.0,1.0,1.0,,,,,,,,,,
0.0,1.0,1.38278,,,,,,spatula04.jpg,0.0,clock_5_3.png,1.0,4,,,,,,,,,,,,,,,,,,0.0,2.0,2.0,2.0,1.0,,,,,,,,,,
0.0,1.0,0.913275,,,,,,mitten_10s.jpg,0.0,clock_5_4.png,1.0,4,,,,,,,,,,,,,,,,,,0.0,3.0,3.0,3.0,1.0,,,,,,,,,,
1.0,1.0,0.96859,,,,,,playpen_11s.jpg,1.0,clock_5_5.png,1.0,4,,,,,,,,,,,,,,,,,,0.0,4.0,4.0,4.0,1.0,,,,,,,,,,
0.0,1.0,1.009745,,,,,,icemaker_10s.jpg,0.0,clock_7_1.png,2.0,4,,,,,,,,,,,,,,,,,,0.0,5.0,5.0,5.0,1.0,,,,,,,,,,
0.0,1.0,0.85849,,,,,,teabag_12s.jpg,0.0,clock_7_2.png,2.0,4,,,,,,,,,,,,,,,,,,0.0,6.0,6.0,6.0,1.0,,,,,,,,,,
0.0,1.0,0.684525,,,,,,trumpet_06s.jpg,0.0,clock_7_3.png,2.0,4,,,,,,,,,,,,,,,,,,0.0,7.0,7.0,7.0,1.0,,,,,,,,,,
0.0,1.0,0.952875,,,,,,tweezers_03s.jpg,0.0,clock_7_4.png,2.0,4,,,,,,,,,,,,,,,,,,0.0,8.0,8.0,8.0,1.0,,,,,,,,,,
0.0,1.0,1.215665,,,,,,spatula04.jpg,0.0,clock_7_5.png,2.0,4,,,,,,,,,,,,,,,,,,0.0,9.0,9.0,9.0,1.0,,,,,,,,,,
0.0,1.0,1.87911,,,,,,clover_04s.jpg,0.0,clock_7_6.png,2.0,4,,,,,,,,,,,,,,,,,,0.0,10.0,10.0,10.0,1.0,,,,,,,,,,
0.0,1.0,1.210355,,,,,,ivy_12s.jpg,0.0,clock_7_7.png,2.0,4,,,,,,,,,,,,,,,,,,0.0,11.0,11.0,11.0,1.0,,,,,,,,,,
0.0,1.0,1.51805,,,,,,marshmallow_08s.jpg,0.0,clock_5_1.png,3.0,4,,,,,,,,,,,,,,,,,,0.0,12.0,12.0,12.0,1.0,,,,,,,,,,
0.0,1.0,1.42616,,,,,,eiffeltower.jpg,0.0,clock_5_2.png,3.0,4,,,,,,,,,,,,,,,,,,0.0,13.0,13.0,13.0,1.0,,,,,,,,,,
0.0,1.0,0.937045,,,,,,exhaust_pipe_10s.jpg,0.0,clock_5_3.png,3.0,4,,,,,,,,,,,,,,,,,,0.0,14.0,14.0,14.0,1.0,,,,,,,,,,
0.0,1.0,1.111595,,,,,,rock_08s.jpg,0.0,clock_5_4.png,3.0,4,,,,,,,,,,,,,,,,,,0.0,15.0,15.0,15.0,1.0,,,,,,,,,,
0.0,1.0,1.246735,,,,,,aluminum_foil_08s.jpg,0.0,clock_5_5.png,3.0,4,,,,,,,,,,,,,,,,,,0.0,16.0,16.0,16.0,1.0,,,,,,,,,,
0.0,1.0,1.12686,,,,,,diving_board_07s.jpg,0.0,clock_6_1.png,4.0,4,,,,,,,,,,,,,,,,,,0.0,17.0,17.0,17.0,1.0,,,,,,,,,,
0.0,1.0,1.238685,,,,,,checkbook_11s.jpg,0.0,clock_6_2.png,4.0,4,,,,,,,,,,,,,,,,,,0.0,18.0,18.0,18.0,1.0,,,,,,,,,,
0.0,1.0,1.226965,,,,,,quill_09s.jpg,0.0,clock_6_3.png,4.0,4,,,,,,,,,,,,,,,,,,0.0,19.0,19.0,19.0,1.0,,,,,,,,,,
0.0,1.0,1.77142,,,,,,radio_09s.jpg,0.0,clock_6_4.png,4.0,4,,,,,,,,,,,,,,,,,,0.0,20.0,20.0,20.0,1.0,,,,,,,,,,
1.0,1.0,0.981195,,,,,,radio_09s.jpg,1.0,clock_6_5.png,4.0,4,,,,,,,,,,,,,,,,,,0.0,21.0,21.0,21.0,1.0,,,,,,,,,,
0.0,1.0,1.62961,,,,,,onion_10s.jpg,0.0,clock_6_6.png,4.0,4,,,,,,,,,,,,,,,,,,0.0,22.0,22.0,22.0,1.0,,,,,,,,,,
0.0,1.0,0.95409,,,,,,money_07s.jpg,0.0,clock_7_1.png,5.0,4,,,,,,,,,,,,,,,,,,0.0,23.0,23.0,23.0,1.0,,,,,,,,,,
0.0,1.0,1.07654,,,,,,paintbrush_04s.jpg,0.0,clock_7_2.png,5.0,4,,,,,,,,,,,,,,,,,,0.0,24.0,24.0,24.0,1.0,,,,,,,,,,
1.0,1.0,0.946835,,,,,,money_07s.jpg,1.0,clock_7_3.png,5.0,4,,,,,,,,,,,,,,,,,,0.0,25.0,25.0,25.0,1.0,,,,,,,,,,
0.0,1.0,0.97661,,,,,,surfboard_11s.jpg,0.0,clock_7_4.png,5.0,4,,,,,,,,,,,,,,,,,,0.0,26.0,26.0,26.0,1.0,,,,,,,,,,
1.0,1.0,0.93183,,,,,,money_07s.jpg,1.0,clock_7_5.png,5.0,4,,,,,,,,,,,,,,,,,,0.0,27.0,27.0,27.0,1.0,,,,,,,,,,
0.0,1.0,0.945555,,,,,,coffee_filter_10s.jpg,0.0,clock_7_6.png,5.0,4,,,,,,,,,,,,,,,,,,0.0,28.0,28.0,28.0,1.0,,,,,,,,,,
0.0,1.0,0.98949,,,,,,radiator_05s.jpg,0.0,clock_7_7.png,5.0,4,,,,,,,,,,,,,,,,,,0.0,29.0,29.0,29.0,1.0,,,,,,,,,,
0.0,1.0,0.859125,,,,,,birdcage_08s.jpg,0.0,clock_6_1.png,6.0,4,,,,,,,,,,,,,,,,,,0.0,30.0,30.0,30.0,1.0,,,,,,,,,,
0.0,1.0,1.052295,,,,,,peach_04s.jpg,0.0,clock_6_2.png,6.0,4,,,,,,,,,,,,,,,,,,0.0,31.0,31.0,31.0,1.0,,,,,,,,,,
0.0,1.0,0.810065,,,,,,crab_16s.jpg,0.0,clock_6_3.png,6.0,4,,,,,,,,,,,,,,,,,,0.0,32.0,32.0,32.0,1.0,,,,,,,,,,
0.0,1.0,0.772615,,,,,,penguin_16s.jpg,0.0,clock_6_4.png,6.0,4,,,,,,,,,,,,,,,,,,0.0,33.0,33.0,33.0,1.0,,,,,,,,,,
0.0,1.0,0.953675,,,,,,stethoscope_01b.jpg,0.0,clock_6_5.png,6.0,4,,,,,,,,,,,,,,,,,,0.0,34.0,34.0,34.0,1.0,,,,,,,,,,
0.0,1.0,0.861595,,,,,,puppet_01b.jpg,0.0,clock_6_6.png,6.0,4,,,,,,,,,,,,,,,,,,0.0,35.0,35.0,35.0,1.0,,,,,,,,,,
,,,,,,,,,1.0,,,4,1.0,1.0,1.396435,,,,,,exhaust_pipe_10s.jpg,diving_board_07s.jpg,,,,,,,,,,,,,0.0,0.0,0.0,0.0,1.0,,,,,
,,,,,,,,,0.0,,,4,1.0,0.0,1.55373,,,,,,teabag_12s.jpg,mitten_10s.jpg,,,,,,,,,,,,,0.0,1.0,1.0,1.0,1.0,,,,,
,,,,,,,,,0.0,,,4,1.0,0.0,2.431735,,,,,,checkbook_11s.jpg,rock_08s.jpg,,,,,,,,,,,,,0.0,2.0,2.0,2.0,1.0,,,,,
,,,,,,,,,0.0,,,4,1.0,0.0,1.345175,,,,,,tweezers_03s.jpg,icemaker_10s.jpg,,,,,,,,,,,,,0.0,3.0,3.0,3.0,1.0,,,,,
,,,,,,,,,1.0,,,4,1.0,1.0,1.20782,,,,,,birdcage_08s.jpg,penguin_16s.jpg,,,,,,,,,,,,,0.0,4.0,4.0,4.0,1.0,,,,,
,,,,,,,,,0.0,,,4,1.0,0.0,1.696205,,,,,,clover_04s.jpg,trumpet_06s.jpg,,,,,,,,,,,,,0.0,5.0,5.0,5.0,1.0,,,,,
,,,,,,,,,,,,4,,,,,,,,,,,,,,,,clockno_present_3_15.xlsx,clockno_compare_task_3_15.xlsx,,,,,,,,,,,0.0,2.0,2.0,2.0,1.0
0.0,1.0,1.64696,,,,,,mosquito_12s.jpg,0.0,clockno_up.jpg,1.0,4,,,,,,,,,,,,,,,,,,0.0,0.0,0.0,0.0,1.0,,,,,,,,,,
0.0,1.0,0.94332,,,,,,pocketknife_12s.jpg,0.0,clockno_default.jpg,1.0,4,,,,,,,,,,,,,,,,,,0.0,1.0,1.0,1.0,1.0,,,,,,,,,,
0.0,1.0,0.76255,,,,,,timer_03s.jpg,0.0,clockno_default.jpg,1.0,4,,,,,,,,,,,,,,,,,,0.0,2.0,2.0,2.0,1.0,,,,,,,,,,
1.0,1.0,1.227005,,,,,,mosquito_12s.jpg,1.0,clockno_default.jpg,1.0,4,,,,,,,,,,,,,,,,,,0.0,3.0,3.0,3.0,1.0,,,,,,,,,,
0.0,1.0,1.136475,,,,,,rhinoceros_02s.jpg,0.0,clockno_default.jpg,1.0,4,,,,,,,,,,,,,,,,,,0.0,4.0,4.0,4.0,1.0,,,,,,,,,,
0.0,1.0,0.917815,,,,,,spacesuit_02s.jpg,0.0,clockno_default.jpg,1.0,4,,,,,,,,,,,,,,,,,,0.0,5.0,5.0,5.0,1.0,,,,,,,,,,
0.0,1.0,0.967235,,,,,,lamb_chop_07s.jpg,0.0,clockno_default.jpg,1.0,4,,,,,,,,,,,,,,,,,,0.0,6.0,6.0,6.0,1.0,,,,,,,,,,
0.0,1.0,1.032685,,,,,,piano_13n.jpg,0.0,clockno_up.jpg,2.0,4,,,,,,,,,,,,,,,,,,0.0,7.0,7.0,7.0,1.0,,,,,,,,,,
1.0,1.0,0.83557,,,,,,piano_13n.jpg,1.0,clockno_default.jpg,2.0,4,,,,,,,,,,,,,,,,,,0.0,8.0,8.0,8.0,1.0,,,,,,,,,,
0.0,1.0,0.88493,,,,,,lemonade_04s.jpg,0.0,clockno_default.jpg,2.0,4,,,,,,,,,,,,,,,,,,0.0,9.0,9.0,9.0,1.0,,,,,,,,,,
0.0,1.0,0.71969,,,,,,lip_gloss_06s.jpg,0.0,clockno_default.jpg,2.0,4,,,,,,,,,,,,,,,,,,0.0,10.0,10.0,10.0,1.0,,,,,,,,,,
1.0,1.0,0.895925,,,,,,lemonade_04s.jpg,1.0,clockno_default.jpg,2.0,4,,,,,,,,,,,,,,,,,,0.0,11.0,11.0,11.0,1.0,,,,,,,,,,
0.0,1.0,0.82808,,,,,,popcorn_09s.jpg,0.0,clockno_up.jpg,3.0,4,,,,,,,,,,,,,,,,,,0.0,12.0,12.0,12.0,1.0,,,,,,,,,,
0.0,1.0,0.703515,,,,,,tuxedo_01b.jpg,0.0,clockno_default.jpg,3.0,4,,,,,,,,,,,,,,,,,,0.0,13.0,13.0,13.0,1.0,,,,,,,,,,
0.0,1.0,0.625785,,,,,,key_07s.jpg,0.0,clockno_default.jpg,3.0,4,,,,,,,,,,,,,,,,,,0.0,14.0,14.0,14.0,1.0,,,,,,,,,,
0.0,1.0,0.769715,,,,,,blowfish_03s.jpg,0.0,clockno_default.jpg,3.0,4,,,,,,,,,,,,,,,,,,0.0,15.0,15.0,15.0,1.0,,,,,,,,,,
0.0,0.0,1.50078,,,,,,popcorn_09s.jpg,1.0,clockno_default.jpg,3.0,4,,,,,,,,,,,,,,,,,,0.0,16.0,16.0,16.0,1.0,,,,,,,,,,
0.0,1.0,0.91669,,,,,,mirror_12s.jpg,0.0,clockno_default.jpg,3.0,4,,,,,,,,,,,,,,,,,,0.0,17.0,17.0,17.0,1.0,,,,,,,,,,
0.0,1.0,1.004205,,,,,,trident_07s.jpg,0.0,clockno_up.jpg,4.0,4,,,,,,,,,,,,,,,,,,0.0,18.0,18.0,18.0,1.0,,,,,,,,,,
0.0,1.0,1.16764,,,,,,knitting_needle_04s.jpg,0.0,clockno_default.jpg,4.0,4,,,,,,,,,,,,,,,,,,0.0,19.0,19.0,19.0,1.0,,,,,,,,,,
0.0,1.0,0.694,,,,,,orangutan_03s.jpg,0.0,clockno_default.jpg,4.0,4,,,,,,,,,,,,,,,,,,0.0,20.0,20.0,20.0,1.0,,,,,,,,,,
0.0,1.0,0.833935,,,,,,spoon02a.jpg,0.0,clockno_default.jpg,4.0,4,,,,,,,,,,,,,,,,,,0.0,21.0,21.0,21.0,1.0,,,,,,,,,,
0.0,1.0,0.8923,,,,,,mushroom_10n.jpg,0.0,clockno_default.jpg,4.0,4,,,,,,,,,,,,,,,,,,0.0,22.0,22.0,22.0,1.0,,,,,,,,,,
0.0,1.0,1.283695,,,,,,owl_15s.jpg,0.0,clockno_up.jpg,5.0,4,,,,,,,,,,,,,,,,,,0.0,23.0,23.0,23.0,1.0,,,,,,,,,,
0.0,1.0,1.143825,,,,,,racehorse_03s.jpg,0.0,clockno_default.jpg,5.0,4,,,,,,,,,,,,,,,,,,0.0,24.0,24.0,24.0,1.0,,,,,,,,,,
0.0,1.0,0.909535,,,,,,dirt_bike_11s.jpg,0.0,clockno_default.jpg,5.0,4,,,,,,,,,,,,,,,,,,0.0,25.0,25.0,25.0,1.0,,,,,,,,,,
0.0,1.0,1.236555,,,,,,plaster_cast_13s.jpg,0.0,clockno_default.jpg,5.0,4,,,,,,,,,,,,,,,,,,0.0,26.0,26.0,26.0,1.0,,,,,,,,,,
1.0,1.0,0.91498,,,,,,racehorse_03s.jpg,1.0,clockno_default.jpg,5.0,4,,,,,,,,,,,,,,,,,,0.0,27.0,27.0,27.0,1.0,,,,,,,,,,
0.0,1.0,0.926205,,,,,,spacesuit_02s.jpg,0.0,clockno_default.jpg,5.0,4,,,,,,,,,,,,,,,,,,0.0,28.0,28.0,28.0,1.0,,,,,,,,,,
0.0,1.0,1.009805,,,,,,slingshot_07s.jpg,0.0,clockno_up.jpg,6.0,4,,,,,,,,,,,,,,,,,,0.0,29.0,29.0,29.0,1.0,,,,,,,,,,
0.0,1.0,0.708495,,,,,,potholder_02s.jpg,0.0,clockno_default.jpg,6.0,4,,,,,,,,,,,,,,,,,,0.0,30.0,30.0,30.0,1.0,,,,,,,,,,
0.0,1.0,0.87571,,,,,,squirrel_02s.jpg,0.0,clockno_default.jpg,6.0,4,,,,,,,,,,,,,,,,,,0.0,31.0,31.0,31.0,1.0,,,,,,,,,,
0.0,1.0,0.769135,,,,,,outlet_10s.jpg,0.0,clockno_default.jpg,6.0,4,,,,,,,,,,,,,,,,,,0.0,32.0,32.0,32.0,1.0,,,,,,,,,,
0.0,1.0,0.829995,,,,,,potpourri_03s.jpg,0.0,clockno_default.jpg,6.0,4,,,,,,,,,,,,,,,,,,0.0,33.0,33.0,33.0,1.0,,,,,,,,,,
0.0,1.0,1.001625,,,,,,margarita_03s.jpg,0.0,clockno_default.jpg,6.0,4,,,,,,,,,,,,,,,,,,0.0,34.0,34.0,34.0,1.0,,,,,,,,,,
1.0,1.0,1.109285,,,,,,outlet_10s.jpg,1.0,clockno_default.jpg,6.0,4,,,,,,,,,,,,,,,,,,0.0,35.0,35.0,35.0,1.0,,,,,,,,,,
,,,,,,,,,1.0,,,4,0.0,0.0,1.47603,,,,,,lip_gloss_06s.jpg,tuxedo_01b.jpg,,,,,,,,,,,,,0.0,0.0,0.0,0.0,1.0,,,,,
,,,,,,,,,1.0,,,4,1.0,1.0,3.06489,,,,,,blowfish_03s.jpg,trident_07s.jpg,,,,,,,,,,,,,0.0,1.0,1.0,1.0,1.0,,,,,
,,,,,,,,,0.0,,,4,1.0,0.0,1.90262,,,,,,orangutan_03s.jpg,mirror_12s.jpg,,,,,,,,,,,,,0.0,2.0,2.0,2.0,1.0,,,,,
,,,,,,,,,1.0,,,4,1.0,1.0,1.21014,,,,,,pocketknife_12s.jpg,rhinoceros_02s.jpg,,,,,,,,,,,,,0.0,3.0,3.0,3.0,1.0,,,,,
,,,,,,,,,1.0,,,4,1.0,1.0,6.72087,,,,,,potholder_02s.jpg,potpourri_03s.jpg,,,,,,,,,,,,,0.0,4.0,4.0,4.0,1.0,,,,,
,,,,,,,,,1.0,,,4,1.0,1.0,2.6886,,,,,,squirrel_02s.jpg,margarita_03s.jpg,,,,,,,,,,,,,0.0,5.0,5.0,5.0,1.0,,,,,
,,,,,,,,,,,,4,,,,,,,,,,,,,,,,clockno_present_4_15.xlsx,clockno_compare_task_4_15.xlsx,,,,,,,,,,,0.0,3.0,3.0,3.0,1.0
0.0,1.0,1.17345,,,,,,piggy_bank_02s.jpg,0.0,clockno_up.jpg,1.0,4,,,,,,,,,,,,,,,,,,0.0,0.0,0.0,0.0,1.0,,,,,,,,,,
0.0,1.0,0.869185,,,,,,quesadilla_07s.jpg,0.0,clockno_default.jpg,1.0,4,,,,,,,,,,,,,,,,,,0.0,1.0,1.0,1.0,1.0,,,,,,,,,,
1.0,1.0,0.85574,,,,,,quesadilla_07s.jpg,1.0,clockno_default.jpg,1.0,4,,,,,,,,,,,,,,,,,,0.0,2.0,2.0,2.0,1.0,,,,,,,,,,
0.0,1.0,0.735455,,,,,,turtle_08s.jpg,0.0,clockno_default.jpg,1.0,4,,,,,,,,,,,,,,,,,,0.0,3.0,3.0,3.0,1.0,,,,,,,,,,
1.0,1.0,0.88585,,,,,,quesadilla_07s.jpg,1.0,clockno_default.jpg,1.0,4,,,,,,,,,,,,,,,,,,0.0,4.0,4.0,4.0,1.0,,,,,,,,,,
0.0,1.0,0.82521,,,,,,pie_08s.jpg,0.0,clockno_default.jpg,1.0,4,,,,,,,,,,,,,,,,,,0.0,5.0,5.0,5.0,1.0,,,,,,,,,,
1.0,1.0,0.934745,,,,,,quesadilla_07s.jpg,1.0,clockno_default.jpg,1.0,4,,,,,,,,,,,,,,,,,,0.0,6.0,6.0,6.0,1.0,,,,,,,,,,
0.0,1.0,0.97594,,,,,,coral_08s.jpg,0.0,clockno_up.jpg,2.0,4,,,,,,,,,,,,,,,,,,0.0,7.0,7.0,7.0,1.0,,,,,,,,,,
0.0,1.0,0.763935,,,,,,bottle_opener_11s.jpg,0.0,clockno_default.jpg,2.0,4,,,,,,,,,,,,,,,,,,0.0,8.0,8.0,8.0,1.0,,,,,,,,,,
0.0,1.0,0.661295,,,,,,solar_panel_02s.jpg,0.0,clockno_default.jpg,2.0,4,,,,,,,,,,,,,,,,,,0.0,9.0,9.0,9.0,1.0,,,,,,,,,,
0.0,1.0,0.854715,,,,,,sunglasses_11s.jpg,0.0,clockno_default.jpg,2.0,4,,,,,,,,,,,,,,,,,,0.0,10.0,10.0,10.0,1.0,,,,,,,,,,
,0.0,,,,,,,lamppost_09s.jpg,0.0,clockno_default.jpg,2.0,4,,,,,,,,,,,,,,,,,,0.0,11.0,11.0,11.0,1.0,,,,,,,,,,
0.0,1.0,1.01557,,,,,,pineapple_12s.jpg,0.0,clockno_up.jpg,3.0,4,,,,,,,,,,,,,,,,,,0.0,12.0,12.0,12.0,1.0,,,,,,,,,,
0.0,1.0,0.618585,,,,,,pretzel_09s.jpg,0.0,clockno_default.jpg,3.0,4,,,,,,,,,,,,,,,,,,0.0,13.0,13.0,13.0,1.0,,,,,,,,,,
0.0,1.0,0.689595,,,,,,fire_pit_10s.jpg,0.0,clockno_default.jpg,3.0,4,,,,,,,,,,,,,,,,,,0.0,14.0,14.0,14.0,1.0,,,,,,,,,,
0.0,1.0,0.633495,,,,,,microwave_02s.jpg,0.0,clockno_default.jpg,3.0,4,,,,,,,,,,,,,,,,,,0.0,15.0,15.0,15.0,1.0,,,,,,,,,,
0.0,1.0,0.6758,,,,,,dynamite_01b.jpg,0.0,clockno_default.jpg,3.0,4,,,,,,,,,,,,,,,,,,0.0,16.0,16.0,16.0,1.0,,,,,,,,,,
0.0,1.0,0.73384,,,,,,megaphone_03s.jpg,0.0,clockno_default.jpg,3.0,4,,,,,,,,,,,,,,,,,,0.0,17.0,17.0,17.0,1.0,,,,,,,,,,
0.0,1.0,0.92596,,,,,,tortilla_06s.jpg,0.0,clockno_up.jpg,4.0,4,,,,,,,,,,,,,,,,,,0.0,18.0,18.0,18.0,1.0,,,,,,,,,,
1.0,1.0,1.219515,,,,,,tortilla_06s.jpg,1.0,clockno_default.jpg,4.0,4,,,,,,,,,,,,,,,,,,0.0,19.0,19.0,19.0,1.0,,,,,,,,,,
0.0,1.0,0.66827,,,,,,mud_13s.jpg,0.0,clockno_default.jpg,4.0,4,,,,,,,,,,,,,,,,,,0.0,20.0,20.0,20.0,1.0,,,,,,,,,,
0.0,1.0,0.91826,,,,,,toilet_paper_12s.jpg,0.0,clockno_default.jpg,4.0,4,,,,,,,,,,,,,,,,,,0.0,21.0,21.0,21.0,1.0,,,,,,,,,,
0.0,1.0,0.82222,,,,,,go-kart_10s.jpg,0.0,clockno_default.jpg,4.0,4,,,,,,,,,,,,,,,,,,0.0,22.0,22.0,22.0,1.0,,,,,,,,,,
0.0,1.0,1.099595,,,,,,magnet_03s.jpg,0.0,clockno_up.jpg,5.0,4,,,,,,,,,,,,,,,,,,0.0,23.0,23.0,23.0,1.0,,,,,,,,,,
1.0,1.0,0.762565,,,,,,magnet_03s.jpg,1.0,clockno_default.jpg,5.0,4,,,,,,,,,,,,,,,,,,0.0,24.0,24.0,24.0,1.0,,,,,,,,,,
1.0,1.0,0.860075,,,,,,magnet_03s.jpg,1.0,clockno_default.jpg,5.0,4,,,,,,,,,,,,,,,,,,0.0,25.0,25.0,25.0,1.0,,,,,,,,,,
0.0,1.0,0.89392,,,,,,phone_01b.jpg,0.0,clockno_default.jpg,5.0,4,,,,,,,,,,,,,,,,,,0.0,26.0,26.0,26.0,1.0,,,,,,,,,,
0.0,1.0,0.774785,,,,,,duck_01b.jpg,0.0,clockno_default.jpg,5.0,4,,,,,,,,,,,,,,,,,,0.0,27.0,27.0,27.0,1.0,,,,,,,,,,
0.0,1.0,0.920985,,,,,,lamppost_09s.jpg,0.0,clockno_default.jpg,5.0,4,,,,,,,,,,,,,,,,,,0.0,28.0,28.0,28.0,1.0,,,,,,,,,,
0.0,1.0,1.09322,,,,,,mussel_11s.jpg,0.0,clockno_up.jpg,6.0,4,,,,,,,,,,,,,,,,,,0.0,29.0,29.0,29.0,1.0,,,,,,,,,,
0.0,1.0,0.979515,,,,,,sundae_08s.jpg,0.0,clockno_default.jpg,6.0,4,,,,,,,,,,,,,,,,,,0.0,30.0,30.0,30.0,1.0,,,,,,,,,,
0.0,1.0,0.809155,,,,,,telephone_pole_05s.jpg,0.0,clockno_default.jpg,6.0,4,,,,,,,,,,,,,,,,,,0.0,31.0,31.0,31.0,1.0,,,,,,,,,,
0.0,1.0,0.70255,,,,,,basket_05s.jpg,0.0,clockno_default.jpg,6.0,4,,,,,,,,,,,,,,,,,,0.0,32.0,32.0,32.0,1.0,,,,,,,,,,
0.0,1.0,1.180825,,,,,,turtle_08s.jpg,0.0,clockno_default.jpg,6.0,4,,,,,,,,,,,,,,,,,,0.0,33.0,33.0,33.0,1.0,,,,,,,,,,
0.0,1.0,0.82159,,,,,,otter_05s.jpg,0.0,clockno_default.jpg,6.0,4,,,,,,,,,,,,,,,,,,0.0,34.0,34.0,34.0,1.0,,,,,,,,,,
1.0,1.0,0.987445,,,,,,otter_05s.jpg,1.0,clockno_default.jpg,6.0,4,,,,,,,,,,,,,,,,,,0.0,35.0,35.0,35.0,1.0,,,,,,,,,,
,,,,,,,,,1.0,,,4,1.0,1.0,3.63567,,,,,,pie_08s.jpg,bottle_opener_11s.jpg,,,,,,,,,,,,,0.0,0.0,0.0,0.0,1.0,,,,,
,,,,,,,,,0.0,,,4,1.0,0.0,2.56348,,,,,,sundae_08s.jpg,duck_01b.jpg,,,,,,,,,,,,,0.0,1.0,1.0,1.0,1.0,,,,,
,,,,,,,,,1.0,,,4,0.0,0.0,2.46275,,,,,,solar_panel_02s.jpg,pineapple_12s.jpg,,,,,,,,,,,,,0.0,2.0,2.0,2.0,1.0,,,,,
,,,,,,,,,1.0,,,4,1.0,1.0,1.398945,,,,,,coral_08s.jpg,sunglasses_11s.jpg,,,,,,,,,,,,,0.0,3.0,3.0,3.0,1.0,,,,,
,,,,,,,,,0.0,,,4,0.0,1.0,1.758015,,,,,,dynamite_01b.jpg,pretzel_09s.jpg,,,,,,,,,,,,,0.0,4.0,4.0,4.0,1.0,,,,,
,,,,,,,,,1.0,,,4,1.0,1.0,1.68826,,,,,,fire_pit_10s.jpg,megaphone_03s.jpg,,,,,,,,,,,,,0.0,5.0,5.0,5.0,1.0,,,,,
,,,,,,,,,,,,4,,,,,,,,,,,,,,,,clockno_present_5_15.xlsx,clockno_compare_task_5_15.xlsx,,,,,,,,,,,0.0,4.0,4.0,4.0,1.0
0.0,1.0,0.605255,,,,,,mattress_01s.jpg,0.0,clockno_up.jpg,1.0,4,,,,,,,,,,,,,,,,,,0.0,0.0,0.0,0.0,1.0,,,,,,,,,,
0.0,1.0,0.86717,,,,,,ravioli_08s.jpg,0.0,clockno_default.jpg,1.0,4,,,,,,,,,,,,,,,,,,0.0,1.0,1.0,1.0,1.0,,,,,,,,,,
0.0,1.0,0.796645,,,,,,tambourine_06s.jpg,0.0,clockno_default.jpg,1.0,4,,,,,,,,,,,,,,,,,,0.0,2.0,2.0,2.0,1.0,,,,,,,,,,
0.0,1.0,0.86136,,,,,,ram_05s.jpg,0.0,clockno_default.jpg,1.0,4,,,,,,,,,,,,,,,,,,0.0,3.0,3.0,3.0,1.0,,,,,,,,,,
1.0,1.0,0.743905,,,,,,ram_05s.jpg,1.0,clockno_default.jpg,1.0,4,,,,,,,,,,,,,,,,,,0.0,4.0,4.0,4.0,1.0,,,,,,,,,,
1.0,1.0,1.445245,,,,,,mattress_01s.jpg,1.0,clockno_default.jpg,1.0,4,,,,,,,,,,,,,,,,,,0.0,5.0,5.0,5.0,1.0,,,,,,,,,,
0.0,1.0,1.108415,,,,,,panda_02s.jpg,0.0,clockno_default.jpg,1.0,4,,,,,,,,,,,,,,,,,,0.0,6.0,6.0,6.0,1.0,,,,,,,,,,
0.0,1.0,0.92653,,,,,,mailbox_11s.jpg,0.0,clockno_up.jpg,2.0,4,,,,,,,,,,,,,,,,,,0.0,7.0,7.0,7.0,1.0,,,,,,,,,,
0.0,1.0,0.867575,,,,,,air_pump_05s.jpg,0.0,clockno_default.jpg,2.0,4,,,,,,,,,,,,,,,,,,0.0,8.0,8.0,8.0,1.0,,,,,,,,,,
1.0,1.0,0.746235,,,,,,air_pump_05s.jpg,1.0,clockno_default.jpg,2.0,4,,,,,,,,,,,,,,,,,,0.0,9.0,9.0,9.0,1.0,,,,,,,,,,
0.0,1.0,0.838375,,,,,,thorn_13s.jpg,0.0,clockno_default.jpg,2.0,4,,,,,,,,,,,,,,,,,,0.0,10.0,10.0,10.0,1.0,,,,,,,,,,
0.0,1.0,0.804445,,,,,,kite_04s.jpg,0.0,clockno_default.jpg,2.0,4,,,,,,,,,,,,,,,,,,0.0,11.0,11.0,11.0,1.0,,,,,,,,,,
1.0,1.0,1.143125,,,,,,mailbox_11s.jpg,1.0,clockno_default.jpg,2.0,4,,,,,,,,,,,,,,,,,,0.0,12.0,12.0,12.0,1.0,,,,,,,,,,
0.0,1.0,0.746375,,,,,,lamp_08s.jpg,0.0,clockno_up.jpg,3.0,4,,,,,,,,,,,,,,,,,,0.0,13.0,13.0,13.0,1.0,,,,,,,,,,
0.0,1.0,0.87454,,,,,,smokingpipe.jpg,0.0,clockno_default.jpg,3.0,4,,,,,,,,,,,,,,,,,,0.0,14.0,14.0,14.0,1.0,,,,,,,,,,
0.0,1.0,0.782425,,,,,,swing_set_15s.jpg,0.0,clockno_default.jpg,3.0,4,,,,,,,,,,,,,,,,,,0.0,15.0,15.0,15.0,1.0,,,,,,,,,,
0.0,1.0,0.658535,,,,,,torch_02s.jpg,0.0,clockno_default.jpg,3.0,4,,,,,,,,,,,,,,,,,,0.0,16.0,16.0,16.0,1.0,,,,,,,,,,
0.0,1.0,0.962195,,,,,,police_car_01s.jpg,0.0,clockno_default.jpg,3.0,4,,,,,,,,,,,,,,,,,,0.0,17.0,17.0,17.0,1.0,,,,,,,,,,
1.0,1.0,1.23406,,,,,,police_car_01s.jpg,1.0,clockno_default.jpg,3.0,4,,,,,,,,,,,,,,,,,,0.0,18.0,18.0,18.0,1.0,,,,,,,,,,
0.0,1.0,0.734605,,,,,,pocket_watch_16s.jpg,0.0,clockno_default.jpg,3.0,4,,,,,,,,,,,,,,,,,,0.0,19.0,19.0,19.0,1.0,,,,,,,,,,
0.0,1.0,0.851295,,,,,,totem_pole_05s.jpg,0.0,clockno_up.jpg,4.0,4,,,,,,,,,,,,,,,,,,0.0,20.0,20.0,20.0,1.0,,,,,,,,,,
0.0,1.0,0.74273,,,,,,toad_09s.jpg,0.0,clockno_default.jpg,4.0,4,,,,,,,,,,,,,,,,,,0.0,21.0,21.0,21.0,1.0,,,,,,,,,,
0.0,1.0,0.644445,,,,,,typewriter_11s.jpg,0.0,clockno_default.jpg,4.0,4,,,,,,,,,,,,,,,,,,0.0,22.0,22.0,22.0,1.0,,,,,,,,,,
0.0,1.0,0.809125,,,,,,camcorder_10s.jpg,0.0,clockno_default.jpg,4.0,4,,,,,,,,,,,,,,,,,,0.0,23.0,23.0,23.0,1.0,,,,,,,,,,
0.0,1.0,1.087135,,,,,,torch_02s.jpg,0.0,clockno_default.jpg,4.0,4,,,,,,,,,,,,,,,,,,0.0,24.0,24.0,24.0,1.0,,,,,,,,,,
0.0,1.0,0.820125,,,,,,kettle_08s.jpg,0.0,clockno_default.jpg,4.0,4,,,,,,,,,,,,,,,,,,0.0,25.0,25.0,25.0,1.0,,,,,,,,,,
0.0,1.0,0.926755,,,,,,comic_book_02s.jpg,0.0,clockno_up.jpg,5.0,4,,,,,,,,,,,,,,,,,,0.0,26.0,26.0,26.0,1.0,,,,,,,,,,
0.0,1.0,0.66262,,,,,,binder_21s.jpg,0.0,clockno_default.jpg,5.0,4,,,,,,,,,,,,,,,,,,0.0,27.0,27.0,27.0,1.0,,,,,,,,,,
0.0,1.0,0.874905,,,,,,inhaler_01b.jpg,0.0,clockno_default.jpg,5.0,4,,,,,,,,,,,,,,,,,,0.0,28.0,28.0,28.0,1.0,,,,,,,,,,
0.0,1.0,0.68091,,,,,,abacus_12s.jpg,0.0,clockno_default.jpg,5.0,4,,,,,,,,,,,,,,,,,,0.0,29.0,29.0,29.0,1.0,,,,,,,,,,
0.0,1.0,0.868665,,,,,,hummingbird_05s.jpg,0.0,clockno_default.jpg,5.0,4,,,,,,,,,,,,,,,,,,0.0,30.0,30.0,30.0,1.0,,,,,,,,,,
0.0,1.0,0.99592,,,,,,polaroid_05s.jpg,0.0,clockno_up.jpg,6.0,4,,,,,,,,,,,,,,,,,,0.0,31.0,31.0,31.0,1.0,,,,,,,,,,
0.0,1.0,0.6757,,,,,,rosary_03s.jpg,0.0,clockno_default.jpg,6.0,4,,,,,,,,,,,,,,,,,,0.0,32.0,32.0,32.0,1.0,,,,,,,,,,
0.0,1.0,1.387195,,,,,,raft_09s.jpg,0.0,clockno_default.jpg,6.0,4,,,,,,,,,,,,,,,,,,0.0,33.0,33.0,33.0,1.0,,,,,,,,,,
1.0,1.0,1.29495,,,,,,polaroid_05s.jpg,1.0,clockno_default.jpg,6.0,4,,,,,,,,,,,,,,,,,,0.0,34.0,34.0,34.0,1.0,,,,,,,,,,
1.0,1.0,1.62783,,,,,,raft_09s.jpg,1.0,clockno_default.jpg,6.0,4,,,,,,,,,,,,,,,,,,0.0,35.0,35.0,35.0,1.0,,,,,,,,,,
,,,,,,,,,1.0,,,4,0.0,0.0,3.207765,,,,,,thorn_13s.jpg,lamp_08s.jpg,,,,,,,,,,,,,0.0,0.0,0.0,0.0,1.0,,,,,
,,,,,,,,,0.0,,,4,0.0,1.0,1.779285,,,,,,smokingpipe.jpg,kite_04s.jpg,,,,,,,,,,,,,0.0,1.0,1.0,1.0,1.0,,,,,
,,,,,,,,,1.0,,,4,0.0,0.0,1.120495,,,,,,pocket_watch_16s.jpg,typewriter_11s.jpg,,,,,,,,,,,,,0.0,2.0,2.0,2.0,1.0,,,,,
,,,,,,,,,0.0,,,4,0.0,1.0,2.313975,,,,,,hummingbird_05s.jpg,binder_21s.jpg,,,,,,,,,,,,,0.0,3.0,3.0,3.0,1.0,,,,,
,,,,,,,,,0.0,,,4,0.0,1.0,1.623605,,,,,,camcorder_10s.jpg,totem_pole_05s.jpg,,,,,,,,,,,,,0.0,4.0,4.0,4.0,1.0,,,,,
,,,,,,,,,1.0,,,4,1.0,1.0,0.76549,,,,,,comic_book_02s.jpg,abacus_12s.jpg,,,,,,,,,,,,,0.0,5.0,5.0,5.0,1.0,,,,,
