key_resp.keys,key_resp.corr,key_resp.rt,noclock_loop.thisRepN,noclock_loop.thisTrialN,noclock_loop.thisN,noclock_loop.thisIndex,noclock_loop.ran,pictures,answer,clock,segment,participant,key_resp_2.keys,key_resp_2.corr,key_resp_2.rt,noclock_loop2.thisRepN,noclock_loop2.thisTrialN,noclock_loop2.thisN,noclock_loop2.thisIndex,noclock_loop2.ran,item_a,item_b,noclock_condition.thisRepN,noclock_condition.thisTrialN,noclock_condition.thisN,noclock_condition.thisIndex,noclock_condition.ran,present,compare,present_segment.thisRepN,present_segment.thisTrialN,present_segment.thisN,present_segment.thisIndex,present_segment.ran,compare_segment.thisRepN,compare_segment.thisTrialN,compare_segment.thisN,compare_segment.thisIndex,compare_segment.ran,clock_conditions.thisRepN,clock_conditions.thisTrialN,clock_conditions.thisN,clock_conditions.thisIndex,clock_conditions.ran
0.0,1.0,1.25695,0.0,0.0,0.0,0.0,1.0,swan_11s.jpg,0.0,clockno_up.jpg,1.0,17,,,,,,,,,,,,,,,,,,,,,,,,,,,,,,,,
0.0,1.0,0.873145,0.0,1.0,1.0,1.0,1.0,hummingbird_05s.jpg,0.0,clockno_default.jpg,1.0,17,,,,,,,,,,,,,,,,,,,,,,,,,,,,,,,,
0.0,1.0,0.796845,0.0,2.0,2.0,2.0,1.0,pretzel_09s.jpg,0.0,clockno_default.jpg,1.0,17,,,,,,,,,,,,,,,,,,,,,,,,,,,,,,,,
1.0,1.0,0.79188,0.0,3.0,3.0,3.0,1.0,pretzel_09s.jpg,1.0,clockno_default.jpg,1.0,17,,,,,,,,,,,,,,,,,,,,,,,,,,,,,,,,
1.0,1.0,0.884365,0.0,4.0,4.0,4.0,1.0,pretzel_09s.jpg,1.0,clockno_default.jpg,1.0,17,,,,,,,,,,,,,,,,,,,,,,,,,,,,,,,,
0.0,1.0,0.67893,0.0,5.0,5.0,5.0,1.0,tennis_ball_06s.jpg,0.0,clockno_default.jpg,1.0,17,,,,,,,,,,,,,,,,,,,,,,,,,,,,,,,,
0.0,1.0,1.258945,0.0,6.0,6.0,6.0,1.0,perfume_06s.jpg,0.0,clockno_up.jpg,2.0,17,,,,,,,,,,,,,,,,,,,,,,,,,,,,,,,,
0.0,1.0,0.84297,0.0,7.0,7.0,7.0,1.0,pretzel_09s.jpg,0.0,clockno_default.jpg,2.0,17,,,,,,,,,,,,,,,,,,,,,,,,,,,,,,,,
0.0,1.0,0.63831,0.0,8.0,8.0,8.0,1.0,teapot_03s.jpg,0.0,clockno_default.jpg,2.0,17,,,,,,,,,,,,,,,,,,,,,,,,,,,,,,,,
0.0,1.0,0.561975,0.0,9.0,9.0,9.0,1.0,denture_03s.jpg,0.0,clockno_default.jpg,2.0,17,,,,,,,,,,,,,,,,,,,,,,,,,,,,,,,,
0.0,1.0,0.642435,0.0,10.0,10.0,10.0,1.0,mitten_10s.jpg,0.0,clockno_default.jpg,2.0,17,,,,,,,,,,,,,,,,,,,,,,,,,,,,,,,,
0.0,1.0,0.66733,0.0,11.0,11.0,11.0,1.0,pineapple_12s.jpg,0.0,clockno_up.jpg,3.0,17,,,,,,,,,,,,,,,,,,,,,,,,,,,,,,,,
0.0,1.0,0.646985,0.0,12.0,12.0,12.0,1.0,fire_pit_10s.jpg,0.0,clockno_default.jpg,3.0,17,,,,,,,,,,,,,,,,,,,,,,,,,,,,,,,,
0.0,1.0,0.66714,0.0,13.0,13.0,13.0,1.0,icemaker_10s.jpg,0.0,clockno_default.jpg,3.0,17,,,,,,,,,,,,,,,,,,,,,,,,,,,,,,,,
0.0,1.0,0.860045,0.0,14.0,14.0,14.0,1.0,denture_03s.jpg,0.0,clockno_default.jpg,3.0,17,,,,,,,,,,,,,,,,,,,,,,,,,,,,,,,,
0.0,1.0,0.671955,0.0,15.0,15.0,15.0,1.0,tomato_sauce_09s.jpg,0.0,clockno_default.jpg,3.0,17,,,,,,,,,,,,,,,,,,,,,,,,,,,,,,,,
0.0,1.0,0.63329,0.0,16.0,16.0,16.0,1.0,chalice_10s.jpg,0.0,clockno_up.jpg,4.0,17,,,,,,,,,,,,,,,,,,,,,,,,,,,,,,,,
0.0,1.0,0.561425,0.0,17.0,17.0,17.0,1.0,pepper_mill_03s.jpg,0.0,clockno_default.jpg,4.0,17,,,,,,,,,,,,,,,,,,,,,,,,,,,,,,,,
0.0,1.0,0.539045,0.0,18.0,18.0,18.0,1.0,pencil_sharpener_09n.jpg,0.0,clockno_default.jpg,4.0,17,,,,,,,,,,,,,,,,,,,,,,,,,,,,,,,,
1.0,1.0,1.460065,0.0,19.0,19.0,19.0,1.0,chalice_10s.jpg,1.0,clockno_default.jpg,4.0,17,,,,,,,,,,,,,,,,,,,,,,,,,,,,,,,,
0.0,1.0,0.69025,0.0,20.0,20.0,20.0,1.0,crossbow_10s.jpg,0.0,clockno_default.jpg,4.0,17,,,,,,,,,,,,,,,,,,,,,,,,,,,,,,,,
0.0,1.0,0.66205,0.0,21.0,21.0,21.0,1.0,tortilla_06s.jpg,0.0,clockno_default.jpg,4.0,17,,,,,,,,,,,,,,,,,,,,,,,,,,,,,,,,
0.0,1.0,1.159315,0.0,22.0,22.0,22.0,1.0,penlight_12s.jpg,0.0,clockno_default.jpg,4.0,17,,,,,,,,,,,,,,,,,,,,,,,,,,,,,,,,
0.0,1.0,0.698655,0.0,23.0,23.0,23.0,1.0,keyboard_05s.jpg,0.0,clockno_up.jpg,5.0,17,,,,,,,,,,,,,,,,,,,,,,,,,,,,,,,,
1.0,1.0,0.933785,0.0,24.0,24.0,24.0,1.0,keyboard_05s.jpg,1.0,clockno_default.jpg,5.0,17,,,,,,,,,,,,,,,,,,,,,,,,,,,,,,,,
0.0,1.0,0.59173,0.0,25.0,25.0,25.0,1.0,sparkler_02s.jpg,0.0,clockno_default.jpg,5.0,17,,,,,,,,,,,,,,,,,,,,,,,,,,,,,,,,
0.0,1.0,0.496985,0.0,26.0,26.0,26.0,1.0,pinwheel_06s.jpg,0.0,clockno_default.jpg,5.0,17,,,,,,,,,,,,,,,,,,,,,,,,,,,,,,,,
0.0,1.0,0.58336,0.0,27.0,27.0,27.0,1.0,frog_09s.jpg,0.0,clockno_default.jpg,5.0,17,,,,,,,,,,,,,,,,,,,,,,,,,,,,,,,,
0.0,1.0,0.722665,0.0,28.0,28.0,28.0,1.0,pepper_mill_03s.jpg,0.0,clockno_default.jpg,5.0,17,,,,,,,,,,,,,,,,,,,,,,,,,,,,,,,,
0.0,1.0,0.774075,0.0,29.0,29.0,29.0,1.0,gargoyle_08s.jpg,0.0,clockno_default.jpg,5.0,17,,,,,,,,,,,,,,,,,,,,,,,,,,,,,,,,
0.0,1.0,0.963145,0.0,30.0,30.0,30.0,1.0,rosary_03s.jpg,0.0,clockno_up.jpg,6.0,17,,,,,,,,,,,,,,,,,,,,,,,,,,,,,,,,
1.0,1.0,0.73372,0.0,31.0,31.0,31.0,1.0,rosary_03s.jpg,1.0,clockno_default.jpg,6.0,17,,,,,,,,,,,,,,,,,,,,,,,,,,,,,,,,
0.0,1.0,0.494535,0.0,32.0,32.0,32.0,1.0,chocolate_01b.jpg,0.0,clockno_default.jpg,6.0,17,,,,,,,,,,,,,,,,,,,,,,,,,,,,,,,,
1.0,1.0,0.6779,0.0,33.0,33.0,33.0,1.0,chocolate_01b.jpg,1.0,clockno_default.jpg,6.0,17,,,,,,,,,,,,,,,,,,,,,,,,,,,,,,,,
0.0,1.0,0.45689,0.0,34.0,34.0,34.0,1.0,raft_09s.jpg,0.0,clockno_default.jpg,6.0,17,,,,,,,,,,,,,,,,,,,,,,,,,,,,,,,,
0.0,1.0,0.565725,0.0,35.0,35.0,35.0,1.0,ravioli_08s.jpg,0.0,clockno_default.jpg,6.0,17,,,,,,,,,,,,,,,,,,,,,,,,,,,,,,,,
,,,,,,,,,0.0,,,17,1.0,0.0,1.88983,0.0,0.0,0.0,0.0,1.0,teapot_03s.jpg,tennis_ball_06s.jpg,,,,,,,,,,,,,,,,,,,,,,
,,,,,,,,,1.0,,,17,1.0,1.0,1.54378,0.0,1.0,1.0,1.0,1.0,mitten_10s.jpg,icemaker_10s.jpg,,,,,,,,,,,,,,,,,,,,,,
,,,,,,,,,0.0,,,17,1.0,0.0,2.560225,0.0,2.0,2.0,2.0,1.0,sparkler_02s.jpg,penlight_12s.jpg,,,,,,,,,,,,,,,,,,,,,,
,,,,,,,,,1.0,,,17,1.0,1.0,1.30262,0.0,3.0,3.0,3.0,1.0,pinwheel_06s.jpg,gargoyle_08s.jpg,,,,,,,,,,,,,,,,,,,,,,
,,,,,,,,,1.0,,,17,0.0,0.0,1.23197,0.0,4.0,4.0,4.0,1.0,fire_pit_10s.jpg,tomato_sauce_09s.jpg,,,,,,,,,,,,,,,,,,,,,,
,,,,,,,,,1.0,,,17,1.0,1.0,1.86066,0.0,5.0,5.0,5.0,1.0,pencil_sharpener_09n.jpg,tortilla_06s.jpg,,,,,,,,,,,,,,,,,,,,,,
,,,,,,,,,,,,17,,,,,,,,,,,0.0,0.0,0.0,0.0,1.0,clockno_present_1_14.xlsx,clockno_compare_task_1_14.xlsx,,,,,,,,,,,,,,,
0.0,1.0,1.138055,0.0,0.0,0.0,0.0,1.0,mousetrap_15n.jpg,0.0,clockno_up.jpg,1.0,17,,,,,,,,,,,,,,,,,,,,,,,,,,,,,,,,
0.0,1.0,0.57615,0.0,1.0,1.0,1.0,1.0,bee_20s.jpg,0.0,clockno_default.jpg,1.0,17,,,,,,,,,,,,,,,,,,,,,,,,,,,,,,,,
1.0,1.0,0.650815,0.0,2.0,2.0,2.0,1.0,bee_20s.jpg,1.0,clockno_default.jpg,1.0,17,,,,,,,,,,,,,,,,,,,,,,,,,,,,,,,,
1.0,1.0,0.571135,0.0,3.0,3.0,3.0,1.0,mousetrap_15n.jpg,1.0,clockno_default.jpg,1.0,17,,,,,,,,,,,,,,,,,,,,,,,,,,,,,,,,
1.0,1.0,0.74723,0.0,4.0,4.0,4.0,1.0,mousetrap_15n.jpg,1.0,clockno_default.jpg,1.0,17,,,,,,,,,,,,,,,,,,,,,,,,,,,,,,,,
0.0,1.0,1.361605,0.0,5.0,5.0,5.0,1.0,birdcage_08s.jpg,0.0,clockno_up.jpg,2.0,17,,,,,,,,,,,,,,,,,,,,,,,,,,,,,,,,
0.0,1.0,0.561915,0.0,6.0,6.0,6.0,1.0,recliner_02s.jpg,0.0,clockno_default.jpg,2.0,17,,,,,,,,,,,,,,,,,,,,,,,,,,,,,,,,
0.0,1.0,0.61543,0.0,7.0,7.0,7.0,1.0,plunger_08s.jpg,0.0,clockno_default.jpg,2.0,17,,,,,,,,,,,,,,,,,,,,,,,,,,,,,,,,
0.0,1.0,0.783255,0.0,8.0,8.0,8.0,1.0,marker_05s.jpg,0.0,clockno_default.jpg,2.0,17,,,,,,,,,,,,,,,,,,,,,,,,,,,,,,,,
0.0,1.0,0.64039,0.0,9.0,9.0,9.0,1.0,rocking_horse_03s.jpg,0.0,clockno_default.jpg,2.0,17,,,,,,,,,,,,,,,,,,,,,,,,,,,,,,,,
0.0,1.0,0.675665,0.0,10.0,10.0,10.0,1.0,tape_06s.jpg,0.0,clockno_default.jpg,2.0,17,,,,,,,,,,,,,,,,,,,,,,,,,,,,,,,,
0.0,1.0,0.676255,0.0,11.0,11.0,11.0,1.0,plaster_cast_13s.jpg,0.0,clockno_default.jpg,2.0,17,,,,,,,,,,,,,,,,,,,,,,,,,,,,,,,,
0.0,1.0,0.819645,0.0,12.0,12.0,12.0,1.0,diving_board_07s.jpg,0.0,clockno_up.jpg,3.0,17,,,,,,,,,,,,,,,,,,,,,,,,,,,,,,,,
0.0,1.0,1.546515,0.0,13.0,13.0,13.0,1.0,ring_03s.jpg,0.0,clockno_default.jpg,3.0,17,,,,,,,,,,,,,,,,,,,,,,,,,,,,,,,,
0.0,1.0,0.49495,0.0,14.0,14.0,14.0,1.0,lollipop_08s.jpg,0.0,clockno_default.jpg,3.0,17,,,,,,,,,,,,,,,,,,,,,,,,,,,,,,,,
1.0,1.0,0.609345,0.0,15.0,15.0,15.0,1.0,diving_board_07s.jpg,1.0,clockno_default.jpg,3.0,17,,,,,,,,,,,,,,,,,,,,,,,,,,,,,,,,
0.0,1.0,0.912535,0.0,16.0,16.0,16.0,1.0,marker_05s.jpg,0.0,clockno_default.jpg,3.0,17,,,,,,,,,,,,,,,,,,,,,,,,,,,,,,,,
0.0,1.0,0.83855,0.0,17.0,17.0,17.0,1.0,rooster_03s.jpg,0.0,clockno_default.jpg,3.0,17,,,,,,,,,,,,,,,,,,,,,,,,,,,,,,,,
0.0,1.0,0.60468,0.0,18.0,18.0,18.0,1.0,bolo_tie_08s.jpg,0.0,clockno_up.jpg,4.0,17,,,,,,,,,,,,,,,,,,,,,,,,,,,,,,,,
1.0,1.0,0.849755,0.0,19.0,19.0,19.0,1.0,bolo_tie_08s.jpg,1.0,clockno_default.jpg,4.0,17,,,,,,,,,,,,,,,,,,,,,,,,,,,,,,,,
1.0,1.0,0.74324,0.0,20.0,20.0,20.0,1.0,bolo_tie_08s.jpg,1.0,clockno_default.jpg,4.0,17,,,,,,,,,,,,,,,,,,,,,,,,,,,,,,,,
0.0,1.0,0.557775,0.0,21.0,21.0,21.0,1.0,lion_18s.jpg,0.0,clockno_default.jpg,4.0,17,,,,,,,,,,,,,,,,,,,,,,,,,,,,,,,,
0.0,1.0,0.611615,0.0,22.0,22.0,22.0,1.0,ladle_04s.jpg,0.0,clockno_default.jpg,4.0,17,,,,,,,,,,,,,,,,,,,,,,,,,,,,,,,,
0.0,1.0,0.742155,0.0,23.0,23.0,23.0,1.0,bank_06s.jpg,0.0,clockno_default.jpg,4.0,17,,,,,,,,,,,,,,,,,,,,,,,,,,,,,,,,
0.0,1.0,0.674715,0.0,24.0,24.0,24.0,1.0,turtleneck_11s.jpg,0.0,clockno_default.jpg,4.0,17,,,,,,,,,,,,,,,,,,,,,,,,,,,,,,,,
0.0,1.0,0.711685,0.0,25.0,25.0,25.0,1.0,funnel_01b.jpg,0.0,clockno_up.jpg,5.0,17,,,,,,,,,,,,,,,,,,,,,,,,,,,,,,,,
0.0,1.0,0.5055,0.0,26.0,26.0,26.0,1.0,antenna_01b.jpg,0.0,clockno_default.jpg,5.0,17,,,,,,,,,,,,,,,,,,,,,,,,,,,,,,,,
0.0,1.0,0.61453,0.0,27.0,27.0,27.0,1.0,juicer2_06s.jpg,0.0,clockno_default.jpg,5.0,17,,,,,,,,,,,,,,,,,,,,,,,,,,,,,,,,
1.0,1.0,0.83617,0.0,28.0,28.0,28.0,1.0,funnel_01b.jpg,1.0,clockno_default.jpg,5.0,17,,,,,,,,,,,,,,,,,,,,,,,,,,,,,,,,
0.0,1.0,0.64135,0.0,29.0,29.0,29.0,1.0,sunflower_17s.jpg,0.0,clockno_default.jpg,5.0,17,,,,,,,,,,,,,,,,,,,,,,,,,,,,,,,,
0.0,1.0,0.57553,0.0,30.0,30.0,30.0,1.0,crayon_09s.jpg,0.0,clockno_default.jpg,5.0,17,,,,,,,,,,,,,,,,,,,,,,,,,,,,,,,,
0.0,1.0,0.78272,0.0,31.0,31.0,31.0,1.0,gas_mask_11s.jpg,0.0,clockno_up.jpg,6.0,17,,,,,,,,,,,,,,,,,,,,,,,,,,,,,,,,
0.0,1.0,0.65628,0.0,32.0,32.0,32.0,1.0,inhaler_01b.jpg,0.0,clockno_default.jpg,6.0,17,,,,,,,,,,,,,,,,,,,,,,,,,,,,,,,,
1.0,1.0,0.74694,0.0,33.0,33.0,33.0,1.0,gas_mask_11s.jpg,1.0,clockno_default.jpg,6.0,17,,,,,,,,,,,,,,,,,,,,,,,,,,,,,,,,
0.0,1.0,0.61037,0.0,34.0,34.0,34.0,1.0,sunglasses_11s.jpg,0.0,clockno_default.jpg,6.0,17,,,,,,,,,,,,,,,,,,,,,,,,,,,,,,,,
0.0,1.0,0.577375,0.0,35.0,35.0,35.0,1.0,rooster_03s.jpg,0.0,clockno_default.jpg,6.0,17,,,,,,,,,,,,,,,,,,,,,,,,,,,,,,,,
,,,,,,,,,1.0,,,17,1.0,1.0,2.70235,0.0,0.0,0.0,0.0,1.0,plaster_cast_13s.jpg,lollipop_08s.jpg,,,,,,,,,,,,,,,,,,,,,,
,,,,,,,,,1.0,,,17,1.0,1.0,1.90117,0.0,1.0,1.0,1.0,1.0,tape_06s.jpg,ring_03s.jpg,,,,,,,,,,,,,,,,,,,,,,
,,,,,,,,,1.0,,,17,0.0,0.0,2.080935,0.0,2.0,2.0,2.0,1.0,bank_06s.jpg,antenna_01b.jpg,,,,,,,,,,,,,,,,,,,,,,
,,,,,,,,,1.0,,,17,0.0,0.0,2.590925,0.0,3.0,3.0,3.0,1.0,recliner_02s.jpg,rocking_horse_03s.jpg,,,,,,,,,,,,,,,,,,,,,,
,,,,,,,,,0.0,,,17,0.0,1.0,1.42038,0.0,4.0,4.0,4.0,1.0,turtleneck_11s.jpg,lion_18s.jpg,,,,,,,,,,,,,,,,,,,,,,
,,,,,,,,,1.0,,,17,0.0,0.0,1.70002,0.0,5.0,5.0,5.0,1.0,juicer2_06s.jpg,crayon_09s.jpg,,,,,,,,,,,,,,,,,,,,,,
,,,,,,,,,,,,17,,,,,,,,,,,0.0,1.0,1.0,1.0,1.0,clockno_present_2_14.xlsx,clockno_compare_task_2_14.xlsx,,,,,,,,,,,,,,,
0.0,1.0,0.95124,0.0,0.0,0.0,0.0,1.0,phone_01b.jpg,0.0,clockno_up.jpg,1.0,17,,,,,,,,,,,,,,,,,,,,,,,,,,,,,,,,
1.0,1.0,0.729085,0.0,1.0,1.0,1.0,1.0,phone_01b.jpg,1.0,clockno_default.jpg,1.0,17,,,,,,,,,,,,,,,,,,,,,,,,,,,,,,,,
0.0,1.0,0.66075,0.0,2.0,2.0,2.0,1.0,pan_02s.jpg,0.0,clockno_default.jpg,1.0,17,,,,,,,,,,,,,,,,,,,,,,,,,,,,,,,,
0.0,1.0,0.83903,0.0,3.0,3.0,3.0,1.0,turnstile_08s.jpg,0.0,clockno_default.jpg,1.0,17,,,,,,,,,,,,,,,,,,,,,,,,,,,,,,,,
0.0,1.0,0.81383,0.0,4.0,4.0,4.0,1.0,rolling_pin_02s.jpg,0.0,clockno_default.jpg,1.0,17,,,,,,,,,,,,,,,,,,,,,,,,,,,,,,,,
0.0,1.0,0.78973,0.0,5.0,5.0,5.0,1.0,rocket_02s.jpg,0.0,clockno_default.jpg,1.0,17,,,,,,,,,,,,,,,,,,,,,,,,,,,,,,,,
0.0,1.0,0.60363,0.0,6.0,6.0,6.0,1.0,cape_11s.jpg,0.0,clockno_default.jpg,1.0,17,,,,,,,,,,,,,,,,,,,,,,,,,,,,,,,,
0.0,1.0,0.60713,0.0,7.0,7.0,7.0,1.0,tube_top_03s.jpg,0.0,clockno_up.jpg,2.0,17,,,,,,,,,,,,,,,,,,,,,,,,,,,,,,,,
0.0,1.0,0.54082,0.0,8.0,8.0,8.0,1.0,gingerbread_man_03s.jpg,0.0,clockno_default.jpg,2.0,17,,,,,,,,,,,,,,,,,,,,,,,,,,,,,,,,
0.0,1.0,0.52729,0.0,9.0,9.0,9.0,1.0,bottle_opener_11s.jpg,0.0,clockno_default.jpg,2.0,17,,,,,,,,,,,,,,,,,,,,,,,,,,,,,,,,
0.0,1.0,0.535745,0.0,10.0,10.0,10.0,1.0,light_switch_02s.jpg,0.0,clockno_default.jpg,2.0,17,,,,,,,,,,,,,,,,,,,,,,,,,,,,,,,,
1.0,1.0,0.63038,0.0,11.0,11.0,11.0,1.0,gingerbread_man_03s.jpg,1.0,clockno_default.jpg,2.0,17,,,,,,,,,,,,,,,,,,,,,,,,,,,,,,,,
0.0,1.0,1.16145,0.0,12.0,12.0,12.0,1.0,turf_03s.jpg,0.0,clockno_up.jpg,3.0,17,,,,,,,,,,,,,,,,,,,,,,,,,,,,,,,,
0.0,1.0,0.492075,0.0,13.0,13.0,13.0,1.0,poinsettia_04s.jpg,0.0,clockno_default.jpg,3.0,17,,,,,,,,,,,,,,,,,,,,,,,,,,,,,,,,
1.0,1.0,0.564045,0.0,14.0,14.0,14.0,1.0,turf_03s.jpg,1.0,clockno_default.jpg,3.0,17,,,,,,,,,,,,,,,,,,,,,,,,,,,,,,,,
0.0,1.0,0.47693,0.0,15.0,15.0,15.0,1.0,quilt_03s.jpg,0.0,clockno_default.jpg,3.0,17,,,,,,,,,,,,,,,,,,,,,,,,,,,,,,,,
0.0,1.0,0.451035,0.0,16.0,16.0,16.0,1.0,tube_top_03s.jpg,0.0,clockno_default.jpg,3.0,17,,,,,,,,,,,,,,,,,,,,,,,,,,,,,,,,
0.0,1.0,0.504965,0.0,17.0,17.0,17.0,1.0,compass_10n.jpg,0.0,clockno_default.jpg,3.0,17,,,,,,,,,,,,,,,,,,,,,,,,,,,,,,,,
0.0,1.0,0.613835,0.0,18.0,18.0,18.0,1.0,fur_coat_11s.jpg,0.0,clockno_default.jpg,3.0,17,,,,,,,,,,,,,,,,,,,,,,,,,,,,,,,,
0.0,1.0,0.575775,0.0,19.0,19.0,19.0,1.0,squirt_gun_03s.jpg,0.0,clockno_up.jpg,4.0,17,,,,,,,,,,,,,,,,,,,,,,,,,,,,,,,,
1.0,1.0,0.692055,0.0,20.0,20.0,20.0,1.0,squirt_gun_03s.jpg,1.0,clockno_default.jpg,4.0,17,,,,,,,,,,,,,,,,,,,,,,,,,,,,,,,,
0.0,1.0,0.49593,0.0,21.0,21.0,21.0,1.0,candy_cane_06s.jpg,0.0,clockno_default.jpg,4.0,17,,,,,,,,,,,,,,,,,,,,,,,,,,,,,,,,
0.0,1.0,0.507915,0.0,22.0,22.0,22.0,1.0,boar_10s.jpg,0.0,clockno_default.jpg,4.0,17,,,,,,,,,,,,,,,,,,,,,,,,,,,,,,,,
0.0,1.0,0.693875,0.0,23.0,23.0,23.0,1.0,poinsettia_04s.jpg,0.0,clockno_default.jpg,4.0,17,,,,,,,,,,,,,,,,,,,,,,,,,,,,,,,,
0.0,1.0,0.53971,0.0,24.0,24.0,24.0,1.0,possum_09s.jpg,0.0,clockno_default.jpg,4.0,17,,,,,,,,,,,,,,,,,,,,,,,,,,,,,,,,
0.0,1.0,0.64768,0.0,25.0,25.0,25.0,1.0,cobra_05s.jpg,0.0,clockno_up.jpg,5.0,17,,,,,,,,,,,,,,,,,,,,,,,,,,,,,,,,
0.0,1.0,0.76331,0.0,26.0,26.0,26.0,1.0,chopsticks_08s.jpg,0.0,clockno_default.jpg,5.0,17,,,,,,,,,,,,,,,,,,,,,,,,,,,,,,,,
0.0,1.0,1.59474,0.0,27.0,27.0,27.0,1.0,fossil_06s.jpg,0.0,clockno_default.jpg,5.0,17,,,,,,,,,,,,,,,,,,,,,,,,,,,,,,,,
1.0,1.0,0.764125,0.0,28.0,28.0,28.0,1.0,fossil_06s.jpg,1.0,clockno_default.jpg,5.0,17,,,,,,,,,,,,,,,,,,,,,,,,,,,,,,,,
0.0,1.0,0.506955,0.0,29.0,29.0,29.0,1.0,padlock_07s.jpg,0.0,clockno_default.jpg,5.0,17,,,,,,,,,,,,,,,,,,,,,,,,,,,,,,,,
0.0,1.0,0.59011,0.0,30.0,30.0,30.0,1.0,soda_fountain_03s.jpg,0.0,clockno_up.jpg,6.0,17,,,,,,,,,,,,,,,,,,,,,,,,,,,,,,,,
0.0,1.0,0.653425,0.0,31.0,31.0,31.0,1.0,pipe1_10s.jpg,0.0,clockno_default.jpg,6.0,17,,,,,,,,,,,,,,,,,,,,,,,,,,,,,,,,
0.0,1.0,0.945585,0.0,32.0,32.0,32.0,1.0,loom_05s.jpg,0.0,clockno_default.jpg,6.0,17,,,,,,,,,,,,,,,,,,,,,,,,,,,,,,,,
0.0,1.0,0.77758,0.0,33.0,33.0,33.0,1.0,jersey_02s.jpg,0.0,clockno_default.jpg,6.0,17,,,,,,,,,,,,,,,,,,,,,,,,,,,,,,,,
0.0,1.0,0.93896,0.0,34.0,34.0,34.0,1.0,mop_08s.jpg,0.0,clockno_default.jpg,6.0,17,,,,,,,,,,,,,,,,,,,,,,,,,,,,,,,,
0.0,1.0,0.742075,0.0,35.0,35.0,35.0,1.0,puppet_01b.jpg,0.0,clockno_default.jpg,6.0,17,,,,,,,,,,,,,,,,,,,,,,,,,,,,,,,,
,,,,,,,,,1.0,,,17,1.0,1.0,1.70431,0.0,0.0,0.0,0.0,1.0,boar_10s.jpg,cobra_05s.jpg,,,,,,,,,,,,,,,,,,,,,,
,,,,,,,,,0.0,,,17,1.0,0.0,1.57968,0.0,1.0,1.0,1.0,1.0,bottle_opener_11s.jpg,cape_11s.jpg,,,,,,,,,,,,,,,,,,,,,,
,,,,,,,,,0.0,,,17,0.0,1.0,3.673155,0.0,2.0,2.0,2.0,1.0,candy_cane_06s.jpg,fur_coat_11s.jpg,,,,,,,,,,,,,,,,,,,,,,
,,,,,,,,,0.0,,,17,0.0,1.0,1.32665,0.0,3.0,3.0,3.0,1.0,rocket_02s.jpg,pan_02s.jpg,,,,,,,,,,,,,,,,,,,,,,
,,,,,,,,,1.0,,,17,1.0,1.0,1.66269,0.0,4.0,4.0,4.0,1.0,soda_fountain_03s.jpg,jersey_02s.jpg,,,,,,,,,,,,,,,,,,,,,,
,,,,,,,,,0.0,,,17,0.0,1.0,3.22436,0.0,5.0,5.0,5.0,1.0,mop_08s.jpg,pipe1_10s.jpg,,,,,,,,,,,,,,,,,,,,,,
,,,,,,,,,,,,17,,,,,,,,,,,0.0,2.0,2.0,2.0,1.0,clockno_present_3_14.xlsx,clockno_compare_task_3_14.xlsx,,,,,,,,,,,,,,,
0.0,1.0,0.68498,0.0,0.0,0.0,0.0,1.0,beard_16s.jpg,0.0,clockno_up.jpg,1.0,17,,,,,,,,,,,,,,,,,,,,,,,,,,,,,,,,
1.0,1.0,1.67978,0.0,1.0,1.0,1.0,1.0,beard_16s.jpg,1.0,clockno_default.jpg,1.0,17,,,,,,,,,,,,,,,,,,,,,,,,,,,,,,,,
0.0,1.0,0.51351,0.0,2.0,2.0,2.0,1.0,printer_09s.jpg,0.0,clockno_default.jpg,1.0,17,,,,,,,,,,,,,,,,,,,,,,,,,,,,,,,,
0.0,1.0,0.67811,0.0,3.0,3.0,3.0,1.0,juicer1_08s.jpg,0.0,clockno_default.jpg,1.0,17,,,,,,,,,,,,,,,,,,,,,,,,,,,,,,,,
0.0,1.0,0.51488,0.0,4.0,4.0,4.0,1.0,cotton_candy_01b.jpg,0.0,clockno_default.jpg,1.0,17,,,,,,,,,,,,,,,,,,,,,,,,,,,,,,,,
0.0,1.0,0.491675,0.0,5.0,5.0,5.0,1.0,tape_measure_11s.jpg,0.0,clockno_up.jpg,2.0,17,,,,,,,,,,,,,,,,,,,,,,,,,,,,,,,,
0.0,1.0,0.699635,0.0,6.0,6.0,6.0,1.0,beard_16s.jpg,0.0,clockno_default.jpg,2.0,17,,,,,,,,,,,,,,,,,,,,,,,,,,,,,,,,
0.0,1.0,0.540685,0.0,7.0,7.0,7.0,1.0,trampoline_13s.jpg,0.0,clockno_default.jpg,2.0,17,,,,,,,,,,,,,,,,,,,,,,,,,,,,,,,,
1.0,1.0,0.759235,0.0,8.0,8.0,8.0,1.0,trampoline_13s.jpg,1.0,clockno_default.jpg,2.0,17,,,,,,,,,,,,,,,,,,,,,,,,,,,,,,,,
1.0,1.0,0.666305,0.0,9.0,9.0,9.0,1.0,trampoline_13s.jpg,1.0,clockno_default.jpg,2.0,17,,,,,,,,,,,,,,,,,,,,,,,,,,,,,,,,
0.0,1.0,0.672375,0.0,10.0,10.0,10.0,1.0,kangaroo_02s.jpg,0.0,clockno_default.jpg,2.0,17,,,,,,,,,,,,,,,,,,,,,,,,,,,,,,,,
0.0,1.0,0.640795,0.0,11.0,11.0,11.0,1.0,mirror_12s.jpg,0.0,clockno_default.jpg,2.0,17,,,,,,,,,,,,,,,,,,,,,,,,,,,,,,,,
0.0,1.0,0.959525,0.0,12.0,12.0,12.0,1.0,powder_07s.jpg,0.0,clockno_up.jpg,3.0,17,,,,,,,,,,,,,,,,,,,,,,,,,,,,,,,,
0.0,1.0,0.689035,0.0,13.0,13.0,13.0,1.0,rollerskate_03s.jpg,0.0,clockno_default.jpg,3.0,17,,,,,,,,,,,,,,,,,,,,,,,,,,,,,,,,
0.0,1.0,0.75749,0.0,14.0,14.0,14.0,1.0,gear_07s.jpg,0.0,clockno_default.jpg,3.0,17,,,,,,,,,,,,,,,,,,,,,,,,,,,,,,,,
0.0,1.0,0.767485,0.0,15.0,15.0,15.0,1.0,playpen_11s.jpg,0.0,clockno_default.jpg,3.0,17,,,,,,,,,,,,,,,,,,,,,,,,,,,,,,,,
1.0,1.0,0.73526,0.0,16.0,16.0,16.0,1.0,playpen_11s.jpg,1.0,clockno_default.jpg,3.0,17,,,,,,,,,,,,,,,,,,,,,,,,,,,,,,,,
0.0,1.0,0.638545,0.0,17.0,17.0,17.0,1.0,keyhole_03s.jpg,0.0,clockno_up.jpg,4.0,17,,,,,,,,,,,,,,,,,,,,,,,,,,,,,,,,
0.0,1.0,0.719515,0.0,18.0,18.0,18.0,1.0,spoon02a.jpg,0.0,clockno_default.jpg,4.0,17,,,,,,,,,,,,,,,,,,,,,,,,,,,,,,,,
0.0,1.0,0.739755,0.0,19.0,19.0,19.0,1.0,mud_13s.jpg,0.0,clockno_default.jpg,4.0,17,,,,,,,,,,,,,,,,,,,,,,,,,,,,,,,,
0.0,1.0,0.6419,0.0,20.0,20.0,20.0,1.0,pea_11s.jpg,0.0,clockno_default.jpg,4.0,17,,,,,,,,,,,,,,,,,,,,,,,,,,,,,,,,
1.0,1.0,1.106645,0.0,21.0,21.0,21.0,1.0,spoon02a.jpg,1.0,clockno_default.jpg,4.0,17,,,,,,,,,,,,,,,,,,,,,,,,,,,,,,,,
0.0,1.0,0.69744,0.0,22.0,22.0,22.0,1.0,turtle_08s.jpg,0.0,clockno_default.jpg,4.0,17,,,,,,,,,,,,,,,,,,,,,,,,,,,,,,,,
0.0,1.0,0.81575,0.0,23.0,23.0,23.0,1.0,tattoo_14s.jpg,0.0,clockno_up.jpg,5.0,17,,,,,,,,,,,,,,,,,,,,,,,,,,,,,,,,
0.0,1.0,0.626925,0.0,24.0,24.0,24.0,1.0,mirror_12s.jpg,0.0,clockno_default.jpg,5.0,17,,,,,,,,,,,,,,,,,,,,,,,,,,,,,,,,
0.0,1.0,0.55609,0.0,25.0,25.0,25.0,1.0,tie_03s.jpg,0.0,clockno_default.jpg,5.0,17,,,,,,,,,,,,,,,,,,,,,,,,,,,,,,,,
0.0,1.0,0.88638,0.0,26.0,26.0,26.0,1.0,printer_09s.jpg,0.0,clockno_default.jpg,5.0,17,,,,,,,,,,,,,,,,,,,,,,,,,,,,,,,,
0.0,1.0,0.674975,0.0,27.0,27.0,27.0,1.0,roller_coaster_07s.jpg,0.0,clockno_default.jpg,5.0,17,,,,,,,,,,,,,,,,,,,,,,,,,,,,,,,,
1.0,1.0,0.852145,0.0,28.0,28.0,28.0,1.0,tattoo_14s.jpg,1.0,clockno_default.jpg,5.0,17,,,,,,,,,,,,,,,,,,,,,,,,,,,,,,,,
0.0,1.0,0.781925,0.0,29.0,29.0,29.0,1.0,toy_04s.jpg,0.0,clockno_default.jpg,5.0,17,,,,,,,,,,,,,,,,,,,,,,,,,,,,,,,,
0.0,1.0,1.499895,0.0,30.0,30.0,30.0,1.0,projector_08s.jpg,0.0,clockno_up.jpg,6.0,17,,,,,,,,,,,,,,,,,,,,,,,,,,,,,,,,
0.0,1.0,0.612715,0.0,31.0,31.0,31.0,1.0,ink_08s.jpg,0.0,clockno_default.jpg,6.0,17,,,,,,,,,,,,,,,,,,,,,,,,,,,,,,,,
0.0,1.0,0.57664,0.0,32.0,32.0,32.0,1.0,teabag_12s.jpg,0.0,clockno_default.jpg,6.0,17,,,,,,,,,,,,,,,,,,,,,,,,,,,,,,,,
0.0,1.0,0.533,0.0,33.0,33.0,33.0,1.0,tongs_08s.jpg,0.0,clockno_default.jpg,6.0,17,,,,,,,,,,,,,,,,,,,,,,,,,,,,,,,,
0.0,1.0,0.456595,0.0,34.0,34.0,34.0,1.0,power_line_08s.jpg,0.0,clockno_default.jpg,6.0,17,,,,,,,,,,,,,,,,,,,,,,,,,,,,,,,,
0.0,1.0,0.562985,0.0,35.0,35.0,35.0,1.0,margarita_03s.jpg,0.0,clockno_default.jpg,6.0,17,,,,,,,,,,,,,,,,,,,,,,,,,,,,,,,,
,,,,,,,,,0.0,,,17,1.0,0.0,6.51855,0.0,0.0,0.0,0.0,1.0,rollerskate_03s.jpg,kangaroo_02s.jpg,,,,,,,,,,,,,,,,,,,,,,
,,,,,,,,,0.0,,,17,0.0,1.0,2.07456,0.0,1.0,1.0,1.0,1.0,keyhole_03s.jpg,gear_07s.jpg,,,,,,,,,,,,,,,,,,,,,,
,,,,,,,,,0.0,,,17,1.0,0.0,4.39151,0.0,2.0,2.0,2.0,1.0,tie_03s.jpg,turtle_08s.jpg,,,,,,,,,,,,,,,,,,,,,,
,,,,,,,,,1.0,,,17,0.0,0.0,2.87287,0.0,3.0,3.0,3.0,1.0,ink_08s.jpg,power_line_08s.jpg,,,,,,,,,,,,,,,,,,,,,,
,,,,,,,,,0.0,,,17,1.0,0.0,1.75812,0.0,4.0,4.0,4.0,1.0,tongs_08s.jpg,projector_08s.jpg,,,,,,,,,,,,,,,,,,,,,,
,,,,,,,,,1.0,,,17,1.0,1.0,1.86791,0.0,5.0,5.0,5.0,1.0,teabag_12s.jpg,margarita_03s.jpg,,,,,,,,,,,,,,,,,,,,,,
,,,,,,,,,,,,17,,,,,,,,,,,0.0,3.0,3.0,3.0,1.0,clockno_present_4_14.xlsx,clockno_compare_task_4_14.xlsx,,,,,,,,,,,,,,,
0.0,1.0,1.930105,0.0,0.0,0.0,0.0,1.0,camcorder_10s.jpg,0.0,clockno_up.jpg,1.0,17,,,,,,,,,,,,,,,,,,,,,,,,,,,,,,,,
0.0,1.0,0.493645,0.0,1.0,1.0,1.0,1.0,mixer_12s.jpg,0.0,clockno_default.jpg,1.0,17,,,,,,,,,,,,,,,,,,,,,,,,,,,,,,,,
0.0,1.0,0.542875,0.0,2.0,2.0,2.0,1.0,comic_book_02s.jpg,0.0,clockno_default.jpg,1.0,17,,,,,,,,,,,,,,,,,,,,,,,,,,,,,,,,
0.0,1.0,0.566355,0.0,3.0,3.0,3.0,1.0,treasure_08s.jpg,0.0,clockno_default.jpg,1.0,17,,,,,,,,,,,,,,,,,,,,,,,,,,,,,,,,
1.0,1.0,0.99607,0.0,4.0,4.0,4.0,1.0,treasure_08s.jpg,1.0,clockno_default.jpg,1.0,17,,,,,,,,,,,,,,,,,,,,,,,,,,,,,,,,
0.0,1.0,0.610455,0.0,5.0,5.0,5.0,1.0,metronome_03s.jpg,0.0,clockno_default.jpg,1.0,17,,,,,,,,,,,,,,,,,,,,,,,,,,,,,,,,
1.0,1.0,0.839465,0.0,6.0,6.0,6.0,1.0,treasure_08s.jpg,1.0,clockno_default.jpg,1.0,17,,,,,,,,,,,,,,,,,,,,,,,,,,,,,,,,
0.0,1.0,0.898735,0.0,7.0,7.0,7.0,1.0,golf_club_03s.jpg,0.0,clockno_up.jpg,2.0,17,,,,,,,,,,,,,,,,,,,,,,,,,,,,,,,,
0.0,1.0,0.594295,0.0,8.0,8.0,8.0,1.0,ruby_15s.jpg,0.0,clockno_default.jpg,2.0,17,,,,,,,,,,,,,,,,,,,,,,,,,,,,,,,,
0.0,1.0,0.76736,0.0,9.0,9.0,9.0,1.0,purse_05s.jpg,0.0,clockno_default.jpg,2.0,17,,,,,,,,,,,,,,,,,,,,,,,,,,,,,,,,
0.0,1.0,0.50341,0.0,10.0,10.0,10.0,1.0,top_hat_11s.jpg,0.0,clockno_default.jpg,2.0,17,,,,,,,,,,,,,,,,,,,,,,,,,,,,,,,,
0.0,1.0,0.603895,0.0,11.0,11.0,11.0,1.0,peach_04s.jpg,0.0,clockno_default.jpg,2.0,17,,,,,,,,,,,,,,,,,,,,,,,,,,,,,,,,
0.0,1.0,1.05501,0.0,12.0,12.0,12.0,1.0,coffee_filter_10s.jpg,0.0,clockno_up.jpg,3.0,17,,,,,,,,,,,,,,,,,,,,,,,,,,,,,,,,
0.0,1.0,0.494805,0.0,13.0,13.0,13.0,1.0,tiger_06s.jpg,0.0,clockno_default.jpg,3.0,17,,,,,,,,,,,,,,,,,,,,,,,,,,,,,,,,
0.0,1.0,0.522815,0.0,14.0,14.0,14.0,1.0,feather02.jpg,0.0,clockno_default.jpg,3.0,17,,,,,,,,,,,,,,,,,,,,,,,,,,,,,,,,
0.0,1.0,0.574895,0.0,15.0,15.0,15.0,1.0,coral_08s.jpg,0.0,clockno_default.jpg,3.0,17,,,,,,,,,,,,,,,,,,,,,,,,,,,,,,,,
0.0,1.0,0.513045,0.0,16.0,16.0,16.0,1.0,knitting_needle_04s.jpg,0.0,clockno_default.jpg,3.0,17,,,,,,,,,,,,,,,,,,,,,,,,,,,,,,,,
0.0,1.0,0.90908,0.0,17.0,17.0,17.0,1.0,coat_rack_01b.jpg,0.0,clockno_up.jpg,4.0,17,,,,,,,,,,,,,,,,,,,,,,,,,,,,,,,,
0.0,1.0,0.60881,0.0,18.0,18.0,18.0,1.0,coral_08s.jpg,0.0,clockno_default.jpg,4.0,17,,,,,,,,,,,,,,,,,,,,,,,,,,,,,,,,
0.0,1.0,0.72951,0.0,19.0,19.0,19.0,1.0,knitting_needle_04s.jpg,0.0,clockno_default.jpg,4.0,17,,,,,,,,,,,,,,,,,,,,,,,,,,,,,,,,
1.0,1.0,0.686195,0.0,20.0,20.0,20.0,1.0,coat_rack_01b.jpg,1.0,clockno_default.jpg,4.0,17,,,,,,,,,,,,,,,,,,,,,,,,,,,,,,,,
0.0,1.0,0.66874,0.0,21.0,21.0,21.0,1.0,pacifier_09s.jpg,0.0,clockno_default.jpg,4.0,17,,,,,,,,,,,,,,,,,,,,,,,,,,,,,,,,
0.0,1.0,0.89297,0.0,22.0,22.0,22.0,1.0,ruby_15s.jpg,0.0,clockno_default.jpg,4.0,17,,,,,,,,,,,,,,,,,,,,,,,,,,,,,,,,
0.0,1.0,0.82576,0.0,23.0,23.0,23.0,1.0,rocking_chair_05s.jpg,0.0,clockno_up.jpg,5.0,17,,,,,,,,,,,,,,,,,,,,,,,,,,,,,,,,
0.0,1.0,1.43349,0.0,24.0,24.0,24.0,1.0,binder_21s.jpg,0.0,clockno_default.jpg,5.0,17,,,,,,,,,,,,,,,,,,,,,,,,,,,,,,,,
0.0,1.0,0.61542,0.0,25.0,25.0,25.0,1.0,rudder_02s.jpg,0.0,clockno_default.jpg,5.0,17,,,,,,,,,,,,,,,,,,,,,,,,,,,,,,,,
0.0,1.0,0.742575,0.0,26.0,26.0,26.0,1.0,totem_pole_05s.jpg,0.0,clockno_default.jpg,5.0,17,,,,,,,,,,,,,,,,,,,,,,,,,,,,,,,,
1.0,1.0,0.62831,0.0,27.0,27.0,27.0,1.0,totem_pole_05s.jpg,1.0,clockno_default.jpg,5.0,17,,,,,,,,,,,,,,,,,,,,,,,,,,,,,,,,
0.0,1.0,0.68204,0.0,28.0,28.0,28.0,1.0,memory_stick_11s.jpg,0.0,clockno_default.jpg,5.0,17,,,,,,,,,,,,,,,,,,,,,,,,,,,,,,,,
0.0,1.0,1.129645,0.0,29.0,29.0,29.0,1.0,slingshot_07s.jpg,0.0,clockno_up.jpg,6.0,17,,,,,,,,,,,,,,,,,,,,,,,,,,,,,,,,
1.0,1.0,0.73071,0.0,30.0,30.0,30.0,1.0,slingshot_07s.jpg,1.0,clockno_default.jpg,6.0,17,,,,,,,,,,,,,,,,,,,,,,,,,,,,,,,,
0.0,1.0,0.604,0.0,31.0,31.0,31.0,1.0,duck_01b.jpg,0.0,clockno_default.jpg,6.0,17,,,,,,,,,,,,,,,,,,,,,,,,,,,,,,,,
0.0,1.0,0.518075,0.0,32.0,32.0,32.0,1.0,fox_13s.jpg,0.0,clockno_default.jpg,6.0,17,,,,,,,,,,,,,,,,,,,,,,,,,,,,,,,,
0.0,1.0,0.541015,0.0,33.0,33.0,33.0,1.0,popcorn_09s.jpg,0.0,clockno_default.jpg,6.0,17,,,,,,,,,,,,,,,,,,,,,,,,,,,,,,,,
1.0,1.0,1.28135,0.0,34.0,34.0,34.0,1.0,duck_01b.jpg,1.0,clockno_default.jpg,6.0,17,,,,,,,,,,,,,,,,,,,,,,,,,,,,,,,,
0.0,1.0,0.61468,0.0,35.0,35.0,35.0,1.0,stamp2_08s.jpg,0.0,clockno_default.jpg,6.0,17,,,,,,,,,,,,,,,,,,,,,,,,,,,,,,,,
,,,,,,,,,0.0,,,17,0.0,1.0,1.973945,0.0,0.0,0.0,0.0,1.0,coffee_filter_10s.jpg,purse_05s.jpg,,,,,,,,,,,,,,,,,,,,,,
,,,,,,,,,1.0,,,17,1.0,1.0,1.471755,0.0,1.0,1.0,1.0,1.0,peach_04s.jpg,feather02.jpg,,,,,,,,,,,,,,,,,,,,,,
,,,,,,,,,0.0,,,17,0.0,1.0,2.04406,0.0,2.0,2.0,2.0,1.0,binder_21s.jpg,pacifier_09s.jpg,,,,,,,,,,,,,,,,,,,,,,
,,,,,,,,,1.0,,,17,1.0,1.0,1.8435,0.0,3.0,3.0,3.0,1.0,comic_book_02s.jpg,metronome_03s.jpg,,,,,,,,,,,,,,,,,,,,,,
,,,,,,,,,1.0,,,17,1.0,1.0,2.51458,0.0,4.0,4.0,4.0,1.0,rudder_02s.jpg,memory_stick_11s.jpg,,,,,,,,,,,,,,,,,,,,,,
,,,,,,,,,0.0,,,17,0.0,1.0,2.57627,0.0,5.0,5.0,5.0,1.0,stamp2_08s.jpg,fox_13s.jpg,,,,,,,,,,,,,,,,,,,,,,
,,,,,,,,,,,,17,,,,,,,,,,,0.0,4.0,4.0,4.0,1.0,clockno_present_5_14.xlsx,clockno_compare_task_5_14.xlsx,,,,,,,,,,,,,,,
0.0,1.0,1.597745,0.0,0.0,0.0,0.0,1.0,popsicle_02s.jpg,0.0,clockno_up.jpg,1.0,17,,,,,,,,,,,,,,,,,,,,,,,,,,,,,,,,
0.0,1.0,0.578475,0.0,1.0,1.0,1.0,1.0,emerald_02s.jpg,0.0,clockno_default.jpg,1.0,17,,,,,,,,,,,,,,,,,,,,,,,,,,,,,,,,
1.0,1.0,0.830785,0.0,2.0,2.0,2.0,1.0,popsicle_02s.jpg,1.0,clockno_default.jpg,1.0,17,,,,,,,,,,,,,,,,,,,,,,,,,,,,,,,,
0.0,1.0,0.72839,0.0,3.0,3.0,3.0,1.0,glue_01s.jpg,0.0,clockno_default.jpg,1.0,17,,,,,,,,,,,,,,,,,,,,,,,,,,,,,,,,
1.0,1.0,0.631695,0.0,4.0,4.0,4.0,1.0,popsicle_02s.jpg,1.0,clockno_default.jpg,1.0,17,,,,,,,,,,,,,,,,,,,,,,,,,,,,,,,,
1.0,1.0,0.84194,0.0,5.0,5.0,5.0,1.0,emerald_02s.jpg,1.0,clockno_default.jpg,1.0,17,,,,,,,,,,,,,,,,,,,,,,,,,,,,,,,,
0.0,1.0,0.830485,0.0,6.0,6.0,6.0,1.0,pillbox_04s.jpg,0.0,clockno_up.jpg,2.0,17,,,,,,,,,,,,,,,,,,,,,,,,,,,,,,,,
0.0,1.0,0.49605,0.0,7.0,7.0,7.0,1.0,scooter.jpg,0.0,clockno_default.jpg,2.0,17,,,,,,,,,,,,,,,,,,,,,,,,,,,,,,,,
0.0,1.0,0.532805,0.0,8.0,8.0,8.0,1.0,cardinal_07s.jpg,0.0,clockno_default.jpg,2.0,17,,,,,,,,,,,,,,,,,,,,,,,,,,,,,,,,
1.0,1.0,0.627875,0.0,9.0,9.0,9.0,1.0,cardinal_07s.jpg,1.0,clockno_default.jpg,2.0,17,,,,,,,,,,,,,,,,,,,,,,,,,,,,,,,,
0.0,1.0,0.65121,0.0,10.0,10.0,10.0,1.0,chip_04s.jpg,0.0,clockno_default.jpg,2.0,17,,,,,,,,,,,,,,,,,,,,,,,,,,,,,,,,
0.0,1.0,0.53063,0.0,11.0,11.0,11.0,1.0,owl_15s.jpg,0.0,clockno_up.jpg,3.0,17,,,,,,,,,,,,,,,,,,,,,,,,,,,,,,,,
1.0,1.0,0.81015,0.0,12.0,12.0,12.0,1.0,owl_15s.jpg,1.0,clockno_default.jpg,3.0,17,,,,,,,,,,,,,,,,,,,,,,,,,,,,,,,,
0.0,1.0,0.68741,0.0,13.0,13.0,13.0,1.0,mango_09s.jpg,0.0,clockno_default.jpg,3.0,17,,,,,,,,,,,,,,,,,,,,,,,,,,,,,,,,
0.0,1.0,0.675675,0.0,14.0,14.0,14.0,1.0,pantyhose_07s.jpg,0.0,clockno_default.jpg,3.0,17,,,,,,,,,,,,,,,,,,,,,,,,,,,,,,,,
0.0,1.0,0.64276,0.0,15.0,15.0,15.0,1.0,coconut_08s.jpg,0.0,clockno_default.jpg,3.0,17,,,,,,,,,,,,,,,,,,,,,,,,,,,,,,,,
0.0,1.0,0.67614,0.0,16.0,16.0,16.0,1.0,potholder_02s.jpg,0.0,clockno_default.jpg,3.0,17,,,,,,,,,,,,,,,,,,,,,,,,,,,,,,,,
0.0,1.0,0.823295,0.0,17.0,17.0,17.0,1.0,solar_panel_02s.jpg,0.0,clockno_up.jpg,4.0,17,,,,,,,,,,,,,,,,,,,,,,,,,,,,,,,,
0.0,1.0,0.626545,0.0,18.0,18.0,18.0,1.0,touchpad_11s.jpg,0.0,clockno_default.jpg,4.0,17,,,,,,,,,,,,,,,,,,,,,,,,,,,,,,,,
0.0,1.0,0.456715,0.0,19.0,19.0,19.0,1.0,rice_12s.jpg,0.0,clockno_default.jpg,4.0,17,,,,,,,,,,,,,,,,,,,,,,,,,,,,,,,,
0.0,1.0,0.62758,0.0,20.0,20.0,20.0,1.0,machete_06s.jpg,0.0,clockno_default.jpg,4.0,17,,,,,,,,,,,,,,,,,,,,,,,,,,,,,,,,
1.0,1.0,1.05951,0.0,21.0,21.0,21.0,1.0,touchpad_11s.jpg,1.0,clockno_default.jpg,4.0,17,,,,,,,,,,,,,,,,,,,,,,,,,,,,,,,,
0.0,1.0,0.598055,0.0,22.0,22.0,22.0,1.0,trumpet_06s.jpg,0.0,clockno_default.jpg,4.0,17,,,,,,,,,,,,,,,,,,,,,,,,,,,,,,,,
1.0,1.0,0.7757,0.0,23.0,23.0,23.0,1.0,touchpad_11s.jpg,1.0,clockno_default.jpg,4.0,17,,,,,,,,,,,,,,,,,,,,,,,,,,,,,,,,
0.0,1.0,0.736645,0.0,24.0,24.0,24.0,1.0,lamb_04s.jpg,0.0,clockno_up.jpg,5.0,17,,,,,,,,,,,,,,,,,,,,,,,,,,,,,,,,
0.0,1.0,0.54402,0.0,25.0,25.0,25.0,1.0,cucumber_07s.jpg,0.0,clockno_default.jpg,5.0,17,,,,,,,,,,,,,,,,,,,,,,,,,,,,,,,,
0.0,1.0,0.59394,0.0,26.0,26.0,26.0,1.0,police_car_01s.jpg,0.0,clockno_default.jpg,5.0,17,,,,,,,,,,,,,,,,,,,,,,,,,,,,,,,,
0.0,1.0,0.597115,0.0,27.0,27.0,27.0,1.0,latte_06s.jpg,0.0,clockno_default.jpg,5.0,17,,,,,,,,,,,,,,,,,,,,,,,,,,,,,,,,
1.0,1.0,0.857255,0.0,28.0,28.0,28.0,1.0,police_car_01s.jpg,1.0,clockno_default.jpg,5.0,17,,,,,,,,,,,,,,,,,,,,,,,,,,,,,,,,
0.0,1.0,0.58049,0.0,29.0,29.0,29.0,1.0,crab_16s.jpg,0.0,clockno_default.jpg,5.0,17,,,,,,,,,,,,,,,,,,,,,,,,,,,,,,,,
0.0,1.0,0.67258,0.0,30.0,30.0,30.0,1.0,toaster_03s.jpg,0.0,clockno_default.jpg,5.0,17,,,,,,,,,,,,,,,,,,,,,,,,,,,,,,,,
0.0,1.0,0.964145,0.0,31.0,31.0,31.0,1.0,parachute_03s.jpg,0.0,clockno_up.jpg,6.0,17,,,,,,,,,,,,,,,,,,,,,,,,,,,,,,,,
0.0,1.0,0.520845,0.0,32.0,32.0,32.0,1.0,punch2_09s.jpg,0.0,clockno_default.jpg,6.0,17,,,,,,,,,,,,,,,,,,,,,,,,,,,,,,,,
0.0,1.0,0.84886,0.0,33.0,33.0,33.0,1.0,touchpad_11s.jpg,0.0,clockno_default.jpg,6.0,17,,,,,,,,,,,,,,,,,,,,,,,,,,,,,,,,
0.0,1.0,0.882215,0.0,34.0,34.0,34.0,1.0,ginger_09s.jpg,0.0,clockno_default.jpg,6.0,17,,,,,,,,,,,,,,,,,,,,,,,,,,,,,,,,
1.0,1.0,0.72408,0.0,35.0,35.0,35.0,1.0,ginger_09s.jpg,1.0,clockno_default.jpg,6.0,17,,,,,,,,,,,,,,,,,,,,,,,,,,,,,,,,
,,,,,,,,,1.0,,,17,1.0,1.0,1.67745,0.0,0.0,0.0,0.0,1.0,glue_01s.jpg,pillbox_04s.jpg,,,,,,,,,,,,,,,,,,,,,,
,,,,,,,,,0.0,,,17,0.0,1.0,5.301695,0.0,1.0,1.0,1.0,1.0,punch2_09s.jpg,crab_16s.jpg,,,,,,,,,,,,,,,,,,,,,,
,,,,,,,,,0.0,,,17,1.0,0.0,3.57526,0.0,2.0,2.0,2.0,1.0,solar_panel_02s.jpg,pantyhose_07s.jpg,,,,,,,,,,,,,,,,,,,,,,
,,,,,,,,,0.0,,,17,0.0,1.0,3.090025,0.0,3.0,3.0,3.0,1.0,latte_06s.jpg,lamb_04s.jpg,,,,,,,,,,,,,,,,,,,,,,
,,,,,,,,,1.0,,,17,0.0,0.0,1.331595,0.0,4.0,4.0,4.0,1.0,scooter.jpg,chip_04s.jpg,,,,,,,,,,,,,,,,,,,,,,
,,,,,,,,,1.0,,,17,0.0,0.0,2.09565,0.0,5.0,5.0,5.0,1.0,mango_09s.jpg,potholder_02s.jpg,,,,,,,,,,,,,,,,,,,,,,
,0.0,,,,,,,throne_11s.jpg,0.0,clock_7_1.png,1.0,17,,,,,,,,,,,,,,,,,,0.0,0.0,0.0,0.0,1.0,,,,,,,,,,
,0.0,,,,,,,swimming_pool_17s.jpg,0.0,clock_7_2.png,1.0,17,,,,,,,,,,,,,,,,,,0.0,1.0,1.0,1.0,1.0,,,,,,,,,,
,0.0,,,,,,,blowfish_03s.jpg,0.0,clock_7_3.png,1.0,17,,,,,,,,,,,,,,,,,,0.0,2.0,2.0,2.0,1.0,,,,,,,,,,
,0.0,,,,,,,throne_11s.jpg,1.0,clock_7_4.png,1.0,17,,,,,,,,,,,,,,,,,,0.0,3.0,3.0,3.0,1.0,,,,,,,,,,
,0.0,,,,,,,basket_05s.jpg,0.0,clock_7_5.png,1.0,17,,,,,,,,,,,,,,,,,,0.0,4.0,4.0,4.0,1.0,,,,,,,,,,
,0.0,,,,,,,rhubarb_03s.jpg,0.0,clock_7_6.png,1.0,17,,,,,,,,,,,,,,,,,,0.0,5.0,5.0,5.0,1.0,,,,,,,,,,
,0.0,,,,,,,throne_11s.jpg,1.0,clock_7_7.png,1.0,17,,,,,,,,,,,,,,,,,,0.0,6.0,6.0,6.0,1.0,,,,,,,,,,
,0.0,,,,,,,tupperware_09s.jpg,0.0,clock_5_1.png,2.0,17,,,,,,,,,,,,,,,,,,0.0,7.0,7.0,7.0,1.0,,,,,,,,,,
,0.0,,,,,,,seagull_01b.jpg,0.0,clock_5_2.png,2.0,17,,,,,,,,,,,,,,,,,,0.0,8.0,8.0,8.0,1.0,,,,,,,,,,
,0.0,,,,,,,kitten_07s.jpg,0.0,clock_5_3.png,2.0,17,,,,,,,,,,,,,,,,,,0.0,9.0,9.0,9.0,1.0,,,,,,,,,,
,0.0,,,,,,,crate_05s.jpg,0.0,clock_5_4.png,2.0,17,,,,,,,,,,,,,,,,,,0.0,10.0,10.0,10.0,1.0,,,,,,,,,,
,0.0,,,,,,,pocket_watch_16s.jpg,0.0,clock_5_5.png,2.0,17,,,,,,,,,,,,,,,,,,0.0,11.0,11.0,11.0,1.0,,,,,,,,,,
,0.0,,,,,,,pocketknife_12s.jpg,0.0,clock_6_1.png,3.0,17,,,,,,,,,,,,,,,,,,0.0,12.0,12.0,12.0,1.0,,,,,,,,,,
,0.0,,,,,,,jalapeno_15s.jpg,0.0,clock_6_2.png,3.0,17,,,,,,,,,,,,,,,,,,0.0,13.0,13.0,13.0,1.0,,,,,,,,,,
,0.0,,,,,,,tupperware_09s.jpg,0.0,clock_6_3.png,3.0,17,,,,,,,,,,,,,,,,,,0.0,14.0,14.0,14.0,1.0,,,,,,,,,,
,0.0,,,,,,,stapler_01b.jpg,0.0,clock_6_4.png,3.0,17,,,,,,,,,,,,,,,,,,0.0,15.0,15.0,15.0,1.0,,,,,,,,,,
,0.0,,,,,,,cap_05s.jpg,0.0,clock_6_5.png,3.0,17,,,,,,,,,,,,,,,,,,0.0,16.0,16.0,16.0,1.0,,,,,,,,,,
,0.0,,,,,,,lavender_10s.jpg,0.0,clock_6_6.png,3.0,17,,,,,,,,,,,,,,,,,,0.0,17.0,17.0,17.0,1.0,,,,,,,,,,
,0.0,,,,,,,racehorse_03s.jpg,0.0,clock_6_1.png,4.0,17,,,,,,,,,,,,,,,,,,0.0,18.0,18.0,18.0,1.0,,,,,,,,,,
,0.0,,,,,,,teacup_07s.jpg,0.0,clock_6_2.png,4.0,17,,,,,,,,,,,,,,,,,,0.0,19.0,19.0,19.0,1.0,,,,,,,,,,
,0.0,,,,,,,lip_gloss_06s.jpg,0.0,clock_6_3.png,4.0,17,,,,,,,,,,,,,,,,,,0.0,20.0,20.0,20.0,1.0,,,,,,,,,,
,0.0,,,,,,,racehorse_03s.jpg,1.0,clock_6_4.png,4.0,17,,,,,,,,,,,,,,,,,,0.0,21.0,21.0,21.0,1.0,,,,,,,,,,
,0.0,,,,,,,lip_gloss_06s.jpg,1.0,clock_6_5.png,4.0,17,,,,,,,,,,,,,,,,,,0.0,22.0,22.0,22.0,1.0,,,,,,,,,,
,0.0,,,,,,,seahorse_13s.jpg,0.0,clock_6_6.png,4.0,17,,,,,,,,,,,,,,,,,,0.0,23.0,23.0,23.0,1.0,,,,,,,,,,
,0.0,,,,,,,tuxedo_01b.jpg,0.0,clock_5_1.png,5.0,17,,,,,,,,,,,,,,,,,,0.0,24.0,24.0,24.0,1.0,,,,,,,,,,
,0.0,,,,,,,ice-cream_cone_06s.jpg,0.0,clock_5_2.png,5.0,17,,,,,,,,,,,,,,,,,,0.0,25.0,25.0,25.0,1.0,,,,,,,,,,
,0.0,,,,,,,jukebox_03n.jpg,0.0,clock_5_3.png,5.0,17,,,,,,,,,,,,,,,,,,0.0,26.0,26.0,26.0,1.0,,,,,,,,,,
,0.0,,,,,,,ice-cream_cone_06s.jpg,1.0,clock_5_4.png,5.0,17,,,,,,,,,,,,,,,,,,0.0,27.0,27.0,27.0,1.0,,,,,,,,,,
,0.0,,,,,,,teacup_07s.jpg,0.0,clock_5_5.png,5.0,17,,,,,,,,,,,,,,,,,,0.0,28.0,28.0,28.0,1.0,,,,,,,,,,
,0.0,,,,,,,rope_16s.jpg,0.0,clock_7_1.png,6.0,17,,,,,,,,,,,,,,,,,,0.0,29.0,29.0,29.0,1.0,,,,,,,,,,
,0.0,,,,,,,fork_04s.jpg,0.0,clock_7_2.png,6.0,17,,,,,,,,,,,,,,,,,,0.0,30.0,30.0,30.0,1.0,,,,,,,,,,
,0.0,,,,,,,rope_16s.jpg,1.0,clock_7_3.png,6.0,17,,,,,,,,,,,,,,,,,,0.0,31.0,31.0,31.0,1.0,,,,,,,,,,
,0.0,,,,,,,fork_04s.jpg,1.0,clock_7_4.png,6.0,17,,,,,,,,,,,,,,,,,,0.0,32.0,32.0,32.0,1.0,,,,,,,,,,
,0.0,,,,,,,stump_02s.jpg,0.0,clock_7_5.png,6.0,17,,,,,,,,,,,,,,,,,,0.0,33.0,33.0,33.0,1.0,,,,,,,,,,
,0.0,,,,,,,air_pump_05s.jpg,0.0,clock_7_6.png,6.0,17,,,,,,,,,,,,,,,,,,0.0,34.0,34.0,34.0,1.0,,,,,,,,,,
,0.0,,,,,,,air_pump_05s.jpg,1.0,clock_7_7.png,6.0,17,,,,,,,,,,,,,,,,,,0.0,35.0,35.0,35.0,1.0,,,,,,,,,,
,,,,,,,,,0.0,,,17,1.0,0.0,5.055225,,,,,,jukebox_03n.jpg,seahorse_13s.jpg,,,,,,,,,,,,,0.0,0.0,0.0,0.0,1.0,,,,,
,,,,,,,,,1.0,,,17,0.0,0.0,3.275725,,,,,,kitten_07s.jpg,pocketknife_12s.jpg,,,,,,,,,,,,,0.0,1.0,1.0,1.0,1.0,,,,,
,,,,,,,,,0.0,,,17,1.0,0.0,3.20849,,,,,,jalapeno_15s.jpg,crate_05s.jpg,,,,,,,,,,,,,0.0,2.0,2.0,2.0,1.0,,,,,
,,,,,,,,,0.0,,,17,0.0,1.0,1.11792,,,,,,basket_05s.jpg,swimming_pool_17s.jpg,,,,,,,,,,,,,0.0,3.0,3.0,3.0,1.0,,,,,
,,,,,,,,,0.0,,,17,0.0,1.0,1.875685,,,,,,rhubarb_03s.jpg,blowfish_03s.jpg,,,,,,,,,,,,,0.0,4.0,4.0,4.0,1.0,,,,,
,,,,,,,,,1.0,,,17,0.0,0.0,1.79926,,,,,,seagull_01b.jpg,pocket_watch_16s.jpg,,,,,,,,,,,,,0.0,5.0,5.0,5.0,1.0,,,,,
,,,,,,,,,,,,17,,,,,,,,,,,,,,,,clock_present_1_14.xlsx,clock_compare_task_1_14.xlsx,,,,,,,,,,,0.0,0.0,0.0,0.0,1.0
,0.0,,,,,,,bagel_15s.jpg,0.0,clock_5_1.png,1.0,17,,,,,,,,,,,,,,,,,,0.0,0.0,0.0,0.0,1.0,,,,,,,,,,
0.0,1.0,0.634745,,,,,,rabbit_03s.jpg,0.0,clock_5_2.png,1.0,17,,,,,,,,,,,,,,,,,,0.0,1.0,1.0,1.0,1.0,,,,,,,,,,
0.0,0.0,1.04922,,,,,,bagel_15s.jpg,1.0,clock_5_3.png,1.0,17,,,,,,,,,,,,,,,,,,0.0,2.0,2.0,2.0,1.0,,,,,,,,,,
0.0,1.0,0.45905,,,,,,key_07s.jpg,0.0,clock_5_4.png,1.0,17,,,,,,,,,,,,,,,,,,0.0,3.0,3.0,3.0,1.0,,,,,,,,,,
0.0,1.0,0.689815,,,,,,mascara_03s.jpg,0.0,clock_5_5.png,1.0,17,,,,,,,,,,,,,,,,,,0.0,4.0,4.0,4.0,1.0,,,,,,,,,,
0.0,1.0,0.6953,,,,,,knot_01b.jpg,0.0,clock_6_1.png,2.0,17,,,,,,,,,,,,,,,,,,0.0,5.0,5.0,5.0,1.0,,,,,,,,,,
0.0,1.0,0.709595,,,,,,measuring_cup_02s.jpg,0.0,clock_6_2.png,2.0,17,,,,,,,,,,,,,,,,,,0.0,6.0,6.0,6.0,1.0,,,,,,,,,,
0.0,1.0,1.072265,,,,,,syringe_02s.jpg,0.0,clock_6_3.png,2.0,17,,,,,,,,,,,,,,,,,,0.0,7.0,7.0,7.0,1.0,,,,,,,,,,
1.0,1.0,1.14946,,,,,,knot_01b.jpg,1.0,clock_6_4.png,2.0,17,,,,,,,,,,,,,,,,,,0.0,8.0,8.0,8.0,1.0,,,,,,,,,,
0.0,1.0,0.529225,,,,,,pancake_12s.jpg,0.0,clock_6_5.png,2.0,17,,,,,,,,,,,,,,,,,,0.0,9.0,9.0,9.0,1.0,,,,,,,,,,
0.0,1.0,0.58005,,,,,,saddle_06s.jpg,0.0,clock_6_6.png,2.0,17,,,,,,,,,,,,,,,,,,0.0,10.0,10.0,10.0,1.0,,,,,,,,,,
0.0,1.0,0.94503,,,,,,stingray_02s.jpg,0.0,clock_7_1.png,3.0,17,,,,,,,,,,,,,,,,,,0.0,11.0,11.0,11.0,1.0,,,,,,,,,,
0.0,1.0,0.304485,,,,,,pancake_12s.jpg,0.0,clock_7_2.png,3.0,17,,,,,,,,,,,,,,,,,,0.0,12.0,12.0,12.0,1.0,,,,,,,,,,
0.0,1.0,0.258235,,,,,,kite_04s.jpg,0.0,clock_7_3.png,3.0,17,,,,,,,,,,,,,,,,,,0.0,13.0,13.0,13.0,1.0,,,,,,,,,,
0.0,1.0,0.246845,,,,,,pincushion_10s.jpg,0.0,clock_7_4.png,3.0,17,,,,,,,,,,,,,,,,,,0.0,14.0,14.0,14.0,1.0,,,,,,,,,,
0.0,1.0,0.523715,,,,,,ice_pack_09s.jpg,0.0,clock_7_5.png,3.0,17,,,,,,,,,,,,,,,,,,0.0,15.0,15.0,15.0,1.0,,,,,,,,,,
1.0,1.0,2.00944,,,,,,kite_04s.jpg,1.0,clock_7_6.png,3.0,17,,,,,,,,,,,,,,,,,,0.0,16.0,16.0,16.0,1.0,,,,,,,,,,
0.0,1.0,0.539495,,,,,,thumbtack_14s.jpg,0.0,clock_7_7.png,3.0,17,,,,,,,,,,,,,,,,,,0.0,17.0,17.0,17.0,1.0,,,,,,,,,,
0.0,1.0,0.41441,,,,,,stamp1_11s.jpg,0.0,clock_5_1.png,4.0,17,,,,,,,,,,,,,,,,,,0.0,18.0,18.0,18.0,1.0,,,,,,,,,,
1.0,1.0,0.842455,,,,,,stamp1_11s.jpg,1.0,clock_5_2.png,4.0,17,,,,,,,,,,,,,,,,,,0.0,19.0,19.0,19.0,1.0,,,,,,,,,,
0.0,1.0,0.465045,,,,,,lizard_10n.jpg,0.0,clock_5_3.png,4.0,17,,,,,,,,,,,,,,,,,,0.0,20.0,20.0,20.0,1.0,,,,,,,,,,
0.0,1.0,0.41771,,,,,,toilet_paper_12s.jpg,0.0,clock_5_4.png,4.0,17,,,,,,,,,,,,,,,,,,0.0,21.0,21.0,21.0,1.0,,,,,,,,,,
0.0,1.0,0.458,,,,,,gong_02s.jpg,0.0,clock_5_5.png,4.0,17,,,,,,,,,,,,,,,,,,0.0,22.0,22.0,22.0,1.0,,,,,,,,,,
0.0,1.0,0.544255,,,,,,rake_06s.jpg,0.0,clock_6_1.png,5.0,17,,,,,,,,,,,,,,,,,,0.0,23.0,23.0,23.0,1.0,,,,,,,,,,
0.0,1.0,0.39401,,,,,,syringe_02s.jpg,0.0,clock_6_2.png,5.0,17,,,,,,,,,,,,,,,,,,0.0,24.0,24.0,24.0,1.0,,,,,,,,,,
0.0,1.0,0.72839,,,,,,thumbtack_14s.jpg,0.0,clock_6_3.png,5.0,17,,,,,,,,,,,,,,,,,,0.0,25.0,25.0,25.0,1.0,,,,,,,,,,
0.0,1.0,0.447785,,,,,,boomerang_06s.jpg,0.0,clock_6_4.png,5.0,17,,,,,,,,,,,,,,,,,,0.0,26.0,26.0,26.0,1.0,,,,,,,,,,
0.0,1.0,0.43948,,,,,,kayak_08s.jpg,0.0,clock_6_5.png,5.0,17,,,,,,,,,,,,,,,,,,0.0,27.0,27.0,27.0,1.0,,,,,,,,,,
0.0,1.0,0.415435,,,,,,fountain_pen_06s.jpg,0.0,clock_6_6.png,5.0,17,,,,,,,,,,,,,,,,,,0.0,28.0,28.0,28.0,1.0,,,,,,,,,,
0.0,1.0,0.745535,,,,,,contact_lens_15s.jpg,0.0,clock_7_1.png,6.0,17,,,,,,,,,,,,,,,,,,0.0,29.0,29.0,29.0,1.0,,,,,,,,,,
0.0,1.0,0.379815,,,,,,lamb_chop_07s.jpg,0.0,clock_7_2.png,6.0,17,,,,,,,,,,,,,,,,,,0.0,30.0,30.0,30.0,1.0,,,,,,,,,,
0.0,1.0,0.38926,,,,,,pear_02s.jpg,0.0,clock_7_3.png,6.0,17,,,,,,,,,,,,,,,,,,0.0,31.0,31.0,31.0,1.0,,,,,,,,,,
0.0,1.0,0.264,,,,,,potpourri_03s.jpg,0.0,clock_7_4.png,6.0,17,,,,,,,,,,,,,,,,,,0.0,32.0,32.0,32.0,1.0,,,,,,,,,,
1.0,0.0,0.699475,,,,,,pincushion_10s.jpg,0.0,clock_7_5.png,6.0,17,,,,,,,,,,,,,,,,,,0.0,33.0,33.0,33.0,1.0,,,,,,,,,,
0.0,1.0,0.508995,,,,,,foam_03s.jpg,0.0,clock_7_6.png,6.0,17,,,,,,,,,,,,,,,,,,0.0,34.0,34.0,34.0,1.0,,,,,,,,,,
0.0,1.0,0.713745,,,,,,bathtub_23s.jpg,0.0,clock_7_7.png,6.0,17,,,,,,,,,,,,,,,,,,0.0,35.0,35.0,35.0,1.0,,,,,,,,,,
,,,,,,,,,1.0,,,17,0.0,0.0,1.636625,,,,,,key_07s.jpg,measuring_cup_02s.jpg,,,,,,,,,,,,,0.0,0.0,0.0,0.0,1.0,,,,,
,,,,,,,,,1.0,,,17,1.0,1.0,1.849245,,,,,,kayak_08s.jpg,lamb_chop_07s.jpg,,,,,,,,,,,,,0.0,1.0,1.0,1.0,1.0,,,,,
,,,,,,,,,1.0,,,17,1.0,1.0,1.896655,,,,,,lizard_10n.jpg,rake_06s.jpg,,,,,,,,,,,,,0.0,2.0,2.0,2.0,1.0,,,,,
,,,,,,,,,1.0,,,17,0.0,0.0,1.40277,,,,,,rabbit_03s.jpg,mascara_03s.jpg,,,,,,,,,,,,,0.0,3.0,3.0,3.0,1.0,,,,,
,,,,,,,,,1.0,,,17,1.0,1.0,1.1935,,,,,,potpourri_03s.jpg,bathtub_23s.jpg,,,,,,,,,,,,,0.0,4.0,4.0,4.0,1.0,,,,,
,,,,,,,,,0.0,,,17,0.0,1.0,1.3417,,,,,,foam_03s.jpg,pear_02s.jpg,,,,,,,,,,,,,0.0,5.0,5.0,5.0,1.0,,,,,
,,,,,,,,,,,,17,,,,,,,,,,,,,,,,clock_present_2_14.xlsx,clock_compare_task_2_14.xlsx,,,,,,,,,,,0.0,1.0,1.0,1.0,1.0
0.0,1.0,0.982605,,,,,,magnet_03s.jpg,0.0,clock_5_1.png,1.0,17,,,,,,,,,,,,,,,,,,0.0,0.0,0.0,0.0,1.0,,,,,,,,,,
1.0,1.0,0.69667,,,,,,magnet_03s.jpg,1.0,clock_5_2.png,1.0,17,,,,,,,,,,,,,,,,,,0.0,1.0,1.0,1.0,1.0,,,,,,,,,,
0.0,1.0,0.53814,,,,,,insole_11s.jpg,0.0,clock_5_3.png,1.0,17,,,,,,,,,,,,,,,,,,0.0,2.0,2.0,2.0,1.0,,,,,,,,,,
0.0,1.0,0.512365,,,,,,safety_pin_02s.jpg,0.0,clock_5_4.png,1.0,17,,,,,,,,,,,,,,,,,,0.0,3.0,3.0,3.0,1.0,,,,,,,,,,
0.0,1.0,0.473545,,,,,,pie_08s.jpg,0.0,clock_5_5.png,1.0,17,,,,,,,,,,,,,,,,,,0.0,4.0,4.0,4.0,1.0,,,,,,,,,,
0.0,1.0,0.544885,,,,,,flask_04s.jpg,0.0,clock_6_1.png,2.0,17,,,,,,,,,,,,,,,,,,0.0,5.0,5.0,5.0,1.0,,,,,,,,,,
0.0,1.0,0.44649,,,,,,stopwatch_04s.jpg,0.0,clock_6_2.png,2.0,17,,,,,,,,,,,,,,,,,,0.0,6.0,6.0,6.0,1.0,,,,,,,,,,
0.0,1.0,0.4497,,,,,,olive_05s.jpg,0.0,clock_6_3.png,2.0,17,,,,,,,,,,,,,,,,,,0.0,7.0,7.0,7.0,1.0,,,,,,,,,,
0.0,1.0,0.50767,,,,,,laser_pointer_02s.jpg,0.0,clock_6_4.png,2.0,17,,,,,,,,,,,,,,,,,,0.0,8.0,8.0,8.0,1.0,,,,,,,,,,
0.0,1.0,0.448305,,,,,,pie_08s.jpg,0.0,clock_6_5.png,2.0,17,,,,,,,,,,,,,,,,,,0.0,9.0,9.0,9.0,1.0,,,,,,,,,,
0.0,0.0,0.443745,,,,,,laser_pointer_02s.jpg,1.0,clock_6_6.png,2.0,17,,,,,,,,,,,,,,,,,,0.0,10.0,10.0,10.0,1.0,,,,,,,,,,
0.0,1.0,0.82396,,,,,,surfboard_11s.jpg,0.0,clock_6_1.png,3.0,17,,,,,,,,,,,,,,,,,,0.0,11.0,11.0,11.0,1.0,,,,,,,,,,
0.0,1.0,0.464835,,,,,,money_07s.jpg,0.0,clock_6_2.png,3.0,17,,,,,,,,,,,,,,,,,,0.0,12.0,12.0,12.0,1.0,,,,,,,,,,
0.0,1.0,0.585395,,,,,,bubble_01b.jpg,0.0,clock_6_3.png,3.0,17,,,,,,,,,,,,,,,,,,0.0,13.0,13.0,13.0,1.0,,,,,,,,,,
0.0,1.0,0.633855,,,,,,lipstick_02s.jpg,0.0,clock_6_4.png,3.0,17,,,,,,,,,,,,,,,,,,0.0,14.0,14.0,14.0,1.0,,,,,,,,,,
0.0,1.0,0.573135,,,,,,leash_10s.jpg,0.0,clock_6_5.png,3.0,17,,,,,,,,,,,,,,,,,,0.0,15.0,15.0,15.0,1.0,,,,,,,,,,
1.0,0.0,0.959405,,,,,,flask_04s.jpg,0.0,clock_6_6.png,3.0,17,,,,,,,,,,,,,,,,,,0.0,16.0,16.0,16.0,1.0,,,,,,,,,,
0.0,1.0,0.525525,,,,,,puck_06s.jpg,0.0,clock_7_1.png,4.0,17,,,,,,,,,,,,,,,,,,0.0,17.0,17.0,17.0,1.0,,,,,,,,,,
0.0,1.0,0.52435,,,,,,paintbrush_04s.jpg,0.0,clock_7_2.png,4.0,17,,,,,,,,,,,,,,,,,,0.0,18.0,18.0,18.0,1.0,,,,,,,,,,
1.0,1.0,0.60015,,,,,,puck_06s.jpg,1.0,clock_7_3.png,4.0,17,,,,,,,,,,,,,,,,,,0.0,19.0,19.0,19.0,1.0,,,,,,,,,,
0.0,1.0,0.447825,,,,,,tweezers_03s.jpg,0.0,clock_7_4.png,4.0,17,,,,,,,,,,,,,,,,,,0.0,20.0,20.0,20.0,1.0,,,,,,,,,,
1.0,1.0,0.53098,,,,,,puck_06s.jpg,1.0,clock_7_5.png,4.0,17,,,,,,,,,,,,,,,,,,0.0,21.0,21.0,21.0,1.0,,,,,,,,,,
0.0,1.0,0.452705,,,,,,tulip_02s.jpg,0.0,clock_7_6.png,4.0,17,,,,,,,,,,,,,,,,,,0.0,22.0,22.0,22.0,1.0,,,,,,,,,,
0.0,1.0,0.873675,,,,,,bubble_01b.jpg,0.0,clock_7_7.png,4.0,17,,,,,,,,,,,,,,,,,,0.0,23.0,23.0,23.0,1.0,,,,,,,,,,
0.0,1.0,0.646915,,,,,,mattress_01s.jpg,0.0,clock_5_1.png,5.0,17,,,,,,,,,,,,,,,,,,0.0,24.0,24.0,24.0,1.0,,,,,,,,,,
1.0,1.0,0.59385,,,,,,mattress_01s.jpg,1.0,clock_5_2.png,5.0,17,,,,,,,,,,,,,,,,,,0.0,25.0,25.0,25.0,1.0,,,,,,,,,,
0.0,1.0,0.551005,,,,,,puddle_02s.jpg,0.0,clock_5_3.png,5.0,17,,,,,,,,,,,,,,,,,,0.0,26.0,26.0,26.0,1.0,,,,,,,,,,
0.0,1.0,0.501395,,,,,,peanut_butter_08s.jpg,0.0,clock_5_4.png,5.0,17,,,,,,,,,,,,,,,,,,0.0,27.0,27.0,27.0,1.0,,,,,,,,,,
0.0,1.0,0.52385,,,,,,loveseat_08s.jpg,0.0,clock_5_5.png,5.0,17,,,,,,,,,,,,,,,,,,0.0,28.0,28.0,28.0,1.0,,,,,,,,,,
0.0,1.0,0.657535,,,,,,timer_03s.jpg,0.0,clock_7_1.png,6.0,17,,,,,,,,,,,,,,,,,,0.0,29.0,29.0,29.0,1.0,,,,,,,,,,
0.0,1.0,0.567905,,,,,,icicle_04s.jpg,0.0,clock_7_2.png,6.0,17,,,,,,,,,,,,,,,,,,0.0,30.0,30.0,30.0,1.0,,,,,,,,,,
0.0,1.0,0.59119,,,,,,fishhook_06s.jpg,0.0,clock_7_3.png,6.0,17,,,,,,,,,,,,,,,,,,0.0,31.0,31.0,31.0,1.0,,,,,,,,,,
0.0,1.0,0.57405,,,,,,pump_11s.jpg,0.0,clock_7_4.png,6.0,17,,,,,,,,,,,,,,,,,,0.0,32.0,32.0,32.0,1.0,,,,,,,,,,
0.0,1.0,0.53523,,,,,,ukulele_02s.jpg,0.0,clock_7_5.png,6.0,17,,,,,,,,,,,,,,,,,,0.0,33.0,33.0,33.0,1.0,,,,,,,,,,
0.0,1.0,0.50404,,,,,,safety_pin_02s.jpg,0.0,clock_7_6.png,6.0,17,,,,,,,,,,,,,,,,,,0.0,34.0,34.0,34.0,1.0,,,,,,,,,,
0.0,1.0,0.545925,,,,,,sundae_08s.jpg,0.0,clock_7_7.png,6.0,17,,,,,,,,,,,,,,,,,,0.0,35.0,35.0,35.0,1.0,,,,,,,,,,
,,,,,,,,,0.0,,,17,0.0,1.0,2.275785,,,,,,fishhook_06s.jpg,loveseat_08s.jpg,,,,,,,,,,,,,0.0,0.0,0.0,0.0,1.0,,,,,
,,,,,,,,,0.0,,,17,1.0,0.0,1.50754,,,,,,paintbrush_04s.jpg,leash_10s.jpg,,,,,,,,,,,,,0.0,1.0,1.0,1.0,1.0,,,,,
,,,,,,,,,0.0,,,17,1.0,0.0,1.29187,,,,,,timer_03s.jpg,puddle_02s.jpg,,,,,,,,,,,,,0.0,2.0,2.0,2.0,1.0,,,,,
,,,,,,,,,1.0,,,17,0.0,0.0,2.00886,,,,,,surfboard_11s.jpg,lipstick_02s.jpg,,,,,,,,,,,,,0.0,3.0,3.0,3.0,1.0,,,,,
,,,,,,,,,0.0,,,17,0.0,1.0,3.341185,,,,,,sundae_08s.jpg,pump_11s.jpg,,,,,,,,,,,,,0.0,4.0,4.0,4.0,1.0,,,,,
,,,,,,,,,0.0,,,17,0.0,1.0,1.074865,,,,,,ukulele_02s.jpg,icicle_04s.jpg,,,,,,,,,,,,,0.0,5.0,5.0,5.0,1.0,,,,,
,,,,,,,,,,,,17,,,,,,,,,,,,,,,,clock_present_3_14.xlsx,clock_compare_task_3_14.xlsx,,,,,,,,,,,0.0,2.0,2.0,2.0,1.0
0.0,1.0,1.47427,,,,,,mold2_04s.jpg,0.0,clock_5_1.png,1.0,17,,,,,,,,,,,,,,,,,,0.0,0.0,0.0,0.0,1.0,,,,,,,,,,
1.0,1.0,0.68577,,,,,,mold2_04s.jpg,1.0,clock_5_2.png,1.0,17,,,,,,,,,,,,,,,,,,0.0,1.0,1.0,1.0,1.0,,,,,,,,,,
1.0,1.0,0.626955,,,,,,mold2_04s.jpg,1.0,clock_5_3.png,1.0,17,,,,,,,,,,,,,,,,,,0.0,2.0,2.0,2.0,1.0,,,,,,,,,,
1.0,1.0,0.59971,,,,,,mold2_04s.jpg,1.0,clock_5_4.png,1.0,17,,,,,,,,,,,,,,,,,,0.0,3.0,3.0,3.0,1.0,,,,,,,,,,
0.0,1.0,0.559125,,,,,,sledgehammer_03s.jpg,0.0,clock_5_5.png,1.0,17,,,,,,,,,,,,,,,,,,0.0,4.0,4.0,4.0,1.0,,,,,,,,,,
0.0,1.0,0.57453,,,,,,prism_10s.jpg,0.0,clock_7_1.png,2.0,17,,,,,,,,,,,,,,,,,,0.0,5.0,5.0,5.0,1.0,,,,,,,,,,
0.0,1.0,0.61952,,,,,,jewel_01b.jpg,0.0,clock_7_2.png,2.0,17,,,,,,,,,,,,,,,,,,0.0,6.0,6.0,6.0,1.0,,,,,,,,,,
0.0,1.0,0.542115,,,,,,puffin_19s.jpg,0.0,clock_7_3.png,2.0,17,,,,,,,,,,,,,,,,,,0.0,7.0,7.0,7.0,1.0,,,,,,,,,,
0.0,1.0,0.515005,,,,,,screwdriver02a.jpg,0.0,clock_7_4.png,2.0,17,,,,,,,,,,,,,,,,,,0.0,8.0,8.0,8.0,1.0,,,,,,,,,,
0.0,1.0,0.462585,,,,,,thermostat_02s.jpg,0.0,clock_7_5.png,2.0,17,,,,,,,,,,,,,,,,,,0.0,9.0,9.0,9.0,1.0,,,,,,,,,,
0.0,0.0,1.077145,,,,,,jewel_01b.jpg,1.0,clock_7_6.png,2.0,17,,,,,,,,,,,,,,,,,,0.0,10.0,10.0,10.0,1.0,,,,,,,,,,
0.0,0.0,1.45804,,,,,,puffin_19s.jpg,1.0,clock_7_7.png,2.0,17,,,,,,,,,,,,,,,,,,0.0,11.0,11.0,11.0,1.0,,,,,,,,,,
0.0,1.0,0.62403,,,,,,petri_dish_12s.jpg,0.0,clock_6_1.png,3.0,17,,,,,,,,,,,,,,,,,,0.0,12.0,12.0,12.0,1.0,,,,,,,,,,
0.0,1.0,0.609145,,,,,,plug_08s.jpg,0.0,clock_6_2.png,3.0,17,,,,,,,,,,,,,,,,,,0.0,13.0,13.0,13.0,1.0,,,,,,,,,,
0.0,1.0,0.595305,,,,,,hydrant_10s.jpg,0.0,clock_6_3.png,3.0,17,,,,,,,,,,,,,,,,,,0.0,14.0,14.0,14.0,1.0,,,,,,,,,,
1.0,1.0,0.828515,,,,,,petri_dish_12s.jpg,1.0,clock_6_4.png,3.0,17,,,,,,,,,,,,,,,,,,0.0,15.0,15.0,15.0,1.0,,,,,,,,,,
0.0,1.0,0.52364,,,,,,amber_04s.jpg,0.0,clock_6_5.png,3.0,17,,,,,,,,,,,,,,,,,,0.0,16.0,16.0,16.0,1.0,,,,,,,,,,
0.0,1.0,0.480825,,,,,,luggage_08s.jpg,0.0,clock_6_6.png,3.0,17,,,,,,,,,,,,,,,,,,0.0,17.0,17.0,17.0,1.0,,,,,,,,,,
0.0,1.0,0.780685,,,,,,cushion_08s.jpg,0.0,clock_7_1.png,4.0,17,,,,,,,,,,,,,,,,,,0.0,18.0,18.0,18.0,1.0,,,,,,,,,,
0.0,1.0,0.601995,,,,,,mushroom_10n.jpg,0.0,clock_7_2.png,4.0,17,,,,,,,,,,,,,,,,,,0.0,19.0,19.0,19.0,1.0,,,,,,,,,,
0.0,1.0,0.675845,,,,,,puffin_19s.jpg,0.0,clock_7_3.png,4.0,17,,,,,,,,,,,,,,,,,,0.0,20.0,20.0,20.0,1.0,,,,,,,,,,
0.0,1.0,0.72342,,,,,,lasagna_06s.jpg,0.0,clock_7_4.png,4.0,17,,,,,,,,,,,,,,,,,,0.0,21.0,21.0,21.0,1.0,,,,,,,,,,
0.0,1.0,0.559075,,,,,,thorn_13s.jpg,0.0,clock_7_5.png,4.0,17,,,,,,,,,,,,,,,,,,0.0,22.0,22.0,22.0,1.0,,,,,,,,,,
0.0,1.0,0.71733,,,,,,jelly_bean_06s.jpg,0.0,clock_7_6.png,4.0,17,,,,,,,,,,,,,,,,,,0.0,23.0,23.0,23.0,1.0,,,,,,,,,,
0.0,1.0,0.759705,,,,,,mosquito_12s.jpg,0.0,clock_7_7.png,4.0,17,,,,,,,,,,,,,,,,,,0.0,24.0,24.0,24.0,1.0,,,,,,,,,,
0.0,1.0,0.53006,,,,,,triangle_10s.jpg,0.0,clock_6_1.png,5.0,17,,,,,,,,,,,,,,,,,,0.0,25.0,25.0,25.0,1.0,,,,,,,,,,
0.0,1.0,0.482335,,,,,,roulette_wheel_04s.jpg,0.0,clock_6_2.png,5.0,17,,,,,,,,,,,,,,,,,,0.0,26.0,26.0,26.0,1.0,,,,,,,,,,
1.0,1.0,0.77415,,,,,,roulette_wheel_04s.jpg,1.0,clock_6_3.png,5.0,17,,,,,,,,,,,,,,,,,,0.0,27.0,27.0,27.0,1.0,,,,,,,,,,
1.0,0.0,0.897015,,,,,,puffin_19s.jpg,0.0,clock_6_4.png,5.0,17,,,,,,,,,,,,,,,,,,0.0,28.0,28.0,28.0,1.0,,,,,,,,,,
0.0,1.0,0.68993,,,,,,outlet_10s.jpg,0.0,clock_6_5.png,5.0,17,,,,,,,,,,,,,,,,,,0.0,29.0,29.0,29.0,1.0,,,,,,,,,,
0.0,1.0,0.639755,,,,,,abacus_12s.jpg,0.0,clock_6_6.png,5.0,17,,,,,,,,,,,,,,,,,,0.0,30.0,30.0,30.0,1.0,,,,,,,,,,
0.0,1.0,0.695995,,,,,,pencil02a.jpg,0.0,clock_5_1.png,6.0,17,,,,,,,,,,,,,,,,,,0.0,31.0,31.0,31.0,1.0,,,,,,,,,,
0.0,1.0,0.692645,,,,,,pillow_03s.jpg,0.0,clock_5_2.png,6.0,17,,,,,,,,,,,,,,,,,,0.0,32.0,32.0,32.0,1.0,,,,,,,,,,
0.0,0.0,0.592235,,,,,,pencil02a.jpg,1.0,clock_5_3.png,6.0,17,,,,,,,,,,,,,,,,,,0.0,33.0,33.0,33.0,1.0,,,,,,,,,,
0.0,1.0,0.68531,,,,,,towel_rack_04s.jpg,0.0,clock_5_4.png,6.0,17,,,,,,,,,,,,,,,,,,0.0,34.0,34.0,34.0,1.0,,,,,,,,,,
0.0,1.0,0.697025,,,,,,machine_gun_09s.jpg,0.0,clock_5_5.png,6.0,17,,,,,,,,,,,,,,,,,,0.0,35.0,35.0,35.0,1.0,,,,,,,,,,
,,,,,,,,,1.0,,,17,1.0,1.0,2.32168,,,,,,thorn_13s.jpg,triangle_10s.jpg,,,,,,,,,,,,,0.0,0.0,0.0,0.0,1.0,,,,,
,,,,,,,,,0.0,,,17,1.0,0.0,1.30323,,,,,,pillow_03s.jpg,outlet_10s.jpg,,,,,,,,,,,,,0.0,1.0,1.0,1.0,1.0,,,,,
,,,,,,,,,1.0,,,17,0.0,0.0,1.313765,,,,,,amber_04s.jpg,mushroom_10n.jpg,,,,,,,,,,,,,0.0,2.0,2.0,2.0,1.0,,,,,
,,,,,,,,,0.0,,,17,0.0,1.0,1.153555,,,,,,screwdriver02a.jpg,prism_10s.jpg,,,,,,,,,,,,,0.0,3.0,3.0,3.0,1.0,,,,,
,,,,,,,,,1.0,,,17,0.0,0.0,1.24504,,,,,,hydrant_10s.jpg,luggage_08s.jpg,,,,,,,,,,,,,0.0,4.0,4.0,4.0,1.0,,,,,
,,,,,,,,,1.0,,,17,1.0,1.0,2.24026,,,,,,cushion_08s.jpg,lasagna_06s.jpg,,,,,,,,,,,,,0.0,5.0,5.0,5.0,1.0,,,,,
,,,,,,,,,,,,17,,,,,,,,,,,,,,,,clock_present_4_14.xlsx,clock_compare_task_4_14.xlsx,,,,,,,,,,,0.0,3.0,3.0,3.0,1.0
0.0,1.0,0.96937,,,,,,checkbook_11s.jpg,0.0,clock_7_1.png,1.0,17,,,,,,,,,,,,,,,,,,0.0,0.0,0.0,0.0,1.0,,,,,,,,,,
0.0,1.0,0.681175,,,,,,submarine_11n.jpg,0.0,clock_7_2.png,1.0,17,,,,,,,,,,,,,,,,,,0.0,1.0,1.0,1.0,1.0,,,,,,,,,,
0.0,1.0,0.67388,,,,,,doily_13s.jpg,0.0,clock_7_3.png,1.0,17,,,,,,,,,,,,,,,,,,0.0,2.0,2.0,2.0,1.0,,,,,,,,,,
0.0,1.0,0.56383,,,,,,briefcase_03s.jpg,0.0,clock_7_4.png,1.0,17,,,,,,,,,,,,,,,,,,0.0,3.0,3.0,3.0,1.0,,,,,,,,,,
0.0,1.0,0.593865,,,,,,film_03s.jpg,0.0,clock_7_5.png,1.0,17,,,,,,,,,,,,,,,,,,0.0,4.0,4.0,4.0,1.0,,,,,,,,,,
0.0,1.0,0.55818,,,,,,ironing_board_07s.jpg,0.0,clock_7_6.png,1.0,17,,,,,,,,,,,,,,,,,,0.0,5.0,5.0,5.0,1.0,,,,,,,,,,
1.0,1.0,0.66413,,,,,,checkbook_11s.jpg,1.0,clock_7_7.png,1.0,17,,,,,,,,,,,,,,,,,,0.0,6.0,6.0,6.0,1.0,,,,,,,,,,
0.0,1.0,0.477065,,,,,,sushi_08s.jpg,0.0,clock_6_1.png,2.0,17,,,,,,,,,,,,,,,,,,0.0,7.0,7.0,7.0,1.0,,,,,,,,,,
0.0,1.0,0.564305,,,,,,go-kart_10s.jpg,0.0,clock_6_2.png,2.0,17,,,,,,,,,,,,,,,,,,0.0,8.0,8.0,8.0,1.0,,,,,,,,,,
0.0,1.0,0.49115,,,,,,tripod_01b.jpg,0.0,clock_6_3.png,2.0,17,,,,,,,,,,,,,,,,,,0.0,9.0,9.0,9.0,1.0,,,,,,,,,,
0.0,1.0,0.45867,,,,,,tinsel_12s.jpg,0.0,clock_6_4.png,2.0,17,,,,,,,,,,,,,,,,,,0.0,10.0,10.0,10.0,1.0,,,,,,,,,,
0.0,1.0,0.580175,,,,,,microwave_02s.jpg,0.0,clock_6_5.png,2.0,17,,,,,,,,,,,,,,,,,,0.0,11.0,11.0,11.0,1.0,,,,,,,,,,
0.0,1.0,0.517075,,,,,,piano_13n.jpg,0.0,clock_6_6.png,2.0,17,,,,,,,,,,,,,,,,,,0.0,12.0,12.0,12.0,1.0,,,,,,,,,,
0.0,1.0,0.392305,,,,,,panda_02s.jpg,0.0,clock_5_1.png,3.0,17,,,,,,,,,,,,,,,,,,0.0,13.0,13.0,13.0,1.0,,,,,,,,,,
0.0,1.0,0.460055,,,,,,spatula04.jpg,0.0,clock_5_2.png,3.0,17,,,,,,,,,,,,,,,,,,0.0,14.0,14.0,14.0,1.0,,,,,,,,,,
0.0,1.0,0.369585,,,,,,razor_12s.jpg,0.0,clock_5_3.png,3.0,17,,,,,,,,,,,,,,,,,,0.0,15.0,15.0,15.0,1.0,,,,,,,,,,
0.0,1.0,0.458145,,,,,,jet_15s.jpg,0.0,clock_5_4.png,3.0,17,,,,,,,,,,,,,,,,,,0.0,16.0,16.0,16.0,1.0,,,,,,,,,,
0.0,1.0,0.40757,,,,,,spider_web_03s.jpg,0.0,clock_5_5.png,3.0,17,,,,,,,,,,,,,,,,,,0.0,17.0,17.0,17.0,1.0,,,,,,,,,,
0.0,1.0,0.40841,,,,,,lamppost_09s.jpg,0.0,clock_5_1.png,4.0,17,,,,,,,,,,,,,,,,,,0.0,18.0,18.0,18.0,1.0,,,,,,,,,,
0.0,1.0,0.57668,,,,,,kettle_08s.jpg,0.0,clock_5_2.png,4.0,17,,,,,,,,,,,,,,,,,,0.0,19.0,19.0,19.0,1.0,,,,,,,,,,
1.0,1.0,0.69434,,,,,,kettle_08s.jpg,1.0,clock_5_3.png,4.0,17,,,,,,,,,,,,,,,,,,0.0,20.0,20.0,20.0,1.0,,,,,,,,,,
0.0,1.0,0.46924,,,,,,jet_15s.jpg,0.0,clock_5_4.png,4.0,17,,,,,,,,,,,,,,,,,,0.0,21.0,21.0,21.0,1.0,,,,,,,,,,
1.0,1.0,0.55041,,,,,,kettle_08s.jpg,1.0,clock_5_5.png,4.0,17,,,,,,,,,,,,,,,,,,0.0,22.0,22.0,22.0,1.0,,,,,,,,,,
0.0,1.0,0.51767,,,,,,champagne_18s.jpg,0.0,clock_6_1.png,5.0,17,,,,,,,,,,,,,,,,,,0.0,23.0,23.0,23.0,1.0,,,,,,,,,,
0.0,1.0,0.538525,,,,,,radiator_05s.jpg,0.0,clock_6_2.png,5.0,17,,,,,,,,,,,,,,,,,,0.0,24.0,24.0,24.0,1.0,,,,,,,,,,
1.0,1.0,0.54467,,,,,,radiator_05s.jpg,1.0,clock_6_3.png,5.0,17,,,,,,,,,,,,,,,,,,0.0,25.0,25.0,25.0,1.0,,,,,,,,,,
0.0,1.0,0.47606,,,,,,pepper2_21s.jpg,0.0,clock_6_4.png,5.0,17,,,,,,,,,,,,,,,,,,0.0,26.0,26.0,26.0,1.0,,,,,,,,,,
1.0,1.0,0.63598,,,,,,pepper2_21s.jpg,1.0,clock_6_5.png,5.0,17,,,,,,,,,,,,,,,,,,0.0,27.0,27.0,27.0,1.0,,,,,,,,,,
0.0,1.0,0.5313,,,,,,breadstick_08s.jpg,0.0,clock_6_6.png,5.0,17,,,,,,,,,,,,,,,,,,0.0,28.0,28.0,28.0,1.0,,,,,,,,,,
0.0,1.0,0.608435,,,,,,mailbox_11s.jpg,0.0,clock_7_1.png,6.0,17,,,,,,,,,,,,,,,,,,0.0,29.0,29.0,29.0,1.0,,,,,,,,,,
0.0,1.0,0.45777,,,,,,crystal_ball_12s.jpg,0.0,clock_7_2.png,6.0,17,,,,,,,,,,,,,,,,,,0.0,30.0,30.0,30.0,1.0,,,,,,,,,,
1.0,1.0,0.57596,,,,,,crystal_ball_12s.jpg,1.0,clock_7_3.png,6.0,17,,,,,,,,,,,,,,,,,,0.0,31.0,31.0,31.0,1.0,,,,,,,,,,
0.0,1.0,1.860725,,,,,,submarine_11n.jpg,0.0,clock_7_4.png,6.0,17,,,,,,,,,,,,,,,,,,0.0,32.0,32.0,32.0,1.0,,,,,,,,,,
0.0,1.0,0.64875,,,,,,ant_12s.jpg,0.0,clock_7_5.png,6.0,17,,,,,,,,,,,,,,,,,,0.0,33.0,33.0,33.0,1.0,,,,,,,,,,
0.0,1.0,0.50897,,,,,,smokingpipe.jpg,0.0,clock_7_6.png,6.0,17,,,,,,,,,,,,,,,,,,0.0,34.0,34.0,34.0,1.0,,,,,,,,,,
1.0,1.0,0.53443,,,,,,mailbox_11s.jpg,1.0,clock_7_7.png,6.0,17,,,,,,,,,,,,,,,,,,0.0,35.0,35.0,35.0,1.0,,,,,,,,,,
,,,,,,,,,1.0,,,17,1.0,1.0,3.566945,,,,,,razor_12s.jpg,lamppost_09s.jpg,,,,,,,,,,,,,0.0,0.0,0.0,0.0,1.0,,,,,
,,,,,,,,,1.0,,,17,1.0,1.0,1.49864,,,,,,film_03s.jpg,sushi_08s.jpg,,,,,,,,,,,,,0.0,1.0,1.0,1.0,1.0,,,,,
,,,,,,,,,0.0,,,17,0.0,1.0,3.77612,,,,,,panda_02s.jpg,tinsel_12s.jpg,,,,,,,,,,,,,0.0,2.0,2.0,2.0,1.0,,,,,
,,,,,,,,,0.0,,,17,0.0,1.0,1.21551,,,,,,ironing_board_07s.jpg,doily_13s.jpg,,,,,,,,,,,,,0.0,3.0,3.0,3.0,1.0,,,,,
,,,,,,,,,0.0,,,17,1.0,0.0,1.5505,,,,,,piano_13n.jpg,tripod_01b.jpg,,,,,,,,,,,,,0.0,4.0,4.0,4.0,1.0,,,,,
,,,,,,,,,0.0,,,17,1.0,0.0,1.898735,,,,,,spider_web_03s.jpg,spatula04.jpg,,,,,,,,,,,,,0.0,5.0,5.0,5.0,1.0,,,,,
,,,,,,,,,,,,17,,,,,,,,,,,,,,,,clock_present_5_14.xlsx,clock_compare_task_5_14.xlsx,,,,,,,,,,,0.0,4.0,4.0,4.0,1.0
0.0,1.0,0.98257,,,,,,orangutan_03s.jpg,0.0,clock_7_1.png,1.0,17,,,,,,,,,,,,,,,,,,0.0,0.0,0.0,0.0,1.0,,,,,,,,,,
0.0,1.0,0.513415,,,,,,squirrel_02s.jpg,0.0,clock_7_2.png,1.0,17,,,,,,,,,,,,,,,,,,0.0,1.0,1.0,1.0,1.0,,,,,,,,,,
0.0,1.0,0.583745,,,,,,tiara_05s.jpg,0.0,clock_7_3.png,1.0,17,,,,,,,,,,,,,,,,,,0.0,2.0,2.0,2.0,1.0,,,,,,,,,,
1.0,1.0,0.5938,,,,,,squirrel_02s.jpg,1.0,clock_7_4.png,1.0,17,,,,,,,,,,,,,,,,,,0.0,3.0,3.0,3.0,1.0,,,,,,,,,,
1.0,1.0,1.76226,,,,,,tiara_05s.jpg,1.0,clock_7_5.png,1.0,17,,,,,,,,,,,,,,,,,,0.0,4.0,4.0,4.0,1.0,,,,,,,,,,
0.0,1.0,0.72275,,,,,,mannequin_05s.jpg,0.0,clock_7_6.png,1.0,17,,,,,,,,,,,,,,,,,,0.0,5.0,5.0,5.0,1.0,,,,,,,,,,
0.0,1.0,0.483,,,,,,omelet_07s.jpg,0.0,clock_7_7.png,1.0,17,,,,,,,,,,,,,,,,,,0.0,6.0,6.0,6.0,1.0,,,,,,,,,,
0.0,1.0,0.56175,,,,,,buoy_04s.jpg,0.0,clock_5_1.png,2.0,17,,,,,,,,,,,,,,,,,,0.0,7.0,7.0,7.0,1.0,,,,,,,,,,
0.0,1.0,0.608905,,,,,,meatball_13s.jpg,0.0,clock_5_2.png,2.0,17,,,,,,,,,,,,,,,,,,0.0,8.0,8.0,8.0,1.0,,,,,,,,,,
0.0,1.0,0.511045,,,,,,peppermint_07s.jpg,0.0,clock_5_3.png,2.0,17,,,,,,,,,,,,,,,,,,0.0,9.0,9.0,9.0,1.0,,,,,,,,,,
0.0,1.0,0.523975,,,,,,letter_opener_03s.jpg,0.0,clock_5_4.png,2.0,17,,,,,,,,,,,,,,,,,,0.0,10.0,10.0,10.0,1.0,,,,,,,,,,
0.0,1.0,0.49441,,,,,,jigsaw_puzzle_11s.jpg,0.0,clock_5_5.png,2.0,17,,,,,,,,,,,,,,,,,,0.0,11.0,11.0,11.0,1.0,,,,,,,,,,
0.0,1.0,0.48203,,,,,,bean_06s.jpg,0.0,clock_7_1.png,3.0,17,,,,,,,,,,,,,,,,,,0.0,12.0,12.0,12.0,1.0,,,,,,,,,,
1.0,0.0,1.282585,,,,,,tiara_05s.jpg,0.0,clock_7_2.png,3.0,17,,,,,,,,,,,,,,,,,,0.0,13.0,13.0,13.0,1.0,,,,,,,,,,
0.0,1.0,0.54561,,,,,,toothpaste_12s.jpg,0.0,clock_7_3.png,3.0,17,,,,,,,,,,,,,,,,,,0.0,14.0,14.0,14.0,1.0,,,,,,,,,,
0.0,1.0,0.50792,,,,,,toad_09s.jpg,0.0,clock_7_4.png,3.0,17,,,,,,,,,,,,,,,,,,0.0,15.0,15.0,15.0,1.0,,,,,,,,,,
0.0,1.0,0.515445,,,,,,reindeer_08s.jpg,0.0,clock_7_5.png,3.0,17,,,,,,,,,,,,,,,,,,0.0,16.0,16.0,16.0,1.0,,,,,,,,,,
0.0,1.0,0.564375,,,,,,refrigerator_07s.jpg,0.0,clock_7_6.png,3.0,17,,,,,,,,,,,,,,,,,,0.0,17.0,17.0,17.0,1.0,,,,,,,,,,
0.0,1.0,0.853255,,,,,,koala_13s.jpg,0.0,clock_7_7.png,3.0,17,,,,,,,,,,,,,,,,,,0.0,18.0,18.0,18.0,1.0,,,,,,,,,,
0.0,1.0,0.49694,,,,,,umbrella_15s.jpg,0.0,clock_5_1.png,4.0,17,,,,,,,,,,,,,,,,,,0.0,19.0,19.0,19.0,1.0,,,,,,,,,,
0.0,1.0,0.52585,,,,,,lamp_08s.jpg,0.0,clock_5_2.png,4.0,17,,,,,,,,,,,,,,,,,,0.0,20.0,20.0,20.0,1.0,,,,,,,,,,
0.0,1.0,0.58982,,,,,,bacon_05s.jpg,0.0,clock_5_3.png,4.0,17,,,,,,,,,,,,,,,,,,0.0,21.0,21.0,21.0,1.0,,,,,,,,,,
0.0,1.0,0.554835,,,,,,mug_06s.jpg,0.0,clock_5_4.png,4.0,17,,,,,,,,,,,,,,,,,,0.0,22.0,22.0,22.0,1.0,,,,,,,,,,
0.0,1.0,0.5082,,,,,,telephone_pole_05s.jpg,0.0,clock_5_5.png,4.0,17,,,,,,,,,,,,,,,,,,0.0,23.0,23.0,23.0,1.0,,,,,,,,,,
0.0,1.0,0.478305,,,,,,tablet_04s.jpg,0.0,clock_6_1.png,5.0,17,,,,,,,,,,,,,,,,,,0.0,24.0,24.0,24.0,1.0,,,,,,,,,,
0.0,1.0,0.51433,,,,,,flip_flop_03s.jpg,0.0,clock_6_2.png,5.0,17,,,,,,,,,,,,,,,,,,0.0,25.0,25.0,25.0,1.0,,,,,,,,,,
0.0,1.0,0.58941,,,,,,razor_blade_01b.jpg,0.0,clock_6_3.png,5.0,17,,,,,,,,,,,,,,,,,,0.0,26.0,26.0,26.0,1.0,,,,,,,,,,
0.0,1.0,0.49458,,,,,,turkey_10s.jpg,0.0,clock_6_4.png,5.0,17,,,,,,,,,,,,,,,,,,0.0,27.0,27.0,27.0,1.0,,,,,,,,,,
0.0,1.0,0.71011,,,,,,polar_bear_02s.jpg,0.0,clock_6_5.png,5.0,17,,,,,,,,,,,,,,,,,,0.0,28.0,28.0,28.0,1.0,,,,,,,,,,
0.0,1.0,0.560235,,,,,,pomegranate_04s.jpg,0.0,clock_6_6.png,5.0,17,,,,,,,,,,,,,,,,,,0.0,29.0,29.0,29.0,1.0,,,,,,,,,,
0.0,1.0,0.731745,,,,,,jetski_10s.jpg,0.0,clock_6_1.png,6.0,17,,,,,,,,,,,,,,,,,,0.0,30.0,30.0,30.0,1.0,,,,,,,,,,
0.0,1.0,0.604785,,,,,,milk_02s.jpg,0.0,clock_6_2.png,6.0,17,,,,,,,,,,,,,,,,,,0.0,31.0,31.0,31.0,1.0,,,,,,,,,,
0.0,1.0,0.607535,,,,,,undershirt_02s.jpg,0.0,clock_6_3.png,6.0,17,,,,,,,,,,,,,,,,,,0.0,32.0,32.0,32.0,1.0,,,,,,,,,,
0.0,1.0,0.54181,,,,,,megaphone_03s.jpg,0.0,clock_6_4.png,6.0,17,,,,,,,,,,,,,,,,,,0.0,33.0,33.0,33.0,1.0,,,,,,,,,,
0.0,1.0,0.517035,,,,,,licorice_06s.jpg,0.0,clock_6_5.png,6.0,17,,,,,,,,,,,,,,,,,,0.0,34.0,34.0,34.0,1.0,,,,,,,,,,
1.0,1.0,0.79231,,,,,,jetski_10s.jpg,1.0,clock_6_6.png,6.0,17,,,,,,,,,,,,,,,,,,0.0,35.0,35.0,35.0,1.0,,,,,,,,,,
,,,,,,,,,0.0,,,17,0.0,1.0,1.613605,,,,,,peppermint_07s.jpg,omelet_07s.jpg,,,,,,,,,,,,,0.0,0.0,0.0,0.0,1.0,,,,,
,,,,,,,,,0.0,,,17,1.0,0.0,3.22731,,,,,,meatball_13s.jpg,mannequin_05s.jpg,,,,,,,,,,,,,0.0,1.0,1.0,1.0,1.0,,,,,
,,,,,,,,,0.0,,,17,1.0,0.0,1.323425,,,,,,umbrella_15s.jpg,reindeer_08s.jpg,,,,,,,,,,,,,0.0,2.0,2.0,2.0,1.0,,,,,
,,,,,,,,,0.0,,,17,1.0,0.0,1.358835,,,,,,letter_opener_03s.jpg,buoy_04s.jpg,,,,,,,,,,,,,0.0,3.0,3.0,3.0,1.0,,,,,
,,,,,,,,,0.0,,,17,0.0,1.0,1.19401,,,,,,toad_09s.jpg,bean_06s.jpg,,,,,,,,,,,,,0.0,4.0,4.0,4.0,1.0,,,,,
,,,,,,,,,0.0,,,17,0.0,1.0,1.2583,,,,,,turkey_10s.jpg,tablet_04s.jpg,,,,,,,,,,,,,0.0,5.0,5.0,5.0,1.0,,,,,
