key_resp.keys,key_resp.corr,key_resp.rt,present_segment.thisRepN,present_segment.thisTrialN,present_segment.thisN,present_segment.thisIndex,present_segment.ran,pictures,answer,clock,segment,participant,key_resp_2.keys,key_resp_2.corr,key_resp_2.rt,compare_segment.thisRepN,compare_segment.thisTrialN,compare_segment.thisN,compare_segment.thisIndex,compare_segment.ran,item_a,item_b,clock_conditions.thisRepN,clock_conditions.thisTrialN,clock_conditions.thisN,clock_conditions.thisIndex,clock_conditions.ran,present,compare,noclock_present.thisRepN,noclock_present.thisTrialN,noclock_present.thisN,noclock_present.thisIndex,noclock_present.ran,noclock_compare.thisRepN,noclock_compare.thisTrialN,noclock_compare.thisN,noclock_compare.thisIndex,noclock_compare.ran,noclock_conditions.thisRepN,noclock_conditions.thisTrialN,noclock_conditions.thisN,noclock_conditions.thisIndex,noclock_conditions.ran
0.0,1.0,2.052545,0.0,0.0,0.0,0.0,1.0,throne_11s.jpg,0.0,clock_7_1.png,1.0,5,,,,,,,,,,,,,,,,,,,,,,,,,,,,,,,,
0.0,1.0,1.636515,0.0,1.0,1.0,1.0,1.0,swimming_pool_17s.jpg,0.0,clock_7_2.png,1.0,5,,,,,,,,,,,,,,,,,,,,,,,,,,,,,,,,
0.0,1.0,1.35728,0.0,2.0,2.0,2.0,1.0,blowfish_03s.jpg,0.0,clock_7_3.png,1.0,5,,,,,,,,,,,,,,,,,,,,,,,,,,,,,,,,
1.0,1.0,1.374005,0.0,3.0,3.0,3.0,1.0,throne_11s.jpg,1.0,clock_7_4.png,1.0,5,,,,,,,,,,,,,,,,,,,,,,,,,,,,,,,,
0.0,1.0,0.913615,0.0,4.0,4.0,4.0,1.0,basket_05s.jpg,0.0,clock_7_5.png,1.0,5,,,,,,,,,,,,,,,,,,,,,,,,,,,,,,,,
0.0,1.0,0.854645,0.0,5.0,5.0,5.0,1.0,rhubarb_03s.jpg,0.0,clock_7_6.png,1.0,5,,,,,,,,,,,,,,,,,,,,,,,,,,,,,,,,
1.0,1.0,0.97603,0.0,6.0,6.0,6.0,1.0,throne_11s.jpg,1.0,clock_7_7.png,1.0,5,,,,,,,,,,,,,,,,,,,,,,,,,,,,,,,,
0.0,1.0,0.939985,0.0,7.0,7.0,7.0,1.0,tupperware_09s.jpg,0.0,clock_5_1.png,2.0,5,,,,,,,,,,,,,,,,,,,,,,,,,,,,,,,,
0.0,1.0,0.829085,0.0,8.0,8.0,8.0,1.0,seagull_01b.jpg,0.0,clock_5_2.png,2.0,5,,,,,,,,,,,,,,,,,,,,,,,,,,,,,,,,
0.0,1.0,1.025135,0.0,9.0,9.0,9.0,1.0,kitten_07s.jpg,0.0,clock_5_3.png,2.0,5,,,,,,,,,,,,,,,,,,,,,,,,,,,,,,,,
0.0,1.0,0.74258,0.0,10.0,10.0,10.0,1.0,crate_05s.jpg,0.0,clock_5_4.png,2.0,5,,,,,,,,,,,,,,,,,,,,,,,,,,,,,,,,
0.0,1.0,0.89619,0.0,11.0,11.0,11.0,1.0,pocket_watch_16s.jpg,0.0,clock_5_5.png,2.0,5,,,,,,,,,,,,,,,,,,,,,,,,,,,,,,,,
0.0,1.0,0.878525,0.0,12.0,12.0,12.0,1.0,pocketknife_12s.jpg,0.0,clock_6_1.png,3.0,5,,,,,,,,,,,,,,,,,,,,,,,,,,,,,,,,
0.0,1.0,0.823655,0.0,13.0,13.0,13.0,1.0,jalapeno_15s.jpg,0.0,clock_6_2.png,3.0,5,,,,,,,,,,,,,,,,,,,,,,,,,,,,,,,,
1.0,0.0,1.279205,0.0,14.0,14.0,14.0,1.0,tupperware_09s.jpg,0.0,clock_6_3.png,3.0,5,,,,,,,,,,,,,,,,,,,,,,,,,,,,,,,,
0.0,1.0,0.90552,0.0,15.0,15.0,15.0,1.0,stapler_01b.jpg,0.0,clock_6_4.png,3.0,5,,,,,,,,,,,,,,,,,,,,,,,,,,,,,,,,
0.0,1.0,1.0429,0.0,16.0,16.0,16.0,1.0,cap_05s.jpg,0.0,clock_6_5.png,3.0,5,,,,,,,,,,,,,,,,,,,,,,,,,,,,,,,,
0.0,1.0,0.83934,0.0,17.0,17.0,17.0,1.0,lavender_10s.jpg,0.0,clock_6_6.png,3.0,5,,,,,,,,,,,,,,,,,,,,,,,,,,,,,,,,
0.0,1.0,0.966775,0.0,18.0,18.0,18.0,1.0,racehorse_03s.jpg,0.0,clock_6_1.png,4.0,5,,,,,,,,,,,,,,,,,,,,,,,,,,,,,,,,
0.0,1.0,0.916715,0.0,19.0,19.0,19.0,1.0,teacup_07s.jpg,0.0,clock_6_2.png,4.0,5,,,,,,,,,,,,,,,,,,,,,,,,,,,,,,,,
0.0,1.0,0.926975,0.0,20.0,20.0,20.0,1.0,lip_gloss_06s.jpg,0.0,clock_6_3.png,4.0,5,,,,,,,,,,,,,,,,,,,,,,,,,,,,,,,,
1.0,1.0,1.509785,0.0,21.0,21.0,21.0,1.0,racehorse_03s.jpg,1.0,clock_6_4.png,4.0,5,,,,,,,,,,,,,,,,,,,,,,,,,,,,,,,,
1.0,1.0,1.860755,0.0,22.0,22.0,22.0,1.0,lip_gloss_06s.jpg,1.0,clock_6_5.png,4.0,5,,,,,,,,,,,,,,,,,,,,,,,,,,,,,,,,
0.0,1.0,1.055335,0.0,23.0,23.0,23.0,1.0,seahorse_13s.jpg,0.0,clock_6_6.png,4.0,5,,,,,,,,,,,,,,,,,,,,,,,,,,,,,,,,
0.0,1.0,1.71205,0.0,24.0,24.0,24.0,1.0,tuxedo_01b.jpg,0.0,clock_5_1.png,5.0,5,,,,,,,,,,,,,,,,,,,,,,,,,,,,,,,,
0.0,1.0,1.51326,0.0,25.0,25.0,25.0,1.0,ice-cream_cone_06s.jpg,0.0,clock_5_2.png,5.0,5,,,,,,,,,,,,,,,,,,,,,,,,,,,,,,,,
0.0,1.0,1.010045,0.0,26.0,26.0,26.0,1.0,jukebox_03n.jpg,0.0,clock_5_3.png,5.0,5,,,,,,,,,,,,,,,,,,,,,,,,,,,,,,,,
1.0,1.0,1.390095,0.0,27.0,27.0,27.0,1.0,ice-cream_cone_06s.jpg,1.0,clock_5_4.png,5.0,5,,,,,,,,,,,,,,,,,,,,,,,,,,,,,,,,
1.0,0.0,1.89741,0.0,28.0,28.0,28.0,1.0,teacup_07s.jpg,0.0,clock_5_5.png,5.0,5,,,,,,,,,,,,,,,,,,,,,,,,,,,,,,,,
0.0,1.0,0.994495,0.0,29.0,29.0,29.0,1.0,rope_16s.jpg,0.0,clock_7_1.png,6.0,5,,,,,,,,,,,,,,,,,,,,,,,,,,,,,,,,
0.0,1.0,0.83347,0.0,30.0,30.0,30.0,1.0,fork_04s.jpg,0.0,clock_7_2.png,6.0,5,,,,,,,,,,,,,,,,,,,,,,,,,,,,,,,,
1.0,1.0,2.143245,0.0,31.0,31.0,31.0,1.0,rope_16s.jpg,1.0,clock_7_3.png,6.0,5,,,,,,,,,,,,,,,,,,,,,,,,,,,,,,,,
1.0,1.0,1.411965,0.0,32.0,32.0,32.0,1.0,fork_04s.jpg,1.0,clock_7_4.png,6.0,5,,,,,,,,,,,,,,,,,,,,,,,,,,,,,,,,
0.0,1.0,0.926555,0.0,33.0,33.0,33.0,1.0,stump_02s.jpg,0.0,clock_7_5.png,6.0,5,,,,,,,,,,,,,,,,,,,,,,,,,,,,,,,,
0.0,1.0,0.945985,0.0,34.0,34.0,34.0,1.0,air_pump_05s.jpg,0.0,clock_7_6.png,6.0,5,,,,,,,,,,,,,,,,,,,,,,,,,,,,,,,,
0.0,0.0,2.23041,0.0,35.0,35.0,35.0,1.0,air_pump_05s.jpg,1.0,clock_7_7.png,6.0,5,,,,,,,,,,,,,,,,,,,,,,,,,,,,,,,,
,,,,,,,,,0.0,,,5,1.0,0.0,4.62625,0.0,0.0,0.0,0.0,1.0,jukebox_03n.jpg,seahorse_13s.jpg,,,,,,,,,,,,,,,,,,,,,,
,,,,,,,,,1.0,,,5,0.0,0.0,3.22647,0.0,1.0,1.0,1.0,1.0,kitten_07s.jpg,pocketknife_12s.jpg,,,,,,,,,,,,,,,,,,,,,,
,,,,,,,,,0.0,,,5,0.0,1.0,3.252195,0.0,2.0,2.0,2.0,1.0,jalapeno_15s.jpg,crate_05s.jpg,,,,,,,,,,,,,,,,,,,,,,
,,,,,,,,,0.0,,,5,1.0,0.0,2.28907,0.0,3.0,3.0,3.0,1.0,basket_05s.jpg,swimming_pool_17s.jpg,,,,,,,,,,,,,,,,,,,,,,
,,,,,,,,,0.0,,,5,1.0,0.0,3.845275,0.0,4.0,4.0,4.0,1.0,rhubarb_03s.jpg,blowfish_03s.jpg,,,,,,,,,,,,,,,,,,,,,,
,,,,,,,,,1.0,,,5,0.0,0.0,7.929275,0.0,5.0,5.0,5.0,1.0,seagull_01b.jpg,pocket_watch_16s.jpg,,,,,,,,,,,,,,,,,,,,,,
,,,,,,,,,,,,5,,,,,,,,,,,0.0,0.0,0.0,0.0,1.0,clock_present_1_14.xlsx,clock_compare_task_1_14.xlsx,,,,,,,,,,,,,,,
1.0,0.0,1.37479,0.0,0.0,0.0,0.0,1.0,bagel_15s.jpg,0.0,clock_5_1.png,1.0,5,,,,,,,,,,,,,,,,,,,,,,,,,,,,,,,,
0.0,1.0,1.048495,0.0,1.0,1.0,1.0,1.0,rabbit_03s.jpg,0.0,clock_5_2.png,1.0,5,,,,,,,,,,,,,,,,,,,,,,,,,,,,,,,,
,0.0,,0.0,2.0,2.0,2.0,1.0,bagel_15s.jpg,1.0,clock_5_3.png,1.0,5,,,,,,,,,,,,,,,,,,,,,,,,,,,,,,,,
0.0,1.0,0.77737,0.0,3.0,3.0,3.0,1.0,key_07s.jpg,0.0,clock_5_4.png,1.0,5,,,,,,,,,,,,,,,,,,,,,,,,,,,,,,,,
0.0,1.0,0.875015,0.0,4.0,4.0,4.0,1.0,mascara_03s.jpg,0.0,clock_5_5.png,1.0,5,,,,,,,,,,,,,,,,,,,,,,,,,,,,,,,,
0.0,1.0,0.91462,0.0,5.0,5.0,5.0,1.0,knot_01b.jpg,0.0,clock_6_1.png,2.0,5,,,,,,,,,,,,,,,,,,,,,,,,,,,,,,,,
0.0,1.0,0.892545,0.0,6.0,6.0,6.0,1.0,measuring_cup_02s.jpg,0.0,clock_6_2.png,2.0,5,,,,,,,,,,,,,,,,,,,,,,,,,,,,,,,,
0.0,1.0,0.961495,0.0,7.0,7.0,7.0,1.0,syringe_02s.jpg,0.0,clock_6_3.png,2.0,5,,,,,,,,,,,,,,,,,,,,,,,,,,,,,,,,
1.0,1.0,1.23373,0.0,8.0,8.0,8.0,1.0,knot_01b.jpg,1.0,clock_6_4.png,2.0,5,,,,,,,,,,,,,,,,,,,,,,,,,,,,,,,,
0.0,1.0,1.24802,0.0,9.0,9.0,9.0,1.0,pancake_12s.jpg,0.0,clock_6_5.png,2.0,5,,,,,,,,,,,,,,,,,,,,,,,,,,,,,,,,
0.0,1.0,1.10887,0.0,10.0,10.0,10.0,1.0,saddle_06s.jpg,0.0,clock_6_6.png,2.0,5,,,,,,,,,,,,,,,,,,,,,,,,,,,,,,,,
0.0,1.0,1.225605,0.0,11.0,11.0,11.0,1.0,stingray_02s.jpg,0.0,clock_7_1.png,3.0,5,,,,,,,,,,,,,,,,,,,,,,,,,,,,,,,,
1.0,0.0,1.41847,0.0,12.0,12.0,12.0,1.0,pancake_12s.jpg,0.0,clock_7_2.png,3.0,5,,,,,,,,,,,,,,,,,,,,,,,,,,,,,,,,
0.0,1.0,1.459085,0.0,13.0,13.0,13.0,1.0,kite_04s.jpg,0.0,clock_7_3.png,3.0,5,,,,,,,,,,,,,,,,,,,,,,,,,,,,,,,,
0.0,1.0,1.14223,0.0,14.0,14.0,14.0,1.0,pincushion_10s.jpg,0.0,clock_7_4.png,3.0,5,,,,,,,,,,,,,,,,,,,,,,,,,,,,,,,,
0.0,1.0,1.07495,0.0,15.0,15.0,15.0,1.0,ice_pack_09s.jpg,0.0,clock_7_5.png,3.0,5,,,,,,,,,,,,,,,,,,,,,,,,,,,,,,,,
1.0,1.0,1.42132,0.0,16.0,16.0,16.0,1.0,kite_04s.jpg,1.0,clock_7_6.png,3.0,5,,,,,,,,,,,,,,,,,,,,,,,,,,,,,,,,
0.0,1.0,1.20688,0.0,17.0,17.0,17.0,1.0,thumbtack_14s.jpg,0.0,clock_7_7.png,3.0,5,,,,,,,,,,,,,,,,,,,,,,,,,,,,,,,,
0.0,1.0,1.027045,0.0,18.0,18.0,18.0,1.0,stamp1_11s.jpg,0.0,clock_5_1.png,4.0,5,,,,,,,,,,,,,,,,,,,,,,,,,,,,,,,,
1.0,1.0,1.80694,0.0,19.0,19.0,19.0,1.0,stamp1_11s.jpg,1.0,clock_5_2.png,4.0,5,,,,,,,,,,,,,,,,,,,,,,,,,,,,,,,,
0.0,1.0,0.93109,0.0,20.0,20.0,20.0,1.0,lizard_10n.jpg,0.0,clock_5_3.png,4.0,5,,,,,,,,,,,,,,,,,,,,,,,,,,,,,,,,
0.0,1.0,1.191445,0.0,21.0,21.0,21.0,1.0,toilet_paper_12s.jpg,0.0,clock_5_4.png,4.0,5,,,,,,,,,,,,,,,,,,,,,,,,,,,,,,,,
0.0,1.0,1.23235,0.0,22.0,22.0,22.0,1.0,gong_02s.jpg,0.0,clock_5_5.png,4.0,5,,,,,,,,,,,,,,,,,,,,,,,,,,,,,,,,
0.0,1.0,1.46084,0.0,23.0,23.0,23.0,1.0,rake_06s.jpg,0.0,clock_6_1.png,5.0,5,,,,,,,,,,,,,,,,,,,,,,,,,,,,,,,,
0.0,1.0,1.31173,0.0,24.0,24.0,24.0,1.0,syringe_02s.jpg,0.0,clock_6_2.png,5.0,5,,,,,,,,,,,,,,,,,,,,,,,,,,,,,,,,
1.0,0.0,1.283845,0.0,25.0,25.0,25.0,1.0,thumbtack_14s.jpg,0.0,clock_6_3.png,5.0,5,,,,,,,,,,,,,,,,,,,,,,,,,,,,,,,,
0.0,1.0,0.980135,0.0,26.0,26.0,26.0,1.0,boomerang_06s.jpg,0.0,clock_6_4.png,5.0,5,,,,,,,,,,,,,,,,,,,,,,,,,,,,,,,,
0.0,1.0,1.183535,0.0,27.0,27.0,27.0,1.0,kayak_08s.jpg,0.0,clock_6_5.png,5.0,5,,,,,,,,,,,,,,,,,,,,,,,,,,,,,,,,
0.0,1.0,1.02492,0.0,28.0,28.0,28.0,1.0,fountain_pen_06s.jpg,0.0,clock_6_6.png,5.0,5,,,,,,,,,,,,,,,,,,,,,,,,,,,,,,,,
0.0,1.0,1.06248,0.0,29.0,29.0,29.0,1.0,contact_lens_15s.jpg,0.0,clock_7_1.png,6.0,5,,,,,,,,,,,,,,,,,,,,,,,,,,,,,,,,
0.0,1.0,0.92921,0.0,30.0,30.0,30.0,1.0,lamb_chop_07s.jpg,0.0,clock_7_2.png,6.0,5,,,,,,,,,,,,,,,,,,,,,,,,,,,,,,,,
0.0,1.0,1.069515,0.0,31.0,31.0,31.0,1.0,pear_02s.jpg,0.0,clock_7_3.png,6.0,5,,,,,,,,,,,,,,,,,,,,,,,,,,,,,,,,
0.0,1.0,0.825655,0.0,32.0,32.0,32.0,1.0,potpourri_03s.jpg,0.0,clock_7_4.png,6.0,5,,,,,,,,,,,,,,,,,,,,,,,,,,,,,,,,
1.0,0.0,1.286105,0.0,33.0,33.0,33.0,1.0,pincushion_10s.jpg,0.0,clock_7_5.png,6.0,5,,,,,,,,,,,,,,,,,,,,,,,,,,,,,,,,
0.0,1.0,1.443185,0.0,34.0,34.0,34.0,1.0,foam_03s.jpg,0.0,clock_7_6.png,6.0,5,,,,,,,,,,,,,,,,,,,,,,,,,,,,,,,,
0.0,1.0,1.585155,0.0,35.0,35.0,35.0,1.0,bathtub_23s.jpg,0.0,clock_7_7.png,6.0,5,,,,,,,,,,,,,,,,,,,,,,,,,,,,,,,,
,,,,,,,,,1.0,,,5,0.0,0.0,2.34515,0.0,0.0,0.0,0.0,1.0,key_07s.jpg,measuring_cup_02s.jpg,,,,,,,,,,,,,,,,,,,,,,
,,,,,,,,,1.0,,,5,1.0,1.0,3.76391,0.0,1.0,1.0,1.0,1.0,kayak_08s.jpg,lamb_chop_07s.jpg,,,,,,,,,,,,,,,,,,,,,,
,,,,,,,,,1.0,,,5,0.0,0.0,3.33037,0.0,2.0,2.0,2.0,1.0,lizard_10n.jpg,rake_06s.jpg,,,,,,,,,,,,,,,,,,,,,,
,,,,,,,,,1.0,,,5,0.0,0.0,1.817945,0.0,3.0,3.0,3.0,1.0,rabbit_03s.jpg,mascara_03s.jpg,,,,,,,,,,,,,,,,,,,,,,
,,,,,,,,,1.0,,,5,1.0,1.0,2.88529,0.0,4.0,4.0,4.0,1.0,potpourri_03s.jpg,bathtub_23s.jpg,,,,,,,,,,,,,,,,,,,,,,
,,,,,,,,,0.0,,,5,0.0,1.0,1.4628,0.0,5.0,5.0,5.0,1.0,foam_03s.jpg,pear_02s.jpg,,,,,,,,,,,,,,,,,,,,,,
,,,,,,,,,,,,5,,,,,,,,,,,0.0,1.0,1.0,1.0,1.0,clock_present_2_14.xlsx,clock_compare_task_2_14.xlsx,,,,,,,,,,,,,,,
0.0,1.0,1.317765,0.0,0.0,0.0,0.0,1.0,magnet_03s.jpg,0.0,clock_5_1.png,1.0,5,,,,,,,,,,,,,,,,,,,,,,,,,,,,,,,,
1.0,1.0,1.328175,0.0,1.0,1.0,1.0,1.0,magnet_03s.jpg,1.0,clock_5_2.png,1.0,5,,,,,,,,,,,,,,,,,,,,,,,,,,,,,,,,
0.0,1.0,1.81404,0.0,2.0,2.0,2.0,1.0,insole_11s.jpg,0.0,clock_5_3.png,1.0,5,,,,,,,,,,,,,,,,,,,,,,,,,,,,,,,,
0.0,1.0,1.2433,0.0,3.0,3.0,3.0,1.0,safety_pin_02s.jpg,0.0,clock_5_4.png,1.0,5,,,,,,,,,,,,,,,,,,,,,,,,,,,,,,,,
0.0,1.0,0.908225,0.0,4.0,4.0,4.0,1.0,pie_08s.jpg,0.0,clock_5_5.png,1.0,5,,,,,,,,,,,,,,,,,,,,,,,,,,,,,,,,
0.0,1.0,1.32656,0.0,5.0,5.0,5.0,1.0,flask_04s.jpg,0.0,clock_6_1.png,2.0,5,,,,,,,,,,,,,,,,,,,,,,,,,,,,,,,,
0.0,1.0,0.953215,0.0,6.0,6.0,6.0,1.0,stopwatch_04s.jpg,0.0,clock_6_2.png,2.0,5,,,,,,,,,,,,,,,,,,,,,,,,,,,,,,,,
0.0,1.0,1.0652,0.0,7.0,7.0,7.0,1.0,olive_05s.jpg,0.0,clock_6_3.png,2.0,5,,,,,,,,,,,,,,,,,,,,,,,,,,,,,,,,
0.0,1.0,0.95167,0.0,8.0,8.0,8.0,1.0,laser_pointer_02s.jpg,0.0,clock_6_4.png,2.0,5,,,,,,,,,,,,,,,,,,,,,,,,,,,,,,,,
1.0,0.0,1.71545,0.0,9.0,9.0,9.0,1.0,pie_08s.jpg,0.0,clock_6_5.png,2.0,5,,,,,,,,,,,,,,,,,,,,,,,,,,,,,,,,
1.0,1.0,1.46202,0.0,10.0,10.0,10.0,1.0,laser_pointer_02s.jpg,1.0,clock_6_6.png,2.0,5,,,,,,,,,,,,,,,,,,,,,,,,,,,,,,,,
0.0,1.0,2.06091,0.0,11.0,11.0,11.0,1.0,surfboard_11s.jpg,0.0,clock_6_1.png,3.0,5,,,,,,,,,,,,,,,,,,,,,,,,,,,,,,,,
0.0,1.0,1.54374,0.0,12.0,12.0,12.0,1.0,money_07s.jpg,0.0,clock_6_2.png,3.0,5,,,,,,,,,,,,,,,,,,,,,,,,,,,,,,,,
0.0,1.0,1.0309,0.0,13.0,13.0,13.0,1.0,bubble_01b.jpg,0.0,clock_6_3.png,3.0,5,,,,,,,,,,,,,,,,,,,,,,,,,,,,,,,,
0.0,1.0,1.159875,0.0,14.0,14.0,14.0,1.0,lipstick_02s.jpg,0.0,clock_6_4.png,3.0,5,,,,,,,,,,,,,,,,,,,,,,,,,,,,,,,,
0.0,1.0,1.11158,0.0,15.0,15.0,15.0,1.0,leash_10s.jpg,0.0,clock_6_5.png,3.0,5,,,,,,,,,,,,,,,,,,,,,,,,,,,,,,,,
0.0,1.0,1.211155,0.0,16.0,16.0,16.0,1.0,flask_04s.jpg,0.0,clock_6_6.png,3.0,5,,,,,,,,,,,,,,,,,,,,,,,,,,,,,,,,
0.0,1.0,0.974475,0.0,17.0,17.0,17.0,1.0,puck_06s.jpg,0.0,clock_7_1.png,4.0,5,,,,,,,,,,,,,,,,,,,,,,,,,,,,,,,,
0.0,1.0,0.64336,0.0,18.0,18.0,18.0,1.0,paintbrush_04s.jpg,0.0,clock_7_2.png,4.0,5,,,,,,,,,,,,,,,,,,,,,,,,,,,,,,,,
1.0,1.0,1.411725,0.0,19.0,19.0,19.0,1.0,puck_06s.jpg,1.0,clock_7_3.png,4.0,5,,,,,,,,,,,,,,,,,,,,,,,,,,,,,,,,
0.0,1.0,1.24654,0.0,20.0,20.0,20.0,1.0,tweezers_03s.jpg,0.0,clock_7_4.png,4.0,5,,,,,,,,,,,,,,,,,,,,,,,,,,,,,,,,
1.0,1.0,1.68166,0.0,21.0,21.0,21.0,1.0,puck_06s.jpg,1.0,clock_7_5.png,4.0,5,,,,,,,,,,,,,,,,,,,,,,,,,,,,,,,,
0.0,1.0,1.692585,0.0,22.0,22.0,22.0,1.0,tulip_02s.jpg,0.0,clock_7_6.png,4.0,5,,,,,,,,,,,,,,,,,,,,,,,,,,,,,,,,
1.0,0.0,1.14052,0.0,23.0,23.0,23.0,1.0,bubble_01b.jpg,0.0,clock_7_7.png,4.0,5,,,,,,,,,,,,,,,,,,,,,,,,,,,,,,,,
0.0,1.0,1.107585,0.0,24.0,24.0,24.0,1.0,mattress_01s.jpg,0.0,clock_5_1.png,5.0,5,,,,,,,,,,,,,,,,,,,,,,,,,,,,,,,,
1.0,1.0,1.31701,0.0,25.0,25.0,25.0,1.0,mattress_01s.jpg,1.0,clock_5_2.png,5.0,5,,,,,,,,,,,,,,,,,,,,,,,,,,,,,,,,
0.0,1.0,1.60513,0.0,26.0,26.0,26.0,1.0,puddle_02s.jpg,0.0,clock_5_3.png,5.0,5,,,,,,,,,,,,,,,,,,,,,,,,,,,,,,,,
0.0,1.0,1.253155,0.0,27.0,27.0,27.0,1.0,peanut_butter_08s.jpg,0.0,clock_5_4.png,5.0,5,,,,,,,,,,,,,,,,,,,,,,,,,,,,,,,,
0.0,1.0,1.023365,0.0,28.0,28.0,28.0,1.0,loveseat_08s.jpg,0.0,clock_5_5.png,5.0,5,,,,,,,,,,,,,,,,,,,,,,,,,,,,,,,,
0.0,1.0,1.86095,0.0,29.0,29.0,29.0,1.0,timer_03s.jpg,0.0,clock_7_1.png,6.0,5,,,,,,,,,,,,,,,,,,,,,,,,,,,,,,,,
0.0,1.0,1.507005,0.0,30.0,30.0,30.0,1.0,icicle_04s.jpg,0.0,clock_7_2.png,6.0,5,,,,,,,,,,,,,,,,,,,,,,,,,,,,,,,,
0.0,1.0,1.56288,0.0,31.0,31.0,31.0,1.0,fishhook_06s.jpg,0.0,clock_7_3.png,6.0,5,,,,,,,,,,,,,,,,,,,,,,,,,,,,,,,,
0.0,1.0,1.37342,0.0,32.0,32.0,32.0,1.0,pump_11s.jpg,0.0,clock_7_4.png,6.0,5,,,,,,,,,,,,,,,,,,,,,,,,,,,,,,,,
0.0,1.0,1.31123,0.0,33.0,33.0,33.0,1.0,ukulele_02s.jpg,0.0,clock_7_5.png,6.0,5,,,,,,,,,,,,,,,,,,,,,,,,,,,,,,,,
1.0,0.0,1.30808,0.0,34.0,34.0,34.0,1.0,safety_pin_02s.jpg,0.0,clock_7_6.png,6.0,5,,,,,,,,,,,,,,,,,,,,,,,,,,,,,,,,
0.0,1.0,1.525305,0.0,35.0,35.0,35.0,1.0,sundae_08s.jpg,0.0,clock_7_7.png,6.0,5,,,,,,,,,,,,,,,,,,,,,,,,,,,,,,,,
,,,,,,,,,0.0,,,5,1.0,0.0,1.403575,0.0,0.0,0.0,0.0,1.0,fishhook_06s.jpg,loveseat_08s.jpg,,,,,,,,,,,,,,,,,,,,,,
,,,,,,,,,0.0,,,5,0.0,1.0,1.580055,0.0,1.0,1.0,1.0,1.0,paintbrush_04s.jpg,leash_10s.jpg,,,,,,,,,,,,,,,,,,,,,,
,,,,,,,,,0.0,,,5,1.0,0.0,1.4292,0.0,2.0,2.0,2.0,1.0,timer_03s.jpg,puddle_02s.jpg,,,,,,,,,,,,,,,,,,,,,,
,,,,,,,,,1.0,,,5,1.0,1.0,1.860085,0.0,3.0,3.0,3.0,1.0,surfboard_11s.jpg,lipstick_02s.jpg,,,,,,,,,,,,,,,,,,,,,,
,,,,,,,,,0.0,,,5,0.0,1.0,1.61206,0.0,4.0,4.0,4.0,1.0,sundae_08s.jpg,pump_11s.jpg,,,,,,,,,,,,,,,,,,,,,,
,,,,,,,,,0.0,,,5,0.0,1.0,1.813365,0.0,5.0,5.0,5.0,1.0,ukulele_02s.jpg,icicle_04s.jpg,,,,,,,,,,,,,,,,,,,,,,
,,,,,,,,,,,,5,,,,,,,,,,,0.0,2.0,2.0,2.0,1.0,clock_present_3_14.xlsx,clock_compare_task_3_14.xlsx,,,,,,,,,,,,,,,
0.0,1.0,1.52156,0.0,0.0,0.0,0.0,1.0,mold2_04s.jpg,0.0,clock_5_1.png,1.0,5,,,,,,,,,,,,,,,,,,,,,,,,,,,,,,,,
1.0,1.0,1.41932,0.0,1.0,1.0,1.0,1.0,mold2_04s.jpg,1.0,clock_5_2.png,1.0,5,,,,,,,,,,,,,,,,,,,,,,,,,,,,,,,,
1.0,1.0,1.99475,0.0,2.0,2.0,2.0,1.0,mold2_04s.jpg,1.0,clock_5_3.png,1.0,5,,,,,,,,,,,,,,,,,,,,,,,,,,,,,,,,
,0.0,,0.0,3.0,3.0,3.0,1.0,mold2_04s.jpg,1.0,clock_5_4.png,1.0,5,,,,,,,,,,,,,,,,,,,,,,,,,,,,,,,,
0.0,1.0,0.95254,0.0,4.0,4.0,4.0,1.0,sledgehammer_03s.jpg,0.0,clock_5_5.png,1.0,5,,,,,,,,,,,,,,,,,,,,,,,,,,,,,,,,
0.0,1.0,0.967,0.0,5.0,5.0,5.0,1.0,prism_10s.jpg,0.0,clock_7_1.png,2.0,5,,,,,,,,,,,,,,,,,,,,,,,,,,,,,,,,
0.0,1.0,0.896115,0.0,6.0,6.0,6.0,1.0,jewel_01b.jpg,0.0,clock_7_2.png,2.0,5,,,,,,,,,,,,,,,,,,,,,,,,,,,,,,,,
0.0,1.0,0.869475,0.0,7.0,7.0,7.0,1.0,puffin_19s.jpg,0.0,clock_7_3.png,2.0,5,,,,,,,,,,,,,,,,,,,,,,,,,,,,,,,,
0.0,1.0,0.824645,0.0,8.0,8.0,8.0,1.0,screwdriver02a.jpg,0.0,clock_7_4.png,2.0,5,,,,,,,,,,,,,,,,,,,,,,,,,,,,,,,,
0.0,1.0,1.000265,0.0,9.0,9.0,9.0,1.0,thermostat_02s.jpg,0.0,clock_7_5.png,2.0,5,,,,,,,,,,,,,,,,,,,,,,,,,,,,,,,,
1.0,1.0,1.174865,0.0,10.0,10.0,10.0,1.0,jewel_01b.jpg,1.0,clock_7_6.png,2.0,5,,,,,,,,,,,,,,,,,,,,,,,,,,,,,,,,
1.0,1.0,1.59564,0.0,11.0,11.0,11.0,1.0,puffin_19s.jpg,1.0,clock_7_7.png,2.0,5,,,,,,,,,,,,,,,,,,,,,,,,,,,,,,,,
0.0,1.0,1.089275,0.0,12.0,12.0,12.0,1.0,petri_dish_12s.jpg,0.0,clock_6_1.png,3.0,5,,,,,,,,,,,,,,,,,,,,,,,,,,,,,,,,
0.0,1.0,0.863875,0.0,13.0,13.0,13.0,1.0,plug_08s.jpg,0.0,clock_6_2.png,3.0,5,,,,,,,,,,,,,,,,,,,,,,,,,,,,,,,,
0.0,1.0,0.85965,0.0,14.0,14.0,14.0,1.0,hydrant_10s.jpg,0.0,clock_6_3.png,3.0,5,,,,,,,,,,,,,,,,,,,,,,,,,,,,,,,,
1.0,1.0,1.011995,0.0,15.0,15.0,15.0,1.0,petri_dish_12s.jpg,1.0,clock_6_4.png,3.0,5,,,,,,,,,,,,,,,,,,,,,,,,,,,,,,,,
0.0,1.0,0.891505,0.0,16.0,16.0,16.0,1.0,amber_04s.jpg,0.0,clock_6_5.png,3.0,5,,,,,,,,,,,,,,,,,,,,,,,,,,,,,,,,
0.0,1.0,1.126495,0.0,17.0,17.0,17.0,1.0,luggage_08s.jpg,0.0,clock_6_6.png,3.0,5,,,,,,,,,,,,,,,,,,,,,,,,,,,,,,,,
0.0,1.0,0.82655,0.0,18.0,18.0,18.0,1.0,cushion_08s.jpg,0.0,clock_7_1.png,4.0,5,,,,,,,,,,,,,,,,,,,,,,,,,,,,,,,,
0.0,1.0,0.88351,0.0,19.0,19.0,19.0,1.0,mushroom_10n.jpg,0.0,clock_7_2.png,4.0,5,,,,,,,,,,,,,,,,,,,,,,,,,,,,,,,,
1.0,0.0,1.145405,0.0,20.0,20.0,20.0,1.0,puffin_19s.jpg,0.0,clock_7_3.png,4.0,5,,,,,,,,,,,,,,,,,,,,,,,,,,,,,,,,
0.0,1.0,0.753965,0.0,21.0,21.0,21.0,1.0,lasagna_06s.jpg,0.0,clock_7_4.png,4.0,5,,,,,,,,,,,,,,,,,,,,,,,,,,,,,,,,
0.0,1.0,0.775635,0.0,22.0,22.0,22.0,1.0,thorn_13s.jpg,0.0,clock_7_5.png,4.0,5,,,,,,,,,,,,,,,,,,,,,,,,,,,,,,,,
0.0,1.0,0.965015,0.0,23.0,23.0,23.0,1.0,jelly_bean_06s.jpg,0.0,clock_7_6.png,4.0,5,,,,,,,,,,,,,,,,,,,,,,,,,,,,,,,,
0.0,1.0,1.413395,0.0,24.0,24.0,24.0,1.0,mosquito_12s.jpg,0.0,clock_7_7.png,4.0,5,,,,,,,,,,,,,,,,,,,,,,,,,,,,,,,,
0.0,1.0,0.924345,0.0,25.0,25.0,25.0,1.0,triangle_10s.jpg,0.0,clock_6_1.png,5.0,5,,,,,,,,,,,,,,,,,,,,,,,,,,,,,,,,
0.0,1.0,0.558875,0.0,26.0,26.0,26.0,1.0,roulette_wheel_04s.jpg,0.0,clock_6_2.png,5.0,5,,,,,,,,,,,,,,,,,,,,,,,,,,,,,,,,
1.0,1.0,0.86362,0.0,27.0,27.0,27.0,1.0,roulette_wheel_04s.jpg,1.0,clock_6_3.png,5.0,5,,,,,,,,,,,,,,,,,,,,,,,,,,,,,,,,
1.0,0.0,1.545055,0.0,28.0,28.0,28.0,1.0,puffin_19s.jpg,0.0,clock_6_4.png,5.0,5,,,,,,,,,,,,,,,,,,,,,,,,,,,,,,,,
0.0,1.0,0.90804,0.0,29.0,29.0,29.0,1.0,outlet_10s.jpg,0.0,clock_6_5.png,5.0,5,,,,,,,,,,,,,,,,,,,,,,,,,,,,,,,,
0.0,1.0,1.52351,0.0,30.0,30.0,30.0,1.0,abacus_12s.jpg,0.0,clock_6_6.png,5.0,5,,,,,,,,,,,,,,,,,,,,,,,,,,,,,,,,
0.0,1.0,0.781795,0.0,31.0,31.0,31.0,1.0,pencil02a.jpg,0.0,clock_5_1.png,6.0,5,,,,,,,,,,,,,,,,,,,,,,,,,,,,,,,,
0.0,1.0,0.86462,0.0,32.0,32.0,32.0,1.0,pillow_03s.jpg,0.0,clock_5_2.png,6.0,5,,,,,,,,,,,,,,,,,,,,,,,,,,,,,,,,
1.0,1.0,0.94492,0.0,33.0,33.0,33.0,1.0,pencil02a.jpg,1.0,clock_5_3.png,6.0,5,,,,,,,,,,,,,,,,,,,,,,,,,,,,,,,,
0.0,1.0,0.631525,0.0,34.0,34.0,34.0,1.0,towel_rack_04s.jpg,0.0,clock_5_4.png,6.0,5,,,,,,,,,,,,,,,,,,,,,,,,,,,,,,,,
0.0,1.0,0.9767,0.0,35.0,35.0,35.0,1.0,machine_gun_09s.jpg,0.0,clock_5_5.png,6.0,5,,,,,,,,,,,,,,,,,,,,,,,,,,,,,,,,
,,,,,,,,,1.0,,,5,1.0,1.0,1.54148,0.0,0.0,0.0,0.0,1.0,thorn_13s.jpg,triangle_10s.jpg,,,,,,,,,,,,,,,,,,,,,,
,,,,,,,,,0.0,,,5,1.0,0.0,1.57387,0.0,1.0,1.0,1.0,1.0,pillow_03s.jpg,outlet_10s.jpg,,,,,,,,,,,,,,,,,,,,,,
,,,,,,,,,1.0,,,5,0.0,0.0,5.97889,0.0,2.0,2.0,2.0,1.0,amber_04s.jpg,mushroom_10n.jpg,,,,,,,,,,,,,,,,,,,,,,
,,,,,,,,,0.0,,,5,0.0,1.0,3.564015,0.0,3.0,3.0,3.0,1.0,screwdriver02a.jpg,prism_10s.jpg,,,,,,,,,,,,,,,,,,,,,,
,,,,,,,,,1.0,,,5,1.0,1.0,1.528335,0.0,4.0,4.0,4.0,1.0,hydrant_10s.jpg,luggage_08s.jpg,,,,,,,,,,,,,,,,,,,,,,
,,,,,,,,,1.0,,,5,1.0,1.0,1.70347,0.0,5.0,5.0,5.0,1.0,cushion_08s.jpg,lasagna_06s.jpg,,,,,,,,,,,,,,,,,,,,,,
,,,,,,,,,,,,5,,,,,,,,,,,0.0,3.0,3.0,3.0,1.0,clock_present_4_14.xlsx,clock_compare_task_4_14.xlsx,,,,,,,,,,,,,,,
0.0,1.0,1.249505,0.0,0.0,0.0,0.0,1.0,checkbook_11s.jpg,0.0,clock_7_1.png,1.0,5,,,,,,,,,,,,,,,,,,,,,,,,,,,,,,,,
0.0,1.0,0.841685,0.0,1.0,1.0,1.0,1.0,submarine_11n.jpg,0.0,clock_7_2.png,1.0,5,,,,,,,,,,,,,,,,,,,,,,,,,,,,,,,,
0.0,1.0,0.64261,0.0,2.0,2.0,2.0,1.0,doily_13s.jpg,0.0,clock_7_3.png,1.0,5,,,,,,,,,,,,,,,,,,,,,,,,,,,,,,,,
0.0,1.0,0.62995,0.0,3.0,3.0,3.0,1.0,briefcase_03s.jpg,0.0,clock_7_4.png,1.0,5,,,,,,,,,,,,,,,,,,,,,,,,,,,,,,,,
0.0,1.0,0.54451,0.0,4.0,4.0,4.0,1.0,film_03s.jpg,0.0,clock_7_5.png,1.0,5,,,,,,,,,,,,,,,,,,,,,,,,,,,,,,,,
0.0,1.0,0.960085,0.0,5.0,5.0,5.0,1.0,ironing_board_07s.jpg,0.0,clock_7_6.png,1.0,5,,,,,,,,,,,,,,,,,,,,,,,,,,,,,,,,
1.0,1.0,1.413085,0.0,6.0,6.0,6.0,1.0,checkbook_11s.jpg,1.0,clock_7_7.png,1.0,5,,,,,,,,,,,,,,,,,,,,,,,,,,,,,,,,
0.0,1.0,0.609405,0.0,7.0,7.0,7.0,1.0,sushi_08s.jpg,0.0,clock_6_1.png,2.0,5,,,,,,,,,,,,,,,,,,,,,,,,,,,,,,,,
0.0,1.0,1.2992,0.0,8.0,8.0,8.0,1.0,go-kart_10s.jpg,0.0,clock_6_2.png,2.0,5,,,,,,,,,,,,,,,,,,,,,,,,,,,,,,,,
0.0,1.0,1.108185,0.0,9.0,9.0,9.0,1.0,tripod_01b.jpg,0.0,clock_6_3.png,2.0,5,,,,,,,,,,,,,,,,,,,,,,,,,,,,,,,,
0.0,1.0,1.68199,0.0,10.0,10.0,10.0,1.0,tinsel_12s.jpg,0.0,clock_6_4.png,2.0,5,,,,,,,,,,,,,,,,,,,,,,,,,,,,,,,,
0.0,1.0,1.97604,0.0,11.0,11.0,11.0,1.0,microwave_02s.jpg,0.0,clock_6_5.png,2.0,5,,,,,,,,,,,,,,,,,,,,,,,,,,,,,,,,
0.0,1.0,1.120475,0.0,12.0,12.0,12.0,1.0,piano_13n.jpg,0.0,clock_6_6.png,2.0,5,,,,,,,,,,,,,,,,,,,,,,,,,,,,,,,,
0.0,1.0,0.891795,0.0,13.0,13.0,13.0,1.0,panda_02s.jpg,0.0,clock_5_1.png,3.0,5,,,,,,,,,,,,,,,,,,,,,,,,,,,,,,,,
0.0,1.0,1.21117,0.0,14.0,14.0,14.0,1.0,spatula04.jpg,0.0,clock_5_2.png,3.0,5,,,,,,,,,,,,,,,,,,,,,,,,,,,,,,,,
0.0,1.0,1.19443,0.0,15.0,15.0,15.0,1.0,razor_12s.jpg,0.0,clock_5_3.png,3.0,5,,,,,,,,,,,,,,,,,,,,,,,,,,,,,,,,
0.0,1.0,1.00887,0.0,16.0,16.0,16.0,1.0,jet_15s.jpg,0.0,clock_5_4.png,3.0,5,,,,,,,,,,,,,,,,,,,,,,,,,,,,,,,,
0.0,1.0,2.0585,0.0,17.0,17.0,17.0,1.0,spider_web_03s.jpg,0.0,clock_5_5.png,3.0,5,,,,,,,,,,,,,,,,,,,,,,,,,,,,,,,,
0.0,1.0,1.002315,0.0,18.0,18.0,18.0,1.0,lamppost_09s.jpg,0.0,clock_5_1.png,4.0,5,,,,,,,,,,,,,,,,,,,,,,,,,,,,,,,,
0.0,1.0,0.77596,0.0,19.0,19.0,19.0,1.0,kettle_08s.jpg,0.0,clock_5_2.png,4.0,5,,,,,,,,,,,,,,,,,,,,,,,,,,,,,,,,
1.0,1.0,1.852635,0.0,20.0,20.0,20.0,1.0,kettle_08s.jpg,1.0,clock_5_3.png,4.0,5,,,,,,,,,,,,,,,,,,,,,,,,,,,,,,,,
0.0,1.0,0.61475,0.0,21.0,21.0,21.0,1.0,jet_15s.jpg,0.0,clock_5_4.png,4.0,5,,,,,,,,,,,,,,,,,,,,,,,,,,,,,,,,
1.0,1.0,1.114135,0.0,22.0,22.0,22.0,1.0,kettle_08s.jpg,1.0,clock_5_5.png,4.0,5,,,,,,,,,,,,,,,,,,,,,,,,,,,,,,,,
0.0,1.0,0.775795,0.0,23.0,23.0,23.0,1.0,champagne_18s.jpg,0.0,clock_6_1.png,5.0,5,,,,,,,,,,,,,,,,,,,,,,,,,,,,,,,,
0.0,1.0,0.923885,0.0,24.0,24.0,24.0,1.0,radiator_05s.jpg,0.0,clock_6_2.png,5.0,5,,,,,,,,,,,,,,,,,,,,,,,,,,,,,,,,
1.0,1.0,1.12834,0.0,25.0,25.0,25.0,1.0,radiator_05s.jpg,1.0,clock_6_3.png,5.0,5,,,,,,,,,,,,,,,,,,,,,,,,,,,,,,,,
0.0,1.0,1.02616,0.0,26.0,26.0,26.0,1.0,pepper2_21s.jpg,0.0,clock_6_4.png,5.0,5,,,,,,,,,,,,,,,,,,,,,,,,,,,,,,,,
1.0,1.0,1.311,0.0,27.0,27.0,27.0,1.0,pepper2_21s.jpg,1.0,clock_6_5.png,5.0,5,,,,,,,,,,,,,,,,,,,,,,,,,,,,,,,,
0.0,1.0,0.9467,0.0,28.0,28.0,28.0,1.0,breadstick_08s.jpg,0.0,clock_6_6.png,5.0,5,,,,,,,,,,,,,,,,,,,,,,,,,,,,,,,,
0.0,1.0,2.079975,0.0,29.0,29.0,29.0,1.0,mailbox_11s.jpg,0.0,clock_7_1.png,6.0,5,,,,,,,,,,,,,,,,,,,,,,,,,,,,,,,,
0.0,1.0,1.526955,0.0,30.0,30.0,30.0,1.0,crystal_ball_12s.jpg,0.0,clock_7_2.png,6.0,5,,,,,,,,,,,,,,,,,,,,,,,,,,,,,,,,
1.0,1.0,1.414365,0.0,31.0,31.0,31.0,1.0,crystal_ball_12s.jpg,1.0,clock_7_3.png,6.0,5,,,,,,,,,,,,,,,,,,,,,,,,,,,,,,,,
0.0,1.0,1.280945,0.0,32.0,32.0,32.0,1.0,submarine_11n.jpg,0.0,clock_7_4.png,6.0,5,,,,,,,,,,,,,,,,,,,,,,,,,,,,,,,,
0.0,1.0,0.912555,0.0,33.0,33.0,33.0,1.0,ant_12s.jpg,0.0,clock_7_5.png,6.0,5,,,,,,,,,,,,,,,,,,,,,,,,,,,,,,,,
0.0,1.0,0.774205,0.0,34.0,34.0,34.0,1.0,smokingpipe.jpg,0.0,clock_7_6.png,6.0,5,,,,,,,,,,,,,,,,,,,,,,,,,,,,,,,,
1.0,1.0,1.213565,0.0,35.0,35.0,35.0,1.0,mailbox_11s.jpg,1.0,clock_7_7.png,6.0,5,,,,,,,,,,,,,,,,,,,,,,,,,,,,,,,,
,,,,,,,,,1.0,,,5,1.0,1.0,7.275805,0.0,0.0,0.0,0.0,1.0,razor_12s.jpg,lamppost_09s.jpg,,,,,,,,,,,,,,,,,,,,,,
,,,,,,,,,1.0,,,5,1.0,1.0,5.96174,0.0,1.0,1.0,1.0,1.0,film_03s.jpg,sushi_08s.jpg,,,,,,,,,,,,,,,,,,,,,,
,,,,,,,,,0.0,,,5,0.0,1.0,1.74527,0.0,2.0,2.0,2.0,1.0,panda_02s.jpg,tinsel_12s.jpg,,,,,,,,,,,,,,,,,,,,,,
,,,,,,,,,0.0,,,5,1.0,0.0,3.181085,0.0,3.0,3.0,3.0,1.0,ironing_board_07s.jpg,doily_13s.jpg,,,,,,,,,,,,,,,,,,,,,,
,,,,,,,,,0.0,,,5,0.0,1.0,1.59582,0.0,4.0,4.0,4.0,1.0,piano_13n.jpg,tripod_01b.jpg,,,,,,,,,,,,,,,,,,,,,,
,,,,,,,,,0.0,,,5,1.0,0.0,3.17277,0.0,5.0,5.0,5.0,1.0,spider_web_03s.jpg,spatula04.jpg,,,,,,,,,,,,,,,,,,,,,,
,,,,,,,,,,,,5,,,,,,,,,,,0.0,4.0,4.0,4.0,1.0,clock_present_5_14.xlsx,clock_compare_task_5_14.xlsx,,,,,,,,,,,,,,,
0.0,1.0,1.119685,0.0,0.0,0.0,0.0,1.0,orangutan_03s.jpg,0.0,clock_7_1.png,1.0,5,,,,,,,,,,,,,,,,,,,,,,,,,,,,,,,,
0.0,1.0,1.15676,0.0,1.0,1.0,1.0,1.0,squirrel_02s.jpg,0.0,clock_7_2.png,1.0,5,,,,,,,,,,,,,,,,,,,,,,,,,,,,,,,,
0.0,1.0,0.82546,0.0,2.0,2.0,2.0,1.0,tiara_05s.jpg,0.0,clock_7_3.png,1.0,5,,,,,,,,,,,,,,,,,,,,,,,,,,,,,,,,
1.0,1.0,1.217235,0.0,3.0,3.0,3.0,1.0,squirrel_02s.jpg,1.0,clock_7_4.png,1.0,5,,,,,,,,,,,,,,,,,,,,,,,,,,,,,,,,
1.0,1.0,1.21059,0.0,4.0,4.0,4.0,1.0,tiara_05s.jpg,1.0,clock_7_5.png,1.0,5,,,,,,,,,,,,,,,,,,,,,,,,,,,,,,,,
0.0,1.0,0.974815,0.0,5.0,5.0,5.0,1.0,mannequin_05s.jpg,0.0,clock_7_6.png,1.0,5,,,,,,,,,,,,,,,,,,,,,,,,,,,,,,,,
0.0,1.0,1.30223,0.0,6.0,6.0,6.0,1.0,omelet_07s.jpg,0.0,clock_7_7.png,1.0,5,,,,,,,,,,,,,,,,,,,,,,,,,,,,,,,,
0.0,1.0,1.357455,0.0,7.0,7.0,7.0,1.0,buoy_04s.jpg,0.0,clock_5_1.png,2.0,5,,,,,,,,,,,,,,,,,,,,,,,,,,,,,,,,
0.0,1.0,1.124085,0.0,8.0,8.0,8.0,1.0,meatball_13s.jpg,0.0,clock_5_2.png,2.0,5,,,,,,,,,,,,,,,,,,,,,,,,,,,,,,,,
0.0,1.0,0.851175,0.0,9.0,9.0,9.0,1.0,peppermint_07s.jpg,0.0,clock_5_3.png,2.0,5,,,,,,,,,,,,,,,,,,,,,,,,,,,,,,,,
0.0,1.0,0.809805,0.0,10.0,10.0,10.0,1.0,letter_opener_03s.jpg,0.0,clock_5_4.png,2.0,5,,,,,,,,,,,,,,,,,,,,,,,,,,,,,,,,
0.0,1.0,0.81744,0.0,11.0,11.0,11.0,1.0,jigsaw_puzzle_11s.jpg,0.0,clock_5_5.png,2.0,5,,,,,,,,,,,,,,,,,,,,,,,,,,,,,,,,
0.0,1.0,0.7104,0.0,12.0,12.0,12.0,1.0,bean_06s.jpg,0.0,clock_7_1.png,3.0,5,,,,,,,,,,,,,,,,,,,,,,,,,,,,,,,,
1.0,0.0,1.19297,0.0,13.0,13.0,13.0,1.0,tiara_05s.jpg,0.0,clock_7_2.png,3.0,5,,,,,,,,,,,,,,,,,,,,,,,,,,,,,,,,
0.0,1.0,0.831765,0.0,14.0,14.0,14.0,1.0,toothpaste_12s.jpg,0.0,clock_7_3.png,3.0,5,,,,,,,,,,,,,,,,,,,,,,,,,,,,,,,,
0.0,1.0,1.09285,0.0,15.0,15.0,15.0,1.0,toad_09s.jpg,0.0,clock_7_4.png,3.0,5,,,,,,,,,,,,,,,,,,,,,,,,,,,,,,,,
0.0,1.0,0.67865,0.0,16.0,16.0,16.0,1.0,reindeer_08s.jpg,0.0,clock_7_5.png,3.0,5,,,,,,,,,,,,,,,,,,,,,,,,,,,,,,,,
0.0,1.0,1.242585,0.0,17.0,17.0,17.0,1.0,refrigerator_07s.jpg,0.0,clock_7_6.png,3.0,5,,,,,,,,,,,,,,,,,,,,,,,,,,,,,,,,
0.0,1.0,1.403015,0.0,18.0,18.0,18.0,1.0,koala_13s.jpg,0.0,clock_7_7.png,3.0,5,,,,,,,,,,,,,,,,,,,,,,,,,,,,,,,,
0.0,1.0,0.727845,0.0,19.0,19.0,19.0,1.0,umbrella_15s.jpg,0.0,clock_5_1.png,4.0,5,,,,,,,,,,,,,,,,,,,,,,,,,,,,,,,,
0.0,1.0,1.080875,0.0,20.0,20.0,20.0,1.0,lamp_08s.jpg,0.0,clock_5_2.png,4.0,5,,,,,,,,,,,,,,,,,,,,,,,,,,,,,,,,
0.0,1.0,1.12533,0.0,21.0,21.0,21.0,1.0,bacon_05s.jpg,0.0,clock_5_3.png,4.0,5,,,,,,,,,,,,,,,,,,,,,,,,,,,,,,,,
0.0,1.0,1.231875,0.0,22.0,22.0,22.0,1.0,mug_06s.jpg,0.0,clock_5_4.png,4.0,5,,,,,,,,,,,,,,,,,,,,,,,,,,,,,,,,
0.0,1.0,1.227645,0.0,23.0,23.0,23.0,1.0,telephone_pole_05s.jpg,0.0,clock_5_5.png,4.0,5,,,,,,,,,,,,,,,,,,,,,,,,,,,,,,,,
0.0,1.0,0.94237,0.0,24.0,24.0,24.0,1.0,tablet_04s.jpg,0.0,clock_6_1.png,5.0,5,,,,,,,,,,,,,,,,,,,,,,,,,,,,,,,,
0.0,1.0,1.362275,0.0,25.0,25.0,25.0,1.0,flip_flop_03s.jpg,0.0,clock_6_2.png,5.0,5,,,,,,,,,,,,,,,,,,,,,,,,,,,,,,,,
0.0,1.0,0.994025,0.0,26.0,26.0,26.0,1.0,razor_blade_01b.jpg,0.0,clock_6_3.png,5.0,5,,,,,,,,,,,,,,,,,,,,,,,,,,,,,,,,
0.0,1.0,1.08239,0.0,27.0,27.0,27.0,1.0,turkey_10s.jpg,0.0,clock_6_4.png,5.0,5,,,,,,,,,,,,,,,,,,,,,,,,,,,,,,,,
0.0,1.0,1.50018,0.0,28.0,28.0,28.0,1.0,polar_bear_02s.jpg,0.0,clock_6_5.png,5.0,5,,,,,,,,,,,,,,,,,,,,,,,,,,,,,,,,
0.0,1.0,0.880655,0.0,29.0,29.0,29.0,1.0,pomegranate_04s.jpg,0.0,clock_6_6.png,5.0,5,,,,,,,,,,,,,,,,,,,,,,,,,,,,,,,,
0.0,1.0,1.498885,0.0,30.0,30.0,30.0,1.0,jetski_10s.jpg,0.0,clock_6_1.png,6.0,5,,,,,,,,,,,,,,,,,,,,,,,,,,,,,,,,
0.0,1.0,1.34255,0.0,31.0,31.0,31.0,1.0,milk_02s.jpg,0.0,clock_6_2.png,6.0,5,,,,,,,,,,,,,,,,,,,,,,,,,,,,,,,,
0.0,1.0,0.736905,0.0,32.0,32.0,32.0,1.0,undershirt_02s.jpg,0.0,clock_6_3.png,6.0,5,,,,,,,,,,,,,,,,,,,,,,,,,,,,,,,,
0.0,1.0,1.00421,0.0,33.0,33.0,33.0,1.0,megaphone_03s.jpg,0.0,clock_6_4.png,6.0,5,,,,,,,,,,,,,,,,,,,,,,,,,,,,,,,,
0.0,1.0,0.80389,0.0,34.0,34.0,34.0,1.0,licorice_06s.jpg,0.0,clock_6_5.png,6.0,5,,,,,,,,,,,,,,,,,,,,,,,,,,,,,,,,
0.0,0.0,0.986885,0.0,35.0,35.0,35.0,1.0,jetski_10s.jpg,1.0,clock_6_6.png,6.0,5,,,,,,,,,,,,,,,,,,,,,,,,,,,,,,,,
,,,,,,,,,0.0,,,5,0.0,1.0,1.42022,0.0,0.0,0.0,0.0,1.0,peppermint_07s.jpg,omelet_07s.jpg,,,,,,,,,,,,,,,,,,,,,,
,,,,,,,,,0.0,,,5,1.0,0.0,1.54687,0.0,1.0,1.0,1.0,1.0,meatball_13s.jpg,mannequin_05s.jpg,,,,,,,,,,,,,,,,,,,,,,
,,,,,,,,,0.0,,,5,0.0,1.0,1.34587,0.0,2.0,2.0,2.0,1.0,umbrella_15s.jpg,reindeer_08s.jpg,,,,,,,,,,,,,,,,,,,,,,
,,,,,,,,,0.0,,,5,1.0,0.0,3.71323,0.0,3.0,3.0,3.0,1.0,letter_opener_03s.jpg,buoy_04s.jpg,,,,,,,,,,,,,,,,,,,,,,
,,,,,,,,,0.0,,,5,1.0,0.0,1.81152,0.0,4.0,4.0,4.0,1.0,toad_09s.jpg,bean_06s.jpg,,,,,,,,,,,,,,,,,,,,,,
,,,,,,,,,0.0,,,5,0.0,1.0,2.221095,0.0,5.0,5.0,5.0,1.0,turkey_10s.jpg,tablet_04s.jpg,,,,,,,,,,,,,,,,,,,,,,
0.0,1.0,1.36406,,,,,,swan_11s.jpg,0.0,clockno_up.jpg,1.0,5,,,,,,,,,,,,,,,,,,0.0,0.0,0.0,0.0,1.0,,,,,,,,,,
0.0,1.0,1.13061,,,,,,hummingbird_05s.jpg,0.0,clockno_default.jpg,1.0,5,,,,,,,,,,,,,,,,,,0.0,1.0,1.0,1.0,1.0,,,,,,,,,,
0.0,1.0,0.82362,,,,,,pretzel_09s.jpg,0.0,clockno_default.jpg,1.0,5,,,,,,,,,,,,,,,,,,0.0,2.0,2.0,2.0,1.0,,,,,,,,,,
1.0,1.0,1.264565,,,,,,pretzel_09s.jpg,1.0,clockno_default.jpg,1.0,5,,,,,,,,,,,,,,,,,,0.0,3.0,3.0,3.0,1.0,,,,,,,,,,
1.0,1.0,1.36564,,,,,,pretzel_09s.jpg,1.0,clockno_default.jpg,1.0,5,,,,,,,,,,,,,,,,,,0.0,4.0,4.0,4.0,1.0,,,,,,,,,,
0.0,1.0,1.15948,,,,,,tennis_ball_06s.jpg,0.0,clockno_default.jpg,1.0,5,,,,,,,,,,,,,,,,,,0.0,5.0,5.0,5.0,1.0,,,,,,,,,,
0.0,1.0,1.4827,,,,,,perfume_06s.jpg,0.0,clockno_up.jpg,2.0,5,,,,,,,,,,,,,,,,,,0.0,6.0,6.0,6.0,1.0,,,,,,,,,,
1.0,0.0,1.16976,,,,,,pretzel_09s.jpg,0.0,clockno_default.jpg,2.0,5,,,,,,,,,,,,,,,,,,0.0,7.0,7.0,7.0,1.0,,,,,,,,,,
0.0,1.0,1.09231,,,,,,teapot_03s.jpg,0.0,clockno_default.jpg,2.0,5,,,,,,,,,,,,,,,,,,0.0,8.0,8.0,8.0,1.0,,,,,,,,,,
0.0,1.0,0.941855,,,,,,denture_03s.jpg,0.0,clockno_default.jpg,2.0,5,,,,,,,,,,,,,,,,,,0.0,9.0,9.0,9.0,1.0,,,,,,,,,,
0.0,1.0,1.27527,,,,,,mitten_10s.jpg,0.0,clockno_default.jpg,2.0,5,,,,,,,,,,,,,,,,,,0.0,10.0,10.0,10.0,1.0,,,,,,,,,,
0.0,1.0,1.105105,,,,,,pineapple_12s.jpg,0.0,clockno_up.jpg,3.0,5,,,,,,,,,,,,,,,,,,0.0,11.0,11.0,11.0,1.0,,,,,,,,,,
0.0,1.0,1.782815,,,,,,fire_pit_10s.jpg,0.0,clockno_default.jpg,3.0,5,,,,,,,,,,,,,,,,,,0.0,12.0,12.0,12.0,1.0,,,,,,,,,,
0.0,1.0,1.356215,,,,,,icemaker_10s.jpg,0.0,clockno_default.jpg,3.0,5,,,,,,,,,,,,,,,,,,0.0,13.0,13.0,13.0,1.0,,,,,,,,,,
1.0,0.0,1.238135,,,,,,denture_03s.jpg,0.0,clockno_default.jpg,3.0,5,,,,,,,,,,,,,,,,,,0.0,14.0,14.0,14.0,1.0,,,,,,,,,,
0.0,1.0,1.11972,,,,,,tomato_sauce_09s.jpg,0.0,clockno_default.jpg,3.0,5,,,,,,,,,,,,,,,,,,0.0,15.0,15.0,15.0,1.0,,,,,,,,,,
0.0,1.0,1.17087,,,,,,chalice_10s.jpg,0.0,clockno_up.jpg,4.0,5,,,,,,,,,,,,,,,,,,0.0,16.0,16.0,16.0,1.0,,,,,,,,,,
0.0,1.0,1.135425,,,,,,pepper_mill_03s.jpg,0.0,clockno_default.jpg,4.0,5,,,,,,,,,,,,,,,,,,0.0,17.0,17.0,17.0,1.0,,,,,,,,,,
0.0,1.0,1.189325,,,,,,pencil_sharpener_09n.jpg,0.0,clockno_default.jpg,4.0,5,,,,,,,,,,,,,,,,,,0.0,18.0,18.0,18.0,1.0,,,,,,,,,,
1.0,1.0,1.26544,,,,,,chalice_10s.jpg,1.0,clockno_default.jpg,4.0,5,,,,,,,,,,,,,,,,,,0.0,19.0,19.0,19.0,1.0,,,,,,,,,,
0.0,1.0,1.17415,,,,,,crossbow_10s.jpg,0.0,clockno_default.jpg,4.0,5,,,,,,,,,,,,,,,,,,0.0,20.0,20.0,20.0,1.0,,,,,,,,,,
0.0,1.0,1.1298,,,,,,tortilla_06s.jpg,0.0,clockno_default.jpg,4.0,5,,,,,,,,,,,,,,,,,,0.0,21.0,21.0,21.0,1.0,,,,,,,,,,
0.0,1.0,1.07643,,,,,,penlight_12s.jpg,0.0,clockno_default.jpg,4.0,5,,,,,,,,,,,,,,,,,,0.0,22.0,22.0,22.0,1.0,,,,,,,,,,
0.0,1.0,1.076175,,,,,,keyboard_05s.jpg,0.0,clockno_up.jpg,5.0,5,,,,,,,,,,,,,,,,,,0.0,23.0,23.0,23.0,1.0,,,,,,,,,,
1.0,1.0,1.04474,,,,,,keyboard_05s.jpg,1.0,clockno_default.jpg,5.0,5,,,,,,,,,,,,,,,,,,0.0,24.0,24.0,24.0,1.0,,,,,,,,,,
0.0,1.0,1.0084,,,,,,sparkler_02s.jpg,0.0,clockno_default.jpg,5.0,5,,,,,,,,,,,,,,,,,,0.0,25.0,25.0,25.0,1.0,,,,,,,,,,
0.0,1.0,0.9731,,,,,,pinwheel_06s.jpg,0.0,clockno_default.jpg,5.0,5,,,,,,,,,,,,,,,,,,0.0,26.0,26.0,26.0,1.0,,,,,,,,,,
0.0,1.0,1.0647,,,,,,frog_09s.jpg,0.0,clockno_default.jpg,5.0,5,,,,,,,,,,,,,,,,,,0.0,27.0,27.0,27.0,1.0,,,,,,,,,,
1.0,0.0,1.276115,,,,,,pepper_mill_03s.jpg,0.0,clockno_default.jpg,5.0,5,,,,,,,,,,,,,,,,,,0.0,28.0,28.0,28.0,1.0,,,,,,,,,,
0.0,1.0,1.076545,,,,,,gargoyle_08s.jpg,0.0,clockno_default.jpg,5.0,5,,,,,,,,,,,,,,,,,,0.0,29.0,29.0,29.0,1.0,,,,,,,,,,
0.0,1.0,1.096695,,,,,,rosary_03s.jpg,0.0,clockno_up.jpg,6.0,5,,,,,,,,,,,,,,,,,,0.0,30.0,30.0,30.0,1.0,,,,,,,,,,
1.0,1.0,1.288085,,,,,,rosary_03s.jpg,1.0,clockno_default.jpg,6.0,5,,,,,,,,,,,,,,,,,,0.0,31.0,31.0,31.0,1.0,,,,,,,,,,
0.0,1.0,1.093945,,,,,,chocolate_01b.jpg,0.0,clockno_default.jpg,6.0,5,,,,,,,,,,,,,,,,,,0.0,32.0,32.0,32.0,1.0,,,,,,,,,,
1.0,1.0,1.176145,,,,,,chocolate_01b.jpg,1.0,clockno_default.jpg,6.0,5,,,,,,,,,,,,,,,,,,0.0,33.0,33.0,33.0,1.0,,,,,,,,,,
0.0,1.0,1.32016,,,,,,raft_09s.jpg,0.0,clockno_default.jpg,6.0,5,,,,,,,,,,,,,,,,,,0.0,34.0,34.0,34.0,1.0,,,,,,,,,,
0.0,1.0,1.217875,,,,,,ravioli_08s.jpg,0.0,clockno_default.jpg,6.0,5,,,,,,,,,,,,,,,,,,0.0,35.0,35.0,35.0,1.0,,,,,,,,,,
,,,,,,,,,0.0,,,5,1.0,0.0,2.876695,,,,,,teapot_03s.jpg,tennis_ball_06s.jpg,,,,,,,,,,,,,0.0,0.0,0.0,0.0,1.0,,,,,
,,,,,,,,,1.0,,,5,0.0,0.0,4.480165,,,,,,mitten_10s.jpg,icemaker_10s.jpg,,,,,,,,,,,,,0.0,1.0,1.0,1.0,1.0,,,,,
,,,,,,,,,0.0,,,5,0.0,1.0,2.017785,,,,,,sparkler_02s.jpg,penlight_12s.jpg,,,,,,,,,,,,,0.0,2.0,2.0,2.0,1.0,,,,,
,,,,,,,,,1.0,,,5,1.0,1.0,2.369775,,,,,,pinwheel_06s.jpg,gargoyle_08s.jpg,,,,,,,,,,,,,0.0,3.0,3.0,3.0,1.0,,,,,
,,,,,,,,,1.0,,,5,1.0,1.0,1.9121,,,,,,fire_pit_10s.jpg,tomato_sauce_09s.jpg,,,,,,,,,,,,,0.0,4.0,4.0,4.0,1.0,,,,,
,,,,,,,,,1.0,,,5,0.0,0.0,2.708325,,,,,,pencil_sharpener_09n.jpg,tortilla_06s.jpg,,,,,,,,,,,,,0.0,5.0,5.0,5.0,1.0,,,,,
,,,,,,,,,,,,5,,,,,,,,,,,,,,,,clockno_present_1_14.xlsx,clockno_compare_task_1_14.xlsx,,,,,,,,,,,0.0,0.0,0.0,0.0,1.0
0.0,1.0,1.25346,,,,,,mousetrap_15n.jpg,0.0,clockno_up.jpg,1.0,5,,,,,,,,,,,,,,,,,,0.0,0.0,0.0,0.0,1.0,,,,,,,,,,
0.0,1.0,0.846845,,,,,,bee_20s.jpg,0.0,clockno_default.jpg,1.0,5,,,,,,,,,,,,,,,,,,0.0,1.0,1.0,1.0,1.0,,,,,,,,,,
1.0,1.0,1.210235,,,,,,bee_20s.jpg,1.0,clockno_default.jpg,1.0,5,,,,,,,,,,,,,,,,,,0.0,2.0,2.0,2.0,1.0,,,,,,,,,,
0.0,0.0,1.42747,,,,,,mousetrap_15n.jpg,1.0,clockno_default.jpg,1.0,5,,,,,,,,,,,,,,,,,,0.0,3.0,3.0,3.0,1.0,,,,,,,,,,
1.0,1.0,1.20162,,,,,,mousetrap_15n.jpg,1.0,clockno_default.jpg,1.0,5,,,,,,,,,,,,,,,,,,0.0,4.0,4.0,4.0,1.0,,,,,,,,,,
0.0,1.0,1.13781,,,,,,birdcage_08s.jpg,0.0,clockno_up.jpg,2.0,5,,,,,,,,,,,,,,,,,,0.0,5.0,5.0,5.0,1.0,,,,,,,,,,
0.0,1.0,1.388395,,,,,,recliner_02s.jpg,0.0,clockno_default.jpg,2.0,5,,,,,,,,,,,,,,,,,,0.0,6.0,6.0,6.0,1.0,,,,,,,,,,
0.0,1.0,1.373745,,,,,,plunger_08s.jpg,0.0,clockno_default.jpg,2.0,5,,,,,,,,,,,,,,,,,,0.0,7.0,7.0,7.0,1.0,,,,,,,,,,
0.0,1.0,1.078025,,,,,,marker_05s.jpg,0.0,clockno_default.jpg,2.0,5,,,,,,,,,,,,,,,,,,0.0,8.0,8.0,8.0,1.0,,,,,,,,,,
0.0,1.0,1.068745,,,,,,rocking_horse_03s.jpg,0.0,clockno_default.jpg,2.0,5,,,,,,,,,,,,,,,,,,0.0,9.0,9.0,9.0,1.0,,,,,,,,,,
0.0,1.0,0.97917,,,,,,tape_06s.jpg,0.0,clockno_default.jpg,2.0,5,,,,,,,,,,,,,,,,,,0.0,10.0,10.0,10.0,1.0,,,,,,,,,,
0.0,1.0,0.752335,,,,,,plaster_cast_13s.jpg,0.0,clockno_default.jpg,2.0,5,,,,,,,,,,,,,,,,,,0.0,11.0,11.0,11.0,1.0,,,,,,,,,,
0.0,1.0,0.874945,,,,,,diving_board_07s.jpg,0.0,clockno_up.jpg,3.0,5,,,,,,,,,,,,,,,,,,0.0,12.0,12.0,12.0,1.0,,,,,,,,,,
0.0,1.0,0.742855,,,,,,ring_03s.jpg,0.0,clockno_default.jpg,3.0,5,,,,,,,,,,,,,,,,,,0.0,13.0,13.0,13.0,1.0,,,,,,,,,,
0.0,1.0,1.280855,,,,,,lollipop_08s.jpg,0.0,clockno_default.jpg,3.0,5,,,,,,,,,,,,,,,,,,0.0,14.0,14.0,14.0,1.0,,,,,,,,,,
0.0,0.0,1.69583,,,,,,diving_board_07s.jpg,1.0,clockno_default.jpg,3.0,5,,,,,,,,,,,,,,,,,,0.0,15.0,15.0,15.0,1.0,,,,,,,,,,
1.0,0.0,1.554145,,,,,,marker_05s.jpg,0.0,clockno_default.jpg,3.0,5,,,,,,,,,,,,,,,,,,0.0,16.0,16.0,16.0,1.0,,,,,,,,,,
0.0,1.0,1.11208,,,,,,rooster_03s.jpg,0.0,clockno_default.jpg,3.0,5,,,,,,,,,,,,,,,,,,0.0,17.0,17.0,17.0,1.0,,,,,,,,,,
0.0,1.0,1.209715,,,,,,bolo_tie_08s.jpg,0.0,clockno_up.jpg,4.0,5,,,,,,,,,,,,,,,,,,0.0,18.0,18.0,18.0,1.0,,,,,,,,,,
1.0,1.0,1.29144,,,,,,bolo_tie_08s.jpg,1.0,clockno_default.jpg,4.0,5,,,,,,,,,,,,,,,,,,0.0,19.0,19.0,19.0,1.0,,,,,,,,,,
1.0,1.0,1.464055,,,,,,bolo_tie_08s.jpg,1.0,clockno_default.jpg,4.0,5,,,,,,,,,,,,,,,,,,0.0,20.0,20.0,20.0,1.0,,,,,,,,,,
0.0,1.0,1.133755,,,,,,lion_18s.jpg,0.0,clockno_default.jpg,4.0,5,,,,,,,,,,,,,,,,,,0.0,21.0,21.0,21.0,1.0,,,,,,,,,,
0.0,1.0,1.2054,,,,,,ladle_04s.jpg,0.0,clockno_default.jpg,4.0,5,,,,,,,,,,,,,,,,,,0.0,22.0,22.0,22.0,1.0,,,,,,,,,,
0.0,1.0,1.13738,,,,,,bank_06s.jpg,0.0,clockno_default.jpg,4.0,5,,,,,,,,,,,,,,,,,,0.0,23.0,23.0,23.0,1.0,,,,,,,,,,
0.0,1.0,1.44703,,,,,,turtleneck_11s.jpg,0.0,clockno_default.jpg,4.0,5,,,,,,,,,,,,,,,,,,0.0,24.0,24.0,24.0,1.0,,,,,,,,,,
0.0,1.0,1.113075,,,,,,funnel_01b.jpg,0.0,clockno_up.jpg,5.0,5,,,,,,,,,,,,,,,,,,0.0,25.0,25.0,25.0,1.0,,,,,,,,,,
0.0,1.0,1.329255,,,,,,antenna_01b.jpg,0.0,clockno_default.jpg,5.0,5,,,,,,,,,,,,,,,,,,0.0,26.0,26.0,26.0,1.0,,,,,,,,,,
0.0,1.0,0.87607,,,,,,juicer2_06s.jpg,0.0,clockno_default.jpg,5.0,5,,,,,,,,,,,,,,,,,,0.0,27.0,27.0,27.0,1.0,,,,,,,,,,
0.0,0.0,1.532745,,,,,,funnel_01b.jpg,1.0,clockno_default.jpg,5.0,5,,,,,,,,,,,,,,,,,,0.0,28.0,28.0,28.0,1.0,,,,,,,,,,
0.0,1.0,1.357925,,,,,,sunflower_17s.jpg,0.0,clockno_default.jpg,5.0,5,,,,,,,,,,,,,,,,,,0.0,29.0,29.0,29.0,1.0,,,,,,,,,,
1.0,0.0,1.51115,,,,,,crayon_09s.jpg,0.0,clockno_default.jpg,5.0,5,,,,,,,,,,,,,,,,,,0.0,30.0,30.0,30.0,1.0,,,,,,,,,,
0.0,1.0,1.33708,,,,,,gas_mask_11s.jpg,0.0,clockno_up.jpg,6.0,5,,,,,,,,,,,,,,,,,,0.0,31.0,31.0,31.0,1.0,,,,,,,,,,
0.0,1.0,1.20034,,,,,,inhaler_01b.jpg,0.0,clockno_default.jpg,6.0,5,,,,,,,,,,,,,,,,,,0.0,32.0,32.0,32.0,1.0,,,,,,,,,,
,0.0,,,,,,,gas_mask_11s.jpg,1.0,clockno_default.jpg,6.0,5,,,,,,,,,,,,,,,,,,0.0,33.0,33.0,33.0,1.0,,,,,,,,,,
0.0,1.0,0.83613,,,,,,sunglasses_11s.jpg,0.0,clockno_default.jpg,6.0,5,,,,,,,,,,,,,,,,,,0.0,34.0,34.0,34.0,1.0,,,,,,,,,,
1.0,0.0,1.34586,,,,,,rooster_03s.jpg,0.0,clockno_default.jpg,6.0,5,,,,,,,,,,,,,,,,,,0.0,35.0,35.0,35.0,1.0,,,,,,,,,,
,,,,,,,,,1.0,,,5,0.0,0.0,1.631755,,,,,,plaster_cast_13s.jpg,lollipop_08s.jpg,,,,,,,,,,,,,0.0,0.0,0.0,0.0,1.0,,,,,
,,,,,,,,,1.0,,,5,1.0,1.0,2.09001,,,,,,tape_06s.jpg,ring_03s.jpg,,,,,,,,,,,,,0.0,1.0,1.0,1.0,1.0,,,,,
,,,,,,,,,1.0,,,5,0.0,0.0,2.46328,,,,,,bank_06s.jpg,antenna_01b.jpg,,,,,,,,,,,,,0.0,2.0,2.0,2.0,1.0,,,,,
,,,,,,,,,1.0,,,5,0.0,0.0,1.640225,,,,,,recliner_02s.jpg,rocking_horse_03s.jpg,,,,,,,,,,,,,0.0,3.0,3.0,3.0,1.0,,,,,
,,,,,,,,,0.0,,,5,1.0,0.0,1.30733,,,,,,turtleneck_11s.jpg,lion_18s.jpg,,,,,,,,,,,,,0.0,4.0,4.0,4.0,1.0,,,,,
,,,,,,,,,1.0,,,5,1.0,1.0,2.55296,,,,,,juicer2_06s.jpg,crayon_09s.jpg,,,,,,,,,,,,,0.0,5.0,5.0,5.0,1.0,,,,,
,,,,,,,,,,,,5,,,,,,,,,,,,,,,,clockno_present_2_14.xlsx,clockno_compare_task_2_14.xlsx,,,,,,,,,,,0.0,1.0,1.0,1.0,1.0
0.0,1.0,1.42389,,,,,,phone_01b.jpg,0.0,clockno_up.jpg,1.0,5,,,,,,,,,,,,,,,,,,0.0,0.0,0.0,0.0,1.0,,,,,,,,,,
1.0,1.0,1.324625,,,,,,phone_01b.jpg,1.0,clockno_default.jpg,1.0,5,,,,,,,,,,,,,,,,,,0.0,1.0,1.0,1.0,1.0,,,,,,,,,,
0.0,1.0,0.9783,,,,,,pan_02s.jpg,0.0,clockno_default.jpg,1.0,5,,,,,,,,,,,,,,,,,,0.0,2.0,2.0,2.0,1.0,,,,,,,,,,
0.0,1.0,1.106405,,,,,,turnstile_08s.jpg,0.0,clockno_default.jpg,1.0,5,,,,,,,,,,,,,,,,,,0.0,3.0,3.0,3.0,1.0,,,,,,,,,,
0.0,1.0,1.4417,,,,,,rolling_pin_02s.jpg,0.0,clockno_default.jpg,1.0,5,,,,,,,,,,,,,,,,,,0.0,4.0,4.0,4.0,1.0,,,,,,,,,,
0.0,1.0,1.31284,,,,,,rocket_02s.jpg,0.0,clockno_default.jpg,1.0,5,,,,,,,,,,,,,,,,,,0.0,5.0,5.0,5.0,1.0,,,,,,,,,,
0.0,1.0,1.306445,,,,,,cape_11s.jpg,0.0,clockno_default.jpg,1.0,5,,,,,,,,,,,,,,,,,,0.0,6.0,6.0,6.0,1.0,,,,,,,,,,
0.0,1.0,1.29447,,,,,,tube_top_03s.jpg,0.0,clockno_up.jpg,2.0,5,,,,,,,,,,,,,,,,,,0.0,7.0,7.0,7.0,1.0,,,,,,,,,,
0.0,1.0,0.78517,,,,,,gingerbread_man_03s.jpg,0.0,clockno_default.jpg,2.0,5,,,,,,,,,,,,,,,,,,0.0,8.0,8.0,8.0,1.0,,,,,,,,,,
0.0,1.0,0.96389,,,,,,bottle_opener_11s.jpg,0.0,clockno_default.jpg,2.0,5,,,,,,,,,,,,,,,,,,0.0,9.0,9.0,9.0,1.0,,,,,,,,,,
0.0,1.0,1.076685,,,,,,light_switch_02s.jpg,0.0,clockno_default.jpg,2.0,5,,,,,,,,,,,,,,,,,,0.0,10.0,10.0,10.0,1.0,,,,,,,,,,
,0.0,,,,,,,gingerbread_man_03s.jpg,1.0,clockno_default.jpg,2.0,5,,,,,,,,,,,,,,,,,,0.0,11.0,11.0,11.0,1.0,,,,,,,,,,
0.0,1.0,0.902455,,,,,,turf_03s.jpg,0.0,clockno_up.jpg,3.0,5,,,,,,,,,,,,,,,,,,0.0,12.0,12.0,12.0,1.0,,,,,,,,,,
0.0,1.0,1.376125,,,,,,poinsettia_04s.jpg,0.0,clockno_default.jpg,3.0,5,,,,,,,,,,,,,,,,,,0.0,13.0,13.0,13.0,1.0,,,,,,,,,,
1.0,1.0,1.342915,,,,,,turf_03s.jpg,1.0,clockno_default.jpg,3.0,5,,,,,,,,,,,,,,,,,,0.0,14.0,14.0,14.0,1.0,,,,,,,,,,
0.0,1.0,1.041555,,,,,,quilt_03s.jpg,0.0,clockno_default.jpg,3.0,5,,,,,,,,,,,,,,,,,,0.0,15.0,15.0,15.0,1.0,,,,,,,,,,
1.0,0.0,1.48064,,,,,,tube_top_03s.jpg,0.0,clockno_default.jpg,3.0,5,,,,,,,,,,,,,,,,,,0.0,16.0,16.0,16.0,1.0,,,,,,,,,,
0.0,1.0,1.127245,,,,,,compass_10n.jpg,0.0,clockno_default.jpg,3.0,5,,,,,,,,,,,,,,,,,,0.0,17.0,17.0,17.0,1.0,,,,,,,,,,
0.0,1.0,1.119125,,,,,,fur_coat_11s.jpg,0.0,clockno_default.jpg,3.0,5,,,,,,,,,,,,,,,,,,0.0,18.0,18.0,18.0,1.0,,,,,,,,,,
0.0,1.0,1.102895,,,,,,squirt_gun_03s.jpg,0.0,clockno_up.jpg,4.0,5,,,,,,,,,,,,,,,,,,0.0,19.0,19.0,19.0,1.0,,,,,,,,,,
1.0,1.0,1.24714,,,,,,squirt_gun_03s.jpg,1.0,clockno_default.jpg,4.0,5,,,,,,,,,,,,,,,,,,0.0,20.0,20.0,20.0,1.0,,,,,,,,,,
0.0,1.0,1.13696,,,,,,candy_cane_06s.jpg,0.0,clockno_default.jpg,4.0,5,,,,,,,,,,,,,,,,,,0.0,21.0,21.0,21.0,1.0,,,,,,,,,,
0.0,1.0,1.23456,,,,,,boar_10s.jpg,0.0,clockno_default.jpg,4.0,5,,,,,,,,,,,,,,,,,,0.0,22.0,22.0,22.0,1.0,,,,,,,,,,
1.0,0.0,1.294005,,,,,,poinsettia_04s.jpg,0.0,clockno_default.jpg,4.0,5,,,,,,,,,,,,,,,,,,0.0,23.0,23.0,23.0,1.0,,,,,,,,,,
0.0,1.0,1.33677,,,,,,possum_09s.jpg,0.0,clockno_default.jpg,4.0,5,,,,,,,,,,,,,,,,,,0.0,24.0,24.0,24.0,1.0,,,,,,,,,,
0.0,1.0,1.252245,,,,,,cobra_05s.jpg,0.0,clockno_up.jpg,5.0,5,,,,,,,,,,,,,,,,,,0.0,25.0,25.0,25.0,1.0,,,,,,,,,,
0.0,1.0,1.190365,,,,,,chopsticks_08s.jpg,0.0,clockno_default.jpg,5.0,5,,,,,,,,,,,,,,,,,,0.0,26.0,26.0,26.0,1.0,,,,,,,,,,
0.0,1.0,1.328455,,,,,,fossil_06s.jpg,0.0,clockno_default.jpg,5.0,5,,,,,,,,,,,,,,,,,,0.0,27.0,27.0,27.0,1.0,,,,,,,,,,
1.0,1.0,1.192615,,,,,,fossil_06s.jpg,1.0,clockno_default.jpg,5.0,5,,,,,,,,,,,,,,,,,,0.0,28.0,28.0,28.0,1.0,,,,,,,,,,
0.0,1.0,1.57886,,,,,,padlock_07s.jpg,0.0,clockno_default.jpg,5.0,5,,,,,,,,,,,,,,,,,,0.0,29.0,29.0,29.0,1.0,,,,,,,,,,
0.0,1.0,1.09352,,,,,,soda_fountain_03s.jpg,0.0,clockno_up.jpg,6.0,5,,,,,,,,,,,,,,,,,,0.0,30.0,30.0,30.0,1.0,,,,,,,,,,
0.0,1.0,1.57812,,,,,,pipe1_10s.jpg,0.0,clockno_default.jpg,6.0,5,,,,,,,,,,,,,,,,,,0.0,31.0,31.0,31.0,1.0,,,,,,,,,,
0.0,1.0,1.99401,,,,,,loom_05s.jpg,0.0,clockno_default.jpg,6.0,5,,,,,,,,,,,,,,,,,,0.0,32.0,32.0,32.0,1.0,,,,,,,,,,
0.0,1.0,1.27801,,,,,,jersey_02s.jpg,0.0,clockno_default.jpg,6.0,5,,,,,,,,,,,,,,,,,,0.0,33.0,33.0,33.0,1.0,,,,,,,,,,
0.0,1.0,1.289955,,,,,,mop_08s.jpg,0.0,clockno_default.jpg,6.0,5,,,,,,,,,,,,,,,,,,0.0,34.0,34.0,34.0,1.0,,,,,,,,,,
0.0,1.0,1.04455,,,,,,puppet_01b.jpg,0.0,clockno_default.jpg,6.0,5,,,,,,,,,,,,,,,,,,0.0,35.0,35.0,35.0,1.0,,,,,,,,,,
,,,,,,,,,1.0,,,5,1.0,1.0,2.361785,,,,,,boar_10s.jpg,cobra_05s.jpg,,,,,,,,,,,,,0.0,0.0,0.0,0.0,1.0,,,,,
,,,,,,,,,0.0,,,5,0.0,1.0,3.137635,,,,,,bottle_opener_11s.jpg,cape_11s.jpg,,,,,,,,,,,,,0.0,1.0,1.0,1.0,1.0,,,,,
,,,,,,,,,0.0,,,5,1.0,0.0,2.63275,,,,,,candy_cane_06s.jpg,fur_coat_11s.jpg,,,,,,,,,,,,,0.0,2.0,2.0,2.0,1.0,,,,,
,,,,,,,,,0.0,,,5,0.0,1.0,1.481005,,,,,,rocket_02s.jpg,pan_02s.jpg,,,,,,,,,,,,,0.0,3.0,3.0,3.0,1.0,,,,,
,,,,,,,,,1.0,,,5,1.0,1.0,2.02568,,,,,,soda_fountain_03s.jpg,jersey_02s.jpg,,,,,,,,,,,,,0.0,4.0,4.0,4.0,1.0,,,,,
,,,,,,,,,0.0,,,5,0.0,1.0,3.246765,,,,,,mop_08s.jpg,pipe1_10s.jpg,,,,,,,,,,,,,0.0,5.0,5.0,5.0,1.0,,,,,
,,,,,,,,,,,,5,,,,,,,,,,,,,,,,clockno_present_3_14.xlsx,clockno_compare_task_3_14.xlsx,,,,,,,,,,,0.0,2.0,2.0,2.0,1.0
0.0,1.0,1.379215,,,,,,beard_16s.jpg,0.0,clockno_up.jpg,1.0,5,,,,,,,,,,,,,,,,,,0.0,0.0,0.0,0.0,1.0,,,,,,,,,,
0.0,0.0,0.8446,,,,,,beard_16s.jpg,1.0,clockno_default.jpg,1.0,5,,,,,,,,,,,,,,,,,,0.0,1.0,1.0,1.0,1.0,,,,,,,,,,
0.0,1.0,1.002985,,,,,,printer_09s.jpg,0.0,clockno_default.jpg,1.0,5,,,,,,,,,,,,,,,,,,0.0,2.0,2.0,2.0,1.0,,,,,,,,,,
0.0,1.0,1.281075,,,,,,juicer1_08s.jpg,0.0,clockno_default.jpg,1.0,5,,,,,,,,,,,,,,,,,,0.0,3.0,3.0,3.0,1.0,,,,,,,,,,
0.0,1.0,1.280505,,,,,,cotton_candy_01b.jpg,0.0,clockno_default.jpg,1.0,5,,,,,,,,,,,,,,,,,,0.0,4.0,4.0,4.0,1.0,,,,,,,,,,
0.0,1.0,1.14841,,,,,,tape_measure_11s.jpg,0.0,clockno_up.jpg,2.0,5,,,,,,,,,,,,,,,,,,0.0,5.0,5.0,5.0,1.0,,,,,,,,,,
1.0,0.0,1.35109,,,,,,beard_16s.jpg,0.0,clockno_default.jpg,2.0,5,,,,,,,,,,,,,,,,,,0.0,6.0,6.0,6.0,1.0,,,,,,,,,,
0.0,1.0,1.83785,,,,,,trampoline_13s.jpg,0.0,clockno_default.jpg,2.0,5,,,,,,,,,,,,,,,,,,0.0,7.0,7.0,7.0,1.0,,,,,,,,,,
1.0,1.0,1.127355,,,,,,trampoline_13s.jpg,1.0,clockno_default.jpg,2.0,5,,,,,,,,,,,,,,,,,,0.0,8.0,8.0,8.0,1.0,,,,,,,,,,
1.0,1.0,1.61063,,,,,,trampoline_13s.jpg,1.0,clockno_default.jpg,2.0,5,,,,,,,,,,,,,,,,,,0.0,9.0,9.0,9.0,1.0,,,,,,,,,,
0.0,1.0,1.762935,,,,,,kangaroo_02s.jpg,0.0,clockno_default.jpg,2.0,5,,,,,,,,,,,,,,,,,,0.0,10.0,10.0,10.0,1.0,,,,,,,,,,
,0.0,,,,,,,mirror_12s.jpg,0.0,clockno_default.jpg,2.0,5,,,,,,,,,,,,,,,,,,0.0,11.0,11.0,11.0,1.0,,,,,,,,,,
0.0,1.0,1.07357,,,,,,powder_07s.jpg,0.0,clockno_up.jpg,3.0,5,,,,,,,,,,,,,,,,,,0.0,12.0,12.0,12.0,1.0,,,,,,,,,,
0.0,1.0,1.087085,,,,,,rollerskate_03s.jpg,0.0,clockno_default.jpg,3.0,5,,,,,,,,,,,,,,,,,,0.0,13.0,13.0,13.0,1.0,,,,,,,,,,
0.0,1.0,1.2885,,,,,,gear_07s.jpg,0.0,clockno_default.jpg,3.0,5,,,,,,,,,,,,,,,,,,0.0,14.0,14.0,14.0,1.0,,,,,,,,,,
0.0,1.0,0.81231,,,,,,playpen_11s.jpg,0.0,clockno_default.jpg,3.0,5,,,,,,,,,,,,,,,,,,0.0,15.0,15.0,15.0,1.0,,,,,,,,,,
1.0,1.0,1.341795,,,,,,playpen_11s.jpg,1.0,clockno_default.jpg,3.0,5,,,,,,,,,,,,,,,,,,0.0,16.0,16.0,16.0,1.0,,,,,,,,,,
0.0,1.0,1.021035,,,,,,keyhole_03s.jpg,0.0,clockno_up.jpg,4.0,5,,,,,,,,,,,,,,,,,,0.0,17.0,17.0,17.0,1.0,,,,,,,,,,
0.0,1.0,1.25489,,,,,,spoon02a.jpg,0.0,clockno_default.jpg,4.0,5,,,,,,,,,,,,,,,,,,0.0,18.0,18.0,18.0,1.0,,,,,,,,,,
0.0,1.0,0.96533,,,,,,mud_13s.jpg,0.0,clockno_default.jpg,4.0,5,,,,,,,,,,,,,,,,,,0.0,19.0,19.0,19.0,1.0,,,,,,,,,,
0.0,1.0,1.091325,,,,,,pea_11s.jpg,0.0,clockno_default.jpg,4.0,5,,,,,,,,,,,,,,,,,,0.0,20.0,20.0,20.0,1.0,,,,,,,,,,
1.0,1.0,0.96121,,,,,,spoon02a.jpg,1.0,clockno_default.jpg,4.0,5,,,,,,,,,,,,,,,,,,0.0,21.0,21.0,21.0,1.0,,,,,,,,,,
0.0,1.0,0.87837,,,,,,turtle_08s.jpg,0.0,clockno_default.jpg,4.0,5,,,,,,,,,,,,,,,,,,0.0,22.0,22.0,22.0,1.0,,,,,,,,,,
0.0,1.0,0.82459,,,,,,tattoo_14s.jpg,0.0,clockno_up.jpg,5.0,5,,,,,,,,,,,,,,,,,,0.0,23.0,23.0,23.0,1.0,,,,,,,,,,
1.0,0.0,1.55357,,,,,,mirror_12s.jpg,0.0,clockno_default.jpg,5.0,5,,,,,,,,,,,,,,,,,,0.0,24.0,24.0,24.0,1.0,,,,,,,,,,
0.0,1.0,1.12844,,,,,,tie_03s.jpg,0.0,clockno_default.jpg,5.0,5,,,,,,,,,,,,,,,,,,0.0,25.0,25.0,25.0,1.0,,,,,,,,,,
0.0,1.0,1.32991,,,,,,printer_09s.jpg,0.0,clockno_default.jpg,5.0,5,,,,,,,,,,,,,,,,,,0.0,26.0,26.0,26.0,1.0,,,,,,,,,,
0.0,1.0,1.148795,,,,,,roller_coaster_07s.jpg,0.0,clockno_default.jpg,5.0,5,,,,,,,,,,,,,,,,,,0.0,27.0,27.0,27.0,1.0,,,,,,,,,,
1.0,1.0,1.564405,,,,,,tattoo_14s.jpg,1.0,clockno_default.jpg,5.0,5,,,,,,,,,,,,,,,,,,0.0,28.0,28.0,28.0,1.0,,,,,,,,,,
0.0,1.0,0.79372,,,,,,toy_04s.jpg,0.0,clockno_default.jpg,5.0,5,,,,,,,,,,,,,,,,,,0.0,29.0,29.0,29.0,1.0,,,,,,,,,,
0.0,1.0,0.91342,,,,,,projector_08s.jpg,0.0,clockno_up.jpg,6.0,5,,,,,,,,,,,,,,,,,,0.0,30.0,30.0,30.0,1.0,,,,,,,,,,
0.0,1.0,1.444955,,,,,,ink_08s.jpg,0.0,clockno_default.jpg,6.0,5,,,,,,,,,,,,,,,,,,0.0,31.0,31.0,31.0,1.0,,,,,,,,,,
0.0,1.0,0.870925,,,,,,teabag_12s.jpg,0.0,clockno_default.jpg,6.0,5,,,,,,,,,,,,,,,,,,0.0,32.0,32.0,32.0,1.0,,,,,,,,,,
0.0,1.0,1.328375,,,,,,tongs_08s.jpg,0.0,clockno_default.jpg,6.0,5,,,,,,,,,,,,,,,,,,0.0,33.0,33.0,33.0,1.0,,,,,,,,,,
0.0,1.0,1.27299,,,,,,power_line_08s.jpg,0.0,clockno_default.jpg,6.0,5,,,,,,,,,,,,,,,,,,0.0,34.0,34.0,34.0,1.0,,,,,,,,,,
0.0,1.0,1.183855,,,,,,margarita_03s.jpg,0.0,clockno_default.jpg,6.0,5,,,,,,,,,,,,,,,,,,0.0,35.0,35.0,35.0,1.0,,,,,,,,,,
,,,,,,,,,0.0,,,5,0.0,1.0,3.2086,,,,,,rollerskate_03s.jpg,kangaroo_02s.jpg,,,,,,,,,,,,,0.0,0.0,0.0,0.0,1.0,,,,,
,,,,,,,,,0.0,,,5,0.0,1.0,3.24706,,,,,,keyhole_03s.jpg,gear_07s.jpg,,,,,,,,,,,,,0.0,1.0,1.0,1.0,1.0,,,,,
,,,,,,,,,0.0,,,5,0.0,1.0,3.106875,,,,,,tie_03s.jpg,turtle_08s.jpg,,,,,,,,,,,,,0.0,2.0,2.0,2.0,1.0,,,,,
,,,,,,,,,1.0,,,5,1.0,1.0,2.764515,,,,,,ink_08s.jpg,power_line_08s.jpg,,,,,,,,,,,,,0.0,3.0,3.0,3.0,1.0,,,,,
,,,,,,,,,0.0,,,5,0.0,1.0,1.920255,,,,,,tongs_08s.jpg,projector_08s.jpg,,,,,,,,,,,,,0.0,4.0,4.0,4.0,1.0,,,,,
,,,,,,,,,1.0,,,5,1.0,1.0,2.478795,,,,,,teabag_12s.jpg,margarita_03s.jpg,,,,,,,,,,,,,0.0,5.0,5.0,5.0,1.0,,,,,
,,,,,,,,,,,,5,,,,,,,,,,,,,,,,clockno_present_4_14.xlsx,clockno_compare_task_4_14.xlsx,,,,,,,,,,,0.0,3.0,3.0,3.0,1.0
0.0,1.0,1.7463,,,,,,camcorder_10s.jpg,0.0,clockno_up.jpg,1.0,5,,,,,,,,,,,,,,,,,,0.0,0.0,0.0,0.0,1.0,,,,,,,,,,
0.0,1.0,1.11167,,,,,,mixer_12s.jpg,0.0,clockno_default.jpg,1.0,5,,,,,,,,,,,,,,,,,,0.0,1.0,1.0,1.0,1.0,,,,,,,,,,
0.0,1.0,0.71245,,,,,,comic_book_02s.jpg,0.0,clockno_default.jpg,1.0,5,,,,,,,,,,,,,,,,,,0.0,2.0,2.0,2.0,1.0,,,,,,,,,,
0.0,1.0,0.81362,,,,,,treasure_08s.jpg,0.0,clockno_default.jpg,1.0,5,,,,,,,,,,,,,,,,,,0.0,3.0,3.0,3.0,1.0,,,,,,,,,,
1.0,1.0,1.248085,,,,,,treasure_08s.jpg,1.0,clockno_default.jpg,1.0,5,,,,,,,,,,,,,,,,,,0.0,4.0,4.0,4.0,1.0,,,,,,,,,,
0.0,1.0,1.716705,,,,,,metronome_03s.jpg,0.0,clockno_default.jpg,1.0,5,,,,,,,,,,,,,,,,,,0.0,5.0,5.0,5.0,1.0,,,,,,,,,,
1.0,1.0,1.458835,,,,,,treasure_08s.jpg,1.0,clockno_default.jpg,1.0,5,,,,,,,,,,,,,,,,,,0.0,6.0,6.0,6.0,1.0,,,,,,,,,,
0.0,1.0,1.13465,,,,,,golf_club_03s.jpg,0.0,clockno_up.jpg,2.0,5,,,,,,,,,,,,,,,,,,0.0,7.0,7.0,7.0,1.0,,,,,,,,,,
0.0,1.0,1.50118,,,,,,ruby_15s.jpg,0.0,clockno_default.jpg,2.0,5,,,,,,,,,,,,,,,,,,0.0,8.0,8.0,8.0,1.0,,,,,,,,,,
0.0,1.0,1.728195,,,,,,purse_05s.jpg,0.0,clockno_default.jpg,2.0,5,,,,,,,,,,,,,,,,,,0.0,9.0,9.0,9.0,1.0,,,,,,,,,,
0.0,1.0,1.15612,,,,,,top_hat_11s.jpg,0.0,clockno_default.jpg,2.0,5,,,,,,,,,,,,,,,,,,0.0,10.0,10.0,10.0,1.0,,,,,,,,,,
0.0,1.0,1.105305,,,,,,peach_04s.jpg,0.0,clockno_default.jpg,2.0,5,,,,,,,,,,,,,,,,,,0.0,11.0,11.0,11.0,1.0,,,,,,,,,,
0.0,1.0,1.84287,,,,,,coffee_filter_10s.jpg,0.0,clockno_up.jpg,3.0,5,,,,,,,,,,,,,,,,,,0.0,12.0,12.0,12.0,1.0,,,,,,,,,,
0.0,1.0,1.26813,,,,,,tiger_06s.jpg,0.0,clockno_default.jpg,3.0,5,,,,,,,,,,,,,,,,,,0.0,13.0,13.0,13.0,1.0,,,,,,,,,,
0.0,1.0,1.139475,,,,,,feather02.jpg,0.0,clockno_default.jpg,3.0,5,,,,,,,,,,,,,,,,,,0.0,14.0,14.0,14.0,1.0,,,,,,,,,,
0.0,1.0,1.276775,,,,,,coral_08s.jpg,0.0,clockno_default.jpg,3.0,5,,,,,,,,,,,,,,,,,,0.0,15.0,15.0,15.0,1.0,,,,,,,,,,
0.0,1.0,1.9261,,,,,,knitting_needle_04s.jpg,0.0,clockno_default.jpg,3.0,5,,,,,,,,,,,,,,,,,,0.0,16.0,16.0,16.0,1.0,,,,,,,,,,
0.0,1.0,1.484315,,,,,,coat_rack_01b.jpg,0.0,clockno_up.jpg,4.0,5,,,,,,,,,,,,,,,,,,0.0,17.0,17.0,17.0,1.0,,,,,,,,,,
1.0,0.0,1.48383,,,,,,coral_08s.jpg,0.0,clockno_default.jpg,4.0,5,,,,,,,,,,,,,,,,,,0.0,18.0,18.0,18.0,1.0,,,,,,,,,,
1.0,0.0,1.9625,,,,,,knitting_needle_04s.jpg,0.0,clockno_default.jpg,4.0,5,,,,,,,,,,,,,,,,,,0.0,19.0,19.0,19.0,1.0,,,,,,,,,,
1.0,1.0,1.32713,,,,,,coat_rack_01b.jpg,1.0,clockno_default.jpg,4.0,5,,,,,,,,,,,,,,,,,,0.0,20.0,20.0,20.0,1.0,,,,,,,,,,
0.0,1.0,1.42355,,,,,,pacifier_09s.jpg,0.0,clockno_default.jpg,4.0,5,,,,,,,,,,,,,,,,,,0.0,21.0,21.0,21.0,1.0,,,,,,,,,,
0.0,1.0,1.842805,,,,,,ruby_15s.jpg,0.0,clockno_default.jpg,4.0,5,,,,,,,,,,,,,,,,,,0.0,22.0,22.0,22.0,1.0,,,,,,,,,,
0.0,1.0,1.52122,,,,,,rocking_chair_05s.jpg,0.0,clockno_up.jpg,5.0,5,,,,,,,,,,,,,,,,,,0.0,23.0,23.0,23.0,1.0,,,,,,,,,,
0.0,1.0,1.22457,,,,,,binder_21s.jpg,0.0,clockno_default.jpg,5.0,5,,,,,,,,,,,,,,,,,,0.0,24.0,24.0,24.0,1.0,,,,,,,,,,
0.0,1.0,1.3668,,,,,,rudder_02s.jpg,0.0,clockno_default.jpg,5.0,5,,,,,,,,,,,,,,,,,,0.0,25.0,25.0,25.0,1.0,,,,,,,,,,
0.0,1.0,1.17655,,,,,,totem_pole_05s.jpg,0.0,clockno_default.jpg,5.0,5,,,,,,,,,,,,,,,,,,0.0,26.0,26.0,26.0,1.0,,,,,,,,,,
1.0,1.0,1.52869,,,,,,totem_pole_05s.jpg,1.0,clockno_default.jpg,5.0,5,,,,,,,,,,,,,,,,,,0.0,27.0,27.0,27.0,1.0,,,,,,,,,,
0.0,1.0,1.380635,,,,,,memory_stick_11s.jpg,0.0,clockno_default.jpg,5.0,5,,,,,,,,,,,,,,,,,,0.0,28.0,28.0,28.0,1.0,,,,,,,,,,
0.0,1.0,1.43377,,,,,,slingshot_07s.jpg,0.0,clockno_up.jpg,6.0,5,,,,,,,,,,,,,,,,,,0.0,29.0,29.0,29.0,1.0,,,,,,,,,,
1.0,1.0,1.63701,,,,,,slingshot_07s.jpg,1.0,clockno_default.jpg,6.0,5,,,,,,,,,,,,,,,,,,0.0,30.0,30.0,30.0,1.0,,,,,,,,,,
0.0,1.0,1.127125,,,,,,duck_01b.jpg,0.0,clockno_default.jpg,6.0,5,,,,,,,,,,,,,,,,,,0.0,31.0,31.0,31.0,1.0,,,,,,,,,,
0.0,1.0,1.27066,,,,,,fox_13s.jpg,0.0,clockno_default.jpg,6.0,5,,,,,,,,,,,,,,,,,,0.0,32.0,32.0,32.0,1.0,,,,,,,,,,
0.0,1.0,1.138445,,,,,,popcorn_09s.jpg,0.0,clockno_default.jpg,6.0,5,,,,,,,,,,,,,,,,,,0.0,33.0,33.0,33.0,1.0,,,,,,,,,,
1.0,1.0,1.244435,,,,,,duck_01b.jpg,1.0,clockno_default.jpg,6.0,5,,,,,,,,,,,,,,,,,,0.0,34.0,34.0,34.0,1.0,,,,,,,,,,
0.0,1.0,1.07784,,,,,,stamp2_08s.jpg,0.0,clockno_default.jpg,6.0,5,,,,,,,,,,,,,,,,,,0.0,35.0,35.0,35.0,1.0,,,,,,,,,,
,,,,,,,,,0.0,,,5,0.0,1.0,1.78899,,,,,,coffee_filter_10s.jpg,purse_05s.jpg,,,,,,,,,,,,,0.0,0.0,0.0,0.0,1.0,,,,,
,,,,,,,,,1.0,,,5,1.0,1.0,2.617565,,,,,,peach_04s.jpg,feather02.jpg,,,,,,,,,,,,,0.0,1.0,1.0,1.0,1.0,,,,,
,,,,,,,,,0.0,,,5,0.0,1.0,1.35364,,,,,,binder_21s.jpg,pacifier_09s.jpg,,,,,,,,,,,,,0.0,2.0,2.0,2.0,1.0,,,,,
,,,,,,,,,1.0,,,5,0.0,0.0,1.89579,,,,,,comic_book_02s.jpg,metronome_03s.jpg,,,,,,,,,,,,,0.0,3.0,3.0,3.0,1.0,,,,,
,,,,,,,,,1.0,,,5,1.0,1.0,1.75519,,,,,,rudder_02s.jpg,memory_stick_11s.jpg,,,,,,,,,,,,,0.0,4.0,4.0,4.0,1.0,,,,,
,,,,,,,,,0.0,,,5,0.0,1.0,1.68588,,,,,,stamp2_08s.jpg,fox_13s.jpg,,,,,,,,,,,,,0.0,5.0,5.0,5.0,1.0,,,,,
,,,,,,,,,,,,5,,,,,,,,,,,,,,,,clockno_present_5_14.xlsx,clockno_compare_task_5_14.xlsx,,,,,,,,,,,0.0,4.0,4.0,4.0,1.0
0.0,1.0,1.08809,,,,,,popsicle_02s.jpg,0.0,clockno_up.jpg,1.0,5,,,,,,,,,,,,,,,,,,0.0,0.0,0.0,0.0,1.0,,,,,,,,,,
0.0,1.0,1.041505,,,,,,emerald_02s.jpg,0.0,clockno_default.jpg,1.0,5,,,,,,,,,,,,,,,,,,0.0,1.0,1.0,1.0,1.0,,,,,,,,,,
1.0,1.0,1.18259,,,,,,popsicle_02s.jpg,1.0,clockno_default.jpg,1.0,5,,,,,,,,,,,,,,,,,,0.0,2.0,2.0,2.0,1.0,,,,,,,,,,
1.0,0.0,1.37671,,,,,,glue_01s.jpg,0.0,clockno_default.jpg,1.0,5,,,,,,,,,,,,,,,,,,0.0,3.0,3.0,3.0,1.0,,,,,,,,,,
1.0,1.0,0.976815,,,,,,popsicle_02s.jpg,1.0,clockno_default.jpg,1.0,5,,,,,,,,,,,,,,,,,,0.0,4.0,4.0,4.0,1.0,,,,,,,,,,
1.0,1.0,1.276775,,,,,,emerald_02s.jpg,1.0,clockno_default.jpg,1.0,5,,,,,,,,,,,,,,,,,,0.0,5.0,5.0,5.0,1.0,,,,,,,,,,
0.0,1.0,0.82611,,,,,,pillbox_04s.jpg,0.0,clockno_up.jpg,2.0,5,,,,,,,,,,,,,,,,,,0.0,6.0,6.0,6.0,1.0,,,,,,,,,,
0.0,1.0,0.86109,,,,,,scooter.jpg,0.0,clockno_default.jpg,2.0,5,,,,,,,,,,,,,,,,,,0.0,7.0,7.0,7.0,1.0,,,,,,,,,,
0.0,1.0,1.542815,,,,,,cardinal_07s.jpg,0.0,clockno_default.jpg,2.0,5,,,,,,,,,,,,,,,,,,0.0,8.0,8.0,8.0,1.0,,,,,,,,,,
1.0,1.0,1.24276,,,,,,cardinal_07s.jpg,1.0,clockno_default.jpg,2.0,5,,,,,,,,,,,,,,,,,,0.0,9.0,9.0,9.0,1.0,,,,,,,,,,
0.0,1.0,1.204565,,,,,,chip_04s.jpg,0.0,clockno_default.jpg,2.0,5,,,,,,,,,,,,,,,,,,0.0,10.0,10.0,10.0,1.0,,,,,,,,,,
0.0,1.0,1.015575,,,,,,owl_15s.jpg,0.0,clockno_up.jpg,3.0,5,,,,,,,,,,,,,,,,,,0.0,11.0,11.0,11.0,1.0,,,,,,,,,,
1.0,1.0,1.893975,,,,,,owl_15s.jpg,1.0,clockno_default.jpg,3.0,5,,,,,,,,,,,,,,,,,,0.0,12.0,12.0,12.0,1.0,,,,,,,,,,
0.0,1.0,1.067715,,,,,,mango_09s.jpg,0.0,clockno_default.jpg,3.0,5,,,,,,,,,,,,,,,,,,0.0,13.0,13.0,13.0,1.0,,,,,,,,,,
0.0,1.0,1.030215,,,,,,pantyhose_07s.jpg,0.0,clockno_default.jpg,3.0,5,,,,,,,,,,,,,,,,,,0.0,14.0,14.0,14.0,1.0,,,,,,,,,,
0.0,1.0,2.085525,,,,,,coconut_08s.jpg,0.0,clockno_default.jpg,3.0,5,,,,,,,,,,,,,,,,,,0.0,15.0,15.0,15.0,1.0,,,,,,,,,,
0.0,1.0,1.142465,,,,,,potholder_02s.jpg,0.0,clockno_default.jpg,3.0,5,,,,,,,,,,,,,,,,,,0.0,16.0,16.0,16.0,1.0,,,,,,,,,,
0.0,1.0,1.109745,,,,,,solar_panel_02s.jpg,0.0,clockno_up.jpg,4.0,5,,,,,,,,,,,,,,,,,,0.0,17.0,17.0,17.0,1.0,,,,,,,,,,
0.0,1.0,1.042375,,,,,,touchpad_11s.jpg,0.0,clockno_default.jpg,4.0,5,,,,,,,,,,,,,,,,,,0.0,18.0,18.0,18.0,1.0,,,,,,,,,,
0.0,1.0,0.790765,,,,,,rice_12s.jpg,0.0,clockno_default.jpg,4.0,5,,,,,,,,,,,,,,,,,,0.0,19.0,19.0,19.0,1.0,,,,,,,,,,
0.0,1.0,1.03704,,,,,,machete_06s.jpg,0.0,clockno_default.jpg,4.0,5,,,,,,,,,,,,,,,,,,0.0,20.0,20.0,20.0,1.0,,,,,,,,,,
1.0,1.0,2.11054,,,,,,touchpad_11s.jpg,1.0,clockno_default.jpg,4.0,5,,,,,,,,,,,,,,,,,,0.0,21.0,21.0,21.0,1.0,,,,,,,,,,
0.0,1.0,0.88183,,,,,,trumpet_06s.jpg,0.0,clockno_default.jpg,4.0,5,,,,,,,,,,,,,,,,,,0.0,22.0,22.0,22.0,1.0,,,,,,,,,,
1.0,1.0,1.4683,,,,,,touchpad_11s.jpg,1.0,clockno_default.jpg,4.0,5,,,,,,,,,,,,,,,,,,0.0,23.0,23.0,23.0,1.0,,,,,,,,,,
0.0,1.0,1.17818,,,,,,lamb_04s.jpg,0.0,clockno_up.jpg,5.0,5,,,,,,,,,,,,,,,,,,0.0,24.0,24.0,24.0,1.0,,,,,,,,,,
1.0,0.0,1.422425,,,,,,cucumber_07s.jpg,0.0,clockno_default.jpg,5.0,5,,,,,,,,,,,,,,,,,,0.0,25.0,25.0,25.0,1.0,,,,,,,,,,
0.0,1.0,0.7419,,,,,,police_car_01s.jpg,0.0,clockno_default.jpg,5.0,5,,,,,,,,,,,,,,,,,,0.0,26.0,26.0,26.0,1.0,,,,,,,,,,
0.0,1.0,0.75618,,,,,,latte_06s.jpg,0.0,clockno_default.jpg,5.0,5,,,,,,,,,,,,,,,,,,0.0,27.0,27.0,27.0,1.0,,,,,,,,,,
0.0,0.0,0.959645,,,,,,police_car_01s.jpg,1.0,clockno_default.jpg,5.0,5,,,,,,,,,,,,,,,,,,0.0,28.0,28.0,28.0,1.0,,,,,,,,,,
0.0,1.0,0.933165,,,,,,crab_16s.jpg,0.0,clockno_default.jpg,5.0,5,,,,,,,,,,,,,,,,,,0.0,29.0,29.0,29.0,1.0,,,,,,,,,,
0.0,1.0,1.449675,,,,,,toaster_03s.jpg,0.0,clockno_default.jpg,5.0,5,,,,,,,,,,,,,,,,,,0.0,30.0,30.0,30.0,1.0,,,,,,,,,,
0.0,1.0,1.25792,,,,,,parachute_03s.jpg,0.0,clockno_up.jpg,6.0,5,,,,,,,,,,,,,,,,,,0.0,31.0,31.0,31.0,1.0,,,,,,,,,,
0.0,1.0,0.54436,,,,,,punch2_09s.jpg,0.0,clockno_default.jpg,6.0,5,,,,,,,,,,,,,,,,,,0.0,32.0,32.0,32.0,1.0,,,,,,,,,,
1.0,0.0,1.628145,,,,,,touchpad_11s.jpg,0.0,clockno_default.jpg,6.0,5,,,,,,,,,,,,,,,,,,0.0,33.0,33.0,33.0,1.0,,,,,,,,,,
0.0,1.0,1.42722,,,,,,ginger_09s.jpg,0.0,clockno_default.jpg,6.0,5,,,,,,,,,,,,,,,,,,0.0,34.0,34.0,34.0,1.0,,,,,,,,,,
1.0,1.0,1.449585,,,,,,ginger_09s.jpg,1.0,clockno_default.jpg,6.0,5,,,,,,,,,,,,,,,,,,0.0,35.0,35.0,35.0,1.0,,,,,,,,,,
,,,,,,,,,1.0,,,5,0.0,0.0,1.710105,,,,,,glue_01s.jpg,pillbox_04s.jpg,,,,,,,,,,,,,0.0,0.0,0.0,0.0,1.0,,,,,
,,,,,,,,,0.0,,,5,0.0,1.0,3.04685,,,,,,punch2_09s.jpg,crab_16s.jpg,,,,,,,,,,,,,0.0,1.0,1.0,1.0,1.0,,,,,
,,,,,,,,,0.0,,,5,1.0,0.0,3.546975,,,,,,solar_panel_02s.jpg,pantyhose_07s.jpg,,,,,,,,,,,,,0.0,2.0,2.0,2.0,1.0,,,,,
,,,,,,,,,0.0,,,5,0.0,1.0,3.032765,,,,,,latte_06s.jpg,lamb_04s.jpg,,,,,,,,,,,,,0.0,3.0,3.0,3.0,1.0,,,,,
,,,,,,,,,1.0,,,5,0.0,0.0,1.22198,,,,,,scooter.jpg,chip_04s.jpg,,,,,,,,,,,,,0.0,4.0,4.0,4.0,1.0,,,,,
,,,,,,,,,1.0,,,5,0.0,0.0,1.36208,,,,,,mango_09s.jpg,potholder_02s.jpg,,,,,,,,,,,,,0.0,5.0,5.0,5.0,1.0,,,,,
