key_resp.keys,key_resp.corr,key_resp.rt,present_segment.thisRepN,present_segment.thisTrialN,present_segment.thisN,present_segment.thisIndex,present_segment.ran,pictures,answer,clock,segment,participant,key_resp_2.keys,key_resp_2.corr,key_resp_2.rt,compare_segment.thisRepN,compare_segment.thisTrialN,compare_segment.thisN,compare_segment.thisIndex,compare_segment.ran,item_a,item_b,clock_conditions.thisRepN,clock_conditions.thisTrialN,clock_conditions.thisN,clock_conditions.thisIndex,clock_conditions.ran,present,compare,noclock_present.thisRepN,noclock_present.thisTrialN,noclock_present.thisN,noclock_present.thisIndex,noclock_present.ran,noclock_compare.thisRepN,noclock_compare.thisTrialN,noclock_compare.thisN,noclock_compare.thisIndex,noclock_compare.ran,noclock_conditions.thisRepN,noclock_conditions.thisTrialN,noclock_conditions.thisN,noclock_conditions.thisIndex,noclock_conditions.ran
0.0,1.0,0.9609,0.0,0.0,0.0,0.0,1.0,compass_10n.jpg,0.0,clock_5_1.png,1.0,18,,,,,,,,,,,,,,,,,,,,,,,,,,,,,,,,
0.0,1.0,1.0173,0.0,1.0,1.0,1.0,1.0,rollerskate_03s.jpg,0.0,clock_5_2.png,1.0,18,,,,,,,,,,,,,,,,,,,,,,,,,,,,,,,,
1.0,1.0,0.6881,0.0,2.0,2.0,2.0,1.0,rollerskate_03s.jpg,1.0,clock_5_3.png,1.0,18,,,,,,,,,,,,,,,,,,,,,,,,,,,,,,,,
0.0,1.0,0.6238,0.0,3.0,3.0,3.0,1.0,toy_04s.jpg,0.0,clock_5_4.png,1.0,18,,,,,,,,,,,,,,,,,,,,,,,,,,,,,,,,
0.0,1.0,0.6176,0.0,4.0,4.0,4.0,1.0,bowler_hat_10s.jpg,0.0,clock_5_5.png,1.0,18,,,,,,,,,,,,,,,,,,,,,,,,,,,,,,,,
0.0,1.0,0.8855,0.0,5.0,5.0,5.0,1.0,pan_02s.jpg,0.0,clock_6_1.png,2.0,18,,,,,,,,,,,,,,,,,,,,,,,,,,,,,,,,
0.0,1.0,0.682,0.0,6.0,6.0,6.0,1.0,camcorder_10s.jpg,0.0,clock_6_2.png,2.0,18,,,,,,,,,,,,,,,,,,,,,,,,,,,,,,,,
0.0,1.0,0.5193,0.0,7.0,7.0,7.0,1.0,turtleneck_11s.jpg,0.0,clock_6_3.png,2.0,18,,,,,,,,,,,,,,,,,,,,,,,,,,,,,,,,
0.0,1.0,0.6398,0.0,8.0,8.0,8.0,1.0,pineapple_12s.jpg,0.0,clock_6_4.png,2.0,18,,,,,,,,,,,,,,,,,,,,,,,,,,,,,,,,
0.0,1.0,0.6514,0.0,9.0,9.0,9.0,1.0,stingray_02s.jpg,0.0,clock_6_5.png,2.0,18,,,,,,,,,,,,,,,,,,,,,,,,,,,,,,,,
0.0,1.0,0.6348,0.0,10.0,10.0,10.0,1.0,polar_bear_02s.jpg,0.0,clock_6_6.png,2.0,18,,,,,,,,,,,,,,,,,,,,,,,,,,,,,,,,
0.0,1.0,0.6364,0.0,11.0,11.0,11.0,1.0,jukebox_03n.jpg,0.0,clock_5_1.png,3.0,18,,,,,,,,,,,,,,,,,,,,,,,,,,,,,,,,
0.0,1.0,0.4862,0.0,12.0,12.0,12.0,1.0,tweezers_03s.jpg,0.0,clock_5_2.png,3.0,18,,,,,,,,,,,,,,,,,,,,,,,,,,,,,,,,
0.0,1.0,0.5669,0.0,13.0,13.0,13.0,1.0,clover_04s.jpg,0.0,clock_5_3.png,3.0,18,,,,,,,,,,,,,,,,,,,,,,,,,,,,,,,,
0.0,1.0,0.8214,0.0,14.0,14.0,14.0,1.0,tinsel_12s.jpg,0.0,clock_5_4.png,3.0,18,,,,,,,,,,,,,,,,,,,,,,,,,,,,,,,,
0.0,1.0,0.5531,0.0,15.0,15.0,15.0,1.0,rocking_horse_03s.jpg,0.0,clock_5_5.png,3.0,18,,,,,,,,,,,,,,,,,,,,,,,,,,,,,,,,
0.0,1.0,0.6679,0.0,16.0,16.0,16.0,1.0,hyena_16s.jpg,0.0,clock_7_1.png,4.0,18,,,,,,,,,,,,,,,,,,,,,,,,,,,,,,,,
0.0,1.0,0.5705,0.0,17.0,17.0,17.0,1.0,pear_02s.jpg,0.0,clock_7_2.png,4.0,18,,,,,,,,,,,,,,,,,,,,,,,,,,,,,,,,
0.0,1.0,0.8016,0.0,18.0,18.0,18.0,1.0,ink_08s.jpg,0.0,clock_7_3.png,4.0,18,,,,,,,,,,,,,,,,,,,,,,,,,,,,,,,,
0.0,1.0,0.636,0.0,19.0,19.0,19.0,1.0,inhaler_01b.jpg,0.0,clock_7_4.png,4.0,18,,,,,,,,,,,,,,,,,,,,,,,,,,,,,,,,
,0.0,,0.0,20.0,20.0,20.0,1.0,clover_04s.jpg,0.0,clock_7_5.png,4.0,18,,,,,,,,,,,,,,,,,,,,,,,,,,,,,,,,
1.0,1.0,0.7668,0.0,21.0,21.0,21.0,1.0,ink_08s.jpg,1.0,clock_7_6.png,4.0,18,,,,,,,,,,,,,,,,,,,,,,,,,,,,,,,,
0.0,1.0,0.5338,0.0,22.0,22.0,22.0,1.0,throne_11s.jpg,0.0,clock_7_7.png,4.0,18,,,,,,,,,,,,,,,,,,,,,,,,,,,,,,,,
0.0,1.0,0.4899,0.0,23.0,23.0,23.0,1.0,medal_04s.jpg,0.0,clock_6_1.png,5.0,18,,,,,,,,,,,,,,,,,,,,,,,,,,,,,,,,
0.0,1.0,0.9683,0.0,24.0,24.0,24.0,1.0,inhaler_01b.jpg,0.0,clock_6_2.png,5.0,18,,,,,,,,,,,,,,,,,,,,,,,,,,,,,,,,
0.0,1.0,0.636,0.0,25.0,25.0,25.0,1.0,luggage_08s.jpg,0.0,clock_6_3.png,5.0,18,,,,,,,,,,,,,,,,,,,,,,,,,,,,,,,,
1.0,1.0,0.6539,0.0,26.0,26.0,26.0,1.0,medal_04s.jpg,1.0,clock_6_4.png,5.0,18,,,,,,,,,,,,,,,,,,,,,,,,,,,,,,,,
1.0,1.0,0.7871,0.0,27.0,27.0,27.0,1.0,luggage_08s.jpg,1.0,clock_6_5.png,5.0,18,,,,,,,,,,,,,,,,,,,,,,,,,,,,,,,,
0.0,1.0,0.569,0.0,28.0,28.0,28.0,1.0,eyedropper_12s.jpg,0.0,clock_6_6.png,5.0,18,,,,,,,,,,,,,,,,,,,,,,,,,,,,,,,,
0.0,1.0,0.6372,0.0,29.0,29.0,29.0,1.0,fire_pit_10s.jpg,0.0,clock_7_1.png,6.0,18,,,,,,,,,,,,,,,,,,,,,,,,,,,,,,,,
0.0,1.0,0.4879,0.0,30.0,30.0,30.0,1.0,camcorder_10s.jpg,0.0,clock_7_2.png,6.0,18,,,,,,,,,,,,,,,,,,,,,,,,,,,,,,,,
0.0,1.0,0.488,0.0,31.0,31.0,31.0,1.0,mixer_12s.jpg,0.0,clock_7_3.png,6.0,18,,,,,,,,,,,,,,,,,,,,,,,,,,,,,,,,
0.0,1.0,0.6545,0.0,32.0,32.0,32.0,1.0,lipstick_02s.jpg,0.0,clock_7_4.png,6.0,18,,,,,,,,,,,,,,,,,,,,,,,,,,,,,,,,
0.0,1.0,0.6519,0.0,33.0,33.0,33.0,1.0,lifesaver_10s.jpg,0.0,clock_7_5.png,6.0,18,,,,,,,,,,,,,,,,,,,,,,,,,,,,,,,,
1.0,1.0,0.7085,0.0,34.0,34.0,34.0,1.0,lipstick_02s.jpg,1.0,clock_7_6.png,6.0,18,,,,,,,,,,,,,,,,,,,,,,,,,,,,,,,,
0.0,1.0,0.5717,0.0,35.0,35.0,35.0,1.0,polaroid_05s.jpg,0.0,clock_7_7.png,6.0,18,,,,,,,,,,,,,,,,,,,,,,,,,,,,,,,,
,,,,,,,,,1.0,,,18,0.0,0.0,1.4871,0.0,0.0,0.0,0.0,1.0,eyedropper_12s.jpg,mixer_12s.jpg,,,,,,,,,,,,,,,,,,,,,,
,,,,,,,,,0.0,,,18,1.0,0.0,1.4689,0.0,1.0,1.0,1.0,1.0,turtleneck_11s.jpg,bowler_hat_10s.jpg,,,,,,,,,,,,,,,,,,,,,,
,,,,,,,,,0.0,,,18,1.0,0.0,6.285,0.0,2.0,2.0,2.0,1.0,tweezers_03s.jpg,stingray_02s.jpg,,,,,,,,,,,,,,,,,,,,,,
,,,,,,,,,1.0,,,18,1.0,1.0,0.9728,0.0,3.0,3.0,3.0,1.0,compass_10n.jpg,toy_04s.jpg,,,,,,,,,,,,,,,,,,,,,,
,,,,,,,,,0.0,,,18,1.0,0.0,3.4666,0.0,4.0,4.0,4.0,1.0,pineapple_12s.jpg,pan_02s.jpg,,,,,,,,,,,,,,,,,,,,,,
,,,,,,,,,1.0,,,18,1.0,1.0,4.4494,0.0,5.0,5.0,5.0,1.0,jukebox_03n.jpg,tinsel_12s.jpg,,,,,,,,,,,,,,,,,,,,,,
,,,,,,,,,,,,18,,,,,,,,,,,0.0,0.0,0.0,0.0,1.0,clock_present_1_6.xlsx,clock_compare_task_1_6.xlsx,,,,,,,,,,,,,,,
0.0,1.0,1.0164,0.0,0.0,0.0,0.0,1.0,olive_05s.jpg,0.0,clock_5_1.png,1.0,18,,,,,,,,,,,,,,,,,,,,,,,,,,,,,,,,
0.0,1.0,0.5735,0.0,1.0,1.0,1.0,1.0,lip_gloss_06s.jpg,0.0,clock_5_2.png,1.0,18,,,,,,,,,,,,,,,,,,,,,,,,,,,,,,,,
1.0,1.0,0.7172,0.0,2.0,2.0,2.0,1.0,lip_gloss_06s.jpg,1.0,clock_5_3.png,1.0,18,,,,,,,,,,,,,,,,,,,,,,,,,,,,,,,,
0.0,1.0,0.9345,0.0,3.0,3.0,3.0,1.0,crab_16s.jpg,0.0,clock_5_4.png,1.0,18,,,,,,,,,,,,,,,,,,,,,,,,,,,,,,,,
0.0,1.0,0.7512,0.0,4.0,4.0,4.0,1.0,omelet_07s.jpg,0.0,clock_5_5.png,1.0,18,,,,,,,,,,,,,,,,,,,,,,,,,,,,,,,,
0.0,1.0,0.9369,0.0,5.0,5.0,5.0,1.0,briefcase_03s.jpg,0.0,clock_6_1.png,2.0,18,,,,,,,,,,,,,,,,,,,,,,,,,,,,,,,,
0.0,1.0,0.6212,0.0,6.0,6.0,6.0,1.0,stopwatch_04s.jpg,0.0,clock_6_2.png,2.0,18,,,,,,,,,,,,,,,,,,,,,,,,,,,,,,,,
0.0,1.0,0.7329,0.0,7.0,7.0,7.0,1.0,insole_11s.jpg,0.0,clock_6_3.png,2.0,18,,,,,,,,,,,,,,,,,,,,,,,,,,,,,,,,
1.0,1.0,0.9193,0.0,8.0,8.0,8.0,1.0,briefcase_03s.jpg,1.0,clock_6_4.png,2.0,18,,,,,,,,,,,,,,,,,,,,,,,,,,,,,,,,
0.0,1.0,0.634,0.0,9.0,9.0,9.0,1.0,beard_16s.jpg,0.0,clock_6_5.png,2.0,18,,,,,,,,,,,,,,,,,,,,,,,,,,,,,,,,
0.0,1.0,0.7205,0.0,10.0,10.0,10.0,1.0,thorn_13s.jpg,0.0,clock_6_6.png,2.0,18,,,,,,,,,,,,,,,,,,,,,,,,,,,,,,,,
0.0,1.0,0.8033,0.0,11.0,11.0,11.0,1.0,ostrich_06s.jpg,0.0,clock_6_1.png,3.0,18,,,,,,,,,,,,,,,,,,,,,,,,,,,,,,,,
0.0,1.0,0.5029,0.0,12.0,12.0,12.0,1.0,razor_12s.jpg,0.0,clock_6_2.png,3.0,18,,,,,,,,,,,,,,,,,,,,,,,,,,,,,,,,
0.0,1.0,0.6032,0.0,13.0,13.0,13.0,1.0,onion_10s.jpg,0.0,clock_6_3.png,3.0,18,,,,,,,,,,,,,,,,,,,,,,,,,,,,,,,,
0.0,1.0,1.1201,0.0,14.0,14.0,14.0,1.0,olive_05s.jpg,0.0,clock_6_4.png,3.0,18,,,,,,,,,,,,,,,,,,,,,,,,,,,,,,,,
0.0,1.0,0.787,0.0,15.0,15.0,15.0,1.0,pump_11s.jpg,0.0,clock_6_5.png,3.0,18,,,,,,,,,,,,,,,,,,,,,,,,,,,,,,,,
0.0,1.0,0.7022,0.0,16.0,16.0,16.0,1.0,perfume_06s.jpg,0.0,clock_6_6.png,3.0,18,,,,,,,,,,,,,,,,,,,,,,,,,,,,,,,,
0.0,1.0,0.6202,0.0,17.0,17.0,17.0,1.0,gas_mask_11s.jpg,0.0,clock_7_1.png,4.0,18,,,,,,,,,,,,,,,,,,,,,,,,,,,,,,,,
0.0,1.0,0.5526,0.0,18.0,18.0,18.0,1.0,powder_07s.jpg,0.0,clock_7_2.png,4.0,18,,,,,,,,,,,,,,,,,,,,,,,,,,,,,,,,
0.0,1.0,0.7035,0.0,19.0,19.0,19.0,1.0,quad_04s.jpg,0.0,clock_7_3.png,4.0,18,,,,,,,,,,,,,,,,,,,,,,,,,,,,,,,,
0.0,1.0,0.6536,0.0,20.0,20.0,20.0,1.0,chalice_10s.jpg,0.0,clock_7_4.png,4.0,18,,,,,,,,,,,,,,,,,,,,,,,,,,,,,,,,
1.0,1.0,0.6527,0.0,21.0,21.0,21.0,1.0,chalice_10s.jpg,1.0,clock_7_5.png,4.0,18,,,,,,,,,,,,,,,,,,,,,,,,,,,,,,,,
0.0,1.0,0.6176,0.0,22.0,22.0,22.0,1.0,pencil02a.jpg,0.0,clock_7_6.png,4.0,18,,,,,,,,,,,,,,,,,,,,,,,,,,,,,,,,
1.0,1.0,0.785,0.0,23.0,23.0,23.0,1.0,quad_04s.jpg,1.0,clock_7_7.png,4.0,18,,,,,,,,,,,,,,,,,,,,,,,,,,,,,,,,
0.0,1.0,0.6877,0.0,24.0,24.0,24.0,1.0,outlet_10s.jpg,0.0,clock_5_1.png,5.0,18,,,,,,,,,,,,,,,,,,,,,,,,,,,,,,,,
0.0,1.0,0.5066,0.0,25.0,25.0,25.0,1.0,pie_08s.jpg,0.0,clock_5_2.png,5.0,18,,,,,,,,,,,,,,,,,,,,,,,,,,,,,,,,
0.0,1.0,0.6046,0.0,26.0,26.0,26.0,1.0,coat_rack_01b.jpg,0.0,clock_5_3.png,5.0,18,,,,,,,,,,,,,,,,,,,,,,,,,,,,,,,,
1.0,1.0,0.753,0.0,27.0,27.0,27.0,1.0,pie_08s.jpg,1.0,clock_5_4.png,5.0,18,,,,,,,,,,,,,,,,,,,,,,,,,,,,,,,,
0.0,1.0,0.6356,0.0,28.0,28.0,28.0,1.0,basket_05s.jpg,0.0,clock_5_5.png,5.0,18,,,,,,,,,,,,,,,,,,,,,,,,,,,,,,,,
0.0,1.0,0.8405,0.0,29.0,29.0,29.0,1.0,totem_pole_05s.jpg,0.0,clock_7_1.png,6.0,18,,,,,,,,,,,,,,,,,,,,,,,,,,,,,,,,
0.0,1.0,0.5684,0.0,30.0,30.0,30.0,1.0,latch_15s.jpg,0.0,clock_7_2.png,6.0,18,,,,,,,,,,,,,,,,,,,,,,,,,,,,,,,,
0.0,1.0,0.6034,0.0,31.0,31.0,31.0,1.0,sundae_08s.jpg,0.0,clock_7_3.png,6.0,18,,,,,,,,,,,,,,,,,,,,,,,,,,,,,,,,
0.0,1.0,0.9353,0.0,32.0,32.0,32.0,1.0,basket_05s.jpg,0.0,clock_7_4.png,6.0,18,,,,,,,,,,,,,,,,,,,,,,,,,,,,,,,,
0.0,1.0,0.6025,0.0,33.0,33.0,33.0,1.0,rope_16s.jpg,0.0,clock_7_5.png,6.0,18,,,,,,,,,,,,,,,,,,,,,,,,,,,,,,,,
0.0,1.0,0.7187,0.0,34.0,34.0,34.0,1.0,microwave_02s.jpg,0.0,clock_7_6.png,6.0,18,,,,,,,,,,,,,,,,,,,,,,,,,,,,,,,,
1.0,1.0,0.7508,0.0,35.0,35.0,35.0,1.0,rope_16s.jpg,1.0,clock_7_7.png,6.0,18,,,,,,,,,,,,,,,,,,,,,,,,,,,,,,,,
,,,,,,,,,1.0,,,18,1.0,1.0,9.8714,0.0,0.0,0.0,0.0,1.0,coat_rack_01b.jpg,totem_pole_05s.jpg,,,,,,,,,,,,,,,,,,,,,,
,,,,,,,,,0.0,,,18,0.0,1.0,3.5822,0.0,1.0,1.0,1.0,1.0,stopwatch_04s.jpg,crab_16s.jpg,,,,,,,,,,,,,,,,,,,,,,
,,,,,,,,,1.0,,,18,0.0,0.0,3.768,0.0,2.0,2.0,2.0,1.0,omelet_07s.jpg,insole_11s.jpg,,,,,,,,,,,,,,,,,,,,,,
,,,,,,,,,0.0,,,18,0.0,1.0,5.3963,0.0,3.0,3.0,3.0,1.0,microwave_02s.jpg,sundae_08s.jpg,,,,,,,,,,,,,,,,,,,,,,
,,,,,,,,,0.0,,,18,0.0,1.0,1.6518,0.0,4.0,4.0,4.0,1.0,perfume_06s.jpg,onion_10s.jpg,,,,,,,,,,,,,,,,,,,,,,
,,,,,,,,,1.0,,,18,1.0,1.0,3.1013,0.0,5.0,5.0,5.0,1.0,razor_12s.jpg,pump_11s.jpg,,,,,,,,,,,,,,,,,,,,,,
,,,,,,,,,,,,18,,,,,,,,,,,0.0,1.0,1.0,1.0,1.0,clock_present_2_6.xlsx,clock_compare_task_2_6.xlsx,,,,,,,,,,,,,,,
0.0,1.0,0.7099,0.0,0.0,0.0,0.0,1.0,amber_04s.jpg,0.0,clock_7_1.png,1.0,18,,,,,,,,,,,,,,,,,,,,,,,,,,,,,,,,
0.0,1.0,0.5861,0.0,1.0,1.0,1.0,1.0,mascara_03s.jpg,0.0,clock_7_2.png,1.0,18,,,,,,,,,,,,,,,,,,,,,,,,,,,,,,,,
1.0,1.0,0.6512,0.0,2.0,2.0,2.0,1.0,mascara_03s.jpg,1.0,clock_7_3.png,1.0,18,,,,,,,,,,,,,,,,,,,,,,,,,,,,,,,,
0.0,1.0,0.6192,0.0,3.0,3.0,3.0,1.0,printer_09s.jpg,0.0,clock_7_4.png,1.0,18,,,,,,,,,,,,,,,,,,,,,,,,,,,,,,,,
0.0,1.0,1.238,0.0,4.0,4.0,4.0,1.0,smokingpipe.jpg,0.0,clock_7_5.png,1.0,18,,,,,,,,,,,,,,,,,,,,,,,,,,,,,,,,
0.0,1.0,0.6411,0.0,5.0,5.0,5.0,1.0,trampoline_13s.jpg,0.0,clock_7_6.png,1.0,18,,,,,,,,,,,,,,,,,,,,,,,,,,,,,,,,
1.0,1.0,0.6008,0.0,6.0,6.0,6.0,1.0,printer_09s.jpg,1.0,clock_7_7.png,1.0,18,,,,,,,,,,,,,,,,,,,,,,,,,,,,,,,,
0.0,1.0,0.9515,0.0,7.0,7.0,7.0,1.0,stump_02s.jpg,0.0,clock_6_1.png,2.0,18,,,,,,,,,,,,,,,,,,,,,,,,,,,,,,,,
0.0,1.0,0.572,0.0,8.0,8.0,8.0,1.0,pumpkin_03s.jpg,0.0,clock_6_2.png,2.0,18,,,,,,,,,,,,,,,,,,,,,,,,,,,,,,,,
0.0,1.0,0.6019,0.0,9.0,9.0,9.0,1.0,syringe_02s.jpg,0.0,clock_6_3.png,2.0,18,,,,,,,,,,,,,,,,,,,,,,,,,,,,,,,,
0.0,1.0,0.5363,0.0,10.0,10.0,10.0,1.0,lid_10s.jpg,0.0,clock_6_4.png,2.0,18,,,,,,,,,,,,,,,,,,,,,,,,,,,,,,,,
0.0,1.0,0.502,0.0,11.0,11.0,11.0,1.0,muffin_12n.jpg,0.0,clock_6_5.png,2.0,18,,,,,,,,,,,,,,,,,,,,,,,,,,,,,,,,
1.0,1.0,1.1672,0.0,12.0,12.0,12.0,1.0,syringe_02s.jpg,1.0,clock_6_6.png,2.0,18,,,,,,,,,,,,,,,,,,,,,,,,,,,,,,,,
0.0,1.0,0.519,0.0,13.0,13.0,13.0,1.0,frog_09s.jpg,0.0,clock_5_1.png,3.0,18,,,,,,,,,,,,,,,,,,,,,,,,,,,,,,,,
0.0,1.0,0.4871,0.0,14.0,14.0,14.0,1.0,sunglasses_11s.jpg,0.0,clock_5_2.png,3.0,18,,,,,,,,,,,,,,,,,,,,,,,,,,,,,,,,
0.0,1.0,0.7859,0.0,15.0,15.0,15.0,1.0,printer_09s.jpg,0.0,clock_5_3.png,3.0,18,,,,,,,,,,,,,,,,,,,,,,,,,,,,,,,,
1.0,1.0,0.719,0.0,16.0,16.0,16.0,1.0,frog_09s.jpg,1.0,clock_5_4.png,3.0,18,,,,,,,,,,,,,,,,,,,,,,,,,,,,,,,,
0.0,1.0,0.6029,0.0,17.0,17.0,17.0,1.0,jigsaw_puzzle_11s.jpg,0.0,clock_5_5.png,3.0,18,,,,,,,,,,,,,,,,,,,,,,,,,,,,,,,,
0.0,1.0,0.5864,0.0,18.0,18.0,18.0,1.0,gong_02s.jpg,0.0,clock_7_1.png,4.0,18,,,,,,,,,,,,,,,,,,,,,,,,,,,,,,,,
1.0,1.0,0.7036,0.0,19.0,19.0,19.0,1.0,gong_02s.jpg,1.0,clock_7_2.png,4.0,18,,,,,,,,,,,,,,,,,,,,,,,,,,,,,,,,
0.0,1.0,0.523,0.0,20.0,20.0,20.0,1.0,chip_04s.jpg,0.0,clock_7_3.png,4.0,18,,,,,,,,,,,,,,,,,,,,,,,,,,,,,,,,
0.0,1.0,0.7231,0.0,21.0,21.0,21.0,1.0,tripod_01b.jpg,0.0,clock_7_4.png,4.0,18,,,,,,,,,,,,,,,,,,,,,,,,,,,,,,,,
0.0,1.0,0.5863,0.0,22.0,22.0,22.0,1.0,pepper_mill_03s.jpg,0.0,clock_7_5.png,4.0,18,,,,,,,,,,,,,,,,,,,,,,,,,,,,,,,,
1.0,1.0,0.6547,0.0,23.0,23.0,23.0,1.0,gong_02s.jpg,1.0,clock_7_6.png,4.0,18,,,,,,,,,,,,,,,,,,,,,,,,,,,,,,,,
0.0,1.0,0.5842,0.0,24.0,24.0,24.0,1.0,pomegranate_04s.jpg,0.0,clock_7_7.png,4.0,18,,,,,,,,,,,,,,,,,,,,,,,,,,,,,,,,
0.0,1.0,0.6467,0.0,25.0,25.0,25.0,1.0,funnel_01b.jpg,0.0,clock_5_1.png,5.0,18,,,,,,,,,,,,,,,,,,,,,,,,,,,,,,,,
0.0,1.0,0.706,0.0,26.0,26.0,26.0,1.0,air_pump_05s.jpg,0.0,clock_5_2.png,5.0,18,,,,,,,,,,,,,,,,,,,,,,,,,,,,,,,,
1.0,1.0,1.5504,0.0,27.0,27.0,27.0,1.0,funnel_01b.jpg,1.0,clock_5_3.png,5.0,18,,,,,,,,,,,,,,,,,,,,,,,,,,,,,,,,
1.0,1.0,0.5897,0.0,28.0,28.0,28.0,1.0,funnel_01b.jpg,1.0,clock_5_4.png,5.0,18,,,,,,,,,,,,,,,,,,,,,,,,,,,,,,,,
0.0,1.0,0.5528,0.0,29.0,29.0,29.0,1.0,fork_04s.jpg,0.0,clock_5_5.png,5.0,18,,,,,,,,,,,,,,,,,,,,,,,,,,,,,,,,
0.0,1.0,0.6843,0.0,30.0,30.0,30.0,1.0,cape_11s.jpg,0.0,clock_6_1.png,6.0,18,,,,,,,,,,,,,,,,,,,,,,,,,,,,,,,,
0.0,1.0,0.6502,0.0,31.0,31.0,31.0,1.0,machine_gun_09s.jpg,0.0,clock_6_2.png,6.0,18,,,,,,,,,,,,,,,,,,,,,,,,,,,,,,,,
0.0,1.0,0.5562,0.0,32.0,32.0,32.0,1.0,timer_03s.jpg,0.0,clock_6_3.png,6.0,18,,,,,,,,,,,,,,,,,,,,,,,,,,,,,,,,
0.0,1.0,0.7204,0.0,33.0,33.0,33.0,1.0,spoon02a.jpg,0.0,clock_6_4.png,6.0,18,,,,,,,,,,,,,,,,,,,,,,,,,,,,,,,,
0.0,1.0,0.9366,0.0,34.0,34.0,34.0,1.0,lid_10s.jpg,0.0,clock_6_5.png,6.0,18,,,,,,,,,,,,,,,,,,,,,,,,,,,,,,,,
0.0,1.0,0.6048,0.0,35.0,35.0,35.0,1.0,reindeer_08s.jpg,0.0,clock_6_6.png,6.0,18,,,,,,,,,,,,,,,,,,,,,,,,,,,,,,,,
,,,,,,,,,1.0,,,18,1.0,1.0,4.5698,0.0,0.0,0.0,0.0,1.0,smokingpipe.jpg,stump_02s.jpg,,,,,,,,,,,,,,,,,,,,,,
,,,,,,,,,0.0,,,18,0.0,1.0,6.1491,0.0,1.0,1.0,1.0,1.0,pumpkin_03s.jpg,trampoline_13s.jpg,,,,,,,,,,,,,,,,,,,,,,
,,,,,,,,,1.0,,,18,1.0,1.0,2.4511,0.0,2.0,2.0,2.0,1.0,jigsaw_puzzle_11s.jpg,chip_04s.jpg,,,,,,,,,,,,,,,,,,,,,,
,,,,,,,,,1.0,,,18,1.0,1.0,2.1553,0.0,3.0,3.0,3.0,1.0,tripod_01b.jpg,pomegranate_04s.jpg,,,,,,,,,,,,,,,,,,,,,,
,,,,,,,,,1.0,,,18,1.0,1.0,1.3514,0.0,4.0,4.0,4.0,1.0,cape_11s.jpg,spoon02a.jpg,,,,,,,,,,,,,,,,,,,,,,
,,,,,,,,,0.0,,,18,0.0,1.0,1.4884,0.0,5.0,5.0,5.0,1.0,fork_04s.jpg,air_pump_05s.jpg,,,,,,,,,,,,,,,,,,,,,,
,,,,,,,,,,,,18,,,,,,,,,,,0.0,2.0,2.0,2.0,1.0,clock_present_3_6.xlsx,clock_compare_task_3_6.xlsx,,,,,,,,,,,,,,,
0.0,1.0,0.6538,0.0,0.0,0.0,0.0,1.0,radiator_05s.jpg,0.0,clock_6_1.png,1.0,18,,,,,,,,,,,,,,,,,,,,,,,,,,,,,,,,
1.0,1.0,0.6389,0.0,1.0,1.0,1.0,1.0,radiator_05s.jpg,1.0,clock_6_2.png,1.0,18,,,,,,,,,,,,,,,,,,,,,,,,,,,,,,,,
0.0,1.0,0.5348,0.0,2.0,2.0,2.0,1.0,kilt_18s.jpg,0.0,clock_6_3.png,1.0,18,,,,,,,,,,,,,,,,,,,,,,,,,,,,,,,,
0.0,1.0,0.6361,0.0,3.0,3.0,3.0,1.0,lavender_10s.jpg,0.0,clock_6_4.png,1.0,18,,,,,,,,,,,,,,,,,,,,,,,,,,,,,,,,
1.0,1.0,0.7677,0.0,4.0,4.0,4.0,1.0,kilt_18s.jpg,1.0,clock_6_5.png,1.0,18,,,,,,,,,,,,,,,,,,,,,,,,,,,,,,,,
0.0,1.0,0.5034,0.0,5.0,5.0,5.0,1.0,undershirt_02s.jpg,0.0,clock_6_6.png,1.0,18,,,,,,,,,,,,,,,,,,,,,,,,,,,,,,,,
0.0,1.0,0.7362,0.0,6.0,6.0,6.0,1.0,coconut_08s.jpg,0.0,clock_7_1.png,2.0,18,,,,,,,,,,,,,,,,,,,,,,,,,,,,,,,,
0.0,1.0,0.8205,0.0,7.0,7.0,7.0,1.0,refrigerator_07s.jpg,0.0,clock_7_2.png,2.0,18,,,,,,,,,,,,,,,,,,,,,,,,,,,,,,,,
0.0,1.0,0.6381,0.0,8.0,8.0,8.0,1.0,feather02.jpg,0.0,clock_7_3.png,2.0,18,,,,,,,,,,,,,,,,,,,,,,,,,,,,,,,,
0.0,1.0,0.5527,0.0,9.0,9.0,9.0,1.0,ivy_12s.jpg,0.0,clock_7_4.png,2.0,18,,,,,,,,,,,,,,,,,,,,,,,,,,,,,,,,
0.0,1.0,0.6359,0.0,10.0,10.0,10.0,1.0,tab_09s.jpg,0.0,clock_7_5.png,2.0,18,,,,,,,,,,,,,,,,,,,,,,,,,,,,,,,,
0.0,1.0,1.0512,0.0,11.0,11.0,11.0,1.0,fossil_06s.jpg,0.0,clock_7_6.png,2.0,18,,,,,,,,,,,,,,,,,,,,,,,,,,,,,,,,
0.0,1.0,0.4545,0.0,12.0,12.0,12.0,1.0,puppy_08s.jpg,0.0,clock_7_7.png,2.0,18,,,,,,,,,,,,,,,,,,,,,,,,,,,,,,,,
0.0,1.0,0.8686,0.0,13.0,13.0,13.0,1.0,flip_flop_03s.jpg,0.0,clock_7_1.png,3.0,18,,,,,,,,,,,,,,,,,,,,,,,,,,,,,,,,
0.0,1.0,0.4843,0.0,14.0,14.0,14.0,1.0,slingshot_07s.jpg,0.0,clock_7_2.png,3.0,18,,,,,,,,,,,,,,,,,,,,,,,,,,,,,,,,
1.0,1.0,0.6191,0.0,15.0,15.0,15.0,1.0,flip_flop_03s.jpg,1.0,clock_7_3.png,3.0,18,,,,,,,,,,,,,,,,,,,,,,,,,,,,,,,,
0.0,1.0,0.6218,0.0,16.0,16.0,16.0,1.0,gargoyle_08s.jpg,0.0,clock_7_4.png,3.0,18,,,,,,,,,,,,,,,,,,,,,,,,,,,,,,,,
0.0,1.0,0.7866,0.0,17.0,17.0,17.0,1.0,undershirt_02s.jpg,0.0,clock_7_5.png,3.0,18,,,,,,,,,,,,,,,,,,,,,,,,,,,,,,,,
0.0,1.0,0.6694,0.0,18.0,18.0,18.0,1.0,toilet_paper_12s.jpg,0.0,clock_7_6.png,3.0,18,,,,,,,,,,,,,,,,,,,,,,,,,,,,,,,,
1.0,1.0,0.6231,0.0,19.0,19.0,19.0,1.0,flip_flop_03s.jpg,1.0,clock_7_7.png,3.0,18,,,,,,,,,,,,,,,,,,,,,,,,,,,,,,,,
0.0,1.0,0.6525,0.0,20.0,20.0,20.0,1.0,rocket_02s.jpg,0.0,clock_6_1.png,4.0,18,,,,,,,,,,,,,,,,,,,,,,,,,,,,,,,,
0.0,1.0,0.5212,0.0,21.0,21.0,21.0,1.0,tattoo_14s.jpg,0.0,clock_6_2.png,4.0,18,,,,,,,,,,,,,,,,,,,,,,,,,,,,,,,,
0.0,1.0,0.6721,0.0,22.0,22.0,22.0,1.0,ukulele_02s.jpg,0.0,clock_6_3.png,4.0,18,,,,,,,,,,,,,,,,,,,,,,,,,,,,,,,,
0.0,1.0,0.5734,0.0,23.0,23.0,23.0,1.0,latte_06s.jpg,0.0,clock_6_4.png,4.0,18,,,,,,,,,,,,,,,,,,,,,,,,,,,,,,,,
0.0,1.0,0.6051,0.0,24.0,24.0,24.0,1.0,petri_dish_12s.jpg,0.0,clock_6_5.png,4.0,18,,,,,,,,,,,,,,,,,,,,,,,,,,,,,,,,
0.0,1.0,0.5357,0.0,25.0,25.0,25.0,1.0,tablet_04s.jpg,0.0,clock_6_6.png,4.0,18,,,,,,,,,,,,,,,,,,,,,,,,,,,,,,,,
0.0,1.0,0.6868,0.0,26.0,26.0,26.0,1.0,projector_08s.jpg,0.0,clock_5_1.png,5.0,18,,,,,,,,,,,,,,,,,,,,,,,,,,,,,,,,
1.0,1.0,0.5192,0.0,27.0,27.0,27.0,1.0,projector_08s.jpg,1.0,clock_5_2.png,5.0,18,,,,,,,,,,,,,,,,,,,,,,,,,,,,,,,,
1.0,1.0,0.5551,0.0,28.0,28.0,28.0,1.0,projector_08s.jpg,1.0,clock_5_3.png,5.0,18,,,,,,,,,,,,,,,,,,,,,,,,,,,,,,,,
0.0,1.0,0.5539,0.0,29.0,29.0,29.0,1.0,cushion_08s.jpg,0.0,clock_5_4.png,5.0,18,,,,,,,,,,,,,,,,,,,,,,,,,,,,,,,,
0.0,1.0,0.5516,0.0,30.0,30.0,30.0,1.0,tomato_sauce_09s.jpg,0.0,clock_5_5.png,5.0,18,,,,,,,,,,,,,,,,,,,,,,,,,,,,,,,,
0.0,1.0,0.6404,0.0,31.0,31.0,31.0,1.0,espresso_01b.jpg,0.0,clock_5_1.png,6.0,18,,,,,,,,,,,,,,,,,,,,,,,,,,,,,,,,
0.0,1.0,0.6213,0.0,32.0,32.0,32.0,1.0,telephone_pole_05s.jpg,0.0,clock_5_2.png,6.0,18,,,,,,,,,,,,,,,,,,,,,,,,,,,,,,,,
0.0,1.0,0.7028,0.0,33.0,33.0,33.0,1.0,exhaust_pipe_10s.jpg,0.0,clock_5_3.png,6.0,18,,,,,,,,,,,,,,,,,,,,,,,,,,,,,,,,
0.0,1.0,0.7687,0.0,34.0,34.0,34.0,1.0,pantyhose_07s.jpg,0.0,clock_5_4.png,6.0,18,,,,,,,,,,,,,,,,,,,,,,,,,,,,,,,,
1.0,1.0,0.7062,0.0,35.0,35.0,35.0,1.0,exhaust_pipe_10s.jpg,1.0,clock_5_5.png,6.0,18,,,,,,,,,,,,,,,,,,,,,,,,,,,,,,,,
,,,,,,,,,0.0,,,18,1.0,0.0,7.3354,0.0,0.0,0.0,0.0,1.0,telephone_pole_05s.jpg,cushion_08s.jpg,,,,,,,,,,,,,,,,,,,,,,
,,,,,,,,,1.0,,,18,0.0,0.0,2.053,0.0,1.0,1.0,1.0,1.0,lavender_10s.jpg,coconut_08s.jpg,,,,,,,,,,,,,,,,,,,,,,
,,,,,,,,,1.0,,,18,0.0,0.0,3.8877,0.0,2.0,2.0,2.0,1.0,fossil_06s.jpg,slingshot_07s.jpg,,,,,,,,,,,,,,,,,,,,,,
,,,,,,,,,0.0,,,18,1.0,0.0,1.4841,0.0,3.0,3.0,3.0,1.0,tab_09s.jpg,refrigerator_07s.jpg,,,,,,,,,,,,,,,,,,,,,,
,,,,,,,,,1.0,,,18,0.0,0.0,3.4503,0.0,4.0,4.0,4.0,1.0,ivy_12s.jpg,puppy_08s.jpg,,,,,,,,,,,,,,,,,,,,,,
,,,,,,,,,0.0,,,18,0.0,1.0,3.769,0.0,5.0,5.0,5.0,1.0,latte_06s.jpg,rocket_02s.jpg,,,,,,,,,,,,,,,,,,,,,,
,,,,,,,,,,,,18,,,,,,,,,,,0.0,3.0,3.0,3.0,1.0,clock_present_4_6.xlsx,clock_compare_task_4_6.xlsx,,,,,,,,,,,,,,,
0.0,1.0,0.6709,0.0,0.0,0.0,0.0,1.0,mask_09s.jpg,0.0,clock_6_1.png,1.0,18,,,,,,,,,,,,,,,,,,,,,,,,,,,,,,,,
0.0,1.0,0.4899,0.0,1.0,1.0,1.0,1.0,lab_coat_11s.jpg,0.0,clock_6_2.png,1.0,18,,,,,,,,,,,,,,,,,,,,,,,,,,,,,,,,
0.0,1.0,0.469,0.0,2.0,2.0,2.0,1.0,radio_09s.jpg,0.0,clock_6_3.png,1.0,18,,,,,,,,,,,,,,,,,,,,,,,,,,,,,,,,
0.0,1.0,0.5842,0.0,3.0,3.0,3.0,1.0,breadstick_08s.jpg,0.0,clock_6_4.png,1.0,18,,,,,,,,,,,,,,,,,,,,,,,,,,,,,,,,
0.0,1.0,0.6677,0.0,4.0,4.0,4.0,1.0,mousetrap_15n.jpg,0.0,clock_6_5.png,1.0,18,,,,,,,,,,,,,,,,,,,,,,,,,,,,,,,,
0.0,1.0,0.7519,0.0,5.0,5.0,5.0,1.0,flask_04s.jpg,0.0,clock_6_6.png,1.0,18,,,,,,,,,,,,,,,,,,,,,,,,,,,,,,,,
0.0,1.0,0.7185,0.0,6.0,6.0,6.0,1.0,orange_12s.jpg,0.0,clock_5_1.png,2.0,18,,,,,,,,,,,,,,,,,,,,,,,,,,,,,,,,
0.0,1.0,0.387,0.0,7.0,7.0,7.0,1.0,mannequin_05s.jpg,0.0,clock_5_2.png,2.0,18,,,,,,,,,,,,,,,,,,,,,,,,,,,,,,,,
0.0,1.0,0.4349,0.0,8.0,8.0,8.0,1.0,bean_06s.jpg,0.0,clock_5_3.png,2.0,18,,,,,,,,,,,,,,,,,,,,,,,,,,,,,,,,
0.0,1.0,0.5496,0.0,9.0,9.0,9.0,1.0,stamp2_08s.jpg,0.0,clock_5_4.png,2.0,18,,,,,,,,,,,,,,,,,,,,,,,,,,,,,,,,
0.0,1.0,0.6185,0.0,10.0,10.0,10.0,1.0,mosquito_12s.jpg,0.0,clock_5_5.png,2.0,18,,,,,,,,,,,,,,,,,,,,,,,,,,,,,,,,
0.0,1.0,0.6895,0.0,11.0,11.0,11.0,1.0,leotard_08s.jpg,0.0,clock_7_1.png,3.0,18,,,,,,,,,,,,,,,,,,,,,,,,,,,,,,,,
1.0,1.0,0.7185,0.0,12.0,12.0,12.0,1.0,leotard_08s.jpg,1.0,clock_7_2.png,3.0,18,,,,,,,,,,,,,,,,,,,,,,,,,,,,,,,,
0.0,1.0,0.5545,0.0,13.0,13.0,13.0,1.0,juicer2_06s.jpg,0.0,clock_7_3.png,3.0,18,,,,,,,,,,,,,,,,,,,,,,,,,,,,,,,,
0.0,1.0,0.7682,0.0,14.0,14.0,14.0,1.0,breadstick_08s.jpg,0.0,clock_7_4.png,3.0,18,,,,,,,,,,,,,,,,,,,,,,,,,,,,,,,,
0.0,1.0,0.6364,0.0,15.0,15.0,15.0,1.0,blazer_02s.jpg,0.0,clock_7_5.png,3.0,18,,,,,,,,,,,,,,,,,,,,,,,,,,,,,,,,
0.0,1.0,0.6683,0.0,16.0,16.0,16.0,1.0,puddle_02s.jpg,0.0,clock_7_6.png,3.0,18,,,,,,,,,,,,,,,,,,,,,,,,,,,,,,,,
1.0,1.0,0.5389,0.0,17.0,17.0,17.0,1.0,puddle_02s.jpg,1.0,clock_7_7.png,3.0,18,,,,,,,,,,,,,,,,,,,,,,,,,,,,,,,,
0.0,1.0,0.6709,0.0,18.0,18.0,18.0,1.0,bathtub_23s.jpg,0.0,clock_6_1.png,4.0,18,,,,,,,,,,,,,,,,,,,,,,,,,,,,,,,,
1.0,1.0,0.5711,0.0,19.0,19.0,19.0,1.0,bathtub_23s.jpg,1.0,clock_6_2.png,4.0,18,,,,,,,,,,,,,,,,,,,,,,,,,,,,,,,,
0.0,1.0,0.5677,0.0,20.0,20.0,20.0,1.0,target_11s.jpg,0.0,clock_6_3.png,4.0,18,,,,,,,,,,,,,,,,,,,,,,,,,,,,,,,,
0.0,1.0,0.5525,0.0,21.0,21.0,21.0,1.0,tiger_06s.jpg,0.0,clock_6_4.png,4.0,18,,,,,,,,,,,,,,,,,,,,,,,,,,,,,,,,
0.0,1.0,0.5536,0.0,22.0,22.0,22.0,1.0,toad_09s.jpg,0.0,clock_6_5.png,4.0,18,,,,,,,,,,,,,,,,,,,,,,,,,,,,,,,,
0.0,1.0,0.4552,0.0,23.0,23.0,23.0,1.0,jalapeno_15s.jpg,0.0,clock_6_6.png,4.0,18,,,,,,,,,,,,,,,,,,,,,,,,,,,,,,,,
0.0,1.0,0.8348,0.0,24.0,24.0,24.0,1.0,emerald_02s.jpg,0.0,clock_7_1.png,5.0,18,,,,,,,,,,,,,,,,,,,,,,,,,,,,,,,,
1.0,1.0,1.0676,0.0,25.0,25.0,25.0,1.0,emerald_02s.jpg,1.0,clock_7_2.png,5.0,18,,,,,,,,,,,,,,,,,,,,,,,,,,,,,,,,
0.0,1.0,0.4844,0.0,26.0,26.0,26.0,1.0,ticktacktoe_08s.jpg,0.0,clock_7_3.png,5.0,18,,,,,,,,,,,,,,,,,,,,,,,,,,,,,,,,
1.0,1.0,0.6523,0.0,27.0,27.0,27.0,1.0,ticktacktoe_08s.jpg,1.0,clock_7_4.png,5.0,18,,,,,,,,,,,,,,,,,,,,,,,,,,,,,,,,
0.0,1.0,0.6203,0.0,28.0,28.0,28.0,1.0,spacesuit_02s.jpg,0.0,clock_7_5.png,5.0,18,,,,,,,,,,,,,,,,,,,,,,,,,,,,,,,,
0.0,1.0,0.5679,0.0,29.0,29.0,29.0,1.0,sledgehammer_03s.jpg,0.0,clock_7_6.png,5.0,18,,,,,,,,,,,,,,,,,,,,,,,,,,,,,,,,
0.0,1.0,0.5866,0.0,30.0,30.0,30.0,1.0,rhubarb_03s.jpg,0.0,clock_7_7.png,5.0,18,,,,,,,,,,,,,,,,,,,,,,,,,,,,,,,,
0.0,1.0,0.5834,0.0,31.0,31.0,31.0,1.0,kite_04s.jpg,0.0,clock_5_1.png,6.0,18,,,,,,,,,,,,,,,,,,,,,,,,,,,,,,,,
0.0,1.0,0.4686,0.0,32.0,32.0,32.0,1.0,birdcage_08s.jpg,0.0,clock_5_2.png,6.0,18,,,,,,,,,,,,,,,,,,,,,,,,,,,,,,,,
0.0,1.0,0.6041,0.0,33.0,33.0,33.0,1.0,crate_05s.jpg,0.0,clock_5_3.png,6.0,18,,,,,,,,,,,,,,,,,,,,,,,,,,,,,,,,
0.0,1.0,0.5707,0.0,34.0,34.0,34.0,1.0,go-kart_10s.jpg,0.0,clock_5_4.png,6.0,18,,,,,,,,,,,,,,,,,,,,,,,,,,,,,,,,
1.0,1.0,0.6579,0.0,35.0,35.0,35.0,1.0,crate_05s.jpg,1.0,clock_5_5.png,6.0,18,,,,,,,,,,,,,,,,,,,,,,,,,,,,,,,,
,,,,,,,,,1.0,,,18,0.0,0.0,4.6395,0.0,0.0,0.0,0.0,1.0,sledgehammer_03s.jpg,birdcage_08s.jpg,,,,,,,,,,,,,,,,,,,,,,
,,,,,,,,,1.0,,,18,1.0,1.0,2.6004,0.0,1.0,1.0,1.0,1.0,flask_04s.jpg,bean_06s.jpg,,,,,,,,,,,,,,,,,,,,,,
,,,,,,,,,0.0,,,18,1.0,0.0,3.8647,0.0,2.0,2.0,2.0,1.0,juicer2_06s.jpg,mosquito_12s.jpg,,,,,,,,,,,,,,,,,,,,,,
,,,,,,,,,1.0,,,18,1.0,1.0,3.6637,0.0,3.0,3.0,3.0,1.0,orange_12s.jpg,stamp2_08s.jpg,,,,,,,,,,,,,,,,,,,,,,
,,,,,,,,,0.0,,,18,0.0,1.0,3.5492,0.0,4.0,4.0,4.0,1.0,jalapeno_15s.jpg,target_11s.jpg,,,,,,,,,,,,,,,,,,,,,,
,,,,,,,,,0.0,,,18,0.0,1.0,2.2179,0.0,5.0,5.0,5.0,1.0,mousetrap_15n.jpg,lab_coat_11s.jpg,,,,,,,,,,,,,,,,,,,,,,
,,,,,,,,,,,,18,,,,,,,,,,,0.0,4.0,4.0,4.0,1.0,clock_present_5_6.xlsx,clock_compare_task_5_6.xlsx,,,,,,,,,,,,,,,
0.0,1.0,0.6185,0.0,0.0,0.0,0.0,1.0,playpen_11s.jpg,0.0,clock_7_1.png,1.0,18,,,,,,,,,,,,,,,,,,,,,,,,,,,,,,,,
1.0,1.0,0.6528,0.0,1.0,1.0,1.0,1.0,playpen_11s.jpg,1.0,clock_7_2.png,1.0,18,,,,,,,,,,,,,,,,,,,,,,,,,,,,,,,,
0.0,1.0,0.621,0.0,2.0,2.0,2.0,1.0,abacus_12s.jpg,0.0,clock_7_3.png,1.0,18,,,,,,,,,,,,,,,,,,,,,,,,,,,,,,,,
0.0,1.0,0.5227,0.0,3.0,3.0,3.0,1.0,butter_14s.jpg,0.0,clock_7_4.png,1.0,18,,,,,,,,,,,,,,,,,,,,,,,,,,,,,,,,
1.0,1.0,0.5511,0.0,4.0,4.0,4.0,1.0,abacus_12s.jpg,1.0,clock_7_5.png,1.0,18,,,,,,,,,,,,,,,,,,,,,,,,,,,,,,,,
0.0,1.0,0.5357,0.0,5.0,5.0,5.0,1.0,towel_rack_04s.jpg,0.0,clock_7_6.png,1.0,18,,,,,,,,,,,,,,,,,,,,,,,,,,,,,,,,
0.0,1.0,0.6392,0.0,6.0,6.0,6.0,1.0,bee_20s.jpg,0.0,clock_7_7.png,1.0,18,,,,,,,,,,,,,,,,,,,,,,,,,,,,,,,,
0.0,1.0,0.6707,0.0,7.0,7.0,7.0,1.0,padlock_07s.jpg,0.0,clock_6_1.png,2.0,18,,,,,,,,,,,,,,,,,,,,,,,,,,,,,,,,
0.0,1.0,0.6863,0.0,8.0,8.0,8.0,1.0,butter_14s.jpg,0.0,clock_6_2.png,2.0,18,,,,,,,,,,,,,,,,,,,,,,,,,,,,,,,,
0.0,1.0,0.6549,0.0,9.0,9.0,9.0,1.0,purse_05s.jpg,0.0,clock_6_3.png,2.0,18,,,,,,,,,,,,,,,,,,,,,,,,,,,,,,,,
1.0,1.0,0.6196,0.0,10.0,10.0,10.0,1.0,butter_14s.jpg,1.0,clock_6_4.png,2.0,18,,,,,,,,,,,,,,,,,,,,,,,,,,,,,,,,
0.0,1.0,0.4578,0.0,11.0,11.0,11.0,1.0,peppermint_07s.jpg,0.0,clock_6_5.png,2.0,18,,,,,,,,,,,,,,,,,,,,,,,,,,,,,,,,
0.0,1.0,0.5037,0.0,12.0,12.0,12.0,1.0,cucumber_07s.jpg,0.0,clock_6_6.png,2.0,18,,,,,,,,,,,,,,,,,,,,,,,,,,,,,,,,
0.0,1.0,0.7513,0.0,13.0,13.0,13.0,1.0,orangutan_03s.jpg,0.0,clock_5_1.png,3.0,18,,,,,,,,,,,,,,,,,,,,,,,,,,,,,,,,
0.0,1.0,0.4731,0.0,14.0,14.0,14.0,1.0,chime_12s.jpg,0.0,clock_5_2.png,3.0,18,,,,,,,,,,,,,,,,,,,,,,,,,,,,,,,,
1.0,1.0,0.5856,0.0,15.0,15.0,15.0,1.0,orangutan_03s.jpg,1.0,clock_5_3.png,3.0,18,,,,,,,,,,,,,,,,,,,,,,,,,,,,,,,,
0.0,1.0,0.4998,0.0,16.0,16.0,16.0,1.0,turkey_10s.jpg,0.0,clock_5_4.png,3.0,18,,,,,,,,,,,,,,,,,,,,,,,,,,,,,,,,
1.0,1.0,0.6566,0.0,17.0,17.0,17.0,1.0,orangutan_03s.jpg,1.0,clock_5_5.png,3.0,18,,,,,,,,,,,,,,,,,,,,,,,,,,,,,,,,
0.0,1.0,1.1845,0.0,18.0,18.0,18.0,1.0,birthday_cake_09s.jpg,0.0,clock_5_1.png,4.0,18,,,,,,,,,,,,,,,,,,,,,,,,,,,,,,,,
0.0,1.0,0.4723,0.0,19.0,19.0,19.0,1.0,lizard_10n.jpg,0.0,clock_5_2.png,4.0,18,,,,,,,,,,,,,,,,,,,,,,,,,,,,,,,,
0.0,1.0,0.7683,0.0,20.0,20.0,20.0,1.0,lava_02s.jpg,0.0,clock_5_3.png,4.0,18,,,,,,,,,,,,,,,,,,,,,,,,,,,,,,,,
0.0,1.0,0.4697,0.0,21.0,21.0,21.0,1.0,rudder_02s.jpg,0.0,clock_5_4.png,4.0,18,,,,,,,,,,,,,,,,,,,,,,,,,,,,,,,,
0.0,1.0,0.5696,0.0,22.0,22.0,22.0,1.0,cap_05s.jpg,0.0,clock_5_5.png,4.0,18,,,,,,,,,,,,,,,,,,,,,,,,,,,,,,,,
0.0,1.0,0.6706,0.0,23.0,23.0,23.0,1.0,eggshell_14s.jpg,0.0,clock_6_1.png,5.0,18,,,,,,,,,,,,,,,,,,,,,,,,,,,,,,,,
0.0,1.0,0.4682,0.0,24.0,24.0,24.0,1.0,gear_07s.jpg,0.0,clock_6_2.png,5.0,18,,,,,,,,,,,,,,,,,,,,,,,,,,,,,,,,
0.0,1.0,0.5179,0.0,25.0,25.0,25.0,1.0,icicle_04s.jpg,0.0,clock_6_3.png,5.0,18,,,,,,,,,,,,,,,,,,,,,,,,,,,,,,,,
0.0,1.0,0.4368,0.0,26.0,26.0,26.0,1.0,submarine_11n.jpg,0.0,clock_6_4.png,5.0,18,,,,,,,,,,,,,,,,,,,,,,,,,,,,,,,,
0.0,1.0,0.4027,0.0,27.0,27.0,27.0,1.0,boar_10s.jpg,0.0,clock_6_5.png,5.0,18,,,,,,,,,,,,,,,,,,,,,,,,,,,,,,,,
0.0,1.0,0.5849,0.0,28.0,28.0,28.0,1.0,plunger_08s.jpg,0.0,clock_6_6.png,5.0,18,,,,,,,,,,,,,,,,,,,,,,,,,,,,,,,,
0.0,1.0,0.6735,0.0,29.0,29.0,29.0,1.0,ant_12s.jpg,0.0,clock_7_1.png,6.0,18,,,,,,,,,,,,,,,,,,,,,,,,,,,,,,,,
0.0,1.0,0.485,0.0,30.0,30.0,30.0,1.0,juicer1_08s.jpg,0.0,clock_7_2.png,6.0,18,,,,,,,,,,,,,,,,,,,,,,,,,,,,,,,,
0.0,1.0,0.8355,0.0,31.0,31.0,31.0,1.0,submarine_11n.jpg,0.0,clock_7_3.png,6.0,18,,,,,,,,,,,,,,,,,,,,,,,,,,,,,,,,
1.0,1.0,1.4062,0.0,32.0,32.0,32.0,1.0,juicer1_08s.jpg,1.0,clock_7_4.png,6.0,18,,,,,,,,,,,,,,,,,,,,,,,,,,,,,,,,
0.0,1.0,0.6531,0.0,33.0,33.0,33.0,1.0,cucumber_07s.jpg,0.0,clock_7_5.png,6.0,18,,,,,,,,,,,,,,,,,,,,,,,,,,,,,,,,
0.0,1.0,0.5033,0.0,34.0,34.0,34.0,1.0,mailbox_11s.jpg,0.0,clock_7_6.png,6.0,18,,,,,,,,,,,,,,,,,,,,,,,,,,,,,,,,
1.0,1.0,0.6711,0.0,35.0,35.0,35.0,1.0,juicer1_08s.jpg,1.0,clock_7_7.png,6.0,18,,,,,,,,,,,,,,,,,,,,,,,,,,,,,,,,
,,,,,,,,,1.0,,,18,0.0,0.0,2.9259,0.0,0.0,0.0,0.0,1.0,bee_20s.jpg,purse_05s.jpg,,,,,,,,,,,,,,,,,,,,,,
,,,,,,,,,0.0,,,18,0.0,1.0,2.584,0.0,1.0,1.0,1.0,1.0,chime_12s.jpg,peppermint_07s.jpg,,,,,,,,,,,,,,,,,,,,,,
,,,,,,,,,1.0,,,18,1.0,1.0,2.023,0.0,2.0,2.0,2.0,1.0,lava_02s.jpg,eggshell_14s.jpg,,,,,,,,,,,,,,,,,,,,,,
,,,,,,,,,1.0,,,18,1.0,1.0,4.5976,0.0,3.0,3.0,3.0,1.0,birthday_cake_09s.jpg,rudder_02s.jpg,,,,,,,,,,,,,,,,,,,,,,
,,,,,,,,,0.0,,,18,0.0,1.0,9.3646,0.0,4.0,4.0,4.0,1.0,boar_10s.jpg,gear_07s.jpg,,,,,,,,,,,,,,,,,,,,,,
,,,,,,,,,0.0,,,18,0.0,1.0,1.987,0.0,5.0,5.0,5.0,1.0,plunger_08s.jpg,icicle_04s.jpg,,,,,,,,,,,,,,,,,,,,,,
0.0,1.0,0.6095,,,,,,stamp1_11s.jpg,0.0,clockno_up.jpg,1.0,18,,,,,,,,,,,,,,,,,,0.0,0.0,0.0,0.0,1.0,,,,,,,,,,
1.0,1.0,0.5354,,,,,,stamp1_11s.jpg,1.0,clockno_default.jpg,1.0,18,,,,,,,,,,,,,,,,,,0.0,1.0,1.0,1.0,1.0,,,,,,,,,,
1.0,1.0,0.602,,,,,,stamp1_11s.jpg,1.0,clockno_default.jpg,1.0,18,,,,,,,,,,,,,,,,,,0.0,2.0,2.0,2.0,1.0,,,,,,,,,,
0.0,1.0,0.5374,,,,,,bacon_05s.jpg,0.0,clockno_default.jpg,1.0,18,,,,,,,,,,,,,,,,,,0.0,3.0,3.0,3.0,1.0,,,,,,,,,,
0.0,1.0,0.5521,,,,,,mold2_04s.jpg,0.0,clockno_default.jpg,1.0,18,,,,,,,,,,,,,,,,,,0.0,4.0,4.0,4.0,1.0,,,,,,,,,,
0.0,1.0,0.8382,,,,,,ravioli_08s.jpg,0.0,clockno_up.jpg,2.0,18,,,,,,,,,,,,,,,,,,0.0,5.0,5.0,5.0,1.0,,,,,,,,,,
0.0,1.0,0.5531,,,,,,lasagna_06s.jpg,0.0,clockno_default.jpg,2.0,18,,,,,,,,,,,,,,,,,,0.0,6.0,6.0,6.0,1.0,,,,,,,,,,
0.0,1.0,0.6518,,,,,,soda_fountain_03s.jpg,0.0,clockno_default.jpg,2.0,18,,,,,,,,,,,,,,,,,,0.0,7.0,7.0,7.0,1.0,,,,,,,,,,
0.0,1.0,0.4679,,,,,,sparkler_02s.jpg,0.0,clockno_default.jpg,2.0,18,,,,,,,,,,,,,,,,,,0.0,8.0,8.0,8.0,1.0,,,,,,,,,,
1.0,1.0,0.7685,,,,,,ravioli_08s.jpg,1.0,clockno_default.jpg,2.0,18,,,,,,,,,,,,,,,,,,0.0,9.0,9.0,9.0,1.0,,,,,,,,,,
0.0,1.0,0.8691,,,,,,raccoon_02s.jpg,0.0,clockno_default.jpg,2.0,18,,,,,,,,,,,,,,,,,,0.0,10.0,10.0,10.0,1.0,,,,,,,,,,
0.0,1.0,0.6521,,,,,,ruby_15s.jpg,0.0,clockno_default.jpg,2.0,18,,,,,,,,,,,,,,,,,,0.0,11.0,11.0,11.0,1.0,,,,,,,,,,
0.0,1.0,1.1355,,,,,,boomerang_06s.jpg,0.0,clockno_up.jpg,3.0,18,,,,,,,,,,,,,,,,,,0.0,12.0,12.0,12.0,1.0,,,,,,,,,,
0.0,1.0,0.603,,,,,,tape_measure_11s.jpg,0.0,clockno_default.jpg,3.0,18,,,,,,,,,,,,,,,,,,0.0,13.0,13.0,13.0,1.0,,,,,,,,,,
0.0,1.0,0.5695,,,,,,power_line_08s.jpg,0.0,clockno_default.jpg,3.0,18,,,,,,,,,,,,,,,,,,0.0,14.0,14.0,14.0,1.0,,,,,,,,,,
1.0,1.0,0.7708,,,,,,boomerang_06s.jpg,1.0,clockno_default.jpg,3.0,18,,,,,,,,,,,,,,,,,,0.0,15.0,15.0,15.0,1.0,,,,,,,,,,
0.0,1.0,0.6051,,,,,,letter_opener_03s.jpg,0.0,clockno_default.jpg,3.0,18,,,,,,,,,,,,,,,,,,0.0,16.0,16.0,16.0,1.0,,,,,,,,,,
0.0,1.0,0.6853,,,,,,parachute_03s.jpg,0.0,clockno_default.jpg,3.0,18,,,,,,,,,,,,,,,,,,0.0,17.0,17.0,17.0,1.0,,,,,,,,,,
0.0,1.0,0.9011,,,,,,snowman_02s.jpg,0.0,clockno_up.jpg,4.0,18,,,,,,,,,,,,,,,,,,0.0,18.0,18.0,18.0,1.0,,,,,,,,,,
0.0,1.0,0.6685,,,,,,turtle_08s.jpg,0.0,clockno_default.jpg,4.0,18,,,,,,,,,,,,,,,,,,0.0,19.0,19.0,19.0,1.0,,,,,,,,,,
0.0,1.0,0.6509,,,,,,rug_09s.jpg,0.0,clockno_default.jpg,4.0,18,,,,,,,,,,,,,,,,,,0.0,20.0,20.0,20.0,1.0,,,,,,,,,,
0.0,1.0,0.5035,,,,,,soccer_ball_12s.jpg,0.0,clockno_default.jpg,4.0,18,,,,,,,,,,,,,,,,,,0.0,21.0,21.0,21.0,1.0,,,,,,,,,,
0.0,1.0,0.5355,,,,,,paper_bag_12s.jpg,0.0,clockno_default.jpg,4.0,18,,,,,,,,,,,,,,,,,,0.0,22.0,22.0,22.0,1.0,,,,,,,,,,
1.0,1.0,0.7029,,,,,,paper_bag_12s.jpg,1.0,clockno_default.jpg,4.0,18,,,,,,,,,,,,,,,,,,0.0,23.0,23.0,23.0,1.0,,,,,,,,,,
0.0,1.0,0.9527,,,,,,lasagna_06s.jpg,0.0,clockno_default.jpg,4.0,18,,,,,,,,,,,,,,,,,,0.0,24.0,24.0,24.0,1.0,,,,,,,,,,
0.0,1.0,0.7041,,,,,,teapot_03s.jpg,0.0,clockno_up.jpg,5.0,18,,,,,,,,,,,,,,,,,,0.0,25.0,25.0,25.0,1.0,,,,,,,,,,
0.0,1.0,0.6019,,,,,,frame_06s.jpg,0.0,clockno_default.jpg,5.0,18,,,,,,,,,,,,,,,,,,0.0,26.0,26.0,26.0,1.0,,,,,,,,,,
0.0,1.0,0.6007,,,,,,dashboard_02s.jpg,0.0,clockno_default.jpg,5.0,18,,,,,,,,,,,,,,,,,,0.0,27.0,27.0,27.0,1.0,,,,,,,,,,
0.0,1.0,0.7184,,,,,,glasses01a.jpg,0.0,clockno_default.jpg,5.0,18,,,,,,,,,,,,,,,,,,0.0,28.0,28.0,28.0,1.0,,,,,,,,,,
0.0,1.0,0.4845,,,,,,popsicle_02s.jpg,0.0,clockno_default.jpg,5.0,18,,,,,,,,,,,,,,,,,,0.0,29.0,29.0,29.0,1.0,,,,,,,,,,
0.0,1.0,1.2207,,,,,,screwdriver02a.jpg,0.0,clockno_up.jpg,6.0,18,,,,,,,,,,,,,,,,,,0.0,30.0,30.0,30.0,1.0,,,,,,,,,,
0.0,1.0,0.4694,,,,,,kayak_08s.jpg,0.0,clockno_default.jpg,6.0,18,,,,,,,,,,,,,,,,,,0.0,31.0,31.0,31.0,1.0,,,,,,,,,,
0.0,1.0,0.4672,,,,,,marker_05s.jpg,0.0,clockno_default.jpg,6.0,18,,,,,,,,,,,,,,,,,,0.0,32.0,32.0,32.0,1.0,,,,,,,,,,
0.0,1.0,0.4722,,,,,,knot_01b.jpg,0.0,clockno_default.jpg,6.0,18,,,,,,,,,,,,,,,,,,0.0,33.0,33.0,33.0,1.0,,,,,,,,,,
0.0,1.0,0.4684,,,,,,oil_02s.jpg,0.0,clockno_default.jpg,6.0,18,,,,,,,,,,,,,,,,,,0.0,34.0,34.0,34.0,1.0,,,,,,,,,,
0.0,1.0,0.4694,,,,,,light_switch_02s.jpg,0.0,clockno_default.jpg,6.0,18,,,,,,,,,,,,,,,,,,0.0,35.0,35.0,35.0,1.0,,,,,,,,,,
,,,,,,,,,1.0,,,18,1.0,1.0,1.8167,,,,,,mold2_04s.jpg,soda_fountain_03s.jpg,,,,,,,,,,,,,0.0,0.0,0.0,0.0,1.0,,,,,
,,,,,,,,,0.0,,,18,1.0,0.0,2.1225,,,,,,turtle_08s.jpg,letter_opener_03s.jpg,,,,,,,,,,,,,0.0,1.0,1.0,1.0,1.0,,,,,
,,,,,,,,,0.0,,,18,1.0,0.0,5.7013,,,,,,rug_09s.jpg,parachute_03s.jpg,,,,,,,,,,,,,0.0,2.0,2.0,2.0,1.0,,,,,
,,,,,,,,,1.0,,,18,1.0,1.0,1.4461,,,,,,snowman_02s.jpg,soccer_ball_12s.jpg,,,,,,,,,,,,,0.0,3.0,3.0,3.0,1.0,,,,,
,,,,,,,,,0.0,,,18,1.0,0.0,2.5534,,,,,,ruby_15s.jpg,sparkler_02s.jpg,,,,,,,,,,,,,0.0,4.0,4.0,4.0,1.0,,,,,
,,,,,,,,,0.0,,,18,0.0,1.0,1.3705,,,,,,glasses01a.jpg,teapot_03s.jpg,,,,,,,,,,,,,0.0,5.0,5.0,5.0,1.0,,,,,
,,,,,,,,,,,,18,,,,,,,,,,,,,,,,clockno_present_1_6.xlsx,clockno_compare_task_1_6.xlsx,,,,,,,,,,,0.0,0.0,0.0,0.0,1.0
0.0,1.0,0.6378,,,,,,bottle_opener_11s.jpg,0.0,clockno_up.jpg,1.0,18,,,,,,,,,,,,,,,,,,0.0,0.0,0.0,0.0,1.0,,,,,,,,,,
0.0,1.0,0.5025,,,,,,racehorse_03s.jpg,0.0,clockno_default.jpg,1.0,18,,,,,,,,,,,,,,,,,,0.0,1.0,1.0,1.0,1.0,,,,,,,,,,
0.0,1.0,0.4389,,,,,,peach_04s.jpg,0.0,clockno_default.jpg,1.0,18,,,,,,,,,,,,,,,,,,0.0,2.0,2.0,2.0,1.0,,,,,,,,,,
1.0,1.0,0.654,,,,,,bottle_opener_11s.jpg,1.0,clockno_default.jpg,1.0,18,,,,,,,,,,,,,,,,,,0.0,3.0,3.0,3.0,1.0,,,,,,,,,,
1.0,1.0,0.7198,,,,,,peach_04s.jpg,1.0,clockno_default.jpg,1.0,18,,,,,,,,,,,,,,,,,,0.0,4.0,4.0,4.0,1.0,,,,,,,,,,
0.0,1.0,0.6183,,,,,,tortilla_06s.jpg,0.0,clockno_up.jpg,2.0,18,,,,,,,,,,,,,,,,,,0.0,5.0,5.0,5.0,1.0,,,,,,,,,,
0.0,1.0,0.5003,,,,,,denture_03s.jpg,0.0,clockno_default.jpg,2.0,18,,,,,,,,,,,,,,,,,,0.0,6.0,6.0,6.0,1.0,,,,,,,,,,
0.0,1.0,0.5711,,,,,,cereal_04s.jpg,0.0,clockno_default.jpg,2.0,18,,,,,,,,,,,,,,,,,,0.0,7.0,7.0,7.0,1.0,,,,,,,,,,
0.0,1.0,0.6184,,,,,,antenna_01b.jpg,0.0,clockno_default.jpg,2.0,18,,,,,,,,,,,,,,,,,,0.0,8.0,8.0,8.0,1.0,,,,,,,,,,
0.0,1.0,0.5196,,,,,,milk_02s.jpg,0.0,clockno_default.jpg,2.0,18,,,,,,,,,,,,,,,,,,0.0,9.0,9.0,9.0,1.0,,,,,,,,,,
0.0,1.0,0.5851,,,,,,mushroom_10n.jpg,0.0,clockno_default.jpg,2.0,18,,,,,,,,,,,,,,,,,,0.0,10.0,10.0,10.0,1.0,,,,,,,,,,
1.0,0.0,1.0517,,,,,,racehorse_03s.jpg,0.0,clockno_default.jpg,2.0,18,,,,,,,,,,,,,,,,,,0.0,11.0,11.0,11.0,1.0,,,,,,,,,,
0.0,1.0,0.9007,,,,,,pancake_12s.jpg,0.0,clockno_up.jpg,3.0,18,,,,,,,,,,,,,,,,,,0.0,12.0,12.0,12.0,1.0,,,,,,,,,,
0.0,1.0,0.5863,,,,,,saddle_06s.jpg,0.0,clockno_default.jpg,3.0,18,,,,,,,,,,,,,,,,,,0.0,13.0,13.0,13.0,1.0,,,,,,,,,,
0.0,1.0,0.4851,,,,,,mussel_11s.jpg,0.0,clockno_default.jpg,3.0,18,,,,,,,,,,,,,,,,,,0.0,14.0,14.0,14.0,1.0,,,,,,,,,,
0.0,1.0,0.5542,,,,,,fox_13s.jpg,0.0,clockno_default.jpg,3.0,18,,,,,,,,,,,,,,,,,,0.0,15.0,15.0,15.0,1.0,,,,,,,,,,
0.0,1.0,0.5699,,,,,,laundry_basket_11s.jpg,0.0,clockno_default.jpg,3.0,18,,,,,,,,,,,,,,,,,,0.0,16.0,16.0,16.0,1.0,,,,,,,,,,
0.0,1.0,0.6046,,,,,,kitten_07s.jpg,0.0,clockno_up.jpg,4.0,18,,,,,,,,,,,,,,,,,,0.0,17.0,17.0,17.0,1.0,,,,,,,,,,
1.0,1.0,0.6202,,,,,,kitten_07s.jpg,1.0,clockno_default.jpg,4.0,18,,,,,,,,,,,,,,,,,,0.0,18.0,18.0,18.0,1.0,,,,,,,,,,
0.0,1.0,0.4727,,,,,,tube_top_03s.jpg,0.0,clockno_default.jpg,4.0,18,,,,,,,,,,,,,,,,,,0.0,19.0,19.0,19.0,1.0,,,,,,,,,,
0.0,1.0,0.5035,,,,,,tennis_ball_06s.jpg,0.0,clockno_default.jpg,4.0,18,,,,,,,,,,,,,,,,,,0.0,20.0,20.0,20.0,1.0,,,,,,,,,,
0.0,1.0,0.4681,,,,,,spatula04.jpg,0.0,clockno_default.jpg,4.0,18,,,,,,,,,,,,,,,,,,0.0,21.0,21.0,21.0,1.0,,,,,,,,,,
0.0,1.0,0.6876,,,,,,fishhook_06s.jpg,0.0,clockno_default.jpg,4.0,18,,,,,,,,,,,,,,,,,,0.0,22.0,22.0,22.0,1.0,,,,,,,,,,
0.0,1.0,0.6028,,,,,,sushi_08s.jpg,0.0,clockno_up.jpg,5.0,18,,,,,,,,,,,,,,,,,,0.0,23.0,23.0,23.0,1.0,,,,,,,,,,
0.0,1.0,0.5522,,,,,,ring_03s.jpg,0.0,clockno_default.jpg,5.0,18,,,,,,,,,,,,,,,,,,0.0,24.0,24.0,24.0,1.0,,,,,,,,,,
0.0,1.0,0.5524,,,,,,glue_01s.jpg,0.0,clockno_default.jpg,5.0,18,,,,,,,,,,,,,,,,,,0.0,25.0,25.0,25.0,1.0,,,,,,,,,,
0.0,1.0,0.5686,,,,,,trumpet_06s.jpg,0.0,clockno_default.jpg,5.0,18,,,,,,,,,,,,,,,,,,0.0,26.0,26.0,26.0,1.0,,,,,,,,,,
0.0,1.0,0.4345,,,,,,seagull_01b.jpg,0.0,clockno_default.jpg,5.0,18,,,,,,,,,,,,,,,,,,0.0,27.0,27.0,27.0,1.0,,,,,,,,,,
0.0,1.0,1.0013,,,,,,contact_lens_15s.jpg,0.0,clockno_default.jpg,5.0,18,,,,,,,,,,,,,,,,,,0.0,28.0,28.0,28.0,1.0,,,,,,,,,,
,0.0,,,,,,,puppet_01b.jpg,0.0,clockno_up.jpg,6.0,18,,,,,,,,,,,,,,,,,,0.0,29.0,29.0,29.0,1.0,,,,,,,,,,
,0.0,,,,,,,rhinoceros_02s.jpg,0.0,clockno_default.jpg,6.0,18,,,,,,,,,,,,,,,,,,0.0,30.0,30.0,30.0,1.0,,,,,,,,,,
0.0,0.0,0.6521,,,,,,puppet_01b.jpg,1.0,clockno_default.jpg,6.0,18,,,,,,,,,,,,,,,,,,0.0,31.0,31.0,31.0,1.0,,,,,,,,,,
0.0,1.0,0.6017,,,,,,plaster_cast_13s.jpg,0.0,clockno_default.jpg,6.0,18,,,,,,,,,,,,,,,,,,0.0,32.0,32.0,32.0,1.0,,,,,,,,,,
1.0,1.0,1.302,,,,,,rhinoceros_02s.jpg,1.0,clockno_default.jpg,6.0,18,,,,,,,,,,,,,,,,,,0.0,33.0,33.0,33.0,1.0,,,,,,,,,,
0.0,1.0,0.622,,,,,,turnstile_08s.jpg,0.0,clockno_default.jpg,6.0,18,,,,,,,,,,,,,,,,,,0.0,34.0,34.0,34.0,1.0,,,,,,,,,,
0.0,1.0,0.5865,,,,,,kimono_13s.jpg,0.0,clockno_default.jpg,6.0,18,,,,,,,,,,,,,,,,,,0.0,35.0,35.0,35.0,1.0,,,,,,,,,,
,,,,,,,,,0.0,,,18,1.0,0.0,2.7764,,,,,,sushi_08s.jpg,tennis_ball_06s.jpg,,,,,,,,,,,,,0.0,0.0,0.0,0.0,1.0,,,,,
,,,,,,,,,0.0,,,18,1.0,0.0,4.4982,,,,,,ring_03s.jpg,spatula04.jpg,,,,,,,,,,,,,0.0,1.0,1.0,1.0,1.0,,,,,
,,,,,,,,,0.0,,,18,1.0,0.0,1.6688,,,,,,pancake_12s.jpg,milk_02s.jpg,,,,,,,,,,,,,0.0,2.0,2.0,2.0,1.0,,,,,
,,,,,,,,,0.0,,,18,0.0,1.0,4.3824,,,,,,antenna_01b.jpg,tortilla_06s.jpg,,,,,,,,,,,,,0.0,3.0,3.0,3.0,1.0,,,,,
,,,,,,,,,1.0,,,18,1.0,1.0,1.4173,,,,,,plaster_cast_13s.jpg,kimono_13s.jpg,,,,,,,,,,,,,0.0,4.0,4.0,4.0,1.0,,,,,
,,,,,,,,,1.0,,,18,1.0,1.0,5.3824,,,,,,cereal_04s.jpg,mushroom_10n.jpg,,,,,,,,,,,,,0.0,5.0,5.0,5.0,1.0,,,,,
,,,,,,,,,,,,18,,,,,,,,,,,,,,,,clockno_present_2_6.xlsx,clockno_compare_task_2_6.xlsx,,,,,,,,,,,0.0,1.0,1.0,1.0,1.0
0.0,1.0,0.4411,,,,,,binder_21s.jpg,0.0,clockno_up.jpg,1.0,18,,,,,,,,,,,,,,,,,,0.0,0.0,0.0,0.0,1.0,,,,,,,,,,
0.0,1.0,0.5187,,,,,,magnet_03s.jpg,0.0,clockno_default.jpg,1.0,18,,,,,,,,,,,,,,,,,,0.0,1.0,1.0,1.0,1.0,,,,,,,,,,
0.0,1.0,0.4524,,,,,,penguin_16s.jpg,0.0,clockno_default.jpg,1.0,18,,,,,,,,,,,,,,,,,,0.0,2.0,2.0,2.0,1.0,,,,,,,,,,
0.0,1.0,0.4022,,,,,,rocking_chair_05s.jpg,0.0,clockno_default.jpg,1.0,18,,,,,,,,,,,,,,,,,,0.0,3.0,3.0,3.0,1.0,,,,,,,,,,
1.0,1.0,0.589,,,,,,magnet_03s.jpg,1.0,clockno_default.jpg,1.0,18,,,,,,,,,,,,,,,,,,0.0,4.0,4.0,4.0,1.0,,,,,,,,,,
0.0,1.0,0.5514,,,,,,gazelle_10s.jpg,0.0,clockno_up.jpg,2.0,18,,,,,,,,,,,,,,,,,,0.0,5.0,5.0,5.0,1.0,,,,,,,,,,
0.0,1.0,0.4339,,,,,,coffee_filter_10s.jpg,0.0,clockno_default.jpg,2.0,18,,,,,,,,,,,,,,,,,,0.0,6.0,6.0,6.0,1.0,,,,,,,,,,
1.0,1.0,0.5883,,,,,,coffee_filter_10s.jpg,1.0,clockno_default.jpg,2.0,18,,,,,,,,,,,,,,,,,,0.0,7.0,7.0,7.0,1.0,,,,,,,,,,
0.0,1.0,0.4842,,,,,,beaker_01b.jpg,0.0,clockno_default.jpg,2.0,18,,,,,,,,,,,,,,,,,,0.0,8.0,8.0,8.0,1.0,,,,,,,,,,
0.0,1.0,0.5168,,,,,,lamb_04s.jpg,0.0,clockno_default.jpg,2.0,18,,,,,,,,,,,,,,,,,,0.0,9.0,9.0,9.0,1.0,,,,,,,,,,
0.0,1.0,0.486,,,,,,bagel_15s.jpg,0.0,clockno_default.jpg,2.0,18,,,,,,,,,,,,,,,,,,0.0,10.0,10.0,10.0,1.0,,,,,,,,,,
0.0,1.0,0.6184,,,,,,coral_08s.jpg,0.0,clockno_default.jpg,2.0,18,,,,,,,,,,,,,,,,,,0.0,11.0,11.0,11.0,1.0,,,,,,,,,,
0.0,1.0,0.9185,,,,,,orchid_01b.jpg,0.0,clockno_up.jpg,3.0,18,,,,,,,,,,,,,,,,,,0.0,12.0,12.0,12.0,1.0,,,,,,,,,,
0.0,1.0,0.6211,,,,,,toaster_03s.jpg,0.0,clockno_default.jpg,3.0,18,,,,,,,,,,,,,,,,,,0.0,13.0,13.0,13.0,1.0,,,,,,,,,,
0.0,1.0,0.8546,,,,,,rocking_chair_05s.jpg,0.0,clockno_default.jpg,3.0,18,,,,,,,,,,,,,,,,,,0.0,14.0,14.0,14.0,1.0,,,,,,,,,,
0.0,1.0,0.7549,,,,,,coral_08s.jpg,0.0,clockno_default.jpg,3.0,18,,,,,,,,,,,,,,,,,,0.0,15.0,15.0,15.0,1.0,,,,,,,,,,
0.0,1.0,0.5194,,,,,,megaphone_03s.jpg,0.0,clockno_default.jpg,3.0,18,,,,,,,,,,,,,,,,,,0.0,16.0,16.0,16.0,1.0,,,,,,,,,,
0.0,1.0,0.6682,,,,,,doily_13s.jpg,0.0,clockno_default.jpg,3.0,18,,,,,,,,,,,,,,,,,,0.0,17.0,17.0,17.0,1.0,,,,,,,,,,
0.0,1.0,0.5843,,,,,,harpoon.jpg,0.0,clockno_up.jpg,4.0,18,,,,,,,,,,,,,,,,,,0.0,18.0,18.0,18.0,1.0,,,,,,,,,,
0.0,1.0,0.7018,,,,,,peanut_butter_08s.jpg,0.0,clockno_default.jpg,4.0,18,,,,,,,,,,,,,,,,,,0.0,19.0,19.0,19.0,1.0,,,,,,,,,,
0.0,1.0,0.5016,,,,,,margarita_03s.jpg,0.0,clockno_default.jpg,4.0,18,,,,,,,,,,,,,,,,,,0.0,20.0,20.0,20.0,1.0,,,,,,,,,,
1.0,1.0,1.1511,,,,,,peanut_butter_08s.jpg,1.0,clockno_default.jpg,4.0,18,,,,,,,,,,,,,,,,,,0.0,21.0,21.0,21.0,1.0,,,,,,,,,,
0.0,1.0,0.7551,,,,,,coral_08s.jpg,0.0,clockno_default.jpg,4.0,18,,,,,,,,,,,,,,,,,,0.0,22.0,22.0,22.0,1.0,,,,,,,,,,
0.0,1.0,0.5523,,,,,,punch1_10s.jpg,0.0,clockno_up.jpg,5.0,18,,,,,,,,,,,,,,,,,,0.0,23.0,23.0,23.0,1.0,,,,,,,,,,
0.0,1.0,0.4855,,,,,,bonsai_07s.jpg,0.0,clockno_default.jpg,5.0,18,,,,,,,,,,,,,,,,,,0.0,24.0,24.0,24.0,1.0,,,,,,,,,,
0.0,1.0,0.5685,,,,,,licorice_06s.jpg,0.0,clockno_default.jpg,5.0,18,,,,,,,,,,,,,,,,,,0.0,25.0,25.0,25.0,1.0,,,,,,,,,,
0.0,1.0,0.7726,,,,,,candy_cane_06s.jpg,0.0,clockno_default.jpg,5.0,18,,,,,,,,,,,,,,,,,,0.0,26.0,26.0,26.0,1.0,,,,,,,,,,
0.0,1.0,0.8027,,,,,,quesadilla_07s.jpg,0.0,clockno_default.jpg,5.0,18,,,,,,,,,,,,,,,,,,0.0,27.0,27.0,27.0,1.0,,,,,,,,,,
0.0,1.0,0.9695,,,,,,margarita_03s.jpg,0.0,clockno_default.jpg,5.0,18,,,,,,,,,,,,,,,,,,0.0,28.0,28.0,28.0,1.0,,,,,,,,,,
0.0,1.0,0.9848,,,,,,possum_09s.jpg,0.0,clockno_up.jpg,6.0,18,,,,,,,,,,,,,,,,,,0.0,29.0,29.0,29.0,1.0,,,,,,,,,,
0.0,1.0,0.5524,,,,,,mop_08s.jpg,0.0,clockno_default.jpg,6.0,18,,,,,,,,,,,,,,,,,,0.0,30.0,30.0,30.0,1.0,,,,,,,,,,
0.0,1.0,0.4344,,,,,,rice_12s.jpg,0.0,clockno_default.jpg,6.0,18,,,,,,,,,,,,,,,,,,0.0,31.0,31.0,31.0,1.0,,,,,,,,,,
0.0,1.0,0.5016,,,,,,thumbtack_14s.jpg,0.0,clockno_default.jpg,6.0,18,,,,,,,,,,,,,,,,,,0.0,32.0,32.0,32.0,1.0,,,,,,,,,,
0.0,1.0,0.4853,,,,,,rake_06s.jpg,0.0,clockno_default.jpg,6.0,18,,,,,,,,,,,,,,,,,,0.0,33.0,33.0,33.0,1.0,,,,,,,,,,
0.0,1.0,0.6688,,,,,,police_car_01s.jpg,0.0,clockno_default.jpg,6.0,18,,,,,,,,,,,,,,,,,,0.0,34.0,34.0,34.0,1.0,,,,,,,,,,
1.0,1.0,0.9179,,,,,,mop_08s.jpg,1.0,clockno_default.jpg,6.0,18,,,,,,,,,,,,,,,,,,0.0,35.0,35.0,35.0,1.0,,,,,,,,,,
,,,,,,,,,0.0,,,18,1.0,0.0,4.3438,,,,,,orchid_01b.jpg,lamb_04s.jpg,,,,,,,,,,,,,0.0,0.0,0.0,0.0,1.0,,,,,
,,,,,,,,,1.0,,,18,1.0,1.0,1.3031,,,,,,penguin_16s.jpg,gazelle_10s.jpg,,,,,,,,,,,,,0.0,1.0,1.0,1.0,1.0,,,,,
,,,,,,,,,1.0,,,18,0.0,0.0,1.6532,,,,,,bagel_15s.jpg,toaster_03s.jpg,,,,,,,,,,,,,0.0,2.0,2.0,2.0,1.0,,,,,
,,,,,,,,,0.0,,,18,0.0,1.0,5.52,,,,,,quesadilla_07s.jpg,bonsai_07s.jpg,,,,,,,,,,,,,0.0,3.0,3.0,3.0,1.0,,,,,
,,,,,,,,,0.0,,,18,0.0,1.0,1.7719,,,,,,police_car_01s.jpg,rice_12s.jpg,,,,,,,,,,,,,0.0,4.0,4.0,4.0,1.0,,,,,
,,,,,,,,,1.0,,,18,1.0,1.0,1.9006,,,,,,punch1_10s.jpg,candy_cane_06s.jpg,,,,,,,,,,,,,0.0,5.0,5.0,5.0,1.0,,,,,
,,,,,,,,,,,,18,,,,,,,,,,,,,,,,clockno_present_3_6.xlsx,clockno_compare_task_3_6.xlsx,,,,,,,,,,,0.0,2.0,2.0,2.0,1.0
0.0,1.0,0.5906,,,,,,teacup_07s.jpg,0.0,clockno_up.jpg,1.0,18,,,,,,,,,,,,,,,,,,0.0,0.0,0.0,0.0,1.0,,,,,,,,,,
0.0,1.0,0.4393,,,,,,hummingbird_05s.jpg,0.0,clockno_default.jpg,1.0,18,,,,,,,,,,,,,,,,,,0.0,1.0,1.0,1.0,1.0,,,,,,,,,,
0.0,1.0,0.4854,,,,,,lion_18s.jpg,0.0,clockno_default.jpg,1.0,18,,,,,,,,,,,,,,,,,,0.0,2.0,2.0,2.0,1.0,,,,,,,,,,
1.0,1.0,0.6016,,,,,,lion_18s.jpg,1.0,clockno_default.jpg,1.0,18,,,,,,,,,,,,,,,,,,0.0,3.0,3.0,3.0,1.0,,,,,,,,,,
1.0,1.0,0.7515,,,,,,hummingbird_05s.jpg,1.0,clockno_default.jpg,1.0,18,,,,,,,,,,,,,,,,,,0.0,4.0,4.0,4.0,1.0,,,,,,,,,,
0.0,1.0,0.8847,,,,,,razor_blade_01b.jpg,0.0,clockno_default.jpg,1.0,18,,,,,,,,,,,,,,,,,,0.0,5.0,5.0,5.0,1.0,,,,,,,,,,
0.0,1.0,0.6695,,,,,,ladle_04s.jpg,0.0,clockno_default.jpg,1.0,18,,,,,,,,,,,,,,,,,,0.0,6.0,6.0,6.0,1.0,,,,,,,,,,
0.0,1.0,0.8228,,,,,,typewriter_11s.jpg,0.0,clockno_up.jpg,2.0,18,,,,,,,,,,,,,,,,,,0.0,7.0,7.0,7.0,1.0,,,,,,,,,,
0.0,1.0,0.552,,,,,,bubble_01b.jpg,0.0,clockno_default.jpg,2.0,18,,,,,,,,,,,,,,,,,,0.0,8.0,8.0,8.0,1.0,,,,,,,,,,
0.0,1.0,0.7692,,,,,,teacup_07s.jpg,0.0,clockno_default.jpg,2.0,18,,,,,,,,,,,,,,,,,,0.0,9.0,9.0,9.0,1.0,,,,,,,,,,
0.0,1.0,0.4677,,,,,,toothpaste_12s.jpg,0.0,clockno_default.jpg,2.0,18,,,,,,,,,,,,,,,,,,0.0,10.0,10.0,10.0,1.0,,,,,,,,,,
0.0,1.0,0.6515,,,,,,loveseat_08s.jpg,0.0,clockno_default.jpg,2.0,18,,,,,,,,,,,,,,,,,,0.0,11.0,11.0,11.0,1.0,,,,,,,,,,
0.0,1.0,0.5527,,,,,,mirror_12s.jpg,0.0,clockno_up.jpg,3.0,18,,,,,,,,,,,,,,,,,,0.0,12.0,12.0,12.0,1.0,,,,,,,,,,
0.0,1.0,0.4546,,,,,,tupperware_09s.jpg,0.0,clockno_default.jpg,3.0,18,,,,,,,,,,,,,,,,,,0.0,13.0,13.0,13.0,1.0,,,,,,,,,,
0.0,1.0,0.6191,,,,,,keyboard_05s.jpg,0.0,clockno_default.jpg,3.0,18,,,,,,,,,,,,,,,,,,0.0,14.0,14.0,14.0,1.0,,,,,,,,,,
0.0,1.0,0.6073,,,,,,diving_board_07s.jpg,0.0,clockno_default.jpg,3.0,18,,,,,,,,,,,,,,,,,,0.0,15.0,15.0,15.0,1.0,,,,,,,,,,
0.0,1.0,0.5389,,,,,,ironing_board_07s.jpg,0.0,clockno_default.jpg,3.0,18,,,,,,,,,,,,,,,,,,0.0,16.0,16.0,16.0,1.0,,,,,,,,,,
0.0,1.0,0.4885,,,,,,ladle_04s.jpg,0.0,clockno_default.jpg,3.0,18,,,,,,,,,,,,,,,,,,0.0,17.0,17.0,17.0,1.0,,,,,,,,,,
0.0,1.0,0.6035,,,,,,treadmill_06s.jpg,0.0,clockno_default.jpg,3.0,18,,,,,,,,,,,,,,,,,,0.0,18.0,18.0,18.0,1.0,,,,,,,,,,
0.0,1.0,0.6182,,,,,,teabag_12s.jpg,0.0,clockno_up.jpg,4.0,18,,,,,,,,,,,,,,,,,,0.0,19.0,19.0,19.0,1.0,,,,,,,,,,
0.0,1.0,0.4692,,,,,,mango_09s.jpg,0.0,clockno_default.jpg,4.0,18,,,,,,,,,,,,,,,,,,0.0,20.0,20.0,20.0,1.0,,,,,,,,,,
0.0,1.0,0.6062,,,,,,memory_stick_11s.jpg,0.0,clockno_default.jpg,4.0,18,,,,,,,,,,,,,,,,,,0.0,21.0,21.0,21.0,1.0,,,,,,,,,,
0.0,1.0,0.7242,,,,,,tuxedo_01b.jpg,0.0,clockno_default.jpg,4.0,18,,,,,,,,,,,,,,,,,,0.0,22.0,22.0,22.0,1.0,,,,,,,,,,
0.0,1.0,0.7063,,,,,,lion_18s.jpg,0.0,clockno_default.jpg,4.0,18,,,,,,,,,,,,,,,,,,0.0,23.0,23.0,23.0,1.0,,,,,,,,,,
0.0,1.0,1.0358,,,,,,lamb_chop_07s.jpg,0.0,clockno_default.jpg,4.0,18,,,,,,,,,,,,,,,,,,0.0,24.0,24.0,24.0,1.0,,,,,,,,,,
0.0,1.0,0.9663,,,,,,crayon_09s.jpg,0.0,clockno_up.jpg,5.0,18,,,,,,,,,,,,,,,,,,0.0,25.0,25.0,25.0,1.0,,,,,,,,,,
0.0,1.0,0.5565,,,,,,squirt_gun_03s.jpg,0.0,clockno_default.jpg,5.0,18,,,,,,,,,,,,,,,,,,0.0,26.0,26.0,26.0,1.0,,,,,,,,,,
0.0,1.0,0.3714,,,,,,tupperware_09s.jpg,0.0,clockno_default.jpg,5.0,18,,,,,,,,,,,,,,,,,,0.0,27.0,27.0,27.0,1.0,,,,,,,,,,
0.0,1.0,0.6195,,,,,,fireworks_18s.jpg,0.0,clockno_default.jpg,5.0,18,,,,,,,,,,,,,,,,,,0.0,28.0,28.0,28.0,1.0,,,,,,,,,,
0.0,1.0,0.963,,,,,,golf_club_03s.jpg,0.0,clockno_default.jpg,5.0,18,,,,,,,,,,,,,,,,,,0.0,29.0,29.0,29.0,1.0,,,,,,,,,,
0.0,1.0,0.6522,,,,,,keyboard_05s.jpg,0.0,clockno_default.jpg,5.0,18,,,,,,,,,,,,,,,,,,0.0,30.0,30.0,30.0,1.0,,,,,,,,,,
0.0,1.0,0.854,,,,,,tiara_05s.jpg,0.0,clockno_up.jpg,6.0,18,,,,,,,,,,,,,,,,,,0.0,31.0,31.0,31.0,1.0,,,,,,,,,,
1.0,1.0,0.7878,,,,,,tiara_05s.jpg,1.0,clockno_default.jpg,6.0,18,,,,,,,,,,,,,,,,,,0.0,32.0,32.0,32.0,1.0,,,,,,,,,,
0.0,1.0,0.6461,,,,,,spider_web_03s.jpg,0.0,clockno_default.jpg,6.0,18,,,,,,,,,,,,,,,,,,0.0,33.0,33.0,33.0,1.0,,,,,,,,,,
0.0,1.0,0.586,,,,,,chopsticks_08s.jpg,0.0,clockno_default.jpg,6.0,18,,,,,,,,,,,,,,,,,,0.0,34.0,34.0,34.0,1.0,,,,,,,,,,
0.0,1.0,0.6018,,,,,,stethoscope_01b.jpg,0.0,clockno_default.jpg,6.0,18,,,,,,,,,,,,,,,,,,0.0,35.0,35.0,35.0,1.0,,,,,,,,,,
,,,,,,,,,1.0,,,18,0.0,0.0,2.4444,,,,,,razor_blade_01b.jpg,bubble_01b.jpg,,,,,,,,,,,,,0.0,0.0,0.0,0.0,1.0,,,,,
,,,,,,,,,1.0,,,18,1.0,1.0,6.0867,,,,,,ironing_board_07s.jpg,teabag_12s.jpg,,,,,,,,,,,,,0.0,1.0,1.0,1.0,1.0,,,,,
,,,,,,,,,1.0,,,18,1.0,1.0,4.1652,,,,,,treadmill_06s.jpg,memory_stick_11s.jpg,,,,,,,,,,,,,0.0,2.0,2.0,2.0,1.0,,,,,
,,,,,,,,,1.0,,,18,1.0,1.0,1.5015,,,,,,typewriter_11s.jpg,toothpaste_12s.jpg,,,,,,,,,,,,,0.0,3.0,3.0,3.0,1.0,,,,,
,,,,,,,,,1.0,,,18,1.0,1.0,1.6364,,,,,,mirror_12s.jpg,diving_board_07s.jpg,,,,,,,,,,,,,0.0,4.0,4.0,4.0,1.0,,,,,
,,,,,,,,,0.0,,,18,0.0,1.0,3.2701,,,,,,golf_club_03s.jpg,squirt_gun_03s.jpg,,,,,,,,,,,,,0.0,5.0,5.0,5.0,1.0,,,,,
,,,,,,,,,,,,18,,,,,,,,,,,,,,,,clockno_present_4_6.xlsx,clockno_compare_task_4_6.xlsx,,,,,,,,,,,0.0,3.0,3.0,3.0,1.0
0.0,1.0,0.5596,,,,,,ice_pack_09s.jpg,0.0,clockno_up.jpg,1.0,18,,,,,,,,,,,,,,,,,,0.0,0.0,0.0,0.0,1.0,,,,,,,,,,
0.0,1.0,0.4551,,,,,,hydrant_10s.jpg,0.0,clockno_default.jpg,1.0,18,,,,,,,,,,,,,,,,,,0.0,1.0,1.0,1.0,1.0,,,,,,,,,,
0.0,1.0,0.4551,,,,,,stapler_01b.jpg,0.0,clockno_default.jpg,1.0,18,,,,,,,,,,,,,,,,,,0.0,2.0,2.0,2.0,1.0,,,,,,,,,,
0.0,1.0,0.3706,,,,,,mitten_10s.jpg,0.0,clockno_default.jpg,1.0,18,,,,,,,,,,,,,,,,,,0.0,3.0,3.0,3.0,1.0,,,,,,,,,,
1.0,1.0,0.7031,,,,,,ice_pack_09s.jpg,1.0,clockno_default.jpg,1.0,18,,,,,,,,,,,,,,,,,,0.0,4.0,4.0,4.0,1.0,,,,,,,,,,
0.0,1.0,0.5239,,,,,,surfboard_11s.jpg,0.0,clockno_up.jpg,2.0,18,,,,,,,,,,,,,,,,,,0.0,5.0,5.0,5.0,1.0,,,,,,,,,,
0.0,1.0,0.5185,,,,,,pepper2_21s.jpg,0.0,clockno_default.jpg,2.0,18,,,,,,,,,,,,,,,,,,0.0,6.0,6.0,6.0,1.0,,,,,,,,,,
0.0,1.0,0.5037,,,,,,raspberry_12s.jpg,0.0,clockno_default.jpg,2.0,18,,,,,,,,,,,,,,,,,,0.0,7.0,7.0,7.0,1.0,,,,,,,,,,
0.0,1.0,0.4684,,,,,,marshmallow_08s.jpg,0.0,clockno_default.jpg,2.0,18,,,,,,,,,,,,,,,,,,0.0,8.0,8.0,8.0,1.0,,,,,,,,,,
0.0,1.0,0.5019,,,,,,lantern_04s.jpg,0.0,clockno_default.jpg,2.0,18,,,,,,,,,,,,,,,,,,0.0,9.0,9.0,9.0,1.0,,,,,,,,,,
0.0,1.0,0.9538,,,,,,tongs_08s.jpg,0.0,clockno_default.jpg,2.0,18,,,,,,,,,,,,,,,,,,0.0,10.0,10.0,10.0,1.0,,,,,,,,,,
0.0,1.0,0.9856,,,,,,scooter.jpg,0.0,clockno_default.jpg,2.0,18,,,,,,,,,,,,,,,,,,0.0,11.0,11.0,11.0,1.0,,,,,,,,,,
0.0,1.0,0.5707,,,,,,pocketknife_12s.jpg,0.0,clockno_up.jpg,3.0,18,,,,,,,,,,,,,,,,,,0.0,12.0,12.0,12.0,1.0,,,,,,,,,,
0.0,1.0,0.469,,,,,,popcorn_09s.jpg,0.0,clockno_default.jpg,3.0,18,,,,,,,,,,,,,,,,,,0.0,13.0,13.0,13.0,1.0,,,,,,,,,,
0.0,1.0,0.5021,,,,,,panda_02s.jpg,0.0,clockno_default.jpg,3.0,18,,,,,,,,,,,,,,,,,,0.0,14.0,14.0,14.0,1.0,,,,,,,,,,
1.0,1.0,0.5707,,,,,,panda_02s.jpg,1.0,clockno_default.jpg,3.0,18,,,,,,,,,,,,,,,,,,0.0,15.0,15.0,15.0,1.0,,,,,,,,,,
0.0,1.0,0.5778,,,,,,treasure_08s.jpg,0.0,clockno_default.jpg,3.0,18,,,,,,,,,,,,,,,,,,0.0,16.0,16.0,16.0,1.0,,,,,,,,,,
0.0,1.0,0.5977,,,,,,giraffe_11s.jpg,0.0,clockno_up.jpg,4.0,18,,,,,,,,,,,,,,,,,,0.0,17.0,17.0,17.0,1.0,,,,,,,,,,
0.0,1.0,0.4525,,,,,,recliner_02s.jpg,0.0,clockno_default.jpg,4.0,18,,,,,,,,,,,,,,,,,,0.0,18.0,18.0,18.0,1.0,,,,,,,,,,
0.0,1.0,0.4856,,,,,,bolo_tie_08s.jpg,0.0,clockno_default.jpg,4.0,18,,,,,,,,,,,,,,,,,,0.0,19.0,19.0,19.0,1.0,,,,,,,,,,
0.0,1.0,0.5689,,,,,,potpourri_03s.jpg,0.0,clockno_default.jpg,4.0,18,,,,,,,,,,,,,,,,,,0.0,20.0,20.0,20.0,1.0,,,,,,,,,,
0.0,1.0,0.5026,,,,,,money_07s.jpg,0.0,clockno_default.jpg,4.0,18,,,,,,,,,,,,,,,,,,0.0,21.0,21.0,21.0,1.0,,,,,,,,,,
0.0,1.0,0.501,,,,,,lamp_08s.jpg,0.0,clockno_default.jpg,4.0,18,,,,,,,,,,,,,,,,,,0.0,22.0,22.0,22.0,1.0,,,,,,,,,,
0.0,1.0,0.6995,,,,,,jersey_02s.jpg,0.0,clockno_up.jpg,5.0,18,,,,,,,,,,,,,,,,,,0.0,23.0,23.0,23.0,1.0,,,,,,,,,,
0.0,1.0,0.4545,,,,,,poinsettia_04s.jpg,0.0,clockno_default.jpg,5.0,18,,,,,,,,,,,,,,,,,,0.0,24.0,24.0,24.0,1.0,,,,,,,,,,
1.0,1.0,0.667,,,,,,jersey_02s.jpg,1.0,clockno_default.jpg,5.0,18,,,,,,,,,,,,,,,,,,0.0,25.0,25.0,25.0,1.0,,,,,,,,,,
0.0,1.0,0.5504,,,,,,mattress_01s.jpg,0.0,clockno_default.jpg,5.0,18,,,,,,,,,,,,,,,,,,0.0,26.0,26.0,26.0,1.0,,,,,,,,,,
0.0,1.0,0.8183,,,,,,pocketknife_12s.jpg,0.0,clockno_default.jpg,5.0,18,,,,,,,,,,,,,,,,,,0.0,27.0,27.0,27.0,1.0,,,,,,,,,,
0.0,1.0,0.5851,,,,,,swan_11s.jpg,0.0,clockno_default.jpg,5.0,18,,,,,,,,,,,,,,,,,,0.0,28.0,28.0,28.0,1.0,,,,,,,,,,
0.0,1.0,0.7709,,,,,,toilet_07s.jpg,0.0,clockno_default.jpg,5.0,18,,,,,,,,,,,,,,,,,,0.0,29.0,29.0,29.0,1.0,,,,,,,,,,
0.0,1.0,0.8169,,,,,,kettle_08s.jpg,0.0,clockno_up.jpg,6.0,18,,,,,,,,,,,,,,,,,,0.0,30.0,30.0,30.0,1.0,,,,,,,,,,
0.0,1.0,0.5043,,,,,,pea_11s.jpg,0.0,clockno_default.jpg,6.0,18,,,,,,,,,,,,,,,,,,0.0,31.0,31.0,31.0,1.0,,,,,,,,,,
0.0,1.0,0.486,,,,,,tongs_08s.jpg,0.0,clockno_default.jpg,6.0,18,,,,,,,,,,,,,,,,,,0.0,32.0,32.0,32.0,1.0,,,,,,,,,,
0.0,1.0,0.6174,,,,,,turf_03s.jpg,0.0,clockno_default.jpg,6.0,18,,,,,,,,,,,,,,,,,,0.0,33.0,33.0,33.0,1.0,,,,,,,,,,
0.0,1.0,0.6186,,,,,,blowfish_03s.jpg,0.0,clockno_default.jpg,6.0,18,,,,,,,,,,,,,,,,,,0.0,34.0,34.0,34.0,1.0,,,,,,,,,,
0.0,1.0,0.5681,,,,,,rock_08s.jpg,0.0,clockno_default.jpg,6.0,18,,,,,,,,,,,,,,,,,,0.0,35.0,35.0,35.0,1.0,,,,,,,,,,
,,,,,,,,,0.0,,,18,1.0,0.0,5.8263,,,,,,surfboard_11s.jpg,stapler_01b.jpg,,,,,,,,,,,,,0.0,0.0,0.0,0.0,1.0,,,,,
,,,,,,,,,0.0,,,18,1.0,0.0,5.9331,,,,,,pepper2_21s.jpg,mitten_10s.jpg,,,,,,,,,,,,,0.0,1.0,1.0,1.0,1.0,,,,,
,,,,,,,,,1.0,,,18,1.0,1.0,1.4046,,,,,,money_07s.jpg,poinsettia_04s.jpg,,,,,,,,,,,,,0.0,2.0,2.0,2.0,1.0,,,,,
,,,,,,,,,1.0,,,18,1.0,1.0,1.7877,,,,,,marshmallow_08s.jpg,scooter.jpg,,,,,,,,,,,,,0.0,3.0,3.0,3.0,1.0,,,,,
,,,,,,,,,1.0,,,18,1.0,1.0,2.254,,,,,,giraffe_11s.jpg,potpourri_03s.jpg,,,,,,,,,,,,,0.0,4.0,4.0,4.0,1.0,,,,,
,,,,,,,,,1.0,,,18,1.0,1.0,1.5544,,,,,,mattress_01s.jpg,toilet_07s.jpg,,,,,,,,,,,,,0.0,5.0,5.0,5.0,1.0,,,,,
,,,,,,,,,,,,18,,,,,,,,,,,,,,,,clockno_present_5_6.xlsx,clockno_compare_task_5_6.xlsx,,,,,,,,,,,0.0,4.0,4.0,4.0,1.0
0.0,1.0,0.6281,,,,,,loom_05s.jpg,0.0,clockno_up.jpg,1.0,18,,,,,,,,,,,,,,,,,,0.0,0.0,0.0,0.0,1.0,,,,,,,,,,
1.0,1.0,0.5849,,,,,,loom_05s.jpg,1.0,clockno_default.jpg,1.0,18,,,,,,,,,,,,,,,,,,0.0,1.0,1.0,1.0,1.0,,,,,,,,,,
0.0,1.0,0.435,,,,,,metronome_03s.jpg,0.0,clockno_default.jpg,1.0,18,,,,,,,,,,,,,,,,,,0.0,2.0,2.0,2.0,1.0,,,,,,,,,,
0.0,1.0,0.4522,,,,,,eiffeltower.jpg,0.0,clockno_default.jpg,1.0,18,,,,,,,,,,,,,,,,,,0.0,3.0,3.0,3.0,1.0,,,,,,,,,,
1.0,1.0,1.1385,,,,,,metronome_03s.jpg,1.0,clockno_default.jpg,1.0,18,,,,,,,,,,,,,,,,,,0.0,4.0,4.0,4.0,1.0,,,,,,,,,,
0.0,1.0,0.4872,,,,,,road_sign_05s.jpg,0.0,clockno_default.jpg,1.0,18,,,,,,,,,,,,,,,,,,0.0,5.0,5.0,5.0,1.0,,,,,,,,,,
0.0,1.0,0.5348,,,,,,comic_book_02s.jpg,0.0,clockno_up.jpg,2.0,18,,,,,,,,,,,,,,,,,,0.0,6.0,6.0,6.0,1.0,,,,,,,,,,
0.0,1.0,0.5688,,,,,,swordfish_05s.jpg,0.0,clockno_default.jpg,2.0,18,,,,,,,,,,,,,,,,,,0.0,7.0,7.0,7.0,1.0,,,,,,,,,,
0.0,1.0,0.5512,,,,,,potholder_02s.jpg,0.0,clockno_default.jpg,2.0,18,,,,,,,,,,,,,,,,,,0.0,8.0,8.0,8.0,1.0,,,,,,,,,,
0.0,1.0,0.6367,,,,,,prism_10s.jpg,0.0,clockno_default.jpg,2.0,18,,,,,,,,,,,,,,,,,,0.0,9.0,9.0,9.0,1.0,,,,,,,,,,
0.0,1.0,0.8358,,,,,,loom_05s.jpg,0.0,clockno_default.jpg,2.0,18,,,,,,,,,,,,,,,,,,0.0,10.0,10.0,10.0,1.0,,,,,,,,,,
0.0,1.0,0.6544,,,,,,trident_07s.jpg,0.0,clockno_up.jpg,3.0,18,,,,,,,,,,,,,,,,,,0.0,11.0,11.0,11.0,1.0,,,,,,,,,,
1.0,1.0,0.6535,,,,,,trident_07s.jpg,1.0,clockno_default.jpg,3.0,18,,,,,,,,,,,,,,,,,,0.0,12.0,12.0,12.0,1.0,,,,,,,,,,
0.0,1.0,1.5835,,,,,,metronome_03s.jpg,0.0,clockno_default.jpg,3.0,18,,,,,,,,,,,,,,,,,,0.0,13.0,13.0,13.0,1.0,,,,,,,,,,
0.0,1.0,0.5735,,,,,,incense_02s.jpg,0.0,clockno_default.jpg,3.0,18,,,,,,,,,,,,,,,,,,0.0,14.0,14.0,14.0,1.0,,,,,,,,,,
0.0,1.0,0.7517,,,,,,seahorse_13s.jpg,0.0,clockno_default.jpg,3.0,18,,,,,,,,,,,,,,,,,,0.0,15.0,15.0,15.0,1.0,,,,,,,,,,
0.0,1.0,0.8683,,,,,,ice-cream_cone_06s.jpg,0.0,clockno_up.jpg,4.0,18,,,,,,,,,,,,,,,,,,0.0,16.0,16.0,16.0,1.0,,,,,,,,,,
0.0,1.0,0.6189,,,,,,lemonade_04s.jpg,0.0,clockno_default.jpg,4.0,18,,,,,,,,,,,,,,,,,,0.0,17.0,17.0,17.0,1.0,,,,,,,,,,
1.0,1.0,0.6054,,,,,,lemonade_04s.jpg,1.0,clockno_default.jpg,4.0,18,,,,,,,,,,,,,,,,,,0.0,18.0,18.0,18.0,1.0,,,,,,,,,,
0.0,1.0,0.5677,,,,,,thread_08s.jpg,0.0,clockno_default.jpg,4.0,18,,,,,,,,,,,,,,,,,,0.0,19.0,19.0,19.0,1.0,,,,,,,,,,
0.0,1.0,0.5892,,,,,,measuring_cup_02s.jpg,0.0,clockno_default.jpg,4.0,18,,,,,,,,,,,,,,,,,,0.0,20.0,20.0,20.0,1.0,,,,,,,,,,
1.0,1.0,0.7196,,,,,,measuring_cup_02s.jpg,1.0,clockno_default.jpg,4.0,18,,,,,,,,,,,,,,,,,,0.0,21.0,21.0,21.0,1.0,,,,,,,,,,
0.0,1.0,0.5057,,,,,,duck_01b.jpg,0.0,clockno_default.jpg,4.0,18,,,,,,,,,,,,,,,,,,0.0,22.0,22.0,22.0,1.0,,,,,,,,,,
0.0,1.0,0.6535,,,,,,owl_15s.jpg,0.0,clockno_up.jpg,5.0,18,,,,,,,,,,,,,,,,,,0.0,23.0,23.0,23.0,1.0,,,,,,,,,,
0.0,1.0,0.6851,,,,,,paper_towel_03s.jpg,0.0,clockno_default.jpg,5.0,18,,,,,,,,,,,,,,,,,,0.0,24.0,24.0,24.0,1.0,,,,,,,,,,
0.0,1.0,0.5568,,,,,,pillow_03s.jpg,0.0,clockno_default.jpg,5.0,18,,,,,,,,,,,,,,,,,,0.0,25.0,25.0,25.0,1.0,,,,,,,,,,
0.0,1.0,0.4712,,,,,,phone_01b.jpg,0.0,clockno_default.jpg,5.0,18,,,,,,,,,,,,,,,,,,0.0,26.0,26.0,26.0,1.0,,,,,,,,,,
0.0,1.0,0.5352,,,,,,plug_08s.jpg,0.0,clockno_default.jpg,5.0,18,,,,,,,,,,,,,,,,,,0.0,27.0,27.0,27.0,1.0,,,,,,,,,,
0.0,1.0,0.4788,,,,,,triangle_10s.jpg,0.0,clockno_default.jpg,5.0,18,,,,,,,,,,,,,,,,,,0.0,28.0,28.0,28.0,1.0,,,,,,,,,,
0.0,1.0,0.4188,,,,,,moth_06n.jpg,0.0,clockno_up.jpg,6.0,18,,,,,,,,,,,,,,,,,,0.0,29.0,29.0,29.0,1.0,,,,,,,,,,
0.0,1.0,0.5019,,,,,,umbrella_15s.jpg,0.0,clockno_default.jpg,6.0,18,,,,,,,,,,,,,,,,,,0.0,30.0,30.0,30.0,1.0,,,,,,,,,,
0.0,1.0,0.4681,,,,,,penlight_12s.jpg,0.0,clockno_default.jpg,6.0,18,,,,,,,,,,,,,,,,,,0.0,31.0,31.0,31.0,1.0,,,,,,,,,,
0.0,1.0,0.5865,,,,,,tuba_12s.jpg,0.0,clockno_default.jpg,6.0,18,,,,,,,,,,,,,,,,,,0.0,32.0,32.0,32.0,1.0,,,,,,,,,,
0.0,1.0,0.6857,,,,,,squirrel_02s.jpg,0.0,clockno_default.jpg,6.0,18,,,,,,,,,,,,,,,,,,0.0,33.0,33.0,33.0,1.0,,,,,,,,,,
0.0,1.0,0.7023,,,,,,iron_13s.jpg,0.0,clockno_default.jpg,6.0,18,,,,,,,,,,,,,,,,,,0.0,34.0,34.0,34.0,1.0,,,,,,,,,,
0.0,1.0,0.6213,,,,,,ram_05s.jpg,0.0,clockno_default.jpg,6.0,18,,,,,,,,,,,,,,,,,,0.0,35.0,35.0,35.0,1.0,,,,,,,,,,
,,,,,,,,,0.0,,,18,1.0,0.0,2.9643,,,,,,potholder_02s.jpg,road_sign_05s.jpg,,,,,,,,,,,,,0.0,0.0,0.0,0.0,1.0,,,,,
,,,,,,,,,1.0,,,18,0.0,0.0,4.7324,,,,,,eiffeltower.jpg,comic_book_02s.jpg,,,,,,,,,,,,,0.0,1.0,1.0,1.0,1.0,,,,,
,,,,,,,,,1.0,,,18,1.0,1.0,2.6173,,,,,,duck_01b.jpg,pillow_03s.jpg,,,,,,,,,,,,,0.0,2.0,2.0,2.0,1.0,,,,,
,,,,,,,,,1.0,,,18,1.0,1.0,1.4014,,,,,,ice-cream_cone_06s.jpg,thread_08s.jpg,,,,,,,,,,,,,0.0,3.0,3.0,3.0,1.0,,,,,
,,,,,,,,,0.0,,,18,0.0,1.0,1.5013,,,,,,ram_05s.jpg,tuba_12s.jpg,,,,,,,,,,,,,0.0,4.0,4.0,4.0,1.0,,,,,
,,,,,,,,,0.0,,,18,0.0,1.0,2.8852,,,,,,phone_01b.jpg,owl_15s.jpg,,,,,,,,,,,,,0.0,5.0,5.0,5.0,1.0,,,,,
