key_resp.keys,key_resp.corr,key_resp.rt,present_segment.thisRepN,present_segment.thisTrialN,present_segment.thisN,present_segment.thisIndex,present_segment.ran,pictures,answer,clock,segment,participant,key_resp_2.keys,key_resp_2.corr,key_resp_2.rt,compare_segment.thisRepN,compare_segment.thisTrialN,compare_segment.thisN,compare_segment.thisIndex,compare_segment.ran,item_a,item_b,clock_conditions.thisRepN,clock_conditions.thisTrialN,clock_conditions.thisN,clock_conditions.thisIndex,clock_conditions.ran,present,compare,noclock_present.thisRepN,noclock_present.thisTrialN,noclock_present.thisN,noclock_present.thisIndex,noclock_present.ran,noclock_compare.thisRepN,noclock_compare.thisTrialN,noclock_compare.thisN,noclock_compare.thisIndex,noclock_compare.ran,noclock_conditions.thisRepN,noclock_conditions.thisTrialN,noclock_conditions.thisN,noclock_conditions.thisIndex,noclock_conditions.ran
0.0,1.0,2.20087,0.0,0.0,0.0,0.0,1.0,peppermint_07s.jpg,0.0,clock_7_1.png,1.0,66,,,,,,,,,,,,,,,,,,,,,,,,,,,,,,,,
0.0,1.0,0.80176,0.0,1.0,1.0,1.0,1.0,buoy_04s.jpg,0.0,clock_7_2.png,1.0,66,,,,,,,,,,,,,,,,,,,,,,,,,,,,,,,,
0.0,1.0,0.81684,0.0,2.0,2.0,2.0,1.0,pancake_12s.jpg,0.0,clock_7_3.png,1.0,66,,,,,,,,,,,,,,,,,,,,,,,,,,,,,,,,
1.0,1.0,0.818055,0.0,3.0,3.0,3.0,1.0,pancake_12s.jpg,1.0,clock_7_4.png,1.0,66,,,,,,,,,,,,,,,,,,,,,,,,,,,,,,,,
0.0,1.0,0.666205,0.0,4.0,4.0,4.0,1.0,tape_06s.jpg,0.0,clock_7_5.png,1.0,66,,,,,,,,,,,,,,,,,,,,,,,,,,,,,,,,
0.0,1.0,1.00029,0.0,5.0,5.0,5.0,1.0,bowler_hat_10s.jpg,0.0,clock_7_6.png,1.0,66,,,,,,,,,,,,,,,,,,,,,,,,,,,,,,,,
1.0,1.0,0.583365,0.0,6.0,6.0,6.0,1.0,tape_06s.jpg,1.0,clock_7_7.png,1.0,66,,,,,,,,,,,,,,,,,,,,,,,,,,,,,,,,
0.0,1.0,0.683975,0.0,7.0,7.0,7.0,1.0,quill_09s.jpg,0.0,clock_6_1.png,2.0,66,,,,,,,,,,,,,,,,,,,,,,,,,,,,,,,,
0.0,1.0,0.782825,0.0,8.0,8.0,8.0,1.0,tablet_04s.jpg,0.0,clock_6_2.png,2.0,66,,,,,,,,,,,,,,,,,,,,,,,,,,,,,,,,
0.0,1.0,1.083455,0.0,9.0,9.0,9.0,1.0,olive_05s.jpg,0.0,clock_6_3.png,2.0,66,,,,,,,,,,,,,,,,,,,,,,,,,,,,,,,,
0.0,1.0,0.817555,0.0,10.0,10.0,10.0,1.0,puppet_01b.jpg,0.0,clock_6_4.png,2.0,66,,,,,,,,,,,,,,,,,,,,,,,,,,,,,,,,
0.0,1.0,1.33408,0.0,11.0,11.0,11.0,1.0,lip_gloss_06s.jpg,0.0,clock_6_5.png,2.0,66,,,,,,,,,,,,,,,,,,,,,,,,,,,,,,,,
0.0,1.0,0.915825,0.0,12.0,12.0,12.0,1.0,hyena_16s.jpg,0.0,clock_6_6.png,2.0,66,,,,,,,,,,,,,,,,,,,,,,,,,,,,,,,,
0.0,1.0,0.99973,0.0,13.0,13.0,13.0,1.0,turnstile_08s.jpg,0.0,clock_6_1.png,3.0,66,,,,,,,,,,,,,,,,,,,,,,,,,,,,,,,,
0.0,1.0,0.59944,0.0,14.0,14.0,14.0,1.0,dynamite_01b.jpg,0.0,clock_6_2.png,3.0,66,,,,,,,,,,,,,,,,,,,,,,,,,,,,,,,,
0.0,1.0,0.766665,0.0,15.0,15.0,15.0,1.0,potholder_02s.jpg,0.0,clock_6_3.png,3.0,66,,,,,,,,,,,,,,,,,,,,,,,,,,,,,,,,
0.0,1.0,0.65088,0.0,16.0,16.0,16.0,1.0,glue_01s.jpg,0.0,clock_6_4.png,3.0,66,,,,,,,,,,,,,,,,,,,,,,,,,,,,,,,,
1.0,1.0,0.70035,0.0,17.0,17.0,17.0,1.0,dynamite_01b.jpg,1.0,clock_6_5.png,3.0,66,,,,,,,,,,,,,,,,,,,,,,,,,,,,,,,,
0.0,1.0,0.734385,0.0,18.0,18.0,18.0,1.0,lizard_10n.jpg,0.0,clock_6_6.png,3.0,66,,,,,,,,,,,,,,,,,,,,,,,,,,,,,,,,
0.0,1.0,2.05145,0.0,19.0,19.0,19.0,1.0,fireworks_18s.jpg,0.0,clock_5_1.png,4.0,66,,,,,,,,,,,,,,,,,,,,,,,,,,,,,,,,
1.0,1.0,0.799605,0.0,20.0,20.0,20.0,1.0,fireworks_18s.jpg,1.0,clock_5_2.png,4.0,66,,,,,,,,,,,,,,,,,,,,,,,,,,,,,,,,
0.0,1.0,0.617915,0.0,21.0,21.0,21.0,1.0,cucumber_07s.jpg,0.0,clock_5_3.png,4.0,66,,,,,,,,,,,,,,,,,,,,,,,,,,,,,,,,
1.0,1.0,0.71593,0.0,22.0,22.0,22.0,1.0,fireworks_18s.jpg,1.0,clock_5_4.png,4.0,66,,,,,,,,,,,,,,,,,,,,,,,,,,,,,,,,
0.0,1.0,0.82951,0.0,23.0,23.0,23.0,1.0,tiara_05s.jpg,0.0,clock_5_5.png,4.0,66,,,,,,,,,,,,,,,,,,,,,,,,,,,,,,,,
0.0,1.0,1.267105,0.0,24.0,24.0,24.0,1.0,timer_03s.jpg,0.0,clock_5_1.png,5.0,66,,,,,,,,,,,,,,,,,,,,,,,,,,,,,,,,
1.0,1.0,0.801065,0.0,25.0,25.0,25.0,1.0,timer_03s.jpg,1.0,clock_5_2.png,5.0,66,,,,,,,,,,,,,,,,,,,,,,,,,,,,,,,,
0.0,1.0,0.599145,0.0,26.0,26.0,26.0,1.0,bean_06s.jpg,0.0,clock_5_3.png,5.0,66,,,,,,,,,,,,,,,,,,,,,,,,,,,,,,,,
0.0,1.0,0.949875,0.0,27.0,27.0,27.0,1.0,ladder_15s.jpg,0.0,clock_5_4.png,5.0,66,,,,,,,,,,,,,,,,,,,,,,,,,,,,,,,,
0.0,1.0,0.835155,0.0,28.0,28.0,28.0,1.0,hyena_16s.jpg,0.0,clock_5_5.png,5.0,66,,,,,,,,,,,,,,,,,,,,,,,,,,,,,,,,
0.0,1.0,1.08251,0.0,29.0,29.0,29.0,1.0,gas_mask_11s.jpg,0.0,clock_7_1.png,6.0,66,,,,,,,,,,,,,,,,,,,,,,,,,,,,,,,,
0.0,1.0,0.55011,0.0,30.0,30.0,30.0,1.0,fire_pit_10s.jpg,0.0,clock_7_2.png,6.0,66,,,,,,,,,,,,,,,,,,,,,,,,,,,,,,,,
1.0,1.0,0.800955,0.0,31.0,31.0,31.0,1.0,gas_mask_11s.jpg,1.0,clock_7_3.png,6.0,66,,,,,,,,,,,,,,,,,,,,,,,,,,,,,,,,
1.0,1.0,0.96616,0.0,32.0,32.0,32.0,1.0,gas_mask_11s.jpg,1.0,clock_7_4.png,6.0,66,,,,,,,,,,,,,,,,,,,,,,,,,,,,,,,,
0.0,1.0,0.816765,0.0,33.0,33.0,33.0,1.0,sugar_cube_11s.jpg,0.0,clock_7_5.png,6.0,66,,,,,,,,,,,,,,,,,,,,,,,,,,,,,,,,
0.0,1.0,1.48301,0.0,34.0,34.0,34.0,1.0,taxi_15s.jpg,0.0,clock_7_6.png,6.0,66,,,,,,,,,,,,,,,,,,,,,,,,,,,,,,,,
0.0,1.0,0.685285,0.0,35.0,35.0,35.0,1.0,juicer2_06s.jpg,0.0,clock_7_7.png,6.0,66,,,,,,,,,,,,,,,,,,,,,,,,,,,,,,,,
,,,,,,,,,0.0,,,66,1.0,0.0,1.36661,0.0,0.0,0.0,0.0,1.0,bean_06s.jpg,tiara_05s.jpg,,,,,,,,,,,,,,,,,,,,,,
,,,,,,,,,0.0,,,66,0.0,1.0,1.71713,0.0,1.0,1.0,1.0,1.0,tablet_04s.jpg,bowler_hat_10s.jpg,,,,,,,,,,,,,,,,,,,,,,
,,,,,,,,,0.0,,,66,0.0,1.0,1.25052,0.0,2.0,2.0,2.0,1.0,cucumber_07s.jpg,lizard_10n.jpg,,,,,,,,,,,,,,,,,,,,,,
,,,,,,,,,0.0,,,66,1.0,0.0,2.583045,0.0,3.0,3.0,3.0,1.0,puppet_01b.jpg,quill_09s.jpg,,,,,,,,,,,,,,,,,,,,,,
,,,,,,,,,0.0,,,66,0.0,1.0,1.25136,0.0,4.0,4.0,4.0,1.0,glue_01s.jpg,turnstile_08s.jpg,,,,,,,,,,,,,,,,,,,,,,
,,,,,,,,,0.0,,,66,1.0,0.0,1.98329,0.0,5.0,5.0,5.0,1.0,sugar_cube_11s.jpg,fire_pit_10s.jpg,,,,,,,,,,,,,,,,,,,,,,
,,,,,,,,,,,,66,,,,,,,,,,,0.0,0.0,0.0,0.0,1.0,clock_present_1_3.xlsx,clock_compare_task_1_3.xlsx,,,,,,,,,,,,,,,
0.0,1.0,1.16125,0.0,0.0,0.0,0.0,1.0,polar_bear_02s.jpg,0.0,clock_6_1.png,1.0,66,,,,,,,,,,,,,,,,,,,,,,,,,,,,,,,,
0.0,1.0,0.898175,0.0,1.0,1.0,1.0,1.0,sea_urchin_09s.jpg,0.0,clock_6_2.png,1.0,66,,,,,,,,,,,,,,,,,,,,,,,,,,,,,,,,
1.0,1.0,0.70182,0.0,2.0,2.0,2.0,1.0,sea_urchin_09s.jpg,1.0,clock_6_3.png,1.0,66,,,,,,,,,,,,,,,,,,,,,,,,,,,,,,,,
0.0,1.0,1.57016,0.0,3.0,3.0,3.0,1.0,bee_20s.jpg,0.0,clock_6_4.png,1.0,66,,,,,,,,,,,,,,,,,,,,,,,,,,,,,,,,
0.0,1.0,0.637905,0.0,4.0,4.0,4.0,1.0,swordfish_05s.jpg,0.0,clock_6_5.png,1.0,66,,,,,,,,,,,,,,,,,,,,,,,,,,,,,,,,
0.0,1.0,1.36676,0.0,5.0,5.0,5.0,1.0,machete_06s.jpg,0.0,clock_6_6.png,1.0,66,,,,,,,,,,,,,,,,,,,,,,,,,,,,,,,,
0.0,1.0,1.03116,0.0,6.0,6.0,6.0,1.0,sleeping_bag_12s.jpg,0.0,clock_5_1.png,2.0,66,,,,,,,,,,,,,,,,,,,,,,,,,,,,,,,,
0.0,1.0,0.60588,0.0,7.0,7.0,7.0,1.0,toothpaste_12s.jpg,0.0,clock_5_2.png,2.0,66,,,,,,,,,,,,,,,,,,,,,,,,,,,,,,,,
0.0,1.0,0.965465,0.0,8.0,8.0,8.0,1.0,rolling_pin_02s.jpg,0.0,clock_5_3.png,2.0,66,,,,,,,,,,,,,,,,,,,,,,,,,,,,,,,,
0.0,1.0,0.72979,0.0,9.0,9.0,9.0,1.0,dashboard_02s.jpg,0.0,clock_5_4.png,2.0,66,,,,,,,,,,,,,,,,,,,,,,,,,,,,,,,,
0.0,1.0,0.55501,0.0,10.0,10.0,10.0,1.0,toilet_paper_12s.jpg,0.0,clock_5_5.png,2.0,66,,,,,,,,,,,,,,,,,,,,,,,,,,,,,,,,
0.0,1.0,0.679525,0.0,11.0,11.0,11.0,1.0,espresso_01b.jpg,0.0,clock_7_1.png,3.0,66,,,,,,,,,,,,,,,,,,,,,,,,,,,,,,,,
1.0,1.0,0.78559,0.0,12.0,12.0,12.0,1.0,espresso_01b.jpg,1.0,clock_7_2.png,3.0,66,,,,,,,,,,,,,,,,,,,,,,,,,,,,,,,,
1.0,1.0,0.400335,0.0,13.0,13.0,13.0,1.0,espresso_01b.jpg,1.0,clock_7_3.png,3.0,66,,,,,,,,,,,,,,,,,,,,,,,,,,,,,,,,
1.0,1.0,0.391585,0.0,14.0,14.0,14.0,1.0,espresso_01b.jpg,1.0,clock_7_4.png,3.0,66,,,,,,,,,,,,,,,,,,,,,,,,,,,,,,,,
1.0,1.0,0.48188,0.0,15.0,15.0,15.0,1.0,espresso_01b.jpg,1.0,clock_7_5.png,3.0,66,,,,,,,,,,,,,,,,,,,,,,,,,,,,,,,,
0.0,1.0,0.888355,0.0,16.0,16.0,16.0,1.0,sleeping_bag_12s.jpg,0.0,clock_7_6.png,3.0,66,,,,,,,,,,,,,,,,,,,,,,,,,,,,,,,,
0.0,1.0,0.766825,0.0,17.0,17.0,17.0,1.0,money_07s.jpg,0.0,clock_7_7.png,3.0,66,,,,,,,,,,,,,,,,,,,,,,,,,,,,,,,,
0.0,1.0,0.851325,0.0,18.0,18.0,18.0,1.0,knitting_needle_04s.jpg,0.0,clock_5_1.png,4.0,66,,,,,,,,,,,,,,,,,,,,,,,,,,,,,,,,
0.0,1.0,0.650165,0.0,19.0,19.0,19.0,1.0,golf_club_03s.jpg,0.0,clock_5_2.png,4.0,66,,,,,,,,,,,,,,,,,,,,,,,,,,,,,,,,
0.0,1.0,0.66581,0.0,20.0,20.0,20.0,1.0,key_07s.jpg,0.0,clock_5_3.png,4.0,66,,,,,,,,,,,,,,,,,,,,,,,,,,,,,,,,
0.0,1.0,0.600645,0.0,21.0,21.0,21.0,1.0,rocking_horse_03s.jpg,0.0,clock_5_4.png,4.0,66,,,,,,,,,,,,,,,,,,,,,,,,,,,,,,,,
0.0,1.0,0.75104,0.0,22.0,22.0,22.0,1.0,parachute_03s.jpg,0.0,clock_5_5.png,4.0,66,,,,,,,,,,,,,,,,,,,,,,,,,,,,,,,,
0.0,1.0,0.91514,0.0,23.0,23.0,23.0,1.0,koala_13s.jpg,0.0,clock_6_1.png,5.0,66,,,,,,,,,,,,,,,,,,,,,,,,,,,,,,,,
0.0,1.0,0.98424,0.0,24.0,24.0,24.0,1.0,radio_09s.jpg,0.0,clock_6_2.png,5.0,66,,,,,,,,,,,,,,,,,,,,,,,,,,,,,,,,
0.0,1.0,1.14681,0.0,25.0,25.0,25.0,1.0,luggage_08s.jpg,0.0,clock_6_3.png,5.0,66,,,,,,,,,,,,,,,,,,,,,,,,,,,,,,,,
0.0,1.0,0.58481,0.0,26.0,26.0,26.0,1.0,peach_04s.jpg,0.0,clock_6_4.png,5.0,66,,,,,,,,,,,,,,,,,,,,,,,,,,,,,,,,
1.0,1.0,0.68236,0.0,27.0,27.0,27.0,1.0,peach_04s.jpg,1.0,clock_6_5.png,5.0,66,,,,,,,,,,,,,,,,,,,,,,,,,,,,,,,,
0.0,1.0,0.666575,0.0,28.0,28.0,28.0,1.0,cushion_08s.jpg,0.0,clock_6_6.png,5.0,66,,,,,,,,,,,,,,,,,,,,,,,,,,,,,,,,
0.0,1.0,0.65092,0.0,29.0,29.0,29.0,1.0,totem_pole_05s.jpg,0.0,clock_7_1.png,6.0,66,,,,,,,,,,,,,,,,,,,,,,,,,,,,,,,,
1.0,1.0,0.84992,0.0,30.0,30.0,30.0,1.0,totem_pole_05s.jpg,1.0,clock_7_2.png,6.0,66,,,,,,,,,,,,,,,,,,,,,,,,,,,,,,,,
0.0,1.0,0.68429,0.0,31.0,31.0,31.0,1.0,sledgehammer_03s.jpg,0.0,clock_7_3.png,6.0,66,,,,,,,,,,,,,,,,,,,,,,,,,,,,,,,,
0.0,1.0,0.83243,0.0,32.0,32.0,32.0,1.0,cushion_08s.jpg,0.0,clock_7_4.png,6.0,66,,,,,,,,,,,,,,,,,,,,,,,,,,,,,,,,
0.0,1.0,1.28313,0.0,33.0,33.0,33.0,1.0,machete_06s.jpg,0.0,clock_7_5.png,6.0,66,,,,,,,,,,,,,,,,,,,,,,,,,,,,,,,,
0.0,1.0,1.050145,0.0,34.0,34.0,34.0,1.0,towel_rack_04s.jpg,0.0,clock_7_6.png,6.0,66,,,,,,,,,,,,,,,,,,,,,,,,,,,,,,,,
0.0,1.0,0.85058,0.0,35.0,35.0,35.0,1.0,swimming_pool_17s.jpg,0.0,clock_7_7.png,6.0,66,,,,,,,,,,,,,,,,,,,,,,,,,,,,,,,,
,,,,,,,,,1.0,,,66,1.0,1.0,5.19904,0.0,0.0,0.0,0.0,1.0,money_07s.jpg,key_07s.jpg,,,,,,,,,,,,,,,,,,,,,,
,,,,,,,,,0.0,,,66,1.0,0.0,2.831645,0.0,1.0,1.0,1.0,1.0,toothpaste_12s.jpg,swordfish_05s.jpg,,,,,,,,,,,,,,,,,,,,,,
,,,,,,,,,1.0,,,66,0.0,0.0,2.39967,0.0,2.0,2.0,2.0,1.0,rocking_horse_03s.jpg,radio_09s.jpg,,,,,,,,,,,,,,,,,,,,,,
,,,,,,,,,0.0,,,66,0.0,1.0,3.282025,0.0,3.0,3.0,3.0,1.0,bee_20s.jpg,polar_bear_02s.jpg,,,,,,,,,,,,,,,,,,,,,,
,,,,,,,,,1.0,,,66,1.0,1.0,2.182715,0.0,4.0,4.0,4.0,1.0,sledgehammer_03s.jpg,towel_rack_04s.jpg,,,,,,,,,,,,,,,,,,,,,,
,,,,,,,,,1.0,,,66,1.0,1.0,1.818515,0.0,5.0,5.0,5.0,1.0,golf_club_03s.jpg,parachute_03s.jpg,,,,,,,,,,,,,,,,,,,,,,
,,,,,,,,,,,,66,,,,,,,,,,,0.0,1.0,1.0,1.0,1.0,clock_present_2_3.xlsx,clock_compare_task_2_3.xlsx,,,,,,,,,,,,,,,
0.0,1.0,1.31556,0.0,0.0,0.0,0.0,1.0,prism_10s.jpg,0.0,clock_6_1.png,1.0,66,,,,,,,,,,,,,,,,,,,,,,,,,,,,,,,,
1.0,1.0,0.784045,0.0,1.0,1.0,1.0,1.0,prism_10s.jpg,1.0,clock_6_2.png,1.0,66,,,,,,,,,,,,,,,,,,,,,,,,,,,,,,,,
1.0,1.0,0.617,0.0,2.0,2.0,2.0,1.0,prism_10s.jpg,1.0,clock_6_3.png,1.0,66,,,,,,,,,,,,,,,,,,,,,,,,,,,,,,,,
0.0,1.0,0.51601,0.0,3.0,3.0,3.0,1.0,puck_06s.jpg,0.0,clock_6_4.png,1.0,66,,,,,,,,,,,,,,,,,,,,,,,,,,,,,,,,
0.0,1.0,0.95031,0.0,4.0,4.0,4.0,1.0,mushroom_10n.jpg,0.0,clock_6_5.png,1.0,66,,,,,,,,,,,,,,,,,,,,,,,,,,,,,,,,
0.0,1.0,1.284365,0.0,5.0,5.0,5.0,1.0,chopsticks_08s.jpg,0.0,clock_6_6.png,1.0,66,,,,,,,,,,,,,,,,,,,,,,,,,,,,,,,,
0.0,1.0,0.749335,0.0,6.0,6.0,6.0,1.0,kilt_18s.jpg,0.0,clock_7_1.png,2.0,66,,,,,,,,,,,,,,,,,,,,,,,,,,,,,,,,
0.0,1.0,1.099465,0.0,7.0,7.0,7.0,1.0,diving_board_07s.jpg,0.0,clock_7_2.png,2.0,66,,,,,,,,,,,,,,,,,,,,,,,,,,,,,,,,
0.0,1.0,0.68984,0.0,8.0,8.0,8.0,1.0,jet_15s.jpg,0.0,clock_7_3.png,2.0,66,,,,,,,,,,,,,,,,,,,,,,,,,,,,,,,,
0.0,1.0,0.82932,0.0,9.0,9.0,9.0,1.0,kitten_07s.jpg,0.0,clock_7_4.png,2.0,66,,,,,,,,,,,,,,,,,,,,,,,,,,,,,,,,
0.0,1.0,1.16811,0.0,10.0,10.0,10.0,1.0,prism_10s.jpg,0.0,clock_7_5.png,2.0,66,,,,,,,,,,,,,,,,,,,,,,,,,,,,,,,,
0.0,1.0,1.533665,0.0,11.0,11.0,11.0,1.0,pencil02a.jpg,0.0,clock_7_6.png,2.0,66,,,,,,,,,,,,,,,,,,,,,,,,,,,,,,,,
0.0,1.0,0.58512,0.0,12.0,12.0,12.0,1.0,chip_04s.jpg,0.0,clock_7_7.png,2.0,66,,,,,,,,,,,,,,,,,,,,,,,,,,,,,,,,
0.0,1.0,0.76832,0.0,13.0,13.0,13.0,1.0,ring_03s.jpg,0.0,clock_5_1.png,3.0,66,,,,,,,,,,,,,,,,,,,,,,,,,,,,,,,,
0.0,1.0,0.70008,0.0,14.0,14.0,14.0,1.0,fork_04s.jpg,0.0,clock_5_2.png,3.0,66,,,,,,,,,,,,,,,,,,,,,,,,,,,,,,,,
0.0,0.0,1.483895,0.0,15.0,15.0,15.0,1.0,ring_03s.jpg,1.0,clock_5_3.png,3.0,66,,,,,,,,,,,,,,,,,,,,,,,,,,,,,,,,
0.0,1.0,0.583835,0.0,16.0,16.0,16.0,1.0,mattress_01s.jpg,0.0,clock_5_4.png,3.0,66,,,,,,,,,,,,,,,,,,,,,,,,,,,,,,,,
0.0,1.0,0.950285,0.0,17.0,17.0,17.0,1.0,tupperware_09s.jpg,0.0,clock_5_5.png,3.0,66,,,,,,,,,,,,,,,,,,,,,,,,,,,,,,,,
0.0,1.0,1.16187,0.0,18.0,18.0,18.0,1.0,mussel_11s.jpg,0.0,clock_7_1.png,4.0,66,,,,,,,,,,,,,,,,,,,,,,,,,,,,,,,,
1.0,1.0,0.713665,0.0,19.0,19.0,19.0,1.0,mussel_11s.jpg,1.0,clock_7_2.png,4.0,66,,,,,,,,,,,,,,,,,,,,,,,,,,,,,,,,
0.0,1.0,1.781255,0.0,20.0,20.0,20.0,1.0,pencil_sharpener_09n.jpg,0.0,clock_7_3.png,4.0,66,,,,,,,,,,,,,,,,,,,,,,,,,,,,,,,,
0.0,1.0,0.74932,0.0,21.0,21.0,21.0,1.0,turtle_08s.jpg,0.0,clock_7_4.png,4.0,66,,,,,,,,,,,,,,,,,,,,,,,,,,,,,,,,
0.0,1.0,0.616115,0.0,22.0,22.0,22.0,1.0,mug_06s.jpg,0.0,clock_7_5.png,4.0,66,,,,,,,,,,,,,,,,,,,,,,,,,,,,,,,,
0.0,1.0,0.782415,0.0,23.0,23.0,23.0,1.0,light_switch_02s.jpg,0.0,clock_7_6.png,4.0,66,,,,,,,,,,,,,,,,,,,,,,,,,,,,,,,,
0.0,1.0,1.47051,0.0,24.0,24.0,24.0,1.0,kilt_18s.jpg,0.0,clock_7_7.png,4.0,66,,,,,,,,,,,,,,,,,,,,,,,,,,,,,,,,
0.0,1.0,0.74825,0.0,25.0,25.0,25.0,1.0,ladle_04s.jpg,0.0,clock_5_1.png,5.0,66,,,,,,,,,,,,,,,,,,,,,,,,,,,,,,,,
1.0,1.0,2.434175,0.0,26.0,26.0,26.0,1.0,ladle_04s.jpg,1.0,clock_5_2.png,5.0,66,,,,,,,,,,,,,,,,,,,,,,,,,,,,,,,,
0.0,1.0,0.724535,0.0,27.0,27.0,27.0,1.0,gong_02s.jpg,0.0,clock_5_3.png,5.0,66,,,,,,,,,,,,,,,,,,,,,,,,,,,,,,,,
0.0,1.0,0.63177,0.0,28.0,28.0,28.0,1.0,giraffe_11s.jpg,0.0,clock_5_4.png,5.0,66,,,,,,,,,,,,,,,,,,,,,,,,,,,,,,,,
0.0,1.0,0.70398,0.0,29.0,29.0,29.0,1.0,lid_10s.jpg,0.0,clock_5_5.png,5.0,66,,,,,,,,,,,,,,,,,,,,,,,,,,,,,,,,
0.0,1.0,0.91753,0.0,30.0,30.0,30.0,1.0,muffin_12n.jpg,0.0,clock_6_1.png,6.0,66,,,,,,,,,,,,,,,,,,,,,,,,,,,,,,,,
0.0,1.0,0.617345,0.0,31.0,31.0,31.0,1.0,lavender_10s.jpg,0.0,clock_6_2.png,6.0,66,,,,,,,,,,,,,,,,,,,,,,,,,,,,,,,,
0.0,1.0,0.500315,0.0,32.0,32.0,32.0,1.0,margarita_03s.jpg,0.0,clock_6_3.png,6.0,66,,,,,,,,,,,,,,,,,,,,,,,,,,,,,,,,
0.0,1.0,0.616005,0.0,33.0,33.0,33.0,1.0,throne_11s.jpg,0.0,clock_6_4.png,6.0,66,,,,,,,,,,,,,,,,,,,,,,,,,,,,,,,,
0.0,1.0,0.56615,0.0,34.0,34.0,34.0,1.0,spider_web_03s.jpg,0.0,clock_6_5.png,6.0,66,,,,,,,,,,,,,,,,,,,,,,,,,,,,,,,,
0.0,1.0,0.70011,0.0,35.0,35.0,35.0,1.0,cardinal_07s.jpg,0.0,clock_6_6.png,6.0,66,,,,,,,,,,,,,,,,,,,,,,,,,,,,,,,,
,,,,,,,,,0.0,,,66,0.0,1.0,3.33253,0.0,0.0,0.0,0.0,1.0,diving_board_07s.jpg,mushroom_10n.jpg,,,,,,,,,,,,,,,,,,,,,,
,,,,,,,,,1.0,,,66,1.0,1.0,1.65302,0.0,1.0,1.0,1.0,1.0,chopsticks_08s.jpg,jet_15s.jpg,,,,,,,,,,,,,,,,,,,,,,
,,,,,,,,,1.0,,,66,1.0,1.0,2.981585,0.0,2.0,2.0,2.0,1.0,gong_02s.jpg,muffin_12n.jpg,,,,,,,,,,,,,,,,,,,,,,
,,,,,,,,,1.0,,,66,1.0,1.0,1.58401,0.0,3.0,3.0,3.0,1.0,kitten_07s.jpg,chip_04s.jpg,,,,,,,,,,,,,,,,,,,,,,
,,,,,,,,,1.0,,,66,1.0,1.0,1.86485,0.0,4.0,4.0,4.0,1.0,pencil_sharpener_09n.jpg,light_switch_02s.jpg,,,,,,,,,,,,,,,,,,,,,,
,,,,,,,,,0.0,,,66,0.0,1.0,1.41582,0.0,5.0,5.0,5.0,1.0,spider_web_03s.jpg,lavender_10s.jpg,,,,,,,,,,,,,,,,,,,,,,
,,,,,,,,,,,,66,,,,,,,,,,,0.0,2.0,2.0,2.0,1.0,clock_present_3_3.xlsx,clock_compare_task_3_3.xlsx,,,,,,,,,,,,,,,
0.0,1.0,1.193435,0.0,0.0,0.0,0.0,1.0,typewriter_11s.jpg,0.0,clock_5_1.png,1.0,66,,,,,,,,,,,,,,,,,,,,,,,,,,,,,,,,
1.0,1.0,0.833855,0.0,1.0,1.0,1.0,1.0,typewriter_11s.jpg,1.0,clock_5_2.png,1.0,66,,,,,,,,,,,,,,,,,,,,,,,,,,,,,,,,
0.0,1.0,0.61856,0.0,2.0,2.0,2.0,1.0,tweezers_03s.jpg,0.0,clock_5_3.png,1.0,66,,,,,,,,,,,,,,,,,,,,,,,,,,,,,,,,
0.0,1.0,0.73435,0.0,3.0,3.0,3.0,1.0,peeler_06s.jpg,0.0,clock_5_4.png,1.0,66,,,,,,,,,,,,,,,,,,,,,,,,,,,,,,,,
0.0,1.0,0.767325,0.0,4.0,4.0,4.0,1.0,tripod_01b.jpg,0.0,clock_5_5.png,1.0,66,,,,,,,,,,,,,,,,,,,,,,,,,,,,,,,,
0.0,1.0,1.233975,0.0,5.0,5.0,5.0,1.0,rudder_02s.jpg,0.0,clock_7_1.png,2.0,66,,,,,,,,,,,,,,,,,,,,,,,,,,,,,,,,
0.0,1.0,0.683985,0.0,6.0,6.0,6.0,1.0,pumpkin_03s.jpg,0.0,clock_7_2.png,2.0,66,,,,,,,,,,,,,,,,,,,,,,,,,,,,,,,,
0.0,1.0,0.933185,0.0,7.0,7.0,7.0,1.0,red_carpet_03s.jpg,0.0,clock_7_3.png,2.0,66,,,,,,,,,,,,,,,,,,,,,,,,,,,,,,,,
0.0,1.0,0.6005,0.0,8.0,8.0,8.0,1.0,camcorder_10s.jpg,0.0,clock_7_4.png,2.0,66,,,,,,,,,,,,,,,,,,,,,,,,,,,,,,,,
0.0,1.0,1.849285,0.0,9.0,9.0,9.0,1.0,peeler_06s.jpg,0.0,clock_7_5.png,2.0,66,,,,,,,,,,,,,,,,,,,,,,,,,,,,,,,,
0.0,1.0,0.66749,0.0,10.0,10.0,10.0,1.0,tiger_06s.jpg,0.0,clock_7_6.png,2.0,66,,,,,,,,,,,,,,,,,,,,,,,,,,,,,,,,
0.0,1.0,0.58295,0.0,11.0,11.0,11.0,1.0,tube_top_03s.jpg,0.0,clock_7_7.png,2.0,66,,,,,,,,,,,,,,,,,,,,,,,,,,,,,,,,
0.0,1.0,1.200495,0.0,12.0,12.0,12.0,1.0,harpoon.jpg,0.0,clock_6_1.png,3.0,66,,,,,,,,,,,,,,,,,,,,,,,,,,,,,,,,
0.0,1.0,0.934125,0.0,13.0,13.0,13.0,1.0,paintbrush_04s.jpg,0.0,clock_6_2.png,3.0,66,,,,,,,,,,,,,,,,,,,,,,,,,,,,,,,,
0.0,1.0,0.61844,0.0,14.0,14.0,14.0,1.0,polaroid_05s.jpg,0.0,clock_6_3.png,3.0,66,,,,,,,,,,,,,,,,,,,,,,,,,,,,,,,,
0.0,1.0,0.751355,0.0,15.0,15.0,15.0,1.0,amber_04s.jpg,0.0,clock_6_4.png,3.0,66,,,,,,,,,,,,,,,,,,,,,,,,,,,,,,,,
0.0,1.0,0.883665,0.0,16.0,16.0,16.0,1.0,laser_pointer_02s.jpg,0.0,clock_6_5.png,3.0,66,,,,,,,,,,,,,,,,,,,,,,,,,,,,,,,,
0.0,1.0,1.0177,0.0,17.0,17.0,17.0,1.0,exhaust_pipe_10s.jpg,0.0,clock_6_6.png,3.0,66,,,,,,,,,,,,,,,,,,,,,,,,,,,,,,,,
0.0,1.0,1.133255,0.0,18.0,18.0,18.0,1.0,outlet_10s.jpg,0.0,clock_6_1.png,4.0,66,,,,,,,,,,,,,,,,,,,,,,,,,,,,,,,,
0.0,1.0,0.717465,0.0,19.0,19.0,19.0,1.0,mannequin_05s.jpg,0.0,clock_6_2.png,4.0,66,,,,,,,,,,,,,,,,,,,,,,,,,,,,,,,,
1.0,1.0,0.7856,0.0,20.0,20.0,20.0,1.0,mannequin_05s.jpg,1.0,clock_6_3.png,4.0,66,,,,,,,,,,,,,,,,,,,,,,,,,,,,,,,,
0.0,1.0,0.64898,0.0,21.0,21.0,21.0,1.0,boomerang_06s.jpg,0.0,clock_6_4.png,4.0,66,,,,,,,,,,,,,,,,,,,,,,,,,,,,,,,,
0.0,1.0,0.7825,0.0,22.0,22.0,22.0,1.0,razor_blade_01b.jpg,0.0,clock_6_5.png,4.0,66,,,,,,,,,,,,,,,,,,,,,,,,,,,,,,,,
1.0,1.0,1.06612,0.0,23.0,23.0,23.0,1.0,boomerang_06s.jpg,1.0,clock_6_6.png,4.0,66,,,,,,,,,,,,,,,,,,,,,,,,,,,,,,,,
0.0,1.0,1.15935,0.0,24.0,24.0,24.0,1.0,jalapeno_15s.jpg,0.0,clock_7_1.png,5.0,66,,,,,,,,,,,,,,,,,,,,,,,,,,,,,,,,
0.0,1.0,0.80185,0.0,25.0,25.0,25.0,1.0,footprint_11s.jpg,0.0,clock_7_2.png,5.0,66,,,,,,,,,,,,,,,,,,,,,,,,,,,,,,,,
0.0,1.0,0.768155,0.0,26.0,26.0,26.0,1.0,tiger_06s.jpg,0.0,clock_7_3.png,5.0,66,,,,,,,,,,,,,,,,,,,,,,,,,,,,,,,,
1.0,1.0,0.863765,0.0,27.0,27.0,27.0,1.0,footprint_11s.jpg,1.0,clock_7_4.png,5.0,66,,,,,,,,,,,,,,,,,,,,,,,,,,,,,,,,
0.0,1.0,0.6467,0.0,28.0,28.0,28.0,1.0,treasure_08s.jpg,0.0,clock_7_5.png,5.0,66,,,,,,,,,,,,,,,,,,,,,,,,,,,,,,,,
0.0,1.0,0.624875,0.0,29.0,29.0,29.0,1.0,reindeer_08s.jpg,0.0,clock_7_6.png,5.0,66,,,,,,,,,,,,,,,,,,,,,,,,,,,,,,,,
0.0,1.0,0.55881,0.0,30.0,30.0,30.0,1.0,pie_08s.jpg,0.0,clock_7_7.png,5.0,66,,,,,,,,,,,,,,,,,,,,,,,,,,,,,,,,
0.0,1.0,1.247075,0.0,31.0,31.0,31.0,1.0,fur_coat_11s.jpg,0.0,clock_5_1.png,6.0,66,,,,,,,,,,,,,,,,,,,,,,,,,,,,,,,,
0.0,1.0,0.88501,0.0,32.0,32.0,32.0,1.0,solar_panel_02s.jpg,0.0,clock_5_2.png,6.0,66,,,,,,,,,,,,,,,,,,,,,,,,,,,,,,,,
,0.0,,0.0,33.0,33.0,33.0,1.0,plunger_08s.jpg,0.0,clock_5_3.png,6.0,66,,,,,,,,,,,,,,,,,,,,,,,,,,,,,,,,
0.0,1.0,0.85509,0.0,34.0,34.0,34.0,1.0,crate_05s.jpg,0.0,clock_5_4.png,6.0,66,,,,,,,,,,,,,,,,,,,,,,,,,,,,,,,,
0.0,1.0,1.0493,0.0,35.0,35.0,35.0,1.0,reindeer_08s.jpg,0.0,clock_5_5.png,6.0,66,,,,,,,,,,,,,,,,,,,,,,,,,,,,,,,,
,,,,,,,,,1.0,,,66,1.0,1.0,1.565925,0.0,0.0,0.0,0.0,1.0,tripod_01b.jpg,red_carpet_03s.jpg,,,,,,,,,,,,,,,,,,,,,,
,,,,,,,,,1.0,,,66,1.0,1.0,1.25061,0.0,1.0,1.0,1.0,1.0,pie_08s.jpg,plunger_08s.jpg,,,,,,,,,,,,,,,,,,,,,,
,,,,,,,,,1.0,,,66,0.0,0.0,1.150645,0.0,2.0,2.0,2.0,1.0,tweezers_03s.jpg,rudder_02s.jpg,,,,,,,,,,,,,,,,,,,,,,
,,,,,,,,,0.0,,,66,1.0,0.0,1.868525,0.0,3.0,3.0,3.0,1.0,laser_pointer_02s.jpg,paintbrush_04s.jpg,,,,,,,,,,,,,,,,,,,,,,
,,,,,,,,,1.0,,,66,0.0,0.0,1.31889,0.0,4.0,4.0,4.0,1.0,camcorder_10s.jpg,tube_top_03s.jpg,,,,,,,,,,,,,,,,,,,,,,
,,,,,,,,,0.0,,,66,1.0,0.0,1.89949,0.0,5.0,5.0,5.0,1.0,amber_04s.jpg,harpoon.jpg,,,,,,,,,,,,,,,,,,,,,,
,,,,,,,,,,,,66,,,,,,,,,,,0.0,3.0,3.0,3.0,1.0,clock_present_4_3.xlsx,clock_compare_task_4_3.xlsx,,,,,,,,,,,,,,,
0.0,1.0,1.468535,0.0,0.0,0.0,0.0,1.0,frog_09s.jpg,0.0,clock_5_1.png,1.0,66,,,,,,,,,,,,,,,,,,,,,,,,,,,,,,,,
0.0,1.0,0.68339,0.0,1.0,1.0,1.0,1.0,tile_08s.jpg,0.0,clock_5_2.png,1.0,66,,,,,,,,,,,,,,,,,,,,,,,,,,,,,,,,
1.0,1.0,0.851895,0.0,2.0,2.0,2.0,1.0,tile_08s.jpg,1.0,clock_5_3.png,1.0,66,,,,,,,,,,,,,,,,,,,,,,,,,,,,,,,,
1.0,1.0,0.56869,0.0,3.0,3.0,3.0,1.0,tile_08s.jpg,1.0,clock_5_4.png,1.0,66,,,,,,,,,,,,,,,,,,,,,,,,,,,,,,,,
0.0,1.0,0.5337,0.0,4.0,4.0,4.0,1.0,icicle_04s.jpg,0.0,clock_5_5.png,1.0,66,,,,,,,,,,,,,,,,,,,,,,,,,,,,,,,,
0.0,1.0,0.934465,0.0,5.0,5.0,5.0,1.0,stapler_01b.jpg,0.0,clock_5_1.png,2.0,66,,,,,,,,,,,,,,,,,,,,,,,,,,,,,,,,
0.0,1.0,0.76775,0.0,6.0,6.0,6.0,1.0,roulette_wheel_04s.jpg,0.0,clock_5_2.png,2.0,66,,,,,,,,,,,,,,,,,,,,,,,,,,,,,,,,
0.0,1.0,0.8168,0.0,7.0,7.0,7.0,1.0,lamppost_09s.jpg,0.0,clock_5_3.png,2.0,66,,,,,,,,,,,,,,,,,,,,,,,,,,,,,,,,
1.0,1.0,0.484385,0.0,8.0,8.0,8.0,1.0,lamppost_09s.jpg,1.0,clock_5_4.png,2.0,66,,,,,,,,,,,,,,,,,,,,,,,,,,,,,,,,
0.0,1.0,0.600455,0.0,9.0,9.0,9.0,1.0,trampoline_13s.jpg,0.0,clock_5_5.png,2.0,66,,,,,,,,,,,,,,,,,,,,,,,,,,,,,,,,
0.0,1.0,0.53323,0.0,10.0,10.0,10.0,1.0,crayon_09s.jpg,0.0,clock_7_1.png,3.0,66,,,,,,,,,,,,,,,,,,,,,,,,,,,,,,,,
0.0,1.0,0.66671,0.0,11.0,11.0,11.0,1.0,teacup_07s.jpg,0.0,clock_7_2.png,3.0,66,,,,,,,,,,,,,,,,,,,,,,,,,,,,,,,,
0.0,1.0,0.632895,0.0,12.0,12.0,12.0,1.0,pillbox_04s.jpg,0.0,clock_7_3.png,3.0,66,,,,,,,,,,,,,,,,,,,,,,,,,,,,,,,,
0.0,1.0,1.158735,0.0,13.0,13.0,13.0,1.0,measuring_cup_02s.jpg,0.0,clock_7_4.png,3.0,66,,,,,,,,,,,,,,,,,,,,,,,,,,,,,,,,
0.0,1.0,0.6639,0.0,14.0,14.0,14.0,1.0,turkey_10s.jpg,0.0,clock_7_5.png,3.0,66,,,,,,,,,,,,,,,,,,,,,,,,,,,,,,,,
0.0,1.0,0.628975,0.0,15.0,15.0,15.0,1.0,jukebox_03n.jpg,0.0,clock_7_6.png,3.0,66,,,,,,,,,,,,,,,,,,,,,,,,,,,,,,,,
1.0,1.0,0.6562,0.0,16.0,16.0,16.0,1.0,crayon_09s.jpg,1.0,clock_7_7.png,3.0,66,,,,,,,,,,,,,,,,,,,,,,,,,,,,,,,,
0.0,1.0,0.797065,0.0,17.0,17.0,17.0,1.0,fountain_pen_06s.jpg,0.0,clock_6_1.png,4.0,66,,,,,,,,,,,,,,,,,,,,,,,,,,,,,,,,
1.0,1.0,0.846265,0.0,18.0,18.0,18.0,1.0,fountain_pen_06s.jpg,1.0,clock_6_2.png,4.0,66,,,,,,,,,,,,,,,,,,,,,,,,,,,,,,,,
0.0,1.0,0.716965,0.0,19.0,19.0,19.0,1.0,roulette_wheel_04s.jpg,0.0,clock_6_3.png,4.0,66,,,,,,,,,,,,,,,,,,,,,,,,,,,,,,,,
1.0,1.0,0.715845,0.0,20.0,20.0,20.0,1.0,fountain_pen_06s.jpg,1.0,clock_6_4.png,4.0,66,,,,,,,,,,,,,,,,,,,,,,,,,,,,,,,,
0.0,1.0,0.715245,0.0,21.0,21.0,21.0,1.0,stapler_01b.jpg,0.0,clock_6_5.png,4.0,66,,,,,,,,,,,,,,,,,,,,,,,,,,,,,,,,
0.0,1.0,0.618205,0.0,22.0,22.0,22.0,1.0,jigsaw_puzzle_11s.jpg,0.0,clock_6_6.png,4.0,66,,,,,,,,,,,,,,,,,,,,,,,,,,,,,,,,
0.0,1.0,0.64279,0.0,23.0,23.0,23.0,1.0,pear_02s.jpg,0.0,clock_7_1.png,5.0,66,,,,,,,,,,,,,,,,,,,,,,,,,,,,,,,,
1.0,1.0,0.86595,0.0,24.0,24.0,24.0,1.0,pear_02s.jpg,1.0,clock_7_2.png,5.0,66,,,,,,,,,,,,,,,,,,,,,,,,,,,,,,,,
0.0,1.0,1.51751,0.0,25.0,25.0,25.0,1.0,lamppost_09s.jpg,0.0,clock_7_3.png,5.0,66,,,,,,,,,,,,,,,,,,,,,,,,,,,,,,,,
0.0,1.0,1.016165,0.0,26.0,26.0,26.0,1.0,blender_08s.jpg,0.0,clock_7_4.png,5.0,66,,,,,,,,,,,,,,,,,,,,,,,,,,,,,,,,
0.0,1.0,0.70045,0.0,27.0,27.0,27.0,1.0,chime_12s.jpg,0.0,clock_7_5.png,5.0,66,,,,,,,,,,,,,,,,,,,,,,,,,,,,,,,,
0.0,1.0,0.700995,0.0,28.0,28.0,28.0,1.0,tattoo_14s.jpg,0.0,clock_7_6.png,5.0,66,,,,,,,,,,,,,,,,,,,,,,,,,,,,,,,,
0.0,1.0,0.616895,0.0,29.0,29.0,29.0,1.0,soda_fountain_03s.jpg,0.0,clock_7_7.png,5.0,66,,,,,,,,,,,,,,,,,,,,,,,,,,,,,,,,
0.0,1.0,0.699715,0.0,30.0,30.0,30.0,1.0,contact_lens_15s.jpg,0.0,clock_6_1.png,6.0,66,,,,,,,,,,,,,,,,,,,,,,,,,,,,,,,,
0.0,1.0,2.22485,0.0,31.0,31.0,31.0,1.0,tuba_12s.jpg,0.0,clock_6_2.png,6.0,66,,,,,,,,,,,,,,,,,,,,,,,,,,,,,,,,
0.0,1.0,0.62317,0.0,32.0,32.0,32.0,1.0,projector_08s.jpg,0.0,clock_6_3.png,6.0,66,,,,,,,,,,,,,,,,,,,,,,,,,,,,,,,,
0.0,1.0,0.63651,0.0,33.0,33.0,33.0,1.0,mirror_12s.jpg,0.0,clock_6_4.png,6.0,66,,,,,,,,,,,,,,,,,,,,,,,,,,,,,,,,
0.0,1.0,1.02356,0.0,34.0,34.0,34.0,1.0,plaster_cast_13s.jpg,0.0,clock_6_5.png,6.0,66,,,,,,,,,,,,,,,,,,,,,,,,,,,,,,,,
0.0,1.0,2.450545,0.0,35.0,35.0,35.0,1.0,pump_11s.jpg,0.0,clock_6_6.png,6.0,66,,,,,,,,,,,,,,,,,,,,,,,,,,,,,,,,
,,,,,,,,,1.0,,,66,1.0,1.0,2.332365,0.0,0.0,0.0,0.0,1.0,trampoline_13s.jpg,pillbox_04s.jpg,,,,,,,,,,,,,,,,,,,,,,
,,,,,,,,,1.0,,,66,0.0,0.0,1.53396,0.0,1.0,1.0,1.0,1.0,chime_12s.jpg,contact_lens_15s.jpg,,,,,,,,,,,,,,,,,,,,,,
,,,,,,,,,1.0,,,66,0.0,0.0,1.283155,0.0,2.0,2.0,2.0,1.0,tattoo_14s.jpg,tuba_12s.jpg,,,,,,,,,,,,,,,,,,,,,,
,,,,,,,,,1.0,,,66,1.0,1.0,1.31634,0.0,3.0,3.0,3.0,1.0,teacup_07s.jpg,turkey_10s.jpg,,,,,,,,,,,,,,,,,,,,,,
,,,,,,,,,1.0,,,66,1.0,1.0,1.083605,0.0,4.0,4.0,4.0,1.0,blender_08s.jpg,soda_fountain_03s.jpg,,,,,,,,,,,,,,,,,,,,,,
,,,,,,,,,0.0,,,66,0.0,1.0,1.550225,0.0,5.0,5.0,5.0,1.0,pump_11s.jpg,projector_08s.jpg,,,,,,,,,,,,,,,,,,,,,,
,,,,,,,,,,,,66,,,,,,,,,,,0.0,4.0,4.0,4.0,1.0,clock_present_5_3.xlsx,clock_compare_task_5_3.xlsx,,,,,,,,,,,,,,,
0.0,1.0,1.14878,0.0,0.0,0.0,0.0,1.0,kite_04s.jpg,0.0,clock_7_1.png,1.0,66,,,,,,,,,,,,,,,,,,,,,,,,,,,,,,,,
1.0,1.0,0.533245,0.0,1.0,1.0,1.0,1.0,kite_04s.jpg,1.0,clock_7_2.png,1.0,66,,,,,,,,,,,,,,,,,,,,,,,,,,,,,,,,
1.0,1.0,0.45097,0.0,2.0,2.0,2.0,1.0,kite_04s.jpg,1.0,clock_7_3.png,1.0,66,,,,,,,,,,,,,,,,,,,,,,,,,,,,,,,,
1.0,1.0,0.83286,0.0,3.0,3.0,3.0,1.0,kite_04s.jpg,1.0,clock_7_4.png,1.0,66,,,,,,,,,,,,,,,,,,,,,,,,,,,,,,,,
0.0,1.0,0.58012,0.0,4.0,4.0,4.0,1.0,compass_10n.jpg,0.0,clock_7_5.png,1.0,66,,,,,,,,,,,,,,,,,,,,,,,,,,,,,,,,
1.0,1.0,0.69774,0.0,5.0,5.0,5.0,1.0,kite_04s.jpg,1.0,clock_7_6.png,1.0,66,,,,,,,,,,,,,,,,,,,,,,,,,,,,,,,,
0.0,1.0,0.64089,0.0,6.0,6.0,6.0,1.0,purse_05s.jpg,0.0,clock_7_7.png,1.0,66,,,,,,,,,,,,,,,,,,,,,,,,,,,,,,,,
0.0,1.0,1.54957,0.0,7.0,7.0,7.0,1.0,orange_12s.jpg,0.0,clock_6_1.png,2.0,66,,,,,,,,,,,,,,,,,,,,,,,,,,,,,,,,
0.0,1.0,0.683865,0.0,8.0,8.0,8.0,1.0,eggshell_14s.jpg,0.0,clock_6_2.png,2.0,66,,,,,,,,,,,,,,,,,,,,,,,,,,,,,,,,
1.0,1.0,0.950745,0.0,9.0,9.0,9.0,1.0,orange_12s.jpg,1.0,clock_6_3.png,2.0,66,,,,,,,,,,,,,,,,,,,,,,,,,,,,,,,,
,0.0,,0.0,10.0,10.0,10.0,1.0,purse_05s.jpg,0.0,clock_6_4.png,2.0,66,,,,,,,,,,,,,,,,,,,,,,,,,,,,,,,,
0.0,1.0,0.55105,0.0,11.0,11.0,11.0,1.0,roller_coaster_07s.jpg,0.0,clock_6_5.png,2.0,66,,,,,,,,,,,,,,,,,,,,,,,,,,,,,,,,
0.0,1.0,1.24952,0.0,12.0,12.0,12.0,1.0,sushi_08s.jpg,0.0,clock_6_6.png,2.0,66,,,,,,,,,,,,,,,,,,,,,,,,,,,,,,,,
0.0,1.0,2.335135,0.0,13.0,13.0,13.0,1.0,raft_09s.jpg,0.0,clock_6_1.png,3.0,66,,,,,,,,,,,,,,,,,,,,,,,,,,,,,,,,
0.0,1.0,0.61707,0.0,14.0,14.0,14.0,1.0,orange_12s.jpg,0.0,clock_6_2.png,3.0,66,,,,,,,,,,,,,,,,,,,,,,,,,,,,,,,,
0.0,1.0,0.834725,0.0,15.0,15.0,15.0,1.0,kite_04s.jpg,0.0,clock_6_3.png,3.0,66,,,,,,,,,,,,,,,,,,,,,,,,,,,,,,,,
0.0,1.0,0.60131,0.0,16.0,16.0,16.0,1.0,petri_dish_12s.jpg,0.0,clock_6_4.png,3.0,66,,,,,,,,,,,,,,,,,,,,,,,,,,,,,,,,
0.0,1.0,0.88544,0.0,17.0,17.0,17.0,1.0,rope_16s.jpg,0.0,clock_6_5.png,3.0,66,,,,,,,,,,,,,,,,,,,,,,,,,,,,,,,,
0.0,1.0,1.257385,0.0,18.0,18.0,18.0,1.0,lab_coat_11s.jpg,0.0,clock_6_6.png,3.0,66,,,,,,,,,,,,,,,,,,,,,,,,,,,,,,,,
0.0,1.0,0.592005,0.0,19.0,19.0,19.0,1.0,pretzel_09s.jpg,0.0,clock_5_1.png,4.0,66,,,,,,,,,,,,,,,,,,,,,,,,,,,,,,,,
0.0,1.0,0.534065,0.0,20.0,20.0,20.0,1.0,doily_13s.jpg,0.0,clock_5_2.png,4.0,66,,,,,,,,,,,,,,,,,,,,,,,,,,,,,,,,
0.0,1.0,0.56733,0.0,21.0,21.0,21.0,1.0,rooster_03s.jpg,0.0,clock_5_3.png,4.0,66,,,,,,,,,,,,,,,,,,,,,,,,,,,,,,,,
0.0,1.0,0.49962,0.0,22.0,22.0,22.0,1.0,fondue_07s.jpg,0.0,clock_5_4.png,4.0,66,,,,,,,,,,,,,,,,,,,,,,,,,,,,,,,,
0.0,1.0,0.90089,0.0,23.0,23.0,23.0,1.0,petri_dish_12s.jpg,0.0,clock_5_5.png,4.0,66,,,,,,,,,,,,,,,,,,,,,,,,,,,,,,,,
0.0,1.0,0.5997,0.0,24.0,24.0,24.0,1.0,pinwheel_06s.jpg,0.0,clock_5_1.png,5.0,66,,,,,,,,,,,,,,,,,,,,,,,,,,,,,,,,
0.0,1.0,0.532655,0.0,25.0,25.0,25.0,1.0,police_car_01s.jpg,0.0,clock_5_2.png,5.0,66,,,,,,,,,,,,,,,,,,,,,,,,,,,,,,,,
0.0,1.0,0.732475,0.0,26.0,26.0,26.0,1.0,feather02.jpg,0.0,clock_5_3.png,5.0,66,,,,,,,,,,,,,,,,,,,,,,,,,,,,,,,,
0.0,1.0,0.900495,0.0,27.0,27.0,27.0,1.0,smoothie_09s.jpg,0.0,clock_5_4.png,5.0,66,,,,,,,,,,,,,,,,,,,,,,,,,,,,,,,,
0.0,1.0,0.68547,0.0,28.0,28.0,28.0,1.0,kettle_08s.jpg,0.0,clock_5_5.png,5.0,66,,,,,,,,,,,,,,,,,,,,,,,,,,,,,,,,
0.0,1.0,0.517115,0.0,29.0,29.0,29.0,1.0,spacesuit_02s.jpg,0.0,clock_7_1.png,6.0,66,,,,,,,,,,,,,,,,,,,,,,,,,,,,,,,,
0.0,1.0,1.03446,0.0,30.0,30.0,30.0,1.0,licorice_06s.jpg,0.0,clock_7_2.png,6.0,66,,,,,,,,,,,,,,,,,,,,,,,,,,,,,,,,
0.0,1.0,0.76763,0.0,31.0,31.0,31.0,1.0,quesadilla_07s.jpg,0.0,clock_7_3.png,6.0,66,,,,,,,,,,,,,,,,,,,,,,,,,,,,,,,,
0.0,1.0,0.766995,0.0,32.0,32.0,32.0,1.0,road_sign_05s.jpg,0.0,clock_7_4.png,6.0,66,,,,,,,,,,,,,,,,,,,,,,,,,,,,,,,,
1.0,1.0,0.983475,0.0,33.0,33.0,33.0,1.0,licorice_06s.jpg,1.0,clock_7_5.png,6.0,66,,,,,,,,,,,,,,,,,,,,,,,,,,,,,,,,
1.0,1.0,0.55056,0.0,34.0,34.0,34.0,1.0,licorice_06s.jpg,1.0,clock_7_6.png,6.0,66,,,,,,,,,,,,,,,,,,,,,,,,,,,,,,,,
0.0,1.0,0.9661,0.0,35.0,35.0,35.0,1.0,birthday_cake_09s.jpg,0.0,clock_7_7.png,6.0,66,,,,,,,,,,,,,,,,,,,,,,,,,,,,,,,,
,,,,,,,,,1.0,,,66,0.0,0.0,1.40048,0.0,0.0,0.0,0.0,1.0,rope_16s.jpg,doily_13s.jpg,,,,,,,,,,,,,,,,,,,,,,
,,,,,,,,,1.0,,,66,0.0,0.0,1.448675,0.0,1.0,1.0,1.0,1.0,lab_coat_11s.jpg,rooster_03s.jpg,,,,,,,,,,,,,,,,,,,,,,
,,,,,,,,,1.0,,,66,1.0,1.0,1.23477,0.0,2.0,2.0,2.0,1.0,feather02.jpg,spacesuit_02s.jpg,,,,,,,,,,,,,,,,,,,,,,
,,,,,,,,,1.0,,,66,1.0,1.0,0.833235,0.0,3.0,3.0,3.0,1.0,eggshell_14s.jpg,roller_coaster_07s.jpg,,,,,,,,,,,,,,,,,,,,,,
,,,,,,,,,1.0,,,66,1.0,1.0,1.08304,0.0,4.0,4.0,4.0,1.0,road_sign_05s.jpg,birthday_cake_09s.jpg,,,,,,,,,,,,,,,,,,,,,,
,,,,,,,,,1.0,,,66,1.0,1.0,1.032865,0.0,5.0,5.0,5.0,1.0,pretzel_09s.jpg,fondue_07s.jpg,,,,,,,,,,,,,,,,,,,,,,
,0.0,,,,,,,hydrant_10s.jpg,0.0,clockno_up.jpg,1.0,66,,,,,,,,,,,,,,,,,,0.0,0.0,0.0,0.0,1.0,,,,,,,,,,
0.0,1.0,1.78428,,,,,,raccoon_02s.jpg,0.0,clockno_default.jpg,1.0,66,,,,,,,,,,,,,,,,,,0.0,1.0,1.0,1.0,1.0,,,,,,,,,,
0.0,1.0,0.83306,,,,,,tinsel_12s.jpg,0.0,clockno_default.jpg,1.0,66,,,,,,,,,,,,,,,,,,0.0,2.0,2.0,2.0,1.0,,,,,,,,,,
0.0,1.0,1.61683,,,,,,toad_09s.jpg,0.0,clockno_default.jpg,1.0,66,,,,,,,,,,,,,,,,,,0.0,3.0,3.0,3.0,1.0,,,,,,,,,,
0.0,1.0,0.63231,,,,,,penguin_16s.jpg,0.0,clockno_default.jpg,1.0,66,,,,,,,,,,,,,,,,,,0.0,4.0,4.0,4.0,1.0,,,,,,,,,,
1.0,1.0,1.100885,,,,,,hydrant_10s.jpg,1.0,clockno_default.jpg,1.0,66,,,,,,,,,,,,,,,,,,0.0,5.0,5.0,5.0,1.0,,,,,,,,,,
0.0,1.0,1.484305,,,,,,ostrich_06s.jpg,0.0,clockno_up.jpg,2.0,66,,,,,,,,,,,,,,,,,,0.0,6.0,6.0,6.0,1.0,,,,,,,,,,
0.0,1.0,0.584025,,,,,,rosary_03s.jpg,0.0,clockno_default.jpg,2.0,66,,,,,,,,,,,,,,,,,,0.0,7.0,7.0,7.0,1.0,,,,,,,,,,
0.0,1.0,0.94718,,,,,,mold2_04s.jpg,0.0,clockno_default.jpg,2.0,66,,,,,,,,,,,,,,,,,,0.0,8.0,8.0,8.0,1.0,,,,,,,,,,
0.0,1.0,1.0148,,,,,,ivy_12s.jpg,0.0,clockno_default.jpg,2.0,66,,,,,,,,,,,,,,,,,,0.0,9.0,9.0,9.0,1.0,,,,,,,,,,
0.0,1.0,0.979485,,,,,,tongs_08s.jpg,0.0,clockno_default.jpg,2.0,66,,,,,,,,,,,,,,,,,,0.0,10.0,10.0,10.0,1.0,,,,,,,,,,
0.0,1.0,0.5308,,,,,,undershirt_02s.jpg,0.0,clockno_up.jpg,3.0,66,,,,,,,,,,,,,,,,,,0.0,11.0,11.0,11.0,1.0,,,,,,,,,,
0.0,1.0,0.60293,,,,,,swing_set_15s.jpg,0.0,clockno_default.jpg,3.0,66,,,,,,,,,,,,,,,,,,0.0,12.0,12.0,12.0,1.0,,,,,,,,,,
0.0,1.0,0.58237,,,,,,beard_16s.jpg,0.0,clockno_default.jpg,3.0,66,,,,,,,,,,,,,,,,,,0.0,13.0,13.0,13.0,1.0,,,,,,,,,,
0.0,1.0,0.779585,,,,,,mold2_04s.jpg,0.0,clockno_default.jpg,3.0,66,,,,,,,,,,,,,,,,,,0.0,14.0,14.0,14.0,1.0,,,,,,,,,,
0.0,1.0,0.747865,,,,,,submarine_11n.jpg,0.0,clockno_default.jpg,3.0,66,,,,,,,,,,,,,,,,,,0.0,15.0,15.0,15.0,1.0,,,,,,,,,,
0.0,1.0,0.97018,,,,,,recliner_02s.jpg,0.0,clockno_default.jpg,3.0,66,,,,,,,,,,,,,,,,,,0.0,16.0,16.0,16.0,1.0,,,,,,,,,,
0.0,1.0,0.597385,,,,,,limousine_12s.jpg,0.0,clockno_default.jpg,3.0,66,,,,,,,,,,,,,,,,,,0.0,17.0,17.0,17.0,1.0,,,,,,,,,,
0.0,1.0,0.566,,,,,,potpourri_03s.jpg,0.0,clockno_up.jpg,4.0,66,,,,,,,,,,,,,,,,,,0.0,18.0,18.0,18.0,1.0,,,,,,,,,,
1.0,1.0,0.93852,,,,,,potpourri_03s.jpg,1.0,clockno_default.jpg,4.0,66,,,,,,,,,,,,,,,,,,0.0,19.0,19.0,19.0,1.0,,,,,,,,,,
0.0,1.0,0.9206,,,,,,swan_11s.jpg,0.0,clockno_default.jpg,4.0,66,,,,,,,,,,,,,,,,,,0.0,20.0,20.0,20.0,1.0,,,,,,,,,,
0.0,1.0,1.34689,,,,,,mold2_04s.jpg,0.0,clockno_default.jpg,4.0,66,,,,,,,,,,,,,,,,,,0.0,21.0,21.0,21.0,1.0,,,,,,,,,,
0.0,1.0,1.494745,,,,,,plug_08s.jpg,0.0,clockno_default.jpg,4.0,66,,,,,,,,,,,,,,,,,,0.0,22.0,22.0,22.0,1.0,,,,,,,,,,
0.0,1.0,1.552175,,,,,,punch2_09s.jpg,0.0,clockno_up.jpg,5.0,66,,,,,,,,,,,,,,,,,,0.0,23.0,23.0,23.0,1.0,,,,,,,,,,
0.0,1.0,0.765885,,,,,,blowfish_03s.jpg,0.0,clockno_default.jpg,5.0,66,,,,,,,,,,,,,,,,,,0.0,24.0,24.0,24.0,1.0,,,,,,,,,,
0.0,1.0,0.5164,,,,,,badge_03s.jpg,0.0,clockno_default.jpg,5.0,66,,,,,,,,,,,,,,,,,,0.0,25.0,25.0,25.0,1.0,,,,,,,,,,
0.0,1.0,0.950225,,,,,,go-kart_10s.jpg,0.0,clockno_default.jpg,5.0,66,,,,,,,,,,,,,,,,,,0.0,26.0,26.0,26.0,1.0,,,,,,,,,,
0.0,1.0,0.717565,,,,,,surfboard_11s.jpg,0.0,clockno_default.jpg,5.0,66,,,,,,,,,,,,,,,,,,0.0,27.0,27.0,27.0,1.0,,,,,,,,,,
0.0,1.0,0.89956,,,,,,kimono_13s.jpg,0.0,clockno_default.jpg,5.0,66,,,,,,,,,,,,,,,,,,0.0,28.0,28.0,28.0,1.0,,,,,,,,,,
0.0,1.0,1.13298,,,,,,teapot_03s.jpg,0.0,clockno_default.jpg,5.0,66,,,,,,,,,,,,,,,,,,0.0,29.0,29.0,29.0,1.0,,,,,,,,,,
0.0,1.0,1.032975,,,,,,eiffeltower.jpg,0.0,clockno_up.jpg,6.0,66,,,,,,,,,,,,,,,,,,0.0,30.0,30.0,30.0,1.0,,,,,,,,,,
0.0,1.0,0.733495,,,,,,checkbook_11s.jpg,0.0,clockno_default.jpg,6.0,66,,,,,,,,,,,,,,,,,,0.0,31.0,31.0,31.0,1.0,,,,,,,,,,
0.0,1.0,0.799385,,,,,,ostrich_06s.jpg,0.0,clockno_default.jpg,6.0,66,,,,,,,,,,,,,,,,,,0.0,32.0,32.0,32.0,1.0,,,,,,,,,,
1.0,1.0,0.897275,,,,,,eiffeltower.jpg,1.0,clockno_default.jpg,6.0,66,,,,,,,,,,,,,,,,,,0.0,33.0,33.0,33.0,1.0,,,,,,,,,,
0.0,1.0,0.49688,,,,,,sunflower_17s.jpg,0.0,clockno_default.jpg,6.0,66,,,,,,,,,,,,,,,,,,0.0,34.0,34.0,34.0,1.0,,,,,,,,,,
1.0,1.0,0.83886,,,,,,sunflower_17s.jpg,1.0,clockno_default.jpg,6.0,66,,,,,,,,,,,,,,,,,,0.0,35.0,35.0,35.0,1.0,,,,,,,,,,
,,,,,,,,,0.0,,,66,1.0,0.0,1.08402,,,,,,swan_11s.jpg,limousine_12s.jpg,,,,,,,,,,,,,0.0,0.0,0.0,0.0,1.0,,,,,
,,,,,,,,,0.0,,,66,0.0,1.0,0.8361,,,,,,swing_set_15s.jpg,ivy_12s.jpg,,,,,,,,,,,,,0.0,1.0,1.0,1.0,1.0,,,,,
,,,,,,,,,0.0,,,66,0.0,1.0,1.098735,,,,,,badge_03s.jpg,plug_08s.jpg,,,,,,,,,,,,,0.0,2.0,2.0,2.0,1.0,,,,,
,,,,,,,,,1.0,,,66,1.0,1.0,2.287755,,,,,,blowfish_03s.jpg,surfboard_11s.jpg,,,,,,,,,,,,,0.0,3.0,3.0,3.0,1.0,,,,,
,,,,,,,,,1.0,,,66,1.0,1.0,0.974985,,,,,,go-kart_10s.jpg,teapot_03s.jpg,,,,,,,,,,,,,0.0,4.0,4.0,4.0,1.0,,,,,
,,,,,,,,,0.0,,,66,0.0,1.0,0.876265,,,,,,penguin_16s.jpg,raccoon_02s.jpg,,,,,,,,,,,,,0.0,5.0,5.0,5.0,1.0,,,,,
,,,,,,,,,,,,66,,,,,,,,,,,,,,,,clockno_present_1_3.xlsx,clockno_compare_task_1_3.xlsx,,,,,,,,,,,0.0,0.0,0.0,0.0,1.0
0.0,1.0,2.427855,,,,,,tulip_02s.jpg,0.0,clockno_up.jpg,1.0,66,,,,,,,,,,,,,,,,,,0.0,0.0,0.0,0.0,1.0,,,,,,,,,,
0.0,1.0,0.702635,,,,,,telephone_pole_05s.jpg,0.0,clockno_default.jpg,1.0,66,,,,,,,,,,,,,,,,,,0.0,1.0,1.0,1.0,1.0,,,,,,,,,,
0.0,1.0,0.663855,,,,,,mousetrap_15n.jpg,0.0,clockno_default.jpg,1.0,66,,,,,,,,,,,,,,,,,,0.0,2.0,2.0,2.0,1.0,,,,,,,,,,
1.0,1.0,0.937165,,,,,,telephone_pole_05s.jpg,1.0,clockno_default.jpg,1.0,66,,,,,,,,,,,,,,,,,,0.0,3.0,3.0,3.0,1.0,,,,,,,,,,
1.0,1.0,0.640615,,,,,,telephone_pole_05s.jpg,1.0,clockno_default.jpg,1.0,66,,,,,,,,,,,,,,,,,,0.0,4.0,4.0,4.0,1.0,,,,,,,,,,
0.0,1.0,0.522235,,,,,,jelly_bean_06s.jpg,0.0,clockno_up.jpg,2.0,66,,,,,,,,,,,,,,,,,,0.0,5.0,5.0,5.0,1.0,,,,,,,,,,
0.0,1.0,0.77384,,,,,,fox_13s.jpg,0.0,clockno_default.jpg,2.0,66,,,,,,,,,,,,,,,,,,0.0,6.0,6.0,6.0,1.0,,,,,,,,,,
0.0,1.0,0.597255,,,,,,ice_pack_09s.jpg,0.0,clockno_default.jpg,2.0,66,,,,,,,,,,,,,,,,,,0.0,7.0,7.0,7.0,1.0,,,,,,,,,,
0.0,1.0,1.04918,,,,,,screwdriver02a.jpg,0.0,clockno_default.jpg,2.0,66,,,,,,,,,,,,,,,,,,0.0,8.0,8.0,8.0,1.0,,,,,,,,,,
1.0,1.0,0.76618,,,,,,jelly_bean_06s.jpg,1.0,clockno_default.jpg,2.0,66,,,,,,,,,,,,,,,,,,0.0,9.0,9.0,9.0,1.0,,,,,,,,,,
0.0,1.0,0.86407,,,,,,puddle_02s.jpg,0.0,clockno_up.jpg,3.0,66,,,,,,,,,,,,,,,,,,0.0,10.0,10.0,10.0,1.0,,,,,,,,,,
0.0,1.0,0.581725,,,,,,lamp_08s.jpg,0.0,clockno_default.jpg,3.0,66,,,,,,,,,,,,,,,,,,0.0,11.0,11.0,11.0,1.0,,,,,,,,,,
1.0,1.0,0.7553,,,,,,puddle_02s.jpg,1.0,clockno_default.jpg,3.0,66,,,,,,,,,,,,,,,,,,0.0,12.0,12.0,12.0,1.0,,,,,,,,,,
0.0,1.0,0.93598,,,,,,jelly_bean_06s.jpg,0.0,clockno_default.jpg,3.0,66,,,,,,,,,,,,,,,,,,0.0,13.0,13.0,13.0,1.0,,,,,,,,,,
0.0,1.0,1.43459,,,,,,kangaroo_02s.jpg,0.0,clockno_default.jpg,3.0,66,,,,,,,,,,,,,,,,,,0.0,14.0,14.0,14.0,1.0,,,,,,,,,,
0.0,1.0,0.86258,,,,,,tape_measure_11s.jpg,0.0,clockno_default.jpg,3.0,66,,,,,,,,,,,,,,,,,,0.0,15.0,15.0,15.0,1.0,,,,,,,,,,
0.0,1.0,1.130435,,,,,,funnel_01b.jpg,0.0,clockno_up.jpg,4.0,66,,,,,,,,,,,,,,,,,,0.0,16.0,16.0,16.0,1.0,,,,,,,,,,
0.0,1.0,0.78292,,,,,,razor_12s.jpg,0.0,clockno_default.jpg,4.0,66,,,,,,,,,,,,,,,,,,0.0,17.0,17.0,17.0,1.0,,,,,,,,,,
0.0,1.0,0.513975,,,,,,duck_01b.jpg,0.0,clockno_default.jpg,4.0,66,,,,,,,,,,,,,,,,,,0.0,18.0,18.0,18.0,1.0,,,,,,,,,,
0.0,1.0,0.830255,,,,,,pocket_watch_16s.jpg,0.0,clockno_default.jpg,4.0,66,,,,,,,,,,,,,,,,,,0.0,19.0,19.0,19.0,1.0,,,,,,,,,,
1.0,1.0,0.835865,,,,,,funnel_01b.jpg,1.0,clockno_default.jpg,4.0,66,,,,,,,,,,,,,,,,,,0.0,20.0,20.0,20.0,1.0,,,,,,,,,,
0.0,1.0,0.53941,,,,,,binder_21s.jpg,0.0,clockno_default.jpg,4.0,66,,,,,,,,,,,,,,,,,,0.0,21.0,21.0,21.0,1.0,,,,,,,,,,
0.0,1.0,1.412605,,,,,,stump_02s.jpg,0.0,clockno_default.jpg,4.0,66,,,,,,,,,,,,,,,,,,0.0,22.0,22.0,22.0,1.0,,,,,,,,,,
0.0,1.0,1.411435,,,,,,mud_13s.jpg,0.0,clockno_up.jpg,5.0,66,,,,,,,,,,,,,,,,,,0.0,23.0,23.0,23.0,1.0,,,,,,,,,,
1.0,1.0,0.687275,,,,,,mud_13s.jpg,1.0,clockno_default.jpg,5.0,66,,,,,,,,,,,,,,,,,,0.0,24.0,24.0,24.0,1.0,,,,,,,,,,
0.0,1.0,0.458805,,,,,,funnel_01b.jpg,0.0,clockno_default.jpg,5.0,66,,,,,,,,,,,,,,,,,,0.0,25.0,25.0,25.0,1.0,,,,,,,,,,
0.0,1.0,0.616945,,,,,,clover_04s.jpg,0.0,clockno_default.jpg,5.0,66,,,,,,,,,,,,,,,,,,0.0,26.0,26.0,26.0,1.0,,,,,,,,,,
0.0,1.0,0.66627,,,,,,letter_opener_03s.jpg,0.0,clockno_default.jpg,5.0,66,,,,,,,,,,,,,,,,,,0.0,27.0,27.0,27.0,1.0,,,,,,,,,,
0.0,1.0,0.983505,,,,,,lasagna_06s.jpg,0.0,clockno_default.jpg,5.0,66,,,,,,,,,,,,,,,,,,0.0,28.0,28.0,28.0,1.0,,,,,,,,,,
0.0,1.0,1.13379,,,,,,bacon_05s.jpg,0.0,clockno_default.jpg,5.0,66,,,,,,,,,,,,,,,,,,0.0,29.0,29.0,29.0,1.0,,,,,,,,,,
0.0,1.0,1.067325,,,,,,dirt_bike_11s.jpg,0.0,clockno_up.jpg,6.0,66,,,,,,,,,,,,,,,,,,0.0,30.0,30.0,30.0,1.0,,,,,,,,,,
0.0,1.0,0.71594,,,,,,rollerskate_03s.jpg,0.0,clockno_default.jpg,6.0,66,,,,,,,,,,,,,,,,,,0.0,31.0,31.0,31.0,1.0,,,,,,,,,,
0.0,1.0,0.649885,,,,,,mitten_10s.jpg,0.0,clockno_default.jpg,6.0,66,,,,,,,,,,,,,,,,,,0.0,32.0,32.0,32.0,1.0,,,,,,,,,,
1.0,1.0,0.71635,,,,,,mitten_10s.jpg,1.0,clockno_default.jpg,6.0,66,,,,,,,,,,,,,,,,,,0.0,33.0,33.0,33.0,1.0,,,,,,,,,,
0.0,1.0,1.299695,,,,,,emerald_02s.jpg,0.0,clockno_default.jpg,6.0,66,,,,,,,,,,,,,,,,,,0.0,34.0,34.0,34.0,1.0,,,,,,,,,,
0.0,1.0,1.1,,,,,,turf_03s.jpg,0.0,clockno_default.jpg,6.0,66,,,,,,,,,,,,,,,,,,0.0,35.0,35.0,35.0,1.0,,,,,,,,,,
,,,,,,,,,1.0,,,66,1.0,1.0,2.63141,,,,,,letter_opener_03s.jpg,dirt_bike_11s.jpg,,,,,,,,,,,,,0.0,0.0,0.0,0.0,1.0,,,,,
,,,,,,,,,0.0,,,66,1.0,0.0,1.677725,,,,,,lamp_08s.jpg,screwdriver02a.jpg,,,,,,,,,,,,,0.0,1.0,1.0,1.0,1.0,,,,,
,,,,,,,,,0.0,,,66,1.0,0.0,1.800665,,,,,,razor_12s.jpg,kangaroo_02s.jpg,,,,,,,,,,,,,0.0,2.0,2.0,2.0,1.0,,,,,
,,,,,,,,,0.0,,,66,0.0,1.0,2.01601,,,,,,stump_02s.jpg,pocket_watch_16s.jpg,,,,,,,,,,,,,0.0,3.0,3.0,3.0,1.0,,,,,
,,,,,,,,,1.0,,,66,1.0,1.0,1.066935,,,,,,clover_04s.jpg,bacon_05s.jpg,,,,,,,,,,,,,0.0,4.0,4.0,4.0,1.0,,,,,
,,,,,,,,,1.0,,,66,1.0,1.0,1.33246,,,,,,duck_01b.jpg,binder_21s.jpg,,,,,,,,,,,,,0.0,5.0,5.0,5.0,1.0,,,,,
,,,,,,,,,,,,66,,,,,,,,,,,,,,,,clockno_present_2_3.xlsx,clockno_compare_task_2_3.xlsx,,,,,,,,,,,0.0,1.0,1.0,1.0,1.0
0.0,1.0,1.96603,,,,,,mosquito_12s.jpg,0.0,clockno_up.jpg,1.0,66,,,,,,,,,,,,,,,,,,0.0,0.0,0.0,0.0,1.0,,,,,,,,,,
0.0,1.0,0.69895,,,,,,power_line_08s.jpg,0.0,clockno_default.jpg,1.0,66,,,,,,,,,,,,,,,,,,0.0,1.0,1.0,1.0,1.0,,,,,,,,,,
1.0,1.0,0.884085,,,,,,power_line_08s.jpg,1.0,clockno_default.jpg,1.0,66,,,,,,,,,,,,,,,,,,0.0,2.0,2.0,2.0,1.0,,,,,,,,,,
0.0,1.0,0.45633,,,,,,tennis_ball_06s.jpg,0.0,clockno_default.jpg,1.0,66,,,,,,,,,,,,,,,,,,0.0,3.0,3.0,3.0,1.0,,,,,,,,,,
0.0,1.0,0.67565,,,,,,syringe_02s.jpg,0.0,clockno_default.jpg,1.0,66,,,,,,,,,,,,,,,,,,0.0,4.0,4.0,4.0,1.0,,,,,,,,,,
1.0,1.0,1.08869,,,,,,power_line_08s.jpg,1.0,clockno_default.jpg,1.0,66,,,,,,,,,,,,,,,,,,0.0,5.0,5.0,5.0,1.0,,,,,,,,,,
0.0,1.0,0.603315,,,,,,phone_01b.jpg,0.0,clockno_default.jpg,1.0,66,,,,,,,,,,,,,,,,,,0.0,6.0,6.0,6.0,1.0,,,,,,,,,,
0.0,1.0,1.04618,,,,,,keyboard_05s.jpg,0.0,clockno_up.jpg,2.0,66,,,,,,,,,,,,,,,,,,0.0,7.0,7.0,7.0,1.0,,,,,,,,,,
1.0,1.0,0.71705,,,,,,keyboard_05s.jpg,1.0,clockno_default.jpg,2.0,66,,,,,,,,,,,,,,,,,,0.0,8.0,8.0,8.0,1.0,,,,,,,,,,
0.0,1.0,0.64124,,,,,,ant_12s.jpg,0.0,clockno_default.jpg,2.0,66,,,,,,,,,,,,,,,,,,0.0,9.0,9.0,9.0,1.0,,,,,,,,,,
0.0,1.0,0.734685,,,,,,squirrel_02s.jpg,0.0,clockno_default.jpg,2.0,66,,,,,,,,,,,,,,,,,,0.0,10.0,10.0,10.0,1.0,,,,,,,,,,
0.0,1.0,1.605295,,,,,,mailbox_11s.jpg,0.0,clockno_default.jpg,2.0,66,,,,,,,,,,,,,,,,,,0.0,11.0,11.0,11.0,1.0,,,,,,,,,,
0.0,1.0,1.09801,,,,,,medal_04s.jpg,0.0,clockno_up.jpg,3.0,66,,,,,,,,,,,,,,,,,,0.0,12.0,12.0,12.0,1.0,,,,,,,,,,
0.0,1.0,2.45285,,,,,,ice-cream_cone_06s.jpg,0.0,clockno_default.jpg,3.0,66,,,,,,,,,,,,,,,,,,0.0,13.0,13.0,13.0,1.0,,,,,,,,,,
0.0,1.0,0.808545,,,,,,rabbit_03s.jpg,0.0,clockno_default.jpg,3.0,66,,,,,,,,,,,,,,,,,,0.0,14.0,14.0,14.0,1.0,,,,,,,,,,
0.0,1.0,0.667055,,,,,,ukulele_02s.jpg,0.0,clockno_default.jpg,3.0,66,,,,,,,,,,,,,,,,,,0.0,15.0,15.0,15.0,1.0,,,,,,,,,,
0.0,1.0,0.80663,,,,,,marshmallow_08s.jpg,0.0,clockno_default.jpg,3.0,66,,,,,,,,,,,,,,,,,,0.0,16.0,16.0,16.0,1.0,,,,,,,,,,
0.0,1.0,0.537605,,,,,,air_pump_05s.jpg,0.0,clockno_up.jpg,4.0,66,,,,,,,,,,,,,,,,,,0.0,17.0,17.0,17.0,1.0,,,,,,,,,,
0.0,1.0,0.600645,,,,,,pocketknife_12s.jpg,0.0,clockno_default.jpg,4.0,66,,,,,,,,,,,,,,,,,,0.0,18.0,18.0,18.0,1.0,,,,,,,,,,
0.0,1.0,0.93356,,,,,,torch_02s.jpg,0.0,clockno_default.jpg,4.0,66,,,,,,,,,,,,,,,,,,0.0,19.0,19.0,19.0,1.0,,,,,,,,,,
1.0,1.0,0.75206,,,,,,torch_02s.jpg,1.0,clockno_default.jpg,4.0,66,,,,,,,,,,,,,,,,,,0.0,20.0,20.0,20.0,1.0,,,,,,,,,,
0.0,1.0,0.935495,,,,,,bank_06s.jpg,0.0,clockno_default.jpg,4.0,66,,,,,,,,,,,,,,,,,,0.0,21.0,21.0,21.0,1.0,,,,,,,,,,
0.0,1.0,0.98858,,,,,,bottle_opener_11s.jpg,0.0,clockno_default.jpg,4.0,66,,,,,,,,,,,,,,,,,,0.0,22.0,22.0,22.0,1.0,,,,,,,,,,
0.0,1.0,0.712985,,,,,,toilet_07s.jpg,0.0,clockno_default.jpg,4.0,66,,,,,,,,,,,,,,,,,,0.0,23.0,23.0,23.0,1.0,,,,,,,,,,
0.0,1.0,1.16151,,,,,,rocket_02s.jpg,0.0,clockno_up.jpg,5.0,66,,,,,,,,,,,,,,,,,,0.0,24.0,24.0,24.0,1.0,,,,,,,,,,
0.0,1.0,2.38564,,,,,,ravioli_08s.jpg,0.0,clockno_default.jpg,5.0,66,,,,,,,,,,,,,,,,,,0.0,25.0,25.0,25.0,1.0,,,,,,,,,,
1.0,1.0,0.563715,,,,,,ravioli_08s.jpg,1.0,clockno_default.jpg,5.0,66,,,,,,,,,,,,,,,,,,0.0,26.0,26.0,26.0,1.0,,,,,,,,,,
0.0,1.0,0.5334,,,,,,popsicle_02s.jpg,0.0,clockno_default.jpg,5.0,66,,,,,,,,,,,,,,,,,,0.0,27.0,27.0,27.0,1.0,,,,,,,,,,
1.0,1.0,1.547285,,,,,,rocket_02s.jpg,1.0,clockno_default.jpg,5.0,66,,,,,,,,,,,,,,,,,,0.0,28.0,28.0,28.0,1.0,,,,,,,,,,
0.0,1.0,0.646665,,,,,,onion_10s.jpg,0.0,clockno_default.jpg,5.0,66,,,,,,,,,,,,,,,,,,0.0,29.0,29.0,29.0,1.0,,,,,,,,,,
0.0,1.0,0.835005,,,,,,omelet_07s.jpg,0.0,clockno_up.jpg,6.0,66,,,,,,,,,,,,,,,,,,0.0,30.0,30.0,30.0,1.0,,,,,,,,,,
0.0,1.0,0.463945,,,,,,tennis_ball_06s.jpg,0.0,clockno_default.jpg,6.0,66,,,,,,,,,,,,,,,,,,0.0,31.0,31.0,31.0,1.0,,,,,,,,,,
0.0,1.0,0.451675,,,,,,microwave_02s.jpg,0.0,clockno_default.jpg,6.0,66,,,,,,,,,,,,,,,,,,0.0,32.0,32.0,32.0,1.0,,,,,,,,,,
0.0,1.0,0.82839,,,,,,chocolate_01b.jpg,0.0,clockno_default.jpg,6.0,66,,,,,,,,,,,,,,,,,,0.0,33.0,33.0,33.0,1.0,,,,,,,,,,
0.0,1.0,0.730145,,,,,,knot_01b.jpg,0.0,clockno_default.jpg,6.0,66,,,,,,,,,,,,,,,,,,0.0,34.0,34.0,34.0,1.0,,,,,,,,,,
0.0,1.0,0.652485,,,,,,rice_12s.jpg,0.0,clockno_default.jpg,6.0,66,,,,,,,,,,,,,,,,,,0.0,35.0,35.0,35.0,1.0,,,,,,,,,,
,,,,,,,,,0.0,,,66,1.0,0.0,1.298555,,,,,,ant_12s.jpg,phone_01b.jpg,,,,,,,,,,,,,0.0,0.0,0.0,0.0,1.0,,,,,
,,,,,,,,,1.0,,,66,1.0,1.0,1.231315,,,,,,mailbox_11s.jpg,rabbit_03s.jpg,,,,,,,,,,,,,0.0,1.0,1.0,1.0,1.0,,,,,
,,,,,,,,,1.0,,,66,1.0,1.0,1.699305,,,,,,squirrel_02s.jpg,ice-cream_cone_06s.jpg,,,,,,,,,,,,,0.0,2.0,2.0,2.0,1.0,,,,,
,,,,,,,,,1.0,,,66,0.0,0.0,2.379745,,,,,,pocketknife_12s.jpg,bank_06s.jpg,,,,,,,,,,,,,0.0,3.0,3.0,3.0,1.0,,,,,
,,,,,,,,,1.0,,,66,1.0,1.0,1.89836,,,,,,omelet_07s.jpg,chocolate_01b.jpg,,,,,,,,,,,,,0.0,4.0,4.0,4.0,1.0,,,,,
,,,,,,,,,0.0,,,66,0.0,1.0,2.06368,,,,,,rice_12s.jpg,microwave_02s.jpg,,,,,,,,,,,,,0.0,5.0,5.0,5.0,1.0,,,,,
,,,,,,,,,,,,66,,,,,,,,,,,,,,,,clockno_present_3_3.xlsx,clockno_compare_task_3_3.xlsx,,,,,,,,,,,0.0,2.0,2.0,2.0,1.0
0.0,1.0,1.904815,,,,,,trident_07s.jpg,0.0,clockno_up.jpg,1.0,66,,,,,,,,,,,,,,,,,,0.0,0.0,0.0,0.0,1.0,,,,,,,,,,
1.0,1.0,1.984215,,,,,,trident_07s.jpg,1.0,clockno_default.jpg,1.0,66,,,,,,,,,,,,,,,,,,0.0,1.0,1.0,1.0,1.0,,,,,,,,,,
1.0,1.0,0.463565,,,,,,trident_07s.jpg,1.0,clockno_default.jpg,1.0,66,,,,,,,,,,,,,,,,,,0.0,2.0,2.0,2.0,1.0,,,,,,,,,,
0.0,1.0,0.561995,,,,,,tie_03s.jpg,0.0,clockno_default.jpg,1.0,66,,,,,,,,,,,,,,,,,,0.0,3.0,3.0,3.0,1.0,,,,,,,,,,
0.0,1.0,0.63246,,,,,,loveseat_08s.jpg,0.0,clockno_default.jpg,1.0,66,,,,,,,,,,,,,,,,,,0.0,4.0,4.0,4.0,1.0,,,,,,,,,,
0.0,1.0,1.318225,,,,,,penlight_12s.jpg,0.0,clockno_default.jpg,1.0,66,,,,,,,,,,,,,,,,,,0.0,5.0,5.0,5.0,1.0,,,,,,,,,,
1.0,1.0,0.756975,,,,,,tie_03s.jpg,1.0,clockno_default.jpg,1.0,66,,,,,,,,,,,,,,,,,,0.0,6.0,6.0,6.0,1.0,,,,,,,,,,
0.0,1.0,0.505045,,,,,,frame_06s.jpg,0.0,clockno_up.jpg,2.0,66,,,,,,,,,,,,,,,,,,0.0,7.0,7.0,7.0,1.0,,,,,,,,,,
0.0,1.0,0.927255,,,,,,tie_03s.jpg,0.0,clockno_default.jpg,2.0,66,,,,,,,,,,,,,,,,,,0.0,8.0,8.0,8.0,1.0,,,,,,,,,,
0.0,1.0,0.56715,,,,,,rocking_chair_05s.jpg,0.0,clockno_default.jpg,2.0,66,,,,,,,,,,,,,,,,,,0.0,9.0,9.0,9.0,1.0,,,,,,,,,,
1.0,1.0,0.839105,,,,,,tie_03s.jpg,1.0,clockno_default.jpg,2.0,66,,,,,,,,,,,,,,,,,,0.0,10.0,10.0,10.0,1.0,,,,,,,,,,
0.0,1.0,0.645365,,,,,,metronome_03s.jpg,0.0,clockno_default.jpg,2.0,66,,,,,,,,,,,,,,,,,,0.0,11.0,11.0,11.0,1.0,,,,,,,,,,
0.0,1.0,0.83597,,,,,,foam_03s.jpg,0.0,clockno_default.jpg,2.0,66,,,,,,,,,,,,,,,,,,0.0,12.0,12.0,12.0,1.0,,,,,,,,,,
0.0,1.0,0.627055,,,,,,refrigerator_07s.jpg,0.0,clockno_up.jpg,3.0,66,,,,,,,,,,,,,,,,,,0.0,13.0,13.0,13.0,1.0,,,,,,,,,,
0.0,1.0,0.71183,,,,,,stingray_02s.jpg,0.0,clockno_default.jpg,3.0,66,,,,,,,,,,,,,,,,,,0.0,14.0,14.0,14.0,1.0,,,,,,,,,,
0.0,1.0,2.249865,,,,,,crystal_ball_12s.jpg,0.0,clockno_default.jpg,3.0,66,,,,,,,,,,,,,,,,,,0.0,15.0,15.0,15.0,1.0,,,,,,,,,,
0.0,1.0,0.58226,,,,,,lava_02s.jpg,0.0,clockno_default.jpg,3.0,66,,,,,,,,,,,,,,,,,,0.0,16.0,16.0,16.0,1.0,,,,,,,,,,
0.0,1.0,0.617215,,,,,,seahorse_13s.jpg,0.0,clockno_default.jpg,3.0,66,,,,,,,,,,,,,,,,,,0.0,17.0,17.0,17.0,1.0,,,,,,,,,,
0.0,1.0,0.799235,,,,,,stamp2_08s.jpg,0.0,clockno_up.jpg,4.0,66,,,,,,,,,,,,,,,,,,0.0,18.0,18.0,18.0,1.0,,,,,,,,,,
0.0,1.0,0.749815,,,,,,trident_07s.jpg,0.0,clockno_default.jpg,4.0,66,,,,,,,,,,,,,,,,,,0.0,19.0,19.0,19.0,1.0,,,,,,,,,,
0.0,1.0,0.59685,,,,,,rake_06s.jpg,0.0,clockno_default.jpg,4.0,66,,,,,,,,,,,,,,,,,,0.0,20.0,20.0,20.0,1.0,,,,,,,,,,
0.0,1.0,0.51716,,,,,,toaster_03s.jpg,0.0,clockno_default.jpg,4.0,66,,,,,,,,,,,,,,,,,,0.0,21.0,21.0,21.0,1.0,,,,,,,,,,
0.0,1.0,0.7841,,,,,,scooter.jpg,0.0,clockno_default.jpg,4.0,66,,,,,,,,,,,,,,,,,,0.0,22.0,22.0,22.0,1.0,,,,,,,,,,
1.0,1.0,0.903425,,,,,,toaster_03s.jpg,1.0,clockno_default.jpg,4.0,66,,,,,,,,,,,,,,,,,,0.0,23.0,23.0,23.0,1.0,,,,,,,,,,
0.0,1.0,1.71475,,,,,,meatball_13s.jpg,0.0,clockno_default.jpg,4.0,66,,,,,,,,,,,,,,,,,,0.0,24.0,24.0,24.0,1.0,,,,,,,,,,
0.0,1.0,0.702065,,,,,,lion_18s.jpg,0.0,clockno_up.jpg,5.0,66,,,,,,,,,,,,,,,,,,0.0,25.0,25.0,25.0,1.0,,,,,,,,,,
0.0,1.0,0.667195,,,,,,playpen_11s.jpg,0.0,clockno_default.jpg,5.0,66,,,,,,,,,,,,,,,,,,0.0,26.0,26.0,26.0,1.0,,,,,,,,,,
0.0,1.0,0.697035,,,,,,mango_09s.jpg,0.0,clockno_default.jpg,5.0,66,,,,,,,,,,,,,,,,,,0.0,27.0,27.0,27.0,1.0,,,,,,,,,,
0.0,1.0,0.66709,,,,,,laundry_basket_11s.jpg,0.0,clockno_default.jpg,5.0,66,,,,,,,,,,,,,,,,,,0.0,28.0,28.0,28.0,1.0,,,,,,,,,,
0.0,1.0,0.76966,,,,,,thermostat_02s.jpg,0.0,clockno_default.jpg,5.0,66,,,,,,,,,,,,,,,,,,0.0,29.0,29.0,29.0,1.0,,,,,,,,,,
0.0,1.0,0.896675,,,,,,treadmill_06s.jpg,0.0,clockno_up.jpg,6.0,66,,,,,,,,,,,,,,,,,,0.0,30.0,30.0,30.0,1.0,,,,,,,,,,
0.0,1.0,0.639035,,,,,,rocking_chair_05s.jpg,0.0,clockno_default.jpg,6.0,66,,,,,,,,,,,,,,,,,,0.0,31.0,31.0,31.0,1.0,,,,,,,,,,
0.0,1.0,0.65623,,,,,,basket_05s.jpg,0.0,clockno_default.jpg,6.0,66,,,,,,,,,,,,,,,,,,0.0,32.0,32.0,32.0,1.0,,,,,,,,,,
1.0,1.0,0.651985,,,,,,treadmill_06s.jpg,1.0,clockno_default.jpg,6.0,66,,,,,,,,,,,,,,,,,,0.0,33.0,33.0,33.0,1.0,,,,,,,,,,
0.0,1.0,1.07105,,,,,,foam_03s.jpg,0.0,clockno_default.jpg,6.0,66,,,,,,,,,,,,,,,,,,0.0,34.0,34.0,34.0,1.0,,,,,,,,,,
1.0,1.0,0.602035,,,,,,foam_03s.jpg,1.0,clockno_default.jpg,6.0,66,,,,,,,,,,,,,,,,,,0.0,35.0,35.0,35.0,1.0,,,,,,,,,,
,,,,,,,,,0.0,,,66,1.0,0.0,1.149045,,,,,,frame_06s.jpg,loveseat_08s.jpg,,,,,,,,,,,,,0.0,0.0,0.0,0.0,1.0,,,,,
,,,,,,,,,1.0,,,66,1.0,1.0,1.19753,,,,,,crystal_ball_12s.jpg,stamp2_08s.jpg,,,,,,,,,,,,,0.0,1.0,1.0,1.0,1.0,,,,,
,,,,,,,,,1.0,,,66,0.0,0.0,0.99861,,,,,,meatball_13s.jpg,mango_09s.jpg,,,,,,,,,,,,,0.0,2.0,2.0,2.0,1.0,,,,,
,,,,,,,,,0.0,,,66,1.0,0.0,0.8598,,,,,,lava_02s.jpg,refrigerator_07s.jpg,,,,,,,,,,,,,0.0,3.0,3.0,3.0,1.0,,,,,
,,,,,,,,,0.0,,,66,1.0,0.0,3.716175,,,,,,laundry_basket_11s.jpg,lion_18s.jpg,,,,,,,,,,,,,0.0,4.0,4.0,4.0,1.0,,,,,
,,,,,,,,,1.0,,,66,0.0,0.0,1.433935,,,,,,playpen_11s.jpg,thermostat_02s.jpg,,,,,,,,,,,,,0.0,5.0,5.0,5.0,1.0,,,,,
,,,,,,,,,,,,66,,,,,,,,,,,,,,,,clockno_present_4_3.xlsx,clockno_compare_task_4_3.xlsx,,,,,,,,,,,0.0,3.0,3.0,3.0,1.0
,0.0,,,,,,,latte_06s.jpg,0.0,clockno_up.jpg,1.0,66,,,,,,,,,,,,,,,,,,0.0,0.0,0.0,0.0,1.0,,,,,,,,,,
0.0,1.0,1.200395,,,,,,lemonade_04s.jpg,0.0,clockno_default.jpg,1.0,66,,,,,,,,,,,,,,,,,,0.0,1.0,1.0,1.0,1.0,,,,,,,,,,
1.0,1.0,0.749275,,,,,,lemonade_04s.jpg,1.0,clockno_default.jpg,1.0,66,,,,,,,,,,,,,,,,,,0.0,2.0,2.0,2.0,1.0,,,,,,,,,,
1.0,1.0,1.05086,,,,,,latte_06s.jpg,1.0,clockno_default.jpg,1.0,66,,,,,,,,,,,,,,,,,,0.0,3.0,3.0,3.0,1.0,,,,,,,,,,
0.0,0.0,1.23311,,,,,,lemonade_04s.jpg,1.0,clockno_default.jpg,1.0,66,,,,,,,,,,,,,,,,,,0.0,4.0,4.0,4.0,1.0,,,,,,,,,,
0.0,1.0,0.966735,,,,,,orangutan_03s.jpg,0.0,clockno_up.jpg,2.0,66,,,,,,,,,,,,,,,,,,0.0,5.0,5.0,5.0,1.0,,,,,,,,,,
0.0,1.0,0.61753,,,,,,pomegranate_04s.jpg,0.0,clockno_default.jpg,2.0,66,,,,,,,,,,,,,,,,,,0.0,6.0,6.0,6.0,1.0,,,,,,,,,,
0.0,1.0,0.63401,,,,,,jetski_10s.jpg,0.0,clockno_default.jpg,2.0,66,,,,,,,,,,,,,,,,,,0.0,7.0,7.0,7.0,1.0,,,,,,,,,,
0.0,1.0,0.551315,,,,,,champagne_18s.jpg,0.0,clockno_default.jpg,2.0,66,,,,,,,,,,,,,,,,,,0.0,8.0,8.0,8.0,1.0,,,,,,,,,,
0.0,1.0,0.86661,,,,,,spoon02a.jpg,0.0,clockno_default.jpg,2.0,66,,,,,,,,,,,,,,,,,,0.0,9.0,9.0,9.0,1.0,,,,,,,,,,
0.0,1.0,1.34092,,,,,,loom_05s.jpg,0.0,clockno_up.jpg,3.0,66,,,,,,,,,,,,,,,,,,0.0,10.0,10.0,10.0,1.0,,,,,,,,,,
1.0,1.0,0.714005,,,,,,loom_05s.jpg,1.0,clockno_default.jpg,3.0,66,,,,,,,,,,,,,,,,,,0.0,11.0,11.0,11.0,1.0,,,,,,,,,,
0.0,1.0,0.603675,,,,,,bagel_15s.jpg,0.0,clockno_default.jpg,3.0,66,,,,,,,,,,,,,,,,,,0.0,12.0,12.0,12.0,1.0,,,,,,,,,,
0.0,1.0,0.95672,,,,,,boar_10s.jpg,0.0,clockno_default.jpg,3.0,66,,,,,,,,,,,,,,,,,,0.0,13.0,13.0,13.0,1.0,,,,,,,,,,
0.0,1.0,0.597255,,,,,,pipe1_10s.jpg,0.0,clockno_default.jpg,3.0,66,,,,,,,,,,,,,,,,,,0.0,14.0,14.0,14.0,1.0,,,,,,,,,,
0.0,1.0,0.31724,,,,,,pepper2_21s.jpg,0.0,clockno_default.jpg,3.0,66,,,,,,,,,,,,,,,,,,0.0,15.0,15.0,15.0,1.0,,,,,,,,,,
0.0,1.0,2.21841,,,,,,powder_07s.jpg,0.0,clockno_up.jpg,4.0,66,,,,,,,,,,,,,,,,,,0.0,16.0,16.0,16.0,1.0,,,,,,,,,,
0.0,1.0,0.714635,,,,,,fishhook_06s.jpg,0.0,clockno_default.jpg,4.0,66,,,,,,,,,,,,,,,,,,0.0,17.0,17.0,17.0,1.0,,,,,,,,,,
0.0,1.0,0.581945,,,,,,briefcase_03s.jpg,0.0,clockno_default.jpg,4.0,66,,,,,,,,,,,,,,,,,,0.0,18.0,18.0,18.0,1.0,,,,,,,,,,
0.0,1.0,0.65613,,,,,,rug_09s.jpg,0.0,clockno_default.jpg,4.0,66,,,,,,,,,,,,,,,,,,0.0,19.0,19.0,19.0,1.0,,,,,,,,,,
1.0,1.0,0.78161,,,,,,fishhook_06s.jpg,1.0,clockno_default.jpg,4.0,66,,,,,,,,,,,,,,,,,,0.0,20.0,20.0,20.0,1.0,,,,,,,,,,
1.0,1.0,1.062065,,,,,,rug_09s.jpg,1.0,clockno_default.jpg,4.0,66,,,,,,,,,,,,,,,,,,0.0,21.0,21.0,21.0,1.0,,,,,,,,,,
0.0,1.0,0.995545,,,,,,aluminum_foil_08s.jpg,0.0,clockno_up.jpg,5.0,66,,,,,,,,,,,,,,,,,,0.0,22.0,22.0,22.0,1.0,,,,,,,,,,
0.0,1.0,0.62222,,,,,,pea_11s.jpg,0.0,clockno_default.jpg,5.0,66,,,,,,,,,,,,,,,,,,0.0,23.0,23.0,23.0,1.0,,,,,,,,,,
0.0,1.0,0.750675,,,,,,flip_flop_03s.jpg,0.0,clockno_default.jpg,5.0,66,,,,,,,,,,,,,,,,,,0.0,24.0,24.0,24.0,1.0,,,,,,,,,,
0.0,1.0,1.02995,,,,,,mixer_12s.jpg,0.0,clockno_default.jpg,5.0,66,,,,,,,,,,,,,,,,,,0.0,25.0,25.0,25.0,1.0,,,,,,,,,,
0.0,1.0,2.21601,,,,,,ironing_board_07s.jpg,0.0,clockno_default.jpg,5.0,66,,,,,,,,,,,,,,,,,,0.0,26.0,26.0,26.0,1.0,,,,,,,,,,
0.0,1.0,0.84719,,,,,,fishhook_06s.jpg,0.0,clockno_default.jpg,5.0,66,,,,,,,,,,,,,,,,,,0.0,27.0,27.0,27.0,1.0,,,,,,,,,,
1.0,1.0,1.00045,,,,,,pea_11s.jpg,1.0,clockno_default.jpg,5.0,66,,,,,,,,,,,,,,,,,,0.0,28.0,28.0,28.0,1.0,,,,,,,,,,
0.0,1.0,0.868325,,,,,,chalice_10s.jpg,0.0,clockno_up.jpg,6.0,66,,,,,,,,,,,,,,,,,,0.0,29.0,29.0,29.0,1.0,,,,,,,,,,
0.0,1.0,1.26457,,,,,,triangle_10s.jpg,0.0,clockno_default.jpg,6.0,66,,,,,,,,,,,,,,,,,,0.0,30.0,30.0,30.0,1.0,,,,,,,,,,
0.0,1.0,0.666455,,,,,,iron_13s.jpg,0.0,clockno_default.jpg,6.0,66,,,,,,,,,,,,,,,,,,0.0,31.0,31.0,31.0,1.0,,,,,,,,,,
1.0,1.0,2.29821,,,,,,chalice_10s.jpg,1.0,clockno_default.jpg,6.0,66,,,,,,,,,,,,,,,,,,0.0,32.0,32.0,32.0,1.0,,,,,,,,,,
0.0,1.0,0.59941,,,,,,puffin_19s.jpg,0.0,clockno_default.jpg,6.0,66,,,,,,,,,,,,,,,,,,0.0,33.0,33.0,33.0,1.0,,,,,,,,,,
0.0,1.0,0.86559,,,,,,saddle_06s.jpg,0.0,clockno_default.jpg,6.0,66,,,,,,,,,,,,,,,,,,0.0,34.0,34.0,34.0,1.0,,,,,,,,,,
0.0,1.0,0.716785,,,,,,megaphone_03s.jpg,0.0,clockno_default.jpg,6.0,66,,,,,,,,,,,,,,,,,,0.0,35.0,35.0,35.0,1.0,,,,,,,,,,
,,,,,,,,,0.0,,,66,1.0,0.0,0.901445,,,,,,powder_07s.jpg,boar_10s.jpg,,,,,,,,,,,,,0.0,0.0,0.0,0.0,1.0,,,,,
,,,,,,,,,0.0,,,66,1.0,0.0,1.084055,,,,,,briefcase_03s.jpg,pepper2_21s.jpg,,,,,,,,,,,,,0.0,1.0,1.0,1.0,1.0,,,,,
,,,,,,,,,1.0,,,66,0.0,0.0,1.149855,,,,,,spoon02a.jpg,bagel_15s.jpg,,,,,,,,,,,,,0.0,2.0,2.0,2.0,1.0,,,,,
,,,,,,,,,1.0,,,66,1.0,1.0,1.784795,,,,,,orangutan_03s.jpg,champagne_18s.jpg,,,,,,,,,,,,,0.0,3.0,3.0,3.0,1.0,,,,,
,,,,,,,,,0.0,,,66,0.0,1.0,1.93355,,,,,,mixer_12s.jpg,aluminum_foil_08s.jpg,,,,,,,,,,,,,0.0,4.0,4.0,4.0,1.0,,,,,
,,,,,,,,,1.0,,,66,0.0,0.0,1.599155,,,,,,triangle_10s.jpg,puffin_19s.jpg,,,,,,,,,,,,,0.0,5.0,5.0,5.0,1.0,,,,,
,,,,,,,,,,,,66,,,,,,,,,,,,,,,,clockno_present_5_3.xlsx,clockno_compare_task_5_3.xlsx,,,,,,,,,,,0.0,4.0,4.0,4.0,1.0
0.0,1.0,1.461685,,,,,,padlock_07s.jpg,0.0,clockno_up.jpg,1.0,66,,,,,,,,,,,,,,,,,,0.0,0.0,0.0,0.0,1.0,,,,,,,,,,
1.0,1.0,2.349835,,,,,,padlock_07s.jpg,1.0,clockno_default.jpg,1.0,66,,,,,,,,,,,,,,,,,,0.0,1.0,1.0,1.0,1.0,,,,,,,,,,
0.0,1.0,0.56837,,,,,,paper_towel_03s.jpg,0.0,clockno_default.jpg,1.0,66,,,,,,,,,,,,,,,,,,0.0,2.0,2.0,2.0,1.0,,,,,,,,,,
0.0,1.0,0.80033,,,,,,perfume_06s.jpg,0.0,clockno_default.jpg,1.0,66,,,,,,,,,,,,,,,,,,0.0,3.0,3.0,3.0,1.0,,,,,,,,,,
0.0,1.0,0.81869,,,,,,thorn_13s.jpg,0.0,clockno_default.jpg,1.0,66,,,,,,,,,,,,,,,,,,0.0,4.0,4.0,4.0,1.0,,,,,,,,,,
0.0,1.0,0.912865,,,,,,film_03s.jpg,0.0,clockno_up.jpg,2.0,66,,,,,,,,,,,,,,,,,,0.0,5.0,5.0,5.0,1.0,,,,,,,,,,
0.0,1.0,0.70024,,,,,,pan_02s.jpg,0.0,clockno_default.jpg,2.0,66,,,,,,,,,,,,,,,,,,0.0,6.0,6.0,6.0,1.0,,,,,,,,,,
1.0,1.0,0.77904,,,,,,pan_02s.jpg,1.0,clockno_default.jpg,2.0,66,,,,,,,,,,,,,,,,,,0.0,7.0,7.0,7.0,1.0,,,,,,,,,,
0.0,1.0,0.562315,,,,,,seagull_01b.jpg,0.0,clockno_default.jpg,2.0,66,,,,,,,,,,,,,,,,,,0.0,8.0,8.0,8.0,1.0,,,,,,,,,,
1.0,1.0,1.11738,,,,,,seagull_01b.jpg,1.0,clockno_default.jpg,2.0,66,,,,,,,,,,,,,,,,,,0.0,9.0,9.0,9.0,1.0,,,,,,,,,,
0.0,1.0,0.58372,,,,,,perfume_06s.jpg,0.0,clockno_default.jpg,2.0,66,,,,,,,,,,,,,,,,,,0.0,10.0,10.0,10.0,1.0,,,,,,,,,,
0.0,1.0,0.916015,,,,,,ram_05s.jpg,0.0,clockno_up.jpg,3.0,66,,,,,,,,,,,,,,,,,,0.0,11.0,11.0,11.0,1.0,,,,,,,,,,
0.0,1.0,0.68214,,,,,,stamp1_11s.jpg,0.0,clockno_default.jpg,3.0,66,,,,,,,,,,,,,,,,,,0.0,12.0,12.0,12.0,1.0,,,,,,,,,,
0.0,1.0,0.99999,,,,,,thorn_13s.jpg,0.0,clockno_default.jpg,3.0,66,,,,,,,,,,,,,,,,,,0.0,13.0,13.0,13.0,1.0,,,,,,,,,,
0.0,1.0,0.73251,,,,,,jersey_02s.jpg,0.0,clockno_default.jpg,3.0,66,,,,,,,,,,,,,,,,,,0.0,14.0,14.0,14.0,1.0,,,,,,,,,,
1.0,1.0,0.78295,,,,,,thorn_13s.jpg,1.0,clockno_default.jpg,3.0,66,,,,,,,,,,,,,,,,,,0.0,15.0,15.0,15.0,1.0,,,,,,,,,,
0.0,1.0,1.33237,,,,,,coat_rack_01b.jpg,0.0,clockno_default.jpg,3.0,66,,,,,,,,,,,,,,,,,,0.0,16.0,16.0,16.0,1.0,,,,,,,,,,
1.0,1.0,0.73303,,,,,,stamp1_11s.jpg,1.0,clockno_default.jpg,3.0,66,,,,,,,,,,,,,,,,,,0.0,17.0,17.0,17.0,1.0,,,,,,,,,,
0.0,1.0,0.581615,,,,,,flask_04s.jpg,0.0,clockno_up.jpg,4.0,66,,,,,,,,,,,,,,,,,,0.0,18.0,18.0,18.0,1.0,,,,,,,,,,
0.0,1.0,0.551805,,,,,,gazelle_10s.jpg,0.0,clockno_default.jpg,4.0,66,,,,,,,,,,,,,,,,,,0.0,19.0,19.0,19.0,1.0,,,,,,,,,,
0.0,1.0,0.71757,,,,,,mascara_03s.jpg,0.0,clockno_default.jpg,4.0,66,,,,,,,,,,,,,,,,,,0.0,20.0,20.0,20.0,1.0,,,,,,,,,,
0.0,1.0,0.75022,,,,,,tuxedo_01b.jpg,0.0,clockno_default.jpg,4.0,66,,,,,,,,,,,,,,,,,,0.0,21.0,21.0,21.0,1.0,,,,,,,,,,
0.0,1.0,0.73376,,,,,,radiator_05s.jpg,0.0,clockno_default.jpg,4.0,66,,,,,,,,,,,,,,,,,,0.0,22.0,22.0,22.0,1.0,,,,,,,,,,
0.0,1.0,0.57596,,,,,,possum_09s.jpg,0.0,clockno_default.jpg,4.0,66,,,,,,,,,,,,,,,,,,0.0,23.0,23.0,23.0,1.0,,,,,,,,,,
0.0,1.0,1.046255,,,,,,pacifier_09s.jpg,0.0,clockno_up.jpg,5.0,66,,,,,,,,,,,,,,,,,,0.0,24.0,24.0,24.0,1.0,,,,,,,,,,
0.0,1.0,0.51301,,,,,,paper_towel_03s.jpg,0.0,clockno_default.jpg,5.0,66,,,,,,,,,,,,,,,,,,0.0,25.0,25.0,25.0,1.0,,,,,,,,,,
0.0,1.0,0.61268,,,,,,peanut_butter_08s.jpg,0.0,clockno_default.jpg,5.0,66,,,,,,,,,,,,,,,,,,0.0,26.0,26.0,26.0,1.0,,,,,,,,,,
0.0,1.0,0.55345,,,,,,crossbow_10s.jpg,0.0,clockno_default.jpg,5.0,66,,,,,,,,,,,,,,,,,,0.0,27.0,27.0,27.0,1.0,,,,,,,,,,
0.0,1.0,0.579555,,,,,,pepper_mill_03s.jpg,0.0,clockno_default.jpg,5.0,66,,,,,,,,,,,,,,,,,,0.0,28.0,28.0,28.0,1.0,,,,,,,,,,
0.0,1.0,0.93118,,,,,,owl_15s.jpg,0.0,clockno_up.jpg,6.0,66,,,,,,,,,,,,,,,,,,0.0,29.0,29.0,29.0,1.0,,,,,,,,,,
0.0,1.0,0.56265,,,,,,raspberry_12s.jpg,0.0,clockno_default.jpg,6.0,66,,,,,,,,,,,,,,,,,,0.0,30.0,30.0,30.0,1.0,,,,,,,,,,
0.0,1.0,0.55067,,,,,,printer_09s.jpg,0.0,clockno_default.jpg,6.0,66,,,,,,,,,,,,,,,,,,0.0,31.0,31.0,31.0,1.0,,,,,,,,,,
0.0,1.0,0.616285,,,,,,stamp1_11s.jpg,0.0,clockno_default.jpg,6.0,66,,,,,,,,,,,,,,,,,,0.0,32.0,32.0,32.0,1.0,,,,,,,,,,
0.0,1.0,0.61904,,,,,,cap_05s.jpg,0.0,clockno_default.jpg,6.0,66,,,,,,,,,,,,,,,,,,0.0,33.0,33.0,33.0,1.0,,,,,,,,,,
1.0,1.0,0.94883,,,,,,cap_05s.jpg,1.0,clockno_default.jpg,6.0,66,,,,,,,,,,,,,,,,,,0.0,34.0,34.0,34.0,1.0,,,,,,,,,,
0.0,1.0,0.783115,,,,,,stethoscope_01b.jpg,0.0,clockno_default.jpg,6.0,66,,,,,,,,,,,,,,,,,,0.0,35.0,35.0,35.0,1.0,,,,,,,,,,
,,,,,,,,,1.0,,,66,1.0,1.0,1.68484,,,,,,peanut_butter_08s.jpg,owl_15s.jpg,,,,,,,,,,,,,0.0,0.0,0.0,0.0,1.0,,,,,
,,,,,,,,,1.0,,,66,1.0,1.0,1.06785,,,,,,pepper_mill_03s.jpg,printer_09s.jpg,,,,,,,,,,,,,0.0,1.0,1.0,1.0,1.0,,,,,
,,,,,,,,,1.0,,,66,1.0,1.0,1.766165,,,,,,coat_rack_01b.jpg,gazelle_10s.jpg,,,,,,,,,,,,,0.0,2.0,2.0,2.0,1.0,,,,,
,,,,,,,,,1.0,,,66,0.0,0.0,0.967555,,,,,,ram_05s.jpg,jersey_02s.jpg,,,,,,,,,,,,,0.0,3.0,3.0,3.0,1.0,,,,,
,,,,,,,,,1.0,,,66,0.0,0.0,2.050035,,,,,,flask_04s.jpg,tuxedo_01b.jpg,,,,,,,,,,,,,0.0,4.0,4.0,4.0,1.0,,,,,
,,,,,,,,,0.0,,,66,1.0,0.0,1.417315,,,,,,possum_09s.jpg,mascara_03s.jpg,,,,,,,,,,,,,0.0,5.0,5.0,5.0,1.0,,,,,
