key_resp.keys,key_resp.corr,present_segment.thisRepN,present_segment.thisTrialN,present_segment.thisN,present_segment.thisIndex,present_segment.ran,pictures,answer,clock,segment,participant,key_resp.rt,key_resp_2.keys,key_resp_2.corr,key_resp_2.rt,compare_segment.thisRepN,compare_segment.thisTrialN,compare_segment.thisN,compare_segment.thisIndex,compare_segment.ran,item_a,item_b,clock_conditions.thisRepN,clock_conditions.thisTrialN,clock_conditions.thisN,clock_conditions.thisIndex,clock_conditions.ran,present,compare,noclock_present.thisRepN,noclock_present.thisTrialN,noclock_present.thisN,noclock_present.thisIndex,noclock_present.ran,noclock_compare.thisRepN,noclock_compare.thisTrialN,noclock_compare.thisN,noclock_compare.thisIndex,noclock_compare.ran,noclock_conditions.thisRepN,noclock_conditions.thisTrialN,noclock_conditions.thisN,noclock_conditions.thisIndex,noclock_conditions.ran
,0.0,0.0,0.0,0.0,0.0,1.0,prism_10s.jpg,0.0,clock_5_1.png,1.0,67,,,,,,,,,,,,,,,,,,,,,,,,,,,,,,,,,
0.0,1.0,0.0,1.0,1.0,1.0,1.0,snowman_02s.jpg,0.0,clock_5_2.png,1.0,67,0.748425,,,,,,,,,,,,,,,,,,,,,,,,,,,,,,,,
0.0,1.0,0.0,2.0,2.0,2.0,1.0,safety_pin_02s.jpg,0.0,clock_5_3.png,1.0,67,0.75588,,,,,,,,,,,,,,,,,,,,,,,,,,,,,,,,
1.0,1.0,0.0,3.0,3.0,3.0,1.0,prism_10s.jpg,1.0,clock_5_4.png,1.0,67,1.61266,,,,,,,,,,,,,,,,,,,,,,,,,,,,,,,,
0.0,1.0,0.0,4.0,4.0,4.0,1.0,peppermint_07s.jpg,0.0,clock_5_5.png,1.0,67,0.62963,,,,,,,,,,,,,,,,,,,,,,,,,,,,,,,,
0.0,1.0,0.0,5.0,5.0,5.0,1.0,radio_09s.jpg,0.0,clock_6_1.png,2.0,67,1.01304,,,,,,,,,,,,,,,,,,,,,,,,,,,,,,,,
0.0,1.0,0.0,6.0,6.0,6.0,1.0,tablet_04s.jpg,0.0,clock_6_2.png,2.0,67,1.263385,,,,,,,,,,,,,,,,,,,,,,,,,,,,,,,,
0.0,1.0,0.0,7.0,7.0,7.0,1.0,sleeping_bag_12s.jpg,0.0,clock_6_3.png,2.0,67,1.941485,,,,,,,,,,,,,,,,,,,,,,,,,,,,,,,,
0.0,1.0,0.0,8.0,8.0,8.0,1.0,racehorse_03s.jpg,0.0,clock_6_4.png,2.0,67,1.875785,,,,,,,,,,,,,,,,,,,,,,,,,,,,,,,,
0.0,1.0,0.0,9.0,9.0,9.0,1.0,peppermint_07s.jpg,0.0,clock_6_5.png,2.0,67,1.927695,,,,,,,,,,,,,,,,,,,,,,,,,,,,,,,,
0.0,1.0,0.0,10.0,10.0,10.0,1.0,jukebox_03n.jpg,0.0,clock_6_6.png,2.0,67,0.486545,,,,,,,,,,,,,,,,,,,,,,,,,,,,,,,,
0.0,1.0,0.0,11.0,11.0,11.0,1.0,moth_06n.jpg,0.0,clock_6_1.png,3.0,67,0.546305,,,,,,,,,,,,,,,,,,,,,,,,,,,,,,,,
0.0,1.0,0.0,12.0,12.0,12.0,1.0,ant_12s.jpg,0.0,clock_6_2.png,3.0,67,0.445375,,,,,,,,,,,,,,,,,,,,,,,,,,,,,,,,
0.0,1.0,0.0,13.0,13.0,13.0,1.0,chocolate_01b.jpg,0.0,clock_6_3.png,3.0,67,0.699945,,,,,,,,,,,,,,,,,,,,,,,,,,,,,,,,
0.0,1.0,0.0,14.0,14.0,14.0,1.0,puck_06s.jpg,0.0,clock_6_4.png,3.0,67,0.80661,,,,,,,,,,,,,,,,,,,,,,,,,,,,,,,,
1.0,1.0,0.0,15.0,15.0,15.0,1.0,chocolate_01b.jpg,1.0,clock_6_5.png,3.0,67,1.37015,,,,,,,,,,,,,,,,,,,,,,,,,,,,,,,,
0.0,1.0,0.0,16.0,16.0,16.0,1.0,orchid_01b.jpg,0.0,clock_6_6.png,3.0,67,0.413715,,,,,,,,,,,,,,,,,,,,,,,,,,,,,,,,
0.0,1.0,0.0,17.0,17.0,17.0,1.0,pillow_03s.jpg,0.0,clock_7_1.png,4.0,67,0.893695,,,,,,,,,,,,,,,,,,,,,,,,,,,,,,,,
,0.0,0.0,18.0,18.0,18.0,1.0,pillow_03s.jpg,1.0,clock_7_2.png,4.0,67,,,,,,,,,,,,,,,,,,,,,,,,,,,,,,,,,
0.0,1.0,0.0,19.0,19.0,19.0,1.0,loom_05s.jpg,0.0,clock_7_3.png,4.0,67,1.61187,,,,,,,,,,,,,,,,,,,,,,,,,,,,,,,,
0.0,1.0,0.0,20.0,20.0,20.0,1.0,kangaroo_02s.jpg,0.0,clock_7_4.png,4.0,67,0.444165,,,,,,,,,,,,,,,,,,,,,,,,,,,,,,,,
0.0,1.0,0.0,21.0,21.0,21.0,1.0,plunger_08s.jpg,0.0,clock_7_5.png,4.0,67,0.437315,,,,,,,,,,,,,,,,,,,,,,,,,,,,,,,,
0.0,1.0,0.0,22.0,22.0,22.0,1.0,refrigerator_07s.jpg,0.0,clock_7_6.png,4.0,67,1.098825,,,,,,,,,,,,,,,,,,,,,,,,,,,,,,,,
0.0,1.0,0.0,23.0,23.0,23.0,1.0,mousetrap_15n.jpg,0.0,clock_7_7.png,4.0,67,0.368715,,,,,,,,,,,,,,,,,,,,,,,,,,,,,,,,
0.0,1.0,0.0,24.0,24.0,24.0,1.0,margarita_03s.jpg,0.0,clock_5_1.png,5.0,67,0.44195,,,,,,,,,,,,,,,,,,,,,,,,,,,,,,,,
0.0,1.0,0.0,25.0,25.0,25.0,1.0,plaster_cast_13s.jpg,0.0,clock_5_2.png,5.0,67,0.38108,,,,,,,,,,,,,,,,,,,,,,,,,,,,,,,,
0.0,1.0,0.0,26.0,26.0,26.0,1.0,radio_09s.jpg,0.0,clock_5_3.png,5.0,67,0.806405,,,,,,,,,,,,,,,,,,,,,,,,,,,,,,,,
0.0,1.0,0.0,27.0,27.0,27.0,1.0,footprint_11s.jpg,0.0,clock_5_4.png,5.0,67,1.216525,,,,,,,,,,,,,,,,,,,,,,,,,,,,,,,,
0.0,1.0,0.0,28.0,28.0,28.0,1.0,ant_12s.jpg,0.0,clock_5_5.png,5.0,67,0.87818,,,,,,,,,,,,,,,,,,,,,,,,,,,,,,,,
0.0,1.0,0.0,29.0,29.0,29.0,1.0,tiger_06s.jpg,0.0,clock_7_1.png,6.0,67,0.347515,,,,,,,,,,,,,,,,,,,,,,,,,,,,,,,,
0.0,1.0,0.0,30.0,30.0,30.0,1.0,fishhook_06s.jpg,0.0,clock_7_2.png,6.0,67,0.39124,,,,,,,,,,,,,,,,,,,,,,,,,,,,,,,,
0.0,1.0,0.0,31.0,31.0,31.0,1.0,poinsettia_04s.jpg,0.0,clock_7_3.png,6.0,67,0.409435,,,,,,,,,,,,,,,,,,,,,,,,,,,,,,,,
0.0,0.0,0.0,32.0,32.0,32.0,1.0,tiger_06s.jpg,1.0,clock_7_4.png,6.0,67,0.329515,,,,,,,,,,,,,,,,,,,,,,,,,,,,,,,,
0.0,1.0,0.0,33.0,33.0,33.0,1.0,limousine_12s.jpg,0.0,clock_7_5.png,6.0,67,0.52801,,,,,,,,,,,,,,,,,,,,,,,,,,,,,,,,
0.0,1.0,0.0,34.0,34.0,34.0,1.0,submarine_11n.jpg,0.0,clock_7_6.png,6.0,67,0.464095,,,,,,,,,,,,,,,,,,,,,,,,,,,,,,,,
0.0,1.0,0.0,35.0,35.0,35.0,1.0,quill_09s.jpg,0.0,clock_7_7.png,6.0,67,0.405185,,,,,,,,,,,,,,,,,,,,,,,,,,,,,,,,
,,,,,,,,0.0,,,67,,1.0,0.0,1.481105,0.0,0.0,0.0,0.0,1.0,moth_06n.jpg,racehorse_03s.jpg,,,,,,,,,,,,,,,,,,,,,,
,,,,,,,,1.0,,,67,,1.0,1.0,1.688045,0.0,1.0,1.0,1.0,1.0,orchid_01b.jpg,loom_05s.jpg,,,,,,,,,,,,,,,,,,,,,,
,,,,,,,,0.0,,,67,,1.0,0.0,2.22745,0.0,2.0,2.0,2.0,1.0,margarita_03s.jpg,plunger_08s.jpg,,,,,,,,,,,,,,,,,,,,,,
,,,,,,,,1.0,,,67,,1.0,1.0,0.89025,0.0,3.0,3.0,3.0,1.0,sleeping_bag_12s.jpg,jukebox_03n.jpg,,,,,,,,,,,,,,,,,,,,,,
,,,,,,,,1.0,,,67,,1.0,1.0,0.83629,0.0,4.0,4.0,4.0,1.0,kangaroo_02s.jpg,mousetrap_15n.jpg,,,,,,,,,,,,,,,,,,,,,,
,,,,,,,,0.0,,,67,,1.0,0.0,1.03481,0.0,5.0,5.0,5.0,1.0,submarine_11n.jpg,poinsettia_04s.jpg,,,,,,,,,,,,,,,,,,,,,,
,,,,,,,,,,,67,,,,,,,,,,,,0.0,0.0,0.0,0.0,1.0,clock_present_1_16.xlsx,clock_compare_task_1_16.xlsx,,,,,,,,,,,,,,,
0.0,1.0,0.0,0.0,0.0,0.0,1.0,metronome_03s.jpg,0.0,clock_5_1.png,1.0,67,1.98646,,,,,,,,,,,,,,,,,,,,,,,,,,,,,,,,
0.0,1.0,0.0,1.0,1.0,1.0,1.0,cereal_04s.jpg,0.0,clock_5_2.png,1.0,67,0.614075,,,,,,,,,,,,,,,,,,,,,,,,,,,,,,,,
0.0,1.0,0.0,2.0,2.0,2.0,1.0,tripod_01b.jpg,0.0,clock_5_3.png,1.0,67,0.52347,,,,,,,,,,,,,,,,,,,,,,,,,,,,,,,,
0.0,1.0,0.0,3.0,3.0,3.0,1.0,thermostat_02s.jpg,0.0,clock_5_4.png,1.0,67,0.831895,,,,,,,,,,,,,,,,,,,,,,,,,,,,,,,,
0.0,1.0,0.0,4.0,4.0,4.0,1.0,jalapeno_15s.jpg,0.0,clock_5_5.png,1.0,67,0.500485,,,,,,,,,,,,,,,,,,,,,,,,,,,,,,,,
0.0,1.0,0.0,5.0,5.0,5.0,1.0,aluminum_foil_08s.jpg,0.0,clock_6_1.png,2.0,67,0.567725,,,,,,,,,,,,,,,,,,,,,,,,,,,,,,,,
0.0,1.0,0.0,6.0,6.0,6.0,1.0,medal_04s.jpg,0.0,clock_6_2.png,2.0,67,0.43992,,,,,,,,,,,,,,,,,,,,,,,,,,,,,,,,
0.0,1.0,0.0,7.0,7.0,7.0,1.0,flip_flop_03s.jpg,0.0,clock_6_3.png,2.0,67,0.405805,,,,,,,,,,,,,,,,,,,,,,,,,,,,,,,,
0.0,1.0,0.0,8.0,8.0,8.0,1.0,orangutan_03s.jpg,0.0,clock_6_4.png,2.0,67,0.558055,,,,,,,,,,,,,,,,,,,,,,,,,,,,,,,,
0.0,1.0,0.0,9.0,9.0,9.0,1.0,otter_05s.jpg,0.0,clock_6_5.png,2.0,67,0.441995,,,,,,,,,,,,,,,,,,,,,,,,,,,,,,,,
0.0,1.0,0.0,10.0,10.0,10.0,1.0,polar_bear_02s.jpg,0.0,clock_6_6.png,2.0,67,0.42671,,,,,,,,,,,,,,,,,,,,,,,,,,,,,,,,
0.0,1.0,0.0,11.0,11.0,11.0,1.0,pocketknife_12s.jpg,0.0,clock_7_1.png,3.0,67,0.5166,,,,,,,,,,,,,,,,,,,,,,,,,,,,,,,,
0.0,0.0,0.0,12.0,12.0,12.0,1.0,pocketknife_12s.jpg,1.0,clock_7_2.png,3.0,67,0.395775,,,,,,,,,,,,,,,,,,,,,,,,,,,,,,,,
0.0,1.0,0.0,13.0,13.0,13.0,1.0,tulip_02s.jpg,0.0,clock_7_3.png,3.0,67,0.568295,,,,,,,,,,,,,,,,,,,,,,,,,,,,,,,,
0.0,1.0,0.0,14.0,14.0,14.0,1.0,lamb_chop_07s.jpg,0.0,clock_7_4.png,3.0,67,0.679335,,,,,,,,,,,,,,,,,,,,,,,,,,,,,,,,
0.0,1.0,0.0,15.0,15.0,15.0,1.0,tape_measure_11s.jpg,0.0,clock_7_5.png,3.0,67,0.445865,,,,,,,,,,,,,,,,,,,,,,,,,,,,,,,,
1.0,1.0,0.0,16.0,16.0,16.0,1.0,pocketknife_12s.jpg,1.0,clock_7_6.png,3.0,67,0.921775,,,,,,,,,,,,,,,,,,,,,,,,,,,,,,,,
0.0,1.0,0.0,17.0,17.0,17.0,1.0,pear_02s.jpg,0.0,clock_7_7.png,3.0,67,0.5703,,,,,,,,,,,,,,,,,,,,,,,,,,,,,,,,
0.0,1.0,0.0,18.0,18.0,18.0,1.0,lectern_08s.jpg,0.0,clock_6_1.png,4.0,67,0.695565,,,,,,,,,,,,,,,,,,,,,,,,,,,,,,,,
0.0,1.0,0.0,19.0,19.0,19.0,1.0,pineapple_12s.jpg,0.0,clock_6_2.png,4.0,67,0.498385,,,,,,,,,,,,,,,,,,,,,,,,,,,,,,,,
0.0,1.0,0.0,20.0,20.0,20.0,1.0,stamp1_11s.jpg,0.0,clock_6_3.png,4.0,67,0.37005,,,,,,,,,,,,,,,,,,,,,,,,,,,,,,,,
0.0,1.0,0.0,21.0,21.0,21.0,1.0,boomerang_06s.jpg,0.0,clock_6_4.png,4.0,67,0.52805,,,,,,,,,,,,,,,,,,,,,,,,,,,,,,,,
0.0,1.0,0.0,22.0,22.0,22.0,1.0,screwdriver02a.jpg,0.0,clock_6_5.png,4.0,67,0.581435,,,,,,,,,,,,,,,,,,,,,,,,,,,,,,,,
0.0,1.0,0.0,23.0,23.0,23.0,1.0,solar_panel_02s.jpg,0.0,clock_6_6.png,4.0,67,0.549185,,,,,,,,,,,,,,,,,,,,,,,,,,,,,,,,
0.0,1.0,0.0,24.0,24.0,24.0,1.0,tile_08s.jpg,0.0,clock_5_1.png,5.0,67,0.667735,,,,,,,,,,,,,,,,,,,,,,,,,,,,,,,,
0.0,1.0,0.0,25.0,25.0,25.0,1.0,roulette_wheel_04s.jpg,0.0,clock_5_2.png,5.0,67,0.451085,,,,,,,,,,,,,,,,,,,,,,,,,,,,,,,,
0.0,1.0,0.0,26.0,26.0,26.0,1.0,lid_10s.jpg,0.0,clock_5_3.png,5.0,67,0.586885,,,,,,,,,,,,,,,,,,,,,,,,,,,,,,,,
0.0,1.0,0.0,27.0,27.0,27.0,1.0,pineapple_12s.jpg,0.0,clock_5_4.png,5.0,67,0.510105,,,,,,,,,,,,,,,,,,,,,,,,,,,,,,,,
0.0,1.0,0.0,28.0,28.0,28.0,1.0,potpourri_03s.jpg,0.0,clock_5_5.png,5.0,67,0.62602,,,,,,,,,,,,,,,,,,,,,,,,,,,,,,,,
0.0,1.0,0.0,29.0,29.0,29.0,1.0,measuring_cup_02s.jpg,0.0,clock_7_1.png,6.0,67,0.57522,,,,,,,,,,,,,,,,,,,,,,,,,,,,,,,,
0.0,1.0,0.0,30.0,30.0,30.0,1.0,kite_04s.jpg,0.0,clock_7_2.png,6.0,67,0.413095,,,,,,,,,,,,,,,,,,,,,,,,,,,,,,,,
0.0,1.0,0.0,31.0,31.0,31.0,1.0,solar_panel_02s.jpg,0.0,clock_7_3.png,6.0,67,0.70018,,,,,,,,,,,,,,,,,,,,,,,,,,,,,,,,
0.0,1.0,0.0,32.0,32.0,32.0,1.0,piano_13n.jpg,0.0,clock_7_4.png,6.0,67,0.397385,,,,,,,,,,,,,,,,,,,,,,,,,,,,,,,,
0.0,1.0,0.0,33.0,33.0,33.0,1.0,sea_urchin_09s.jpg,0.0,clock_7_5.png,6.0,67,0.61593,,,,,,,,,,,,,,,,,,,,,,,,,,,,,,,,
0.0,1.0,0.0,34.0,34.0,34.0,1.0,thermostat_02s.jpg,0.0,clock_7_6.png,6.0,67,0.365065,,,,,,,,,,,,,,,,,,,,,,,,,,,,,,,,
0.0,1.0,0.0,35.0,35.0,35.0,1.0,stapler_01b.jpg,0.0,clock_7_7.png,6.0,67,0.64453,,,,,,,,,,,,,,,,,,,,,,,,,,,,,,,,
,,,,,,,,0.0,,,67,,1.0,0.0,1.15239,0.0,0.0,0.0,0.0,1.0,aluminum_foil_08s.jpg,tripod_01b.jpg,,,,,,,,,,,,,,,,,,,,,,
,,,,,,,,0.0,,,67,,0.0,1.0,2.32978,0.0,1.0,1.0,1.0,1.0,tulip_02s.jpg,polar_bear_02s.jpg,,,,,,,,,,,,,,,,,,,,,,
,,,,,,,,1.0,,,67,,0.0,0.0,1.378375,0.0,2.0,2.0,2.0,1.0,tape_measure_11s.jpg,lectern_08s.jpg,,,,,,,,,,,,,,,,,,,,,,
,,,,,,,,1.0,,,67,,1.0,1.0,1.49971,0.0,3.0,3.0,3.0,1.0,medal_04s.jpg,otter_05s.jpg,,,,,,,,,,,,,,,,,,,,,,
,,,,,,,,1.0,,,67,,0.0,0.0,1.18381,0.0,4.0,4.0,4.0,1.0,kite_04s.jpg,sea_urchin_09s.jpg,,,,,,,,,,,,,,,,,,,,,,
,,,,,,,,1.0,,,67,,1.0,1.0,1.223665,0.0,5.0,5.0,5.0,1.0,piano_13n.jpg,stapler_01b.jpg,,,,,,,,,,,,,,,,,,,,,,
,,,,,,,,,,,67,,,,,,,,,,,,0.0,1.0,1.0,1.0,1.0,clock_present_2_16.xlsx,clock_compare_task_2_16.xlsx,,,,,,,,,,,,,,,
0.0,1.0,0.0,0.0,0.0,0.0,1.0,trampoline_13s.jpg,0.0,clock_5_1.png,1.0,67,1.021955,,,,,,,,,,,,,,,,,,,,,,,,,,,,,,,,
0.0,1.0,0.0,1.0,1.0,1.0,1.0,ice_pack_09s.jpg,0.0,clock_5_2.png,1.0,67,0.59331,,,,,,,,,,,,,,,,,,,,,,,,,,,,,,,,
0.0,1.0,0.0,2.0,2.0,2.0,1.0,printer_09s.jpg,0.0,clock_5_3.png,1.0,67,0.39925,,,,,,,,,,,,,,,,,,,,,,,,,,,,,,,,
0.0,0.0,0.0,3.0,3.0,3.0,1.0,ice_pack_09s.jpg,1.0,clock_5_4.png,1.0,67,0.6661,,,,,,,,,,,,,,,,,,,,,,,,,,,,,,,,
0.0,1.0,0.0,4.0,4.0,4.0,1.0,koala_13s.jpg,0.0,clock_5_5.png,1.0,67,0.41149,,,,,,,,,,,,,,,,,,,,,,,,,,,,,,,,
0.0,1.0,0.0,5.0,5.0,5.0,1.0,key_07s.jpg,0.0,clock_5_1.png,2.0,67,0.69963,,,,,,,,,,,,,,,,,,,,,,,,,,,,,,,,
0.0,1.0,0.0,6.0,6.0,6.0,1.0,lamppost_09s.jpg,0.0,clock_5_2.png,2.0,67,0.37089,,,,,,,,,,,,,,,,,,,,,,,,,,,,,,,,
0.0,1.0,0.0,7.0,7.0,7.0,1.0,jigsaw_puzzle_11s.jpg,0.0,clock_5_3.png,2.0,67,0.347085,,,,,,,,,,,,,,,,,,,,,,,,,,,,,,,,
0.0,1.0,0.0,8.0,8.0,8.0,1.0,pantyhose_07s.jpg,0.0,clock_5_4.png,2.0,67,0.3257,,,,,,,,,,,,,,,,,,,,,,,,,,,,,,,,
0.0,1.0,0.0,9.0,9.0,9.0,1.0,typewriter_11s.jpg,0.0,clock_5_5.png,2.0,67,0.346235,,,,,,,,,,,,,,,,,,,,,,,,,,,,,,,,
0.0,1.0,0.0,10.0,10.0,10.0,1.0,rocking_horse_03s.jpg,0.0,clock_7_1.png,3.0,67,0.40957,,,,,,,,,,,,,,,,,,,,,,,,,,,,,,,,
1.0,1.0,0.0,11.0,11.0,11.0,1.0,rocking_horse_03s.jpg,1.0,clock_7_2.png,3.0,67,1.686305,,,,,,,,,,,,,,,,,,,,,,,,,,,,,,,,
0.0,1.0,0.0,12.0,12.0,12.0,1.0,spider_web_03s.jpg,0.0,clock_7_3.png,3.0,67,0.511995,,,,,,,,,,,,,,,,,,,,,,,,,,,,,,,,
0.0,1.0,0.0,13.0,13.0,13.0,1.0,hydrant_10s.jpg,0.0,clock_7_4.png,3.0,67,0.378385,,,,,,,,,,,,,,,,,,,,,,,,,,,,,,,,
0.0,1.0,0.0,14.0,14.0,14.0,1.0,recliner_02s.jpg,0.0,clock_7_5.png,3.0,67,0.368855,,,,,,,,,,,,,,,,,,,,,,,,,,,,,,,,
0.0,1.0,0.0,15.0,15.0,15.0,1.0,pantyhose_07s.jpg,0.0,clock_7_6.png,3.0,67,0.41282,,,,,,,,,,,,,,,,,,,,,,,,,,,,,,,,
0.0,1.0,0.0,16.0,16.0,16.0,1.0,mosquito_12s.jpg,0.0,clock_7_7.png,3.0,67,0.55535,,,,,,,,,,,,,,,,,,,,,,,,,,,,,,,,
0.0,1.0,0.0,17.0,17.0,17.0,1.0,pan_02s.jpg,0.0,clock_7_1.png,4.0,67,1.386825,,,,,,,,,,,,,,,,,,,,,,,,,,,,,,,,
0.0,1.0,0.0,18.0,18.0,18.0,1.0,rope_16s.jpg,0.0,clock_7_2.png,4.0,67,0.409635,,,,,,,,,,,,,,,,,,,,,,,,,,,,,,,,
0.0,1.0,0.0,19.0,19.0,19.0,1.0,diving_board_07s.jpg,0.0,clock_7_3.png,4.0,67,0.519585,,,,,,,,,,,,,,,,,,,,,,,,,,,,,,,,
0.0,1.0,0.0,20.0,20.0,20.0,1.0,lamppost_09s.jpg,0.0,clock_7_4.png,4.0,67,0.372575,,,,,,,,,,,,,,,,,,,,,,,,,,,,,,,,
0.0,1.0,0.0,21.0,21.0,21.0,1.0,tape_06s.jpg,0.0,clock_7_5.png,4.0,67,0.487425,,,,,,,,,,,,,,,,,,,,,,,,,,,,,,,,
0.0,1.0,0.0,22.0,22.0,22.0,1.0,keyhole_03s.jpg,0.0,clock_7_6.png,4.0,67,0.377565,,,,,,,,,,,,,,,,,,,,,,,,,,,,,,,,
0.0,1.0,0.0,23.0,23.0,23.0,1.0,compass_10n.jpg,0.0,clock_7_7.png,4.0,67,0.498895,,,,,,,,,,,,,,,,,,,,,,,,,,,,,,,,
0.0,1.0,0.0,24.0,24.0,24.0,1.0,coconut_08s.jpg,0.0,clock_6_1.png,5.0,67,0.313735,,,,,,,,,,,,,,,,,,,,,,,,,,,,,,,,
0.0,1.0,0.0,25.0,25.0,25.0,1.0,bolo_tie_08s.jpg,0.0,clock_6_2.png,5.0,67,0.42602,,,,,,,,,,,,,,,,,,,,,,,,,,,,,,,,
0.0,1.0,0.0,26.0,26.0,26.0,1.0,frog_09s.jpg,0.0,clock_6_3.png,5.0,67,0.342695,,,,,,,,,,,,,,,,,,,,,,,,,,,,,,,,
0.0,1.0,0.0,27.0,27.0,27.0,1.0,mop_08s.jpg,0.0,clock_6_4.png,5.0,67,0.434115,,,,,,,,,,,,,,,,,,,,,,,,,,,,,,,,
0.0,1.0,0.0,28.0,28.0,28.0,1.0,jewel_01b.jpg,0.0,clock_6_5.png,5.0,67,0.4361,,,,,,,,,,,,,,,,,,,,,,,,,,,,,,,,
1.0,1.0,0.0,29.0,29.0,29.0,1.0,mop_08s.jpg,1.0,clock_6_6.png,5.0,67,1.654565,,,,,,,,,,,,,,,,,,,,,,,,,,,,,,,,
0.0,1.0,0.0,30.0,30.0,30.0,1.0,leash_10s.jpg,0.0,clock_6_1.png,6.0,67,0.690595,,,,,,,,,,,,,,,,,,,,,,,,,,,,,,,,
1.0,1.0,0.0,31.0,31.0,31.0,1.0,leash_10s.jpg,1.0,clock_6_2.png,6.0,67,2.062705,,,,,,,,,,,,,,,,,,,,,,,,,,,,,,,,
1.0,1.0,0.0,32.0,32.0,32.0,1.0,leash_10s.jpg,1.0,clock_6_3.png,6.0,67,1.425095,,,,,,,,,,,,,,,,,,,,,,,,,,,,,,,,
0.0,1.0,0.0,33.0,33.0,33.0,1.0,abacus_12s.jpg,0.0,clock_6_4.png,6.0,67,0.532705,,,,,,,,,,,,,,,,,,,,,,,,,,,,,,,,
0.0,1.0,0.0,34.0,34.0,34.0,1.0,compass_10n.jpg,0.0,clock_6_5.png,6.0,67,0.98366,,,,,,,,,,,,,,,,,,,,,,,,,,,,,,,,
0.0,1.0,0.0,35.0,35.0,35.0,1.0,marker_05s.jpg,0.0,clock_6_6.png,6.0,67,0.423895,,,,,,,,,,,,,,,,,,,,,,,,,,,,,,,,
,,,,,,,,1.0,,,67,,0.0,0.0,1.9245,0.0,0.0,0.0,0.0,1.0,printer_09s.jpg,key_07s.jpg,,,,,,,,,,,,,,,,,,,,,,
,,,,,,,,1.0,,,67,,1.0,1.0,1.533025,0.0,1.0,1.0,1.0,1.0,koala_13s.jpg,jigsaw_puzzle_11s.jpg,,,,,,,,,,,,,,,,,,,,,,
,,,,,,,,0.0,,,67,,1.0,0.0,1.38666,0.0,2.0,2.0,2.0,1.0,spider_web_03s.jpg,typewriter_11s.jpg,,,,,,,,,,,,,,,,,,,,,,
,,,,,,,,0.0,,,67,,0.0,1.0,1.46385,0.0,3.0,3.0,3.0,1.0,mosquito_12s.jpg,hydrant_10s.jpg,,,,,,,,,,,,,,,,,,,,,,
,,,,,,,,0.0,,,67,,1.0,0.0,1.29208,0.0,4.0,4.0,4.0,1.0,tape_06s.jpg,rope_16s.jpg,,,,,,,,,,,,,,,,,,,,,,
,,,,,,,,0.0,,,67,,1.0,0.0,1.405405,0.0,5.0,5.0,5.0,1.0,jewel_01b.jpg,bolo_tie_08s.jpg,,,,,,,,,,,,,,,,,,,,,,
,,,,,,,,,,,67,,,,,,,,,,,,0.0,2.0,2.0,2.0,1.0,clock_present_3_16.xlsx,clock_compare_task_3_16.xlsx,,,,,,,,,,,,,,,
,0.0,0.0,0.0,0.0,0.0,1.0,mud_13s.jpg,0.0,clock_5_1.png,1.0,67,,,,,,,,,,,,,,,,,,,,,,,,,,,,,,,,,
0.0,1.0,0.0,1.0,1.0,1.0,1.0,mannequin_05s.jpg,0.0,clock_5_2.png,1.0,67,0.486745,,,,,,,,,,,,,,,,,,,,,,,,,,,,,,,,
0.0,1.0,0.0,2.0,2.0,2.0,1.0,turtleneck_11s.jpg,0.0,clock_5_3.png,1.0,67,0.500215,,,,,,,,,,,,,,,,,,,,,,,,,,,,,,,,
0.0,1.0,0.0,3.0,3.0,3.0,1.0,umbrella_15s.jpg,0.0,clock_5_4.png,1.0,67,0.861255,,,,,,,,,,,,,,,,,,,,,,,,,,,,,,,,
1.0,1.0,0.0,4.0,4.0,4.0,1.0,mannequin_05s.jpg,1.0,clock_5_5.png,1.0,67,1.546,,,,,,,,,,,,,,,,,,,,,,,,,,,,,,,,
0.0,1.0,0.0,5.0,5.0,5.0,1.0,quad_04s.jpg,0.0,clock_7_1.png,2.0,67,1.264435,,,,,,,,,,,,,,,,,,,,,,,,,,,,,,,,
0.0,1.0,0.0,6.0,6.0,6.0,1.0,inhaler_01b.jpg,0.0,clock_7_2.png,2.0,67,0.3044,,,,,,,,,,,,,,,,,,,,,,,,,,,,,,,,
0.0,1.0,0.0,7.0,7.0,7.0,1.0,lollipop_08s.jpg,0.0,clock_7_3.png,2.0,67,0.334255,,,,,,,,,,,,,,,,,,,,,,,,,,,,,,,,
0.0,1.0,0.0,8.0,8.0,8.0,1.0,rocket_02s.jpg,0.0,clock_7_4.png,2.0,67,0.44672,,,,,,,,,,,,,,,,,,,,,,,,,,,,,,,,
0.0,1.0,0.0,9.0,9.0,9.0,1.0,spacesuit_02s.jpg,0.0,clock_7_5.png,2.0,67,0.461555,,,,,,,,,,,,,,,,,,,,,,,,,,,,,,,,
0.0,1.0,0.0,10.0,10.0,10.0,1.0,quesadilla_07s.jpg,0.0,clock_7_6.png,2.0,67,0.53251,,,,,,,,,,,,,,,,,,,,,,,,,,,,,,,,
0.0,1.0,0.0,11.0,11.0,11.0,1.0,punch1_10s.jpg,0.0,clock_7_7.png,2.0,67,0.4124,,,,,,,,,,,,,,,,,,,,,,,,,,,,,,,,
0.0,1.0,0.0,12.0,12.0,12.0,1.0,swimming_pool_17s.jpg,0.0,clock_5_1.png,3.0,67,0.51431,,,,,,,,,,,,,,,,,,,,,,,,,,,,,,,,
0.0,1.0,0.0,13.0,13.0,13.0,1.0,espresso_01b.jpg,0.0,clock_5_2.png,3.0,67,0.72059,,,,,,,,,,,,,,,,,,,,,,,,,,,,,,,,
0.0,1.0,0.0,14.0,14.0,14.0,1.0,torch_02s.jpg,0.0,clock_5_3.png,3.0,67,0.78928,,,,,,,,,,,,,,,,,,,,,,,,,,,,,,,,
0.0,1.0,0.0,15.0,15.0,15.0,1.0,spacesuit_02s.jpg,0.0,clock_5_4.png,3.0,67,0.298375,,,,,,,,,,,,,,,,,,,,,,,,,,,,,,,,
0.0,1.0,0.0,16.0,16.0,16.0,1.0,pipe1_10s.jpg,0.0,clock_5_5.png,3.0,67,0.83316,,,,,,,,,,,,,,,,,,,,,,,,,,,,,,,,
0.0,1.0,0.0,17.0,17.0,17.0,1.0,hummingbird_05s.jpg,0.0,clock_6_1.png,4.0,67,0.398195,,,,,,,,,,,,,,,,,,,,,,,,,,,,,,,,
0.0,1.0,0.0,18.0,18.0,18.0,1.0,scooter.jpg,0.0,clock_6_2.png,4.0,67,0.614235,,,,,,,,,,,,,,,,,,,,,,,,,,,,,,,,
0.0,1.0,0.0,19.0,19.0,19.0,1.0,sunglasses_11s.jpg,0.0,clock_6_3.png,4.0,67,0.698555,,,,,,,,,,,,,,,,,,,,,,,,,,,,,,,,
0.0,0.0,0.0,20.0,20.0,20.0,1.0,hummingbird_05s.jpg,1.0,clock_6_4.png,4.0,67,0.593635,,,,,,,,,,,,,,,,,,,,,,,,,,,,,,,,
0.0,1.0,0.0,21.0,21.0,21.0,1.0,ice-cream_cone_06s.jpg,0.0,clock_6_5.png,4.0,67,0.535015,,,,,,,,,,,,,,,,,,,,,,,,,,,,,,,,
0.0,1.0,0.0,22.0,22.0,22.0,1.0,ink_08s.jpg,0.0,clock_6_6.png,4.0,67,0.56169,,,,,,,,,,,,,,,,,,,,,,,,,,,,,,,,
0.0,1.0,0.0,23.0,23.0,23.0,1.0,butter_14s.jpg,0.0,clock_6_1.png,5.0,67,0.52385,,,,,,,,,,,,,,,,,,,,,,,,,,,,,,,,
0.0,1.0,0.0,24.0,24.0,24.0,1.0,ink_08s.jpg,0.0,clock_6_2.png,5.0,67,0.535855,,,,,,,,,,,,,,,,,,,,,,,,,,,,,,,,
0.0,1.0,0.0,25.0,25.0,25.0,1.0,foam_03s.jpg,0.0,clock_6_3.png,5.0,67,0.478875,,,,,,,,,,,,,,,,,,,,,,,,,,,,,,,,
0.0,1.0,0.0,26.0,26.0,26.0,1.0,lava_02s.jpg,0.0,clock_6_4.png,5.0,67,0.52801,,,,,,,,,,,,,,,,,,,,,,,,,,,,,,,,
0.0,1.0,0.0,27.0,27.0,27.0,1.0,rudder_02s.jpg,0.0,clock_6_5.png,5.0,67,1.283405,,,,,,,,,,,,,,,,,,,,,,,,,,,,,,,,
0.0,1.0,0.0,28.0,28.0,28.0,1.0,tab_09s.jpg,0.0,clock_6_6.png,5.0,67,0.852655,,,,,,,,,,,,,,,,,,,,,,,,,,,,,,,,
0.0,1.0,0.0,29.0,29.0,29.0,1.0,lemonade_04s.jpg,0.0,clock_7_1.png,6.0,67,0.392845,,,,,,,,,,,,,,,,,,,,,,,,,,,,,,,,
0.0,1.0,0.0,30.0,30.0,30.0,1.0,lollipop_08s.jpg,0.0,clock_7_2.png,6.0,67,0.60801,,,,,,,,,,,,,,,,,,,,,,,,,,,,,,,,
0.0,1.0,0.0,31.0,31.0,31.0,1.0,teabag_12s.jpg,0.0,clock_7_3.png,6.0,67,0.488795,,,,,,,,,,,,,,,,,,,,,,,,,,,,,,,,
0.0,1.0,0.0,32.0,32.0,32.0,1.0,sunglasses_11s.jpg,0.0,clock_7_4.png,6.0,67,0.429655,,,,,,,,,,,,,,,,,,,,,,,,,,,,,,,,
1.0,1.0,0.0,33.0,33.0,33.0,1.0,lemonade_04s.jpg,1.0,clock_7_5.png,6.0,67,1.6265,,,,,,,,,,,,,,,,,,,,,,,,,,,,,,,,
0.0,1.0,0.0,34.0,34.0,34.0,1.0,fire_pit_10s.jpg,0.0,clock_7_6.png,6.0,67,0.645585,,,,,,,,,,,,,,,,,,,,,,,,,,,,,,,,
0.0,1.0,0.0,35.0,35.0,35.0,1.0,crayon_09s.jpg,0.0,clock_7_7.png,6.0,67,0.41473,,,,,,,,,,,,,,,,,,,,,,,,,,,,,,,,
,,,,,,,,0.0,,,67,,0.0,1.0,2.35017,0.0,0.0,0.0,0.0,1.0,quad_04s.jpg,turtleneck_11s.jpg,,,,,,,,,,,,,,,,,,,,,,
,,,,,,,,1.0,,,67,,1.0,1.0,1.47239,0.0,1.0,1.0,1.0,1.0,umbrella_15s.jpg,inhaler_01b.jpg,,,,,,,,,,,,,,,,,,,,,,
,,,,,,,,1.0,,,67,,1.0,1.0,1.233115,0.0,2.0,2.0,2.0,1.0,quesadilla_07s.jpg,espresso_01b.jpg,,,,,,,,,,,,,,,,,,,,,,
,,,,,,,,1.0,,,67,,1.0,1.0,1.50001,0.0,3.0,3.0,3.0,1.0,scooter.jpg,ice-cream_cone_06s.jpg,,,,,,,,,,,,,,,,,,,,,,
,,,,,,,,1.0,,,67,,1.0,1.0,1.438365,0.0,4.0,4.0,4.0,1.0,butter_14s.jpg,lava_02s.jpg,,,,,,,,,,,,,,,,,,,,,,
,,,,,,,,1.0,,,67,,1.0,1.0,1.078295,0.0,5.0,5.0,5.0,1.0,rocket_02s.jpg,punch1_10s.jpg,,,,,,,,,,,,,,,,,,,,,,
,,,,,,,,,,,67,,,,,,,,,,,,0.0,3.0,3.0,3.0,1.0,clock_present_4_16.xlsx,clock_compare_task_4_16.xlsx,,,,,,,,,,,,,,,
0.0,1.0,0.0,0.0,0.0,0.0,1.0,clover_04s.jpg,0.0,clock_6_1.png,1.0,67,1.00132,,,,,,,,,,,,,,,,,,,,,,,,,,,,,,,,
0.0,1.0,0.0,1.0,1.0,1.0,1.0,kayak_08s.jpg,0.0,clock_6_2.png,1.0,67,0.317805,,,,,,,,,,,,,,,,,,,,,,,,,,,,,,,,
0.0,1.0,0.0,2.0,2.0,2.0,1.0,toothpaste_12s.jpg,0.0,clock_6_3.png,1.0,67,0.380745,,,,,,,,,,,,,,,,,,,,,,,,,,,,,,,,
0.0,0.0,0.0,3.0,3.0,3.0,1.0,kayak_08s.jpg,1.0,clock_6_4.png,1.0,67,0.397735,,,,,,,,,,,,,,,,,,,,,,,,,,,,,,,,
1.0,1.0,0.0,4.0,4.0,4.0,1.0,clover_04s.jpg,1.0,clock_6_5.png,1.0,67,1.414045,,,,,,,,,,,,,,,,,,,,,,,,,,,,,,,,
0.0,1.0,0.0,5.0,5.0,5.0,1.0,bonsai_07s.jpg,0.0,clock_6_6.png,1.0,67,0.5633,,,,,,,,,,,,,,,,,,,,,,,,,,,,,,,,
0.0,1.0,0.0,6.0,6.0,6.0,1.0,comic_book_02s.jpg,0.0,clock_5_1.png,2.0,67,0.38818,,,,,,,,,,,,,,,,,,,,,,,,,,,,,,,,
0.0,1.0,0.0,7.0,7.0,7.0,1.0,penlight_12s.jpg,0.0,clock_5_2.png,2.0,67,0.379135,,,,,,,,,,,,,,,,,,,,,,,,,,,,,,,,
0.0,1.0,0.0,8.0,8.0,8.0,1.0,emerald_02s.jpg,0.0,clock_5_3.png,2.0,67,0.38243,,,,,,,,,,,,,,,,,,,,,,,,,,,,,,,,
0.0,1.0,0.0,9.0,9.0,9.0,1.0,mussel_11s.jpg,0.0,clock_5_4.png,2.0,67,0.402235,,,,,,,,,,,,,,,,,,,,,,,,,,,,,,,,
0.0,1.0,0.0,10.0,10.0,10.0,1.0,rock_08s.jpg,0.0,clock_5_5.png,2.0,67,0.29438,,,,,,,,,,,,,,,,,,,,,,,,,,,,,,,,
0.0,1.0,0.0,11.0,11.0,11.0,1.0,toilet_paper_12s.jpg,0.0,clock_6_1.png,3.0,67,0.321215,,,,,,,,,,,,,,,,,,,,,,,,,,,,,,,,
0.0,1.0,0.0,12.0,12.0,12.0,1.0,microwave_02s.jpg,0.0,clock_6_2.png,3.0,67,0.394155,,,,,,,,,,,,,,,,,,,,,,,,,,,,,,,,
0.0,0.0,0.0,13.0,13.0,13.0,1.0,toilet_paper_12s.jpg,1.0,clock_6_3.png,3.0,67,2.413515,,,,,,,,,,,,,,,,,,,,,,,,,,,,,,,,
0.0,1.0,0.0,14.0,14.0,14.0,1.0,mattress_01s.jpg,0.0,clock_6_4.png,3.0,67,0.2958,,,,,,,,,,,,,,,,,,,,,,,,,,,,,,,,
0.0,1.0,0.0,15.0,15.0,15.0,1.0,cushion_08s.jpg,0.0,clock_6_5.png,3.0,67,0.361035,,,,,,,,,,,,,,,,,,,,,,,,,,,,,,,,
0.0,1.0,0.0,16.0,16.0,16.0,1.0,rhinoceros_02s.jpg,0.0,clock_6_6.png,3.0,67,0.370505,,,,,,,,,,,,,,,,,,,,,,,,,,,,,,,,
0.0,1.0,0.0,17.0,17.0,17.0,1.0,latte_06s.jpg,0.0,clock_5_1.png,4.0,67,0.653775,,,,,,,,,,,,,,,,,,,,,,,,,,,,,,,,
0.0,1.0,0.0,18.0,18.0,18.0,1.0,projector_08s.jpg,0.0,clock_5_2.png,4.0,67,1.897245,,,,,,,,,,,,,,,,,,,,,,,,,,,,,,,,
0.0,1.0,0.0,19.0,19.0,19.0,1.0,rollerskate_03s.jpg,0.0,clock_5_3.png,4.0,67,0.315575,,,,,,,,,,,,,,,,,,,,,,,,,,,,,,,,
0.0,0.0,0.0,20.0,20.0,20.0,1.0,latte_06s.jpg,1.0,clock_5_4.png,4.0,67,0.330515,,,,,,,,,,,,,,,,,,,,,,,,,,,,,,,,
0.0,1.0,0.0,21.0,21.0,21.0,1.0,pincushion_10s.jpg,0.0,clock_5_5.png,4.0,67,0.322395,,,,,,,,,,,,,,,,,,,,,,,,,,,,,,,,
0.0,1.0,0.0,22.0,22.0,22.0,1.0,tuba_12s.jpg,0.0,clock_7_1.png,5.0,67,0.53441,,,,,,,,,,,,,,,,,,,,,,,,,,,,,,,,
0.0,1.0,0.0,23.0,23.0,23.0,1.0,cucumber_07s.jpg,0.0,clock_7_2.png,5.0,67,0.465625,,,,,,,,,,,,,,,,,,,,,,,,,,,,,,,,
0.0,1.0,0.0,24.0,24.0,24.0,1.0,treasure_08s.jpg,0.0,clock_7_3.png,5.0,67,0.34119,,,,,,,,,,,,,,,,,,,,,,,,,,,,,,,,
1.0,1.0,0.0,25.0,25.0,25.0,1.0,cucumber_07s.jpg,1.0,clock_7_4.png,5.0,67,2.300155,,,,,,,,,,,,,,,,,,,,,,,,,,,,,,,,
,0.0,0.0,26.0,26.0,26.0,1.0,razor_12s.jpg,0.0,clock_7_5.png,5.0,67,,,,,,,,,,,,,,,,,,,,,,,,,,,,,,,,,
0.0,1.0,0.0,27.0,27.0,27.0,1.0,sunflower_17s.jpg,0.0,clock_7_6.png,5.0,67,0.6546,,,,,,,,,,,,,,,,,,,,,,,,,,,,,,,,
0.0,1.0,0.0,28.0,28.0,28.0,1.0,basket_05s.jpg,0.0,clock_7_7.png,5.0,67,1.72365,,,,,,,,,,,,,,,,,,,,,,,,,,,,,,,,
0.0,1.0,0.0,29.0,29.0,29.0,1.0,breadstick_08s.jpg,0.0,clock_7_1.png,6.0,67,0.4363,,,,,,,,,,,,,,,,,,,,,,,,,,,,,,,,
0.0,0.0,0.0,30.0,30.0,30.0,1.0,breadstick_08s.jpg,1.0,clock_7_2.png,6.0,67,0.719355,,,,,,,,,,,,,,,,,,,,,,,,,,,,,,,,
1.0,1.0,0.0,31.0,31.0,31.0,1.0,breadstick_08s.jpg,1.0,clock_7_3.png,6.0,67,1.32233,,,,,,,,,,,,,,,,,,,,,,,,,,,,,,,,
0.0,1.0,0.0,32.0,32.0,32.0,1.0,gingerbread_man_03s.jpg,0.0,clock_7_4.png,6.0,67,0.44701,,,,,,,,,,,,,,,,,,,,,,,,,,,,,,,,
0.0,1.0,0.0,33.0,33.0,33.0,1.0,laser_pointer_02s.jpg,0.0,clock_7_5.png,6.0,67,0.64975,,,,,,,,,,,,,,,,,,,,,,,,,,,,,,,,
0.0,1.0,0.0,34.0,34.0,34.0,1.0,marshmallow_08s.jpg,0.0,clock_7_6.png,6.0,67,0.63298,,,,,,,,,,,,,,,,,,,,,,,,,,,,,,,,
1.0,1.0,0.0,35.0,35.0,35.0,1.0,breadstick_08s.jpg,1.0,clock_7_7.png,6.0,67,1.563345,,,,,,,,,,,,,,,,,,,,,,,,,,,,,,,,
,,,,,,,,1.0,,,67,,1.0,1.0,2.07213,0.0,0.0,0.0,0.0,1.0,rhinoceros_02s.jpg,rollerskate_03s.jpg,,,,,,,,,,,,,,,,,,,,,,
,,,,,,,,0.0,,,67,,1.0,0.0,1.20549,0.0,1.0,1.0,1.0,1.0,emerald_02s.jpg,bonsai_07s.jpg,,,,,,,,,,,,,,,,,,,,,,
,,,,,,,,0.0,,,67,,1.0,0.0,1.002825,0.0,2.0,2.0,2.0,1.0,microwave_02s.jpg,mussel_11s.jpg,,,,,,,,,,,,,,,,,,,,,,
,,,,,,,,0.0,,,67,,1.0,0.0,1.21868,0.0,3.0,3.0,3.0,1.0,rock_08s.jpg,penlight_12s.jpg,,,,,,,,,,,,,,,,,,,,,,
,,,,,,,,1.0,,,67,,1.0,1.0,1.09007,0.0,4.0,4.0,4.0,1.0,treasure_08s.jpg,sunflower_17s.jpg,,,,,,,,,,,,,,,,,,,,,,
,,,,,,,,1.0,,,67,,1.0,1.0,1.08835,0.0,5.0,5.0,5.0,1.0,projector_08s.jpg,pincushion_10s.jpg,,,,,,,,,,,,,,,,,,,,,,
,,,,,,,,,,,67,,,,,,,,,,,,0.0,4.0,4.0,4.0,1.0,clock_present_5_16.xlsx,clock_compare_task_5_16.xlsx,,,,,,,,,,,,,,,
0.0,1.0,0.0,0.0,0.0,0.0,1.0,buoy_04s.jpg,0.0,clock_5_1.png,1.0,67,0.869285,,,,,,,,,,,,,,,,,,,,,,,,,,,,,,,,
0.0,1.0,0.0,1.0,1.0,1.0,1.0,punch2_09s.jpg,0.0,clock_5_2.png,1.0,67,0.333875,,,,,,,,,,,,,,,,,,,,,,,,,,,,,,,,
0.0,1.0,0.0,2.0,2.0,2.0,1.0,rosary_03s.jpg,0.0,clock_5_3.png,1.0,67,0.342905,,,,,,,,,,,,,,,,,,,,,,,,,,,,,,,,
0.0,1.0,0.0,3.0,3.0,3.0,1.0,toad_09s.jpg,0.0,clock_5_4.png,1.0,67,0.435125,,,,,,,,,,,,,,,,,,,,,,,,,,,,,,,,
0.0,1.0,0.0,4.0,4.0,4.0,1.0,lab_coat_11s.jpg,0.0,clock_5_5.png,1.0,67,0.41555,,,,,,,,,,,,,,,,,,,,,,,,,,,,,,,,
0.0,1.0,0.0,5.0,5.0,5.0,1.0,swing_set_15s.jpg,0.0,clock_5_1.png,2.0,67,0.885085,,,,,,,,,,,,,,,,,,,,,,,,,,,,,,,,
1.0,1.0,0.0,6.0,6.0,6.0,1.0,swing_set_15s.jpg,1.0,clock_5_2.png,2.0,67,1.84073,,,,,,,,,,,,,,,,,,,,,,,,,,,,,,,,
1.0,1.0,0.0,7.0,7.0,7.0,1.0,swing_set_15s.jpg,1.0,clock_5_3.png,2.0,67,1.254145,,,,,,,,,,,,,,,,,,,,,,,,,,,,,,,,
1.0,1.0,0.0,8.0,8.0,8.0,1.0,swing_set_15s.jpg,1.0,clock_5_4.png,2.0,67,0.39751,,,,,,,,,,,,,,,,,,,,,,,,,,,,,,,,
0.0,1.0,0.0,9.0,9.0,9.0,1.0,tennis_ball_06s.jpg,0.0,clock_5_5.png,2.0,67,0.48027,,,,,,,,,,,,,,,,,,,,,,,,,,,,,,,,
0.0,1.0,0.0,10.0,10.0,10.0,1.0,powder_07s.jpg,0.0,clock_6_1.png,3.0,67,0.610985,,,,,,,,,,,,,,,,,,,,,,,,,,,,,,,,
0.0,1.0,0.0,11.0,11.0,11.0,1.0,tattoo_14s.jpg,0.0,clock_6_2.png,3.0,67,1.70072,,,,,,,,,,,,,,,,,,,,,,,,,,,,,,,,
0.0,1.0,0.0,12.0,12.0,12.0,1.0,cape_11s.jpg,0.0,clock_6_3.png,3.0,67,1.93149,,,,,,,,,,,,,,,,,,,,,,,,,,,,,,,,
0.0,1.0,0.0,13.0,13.0,13.0,1.0,turnstile_08s.jpg,0.0,clock_6_4.png,3.0,67,0.59292,,,,,,,,,,,,,,,,,,,,,,,,,,,,,,,,
1.0,1.0,0.0,14.0,14.0,14.0,1.0,cape_11s.jpg,1.0,clock_6_5.png,3.0,67,1.36451,,,,,,,,,,,,,,,,,,,,,,,,,,,,,,,,
,0.0,0.0,15.0,15.0,15.0,1.0,loveseat_08s.jpg,0.0,clock_6_6.png,3.0,67,,,,,,,,,,,,,,,,,,,,,,,,,,,,,,,,,
,0.0,0.0,16.0,16.0,16.0,1.0,swan_11s.jpg,0.0,clock_6_1.png,4.0,67,,,,,,,,,,,,,,,,,,,,,,,,,,,,,,,,,
,0.0,0.0,17.0,17.0,17.0,1.0,totem_pole_05s.jpg,0.0,clock_6_2.png,4.0,67,,,,,,,,,,,,,,,,,,,,,,,,,,,,,,,,,
,0.0,0.0,18.0,18.0,18.0,1.0,lip_gloss_06s.jpg,0.0,clock_6_3.png,4.0,67,,,,,,,,,,,,,,,,,,,,,,,,,,,,,,,,,
,0.0,0.0,19.0,19.0,19.0,1.0,toad_09s.jpg,0.0,clock_6_4.png,4.0,67,,,,,,,,,,,,,,,,,,,,,,,,,,,,,,,,,
,0.0,0.0,20.0,20.0,20.0,1.0,ring_03s.jpg,0.0,clock_6_5.png,4.0,67,,,,,,,,,,,,,,,,,,,,,,,,,,,,,,,,,
,0.0,0.0,21.0,21.0,21.0,1.0,powder_07s.jpg,0.0,clock_6_6.png,4.0,67,,,,,,,,,,,,,,,,,,,,,,,,,,,,,,,,,
,0.0,0.0,22.0,22.0,22.0,1.0,taxi_15s.jpg,0.0,clock_7_1.png,5.0,67,,,,,,,,,,,,,,,,,,,,,,,,,,,,,,,,,
1.0,1.0,0.0,23.0,23.0,23.0,1.0,taxi_15s.jpg,1.0,clock_7_2.png,5.0,67,2.33185,,,,,,,,,,,,,,,,,,,,,,,,,,,,,,,,
0.0,1.0,0.0,24.0,24.0,24.0,1.0,gazelle_10s.jpg,0.0,clock_7_3.png,5.0,67,2.070635,,,,,,,,,,,,,,,,,,,,,,,,,,,,,,,,
,0.0,0.0,25.0,25.0,25.0,1.0,thumbtack_14s.jpg,0.0,clock_7_4.png,5.0,67,,,,,,,,,,,,,,,,,,,,,,,,,,,,,,,,,
0.0,1.0,0.0,26.0,26.0,26.0,1.0,hyena_16s.jpg,0.0,clock_7_5.png,5.0,67,0.655995,,,,,,,,,,,,,,,,,,,,,,,,,,,,,,,,
0.0,1.0,0.0,27.0,27.0,27.0,1.0,badge_03s.jpg,0.0,clock_7_6.png,5.0,67,1.079445,,,,,,,,,,,,,,,,,,,,,,,,,,,,,,,,
0.0,1.0,0.0,28.0,28.0,28.0,1.0,blazer_02s.jpg,0.0,clock_7_7.png,5.0,67,0.533375,,,,,,,,,,,,,,,,,,,,,,,,,,,,,,,,
0.0,1.0,0.0,29.0,29.0,29.0,1.0,blowfish_03s.jpg,0.0,clock_7_1.png,6.0,67,0.53162,,,,,,,,,,,,,,,,,,,,,,,,,,,,,,,,
0.0,1.0,0.0,30.0,30.0,30.0,1.0,licorice_06s.jpg,0.0,clock_7_2.png,6.0,67,0.423195,,,,,,,,,,,,,,,,,,,,,,,,,,,,,,,,
0.0,1.0,0.0,31.0,31.0,31.0,1.0,checkbook_11s.jpg,0.0,clock_7_3.png,6.0,67,0.448245,,,,,,,,,,,,,,,,,,,,,,,,,,,,,,,,
0.0,1.0,0.0,32.0,32.0,32.0,1.0,reindeer_08s.jpg,0.0,clock_7_4.png,6.0,67,0.510725,,,,,,,,,,,,,,,,,,,,,,,,,,,,,,,,
0.0,1.0,0.0,33.0,33.0,33.0,1.0,doily_13s.jpg,0.0,clock_7_5.png,6.0,67,0.57631,,,,,,,,,,,,,,,,,,,,,,,,,,,,,,,,
0.0,1.0,0.0,34.0,34.0,34.0,1.0,possum_09s.jpg,0.0,clock_7_6.png,6.0,67,0.388775,,,,,,,,,,,,,,,,,,,,,,,,,,,,,,,,
0.0,1.0,0.0,35.0,35.0,35.0,1.0,keyboard_05s.jpg,0.0,clock_7_7.png,6.0,67,1.228875,,,,,,,,,,,,,,,,,,,,,,,,,,,,,,,,
,,,,,,,,1.0,,,67,,0.0,0.0,2.219795,0.0,0.0,0.0,0.0,1.0,turnstile_08s.jpg,swan_11s.jpg,,,,,,,,,,,,,,,,,,,,,,
,,,,,,,,1.0,,,67,,1.0,1.0,1.62382,0.0,1.0,1.0,1.0,1.0,loveseat_08s.jpg,lip_gloss_06s.jpg,,,,,,,,,,,,,,,,,,,,,,
,,,,,,,,1.0,,,67,,1.0,1.0,1.316595,0.0,2.0,2.0,2.0,1.0,hyena_16s.jpg,blowfish_03s.jpg,,,,,,,,,,,,,,,,,,,,,,
,,,,,,,,0.0,,,67,,0.0,1.0,1.32855,0.0,3.0,3.0,3.0,1.0,lab_coat_11s.jpg,punch2_09s.jpg,,,,,,,,,,,,,,,,,,,,,,
,,,,,,,,0.0,,,67,,0.0,1.0,1.594665,0.0,4.0,4.0,4.0,1.0,ring_03s.jpg,totem_pole_05s.jpg,,,,,,,,,,,,,,,,,,,,,,
,,,,,,,,0.0,,,67,,0.0,1.0,1.545375,0.0,5.0,5.0,5.0,1.0,keyboard_05s.jpg,reindeer_08s.jpg,,,,,,,,,,,,,,,,,,,,,,
,0.0,,,,,,tube_top_03s.jpg,0.0,clockno_up.jpg,1.0,67,,,,,,,,,,,,,,,,,,,0.0,0.0,0.0,0.0,1.0,,,,,,,,,,
1.0,1.0,,,,,,tube_top_03s.jpg,1.0,clockno_default.jpg,1.0,67,1.76239,,,,,,,,,,,,,,,,,,0.0,1.0,1.0,1.0,1.0,,,,,,,,,,
0.0,1.0,,,,,,piggy_bank_02s.jpg,0.0,clockno_default.jpg,1.0,67,0.85155,,,,,,,,,,,,,,,,,,0.0,2.0,2.0,2.0,1.0,,,,,,,,,,
0.0,1.0,,,,,,peach_04s.jpg,0.0,clockno_default.jpg,1.0,67,0.594755,,,,,,,,,,,,,,,,,,0.0,3.0,3.0,3.0,1.0,,,,,,,,,,
0.0,1.0,,,,,,petri_dish_12s.jpg,0.0,clockno_default.jpg,1.0,67,0.56744,,,,,,,,,,,,,,,,,,0.0,4.0,4.0,4.0,1.0,,,,,,,,,,
0.0,1.0,,,,,,memory_stick_11s.jpg,0.0,clockno_default.jpg,1.0,67,0.701855,,,,,,,,,,,,,,,,,,0.0,5.0,5.0,5.0,1.0,,,,,,,,,,
0.0,0.0,,,,,,piggy_bank_02s.jpg,1.0,clockno_default.jpg,1.0,67,0.543265,,,,,,,,,,,,,,,,,,0.0,6.0,6.0,6.0,1.0,,,,,,,,,,
0.0,1.0,,,,,,tweezers_03s.jpg,0.0,clockno_up.jpg,2.0,67,1.07949,,,,,,,,,,,,,,,,,,0.0,7.0,7.0,7.0,1.0,,,,,,,,,,
0.0,1.0,,,,,,coffee_filter_10s.jpg,0.0,clockno_default.jpg,2.0,67,0.62182,,,,,,,,,,,,,,,,,,0.0,8.0,8.0,8.0,1.0,,,,,,,,,,
0.0,1.0,,,,,,tambourine_06s.jpg,0.0,clockno_default.jpg,2.0,67,0.43059,,,,,,,,,,,,,,,,,,0.0,9.0,9.0,9.0,1.0,,,,,,,,,,
0.0,1.0,,,,,,ukulele_02s.jpg,0.0,clockno_default.jpg,2.0,67,0.80234,,,,,,,,,,,,,,,,,,0.0,10.0,10.0,10.0,1.0,,,,,,,,,,
0.0,1.0,,,,,,towel_rack_04s.jpg,0.0,clockno_default.jpg,2.0,67,0.43311,,,,,,,,,,,,,,,,,,0.0,11.0,11.0,11.0,1.0,,,,,,,,,,
0.0,1.0,,,,,,ravioli_08s.jpg,0.0,clockno_up.jpg,3.0,67,0.414765,,,,,,,,,,,,,,,,,,0.0,12.0,12.0,12.0,1.0,,,,,,,,,,
1.0,1.0,,,,,,ravioli_08s.jpg,1.0,clockno_default.jpg,3.0,67,1.94644,,,,,,,,,,,,,,,,,,0.0,13.0,13.0,13.0,1.0,,,,,,,,,,
,0.0,,,,,,peanut_butter_08s.jpg,0.0,clockno_default.jpg,3.0,67,,,,,,,,,,,,,,,,,,,0.0,14.0,14.0,14.0,1.0,,,,,,,,,,
,0.0,,,,,,sledgehammer_03s.jpg,0.0,clockno_default.jpg,3.0,67,,,,,,,,,,,,,,,,,,,0.0,15.0,15.0,15.0,1.0,,,,,,,,,,
,0.0,,,,,,syringe_02s.jpg,0.0,clockno_default.jpg,3.0,67,,,,,,,,,,,,,,,,,,,0.0,16.0,16.0,16.0,1.0,,,,,,,,,,
,0.0,,,,,,quilt_03s.jpg,0.0,clockno_default.jpg,3.0,67,,,,,,,,,,,,,,,,,,,0.0,17.0,17.0,17.0,1.0,,,,,,,,,,
1.0,1.0,,,,,,syringe_02s.jpg,1.0,clockno_default.jpg,3.0,67,1.28098,,,,,,,,,,,,,,,,,,0.0,18.0,18.0,18.0,1.0,,,,,,,,,,
0.0,1.0,,,,,,radiator_05s.jpg,0.0,clockno_up.jpg,4.0,67,1.132465,,,,,,,,,,,,,,,,,,0.0,19.0,19.0,19.0,1.0,,,,,,,,,,
0.0,1.0,,,,,,jelly_bean_06s.jpg,0.0,clockno_default.jpg,4.0,67,1.365755,,,,,,,,,,,,,,,,,,0.0,20.0,20.0,20.0,1.0,,,,,,,,,,
0.0,1.0,,,,,,top_hat_11s.jpg,0.0,clockno_default.jpg,4.0,67,0.66288,,,,,,,,,,,,,,,,,,0.0,21.0,21.0,21.0,1.0,,,,,,,,,,
1.0,1.0,,,,,,radiator_05s.jpg,1.0,clockno_default.jpg,4.0,67,1.25231,,,,,,,,,,,,,,,,,,0.0,22.0,22.0,22.0,1.0,,,,,,,,,,
0.0,1.0,,,,,,contact_lens_15s.jpg,0.0,clockno_default.jpg,4.0,67,0.91081,,,,,,,,,,,,,,,,,,0.0,23.0,23.0,23.0,1.0,,,,,,,,,,
0.0,1.0,,,,,,rake_06s.jpg,0.0,clockno_default.jpg,4.0,67,1.745125,,,,,,,,,,,,,,,,,,0.0,24.0,24.0,24.0,1.0,,,,,,,,,,
0.0,1.0,,,,,,surfboard_11s.jpg,0.0,clockno_up.jpg,5.0,67,0.56648,,,,,,,,,,,,,,,,,,0.0,25.0,25.0,25.0,1.0,,,,,,,,,,
0.0,1.0,,,,,,toy_04s.jpg,0.0,clockno_default.jpg,5.0,67,0.384295,,,,,,,,,,,,,,,,,,0.0,26.0,26.0,26.0,1.0,,,,,,,,,,
0.0,1.0,,,,,,raccoon_02s.jpg,0.0,clockno_default.jpg,5.0,67,0.58141,,,,,,,,,,,,,,,,,,0.0,27.0,27.0,27.0,1.0,,,,,,,,,,
0.0,1.0,,,,,,phone_01b.jpg,0.0,clockno_default.jpg,5.0,67,0.588495,,,,,,,,,,,,,,,,,,0.0,28.0,28.0,28.0,1.0,,,,,,,,,,
0.0,1.0,,,,,,ukulele_02s.jpg,0.0,clockno_default.jpg,5.0,67,1.669445,,,,,,,,,,,,,,,,,,0.0,29.0,29.0,29.0,1.0,,,,,,,,,,
0.0,1.0,,,,,,raft_09s.jpg,0.0,clockno_default.jpg,5.0,67,0.450175,,,,,,,,,,,,,,,,,,0.0,30.0,30.0,30.0,1.0,,,,,,,,,,
0.0,1.0,,,,,,kettle_08s.jpg,0.0,clockno_up.jpg,6.0,67,0.67643,,,,,,,,,,,,,,,,,,0.0,31.0,31.0,31.0,1.0,,,,,,,,,,
0.0,1.0,,,,,,target_11s.jpg,0.0,clockno_default.jpg,6.0,67,0.77978,,,,,,,,,,,,,,,,,,0.0,32.0,32.0,32.0,1.0,,,,,,,,,,
0.0,1.0,,,,,,icicle_04s.jpg,0.0,clockno_default.jpg,6.0,67,2.420765,,,,,,,,,,,,,,,,,,0.0,33.0,33.0,33.0,1.0,,,,,,,,,,
0.0,1.0,,,,,,timer_03s.jpg,0.0,clockno_default.jpg,6.0,67,0.63929,,,,,,,,,,,,,,,,,,0.0,34.0,34.0,34.0,1.0,,,,,,,,,,
0.0,0.0,,,,,,timer_03s.jpg,1.0,clockno_default.jpg,6.0,67,0.684285,,,,,,,,,,,,,,,,,,0.0,35.0,35.0,35.0,1.0,,,,,,,,,,
,,,,,,,,0.0,,,67,,1.0,0.0,1.97757,,,,,,tweezers_03s.jpg,petri_dish_12s.jpg,,,,,,,,,,,,,0.0,0.0,0.0,0.0,1.0,,,,,
,,,,,,,,1.0,,,67,,1.0,1.0,2.69153,,,,,,memory_stick_11s.jpg,coffee_filter_10s.jpg,,,,,,,,,,,,,0.0,1.0,1.0,1.0,1.0,,,,,
,,,,,,,,0.0,,,67,,0.0,1.0,0.85256,,,,,,toy_04s.jpg,contact_lens_15s.jpg,,,,,,,,,,,,,0.0,2.0,2.0,2.0,1.0,,,,,
,,,,,,,,0.0,,,67,,1.0,0.0,0.73761,,,,,,rake_06s.jpg,top_hat_11s.jpg,,,,,,,,,,,,,0.0,3.0,3.0,3.0,1.0,,,,,
,,,,,,,,0.0,,,67,,0.0,1.0,1.44894,,,,,,phone_01b.jpg,surfboard_11s.jpg,,,,,,,,,,,,,0.0,4.0,4.0,4.0,1.0,,,,,
,,,,,,,,1.0,,,67,,0.0,0.0,1.23551,,,,,,peanut_butter_08s.jpg,quilt_03s.jpg,,,,,,,,,,,,,0.0,5.0,5.0,5.0,1.0,,,,,
,,,,,,,,,,,67,,,,,,,,,,,,,,,,,clockno_present_1_16.xlsx,clockno_compare_task_1_16.xlsx,,,,,,,,,,,0.0,0.0,0.0,0.0,1.0
0.0,1.0,,,,,,juicer2_06s.jpg,0.0,clockno_up.jpg,1.0,67,2.047725,,,,,,,,,,,,,,,,,,0.0,0.0,0.0,0.0,1.0,,,,,,,,,,
0.0,1.0,,,,,,potholder_02s.jpg,0.0,clockno_default.jpg,1.0,67,1.80978,,,,,,,,,,,,,,,,,,0.0,1.0,1.0,1.0,1.0,,,,,,,,,,
0.0,1.0,,,,,,pencil02a.jpg,0.0,clockno_default.jpg,1.0,67,1.69134,,,,,,,,,,,,,,,,,,0.0,2.0,2.0,2.0,1.0,,,,,,,,,,
0.0,1.0,,,,,,chopsticks_08s.jpg,0.0,clockno_default.jpg,1.0,67,0.32977,,,,,,,,,,,,,,,,,,0.0,3.0,3.0,3.0,1.0,,,,,,,,,,
0.0,0.0,,,,,,potholder_02s.jpg,1.0,clockno_default.jpg,1.0,67,0.370625,,,,,,,,,,,,,,,,,,0.0,4.0,4.0,4.0,1.0,,,,,,,,,,
0.0,1.0,,,,,,fondue_07s.jpg,0.0,clockno_up.jpg,2.0,67,2.19562,,,,,,,,,,,,,,,,,,0.0,5.0,5.0,5.0,1.0,,,,,,,,,,
0.0,1.0,,,,,,pillbox_04s.jpg,0.0,clockno_default.jpg,2.0,67,2.327265,,,,,,,,,,,,,,,,,,0.0,6.0,6.0,6.0,1.0,,,,,,,,,,
0.0,1.0,,,,,,pumpkin_03s.jpg,0.0,clockno_default.jpg,2.0,67,1.572995,,,,,,,,,,,,,,,,,,0.0,7.0,7.0,7.0,1.0,,,,,,,,,,
0.0,1.0,,,,,,cardinal_07s.jpg,0.0,clockno_default.jpg,2.0,67,1.35964,,,,,,,,,,,,,,,,,,0.0,8.0,8.0,8.0,1.0,,,,,,,,,,
0.0,1.0,,,,,,swordfish_05s.jpg,0.0,clockno_default.jpg,2.0,67,1.80595,,,,,,,,,,,,,,,,,,0.0,9.0,9.0,9.0,1.0,,,,,,,,,,
0.0,1.0,,,,,,turkey_10s.jpg,0.0,clockno_up.jpg,3.0,67,2.156085,,,,,,,,,,,,,,,,,,0.0,10.0,10.0,10.0,1.0,,,,,,,,,,
0.0,1.0,,,,,,road_sign_05s.jpg,0.0,clockno_default.jpg,3.0,67,1.677485,,,,,,,,,,,,,,,,,,0.0,11.0,11.0,11.0,1.0,,,,,,,,,,
0.0,0.0,,,,,,road_sign_05s.jpg,1.0,clockno_default.jpg,3.0,67,1.729625,,,,,,,,,,,,,,,,,,0.0,12.0,12.0,12.0,1.0,,,,,,,,,,
,0.0,,,,,,rhubarb_03s.jpg,0.0,clockno_default.jpg,3.0,67,,,,,,,,,,,,,,,,,,,0.0,13.0,13.0,13.0,1.0,,,,,,,,,,
,0.0,,,,,,ivy_12s.jpg,0.0,clockno_default.jpg,3.0,67,,,,,,,,,,,,,,,,,,,0.0,14.0,14.0,14.0,1.0,,,,,,,,,,
,0.0,,,,,,boar_10s.jpg,0.0,clockno_default.jpg,3.0,67,,,,,,,,,,,,,,,,,,,0.0,15.0,15.0,15.0,1.0,,,,,,,,,,
0.0,1.0,,,,,,mango_09s.jpg,0.0,clockno_up.jpg,4.0,67,0.89497,,,,,,,,,,,,,,,,,,0.0,16.0,16.0,16.0,1.0,,,,,,,,,,
0.0,1.0,,,,,,feather02.jpg,0.0,clockno_default.jpg,4.0,67,0.89965,,,,,,,,,,,,,,,,,,0.0,17.0,17.0,17.0,1.0,,,,,,,,,,
0.0,1.0,,,,,,pumpkin_03s.jpg,0.0,clockno_default.jpg,4.0,67,0.44522,,,,,,,,,,,,,,,,,,0.0,18.0,18.0,18.0,1.0,,,,,,,,,,
0.0,1.0,,,,,,giraffe_11s.jpg,0.0,clockno_default.jpg,4.0,67,0.66688,,,,,,,,,,,,,,,,,,0.0,19.0,19.0,19.0,1.0,,,,,,,,,,
0.0,1.0,,,,,,meatball_13s.jpg,0.0,clockno_default.jpg,4.0,67,1.027785,,,,,,,,,,,,,,,,,,0.0,20.0,20.0,20.0,1.0,,,,,,,,,,
0.0,1.0,,,,,,turkey_10s.jpg,0.0,clockno_default.jpg,4.0,67,0.368685,,,,,,,,,,,,,,,,,,0.0,21.0,21.0,21.0,1.0,,,,,,,,,,
0.0,1.0,,,,,,stump_02s.jpg,0.0,clockno_up.jpg,5.0,67,0.39245,,,,,,,,,,,,,,,,,,0.0,22.0,22.0,22.0,1.0,,,,,,,,,,
0.0,1.0,,,,,,ostrich_06s.jpg,0.0,clockno_default.jpg,5.0,67,0.463675,,,,,,,,,,,,,,,,,,0.0,23.0,23.0,23.0,1.0,,,,,,,,,,
0.0,1.0,,,,,,amber_04s.jpg,0.0,clockno_default.jpg,5.0,67,0.59812,,,,,,,,,,,,,,,,,,0.0,24.0,24.0,24.0,1.0,,,,,,,,,,
0.0,1.0,,,,,,blender_08s.jpg,0.0,clockno_default.jpg,5.0,67,0.38191,,,,,,,,,,,,,,,,,,0.0,25.0,25.0,25.0,1.0,,,,,,,,,,
0.0,1.0,,,,,,trumpet_06s.jpg,0.0,clockno_default.jpg,5.0,67,1.87218,,,,,,,,,,,,,,,,,,0.0,26.0,26.0,26.0,1.0,,,,,,,,,,
,0.0,,,,,,ivy_12s.jpg,0.0,clockno_default.jpg,5.0,67,,,,,,,,,,,,,,,,,,,0.0,27.0,27.0,27.0,1.0,,,,,,,,,,
,0.0,,,,,,ironing_board_07s.jpg,0.0,clockno_default.jpg,5.0,67,,,,,,,,,,,,,,,,,,,0.0,28.0,28.0,28.0,1.0,,,,,,,,,,
0.0,1.0,,,,,,lavender_10s.jpg,0.0,clockno_up.jpg,6.0,67,1.29758,,,,,,,,,,,,,,,,,,0.0,29.0,29.0,29.0,1.0,,,,,,,,,,
0.0,1.0,,,,,,pea_11s.jpg,0.0,clockno_default.jpg,6.0,67,1.61769,,,,,,,,,,,,,,,,,,0.0,30.0,30.0,30.0,1.0,,,,,,,,,,
0.0,1.0,,,,,,sundae_08s.jpg,0.0,clockno_default.jpg,6.0,67,2.151035,,,,,,,,,,,,,,,,,,0.0,31.0,31.0,31.0,1.0,,,,,,,,,,
0.0,1.0,,,,,,champagne_18s.jpg,0.0,clockno_default.jpg,6.0,67,1.08385,,,,,,,,,,,,,,,,,,0.0,32.0,32.0,32.0,1.0,,,,,,,,,,
0.0,1.0,,,,,,turtle_08s.jpg,0.0,clockno_default.jpg,6.0,67,1.416865,,,,,,,,,,,,,,,,,,0.0,33.0,33.0,33.0,1.0,,,,,,,,,,
0.0,1.0,,,,,,gargoyle_08s.jpg,0.0,clockno_default.jpg,6.0,67,1.62612,,,,,,,,,,,,,,,,,,0.0,34.0,34.0,34.0,1.0,,,,,,,,,,
,0.0,,,,,,crate_05s.jpg,0.0,clockno_default.jpg,6.0,67,,,,,,,,,,,,,,,,,,,0.0,35.0,35.0,35.0,1.0,,,,,,,,,,
,,,,,,,,1.0,,,67,,0.0,0.0,2.064705,,,,,,pencil02a.jpg,fondue_07s.jpg,,,,,,,,,,,,,0.0,0.0,0.0,0.0,1.0,,,,,
,,,,,,,,0.0,,,67,,1.0,0.0,0.967035,,,,,,mango_09s.jpg,rhubarb_03s.jpg,,,,,,,,,,,,,0.0,1.0,1.0,1.0,1.0,,,,,
,,,,,,,,1.0,,,67,,1.0,1.0,1.62497,,,,,,chopsticks_08s.jpg,pillbox_04s.jpg,,,,,,,,,,,,,0.0,2.0,2.0,2.0,1.0,,,,,
,,,,,,,,0.0,,,67,,1.0,0.0,1.230965,,,,,,turtle_08s.jpg,pea_11s.jpg,,,,,,,,,,,,,0.0,3.0,3.0,3.0,1.0,,,,,
,,,,,,,,0.0,,,67,,1.0,0.0,1.103955,,,,,,crate_05s.jpg,champagne_18s.jpg,,,,,,,,,,,,,0.0,4.0,4.0,4.0,1.0,,,,,
,,,,,,,,0.0,,,67,,1.0,0.0,0.76743,,,,,,meatball_13s.jpg,feather02.jpg,,,,,,,,,,,,,0.0,5.0,5.0,5.0,1.0,,,,,
,,,,,,,,,,,67,,,,,,,,,,,,,,,,,clockno_present_2_16.xlsx,clockno_compare_task_2_16.xlsx,,,,,,,,,,,0.0,1.0,1.0,1.0,1.0
0.0,1.0,,,,,,magnet_03s.jpg,0.0,clockno_up.jpg,1.0,67,1.993245,,,,,,,,,,,,,,,,,,0.0,0.0,0.0,0.0,1.0,,,,,,,,,,
0.0,1.0,,,,,,luggage_08s.jpg,0.0,clockno_default.jpg,1.0,67,0.429915,,,,,,,,,,,,,,,,,,0.0,1.0,1.0,1.0,1.0,,,,,,,,,,
0.0,1.0,,,,,,fountain_pen_06s.jpg,0.0,clockno_default.jpg,1.0,67,0.47851,,,,,,,,,,,,,,,,,,0.0,2.0,2.0,2.0,1.0,,,,,,,,,,
0.0,1.0,,,,,,fur_coat_11s.jpg,0.0,clockno_default.jpg,1.0,67,0.34414,,,,,,,,,,,,,,,,,,0.0,3.0,3.0,3.0,1.0,,,,,,,,,,
0.0,1.0,,,,,,ladder_15s.jpg,0.0,clockno_default.jpg,1.0,67,1.916475,,,,,,,,,,,,,,,,,,0.0,4.0,4.0,4.0,1.0,,,,,,,,,,
0.0,1.0,,,,,,mushroom_10n.jpg,0.0,clockno_default.jpg,1.0,67,1.17921,,,,,,,,,,,,,,,,,,0.0,5.0,5.0,5.0,1.0,,,,,,,,,,
0.0,1.0,,,,,,milk_02s.jpg,0.0,clockno_up.jpg,2.0,67,1.61321,,,,,,,,,,,,,,,,,,0.0,6.0,6.0,6.0,1.0,,,,,,,,,,
0.0,1.0,,,,,,fork_04s.jpg,0.0,clockno_default.jpg,2.0,67,0.4177,,,,,,,,,,,,,,,,,,0.0,7.0,7.0,7.0,1.0,,,,,,,,,,
,0.0,,,,,,bank_06s.jpg,0.0,clockno_default.jpg,2.0,67,,,,,,,,,,,,,,,,,,,0.0,8.0,8.0,8.0,1.0,,,,,,,,,,
0.0,1.0,,,,,,paintbrush_04s.jpg,0.0,clockno_default.jpg,2.0,67,0.53522,,,,,,,,,,,,,,,,,,0.0,9.0,9.0,9.0,1.0,,,,,,,,,,
0.0,0.0,,,,,,fork_04s.jpg,1.0,clockno_default.jpg,2.0,67,0.407895,,,,,,,,,,,,,,,,,,0.0,10.0,10.0,10.0,1.0,,,,,,,,,,
0.0,1.0,,,,,,fireworks_18s.jpg,0.0,clockno_up.jpg,3.0,67,0.53109,,,,,,,,,,,,,,,,,,0.0,11.0,11.0,11.0,1.0,,,,,,,,,,
1.0,1.0,,,,,,fireworks_18s.jpg,1.0,clockno_default.jpg,3.0,67,1.7747,,,,,,,,,,,,,,,,,,0.0,12.0,12.0,12.0,1.0,,,,,,,,,,
1.0,1.0,,,,,,fireworks_18s.jpg,1.0,clockno_default.jpg,3.0,67,0.987405,,,,,,,,,,,,,,,,,,0.0,13.0,13.0,13.0,1.0,,,,,,,,,,
0.0,1.0,,,,,,outlet_10s.jpg,0.0,clockno_default.jpg,3.0,67,0.45435,,,,,,,,,,,,,,,,,,0.0,14.0,14.0,14.0,1.0,,,,,,,,,,
0.0,1.0,,,,,,olive_05s.jpg,0.0,clockno_default.jpg,3.0,67,0.56148,,,,,,,,,,,,,,,,,,0.0,15.0,15.0,15.0,1.0,,,,,,,,,,
0.0,1.0,,,,,,toaster_03s.jpg,0.0,clockno_default.jpg,3.0,67,0.36143,,,,,,,,,,,,,,,,,,0.0,16.0,16.0,16.0,1.0,,,,,,,,,,
0.0,1.0,,,,,,kitten_07s.jpg,0.0,clockno_default.jpg,3.0,67,0.813045,,,,,,,,,,,,,,,,,,0.0,17.0,17.0,17.0,1.0,,,,,,,,,,
0.0,1.0,,,,,,soda_fountain_03s.jpg,0.0,clockno_up.jpg,4.0,67,0.584805,,,,,,,,,,,,,,,,,,0.0,18.0,18.0,18.0,1.0,,,,,,,,,,
0.0,1.0,,,,,,paper_bag_12s.jpg,0.0,clockno_default.jpg,4.0,67,0.46199,,,,,,,,,,,,,,,,,,0.0,19.0,19.0,19.0,1.0,,,,,,,,,,
0.0,1.0,,,,,,frame_06s.jpg,0.0,clockno_default.jpg,4.0,67,0.460555,,,,,,,,,,,,,,,,,,0.0,20.0,20.0,20.0,1.0,,,,,,,,,,
0.0,1.0,,,,,,mold2_04s.jpg,0.0,clockno_default.jpg,4.0,67,0.47806,,,,,,,,,,,,,,,,,,0.0,21.0,21.0,21.0,1.0,,,,,,,,,,
0.0,1.0,,,,,,tupperware_09s.jpg,0.0,clockno_default.jpg,4.0,67,0.494625,,,,,,,,,,,,,,,,,,0.0,22.0,22.0,22.0,1.0,,,,,,,,,,
0.0,1.0,,,,,,eggshell_14s.jpg,0.0,clockno_default.jpg,4.0,67,0.42802,,,,,,,,,,,,,,,,,,0.0,23.0,23.0,23.0,1.0,,,,,,,,,,
0.0,1.0,,,,,,antenna_01b.jpg,0.0,clockno_up.jpg,5.0,67,0.36911,,,,,,,,,,,,,,,,,,0.0,24.0,24.0,24.0,1.0,,,,,,,,,,
0.0,0.0,,,,,,antenna_01b.jpg,1.0,clockno_default.jpg,5.0,67,0.262695,,,,,,,,,,,,,,,,,,0.0,25.0,25.0,25.0,1.0,,,,,,,,,,
0.0,1.0,,,,,,padlock_07s.jpg,0.0,clockno_default.jpg,5.0,67,0.500085,,,,,,,,,,,,,,,,,,0.0,26.0,26.0,26.0,1.0,,,,,,,,,,
0.0,1.0,,,,,,pocket_watch_16s.jpg,0.0,clockno_default.jpg,5.0,67,0.50948,,,,,,,,,,,,,,,,,,0.0,27.0,27.0,27.0,1.0,,,,,,,,,,
0.0,1.0,,,,,,bank_06s.jpg,0.0,clockno_default.jpg,5.0,67,0.71262,,,,,,,,,,,,,,,,,,0.0,28.0,28.0,28.0,1.0,,,,,,,,,,
0.0,1.0,,,,,,incense_02s.jpg,0.0,clockno_up.jpg,6.0,67,0.32853,,,,,,,,,,,,,,,,,,0.0,29.0,29.0,29.0,1.0,,,,,,,,,,
0.0,1.0,,,,,,bagel_15s.jpg,0.0,clockno_default.jpg,6.0,67,0.45354,,,,,,,,,,,,,,,,,,0.0,30.0,30.0,30.0,1.0,,,,,,,,,,
0.0,1.0,,,,,,milk_02s.jpg,0.0,clockno_default.jpg,6.0,67,0.335835,,,,,,,,,,,,,,,,,,0.0,31.0,31.0,31.0,1.0,,,,,,,,,,
0.0,1.0,,,,,,iron_13s.jpg,0.0,clockno_default.jpg,6.0,67,0.52112,,,,,,,,,,,,,,,,,,0.0,32.0,32.0,32.0,1.0,,,,,,,,,,
0.0,1.0,,,,,,duck_01b.jpg,0.0,clockno_default.jpg,6.0,67,1.226905,,,,,,,,,,,,,,,,,,0.0,33.0,33.0,33.0,1.0,,,,,,,,,,
0.0,1.0,,,,,,rooster_03s.jpg,0.0,clockno_default.jpg,6.0,67,0.386675,,,,,,,,,,,,,,,,,,0.0,34.0,34.0,34.0,1.0,,,,,,,,,,
0.0,1.0,,,,,,sugar_cube_11s.jpg,0.0,clockno_default.jpg,6.0,67,0.8944,,,,,,,,,,,,,,,,,,0.0,35.0,35.0,35.0,1.0,,,,,,,,,,
,,,,,,,,0.0,,,67,,0.0,1.0,2.09221,,,,,,soda_fountain_03s.jpg,olive_05s.jpg,,,,,,,,,,,,,0.0,0.0,0.0,0.0,1.0,,,,,
,,,,,,,,1.0,,,67,,1.0,1.0,0.90418,,,,,,toaster_03s.jpg,paper_bag_12s.jpg,,,,,,,,,,,,,0.0,1.0,1.0,1.0,1.0,,,,,
,,,,,,,,1.0,,,67,,1.0,1.0,0.79475,,,,,,eggshell_14s.jpg,padlock_07s.jpg,,,,,,,,,,,,,0.0,2.0,2.0,2.0,1.0,,,,,
,,,,,,,,1.0,,,67,,1.0,1.0,0.80459,,,,,,magnet_03s.jpg,fur_coat_11s.jpg,,,,,,,,,,,,,0.0,3.0,3.0,3.0,1.0,,,,,
,,,,,,,,0.0,,,67,,0.0,1.0,1.23728,,,,,,ladder_15s.jpg,luggage_08s.jpg,,,,,,,,,,,,,0.0,4.0,4.0,4.0,1.0,,,,,
,,,,,,,,0.0,,,67,,1.0,0.0,1.968605,,,,,,mushroom_10n.jpg,fountain_pen_06s.jpg,,,,,,,,,,,,,0.0,5.0,5.0,5.0,1.0,,,,,
,,,,,,,,,,,67,,,,,,,,,,,,,,,,,clockno_present_3_16.xlsx,clockno_compare_task_3_16.xlsx,,,,,,,,,,,0.0,2.0,2.0,2.0,1.0
0.0,1.0,,,,,,insole_11s.jpg,0.0,clockno_up.jpg,1.0,67,1.09395,,,,,,,,,,,,,,,,,,0.0,0.0,0.0,0.0,1.0,,,,,,,,,,
0.0,1.0,,,,,,teapot_03s.jpg,0.0,clockno_default.jpg,1.0,67,0.363195,,,,,,,,,,,,,,,,,,0.0,1.0,1.0,1.0,1.0,,,,,,,,,,
0.0,1.0,,,,,,orange_12s.jpg,0.0,clockno_default.jpg,1.0,67,0.28226,,,,,,,,,,,,,,,,,,0.0,2.0,2.0,2.0,1.0,,,,,,,,,,
1.0,1.0,,,,,,insole_11s.jpg,1.0,clockno_default.jpg,1.0,67,1.497665,,,,,,,,,,,,,,,,,,0.0,3.0,3.0,3.0,1.0,,,,,,,,,,
0.0,1.0,,,,,,jersey_02s.jpg,0.0,clockno_default.jpg,1.0,67,0.39817,,,,,,,,,,,,,,,,,,0.0,4.0,4.0,4.0,1.0,,,,,,,,,,
0.0,1.0,,,,,,dashboard_02s.jpg,0.0,clockno_up.jpg,2.0,67,0.34654,,,,,,,,,,,,,,,,,,0.0,5.0,5.0,5.0,1.0,,,,,,,,,,
0.0,1.0,,,,,,harpoon.jpg,0.0,clockno_default.jpg,2.0,67,0.63736,,,,,,,,,,,,,,,,,,0.0,6.0,6.0,6.0,1.0,,,,,,,,,,
0.0,1.0,,,,,,kilt_18s.jpg,0.0,clockno_default.jpg,2.0,67,0.48361,,,,,,,,,,,,,,,,,,0.0,7.0,7.0,7.0,1.0,,,,,,,,,,
0.0,1.0,,,,,,bowler_hat_10s.jpg,0.0,clockno_default.jpg,2.0,67,0.35256,,,,,,,,,,,,,,,,,,0.0,8.0,8.0,8.0,1.0,,,,,,,,,,
0.0,1.0,,,,,,light_switch_02s.jpg,0.0,clockno_default.jpg,2.0,67,0.394605,,,,,,,,,,,,,,,,,,0.0,9.0,9.0,9.0,1.0,,,,,,,,,,
0.0,1.0,,,,,,mirror_12s.jpg,0.0,clockno_up.jpg,3.0,67,0.373665,,,,,,,,,,,,,,,,,,0.0,10.0,10.0,10.0,1.0,,,,,,,,,,
0.0,1.0,,,,,,raspberry_12s.jpg,0.0,clockno_default.jpg,3.0,67,0.368085,,,,,,,,,,,,,,,,,,0.0,11.0,11.0,11.0,1.0,,,,,,,,,,
0.0,1.0,,,,,,gas_mask_11s.jpg,0.0,clockno_default.jpg,3.0,67,1.06743,,,,,,,,,,,,,,,,,,0.0,12.0,12.0,12.0,1.0,,,,,,,,,,
0.0,1.0,,,,,,teacup_07s.jpg,0.0,clockno_default.jpg,3.0,67,0.34368,,,,,,,,,,,,,,,,,,0.0,13.0,13.0,13.0,1.0,,,,,,,,,,
0.0,1.0,,,,,,icemaker_10s.jpg,0.0,clockno_default.jpg,3.0,67,0.377675,,,,,,,,,,,,,,,,,,0.0,14.0,14.0,14.0,1.0,,,,,,,,,,
0.0,1.0,,,,,,pacifier_09s.jpg,0.0,clockno_default.jpg,3.0,67,0.49745,,,,,,,,,,,,,,,,,,0.0,15.0,15.0,15.0,1.0,,,,,,,,,,
0.0,1.0,,,,,,pepper_mill_03s.jpg,0.0,clockno_default.jpg,3.0,67,0.44052,,,,,,,,,,,,,,,,,,0.0,16.0,16.0,16.0,1.0,,,,,,,,,,
0.0,1.0,,,,,,juicer1_08s.jpg,0.0,clockno_up.jpg,4.0,67,0.48314,,,,,,,,,,,,,,,,,,0.0,17.0,17.0,17.0,1.0,,,,,,,,,,
0.0,1.0,,,,,,lion_18s.jpg,0.0,clockno_default.jpg,4.0,67,0.386245,,,,,,,,,,,,,,,,,,0.0,18.0,18.0,18.0,1.0,,,,,,,,,,
0.0,1.0,,,,,,rocking_chair_05s.jpg,0.0,clockno_default.jpg,4.0,67,0.280275,,,,,,,,,,,,,,,,,,0.0,19.0,19.0,19.0,1.0,,,,,,,,,,
0.0,1.0,,,,,,beaker_01b.jpg,0.0,clockno_default.jpg,4.0,67,0.43408,,,,,,,,,,,,,,,,,,0.0,20.0,20.0,20.0,1.0,,,,,,,,,,
0.0,1.0,,,,,,leotard_08s.jpg,0.0,clockno_default.jpg,4.0,67,0.86004,,,,,,,,,,,,,,,,,,0.0,21.0,21.0,21.0,1.0,,,,,,,,,,
0.0,1.0,,,,,,puppet_01b.jpg,0.0,clockno_default.jpg,4.0,67,0.269485,,,,,,,,,,,,,,,,,,0.0,22.0,22.0,22.0,1.0,,,,,,,,,,
0.0,1.0,,,,,,soccer_ball_12s.jpg,0.0,clockno_up.jpg,5.0,67,0.315425,,,,,,,,,,,,,,,,,,0.0,23.0,23.0,23.0,1.0,,,,,,,,,,
0.0,1.0,,,,,,fox_13s.jpg,0.0,clockno_default.jpg,5.0,67,0.496025,,,,,,,,,,,,,,,,,,0.0,24.0,24.0,24.0,1.0,,,,,,,,,,
0.0,1.0,,,,,,birthday_cake_09s.jpg,0.0,clockno_default.jpg,5.0,67,0.701115,,,,,,,,,,,,,,,,,,0.0,25.0,25.0,25.0,1.0,,,,,,,,,,
0.0,1.0,,,,,,sushi_08s.jpg,0.0,clockno_default.jpg,5.0,67,1.209745,,,,,,,,,,,,,,,,,,0.0,26.0,26.0,26.0,1.0,,,,,,,,,,
0.0,1.0,,,,,,sparkler_02s.jpg,0.0,clockno_default.jpg,5.0,67,0.532685,,,,,,,,,,,,,,,,,,0.0,27.0,27.0,27.0,1.0,,,,,,,,,,
0.0,1.0,,,,,,dashboard_02s.jpg,0.0,clockno_default.jpg,5.0,67,0.470235,,,,,,,,,,,,,,,,,,0.0,28.0,28.0,28.0,1.0,,,,,,,,,,
0.0,1.0,,,,,,lizard_10n.jpg,0.0,clockno_up.jpg,6.0,67,0.46878,,,,,,,,,,,,,,,,,,0.0,29.0,29.0,29.0,1.0,,,,,,,,,,
0.0,1.0,,,,,,purse_05s.jpg,0.0,clockno_default.jpg,6.0,67,0.542895,,,,,,,,,,,,,,,,,,0.0,30.0,30.0,30.0,1.0,,,,,,,,,,
0.0,1.0,,,,,,owl_15s.jpg,0.0,clockno_default.jpg,6.0,67,0.456155,,,,,,,,,,,,,,,,,,0.0,31.0,31.0,31.0,1.0,,,,,,,,,,
0.0,1.0,,,,,,cobra_05s.jpg,0.0,clockno_default.jpg,6.0,67,0.471135,,,,,,,,,,,,,,,,,,0.0,32.0,32.0,32.0,1.0,,,,,,,,,,
1.0,1.0,,,,,,owl_15s.jpg,1.0,clockno_default.jpg,6.0,67,1.8612,,,,,,,,,,,,,,,,,,0.0,33.0,33.0,33.0,1.0,,,,,,,,,,
0.0,1.0,,,,,,pomegranate_04s.jpg,0.0,clockno_default.jpg,6.0,67,1.03292,,,,,,,,,,,,,,,,,,0.0,34.0,34.0,34.0,1.0,,,,,,,,,,
0.0,1.0,,,,,,plug_08s.jpg,0.0,clockno_default.jpg,6.0,67,0.801095,,,,,,,,,,,,,,,,,,0.0,35.0,35.0,35.0,1.0,,,,,,,,,,
,,,,,,,,0.0,,,67,,0.0,1.0,1.8352,,,,,,kilt_18s.jpg,jersey_02s.jpg,,,,,,,,,,,,,0.0,0.0,0.0,0.0,1.0,,,,,
,,,,,,,,0.0,,,67,,1.0,0.0,0.92862,,,,,,raspberry_12s.jpg,bowler_hat_10s.jpg,,,,,,,,,,,,,0.0,1.0,1.0,1.0,1.0,,,,,
,,,,,,,,0.0,,,67,,0.0,1.0,1.070455,,,,,,birthday_cake_09s.jpg,puppet_01b.jpg,,,,,,,,,,,,,0.0,2.0,2.0,2.0,1.0,,,,,
,,,,,,,,0.0,,,67,,0.0,1.0,1.32491,,,,,,plug_08s.jpg,cobra_05s.jpg,,,,,,,,,,,,,0.0,3.0,3.0,3.0,1.0,,,,,
,,,,,,,,0.0,,,67,,1.0,0.0,1.29897,,,,,,light_switch_02s.jpg,harpoon.jpg,,,,,,,,,,,,,0.0,4.0,4.0,4.0,1.0,,,,,
,,,,,,,,1.0,,,67,,0.0,0.0,1.552825,,,,,,mirror_12s.jpg,teacup_07s.jpg,,,,,,,,,,,,,0.0,5.0,5.0,5.0,1.0,,,,,
,,,,,,,,,,,67,,,,,,,,,,,,,,,,,clockno_present_4_16.xlsx,clockno_compare_task_4_16.xlsx,,,,,,,,,,,0.0,3.0,3.0,3.0,1.0
0.0,1.0,,,,,,film_03s.jpg,0.0,clockno_up.jpg,1.0,67,1.477545,,,,,,,,,,,,,,,,,,0.0,0.0,0.0,0.0,1.0,,,,,,,,,,
0.0,1.0,,,,,,stopwatch_04s.jpg,0.0,clockno_default.jpg,1.0,67,0.545965,,,,,,,,,,,,,,,,,,0.0,1.0,1.0,1.0,1.0,,,,,,,,,,
0.0,1.0,,,,,,pepper2_21s.jpg,0.0,clockno_default.jpg,1.0,67,0.35499,,,,,,,,,,,,,,,,,,0.0,2.0,2.0,2.0,1.0,,,,,,,,,,
1.0,1.0,,,,,,film_03s.jpg,1.0,clockno_default.jpg,1.0,67,1.736575,,,,,,,,,,,,,,,,,,0.0,3.0,3.0,3.0,1.0,,,,,,,,,,
1.0,1.0,,,,,,film_03s.jpg,1.0,clockno_default.jpg,1.0,67,1.581,,,,,,,,,,,,,,,,,,0.0,4.0,4.0,4.0,1.0,,,,,,,,,,
0.0,1.0,,,,,,ginger_09s.jpg,0.0,clockno_default.jpg,1.0,67,0.861865,,,,,,,,,,,,,,,,,,0.0,5.0,5.0,5.0,1.0,,,,,,,,,,
0.0,0.0,,,,,,pepper2_21s.jpg,1.0,clockno_default.jpg,1.0,67,0.39261,,,,,,,,,,,,,,,,,,0.0,6.0,6.0,6.0,1.0,,,,,,,,,,
0.0,1.0,,,,,,puffin_19s.jpg,0.0,clockno_up.jpg,2.0,67,0.83174,,,,,,,,,,,,,,,,,,0.0,7.0,7.0,7.0,1.0,,,,,,,,,,
0.0,1.0,,,,,,golf_club_03s.jpg,0.0,clockno_default.jpg,2.0,67,0.59227,,,,,,,,,,,,,,,,,,0.0,8.0,8.0,8.0,1.0,,,,,,,,,,
0.0,1.0,,,,,,crab_16s.jpg,0.0,clockno_default.jpg,2.0,67,0.51547,,,,,,,,,,,,,,,,,,0.0,9.0,9.0,9.0,1.0,,,,,,,,,,
0.0,1.0,,,,,,bathtub_23s.jpg,0.0,clockno_default.jpg,2.0,67,0.31662,,,,,,,,,,,,,,,,,,0.0,10.0,10.0,10.0,1.0,,,,,,,,,,
1.0,1.0,,,,,,crab_16s.jpg,1.0,clockno_default.jpg,2.0,67,1.31597,,,,,,,,,,,,,,,,,,0.0,11.0,11.0,11.0,1.0,,,,,,,,,,
0.0,1.0,,,,,,pancake_12s.jpg,0.0,clockno_default.jpg,2.0,67,0.567445,,,,,,,,,,,,,,,,,,0.0,12.0,12.0,12.0,1.0,,,,,,,,,,
0.0,1.0,,,,,,lamb_04s.jpg,0.0,clockno_up.jpg,3.0,67,0.85116,,,,,,,,,,,,,,,,,,0.0,13.0,13.0,13.0,1.0,,,,,,,,,,
0.0,1.0,,,,,,ladle_04s.jpg,0.0,clockno_default.jpg,3.0,67,0.647705,,,,,,,,,,,,,,,,,,0.0,14.0,14.0,14.0,1.0,,,,,,,,,,
0.0,1.0,,,,,,popsicle_02s.jpg,0.0,clockno_default.jpg,3.0,67,0.68259,,,,,,,,,,,,,,,,,,0.0,15.0,15.0,15.0,1.0,,,,,,,,,,
0.0,1.0,,,,,,eiffeltower.jpg,0.0,clockno_default.jpg,3.0,67,0.527595,,,,,,,,,,,,,,,,,,0.0,16.0,16.0,16.0,1.0,,,,,,,,,,
0.0,1.0,,,,,,rolling_pin_02s.jpg,0.0,clockno_default.jpg,3.0,67,0.570865,,,,,,,,,,,,,,,,,,0.0,17.0,17.0,17.0,1.0,,,,,,,,,,
0.0,1.0,,,,,,lantern_04s.jpg,0.0,clockno_up.jpg,4.0,67,0.79976,,,,,,,,,,,,,,,,,,0.0,18.0,18.0,18.0,1.0,,,,,,,,,,
0.0,1.0,,,,,,telephone_pole_05s.jpg,0.0,clockno_default.jpg,4.0,67,0.846125,,,,,,,,,,,,,,,,,,0.0,19.0,19.0,19.0,1.0,,,,,,,,,,
1.0,1.0,,,,,,lantern_04s.jpg,1.0,clockno_default.jpg,4.0,67,1.608705,,,,,,,,,,,,,,,,,,0.0,20.0,20.0,20.0,1.0,,,,,,,,,,
0.0,1.0,,,,,,seahorse_13s.jpg,0.0,clockno_default.jpg,4.0,67,0.61475,,,,,,,,,,,,,,,,,,0.0,21.0,21.0,21.0,1.0,,,,,,,,,,
0.0,1.0,,,,,,ruby_15s.jpg,0.0,clockno_default.jpg,4.0,67,0.580945,,,,,,,,,,,,,,,,,,0.0,22.0,22.0,22.0,1.0,,,,,,,,,,
0.0,1.0,,,,,,machete_06s.jpg,0.0,clockno_up.jpg,5.0,67,0.344405,,,,,,,,,,,,,,,,,,0.0,23.0,23.0,23.0,1.0,,,,,,,,,,
0.0,1.0,,,,,,dirt_bike_11s.jpg,0.0,clockno_default.jpg,5.0,67,0.612965,,,,,,,,,,,,,,,,,,0.0,24.0,24.0,24.0,1.0,,,,,,,,,,
0.0,1.0,,,,,,tuxedo_01b.jpg,0.0,clockno_default.jpg,5.0,67,0.855595,,,,,,,,,,,,,,,,,,0.0,25.0,25.0,25.0,1.0,,,,,,,,,,
0.0,1.0,,,,,,mascara_03s.jpg,0.0,clockno_default.jpg,5.0,67,0.612395,,,,,,,,,,,,,,,,,,0.0,26.0,26.0,26.0,1.0,,,,,,,,,,
0.0,1.0,,,,,,puddle_02s.jpg,0.0,clockno_default.jpg,5.0,67,0.321765,,,,,,,,,,,,,,,,,,0.0,27.0,27.0,27.0,1.0,,,,,,,,,,
0.0,1.0,,,,,,lantern_04s.jpg,0.0,clockno_default.jpg,5.0,67,1.4934,,,,,,,,,,,,,,,,,,0.0,28.0,28.0,28.0,1.0,,,,,,,,,,
0.0,1.0,,,,,,pump_11s.jpg,0.0,clockno_up.jpg,6.0,67,0.763385,,,,,,,,,,,,,,,,,,0.0,29.0,29.0,29.0,1.0,,,,,,,,,,
0.0,1.0,,,,,,machine_gun_09s.jpg,0.0,clockno_default.jpg,6.0,67,0.347715,,,,,,,,,,,,,,,,,,0.0,30.0,30.0,30.0,1.0,,,,,,,,,,
0.0,1.0,,,,,,mitten_10s.jpg,0.0,clockno_default.jpg,6.0,67,0.64797,,,,,,,,,,,,,,,,,,0.0,31.0,31.0,31.0,1.0,,,,,,,,,,
0.0,1.0,,,,,,joystick_01b.jpg,0.0,clockno_default.jpg,6.0,67,0.52027,,,,,,,,,,,,,,,,,,0.0,32.0,32.0,32.0,1.0,,,,,,,,,,
0.0,1.0,,,,,,rice_12s.jpg,0.0,clockno_default.jpg,6.0,67,0.495095,,,,,,,,,,,,,,,,,,0.0,33.0,33.0,33.0,1.0,,,,,,,,,,
0.0,1.0,,,,,,lifesaver_10s.jpg,0.0,clockno_default.jpg,6.0,67,0.577865,,,,,,,,,,,,,,,,,,0.0,34.0,34.0,34.0,1.0,,,,,,,,,,
0.0,1.0,,,,,,lamp_08s.jpg,0.0,clockno_default.jpg,6.0,67,0.47638,,,,,,,,,,,,,,,,,,0.0,35.0,35.0,35.0,1.0,,,,,,,,,,
,,,,,,,,0.0,,,67,,0.0,1.0,1.912445,,,,,,golf_club_03s.jpg,ginger_09s.jpg,,,,,,,,,,,,,0.0,0.0,0.0,0.0,1.0,,,,,
,,,,,,,,0.0,,,67,,0.0,1.0,1.3882,,,,,,popsicle_02s.jpg,pancake_12s.jpg,,,,,,,,,,,,,0.0,1.0,1.0,1.0,1.0,,,,,
,,,,,,,,1.0,,,67,,0.0,0.0,1.106875,,,,,,seahorse_13s.jpg,dirt_bike_11s.jpg,,,,,,,,,,,,,0.0,2.0,2.0,2.0,1.0,,,,,
,,,,,,,,1.0,,,67,,1.0,1.0,1.540305,,,,,,ladle_04s.jpg,rolling_pin_02s.jpg,,,,,,,,,,,,,0.0,3.0,3.0,3.0,1.0,,,,,
,,,,,,,,1.0,,,67,,0.0,0.0,1.059195,,,,,,mitten_10s.jpg,lifesaver_10s.jpg,,,,,,,,,,,,,0.0,4.0,4.0,4.0,1.0,,,,,
,,,,,,,,0.0,,,67,,1.0,0.0,1.489315,,,,,,lamp_08s.jpg,joystick_01b.jpg,,,,,,,,,,,,,0.0,5.0,5.0,5.0,1.0,,,,,
,,,,,,,,,,,67,,,,,,,,,,,,,,,,,clockno_present_5_16.xlsx,clockno_compare_task_5_16.xlsx,,,,,,,,,,,0.0,4.0,4.0,4.0,1.0
0.0,1.0,,,,,,seagull_01b.jpg,0.0,clockno_up.jpg,1.0,67,1.84946,,,,,,,,,,,,,,,,,,0.0,0.0,0.0,0.0,1.0,,,,,,,,,,
0.0,1.0,,,,,,denture_03s.jpg,0.0,clockno_default.jpg,1.0,67,2.10438,,,,,,,,,,,,,,,,,,0.0,1.0,1.0,1.0,1.0,,,,,,,,,,
1.0,1.0,,,,,,seagull_01b.jpg,1.0,clockno_default.jpg,1.0,67,1.75973,,,,,,,,,,,,,,,,,,0.0,2.0,2.0,2.0,1.0,,,,,,,,,,
1.0,1.0,,,,,,seagull_01b.jpg,1.0,clockno_default.jpg,1.0,67,1.295085,,,,,,,,,,,,,,,,,,0.0,3.0,3.0,3.0,1.0,,,,,,,,,,
0.0,0.0,,,,,,seagull_01b.jpg,1.0,clockno_default.jpg,1.0,67,1.969375,,,,,,,,,,,,,,,,,,0.0,4.0,4.0,4.0,1.0,,,,,,,,,,
,0.0,,,,,,knitting_needle_04s.jpg,0.0,clockno_default.jpg,1.0,67,,,,,,,,,,,,,,,,,,,0.0,5.0,5.0,5.0,1.0,,,,,,,,,,
,0.0,,,,,,birdcage_08s.jpg,0.0,clockno_default.jpg,1.0,67,,,,,,,,,,,,,,,,,,,0.0,6.0,6.0,6.0,1.0,,,,,,,,,,
0.0,1.0,,,,,,pie_08s.jpg,0.0,clockno_up.jpg,2.0,67,0.60419,,,,,,,,,,,,,,,,,,0.0,7.0,7.0,7.0,1.0,,,,,,,,,,
0.0,1.0,,,,,,glasses01a.jpg,0.0,clockno_default.jpg,2.0,67,0.90593,,,,,,,,,,,,,,,,,,0.0,8.0,8.0,8.0,1.0,,,,,,,,,,
0.0,1.0,,,,,,onion_10s.jpg,0.0,clockno_default.jpg,2.0,67,0.37195,,,,,,,,,,,,,,,,,,0.0,9.0,9.0,9.0,1.0,,,,,,,,,,
1.0,0.0,,,,,,seagull_01b.jpg,0.0,clockno_default.jpg,2.0,67,2.423155,,,,,,,,,,,,,,,,,,0.0,10.0,10.0,10.0,1.0,,,,,,,,,,
0.0,1.0,,,,,,tortilla_06s.jpg,0.0,clockno_default.jpg,2.0,67,0.530055,,,,,,,,,,,,,,,,,,0.0,11.0,11.0,11.0,1.0,,,,,,,,,,
0.0,1.0,,,,,,panda_02s.jpg,0.0,clockno_up.jpg,3.0,67,0.39101,,,,,,,,,,,,,,,,,,0.0,12.0,12.0,12.0,1.0,,,,,,,,,,
0.0,1.0,,,,,,lipstick_02s.jpg,0.0,clockno_default.jpg,3.0,67,0.2675,,,,,,,,,,,,,,,,,,0.0,13.0,13.0,13.0,1.0,,,,,,,,,,
1.0,1.0,,,,,,lipstick_02s.jpg,1.0,clockno_default.jpg,3.0,67,1.548535,,,,,,,,,,,,,,,,,,0.0,14.0,14.0,14.0,1.0,,,,,,,,,,
0.0,1.0,,,,,,chime_12s.jpg,0.0,clockno_default.jpg,3.0,67,0.581495,,,,,,,,,,,,,,,,,,0.0,15.0,15.0,15.0,1.0,,,,,,,,,,
0.0,0.0,,,,,,panda_02s.jpg,1.0,clockno_default.jpg,3.0,67,0.81362,,,,,,,,,,,,,,,,,,0.0,16.0,16.0,16.0,1.0,,,,,,,,,,
0.0,1.0,,,,,,mug_06s.jpg,0.0,clockno_default.jpg,3.0,67,0.46514,,,,,,,,,,,,,,,,,,0.0,17.0,17.0,17.0,1.0,,,,,,,,,,
0.0,1.0,,,,,,pie_08s.jpg,0.0,clockno_default.jpg,3.0,67,0.558885,,,,,,,,,,,,,,,,,,0.0,18.0,18.0,18.0,1.0,,,,,,,,,,
0.0,1.0,,,,,,latch_15s.jpg,0.0,clockno_up.jpg,4.0,67,0.4971,,,,,,,,,,,,,,,,,,0.0,19.0,19.0,19.0,1.0,,,,,,,,,,
1.0,1.0,,,,,,latch_15s.jpg,1.0,clockno_default.jpg,4.0,67,1.347945,,,,,,,,,,,,,,,,,,0.0,20.0,20.0,20.0,1.0,,,,,,,,,,
0.0,1.0,,,,,,camcorder_10s.jpg,0.0,clockno_default.jpg,4.0,67,0.485345,,,,,,,,,,,,,,,,,,0.0,21.0,21.0,21.0,1.0,,,,,,,,,,
0.0,1.0,,,,,,kimono_13s.jpg,0.0,clockno_default.jpg,4.0,67,0.51144,,,,,,,,,,,,,,,,,,0.0,22.0,22.0,22.0,1.0,,,,,,,,,,
1.0,1.0,,,,,,kimono_13s.jpg,1.0,clockno_default.jpg,4.0,67,1.830455,,,,,,,,,,,,,,,,,,0.0,23.0,23.0,23.0,1.0,,,,,,,,,,
0.0,1.0,,,,,,bee_20s.jpg,0.0,clockno_up.jpg,5.0,67,0.41333,,,,,,,,,,,,,,,,,,0.0,24.0,24.0,24.0,1.0,,,,,,,,,,
0.0,1.0,,,,,,saddle_06s.jpg,0.0,clockno_default.jpg,5.0,67,0.3889,,,,,,,,,,,,,,,,,,0.0,25.0,25.0,25.0,1.0,,,,,,,,,,
0.0,1.0,,,,,,fire_alarm_05s.jpg,0.0,clockno_default.jpg,5.0,67,1.579975,,,,,,,,,,,,,,,,,,0.0,26.0,26.0,26.0,1.0,,,,,,,,,,
0.0,1.0,,,,,,ram_05s.jpg,0.0,clockno_default.jpg,5.0,67,0.47345,,,,,,,,,,,,,,,,,,0.0,27.0,27.0,27.0,1.0,,,,,,,,,,
0.0,1.0,,,,,,coral_08s.jpg,0.0,clockno_default.jpg,5.0,67,2.100715,,,,,,,,,,,,,,,,,,0.0,28.0,28.0,28.0,1.0,,,,,,,,,,
0.0,1.0,,,,,,roller_coaster_07s.jpg,0.0,clockno_default.jpg,5.0,67,0.848855,,,,,,,,,,,,,,,,,,0.0,29.0,29.0,29.0,1.0,,,,,,,,,,
0.0,1.0,,,,,,playpen_11s.jpg,0.0,clockno_up.jpg,6.0,67,1.47057,,,,,,,,,,,,,,,,,,0.0,30.0,30.0,30.0,1.0,,,,,,,,,,
0.0,1.0,,,,,,mask_09s.jpg,0.0,clockno_default.jpg,6.0,67,1.780895,,,,,,,,,,,,,,,,,,0.0,31.0,31.0,31.0,1.0,,,,,,,,,,
0.0,0.0,,,,,,mask_09s.jpg,1.0,clockno_default.jpg,6.0,67,0.495045,,,,,,,,,,,,,,,,,,0.0,32.0,32.0,32.0,1.0,,,,,,,,,,
0.0,1.0,,,,,,turf_03s.jpg,0.0,clockno_default.jpg,6.0,67,1.701615,,,,,,,,,,,,,,,,,,0.0,33.0,33.0,33.0,1.0,,,,,,,,,,
0.0,1.0,,,,,,go-kart_10s.jpg,0.0,clockno_default.jpg,6.0,67,1.75142,,,,,,,,,,,,,,,,,,0.0,34.0,34.0,34.0,1.0,,,,,,,,,,
0.0,1.0,,,,,,polaroid_05s.jpg,0.0,clockno_default.jpg,6.0,67,1.14795,,,,,,,,,,,,,,,,,,0.0,35.0,35.0,35.0,1.0,,,,,,,,,,
,,,,,,,,1.0,,,67,,0.0,0.0,1.927045,,,,,,birdcage_08s.jpg,onion_10s.jpg,,,,,,,,,,,,,0.0,0.0,0.0,0.0,1.0,,,,,
,,,,,,,,0.0,,,67,,0.0,1.0,1.073555,,,,,,glasses01a.jpg,knitting_needle_04s.jpg,,,,,,,,,,,,,0.0,1.0,1.0,1.0,1.0,,,,,
,,,,,,,,0.0,,,67,,0.0,1.0,1.71288,,,,,,bee_20s.jpg,camcorder_10s.jpg,,,,,,,,,,,,,0.0,2.0,2.0,2.0,1.0,,,,,
,,,,,,,,0.0,,,67,,1.0,0.0,1.022525,,,,,,coral_08s.jpg,saddle_06s.jpg,,,,,,,,,,,,,0.0,3.0,3.0,3.0,1.0,,,,,
,,,,,,,,1.0,,,67,,1.0,1.0,1.36886,,,,,,fire_alarm_05s.jpg,roller_coaster_07s.jpg,,,,,,,,,,,,,0.0,4.0,4.0,4.0,1.0,,,,,
,,,,,,,,0.0,,,67,,0.0,1.0,1.222655,,,,,,turf_03s.jpg,playpen_11s.jpg,,,,,,,,,,,,,0.0,5.0,5.0,5.0,1.0,,,,,
