key_resp.keys,key_resp.corr,key_resp.rt,noclock_loop.thisRepN,noclock_loop.thisTrialN,noclock_loop.thisN,noclock_loop.thisIndex,noclock_loop.ran,pictures,answer,clock,segment,participant,key_resp_2.keys,key_resp_2.corr,key_resp_2.rt,noclock_loop2.thisRepN,noclock_loop2.thisTrialN,noclock_loop2.thisN,noclock_loop2.thisIndex,noclock_loop2.ran,item_a,item_b,noclock_condition.thisRepN,noclock_condition.thisTrialN,noclock_condition.thisN,noclock_condition.thisIndex,noclock_condition.ran,present,compare,present_segment.thisRepN,present_segment.thisTrialN,present_segment.thisN,present_segment.thisIndex,present_segment.ran,compare_segment.thisRepN,compare_segment.thisTrialN,compare_segment.thisN,compare_segment.thisIndex,compare_segment.ran,clock_conditions.thisRepN,clock_conditions.thisTrialN,clock_conditions.thisN,clock_conditions.thisIndex,clock_conditions.ran
0.0,1.0,1.59016,0.0,0.0,0.0,0.0,1.0,swan_11s.jpg,0.0,clockno_up.jpg,1.0,10,,,,,,,,,,,,,,,,,,,,,,,,,,,,,,,,
0.0,1.0,0.813925,0.0,1.0,1.0,1.0,1.0,hummingbird_05s.jpg,0.0,clockno_default.jpg,1.0,10,,,,,,,,,,,,,,,,,,,,,,,,,,,,,,,,
0.0,1.0,0.864975,0.0,2.0,2.0,2.0,1.0,pretzel_09s.jpg,0.0,clockno_default.jpg,1.0,10,,,,,,,,,,,,,,,,,,,,,,,,,,,,,,,,
1.0,1.0,0.84954,0.0,3.0,3.0,3.0,1.0,pretzel_09s.jpg,1.0,clockno_default.jpg,1.0,10,,,,,,,,,,,,,,,,,,,,,,,,,,,,,,,,
1.0,1.0,0.900305,0.0,4.0,4.0,4.0,1.0,pretzel_09s.jpg,1.0,clockno_default.jpg,1.0,10,,,,,,,,,,,,,,,,,,,,,,,,,,,,,,,,
,0.0,,0.0,5.0,5.0,5.0,1.0,tennis_ball_06s.jpg,0.0,clockno_default.jpg,1.0,10,,,,,,,,,,,,,,,,,,,,,,,,,,,,,,,,
0.0,1.0,0.70248,0.0,6.0,6.0,6.0,1.0,perfume_06s.jpg,0.0,clockno_up.jpg,2.0,10,,,,,,,,,,,,,,,,,,,,,,,,,,,,,,,,
1.0,0.0,0.95169,0.0,7.0,7.0,7.0,1.0,pretzel_09s.jpg,0.0,clockno_default.jpg,2.0,10,,,,,,,,,,,,,,,,,,,,,,,,,,,,,,,,
0.0,1.0,0.94637,0.0,8.0,8.0,8.0,1.0,teapot_03s.jpg,0.0,clockno_default.jpg,2.0,10,,,,,,,,,,,,,,,,,,,,,,,,,,,,,,,,
0.0,1.0,0.813705,0.0,9.0,9.0,9.0,1.0,denture_03s.jpg,0.0,clockno_default.jpg,2.0,10,,,,,,,,,,,,,,,,,,,,,,,,,,,,,,,,
0.0,1.0,0.57671,0.0,10.0,10.0,10.0,1.0,mitten_10s.jpg,0.0,clockno_default.jpg,2.0,10,,,,,,,,,,,,,,,,,,,,,,,,,,,,,,,,
0.0,1.0,0.662735,0.0,11.0,11.0,11.0,1.0,pineapple_12s.jpg,0.0,clockno_up.jpg,3.0,10,,,,,,,,,,,,,,,,,,,,,,,,,,,,,,,,
0.0,1.0,0.72983,0.0,12.0,12.0,12.0,1.0,fire_pit_10s.jpg,0.0,clockno_default.jpg,3.0,10,,,,,,,,,,,,,,,,,,,,,,,,,,,,,,,,
0.0,1.0,1.224455,0.0,13.0,13.0,13.0,1.0,icemaker_10s.jpg,0.0,clockno_default.jpg,3.0,10,,,,,,,,,,,,,,,,,,,,,,,,,,,,,,,,
0.0,1.0,0.93095,0.0,14.0,14.0,14.0,1.0,denture_03s.jpg,0.0,clockno_default.jpg,3.0,10,,,,,,,,,,,,,,,,,,,,,,,,,,,,,,,,
0.0,1.0,0.882725,0.0,15.0,15.0,15.0,1.0,tomato_sauce_09s.jpg,0.0,clockno_default.jpg,3.0,10,,,,,,,,,,,,,,,,,,,,,,,,,,,,,,,,
0.0,1.0,0.696795,0.0,16.0,16.0,16.0,1.0,chalice_10s.jpg,0.0,clockno_up.jpg,4.0,10,,,,,,,,,,,,,,,,,,,,,,,,,,,,,,,,
0.0,1.0,0.75681,0.0,17.0,17.0,17.0,1.0,pepper_mill_03s.jpg,0.0,clockno_default.jpg,4.0,10,,,,,,,,,,,,,,,,,,,,,,,,,,,,,,,,
0.0,1.0,0.876525,0.0,18.0,18.0,18.0,1.0,pencil_sharpener_09n.jpg,0.0,clockno_default.jpg,4.0,10,,,,,,,,,,,,,,,,,,,,,,,,,,,,,,,,
1.0,1.0,0.833115,0.0,19.0,19.0,19.0,1.0,chalice_10s.jpg,1.0,clockno_default.jpg,4.0,10,,,,,,,,,,,,,,,,,,,,,,,,,,,,,,,,
0.0,1.0,0.919485,0.0,20.0,20.0,20.0,1.0,crossbow_10s.jpg,0.0,clockno_default.jpg,4.0,10,,,,,,,,,,,,,,,,,,,,,,,,,,,,,,,,
0.0,1.0,0.646465,0.0,21.0,21.0,21.0,1.0,tortilla_06s.jpg,0.0,clockno_default.jpg,4.0,10,,,,,,,,,,,,,,,,,,,,,,,,,,,,,,,,
0.0,1.0,0.729455,0.0,22.0,22.0,22.0,1.0,penlight_12s.jpg,0.0,clockno_default.jpg,4.0,10,,,,,,,,,,,,,,,,,,,,,,,,,,,,,,,,
0.0,1.0,0.629525,0.0,23.0,23.0,23.0,1.0,keyboard_05s.jpg,0.0,clockno_up.jpg,5.0,10,,,,,,,,,,,,,,,,,,,,,,,,,,,,,,,,
1.0,1.0,1.069355,0.0,24.0,24.0,24.0,1.0,keyboard_05s.jpg,1.0,clockno_default.jpg,5.0,10,,,,,,,,,,,,,,,,,,,,,,,,,,,,,,,,
0.0,1.0,0.66512,0.0,25.0,25.0,25.0,1.0,sparkler_02s.jpg,0.0,clockno_default.jpg,5.0,10,,,,,,,,,,,,,,,,,,,,,,,,,,,,,,,,
0.0,1.0,0.663065,0.0,26.0,26.0,26.0,1.0,pinwheel_06s.jpg,0.0,clockno_default.jpg,5.0,10,,,,,,,,,,,,,,,,,,,,,,,,,,,,,,,,
0.0,1.0,0.93539,0.0,27.0,27.0,27.0,1.0,frog_09s.jpg,0.0,clockno_default.jpg,5.0,10,,,,,,,,,,,,,,,,,,,,,,,,,,,,,,,,
0.0,1.0,0.847335,0.0,28.0,28.0,28.0,1.0,pepper_mill_03s.jpg,0.0,clockno_default.jpg,5.0,10,,,,,,,,,,,,,,,,,,,,,,,,,,,,,,,,
0.0,1.0,0.65375,0.0,29.0,29.0,29.0,1.0,gargoyle_08s.jpg,0.0,clockno_default.jpg,5.0,10,,,,,,,,,,,,,,,,,,,,,,,,,,,,,,,,
0.0,1.0,0.579225,0.0,30.0,30.0,30.0,1.0,rosary_03s.jpg,0.0,clockno_up.jpg,6.0,10,,,,,,,,,,,,,,,,,,,,,,,,,,,,,,,,
0.0,0.0,0.81382,0.0,31.0,31.0,31.0,1.0,rosary_03s.jpg,1.0,clockno_default.jpg,6.0,10,,,,,,,,,,,,,,,,,,,,,,,,,,,,,,,,
0.0,1.0,0.83013,0.0,32.0,32.0,32.0,1.0,chocolate_01b.jpg,0.0,clockno_default.jpg,6.0,10,,,,,,,,,,,,,,,,,,,,,,,,,,,,,,,,
1.0,1.0,0.616035,0.0,33.0,33.0,33.0,1.0,chocolate_01b.jpg,1.0,clockno_default.jpg,6.0,10,,,,,,,,,,,,,,,,,,,,,,,,,,,,,,,,
0.0,1.0,0.62779,0.0,34.0,34.0,34.0,1.0,raft_09s.jpg,0.0,clockno_default.jpg,6.0,10,,,,,,,,,,,,,,,,,,,,,,,,,,,,,,,,
0.0,1.0,0.749975,0.0,35.0,35.0,35.0,1.0,ravioli_08s.jpg,0.0,clockno_default.jpg,6.0,10,,,,,,,,,,,,,,,,,,,,,,,,,,,,,,,,
,,,,,,,,,0.0,,,10,0.0,1.0,1.76754,0.0,0.0,0.0,0.0,1.0,teapot_03s.jpg,tennis_ball_06s.jpg,,,,,,,,,,,,,,,,,,,,,,
,,,,,,,,,1.0,,,10,0.0,0.0,1.17396,0.0,1.0,1.0,1.0,1.0,mitten_10s.jpg,icemaker_10s.jpg,,,,,,,,,,,,,,,,,,,,,,
,,,,,,,,,0.0,,,10,1.0,0.0,1.45319,0.0,2.0,2.0,2.0,1.0,sparkler_02s.jpg,penlight_12s.jpg,,,,,,,,,,,,,,,,,,,,,,
,,,,,,,,,1.0,,,10,0.0,0.0,1.915295,0.0,3.0,3.0,3.0,1.0,pinwheel_06s.jpg,gargoyle_08s.jpg,,,,,,,,,,,,,,,,,,,,,,
,,,,,,,,,1.0,,,10,1.0,1.0,1.5941,0.0,4.0,4.0,4.0,1.0,fire_pit_10s.jpg,tomato_sauce_09s.jpg,,,,,,,,,,,,,,,,,,,,,,
,,,,,,,,,1.0,,,10,1.0,1.0,1.00961,0.0,5.0,5.0,5.0,1.0,pencil_sharpener_09n.jpg,tortilla_06s.jpg,,,,,,,,,,,,,,,,,,,,,,
,,,,,,,,,,,,10,,,,,,,,,,,0.0,0.0,0.0,0.0,1.0,clockno_present_1_14.xlsx,clockno_compare_task_1_14.xlsx,,,,,,,,,,,,,,,
0.0,1.0,0.90696,0.0,0.0,0.0,0.0,1.0,mousetrap_15n.jpg,0.0,clockno_up.jpg,1.0,10,,,,,,,,,,,,,,,,,,,,,,,,,,,,,,,,
0.0,1.0,0.86279,0.0,1.0,1.0,1.0,1.0,bee_20s.jpg,0.0,clockno_default.jpg,1.0,10,,,,,,,,,,,,,,,,,,,,,,,,,,,,,,,,
1.0,1.0,0.78023,0.0,2.0,2.0,2.0,1.0,bee_20s.jpg,1.0,clockno_default.jpg,1.0,10,,,,,,,,,,,,,,,,,,,,,,,,,,,,,,,,
1.0,1.0,0.832085,0.0,3.0,3.0,3.0,1.0,mousetrap_15n.jpg,1.0,clockno_default.jpg,1.0,10,,,,,,,,,,,,,,,,,,,,,,,,,,,,,,,,
1.0,1.0,1.34681,0.0,4.0,4.0,4.0,1.0,mousetrap_15n.jpg,1.0,clockno_default.jpg,1.0,10,,,,,,,,,,,,,,,,,,,,,,,,,,,,,,,,
0.0,1.0,0.91466,0.0,5.0,5.0,5.0,1.0,birdcage_08s.jpg,0.0,clockno_up.jpg,2.0,10,,,,,,,,,,,,,,,,,,,,,,,,,,,,,,,,
0.0,1.0,0.69675,0.0,6.0,6.0,6.0,1.0,recliner_02s.jpg,0.0,clockno_default.jpg,2.0,10,,,,,,,,,,,,,,,,,,,,,,,,,,,,,,,,
0.0,1.0,0.75872,0.0,7.0,7.0,7.0,1.0,plunger_08s.jpg,0.0,clockno_default.jpg,2.0,10,,,,,,,,,,,,,,,,,,,,,,,,,,,,,,,,
0.0,1.0,0.62588,0.0,8.0,8.0,8.0,1.0,marker_05s.jpg,0.0,clockno_default.jpg,2.0,10,,,,,,,,,,,,,,,,,,,,,,,,,,,,,,,,
0.0,1.0,0.632585,0.0,9.0,9.0,9.0,1.0,rocking_horse_03s.jpg,0.0,clockno_default.jpg,2.0,10,,,,,,,,,,,,,,,,,,,,,,,,,,,,,,,,
0.0,1.0,0.834935,0.0,10.0,10.0,10.0,1.0,tape_06s.jpg,0.0,clockno_default.jpg,2.0,10,,,,,,,,,,,,,,,,,,,,,,,,,,,,,,,,
0.0,1.0,0.79702,0.0,11.0,11.0,11.0,1.0,plaster_cast_13s.jpg,0.0,clockno_default.jpg,2.0,10,,,,,,,,,,,,,,,,,,,,,,,,,,,,,,,,
0.0,1.0,0.925595,0.0,12.0,12.0,12.0,1.0,diving_board_07s.jpg,0.0,clockno_up.jpg,3.0,10,,,,,,,,,,,,,,,,,,,,,,,,,,,,,,,,
0.0,1.0,0.813095,0.0,13.0,13.0,13.0,1.0,ring_03s.jpg,0.0,clockno_default.jpg,3.0,10,,,,,,,,,,,,,,,,,,,,,,,,,,,,,,,,
0.0,1.0,0.718985,0.0,14.0,14.0,14.0,1.0,lollipop_08s.jpg,0.0,clockno_default.jpg,3.0,10,,,,,,,,,,,,,,,,,,,,,,,,,,,,,,,,
1.0,1.0,0.632195,0.0,15.0,15.0,15.0,1.0,diving_board_07s.jpg,1.0,clockno_default.jpg,3.0,10,,,,,,,,,,,,,,,,,,,,,,,,,,,,,,,,
0.0,1.0,0.813425,0.0,16.0,16.0,16.0,1.0,marker_05s.jpg,0.0,clockno_default.jpg,3.0,10,,,,,,,,,,,,,,,,,,,,,,,,,,,,,,,,
0.0,1.0,0.65196,0.0,17.0,17.0,17.0,1.0,rooster_03s.jpg,0.0,clockno_default.jpg,3.0,10,,,,,,,,,,,,,,,,,,,,,,,,,,,,,,,,
0.0,1.0,0.971885,0.0,18.0,18.0,18.0,1.0,bolo_tie_08s.jpg,0.0,clockno_up.jpg,4.0,10,,,,,,,,,,,,,,,,,,,,,,,,,,,,,,,,
1.0,1.0,0.72138,0.0,19.0,19.0,19.0,1.0,bolo_tie_08s.jpg,1.0,clockno_default.jpg,4.0,10,,,,,,,,,,,,,,,,,,,,,,,,,,,,,,,,
1.0,1.0,0.701765,0.0,20.0,20.0,20.0,1.0,bolo_tie_08s.jpg,1.0,clockno_default.jpg,4.0,10,,,,,,,,,,,,,,,,,,,,,,,,,,,,,,,,
0.0,1.0,0.59714,0.0,21.0,21.0,21.0,1.0,lion_18s.jpg,0.0,clockno_default.jpg,4.0,10,,,,,,,,,,,,,,,,,,,,,,,,,,,,,,,,
0.0,1.0,0.73609,0.0,22.0,22.0,22.0,1.0,ladle_04s.jpg,0.0,clockno_default.jpg,4.0,10,,,,,,,,,,,,,,,,,,,,,,,,,,,,,,,,
0.0,1.0,0.60761,0.0,23.0,23.0,23.0,1.0,bank_06s.jpg,0.0,clockno_default.jpg,4.0,10,,,,,,,,,,,,,,,,,,,,,,,,,,,,,,,,
0.0,1.0,0.61579,0.0,24.0,24.0,24.0,1.0,turtleneck_11s.jpg,0.0,clockno_default.jpg,4.0,10,,,,,,,,,,,,,,,,,,,,,,,,,,,,,,,,
0.0,1.0,0.512625,0.0,25.0,25.0,25.0,1.0,funnel_01b.jpg,0.0,clockno_up.jpg,5.0,10,,,,,,,,,,,,,,,,,,,,,,,,,,,,,,,,
0.0,1.0,0.535695,0.0,26.0,26.0,26.0,1.0,antenna_01b.jpg,0.0,clockno_default.jpg,5.0,10,,,,,,,,,,,,,,,,,,,,,,,,,,,,,,,,
0.0,1.0,0.638105,0.0,27.0,27.0,27.0,1.0,juicer2_06s.jpg,0.0,clockno_default.jpg,5.0,10,,,,,,,,,,,,,,,,,,,,,,,,,,,,,,,,
1.0,1.0,0.787415,0.0,28.0,28.0,28.0,1.0,funnel_01b.jpg,1.0,clockno_default.jpg,5.0,10,,,,,,,,,,,,,,,,,,,,,,,,,,,,,,,,
0.0,1.0,0.593225,0.0,29.0,29.0,29.0,1.0,sunflower_17s.jpg,0.0,clockno_default.jpg,5.0,10,,,,,,,,,,,,,,,,,,,,,,,,,,,,,,,,
0.0,1.0,0.59183,0.0,30.0,30.0,30.0,1.0,crayon_09s.jpg,0.0,clockno_default.jpg,5.0,10,,,,,,,,,,,,,,,,,,,,,,,,,,,,,,,,
0.0,1.0,1.265405,0.0,31.0,31.0,31.0,1.0,gas_mask_11s.jpg,0.0,clockno_up.jpg,6.0,10,,,,,,,,,,,,,,,,,,,,,,,,,,,,,,,,
0.0,1.0,0.506265,0.0,32.0,32.0,32.0,1.0,inhaler_01b.jpg,0.0,clockno_default.jpg,6.0,10,,,,,,,,,,,,,,,,,,,,,,,,,,,,,,,,
1.0,1.0,0.699335,0.0,33.0,33.0,33.0,1.0,gas_mask_11s.jpg,1.0,clockno_default.jpg,6.0,10,,,,,,,,,,,,,,,,,,,,,,,,,,,,,,,,
0.0,1.0,0.75595,0.0,34.0,34.0,34.0,1.0,sunglasses_11s.jpg,0.0,clockno_default.jpg,6.0,10,,,,,,,,,,,,,,,,,,,,,,,,,,,,,,,,
0.0,1.0,0.965535,0.0,35.0,35.0,35.0,1.0,rooster_03s.jpg,0.0,clockno_default.jpg,6.0,10,,,,,,,,,,,,,,,,,,,,,,,,,,,,,,,,
,,,,,,,,,1.0,,,10,1.0,1.0,1.323395,0.0,0.0,0.0,0.0,1.0,plaster_cast_13s.jpg,lollipop_08s.jpg,,,,,,,,,,,,,,,,,,,,,,
,,,,,,,,,1.0,,,10,0.0,0.0,1.20084,0.0,1.0,1.0,1.0,1.0,tape_06s.jpg,ring_03s.jpg,,,,,,,,,,,,,,,,,,,,,,
,,,,,,,,,1.0,,,10,1.0,1.0,1.115,0.0,2.0,2.0,2.0,1.0,bank_06s.jpg,antenna_01b.jpg,,,,,,,,,,,,,,,,,,,,,,
,,,,,,,,,1.0,,,10,1.0,1.0,1.29778,0.0,3.0,3.0,3.0,1.0,recliner_02s.jpg,rocking_horse_03s.jpg,,,,,,,,,,,,,,,,,,,,,,
,,,,,,,,,0.0,,,10,0.0,1.0,1.072465,0.0,4.0,4.0,4.0,1.0,turtleneck_11s.jpg,lion_18s.jpg,,,,,,,,,,,,,,,,,,,,,,
,,,,,,,,,1.0,,,10,1.0,1.0,1.072915,0.0,5.0,5.0,5.0,1.0,juicer2_06s.jpg,crayon_09s.jpg,,,,,,,,,,,,,,,,,,,,,,
,,,,,,,,,,,,10,,,,,,,,,,,0.0,1.0,1.0,1.0,1.0,clockno_present_2_14.xlsx,clockno_compare_task_2_14.xlsx,,,,,,,,,,,,,,,
0.0,1.0,1.144415,0.0,0.0,0.0,0.0,1.0,phone_01b.jpg,0.0,clockno_up.jpg,1.0,10,,,,,,,,,,,,,,,,,,,,,,,,,,,,,,,,
1.0,1.0,0.91591,0.0,1.0,1.0,1.0,1.0,phone_01b.jpg,1.0,clockno_default.jpg,1.0,10,,,,,,,,,,,,,,,,,,,,,,,,,,,,,,,,
0.0,1.0,0.655995,0.0,2.0,2.0,2.0,1.0,pan_02s.jpg,0.0,clockno_default.jpg,1.0,10,,,,,,,,,,,,,,,,,,,,,,,,,,,,,,,,
0.0,1.0,1.250865,0.0,3.0,3.0,3.0,1.0,turnstile_08s.jpg,0.0,clockno_default.jpg,1.0,10,,,,,,,,,,,,,,,,,,,,,,,,,,,,,,,,
0.0,1.0,0.73184,0.0,4.0,4.0,4.0,1.0,rolling_pin_02s.jpg,0.0,clockno_default.jpg,1.0,10,,,,,,,,,,,,,,,,,,,,,,,,,,,,,,,,
0.0,1.0,0.98255,0.0,5.0,5.0,5.0,1.0,rocket_02s.jpg,0.0,clockno_default.jpg,1.0,10,,,,,,,,,,,,,,,,,,,,,,,,,,,,,,,,
0.0,1.0,0.682175,0.0,6.0,6.0,6.0,1.0,cape_11s.jpg,0.0,clockno_default.jpg,1.0,10,,,,,,,,,,,,,,,,,,,,,,,,,,,,,,,,
0.0,1.0,0.650385,0.0,7.0,7.0,7.0,1.0,tube_top_03s.jpg,0.0,clockno_up.jpg,2.0,10,,,,,,,,,,,,,,,,,,,,,,,,,,,,,,,,
0.0,1.0,0.681995,0.0,8.0,8.0,8.0,1.0,gingerbread_man_03s.jpg,0.0,clockno_default.jpg,2.0,10,,,,,,,,,,,,,,,,,,,,,,,,,,,,,,,,
0.0,1.0,0.569475,0.0,9.0,9.0,9.0,1.0,bottle_opener_11s.jpg,0.0,clockno_default.jpg,2.0,10,,,,,,,,,,,,,,,,,,,,,,,,,,,,,,,,
0.0,1.0,0.59755,0.0,10.0,10.0,10.0,1.0,light_switch_02s.jpg,0.0,clockno_default.jpg,2.0,10,,,,,,,,,,,,,,,,,,,,,,,,,,,,,,,,
1.0,1.0,0.71272,0.0,11.0,11.0,11.0,1.0,gingerbread_man_03s.jpg,1.0,clockno_default.jpg,2.0,10,,,,,,,,,,,,,,,,,,,,,,,,,,,,,,,,
0.0,1.0,1.370995,0.0,12.0,12.0,12.0,1.0,turf_03s.jpg,0.0,clockno_up.jpg,3.0,10,,,,,,,,,,,,,,,,,,,,,,,,,,,,,,,,
0.0,1.0,0.96672,0.0,13.0,13.0,13.0,1.0,poinsettia_04s.jpg,0.0,clockno_default.jpg,3.0,10,,,,,,,,,,,,,,,,,,,,,,,,,,,,,,,,
1.0,1.0,0.60866,0.0,14.0,14.0,14.0,1.0,turf_03s.jpg,1.0,clockno_default.jpg,3.0,10,,,,,,,,,,,,,,,,,,,,,,,,,,,,,,,,
0.0,1.0,0.545995,0.0,15.0,15.0,15.0,1.0,quilt_03s.jpg,0.0,clockno_default.jpg,3.0,10,,,,,,,,,,,,,,,,,,,,,,,,,,,,,,,,
0.0,1.0,0.900325,0.0,16.0,16.0,16.0,1.0,tube_top_03s.jpg,0.0,clockno_default.jpg,3.0,10,,,,,,,,,,,,,,,,,,,,,,,,,,,,,,,,
0.0,1.0,0.829715,0.0,17.0,17.0,17.0,1.0,compass_10n.jpg,0.0,clockno_default.jpg,3.0,10,,,,,,,,,,,,,,,,,,,,,,,,,,,,,,,,
0.0,1.0,0.749115,0.0,18.0,18.0,18.0,1.0,fur_coat_11s.jpg,0.0,clockno_default.jpg,3.0,10,,,,,,,,,,,,,,,,,,,,,,,,,,,,,,,,
0.0,1.0,1.249065,0.0,19.0,19.0,19.0,1.0,squirt_gun_03s.jpg,0.0,clockno_up.jpg,4.0,10,,,,,,,,,,,,,,,,,,,,,,,,,,,,,,,,
1.0,1.0,0.68029,0.0,20.0,20.0,20.0,1.0,squirt_gun_03s.jpg,1.0,clockno_default.jpg,4.0,10,,,,,,,,,,,,,,,,,,,,,,,,,,,,,,,,
0.0,1.0,0.531895,0.0,21.0,21.0,21.0,1.0,candy_cane_06s.jpg,0.0,clockno_default.jpg,4.0,10,,,,,,,,,,,,,,,,,,,,,,,,,,,,,,,,
0.0,1.0,0.64334,0.0,22.0,22.0,22.0,1.0,boar_10s.jpg,0.0,clockno_default.jpg,4.0,10,,,,,,,,,,,,,,,,,,,,,,,,,,,,,,,,
0.0,1.0,0.90178,0.0,23.0,23.0,23.0,1.0,poinsettia_04s.jpg,0.0,clockno_default.jpg,4.0,10,,,,,,,,,,,,,,,,,,,,,,,,,,,,,,,,
0.0,1.0,1.365405,0.0,24.0,24.0,24.0,1.0,possum_09s.jpg,0.0,clockno_default.jpg,4.0,10,,,,,,,,,,,,,,,,,,,,,,,,,,,,,,,,
0.0,1.0,0.63941,0.0,25.0,25.0,25.0,1.0,cobra_05s.jpg,0.0,clockno_up.jpg,5.0,10,,,,,,,,,,,,,,,,,,,,,,,,,,,,,,,,
0.0,1.0,0.779965,0.0,26.0,26.0,26.0,1.0,chopsticks_08s.jpg,0.0,clockno_default.jpg,5.0,10,,,,,,,,,,,,,,,,,,,,,,,,,,,,,,,,
0.0,1.0,0.68319,0.0,27.0,27.0,27.0,1.0,fossil_06s.jpg,0.0,clockno_default.jpg,5.0,10,,,,,,,,,,,,,,,,,,,,,,,,,,,,,,,,
1.0,1.0,0.72144,0.0,28.0,28.0,28.0,1.0,fossil_06s.jpg,1.0,clockno_default.jpg,5.0,10,,,,,,,,,,,,,,,,,,,,,,,,,,,,,,,,
0.0,1.0,0.602695,0.0,29.0,29.0,29.0,1.0,padlock_07s.jpg,0.0,clockno_default.jpg,5.0,10,,,,,,,,,,,,,,,,,,,,,,,,,,,,,,,,
0.0,1.0,1.19343,0.0,30.0,30.0,30.0,1.0,soda_fountain_03s.jpg,0.0,clockno_up.jpg,6.0,10,,,,,,,,,,,,,,,,,,,,,,,,,,,,,,,,
0.0,1.0,0.96001,0.0,31.0,31.0,31.0,1.0,pipe1_10s.jpg,0.0,clockno_default.jpg,6.0,10,,,,,,,,,,,,,,,,,,,,,,,,,,,,,,,,
0.0,1.0,1.17142,0.0,32.0,32.0,32.0,1.0,loom_05s.jpg,0.0,clockno_default.jpg,6.0,10,,,,,,,,,,,,,,,,,,,,,,,,,,,,,,,,
0.0,1.0,0.63037,0.0,33.0,33.0,33.0,1.0,jersey_02s.jpg,0.0,clockno_default.jpg,6.0,10,,,,,,,,,,,,,,,,,,,,,,,,,,,,,,,,
0.0,1.0,0.862635,0.0,34.0,34.0,34.0,1.0,mop_08s.jpg,0.0,clockno_default.jpg,6.0,10,,,,,,,,,,,,,,,,,,,,,,,,,,,,,,,,
0.0,1.0,0.572275,0.0,35.0,35.0,35.0,1.0,puppet_01b.jpg,0.0,clockno_default.jpg,6.0,10,,,,,,,,,,,,,,,,,,,,,,,,,,,,,,,,
,,,,,,,,,1.0,,,10,1.0,1.0,1.92908,0.0,0.0,0.0,0.0,1.0,boar_10s.jpg,cobra_05s.jpg,,,,,,,,,,,,,,,,,,,,,,
,,,,,,,,,0.0,,,10,1.0,0.0,1.06784,0.0,1.0,1.0,1.0,1.0,bottle_opener_11s.jpg,cape_11s.jpg,,,,,,,,,,,,,,,,,,,,,,
,,,,,,,,,0.0,,,10,1.0,0.0,1.12449,0.0,2.0,2.0,2.0,1.0,candy_cane_06s.jpg,fur_coat_11s.jpg,,,,,,,,,,,,,,,,,,,,,,
,,,,,,,,,0.0,,,10,0.0,1.0,1.15171,0.0,3.0,3.0,3.0,1.0,rocket_02s.jpg,pan_02s.jpg,,,,,,,,,,,,,,,,,,,,,,
,,,,,,,,,1.0,,,10,1.0,1.0,0.88621,0.0,4.0,4.0,4.0,1.0,soda_fountain_03s.jpg,jersey_02s.jpg,,,,,,,,,,,,,,,,,,,,,,
,,,,,,,,,0.0,,,10,0.0,1.0,1.502175,0.0,5.0,5.0,5.0,1.0,mop_08s.jpg,pipe1_10s.jpg,,,,,,,,,,,,,,,,,,,,,,
,,,,,,,,,,,,10,,,,,,,,,,,0.0,2.0,2.0,2.0,1.0,clockno_present_3_14.xlsx,clockno_compare_task_3_14.xlsx,,,,,,,,,,,,,,,
0.0,1.0,0.95523,0.0,0.0,0.0,0.0,1.0,beard_16s.jpg,0.0,clockno_up.jpg,1.0,10,,,,,,,,,,,,,,,,,,,,,,,,,,,,,,,,
1.0,1.0,0.75356,0.0,1.0,1.0,1.0,1.0,beard_16s.jpg,1.0,clockno_default.jpg,1.0,10,,,,,,,,,,,,,,,,,,,,,,,,,,,,,,,,
0.0,1.0,0.84091,0.0,2.0,2.0,2.0,1.0,printer_09s.jpg,0.0,clockno_default.jpg,1.0,10,,,,,,,,,,,,,,,,,,,,,,,,,,,,,,,,
0.0,1.0,0.664185,0.0,3.0,3.0,3.0,1.0,juicer1_08s.jpg,0.0,clockno_default.jpg,1.0,10,,,,,,,,,,,,,,,,,,,,,,,,,,,,,,,,
0.0,1.0,0.664155,0.0,4.0,4.0,4.0,1.0,cotton_candy_01b.jpg,0.0,clockno_default.jpg,1.0,10,,,,,,,,,,,,,,,,,,,,,,,,,,,,,,,,
0.0,1.0,0.84899,0.0,5.0,5.0,5.0,1.0,tape_measure_11s.jpg,0.0,clockno_up.jpg,2.0,10,,,,,,,,,,,,,,,,,,,,,,,,,,,,,,,,
0.0,1.0,0.875775,0.0,6.0,6.0,6.0,1.0,beard_16s.jpg,0.0,clockno_default.jpg,2.0,10,,,,,,,,,,,,,,,,,,,,,,,,,,,,,,,,
0.0,1.0,0.530455,0.0,7.0,7.0,7.0,1.0,trampoline_13s.jpg,0.0,clockno_default.jpg,2.0,10,,,,,,,,,,,,,,,,,,,,,,,,,,,,,,,,
1.0,1.0,0.66953,0.0,8.0,8.0,8.0,1.0,trampoline_13s.jpg,1.0,clockno_default.jpg,2.0,10,,,,,,,,,,,,,,,,,,,,,,,,,,,,,,,,
1.0,1.0,0.82139,0.0,9.0,9.0,9.0,1.0,trampoline_13s.jpg,1.0,clockno_default.jpg,2.0,10,,,,,,,,,,,,,,,,,,,,,,,,,,,,,,,,
0.0,1.0,0.779595,0.0,10.0,10.0,10.0,1.0,kangaroo_02s.jpg,0.0,clockno_default.jpg,2.0,10,,,,,,,,,,,,,,,,,,,,,,,,,,,,,,,,
0.0,1.0,1.14127,0.0,11.0,11.0,11.0,1.0,mirror_12s.jpg,0.0,clockno_default.jpg,2.0,10,,,,,,,,,,,,,,,,,,,,,,,,,,,,,,,,
0.0,1.0,1.31414,0.0,12.0,12.0,12.0,1.0,powder_07s.jpg,0.0,clockno_up.jpg,3.0,10,,,,,,,,,,,,,,,,,,,,,,,,,,,,,,,,
0.0,1.0,1.366315,0.0,13.0,13.0,13.0,1.0,rollerskate_03s.jpg,0.0,clockno_default.jpg,3.0,10,,,,,,,,,,,,,,,,,,,,,,,,,,,,,,,,
0.0,1.0,0.651295,0.0,14.0,14.0,14.0,1.0,gear_07s.jpg,0.0,clockno_default.jpg,3.0,10,,,,,,,,,,,,,,,,,,,,,,,,,,,,,,,,
0.0,1.0,0.695935,0.0,15.0,15.0,15.0,1.0,playpen_11s.jpg,0.0,clockno_default.jpg,3.0,10,,,,,,,,,,,,,,,,,,,,,,,,,,,,,,,,
1.0,1.0,0.78023,0.0,16.0,16.0,16.0,1.0,playpen_11s.jpg,1.0,clockno_default.jpg,3.0,10,,,,,,,,,,,,,,,,,,,,,,,,,,,,,,,,
0.0,1.0,1.08448,0.0,17.0,17.0,17.0,1.0,keyhole_03s.jpg,0.0,clockno_up.jpg,4.0,10,,,,,,,,,,,,,,,,,,,,,,,,,,,,,,,,
0.0,1.0,0.61279,0.0,18.0,18.0,18.0,1.0,spoon02a.jpg,0.0,clockno_default.jpg,4.0,10,,,,,,,,,,,,,,,,,,,,,,,,,,,,,,,,
0.0,1.0,0.50652,0.0,19.0,19.0,19.0,1.0,mud_13s.jpg,0.0,clockno_default.jpg,4.0,10,,,,,,,,,,,,,,,,,,,,,,,,,,,,,,,,
0.0,1.0,0.53035,0.0,20.0,20.0,20.0,1.0,pea_11s.jpg,0.0,clockno_default.jpg,4.0,10,,,,,,,,,,,,,,,,,,,,,,,,,,,,,,,,
1.0,1.0,0.7579,0.0,21.0,21.0,21.0,1.0,spoon02a.jpg,1.0,clockno_default.jpg,4.0,10,,,,,,,,,,,,,,,,,,,,,,,,,,,,,,,,
0.0,1.0,0.619635,0.0,22.0,22.0,22.0,1.0,turtle_08s.jpg,0.0,clockno_default.jpg,4.0,10,,,,,,,,,,,,,,,,,,,,,,,,,,,,,,,,
0.0,1.0,1.339725,0.0,23.0,23.0,23.0,1.0,tattoo_14s.jpg,0.0,clockno_up.jpg,5.0,10,,,,,,,,,,,,,,,,,,,,,,,,,,,,,,,,
0.0,1.0,0.90118,0.0,24.0,24.0,24.0,1.0,mirror_12s.jpg,0.0,clockno_default.jpg,5.0,10,,,,,,,,,,,,,,,,,,,,,,,,,,,,,,,,
0.0,1.0,0.65616,0.0,25.0,25.0,25.0,1.0,tie_03s.jpg,0.0,clockno_default.jpg,5.0,10,,,,,,,,,,,,,,,,,,,,,,,,,,,,,,,,
0.0,1.0,0.913925,0.0,26.0,26.0,26.0,1.0,printer_09s.jpg,0.0,clockno_default.jpg,5.0,10,,,,,,,,,,,,,,,,,,,,,,,,,,,,,,,,
0.0,1.0,1.33402,0.0,27.0,27.0,27.0,1.0,roller_coaster_07s.jpg,0.0,clockno_default.jpg,5.0,10,,,,,,,,,,,,,,,,,,,,,,,,,,,,,,,,
1.0,1.0,1.05559,0.0,28.0,28.0,28.0,1.0,tattoo_14s.jpg,1.0,clockno_default.jpg,5.0,10,,,,,,,,,,,,,,,,,,,,,,,,,,,,,,,,
0.0,1.0,0.831485,0.0,29.0,29.0,29.0,1.0,toy_04s.jpg,0.0,clockno_default.jpg,5.0,10,,,,,,,,,,,,,,,,,,,,,,,,,,,,,,,,
0.0,1.0,0.672905,0.0,30.0,30.0,30.0,1.0,projector_08s.jpg,0.0,clockno_up.jpg,6.0,10,,,,,,,,,,,,,,,,,,,,,,,,,,,,,,,,
0.0,1.0,0.5431,0.0,31.0,31.0,31.0,1.0,ink_08s.jpg,0.0,clockno_default.jpg,6.0,10,,,,,,,,,,,,,,,,,,,,,,,,,,,,,,,,
0.0,1.0,0.72173,0.0,32.0,32.0,32.0,1.0,teabag_12s.jpg,0.0,clockno_default.jpg,6.0,10,,,,,,,,,,,,,,,,,,,,,,,,,,,,,,,,
0.0,1.0,0.730095,0.0,33.0,33.0,33.0,1.0,tongs_08s.jpg,0.0,clockno_default.jpg,6.0,10,,,,,,,,,,,,,,,,,,,,,,,,,,,,,,,,
0.0,1.0,0.80348,0.0,34.0,34.0,34.0,1.0,power_line_08s.jpg,0.0,clockno_default.jpg,6.0,10,,,,,,,,,,,,,,,,,,,,,,,,,,,,,,,,
0.0,1.0,0.58774,0.0,35.0,35.0,35.0,1.0,margarita_03s.jpg,0.0,clockno_default.jpg,6.0,10,,,,,,,,,,,,,,,,,,,,,,,,,,,,,,,,
,,,,,,,,,0.0,,,10,1.0,0.0,1.44409,0.0,0.0,0.0,0.0,1.0,rollerskate_03s.jpg,kangaroo_02s.jpg,,,,,,,,,,,,,,,,,,,,,,
,,,,,,,,,0.0,,,10,0.0,1.0,1.141025,0.0,1.0,1.0,1.0,1.0,keyhole_03s.jpg,gear_07s.jpg,,,,,,,,,,,,,,,,,,,,,,
,,,,,,,,,0.0,,,10,1.0,0.0,1.43269,0.0,2.0,2.0,2.0,1.0,tie_03s.jpg,turtle_08s.jpg,,,,,,,,,,,,,,,,,,,,,,
,,,,,,,,,1.0,,,10,0.0,0.0,0.932765,0.0,3.0,3.0,3.0,1.0,ink_08s.jpg,power_line_08s.jpg,,,,,,,,,,,,,,,,,,,,,,
,,,,,,,,,0.0,,,10,0.0,1.0,1.404415,0.0,4.0,4.0,4.0,1.0,tongs_08s.jpg,projector_08s.jpg,,,,,,,,,,,,,,,,,,,,,,
,,,,,,,,,1.0,,,10,0.0,0.0,1.29835,0.0,5.0,5.0,5.0,1.0,teabag_12s.jpg,margarita_03s.jpg,,,,,,,,,,,,,,,,,,,,,,
,,,,,,,,,,,,10,,,,,,,,,,,0.0,3.0,3.0,3.0,1.0,clockno_present_4_14.xlsx,clockno_compare_task_4_14.xlsx,,,,,,,,,,,,,,,
0.0,1.0,0.750115,0.0,0.0,0.0,0.0,1.0,camcorder_10s.jpg,0.0,clockno_up.jpg,1.0,10,,,,,,,,,,,,,,,,,,,,,,,,,,,,,,,,
0.0,1.0,0.4209,0.0,1.0,1.0,1.0,1.0,mixer_12s.jpg,0.0,clockno_default.jpg,1.0,10,,,,,,,,,,,,,,,,,,,,,,,,,,,,,,,,
0.0,1.0,1.281345,0.0,2.0,2.0,2.0,1.0,comic_book_02s.jpg,0.0,clockno_default.jpg,1.0,10,,,,,,,,,,,,,,,,,,,,,,,,,,,,,,,,
0.0,1.0,0.56448,0.0,3.0,3.0,3.0,1.0,treasure_08s.jpg,0.0,clockno_default.jpg,1.0,10,,,,,,,,,,,,,,,,,,,,,,,,,,,,,,,,
1.0,1.0,0.724515,0.0,4.0,4.0,4.0,1.0,treasure_08s.jpg,1.0,clockno_default.jpg,1.0,10,,,,,,,,,,,,,,,,,,,,,,,,,,,,,,,,
0.0,1.0,0.60483,0.0,5.0,5.0,5.0,1.0,metronome_03s.jpg,0.0,clockno_default.jpg,1.0,10,,,,,,,,,,,,,,,,,,,,,,,,,,,,,,,,
1.0,1.0,0.788385,0.0,6.0,6.0,6.0,1.0,treasure_08s.jpg,1.0,clockno_default.jpg,1.0,10,,,,,,,,,,,,,,,,,,,,,,,,,,,,,,,,
0.0,1.0,0.7762,0.0,7.0,7.0,7.0,1.0,golf_club_03s.jpg,0.0,clockno_up.jpg,2.0,10,,,,,,,,,,,,,,,,,,,,,,,,,,,,,,,,
0.0,1.0,0.73719,0.0,8.0,8.0,8.0,1.0,ruby_15s.jpg,0.0,clockno_default.jpg,2.0,10,,,,,,,,,,,,,,,,,,,,,,,,,,,,,,,,
0.0,1.0,0.49189,0.0,9.0,9.0,9.0,1.0,purse_05s.jpg,0.0,clockno_default.jpg,2.0,10,,,,,,,,,,,,,,,,,,,,,,,,,,,,,,,,
0.0,1.0,0.62576,0.0,10.0,10.0,10.0,1.0,top_hat_11s.jpg,0.0,clockno_default.jpg,2.0,10,,,,,,,,,,,,,,,,,,,,,,,,,,,,,,,,
0.0,1.0,0.632665,0.0,11.0,11.0,11.0,1.0,peach_04s.jpg,0.0,clockno_default.jpg,2.0,10,,,,,,,,,,,,,,,,,,,,,,,,,,,,,,,,
0.0,1.0,0.981945,0.0,12.0,12.0,12.0,1.0,coffee_filter_10s.jpg,0.0,clockno_up.jpg,3.0,10,,,,,,,,,,,,,,,,,,,,,,,,,,,,,,,,
0.0,1.0,0.61289,0.0,13.0,13.0,13.0,1.0,tiger_06s.jpg,0.0,clockno_default.jpg,3.0,10,,,,,,,,,,,,,,,,,,,,,,,,,,,,,,,,
0.0,1.0,0.68482,0.0,14.0,14.0,14.0,1.0,feather02.jpg,0.0,clockno_default.jpg,3.0,10,,,,,,,,,,,,,,,,,,,,,,,,,,,,,,,,
0.0,1.0,0.98159,0.0,15.0,15.0,15.0,1.0,coral_08s.jpg,0.0,clockno_default.jpg,3.0,10,,,,,,,,,,,,,,,,,,,,,,,,,,,,,,,,
0.0,1.0,0.62269,0.0,16.0,16.0,16.0,1.0,knitting_needle_04s.jpg,0.0,clockno_default.jpg,3.0,10,,,,,,,,,,,,,,,,,,,,,,,,,,,,,,,,
0.0,1.0,1.141295,0.0,17.0,17.0,17.0,1.0,coat_rack_01b.jpg,0.0,clockno_up.jpg,4.0,10,,,,,,,,,,,,,,,,,,,,,,,,,,,,,,,,
0.0,1.0,0.83286,0.0,18.0,18.0,18.0,1.0,coral_08s.jpg,0.0,clockno_default.jpg,4.0,10,,,,,,,,,,,,,,,,,,,,,,,,,,,,,,,,
0.0,1.0,0.730605,0.0,19.0,19.0,19.0,1.0,knitting_needle_04s.jpg,0.0,clockno_default.jpg,4.0,10,,,,,,,,,,,,,,,,,,,,,,,,,,,,,,,,
1.0,1.0,0.808195,0.0,20.0,20.0,20.0,1.0,coat_rack_01b.jpg,1.0,clockno_default.jpg,4.0,10,,,,,,,,,,,,,,,,,,,,,,,,,,,,,,,,
0.0,1.0,0.88121,0.0,21.0,21.0,21.0,1.0,pacifier_09s.jpg,0.0,clockno_default.jpg,4.0,10,,,,,,,,,,,,,,,,,,,,,,,,,,,,,,,,
0.0,1.0,0.71157,0.0,22.0,22.0,22.0,1.0,ruby_15s.jpg,0.0,clockno_default.jpg,4.0,10,,,,,,,,,,,,,,,,,,,,,,,,,,,,,,,,
0.0,1.0,1.19667,0.0,23.0,23.0,23.0,1.0,rocking_chair_05s.jpg,0.0,clockno_up.jpg,5.0,10,,,,,,,,,,,,,,,,,,,,,,,,,,,,,,,,
0.0,1.0,0.668585,0.0,24.0,24.0,24.0,1.0,binder_21s.jpg,0.0,clockno_default.jpg,5.0,10,,,,,,,,,,,,,,,,,,,,,,,,,,,,,,,,
0.0,1.0,1.61789,0.0,25.0,25.0,25.0,1.0,rudder_02s.jpg,0.0,clockno_default.jpg,5.0,10,,,,,,,,,,,,,,,,,,,,,,,,,,,,,,,,
0.0,1.0,0.76267,0.0,26.0,26.0,26.0,1.0,totem_pole_05s.jpg,0.0,clockno_default.jpg,5.0,10,,,,,,,,,,,,,,,,,,,,,,,,,,,,,,,,
1.0,1.0,0.828905,0.0,27.0,27.0,27.0,1.0,totem_pole_05s.jpg,1.0,clockno_default.jpg,5.0,10,,,,,,,,,,,,,,,,,,,,,,,,,,,,,,,,
0.0,1.0,0.62902,0.0,28.0,28.0,28.0,1.0,memory_stick_11s.jpg,0.0,clockno_default.jpg,5.0,10,,,,,,,,,,,,,,,,,,,,,,,,,,,,,,,,
0.0,1.0,0.853785,0.0,29.0,29.0,29.0,1.0,slingshot_07s.jpg,0.0,clockno_up.jpg,6.0,10,,,,,,,,,,,,,,,,,,,,,,,,,,,,,,,,
1.0,1.0,0.79943,0.0,30.0,30.0,30.0,1.0,slingshot_07s.jpg,1.0,clockno_default.jpg,6.0,10,,,,,,,,,,,,,,,,,,,,,,,,,,,,,,,,
0.0,1.0,1.30913,0.0,31.0,31.0,31.0,1.0,duck_01b.jpg,0.0,clockno_default.jpg,6.0,10,,,,,,,,,,,,,,,,,,,,,,,,,,,,,,,,
0.0,1.0,0.80233,0.0,32.0,32.0,32.0,1.0,fox_13s.jpg,0.0,clockno_default.jpg,6.0,10,,,,,,,,,,,,,,,,,,,,,,,,,,,,,,,,
0.0,1.0,0.59,0.0,33.0,33.0,33.0,1.0,popcorn_09s.jpg,0.0,clockno_default.jpg,6.0,10,,,,,,,,,,,,,,,,,,,,,,,,,,,,,,,,
1.0,1.0,0.746125,0.0,34.0,34.0,34.0,1.0,duck_01b.jpg,1.0,clockno_default.jpg,6.0,10,,,,,,,,,,,,,,,,,,,,,,,,,,,,,,,,
0.0,1.0,2.02688,0.0,35.0,35.0,35.0,1.0,stamp2_08s.jpg,0.0,clockno_default.jpg,6.0,10,,,,,,,,,,,,,,,,,,,,,,,,,,,,,,,,
,,,,,,,,,0.0,,,10,0.0,1.0,1.47121,0.0,0.0,0.0,0.0,1.0,coffee_filter_10s.jpg,purse_05s.jpg,,,,,,,,,,,,,,,,,,,,,,
,,,,,,,,,1.0,,,10,1.0,1.0,0.967835,0.0,1.0,1.0,1.0,1.0,peach_04s.jpg,feather02.jpg,,,,,,,,,,,,,,,,,,,,,,
,,,,,,,,,0.0,,,10,1.0,0.0,1.18933,0.0,2.0,2.0,2.0,1.0,binder_21s.jpg,pacifier_09s.jpg,,,,,,,,,,,,,,,,,,,,,,
,,,,,,,,,1.0,,,10,1.0,1.0,0.78081,0.0,3.0,3.0,3.0,1.0,comic_book_02s.jpg,metronome_03s.jpg,,,,,,,,,,,,,,,,,,,,,,
,,,,,,,,,1.0,,,10,1.0,1.0,1.070195,0.0,4.0,4.0,4.0,1.0,rudder_02s.jpg,memory_stick_11s.jpg,,,,,,,,,,,,,,,,,,,,,,
,,,,,,,,,0.0,,,10,0.0,1.0,1.07228,0.0,5.0,5.0,5.0,1.0,stamp2_08s.jpg,fox_13s.jpg,,,,,,,,,,,,,,,,,,,,,,
,,,,,,,,,,,,10,,,,,,,,,,,0.0,4.0,4.0,4.0,1.0,clockno_present_5_14.xlsx,clockno_compare_task_5_14.xlsx,,,,,,,,,,,,,,,
0.0,1.0,0.79966,0.0,0.0,0.0,0.0,1.0,popsicle_02s.jpg,0.0,clockno_up.jpg,1.0,10,,,,,,,,,,,,,,,,,,,,,,,,,,,,,,,,
0.0,1.0,0.46302,0.0,1.0,1.0,1.0,1.0,emerald_02s.jpg,0.0,clockno_default.jpg,1.0,10,,,,,,,,,,,,,,,,,,,,,,,,,,,,,,,,
1.0,1.0,0.53222,0.0,2.0,2.0,2.0,1.0,popsicle_02s.jpg,1.0,clockno_default.jpg,1.0,10,,,,,,,,,,,,,,,,,,,,,,,,,,,,,,,,
0.0,1.0,0.532805,0.0,3.0,3.0,3.0,1.0,glue_01s.jpg,0.0,clockno_default.jpg,1.0,10,,,,,,,,,,,,,,,,,,,,,,,,,,,,,,,,
1.0,1.0,0.82409,0.0,4.0,4.0,4.0,1.0,popsicle_02s.jpg,1.0,clockno_default.jpg,1.0,10,,,,,,,,,,,,,,,,,,,,,,,,,,,,,,,,
1.0,1.0,0.73666,0.0,5.0,5.0,5.0,1.0,emerald_02s.jpg,1.0,clockno_default.jpg,1.0,10,,,,,,,,,,,,,,,,,,,,,,,,,,,,,,,,
0.0,1.0,0.76111,0.0,6.0,6.0,6.0,1.0,pillbox_04s.jpg,0.0,clockno_up.jpg,2.0,10,,,,,,,,,,,,,,,,,,,,,,,,,,,,,,,,
0.0,1.0,0.941245,0.0,7.0,7.0,7.0,1.0,scooter.jpg,0.0,clockno_default.jpg,2.0,10,,,,,,,,,,,,,,,,,,,,,,,,,,,,,,,,
0.0,1.0,0.605195,0.0,8.0,8.0,8.0,1.0,cardinal_07s.jpg,0.0,clockno_default.jpg,2.0,10,,,,,,,,,,,,,,,,,,,,,,,,,,,,,,,,
1.0,1.0,0.624635,0.0,9.0,9.0,9.0,1.0,cardinal_07s.jpg,1.0,clockno_default.jpg,2.0,10,,,,,,,,,,,,,,,,,,,,,,,,,,,,,,,,
0.0,1.0,0.56317,0.0,10.0,10.0,10.0,1.0,chip_04s.jpg,0.0,clockno_default.jpg,2.0,10,,,,,,,,,,,,,,,,,,,,,,,,,,,,,,,,
0.0,1.0,0.995695,0.0,11.0,11.0,11.0,1.0,owl_15s.jpg,0.0,clockno_up.jpg,3.0,10,,,,,,,,,,,,,,,,,,,,,,,,,,,,,,,,
1.0,1.0,0.6963,0.0,12.0,12.0,12.0,1.0,owl_15s.jpg,1.0,clockno_default.jpg,3.0,10,,,,,,,,,,,,,,,,,,,,,,,,,,,,,,,,
0.0,1.0,0.563565,0.0,13.0,13.0,13.0,1.0,mango_09s.jpg,0.0,clockno_default.jpg,3.0,10,,,,,,,,,,,,,,,,,,,,,,,,,,,,,,,,
0.0,1.0,0.60071,0.0,14.0,14.0,14.0,1.0,pantyhose_07s.jpg,0.0,clockno_default.jpg,3.0,10,,,,,,,,,,,,,,,,,,,,,,,,,,,,,,,,
0.0,1.0,0.64922,0.0,15.0,15.0,15.0,1.0,coconut_08s.jpg,0.0,clockno_default.jpg,3.0,10,,,,,,,,,,,,,,,,,,,,,,,,,,,,,,,,
0.0,1.0,0.63411,0.0,16.0,16.0,16.0,1.0,potholder_02s.jpg,0.0,clockno_default.jpg,3.0,10,,,,,,,,,,,,,,,,,,,,,,,,,,,,,,,,
0.0,1.0,0.864245,0.0,17.0,17.0,17.0,1.0,solar_panel_02s.jpg,0.0,clockno_up.jpg,4.0,10,,,,,,,,,,,,,,,,,,,,,,,,,,,,,,,,
0.0,1.0,0.67457,0.0,18.0,18.0,18.0,1.0,touchpad_11s.jpg,0.0,clockno_default.jpg,4.0,10,,,,,,,,,,,,,,,,,,,,,,,,,,,,,,,,
0.0,1.0,0.73798,0.0,19.0,19.0,19.0,1.0,rice_12s.jpg,0.0,clockno_default.jpg,4.0,10,,,,,,,,,,,,,,,,,,,,,,,,,,,,,,,,
0.0,1.0,0.936645,0.0,20.0,20.0,20.0,1.0,machete_06s.jpg,0.0,clockno_default.jpg,4.0,10,,,,,,,,,,,,,,,,,,,,,,,,,,,,,,,,
1.0,1.0,0.999925,0.0,21.0,21.0,21.0,1.0,touchpad_11s.jpg,1.0,clockno_default.jpg,4.0,10,,,,,,,,,,,,,,,,,,,,,,,,,,,,,,,,
0.0,1.0,0.668085,0.0,22.0,22.0,22.0,1.0,trumpet_06s.jpg,0.0,clockno_default.jpg,4.0,10,,,,,,,,,,,,,,,,,,,,,,,,,,,,,,,,
1.0,1.0,0.798695,0.0,23.0,23.0,23.0,1.0,touchpad_11s.jpg,1.0,clockno_default.jpg,4.0,10,,,,,,,,,,,,,,,,,,,,,,,,,,,,,,,,
0.0,1.0,1.40757,0.0,24.0,24.0,24.0,1.0,lamb_04s.jpg,0.0,clockno_up.jpg,5.0,10,,,,,,,,,,,,,,,,,,,,,,,,,,,,,,,,
0.0,1.0,0.746685,0.0,25.0,25.0,25.0,1.0,cucumber_07s.jpg,0.0,clockno_default.jpg,5.0,10,,,,,,,,,,,,,,,,,,,,,,,,,,,,,,,,
0.0,1.0,0.646195,0.0,26.0,26.0,26.0,1.0,police_car_01s.jpg,0.0,clockno_default.jpg,5.0,10,,,,,,,,,,,,,,,,,,,,,,,,,,,,,,,,
0.0,1.0,1.665435,0.0,27.0,27.0,27.0,1.0,latte_06s.jpg,0.0,clockno_default.jpg,5.0,10,,,,,,,,,,,,,,,,,,,,,,,,,,,,,,,,
1.0,1.0,0.81246,0.0,28.0,28.0,28.0,1.0,police_car_01s.jpg,1.0,clockno_default.jpg,5.0,10,,,,,,,,,,,,,,,,,,,,,,,,,,,,,,,,
0.0,1.0,0.62499,0.0,29.0,29.0,29.0,1.0,crab_16s.jpg,0.0,clockno_default.jpg,5.0,10,,,,,,,,,,,,,,,,,,,,,,,,,,,,,,,,
0.0,1.0,1.1214,0.0,30.0,30.0,30.0,1.0,toaster_03s.jpg,0.0,clockno_default.jpg,5.0,10,,,,,,,,,,,,,,,,,,,,,,,,,,,,,,,,
0.0,1.0,1.138795,0.0,31.0,31.0,31.0,1.0,parachute_03s.jpg,0.0,clockno_up.jpg,6.0,10,,,,,,,,,,,,,,,,,,,,,,,,,,,,,,,,
0.0,1.0,0.869695,0.0,32.0,32.0,32.0,1.0,punch2_09s.jpg,0.0,clockno_default.jpg,6.0,10,,,,,,,,,,,,,,,,,,,,,,,,,,,,,,,,
0.0,1.0,1.146845,0.0,33.0,33.0,33.0,1.0,touchpad_11s.jpg,0.0,clockno_default.jpg,6.0,10,,,,,,,,,,,,,,,,,,,,,,,,,,,,,,,,
0.0,1.0,0.58338,0.0,34.0,34.0,34.0,1.0,ginger_09s.jpg,0.0,clockno_default.jpg,6.0,10,,,,,,,,,,,,,,,,,,,,,,,,,,,,,,,,
1.0,1.0,1.35884,0.0,35.0,35.0,35.0,1.0,ginger_09s.jpg,1.0,clockno_default.jpg,6.0,10,,,,,,,,,,,,,,,,,,,,,,,,,,,,,,,,
,,,,,,,,,1.0,,,10,1.0,1.0,1.154865,0.0,0.0,0.0,0.0,1.0,glue_01s.jpg,pillbox_04s.jpg,,,,,,,,,,,,,,,,,,,,,,
,,,,,,,,,0.0,,,10,0.0,1.0,1.034525,0.0,1.0,1.0,1.0,1.0,punch2_09s.jpg,crab_16s.jpg,,,,,,,,,,,,,,,,,,,,,,
,,,,,,,,,0.0,,,10,0.0,1.0,1.391225,0.0,2.0,2.0,2.0,1.0,solar_panel_02s.jpg,pantyhose_07s.jpg,,,,,,,,,,,,,,,,,,,,,,
,,,,,,,,,0.0,,,10,0.0,1.0,1.25674,0.0,3.0,3.0,3.0,1.0,latte_06s.jpg,lamb_04s.jpg,,,,,,,,,,,,,,,,,,,,,,
,,,,,,,,,1.0,,,10,0.0,0.0,1.05578,0.0,4.0,4.0,4.0,1.0,scooter.jpg,chip_04s.jpg,,,,,,,,,,,,,,,,,,,,,,
,,,,,,,,,1.0,,,10,0.0,0.0,1.07089,0.0,5.0,5.0,5.0,1.0,mango_09s.jpg,potholder_02s.jpg,,,,,,,,,,,,,,,,,,,,,,
0.0,1.0,0.875775,,,,,,throne_11s.jpg,0.0,clock_7_1.png,1.0,10,,,,,,,,,,,,,,,,,,0.0,0.0,0.0,0.0,1.0,,,,,,,,,,
0.0,1.0,0.685735,,,,,,swimming_pool_17s.jpg,0.0,clock_7_2.png,1.0,10,,,,,,,,,,,,,,,,,,0.0,1.0,1.0,1.0,1.0,,,,,,,,,,
0.0,1.0,0.56331,,,,,,blowfish_03s.jpg,0.0,clock_7_3.png,1.0,10,,,,,,,,,,,,,,,,,,0.0,2.0,2.0,2.0,1.0,,,,,,,,,,
1.0,1.0,0.70534,,,,,,throne_11s.jpg,1.0,clock_7_4.png,1.0,10,,,,,,,,,,,,,,,,,,0.0,3.0,3.0,3.0,1.0,,,,,,,,,,
0.0,1.0,0.74584,,,,,,basket_05s.jpg,0.0,clock_7_5.png,1.0,10,,,,,,,,,,,,,,,,,,0.0,4.0,4.0,4.0,1.0,,,,,,,,,,
0.0,1.0,0.75336,,,,,,rhubarb_03s.jpg,0.0,clock_7_6.png,1.0,10,,,,,,,,,,,,,,,,,,0.0,5.0,5.0,5.0,1.0,,,,,,,,,,
1.0,1.0,1.396365,,,,,,throne_11s.jpg,1.0,clock_7_7.png,1.0,10,,,,,,,,,,,,,,,,,,0.0,6.0,6.0,6.0,1.0,,,,,,,,,,
0.0,1.0,1.28618,,,,,,tupperware_09s.jpg,0.0,clock_5_1.png,2.0,10,,,,,,,,,,,,,,,,,,0.0,7.0,7.0,7.0,1.0,,,,,,,,,,
0.0,1.0,0.6049,,,,,,seagull_01b.jpg,0.0,clock_5_2.png,2.0,10,,,,,,,,,,,,,,,,,,0.0,8.0,8.0,8.0,1.0,,,,,,,,,,
0.0,1.0,1.605865,,,,,,kitten_07s.jpg,0.0,clock_5_3.png,2.0,10,,,,,,,,,,,,,,,,,,0.0,9.0,9.0,9.0,1.0,,,,,,,,,,
0.0,1.0,0.67585,,,,,,crate_05s.jpg,0.0,clock_5_4.png,2.0,10,,,,,,,,,,,,,,,,,,0.0,10.0,10.0,10.0,1.0,,,,,,,,,,
0.0,1.0,0.74526,,,,,,pocket_watch_16s.jpg,0.0,clock_5_5.png,2.0,10,,,,,,,,,,,,,,,,,,0.0,11.0,11.0,11.0,1.0,,,,,,,,,,
0.0,1.0,0.855475,,,,,,pocketknife_12s.jpg,0.0,clock_6_1.png,3.0,10,,,,,,,,,,,,,,,,,,0.0,12.0,12.0,12.0,1.0,,,,,,,,,,
0.0,1.0,0.656615,,,,,,jalapeno_15s.jpg,0.0,clock_6_2.png,3.0,10,,,,,,,,,,,,,,,,,,0.0,13.0,13.0,13.0,1.0,,,,,,,,,,
0.0,1.0,0.963265,,,,,,tupperware_09s.jpg,0.0,clock_6_3.png,3.0,10,,,,,,,,,,,,,,,,,,0.0,14.0,14.0,14.0,1.0,,,,,,,,,,
0.0,1.0,0.637335,,,,,,stapler_01b.jpg,0.0,clock_6_4.png,3.0,10,,,,,,,,,,,,,,,,,,0.0,15.0,15.0,15.0,1.0,,,,,,,,,,
0.0,1.0,0.53518,,,,,,cap_05s.jpg,0.0,clock_6_5.png,3.0,10,,,,,,,,,,,,,,,,,,0.0,16.0,16.0,16.0,1.0,,,,,,,,,,
0.0,1.0,0.718965,,,,,,lavender_10s.jpg,0.0,clock_6_6.png,3.0,10,,,,,,,,,,,,,,,,,,0.0,17.0,17.0,17.0,1.0,,,,,,,,,,
0.0,1.0,0.730205,,,,,,racehorse_03s.jpg,0.0,clock_6_1.png,4.0,10,,,,,,,,,,,,,,,,,,0.0,18.0,18.0,18.0,1.0,,,,,,,,,,
0.0,1.0,0.4651,,,,,,teacup_07s.jpg,0.0,clock_6_2.png,4.0,10,,,,,,,,,,,,,,,,,,0.0,19.0,19.0,19.0,1.0,,,,,,,,,,
0.0,1.0,0.637845,,,,,,lip_gloss_06s.jpg,0.0,clock_6_3.png,4.0,10,,,,,,,,,,,,,,,,,,0.0,20.0,20.0,20.0,1.0,,,,,,,,,,
1.0,1.0,0.80624,,,,,,racehorse_03s.jpg,1.0,clock_6_4.png,4.0,10,,,,,,,,,,,,,,,,,,0.0,21.0,21.0,21.0,1.0,,,,,,,,,,
1.0,1.0,1.15207,,,,,,lip_gloss_06s.jpg,1.0,clock_6_5.png,4.0,10,,,,,,,,,,,,,,,,,,0.0,22.0,22.0,22.0,1.0,,,,,,,,,,
0.0,1.0,0.65637,,,,,,seahorse_13s.jpg,0.0,clock_6_6.png,4.0,10,,,,,,,,,,,,,,,,,,0.0,23.0,23.0,23.0,1.0,,,,,,,,,,
0.0,1.0,0.52319,,,,,,tuxedo_01b.jpg,0.0,clock_5_1.png,5.0,10,,,,,,,,,,,,,,,,,,0.0,24.0,24.0,24.0,1.0,,,,,,,,,,
0.0,1.0,0.70909,,,,,,ice-cream_cone_06s.jpg,0.0,clock_5_2.png,5.0,10,,,,,,,,,,,,,,,,,,0.0,25.0,25.0,25.0,1.0,,,,,,,,,,
0.0,1.0,0.691825,,,,,,jukebox_03n.jpg,0.0,clock_5_3.png,5.0,10,,,,,,,,,,,,,,,,,,0.0,26.0,26.0,26.0,1.0,,,,,,,,,,
1.0,1.0,0.726045,,,,,,ice-cream_cone_06s.jpg,1.0,clock_5_4.png,5.0,10,,,,,,,,,,,,,,,,,,0.0,27.0,27.0,27.0,1.0,,,,,,,,,,
0.0,1.0,0.683385,,,,,,teacup_07s.jpg,0.0,clock_5_5.png,5.0,10,,,,,,,,,,,,,,,,,,0.0,28.0,28.0,28.0,1.0,,,,,,,,,,
0.0,1.0,1.28665,,,,,,rope_16s.jpg,0.0,clock_7_1.png,6.0,10,,,,,,,,,,,,,,,,,,0.0,29.0,29.0,29.0,1.0,,,,,,,,,,
0.0,1.0,0.521885,,,,,,fork_04s.jpg,0.0,clock_7_2.png,6.0,10,,,,,,,,,,,,,,,,,,0.0,30.0,30.0,30.0,1.0,,,,,,,,,,
1.0,1.0,1.13141,,,,,,rope_16s.jpg,1.0,clock_7_3.png,6.0,10,,,,,,,,,,,,,,,,,,0.0,31.0,31.0,31.0,1.0,,,,,,,,,,
1.0,1.0,1.1167,,,,,,fork_04s.jpg,1.0,clock_7_4.png,6.0,10,,,,,,,,,,,,,,,,,,0.0,32.0,32.0,32.0,1.0,,,,,,,,,,
0.0,1.0,0.83106,,,,,,stump_02s.jpg,0.0,clock_7_5.png,6.0,10,,,,,,,,,,,,,,,,,,0.0,33.0,33.0,33.0,1.0,,,,,,,,,,
0.0,1.0,0.81003,,,,,,air_pump_05s.jpg,0.0,clock_7_6.png,6.0,10,,,,,,,,,,,,,,,,,,0.0,34.0,34.0,34.0,1.0,,,,,,,,,,
1.0,1.0,0.88823,,,,,,air_pump_05s.jpg,1.0,clock_7_7.png,6.0,10,,,,,,,,,,,,,,,,,,0.0,35.0,35.0,35.0,1.0,,,,,,,,,,
,,,,,,,,,0.0,,,10,0.0,1.0,1.27857,,,,,,jukebox_03n.jpg,seahorse_13s.jpg,,,,,,,,,,,,,0.0,0.0,0.0,0.0,1.0,,,,,
,,,,,,,,,1.0,,,10,1.0,1.0,1.072215,,,,,,kitten_07s.jpg,pocketknife_12s.jpg,,,,,,,,,,,,,0.0,1.0,1.0,1.0,1.0,,,,,
,,,,,,,,,0.0,,,10,0.0,1.0,1.250215,,,,,,jalapeno_15s.jpg,crate_05s.jpg,,,,,,,,,,,,,0.0,2.0,2.0,2.0,1.0,,,,,
,,,,,,,,,0.0,,,10,0.0,1.0,1.450175,,,,,,basket_05s.jpg,swimming_pool_17s.jpg,,,,,,,,,,,,,0.0,3.0,3.0,3.0,1.0,,,,,
,,,,,,,,,0.0,,,10,1.0,0.0,0.98163,,,,,,rhubarb_03s.jpg,blowfish_03s.jpg,,,,,,,,,,,,,0.0,4.0,4.0,4.0,1.0,,,,,
,,,,,,,,,1.0,,,10,0.0,0.0,1.53122,,,,,,seagull_01b.jpg,pocket_watch_16s.jpg,,,,,,,,,,,,,0.0,5.0,5.0,5.0,1.0,,,,,
,,,,,,,,,,,,10,,,,,,,,,,,,,,,,clock_present_1_14.xlsx,clock_compare_task_1_14.xlsx,,,,,,,,,,,0.0,0.0,0.0,0.0,1.0
0.0,1.0,0.741665,,,,,,bagel_15s.jpg,0.0,clock_5_1.png,1.0,10,,,,,,,,,,,,,,,,,,0.0,0.0,0.0,0.0,1.0,,,,,,,,,,
0.0,1.0,0.63469,,,,,,rabbit_03s.jpg,0.0,clock_5_2.png,1.0,10,,,,,,,,,,,,,,,,,,0.0,1.0,1.0,1.0,1.0,,,,,,,,,,
1.0,1.0,1.33086,,,,,,bagel_15s.jpg,1.0,clock_5_3.png,1.0,10,,,,,,,,,,,,,,,,,,0.0,2.0,2.0,2.0,1.0,,,,,,,,,,
0.0,1.0,0.859515,,,,,,key_07s.jpg,0.0,clock_5_4.png,1.0,10,,,,,,,,,,,,,,,,,,0.0,3.0,3.0,3.0,1.0,,,,,,,,,,
0.0,1.0,0.846465,,,,,,mascara_03s.jpg,0.0,clock_5_5.png,1.0,10,,,,,,,,,,,,,,,,,,0.0,4.0,4.0,4.0,1.0,,,,,,,,,,
0.0,1.0,0.691925,,,,,,knot_01b.jpg,0.0,clock_6_1.png,2.0,10,,,,,,,,,,,,,,,,,,0.0,5.0,5.0,5.0,1.0,,,,,,,,,,
0.0,1.0,0.721185,,,,,,measuring_cup_02s.jpg,0.0,clock_6_2.png,2.0,10,,,,,,,,,,,,,,,,,,0.0,6.0,6.0,6.0,1.0,,,,,,,,,,
0.0,1.0,0.73875,,,,,,syringe_02s.jpg,0.0,clock_6_3.png,2.0,10,,,,,,,,,,,,,,,,,,0.0,7.0,7.0,7.0,1.0,,,,,,,,,,
1.0,1.0,1.608335,,,,,,knot_01b.jpg,1.0,clock_6_4.png,2.0,10,,,,,,,,,,,,,,,,,,0.0,8.0,8.0,8.0,1.0,,,,,,,,,,
0.0,1.0,1.215445,,,,,,pancake_12s.jpg,0.0,clock_6_5.png,2.0,10,,,,,,,,,,,,,,,,,,0.0,9.0,9.0,9.0,1.0,,,,,,,,,,
0.0,1.0,1.032275,,,,,,saddle_06s.jpg,0.0,clock_6_6.png,2.0,10,,,,,,,,,,,,,,,,,,0.0,10.0,10.0,10.0,1.0,,,,,,,,,,
0.0,1.0,1.1361,,,,,,stingray_02s.jpg,0.0,clock_7_1.png,3.0,10,,,,,,,,,,,,,,,,,,0.0,11.0,11.0,11.0,1.0,,,,,,,,,,
0.0,1.0,1.063875,,,,,,pancake_12s.jpg,0.0,clock_7_2.png,3.0,10,,,,,,,,,,,,,,,,,,0.0,12.0,12.0,12.0,1.0,,,,,,,,,,
0.0,1.0,0.48674,,,,,,kite_04s.jpg,0.0,clock_7_3.png,3.0,10,,,,,,,,,,,,,,,,,,0.0,13.0,13.0,13.0,1.0,,,,,,,,,,
0.0,1.0,0.696955,,,,,,pincushion_10s.jpg,0.0,clock_7_4.png,3.0,10,,,,,,,,,,,,,,,,,,0.0,14.0,14.0,14.0,1.0,,,,,,,,,,
0.0,1.0,0.571685,,,,,,ice_pack_09s.jpg,0.0,clock_7_5.png,3.0,10,,,,,,,,,,,,,,,,,,0.0,15.0,15.0,15.0,1.0,,,,,,,,,,
1.0,1.0,0.8361,,,,,,kite_04s.jpg,1.0,clock_7_6.png,3.0,10,,,,,,,,,,,,,,,,,,0.0,16.0,16.0,16.0,1.0,,,,,,,,,,
0.0,1.0,0.626825,,,,,,thumbtack_14s.jpg,0.0,clock_7_7.png,3.0,10,,,,,,,,,,,,,,,,,,0.0,17.0,17.0,17.0,1.0,,,,,,,,,,
0.0,1.0,0.70407,,,,,,stamp1_11s.jpg,0.0,clock_5_1.png,4.0,10,,,,,,,,,,,,,,,,,,0.0,18.0,18.0,18.0,1.0,,,,,,,,,,
1.0,1.0,0.843065,,,,,,stamp1_11s.jpg,1.0,clock_5_2.png,4.0,10,,,,,,,,,,,,,,,,,,0.0,19.0,19.0,19.0,1.0,,,,,,,,,,
0.0,1.0,0.53322,,,,,,lizard_10n.jpg,0.0,clock_5_3.png,4.0,10,,,,,,,,,,,,,,,,,,0.0,20.0,20.0,20.0,1.0,,,,,,,,,,
0.0,1.0,0.913935,,,,,,toilet_paper_12s.jpg,0.0,clock_5_4.png,4.0,10,,,,,,,,,,,,,,,,,,0.0,21.0,21.0,21.0,1.0,,,,,,,,,,
0.0,1.0,0.86846,,,,,,gong_02s.jpg,0.0,clock_5_5.png,4.0,10,,,,,,,,,,,,,,,,,,0.0,22.0,22.0,22.0,1.0,,,,,,,,,,
0.0,1.0,0.64675,,,,,,rake_06s.jpg,0.0,clock_6_1.png,5.0,10,,,,,,,,,,,,,,,,,,0.0,23.0,23.0,23.0,1.0,,,,,,,,,,
0.0,1.0,0.507865,,,,,,syringe_02s.jpg,0.0,clock_6_2.png,5.0,10,,,,,,,,,,,,,,,,,,0.0,24.0,24.0,24.0,1.0,,,,,,,,,,
0.0,1.0,0.874735,,,,,,thumbtack_14s.jpg,0.0,clock_6_3.png,5.0,10,,,,,,,,,,,,,,,,,,0.0,25.0,25.0,25.0,1.0,,,,,,,,,,
0.0,1.0,0.86354,,,,,,boomerang_06s.jpg,0.0,clock_6_4.png,5.0,10,,,,,,,,,,,,,,,,,,0.0,26.0,26.0,26.0,1.0,,,,,,,,,,
0.0,1.0,0.51925,,,,,,kayak_08s.jpg,0.0,clock_6_5.png,5.0,10,,,,,,,,,,,,,,,,,,0.0,27.0,27.0,27.0,1.0,,,,,,,,,,
0.0,1.0,0.792085,,,,,,fountain_pen_06s.jpg,0.0,clock_6_6.png,5.0,10,,,,,,,,,,,,,,,,,,0.0,28.0,28.0,28.0,1.0,,,,,,,,,,
0.0,1.0,0.496895,,,,,,contact_lens_15s.jpg,0.0,clock_7_1.png,6.0,10,,,,,,,,,,,,,,,,,,0.0,29.0,29.0,29.0,1.0,,,,,,,,,,
0.0,1.0,0.705865,,,,,,lamb_chop_07s.jpg,0.0,clock_7_2.png,6.0,10,,,,,,,,,,,,,,,,,,0.0,30.0,30.0,30.0,1.0,,,,,,,,,,
0.0,1.0,0.480405,,,,,,pear_02s.jpg,0.0,clock_7_3.png,6.0,10,,,,,,,,,,,,,,,,,,0.0,31.0,31.0,31.0,1.0,,,,,,,,,,
0.0,1.0,0.872665,,,,,,potpourri_03s.jpg,0.0,clock_7_4.png,6.0,10,,,,,,,,,,,,,,,,,,0.0,32.0,32.0,32.0,1.0,,,,,,,,,,
0.0,1.0,0.759915,,,,,,pincushion_10s.jpg,0.0,clock_7_5.png,6.0,10,,,,,,,,,,,,,,,,,,0.0,33.0,33.0,33.0,1.0,,,,,,,,,,
0.0,1.0,0.605965,,,,,,foam_03s.jpg,0.0,clock_7_6.png,6.0,10,,,,,,,,,,,,,,,,,,0.0,34.0,34.0,34.0,1.0,,,,,,,,,,
0.0,1.0,1.20122,,,,,,bathtub_23s.jpg,0.0,clock_7_7.png,6.0,10,,,,,,,,,,,,,,,,,,0.0,35.0,35.0,35.0,1.0,,,,,,,,,,
,,,,,,,,,1.0,,,10,0.0,0.0,1.24121,,,,,,key_07s.jpg,measuring_cup_02s.jpg,,,,,,,,,,,,,0.0,0.0,0.0,0.0,1.0,,,,,
,,,,,,,,,1.0,,,10,1.0,1.0,0.981255,,,,,,kayak_08s.jpg,lamb_chop_07s.jpg,,,,,,,,,,,,,0.0,1.0,1.0,1.0,1.0,,,,,
,,,,,,,,,1.0,,,10,1.0,1.0,1.89813,,,,,,lizard_10n.jpg,rake_06s.jpg,,,,,,,,,,,,,0.0,2.0,2.0,2.0,1.0,,,,,
,,,,,,,,,1.0,,,10,0.0,0.0,1.25013,,,,,,rabbit_03s.jpg,mascara_03s.jpg,,,,,,,,,,,,,0.0,3.0,3.0,3.0,1.0,,,,,
,,,,,,,,,1.0,,,10,1.0,1.0,1.00252,,,,,,potpourri_03s.jpg,bathtub_23s.jpg,,,,,,,,,,,,,0.0,4.0,4.0,4.0,1.0,,,,,
,,,,,,,,,0.0,,,10,0.0,1.0,1.07178,,,,,,foam_03s.jpg,pear_02s.jpg,,,,,,,,,,,,,0.0,5.0,5.0,5.0,1.0,,,,,
,,,,,,,,,,,,10,,,,,,,,,,,,,,,,clock_present_2_14.xlsx,clock_compare_task_2_14.xlsx,,,,,,,,,,,0.0,1.0,1.0,1.0,1.0
0.0,1.0,0.936975,,,,,,magnet_03s.jpg,0.0,clock_5_1.png,1.0,10,,,,,,,,,,,,,,,,,,0.0,0.0,0.0,0.0,1.0,,,,,,,,,,
1.0,1.0,0.664145,,,,,,magnet_03s.jpg,1.0,clock_5_2.png,1.0,10,,,,,,,,,,,,,,,,,,0.0,1.0,1.0,1.0,1.0,,,,,,,,,,
0.0,1.0,1.04861,,,,,,insole_11s.jpg,0.0,clock_5_3.png,1.0,10,,,,,,,,,,,,,,,,,,0.0,2.0,2.0,2.0,1.0,,,,,,,,,,
0.0,1.0,0.70162,,,,,,safety_pin_02s.jpg,0.0,clock_5_4.png,1.0,10,,,,,,,,,,,,,,,,,,0.0,3.0,3.0,3.0,1.0,,,,,,,,,,
0.0,1.0,0.64749,,,,,,pie_08s.jpg,0.0,clock_5_5.png,1.0,10,,,,,,,,,,,,,,,,,,0.0,4.0,4.0,4.0,1.0,,,,,,,,,,
0.0,1.0,0.953535,,,,,,flask_04s.jpg,0.0,clock_6_1.png,2.0,10,,,,,,,,,,,,,,,,,,0.0,5.0,5.0,5.0,1.0,,,,,,,,,,
0.0,1.0,0.830935,,,,,,stopwatch_04s.jpg,0.0,clock_6_2.png,2.0,10,,,,,,,,,,,,,,,,,,0.0,6.0,6.0,6.0,1.0,,,,,,,,,,
0.0,1.0,0.68307,,,,,,olive_05s.jpg,0.0,clock_6_3.png,2.0,10,,,,,,,,,,,,,,,,,,0.0,7.0,7.0,7.0,1.0,,,,,,,,,,
0.0,1.0,0.763475,,,,,,laser_pointer_02s.jpg,0.0,clock_6_4.png,2.0,10,,,,,,,,,,,,,,,,,,0.0,8.0,8.0,8.0,1.0,,,,,,,,,,
0.0,1.0,0.88093,,,,,,pie_08s.jpg,0.0,clock_6_5.png,2.0,10,,,,,,,,,,,,,,,,,,0.0,9.0,9.0,9.0,1.0,,,,,,,,,,
1.0,1.0,0.826395,,,,,,laser_pointer_02s.jpg,1.0,clock_6_6.png,2.0,10,,,,,,,,,,,,,,,,,,0.0,10.0,10.0,10.0,1.0,,,,,,,,,,
0.0,1.0,1.91776,,,,,,surfboard_11s.jpg,0.0,clock_6_1.png,3.0,10,,,,,,,,,,,,,,,,,,0.0,11.0,11.0,11.0,1.0,,,,,,,,,,
0.0,1.0,0.78231,,,,,,money_07s.jpg,0.0,clock_6_2.png,3.0,10,,,,,,,,,,,,,,,,,,0.0,12.0,12.0,12.0,1.0,,,,,,,,,,
0.0,1.0,0.579595,,,,,,bubble_01b.jpg,0.0,clock_6_3.png,3.0,10,,,,,,,,,,,,,,,,,,0.0,13.0,13.0,13.0,1.0,,,,,,,,,,
0.0,1.0,0.74697,,,,,,lipstick_02s.jpg,0.0,clock_6_4.png,3.0,10,,,,,,,,,,,,,,,,,,0.0,14.0,14.0,14.0,1.0,,,,,,,,,,
0.0,1.0,0.86547,,,,,,leash_10s.jpg,0.0,clock_6_5.png,3.0,10,,,,,,,,,,,,,,,,,,0.0,15.0,15.0,15.0,1.0,,,,,,,,,,
0.0,1.0,0.94995,,,,,,flask_04s.jpg,0.0,clock_6_6.png,3.0,10,,,,,,,,,,,,,,,,,,0.0,16.0,16.0,16.0,1.0,,,,,,,,,,
0.0,1.0,0.630045,,,,,,puck_06s.jpg,0.0,clock_7_1.png,4.0,10,,,,,,,,,,,,,,,,,,0.0,17.0,17.0,17.0,1.0,,,,,,,,,,
0.0,1.0,0.80549,,,,,,paintbrush_04s.jpg,0.0,clock_7_2.png,4.0,10,,,,,,,,,,,,,,,,,,0.0,18.0,18.0,18.0,1.0,,,,,,,,,,
1.0,1.0,0.71876,,,,,,puck_06s.jpg,1.0,clock_7_3.png,4.0,10,,,,,,,,,,,,,,,,,,0.0,19.0,19.0,19.0,1.0,,,,,,,,,,
0.0,1.0,0.6716,,,,,,tweezers_03s.jpg,0.0,clock_7_4.png,4.0,10,,,,,,,,,,,,,,,,,,0.0,20.0,20.0,20.0,1.0,,,,,,,,,,
1.0,1.0,0.78548,,,,,,puck_06s.jpg,1.0,clock_7_5.png,4.0,10,,,,,,,,,,,,,,,,,,0.0,21.0,21.0,21.0,1.0,,,,,,,,,,
0.0,1.0,0.82961,,,,,,tulip_02s.jpg,0.0,clock_7_6.png,4.0,10,,,,,,,,,,,,,,,,,,0.0,22.0,22.0,22.0,1.0,,,,,,,,,,
0.0,1.0,0.872965,,,,,,bubble_01b.jpg,0.0,clock_7_7.png,4.0,10,,,,,,,,,,,,,,,,,,0.0,23.0,23.0,23.0,1.0,,,,,,,,,,
0.0,1.0,0.63547,,,,,,mattress_01s.jpg,0.0,clock_5_1.png,5.0,10,,,,,,,,,,,,,,,,,,0.0,24.0,24.0,24.0,1.0,,,,,,,,,,
1.0,1.0,0.757785,,,,,,mattress_01s.jpg,1.0,clock_5_2.png,5.0,10,,,,,,,,,,,,,,,,,,0.0,25.0,25.0,25.0,1.0,,,,,,,,,,
0.0,1.0,0.70072,,,,,,puddle_02s.jpg,0.0,clock_5_3.png,5.0,10,,,,,,,,,,,,,,,,,,0.0,26.0,26.0,26.0,1.0,,,,,,,,,,
0.0,1.0,0.55229,,,,,,peanut_butter_08s.jpg,0.0,clock_5_4.png,5.0,10,,,,,,,,,,,,,,,,,,0.0,27.0,27.0,27.0,1.0,,,,,,,,,,
0.0,1.0,0.53849,,,,,,loveseat_08s.jpg,0.0,clock_5_5.png,5.0,10,,,,,,,,,,,,,,,,,,0.0,28.0,28.0,28.0,1.0,,,,,,,,,,
0.0,1.0,0.613385,,,,,,timer_03s.jpg,0.0,clock_7_1.png,6.0,10,,,,,,,,,,,,,,,,,,0.0,29.0,29.0,29.0,1.0,,,,,,,,,,
0.0,1.0,0.536685,,,,,,icicle_04s.jpg,0.0,clock_7_2.png,6.0,10,,,,,,,,,,,,,,,,,,0.0,30.0,30.0,30.0,1.0,,,,,,,,,,
0.0,1.0,0.496655,,,,,,fishhook_06s.jpg,0.0,clock_7_3.png,6.0,10,,,,,,,,,,,,,,,,,,0.0,31.0,31.0,31.0,1.0,,,,,,,,,,
0.0,1.0,0.572155,,,,,,pump_11s.jpg,0.0,clock_7_4.png,6.0,10,,,,,,,,,,,,,,,,,,0.0,32.0,32.0,32.0,1.0,,,,,,,,,,
0.0,1.0,0.60398,,,,,,ukulele_02s.jpg,0.0,clock_7_5.png,6.0,10,,,,,,,,,,,,,,,,,,0.0,33.0,33.0,33.0,1.0,,,,,,,,,,
0.0,1.0,0.69699,,,,,,safety_pin_02s.jpg,0.0,clock_7_6.png,6.0,10,,,,,,,,,,,,,,,,,,0.0,34.0,34.0,34.0,1.0,,,,,,,,,,
0.0,1.0,0.5469,,,,,,sundae_08s.jpg,0.0,clock_7_7.png,6.0,10,,,,,,,,,,,,,,,,,,0.0,35.0,35.0,35.0,1.0,,,,,,,,,,
,,,,,,,,,0.0,,,10,0.0,1.0,0.88062,,,,,,fishhook_06s.jpg,loveseat_08s.jpg,,,,,,,,,,,,,0.0,0.0,0.0,0.0,1.0,,,,,
,,,,,,,,,0.0,,,10,0.0,1.0,1.139805,,,,,,paintbrush_04s.jpg,leash_10s.jpg,,,,,,,,,,,,,0.0,1.0,1.0,1.0,1.0,,,,,
,,,,,,,,,0.0,,,10,0.0,1.0,1.213175,,,,,,timer_03s.jpg,puddle_02s.jpg,,,,,,,,,,,,,0.0,2.0,2.0,2.0,1.0,,,,,
,,,,,,,,,1.0,,,10,1.0,1.0,1.04823,,,,,,surfboard_11s.jpg,lipstick_02s.jpg,,,,,,,,,,,,,0.0,3.0,3.0,3.0,1.0,,,,,
,,,,,,,,,0.0,,,10,0.0,1.0,0.87859,,,,,,sundae_08s.jpg,pump_11s.jpg,,,,,,,,,,,,,0.0,4.0,4.0,4.0,1.0,,,,,
,,,,,,,,,0.0,,,10,0.0,1.0,0.831745,,,,,,ukulele_02s.jpg,icicle_04s.jpg,,,,,,,,,,,,,0.0,5.0,5.0,5.0,1.0,,,,,
,,,,,,,,,,,,10,,,,,,,,,,,,,,,,clock_present_3_14.xlsx,clock_compare_task_3_14.xlsx,,,,,,,,,,,0.0,2.0,2.0,2.0,1.0
0.0,1.0,0.996345,,,,,,mold2_04s.jpg,0.0,clock_5_1.png,1.0,10,,,,,,,,,,,,,,,,,,0.0,0.0,0.0,0.0,1.0,,,,,,,,,,
1.0,1.0,0.732145,,,,,,mold2_04s.jpg,1.0,clock_5_2.png,1.0,10,,,,,,,,,,,,,,,,,,0.0,1.0,1.0,1.0,1.0,,,,,,,,,,
1.0,1.0,0.78743,,,,,,mold2_04s.jpg,1.0,clock_5_3.png,1.0,10,,,,,,,,,,,,,,,,,,0.0,2.0,2.0,2.0,1.0,,,,,,,,,,
1.0,1.0,0.92313,,,,,,mold2_04s.jpg,1.0,clock_5_4.png,1.0,10,,,,,,,,,,,,,,,,,,0.0,3.0,3.0,3.0,1.0,,,,,,,,,,
0.0,1.0,1.001395,,,,,,sledgehammer_03s.jpg,0.0,clock_5_5.png,1.0,10,,,,,,,,,,,,,,,,,,0.0,4.0,4.0,4.0,1.0,,,,,,,,,,
0.0,1.0,1.53479,,,,,,prism_10s.jpg,0.0,clock_7_1.png,2.0,10,,,,,,,,,,,,,,,,,,0.0,5.0,5.0,5.0,1.0,,,,,,,,,,
0.0,1.0,0.796105,,,,,,jewel_01b.jpg,0.0,clock_7_2.png,2.0,10,,,,,,,,,,,,,,,,,,0.0,6.0,6.0,6.0,1.0,,,,,,,,,,
0.0,1.0,0.866375,,,,,,puffin_19s.jpg,0.0,clock_7_3.png,2.0,10,,,,,,,,,,,,,,,,,,0.0,7.0,7.0,7.0,1.0,,,,,,,,,,
0.0,1.0,0.87934,,,,,,screwdriver02a.jpg,0.0,clock_7_4.png,2.0,10,,,,,,,,,,,,,,,,,,0.0,8.0,8.0,8.0,1.0,,,,,,,,,,
0.0,1.0,0.624635,,,,,,thermostat_02s.jpg,0.0,clock_7_5.png,2.0,10,,,,,,,,,,,,,,,,,,0.0,9.0,9.0,9.0,1.0,,,,,,,,,,
1.0,1.0,0.86357,,,,,,jewel_01b.jpg,1.0,clock_7_6.png,2.0,10,,,,,,,,,,,,,,,,,,0.0,10.0,10.0,10.0,1.0,,,,,,,,,,
1.0,1.0,0.81595,,,,,,puffin_19s.jpg,1.0,clock_7_7.png,2.0,10,,,,,,,,,,,,,,,,,,0.0,11.0,11.0,11.0,1.0,,,,,,,,,,
0.0,1.0,1.090355,,,,,,petri_dish_12s.jpg,0.0,clock_6_1.png,3.0,10,,,,,,,,,,,,,,,,,,0.0,12.0,12.0,12.0,1.0,,,,,,,,,,
0.0,1.0,0.92036,,,,,,plug_08s.jpg,0.0,clock_6_2.png,3.0,10,,,,,,,,,,,,,,,,,,0.0,13.0,13.0,13.0,1.0,,,,,,,,,,
0.0,1.0,0.757335,,,,,,hydrant_10s.jpg,0.0,clock_6_3.png,3.0,10,,,,,,,,,,,,,,,,,,0.0,14.0,14.0,14.0,1.0,,,,,,,,,,
1.0,1.0,0.70035,,,,,,petri_dish_12s.jpg,1.0,clock_6_4.png,3.0,10,,,,,,,,,,,,,,,,,,0.0,15.0,15.0,15.0,1.0,,,,,,,,,,
0.0,1.0,1.03003,,,,,,amber_04s.jpg,0.0,clock_6_5.png,3.0,10,,,,,,,,,,,,,,,,,,0.0,16.0,16.0,16.0,1.0,,,,,,,,,,
0.0,1.0,0.855235,,,,,,luggage_08s.jpg,0.0,clock_6_6.png,3.0,10,,,,,,,,,,,,,,,,,,0.0,17.0,17.0,17.0,1.0,,,,,,,,,,
0.0,1.0,0.83002,,,,,,cushion_08s.jpg,0.0,clock_7_1.png,4.0,10,,,,,,,,,,,,,,,,,,0.0,18.0,18.0,18.0,1.0,,,,,,,,,,
0.0,1.0,0.58785,,,,,,mushroom_10n.jpg,0.0,clock_7_2.png,4.0,10,,,,,,,,,,,,,,,,,,0.0,19.0,19.0,19.0,1.0,,,,,,,,,,
0.0,1.0,0.683515,,,,,,puffin_19s.jpg,0.0,clock_7_3.png,4.0,10,,,,,,,,,,,,,,,,,,0.0,20.0,20.0,20.0,1.0,,,,,,,,,,
0.0,1.0,1.03018,,,,,,lasagna_06s.jpg,0.0,clock_7_4.png,4.0,10,,,,,,,,,,,,,,,,,,0.0,21.0,21.0,21.0,1.0,,,,,,,,,,
0.0,1.0,1.649755,,,,,,thorn_13s.jpg,0.0,clock_7_5.png,4.0,10,,,,,,,,,,,,,,,,,,0.0,22.0,22.0,22.0,1.0,,,,,,,,,,
0.0,1.0,0.93431,,,,,,jelly_bean_06s.jpg,0.0,clock_7_6.png,4.0,10,,,,,,,,,,,,,,,,,,0.0,23.0,23.0,23.0,1.0,,,,,,,,,,
0.0,1.0,1.35747,,,,,,mosquito_12s.jpg,0.0,clock_7_7.png,4.0,10,,,,,,,,,,,,,,,,,,0.0,24.0,24.0,24.0,1.0,,,,,,,,,,
0.0,1.0,1.165355,,,,,,triangle_10s.jpg,0.0,clock_6_1.png,5.0,10,,,,,,,,,,,,,,,,,,0.0,25.0,25.0,25.0,1.0,,,,,,,,,,
0.0,1.0,0.94627,,,,,,roulette_wheel_04s.jpg,0.0,clock_6_2.png,5.0,10,,,,,,,,,,,,,,,,,,0.0,26.0,26.0,26.0,1.0,,,,,,,,,,
1.0,1.0,0.86966,,,,,,roulette_wheel_04s.jpg,1.0,clock_6_3.png,5.0,10,,,,,,,,,,,,,,,,,,0.0,27.0,27.0,27.0,1.0,,,,,,,,,,
0.0,1.0,1.14406,,,,,,puffin_19s.jpg,0.0,clock_6_4.png,5.0,10,,,,,,,,,,,,,,,,,,0.0,28.0,28.0,28.0,1.0,,,,,,,,,,
0.0,1.0,0.707805,,,,,,outlet_10s.jpg,0.0,clock_6_5.png,5.0,10,,,,,,,,,,,,,,,,,,0.0,29.0,29.0,29.0,1.0,,,,,,,,,,
0.0,1.0,1.281995,,,,,,abacus_12s.jpg,0.0,clock_6_6.png,5.0,10,,,,,,,,,,,,,,,,,,0.0,30.0,30.0,30.0,1.0,,,,,,,,,,
0.0,1.0,1.31464,,,,,,pencil02a.jpg,0.0,clock_5_1.png,6.0,10,,,,,,,,,,,,,,,,,,0.0,31.0,31.0,31.0,1.0,,,,,,,,,,
0.0,1.0,1.116045,,,,,,pillow_03s.jpg,0.0,clock_5_2.png,6.0,10,,,,,,,,,,,,,,,,,,0.0,32.0,32.0,32.0,1.0,,,,,,,,,,
0.0,0.0,0.703915,,,,,,pencil02a.jpg,1.0,clock_5_3.png,6.0,10,,,,,,,,,,,,,,,,,,0.0,33.0,33.0,33.0,1.0,,,,,,,,,,
0.0,1.0,0.84679,,,,,,towel_rack_04s.jpg,0.0,clock_5_4.png,6.0,10,,,,,,,,,,,,,,,,,,0.0,34.0,34.0,34.0,1.0,,,,,,,,,,
0.0,1.0,0.65556,,,,,,machine_gun_09s.jpg,0.0,clock_5_5.png,6.0,10,,,,,,,,,,,,,,,,,,0.0,35.0,35.0,35.0,1.0,,,,,,,,,,
,,,,,,,,,1.0,,,10,0.0,0.0,2.11039,,,,,,thorn_13s.jpg,triangle_10s.jpg,,,,,,,,,,,,,0.0,0.0,0.0,0.0,1.0,,,,,
,,,,,,,,,0.0,,,10,1.0,0.0,1.19219,,,,,,pillow_03s.jpg,outlet_10s.jpg,,,,,,,,,,,,,0.0,1.0,1.0,1.0,1.0,,,,,
,,,,,,,,,1.0,,,10,1.0,1.0,1.098395,,,,,,amber_04s.jpg,mushroom_10n.jpg,,,,,,,,,,,,,0.0,2.0,2.0,2.0,1.0,,,,,
,,,,,,,,,0.0,,,10,0.0,1.0,1.07071,,,,,,screwdriver02a.jpg,prism_10s.jpg,,,,,,,,,,,,,0.0,3.0,3.0,3.0,1.0,,,,,
,,,,,,,,,1.0,,,10,1.0,1.0,0.97203,,,,,,hydrant_10s.jpg,luggage_08s.jpg,,,,,,,,,,,,,0.0,4.0,4.0,4.0,1.0,,,,,
,,,,,,,,,1.0,,,10,1.0,1.0,1.247845,,,,,,cushion_08s.jpg,lasagna_06s.jpg,,,,,,,,,,,,,0.0,5.0,5.0,5.0,1.0,,,,,
,,,,,,,,,,,,10,,,,,,,,,,,,,,,,clock_present_4_14.xlsx,clock_compare_task_4_14.xlsx,,,,,,,,,,,0.0,3.0,3.0,3.0,1.0
0.0,1.0,0.837885,,,,,,checkbook_11s.jpg,0.0,clock_7_1.png,1.0,10,,,,,,,,,,,,,,,,,,0.0,0.0,0.0,0.0,1.0,,,,,,,,,,
0.0,1.0,0.796815,,,,,,submarine_11n.jpg,0.0,clock_7_2.png,1.0,10,,,,,,,,,,,,,,,,,,0.0,1.0,1.0,1.0,1.0,,,,,,,,,,
0.0,1.0,0.73393,,,,,,doily_13s.jpg,0.0,clock_7_3.png,1.0,10,,,,,,,,,,,,,,,,,,0.0,2.0,2.0,2.0,1.0,,,,,,,,,,
0.0,1.0,0.732255,,,,,,briefcase_03s.jpg,0.0,clock_7_4.png,1.0,10,,,,,,,,,,,,,,,,,,0.0,3.0,3.0,3.0,1.0,,,,,,,,,,
0.0,1.0,0.60986,,,,,,film_03s.jpg,0.0,clock_7_5.png,1.0,10,,,,,,,,,,,,,,,,,,0.0,4.0,4.0,4.0,1.0,,,,,,,,,,
0.0,1.0,0.69141,,,,,,ironing_board_07s.jpg,0.0,clock_7_6.png,1.0,10,,,,,,,,,,,,,,,,,,0.0,5.0,5.0,5.0,1.0,,,,,,,,,,
1.0,1.0,0.8815,,,,,,checkbook_11s.jpg,1.0,clock_7_7.png,1.0,10,,,,,,,,,,,,,,,,,,0.0,6.0,6.0,6.0,1.0,,,,,,,,,,
0.0,1.0,0.751725,,,,,,sushi_08s.jpg,0.0,clock_6_1.png,2.0,10,,,,,,,,,,,,,,,,,,0.0,7.0,7.0,7.0,1.0,,,,,,,,,,
0.0,1.0,0.583975,,,,,,go-kart_10s.jpg,0.0,clock_6_2.png,2.0,10,,,,,,,,,,,,,,,,,,0.0,8.0,8.0,8.0,1.0,,,,,,,,,,
0.0,1.0,0.36596,,,,,,tripod_01b.jpg,0.0,clock_6_3.png,2.0,10,,,,,,,,,,,,,,,,,,0.0,9.0,9.0,9.0,1.0,,,,,,,,,,
0.0,1.0,0.539385,,,,,,tinsel_12s.jpg,0.0,clock_6_4.png,2.0,10,,,,,,,,,,,,,,,,,,0.0,10.0,10.0,10.0,1.0,,,,,,,,,,
0.0,1.0,0.92328,,,,,,microwave_02s.jpg,0.0,clock_6_5.png,2.0,10,,,,,,,,,,,,,,,,,,0.0,11.0,11.0,11.0,1.0,,,,,,,,,,
0.0,1.0,0.71554,,,,,,piano_13n.jpg,0.0,clock_6_6.png,2.0,10,,,,,,,,,,,,,,,,,,0.0,12.0,12.0,12.0,1.0,,,,,,,,,,
0.0,1.0,0.698545,,,,,,panda_02s.jpg,0.0,clock_5_1.png,3.0,10,,,,,,,,,,,,,,,,,,0.0,13.0,13.0,13.0,1.0,,,,,,,,,,
0.0,1.0,1.00154,,,,,,spatula04.jpg,0.0,clock_5_2.png,3.0,10,,,,,,,,,,,,,,,,,,0.0,14.0,14.0,14.0,1.0,,,,,,,,,,
0.0,1.0,0.899235,,,,,,razor_12s.jpg,0.0,clock_5_3.png,3.0,10,,,,,,,,,,,,,,,,,,0.0,15.0,15.0,15.0,1.0,,,,,,,,,,
0.0,1.0,0.6632,,,,,,jet_15s.jpg,0.0,clock_5_4.png,3.0,10,,,,,,,,,,,,,,,,,,0.0,16.0,16.0,16.0,1.0,,,,,,,,,,
0.0,1.0,0.69379,,,,,,spider_web_03s.jpg,0.0,clock_5_5.png,3.0,10,,,,,,,,,,,,,,,,,,0.0,17.0,17.0,17.0,1.0,,,,,,,,,,
0.0,1.0,0.64654,,,,,,lamppost_09s.jpg,0.0,clock_5_1.png,4.0,10,,,,,,,,,,,,,,,,,,0.0,18.0,18.0,18.0,1.0,,,,,,,,,,
0.0,1.0,0.529975,,,,,,kettle_08s.jpg,0.0,clock_5_2.png,4.0,10,,,,,,,,,,,,,,,,,,0.0,19.0,19.0,19.0,1.0,,,,,,,,,,
1.0,1.0,0.70263,,,,,,kettle_08s.jpg,1.0,clock_5_3.png,4.0,10,,,,,,,,,,,,,,,,,,0.0,20.0,20.0,20.0,1.0,,,,,,,,,,
0.0,1.0,0.67015,,,,,,jet_15s.jpg,0.0,clock_5_4.png,4.0,10,,,,,,,,,,,,,,,,,,0.0,21.0,21.0,21.0,1.0,,,,,,,,,,
1.0,1.0,0.93985,,,,,,kettle_08s.jpg,1.0,clock_5_5.png,4.0,10,,,,,,,,,,,,,,,,,,0.0,22.0,22.0,22.0,1.0,,,,,,,,,,
0.0,1.0,1.93012,,,,,,champagne_18s.jpg,0.0,clock_6_1.png,5.0,10,,,,,,,,,,,,,,,,,,0.0,23.0,23.0,23.0,1.0,,,,,,,,,,
0.0,1.0,0.6965,,,,,,radiator_05s.jpg,0.0,clock_6_2.png,5.0,10,,,,,,,,,,,,,,,,,,0.0,24.0,24.0,24.0,1.0,,,,,,,,,,
1.0,1.0,0.65629,,,,,,radiator_05s.jpg,1.0,clock_6_3.png,5.0,10,,,,,,,,,,,,,,,,,,0.0,25.0,25.0,25.0,1.0,,,,,,,,,,
0.0,1.0,1.120575,,,,,,pepper2_21s.jpg,0.0,clock_6_4.png,5.0,10,,,,,,,,,,,,,,,,,,0.0,26.0,26.0,26.0,1.0,,,,,,,,,,
1.0,1.0,0.721315,,,,,,pepper2_21s.jpg,1.0,clock_6_5.png,5.0,10,,,,,,,,,,,,,,,,,,0.0,27.0,27.0,27.0,1.0,,,,,,,,,,
0.0,1.0,1.2474,,,,,,breadstick_08s.jpg,0.0,clock_6_6.png,5.0,10,,,,,,,,,,,,,,,,,,0.0,28.0,28.0,28.0,1.0,,,,,,,,,,
0.0,1.0,1.097885,,,,,,mailbox_11s.jpg,0.0,clock_7_1.png,6.0,10,,,,,,,,,,,,,,,,,,0.0,29.0,29.0,29.0,1.0,,,,,,,,,,
0.0,1.0,0.580135,,,,,,crystal_ball_12s.jpg,0.0,clock_7_2.png,6.0,10,,,,,,,,,,,,,,,,,,0.0,30.0,30.0,30.0,1.0,,,,,,,,,,
1.0,1.0,0.535855,,,,,,crystal_ball_12s.jpg,1.0,clock_7_3.png,6.0,10,,,,,,,,,,,,,,,,,,0.0,31.0,31.0,31.0,1.0,,,,,,,,,,
0.0,1.0,0.735045,,,,,,submarine_11n.jpg,0.0,clock_7_4.png,6.0,10,,,,,,,,,,,,,,,,,,0.0,32.0,32.0,32.0,1.0,,,,,,,,,,
0.0,1.0,0.6008,,,,,,ant_12s.jpg,0.0,clock_7_5.png,6.0,10,,,,,,,,,,,,,,,,,,0.0,33.0,33.0,33.0,1.0,,,,,,,,,,
0.0,1.0,0.71919,,,,,,smokingpipe.jpg,0.0,clock_7_6.png,6.0,10,,,,,,,,,,,,,,,,,,0.0,34.0,34.0,34.0,1.0,,,,,,,,,,
1.0,1.0,1.155295,,,,,,mailbox_11s.jpg,1.0,clock_7_7.png,6.0,10,,,,,,,,,,,,,,,,,,0.0,35.0,35.0,35.0,1.0,,,,,,,,,,
,,,,,,,,,1.0,,,10,0.0,0.0,1.842895,,,,,,razor_12s.jpg,lamppost_09s.jpg,,,,,,,,,,,,,0.0,0.0,0.0,0.0,1.0,,,,,
,,,,,,,,,1.0,,,10,1.0,1.0,1.13169,,,,,,film_03s.jpg,sushi_08s.jpg,,,,,,,,,,,,,0.0,1.0,1.0,1.0,1.0,,,,,
,,,,,,,,,0.0,,,10,1.0,0.0,1.136025,,,,,,panda_02s.jpg,tinsel_12s.jpg,,,,,,,,,,,,,0.0,2.0,2.0,2.0,1.0,,,,,
,,,,,,,,,0.0,,,10,1.0,0.0,1.63382,,,,,,ironing_board_07s.jpg,doily_13s.jpg,,,,,,,,,,,,,0.0,3.0,3.0,3.0,1.0,,,,,
,,,,,,,,,0.0,,,10,0.0,1.0,1.52552,,,,,,piano_13n.jpg,tripod_01b.jpg,,,,,,,,,,,,,0.0,4.0,4.0,4.0,1.0,,,,,
,,,,,,,,,0.0,,,10,1.0,0.0,1.495345,,,,,,spider_web_03s.jpg,spatula04.jpg,,,,,,,,,,,,,0.0,5.0,5.0,5.0,1.0,,,,,
,,,,,,,,,,,,10,,,,,,,,,,,,,,,,clock_present_5_14.xlsx,clock_compare_task_5_14.xlsx,,,,,,,,,,,0.0,4.0,4.0,4.0,1.0
0.0,1.0,0.870895,,,,,,orangutan_03s.jpg,0.0,clock_7_1.png,1.0,10,,,,,,,,,,,,,,,,,,0.0,0.0,0.0,0.0,1.0,,,,,,,,,,
0.0,1.0,1.167375,,,,,,squirrel_02s.jpg,0.0,clock_7_2.png,1.0,10,,,,,,,,,,,,,,,,,,0.0,1.0,1.0,1.0,1.0,,,,,,,,,,
0.0,1.0,0.48766,,,,,,tiara_05s.jpg,0.0,clock_7_3.png,1.0,10,,,,,,,,,,,,,,,,,,0.0,2.0,2.0,2.0,1.0,,,,,,,,,,
1.0,1.0,0.50633,,,,,,squirrel_02s.jpg,1.0,clock_7_4.png,1.0,10,,,,,,,,,,,,,,,,,,0.0,3.0,3.0,3.0,1.0,,,,,,,,,,
1.0,1.0,0.757365,,,,,,tiara_05s.jpg,1.0,clock_7_5.png,1.0,10,,,,,,,,,,,,,,,,,,0.0,4.0,4.0,4.0,1.0,,,,,,,,,,
0.0,1.0,0.65297,,,,,,mannequin_05s.jpg,0.0,clock_7_6.png,1.0,10,,,,,,,,,,,,,,,,,,0.0,5.0,5.0,5.0,1.0,,,,,,,,,,
0.0,1.0,1.479185,,,,,,omelet_07s.jpg,0.0,clock_7_7.png,1.0,10,,,,,,,,,,,,,,,,,,0.0,6.0,6.0,6.0,1.0,,,,,,,,,,
0.0,1.0,0.92159,,,,,,buoy_04s.jpg,0.0,clock_5_1.png,2.0,10,,,,,,,,,,,,,,,,,,0.0,7.0,7.0,7.0,1.0,,,,,,,,,,
0.0,1.0,0.51698,,,,,,meatball_13s.jpg,0.0,clock_5_2.png,2.0,10,,,,,,,,,,,,,,,,,,0.0,8.0,8.0,8.0,1.0,,,,,,,,,,
0.0,1.0,0.5667,,,,,,peppermint_07s.jpg,0.0,clock_5_3.png,2.0,10,,,,,,,,,,,,,,,,,,0.0,9.0,9.0,9.0,1.0,,,,,,,,,,
0.0,1.0,0.538865,,,,,,letter_opener_03s.jpg,0.0,clock_5_4.png,2.0,10,,,,,,,,,,,,,,,,,,0.0,10.0,10.0,10.0,1.0,,,,,,,,,,
0.0,1.0,0.52204,,,,,,jigsaw_puzzle_11s.jpg,0.0,clock_5_5.png,2.0,10,,,,,,,,,,,,,,,,,,0.0,11.0,11.0,11.0,1.0,,,,,,,,,,
0.0,1.0,0.574565,,,,,,bean_06s.jpg,0.0,clock_7_1.png,3.0,10,,,,,,,,,,,,,,,,,,0.0,12.0,12.0,12.0,1.0,,,,,,,,,,
0.0,1.0,0.64345,,,,,,tiara_05s.jpg,0.0,clock_7_2.png,3.0,10,,,,,,,,,,,,,,,,,,0.0,13.0,13.0,13.0,1.0,,,,,,,,,,
0.0,1.0,0.76613,,,,,,toothpaste_12s.jpg,0.0,clock_7_3.png,3.0,10,,,,,,,,,,,,,,,,,,0.0,14.0,14.0,14.0,1.0,,,,,,,,,,
0.0,1.0,0.78864,,,,,,toad_09s.jpg,0.0,clock_7_4.png,3.0,10,,,,,,,,,,,,,,,,,,0.0,15.0,15.0,15.0,1.0,,,,,,,,,,
0.0,1.0,1.13005,,,,,,reindeer_08s.jpg,0.0,clock_7_5.png,3.0,10,,,,,,,,,,,,,,,,,,0.0,16.0,16.0,16.0,1.0,,,,,,,,,,
0.0,1.0,0.52302,,,,,,refrigerator_07s.jpg,0.0,clock_7_6.png,3.0,10,,,,,,,,,,,,,,,,,,0.0,17.0,17.0,17.0,1.0,,,,,,,,,,
0.0,1.0,0.821935,,,,,,koala_13s.jpg,0.0,clock_7_7.png,3.0,10,,,,,,,,,,,,,,,,,,0.0,18.0,18.0,18.0,1.0,,,,,,,,,,
0.0,1.0,0.769345,,,,,,umbrella_15s.jpg,0.0,clock_5_1.png,4.0,10,,,,,,,,,,,,,,,,,,0.0,19.0,19.0,19.0,1.0,,,,,,,,,,
0.0,1.0,0.766825,,,,,,lamp_08s.jpg,0.0,clock_5_2.png,4.0,10,,,,,,,,,,,,,,,,,,0.0,20.0,20.0,20.0,1.0,,,,,,,,,,
0.0,1.0,0.516065,,,,,,bacon_05s.jpg,0.0,clock_5_3.png,4.0,10,,,,,,,,,,,,,,,,,,0.0,21.0,21.0,21.0,1.0,,,,,,,,,,
0.0,1.0,0.682595,,,,,,mug_06s.jpg,0.0,clock_5_4.png,4.0,10,,,,,,,,,,,,,,,,,,0.0,22.0,22.0,22.0,1.0,,,,,,,,,,
0.0,1.0,0.73075,,,,,,telephone_pole_05s.jpg,0.0,clock_5_5.png,4.0,10,,,,,,,,,,,,,,,,,,0.0,23.0,23.0,23.0,1.0,,,,,,,,,,
0.0,1.0,0.71764,,,,,,tablet_04s.jpg,0.0,clock_6_1.png,5.0,10,,,,,,,,,,,,,,,,,,0.0,24.0,24.0,24.0,1.0,,,,,,,,,,
0.0,1.0,1.04261,,,,,,flip_flop_03s.jpg,0.0,clock_6_2.png,5.0,10,,,,,,,,,,,,,,,,,,0.0,25.0,25.0,25.0,1.0,,,,,,,,,,
0.0,1.0,1.26913,,,,,,razor_blade_01b.jpg,0.0,clock_6_3.png,5.0,10,,,,,,,,,,,,,,,,,,0.0,26.0,26.0,26.0,1.0,,,,,,,,,,
0.0,1.0,0.524875,,,,,,turkey_10s.jpg,0.0,clock_6_4.png,5.0,10,,,,,,,,,,,,,,,,,,0.0,27.0,27.0,27.0,1.0,,,,,,,,,,
0.0,1.0,0.57988,,,,,,polar_bear_02s.jpg,0.0,clock_6_5.png,5.0,10,,,,,,,,,,,,,,,,,,0.0,28.0,28.0,28.0,1.0,,,,,,,,,,
0.0,1.0,0.748735,,,,,,pomegranate_04s.jpg,0.0,clock_6_6.png,5.0,10,,,,,,,,,,,,,,,,,,0.0,29.0,29.0,29.0,1.0,,,,,,,,,,
0.0,1.0,0.592765,,,,,,jetski_10s.jpg,0.0,clock_6_1.png,6.0,10,,,,,,,,,,,,,,,,,,0.0,30.0,30.0,30.0,1.0,,,,,,,,,,
0.0,1.0,0.513595,,,,,,milk_02s.jpg,0.0,clock_6_2.png,6.0,10,,,,,,,,,,,,,,,,,,0.0,31.0,31.0,31.0,1.0,,,,,,,,,,
0.0,1.0,1.38263,,,,,,undershirt_02s.jpg,0.0,clock_6_3.png,6.0,10,,,,,,,,,,,,,,,,,,0.0,32.0,32.0,32.0,1.0,,,,,,,,,,
0.0,1.0,0.61693,,,,,,megaphone_03s.jpg,0.0,clock_6_4.png,6.0,10,,,,,,,,,,,,,,,,,,0.0,33.0,33.0,33.0,1.0,,,,,,,,,,
0.0,1.0,0.59951,,,,,,licorice_06s.jpg,0.0,clock_6_5.png,6.0,10,,,,,,,,,,,,,,,,,,0.0,34.0,34.0,34.0,1.0,,,,,,,,,,
1.0,1.0,1.034465,,,,,,jetski_10s.jpg,1.0,clock_6_6.png,6.0,10,,,,,,,,,,,,,,,,,,0.0,35.0,35.0,35.0,1.0,,,,,,,,,,
,,,,,,,,,0.0,,,10,0.0,1.0,1.236635,,,,,,peppermint_07s.jpg,omelet_07s.jpg,,,,,,,,,,,,,0.0,0.0,0.0,0.0,1.0,,,,,
,,,,,,,,,0.0,,,10,1.0,0.0,1.40576,,,,,,meatball_13s.jpg,mannequin_05s.jpg,,,,,,,,,,,,,0.0,1.0,1.0,1.0,1.0,,,,,
,,,,,,,,,0.0,,,10,1.0,0.0,1.24071,,,,,,umbrella_15s.jpg,reindeer_08s.jpg,,,,,,,,,,,,,0.0,2.0,2.0,2.0,1.0,,,,,
,,,,,,,,,0.0,,,10,1.0,0.0,1.16055,,,,,,letter_opener_03s.jpg,buoy_04s.jpg,,,,,,,,,,,,,0.0,3.0,3.0,3.0,1.0,,,,,
,,,,,,,,,0.0,,,10,1.0,0.0,1.13509,,,,,,toad_09s.jpg,bean_06s.jpg,,,,,,,,,,,,,0.0,4.0,4.0,4.0,1.0,,,,,
,,,,,,,,,0.0,,,10,1.0,0.0,1.516135,,,,,,turkey_10s.jpg,tablet_04s.jpg,,,,,,,,,,,,,0.0,5.0,5.0,5.0,1.0,,,,,
