key_resp.keys,key_resp.corr,key_resp.rt,noclock_loop.thisRepN,noclock_loop.thisTrialN,noclock_loop.thisN,noclock_loop.thisIndex,noclock_loop.ran,pictures,answer,clock,segment,participant,key_resp_2.keys,key_resp_2.corr,key_resp_2.rt,noclock_loop2.thisRepN,noclock_loop2.thisTrialN,noclock_loop2.thisN,noclock_loop2.thisIndex,noclock_loop2.ran,item_a,item_b,noclock_condition.thisRepN,noclock_condition.thisTrialN,noclock_condition.thisN,noclock_condition.thisIndex,noclock_condition.ran,present,compare,present_segment.thisRepN,present_segment.thisTrialN,present_segment.thisN,present_segment.thisIndex,present_segment.ran,compare_segment.thisRepN,compare_segment.thisTrialN,compare_segment.thisN,compare_segment.thisIndex,compare_segment.ran,clock_conditions.thisRepN,clock_conditions.thisTrialN,clock_conditions.thisN,clock_conditions.thisIndex,clock_conditions.ran
0.0,1.0,0.806915,0.0,0.0,0.0,0.0,1.0,swan_11s.jpg,0.0,clockno_up.jpg,1.0,52,,,,,,,,,,,,,,,,,,,,,,,,,,,,,,,,
0.0,1.0,0.88594,0.0,1.0,1.0,1.0,1.0,hummingbird_05s.jpg,0.0,clockno_default.jpg,1.0,52,,,,,,,,,,,,,,,,,,,,,,,,,,,,,,,,
0.0,1.0,0.951395,0.0,2.0,2.0,2.0,1.0,pretzel_09s.jpg,0.0,clockno_default.jpg,1.0,52,,,,,,,,,,,,,,,,,,,,,,,,,,,,,,,,
1.0,1.0,0.65198,0.0,3.0,3.0,3.0,1.0,pretzel_09s.jpg,1.0,clockno_default.jpg,1.0,52,,,,,,,,,,,,,,,,,,,,,,,,,,,,,,,,
1.0,1.0,1.195275,0.0,4.0,4.0,4.0,1.0,pretzel_09s.jpg,1.0,clockno_default.jpg,1.0,52,,,,,,,,,,,,,,,,,,,,,,,,,,,,,,,,
0.0,1.0,0.764205,0.0,5.0,5.0,5.0,1.0,tennis_ball_06s.jpg,0.0,clockno_default.jpg,1.0,52,,,,,,,,,,,,,,,,,,,,,,,,,,,,,,,,
0.0,1.0,0.808345,0.0,6.0,6.0,6.0,1.0,perfume_06s.jpg,0.0,clockno_up.jpg,2.0,52,,,,,,,,,,,,,,,,,,,,,,,,,,,,,,,,
1.0,0.0,1.409715,0.0,7.0,7.0,7.0,1.0,pretzel_09s.jpg,0.0,clockno_default.jpg,2.0,52,,,,,,,,,,,,,,,,,,,,,,,,,,,,,,,,
0.0,1.0,1.14199,0.0,8.0,8.0,8.0,1.0,teapot_03s.jpg,0.0,clockno_default.jpg,2.0,52,,,,,,,,,,,,,,,,,,,,,,,,,,,,,,,,
0.0,1.0,0.96178,0.0,9.0,9.0,9.0,1.0,denture_03s.jpg,0.0,clockno_default.jpg,2.0,52,,,,,,,,,,,,,,,,,,,,,,,,,,,,,,,,
0.0,1.0,0.730665,0.0,10.0,10.0,10.0,1.0,mitten_10s.jpg,0.0,clockno_default.jpg,2.0,52,,,,,,,,,,,,,,,,,,,,,,,,,,,,,,,,
0.0,1.0,0.757785,0.0,11.0,11.0,11.0,1.0,pineapple_12s.jpg,0.0,clockno_up.jpg,3.0,52,,,,,,,,,,,,,,,,,,,,,,,,,,,,,,,,
0.0,1.0,0.806585,0.0,12.0,12.0,12.0,1.0,fire_pit_10s.jpg,0.0,clockno_default.jpg,3.0,52,,,,,,,,,,,,,,,,,,,,,,,,,,,,,,,,
0.0,1.0,1.25999,0.0,13.0,13.0,13.0,1.0,icemaker_10s.jpg,0.0,clockno_default.jpg,3.0,52,,,,,,,,,,,,,,,,,,,,,,,,,,,,,,,,
1.0,0.0,1.05164,0.0,14.0,14.0,14.0,1.0,denture_03s.jpg,0.0,clockno_default.jpg,3.0,52,,,,,,,,,,,,,,,,,,,,,,,,,,,,,,,,
0.0,1.0,0.87298,0.0,15.0,15.0,15.0,1.0,tomato_sauce_09s.jpg,0.0,clockno_default.jpg,3.0,52,,,,,,,,,,,,,,,,,,,,,,,,,,,,,,,,
0.0,1.0,0.838145,0.0,16.0,16.0,16.0,1.0,chalice_10s.jpg,0.0,clockno_up.jpg,4.0,52,,,,,,,,,,,,,,,,,,,,,,,,,,,,,,,,
0.0,1.0,0.900845,0.0,17.0,17.0,17.0,1.0,pepper_mill_03s.jpg,0.0,clockno_default.jpg,4.0,52,,,,,,,,,,,,,,,,,,,,,,,,,,,,,,,,
0.0,1.0,0.905545,0.0,18.0,18.0,18.0,1.0,pencil_sharpener_09n.jpg,0.0,clockno_default.jpg,4.0,52,,,,,,,,,,,,,,,,,,,,,,,,,,,,,,,,
1.0,1.0,0.88117,0.0,19.0,19.0,19.0,1.0,chalice_10s.jpg,1.0,clockno_default.jpg,4.0,52,,,,,,,,,,,,,,,,,,,,,,,,,,,,,,,,
0.0,1.0,0.720695,0.0,20.0,20.0,20.0,1.0,crossbow_10s.jpg,0.0,clockno_default.jpg,4.0,52,,,,,,,,,,,,,,,,,,,,,,,,,,,,,,,,
0.0,1.0,0.78567,0.0,21.0,21.0,21.0,1.0,tortilla_06s.jpg,0.0,clockno_default.jpg,4.0,52,,,,,,,,,,,,,,,,,,,,,,,,,,,,,,,,
0.0,1.0,0.806655,0.0,22.0,22.0,22.0,1.0,penlight_12s.jpg,0.0,clockno_default.jpg,4.0,52,,,,,,,,,,,,,,,,,,,,,,,,,,,,,,,,
0.0,1.0,0.72183,0.0,23.0,23.0,23.0,1.0,keyboard_05s.jpg,0.0,clockno_up.jpg,5.0,52,,,,,,,,,,,,,,,,,,,,,,,,,,,,,,,,
1.0,1.0,0.776905,0.0,24.0,24.0,24.0,1.0,keyboard_05s.jpg,1.0,clockno_default.jpg,5.0,52,,,,,,,,,,,,,,,,,,,,,,,,,,,,,,,,
0.0,1.0,0.7065,0.0,25.0,25.0,25.0,1.0,sparkler_02s.jpg,0.0,clockno_default.jpg,5.0,52,,,,,,,,,,,,,,,,,,,,,,,,,,,,,,,,
0.0,1.0,0.7742,0.0,26.0,26.0,26.0,1.0,pinwheel_06s.jpg,0.0,clockno_default.jpg,5.0,52,,,,,,,,,,,,,,,,,,,,,,,,,,,,,,,,
0.0,1.0,0.69346,0.0,27.0,27.0,27.0,1.0,frog_09s.jpg,0.0,clockno_default.jpg,5.0,52,,,,,,,,,,,,,,,,,,,,,,,,,,,,,,,,
1.0,0.0,1.14765,0.0,28.0,28.0,28.0,1.0,pepper_mill_03s.jpg,0.0,clockno_default.jpg,5.0,52,,,,,,,,,,,,,,,,,,,,,,,,,,,,,,,,
0.0,1.0,0.998505,0.0,29.0,29.0,29.0,1.0,gargoyle_08s.jpg,0.0,clockno_default.jpg,5.0,52,,,,,,,,,,,,,,,,,,,,,,,,,,,,,,,,
0.0,1.0,0.86885,0.0,30.0,30.0,30.0,1.0,rosary_03s.jpg,0.0,clockno_up.jpg,6.0,52,,,,,,,,,,,,,,,,,,,,,,,,,,,,,,,,
1.0,1.0,0.986875,0.0,31.0,31.0,31.0,1.0,rosary_03s.jpg,1.0,clockno_default.jpg,6.0,52,,,,,,,,,,,,,,,,,,,,,,,,,,,,,,,,
0.0,1.0,0.65071,0.0,32.0,32.0,32.0,1.0,chocolate_01b.jpg,0.0,clockno_default.jpg,6.0,52,,,,,,,,,,,,,,,,,,,,,,,,,,,,,,,,
1.0,1.0,0.77012,0.0,33.0,33.0,33.0,1.0,chocolate_01b.jpg,1.0,clockno_default.jpg,6.0,52,,,,,,,,,,,,,,,,,,,,,,,,,,,,,,,,
0.0,1.0,0.710365,0.0,34.0,34.0,34.0,1.0,raft_09s.jpg,0.0,clockno_default.jpg,6.0,52,,,,,,,,,,,,,,,,,,,,,,,,,,,,,,,,
0.0,1.0,0.811645,0.0,35.0,35.0,35.0,1.0,ravioli_08s.jpg,0.0,clockno_default.jpg,6.0,52,,,,,,,,,,,,,,,,,,,,,,,,,,,,,,,,
,,,,,,,,,0.0,,,52,0.0,1.0,4.81092,0.0,0.0,0.0,0.0,1.0,teapot_03s.jpg,tennis_ball_06s.jpg,,,,,,,,,,,,,,,,,,,,,,
,,,,,,,,,1.0,,,52,1.0,1.0,5.68487,0.0,1.0,1.0,1.0,1.0,mitten_10s.jpg,icemaker_10s.jpg,,,,,,,,,,,,,,,,,,,,,,
,,,,,,,,,0.0,,,52,1.0,0.0,4.40072,0.0,2.0,2.0,2.0,1.0,sparkler_02s.jpg,penlight_12s.jpg,,,,,,,,,,,,,,,,,,,,,,
,,,,,,,,,1.0,,,52,1.0,1.0,7.19902,0.0,3.0,3.0,3.0,1.0,pinwheel_06s.jpg,gargoyle_08s.jpg,,,,,,,,,,,,,,,,,,,,,,
,,,,,,,,,1.0,,,52,1.0,1.0,3.44922,0.0,4.0,4.0,4.0,1.0,fire_pit_10s.jpg,tomato_sauce_09s.jpg,,,,,,,,,,,,,,,,,,,,,,
,,,,,,,,,1.0,,,52,1.0,1.0,11.590295,0.0,5.0,5.0,5.0,1.0,pencil_sharpener_09n.jpg,tortilla_06s.jpg,,,,,,,,,,,,,,,,,,,,,,
,,,,,,,,,,,,52,,,,,,,,,,,0.0,0.0,0.0,0.0,1.0,clockno_present_1_14.xlsx,clockno_compare_task_1_14.xlsx,,,,,,,,,,,,,,,
0.0,1.0,0.959755,0.0,0.0,0.0,0.0,1.0,mousetrap_15n.jpg,0.0,clockno_up.jpg,1.0,52,,,,,,,,,,,,,,,,,,,,,,,,,,,,,,,,
0.0,1.0,1.08569,0.0,1.0,1.0,1.0,1.0,bee_20s.jpg,0.0,clockno_default.jpg,1.0,52,,,,,,,,,,,,,,,,,,,,,,,,,,,,,,,,
1.0,1.0,0.80662,0.0,2.0,2.0,2.0,1.0,bee_20s.jpg,1.0,clockno_default.jpg,1.0,52,,,,,,,,,,,,,,,,,,,,,,,,,,,,,,,,
1.0,1.0,0.93785,0.0,3.0,3.0,3.0,1.0,mousetrap_15n.jpg,1.0,clockno_default.jpg,1.0,52,,,,,,,,,,,,,,,,,,,,,,,,,,,,,,,,
1.0,1.0,0.86128,0.0,4.0,4.0,4.0,1.0,mousetrap_15n.jpg,1.0,clockno_default.jpg,1.0,52,,,,,,,,,,,,,,,,,,,,,,,,,,,,,,,,
0.0,1.0,0.80904,0.0,5.0,5.0,5.0,1.0,birdcage_08s.jpg,0.0,clockno_up.jpg,2.0,52,,,,,,,,,,,,,,,,,,,,,,,,,,,,,,,,
0.0,1.0,1.841325,0.0,6.0,6.0,6.0,1.0,recliner_02s.jpg,0.0,clockno_default.jpg,2.0,52,,,,,,,,,,,,,,,,,,,,,,,,,,,,,,,,
0.0,1.0,1.39451,0.0,7.0,7.0,7.0,1.0,plunger_08s.jpg,0.0,clockno_default.jpg,2.0,52,,,,,,,,,,,,,,,,,,,,,,,,,,,,,,,,
0.0,1.0,0.89378,0.0,8.0,8.0,8.0,1.0,marker_05s.jpg,0.0,clockno_default.jpg,2.0,52,,,,,,,,,,,,,,,,,,,,,,,,,,,,,,,,
0.0,1.0,0.985585,0.0,9.0,9.0,9.0,1.0,rocking_horse_03s.jpg,0.0,clockno_default.jpg,2.0,52,,,,,,,,,,,,,,,,,,,,,,,,,,,,,,,,
0.0,1.0,0.964525,0.0,10.0,10.0,10.0,1.0,tape_06s.jpg,0.0,clockno_default.jpg,2.0,52,,,,,,,,,,,,,,,,,,,,,,,,,,,,,,,,
0.0,1.0,0.937935,0.0,11.0,11.0,11.0,1.0,plaster_cast_13s.jpg,0.0,clockno_default.jpg,2.0,52,,,,,,,,,,,,,,,,,,,,,,,,,,,,,,,,
0.0,1.0,0.813495,0.0,12.0,12.0,12.0,1.0,diving_board_07s.jpg,0.0,clockno_up.jpg,3.0,52,,,,,,,,,,,,,,,,,,,,,,,,,,,,,,,,
0.0,1.0,1.04799,0.0,13.0,13.0,13.0,1.0,ring_03s.jpg,0.0,clockno_default.jpg,3.0,52,,,,,,,,,,,,,,,,,,,,,,,,,,,,,,,,
0.0,1.0,0.6363,0.0,14.0,14.0,14.0,1.0,lollipop_08s.jpg,0.0,clockno_default.jpg,3.0,52,,,,,,,,,,,,,,,,,,,,,,,,,,,,,,,,
1.0,1.0,0.902875,0.0,15.0,15.0,15.0,1.0,diving_board_07s.jpg,1.0,clockno_default.jpg,3.0,52,,,,,,,,,,,,,,,,,,,,,,,,,,,,,,,,
0.0,1.0,1.05452,0.0,16.0,16.0,16.0,1.0,marker_05s.jpg,0.0,clockno_default.jpg,3.0,52,,,,,,,,,,,,,,,,,,,,,,,,,,,,,,,,
0.0,1.0,0.79324,0.0,17.0,17.0,17.0,1.0,rooster_03s.jpg,0.0,clockno_default.jpg,3.0,52,,,,,,,,,,,,,,,,,,,,,,,,,,,,,,,,
0.0,1.0,0.691,0.0,18.0,18.0,18.0,1.0,bolo_tie_08s.jpg,0.0,clockno_up.jpg,4.0,52,,,,,,,,,,,,,,,,,,,,,,,,,,,,,,,,
1.0,1.0,0.681565,0.0,19.0,19.0,19.0,1.0,bolo_tie_08s.jpg,1.0,clockno_default.jpg,4.0,52,,,,,,,,,,,,,,,,,,,,,,,,,,,,,,,,
1.0,1.0,0.66773,0.0,20.0,20.0,20.0,1.0,bolo_tie_08s.jpg,1.0,clockno_default.jpg,4.0,52,,,,,,,,,,,,,,,,,,,,,,,,,,,,,,,,
0.0,1.0,0.587705,0.0,21.0,21.0,21.0,1.0,lion_18s.jpg,0.0,clockno_default.jpg,4.0,52,,,,,,,,,,,,,,,,,,,,,,,,,,,,,,,,
0.0,1.0,0.620925,0.0,22.0,22.0,22.0,1.0,ladle_04s.jpg,0.0,clockno_default.jpg,4.0,52,,,,,,,,,,,,,,,,,,,,,,,,,,,,,,,,
0.0,1.0,0.83274,0.0,23.0,23.0,23.0,1.0,bank_06s.jpg,0.0,clockno_default.jpg,4.0,52,,,,,,,,,,,,,,,,,,,,,,,,,,,,,,,,
0.0,1.0,0.666385,0.0,24.0,24.0,24.0,1.0,turtleneck_11s.jpg,0.0,clockno_default.jpg,4.0,52,,,,,,,,,,,,,,,,,,,,,,,,,,,,,,,,
0.0,1.0,0.710025,0.0,25.0,25.0,25.0,1.0,funnel_01b.jpg,0.0,clockno_up.jpg,5.0,52,,,,,,,,,,,,,,,,,,,,,,,,,,,,,,,,
0.0,1.0,0.677205,0.0,26.0,26.0,26.0,1.0,antenna_01b.jpg,0.0,clockno_default.jpg,5.0,52,,,,,,,,,,,,,,,,,,,,,,,,,,,,,,,,
0.0,1.0,0.69801,0.0,27.0,27.0,27.0,1.0,juicer2_06s.jpg,0.0,clockno_default.jpg,5.0,52,,,,,,,,,,,,,,,,,,,,,,,,,,,,,,,,
1.0,1.0,0.87106,0.0,28.0,28.0,28.0,1.0,funnel_01b.jpg,1.0,clockno_default.jpg,5.0,52,,,,,,,,,,,,,,,,,,,,,,,,,,,,,,,,
0.0,1.0,0.819445,0.0,29.0,29.0,29.0,1.0,sunflower_17s.jpg,0.0,clockno_default.jpg,5.0,52,,,,,,,,,,,,,,,,,,,,,,,,,,,,,,,,
0.0,1.0,0.941755,0.0,30.0,30.0,30.0,1.0,crayon_09s.jpg,0.0,clockno_default.jpg,5.0,52,,,,,,,,,,,,,,,,,,,,,,,,,,,,,,,,
0.0,1.0,0.75722,0.0,31.0,31.0,31.0,1.0,gas_mask_11s.jpg,0.0,clockno_up.jpg,6.0,52,,,,,,,,,,,,,,,,,,,,,,,,,,,,,,,,
0.0,1.0,0.845195,0.0,32.0,32.0,32.0,1.0,inhaler_01b.jpg,0.0,clockno_default.jpg,6.0,52,,,,,,,,,,,,,,,,,,,,,,,,,,,,,,,,
1.0,1.0,0.809575,0.0,33.0,33.0,33.0,1.0,gas_mask_11s.jpg,1.0,clockno_default.jpg,6.0,52,,,,,,,,,,,,,,,,,,,,,,,,,,,,,,,,
0.0,1.0,0.747975,0.0,34.0,34.0,34.0,1.0,sunglasses_11s.jpg,0.0,clockno_default.jpg,6.0,52,,,,,,,,,,,,,,,,,,,,,,,,,,,,,,,,
0.0,1.0,1.6269,0.0,35.0,35.0,35.0,1.0,rooster_03s.jpg,0.0,clockno_default.jpg,6.0,52,,,,,,,,,,,,,,,,,,,,,,,,,,,,,,,,
,,,,,,,,,1.0,,,52,1.0,1.0,12.39323,0.0,0.0,0.0,0.0,1.0,plaster_cast_13s.jpg,lollipop_08s.jpg,,,,,,,,,,,,,,,,,,,,,,
,,,,,,,,,1.0,,,52,0.0,0.0,15.720745,0.0,1.0,1.0,1.0,1.0,tape_06s.jpg,ring_03s.jpg,,,,,,,,,,,,,,,,,,,,,,
,,,,,,,,,1.0,,,52,0.0,0.0,4.440405,0.0,2.0,2.0,2.0,1.0,bank_06s.jpg,antenna_01b.jpg,,,,,,,,,,,,,,,,,,,,,,
,,,,,,,,,1.0,,,52,1.0,1.0,6.49867,0.0,3.0,3.0,3.0,1.0,recliner_02s.jpg,rocking_horse_03s.jpg,,,,,,,,,,,,,,,,,,,,,,
,,,,,,,,,0.0,,,52,0.0,1.0,3.603435,0.0,4.0,4.0,4.0,1.0,turtleneck_11s.jpg,lion_18s.jpg,,,,,,,,,,,,,,,,,,,,,,
,,,,,,,,,1.0,,,52,0.0,0.0,7.03134,0.0,5.0,5.0,5.0,1.0,juicer2_06s.jpg,crayon_09s.jpg,,,,,,,,,,,,,,,,,,,,,,
,,,,,,,,,,,,52,,,,,,,,,,,0.0,1.0,1.0,1.0,1.0,clockno_present_2_14.xlsx,clockno_compare_task_2_14.xlsx,,,,,,,,,,,,,,,
,0.0,,0.0,0.0,0.0,0.0,1.0,phone_01b.jpg,0.0,clockno_up.jpg,1.0,52,,,,,,,,,,,,,,,,,,,,,,,,,,,,,,,,
1.0,1.0,0.84967,0.0,1.0,1.0,1.0,1.0,phone_01b.jpg,1.0,clockno_default.jpg,1.0,52,,,,,,,,,,,,,,,,,,,,,,,,,,,,,,,,
0.0,1.0,1.180495,0.0,2.0,2.0,2.0,1.0,pan_02s.jpg,0.0,clockno_default.jpg,1.0,52,,,,,,,,,,,,,,,,,,,,,,,,,,,,,,,,
0.0,1.0,0.90464,0.0,3.0,3.0,3.0,1.0,turnstile_08s.jpg,0.0,clockno_default.jpg,1.0,52,,,,,,,,,,,,,,,,,,,,,,,,,,,,,,,,
0.0,1.0,0.746985,0.0,4.0,4.0,4.0,1.0,rolling_pin_02s.jpg,0.0,clockno_default.jpg,1.0,52,,,,,,,,,,,,,,,,,,,,,,,,,,,,,,,,
0.0,1.0,0.789635,0.0,5.0,5.0,5.0,1.0,rocket_02s.jpg,0.0,clockno_default.jpg,1.0,52,,,,,,,,,,,,,,,,,,,,,,,,,,,,,,,,
0.0,1.0,0.896475,0.0,6.0,6.0,6.0,1.0,cape_11s.jpg,0.0,clockno_default.jpg,1.0,52,,,,,,,,,,,,,,,,,,,,,,,,,,,,,,,,
0.0,1.0,1.118655,0.0,7.0,7.0,7.0,1.0,tube_top_03s.jpg,0.0,clockno_up.jpg,2.0,52,,,,,,,,,,,,,,,,,,,,,,,,,,,,,,,,
0.0,1.0,1.349845,0.0,8.0,8.0,8.0,1.0,gingerbread_man_03s.jpg,0.0,clockno_default.jpg,2.0,52,,,,,,,,,,,,,,,,,,,,,,,,,,,,,,,,
0.0,1.0,0.63796,0.0,9.0,9.0,9.0,1.0,bottle_opener_11s.jpg,0.0,clockno_default.jpg,2.0,52,,,,,,,,,,,,,,,,,,,,,,,,,,,,,,,,
0.0,1.0,0.613485,0.0,10.0,10.0,10.0,1.0,light_switch_02s.jpg,0.0,clockno_default.jpg,2.0,52,,,,,,,,,,,,,,,,,,,,,,,,,,,,,,,,
1.0,1.0,1.036325,0.0,11.0,11.0,11.0,1.0,gingerbread_man_03s.jpg,1.0,clockno_default.jpg,2.0,52,,,,,,,,,,,,,,,,,,,,,,,,,,,,,,,,
0.0,1.0,1.280365,0.0,12.0,12.0,12.0,1.0,turf_03s.jpg,0.0,clockno_up.jpg,3.0,52,,,,,,,,,,,,,,,,,,,,,,,,,,,,,,,,
0.0,1.0,0.58881,0.0,13.0,13.0,13.0,1.0,poinsettia_04s.jpg,0.0,clockno_default.jpg,3.0,52,,,,,,,,,,,,,,,,,,,,,,,,,,,,,,,,
1.0,1.0,0.759525,0.0,14.0,14.0,14.0,1.0,turf_03s.jpg,1.0,clockno_default.jpg,3.0,52,,,,,,,,,,,,,,,,,,,,,,,,,,,,,,,,
0.0,1.0,0.62702,0.0,15.0,15.0,15.0,1.0,quilt_03s.jpg,0.0,clockno_default.jpg,3.0,52,,,,,,,,,,,,,,,,,,,,,,,,,,,,,,,,
0.0,1.0,2.156565,0.0,16.0,16.0,16.0,1.0,tube_top_03s.jpg,0.0,clockno_default.jpg,3.0,52,,,,,,,,,,,,,,,,,,,,,,,,,,,,,,,,
0.0,1.0,1.61399,0.0,17.0,17.0,17.0,1.0,compass_10n.jpg,0.0,clockno_default.jpg,3.0,52,,,,,,,,,,,,,,,,,,,,,,,,,,,,,,,,
0.0,1.0,0.855215,0.0,18.0,18.0,18.0,1.0,fur_coat_11s.jpg,0.0,clockno_default.jpg,3.0,52,,,,,,,,,,,,,,,,,,,,,,,,,,,,,,,,
0.0,1.0,1.253385,0.0,19.0,19.0,19.0,1.0,squirt_gun_03s.jpg,0.0,clockno_up.jpg,4.0,52,,,,,,,,,,,,,,,,,,,,,,,,,,,,,,,,
1.0,1.0,0.638975,0.0,20.0,20.0,20.0,1.0,squirt_gun_03s.jpg,1.0,clockno_default.jpg,4.0,52,,,,,,,,,,,,,,,,,,,,,,,,,,,,,,,,
0.0,1.0,0.6923,0.0,21.0,21.0,21.0,1.0,candy_cane_06s.jpg,0.0,clockno_default.jpg,4.0,52,,,,,,,,,,,,,,,,,,,,,,,,,,,,,,,,
0.0,1.0,0.66644,0.0,22.0,22.0,22.0,1.0,boar_10s.jpg,0.0,clockno_default.jpg,4.0,52,,,,,,,,,,,,,,,,,,,,,,,,,,,,,,,,
0.0,1.0,1.00797,0.0,23.0,23.0,23.0,1.0,poinsettia_04s.jpg,0.0,clockno_default.jpg,4.0,52,,,,,,,,,,,,,,,,,,,,,,,,,,,,,,,,
0.0,1.0,0.71947,0.0,24.0,24.0,24.0,1.0,possum_09s.jpg,0.0,clockno_default.jpg,4.0,52,,,,,,,,,,,,,,,,,,,,,,,,,,,,,,,,
0.0,1.0,0.96511,0.0,25.0,25.0,25.0,1.0,cobra_05s.jpg,0.0,clockno_up.jpg,5.0,52,,,,,,,,,,,,,,,,,,,,,,,,,,,,,,,,
0.0,1.0,0.888455,0.0,26.0,26.0,26.0,1.0,chopsticks_08s.jpg,0.0,clockno_default.jpg,5.0,52,,,,,,,,,,,,,,,,,,,,,,,,,,,,,,,,
0.0,1.0,1.18096,0.0,27.0,27.0,27.0,1.0,fossil_06s.jpg,0.0,clockno_default.jpg,5.0,52,,,,,,,,,,,,,,,,,,,,,,,,,,,,,,,,
1.0,1.0,0.73782,0.0,28.0,28.0,28.0,1.0,fossil_06s.jpg,1.0,clockno_default.jpg,5.0,52,,,,,,,,,,,,,,,,,,,,,,,,,,,,,,,,
0.0,1.0,0.714145,0.0,29.0,29.0,29.0,1.0,padlock_07s.jpg,0.0,clockno_default.jpg,5.0,52,,,,,,,,,,,,,,,,,,,,,,,,,,,,,,,,
0.0,1.0,0.638355,0.0,30.0,30.0,30.0,1.0,soda_fountain_03s.jpg,0.0,clockno_up.jpg,6.0,52,,,,,,,,,,,,,,,,,,,,,,,,,,,,,,,,
0.0,1.0,0.6482,0.0,31.0,31.0,31.0,1.0,pipe1_10s.jpg,0.0,clockno_default.jpg,6.0,52,,,,,,,,,,,,,,,,,,,,,,,,,,,,,,,,
0.0,1.0,0.721085,0.0,32.0,32.0,32.0,1.0,loom_05s.jpg,0.0,clockno_default.jpg,6.0,52,,,,,,,,,,,,,,,,,,,,,,,,,,,,,,,,
0.0,1.0,0.6476,0.0,33.0,33.0,33.0,1.0,jersey_02s.jpg,0.0,clockno_default.jpg,6.0,52,,,,,,,,,,,,,,,,,,,,,,,,,,,,,,,,
0.0,1.0,0.714365,0.0,34.0,34.0,34.0,1.0,mop_08s.jpg,0.0,clockno_default.jpg,6.0,52,,,,,,,,,,,,,,,,,,,,,,,,,,,,,,,,
0.0,1.0,0.6803,0.0,35.0,35.0,35.0,1.0,puppet_01b.jpg,0.0,clockno_default.jpg,6.0,52,,,,,,,,,,,,,,,,,,,,,,,,,,,,,,,,
,,,,,,,,,1.0,,,52,1.0,1.0,1.81524,0.0,0.0,0.0,0.0,1.0,boar_10s.jpg,cobra_05s.jpg,,,,,,,,,,,,,,,,,,,,,,
,,,,,,,,,0.0,,,52,1.0,0.0,5.67709,0.0,1.0,1.0,1.0,1.0,bottle_opener_11s.jpg,cape_11s.jpg,,,,,,,,,,,,,,,,,,,,,,
,,,,,,,,,0.0,,,52,1.0,0.0,1.477935,0.0,2.0,2.0,2.0,1.0,candy_cane_06s.jpg,fur_coat_11s.jpg,,,,,,,,,,,,,,,,,,,,,,
,,,,,,,,,0.0,,,52,0.0,1.0,3.23936,0.0,3.0,3.0,3.0,1.0,rocket_02s.jpg,pan_02s.jpg,,,,,,,,,,,,,,,,,,,,,,
,,,,,,,,,1.0,,,52,1.0,1.0,3.41984,0.0,4.0,4.0,4.0,1.0,soda_fountain_03s.jpg,jersey_02s.jpg,,,,,,,,,,,,,,,,,,,,,,
,,,,,,,,,0.0,,,52,0.0,1.0,2.642785,0.0,5.0,5.0,5.0,1.0,mop_08s.jpg,pipe1_10s.jpg,,,,,,,,,,,,,,,,,,,,,,
,,,,,,,,,,,,52,,,,,,,,,,,0.0,2.0,2.0,2.0,1.0,clockno_present_3_14.xlsx,clockno_compare_task_3_14.xlsx,,,,,,,,,,,,,,,
0.0,1.0,0.9179,0.0,0.0,0.0,0.0,1.0,beard_16s.jpg,0.0,clockno_up.jpg,1.0,52,,,,,,,,,,,,,,,,,,,,,,,,,,,,,,,,
1.0,1.0,0.942435,0.0,1.0,1.0,1.0,1.0,beard_16s.jpg,1.0,clockno_default.jpg,1.0,52,,,,,,,,,,,,,,,,,,,,,,,,,,,,,,,,
0.0,1.0,0.73129,0.0,2.0,2.0,2.0,1.0,printer_09s.jpg,0.0,clockno_default.jpg,1.0,52,,,,,,,,,,,,,,,,,,,,,,,,,,,,,,,,
0.0,1.0,0.684,0.0,3.0,3.0,3.0,1.0,juicer1_08s.jpg,0.0,clockno_default.jpg,1.0,52,,,,,,,,,,,,,,,,,,,,,,,,,,,,,,,,
0.0,1.0,0.670865,0.0,4.0,4.0,4.0,1.0,cotton_candy_01b.jpg,0.0,clockno_default.jpg,1.0,52,,,,,,,,,,,,,,,,,,,,,,,,,,,,,,,,
0.0,1.0,0.6572,0.0,5.0,5.0,5.0,1.0,tape_measure_11s.jpg,0.0,clockno_up.jpg,2.0,52,,,,,,,,,,,,,,,,,,,,,,,,,,,,,,,,
0.0,1.0,0.993675,0.0,6.0,6.0,6.0,1.0,beard_16s.jpg,0.0,clockno_default.jpg,2.0,52,,,,,,,,,,,,,,,,,,,,,,,,,,,,,,,,
0.0,1.0,0.68154,0.0,7.0,7.0,7.0,1.0,trampoline_13s.jpg,0.0,clockno_default.jpg,2.0,52,,,,,,,,,,,,,,,,,,,,,,,,,,,,,,,,
1.0,1.0,0.92142,0.0,8.0,8.0,8.0,1.0,trampoline_13s.jpg,1.0,clockno_default.jpg,2.0,52,,,,,,,,,,,,,,,,,,,,,,,,,,,,,,,,
1.0,1.0,0.778875,0.0,9.0,9.0,9.0,1.0,trampoline_13s.jpg,1.0,clockno_default.jpg,2.0,52,,,,,,,,,,,,,,,,,,,,,,,,,,,,,,,,
0.0,1.0,0.685755,0.0,10.0,10.0,10.0,1.0,kangaroo_02s.jpg,0.0,clockno_default.jpg,2.0,52,,,,,,,,,,,,,,,,,,,,,,,,,,,,,,,,
0.0,1.0,0.731035,0.0,11.0,11.0,11.0,1.0,mirror_12s.jpg,0.0,clockno_default.jpg,2.0,52,,,,,,,,,,,,,,,,,,,,,,,,,,,,,,,,
0.0,1.0,1.023915,0.0,12.0,12.0,12.0,1.0,powder_07s.jpg,0.0,clockno_up.jpg,3.0,52,,,,,,,,,,,,,,,,,,,,,,,,,,,,,,,,
0.0,1.0,0.783475,0.0,13.0,13.0,13.0,1.0,rollerskate_03s.jpg,0.0,clockno_default.jpg,3.0,52,,,,,,,,,,,,,,,,,,,,,,,,,,,,,,,,
0.0,1.0,1.00367,0.0,14.0,14.0,14.0,1.0,gear_07s.jpg,0.0,clockno_default.jpg,3.0,52,,,,,,,,,,,,,,,,,,,,,,,,,,,,,,,,
0.0,1.0,0.73179,0.0,15.0,15.0,15.0,1.0,playpen_11s.jpg,0.0,clockno_default.jpg,3.0,52,,,,,,,,,,,,,,,,,,,,,,,,,,,,,,,,
1.0,1.0,0.756925,0.0,16.0,16.0,16.0,1.0,playpen_11s.jpg,1.0,clockno_default.jpg,3.0,52,,,,,,,,,,,,,,,,,,,,,,,,,,,,,,,,
0.0,1.0,0.730795,0.0,17.0,17.0,17.0,1.0,keyhole_03s.jpg,0.0,clockno_up.jpg,4.0,52,,,,,,,,,,,,,,,,,,,,,,,,,,,,,,,,
0.0,1.0,0.79248,0.0,18.0,18.0,18.0,1.0,spoon02a.jpg,0.0,clockno_default.jpg,4.0,52,,,,,,,,,,,,,,,,,,,,,,,,,,,,,,,,
0.0,1.0,0.86756,0.0,19.0,19.0,19.0,1.0,mud_13s.jpg,0.0,clockno_default.jpg,4.0,52,,,,,,,,,,,,,,,,,,,,,,,,,,,,,,,,
0.0,1.0,0.881915,0.0,20.0,20.0,20.0,1.0,pea_11s.jpg,0.0,clockno_default.jpg,4.0,52,,,,,,,,,,,,,,,,,,,,,,,,,,,,,,,,
1.0,1.0,1.95154,0.0,21.0,21.0,21.0,1.0,spoon02a.jpg,1.0,clockno_default.jpg,4.0,52,,,,,,,,,,,,,,,,,,,,,,,,,,,,,,,,
0.0,1.0,0.93121,0.0,22.0,22.0,22.0,1.0,turtle_08s.jpg,0.0,clockno_default.jpg,4.0,52,,,,,,,,,,,,,,,,,,,,,,,,,,,,,,,,
0.0,1.0,0.815845,0.0,23.0,23.0,23.0,1.0,tattoo_14s.jpg,0.0,clockno_up.jpg,5.0,52,,,,,,,,,,,,,,,,,,,,,,,,,,,,,,,,
0.0,1.0,1.073725,0.0,24.0,24.0,24.0,1.0,mirror_12s.jpg,0.0,clockno_default.jpg,5.0,52,,,,,,,,,,,,,,,,,,,,,,,,,,,,,,,,
0.0,1.0,0.71774,0.0,25.0,25.0,25.0,1.0,tie_03s.jpg,0.0,clockno_default.jpg,5.0,52,,,,,,,,,,,,,,,,,,,,,,,,,,,,,,,,
0.0,1.0,0.960315,0.0,26.0,26.0,26.0,1.0,printer_09s.jpg,0.0,clockno_default.jpg,5.0,52,,,,,,,,,,,,,,,,,,,,,,,,,,,,,,,,
0.0,1.0,1.026835,0.0,27.0,27.0,27.0,1.0,roller_coaster_07s.jpg,0.0,clockno_default.jpg,5.0,52,,,,,,,,,,,,,,,,,,,,,,,,,,,,,,,,
1.0,1.0,1.08142,0.0,28.0,28.0,28.0,1.0,tattoo_14s.jpg,1.0,clockno_default.jpg,5.0,52,,,,,,,,,,,,,,,,,,,,,,,,,,,,,,,,
0.0,1.0,0.94261,0.0,29.0,29.0,29.0,1.0,toy_04s.jpg,0.0,clockno_default.jpg,5.0,52,,,,,,,,,,,,,,,,,,,,,,,,,,,,,,,,
0.0,1.0,1.60662,0.0,30.0,30.0,30.0,1.0,projector_08s.jpg,0.0,clockno_up.jpg,6.0,52,,,,,,,,,,,,,,,,,,,,,,,,,,,,,,,,
0.0,1.0,0.769975,0.0,31.0,31.0,31.0,1.0,ink_08s.jpg,0.0,clockno_default.jpg,6.0,52,,,,,,,,,,,,,,,,,,,,,,,,,,,,,,,,
0.0,1.0,0.692825,0.0,32.0,32.0,32.0,1.0,teabag_12s.jpg,0.0,clockno_default.jpg,6.0,52,,,,,,,,,,,,,,,,,,,,,,,,,,,,,,,,
0.0,1.0,0.745225,0.0,33.0,33.0,33.0,1.0,tongs_08s.jpg,0.0,clockno_default.jpg,6.0,52,,,,,,,,,,,,,,,,,,,,,,,,,,,,,,,,
0.0,1.0,0.902715,0.0,34.0,34.0,34.0,1.0,power_line_08s.jpg,0.0,clockno_default.jpg,6.0,52,,,,,,,,,,,,,,,,,,,,,,,,,,,,,,,,
0.0,1.0,0.90015,0.0,35.0,35.0,35.0,1.0,margarita_03s.jpg,0.0,clockno_default.jpg,6.0,52,,,,,,,,,,,,,,,,,,,,,,,,,,,,,,,,
,,,,,,,,,0.0,,,52,0.0,1.0,9.149345,0.0,0.0,0.0,0.0,1.0,rollerskate_03s.jpg,kangaroo_02s.jpg,,,,,,,,,,,,,,,,,,,,,,
,,,,,,,,,0.0,,,52,0.0,1.0,8.23636,0.0,1.0,1.0,1.0,1.0,keyhole_03s.jpg,gear_07s.jpg,,,,,,,,,,,,,,,,,,,,,,
,,,,,,,,,0.0,,,52,1.0,0.0,16.070735,0.0,2.0,2.0,2.0,1.0,tie_03s.jpg,turtle_08s.jpg,,,,,,,,,,,,,,,,,,,,,,
,,,,,,,,,1.0,,,52,0.0,0.0,4.366075,0.0,3.0,3.0,3.0,1.0,ink_08s.jpg,power_line_08s.jpg,,,,,,,,,,,,,,,,,,,,,,
,,,,,,,,,0.0,,,52,0.0,1.0,4.03981,0.0,4.0,4.0,4.0,1.0,tongs_08s.jpg,projector_08s.jpg,,,,,,,,,,,,,,,,,,,,,,
,,,,,,,,,1.0,,,52,0.0,0.0,7.31517,0.0,5.0,5.0,5.0,1.0,teabag_12s.jpg,margarita_03s.jpg,,,,,,,,,,,,,,,,,,,,,,
,,,,,,,,,,,,52,,,,,,,,,,,0.0,3.0,3.0,3.0,1.0,clockno_present_4_14.xlsx,clockno_compare_task_4_14.xlsx,,,,,,,,,,,,,,,
0.0,1.0,0.946725,0.0,0.0,0.0,0.0,1.0,camcorder_10s.jpg,0.0,clockno_up.jpg,1.0,52,,,,,,,,,,,,,,,,,,,,,,,,,,,,,,,,
0.0,1.0,0.571875,0.0,1.0,1.0,1.0,1.0,mixer_12s.jpg,0.0,clockno_default.jpg,1.0,52,,,,,,,,,,,,,,,,,,,,,,,,,,,,,,,,
0.0,1.0,0.96856,0.0,2.0,2.0,2.0,1.0,comic_book_02s.jpg,0.0,clockno_default.jpg,1.0,52,,,,,,,,,,,,,,,,,,,,,,,,,,,,,,,,
0.0,1.0,0.77282,0.0,3.0,3.0,3.0,1.0,treasure_08s.jpg,0.0,clockno_default.jpg,1.0,52,,,,,,,,,,,,,,,,,,,,,,,,,,,,,,,,
1.0,1.0,0.797475,0.0,4.0,4.0,4.0,1.0,treasure_08s.jpg,1.0,clockno_default.jpg,1.0,52,,,,,,,,,,,,,,,,,,,,,,,,,,,,,,,,
0.0,1.0,0.757785,0.0,5.0,5.0,5.0,1.0,metronome_03s.jpg,0.0,clockno_default.jpg,1.0,52,,,,,,,,,,,,,,,,,,,,,,,,,,,,,,,,
1.0,1.0,1.294455,0.0,6.0,6.0,6.0,1.0,treasure_08s.jpg,1.0,clockno_default.jpg,1.0,52,,,,,,,,,,,,,,,,,,,,,,,,,,,,,,,,
0.0,1.0,0.58988,0.0,7.0,7.0,7.0,1.0,golf_club_03s.jpg,0.0,clockno_up.jpg,2.0,52,,,,,,,,,,,,,,,,,,,,,,,,,,,,,,,,
0.0,1.0,0.805985,0.0,8.0,8.0,8.0,1.0,ruby_15s.jpg,0.0,clockno_default.jpg,2.0,52,,,,,,,,,,,,,,,,,,,,,,,,,,,,,,,,
0.0,1.0,0.68,0.0,9.0,9.0,9.0,1.0,purse_05s.jpg,0.0,clockno_default.jpg,2.0,52,,,,,,,,,,,,,,,,,,,,,,,,,,,,,,,,
0.0,1.0,0.646775,0.0,10.0,10.0,10.0,1.0,top_hat_11s.jpg,0.0,clockno_default.jpg,2.0,52,,,,,,,,,,,,,,,,,,,,,,,,,,,,,,,,
0.0,1.0,0.780795,0.0,11.0,11.0,11.0,1.0,peach_04s.jpg,0.0,clockno_default.jpg,2.0,52,,,,,,,,,,,,,,,,,,,,,,,,,,,,,,,,
0.0,1.0,0.76411,0.0,12.0,12.0,12.0,1.0,coffee_filter_10s.jpg,0.0,clockno_up.jpg,3.0,52,,,,,,,,,,,,,,,,,,,,,,,,,,,,,,,,
0.0,1.0,0.81866,0.0,13.0,13.0,13.0,1.0,tiger_06s.jpg,0.0,clockno_default.jpg,3.0,52,,,,,,,,,,,,,,,,,,,,,,,,,,,,,,,,
0.0,1.0,0.754235,0.0,14.0,14.0,14.0,1.0,feather02.jpg,0.0,clockno_default.jpg,3.0,52,,,,,,,,,,,,,,,,,,,,,,,,,,,,,,,,
0.0,1.0,0.70118,0.0,15.0,15.0,15.0,1.0,coral_08s.jpg,0.0,clockno_default.jpg,3.0,52,,,,,,,,,,,,,,,,,,,,,,,,,,,,,,,,
0.0,1.0,0.762975,0.0,16.0,16.0,16.0,1.0,knitting_needle_04s.jpg,0.0,clockno_default.jpg,3.0,52,,,,,,,,,,,,,,,,,,,,,,,,,,,,,,,,
0.0,1.0,0.80175,0.0,17.0,17.0,17.0,1.0,coat_rack_01b.jpg,0.0,clockno_up.jpg,4.0,52,,,,,,,,,,,,,,,,,,,,,,,,,,,,,,,,
0.0,1.0,0.930945,0.0,18.0,18.0,18.0,1.0,coral_08s.jpg,0.0,clockno_default.jpg,4.0,52,,,,,,,,,,,,,,,,,,,,,,,,,,,,,,,,
0.0,1.0,1.34317,0.0,19.0,19.0,19.0,1.0,knitting_needle_04s.jpg,0.0,clockno_default.jpg,4.0,52,,,,,,,,,,,,,,,,,,,,,,,,,,,,,,,,
1.0,1.0,1.018545,0.0,20.0,20.0,20.0,1.0,coat_rack_01b.jpg,1.0,clockno_default.jpg,4.0,52,,,,,,,,,,,,,,,,,,,,,,,,,,,,,,,,
0.0,1.0,0.871105,0.0,21.0,21.0,21.0,1.0,pacifier_09s.jpg,0.0,clockno_default.jpg,4.0,52,,,,,,,,,,,,,,,,,,,,,,,,,,,,,,,,
0.0,1.0,2.298545,0.0,22.0,22.0,22.0,1.0,ruby_15s.jpg,0.0,clockno_default.jpg,4.0,52,,,,,,,,,,,,,,,,,,,,,,,,,,,,,,,,
0.0,1.0,0.90953,0.0,23.0,23.0,23.0,1.0,rocking_chair_05s.jpg,0.0,clockno_up.jpg,5.0,52,,,,,,,,,,,,,,,,,,,,,,,,,,,,,,,,
0.0,1.0,0.827095,0.0,24.0,24.0,24.0,1.0,binder_21s.jpg,0.0,clockno_default.jpg,5.0,52,,,,,,,,,,,,,,,,,,,,,,,,,,,,,,,,
0.0,1.0,1.177395,0.0,25.0,25.0,25.0,1.0,rudder_02s.jpg,0.0,clockno_default.jpg,5.0,52,,,,,,,,,,,,,,,,,,,,,,,,,,,,,,,,
0.0,1.0,0.883525,0.0,26.0,26.0,26.0,1.0,totem_pole_05s.jpg,0.0,clockno_default.jpg,5.0,52,,,,,,,,,,,,,,,,,,,,,,,,,,,,,,,,
1.0,1.0,0.82593,0.0,27.0,27.0,27.0,1.0,totem_pole_05s.jpg,1.0,clockno_default.jpg,5.0,52,,,,,,,,,,,,,,,,,,,,,,,,,,,,,,,,
0.0,1.0,1.150485,0.0,28.0,28.0,28.0,1.0,memory_stick_11s.jpg,0.0,clockno_default.jpg,5.0,52,,,,,,,,,,,,,,,,,,,,,,,,,,,,,,,,
0.0,1.0,0.78067,0.0,29.0,29.0,29.0,1.0,slingshot_07s.jpg,0.0,clockno_up.jpg,6.0,52,,,,,,,,,,,,,,,,,,,,,,,,,,,,,,,,
1.0,1.0,0.617475,0.0,30.0,30.0,30.0,1.0,slingshot_07s.jpg,1.0,clockno_default.jpg,6.0,52,,,,,,,,,,,,,,,,,,,,,,,,,,,,,,,,
0.0,1.0,0.655045,0.0,31.0,31.0,31.0,1.0,duck_01b.jpg,0.0,clockno_default.jpg,6.0,52,,,,,,,,,,,,,,,,,,,,,,,,,,,,,,,,
0.0,1.0,0.64225,0.0,32.0,32.0,32.0,1.0,fox_13s.jpg,0.0,clockno_default.jpg,6.0,52,,,,,,,,,,,,,,,,,,,,,,,,,,,,,,,,
0.0,1.0,0.664125,0.0,33.0,33.0,33.0,1.0,popcorn_09s.jpg,0.0,clockno_default.jpg,6.0,52,,,,,,,,,,,,,,,,,,,,,,,,,,,,,,,,
1.0,1.0,0.83946,0.0,34.0,34.0,34.0,1.0,duck_01b.jpg,1.0,clockno_default.jpg,6.0,52,,,,,,,,,,,,,,,,,,,,,,,,,,,,,,,,
0.0,1.0,0.75068,0.0,35.0,35.0,35.0,1.0,stamp2_08s.jpg,0.0,clockno_default.jpg,6.0,52,,,,,,,,,,,,,,,,,,,,,,,,,,,,,,,,
,,,,,,,,,0.0,,,52,0.0,1.0,4.390115,0.0,0.0,0.0,0.0,1.0,coffee_filter_10s.jpg,purse_05s.jpg,,,,,,,,,,,,,,,,,,,,,,
,,,,,,,,,1.0,,,52,1.0,1.0,8.76291,0.0,1.0,1.0,1.0,1.0,peach_04s.jpg,feather02.jpg,,,,,,,,,,,,,,,,,,,,,,
,,,,,,,,,0.0,,,52,1.0,0.0,10.053685,0.0,2.0,2.0,2.0,1.0,binder_21s.jpg,pacifier_09s.jpg,,,,,,,,,,,,,,,,,,,,,,
,,,,,,,,,1.0,,,52,1.0,1.0,7.181875,0.0,3.0,3.0,3.0,1.0,comic_book_02s.jpg,metronome_03s.jpg,,,,,,,,,,,,,,,,,,,,,,
,,,,,,,,,1.0,,,52,1.0,1.0,1.89955,0.0,4.0,4.0,4.0,1.0,rudder_02s.jpg,memory_stick_11s.jpg,,,,,,,,,,,,,,,,,,,,,,
,,,,,,,,,0.0,,,52,0.0,1.0,6.86654,0.0,5.0,5.0,5.0,1.0,stamp2_08s.jpg,fox_13s.jpg,,,,,,,,,,,,,,,,,,,,,,
,,,,,,,,,,,,52,,,,,,,,,,,0.0,4.0,4.0,4.0,1.0,clockno_present_5_14.xlsx,clockno_compare_task_5_14.xlsx,,,,,,,,,,,,,,,
0.0,1.0,0.734285,0.0,0.0,0.0,0.0,1.0,popsicle_02s.jpg,0.0,clockno_up.jpg,1.0,52,,,,,,,,,,,,,,,,,,,,,,,,,,,,,,,,
0.0,1.0,0.753805,0.0,1.0,1.0,1.0,1.0,emerald_02s.jpg,0.0,clockno_default.jpg,1.0,52,,,,,,,,,,,,,,,,,,,,,,,,,,,,,,,,
1.0,1.0,0.83055,0.0,2.0,2.0,2.0,1.0,popsicle_02s.jpg,1.0,clockno_default.jpg,1.0,52,,,,,,,,,,,,,,,,,,,,,,,,,,,,,,,,
0.0,1.0,0.763935,0.0,3.0,3.0,3.0,1.0,glue_01s.jpg,0.0,clockno_default.jpg,1.0,52,,,,,,,,,,,,,,,,,,,,,,,,,,,,,,,,
1.0,1.0,0.776185,0.0,4.0,4.0,4.0,1.0,popsicle_02s.jpg,1.0,clockno_default.jpg,1.0,52,,,,,,,,,,,,,,,,,,,,,,,,,,,,,,,,
1.0,1.0,1.00843,0.0,5.0,5.0,5.0,1.0,emerald_02s.jpg,1.0,clockno_default.jpg,1.0,52,,,,,,,,,,,,,,,,,,,,,,,,,,,,,,,,
0.0,1.0,0.859985,0.0,6.0,6.0,6.0,1.0,pillbox_04s.jpg,0.0,clockno_up.jpg,2.0,52,,,,,,,,,,,,,,,,,,,,,,,,,,,,,,,,
0.0,1.0,0.829695,0.0,7.0,7.0,7.0,1.0,scooter.jpg,0.0,clockno_default.jpg,2.0,52,,,,,,,,,,,,,,,,,,,,,,,,,,,,,,,,
0.0,1.0,0.737415,0.0,8.0,8.0,8.0,1.0,cardinal_07s.jpg,0.0,clockno_default.jpg,2.0,52,,,,,,,,,,,,,,,,,,,,,,,,,,,,,,,,
1.0,1.0,0.73063,0.0,9.0,9.0,9.0,1.0,cardinal_07s.jpg,1.0,clockno_default.jpg,2.0,52,,,,,,,,,,,,,,,,,,,,,,,,,,,,,,,,
0.0,1.0,0.661315,0.0,10.0,10.0,10.0,1.0,chip_04s.jpg,0.0,clockno_default.jpg,2.0,52,,,,,,,,,,,,,,,,,,,,,,,,,,,,,,,,
0.0,1.0,0.81091,0.0,11.0,11.0,11.0,1.0,owl_15s.jpg,0.0,clockno_up.jpg,3.0,52,,,,,,,,,,,,,,,,,,,,,,,,,,,,,,,,
1.0,1.0,0.64929,0.0,12.0,12.0,12.0,1.0,owl_15s.jpg,1.0,clockno_default.jpg,3.0,52,,,,,,,,,,,,,,,,,,,,,,,,,,,,,,,,
0.0,1.0,0.70163,0.0,13.0,13.0,13.0,1.0,mango_09s.jpg,0.0,clockno_default.jpg,3.0,52,,,,,,,,,,,,,,,,,,,,,,,,,,,,,,,,
0.0,1.0,1.026705,0.0,14.0,14.0,14.0,1.0,pantyhose_07s.jpg,0.0,clockno_default.jpg,3.0,52,,,,,,,,,,,,,,,,,,,,,,,,,,,,,,,,
0.0,1.0,0.73382,0.0,15.0,15.0,15.0,1.0,coconut_08s.jpg,0.0,clockno_default.jpg,3.0,52,,,,,,,,,,,,,,,,,,,,,,,,,,,,,,,,
0.0,1.0,0.88903,0.0,16.0,16.0,16.0,1.0,potholder_02s.jpg,0.0,clockno_default.jpg,3.0,52,,,,,,,,,,,,,,,,,,,,,,,,,,,,,,,,
0.0,1.0,1.00781,0.0,17.0,17.0,17.0,1.0,solar_panel_02s.jpg,0.0,clockno_up.jpg,4.0,52,,,,,,,,,,,,,,,,,,,,,,,,,,,,,,,,
0.0,1.0,0.63455,0.0,18.0,18.0,18.0,1.0,touchpad_11s.jpg,0.0,clockno_default.jpg,4.0,52,,,,,,,,,,,,,,,,,,,,,,,,,,,,,,,,
0.0,1.0,0.59334,0.0,19.0,19.0,19.0,1.0,rice_12s.jpg,0.0,clockno_default.jpg,4.0,52,,,,,,,,,,,,,,,,,,,,,,,,,,,,,,,,
0.0,1.0,0.831795,0.0,20.0,20.0,20.0,1.0,machete_06s.jpg,0.0,clockno_default.jpg,4.0,52,,,,,,,,,,,,,,,,,,,,,,,,,,,,,,,,
1.0,1.0,0.72791,0.0,21.0,21.0,21.0,1.0,touchpad_11s.jpg,1.0,clockno_default.jpg,4.0,52,,,,,,,,,,,,,,,,,,,,,,,,,,,,,,,,
0.0,1.0,0.869675,0.0,22.0,22.0,22.0,1.0,trumpet_06s.jpg,0.0,clockno_default.jpg,4.0,52,,,,,,,,,,,,,,,,,,,,,,,,,,,,,,,,
1.0,1.0,1.12524,0.0,23.0,23.0,23.0,1.0,touchpad_11s.jpg,1.0,clockno_default.jpg,4.0,52,,,,,,,,,,,,,,,,,,,,,,,,,,,,,,,,
0.0,1.0,0.623895,0.0,24.0,24.0,24.0,1.0,lamb_04s.jpg,0.0,clockno_up.jpg,5.0,52,,,,,,,,,,,,,,,,,,,,,,,,,,,,,,,,
0.0,1.0,0.72293,0.0,25.0,25.0,25.0,1.0,cucumber_07s.jpg,0.0,clockno_default.jpg,5.0,52,,,,,,,,,,,,,,,,,,,,,,,,,,,,,,,,
0.0,1.0,0.58059,0.0,26.0,26.0,26.0,1.0,police_car_01s.jpg,0.0,clockno_default.jpg,5.0,52,,,,,,,,,,,,,,,,,,,,,,,,,,,,,,,,
0.0,1.0,1.29062,0.0,27.0,27.0,27.0,1.0,latte_06s.jpg,0.0,clockno_default.jpg,5.0,52,,,,,,,,,,,,,,,,,,,,,,,,,,,,,,,,
1.0,1.0,0.79771,0.0,28.0,28.0,28.0,1.0,police_car_01s.jpg,1.0,clockno_default.jpg,5.0,52,,,,,,,,,,,,,,,,,,,,,,,,,,,,,,,,
0.0,1.0,0.96522,0.0,29.0,29.0,29.0,1.0,crab_16s.jpg,0.0,clockno_default.jpg,5.0,52,,,,,,,,,,,,,,,,,,,,,,,,,,,,,,,,
0.0,1.0,0.91314,0.0,30.0,30.0,30.0,1.0,toaster_03s.jpg,0.0,clockno_default.jpg,5.0,52,,,,,,,,,,,,,,,,,,,,,,,,,,,,,,,,
0.0,1.0,0.952125,0.0,31.0,31.0,31.0,1.0,parachute_03s.jpg,0.0,clockno_up.jpg,6.0,52,,,,,,,,,,,,,,,,,,,,,,,,,,,,,,,,
0.0,1.0,0.75597,0.0,32.0,32.0,32.0,1.0,punch2_09s.jpg,0.0,clockno_default.jpg,6.0,52,,,,,,,,,,,,,,,,,,,,,,,,,,,,,,,,
0.0,1.0,1.197615,0.0,33.0,33.0,33.0,1.0,touchpad_11s.jpg,0.0,clockno_default.jpg,6.0,52,,,,,,,,,,,,,,,,,,,,,,,,,,,,,,,,
0.0,1.0,0.830455,0.0,34.0,34.0,34.0,1.0,ginger_09s.jpg,0.0,clockno_default.jpg,6.0,52,,,,,,,,,,,,,,,,,,,,,,,,,,,,,,,,
1.0,1.0,0.87099,0.0,35.0,35.0,35.0,1.0,ginger_09s.jpg,1.0,clockno_default.jpg,6.0,52,,,,,,,,,,,,,,,,,,,,,,,,,,,,,,,,
,,,,,,,,,1.0,,,52,1.0,1.0,3.65637,0.0,0.0,0.0,0.0,1.0,glue_01s.jpg,pillbox_04s.jpg,,,,,,,,,,,,,,,,,,,,,,
,,,,,,,,,0.0,,,52,0.0,1.0,5.89607,0.0,1.0,1.0,1.0,1.0,punch2_09s.jpg,crab_16s.jpg,,,,,,,,,,,,,,,,,,,,,,
,,,,,,,,,0.0,,,52,0.0,1.0,5.46614,0.0,2.0,2.0,2.0,1.0,solar_panel_02s.jpg,pantyhose_07s.jpg,,,,,,,,,,,,,,,,,,,,,,
,,,,,,,,,0.0,,,52,0.0,1.0,2.70541,0.0,3.0,3.0,3.0,1.0,latte_06s.jpg,lamb_04s.jpg,,,,,,,,,,,,,,,,,,,,,,
,,,,,,,,,1.0,,,52,1.0,1.0,6.432085,0.0,4.0,4.0,4.0,1.0,scooter.jpg,chip_04s.jpg,,,,,,,,,,,,,,,,,,,,,,
,,,,,,,,,1.0,,,52,1.0,1.0,10.075215,0.0,5.0,5.0,5.0,1.0,mango_09s.jpg,potholder_02s.jpg,,,,,,,,,,,,,,,,,,,,,,
,0.0,,,,,,,throne_11s.jpg,0.0,clock_7_1.png,1.0,52,,,,,,,,,,,,,,,,,,0.0,0.0,0.0,0.0,1.0,,,,,,,,,,
0.0,1.0,1.03634,,,,,,swimming_pool_17s.jpg,0.0,clock_7_2.png,1.0,52,,,,,,,,,,,,,,,,,,0.0,1.0,1.0,1.0,1.0,,,,,,,,,,
0.0,1.0,1.652155,,,,,,blowfish_03s.jpg,0.0,clock_7_3.png,1.0,52,,,,,,,,,,,,,,,,,,0.0,2.0,2.0,2.0,1.0,,,,,,,,,,
1.0,1.0,0.64893,,,,,,throne_11s.jpg,1.0,clock_7_4.png,1.0,52,,,,,,,,,,,,,,,,,,0.0,3.0,3.0,3.0,1.0,,,,,,,,,,
0.0,1.0,0.81962,,,,,,basket_05s.jpg,0.0,clock_7_5.png,1.0,52,,,,,,,,,,,,,,,,,,0.0,4.0,4.0,4.0,1.0,,,,,,,,,,
0.0,1.0,1.024365,,,,,,rhubarb_03s.jpg,0.0,clock_7_6.png,1.0,52,,,,,,,,,,,,,,,,,,0.0,5.0,5.0,5.0,1.0,,,,,,,,,,
1.0,1.0,0.839575,,,,,,throne_11s.jpg,1.0,clock_7_7.png,1.0,52,,,,,,,,,,,,,,,,,,0.0,6.0,6.0,6.0,1.0,,,,,,,,,,
0.0,1.0,1.0981,,,,,,tupperware_09s.jpg,0.0,clock_5_1.png,2.0,52,,,,,,,,,,,,,,,,,,0.0,7.0,7.0,7.0,1.0,,,,,,,,,,
0.0,1.0,1.022665,,,,,,seagull_01b.jpg,0.0,clock_5_2.png,2.0,52,,,,,,,,,,,,,,,,,,0.0,8.0,8.0,8.0,1.0,,,,,,,,,,
0.0,1.0,1.08282,,,,,,kitten_07s.jpg,0.0,clock_5_3.png,2.0,52,,,,,,,,,,,,,,,,,,0.0,9.0,9.0,9.0,1.0,,,,,,,,,,
0.0,1.0,0.920085,,,,,,crate_05s.jpg,0.0,clock_5_4.png,2.0,52,,,,,,,,,,,,,,,,,,0.0,10.0,10.0,10.0,1.0,,,,,,,,,,
0.0,1.0,0.798005,,,,,,pocket_watch_16s.jpg,0.0,clock_5_5.png,2.0,52,,,,,,,,,,,,,,,,,,0.0,11.0,11.0,11.0,1.0,,,,,,,,,,
0.0,1.0,0.67679,,,,,,pocketknife_12s.jpg,0.0,clock_6_1.png,3.0,52,,,,,,,,,,,,,,,,,,0.0,12.0,12.0,12.0,1.0,,,,,,,,,,
0.0,1.0,0.786775,,,,,,jalapeno_15s.jpg,0.0,clock_6_2.png,3.0,52,,,,,,,,,,,,,,,,,,0.0,13.0,13.0,13.0,1.0,,,,,,,,,,
0.0,1.0,1.01506,,,,,,tupperware_09s.jpg,0.0,clock_6_3.png,3.0,52,,,,,,,,,,,,,,,,,,0.0,14.0,14.0,14.0,1.0,,,,,,,,,,
0.0,1.0,0.75497,,,,,,stapler_01b.jpg,0.0,clock_6_4.png,3.0,52,,,,,,,,,,,,,,,,,,0.0,15.0,15.0,15.0,1.0,,,,,,,,,,
0.0,1.0,0.88221,,,,,,cap_05s.jpg,0.0,clock_6_5.png,3.0,52,,,,,,,,,,,,,,,,,,0.0,16.0,16.0,16.0,1.0,,,,,,,,,,
0.0,1.0,0.83202,,,,,,lavender_10s.jpg,0.0,clock_6_6.png,3.0,52,,,,,,,,,,,,,,,,,,0.0,17.0,17.0,17.0,1.0,,,,,,,,,,
0.0,1.0,0.618425,,,,,,racehorse_03s.jpg,0.0,clock_6_1.png,4.0,52,,,,,,,,,,,,,,,,,,0.0,18.0,18.0,18.0,1.0,,,,,,,,,,
0.0,1.0,0.631325,,,,,,teacup_07s.jpg,0.0,clock_6_2.png,4.0,52,,,,,,,,,,,,,,,,,,0.0,19.0,19.0,19.0,1.0,,,,,,,,,,
0.0,1.0,1.42022,,,,,,lip_gloss_06s.jpg,0.0,clock_6_3.png,4.0,52,,,,,,,,,,,,,,,,,,0.0,20.0,20.0,20.0,1.0,,,,,,,,,,
1.0,1.0,0.931585,,,,,,racehorse_03s.jpg,1.0,clock_6_4.png,4.0,52,,,,,,,,,,,,,,,,,,0.0,21.0,21.0,21.0,1.0,,,,,,,,,,
1.0,1.0,0.86953,,,,,,lip_gloss_06s.jpg,1.0,clock_6_5.png,4.0,52,,,,,,,,,,,,,,,,,,0.0,22.0,22.0,22.0,1.0,,,,,,,,,,
0.0,1.0,1.027475,,,,,,seahorse_13s.jpg,0.0,clock_6_6.png,4.0,52,,,,,,,,,,,,,,,,,,0.0,23.0,23.0,23.0,1.0,,,,,,,,,,
0.0,1.0,0.75633,,,,,,tuxedo_01b.jpg,0.0,clock_5_1.png,5.0,52,,,,,,,,,,,,,,,,,,0.0,24.0,24.0,24.0,1.0,,,,,,,,,,
0.0,1.0,1.083405,,,,,,ice-cream_cone_06s.jpg,0.0,clock_5_2.png,5.0,52,,,,,,,,,,,,,,,,,,0.0,25.0,25.0,25.0,1.0,,,,,,,,,,
0.0,1.0,0.66093,,,,,,jukebox_03n.jpg,0.0,clock_5_3.png,5.0,52,,,,,,,,,,,,,,,,,,0.0,26.0,26.0,26.0,1.0,,,,,,,,,,
1.0,1.0,0.80257,,,,,,ice-cream_cone_06s.jpg,1.0,clock_5_4.png,5.0,52,,,,,,,,,,,,,,,,,,0.0,27.0,27.0,27.0,1.0,,,,,,,,,,
0.0,1.0,0.96137,,,,,,teacup_07s.jpg,0.0,clock_5_5.png,5.0,52,,,,,,,,,,,,,,,,,,0.0,28.0,28.0,28.0,1.0,,,,,,,,,,
0.0,1.0,1.2183,,,,,,rope_16s.jpg,0.0,clock_7_1.png,6.0,52,,,,,,,,,,,,,,,,,,0.0,29.0,29.0,29.0,1.0,,,,,,,,,,
0.0,1.0,0.7767,,,,,,fork_04s.jpg,0.0,clock_7_2.png,6.0,52,,,,,,,,,,,,,,,,,,0.0,30.0,30.0,30.0,1.0,,,,,,,,,,
1.0,1.0,0.70561,,,,,,rope_16s.jpg,1.0,clock_7_3.png,6.0,52,,,,,,,,,,,,,,,,,,0.0,31.0,31.0,31.0,1.0,,,,,,,,,,
1.0,1.0,1.01504,,,,,,fork_04s.jpg,1.0,clock_7_4.png,6.0,52,,,,,,,,,,,,,,,,,,0.0,32.0,32.0,32.0,1.0,,,,,,,,,,
0.0,1.0,0.778095,,,,,,stump_02s.jpg,0.0,clock_7_5.png,6.0,52,,,,,,,,,,,,,,,,,,0.0,33.0,33.0,33.0,1.0,,,,,,,,,,
0.0,1.0,0.835405,,,,,,air_pump_05s.jpg,0.0,clock_7_6.png,6.0,52,,,,,,,,,,,,,,,,,,0.0,34.0,34.0,34.0,1.0,,,,,,,,,,
1.0,1.0,0.86541,,,,,,air_pump_05s.jpg,1.0,clock_7_7.png,6.0,52,,,,,,,,,,,,,,,,,,0.0,35.0,35.0,35.0,1.0,,,,,,,,,,
,,,,,,,,,0.0,,,52,0.0,1.0,5.58878,,,,,,jukebox_03n.jpg,seahorse_13s.jpg,,,,,,,,,,,,,0.0,0.0,0.0,0.0,1.0,,,,,
,,,,,,,,,1.0,,,52,0.0,0.0,7.07754,,,,,,kitten_07s.jpg,pocketknife_12s.jpg,,,,,,,,,,,,,0.0,1.0,1.0,1.0,1.0,,,,,
,,,,,,,,,0.0,,,52,1.0,0.0,9.467035,,,,,,jalapeno_15s.jpg,crate_05s.jpg,,,,,,,,,,,,,0.0,2.0,2.0,2.0,1.0,,,,,
,,,,,,,,,0.0,,,52,1.0,0.0,13.357285,,,,,,basket_05s.jpg,swimming_pool_17s.jpg,,,,,,,,,,,,,0.0,3.0,3.0,3.0,1.0,,,,,
,,,,,,,,,0.0,,,52,1.0,0.0,6.468995,,,,,,rhubarb_03s.jpg,blowfish_03s.jpg,,,,,,,,,,,,,0.0,4.0,4.0,4.0,1.0,,,,,
,,,,,,,,,1.0,,,52,0.0,0.0,7.600615,,,,,,seagull_01b.jpg,pocket_watch_16s.jpg,,,,,,,,,,,,,0.0,5.0,5.0,5.0,1.0,,,,,
,,,,,,,,,,,,52,,,,,,,,,,,,,,,,clock_present_1_14.xlsx,clock_compare_task_1_14.xlsx,,,,,,,,,,,0.0,0.0,0.0,0.0,1.0
0.0,1.0,0.685605,,,,,,bagel_15s.jpg,0.0,clock_5_1.png,1.0,52,,,,,,,,,,,,,,,,,,0.0,0.0,0.0,0.0,1.0,,,,,,,,,,
0.0,1.0,0.974345,,,,,,rabbit_03s.jpg,0.0,clock_5_2.png,1.0,52,,,,,,,,,,,,,,,,,,0.0,1.0,1.0,1.0,1.0,,,,,,,,,,
1.0,1.0,0.73856,,,,,,bagel_15s.jpg,1.0,clock_5_3.png,1.0,52,,,,,,,,,,,,,,,,,,0.0,2.0,2.0,2.0,1.0,,,,,,,,,,
0.0,1.0,1.29183,,,,,,key_07s.jpg,0.0,clock_5_4.png,1.0,52,,,,,,,,,,,,,,,,,,0.0,3.0,3.0,3.0,1.0,,,,,,,,,,
0.0,1.0,1.38391,,,,,,mascara_03s.jpg,0.0,clock_5_5.png,1.0,52,,,,,,,,,,,,,,,,,,0.0,4.0,4.0,4.0,1.0,,,,,,,,,,
0.0,1.0,0.768955,,,,,,knot_01b.jpg,0.0,clock_6_1.png,2.0,52,,,,,,,,,,,,,,,,,,0.0,5.0,5.0,5.0,1.0,,,,,,,,,,
0.0,1.0,0.797795,,,,,,measuring_cup_02s.jpg,0.0,clock_6_2.png,2.0,52,,,,,,,,,,,,,,,,,,0.0,6.0,6.0,6.0,1.0,,,,,,,,,,
0.0,1.0,0.749255,,,,,,syringe_02s.jpg,0.0,clock_6_3.png,2.0,52,,,,,,,,,,,,,,,,,,0.0,7.0,7.0,7.0,1.0,,,,,,,,,,
1.0,1.0,0.768695,,,,,,knot_01b.jpg,1.0,clock_6_4.png,2.0,52,,,,,,,,,,,,,,,,,,0.0,8.0,8.0,8.0,1.0,,,,,,,,,,
0.0,1.0,0.719815,,,,,,pancake_12s.jpg,0.0,clock_6_5.png,2.0,52,,,,,,,,,,,,,,,,,,0.0,9.0,9.0,9.0,1.0,,,,,,,,,,
0.0,1.0,0.79167,,,,,,saddle_06s.jpg,0.0,clock_6_6.png,2.0,52,,,,,,,,,,,,,,,,,,0.0,10.0,10.0,10.0,1.0,,,,,,,,,,
0.0,1.0,0.951505,,,,,,stingray_02s.jpg,0.0,clock_7_1.png,3.0,52,,,,,,,,,,,,,,,,,,0.0,11.0,11.0,11.0,1.0,,,,,,,,,,
0.0,1.0,0.982445,,,,,,pancake_12s.jpg,0.0,clock_7_2.png,3.0,52,,,,,,,,,,,,,,,,,,0.0,12.0,12.0,12.0,1.0,,,,,,,,,,
0.0,1.0,0.70775,,,,,,kite_04s.jpg,0.0,clock_7_3.png,3.0,52,,,,,,,,,,,,,,,,,,0.0,13.0,13.0,13.0,1.0,,,,,,,,,,
0.0,1.0,0.765985,,,,,,pincushion_10s.jpg,0.0,clock_7_4.png,3.0,52,,,,,,,,,,,,,,,,,,0.0,14.0,14.0,14.0,1.0,,,,,,,,,,
0.0,1.0,0.788415,,,,,,ice_pack_09s.jpg,0.0,clock_7_5.png,3.0,52,,,,,,,,,,,,,,,,,,0.0,15.0,15.0,15.0,1.0,,,,,,,,,,
1.0,1.0,0.79827,,,,,,kite_04s.jpg,1.0,clock_7_6.png,3.0,52,,,,,,,,,,,,,,,,,,0.0,16.0,16.0,16.0,1.0,,,,,,,,,,
0.0,1.0,1.086195,,,,,,thumbtack_14s.jpg,0.0,clock_7_7.png,3.0,52,,,,,,,,,,,,,,,,,,0.0,17.0,17.0,17.0,1.0,,,,,,,,,,
0.0,1.0,0.66627,,,,,,stamp1_11s.jpg,0.0,clock_5_1.png,4.0,52,,,,,,,,,,,,,,,,,,0.0,18.0,18.0,18.0,1.0,,,,,,,,,,
1.0,1.0,0.681935,,,,,,stamp1_11s.jpg,1.0,clock_5_2.png,4.0,52,,,,,,,,,,,,,,,,,,0.0,19.0,19.0,19.0,1.0,,,,,,,,,,
0.0,1.0,1.21203,,,,,,lizard_10n.jpg,0.0,clock_5_3.png,4.0,52,,,,,,,,,,,,,,,,,,0.0,20.0,20.0,20.0,1.0,,,,,,,,,,
0.0,1.0,0.703565,,,,,,toilet_paper_12s.jpg,0.0,clock_5_4.png,4.0,52,,,,,,,,,,,,,,,,,,0.0,21.0,21.0,21.0,1.0,,,,,,,,,,
0.0,1.0,1.08567,,,,,,gong_02s.jpg,0.0,clock_5_5.png,4.0,52,,,,,,,,,,,,,,,,,,0.0,22.0,22.0,22.0,1.0,,,,,,,,,,
0.0,1.0,0.910465,,,,,,rake_06s.jpg,0.0,clock_6_1.png,5.0,52,,,,,,,,,,,,,,,,,,0.0,23.0,23.0,23.0,1.0,,,,,,,,,,
0.0,1.0,0.89987,,,,,,syringe_02s.jpg,0.0,clock_6_2.png,5.0,52,,,,,,,,,,,,,,,,,,0.0,24.0,24.0,24.0,1.0,,,,,,,,,,
0.0,1.0,0.99827,,,,,,thumbtack_14s.jpg,0.0,clock_6_3.png,5.0,52,,,,,,,,,,,,,,,,,,0.0,25.0,25.0,25.0,1.0,,,,,,,,,,
0.0,1.0,0.659605,,,,,,boomerang_06s.jpg,0.0,clock_6_4.png,5.0,52,,,,,,,,,,,,,,,,,,0.0,26.0,26.0,26.0,1.0,,,,,,,,,,
0.0,1.0,0.72038,,,,,,kayak_08s.jpg,0.0,clock_6_5.png,5.0,52,,,,,,,,,,,,,,,,,,0.0,27.0,27.0,27.0,1.0,,,,,,,,,,
0.0,1.0,0.8781,,,,,,fountain_pen_06s.jpg,0.0,clock_6_6.png,5.0,52,,,,,,,,,,,,,,,,,,0.0,28.0,28.0,28.0,1.0,,,,,,,,,,
0.0,1.0,1.057715,,,,,,contact_lens_15s.jpg,0.0,clock_7_1.png,6.0,52,,,,,,,,,,,,,,,,,,0.0,29.0,29.0,29.0,1.0,,,,,,,,,,
0.0,1.0,0.6834,,,,,,lamb_chop_07s.jpg,0.0,clock_7_2.png,6.0,52,,,,,,,,,,,,,,,,,,0.0,30.0,30.0,30.0,1.0,,,,,,,,,,
0.0,1.0,0.57698,,,,,,pear_02s.jpg,0.0,clock_7_3.png,6.0,52,,,,,,,,,,,,,,,,,,0.0,31.0,31.0,31.0,1.0,,,,,,,,,,
0.0,1.0,0.61828,,,,,,potpourri_03s.jpg,0.0,clock_7_4.png,6.0,52,,,,,,,,,,,,,,,,,,0.0,32.0,32.0,32.0,1.0,,,,,,,,,,
0.0,1.0,0.80832,,,,,,pincushion_10s.jpg,0.0,clock_7_5.png,6.0,52,,,,,,,,,,,,,,,,,,0.0,33.0,33.0,33.0,1.0,,,,,,,,,,
0.0,1.0,0.723945,,,,,,foam_03s.jpg,0.0,clock_7_6.png,6.0,52,,,,,,,,,,,,,,,,,,0.0,34.0,34.0,34.0,1.0,,,,,,,,,,
0.0,1.0,0.742585,,,,,,bathtub_23s.jpg,0.0,clock_7_7.png,6.0,52,,,,,,,,,,,,,,,,,,0.0,35.0,35.0,35.0,1.0,,,,,,,,,,
,,,,,,,,,1.0,,,52,0.0,0.0,12.52923,,,,,,key_07s.jpg,measuring_cup_02s.jpg,,,,,,,,,,,,,0.0,0.0,0.0,0.0,1.0,,,,,
,,,,,,,,,1.0,,,52,0.0,0.0,3.475195,,,,,,kayak_08s.jpg,lamb_chop_07s.jpg,,,,,,,,,,,,,0.0,1.0,1.0,1.0,1.0,,,,,
,,,,,,,,,1.0,,,52,1.0,1.0,2.886325,,,,,,lizard_10n.jpg,rake_06s.jpg,,,,,,,,,,,,,0.0,2.0,2.0,2.0,1.0,,,,,
,,,,,,,,,1.0,,,52,1.0,1.0,6.03885,,,,,,rabbit_03s.jpg,mascara_03s.jpg,,,,,,,,,,,,,0.0,3.0,3.0,3.0,1.0,,,,,
,,,,,,,,,1.0,,,52,1.0,1.0,6.781935,,,,,,potpourri_03s.jpg,bathtub_23s.jpg,,,,,,,,,,,,,0.0,4.0,4.0,4.0,1.0,,,,,
,,,,,,,,,0.0,,,52,1.0,0.0,8.844935,,,,,,foam_03s.jpg,pear_02s.jpg,,,,,,,,,,,,,0.0,5.0,5.0,5.0,1.0,,,,,
,,,,,,,,,,,,52,,,,,,,,,,,,,,,,clock_present_2_14.xlsx,clock_compare_task_2_14.xlsx,,,,,,,,,,,0.0,1.0,1.0,1.0,1.0
0.0,1.0,0.70959,,,,,,magnet_03s.jpg,0.0,clock_5_1.png,1.0,52,,,,,,,,,,,,,,,,,,0.0,0.0,0.0,0.0,1.0,,,,,,,,,,
1.0,1.0,0.66121,,,,,,magnet_03s.jpg,1.0,clock_5_2.png,1.0,52,,,,,,,,,,,,,,,,,,0.0,1.0,1.0,1.0,1.0,,,,,,,,,,
0.0,1.0,0.82156,,,,,,insole_11s.jpg,0.0,clock_5_3.png,1.0,52,,,,,,,,,,,,,,,,,,0.0,2.0,2.0,2.0,1.0,,,,,,,,,,
0.0,1.0,0.671545,,,,,,safety_pin_02s.jpg,0.0,clock_5_4.png,1.0,52,,,,,,,,,,,,,,,,,,0.0,3.0,3.0,3.0,1.0,,,,,,,,,,
0.0,1.0,0.806875,,,,,,pie_08s.jpg,0.0,clock_5_5.png,1.0,52,,,,,,,,,,,,,,,,,,0.0,4.0,4.0,4.0,1.0,,,,,,,,,,
0.0,1.0,1.18055,,,,,,flask_04s.jpg,0.0,clock_6_1.png,2.0,52,,,,,,,,,,,,,,,,,,0.0,5.0,5.0,5.0,1.0,,,,,,,,,,
0.0,1.0,1.005635,,,,,,stopwatch_04s.jpg,0.0,clock_6_2.png,2.0,52,,,,,,,,,,,,,,,,,,0.0,6.0,6.0,6.0,1.0,,,,,,,,,,
0.0,1.0,0.818375,,,,,,olive_05s.jpg,0.0,clock_6_3.png,2.0,52,,,,,,,,,,,,,,,,,,0.0,7.0,7.0,7.0,1.0,,,,,,,,,,
0.0,1.0,0.576205,,,,,,laser_pointer_02s.jpg,0.0,clock_6_4.png,2.0,52,,,,,,,,,,,,,,,,,,0.0,8.0,8.0,8.0,1.0,,,,,,,,,,
0.0,1.0,1.439275,,,,,,pie_08s.jpg,0.0,clock_6_5.png,2.0,52,,,,,,,,,,,,,,,,,,0.0,9.0,9.0,9.0,1.0,,,,,,,,,,
1.0,1.0,0.837505,,,,,,laser_pointer_02s.jpg,1.0,clock_6_6.png,2.0,52,,,,,,,,,,,,,,,,,,0.0,10.0,10.0,10.0,1.0,,,,,,,,,,
0.0,1.0,0.47899,,,,,,surfboard_11s.jpg,0.0,clock_6_1.png,3.0,52,,,,,,,,,,,,,,,,,,0.0,11.0,11.0,11.0,1.0,,,,,,,,,,
0.0,1.0,1.13947,,,,,,money_07s.jpg,0.0,clock_6_2.png,3.0,52,,,,,,,,,,,,,,,,,,0.0,12.0,12.0,12.0,1.0,,,,,,,,,,
0.0,1.0,0.806625,,,,,,bubble_01b.jpg,0.0,clock_6_3.png,3.0,52,,,,,,,,,,,,,,,,,,0.0,13.0,13.0,13.0,1.0,,,,,,,,,,
0.0,1.0,1.136745,,,,,,lipstick_02s.jpg,0.0,clock_6_4.png,3.0,52,,,,,,,,,,,,,,,,,,0.0,14.0,14.0,14.0,1.0,,,,,,,,,,
0.0,1.0,0.839875,,,,,,leash_10s.jpg,0.0,clock_6_5.png,3.0,52,,,,,,,,,,,,,,,,,,0.0,15.0,15.0,15.0,1.0,,,,,,,,,,
0.0,1.0,1.118635,,,,,,flask_04s.jpg,0.0,clock_6_6.png,3.0,52,,,,,,,,,,,,,,,,,,0.0,16.0,16.0,16.0,1.0,,,,,,,,,,
0.0,1.0,0.7082,,,,,,puck_06s.jpg,0.0,clock_7_1.png,4.0,52,,,,,,,,,,,,,,,,,,0.0,17.0,17.0,17.0,1.0,,,,,,,,,,
0.0,1.0,0.643375,,,,,,paintbrush_04s.jpg,0.0,clock_7_2.png,4.0,52,,,,,,,,,,,,,,,,,,0.0,18.0,18.0,18.0,1.0,,,,,,,,,,
1.0,1.0,0.73204,,,,,,puck_06s.jpg,1.0,clock_7_3.png,4.0,52,,,,,,,,,,,,,,,,,,0.0,19.0,19.0,19.0,1.0,,,,,,,,,,
0.0,1.0,1.176105,,,,,,tweezers_03s.jpg,0.0,clock_7_4.png,4.0,52,,,,,,,,,,,,,,,,,,0.0,20.0,20.0,20.0,1.0,,,,,,,,,,
1.0,1.0,0.715485,,,,,,puck_06s.jpg,1.0,clock_7_5.png,4.0,52,,,,,,,,,,,,,,,,,,0.0,21.0,21.0,21.0,1.0,,,,,,,,,,
0.0,1.0,0.523695,,,,,,tulip_02s.jpg,0.0,clock_7_6.png,4.0,52,,,,,,,,,,,,,,,,,,0.0,22.0,22.0,22.0,1.0,,,,,,,,,,
0.0,1.0,0.954535,,,,,,bubble_01b.jpg,0.0,clock_7_7.png,4.0,52,,,,,,,,,,,,,,,,,,0.0,23.0,23.0,23.0,1.0,,,,,,,,,,
0.0,1.0,0.75432,,,,,,mattress_01s.jpg,0.0,clock_5_1.png,5.0,52,,,,,,,,,,,,,,,,,,0.0,24.0,24.0,24.0,1.0,,,,,,,,,,
1.0,1.0,1.121215,,,,,,mattress_01s.jpg,1.0,clock_5_2.png,5.0,52,,,,,,,,,,,,,,,,,,0.0,25.0,25.0,25.0,1.0,,,,,,,,,,
0.0,1.0,1.204555,,,,,,puddle_02s.jpg,0.0,clock_5_3.png,5.0,52,,,,,,,,,,,,,,,,,,0.0,26.0,26.0,26.0,1.0,,,,,,,,,,
0.0,1.0,0.63626,,,,,,peanut_butter_08s.jpg,0.0,clock_5_4.png,5.0,52,,,,,,,,,,,,,,,,,,0.0,27.0,27.0,27.0,1.0,,,,,,,,,,
0.0,1.0,1.24771,,,,,,loveseat_08s.jpg,0.0,clock_5_5.png,5.0,52,,,,,,,,,,,,,,,,,,0.0,28.0,28.0,28.0,1.0,,,,,,,,,,
0.0,1.0,0.993725,,,,,,timer_03s.jpg,0.0,clock_7_1.png,6.0,52,,,,,,,,,,,,,,,,,,0.0,29.0,29.0,29.0,1.0,,,,,,,,,,
0.0,1.0,0.904705,,,,,,icicle_04s.jpg,0.0,clock_7_2.png,6.0,52,,,,,,,,,,,,,,,,,,0.0,30.0,30.0,30.0,1.0,,,,,,,,,,
0.0,1.0,0.824935,,,,,,fishhook_06s.jpg,0.0,clock_7_3.png,6.0,52,,,,,,,,,,,,,,,,,,0.0,31.0,31.0,31.0,1.0,,,,,,,,,,
0.0,1.0,1.090615,,,,,,pump_11s.jpg,0.0,clock_7_4.png,6.0,52,,,,,,,,,,,,,,,,,,0.0,32.0,32.0,32.0,1.0,,,,,,,,,,
0.0,1.0,0.63252,,,,,,ukulele_02s.jpg,0.0,clock_7_5.png,6.0,52,,,,,,,,,,,,,,,,,,0.0,33.0,33.0,33.0,1.0,,,,,,,,,,
0.0,1.0,0.93911,,,,,,safety_pin_02s.jpg,0.0,clock_7_6.png,6.0,52,,,,,,,,,,,,,,,,,,0.0,34.0,34.0,34.0,1.0,,,,,,,,,,
0.0,1.0,1.014205,,,,,,sundae_08s.jpg,0.0,clock_7_7.png,6.0,52,,,,,,,,,,,,,,,,,,0.0,35.0,35.0,35.0,1.0,,,,,,,,,,
,,,,,,,,,0.0,,,52,0.0,1.0,10.315965,,,,,,fishhook_06s.jpg,loveseat_08s.jpg,,,,,,,,,,,,,0.0,0.0,0.0,0.0,1.0,,,,,
,,,,,,,,,0.0,,,52,0.0,1.0,12.408345,,,,,,paintbrush_04s.jpg,leash_10s.jpg,,,,,,,,,,,,,0.0,1.0,1.0,1.0,1.0,,,,,
,,,,,,,,,0.0,,,52,1.0,0.0,4.309245,,,,,,timer_03s.jpg,puddle_02s.jpg,,,,,,,,,,,,,0.0,2.0,2.0,2.0,1.0,,,,,
,,,,,,,,,1.0,,,52,1.0,1.0,5.31163,,,,,,surfboard_11s.jpg,lipstick_02s.jpg,,,,,,,,,,,,,0.0,3.0,3.0,3.0,1.0,,,,,
,,,,,,,,,0.0,,,52,0.0,1.0,9.28953,,,,,,sundae_08s.jpg,pump_11s.jpg,,,,,,,,,,,,,0.0,4.0,4.0,4.0,1.0,,,,,
,,,,,,,,,0.0,,,52,0.0,1.0,4.901495,,,,,,ukulele_02s.jpg,icicle_04s.jpg,,,,,,,,,,,,,0.0,5.0,5.0,5.0,1.0,,,,,
,,,,,,,,,,,,52,,,,,,,,,,,,,,,,clock_present_3_14.xlsx,clock_compare_task_3_14.xlsx,,,,,,,,,,,0.0,2.0,2.0,2.0,1.0
0.0,1.0,0.45283,,,,,,mold2_04s.jpg,0.0,clock_5_1.png,1.0,52,,,,,,,,,,,,,,,,,,0.0,0.0,0.0,0.0,1.0,,,,,,,,,,
1.0,1.0,0.43827,,,,,,mold2_04s.jpg,1.0,clock_5_2.png,1.0,52,,,,,,,,,,,,,,,,,,0.0,1.0,1.0,1.0,1.0,,,,,,,,,,
1.0,1.0,0.94093,,,,,,mold2_04s.jpg,1.0,clock_5_3.png,1.0,52,,,,,,,,,,,,,,,,,,0.0,2.0,2.0,2.0,1.0,,,,,,,,,,
1.0,1.0,0.70405,,,,,,mold2_04s.jpg,1.0,clock_5_4.png,1.0,52,,,,,,,,,,,,,,,,,,0.0,3.0,3.0,3.0,1.0,,,,,,,,,,
0.0,1.0,0.84104,,,,,,sledgehammer_03s.jpg,0.0,clock_5_5.png,1.0,52,,,,,,,,,,,,,,,,,,0.0,4.0,4.0,4.0,1.0,,,,,,,,,,
0.0,1.0,0.87161,,,,,,prism_10s.jpg,0.0,clock_7_1.png,2.0,52,,,,,,,,,,,,,,,,,,0.0,5.0,5.0,5.0,1.0,,,,,,,,,,
0.0,1.0,0.86554,,,,,,jewel_01b.jpg,0.0,clock_7_2.png,2.0,52,,,,,,,,,,,,,,,,,,0.0,6.0,6.0,6.0,1.0,,,,,,,,,,
0.0,1.0,0.81772,,,,,,puffin_19s.jpg,0.0,clock_7_3.png,2.0,52,,,,,,,,,,,,,,,,,,0.0,7.0,7.0,7.0,1.0,,,,,,,,,,
0.0,1.0,0.62813,,,,,,screwdriver02a.jpg,0.0,clock_7_4.png,2.0,52,,,,,,,,,,,,,,,,,,0.0,8.0,8.0,8.0,1.0,,,,,,,,,,
0.0,1.0,0.74109,,,,,,thermostat_02s.jpg,0.0,clock_7_5.png,2.0,52,,,,,,,,,,,,,,,,,,0.0,9.0,9.0,9.0,1.0,,,,,,,,,,
1.0,1.0,0.831505,,,,,,jewel_01b.jpg,1.0,clock_7_6.png,2.0,52,,,,,,,,,,,,,,,,,,0.0,10.0,10.0,10.0,1.0,,,,,,,,,,
1.0,1.0,0.797535,,,,,,puffin_19s.jpg,1.0,clock_7_7.png,2.0,52,,,,,,,,,,,,,,,,,,0.0,11.0,11.0,11.0,1.0,,,,,,,,,,
0.0,1.0,0.93249,,,,,,petri_dish_12s.jpg,0.0,clock_6_1.png,3.0,52,,,,,,,,,,,,,,,,,,0.0,12.0,12.0,12.0,1.0,,,,,,,,,,
0.0,1.0,0.767085,,,,,,plug_08s.jpg,0.0,clock_6_2.png,3.0,52,,,,,,,,,,,,,,,,,,0.0,13.0,13.0,13.0,1.0,,,,,,,,,,
0.0,1.0,0.63259,,,,,,hydrant_10s.jpg,0.0,clock_6_3.png,3.0,52,,,,,,,,,,,,,,,,,,0.0,14.0,14.0,14.0,1.0,,,,,,,,,,
1.0,1.0,0.68828,,,,,,petri_dish_12s.jpg,1.0,clock_6_4.png,3.0,52,,,,,,,,,,,,,,,,,,0.0,15.0,15.0,15.0,1.0,,,,,,,,,,
0.0,1.0,1.22047,,,,,,amber_04s.jpg,0.0,clock_6_5.png,3.0,52,,,,,,,,,,,,,,,,,,0.0,16.0,16.0,16.0,1.0,,,,,,,,,,
0.0,1.0,0.741,,,,,,luggage_08s.jpg,0.0,clock_6_6.png,3.0,52,,,,,,,,,,,,,,,,,,0.0,17.0,17.0,17.0,1.0,,,,,,,,,,
0.0,1.0,1.1365,,,,,,cushion_08s.jpg,0.0,clock_7_1.png,4.0,52,,,,,,,,,,,,,,,,,,0.0,18.0,18.0,18.0,1.0,,,,,,,,,,
0.0,1.0,0.9143,,,,,,mushroom_10n.jpg,0.0,clock_7_2.png,4.0,52,,,,,,,,,,,,,,,,,,0.0,19.0,19.0,19.0,1.0,,,,,,,,,,
0.0,1.0,1.20797,,,,,,puffin_19s.jpg,0.0,clock_7_3.png,4.0,52,,,,,,,,,,,,,,,,,,0.0,20.0,20.0,20.0,1.0,,,,,,,,,,
0.0,1.0,1.980545,,,,,,lasagna_06s.jpg,0.0,clock_7_4.png,4.0,52,,,,,,,,,,,,,,,,,,0.0,21.0,21.0,21.0,1.0,,,,,,,,,,
0.0,1.0,0.60854,,,,,,thorn_13s.jpg,0.0,clock_7_5.png,4.0,52,,,,,,,,,,,,,,,,,,0.0,22.0,22.0,22.0,1.0,,,,,,,,,,
0.0,1.0,0.673,,,,,,jelly_bean_06s.jpg,0.0,clock_7_6.png,4.0,52,,,,,,,,,,,,,,,,,,0.0,23.0,23.0,23.0,1.0,,,,,,,,,,
0.0,1.0,0.716735,,,,,,mosquito_12s.jpg,0.0,clock_7_7.png,4.0,52,,,,,,,,,,,,,,,,,,0.0,24.0,24.0,24.0,1.0,,,,,,,,,,
0.0,1.0,1.44393,,,,,,triangle_10s.jpg,0.0,clock_6_1.png,5.0,52,,,,,,,,,,,,,,,,,,0.0,25.0,25.0,25.0,1.0,,,,,,,,,,
0.0,1.0,0.55161,,,,,,roulette_wheel_04s.jpg,0.0,clock_6_2.png,5.0,52,,,,,,,,,,,,,,,,,,0.0,26.0,26.0,26.0,1.0,,,,,,,,,,
1.0,1.0,0.652665,,,,,,roulette_wheel_04s.jpg,1.0,clock_6_3.png,5.0,52,,,,,,,,,,,,,,,,,,0.0,27.0,27.0,27.0,1.0,,,,,,,,,,
0.0,1.0,1.048775,,,,,,puffin_19s.jpg,0.0,clock_6_4.png,5.0,52,,,,,,,,,,,,,,,,,,0.0,28.0,28.0,28.0,1.0,,,,,,,,,,
0.0,1.0,0.68162,,,,,,outlet_10s.jpg,0.0,clock_6_5.png,5.0,52,,,,,,,,,,,,,,,,,,0.0,29.0,29.0,29.0,1.0,,,,,,,,,,
0.0,1.0,0.783275,,,,,,abacus_12s.jpg,0.0,clock_6_6.png,5.0,52,,,,,,,,,,,,,,,,,,0.0,30.0,30.0,30.0,1.0,,,,,,,,,,
0.0,1.0,0.606655,,,,,,pencil02a.jpg,0.0,clock_5_1.png,6.0,52,,,,,,,,,,,,,,,,,,0.0,31.0,31.0,31.0,1.0,,,,,,,,,,
0.0,1.0,0.53431,,,,,,pillow_03s.jpg,0.0,clock_5_2.png,6.0,52,,,,,,,,,,,,,,,,,,0.0,32.0,32.0,32.0,1.0,,,,,,,,,,
1.0,1.0,0.87487,,,,,,pencil02a.jpg,1.0,clock_5_3.png,6.0,52,,,,,,,,,,,,,,,,,,0.0,33.0,33.0,33.0,1.0,,,,,,,,,,
0.0,1.0,0.89766,,,,,,towel_rack_04s.jpg,0.0,clock_5_4.png,6.0,52,,,,,,,,,,,,,,,,,,0.0,34.0,34.0,34.0,1.0,,,,,,,,,,
0.0,1.0,0.69645,,,,,,machine_gun_09s.jpg,0.0,clock_5_5.png,6.0,52,,,,,,,,,,,,,,,,,,0.0,35.0,35.0,35.0,1.0,,,,,,,,,,
,,,,,,,,,1.0,,,52,0.0,0.0,3.46036,,,,,,thorn_13s.jpg,triangle_10s.jpg,,,,,,,,,,,,,0.0,0.0,0.0,0.0,1.0,,,,,
,,,,,,,,,0.0,,,52,0.0,1.0,6.849165,,,,,,pillow_03s.jpg,outlet_10s.jpg,,,,,,,,,,,,,0.0,1.0,1.0,1.0,1.0,,,,,
,,,,,,,,,1.0,,,52,0.0,0.0,5.564805,,,,,,amber_04s.jpg,mushroom_10n.jpg,,,,,,,,,,,,,0.0,2.0,2.0,2.0,1.0,,,,,
,,,,,,,,,0.0,,,52,0.0,1.0,12.215185,,,,,,screwdriver02a.jpg,prism_10s.jpg,,,,,,,,,,,,,0.0,3.0,3.0,3.0,1.0,,,,,
,,,,,,,,,1.0,,,52,1.0,1.0,5.79176,,,,,,hydrant_10s.jpg,luggage_08s.jpg,,,,,,,,,,,,,0.0,4.0,4.0,4.0,1.0,,,,,
,,,,,,,,,1.0,,,52,1.0,1.0,2.69516,,,,,,cushion_08s.jpg,lasagna_06s.jpg,,,,,,,,,,,,,0.0,5.0,5.0,5.0,1.0,,,,,
,,,,,,,,,,,,52,,,,,,,,,,,,,,,,clock_present_4_14.xlsx,clock_compare_task_4_14.xlsx,,,,,,,,,,,0.0,3.0,3.0,3.0,1.0
0.0,1.0,0.67488,,,,,,checkbook_11s.jpg,0.0,clock_7_1.png,1.0,52,,,,,,,,,,,,,,,,,,0.0,0.0,0.0,0.0,1.0,,,,,,,,,,
0.0,1.0,1.2111,,,,,,submarine_11n.jpg,0.0,clock_7_2.png,1.0,52,,,,,,,,,,,,,,,,,,0.0,1.0,1.0,1.0,1.0,,,,,,,,,,
0.0,1.0,1.1363,,,,,,doily_13s.jpg,0.0,clock_7_3.png,1.0,52,,,,,,,,,,,,,,,,,,0.0,2.0,2.0,2.0,1.0,,,,,,,,,,
0.0,1.0,1.258545,,,,,,briefcase_03s.jpg,0.0,clock_7_4.png,1.0,52,,,,,,,,,,,,,,,,,,0.0,3.0,3.0,3.0,1.0,,,,,,,,,,
0.0,1.0,0.74731,,,,,,film_03s.jpg,0.0,clock_7_5.png,1.0,52,,,,,,,,,,,,,,,,,,0.0,4.0,4.0,4.0,1.0,,,,,,,,,,
0.0,1.0,0.639085,,,,,,ironing_board_07s.jpg,0.0,clock_7_6.png,1.0,52,,,,,,,,,,,,,,,,,,0.0,5.0,5.0,5.0,1.0,,,,,,,,,,
1.0,1.0,0.780705,,,,,,checkbook_11s.jpg,1.0,clock_7_7.png,1.0,52,,,,,,,,,,,,,,,,,,0.0,6.0,6.0,6.0,1.0,,,,,,,,,,
0.0,1.0,0.443145,,,,,,sushi_08s.jpg,0.0,clock_6_1.png,2.0,52,,,,,,,,,,,,,,,,,,0.0,7.0,7.0,7.0,1.0,,,,,,,,,,
0.0,1.0,1.125005,,,,,,go-kart_10s.jpg,0.0,clock_6_2.png,2.0,52,,,,,,,,,,,,,,,,,,0.0,8.0,8.0,8.0,1.0,,,,,,,,,,
0.0,1.0,0.679805,,,,,,tripod_01b.jpg,0.0,clock_6_3.png,2.0,52,,,,,,,,,,,,,,,,,,0.0,9.0,9.0,9.0,1.0,,,,,,,,,,
0.0,1.0,1.130415,,,,,,tinsel_12s.jpg,0.0,clock_6_4.png,2.0,52,,,,,,,,,,,,,,,,,,0.0,10.0,10.0,10.0,1.0,,,,,,,,,,
0.0,1.0,0.72607,,,,,,microwave_02s.jpg,0.0,clock_6_5.png,2.0,52,,,,,,,,,,,,,,,,,,0.0,11.0,11.0,11.0,1.0,,,,,,,,,,
0.0,1.0,0.77263,,,,,,piano_13n.jpg,0.0,clock_6_6.png,2.0,52,,,,,,,,,,,,,,,,,,0.0,12.0,12.0,12.0,1.0,,,,,,,,,,
0.0,1.0,1.04379,,,,,,panda_02s.jpg,0.0,clock_5_1.png,3.0,52,,,,,,,,,,,,,,,,,,0.0,13.0,13.0,13.0,1.0,,,,,,,,,,
0.0,1.0,1.3133,,,,,,spatula04.jpg,0.0,clock_5_2.png,3.0,52,,,,,,,,,,,,,,,,,,0.0,14.0,14.0,14.0,1.0,,,,,,,,,,
0.0,1.0,0.76779,,,,,,razor_12s.jpg,0.0,clock_5_3.png,3.0,52,,,,,,,,,,,,,,,,,,0.0,15.0,15.0,15.0,1.0,,,,,,,,,,
0.0,1.0,0.671535,,,,,,jet_15s.jpg,0.0,clock_5_4.png,3.0,52,,,,,,,,,,,,,,,,,,0.0,16.0,16.0,16.0,1.0,,,,,,,,,,
0.0,1.0,0.760635,,,,,,spider_web_03s.jpg,0.0,clock_5_5.png,3.0,52,,,,,,,,,,,,,,,,,,0.0,17.0,17.0,17.0,1.0,,,,,,,,,,
0.0,1.0,0.42027,,,,,,lamppost_09s.jpg,0.0,clock_5_1.png,4.0,52,,,,,,,,,,,,,,,,,,0.0,18.0,18.0,18.0,1.0,,,,,,,,,,
0.0,1.0,0.58325,,,,,,kettle_08s.jpg,0.0,clock_5_2.png,4.0,52,,,,,,,,,,,,,,,,,,0.0,19.0,19.0,19.0,1.0,,,,,,,,,,
1.0,1.0,0.53339,,,,,,kettle_08s.jpg,1.0,clock_5_3.png,4.0,52,,,,,,,,,,,,,,,,,,0.0,20.0,20.0,20.0,1.0,,,,,,,,,,
0.0,1.0,0.88508,,,,,,jet_15s.jpg,0.0,clock_5_4.png,4.0,52,,,,,,,,,,,,,,,,,,0.0,21.0,21.0,21.0,1.0,,,,,,,,,,
1.0,1.0,0.823575,,,,,,kettle_08s.jpg,1.0,clock_5_5.png,4.0,52,,,,,,,,,,,,,,,,,,0.0,22.0,22.0,22.0,1.0,,,,,,,,,,
0.0,1.0,1.10482,,,,,,champagne_18s.jpg,0.0,clock_6_1.png,5.0,52,,,,,,,,,,,,,,,,,,0.0,23.0,23.0,23.0,1.0,,,,,,,,,,
0.0,1.0,0.47498,,,,,,radiator_05s.jpg,0.0,clock_6_2.png,5.0,52,,,,,,,,,,,,,,,,,,0.0,24.0,24.0,24.0,1.0,,,,,,,,,,
1.0,1.0,0.55269,,,,,,radiator_05s.jpg,1.0,clock_6_3.png,5.0,52,,,,,,,,,,,,,,,,,,0.0,25.0,25.0,25.0,1.0,,,,,,,,,,
0.0,1.0,1.1707,,,,,,pepper2_21s.jpg,0.0,clock_6_4.png,5.0,52,,,,,,,,,,,,,,,,,,0.0,26.0,26.0,26.0,1.0,,,,,,,,,,
1.0,1.0,0.65781,,,,,,pepper2_21s.jpg,1.0,clock_6_5.png,5.0,52,,,,,,,,,,,,,,,,,,0.0,27.0,27.0,27.0,1.0,,,,,,,,,,
0.0,1.0,0.71031,,,,,,breadstick_08s.jpg,0.0,clock_6_6.png,5.0,52,,,,,,,,,,,,,,,,,,0.0,28.0,28.0,28.0,1.0,,,,,,,,,,
0.0,1.0,0.56759,,,,,,mailbox_11s.jpg,0.0,clock_7_1.png,6.0,52,,,,,,,,,,,,,,,,,,0.0,29.0,29.0,29.0,1.0,,,,,,,,,,
0.0,1.0,0.72279,,,,,,crystal_ball_12s.jpg,0.0,clock_7_2.png,6.0,52,,,,,,,,,,,,,,,,,,0.0,30.0,30.0,30.0,1.0,,,,,,,,,,
1.0,1.0,1.202455,,,,,,crystal_ball_12s.jpg,1.0,clock_7_3.png,6.0,52,,,,,,,,,,,,,,,,,,0.0,31.0,31.0,31.0,1.0,,,,,,,,,,
0.0,1.0,0.84094,,,,,,submarine_11n.jpg,0.0,clock_7_4.png,6.0,52,,,,,,,,,,,,,,,,,,0.0,32.0,32.0,32.0,1.0,,,,,,,,,,
0.0,1.0,1.014335,,,,,,ant_12s.jpg,0.0,clock_7_5.png,6.0,52,,,,,,,,,,,,,,,,,,0.0,33.0,33.0,33.0,1.0,,,,,,,,,,
0.0,1.0,1.092135,,,,,,smokingpipe.jpg,0.0,clock_7_6.png,6.0,52,,,,,,,,,,,,,,,,,,0.0,34.0,34.0,34.0,1.0,,,,,,,,,,
1.0,1.0,0.514615,,,,,,mailbox_11s.jpg,1.0,clock_7_7.png,6.0,52,,,,,,,,,,,,,,,,,,0.0,35.0,35.0,35.0,1.0,,,,,,,,,,
,,,,,,,,,1.0,,,52,1.0,1.0,8.156945,,,,,,razor_12s.jpg,lamppost_09s.jpg,,,,,,,,,,,,,0.0,0.0,0.0,0.0,1.0,,,,,
,,,,,,,,,1.0,,,52,1.0,1.0,5.918625,,,,,,film_03s.jpg,sushi_08s.jpg,,,,,,,,,,,,,0.0,1.0,1.0,1.0,1.0,,,,,
,,,,,,,,,0.0,,,52,1.0,0.0,11.060375,,,,,,panda_02s.jpg,tinsel_12s.jpg,,,,,,,,,,,,,0.0,2.0,2.0,2.0,1.0,,,,,
,,,,,,,,,0.0,,,52,0.0,1.0,3.692005,,,,,,ironing_board_07s.jpg,doily_13s.jpg,,,,,,,,,,,,,0.0,3.0,3.0,3.0,1.0,,,,,
,,,,,,,,,0.0,,,52,0.0,1.0,4.13178,,,,,,piano_13n.jpg,tripod_01b.jpg,,,,,,,,,,,,,0.0,4.0,4.0,4.0,1.0,,,,,
,,,,,,,,,0.0,,,52,0.0,1.0,2.610995,,,,,,spider_web_03s.jpg,spatula04.jpg,,,,,,,,,,,,,0.0,5.0,5.0,5.0,1.0,,,,,
,,,,,,,,,,,,52,,,,,,,,,,,,,,,,clock_present_5_14.xlsx,clock_compare_task_5_14.xlsx,,,,,,,,,,,0.0,4.0,4.0,4.0,1.0
0.0,1.0,0.56595,,,,,,orangutan_03s.jpg,0.0,clock_7_1.png,1.0,52,,,,,,,,,,,,,,,,,,0.0,0.0,0.0,0.0,1.0,,,,,,,,,,
0.0,1.0,0.793895,,,,,,squirrel_02s.jpg,0.0,clock_7_2.png,1.0,52,,,,,,,,,,,,,,,,,,0.0,1.0,1.0,1.0,1.0,,,,,,,,,,
0.0,1.0,1.32854,,,,,,tiara_05s.jpg,0.0,clock_7_3.png,1.0,52,,,,,,,,,,,,,,,,,,0.0,2.0,2.0,2.0,1.0,,,,,,,,,,
1.0,1.0,0.790895,,,,,,squirrel_02s.jpg,1.0,clock_7_4.png,1.0,52,,,,,,,,,,,,,,,,,,0.0,3.0,3.0,3.0,1.0,,,,,,,,,,
1.0,1.0,1.125085,,,,,,tiara_05s.jpg,1.0,clock_7_5.png,1.0,52,,,,,,,,,,,,,,,,,,0.0,4.0,4.0,4.0,1.0,,,,,,,,,,
0.0,1.0,0.738965,,,,,,mannequin_05s.jpg,0.0,clock_7_6.png,1.0,52,,,,,,,,,,,,,,,,,,0.0,5.0,5.0,5.0,1.0,,,,,,,,,,
0.0,1.0,1.36481,,,,,,omelet_07s.jpg,0.0,clock_7_7.png,1.0,52,,,,,,,,,,,,,,,,,,0.0,6.0,6.0,6.0,1.0,,,,,,,,,,
0.0,1.0,0.69164,,,,,,buoy_04s.jpg,0.0,clock_5_1.png,2.0,52,,,,,,,,,,,,,,,,,,0.0,7.0,7.0,7.0,1.0,,,,,,,,,,
0.0,1.0,0.685335,,,,,,meatball_13s.jpg,0.0,clock_5_2.png,2.0,52,,,,,,,,,,,,,,,,,,0.0,8.0,8.0,8.0,1.0,,,,,,,,,,
0.0,1.0,0.682275,,,,,,peppermint_07s.jpg,0.0,clock_5_3.png,2.0,52,,,,,,,,,,,,,,,,,,0.0,9.0,9.0,9.0,1.0,,,,,,,,,,
0.0,1.0,0.877795,,,,,,letter_opener_03s.jpg,0.0,clock_5_4.png,2.0,52,,,,,,,,,,,,,,,,,,0.0,10.0,10.0,10.0,1.0,,,,,,,,,,
0.0,1.0,0.665205,,,,,,jigsaw_puzzle_11s.jpg,0.0,clock_5_5.png,2.0,52,,,,,,,,,,,,,,,,,,0.0,11.0,11.0,11.0,1.0,,,,,,,,,,
0.0,1.0,0.67213,,,,,,bean_06s.jpg,0.0,clock_7_1.png,3.0,52,,,,,,,,,,,,,,,,,,0.0,12.0,12.0,12.0,1.0,,,,,,,,,,
0.0,1.0,0.78238,,,,,,tiara_05s.jpg,0.0,clock_7_2.png,3.0,52,,,,,,,,,,,,,,,,,,0.0,13.0,13.0,13.0,1.0,,,,,,,,,,
0.0,1.0,0.5894,,,,,,toothpaste_12s.jpg,0.0,clock_7_3.png,3.0,52,,,,,,,,,,,,,,,,,,0.0,14.0,14.0,14.0,1.0,,,,,,,,,,
0.0,1.0,0.578465,,,,,,toad_09s.jpg,0.0,clock_7_4.png,3.0,52,,,,,,,,,,,,,,,,,,0.0,15.0,15.0,15.0,1.0,,,,,,,,,,
0.0,1.0,0.693715,,,,,,reindeer_08s.jpg,0.0,clock_7_5.png,3.0,52,,,,,,,,,,,,,,,,,,0.0,16.0,16.0,16.0,1.0,,,,,,,,,,
0.0,1.0,0.804235,,,,,,refrigerator_07s.jpg,0.0,clock_7_6.png,3.0,52,,,,,,,,,,,,,,,,,,0.0,17.0,17.0,17.0,1.0,,,,,,,,,,
0.0,1.0,0.966235,,,,,,koala_13s.jpg,0.0,clock_7_7.png,3.0,52,,,,,,,,,,,,,,,,,,0.0,18.0,18.0,18.0,1.0,,,,,,,,,,
0.0,1.0,0.782455,,,,,,umbrella_15s.jpg,0.0,clock_5_1.png,4.0,52,,,,,,,,,,,,,,,,,,0.0,19.0,19.0,19.0,1.0,,,,,,,,,,
0.0,1.0,0.571225,,,,,,lamp_08s.jpg,0.0,clock_5_2.png,4.0,52,,,,,,,,,,,,,,,,,,0.0,20.0,20.0,20.0,1.0,,,,,,,,,,
0.0,1.0,0.95719,,,,,,bacon_05s.jpg,0.0,clock_5_3.png,4.0,52,,,,,,,,,,,,,,,,,,0.0,21.0,21.0,21.0,1.0,,,,,,,,,,
0.0,1.0,0.639515,,,,,,mug_06s.jpg,0.0,clock_5_4.png,4.0,52,,,,,,,,,,,,,,,,,,0.0,22.0,22.0,22.0,1.0,,,,,,,,,,
0.0,1.0,1.12103,,,,,,telephone_pole_05s.jpg,0.0,clock_5_5.png,4.0,52,,,,,,,,,,,,,,,,,,0.0,23.0,23.0,23.0,1.0,,,,,,,,,,
0.0,1.0,0.655615,,,,,,tablet_04s.jpg,0.0,clock_6_1.png,5.0,52,,,,,,,,,,,,,,,,,,0.0,24.0,24.0,24.0,1.0,,,,,,,,,,
0.0,1.0,0.614005,,,,,,flip_flop_03s.jpg,0.0,clock_6_2.png,5.0,52,,,,,,,,,,,,,,,,,,0.0,25.0,25.0,25.0,1.0,,,,,,,,,,
0.0,1.0,0.63156,,,,,,razor_blade_01b.jpg,0.0,clock_6_3.png,5.0,52,,,,,,,,,,,,,,,,,,0.0,26.0,26.0,26.0,1.0,,,,,,,,,,
0.0,1.0,0.631205,,,,,,turkey_10s.jpg,0.0,clock_6_4.png,5.0,52,,,,,,,,,,,,,,,,,,0.0,27.0,27.0,27.0,1.0,,,,,,,,,,
0.0,1.0,0.73495,,,,,,polar_bear_02s.jpg,0.0,clock_6_5.png,5.0,52,,,,,,,,,,,,,,,,,,0.0,28.0,28.0,28.0,1.0,,,,,,,,,,
0.0,1.0,0.79904,,,,,,pomegranate_04s.jpg,0.0,clock_6_6.png,5.0,52,,,,,,,,,,,,,,,,,,0.0,29.0,29.0,29.0,1.0,,,,,,,,,,
0.0,1.0,0.848035,,,,,,jetski_10s.jpg,0.0,clock_6_1.png,6.0,52,,,,,,,,,,,,,,,,,,0.0,30.0,30.0,30.0,1.0,,,,,,,,,,
0.0,1.0,0.77487,,,,,,milk_02s.jpg,0.0,clock_6_2.png,6.0,52,,,,,,,,,,,,,,,,,,0.0,31.0,31.0,31.0,1.0,,,,,,,,,,
0.0,1.0,0.70768,,,,,,undershirt_02s.jpg,0.0,clock_6_3.png,6.0,52,,,,,,,,,,,,,,,,,,0.0,32.0,32.0,32.0,1.0,,,,,,,,,,
0.0,1.0,0.897165,,,,,,megaphone_03s.jpg,0.0,clock_6_4.png,6.0,52,,,,,,,,,,,,,,,,,,0.0,33.0,33.0,33.0,1.0,,,,,,,,,,
0.0,1.0,1.10882,,,,,,licorice_06s.jpg,0.0,clock_6_5.png,6.0,52,,,,,,,,,,,,,,,,,,0.0,34.0,34.0,34.0,1.0,,,,,,,,,,
1.0,1.0,0.84012,,,,,,jetski_10s.jpg,1.0,clock_6_6.png,6.0,52,,,,,,,,,,,,,,,,,,0.0,35.0,35.0,35.0,1.0,,,,,,,,,,
,,,,,,,,,0.0,,,52,1.0,0.0,5.97732,,,,,,peppermint_07s.jpg,omelet_07s.jpg,,,,,,,,,,,,,0.0,0.0,0.0,0.0,1.0,,,,,
,,,,,,,,,0.0,,,52,1.0,0.0,6.56299,,,,,,meatball_13s.jpg,mannequin_05s.jpg,,,,,,,,,,,,,0.0,1.0,1.0,1.0,1.0,,,,,
,,,,,,,,,0.0,,,52,0.0,1.0,5.776935,,,,,,umbrella_15s.jpg,reindeer_08s.jpg,,,,,,,,,,,,,0.0,2.0,2.0,2.0,1.0,,,,,
,,,,,,,,,0.0,,,52,1.0,0.0,10.78722,,,,,,letter_opener_03s.jpg,buoy_04s.jpg,,,,,,,,,,,,,0.0,3.0,3.0,3.0,1.0,,,,,
,,,,,,,,,0.0,,,52,0.0,1.0,9.44859,,,,,,toad_09s.jpg,bean_06s.jpg,,,,,,,,,,,,,0.0,4.0,4.0,4.0,1.0,,,,,
,,,,,,,,,0.0,,,52,0.0,1.0,4.239115,,,,,,turkey_10s.jpg,tablet_04s.jpg,,,,,,,,,,,,,0.0,5.0,5.0,5.0,1.0,,,,,
