key_resp.keys,key_resp.corr,key_resp.rt,noclock_loop.thisRepN,noclock_loop.thisTrialN,noclock_loop.thisN,noclock_loop.thisIndex,noclock_loop.ran,pictures,answer,clock,segment,participant,key_resp_2.keys,key_resp_2.corr,key_resp_2.rt,noclock_loop2.thisRepN,noclock_loop2.thisTrialN,noclock_loop2.thisN,noclock_loop2.thisIndex,noclock_loop2.ran,item_a,item_b,noclock_condition.thisRepN,noclock_condition.thisTrialN,noclock_condition.thisN,noclock_condition.thisIndex,noclock_condition.ran,present,compare,present_segment.thisRepN,present_segment.thisTrialN,present_segment.thisN,present_segment.thisIndex,present_segment.ran,compare_segment.thisRepN,compare_segment.thisTrialN,compare_segment.thisN,compare_segment.thisIndex,compare_segment.ran,clock_conditions.thisRepN,clock_conditions.thisTrialN,clock_conditions.thisN,clock_conditions.thisIndex,clock_conditions.ran
0.0,1.0,1.218585,0.0,0.0,0.0,0.0,1.0,breadstick_08s.jpg,0.0,clockno_up.jpg,1.0,3,,,,,,,,,,,,,,,,,,,,,,,,,,,,,,,,
0.0,1.0,0.968785,0.0,1.0,1.0,1.0,1.0,sea_urchin_09s.jpg,0.0,clockno_default.jpg,1.0,3,,,,,,,,,,,,,,,,,,,,,,,,,,,,,,,,
1.0,1.0,1.234725,0.0,2.0,2.0,2.0,1.0,breadstick_08s.jpg,1.0,clockno_default.jpg,1.0,3,,,,,,,,,,,,,,,,,,,,,,,,,,,,,,,,
0.0,0.0,1.28526,0.0,3.0,3.0,3.0,1.0,sea_urchin_09s.jpg,1.0,clockno_default.jpg,1.0,3,,,,,,,,,,,,,,,,,,,,,,,,,,,,,,,,
0.0,1.0,0.839845,0.0,4.0,4.0,4.0,1.0,saddle_06s.jpg,0.0,clockno_default.jpg,1.0,3,,,,,,,,,,,,,,,,,,,,,,,,,,,,,,,,
1.0,1.0,1.281145,0.0,5.0,5.0,5.0,1.0,saddle_06s.jpg,1.0,clockno_default.jpg,1.0,3,,,,,,,,,,,,,,,,,,,,,,,,,,,,,,,,
0.0,1.0,1.05798,0.0,6.0,6.0,6.0,1.0,mousetrap_15n.jpg,0.0,clockno_up.jpg,2.0,3,,,,,,,,,,,,,,,,,,,,,,,,,,,,,,,,
0.0,1.0,0.85144,0.0,7.0,7.0,7.0,1.0,owl_15s.jpg,0.0,clockno_default.jpg,2.0,3,,,,,,,,,,,,,,,,,,,,,,,,,,,,,,,,
1.0,1.0,1.108845,0.0,8.0,8.0,8.0,1.0,mousetrap_15n.jpg,1.0,clockno_default.jpg,2.0,3,,,,,,,,,,,,,,,,,,,,,,,,,,,,,,,,
1.0,1.0,1.058225,0.0,9.0,9.0,9.0,1.0,owl_15s.jpg,1.0,clockno_default.jpg,2.0,3,,,,,,,,,,,,,,,,,,,,,,,,,,,,,,,,
1.0,1.0,1.07961,0.0,10.0,10.0,10.0,1.0,owl_15s.jpg,1.0,clockno_default.jpg,2.0,3,,,,,,,,,,,,,,,,,,,,,,,,,,,,,,,,
0.0,1.0,1.87826,0.0,11.0,11.0,11.0,1.0,popsicle_02s.jpg,0.0,clockno_default.jpg,2.0,3,,,,,,,,,,,,,,,,,,,,,,,,,,,,,,,,
0.0,1.0,0.88335,0.0,12.0,12.0,12.0,1.0,screwdriver02a.jpg,0.0,clockno_default.jpg,2.0,3,,,,,,,,,,,,,,,,,,,,,,,,,,,,,,,,
0.0,1.0,1.007375,0.0,13.0,13.0,13.0,1.0,paper_towel_03s.jpg,0.0,clockno_up.jpg,3.0,3,,,,,,,,,,,,,,,,,,,,,,,,,,,,,,,,
0.0,1.0,0.97667,0.0,14.0,14.0,14.0,1.0,mug_06s.jpg,0.0,clockno_default.jpg,3.0,3,,,,,,,,,,,,,,,,,,,,,,,,,,,,,,,,
0.0,1.0,1.30736,0.0,15.0,15.0,15.0,1.0,undershirt_02s.jpg,0.0,clockno_default.jpg,3.0,3,,,,,,,,,,,,,,,,,,,,,,,,,,,,,,,,
0.0,1.0,0.934135,0.0,16.0,16.0,16.0,1.0,cape_11s.jpg,0.0,clockno_default.jpg,3.0,3,,,,,,,,,,,,,,,,,,,,,,,,,,,,,,,,
0.0,1.0,1.250695,0.0,17.0,17.0,17.0,1.0,lamp_08s.jpg,0.0,clockno_default.jpg,3.0,3,,,,,,,,,,,,,,,,,,,,,,,,,,,,,,,,
0.0,1.0,1.109625,0.0,18.0,18.0,18.0,1.0,padlock_07s.jpg,0.0,clockno_default.jpg,3.0,3,,,,,,,,,,,,,,,,,,,,,,,,,,,,,,,,
0.0,1.0,1.155965,0.0,19.0,19.0,19.0,1.0,lab_coat_11s.jpg,0.0,clockno_default.jpg,3.0,3,,,,,,,,,,,,,,,,,,,,,,,,,,,,,,,,
0.0,1.0,1.46712,0.0,20.0,20.0,20.0,1.0,badge_03s.jpg,0.0,clockno_up.jpg,4.0,3,,,,,,,,,,,,,,,,,,,,,,,,,,,,,,,,
0.0,1.0,1.085685,0.0,21.0,21.0,21.0,1.0,go-kart_10s.jpg,0.0,clockno_default.jpg,4.0,3,,,,,,,,,,,,,,,,,,,,,,,,,,,,,,,,
0.0,1.0,1.49884,0.0,22.0,22.0,22.0,1.0,parachute_03s.jpg,0.0,clockno_default.jpg,4.0,3,,,,,,,,,,,,,,,,,,,,,,,,,,,,,,,,
0.0,1.0,1.14261,0.0,23.0,23.0,23.0,1.0,scooter.jpg,0.0,clockno_default.jpg,4.0,3,,,,,,,,,,,,,,,,,,,,,,,,,,,,,,,,
0.0,1.0,1.324245,0.0,24.0,24.0,24.0,1.0,letter_opener_03s.jpg,0.0,clockno_default.jpg,4.0,3,,,,,,,,,,,,,,,,,,,,,,,,,,,,,,,,
1.0,1.0,1.202045,0.0,25.0,25.0,25.0,1.0,parachute_03s.jpg,1.0,clockno_default.jpg,4.0,3,,,,,,,,,,,,,,,,,,,,,,,,,,,,,,,,
0.0,1.0,0.986575,0.0,26.0,26.0,26.0,1.0,throne_11s.jpg,0.0,clockno_up.jpg,5.0,3,,,,,,,,,,,,,,,,,,,,,,,,,,,,,,,,
0.0,1.0,1.00758,0.0,27.0,27.0,27.0,1.0,owl_15s.jpg,0.0,clockno_default.jpg,5.0,3,,,,,,,,,,,,,,,,,,,,,,,,,,,,,,,,
1.0,1.0,1.196285,0.0,28.0,28.0,28.0,1.0,throne_11s.jpg,1.0,clockno_default.jpg,5.0,3,,,,,,,,,,,,,,,,,,,,,,,,,,,,,,,,
0.0,1.0,0.99861,0.0,29.0,29.0,29.0,1.0,rocking_horse_03s.jpg,0.0,clockno_default.jpg,5.0,3,,,,,,,,,,,,,,,,,,,,,,,,,,,,,,,,
0.0,1.0,0.90393,0.0,30.0,30.0,30.0,1.0,swordfish_05s.jpg,0.0,clockno_default.jpg,5.0,3,,,,,,,,,,,,,,,,,,,,,,,,,,,,,,,,
0.0,1.0,0.866865,0.0,31.0,31.0,31.0,1.0,tupperware_09s.jpg,0.0,clockno_up.jpg,6.0,3,,,,,,,,,,,,,,,,,,,,,,,,,,,,,,,,
0.0,1.0,1.064045,0.0,32.0,32.0,32.0,1.0,rocking_chair_05s.jpg,0.0,clockno_default.jpg,6.0,3,,,,,,,,,,,,,,,,,,,,,,,,,,,,,,,,
0.0,1.0,1.586125,0.0,33.0,33.0,33.0,1.0,padlock_07s.jpg,0.0,clockno_default.jpg,6.0,3,,,,,,,,,,,,,,,,,,,,,,,,,,,,,,,,
0.0,1.0,1.42538,0.0,34.0,34.0,34.0,1.0,machete_06s.jpg,0.0,clockno_default.jpg,6.0,3,,,,,,,,,,,,,,,,,,,,,,,,,,,,,,,,
0.0,0.0,1.14454,0.0,35.0,35.0,35.0,1.0,tupperware_09s.jpg,1.0,clockno_default.jpg,6.0,3,,,,,,,,,,,,,,,,,,,,,,,,,,,,,,,,
,,,,,,,,,1.0,,,3,0.0,0.0,2.38037,0.0,0.0,0.0,0.0,1.0,screwdriver02a.jpg,undershirt_02s.jpg,,,,,,,,,,,,,,,,,,,,,,
,,,,,,,,,0.0,,,3,1.0,0.0,2.821805,0.0,1.0,1.0,1.0,1.0,rocking_chair_05s.jpg,rocking_horse_03s.jpg,,,,,,,,,,,,,,,,,,,,,,
,,,,,,,,,0.0,,,3,0.0,1.0,3.15257,0.0,2.0,2.0,2.0,1.0,mug_06s.jpg,popsicle_02s.jpg,,,,,,,,,,,,,,,,,,,,,,
,,,,,,,,,1.0,,,3,0.0,0.0,2.696135,0.0,3.0,3.0,3.0,1.0,paper_towel_03s.jpg,cape_11s.jpg,,,,,,,,,,,,,,,,,,,,,,
,,,,,,,,,1.0,,,3,1.0,1.0,3.90793,0.0,4.0,4.0,4.0,1.0,go-kart_10s.jpg,letter_opener_03s.jpg,,,,,,,,,,,,,,,,,,,,,,
,,,,,,,,,0.0,,,3,0.0,1.0,2.84128,0.0,5.0,5.0,5.0,1.0,scooter.jpg,badge_03s.jpg,,,,,,,,,,,,,,,,,,,,,,
,,,,,,,,,,,,3,,,,,,,,,,,0.0,0.0,0.0,0.0,1.0,clockno_present_1_8.xlsx,clockno_compare_task_1_8.xlsx,,,,,,,,,,,,,,,
0.0,1.0,1.00054,0.0,0.0,0.0,0.0,1.0,towel_rack_04s.jpg,0.0,clockno_up.jpg,1.0,3,,,,,,,,,,,,,,,,,,,,,,,,,,,,,,,,
0.0,1.0,0.96527,0.0,1.0,1.0,1.0,1.0,microwave_02s.jpg,0.0,clockno_default.jpg,1.0,3,,,,,,,,,,,,,,,,,,,,,,,,,,,,,,,,
0.0,1.0,0.78818,0.0,2.0,2.0,2.0,1.0,quesadilla_07s.jpg,0.0,clockno_default.jpg,1.0,3,,,,,,,,,,,,,,,,,,,,,,,,,,,,,,,,
0.0,1.0,0.861275,0.0,3.0,3.0,3.0,1.0,ring_03s.jpg,0.0,clockno_default.jpg,1.0,3,,,,,,,,,,,,,,,,,,,,,,,,,,,,,,,,
0.0,1.0,0.740895,0.0,4.0,4.0,4.0,1.0,jalapeno_15s.jpg,0.0,clockno_default.jpg,1.0,3,,,,,,,,,,,,,,,,,,,,,,,,,,,,,,,,
0.0,1.0,0.86966,0.0,5.0,5.0,5.0,1.0,rollerskate_03s.jpg,0.0,clockno_default.jpg,1.0,3,,,,,,,,,,,,,,,,,,,,,,,,,,,,,,,,
1.0,1.0,1.75024,0.0,6.0,6.0,6.0,1.0,jalapeno_15s.jpg,1.0,clockno_default.jpg,1.0,3,,,,,,,,,,,,,,,,,,,,,,,,,,,,,,,,
0.0,1.0,0.99059,0.0,7.0,7.0,7.0,1.0,thermostat_02s.jpg,0.0,clockno_up.jpg,2.0,3,,,,,,,,,,,,,,,,,,,,,,,,,,,,,,,,
1.0,1.0,1.070165,0.0,8.0,8.0,8.0,1.0,thermostat_02s.jpg,1.0,clockno_default.jpg,2.0,3,,,,,,,,,,,,,,,,,,,,,,,,,,,,,,,,
0.0,1.0,1.028285,0.0,9.0,9.0,9.0,1.0,pepper2_21s.jpg,0.0,clockno_default.jpg,2.0,3,,,,,,,,,,,,,,,,,,,,,,,,,,,,,,,,
0.0,1.0,0.86015,0.0,10.0,10.0,10.0,1.0,lava_02s.jpg,0.0,clockno_default.jpg,2.0,3,,,,,,,,,,,,,,,,,,,,,,,,,,,,,,,,
0.0,1.0,0.87954,0.0,11.0,11.0,11.0,1.0,butter_14s.jpg,0.0,clockno_default.jpg,2.0,3,,,,,,,,,,,,,,,,,,,,,,,,,,,,,,,,
0.0,1.0,1.167795,0.0,12.0,12.0,12.0,1.0,hummingbird_05s.jpg,0.0,clockno_up.jpg,3.0,3,,,,,,,,,,,,,,,,,,,,,,,,,,,,,,,,
0.0,1.0,1.043715,0.0,13.0,13.0,13.0,1.0,jalapeno_15s.jpg,0.0,clockno_default.jpg,3.0,3,,,,,,,,,,,,,,,,,,,,,,,,,,,,,,,,
0.0,1.0,0.882395,0.0,14.0,14.0,14.0,1.0,stump_02s.jpg,0.0,clockno_default.jpg,3.0,3,,,,,,,,,,,,,,,,,,,,,,,,,,,,,,,,
0.0,1.0,1.031685,0.0,15.0,15.0,15.0,1.0,luggage_08s.jpg,0.0,clockno_default.jpg,3.0,3,,,,,,,,,,,,,,,,,,,,,,,,,,,,,,,,
1.0,1.0,0.99393,0.0,16.0,16.0,16.0,1.0,luggage_08s.jpg,1.0,clockno_default.jpg,3.0,3,,,,,,,,,,,,,,,,,,,,,,,,,,,,,,,,
0.0,1.0,0.91348,0.0,17.0,17.0,17.0,1.0,pomegranate_04s.jpg,0.0,clockno_default.jpg,3.0,3,,,,,,,,,,,,,,,,,,,,,,,,,,,,,,,,
0.0,1.0,1.49868,0.0,18.0,18.0,18.0,1.0,swing_set_15s.jpg,0.0,clockno_default.jpg,3.0,3,,,,,,,,,,,,,,,,,,,,,,,,,,,,,,,,
0.0,1.0,1.30475,0.0,19.0,19.0,19.0,1.0,jigsaw_puzzle_11s.jpg,0.0,clockno_up.jpg,4.0,3,,,,,,,,,,,,,,,,,,,,,,,,,,,,,,,,
0.0,1.0,1.240285,0.0,20.0,20.0,20.0,1.0,toilet_07s.jpg,0.0,clockno_default.jpg,4.0,3,,,,,,,,,,,,,,,,,,,,,,,,,,,,,,,,
0.0,1.0,0.97991,0.0,21.0,21.0,21.0,1.0,turtleneck_11s.jpg,0.0,clockno_default.jpg,4.0,3,,,,,,,,,,,,,,,,,,,,,,,,,,,,,,,,
0.0,1.0,1.101425,0.0,22.0,22.0,22.0,1.0,trident_07s.jpg,0.0,clockno_default.jpg,4.0,3,,,,,,,,,,,,,,,,,,,,,,,,,,,,,,,,
0.0,1.0,1.245905,0.0,23.0,23.0,23.0,1.0,contact_lens_15s.jpg,0.0,clockno_default.jpg,4.0,3,,,,,,,,,,,,,,,,,,,,,,,,,,,,,,,,
0.0,1.0,1.239175,0.0,24.0,24.0,24.0,1.0,plunger_08s.jpg,0.0,clockno_default.jpg,4.0,3,,,,,,,,,,,,,,,,,,,,,,,,,,,,,,,,
0.0,1.0,1.12364,0.0,25.0,25.0,25.0,1.0,timer_03s.jpg,0.0,clockno_up.jpg,5.0,3,,,,,,,,,,,,,,,,,,,,,,,,,,,,,,,,
1.0,1.0,0.92582,0.0,26.0,26.0,26.0,1.0,timer_03s.jpg,1.0,clockno_default.jpg,5.0,3,,,,,,,,,,,,,,,,,,,,,,,,,,,,,,,,
0.0,1.0,0.961255,0.0,27.0,27.0,27.0,1.0,spacesuit_02s.jpg,0.0,clockno_default.jpg,5.0,3,,,,,,,,,,,,,,,,,,,,,,,,,,,,,,,,
0.0,1.0,1.127855,0.0,28.0,28.0,28.0,1.0,roller_coaster_07s.jpg,0.0,clockno_default.jpg,5.0,3,,,,,,,,,,,,,,,,,,,,,,,,,,,,,,,,
0.0,1.0,0.913525,0.0,29.0,29.0,29.0,1.0,pocketknife_12s.jpg,0.0,clockno_default.jpg,5.0,3,,,,,,,,,,,,,,,,,,,,,,,,,,,,,,,,
0.0,1.0,1.08315,0.0,30.0,30.0,30.0,1.0,jewel_01b.jpg,0.0,clockno_up.jpg,6.0,3,,,,,,,,,,,,,,,,,,,,,,,,,,,,,,,,
0.0,1.0,1.13919,0.0,31.0,31.0,31.0,1.0,harpoon.jpg,0.0,clockno_default.jpg,6.0,3,,,,,,,,,,,,,,,,,,,,,,,,,,,,,,,,
0.0,1.0,0.979605,0.0,32.0,32.0,32.0,1.0,tinsel_12s.jpg,0.0,clockno_default.jpg,6.0,3,,,,,,,,,,,,,,,,,,,,,,,,,,,,,,,,
1.0,1.0,1.207475,0.0,33.0,33.0,33.0,1.0,tinsel_12s.jpg,1.0,clockno_default.jpg,6.0,3,,,,,,,,,,,,,,,,,,,,,,,,,,,,,,,,
1.0,1.0,1.108955,0.0,34.0,34.0,34.0,1.0,jewel_01b.jpg,1.0,clockno_default.jpg,6.0,3,,,,,,,,,,,,,,,,,,,,,,,,,,,,,,,,
0.0,1.0,1.01444,0.0,35.0,35.0,35.0,1.0,submarine_11n.jpg,0.0,clockno_default.jpg,6.0,3,,,,,,,,,,,,,,,,,,,,,,,,,,,,,,,,
,,,,,,,,,1.0,,,3,1.0,1.0,2.38605,0.0,0.0,0.0,0.0,1.0,pepper2_21s.jpg,hummingbird_05s.jpg,,,,,,,,,,,,,,,,,,,,,,
,,,,,,,,,0.0,,,3,0.0,1.0,2.491015,0.0,1.0,1.0,1.0,1.0,harpoon.jpg,roller_coaster_07s.jpg,,,,,,,,,,,,,,,,,,,,,,
,,,,,,,,,1.0,,,3,1.0,1.0,3.74517,0.0,2.0,2.0,2.0,1.0,butter_14s.jpg,stump_02s.jpg,,,,,,,,,,,,,,,,,,,,,,
,,,,,,,,,0.0,,,3,0.0,1.0,1.607895,0.0,3.0,3.0,3.0,1.0,ring_03s.jpg,towel_rack_04s.jpg,,,,,,,,,,,,,,,,,,,,,,
,,,,,,,,,0.0,,,3,0.0,1.0,1.65331,0.0,4.0,4.0,4.0,1.0,rollerskate_03s.jpg,quesadilla_07s.jpg,,,,,,,,,,,,,,,,,,,,,,
,,,,,,,,,0.0,,,3,0.0,1.0,1.82978,0.0,5.0,5.0,5.0,1.0,trident_07s.jpg,jigsaw_puzzle_11s.jpg,,,,,,,,,,,,,,,,,,,,,,
,,,,,,,,,,,,3,,,,,,,,,,,0.0,1.0,1.0,1.0,1.0,clockno_present_2_8.xlsx,clockno_compare_task_2_8.xlsx,,,,,,,,,,,,,,,
0.0,1.0,0.83334,0.0,0.0,0.0,0.0,1.0,peppermint_07s.jpg,0.0,clockno_up.jpg,1.0,3,,,,,,,,,,,,,,,,,,,,,,,,,,,,,,,,
0.0,1.0,0.75382,0.0,1.0,1.0,1.0,1.0,teapot_03s.jpg,0.0,clockno_default.jpg,1.0,3,,,,,,,,,,,,,,,,,,,,,,,,,,,,,,,,
0.0,1.0,0.792015,0.0,2.0,2.0,2.0,1.0,funnel_01b.jpg,0.0,clockno_default.jpg,1.0,3,,,,,,,,,,,,,,,,,,,,,,,,,,,,,,,,
0.0,1.0,0.82034,0.0,3.0,3.0,3.0,1.0,incense_02s.jpg,0.0,clockno_default.jpg,1.0,3,,,,,,,,,,,,,,,,,,,,,,,,,,,,,,,,
1.0,1.0,1.259955,0.0,4.0,4.0,4.0,1.0,teapot_03s.jpg,1.0,clockno_default.jpg,1.0,3,,,,,,,,,,,,,,,,,,,,,,,,,,,,,,,,
0.0,1.0,0.85361,0.0,5.0,5.0,5.0,1.0,licorice_06s.jpg,0.0,clockno_up.jpg,2.0,3,,,,,,,,,,,,,,,,,,,,,,,,,,,,,,,,
0.0,1.0,0.81371,0.0,6.0,6.0,6.0,1.0,sunglasses_11s.jpg,0.0,clockno_default.jpg,2.0,3,,,,,,,,,,,,,,,,,,,,,,,,,,,,,,,,
0.0,1.0,1.37473,0.0,7.0,7.0,7.0,1.0,funnel_01b.jpg,0.0,clockno_default.jpg,2.0,3,,,,,,,,,,,,,,,,,,,,,,,,,,,,,,,,
0.0,1.0,0.93638,0.0,8.0,8.0,8.0,1.0,rice_12s.jpg,0.0,clockno_default.jpg,2.0,3,,,,,,,,,,,,,,,,,,,,,,,,,,,,,,,,
1.0,1.0,1.06261,0.0,9.0,9.0,9.0,1.0,rice_12s.jpg,1.0,clockno_default.jpg,2.0,3,,,,,,,,,,,,,,,,,,,,,,,,,,,,,,,,
0.0,1.0,0.895835,0.0,10.0,10.0,10.0,1.0,emerald_02s.jpg,0.0,clockno_default.jpg,2.0,3,,,,,,,,,,,,,,,,,,,,,,,,,,,,,,,,
0.0,1.0,0.938305,0.0,11.0,11.0,11.0,1.0,raccoon_02s.jpg,0.0,clockno_default.jpg,2.0,3,,,,,,,,,,,,,,,,,,,,,,,,,,,,,,,,
0.0,1.0,0.756975,0.0,12.0,12.0,12.0,1.0,cushion_08s.jpg,0.0,clockno_up.jpg,3.0,3,,,,,,,,,,,,,,,,,,,,,,,,,,,,,,,,
0.0,1.0,0.92377,0.0,13.0,13.0,13.0,1.0,tiger_06s.jpg,0.0,clockno_default.jpg,3.0,3,,,,,,,,,,,,,,,,,,,,,,,,,,,,,,,,
1.0,1.0,1.038065,0.0,14.0,14.0,14.0,1.0,cushion_08s.jpg,1.0,clockno_default.jpg,3.0,3,,,,,,,,,,,,,,,,,,,,,,,,,,,,,,,,
0.0,1.0,0.679335,0.0,15.0,15.0,15.0,1.0,stamp1_11s.jpg,0.0,clockno_default.jpg,3.0,3,,,,,,,,,,,,,,,,,,,,,,,,,,,,,,,,
0.0,1.0,0.892465,0.0,16.0,16.0,16.0,1.0,cereal_04s.jpg,0.0,clockno_default.jpg,3.0,3,,,,,,,,,,,,,,,,,,,,,,,,,,,,,,,,
0.0,1.0,0.976365,0.0,17.0,17.0,17.0,1.0,jersey_02s.jpg,0.0,clockno_up.jpg,4.0,3,,,,,,,,,,,,,,,,,,,,,,,,,,,,,,,,
0.0,1.0,0.807115,0.0,18.0,18.0,18.0,1.0,tomato_sauce_09s.jpg,0.0,clockno_default.jpg,4.0,3,,,,,,,,,,,,,,,,,,,,,,,,,,,,,,,,
0.0,1.0,0.87529,0.0,19.0,19.0,19.0,1.0,toad_09s.jpg,0.0,clockno_default.jpg,4.0,3,,,,,,,,,,,,,,,,,,,,,,,,,,,,,,,,
0.0,1.0,0.85759,0.0,20.0,20.0,20.0,1.0,fire_pit_10s.jpg,0.0,clockno_default.jpg,4.0,3,,,,,,,,,,,,,,,,,,,,,,,,,,,,,,,,
0.0,1.0,0.843365,0.0,21.0,21.0,21.0,1.0,keyhole_03s.jpg,0.0,clockno_default.jpg,4.0,3,,,,,,,,,,,,,,,,,,,,,,,,,,,,,,,,
0.0,1.0,0.884515,0.0,22.0,22.0,22.0,1.0,comic_book_02s.jpg,0.0,clockno_default.jpg,4.0,3,,,,,,,,,,,,,,,,,,,,,,,,,,,,,,,,
0.0,1.0,0.96207,0.0,23.0,23.0,23.0,1.0,pencil02a.jpg,0.0,clockno_up.jpg,5.0,3,,,,,,,,,,,,,,,,,,,,,,,,,,,,,,,,
0.0,1.0,1.15982,0.0,24.0,24.0,24.0,1.0,punch2_09s.jpg,0.0,clockno_default.jpg,5.0,3,,,,,,,,,,,,,,,,,,,,,,,,,,,,,,,,
0.0,1.0,0.948095,0.0,25.0,25.0,25.0,1.0,chime_12s.jpg,0.0,clockno_default.jpg,5.0,3,,,,,,,,,,,,,,,,,,,,,,,,,,,,,,,,
1.0,1.0,1.653305,0.0,26.0,26.0,26.0,1.0,pencil02a.jpg,1.0,clockno_default.jpg,5.0,3,,,,,,,,,,,,,,,,,,,,,,,,,,,,,,,,
0.0,1.0,1.16141,0.0,27.0,27.0,27.0,1.0,lip_gloss_06s.jpg,0.0,clockno_default.jpg,5.0,3,,,,,,,,,,,,,,,,,,,,,,,,,,,,,,,,
0.0,1.0,1.013045,0.0,28.0,28.0,28.0,1.0,rocket_02s.jpg,0.0,clockno_default.jpg,5.0,3,,,,,,,,,,,,,,,,,,,,,,,,,,,,,,,,
0.0,0.0,1.295635,0.0,29.0,29.0,29.0,1.0,punch2_09s.jpg,1.0,clockno_default.jpg,5.0,3,,,,,,,,,,,,,,,,,,,,,,,,,,,,,,,,
0.0,1.0,0.618195,0.0,30.0,30.0,30.0,1.0,crate_05s.jpg,0.0,clockno_up.jpg,6.0,3,,,,,,,,,,,,,,,,,,,,,,,,,,,,,,,,
1.0,1.0,0.86555,0.0,31.0,31.0,31.0,1.0,crate_05s.jpg,1.0,clockno_default.jpg,6.0,3,,,,,,,,,,,,,,,,,,,,,,,,,,,,,,,,
0.0,1.0,0.72351,0.0,32.0,32.0,32.0,1.0,blazer_02s.jpg,0.0,clockno_default.jpg,6.0,3,,,,,,,,,,,,,,,,,,,,,,,,,,,,,,,,
0.0,1.0,0.77794,0.0,33.0,33.0,33.0,1.0,fork_04s.jpg,0.0,clockno_default.jpg,6.0,3,,,,,,,,,,,,,,,,,,,,,,,,,,,,,,,,
0.0,1.0,1.060495,0.0,34.0,34.0,34.0,1.0,target_11s.jpg,0.0,clockno_default.jpg,6.0,3,,,,,,,,,,,,,,,,,,,,,,,,,,,,,,,,
0.0,1.0,0.80064,0.0,35.0,35.0,35.0,1.0,meatball_13s.jpg,0.0,clockno_default.jpg,6.0,3,,,,,,,,,,,,,,,,,,,,,,,,,,,,,,,,
,,,,,,,,,1.0,,,3,1.0,1.0,1.84829,0.0,0.0,0.0,0.0,1.0,incense_02s.jpg,sunglasses_11s.jpg,,,,,,,,,,,,,,,,,,,,,,
,,,,,,,,,0.0,,,3,1.0,0.0,2.029315,0.0,1.0,1.0,1.0,1.0,tiger_06s.jpg,emerald_02s.jpg,,,,,,,,,,,,,,,,,,,,,,
,,,,,,,,,1.0,,,3,1.0,1.0,2.4859,0.0,2.0,2.0,2.0,1.0,stamp1_11s.jpg,tomato_sauce_09s.jpg,,,,,,,,,,,,,,,,,,,,,,
,,,,,,,,,0.0,,,3,1.0,0.0,3.218645,0.0,3.0,3.0,3.0,1.0,fire_pit_10s.jpg,jersey_02s.jpg,,,,,,,,,,,,,,,,,,,,,,
,,,,,,,,,0.0,,,3,0.0,1.0,3.22599,0.0,4.0,4.0,4.0,1.0,meatball_13s.jpg,blazer_02s.jpg,,,,,,,,,,,,,,,,,,,,,,
,,,,,,,,,0.0,,,3,0.0,1.0,1.85125,0.0,5.0,5.0,5.0,1.0,rocket_02s.jpg,chime_12s.jpg,,,,,,,,,,,,,,,,,,,,,,
,,,,,,,,,,,,3,,,,,,,,,,,0.0,2.0,2.0,2.0,1.0,clockno_present_3_8.xlsx,clockno_compare_task_3_8.xlsx,,,,,,,,,,,,,,,
0.0,1.0,1.403395,0.0,0.0,0.0,0.0,1.0,kangaroo_02s.jpg,0.0,clockno_up.jpg,1.0,3,,,,,,,,,,,,,,,,,,,,,,,,,,,,,,,,
1.0,1.0,0.864765,0.0,1.0,1.0,1.0,1.0,kangaroo_02s.jpg,1.0,clockno_default.jpg,1.0,3,,,,,,,,,,,,,,,,,,,,,,,,,,,,,,,,
0.0,1.0,1.37848,0.0,2.0,2.0,2.0,1.0,kettle_08s.jpg,0.0,clockno_default.jpg,1.0,3,,,,,,,,,,,,,,,,,,,,,,,,,,,,,,,,
0.0,1.0,1.25916,0.0,3.0,3.0,3.0,1.0,cotton_candy_01b.jpg,0.0,clockno_default.jpg,1.0,3,,,,,,,,,,,,,,,,,,,,,,,,,,,,,,,,
1.0,1.0,0.82977,0.0,4.0,4.0,4.0,1.0,kettle_08s.jpg,1.0,clockno_default.jpg,1.0,3,,,,,,,,,,,,,,,,,,,,,,,,,,,,,,,,
0.0,1.0,0.95595,0.0,5.0,5.0,5.0,1.0,lamb_04s.jpg,0.0,clockno_default.jpg,1.0,3,,,,,,,,,,,,,,,,,,,,,,,,,,,,,,,,
0.0,1.0,1.025055,0.0,6.0,6.0,6.0,1.0,checkbook_11s.jpg,0.0,clockno_up.jpg,2.0,3,,,,,,,,,,,,,,,,,,,,,,,,,,,,,,,,
0.0,1.0,0.733865,0.0,7.0,7.0,7.0,1.0,gargoyle_08s.jpg,0.0,clockno_default.jpg,2.0,3,,,,,,,,,,,,,,,,,,,,,,,,,,,,,,,,
0.0,1.0,0.83028,0.0,8.0,8.0,8.0,1.0,megaphone_03s.jpg,0.0,clockno_default.jpg,2.0,3,,,,,,,,,,,,,,,,,,,,,,,,,,,,,,,,
0.0,1.0,0.920345,0.0,9.0,9.0,9.0,1.0,dirt_bike_11s.jpg,0.0,clockno_default.jpg,2.0,3,,,,,,,,,,,,,,,,,,,,,,,,,,,,,,,,
0.0,1.0,0.85898,0.0,10.0,10.0,10.0,1.0,stamp2_08s.jpg,0.0,clockno_default.jpg,2.0,3,,,,,,,,,,,,,,,,,,,,,,,,,,,,,,,,
0.0,1.0,0.94406,0.0,11.0,11.0,11.0,1.0,rope_16s.jpg,0.0,clockno_default.jpg,2.0,3,,,,,,,,,,,,,,,,,,,,,,,,,,,,,,,,
0.0,1.0,1.09847,0.0,12.0,12.0,12.0,1.0,lamb_chop_07s.jpg,0.0,clockno_default.jpg,2.0,3,,,,,,,,,,,,,,,,,,,,,,,,,,,,,,,,
0.0,1.0,0.95709,0.0,13.0,13.0,13.0,1.0,taxi_15s.jpg,0.0,clockno_up.jpg,3.0,3,,,,,,,,,,,,,,,,,,,,,,,,,,,,,,,,
0.0,1.0,0.785515,0.0,14.0,14.0,14.0,1.0,recliner_02s.jpg,0.0,clockno_default.jpg,3.0,3,,,,,,,,,,,,,,,,,,,,,,,,,,,,,,,,
0.0,1.0,1.04131,0.0,15.0,15.0,15.0,1.0,jelly_bean_06s.jpg,0.0,clockno_default.jpg,3.0,3,,,,,,,,,,,,,,,,,,,,,,,,,,,,,,,,
0.0,1.0,0.8258,0.0,16.0,16.0,16.0,1.0,smoothie_09s.jpg,0.0,clockno_default.jpg,3.0,3,,,,,,,,,,,,,,,,,,,,,,,,,,,,,,,,
0.0,0.0,1.281445,0.0,17.0,17.0,17.0,1.0,taxi_15s.jpg,1.0,clockno_default.jpg,3.0,3,,,,,,,,,,,,,,,,,,,,,,,,,,,,,,,,
1.0,1.0,0.808065,0.0,18.0,18.0,18.0,1.0,taxi_15s.jpg,1.0,clockno_default.jpg,3.0,3,,,,,,,,,,,,,,,,,,,,,,,,,,,,,,,,
0.0,1.0,0.871475,0.0,19.0,19.0,19.0,1.0,sushi_08s.jpg,0.0,clockno_default.jpg,3.0,3,,,,,,,,,,,,,,,,,,,,,,,,,,,,,,,,
0.0,1.0,1.026335,0.0,20.0,20.0,20.0,1.0,penlight_12s.jpg,0.0,clockno_up.jpg,4.0,3,,,,,,,,,,,,,,,,,,,,,,,,,,,,,,,,
1.0,1.0,1.382615,0.0,21.0,21.0,21.0,1.0,penlight_12s.jpg,1.0,clockno_default.jpg,4.0,3,,,,,,,,,,,,,,,,,,,,,,,,,,,,,,,,
1.0,1.0,0.913695,0.0,22.0,22.0,22.0,1.0,penlight_12s.jpg,1.0,clockno_default.jpg,4.0,3,,,,,,,,,,,,,,,,,,,,,,,,,,,,,,,,
0.0,1.0,1.166255,0.0,23.0,23.0,23.0,1.0,jet_15s.jpg,0.0,clockno_default.jpg,4.0,3,,,,,,,,,,,,,,,,,,,,,,,,,,,,,,,,
0.0,1.0,1.188965,0.0,24.0,24.0,24.0,1.0,power_line_08s.jpg,0.0,clockno_default.jpg,4.0,3,,,,,,,,,,,,,,,,,,,,,,,,,,,,,,,,
0.0,1.0,0.926375,0.0,25.0,25.0,25.0,1.0,orange_12s.jpg,0.0,clockno_up.jpg,5.0,3,,,,,,,,,,,,,,,,,,,,,,,,,,,,,,,,
0.0,1.0,0.77378,0.0,26.0,26.0,26.0,1.0,fishhook_06s.jpg,0.0,clockno_default.jpg,5.0,3,,,,,,,,,,,,,,,,,,,,,,,,,,,,,,,,
0.0,1.0,0.849455,0.0,27.0,27.0,27.0,1.0,crystal_ball_12s.jpg,0.0,clockno_default.jpg,5.0,3,,,,,,,,,,,,,,,,,,,,,,,,,,,,,,,,
0.0,1.0,1.03459,0.0,28.0,28.0,28.0,1.0,taxi_15s.jpg,0.0,clockno_default.jpg,5.0,3,,,,,,,,,,,,,,,,,,,,,,,,,,,,,,,,
0.0,1.0,0.888055,0.0,29.0,29.0,29.0,1.0,pineapple_12s.jpg,0.0,clockno_default.jpg,5.0,3,,,,,,,,,,,,,,,,,,,,,,,,,,,,,,,,
0.0,1.0,0.66092,0.0,30.0,30.0,30.0,1.0,tulip_02s.jpg,0.0,clockno_default.jpg,5.0,3,,,,,,,,,,,,,,,,,,,,,,,,,,,,,,,,
0.0,1.0,1.10892,0.0,31.0,31.0,31.0,1.0,tongs_08s.jpg,0.0,clockno_up.jpg,6.0,3,,,,,,,,,,,,,,,,,,,,,,,,,,,,,,,,
0.0,1.0,0.96432,0.0,32.0,32.0,32.0,1.0,orchid_01b.jpg,0.0,clockno_default.jpg,6.0,3,,,,,,,,,,,,,,,,,,,,,,,,,,,,,,,,
1.0,1.0,1.00432,0.0,33.0,33.0,33.0,1.0,tongs_08s.jpg,1.0,clockno_default.jpg,6.0,3,,,,,,,,,,,,,,,,,,,,,,,,,,,,,,,,
1.0,1.0,1.129035,0.0,34.0,34.0,34.0,1.0,tongs_08s.jpg,1.0,clockno_default.jpg,6.0,3,,,,,,,,,,,,,,,,,,,,,,,,,,,,,,,,
1.0,1.0,1.86327,0.0,35.0,35.0,35.0,1.0,orchid_01b.jpg,1.0,clockno_default.jpg,6.0,3,,,,,,,,,,,,,,,,,,,,,,,,,,,,,,,,
,,,,,,,,,1.0,,,3,0.0,0.0,1.916945,0.0,0.0,0.0,0.0,1.0,cotton_candy_01b.jpg,checkbook_11s.jpg,,,,,,,,,,,,,,,,,,,,,,
,,,,,,,,,1.0,,,3,1.0,1.0,2.03792,0.0,1.0,1.0,1.0,1.0,lamb_04s.jpg,megaphone_03s.jpg,,,,,,,,,,,,,,,,,,,,,,
,,,,,,,,,0.0,,,3,0.0,1.0,1.6908,0.0,2.0,2.0,2.0,1.0,recliner_02s.jpg,rope_16s.jpg,,,,,,,,,,,,,,,,,,,,,,
,,,,,,,,,0.0,,,3,1.0,0.0,1.81341,0.0,3.0,3.0,3.0,1.0,stamp2_08s.jpg,gargoyle_08s.jpg,,,,,,,,,,,,,,,,,,,,,,
,,,,,,,,,1.0,,,3,0.0,0.0,3.080345,0.0,4.0,4.0,4.0,1.0,smoothie_09s.jpg,sushi_08s.jpg,,,,,,,,,,,,,,,,,,,,,,
,,,,,,,,,1.0,,,3,1.0,1.0,1.7151,0.0,5.0,5.0,5.0,1.0,dirt_bike_11s.jpg,lamb_chop_07s.jpg,,,,,,,,,,,,,,,,,,,,,,
,,,,,,,,,,,,3,,,,,,,,,,,0.0,3.0,3.0,3.0,1.0,clockno_present_4_8.xlsx,clockno_compare_task_4_8.xlsx,,,,,,,,,,,,,,,
0.0,1.0,0.964525,0.0,0.0,0.0,0.0,1.0,ice-cream_cone_06s.jpg,0.0,clockno_up.jpg,1.0,3,,,,,,,,,,,,,,,,,,,,,,,,,,,,,,,,
0.0,1.0,1.15578,0.0,1.0,1.0,1.0,1.0,teabag_12s.jpg,0.0,clockno_default.jpg,1.0,3,,,,,,,,,,,,,,,,,,,,,,,,,,,,,,,,
0.0,1.0,0.860505,0.0,2.0,2.0,2.0,1.0,giraffe_11s.jpg,0.0,clockno_default.jpg,1.0,3,,,,,,,,,,,,,,,,,,,,,,,,,,,,,,,,
0.0,1.0,0.807945,0.0,3.0,3.0,3.0,1.0,ivy_12s.jpg,0.0,clockno_default.jpg,1.0,3,,,,,,,,,,,,,,,,,,,,,,,,,,,,,,,,
0.0,1.0,0.94959,0.0,4.0,4.0,4.0,1.0,plug_08s.jpg,0.0,clockno_default.jpg,1.0,3,,,,,,,,,,,,,,,,,,,,,,,,,,,,,,,,
0.0,1.0,0.80685,0.0,5.0,5.0,5.0,1.0,sparkler_02s.jpg,0.0,clockno_default.jpg,1.0,3,,,,,,,,,,,,,,,,,,,,,,,,,,,,,,,,
0.0,1.0,1.003155,0.0,6.0,6.0,6.0,1.0,otter_05s.jpg,0.0,clockno_default.jpg,1.0,3,,,,,,,,,,,,,,,,,,,,,,,,,,,,,,,,
0.0,1.0,1.01713,0.0,7.0,7.0,7.0,1.0,tie_03s.jpg,0.0,clockno_up.jpg,2.0,3,,,,,,,,,,,,,,,,,,,,,,,,,,,,,,,,
1.0,1.0,1.036435,0.0,8.0,8.0,8.0,1.0,tie_03s.jpg,1.0,clockno_default.jpg,2.0,3,,,,,,,,,,,,,,,,,,,,,,,,,,,,,,,,
0.0,1.0,0.83341,0.0,9.0,9.0,9.0,1.0,petri_dish_12s.jpg,0.0,clockno_default.jpg,2.0,3,,,,,,,,,,,,,,,,,,,,,,,,,,,,,,,,
0.0,1.0,1.022265,0.0,10.0,10.0,10.0,1.0,squirrel_02s.jpg,0.0,clockno_default.jpg,2.0,3,,,,,,,,,,,,,,,,,,,,,,,,,,,,,,,,
0.0,1.0,1.388695,0.0,11.0,11.0,11.0,1.0,ivy_12s.jpg,0.0,clockno_default.jpg,2.0,3,,,,,,,,,,,,,,,,,,,,,,,,,,,,,,,,
1.0,1.0,1.06814,0.0,12.0,12.0,12.0,1.0,squirrel_02s.jpg,1.0,clockno_default.jpg,2.0,3,,,,,,,,,,,,,,,,,,,,,,,,,,,,,,,,
0.0,1.0,1.00497,0.0,13.0,13.0,13.0,1.0,spider_web_03s.jpg,0.0,clockno_up.jpg,3.0,3,,,,,,,,,,,,,,,,,,,,,,,,,,,,,,,,
0.0,1.0,0.85694,0.0,14.0,14.0,14.0,1.0,toaster_03s.jpg,0.0,clockno_default.jpg,3.0,3,,,,,,,,,,,,,,,,,,,,,,,,,,,,,,,,
0.0,1.0,1.129875,0.0,15.0,15.0,15.0,1.0,thumbtack_14s.jpg,0.0,clockno_default.jpg,3.0,3,,,,,,,,,,,,,,,,,,,,,,,,,,,,,,,,
0.0,1.0,1.29638,0.0,16.0,16.0,16.0,1.0,moth_06n.jpg,0.0,clockno_default.jpg,3.0,3,,,,,,,,,,,,,,,,,,,,,,,,,,,,,,,,
0.0,1.0,0.8449,0.0,17.0,17.0,17.0,1.0,coral_08s.jpg,0.0,clockno_default.jpg,3.0,3,,,,,,,,,,,,,,,,,,,,,,,,,,,,,,,,
0.0,1.0,0.998425,0.0,18.0,18.0,18.0,1.0,lamppost_09s.jpg,0.0,clockno_default.jpg,3.0,3,,,,,,,,,,,,,,,,,,,,,,,,,,,,,,,,
0.0,1.0,0.938125,0.0,19.0,19.0,19.0,1.0,prism_10s.jpg,0.0,clockno_up.jpg,4.0,3,,,,,,,,,,,,,,,,,,,,,,,,,,,,,,,,
0.0,1.0,0.86667,0.0,20.0,20.0,20.0,1.0,tie_03s.jpg,0.0,clockno_default.jpg,4.0,3,,,,,,,,,,,,,,,,,,,,,,,,,,,,,,,,
0.0,1.0,0.690575,0.0,21.0,21.0,21.0,1.0,pumpkin_03s.jpg,0.0,clockno_default.jpg,4.0,3,,,,,,,,,,,,,,,,,,,,,,,,,,,,,,,,
0.0,0.0,1.22249,0.0,22.0,22.0,22.0,1.0,pumpkin_03s.jpg,1.0,clockno_default.jpg,4.0,3,,,,,,,,,,,,,,,,,,,,,,,,,,,,,,,,
0.0,1.0,0.770665,0.0,23.0,23.0,23.0,1.0,bacon_05s.jpg,0.0,clockno_default.jpg,4.0,3,,,,,,,,,,,,,,,,,,,,,,,,,,,,,,,,
0.0,1.0,0.75297,0.0,24.0,24.0,24.0,1.0,mold2_04s.jpg,0.0,clockno_up.jpg,5.0,3,,,,,,,,,,,,,,,,,,,,,,,,,,,,,,,,
0.0,1.0,0.94648,0.0,25.0,25.0,25.0,1.0,pumpkin_03s.jpg,0.0,clockno_default.jpg,5.0,3,,,,,,,,,,,,,,,,,,,,,,,,,,,,,,,,
0.0,1.0,0.828215,0.0,26.0,26.0,26.0,1.0,police_car_01s.jpg,0.0,clockno_default.jpg,5.0,3,,,,,,,,,,,,,,,,,,,,,,,,,,,,,,,,
0.0,1.0,1.37007,0.0,27.0,27.0,27.0,1.0,limousine_12s.jpg,0.0,clockno_default.jpg,5.0,3,,,,,,,,,,,,,,,,,,,,,,,,,,,,,,,,
0.0,1.0,0.84096,0.0,28.0,28.0,28.0,1.0,pump_11s.jpg,0.0,clockno_default.jpg,5.0,3,,,,,,,,,,,,,,,,,,,,,,,,,,,,,,,,
0.0,1.0,0.910845,0.0,29.0,29.0,29.0,1.0,raspberry_12s.jpg,0.0,clockno_default.jpg,5.0,3,,,,,,,,,,,,,,,,,,,,,,,,,,,,,,,,
0.0,1.0,1.166295,0.0,30.0,30.0,30.0,1.0,bee_20s.jpg,0.0,clockno_default.jpg,5.0,3,,,,,,,,,,,,,,,,,,,,,,,,,,,,,,,,
0.0,1.0,1.02427,0.0,31.0,31.0,31.0,1.0,machine_gun_09s.jpg,0.0,clockno_up.jpg,6.0,3,,,,,,,,,,,,,,,,,,,,,,,,,,,,,,,,
1.0,1.0,1.751115,0.0,32.0,32.0,32.0,1.0,machine_gun_09s.jpg,1.0,clockno_default.jpg,6.0,3,,,,,,,,,,,,,,,,,,,,,,,,,,,,,,,,
0.0,1.0,0.884055,0.0,33.0,33.0,33.0,1.0,boomerang_06s.jpg,0.0,clockno_default.jpg,6.0,3,,,,,,,,,,,,,,,,,,,,,,,,,,,,,,,,
0.0,1.0,0.722595,0.0,34.0,34.0,34.0,1.0,roulette_wheel_04s.jpg,0.0,clockno_default.jpg,6.0,3,,,,,,,,,,,,,,,,,,,,,,,,,,,,,,,,
0.0,1.0,0.824105,0.0,35.0,35.0,35.0,1.0,perfume_06s.jpg,0.0,clockno_default.jpg,6.0,3,,,,,,,,,,,,,,,,,,,,,,,,,,,,,,,,
,,,,,,,,,0.0,,,3,0.0,1.0,1.591955,0.0,0.0,0.0,0.0,1.0,petri_dish_12s.jpg,otter_05s.jpg,,,,,,,,,,,,,,,,,,,,,,
,,,,,,,,,0.0,,,3,1.0,0.0,1.86625,0.0,1.0,1.0,1.0,1.0,prism_10s.jpg,moth_06n.jpg,,,,,,,,,,,,,,,,,,,,,,
,,,,,,,,,1.0,,,3,1.0,1.0,1.54451,0.0,2.0,2.0,2.0,1.0,bacon_05s.jpg,police_car_01s.jpg,,,,,,,,,,,,,,,,,,,,,,
,,,,,,,,,1.0,,,3,0.0,0.0,1.75034,0.0,3.0,3.0,3.0,1.0,teabag_12s.jpg,plug_08s.jpg,,,,,,,,,,,,,,,,,,,,,,
,,,,,,,,,0.0,,,3,1.0,0.0,2.16583,0.0,4.0,4.0,4.0,1.0,sparkler_02s.jpg,giraffe_11s.jpg,,,,,,,,,,,,,,,,,,,,,,
,,,,,,,,,0.0,,,3,1.0,0.0,1.99435,0.0,5.0,5.0,5.0,1.0,coral_08s.jpg,toaster_03s.jpg,,,,,,,,,,,,,,,,,,,,,,
,,,,,,,,,,,,3,,,,,,,,,,,0.0,4.0,4.0,4.0,1.0,clockno_present_5_8.xlsx,clockno_compare_task_5_8.xlsx,,,,,,,,,,,,,,,
0.0,1.0,0.894815,0.0,0.0,0.0,0.0,1.0,rooster_03s.jpg,0.0,clockno_up.jpg,1.0,3,,,,,,,,,,,,,,,,,,,,,,,,,,,,,,,,
1.0,1.0,0.95001,0.0,1.0,1.0,1.0,1.0,rooster_03s.jpg,1.0,clockno_default.jpg,1.0,3,,,,,,,,,,,,,,,,,,,,,,,,,,,,,,,,
1.0,1.0,1.093,0.0,2.0,2.0,2.0,1.0,rooster_03s.jpg,1.0,clockno_default.jpg,1.0,3,,,,,,,,,,,,,,,,,,,,,,,,,,,,,,,,
0.0,1.0,1.79598,0.0,3.0,3.0,3.0,1.0,birdcage_08s.jpg,0.0,clockno_default.jpg,1.0,3,,,,,,,,,,,,,,,,,,,,,,,,,,,,,,,,
1.0,1.0,0.890955,0.0,4.0,4.0,4.0,1.0,birdcage_08s.jpg,1.0,clockno_default.jpg,1.0,3,,,,,,,,,,,,,,,,,,,,,,,,,,,,,,,,
0.0,1.0,1.002675,0.0,5.0,5.0,5.0,1.0,bowler_hat_10s.jpg,0.0,clockno_default.jpg,1.0,3,,,,,,,,,,,,,,,,,,,,,,,,,,,,,,,,
0.0,1.0,0.903795,0.0,6.0,6.0,6.0,1.0,potholder_02s.jpg,0.0,clockno_up.jpg,2.0,3,,,,,,,,,,,,,,,,,,,,,,,,,,,,,,,,
0.0,1.0,1.12978,0.0,7.0,7.0,7.0,1.0,rooster_03s.jpg,0.0,clockno_default.jpg,2.0,3,,,,,,,,,,,,,,,,,,,,,,,,,,,,,,,,
0.0,1.0,0.85613,0.0,8.0,8.0,8.0,1.0,mango_09s.jpg,0.0,clockno_default.jpg,2.0,3,,,,,,,,,,,,,,,,,,,,,,,,,,,,,,,,
1.0,1.0,1.05781,0.0,9.0,9.0,9.0,1.0,rooster_03s.jpg,1.0,clockno_default.jpg,2.0,3,,,,,,,,,,,,,,,,,,,,,,,,,,,,,,,,
0.0,1.0,0.831125,0.0,10.0,10.0,10.0,1.0,orangutan_03s.jpg,0.0,clockno_default.jpg,2.0,3,,,,,,,,,,,,,,,,,,,,,,,,,,,,,,,,
0.0,1.0,0.939605,0.0,11.0,11.0,11.0,1.0,latch_15s.jpg,0.0,clockno_default.jpg,2.0,3,,,,,,,,,,,,,,,,,,,,,,,,,,,,,,,,
0.0,1.0,0.84386,0.0,12.0,12.0,12.0,1.0,soccer_ball_12s.jpg,0.0,clockno_default.jpg,2.0,3,,,,,,,,,,,,,,,,,,,,,,,,,,,,,,,,
0.0,1.0,1.40981,0.0,13.0,13.0,13.0,1.0,gear_07s.jpg,0.0,clockno_up.jpg,3.0,3,,,,,,,,,,,,,,,,,,,,,,,,,,,,,,,,
1.0,1.0,1.049745,0.0,14.0,14.0,14.0,1.0,gear_07s.jpg,1.0,clockno_default.jpg,3.0,3,,,,,,,,,,,,,,,,,,,,,,,,,,,,,,,,
0.0,1.0,0.829715,0.0,15.0,15.0,15.0,1.0,flip_flop_03s.jpg,0.0,clockno_default.jpg,3.0,3,,,,,,,,,,,,,,,,,,,,,,,,,,,,,,,,
0.0,1.0,0.872345,0.0,16.0,16.0,16.0,1.0,coffee_filter_10s.jpg,0.0,clockno_default.jpg,3.0,3,,,,,,,,,,,,,,,,,,,,,,,,,,,,,,,,
1.0,1.0,1.062395,0.0,17.0,17.0,17.0,1.0,coffee_filter_10s.jpg,1.0,clockno_default.jpg,3.0,3,,,,,,,,,,,,,,,,,,,,,,,,,,,,,,,,
0.0,1.0,0.88183,0.0,18.0,18.0,18.0,1.0,golf_club_03s.jpg,0.0,clockno_up.jpg,4.0,3,,,,,,,,,,,,,,,,,,,,,,,,,,,,,,,,
0.0,1.0,1.331175,0.0,19.0,19.0,19.0,1.0,icemaker_10s.jpg,0.0,clockno_default.jpg,4.0,3,,,,,,,,,,,,,,,,,,,,,,,,,,,,,,,,
0.0,1.0,1.04832,0.0,20.0,20.0,20.0,1.0,sleeping_bag_12s.jpg,0.0,clockno_default.jpg,4.0,3,,,,,,,,,,,,,,,,,,,,,,,,,,,,,,,,
0.0,1.0,0.880765,0.0,21.0,21.0,21.0,1.0,tape_06s.jpg,0.0,clockno_default.jpg,4.0,3,,,,,,,,,,,,,,,,,,,,,,,,,,,,,,,,
0.0,1.0,1.060305,0.0,22.0,22.0,22.0,1.0,red_carpet_03s.jpg,0.0,clockno_default.jpg,4.0,3,,,,,,,,,,,,,,,,,,,,,,,,,,,,,,,,
1.0,1.0,1.06771,0.0,23.0,23.0,23.0,1.0,red_carpet_03s.jpg,1.0,clockno_default.jpg,4.0,3,,,,,,,,,,,,,,,,,,,,,,,,,,,,,,,,
1.0,1.0,1.078115,0.0,24.0,24.0,24.0,1.0,sleeping_bag_12s.jpg,1.0,clockno_default.jpg,4.0,3,,,,,,,,,,,,,,,,,,,,,,,,,,,,,,,,
0.0,1.0,0.91979,0.0,25.0,25.0,25.0,1.0,quilt_03s.jpg,0.0,clockno_up.jpg,5.0,3,,,,,,,,,,,,,,,,,,,,,,,,,,,,,,,,
0.0,1.0,0.838485,0.0,26.0,26.0,26.0,1.0,torch_02s.jpg,0.0,clockno_default.jpg,5.0,3,,,,,,,,,,,,,,,,,,,,,,,,,,,,,,,,
0.0,1.0,1.143325,0.0,27.0,27.0,27.0,1.0,pancake_12s.jpg,0.0,clockno_default.jpg,5.0,3,,,,,,,,,,,,,,,,,,,,,,,,,,,,,,,,
0.0,1.0,0.916935,0.0,28.0,28.0,28.0,1.0,umbrella_15s.jpg,0.0,clockno_default.jpg,5.0,3,,,,,,,,,,,,,,,,,,,,,,,,,,,,,,,,
0.0,1.0,0.858735,0.0,29.0,29.0,29.0,1.0,measuring_cup_02s.jpg,0.0,clockno_default.jpg,5.0,3,,,,,,,,,,,,,,,,,,,,,,,,,,,,,,,,
0.0,1.0,0.9181,0.0,30.0,30.0,30.0,1.0,briefcase_03s.jpg,0.0,clockno_up.jpg,6.0,3,,,,,,,,,,,,,,,,,,,,,,,,,,,,,,,,
0.0,1.0,1.16775,0.0,31.0,31.0,31.0,1.0,birdcage_08s.jpg,0.0,clockno_default.jpg,6.0,3,,,,,,,,,,,,,,,,,,,,,,,,,,,,,,,,
0.0,1.0,0.79289,0.0,32.0,32.0,32.0,1.0,trumpet_06s.jpg,0.0,clockno_default.jpg,6.0,3,,,,,,,,,,,,,,,,,,,,,,,,,,,,,,,,
0.0,1.0,0.796415,0.0,33.0,33.0,33.0,1.0,pepper_mill_03s.jpg,0.0,clockno_default.jpg,6.0,3,,,,,,,,,,,,,,,,,,,,,,,,,,,,,,,,
0.0,1.0,1.21712,0.0,34.0,34.0,34.0,1.0,turtle_08s.jpg,0.0,clockno_default.jpg,6.0,3,,,,,,,,,,,,,,,,,,,,,,,,,,,,,,,,
0.0,1.0,0.94816,0.0,35.0,35.0,35.0,1.0,juicer1_08s.jpg,0.0,clockno_default.jpg,6.0,3,,,,,,,,,,,,,,,,,,,,,,,,,,,,,,,,
,,,,,,,,,1.0,,,3,1.0,1.0,2.394035,0.0,0.0,0.0,0.0,1.0,soccer_ball_12s.jpg,flip_flop_03s.jpg,,,,,,,,,,,,,,,,,,,,,,
,,,,,,,,,1.0,,,3,1.0,1.0,2.136265,0.0,1.0,1.0,1.0,1.0,bowler_hat_10s.jpg,mango_09s.jpg,,,,,,,,,,,,,,,,,,,,,,
,,,,,,,,,1.0,,,3,0.0,0.0,1.55123,0.0,2.0,2.0,2.0,1.0,pancake_12s.jpg,briefcase_03s.jpg,,,,,,,,,,,,,,,,,,,,,,
,,,,,,,,,0.0,,,3,1.0,0.0,1.896775,0.0,3.0,3.0,3.0,1.0,umbrella_15s.jpg,quilt_03s.jpg,,,,,,,,,,,,,,,,,,,,,,
,,,,,,,,,0.0,,,3,0.0,1.0,1.767195,0.0,4.0,4.0,4.0,1.0,tape_06s.jpg,golf_club_03s.jpg,,,,,,,,,,,,,,,,,,,,,,
,,,,,,,,,1.0,,,3,1.0,1.0,2.51853,0.0,5.0,5.0,5.0,1.0,torch_02s.jpg,measuring_cup_02s.jpg,,,,,,,,,,,,,,,,,,,,,,
0.0,1.0,1.150585,,,,,,mixer_12s.jpg,0.0,clock_7_1.png,1.0,3,,,,,,,,,,,,,,,,,,0.0,0.0,0.0,0.0,1.0,,,,,,,,,,
0.0,1.0,0.821635,,,,,,mushroom_10n.jpg,0.0,clock_7_2.png,1.0,3,,,,,,,,,,,,,,,,,,0.0,1.0,1.0,1.0,1.0,,,,,,,,,,
0.0,1.0,1.009555,,,,,,ink_08s.jpg,0.0,clock_7_3.png,1.0,3,,,,,,,,,,,,,,,,,,0.0,2.0,2.0,2.0,1.0,,,,,,,,,,
0.0,1.0,1.01249,,,,,,amber_04s.jpg,0.0,clock_7_4.png,1.0,3,,,,,,,,,,,,,,,,,,0.0,3.0,3.0,3.0,1.0,,,,,,,,,,
0.0,1.0,0.78661,,,,,,glasses01a.jpg,0.0,clock_7_5.png,1.0,3,,,,,,,,,,,,,,,,,,0.0,4.0,4.0,4.0,1.0,,,,,,,,,,
0.0,1.0,0.778585,,,,,,chip_04s.jpg,0.0,clock_7_6.png,1.0,3,,,,,,,,,,,,,,,,,,0.0,5.0,5.0,5.0,1.0,,,,,,,,,,
0.0,1.0,0.901055,,,,,,kilt_18s.jpg,0.0,clock_7_7.png,1.0,3,,,,,,,,,,,,,,,,,,0.0,6.0,6.0,6.0,1.0,,,,,,,,,,
0.0,1.0,0.921065,,,,,,film_03s.jpg,0.0,clock_6_1.png,2.0,3,,,,,,,,,,,,,,,,,,0.0,7.0,7.0,7.0,1.0,,,,,,,,,,
0.0,1.0,0.90822,,,,,,footprint_11s.jpg,0.0,clock_6_2.png,2.0,3,,,,,,,,,,,,,,,,,,0.0,8.0,8.0,8.0,1.0,,,,,,,,,,
0.0,1.0,0.922035,,,,,,teacup_07s.jpg,0.0,clock_6_3.png,2.0,3,,,,,,,,,,,,,,,,,,0.0,9.0,9.0,9.0,1.0,,,,,,,,,,
0.0,1.0,1.145695,,,,,,razor_12s.jpg,0.0,clock_6_4.png,2.0,3,,,,,,,,,,,,,,,,,,0.0,10.0,10.0,10.0,1.0,,,,,,,,,,
0.0,1.0,0.92967,,,,,,turkey_10s.jpg,0.0,clock_6_5.png,2.0,3,,,,,,,,,,,,,,,,,,0.0,11.0,11.0,11.0,1.0,,,,,,,,,,
1.0,0.0,1.229315,,,,,,amber_04s.jpg,0.0,clock_6_6.png,2.0,3,,,,,,,,,,,,,,,,,,0.0,12.0,12.0,12.0,1.0,,,,,,,,,,
0.0,1.0,2.160285,,,,,,lantern_04s.jpg,0.0,clock_7_1.png,3.0,3,,,,,,,,,,,,,,,,,,0.0,13.0,13.0,13.0,1.0,,,,,,,,,,
0.0,1.0,2.413105,,,,,,film_03s.jpg,0.0,clock_7_2.png,3.0,3,,,,,,,,,,,,,,,,,,0.0,14.0,14.0,14.0,1.0,,,,,,,,,,
0.0,1.0,1.587715,,,,,,kitten_07s.jpg,0.0,clock_7_3.png,3.0,3,,,,,,,,,,,,,,,,,,0.0,15.0,15.0,15.0,1.0,,,,,,,,,,
0.0,1.0,0.974945,,,,,,mosquito_12s.jpg,0.0,clock_7_4.png,3.0,3,,,,,,,,,,,,,,,,,,0.0,16.0,16.0,16.0,1.0,,,,,,,,,,
0.0,1.0,0.958145,,,,,,memory_stick_11s.jpg,0.0,clock_7_5.png,3.0,3,,,,,,,,,,,,,,,,,,0.0,17.0,17.0,17.0,1.0,,,,,,,,,,
0.0,1.0,1.1004,,,,,,lipstick_02s.jpg,0.0,clock_7_6.png,3.0,3,,,,,,,,,,,,,,,,,,0.0,18.0,18.0,18.0,1.0,,,,,,,,,,
1.0,1.0,0.82997,,,,,,kitten_07s.jpg,1.0,clock_7_7.png,3.0,3,,,,,,,,,,,,,,,,,,0.0,19.0,19.0,19.0,1.0,,,,,,,,,,
0.0,1.0,0.96316,,,,,,mattress_01s.jpg,0.0,clock_5_1.png,4.0,3,,,,,,,,,,,,,,,,,,0.0,20.0,20.0,20.0,1.0,,,,,,,,,,
0.0,1.0,0.90933,,,,,,fondue_07s.jpg,0.0,clock_5_2.png,4.0,3,,,,,,,,,,,,,,,,,,0.0,21.0,21.0,21.0,1.0,,,,,,,,,,
0.0,1.0,1.075015,,,,,,espresso_01b.jpg,0.0,clock_5_3.png,4.0,3,,,,,,,,,,,,,,,,,,0.0,22.0,22.0,22.0,1.0,,,,,,,,,,
0.0,1.0,0.74362,,,,,,tiara_05s.jpg,0.0,clock_5_4.png,4.0,3,,,,,,,,,,,,,,,,,,0.0,23.0,23.0,23.0,1.0,,,,,,,,,,
1.0,1.0,0.921995,,,,,,espresso_01b.jpg,1.0,clock_5_5.png,4.0,3,,,,,,,,,,,,,,,,,,0.0,24.0,24.0,24.0,1.0,,,,,,,,,,
0.0,1.0,0.76274,,,,,,flask_04s.jpg,0.0,clock_6_1.png,5.0,3,,,,,,,,,,,,,,,,,,0.0,25.0,25.0,25.0,1.0,,,,,,,,,,
0.0,1.0,0.92854,,,,,,duck_01b.jpg,0.0,clock_6_2.png,5.0,3,,,,,,,,,,,,,,,,,,0.0,26.0,26.0,26.0,1.0,,,,,,,,,,
0.0,1.0,0.982065,,,,,,ukulele_02s.jpg,0.0,clock_6_3.png,5.0,3,,,,,,,,,,,,,,,,,,0.0,27.0,27.0,27.0,1.0,,,,,,,,,,
0.0,1.0,0.900525,,,,,,polaroid_05s.jpg,0.0,clock_6_4.png,5.0,3,,,,,,,,,,,,,,,,,,0.0,28.0,28.0,28.0,1.0,,,,,,,,,,
0.0,1.0,0.98154,,,,,,kite_04s.jpg,0.0,clock_6_5.png,5.0,3,,,,,,,,,,,,,,,,,,0.0,29.0,29.0,29.0,1.0,,,,,,,,,,
1.0,1.0,0.893015,,,,,,kite_04s.jpg,1.0,clock_6_6.png,5.0,3,,,,,,,,,,,,,,,,,,0.0,30.0,30.0,30.0,1.0,,,,,,,,,,
0.0,1.0,1.01131,,,,,,denture_03s.jpg,0.0,clock_5_1.png,6.0,3,,,,,,,,,,,,,,,,,,0.0,31.0,31.0,31.0,1.0,,,,,,,,,,
0.0,1.0,1.001325,,,,,,frog_09s.jpg,0.0,clock_5_2.png,6.0,3,,,,,,,,,,,,,,,,,,0.0,32.0,32.0,32.0,1.0,,,,,,,,,,
0.0,1.0,1.248765,,,,,,diving_board_07s.jpg,0.0,clock_5_3.png,6.0,3,,,,,,,,,,,,,,,,,,0.0,33.0,33.0,33.0,1.0,,,,,,,,,,
1.0,1.0,1.166455,,,,,,denture_03s.jpg,1.0,clock_5_4.png,6.0,3,,,,,,,,,,,,,,,,,,0.0,34.0,34.0,34.0,1.0,,,,,,,,,,
0.0,1.0,1.062595,,,,,,telephone_pole_05s.jpg,0.0,clock_5_5.png,6.0,3,,,,,,,,,,,,,,,,,,0.0,35.0,35.0,35.0,1.0,,,,,,,,,,
,,,,,,,,,1.0,,,3,0.0,0.0,1.763255,,,,,,kilt_18s.jpg,teacup_07s.jpg,,,,,,,,,,,,,0.0,0.0,0.0,0.0,1.0,,,,,
,,,,,,,,,1.0,,,3,0.0,0.0,2.073395,,,,,,lipstick_02s.jpg,fondue_07s.jpg,,,,,,,,,,,,,0.0,1.0,1.0,1.0,1.0,,,,,
,,,,,,,,,0.0,,,3,1.0,0.0,1.834015,,,,,,lantern_04s.jpg,razor_12s.jpg,,,,,,,,,,,,,0.0,2.0,2.0,2.0,1.0,,,,,
,,,,,,,,,0.0,,,3,1.0,0.0,1.636065,,,,,,glasses01a.jpg,mushroom_10n.jpg,,,,,,,,,,,,,0.0,3.0,3.0,3.0,1.0,,,,,
,,,,,,,,,0.0,,,3,1.0,0.0,1.86468,,,,,,polaroid_05s.jpg,flask_04s.jpg,,,,,,,,,,,,,0.0,4.0,4.0,4.0,1.0,,,,,
,,,,,,,,,1.0,,,3,0.0,0.0,2.02635,,,,,,frog_09s.jpg,telephone_pole_05s.jpg,,,,,,,,,,,,,0.0,5.0,5.0,5.0,1.0,,,,,
,,,,,,,,,,,,3,,,,,,,,,,,,,,,,clock_present_1_8.xlsx,clock_compare_task_1_8.xlsx,,,,,,,,,,,0.0,0.0,0.0,0.0,1.0
0.0,1.0,0.91186,,,,,,spatula04.jpg,0.0,clock_5_1.png,1.0,3,,,,,,,,,,,,,,,,,,0.0,0.0,0.0,0.0,1.0,,,,,,,,,,
0.0,1.0,1.279655,,,,,,cardinal_07s.jpg,0.0,clock_5_2.png,1.0,3,,,,,,,,,,,,,,,,,,0.0,1.0,1.0,1.0,1.0,,,,,,,,,,
1.0,1.0,0.71427,,,,,,spatula04.jpg,1.0,clock_5_3.png,1.0,3,,,,,,,,,,,,,,,,,,0.0,2.0,2.0,2.0,1.0,,,,,,,,,,
0.0,1.0,0.797445,,,,,,fossil_06s.jpg,0.0,clock_5_4.png,1.0,3,,,,,,,,,,,,,,,,,,0.0,3.0,3.0,3.0,1.0,,,,,,,,,,
0.0,1.0,1.199525,,,,,,lavender_10s.jpg,0.0,clock_5_5.png,1.0,3,,,,,,,,,,,,,,,,,,0.0,4.0,4.0,4.0,1.0,,,,,,,,,,
0.0,1.0,0.770315,,,,,,dashboard_02s.jpg,0.0,clock_7_1.png,2.0,3,,,,,,,,,,,,,,,,,,0.0,5.0,5.0,5.0,1.0,,,,,,,,,,
1.0,1.0,0.626075,,,,,,dashboard_02s.jpg,1.0,clock_7_2.png,2.0,3,,,,,,,,,,,,,,,,,,0.0,6.0,6.0,6.0,1.0,,,,,,,,,,
0.0,1.0,0.79614,,,,,,rudder_02s.jpg,0.0,clock_7_3.png,2.0,3,,,,,,,,,,,,,,,,,,0.0,7.0,7.0,7.0,1.0,,,,,,,,,,
0.0,1.0,0.781585,,,,,,loveseat_08s.jpg,0.0,clock_7_4.png,2.0,3,,,,,,,,,,,,,,,,,,0.0,8.0,8.0,8.0,1.0,,,,,,,,,,
0.0,1.0,0.842165,,,,,,hydrant_10s.jpg,0.0,clock_7_5.png,2.0,3,,,,,,,,,,,,,,,,,,0.0,9.0,9.0,9.0,1.0,,,,,,,,,,
0.0,1.0,0.733825,,,,,,seagull_01b.jpg,0.0,clock_7_6.png,2.0,3,,,,,,,,,,,,,,,,,,0.0,10.0,10.0,10.0,1.0,,,,,,,,,,
1.0,0.0,0.9616,,,,,,cardinal_07s.jpg,0.0,clock_7_7.png,2.0,3,,,,,,,,,,,,,,,,,,0.0,11.0,11.0,11.0,1.0,,,,,,,,,,
0.0,1.0,0.497225,,,,,,bottle_opener_11s.jpg,0.0,clock_5_1.png,3.0,3,,,,,,,,,,,,,,,,,,0.0,12.0,12.0,12.0,1.0,,,,,,,,,,
0.0,1.0,0.834845,,,,,,mirror_12s.jpg,0.0,clock_5_2.png,3.0,3,,,,,,,,,,,,,,,,,,0.0,13.0,13.0,13.0,1.0,,,,,,,,,,
0.0,1.0,0.814295,,,,,,candy_cane_06s.jpg,0.0,clock_5_3.png,3.0,3,,,,,,,,,,,,,,,,,,0.0,14.0,14.0,14.0,1.0,,,,,,,,,,
0.0,1.0,0.83687,,,,,,aluminum_foil_08s.jpg,0.0,clock_5_4.png,3.0,3,,,,,,,,,,,,,,,,,,0.0,15.0,15.0,15.0,1.0,,,,,,,,,,
0.0,1.0,0.86587,,,,,,latte_06s.jpg,0.0,clock_5_5.png,3.0,3,,,,,,,,,,,,,,,,,,0.0,16.0,16.0,16.0,1.0,,,,,,,,,,
0.0,1.0,0.89038,,,,,,sledgehammer_03s.jpg,0.0,clock_6_1.png,4.0,3,,,,,,,,,,,,,,,,,,0.0,17.0,17.0,17.0,1.0,,,,,,,,,,
1.0,1.0,0.935415,,,,,,sledgehammer_03s.jpg,1.0,clock_6_2.png,4.0,3,,,,,,,,,,,,,,,,,,0.0,18.0,18.0,18.0,1.0,,,,,,,,,,
0.0,1.0,0.84513,,,,,,rosary_03s.jpg,0.0,clock_6_3.png,4.0,3,,,,,,,,,,,,,,,,,,0.0,19.0,19.0,19.0,1.0,,,,,,,,,,
0.0,1.0,0.766845,,,,,,crossbow_10s.jpg,0.0,clock_6_4.png,4.0,3,,,,,,,,,,,,,,,,,,0.0,20.0,20.0,20.0,1.0,,,,,,,,,,
1.0,1.0,1.167905,,,,,,rosary_03s.jpg,1.0,clock_6_5.png,4.0,3,,,,,,,,,,,,,,,,,,0.0,21.0,21.0,21.0,1.0,,,,,,,,,,
1.0,1.0,1.084435,,,,,,sledgehammer_03s.jpg,1.0,clock_6_6.png,4.0,3,,,,,,,,,,,,,,,,,,0.0,22.0,22.0,22.0,1.0,,,,,,,,,,
0.0,1.0,0.91451,,,,,,ticktacktoe_08s.jpg,0.0,clock_7_1.png,5.0,3,,,,,,,,,,,,,,,,,,0.0,23.0,23.0,23.0,1.0,,,,,,,,,,
0.0,1.0,1.19289,,,,,,swimming_pool_17s.jpg,0.0,clock_7_2.png,5.0,3,,,,,,,,,,,,,,,,,,0.0,24.0,24.0,24.0,1.0,,,,,,,,,,
1.0,1.0,0.7615,,,,,,swimming_pool_17s.jpg,1.0,clock_7_3.png,5.0,3,,,,,,,,,,,,,,,,,,0.0,25.0,25.0,25.0,1.0,,,,,,,,,,
0.0,1.0,0.92599,,,,,,bagel_15s.jpg,0.0,clock_7_4.png,5.0,3,,,,,,,,,,,,,,,,,,0.0,26.0,26.0,26.0,1.0,,,,,,,,,,
0.0,1.0,0.9962,,,,,,rosary_03s.jpg,0.0,clock_7_5.png,5.0,3,,,,,,,,,,,,,,,,,,0.0,27.0,27.0,27.0,1.0,,,,,,,,,,
0.0,1.0,0.866455,,,,,,lavender_10s.jpg,0.0,clock_7_6.png,5.0,3,,,,,,,,,,,,,,,,,,0.0,28.0,28.0,28.0,1.0,,,,,,,,,,
0.0,1.0,1.199525,,,,,,bean_06s.jpg,0.0,clock_7_7.png,5.0,3,,,,,,,,,,,,,,,,,,0.0,29.0,29.0,29.0,1.0,,,,,,,,,,
0.0,1.0,0.6736,,,,,,radiator_05s.jpg,0.0,clock_6_1.png,6.0,3,,,,,,,,,,,,,,,,,,0.0,30.0,30.0,30.0,1.0,,,,,,,,,,
0.0,1.0,0.935595,,,,,,ladle_04s.jpg,0.0,clock_6_2.png,6.0,3,,,,,,,,,,,,,,,,,,0.0,31.0,31.0,31.0,1.0,,,,,,,,,,
0.0,1.0,0.90079,,,,,,beaker_01b.jpg,0.0,clock_6_3.png,6.0,3,,,,,,,,,,,,,,,,,,0.0,32.0,32.0,32.0,1.0,,,,,,,,,,
0.0,1.0,0.71491,,,,,,sundae_08s.jpg,0.0,clock_6_4.png,6.0,3,,,,,,,,,,,,,,,,,,0.0,33.0,33.0,33.0,1.0,,,,,,,,,,
0.0,1.0,0.92319,,,,,,frame_06s.jpg,0.0,clock_6_5.png,6.0,3,,,,,,,,,,,,,,,,,,0.0,34.0,34.0,34.0,1.0,,,,,,,,,,
0.0,1.0,0.816325,,,,,,coat_rack_01b.jpg,0.0,clock_6_6.png,6.0,3,,,,,,,,,,,,,,,,,,0.0,35.0,35.0,35.0,1.0,,,,,,,,,,
,,,,,,,,,1.0,,,3,0.0,0.0,1.72435,,,,,,hydrant_10s.jpg,bottle_opener_11s.jpg,,,,,,,,,,,,,0.0,0.0,0.0,0.0,1.0,,,,,
,,,,,,,,,0.0,,,3,1.0,0.0,1.311445,,,,,,ticktacktoe_08s.jpg,crossbow_10s.jpg,,,,,,,,,,,,,0.0,1.0,1.0,1.0,1.0,,,,,
,,,,,,,,,1.0,,,3,1.0,1.0,1.552655,,,,,,seagull_01b.jpg,mirror_12s.jpg,,,,,,,,,,,,,0.0,2.0,2.0,2.0,1.0,,,,,
,,,,,,,,,0.0,,,3,0.0,1.0,1.19273,,,,,,sundae_08s.jpg,radiator_05s.jpg,,,,,,,,,,,,,0.0,3.0,3.0,3.0,1.0,,,,,
,,,,,,,,,0.0,,,3,0.0,1.0,2.335235,,,,,,frame_06s.jpg,ladle_04s.jpg,,,,,,,,,,,,,0.0,4.0,4.0,4.0,1.0,,,,,
,,,,,,,,,0.0,,,3,0.0,1.0,1.93605,,,,,,bean_06s.jpg,bagel_15s.jpg,,,,,,,,,,,,,0.0,5.0,5.0,5.0,1.0,,,,,
,,,,,,,,,,,,3,,,,,,,,,,,,,,,,clock_present_2_8.xlsx,clock_compare_task_2_8.xlsx,,,,,,,,,,,0.0,1.0,1.0,1.0,1.0
0.0,1.0,0.8884,,,,,,blender_08s.jpg,0.0,clock_7_1.png,1.0,3,,,,,,,,,,,,,,,,,,0.0,0.0,0.0,0.0,1.0,,,,,,,,,,
0.0,1.0,0.903865,,,,,,knot_01b.jpg,0.0,clock_7_2.png,1.0,3,,,,,,,,,,,,,,,,,,0.0,1.0,1.0,1.0,1.0,,,,,,,,,,
1.0,1.0,0.93618,,,,,,blender_08s.jpg,1.0,clock_7_3.png,1.0,3,,,,,,,,,,,,,,,,,,0.0,2.0,2.0,2.0,1.0,,,,,,,,,,
1.0,1.0,0.89044,,,,,,blender_08s.jpg,1.0,clock_7_4.png,1.0,3,,,,,,,,,,,,,,,,,,0.0,3.0,3.0,3.0,1.0,,,,,,,,,,
0.0,1.0,0.739285,,,,,,joystick_01b.jpg,0.0,clock_7_5.png,1.0,3,,,,,,,,,,,,,,,,,,0.0,4.0,4.0,4.0,1.0,,,,,,,,,,
0.0,1.0,0.764395,,,,,,tuxedo_01b.jpg,0.0,clock_7_6.png,1.0,3,,,,,,,,,,,,,,,,,,0.0,5.0,5.0,5.0,1.0,,,,,,,,,,
0.0,1.0,0.936165,,,,,,lid_10s.jpg,0.0,clock_7_7.png,1.0,3,,,,,,,,,,,,,,,,,,0.0,6.0,6.0,6.0,1.0,,,,,,,,,,
0.0,1.0,0.869285,,,,,,bubble_01b.jpg,0.0,clock_5_1.png,2.0,3,,,,,,,,,,,,,,,,,,0.0,7.0,7.0,7.0,1.0,,,,,,,,,,
0.0,1.0,0.950435,,,,,,stopwatch_04s.jpg,0.0,clock_5_2.png,2.0,3,,,,,,,,,,,,,,,,,,0.0,8.0,8.0,8.0,1.0,,,,,,,,,,
0.0,1.0,1.00462,,,,,,mud_13s.jpg,0.0,clock_5_3.png,2.0,3,,,,,,,,,,,,,,,,,,0.0,9.0,9.0,9.0,1.0,,,,,,,,,,
0.0,1.0,0.94889,,,,,,joystick_01b.jpg,0.0,clock_5_4.png,2.0,3,,,,,,,,,,,,,,,,,,0.0,10.0,10.0,10.0,1.0,,,,,,,,,,
0.0,1.0,0.894945,,,,,,printer_09s.jpg,0.0,clock_5_5.png,2.0,3,,,,,,,,,,,,,,,,,,0.0,11.0,11.0,11.0,1.0,,,,,,,,,,
0.0,1.0,0.876975,,,,,,totem_pole_05s.jpg,0.0,clock_7_1.png,3.0,3,,,,,,,,,,,,,,,,,,0.0,12.0,12.0,12.0,1.0,,,,,,,,,,
0.0,1.0,0.84334,,,,,,eiffeltower.jpg,0.0,clock_7_2.png,3.0,3,,,,,,,,,,,,,,,,,,0.0,13.0,13.0,13.0,1.0,,,,,,,,,,
0.0,1.0,0.810745,,,,,,bathtub_23s.jpg,0.0,clock_7_3.png,3.0,3,,,,,,,,,,,,,,,,,,0.0,14.0,14.0,14.0,1.0,,,,,,,,,,
1.0,1.0,0.844605,,,,,,eiffeltower.jpg,1.0,clock_7_4.png,3.0,3,,,,,,,,,,,,,,,,,,0.0,15.0,15.0,15.0,1.0,,,,,,,,,,
1.0,1.0,1.65078,,,,,,totem_pole_05s.jpg,1.0,clock_7_5.png,3.0,3,,,,,,,,,,,,,,,,,,0.0,16.0,16.0,16.0,1.0,,,,,,,,,,
0.0,1.0,0.86037,,,,,,jetski_10s.jpg,0.0,clock_7_6.png,3.0,3,,,,,,,,,,,,,,,,,,0.0,17.0,17.0,17.0,1.0,,,,,,,,,,
0.0,1.0,0.94899,,,,,,pillbox_04s.jpg,0.0,clock_7_7.png,3.0,3,,,,,,,,,,,,,,,,,,0.0,18.0,18.0,18.0,1.0,,,,,,,,,,
0.0,1.0,0.794985,,,,,,coconut_08s.jpg,0.0,clock_6_1.png,4.0,3,,,,,,,,,,,,,,,,,,0.0,19.0,19.0,19.0,1.0,,,,,,,,,,
0.0,1.0,0.973975,,,,,,lid_10s.jpg,0.0,clock_6_2.png,4.0,3,,,,,,,,,,,,,,,,,,0.0,20.0,20.0,20.0,1.0,,,,,,,,,,
0.0,1.0,0.78259,,,,,,inhaler_01b.jpg,0.0,clock_6_3.png,4.0,3,,,,,,,,,,,,,,,,,,0.0,21.0,21.0,21.0,1.0,,,,,,,,,,
0.0,1.0,0.999115,,,,,,printer_09s.jpg,0.0,clock_6_4.png,4.0,3,,,,,,,,,,,,,,,,,,0.0,22.0,22.0,22.0,1.0,,,,,,,,,,
0.0,1.0,0.76272,,,,,,trampoline_13s.jpg,0.0,clock_6_5.png,4.0,3,,,,,,,,,,,,,,,,,,0.0,23.0,23.0,23.0,1.0,,,,,,,,,,
0.0,1.0,1.036375,,,,,,crab_16s.jpg,0.0,clock_6_6.png,4.0,3,,,,,,,,,,,,,,,,,,0.0,24.0,24.0,24.0,1.0,,,,,,,,,,
0.0,1.0,0.928435,,,,,,thread_08s.jpg,0.0,clock_5_1.png,5.0,3,,,,,,,,,,,,,,,,,,0.0,25.0,25.0,25.0,1.0,,,,,,,,,,
0.0,1.0,0.902045,,,,,,trampoline_13s.jpg,0.0,clock_5_2.png,5.0,3,,,,,,,,,,,,,,,,,,0.0,26.0,26.0,26.0,1.0,,,,,,,,,,
0.0,1.0,0.93495,,,,,,jetski_10s.jpg,0.0,clock_5_3.png,5.0,3,,,,,,,,,,,,,,,,,,0.0,27.0,27.0,27.0,1.0,,,,,,,,,,
0.0,1.0,0.897295,,,,,,turnstile_08s.jpg,0.0,clock_5_4.png,5.0,3,,,,,,,,,,,,,,,,,,0.0,28.0,28.0,28.0,1.0,,,,,,,,,,
0.0,1.0,0.799525,,,,,,bonsai_07s.jpg,0.0,clock_5_5.png,5.0,3,,,,,,,,,,,,,,,,,,0.0,29.0,29.0,29.0,1.0,,,,,,,,,,
0.0,1.0,1.00248,,,,,,surfboard_11s.jpg,0.0,clock_6_1.png,6.0,3,,,,,,,,,,,,,,,,,,0.0,30.0,30.0,30.0,1.0,,,,,,,,,,
0.0,1.0,0.89938,,,,,,touchpad_11s.jpg,0.0,clock_6_2.png,6.0,3,,,,,,,,,,,,,,,,,,0.0,31.0,31.0,31.0,1.0,,,,,,,,,,
0.0,1.0,0.78931,,,,,,tab_09s.jpg,0.0,clock_6_3.png,6.0,3,,,,,,,,,,,,,,,,,,0.0,32.0,32.0,32.0,1.0,,,,,,,,,,
0.0,1.0,0.75967,,,,,,tambourine_06s.jpg,0.0,clock_6_4.png,6.0,3,,,,,,,,,,,,,,,,,,0.0,33.0,33.0,33.0,1.0,,,,,,,,,,
0.0,1.0,0.835505,,,,,,tube_top_03s.jpg,0.0,clock_6_5.png,6.0,3,,,,,,,,,,,,,,,,,,0.0,34.0,34.0,34.0,1.0,,,,,,,,,,
0.0,1.0,0.978835,,,,,,mud_13s.jpg,0.0,clock_6_6.png,6.0,3,,,,,,,,,,,,,,,,,,0.0,35.0,35.0,35.0,1.0,,,,,,,,,,
,,,,,,,,,1.0,,,3,1.0,1.0,1.32542,,,,,,tuxedo_01b.jpg,stopwatch_04s.jpg,,,,,,,,,,,,,0.0,0.0,0.0,0.0,1.0,,,,,
,,,,,,,,,0.0,,,3,0.0,1.0,2.188165,,,,,,tab_09s.jpg,bonsai_07s.jpg,,,,,,,,,,,,,0.0,1.0,1.0,1.0,1.0,,,,,
,,,,,,,,,0.0,,,3,1.0,0.0,1.613515,,,,,,inhaler_01b.jpg,pillbox_04s.jpg,,,,,,,,,,,,,0.0,2.0,2.0,2.0,1.0,,,,,
,,,,,,,,,1.0,,,3,1.0,1.0,1.763915,,,,,,surfboard_11s.jpg,tambourine_06s.jpg,,,,,,,,,,,,,0.0,3.0,3.0,3.0,1.0,,,,,
,,,,,,,,,0.0,,,3,1.0,0.0,1.53415,,,,,,turnstile_08s.jpg,thread_08s.jpg,,,,,,,,,,,,,0.0,4.0,4.0,4.0,1.0,,,,,
,,,,,,,,,0.0,,,3,1.0,0.0,1.39562,,,,,,tube_top_03s.jpg,touchpad_11s.jpg,,,,,,,,,,,,,0.0,5.0,5.0,5.0,1.0,,,,,
,,,,,,,,,,,,3,,,,,,,,,,,,,,,,clock_present_3_8.xlsx,clock_compare_task_3_8.xlsx,,,,,,,,,,,0.0,2.0,2.0,2.0,1.0
0.0,1.0,0.960045,,,,,,rug_09s.jpg,0.0,clock_5_1.png,1.0,3,,,,,,,,,,,,,,,,,,0.0,0.0,0.0,0.0,1.0,,,,,,,,,,
1.0,1.0,0.77701,,,,,,rug_09s.jpg,1.0,clock_5_2.png,1.0,3,,,,,,,,,,,,,,,,,,0.0,1.0,1.0,1.0,1.0,,,,,,,,,,
0.0,1.0,0.68624,,,,,,pear_02s.jpg,0.0,clock_5_3.png,1.0,3,,,,,,,,,,,,,,,,,,0.0,2.0,2.0,2.0,1.0,,,,,,,,,,
1.0,1.0,0.9956,,,,,,rug_09s.jpg,1.0,clock_5_4.png,1.0,3,,,,,,,,,,,,,,,,,,0.0,3.0,3.0,3.0,1.0,,,,,,,,,,
0.0,1.0,1.097305,,,,,,lasagna_06s.jpg,0.0,clock_5_5.png,1.0,3,,,,,,,,,,,,,,,,,,0.0,4.0,4.0,4.0,1.0,,,,,,,,,,
0.0,1.0,0.53382,,,,,,crayon_09s.jpg,0.0,clock_6_1.png,2.0,3,,,,,,,,,,,,,,,,,,0.0,5.0,5.0,5.0,1.0,,,,,,,,,,
0.0,1.0,1.234855,,,,,,puppet_01b.jpg,0.0,clock_6_2.png,2.0,3,,,,,,,,,,,,,,,,,,0.0,6.0,6.0,6.0,1.0,,,,,,,,,,
0.0,1.0,0.844565,,,,,,clover_04s.jpg,0.0,clock_6_3.png,2.0,3,,,,,,,,,,,,,,,,,,0.0,7.0,7.0,7.0,1.0,,,,,,,,,,
0.0,1.0,0.740245,,,,,,eyedropper_12s.jpg,0.0,clock_6_4.png,2.0,3,,,,,,,,,,,,,,,,,,0.0,8.0,8.0,8.0,1.0,,,,,,,,,,
0.0,1.0,0.745005,,,,,,compass_10n.jpg,0.0,clock_6_5.png,2.0,3,,,,,,,,,,,,,,,,,,0.0,9.0,9.0,9.0,1.0,,,,,,,,,,
0.0,1.0,0.8308,,,,,,beard_16s.jpg,0.0,clock_6_6.png,2.0,3,,,,,,,,,,,,,,,,,,0.0,10.0,10.0,10.0,1.0,,,,,,,,,,
0.0,1.0,0.770815,,,,,,paintbrush_04s.jpg,0.0,clock_7_1.png,3.0,3,,,,,,,,,,,,,,,,,,0.0,11.0,11.0,11.0,1.0,,,,,,,,,,
0.0,1.0,0.96274,,,,,,typewriter_11s.jpg,0.0,clock_7_2.png,3.0,3,,,,,,,,,,,,,,,,,,0.0,12.0,12.0,12.0,1.0,,,,,,,,,,
0.0,1.0,1.08227,,,,,,peach_04s.jpg,0.0,clock_7_3.png,3.0,3,,,,,,,,,,,,,,,,,,0.0,13.0,13.0,13.0,1.0,,,,,,,,,,
0.0,1.0,0.83868,,,,,,punch1_10s.jpg,0.0,clock_7_4.png,3.0,3,,,,,,,,,,,,,,,,,,0.0,14.0,14.0,14.0,1.0,,,,,,,,,,
0.0,1.0,0.82048,,,,,,glue_01s.jpg,0.0,clock_7_5.png,3.0,3,,,,,,,,,,,,,,,,,,0.0,15.0,15.0,15.0,1.0,,,,,,,,,,
0.0,1.0,1.007375,,,,,,magnet_03s.jpg,0.0,clock_7_6.png,3.0,3,,,,,,,,,,,,,,,,,,0.0,16.0,16.0,16.0,1.0,,,,,,,,,,
0.0,1.0,1.95114,,,,,,fur_coat_11s.jpg,0.0,clock_7_7.png,3.0,3,,,,,,,,,,,,,,,,,,0.0,17.0,17.0,17.0,1.0,,,,,,,,,,
0.0,1.0,2.17607,,,,,,marker_05s.jpg,0.0,clock_7_1.png,4.0,3,,,,,,,,,,,,,,,,,,0.0,18.0,18.0,18.0,1.0,,,,,,,,,,
0.0,0.0,1.47548,,,,,,marker_05s.jpg,1.0,clock_7_2.png,4.0,3,,,,,,,,,,,,,,,,,,0.0,19.0,19.0,19.0,1.0,,,,,,,,,,
0.0,1.0,1.00983,,,,,,rug_09s.jpg,0.0,clock_7_3.png,4.0,3,,,,,,,,,,,,,,,,,,0.0,20.0,20.0,20.0,1.0,,,,,,,,,,
0.0,1.0,0.80519,,,,,,abacus_12s.jpg,0.0,clock_7_4.png,4.0,3,,,,,,,,,,,,,,,,,,0.0,21.0,21.0,21.0,1.0,,,,,,,,,,
0.0,1.0,1.04617,,,,,,toy_04s.jpg,0.0,clock_7_5.png,4.0,3,,,,,,,,,,,,,,,,,,0.0,22.0,22.0,22.0,1.0,,,,,,,,,,
0.0,1.0,0.888225,,,,,,air_pump_05s.jpg,0.0,clock_7_6.png,4.0,3,,,,,,,,,,,,,,,,,,0.0,23.0,23.0,23.0,1.0,,,,,,,,,,
0.0,1.0,1.231785,,,,,,rhubarb_03s.jpg,0.0,clock_7_7.png,4.0,3,,,,,,,,,,,,,,,,,,0.0,24.0,24.0,24.0,1.0,,,,,,,,,,
0.0,1.0,1.30563,,,,,,boar_10s.jpg,0.0,clock_6_1.png,5.0,3,,,,,,,,,,,,,,,,,,0.0,25.0,25.0,25.0,1.0,,,,,,,,,,
0.0,1.0,0.97115,,,,,,abacus_12s.jpg,0.0,clock_6_2.png,5.0,3,,,,,,,,,,,,,,,,,,0.0,26.0,26.0,26.0,1.0,,,,,,,,,,
0.0,1.0,0.80012,,,,,,potpourri_03s.jpg,0.0,clock_6_3.png,5.0,3,,,,,,,,,,,,,,,,,,0.0,27.0,27.0,27.0,1.0,,,,,,,,,,
0.0,1.0,0.8313,,,,,,typewriter_11s.jpg,0.0,clock_6_4.png,5.0,3,,,,,,,,,,,,,,,,,,0.0,28.0,28.0,28.0,1.0,,,,,,,,,,
0.0,1.0,0.83051,,,,,,pea_11s.jpg,0.0,clock_6_5.png,5.0,3,,,,,,,,,,,,,,,,,,0.0,29.0,29.0,29.0,1.0,,,,,,,,,,
0.0,1.0,1.033235,,,,,,polar_bear_02s.jpg,0.0,clock_6_6.png,5.0,3,,,,,,,,,,,,,,,,,,0.0,30.0,30.0,30.0,1.0,,,,,,,,,,
0.0,1.0,0.866865,,,,,,laundry_basket_11s.jpg,0.0,clock_5_1.png,6.0,3,,,,,,,,,,,,,,,,,,0.0,31.0,31.0,31.0,1.0,,,,,,,,,,
0.0,1.0,1.13712,,,,,,chopsticks_08s.jpg,0.0,clock_5_2.png,6.0,3,,,,,,,,,,,,,,,,,,0.0,32.0,32.0,32.0,1.0,,,,,,,,,,
1.0,1.0,0.98844,,,,,,chopsticks_08s.jpg,1.0,clock_5_3.png,6.0,3,,,,,,,,,,,,,,,,,,0.0,33.0,33.0,33.0,1.0,,,,,,,,,,
0.0,1.0,0.86414,,,,,,safety_pin_02s.jpg,0.0,clock_5_4.png,6.0,3,,,,,,,,,,,,,,,,,,0.0,34.0,34.0,34.0,1.0,,,,,,,,,,
0.0,1.0,0.919955,,,,,,cobra_05s.jpg,0.0,clock_5_5.png,6.0,3,,,,,,,,,,,,,,,,,,0.0,35.0,35.0,35.0,1.0,,,,,,,,,,
,,,,,,,,,0.0,,,3,1.0,0.0,1.832995,,,,,,boar_10s.jpg,toy_04s.jpg,,,,,,,,,,,,,0.0,0.0,0.0,0.0,1.0,,,,,
,,,,,,,,,0.0,,,3,1.0,0.0,1.83504,,,,,,crayon_09s.jpg,pear_02s.jpg,,,,,,,,,,,,,0.0,1.0,1.0,1.0,1.0,,,,,
,,,,,,,,,1.0,,,3,1.0,1.0,1.356645,,,,,,lasagna_06s.jpg,clover_04s.jpg,,,,,,,,,,,,,0.0,2.0,2.0,2.0,1.0,,,,,
,,,,,,,,,1.0,,,3,1.0,1.0,1.67383,,,,,,puppet_01b.jpg,compass_10n.jpg,,,,,,,,,,,,,0.0,3.0,3.0,3.0,1.0,,,,,
,,,,,,,,,0.0,,,3,0.0,1.0,1.876075,,,,,,fur_coat_11s.jpg,punch1_10s.jpg,,,,,,,,,,,,,0.0,4.0,4.0,4.0,1.0,,,,,
,,,,,,,,,1.0,,,3,1.0,1.0,1.422265,,,,,,laundry_basket_11s.jpg,safety_pin_02s.jpg,,,,,,,,,,,,,0.0,5.0,5.0,5.0,1.0,,,,,
,,,,,,,,,,,,3,,,,,,,,,,,,,,,,clock_present_4_8.xlsx,clock_compare_task_4_8.xlsx,,,,,,,,,,,0.0,3.0,3.0,3.0,1.0
0.0,1.0,0.780265,,,,,,projector_08s.jpg,0.0,clock_5_1.png,1.0,3,,,,,,,,,,,,,,,,,,0.0,0.0,0.0,0.0,1.0,,,,,,,,,,
0.0,1.0,0.70115,,,,,,gingerbread_man_03s.jpg,0.0,clock_5_2.png,1.0,3,,,,,,,,,,,,,,,,,,0.0,1.0,1.0,1.0,1.0,,,,,,,,,,
1.0,1.0,0.796435,,,,,,gingerbread_man_03s.jpg,1.0,clock_5_3.png,1.0,3,,,,,,,,,,,,,,,,,,0.0,2.0,2.0,2.0,1.0,,,,,,,,,,
1.0,1.0,1.511965,,,,,,projector_08s.jpg,1.0,clock_5_4.png,1.0,3,,,,,,,,,,,,,,,,,,0.0,3.0,3.0,3.0,1.0,,,,,,,,,,
1.0,1.0,1.028795,,,,,,projector_08s.jpg,1.0,clock_5_5.png,1.0,3,,,,,,,,,,,,,,,,,,0.0,4.0,4.0,4.0,1.0,,,,,,,,,,
0.0,1.0,0.813845,,,,,,sunflower_17s.jpg,0.0,clock_5_1.png,2.0,3,,,,,,,,,,,,,,,,,,0.0,5.0,5.0,5.0,1.0,,,,,,,,,,
0.0,1.0,0.82218,,,,,,gingerbread_man_03s.jpg,0.0,clock_5_2.png,2.0,3,,,,,,,,,,,,,,,,,,0.0,6.0,6.0,6.0,1.0,,,,,,,,,,
0.0,1.0,0.681185,,,,,,puppy_08s.jpg,0.0,clock_5_3.png,2.0,3,,,,,,,,,,,,,,,,,,0.0,7.0,7.0,7.0,1.0,,,,,,,,,,
0.0,1.0,0.7083,,,,,,quill_09s.jpg,0.0,clock_5_4.png,2.0,3,,,,,,,,,,,,,,,,,,0.0,8.0,8.0,8.0,1.0,,,,,,,,,,
0.0,1.0,0.758445,,,,,,mascara_03s.jpg,0.0,clock_5_5.png,2.0,3,,,,,,,,,,,,,,,,,,0.0,9.0,9.0,9.0,1.0,,,,,,,,,,
0.0,1.0,0.59152,,,,,,lifesaver_10s.jpg,0.0,clock_6_1.png,3.0,3,,,,,,,,,,,,,,,,,,0.0,10.0,10.0,10.0,1.0,,,,,,,,,,
0.0,1.0,0.68934,,,,,,lollipop_08s.jpg,0.0,clock_6_2.png,3.0,3,,,,,,,,,,,,,,,,,,0.0,11.0,11.0,11.0,1.0,,,,,,,,,,
0.0,1.0,1.235035,,,,,,stapler_01b.jpg,0.0,clock_6_3.png,3.0,3,,,,,,,,,,,,,,,,,,0.0,12.0,12.0,12.0,1.0,,,,,,,,,,
0.0,1.0,0.657315,,,,,,panda_02s.jpg,0.0,clock_6_4.png,3.0,3,,,,,,,,,,,,,,,,,,0.0,13.0,13.0,13.0,1.0,,,,,,,,,,
0.0,1.0,1.01569,,,,,,puddle_02s.jpg,0.0,clock_6_5.png,3.0,3,,,,,,,,,,,,,,,,,,0.0,14.0,14.0,14.0,1.0,,,,,,,,,,
1.0,1.0,1.13305,,,,,,lifesaver_10s.jpg,1.0,clock_6_6.png,3.0,3,,,,,,,,,,,,,,,,,,0.0,15.0,15.0,15.0,1.0,,,,,,,,,,
0.0,1.0,0.74289,,,,,,key_07s.jpg,0.0,clock_6_1.png,4.0,3,,,,,,,,,,,,,,,,,,0.0,16.0,16.0,16.0,1.0,,,,,,,,,,
0.0,1.0,1.028385,,,,,,toilet_paper_12s.jpg,0.0,clock_6_2.png,4.0,3,,,,,,,,,,,,,,,,,,0.0,17.0,17.0,17.0,1.0,,,,,,,,,,
0.0,1.0,0.760905,,,,,,doily_13s.jpg,0.0,clock_6_3.png,4.0,3,,,,,,,,,,,,,,,,,,0.0,18.0,18.0,18.0,1.0,,,,,,,,,,
0.0,1.0,0.926215,,,,,,ginger_09s.jpg,0.0,clock_6_4.png,4.0,3,,,,,,,,,,,,,,,,,,0.0,19.0,19.0,19.0,1.0,,,,,,,,,,
0.0,1.0,0.952315,,,,,,eggshell_14s.jpg,0.0,clock_6_5.png,4.0,3,,,,,,,,,,,,,,,,,,0.0,20.0,20.0,20.0,1.0,,,,,,,,,,
0.0,1.0,0.89069,,,,,,refrigerator_07s.jpg,0.0,clock_6_6.png,4.0,3,,,,,,,,,,,,,,,,,,0.0,21.0,21.0,21.0,1.0,,,,,,,,,,
0.0,1.0,1.397295,,,,,,oil_02s.jpg,0.0,clock_7_1.png,5.0,3,,,,,,,,,,,,,,,,,,0.0,22.0,22.0,22.0,1.0,,,,,,,,,,
1.0,1.0,1.216655,,,,,,oil_02s.jpg,1.0,clock_7_2.png,5.0,3,,,,,,,,,,,,,,,,,,0.0,23.0,23.0,23.0,1.0,,,,,,,,,,
0.0,1.0,0.972035,,,,,,fox_13s.jpg,0.0,clock_7_3.png,5.0,3,,,,,,,,,,,,,,,,,,0.0,24.0,24.0,24.0,1.0,,,,,,,,,,
0.0,1.0,1.44547,,,,,,seahorse_13s.jpg,0.0,clock_7_4.png,5.0,3,,,,,,,,,,,,,,,,,,0.0,25.0,25.0,25.0,1.0,,,,,,,,,,
0.0,1.0,1.0354,,,,,,triangle_10s.jpg,0.0,clock_7_5.png,5.0,3,,,,,,,,,,,,,,,,,,0.0,26.0,26.0,26.0,1.0,,,,,,,,,,
0.0,1.0,0.768745,,,,,,popcorn_09s.jpg,0.0,clock_7_6.png,5.0,3,,,,,,,,,,,,,,,,,,0.0,27.0,27.0,27.0,1.0,,,,,,,,,,
1.0,1.0,0.99646,,,,,,seahorse_13s.jpg,1.0,clock_7_7.png,5.0,3,,,,,,,,,,,,,,,,,,0.0,28.0,28.0,28.0,1.0,,,,,,,,,,
0.0,1.0,1.382505,,,,,,leash_10s.jpg,0.0,clock_7_1.png,6.0,3,,,,,,,,,,,,,,,,,,0.0,29.0,29.0,29.0,1.0,,,,,,,,,,
1.0,1.0,1.15668,,,,,,leash_10s.jpg,1.0,clock_7_2.png,6.0,3,,,,,,,,,,,,,,,,,,0.0,30.0,30.0,30.0,1.0,,,,,,,,,,
0.0,1.0,0.90285,,,,,,mussel_11s.jpg,0.0,clock_7_3.png,6.0,3,,,,,,,,,,,,,,,,,,0.0,31.0,31.0,31.0,1.0,,,,,,,,,,
0.0,1.0,0.96069,,,,,,tablet_04s.jpg,0.0,clock_7_4.png,6.0,3,,,,,,,,,,,,,,,,,,0.0,32.0,32.0,32.0,1.0,,,,,,,,,,
1.0,1.0,1.00226,,,,,,leash_10s.jpg,1.0,clock_7_5.png,6.0,3,,,,,,,,,,,,,,,,,,0.0,33.0,33.0,33.0,1.0,,,,,,,,,,
0.0,0.0,1.38221,,,,,,mussel_11s.jpg,1.0,clock_7_6.png,6.0,3,,,,,,,,,,,,,,,,,,0.0,34.0,34.0,34.0,1.0,,,,,,,,,,
1.0,1.0,0.77648,,,,,,mussel_11s.jpg,1.0,clock_7_7.png,6.0,3,,,,,,,,,,,,,,,,,,0.0,35.0,35.0,35.0,1.0,,,,,,,,,,
,,,,,,,,,1.0,,,3,1.0,1.0,2.18882,,,,,,mascara_03s.jpg,stapler_01b.jpg,,,,,,,,,,,,,0.0,0.0,0.0,0.0,1.0,,,,,
,,,,,,,,,1.0,,,3,1.0,1.0,2.239755,,,,,,panda_02s.jpg,key_07s.jpg,,,,,,,,,,,,,0.0,1.0,1.0,1.0,1.0,,,,,
,,,,,,,,,1.0,,,3,0.0,0.0,3.528865,,,,,,quill_09s.jpg,lollipop_08s.jpg,,,,,,,,,,,,,0.0,2.0,2.0,2.0,1.0,,,,,
,,,,,,,,,0.0,,,3,1.0,0.0,1.37969,,,,,,eggshell_14s.jpg,toilet_paper_12s.jpg,,,,,,,,,,,,,0.0,3.0,3.0,3.0,1.0,,,,,
,,,,,,,,,0.0,,,3,0.0,1.0,1.658965,,,,,,refrigerator_07s.jpg,doily_13s.jpg,,,,,,,,,,,,,0.0,4.0,4.0,4.0,1.0,,,,,
,,,,,,,,,1.0,,,3,1.0,1.0,1.706645,,,,,,fox_13s.jpg,popcorn_09s.jpg,,,,,,,,,,,,,0.0,5.0,5.0,5.0,1.0,,,,,
,,,,,,,,,,,,3,,,,,,,,,,,,,,,,clock_present_5_8.xlsx,clock_compare_task_5_8.xlsx,,,,,,,,,,,0.0,4.0,4.0,4.0,1.0
0.0,1.0,0.92466,,,,,,turf_03s.jpg,0.0,clock_5_1.png,1.0,3,,,,,,,,,,,,,,,,,,0.0,0.0,0.0,0.0,1.0,,,,,,,,,,
0.0,1.0,1.135025,,,,,,spoon02a.jpg,0.0,clock_5_2.png,1.0,3,,,,,,,,,,,,,,,,,,0.0,1.0,1.0,1.0,1.0,,,,,,,,,,
0.0,1.0,0.995385,,,,,,knitting_needle_04s.jpg,0.0,clock_5_3.png,1.0,3,,,,,,,,,,,,,,,,,,0.0,2.0,2.0,2.0,1.0,,,,,,,,,,
0.0,1.0,1.33915,,,,,,syringe_02s.jpg,0.0,clock_5_4.png,1.0,3,,,,,,,,,,,,,,,,,,0.0,3.0,3.0,3.0,1.0,,,,,,,,,,
0.0,1.0,1.570725,,,,,,ice_pack_09s.jpg,0.0,clock_5_5.png,1.0,3,,,,,,,,,,,,,,,,,,0.0,4.0,4.0,4.0,1.0,,,,,,,,,,
0.0,1.0,0.73669,,,,,,blowfish_03s.jpg,0.0,clock_6_1.png,2.0,3,,,,,,,,,,,,,,,,,,0.0,5.0,5.0,5.0,1.0,,,,,,,,,,
1.0,1.0,0.831915,,,,,,blowfish_03s.jpg,1.0,clock_6_2.png,2.0,3,,,,,,,,,,,,,,,,,,0.0,6.0,6.0,6.0,1.0,,,,,,,,,,
0.0,1.0,0.791325,,,,,,tennis_ball_06s.jpg,0.0,clock_6_3.png,2.0,3,,,,,,,,,,,,,,,,,,0.0,7.0,7.0,7.0,1.0,,,,,,,,,,
0.0,1.0,1.391805,,,,,,tripod_01b.jpg,0.0,clock_6_4.png,2.0,3,,,,,,,,,,,,,,,,,,0.0,8.0,8.0,8.0,1.0,,,,,,,,,,
0.0,1.0,1.0922,,,,,,mannequin_05s.jpg,0.0,clock_6_5.png,2.0,3,,,,,,,,,,,,,,,,,,0.0,9.0,9.0,9.0,1.0,,,,,,,,,,
0.0,1.0,1.212025,,,,,,margarita_03s.jpg,0.0,clock_6_6.png,2.0,3,,,,,,,,,,,,,,,,,,0.0,10.0,10.0,10.0,1.0,,,,,,,,,,
0.0,1.0,0.642365,,,,,,light_switch_02s.jpg,0.0,clock_7_1.png,3.0,3,,,,,,,,,,,,,,,,,,0.0,11.0,11.0,11.0,1.0,,,,,,,,,,
0.0,1.0,0.74336,,,,,,fire_alarm_05s.jpg,0.0,clock_7_2.png,3.0,3,,,,,,,,,,,,,,,,,,0.0,12.0,12.0,12.0,1.0,,,,,,,,,,
1.0,1.0,0.706885,,,,,,fire_alarm_05s.jpg,1.0,clock_7_3.png,3.0,3,,,,,,,,,,,,,,,,,,0.0,13.0,13.0,13.0,1.0,,,,,,,,,,
0.0,0.0,2.01695,,,,,,light_switch_02s.jpg,1.0,clock_7_4.png,3.0,3,,,,,,,,,,,,,,,,,,0.0,14.0,14.0,14.0,1.0,,,,,,,,,,
0.0,1.0,1.018395,,,,,,iron_13s.jpg,0.0,clock_7_5.png,3.0,3,,,,,,,,,,,,,,,,,,0.0,15.0,15.0,15.0,1.0,,,,,,,,,,
0.0,1.0,0.95392,,,,,,slingshot_07s.jpg,0.0,clock_7_6.png,3.0,3,,,,,,,,,,,,,,,,,,0.0,16.0,16.0,16.0,1.0,,,,,,,,,,
0.0,1.0,1.33369,,,,,,plaster_cast_13s.jpg,0.0,clock_7_7.png,3.0,3,,,,,,,,,,,,,,,,,,0.0,17.0,17.0,17.0,1.0,,,,,,,,,,
0.0,1.0,0.95564,,,,,,dynamite_01b.jpg,0.0,clock_6_1.png,4.0,3,,,,,,,,,,,,,,,,,,0.0,18.0,18.0,18.0,1.0,,,,,,,,,,
0.0,1.0,0.795335,,,,,,radio_09s.jpg,0.0,clock_6_2.png,4.0,3,,,,,,,,,,,,,,,,,,0.0,19.0,19.0,19.0,1.0,,,,,,,,,,
0.0,1.0,0.947855,,,,,,gong_02s.jpg,0.0,clock_6_3.png,4.0,3,,,,,,,,,,,,,,,,,,0.0,20.0,20.0,20.0,1.0,,,,,,,,,,
0.0,1.0,0.964075,,,,,,phone_01b.jpg,0.0,clock_6_4.png,4.0,3,,,,,,,,,,,,,,,,,,0.0,21.0,21.0,21.0,1.0,,,,,,,,,,
0.0,1.0,0.81321,,,,,,puck_06s.jpg,0.0,clock_6_5.png,4.0,3,,,,,,,,,,,,,,,,,,0.0,22.0,22.0,22.0,1.0,,,,,,,,,,
0.0,1.0,0.88256,,,,,,fireworks_18s.jpg,0.0,clock_6_6.png,4.0,3,,,,,,,,,,,,,,,,,,0.0,23.0,23.0,23.0,1.0,,,,,,,,,,
0.0,1.0,1.10453,,,,,,kayak_08s.jpg,0.0,clock_5_1.png,5.0,3,,,,,,,,,,,,,,,,,,0.0,24.0,24.0,24.0,1.0,,,,,,,,,,
0.0,1.0,0.85491,,,,,,antenna_01b.jpg,0.0,clock_5_2.png,5.0,3,,,,,,,,,,,,,,,,,,0.0,25.0,25.0,25.0,1.0,,,,,,,,,,
0.0,1.0,1.50384,,,,,,syringe_02s.jpg,0.0,clock_5_3.png,5.0,3,,,,,,,,,,,,,,,,,,0.0,26.0,26.0,26.0,1.0,,,,,,,,,,
0.0,0.0,1.212275,,,,,,antenna_01b.jpg,1.0,clock_5_4.png,5.0,3,,,,,,,,,,,,,,,,,,0.0,27.0,27.0,27.0,1.0,,,,,,,,,,
0.0,1.0,0.80081,,,,,,outlet_10s.jpg,0.0,clock_5_5.png,5.0,3,,,,,,,,,,,,,,,,,,0.0,28.0,28.0,28.0,1.0,,,,,,,,,,
0.0,1.0,0.959725,,,,,,racehorse_03s.jpg,0.0,clock_7_1.png,6.0,3,,,,,,,,,,,,,,,,,,0.0,29.0,29.0,29.0,1.0,,,,,,,,,,
0.0,1.0,1.089595,,,,,,lion_18s.jpg,0.0,clock_7_2.png,6.0,3,,,,,,,,,,,,,,,,,,0.0,30.0,30.0,30.0,1.0,,,,,,,,,,
0.0,1.0,0.927785,,,,,,stingray_02s.jpg,0.0,clock_7_3.png,6.0,3,,,,,,,,,,,,,,,,,,0.0,31.0,31.0,31.0,1.0,,,,,,,,,,
1.0,1.0,1.101745,,,,,,racehorse_03s.jpg,1.0,clock_7_4.png,6.0,3,,,,,,,,,,,,,,,,,,0.0,32.0,32.0,32.0,1.0,,,,,,,,,,
0.0,1.0,0.930275,,,,,,swan_11s.jpg,0.0,clock_7_5.png,6.0,3,,,,,,,,,,,,,,,,,,0.0,33.0,33.0,33.0,1.0,,,,,,,,,,
0.0,1.0,1.007495,,,,,,rabbit_03s.jpg,0.0,clock_7_6.png,6.0,3,,,,,,,,,,,,,,,,,,0.0,34.0,34.0,34.0,1.0,,,,,,,,,,
0.0,1.0,0.862635,,,,,,pocket_watch_16s.jpg,0.0,clock_7_7.png,6.0,3,,,,,,,,,,,,,,,,,,0.0,35.0,35.0,35.0,1.0,,,,,,,,,,
,,,,,,,,,0.0,,,3,0.0,1.0,1.573285,,,,,,dynamite_01b.jpg,iron_13s.jpg,,,,,,,,,,,,,0.0,0.0,0.0,0.0,1.0,,,,,
,,,,,,,,,0.0,,,3,1.0,0.0,3.49219,,,,,,radio_09s.jpg,slingshot_07s.jpg,,,,,,,,,,,,,0.0,1.0,1.0,1.0,1.0,,,,,
,,,,,,,,,1.0,,,3,1.0,1.0,1.64123,,,,,,plaster_cast_13s.jpg,gong_02s.jpg,,,,,,,,,,,,,0.0,2.0,2.0,2.0,1.0,,,,,
,,,,,,,,,0.0,,,3,0.0,1.0,2.20198,,,,,,swan_11s.jpg,lion_18s.jpg,,,,,,,,,,,,,0.0,3.0,3.0,3.0,1.0,,,,,
,,,,,,,,,0.0,,,3,1.0,0.0,2.44282,,,,,,ice_pack_09s.jpg,spoon02a.jpg,,,,,,,,,,,,,0.0,4.0,4.0,4.0,1.0,,,,,
,,,,,,,,,0.0,,,3,0.0,1.0,2.03389,,,,,,margarita_03s.jpg,tennis_ball_06s.jpg,,,,,,,,,,,,,0.0,5.0,5.0,5.0,1.0,,,,,
