key_resp.keys,key_resp.corr,key_resp.rt,present_segment.thisRepN,present_segment.thisTrialN,present_segment.thisN,present_segment.thisIndex,present_segment.ran,pictures,answer,clock,segment,participant,key_resp_2.keys,key_resp_2.corr,key_resp_2.rt,compare_segment.thisRepN,compare_segment.thisTrialN,compare_segment.thisN,compare_segment.thisIndex,compare_segment.ran,item_a,item_b,clock_conditions.thisRepN,clock_conditions.thisTrialN,clock_conditions.thisN,clock_conditions.thisIndex,clock_conditions.ran,present,compare,noclock_present.thisRepN,noclock_present.thisTrialN,noclock_present.thisN,noclock_present.thisIndex,noclock_present.ran,noclock_compare.thisRepN,noclock_compare.thisTrialN,noclock_compare.thisN,noclock_compare.thisIndex,noclock_compare.ran,noclock_conditions.thisRepN,noclock_conditions.thisTrialN,noclock_conditions.thisN,noclock_conditions.thisIndex,noclock_conditions.ran
0.0,1.0,0.95053,0.0,0.0,0.0,0.0,1.0,mop_08s.jpg,0.0,clock_5_1.png,1.0,24,,,,,,,,,,,,,,,,,,,,,,,,,,,,,,,,
0.0,1.0,0.653945,0.0,1.0,1.0,1.0,1.0,inhaler_01b.jpg,0.0,clock_5_2.png,1.0,24,,,,,,,,,,,,,,,,,,,,,,,,,,,,,,,,
0.0,1.0,0.689545,0.0,2.0,2.0,2.0,1.0,racehorse_03s.jpg,0.0,clock_5_3.png,1.0,24,,,,,,,,,,,,,,,,,,,,,,,,,,,,,,,,
1.0,1.0,1.663335,0.0,3.0,3.0,3.0,1.0,inhaler_01b.jpg,1.0,clock_5_4.png,1.0,24,,,,,,,,,,,,,,,,,,,,,,,,,,,,,,,,
1.0,1.0,2.278275,0.0,4.0,4.0,4.0,1.0,inhaler_01b.jpg,1.0,clock_5_5.png,1.0,24,,,,,,,,,,,,,,,,,,,,,,,,,,,,,,,,
,0.0,,0.0,5.0,5.0,5.0,1.0,crossbow_10s.jpg,0.0,clock_7_1.png,2.0,24,,,,,,,,,,,,,,,,,,,,,,,,,,,,,,,,
0.0,1.0,2.047795,0.0,6.0,6.0,6.0,1.0,quad_04s.jpg,0.0,clock_7_2.png,2.0,24,,,,,,,,,,,,,,,,,,,,,,,,,,,,,,,,
0.0,1.0,1.05503,0.0,7.0,7.0,7.0,1.0,mannequin_05s.jpg,0.0,clock_7_3.png,2.0,24,,,,,,,,,,,,,,,,,,,,,,,,,,,,,,,,
0.0,0.0,1.07837,0.0,8.0,8.0,8.0,1.0,crossbow_10s.jpg,1.0,clock_7_4.png,2.0,24,,,,,,,,,,,,,,,,,,,,,,,,,,,,,,,,
,0.0,,0.0,9.0,9.0,9.0,1.0,squirt_gun_03s.jpg,0.0,clock_7_5.png,2.0,24,,,,,,,,,,,,,,,,,,,,,,,,,,,,,,,,
1.0,1.0,1.247185,0.0,10.0,10.0,10.0,1.0,squirt_gun_03s.jpg,1.0,clock_7_6.png,2.0,24,,,,,,,,,,,,,,,,,,,,,,,,,,,,,,,,
0.0,1.0,2.17425,0.0,11.0,11.0,11.0,1.0,coconut_08s.jpg,0.0,clock_7_7.png,2.0,24,,,,,,,,,,,,,,,,,,,,,,,,,,,,,,,,
0.0,1.0,0.8426,0.0,12.0,12.0,12.0,1.0,leash_10s.jpg,0.0,clock_6_1.png,3.0,24,,,,,,,,,,,,,,,,,,,,,,,,,,,,,,,,
0.0,1.0,1.23196,0.0,13.0,13.0,13.0,1.0,tattoo_14s.jpg,0.0,clock_6_2.png,3.0,24,,,,,,,,,,,,,,,,,,,,,,,,,,,,,,,,
0.0,1.0,0.57615,0.0,14.0,14.0,14.0,1.0,bowler_hat_10s.jpg,0.0,clock_6_3.png,3.0,24,,,,,,,,,,,,,,,,,,,,,,,,,,,,,,,,
0.0,1.0,0.544025,0.0,15.0,15.0,15.0,1.0,powder_07s.jpg,0.0,clock_6_4.png,3.0,24,,,,,,,,,,,,,,,,,,,,,,,,,,,,,,,,
1.0,1.0,0.76063,0.0,16.0,16.0,16.0,1.0,powder_07s.jpg,1.0,clock_6_5.png,3.0,24,,,,,,,,,,,,,,,,,,,,,,,,,,,,,,,,
0.0,1.0,0.875115,0.0,17.0,17.0,17.0,1.0,trident_07s.jpg,0.0,clock_6_6.png,3.0,24,,,,,,,,,,,,,,,,,,,,,,,,,,,,,,,,
0.0,1.0,0.47928,0.0,18.0,18.0,18.0,1.0,stingray_02s.jpg,0.0,clock_6_1.png,4.0,24,,,,,,,,,,,,,,,,,,,,,,,,,,,,,,,,
0.0,1.0,0.51742,0.0,19.0,19.0,19.0,1.0,target_11s.jpg,0.0,clock_6_2.png,4.0,24,,,,,,,,,,,,,,,,,,,,,,,,,,,,,,,,
0.0,1.0,0.6313,0.0,20.0,20.0,20.0,1.0,parachute_03s.jpg,0.0,clock_6_3.png,4.0,24,,,,,,,,,,,,,,,,,,,,,,,,,,,,,,,,
0.0,1.0,0.893715,0.0,21.0,21.0,21.0,1.0,orangutan_03s.jpg,0.0,clock_6_4.png,4.0,24,,,,,,,,,,,,,,,,,,,,,,,,,,,,,,,,
0.0,1.0,0.74691,0.0,22.0,22.0,22.0,1.0,fondue_07s.jpg,0.0,clock_6_5.png,4.0,24,,,,,,,,,,,,,,,,,,,,,,,,,,,,,,,,
0.0,1.0,0.761555,0.0,23.0,23.0,23.0,1.0,mask_09s.jpg,0.0,clock_6_6.png,4.0,24,,,,,,,,,,,,,,,,,,,,,,,,,,,,,,,,
0.0,1.0,0.566445,0.0,24.0,24.0,24.0,1.0,chopsticks_08s.jpg,0.0,clock_5_1.png,5.0,24,,,,,,,,,,,,,,,,,,,,,,,,,,,,,,,,
0.0,1.0,0.554545,0.0,25.0,25.0,25.0,1.0,dynamite_01b.jpg,0.0,clock_5_2.png,5.0,24,,,,,,,,,,,,,,,,,,,,,,,,,,,,,,,,
0.0,1.0,0.41061,0.0,26.0,26.0,26.0,1.0,quilt_03s.jpg,0.0,clock_5_3.png,5.0,24,,,,,,,,,,,,,,,,,,,,,,,,,,,,,,,,
0.0,1.0,0.46652,0.0,27.0,27.0,27.0,1.0,lantern_04s.jpg,0.0,clock_5_4.png,5.0,24,,,,,,,,,,,,,,,,,,,,,,,,,,,,,,,,
0.0,1.0,0.48013,0.0,28.0,28.0,28.0,1.0,fondue_07s.jpg,0.0,clock_5_5.png,5.0,24,,,,,,,,,,,,,,,,,,,,,,,,,,,,,,,,
0.0,1.0,1.03979,0.0,29.0,29.0,29.0,1.0,road_sign_05s.jpg,0.0,clock_7_1.png,6.0,24,,,,,,,,,,,,,,,,,,,,,,,,,,,,,,,,
0.0,1.0,0.63228,0.0,30.0,30.0,30.0,1.0,swan_11s.jpg,0.0,clock_7_2.png,6.0,24,,,,,,,,,,,,,,,,,,,,,,,,,,,,,,,,
0.0,1.0,0.461655,0.0,31.0,31.0,31.0,1.0,laser_pointer_02s.jpg,0.0,clock_7_3.png,6.0,24,,,,,,,,,,,,,,,,,,,,,,,,,,,,,,,,
0.0,1.0,0.654765,0.0,32.0,32.0,32.0,1.0,toilet_paper_12s.jpg,0.0,clock_7_4.png,6.0,24,,,,,,,,,,,,,,,,,,,,,,,,,,,,,,,,
0.0,1.0,0.72173,0.0,33.0,33.0,33.0,1.0,crate_05s.jpg,0.0,clock_7_5.png,6.0,24,,,,,,,,,,,,,,,,,,,,,,,,,,,,,,,,
0.0,1.0,0.56006,0.0,34.0,34.0,34.0,1.0,recliner_02s.jpg,0.0,clock_7_6.png,6.0,24,,,,,,,,,,,,,,,,,,,,,,,,,,,,,,,,
1.0,1.0,1.07388,0.0,35.0,35.0,35.0,1.0,laser_pointer_02s.jpg,1.0,clock_7_7.png,6.0,24,,,,,,,,,,,,,,,,,,,,,,,,,,,,,,,,
,,,,,,,,,1.0,,,24,0.0,0.0,2.197735,0.0,0.0,0.0,0.0,1.0,coconut_08s.jpg,bowler_hat_10s.jpg,,,,,,,,,,,,,,,,,,,,,,
,,,,,,,,,0.0,,,24,0.0,1.0,2.394165,0.0,1.0,1.0,1.0,1.0,quilt_03s.jpg,mask_09s.jpg,,,,,,,,,,,,,,,,,,,,,,
,,,,,,,,,0.0,,,24,1.0,0.0,1.38065,0.0,2.0,2.0,2.0,1.0,parachute_03s.jpg,trident_07s.jpg,,,,,,,,,,,,,,,,,,,,,,
,,,,,,,,,1.0,,,24,1.0,1.0,1.55153,0.0,3.0,3.0,3.0,1.0,stingray_02s.jpg,orangutan_03s.jpg,,,,,,,,,,,,,,,,,,,,,,
,,,,,,,,,0.0,,,24,0.0,1.0,2.24802,0.0,4.0,4.0,4.0,1.0,toilet_paper_12s.jpg,road_sign_05s.jpg,,,,,,,,,,,,,,,,,,,,,,
,,,,,,,,,0.0,,,24,0.0,1.0,1.208075,0.0,5.0,5.0,5.0,1.0,crate_05s.jpg,swan_11s.jpg,,,,,,,,,,,,,,,,,,,,,,
,,,,,,,,,,,,24,,,,,,,,,,,0.0,0.0,0.0,0.0,1.0,clock_present_1_9.xlsx,clock_compare_task_1_9.xlsx,,,,,,,,,,,,,,,
1.0,0.0,1.03445,0.0,0.0,0.0,0.0,1.0,rocket_02s.jpg,0.0,clock_5_1.png,1.0,24,,,,,,,,,,,,,,,,,,,,,,,,,,,,,,,,
0.0,1.0,0.56294,0.0,1.0,1.0,1.0,1.0,paintbrush_04s.jpg,0.0,clock_5_2.png,1.0,24,,,,,,,,,,,,,,,,,,,,,,,,,,,,,,,,
0.0,1.0,0.605275,0.0,2.0,2.0,2.0,1.0,blender_08s.jpg,0.0,clock_5_3.png,1.0,24,,,,,,,,,,,,,,,,,,,,,,,,,,,,,,,,
0.0,1.0,0.523535,0.0,3.0,3.0,3.0,1.0,owl_15s.jpg,0.0,clock_5_4.png,1.0,24,,,,,,,,,,,,,,,,,,,,,,,,,,,,,,,,
1.0,1.0,1.16048,0.0,4.0,4.0,4.0,1.0,paintbrush_04s.jpg,1.0,clock_5_5.png,1.0,24,,,,,,,,,,,,,,,,,,,,,,,,,,,,,,,,
0.0,1.0,0.936035,0.0,5.0,5.0,5.0,1.0,sparkler_02s.jpg,0.0,clock_7_1.png,2.0,24,,,,,,,,,,,,,,,,,,,,,,,,,,,,,,,,
0.0,0.0,1.30051,0.0,6.0,6.0,6.0,1.0,sparkler_02s.jpg,1.0,clock_7_2.png,2.0,24,,,,,,,,,,,,,,,,,,,,,,,,,,,,,,,,
0.0,1.0,0.56304,0.0,7.0,7.0,7.0,1.0,paper_towel_03s.jpg,0.0,clock_7_3.png,2.0,24,,,,,,,,,,,,,,,,,,,,,,,,,,,,,,,,
1.0,1.0,0.724695,0.0,8.0,8.0,8.0,1.0,paper_towel_03s.jpg,1.0,clock_7_4.png,2.0,24,,,,,,,,,,,,,,,,,,,,,,,,,,,,,,,,
1.0,0.0,1.06008,0.0,9.0,9.0,9.0,1.0,punch1_10s.jpg,0.0,clock_7_5.png,2.0,24,,,,,,,,,,,,,,,,,,,,,,,,,,,,,,,,
0.0,1.0,0.801815,0.0,10.0,10.0,10.0,1.0,puppet_01b.jpg,0.0,clock_7_6.png,2.0,24,,,,,,,,,,,,,,,,,,,,,,,,,,,,,,,,
0.0,1.0,0.772955,0.0,11.0,11.0,11.0,1.0,latte_06s.jpg,0.0,clock_7_7.png,2.0,24,,,,,,,,,,,,,,,,,,,,,,,,,,,,,,,,
0.0,1.0,0.85842,0.0,12.0,12.0,12.0,1.0,popcorn_09s.jpg,0.0,clock_6_1.png,3.0,24,,,,,,,,,,,,,,,,,,,,,,,,,,,,,,,,
0.0,1.0,1.86283,0.0,13.0,13.0,13.0,1.0,juicer2_06s.jpg,0.0,clock_6_2.png,3.0,24,,,,,,,,,,,,,,,,,,,,,,,,,,,,,,,,
0.0,1.0,2.00199,0.0,14.0,14.0,14.0,1.0,teacup_07s.jpg,0.0,clock_6_3.png,3.0,24,,,,,,,,,,,,,,,,,,,,,,,,,,,,,,,,
0.0,1.0,0.8709,0.0,15.0,15.0,15.0,1.0,perfume_06s.jpg,0.0,clock_6_4.png,3.0,24,,,,,,,,,,,,,,,,,,,,,,,,,,,,,,,,
0.0,1.0,1.01709,0.0,16.0,16.0,16.0,1.0,megaphone_03s.jpg,0.0,clock_6_5.png,3.0,24,,,,,,,,,,,,,,,,,,,,,,,,,,,,,,,,
0.0,1.0,0.940325,0.0,17.0,17.0,17.0,1.0,beard_16s.jpg,0.0,clock_6_6.png,3.0,24,,,,,,,,,,,,,,,,,,,,,,,,,,,,,,,,
0.0,1.0,0.587775,0.0,18.0,18.0,18.0,1.0,telephone_pole_05s.jpg,0.0,clock_5_1.png,4.0,24,,,,,,,,,,,,,,,,,,,,,,,,,,,,,,,,
0.0,1.0,1.94413,0.0,19.0,19.0,19.0,1.0,mousetrap_15n.jpg,0.0,clock_5_2.png,4.0,24,,,,,,,,,,,,,,,,,,,,,,,,,,,,,,,,
0.0,1.0,1.167795,0.0,20.0,20.0,20.0,1.0,peanut_butter_08s.jpg,0.0,clock_5_3.png,4.0,24,,,,,,,,,,,,,,,,,,,,,,,,,,,,,,,,
1.0,1.0,1.542895,0.0,21.0,21.0,21.0,1.0,mousetrap_15n.jpg,1.0,clock_5_4.png,4.0,24,,,,,,,,,,,,,,,,,,,,,,,,,,,,,,,,
0.0,1.0,2.03091,0.0,22.0,22.0,22.0,1.0,thermostat_02s.jpg,0.0,clock_5_5.png,4.0,24,,,,,,,,,,,,,,,,,,,,,,,,,,,,,,,,
0.0,1.0,1.707595,0.0,23.0,23.0,23.0,1.0,petri_dish_12s.jpg,0.0,clock_6_1.png,5.0,24,,,,,,,,,,,,,,,,,,,,,,,,,,,,,,,,
1.0,1.0,1.91082,0.0,24.0,24.0,24.0,1.0,petri_dish_12s.jpg,1.0,clock_6_2.png,5.0,24,,,,,,,,,,,,,,,,,,,,,,,,,,,,,,,,
0.0,1.0,1.67168,0.0,25.0,25.0,25.0,1.0,limousine_12s.jpg,0.0,clock_6_3.png,5.0,24,,,,,,,,,,,,,,,,,,,,,,,,,,,,,,,,
0.0,1.0,2.42968,0.0,26.0,26.0,26.0,1.0,loveseat_08s.jpg,0.0,clock_6_4.png,5.0,24,,,,,,,,,,,,,,,,,,,,,,,,,,,,,,,,
0.0,1.0,2.014915,0.0,27.0,27.0,27.0,1.0,muffin_12n.jpg,0.0,clock_6_5.png,5.0,24,,,,,,,,,,,,,,,,,,,,,,,,,,,,,,,,
0.0,1.0,0.98506,0.0,28.0,28.0,28.0,1.0,orchid_01b.jpg,0.0,clock_6_6.png,5.0,24,,,,,,,,,,,,,,,,,,,,,,,,,,,,,,,,
0.0,1.0,0.958965,0.0,29.0,29.0,29.0,1.0,incense_02s.jpg,0.0,clock_7_1.png,6.0,24,,,,,,,,,,,,,,,,,,,,,,,,,,,,,,,,
0.0,1.0,0.6407,0.0,30.0,30.0,30.0,1.0,exhaust_pipe_10s.jpg,0.0,clock_7_2.png,6.0,24,,,,,,,,,,,,,,,,,,,,,,,,,,,,,,,,
0.0,1.0,0.8415,0.0,31.0,31.0,31.0,1.0,plunger_08s.jpg,0.0,clock_7_3.png,6.0,24,,,,,,,,,,,,,,,,,,,,,,,,,,,,,,,,
0.0,1.0,0.44083,0.0,32.0,32.0,32.0,1.0,orchid_01b.jpg,0.0,clock_7_4.png,6.0,24,,,,,,,,,,,,,,,,,,,,,,,,,,,,,,,,
0.0,1.0,0.548445,0.0,33.0,33.0,33.0,1.0,tongs_08s.jpg,0.0,clock_7_5.png,6.0,24,,,,,,,,,,,,,,,,,,,,,,,,,,,,,,,,
0.0,1.0,0.641235,0.0,34.0,34.0,34.0,1.0,pomegranate_04s.jpg,0.0,clock_7_6.png,6.0,24,,,,,,,,,,,,,,,,,,,,,,,,,,,,,,,,
0.0,0.0,1.30702,0.0,35.0,35.0,35.0,1.0,exhaust_pipe_10s.jpg,1.0,clock_7_7.png,6.0,24,,,,,,,,,,,,,,,,,,,,,,,,,,,,,,,,
,,,,,,,,,0.0,,,24,0.0,1.0,4.815845,0.0,0.0,0.0,0.0,1.0,limousine_12s.jpg,thermostat_02s.jpg,,,,,,,,,,,,,,,,,,,,,,
,,,,,,,,,0.0,,,24,0.0,1.0,1.55314,0.0,1.0,1.0,1.0,1.0,incense_02s.jpg,loveseat_08s.jpg,,,,,,,,,,,,,,,,,,,,,,
,,,,,,,,,1.0,,,24,0.0,0.0,3.11569,0.0,2.0,2.0,2.0,1.0,punch1_10s.jpg,popcorn_09s.jpg,,,,,,,,,,,,,,,,,,,,,,
,,,,,,,,,0.0,,,24,0.0,1.0,2.289425,0.0,3.0,3.0,3.0,1.0,owl_15s.jpg,rocket_02s.jpg,,,,,,,,,,,,,,,,,,,,,,
,,,,,,,,,0.0,,,24,1.0,0.0,2.04518,0.0,4.0,4.0,4.0,1.0,pomegranate_04s.jpg,plunger_08s.jpg,,,,,,,,,,,,,,,,,,,,,,
,,,,,,,,,0.0,,,24,1.0,0.0,1.636825,0.0,5.0,5.0,5.0,1.0,megaphone_03s.jpg,juicer2_06s.jpg,,,,,,,,,,,,,,,,,,,,,,
,,,,,,,,,,,,24,,,,,,,,,,,0.0,1.0,1.0,1.0,1.0,clock_present_2_9.xlsx,clock_compare_task_2_9.xlsx,,,,,,,,,,,,,,,
0.0,1.0,2.107185,0.0,0.0,0.0,0.0,1.0,teapot_03s.jpg,0.0,clock_5_1.png,1.0,24,,,,,,,,,,,,,,,,,,,,,,,,,,,,,,,,
0.0,1.0,0.832665,0.0,1.0,1.0,1.0,1.0,tweezers_03s.jpg,0.0,clock_5_2.png,1.0,24,,,,,,,,,,,,,,,,,,,,,,,,,,,,,,,,
1.0,1.0,1.214135,0.0,2.0,2.0,2.0,1.0,teapot_03s.jpg,1.0,clock_5_3.png,1.0,24,,,,,,,,,,,,,,,,,,,,,,,,,,,,,,,,
0.0,1.0,1.48698,0.0,3.0,3.0,3.0,1.0,rocking_chair_05s.jpg,0.0,clock_5_4.png,1.0,24,,,,,,,,,,,,,,,,,,,,,,,,,,,,,,,,
1.0,1.0,1.19314,0.0,4.0,4.0,4.0,1.0,rocking_chair_05s.jpg,1.0,clock_5_5.png,1.0,24,,,,,,,,,,,,,,,,,,,,,,,,,,,,,,,,
0.0,1.0,0.75311,0.0,5.0,5.0,5.0,1.0,memory_stick_11s.jpg,0.0,clock_6_1.png,2.0,24,,,,,,,,,,,,,,,,,,,,,,,,,,,,,,,,
1.0,1.0,1.97318,0.0,6.0,6.0,6.0,1.0,memory_stick_11s.jpg,1.0,clock_6_2.png,2.0,24,,,,,,,,,,,,,,,,,,,,,,,,,,,,,,,,
0.0,1.0,1.323705,0.0,7.0,7.0,7.0,1.0,power_line_08s.jpg,0.0,clock_6_3.png,2.0,24,,,,,,,,,,,,,,,,,,,,,,,,,,,,,,,,
0.0,1.0,1.045165,0.0,8.0,8.0,8.0,1.0,tambourine_06s.jpg,0.0,clock_6_4.png,2.0,24,,,,,,,,,,,,,,,,,,,,,,,,,,,,,,,,
0.0,1.0,0.93212,0.0,9.0,9.0,9.0,1.0,lifesaver_10s.jpg,0.0,clock_6_5.png,2.0,24,,,,,,,,,,,,,,,,,,,,,,,,,,,,,,,,
0.0,1.0,1.46943,0.0,10.0,10.0,10.0,1.0,punch2_09s.jpg,0.0,clock_6_6.png,2.0,24,,,,,,,,,,,,,,,,,,,,,,,,,,,,,,,,
0.0,1.0,1.922235,0.0,11.0,11.0,11.0,1.0,feather02.jpg,0.0,clock_7_1.png,3.0,24,,,,,,,,,,,,,,,,,,,,,,,,,,,,,,,,
,0.0,,0.0,12.0,12.0,12.0,1.0,pencil02a.jpg,0.0,clock_7_2.png,3.0,24,,,,,,,,,,,,,,,,,,,,,,,,,,,,,,,,
0.0,1.0,0.690815,0.0,13.0,13.0,13.0,1.0,radiator_05s.jpg,0.0,clock_7_3.png,3.0,24,,,,,,,,,,,,,,,,,,,,,,,,,,,,,,,,
0.0,1.0,1.15094,0.0,14.0,14.0,14.0,1.0,olive_05s.jpg,0.0,clock_7_4.png,3.0,24,,,,,,,,,,,,,,,,,,,,,,,,,,,,,,,,
1.0,1.0,1.291415,0.0,15.0,15.0,15.0,1.0,radiator_05s.jpg,1.0,clock_7_5.png,3.0,24,,,,,,,,,,,,,,,,,,,,,,,,,,,,,,,,
0.0,1.0,1.35598,0.0,16.0,16.0,16.0,1.0,marshmallow_08s.jpg,0.0,clock_7_6.png,3.0,24,,,,,,,,,,,,,,,,,,,,,,,,,,,,,,,,
0.0,1.0,1.09071,0.0,17.0,17.0,17.0,1.0,pillbox_04s.jpg,0.0,clock_7_7.png,3.0,24,,,,,,,,,,,,,,,,,,,,,,,,,,,,,,,,
0.0,1.0,1.089955,0.0,18.0,18.0,18.0,1.0,laundry_basket_11s.jpg,0.0,clock_5_1.png,4.0,24,,,,,,,,,,,,,,,,,,,,,,,,,,,,,,,,
1.0,1.0,1.50519,0.0,19.0,19.0,19.0,1.0,laundry_basket_11s.jpg,1.0,clock_5_2.png,4.0,24,,,,,,,,,,,,,,,,,,,,,,,,,,,,,,,,
1.0,1.0,0.930445,0.0,20.0,20.0,20.0,1.0,laundry_basket_11s.jpg,1.0,clock_5_3.png,4.0,24,,,,,,,,,,,,,,,,,,,,,,,,,,,,,,,,
1.0,0.0,1.56407,0.0,21.0,21.0,21.0,1.0,knitting_needle_04s.jpg,0.0,clock_5_4.png,4.0,24,,,,,,,,,,,,,,,,,,,,,,,,,,,,,,,,
0.0,1.0,0.9858,0.0,22.0,22.0,22.0,1.0,machete_06s.jpg,0.0,clock_5_5.png,4.0,24,,,,,,,,,,,,,,,,,,,,,,,,,,,,,,,,
,0.0,,0.0,23.0,23.0,23.0,1.0,marker_05s.jpg,0.0,clock_6_1.png,5.0,24,,,,,,,,,,,,,,,,,,,,,,,,,,,,,,,,
,0.0,,0.0,24.0,24.0,24.0,1.0,ram_05s.jpg,0.0,clock_6_2.png,5.0,24,,,,,,,,,,,,,,,,,,,,,,,,,,,,,,,,
0.0,1.0,0.56436,0.0,25.0,25.0,25.0,1.0,ukulele_02s.jpg,0.0,clock_6_3.png,5.0,24,,,,,,,,,,,,,,,,,,,,,,,,,,,,,,,,
0.0,1.0,0.593035,0.0,26.0,26.0,26.0,1.0,stamp2_08s.jpg,0.0,clock_6_4.png,5.0,24,,,,,,,,,,,,,,,,,,,,,,,,,,,,,,,,
0.0,1.0,1.215055,0.0,27.0,27.0,27.0,1.0,plaster_cast_13s.jpg,0.0,clock_6_5.png,5.0,24,,,,,,,,,,,,,,,,,,,,,,,,,,,,,,,,
0.0,1.0,1.078515,0.0,28.0,28.0,28.0,1.0,tape_measure_11s.jpg,0.0,clock_6_6.png,5.0,24,,,,,,,,,,,,,,,,,,,,,,,,,,,,,,,,
0.0,1.0,0.887165,0.0,29.0,29.0,29.0,1.0,pantyhose_07s.jpg,0.0,clock_7_1.png,6.0,24,,,,,,,,,,,,,,,,,,,,,,,,,,,,,,,,
0.0,1.0,1.485435,0.0,30.0,30.0,30.0,1.0,spatula04.jpg,0.0,clock_7_2.png,6.0,24,,,,,,,,,,,,,,,,,,,,,,,,,,,,,,,,
0.0,1.0,1.721795,0.0,31.0,31.0,31.0,1.0,checkbook_11s.jpg,0.0,clock_7_3.png,6.0,24,,,,,,,,,,,,,,,,,,,,,,,,,,,,,,,,
0.0,1.0,1.578585,0.0,32.0,32.0,32.0,1.0,phone_01b.jpg,0.0,clock_7_4.png,6.0,24,,,,,,,,,,,,,,,,,,,,,,,,,,,,,,,,
1.0,0.0,1.72743,0.0,33.0,33.0,33.0,1.0,ram_05s.jpg,0.0,clock_7_5.png,6.0,24,,,,,,,,,,,,,,,,,,,,,,,,,,,,,,,,
0.0,1.0,0.94071,0.0,34.0,34.0,34.0,1.0,pillbox_04s.jpg,0.0,clock_7_6.png,6.0,24,,,,,,,,,,,,,,,,,,,,,,,,,,,,,,,,
0.0,1.0,0.70453,0.0,35.0,35.0,35.0,1.0,tulip_02s.jpg,0.0,clock_7_7.png,6.0,24,,,,,,,,,,,,,,,,,,,,,,,,,,,,,,,,
,,,,,,,,,0.0,,,24,0.0,1.0,2.926605,0.0,0.0,0.0,0.0,1.0,pencil02a.jpg,lifesaver_10s.jpg,,,,,,,,,,,,,,,,,,,,,,
,,,,,,,,,1.0,,,24,1.0,1.0,1.791875,0.0,1.0,1.0,1.0,1.0,plaster_cast_13s.jpg,spatula04.jpg,,,,,,,,,,,,,,,,,,,,,,
,,,,,,,,,1.0,,,24,1.0,1.0,2.359165,0.0,2.0,2.0,2.0,1.0,tambourine_06s.jpg,feather02.jpg,,,,,,,,,,,,,,,,,,,,,,
,,,,,,,,,0.0,,,24,1.0,0.0,4.109865,0.0,3.0,3.0,3.0,1.0,punch2_09s.jpg,power_line_08s.jpg,,,,,,,,,,,,,,,,,,,,,,
,,,,,,,,,1.0,,,24,0.0,0.0,2.208385,0.0,4.0,4.0,4.0,1.0,phone_01b.jpg,tulip_02s.jpg,,,,,,,,,,,,,,,,,,,,,,
,,,,,,,,,1.0,,,24,0.0,0.0,1.55388,0.0,5.0,5.0,5.0,1.0,marker_05s.jpg,stamp2_08s.jpg,,,,,,,,,,,,,,,,,,,,,,
,,,,,,,,,,,,24,,,,,,,,,,,0.0,2.0,2.0,2.0,1.0,clock_present_3_9.xlsx,clock_compare_task_3_9.xlsx,,,,,,,,,,,,,,,
0.0,1.0,1.79362,0.0,0.0,0.0,0.0,1.0,comic_book_02s.jpg,0.0,clock_6_1.png,1.0,24,,,,,,,,,,,,,,,,,,,,,,,,,,,,,,,,
0.0,1.0,0.517,0.0,1.0,1.0,1.0,1.0,bolo_tie_08s.jpg,0.0,clock_6_2.png,1.0,24,,,,,,,,,,,,,,,,,,,,,,,,,,,,,,,,
1.0,1.0,1.31147,0.0,2.0,2.0,2.0,1.0,comic_book_02s.jpg,1.0,clock_6_3.png,1.0,24,,,,,,,,,,,,,,,,,,,,,,,,,,,,,,,,
0.0,1.0,1.015175,0.0,3.0,3.0,3.0,1.0,tomato_sauce_09s.jpg,0.0,clock_6_4.png,1.0,24,,,,,,,,,,,,,,,,,,,,,,,,,,,,,,,,
0.0,1.0,1.30466,0.0,4.0,4.0,4.0,1.0,tiger_06s.jpg,0.0,clock_6_5.png,1.0,24,,,,,,,,,,,,,,,,,,,,,,,,,,,,,,,,
0.0,1.0,1.195575,0.0,5.0,5.0,5.0,1.0,ice-cream_cone_06s.jpg,0.0,clock_6_6.png,1.0,24,,,,,,,,,,,,,,,,,,,,,,,,,,,,,,,,
0.0,1.0,1.23971,0.0,6.0,6.0,6.0,1.0,bacon_05s.jpg,0.0,clock_6_1.png,2.0,24,,,,,,,,,,,,,,,,,,,,,,,,,,,,,,,,
0.0,1.0,1.94149,0.0,7.0,7.0,7.0,1.0,padlock_07s.jpg,0.0,clock_6_2.png,2.0,24,,,,,,,,,,,,,,,,,,,,,,,,,,,,,,,,
0.0,1.0,1.97989,0.0,8.0,8.0,8.0,1.0,pepper2_21s.jpg,0.0,clock_6_3.png,2.0,24,,,,,,,,,,,,,,,,,,,,,,,,,,,,,,,,
0.0,1.0,1.291265,0.0,9.0,9.0,9.0,1.0,possum_09s.jpg,0.0,clock_6_4.png,2.0,24,,,,,,,,,,,,,,,,,,,,,,,,,,,,,,,,
,0.0,,0.0,10.0,10.0,10.0,1.0,golf_club_03s.jpg,0.0,clock_6_5.png,2.0,24,,,,,,,,,,,,,,,,,,,,,,,,,,,,,,,,
1.0,1.0,1.40677,0.0,11.0,11.0,11.0,1.0,golf_club_03s.jpg,1.0,clock_6_6.png,2.0,24,,,,,,,,,,,,,,,,,,,,,,,,,,,,,,,,
0.0,1.0,1.602885,0.0,12.0,12.0,12.0,1.0,gear_07s.jpg,0.0,clock_7_1.png,3.0,24,,,,,,,,,,,,,,,,,,,,,,,,,,,,,,,,
0.0,1.0,1.7417,0.0,13.0,13.0,13.0,1.0,lion_18s.jpg,0.0,clock_7_2.png,3.0,24,,,,,,,,,,,,,,,,,,,,,,,,,,,,,,,,
0.0,1.0,1.399325,0.0,14.0,14.0,14.0,1.0,stapler_01b.jpg,0.0,clock_7_3.png,3.0,24,,,,,,,,,,,,,,,,,,,,,,,,,,,,,,,,
0.0,1.0,1.884275,0.0,15.0,15.0,15.0,1.0,camcorder_10s.jpg,0.0,clock_7_4.png,3.0,24,,,,,,,,,,,,,,,,,,,,,,,,,,,,,,,,
0.0,1.0,1.007955,0.0,16.0,16.0,16.0,1.0,gingerbread_man_03s.jpg,0.0,clock_7_5.png,3.0,24,,,,,,,,,,,,,,,,,,,,,,,,,,,,,,,,
1.0,0.0,1.343135,0.0,17.0,17.0,17.0,1.0,pepper2_21s.jpg,0.0,clock_7_6.png,3.0,24,,,,,,,,,,,,,,,,,,,,,,,,,,,,,,,,
0.0,1.0,0.57964,0.0,18.0,18.0,18.0,1.0,pea_11s.jpg,0.0,clock_7_7.png,3.0,24,,,,,,,,,,,,,,,,,,,,,,,,,,,,,,,,
0.0,1.0,0.461025,0.0,19.0,19.0,19.0,1.0,peach_04s.jpg,0.0,clock_5_1.png,4.0,24,,,,,,,,,,,,,,,,,,,,,,,,,,,,,,,,
0.0,1.0,1.287315,0.0,20.0,20.0,20.0,1.0,mushroom_10n.jpg,0.0,clock_5_2.png,4.0,24,,,,,,,,,,,,,,,,,,,,,,,,,,,,,,,,
0.0,1.0,0.928495,0.0,21.0,21.0,21.0,1.0,swimming_pool_17s.jpg,0.0,clock_5_3.png,4.0,24,,,,,,,,,,,,,,,,,,,,,,,,,,,,,,,,
0.0,1.0,0.649055,0.0,22.0,22.0,22.0,1.0,pan_02s.jpg,0.0,clock_5_4.png,4.0,24,,,,,,,,,,,,,,,,,,,,,,,,,,,,,,,,
0.0,1.0,0.749335,0.0,23.0,23.0,23.0,1.0,fox_13s.jpg,0.0,clock_5_5.png,4.0,24,,,,,,,,,,,,,,,,,,,,,,,,,,,,,,,,
0.0,1.0,0.62837,0.0,24.0,24.0,24.0,1.0,latch_15s.jpg,0.0,clock_7_1.png,5.0,24,,,,,,,,,,,,,,,,,,,,,,,,,,,,,,,,
0.0,1.0,0.648,0.0,25.0,25.0,25.0,1.0,tinsel_12s.jpg,0.0,clock_7_2.png,5.0,24,,,,,,,,,,,,,,,,,,,,,,,,,,,,,,,,
0.0,1.0,0.470185,0.0,26.0,26.0,26.0,1.0,oil_02s.jpg,0.0,clock_7_3.png,5.0,24,,,,,,,,,,,,,,,,,,,,,,,,,,,,,,,,
0.0,1.0,0.41627,0.0,27.0,27.0,27.0,1.0,pepper2_21s.jpg,0.0,clock_7_4.png,5.0,24,,,,,,,,,,,,,,,,,,,,,,,,,,,,,,,,
0.0,0.0,0.535065,0.0,28.0,28.0,28.0,1.0,latch_15s.jpg,1.0,clock_7_5.png,5.0,24,,,,,,,,,,,,,,,,,,,,,,,,,,,,,,,,
0.0,1.0,0.58101,0.0,29.0,29.0,29.0,1.0,sunglasses_11s.jpg,0.0,clock_7_6.png,5.0,24,,,,,,,,,,,,,,,,,,,,,,,,,,,,,,,,
0.0,1.0,0.500545,0.0,30.0,30.0,30.0,1.0,diving_board_07s.jpg,0.0,clock_7_7.png,5.0,24,,,,,,,,,,,,,,,,,,,,,,,,,,,,,,,,
0.0,1.0,1.36119,0.0,31.0,31.0,31.0,1.0,smokingpipe.jpg,0.0,clock_5_1.png,6.0,24,,,,,,,,,,,,,,,,,,,,,,,,,,,,,,,,
0.0,1.0,0.78377,0.0,32.0,32.0,32.0,1.0,possum_09s.jpg,0.0,clock_5_2.png,6.0,24,,,,,,,,,,,,,,,,,,,,,,,,,,,,,,,,
0.0,1.0,0.92393,0.0,33.0,33.0,33.0,1.0,beaker_01b.jpg,0.0,clock_5_3.png,6.0,24,,,,,,,,,,,,,,,,,,,,,,,,,,,,,,,,
0.0,1.0,1.06993,0.0,34.0,34.0,34.0,1.0,milk_02s.jpg,0.0,clock_5_4.png,6.0,24,,,,,,,,,,,,,,,,,,,,,,,,,,,,,,,,
0.0,1.0,1.33903,0.0,35.0,35.0,35.0,1.0,tuxedo_01b.jpg,0.0,clock_5_5.png,6.0,24,,,,,,,,,,,,,,,,,,,,,,,,,,,,,,,,
,,,,,,,,,0.0,,,24,1.0,0.0,3.64435,0.0,0.0,0.0,0.0,1.0,bacon_05s.jpg,tomato_sauce_09s.jpg,,,,,,,,,,,,,,,,,,,,,,
,,,,,,,,,1.0,,,24,0.0,0.0,3.181,0.0,1.0,1.0,1.0,1.0,diving_board_07s.jpg,beaker_01b.jpg,,,,,,,,,,,,,,,,,,,,,,
,,,,,,,,,1.0,,,24,0.0,0.0,1.894155,0.0,2.0,2.0,2.0,1.0,tiger_06s.jpg,padlock_07s.jpg,,,,,,,,,,,,,,,,,,,,,,
,,,,,,,,,0.0,,,24,0.0,1.0,1.363135,0.0,3.0,3.0,3.0,1.0,camcorder_10s.jpg,gear_07s.jpg,,,,,,,,,,,,,,,,,,,,,,
,,,,,,,,,1.0,,,24,1.0,1.0,2.834235,0.0,4.0,4.0,4.0,1.0,smokingpipe.jpg,milk_02s.jpg,,,,,,,,,,,,,,,,,,,,,,
,,,,,,,,,0.0,,,24,1.0,0.0,2.213175,0.0,5.0,5.0,5.0,1.0,gingerbread_man_03s.jpg,lion_18s.jpg,,,,,,,,,,,,,,,,,,,,,,
,,,,,,,,,,,,24,,,,,,,,,,,0.0,3.0,3.0,3.0,1.0,clock_present_4_9.xlsx,clock_compare_task_4_9.xlsx,,,,,,,,,,,,,,,
0.0,1.0,1.72478,0.0,0.0,0.0,0.0,1.0,swordfish_05s.jpg,0.0,clock_5_1.png,1.0,24,,,,,,,,,,,,,,,,,,,,,,,,,,,,,,,,
0.0,1.0,0.486435,0.0,1.0,1.0,1.0,1.0,sleeping_bag_12s.jpg,0.0,clock_5_2.png,1.0,24,,,,,,,,,,,,,,,,,,,,,,,,,,,,,,,,
0.0,1.0,0.45128,0.0,2.0,2.0,2.0,1.0,turnstile_08s.jpg,0.0,clock_5_3.png,1.0,24,,,,,,,,,,,,,,,,,,,,,,,,,,,,,,,,
0.0,1.0,0.842765,0.0,3.0,3.0,3.0,1.0,otter_05s.jpg,0.0,clock_5_4.png,1.0,24,,,,,,,,,,,,,,,,,,,,,,,,,,,,,,,,
0.0,1.0,0.55492,0.0,4.0,4.0,4.0,1.0,frame_06s.jpg,0.0,clock_5_5.png,1.0,24,,,,,,,,,,,,,,,,,,,,,,,,,,,,,,,,
0.0,1.0,1.284415,0.0,5.0,5.0,5.0,1.0,icemaker_10s.jpg,0.0,clock_6_1.png,2.0,24,,,,,,,,,,,,,,,,,,,,,,,,,,,,,,,,
0.0,1.0,0.64841,0.0,6.0,6.0,6.0,1.0,playpen_11s.jpg,0.0,clock_6_2.png,2.0,24,,,,,,,,,,,,,,,,,,,,,,,,,,,,,,,,
0.0,1.0,0.54508,0.0,7.0,7.0,7.0,1.0,insole_11s.jpg,0.0,clock_6_3.png,2.0,24,,,,,,,,,,,,,,,,,,,,,,,,,,,,,,,,
1.0,1.0,2.156525,0.0,8.0,8.0,8.0,1.0,playpen_11s.jpg,1.0,clock_6_4.png,2.0,24,,,,,,,,,,,,,,,,,,,,,,,,,,,,,,,,
0.0,1.0,1.38129,0.0,9.0,9.0,9.0,1.0,metronome_03s.jpg,0.0,clock_6_5.png,2.0,24,,,,,,,,,,,,,,,,,,,,,,,,,,,,,,,,
0.0,1.0,0.84233,0.0,10.0,10.0,10.0,1.0,chime_12s.jpg,0.0,clock_6_6.png,2.0,24,,,,,,,,,,,,,,,,,,,,,,,,,,,,,,,,
0.0,1.0,0.75474,0.0,11.0,11.0,11.0,1.0,thread_08s.jpg,0.0,clock_7_1.png,3.0,24,,,,,,,,,,,,,,,,,,,,,,,,,,,,,,,,
0.0,1.0,0.49874,0.0,12.0,12.0,12.0,1.0,lizard_10n.jpg,0.0,clock_7_2.png,3.0,24,,,,,,,,,,,,,,,,,,,,,,,,,,,,,,,,
0.0,1.0,0.57549,0.0,13.0,13.0,13.0,1.0,kayak_08s.jpg,0.0,clock_7_3.png,3.0,24,,,,,,,,,,,,,,,,,,,,,,,,,,,,,,,,
0.0,1.0,0.48097,0.0,14.0,14.0,14.0,1.0,coral_08s.jpg,0.0,clock_7_4.png,3.0,24,,,,,,,,,,,,,,,,,,,,,,,,,,,,,,,,
0.0,0.0,0.662735,0.0,15.0,15.0,15.0,1.0,kayak_08s.jpg,1.0,clock_7_5.png,3.0,24,,,,,,,,,,,,,,,,,,,,,,,,,,,,,,,,
0.0,1.0,0.782455,0.0,16.0,16.0,16.0,1.0,mailbox_11s.jpg,0.0,clock_7_6.png,3.0,24,,,,,,,,,,,,,,,,,,,,,,,,,,,,,,,,
0.0,1.0,0.74126,0.0,17.0,17.0,17.0,1.0,rope_16s.jpg,0.0,clock_7_7.png,3.0,24,,,,,,,,,,,,,,,,,,,,,,,,,,,,,,,,
0.0,1.0,0.925635,0.0,18.0,18.0,18.0,1.0,saddle_06s.jpg,0.0,clock_7_1.png,4.0,24,,,,,,,,,,,,,,,,,,,,,,,,,,,,,,,,
0.0,1.0,0.76668,0.0,19.0,19.0,19.0,1.0,duck_01b.jpg,0.0,clock_7_2.png,4.0,24,,,,,,,,,,,,,,,,,,,,,,,,,,,,,,,,
0.0,0.0,1.02216,0.0,20.0,20.0,20.0,1.0,duck_01b.jpg,1.0,clock_7_3.png,4.0,24,,,,,,,,,,,,,,,,,,,,,,,,,,,,,,,,
0.0,1.0,1.822395,0.0,21.0,21.0,21.0,1.0,mitten_10s.jpg,0.0,clock_7_4.png,4.0,24,,,,,,,,,,,,,,,,,,,,,,,,,,,,,,,,
0.0,1.0,0.861565,0.0,22.0,22.0,22.0,1.0,birdcage_08s.jpg,0.0,clock_7_5.png,4.0,24,,,,,,,,,,,,,,,,,,,,,,,,,,,,,,,,
0.0,1.0,0.76939,0.0,23.0,23.0,23.0,1.0,birthday_cake_09s.jpg,0.0,clock_7_6.png,4.0,24,,,,,,,,,,,,,,,,,,,,,,,,,,,,,,,,
1.0,1.0,1.33028,0.0,24.0,24.0,24.0,1.0,duck_01b.jpg,1.0,clock_7_7.png,4.0,24,,,,,,,,,,,,,,,,,,,,,,,,,,,,,,,,
0.0,1.0,0.536745,0.0,25.0,25.0,25.0,1.0,printer_09s.jpg,0.0,clock_6_1.png,5.0,24,,,,,,,,,,,,,,,,,,,,,,,,,,,,,,,,
0.0,1.0,1.358605,0.0,26.0,26.0,26.0,1.0,syringe_02s.jpg,0.0,clock_6_2.png,5.0,24,,,,,,,,,,,,,,,,,,,,,,,,,,,,,,,,
0.0,1.0,0.641945,0.0,27.0,27.0,27.0,1.0,jewel_01b.jpg,0.0,clock_6_3.png,5.0,24,,,,,,,,,,,,,,,,,,,,,,,,,,,,,,,,
0.0,1.0,0.449595,0.0,28.0,28.0,28.0,1.0,paper_bag_12s.jpg,0.0,clock_6_4.png,5.0,24,,,,,,,,,,,,,,,,,,,,,,,,,,,,,,,,
0.0,1.0,1.216775,0.0,29.0,29.0,29.0,1.0,gargoyle_08s.jpg,0.0,clock_6_5.png,5.0,24,,,,,,,,,,,,,,,,,,,,,,,,,,,,,,,,
0.0,1.0,1.32673,0.0,30.0,30.0,30.0,1.0,otter_05s.jpg,0.0,clock_6_6.png,5.0,24,,,,,,,,,,,,,,,,,,,,,,,,,,,,,,,,
0.0,1.0,1.28659,0.0,31.0,31.0,31.0,1.0,seahorse_13s.jpg,0.0,clock_5_1.png,6.0,24,,,,,,,,,,,,,,,,,,,,,,,,,,,,,,,,
0.0,1.0,1.298235,0.0,32.0,32.0,32.0,1.0,metronome_03s.jpg,0.0,clock_5_2.png,6.0,24,,,,,,,,,,,,,,,,,,,,,,,,,,,,,,,,
0.0,1.0,1.314425,0.0,33.0,33.0,33.0,1.0,sea_urchin_09s.jpg,0.0,clock_5_3.png,6.0,24,,,,,,,,,,,,,,,,,,,,,,,,,,,,,,,,
0.0,1.0,1.173455,0.0,34.0,34.0,34.0,1.0,orange_12s.jpg,0.0,clock_5_4.png,6.0,24,,,,,,,,,,,,,,,,,,,,,,,,,,,,,,,,
0.0,1.0,1.09512,0.0,35.0,35.0,35.0,1.0,safety_pin_02s.jpg,0.0,clock_5_5.png,6.0,24,,,,,,,,,,,,,,,,,,,,,,,,,,,,,,,,
,,,,,,,,,0.0,,,24,0.0,1.0,10.7878,0.0,0.0,0.0,0.0,1.0,icemaker_10s.jpg,turnstile_08s.jpg,,,,,,,,,,,,,,,,,,,,,,
,,,,,,,,,1.0,,,24,0.0,0.0,1.333415,0.0,1.0,1.0,1.0,1.0,birdcage_08s.jpg,printer_09s.jpg,,,,,,,,,,,,,,,,,,,,,,
,,,,,,,,,1.0,,,24,1.0,1.0,3.46083,0.0,2.0,2.0,2.0,1.0,birthday_cake_09s.jpg,syringe_02s.jpg,,,,,,,,,,,,,,,,,,,,,,
,,,,,,,,,1.0,,,24,1.0,1.0,1.64775,0.0,3.0,3.0,3.0,1.0,thread_08s.jpg,coral_08s.jpg,,,,,,,,,,,,,,,,,,,,,,
,,,,,,,,,0.0,,,24,1.0,0.0,1.361605,0.0,4.0,4.0,4.0,1.0,mitten_10s.jpg,saddle_06s.jpg,,,,,,,,,,,,,,,,,,,,,,
,,,,,,,,,1.0,,,24,1.0,1.0,1.476645,0.0,5.0,5.0,5.0,1.0,sleeping_bag_12s.jpg,frame_06s.jpg,,,,,,,,,,,,,,,,,,,,,,
,,,,,,,,,,,,24,,,,,,,,,,,0.0,4.0,4.0,4.0,1.0,clock_present_5_9.xlsx,clock_compare_task_5_9.xlsx,,,,,,,,,,,,,,,
,0.0,,0.0,0.0,0.0,0.0,1.0,hummingbird_05s.jpg,0.0,clock_6_1.png,1.0,24,,,,,,,,,,,,,,,,,,,,,,,,,,,,,,,,
0.0,1.0,0.68406,0.0,1.0,1.0,1.0,1.0,soccer_ball_12s.jpg,0.0,clock_6_2.png,1.0,24,,,,,,,,,,,,,,,,,,,,,,,,,,,,,,,,
1.0,1.0,1.31083,0.0,2.0,2.0,2.0,1.0,hummingbird_05s.jpg,1.0,clock_6_3.png,1.0,24,,,,,,,,,,,,,,,,,,,,,,,,,,,,,,,,
0.0,1.0,0.682705,0.0,3.0,3.0,3.0,1.0,reindeer_08s.jpg,0.0,clock_6_4.png,1.0,24,,,,,,,,,,,,,,,,,,,,,,,,,,,,,,,,
0.0,1.0,0.55885,0.0,4.0,4.0,4.0,1.0,coat_rack_01b.jpg,0.0,clock_6_5.png,1.0,24,,,,,,,,,,,,,,,,,,,,,,,,,,,,,,,,
0.0,1.0,0.67061,0.0,5.0,5.0,5.0,1.0,turkey_10s.jpg,0.0,clock_6_6.png,1.0,24,,,,,,,,,,,,,,,,,,,,,,,,,,,,,,,,
0.0,1.0,0.526745,0.0,6.0,6.0,6.0,1.0,trumpet_06s.jpg,0.0,clock_5_1.png,2.0,24,,,,,,,,,,,,,,,,,,,,,,,,,,,,,,,,
0.0,0.0,0.44609,0.0,7.0,7.0,7.0,1.0,trumpet_06s.jpg,1.0,clock_5_2.png,2.0,24,,,,,,,,,,,,,,,,,,,,,,,,,,,,,,,,
1.0,1.0,2.074645,0.0,8.0,8.0,8.0,1.0,trumpet_06s.jpg,1.0,clock_5_3.png,2.0,24,,,,,,,,,,,,,,,,,,,,,,,,,,,,,,,,
0.0,1.0,1.79668,0.0,9.0,9.0,9.0,1.0,hummingbird_05s.jpg,0.0,clock_5_4.png,2.0,24,,,,,,,,,,,,,,,,,,,,,,,,,,,,,,,,
0.0,1.0,0.658955,0.0,10.0,10.0,10.0,1.0,projector_08s.jpg,0.0,clock_5_5.png,2.0,24,,,,,,,,,,,,,,,,,,,,,,,,,,,,,,,,
0.0,1.0,0.794545,0.0,11.0,11.0,11.0,1.0,ravioli_08s.jpg,0.0,clock_5_1.png,3.0,24,,,,,,,,,,,,,,,,,,,,,,,,,,,,,,,,
0.0,1.0,0.636785,0.0,12.0,12.0,12.0,1.0,pencil_sharpener_09n.jpg,0.0,clock_5_2.png,3.0,24,,,,,,,,,,,,,,,,,,,,,,,,,,,,,,,,
1.0,1.0,1.446405,0.0,13.0,13.0,13.0,1.0,ravioli_08s.jpg,1.0,clock_5_3.png,3.0,24,,,,,,,,,,,,,,,,,,,,,,,,,,,,,,,,
0.0,1.0,0.973785,0.0,14.0,14.0,14.0,1.0,red_carpet_03s.jpg,0.0,clock_5_4.png,3.0,24,,,,,,,,,,,,,,,,,,,,,,,,,,,,,,,,
0.0,1.0,1.180535,0.0,15.0,15.0,15.0,1.0,chocolate_01b.jpg,0.0,clock_5_5.png,3.0,24,,,,,,,,,,,,,,,,,,,,,,,,,,,,,,,,
0.0,1.0,1.192835,0.0,16.0,16.0,16.0,1.0,puppy_08s.jpg,0.0,clock_6_1.png,4.0,24,,,,,,,,,,,,,,,,,,,,,,,,,,,,,,,,
0.0,1.0,1.23837,0.0,17.0,17.0,17.0,1.0,lab_coat_11s.jpg,0.0,clock_6_2.png,4.0,24,,,,,,,,,,,,,,,,,,,,,,,,,,,,,,,,
0.0,1.0,1.007425,0.0,18.0,18.0,18.0,1.0,jet_15s.jpg,0.0,clock_6_3.png,4.0,24,,,,,,,,,,,,,,,,,,,,,,,,,,,,,,,,
0.0,1.0,1.340325,0.0,19.0,19.0,19.0,1.0,pipe1_10s.jpg,0.0,clock_6_4.png,4.0,24,,,,,,,,,,,,,,,,,,,,,,,,,,,,,,,,
0.0,1.0,1.45367,0.0,20.0,20.0,20.0,1.0,roller_coaster_07s.jpg,0.0,clock_6_5.png,4.0,24,,,,,,,,,,,,,,,,,,,,,,,,,,,,,,,,
0.0,1.0,1.250445,0.0,21.0,21.0,21.0,1.0,rake_06s.jpg,0.0,clock_6_6.png,4.0,24,,,,,,,,,,,,,,,,,,,,,,,,,,,,,,,,
0.0,1.0,0.59455,0.0,22.0,22.0,22.0,1.0,stethoscope_01b.jpg,0.0,clock_7_1.png,5.0,24,,,,,,,,,,,,,,,,,,,,,,,,,,,,,,,,
0.0,1.0,0.688355,0.0,23.0,23.0,23.0,1.0,towel_rack_04s.jpg,0.0,clock_7_2.png,5.0,24,,,,,,,,,,,,,,,,,,,,,,,,,,,,,,,,
0.0,1.0,0.663645,0.0,24.0,24.0,24.0,1.0,pie_08s.jpg,0.0,clock_7_3.png,5.0,24,,,,,,,,,,,,,,,,,,,,,,,,,,,,,,,,
0.0,1.0,1.22573,0.0,25.0,25.0,25.0,1.0,key_07s.jpg,0.0,clock_7_4.png,5.0,24,,,,,,,,,,,,,,,,,,,,,,,,,,,,,,,,
0.0,1.0,1.249975,0.0,26.0,26.0,26.0,1.0,jersey_02s.jpg,0.0,clock_7_5.png,5.0,24,,,,,,,,,,,,,,,,,,,,,,,,,,,,,,,,
0.0,1.0,1.2827,0.0,27.0,27.0,27.0,1.0,tennis_ball_06s.jpg,0.0,clock_7_6.png,5.0,24,,,,,,,,,,,,,,,,,,,,,,,,,,,,,,,,
0.0,1.0,0.91008,0.0,28.0,28.0,28.0,1.0,bean_06s.jpg,0.0,clock_7_7.png,5.0,24,,,,,,,,,,,,,,,,,,,,,,,,,,,,,,,,
0.0,1.0,1.25638,0.0,29.0,29.0,29.0,1.0,scooter.jpg,0.0,clock_7_1.png,6.0,24,,,,,,,,,,,,,,,,,,,,,,,,,,,,,,,,
1.0,1.0,1.48107,0.0,30.0,30.0,30.0,1.0,scooter.jpg,1.0,clock_7_2.png,6.0,24,,,,,,,,,,,,,,,,,,,,,,,,,,,,,,,,
1.0,1.0,1.00172,0.0,31.0,31.0,31.0,1.0,scooter.jpg,1.0,clock_7_3.png,6.0,24,,,,,,,,,,,,,,,,,,,,,,,,,,,,,,,,
0.0,1.0,1.16696,0.0,32.0,32.0,32.0,1.0,bubble_01b.jpg,0.0,clock_7_4.png,6.0,24,,,,,,,,,,,,,,,,,,,,,,,,,,,,,,,,
0.0,1.0,0.69173,0.0,33.0,33.0,33.0,1.0,ice_pack_09s.jpg,0.0,clock_7_5.png,6.0,24,,,,,,,,,,,,,,,,,,,,,,,,,,,,,,,,
0.0,1.0,0.596155,0.0,34.0,34.0,34.0,1.0,leotard_08s.jpg,0.0,clock_7_6.png,6.0,24,,,,,,,,,,,,,,,,,,,,,,,,,,,,,,,,
0.0,1.0,1.04088,0.0,35.0,35.0,35.0,1.0,espresso_01b.jpg,0.0,clock_7_7.png,6.0,24,,,,,,,,,,,,,,,,,,,,,,,,,,,,,,,,
,,,,,,,,,0.0,,,24,0.0,1.0,2.541915,0.0,0.0,0.0,0.0,1.0,lab_coat_11s.jpg,red_carpet_03s.jpg,,,,,,,,,,,,,,,,,,,,,,
,,,,,,,,,1.0,,,24,1.0,1.0,2.624705,0.0,1.0,1.0,1.0,1.0,chocolate_01b.jpg,jet_15s.jpg,,,,,,,,,,,,,,,,,,,,,,
,,,,,,,,,0.0,,,24,0.0,1.0,2.47723,0.0,2.0,2.0,2.0,1.0,stethoscope_01b.jpg,pipe1_10s.jpg,,,,,,,,,,,,,,,,,,,,,,
,,,,,,,,,0.0,,,24,1.0,0.0,1.959225,0.0,3.0,3.0,3.0,1.0,coat_rack_01b.jpg,soccer_ball_12s.jpg,,,,,,,,,,,,,,,,,,,,,,
,,,,,,,,,1.0,,,24,1.0,1.0,1.481075,0.0,4.0,4.0,4.0,1.0,key_07s.jpg,bean_06s.jpg,,,,,,,,,,,,,,,,,,,,,,
,,,,,,,,,1.0,,,24,0.0,0.0,1.411985,0.0,5.0,5.0,5.0,1.0,bubble_01b.jpg,espresso_01b.jpg,,,,,,,,,,,,,,,,,,,,,,
0.0,1.0,1.34913,,,,,,quill_09s.jpg,0.0,clockno_up.jpg,1.0,24,,,,,,,,,,,,,,,,,,0.0,0.0,0.0,0.0,1.0,,,,,,,,,,
1.0,1.0,1.423285,,,,,,quill_09s.jpg,1.0,clockno_default.jpg,1.0,24,,,,,,,,,,,,,,,,,,0.0,1.0,1.0,1.0,1.0,,,,,,,,,,
0.0,1.0,0.66359,,,,,,ostrich_06s.jpg,0.0,clockno_default.jpg,1.0,24,,,,,,,,,,,,,,,,,,0.0,2.0,2.0,2.0,1.0,,,,,,,,,,
0.0,1.0,2.103455,,,,,,crab_16s.jpg,0.0,clockno_default.jpg,1.0,24,,,,,,,,,,,,,,,,,,0.0,3.0,3.0,3.0,1.0,,,,,,,,,,
0.0,1.0,0.54472,,,,,,ladder_15s.jpg,0.0,clockno_default.jpg,1.0,24,,,,,,,,,,,,,,,,,,0.0,4.0,4.0,4.0,1.0,,,,,,,,,,
1.0,1.0,1.173235,,,,,,ladder_15s.jpg,1.0,clockno_default.jpg,1.0,24,,,,,,,,,,,,,,,,,,0.0,5.0,5.0,5.0,1.0,,,,,,,,,,
0.0,1.0,1.59497,,,,,,harpoon.jpg,0.0,clockno_up.jpg,2.0,24,,,,,,,,,,,,,,,,,,0.0,6.0,6.0,6.0,1.0,,,,,,,,,,
0.0,1.0,0.57474,,,,,,razor_12s.jpg,0.0,clockno_default.jpg,2.0,24,,,,,,,,,,,,,,,,,,0.0,7.0,7.0,7.0,1.0,,,,,,,,,,
0.0,1.0,0.983405,,,,,,bee_20s.jpg,0.0,clockno_default.jpg,2.0,24,,,,,,,,,,,,,,,,,,0.0,8.0,8.0,8.0,1.0,,,,,,,,,,
0.0,1.0,0.523185,,,,,,thumbtack_14s.jpg,0.0,clockno_default.jpg,2.0,24,,,,,,,,,,,,,,,,,,0.0,9.0,9.0,9.0,1.0,,,,,,,,,,
0.0,1.0,0.61453,,,,,,mug_06s.jpg,0.0,clockno_default.jpg,2.0,24,,,,,,,,,,,,,,,,,,0.0,10.0,10.0,10.0,1.0,,,,,,,,,,
0.0,1.0,0.795435,,,,,,ticktacktoe_08s.jpg,0.0,clockno_up.jpg,3.0,24,,,,,,,,,,,,,,,,,,0.0,11.0,11.0,11.0,1.0,,,,,,,,,,
1.0,1.0,1.499435,,,,,,ticktacktoe_08s.jpg,1.0,clockno_default.jpg,3.0,24,,,,,,,,,,,,,,,,,,0.0,12.0,12.0,12.0,1.0,,,,,,,,,,
0.0,1.0,1.086245,,,,,,fireworks_18s.jpg,0.0,clockno_default.jpg,3.0,24,,,,,,,,,,,,,,,,,,0.0,13.0,13.0,13.0,1.0,,,,,,,,,,
0.0,1.0,0.575725,,,,,,buoy_04s.jpg,0.0,clockno_default.jpg,3.0,24,,,,,,,,,,,,,,,,,,0.0,14.0,14.0,14.0,1.0,,,,,,,,,,
0.0,1.0,0.58979,,,,,,lip_gloss_06s.jpg,0.0,clockno_default.jpg,3.0,24,,,,,,,,,,,,,,,,,,0.0,15.0,15.0,15.0,1.0,,,,,,,,,,
0.0,1.0,0.90245,,,,,,surfboard_11s.jpg,0.0,clockno_up.jpg,4.0,24,,,,,,,,,,,,,,,,,,0.0,16.0,16.0,16.0,1.0,,,,,,,,,,
1.0,1.0,1.84943,,,,,,surfboard_11s.jpg,1.0,clockno_default.jpg,4.0,24,,,,,,,,,,,,,,,,,,0.0,17.0,17.0,17.0,1.0,,,,,,,,,,
0.0,1.0,0.856595,,,,,,jigsaw_puzzle_11s.jpg,0.0,clockno_default.jpg,4.0,24,,,,,,,,,,,,,,,,,,0.0,18.0,18.0,18.0,1.0,,,,,,,,,,
0.0,0.0,1.211675,,,,,,surfboard_11s.jpg,1.0,clockno_default.jpg,4.0,24,,,,,,,,,,,,,,,,,,0.0,19.0,19.0,19.0,1.0,,,,,,,,,,
0.0,1.0,0.54344,,,,,,timer_03s.jpg,0.0,clockno_default.jpg,4.0,24,,,,,,,,,,,,,,,,,,0.0,20.0,20.0,20.0,1.0,,,,,,,,,,
0.0,1.0,0.727325,,,,,,fireworks_18s.jpg,0.0,clockno_default.jpg,4.0,24,,,,,,,,,,,,,,,,,,0.0,21.0,21.0,21.0,1.0,,,,,,,,,,
0.0,1.0,1.49478,,,,,,turtleneck_11s.jpg,0.0,clockno_up.jpg,5.0,24,,,,,,,,,,,,,,,,,,0.0,22.0,22.0,22.0,1.0,,,,,,,,,,
0.0,1.0,1.15321,,,,,,slingshot_07s.jpg,0.0,clockno_default.jpg,5.0,24,,,,,,,,,,,,,,,,,,0.0,23.0,23.0,23.0,1.0,,,,,,,,,,
0.0,1.0,1.2752,,,,,,lid_10s.jpg,0.0,clockno_default.jpg,5.0,24,,,,,,,,,,,,,,,,,,0.0,24.0,24.0,24.0,1.0,,,,,,,,,,
0.0,1.0,0.54225,,,,,,lasagna_06s.jpg,0.0,clockno_default.jpg,5.0,24,,,,,,,,,,,,,,,,,,0.0,25.0,25.0,25.0,1.0,,,,,,,,,,
0.0,1.0,0.758565,,,,,,mud_13s.jpg,0.0,clockno_default.jpg,5.0,24,,,,,,,,,,,,,,,,,,0.0,26.0,26.0,26.0,1.0,,,,,,,,,,
0.0,1.0,0.573485,,,,,,juicer1_08s.jpg,0.0,clockno_default.jpg,5.0,24,,,,,,,,,,,,,,,,,,0.0,27.0,27.0,27.0,1.0,,,,,,,,,,
0.0,1.0,0.523125,,,,,,sunflower_17s.jpg,0.0,clockno_default.jpg,5.0,24,,,,,,,,,,,,,,,,,,0.0,28.0,28.0,28.0,1.0,,,,,,,,,,
0.0,1.0,0.441745,,,,,,pepper_mill_03s.jpg,0.0,clockno_up.jpg,6.0,24,,,,,,,,,,,,,,,,,,0.0,29.0,29.0,29.0,1.0,,,,,,,,,,
1.0,1.0,2.094585,,,,,,pepper_mill_03s.jpg,1.0,clockno_default.jpg,6.0,24,,,,,,,,,,,,,,,,,,0.0,30.0,30.0,30.0,1.0,,,,,,,,,,
0.0,1.0,0.92216,,,,,,bank_06s.jpg,0.0,clockno_default.jpg,6.0,24,,,,,,,,,,,,,,,,,,0.0,31.0,31.0,31.0,1.0,,,,,,,,,,
0.0,1.0,0.706455,,,,,,hyena_16s.jpg,0.0,clockno_default.jpg,6.0,24,,,,,,,,,,,,,,,,,,0.0,32.0,32.0,32.0,1.0,,,,,,,,,,
0.0,1.0,0.49079,,,,,,ruby_15s.jpg,0.0,clockno_default.jpg,6.0,24,,,,,,,,,,,,,,,,,,0.0,33.0,33.0,33.0,1.0,,,,,,,,,,
0.0,1.0,0.53734,,,,,,bee_20s.jpg,0.0,clockno_default.jpg,6.0,24,,,,,,,,,,,,,,,,,,0.0,34.0,34.0,34.0,1.0,,,,,,,,,,
0.0,1.0,0.52657,,,,,,air_pump_05s.jpg,0.0,clockno_default.jpg,6.0,24,,,,,,,,,,,,,,,,,,0.0,35.0,35.0,35.0,1.0,,,,,,,,,,
,,,,,,,,,0.0,,,24,1.0,0.0,3.70862,,,,,,jigsaw_puzzle_11s.jpg,lip_gloss_06s.jpg,,,,,,,,,,,,,0.0,0.0,0.0,0.0,1.0,,,,,
,,,,,,,,,0.0,,,24,0.0,1.0,2.314445,,,,,,harpoon.jpg,crab_16s.jpg,,,,,,,,,,,,,0.0,1.0,1.0,1.0,1.0,,,,,
,,,,,,,,,0.0,,,24,0.0,1.0,1.87673,,,,,,slingshot_07s.jpg,timer_03s.jpg,,,,,,,,,,,,,0.0,2.0,2.0,2.0,1.0,,,,,
,,,,,,,,,0.0,,,24,0.0,1.0,1.42847,,,,,,mug_06s.jpg,razor_12s.jpg,,,,,,,,,,,,,0.0,3.0,3.0,3.0,1.0,,,,,
,,,,,,,,,0.0,,,24,1.0,0.0,1.744915,,,,,,lasagna_06s.jpg,turtleneck_11s.jpg,,,,,,,,,,,,,0.0,4.0,4.0,4.0,1.0,,,,,
,,,,,,,,,1.0,,,24,1.0,1.0,2.062115,,,,,,lid_10s.jpg,juicer1_08s.jpg,,,,,,,,,,,,,0.0,5.0,5.0,5.0,1.0,,,,,
,,,,,,,,,,,,24,,,,,,,,,,,,,,,,clockno_present_1_9.xlsx,clockno_compare_task_1_9.xlsx,,,,,,,,,,,0.0,0.0,0.0,0.0,1.0
0.0,1.0,0.6582,,,,,,ink_08s.jpg,0.0,clockno_up.jpg,1.0,24,,,,,,,,,,,,,,,,,,0.0,0.0,0.0,0.0,1.0,,,,,,,,,,
0.0,1.0,0.50843,,,,,,tuba_12s.jpg,0.0,clockno_default.jpg,1.0,24,,,,,,,,,,,,,,,,,,0.0,1.0,1.0,1.0,1.0,,,,,,,,,,
0.0,1.0,0.59062,,,,,,top_hat_11s.jpg,0.0,clockno_default.jpg,1.0,24,,,,,,,,,,,,,,,,,,0.0,2.0,2.0,2.0,1.0,,,,,,,,,,
0.0,1.0,0.63112,,,,,,cape_11s.jpg,0.0,clockno_default.jpg,1.0,24,,,,,,,,,,,,,,,,,,0.0,3.0,3.0,3.0,1.0,,,,,,,,,,
0.0,1.0,0.484905,,,,,,mango_09s.jpg,0.0,clockno_default.jpg,1.0,24,,,,,,,,,,,,,,,,,,0.0,4.0,4.0,4.0,1.0,,,,,,,,,,
0.0,1.0,0.5308,,,,,,spacesuit_02s.jpg,0.0,clockno_up.jpg,2.0,24,,,,,,,,,,,,,,,,,,0.0,5.0,5.0,5.0,1.0,,,,,,,,,,
0.0,1.0,0.673,,,,,,iron_13s.jpg,0.0,clockno_default.jpg,2.0,24,,,,,,,,,,,,,,,,,,0.0,6.0,6.0,6.0,1.0,,,,,,,,,,
0.0,1.0,0.496895,,,,,,lectern_08s.jpg,0.0,clockno_default.jpg,2.0,24,,,,,,,,,,,,,,,,,,0.0,7.0,7.0,7.0,1.0,,,,,,,,,,
0.0,1.0,0.564105,,,,,,contact_lens_15s.jpg,0.0,clockno_default.jpg,2.0,24,,,,,,,,,,,,,,,,,,0.0,8.0,8.0,8.0,1.0,,,,,,,,,,
1.0,1.0,1.15107,,,,,,lectern_08s.jpg,1.0,clockno_default.jpg,2.0,24,,,,,,,,,,,,,,,,,,0.0,9.0,9.0,9.0,1.0,,,,,,,,,,
0.0,1.0,0.613975,,,,,,funnel_01b.jpg,0.0,clockno_default.jpg,2.0,24,,,,,,,,,,,,,,,,,,0.0,10.0,10.0,10.0,1.0,,,,,,,,,,
1.0,1.0,1.459925,,,,,,lectern_08s.jpg,1.0,clockno_default.jpg,2.0,24,,,,,,,,,,,,,,,,,,0.0,11.0,11.0,11.0,1.0,,,,,,,,,,
0.0,1.0,0.756725,,,,,,rosary_03s.jpg,0.0,clockno_up.jpg,3.0,24,,,,,,,,,,,,,,,,,,0.0,12.0,12.0,12.0,1.0,,,,,,,,,,
0.0,1.0,0.48547,,,,,,joystick_01b.jpg,0.0,clockno_default.jpg,3.0,24,,,,,,,,,,,,,,,,,,0.0,13.0,13.0,13.0,1.0,,,,,,,,,,
0.0,1.0,0.916455,,,,,,peppermint_07s.jpg,0.0,clockno_default.jpg,3.0,24,,,,,,,,,,,,,,,,,,0.0,14.0,14.0,14.0,1.0,,,,,,,,,,
1.0,1.0,1.609155,,,,,,peppermint_07s.jpg,1.0,clockno_default.jpg,3.0,24,,,,,,,,,,,,,,,,,,0.0,15.0,15.0,15.0,1.0,,,,,,,,,,
0.0,1.0,0.64516,,,,,,pear_02s.jpg,0.0,clockno_default.jpg,3.0,24,,,,,,,,,,,,,,,,,,0.0,16.0,16.0,16.0,1.0,,,,,,,,,,
1.0,1.0,0.67131,,,,,,pear_02s.jpg,1.0,clockno_default.jpg,3.0,24,,,,,,,,,,,,,,,,,,0.0,17.0,17.0,17.0,1.0,,,,,,,,,,
0.0,1.0,0.83293,,,,,,treasure_08s.jpg,0.0,clockno_up.jpg,4.0,24,,,,,,,,,,,,,,,,,,0.0,18.0,18.0,18.0,1.0,,,,,,,,,,
1.0,0.0,1.193725,,,,,,peppermint_07s.jpg,0.0,clockno_default.jpg,4.0,24,,,,,,,,,,,,,,,,,,0.0,19.0,19.0,19.0,1.0,,,,,,,,,,
0.0,1.0,1.421465,,,,,,mixer_12s.jpg,0.0,clockno_default.jpg,4.0,24,,,,,,,,,,,,,,,,,,0.0,20.0,20.0,20.0,1.0,,,,,,,,,,
0.0,1.0,1.19757,,,,,,hydrant_10s.jpg,0.0,clockno_default.jpg,4.0,24,,,,,,,,,,,,,,,,,,0.0,21.0,21.0,21.0,1.0,,,,,,,,,,
0.0,1.0,1.003205,,,,,,sugar_cube_11s.jpg,0.0,clockno_default.jpg,4.0,24,,,,,,,,,,,,,,,,,,0.0,22.0,22.0,22.0,1.0,,,,,,,,,,
0.0,1.0,1.356575,,,,,,margarita_03s.jpg,0.0,clockno_up.jpg,5.0,24,,,,,,,,,,,,,,,,,,0.0,23.0,23.0,23.0,1.0,,,,,,,,,,
0.0,1.0,1.40916,,,,,,submarine_11n.jpg,0.0,clockno_default.jpg,5.0,24,,,,,,,,,,,,,,,,,,0.0,24.0,24.0,24.0,1.0,,,,,,,,,,
0.0,1.0,1.648535,,,,,,mascara_03s.jpg,0.0,clockno_default.jpg,5.0,24,,,,,,,,,,,,,,,,,,0.0,25.0,25.0,25.0,1.0,,,,,,,,,,
1.0,1.0,1.221265,,,,,,mascara_03s.jpg,1.0,clockno_default.jpg,5.0,24,,,,,,,,,,,,,,,,,,0.0,26.0,26.0,26.0,1.0,,,,,,,,,,
0.0,1.0,1.0396,,,,,,seagull_01b.jpg,0.0,clockno_default.jpg,5.0,24,,,,,,,,,,,,,,,,,,0.0,27.0,27.0,27.0,1.0,,,,,,,,,,
0.0,1.0,1.17089,,,,,,koala_13s.jpg,0.0,clockno_default.jpg,5.0,24,,,,,,,,,,,,,,,,,,0.0,28.0,28.0,28.0,1.0,,,,,,,,,,
0.0,1.0,0.629185,,,,,,umbrella_15s.jpg,0.0,clockno_up.jpg,6.0,24,,,,,,,,,,,,,,,,,,0.0,29.0,29.0,29.0,1.0,,,,,,,,,,
1.0,1.0,1.233095,,,,,,umbrella_15s.jpg,1.0,clockno_default.jpg,6.0,24,,,,,,,,,,,,,,,,,,0.0,30.0,30.0,30.0,1.0,,,,,,,,,,
1.0,1.0,1.77871,,,,,,umbrella_15s.jpg,1.0,clockno_default.jpg,6.0,24,,,,,,,,,,,,,,,,,,0.0,31.0,31.0,31.0,1.0,,,,,,,,,,
1.0,1.0,1.026345,,,,,,umbrella_15s.jpg,1.0,clockno_default.jpg,6.0,24,,,,,,,,,,,,,,,,,,0.0,32.0,32.0,32.0,1.0,,,,,,,,,,
0.0,1.0,1.19327,,,,,,stopwatch_04s.jpg,0.0,clockno_default.jpg,6.0,24,,,,,,,,,,,,,,,,,,0.0,33.0,33.0,33.0,1.0,,,,,,,,,,
0.0,1.0,1.25207,,,,,,gazelle_10s.jpg,0.0,clockno_default.jpg,6.0,24,,,,,,,,,,,,,,,,,,0.0,34.0,34.0,34.0,1.0,,,,,,,,,,
0.0,1.0,1.36935,,,,,,peppermint_07s.jpg,0.0,clockno_default.jpg,6.0,24,,,,,,,,,,,,,,,,,,0.0,35.0,35.0,35.0,1.0,,,,,,,,,,
,,,,,,,,,0.0,,,24,1.0,0.0,2.193935,,,,,,joystick_01b.jpg,funnel_01b.jpg,,,,,,,,,,,,,0.0,0.0,0.0,0.0,1.0,,,,,
,,,,,,,,,0.0,,,24,0.0,1.0,2.67879,,,,,,margarita_03s.jpg,mixer_12s.jpg,,,,,,,,,,,,,0.0,1.0,1.0,1.0,1.0,,,,,
,,,,,,,,,0.0,,,24,0.0,1.0,2.050395,,,,,,spacesuit_02s.jpg,top_hat_11s.jpg,,,,,,,,,,,,,0.0,2.0,2.0,2.0,1.0,,,,,
,,,,,,,,,1.0,,,24,1.0,1.0,2.077555,,,,,,tuba_12s.jpg,mango_09s.jpg,,,,,,,,,,,,,0.0,3.0,3.0,3.0,1.0,,,,,
,,,,,,,,,0.0,,,24,0.0,1.0,1.446235,,,,,,cape_11s.jpg,ink_08s.jpg,,,,,,,,,,,,,0.0,4.0,4.0,4.0,1.0,,,,,
,,,,,,,,,0.0,,,24,0.0,1.0,2.260165,,,,,,hydrant_10s.jpg,treasure_08s.jpg,,,,,,,,,,,,,0.0,5.0,5.0,5.0,1.0,,,,,
,,,,,,,,,,,,24,,,,,,,,,,,,,,,,clockno_present_2_9.xlsx,clockno_compare_task_2_9.xlsx,,,,,,,,,,,0.0,1.0,1.0,1.0,1.0
0.0,1.0,1.22401,,,,,,rolling_pin_02s.jpg,0.0,clockno_up.jpg,1.0,24,,,,,,,,,,,,,,,,,,0.0,0.0,0.0,0.0,1.0,,,,,,,,,,
0.0,1.0,0.48102,,,,,,purse_05s.jpg,0.0,clockno_default.jpg,1.0,24,,,,,,,,,,,,,,,,,,0.0,1.0,1.0,1.0,1.0,,,,,,,,,,
0.0,1.0,0.42392,,,,,,mosquito_12s.jpg,0.0,clockno_default.jpg,1.0,24,,,,,,,,,,,,,,,,,,0.0,2.0,2.0,2.0,1.0,,,,,,,,,,
1.0,1.0,1.776225,,,,,,rolling_pin_02s.jpg,1.0,clockno_default.jpg,1.0,24,,,,,,,,,,,,,,,,,,0.0,3.0,3.0,3.0,1.0,,,,,,,,,,
0.0,1.0,0.79603,,,,,,raccoon_02s.jpg,0.0,clockno_default.jpg,1.0,24,,,,,,,,,,,,,,,,,,0.0,4.0,4.0,4.0,1.0,,,,,,,,,,
0.0,1.0,0.962195,,,,,,cushion_08s.jpg,0.0,clockno_up.jpg,2.0,24,,,,,,,,,,,,,,,,,,0.0,5.0,5.0,5.0,1.0,,,,,,,,,,
1.0,1.0,0.70398,,,,,,cushion_08s.jpg,1.0,clockno_default.jpg,2.0,24,,,,,,,,,,,,,,,,,,0.0,6.0,6.0,6.0,1.0,,,,,,,,,,
0.0,1.0,0.863775,,,,,,pocketknife_12s.jpg,0.0,clockno_default.jpg,2.0,24,,,,,,,,,,,,,,,,,,0.0,7.0,7.0,7.0,1.0,,,,,,,,,,
0.0,1.0,1.13979,,,,,,mosquito_12s.jpg,0.0,clockno_default.jpg,2.0,24,,,,,,,,,,,,,,,,,,0.0,8.0,8.0,8.0,1.0,,,,,,,,,,
0.0,0.0,0.994555,,,,,,cushion_08s.jpg,1.0,clockno_default.jpg,2.0,24,,,,,,,,,,,,,,,,,,0.0,9.0,9.0,9.0,1.0,,,,,,,,,,
0.0,1.0,1.02347,,,,,,stump_02s.jpg,0.0,clockno_default.jpg,2.0,24,,,,,,,,,,,,,,,,,,0.0,10.0,10.0,10.0,1.0,,,,,,,,,,
0.0,1.0,1.41224,,,,,,kite_04s.jpg,0.0,clockno_up.jpg,3.0,24,,,,,,,,,,,,,,,,,,0.0,11.0,11.0,11.0,1.0,,,,,,,,,,
1.0,1.0,1.441825,,,,,,kite_04s.jpg,1.0,clockno_default.jpg,3.0,24,,,,,,,,,,,,,,,,,,0.0,12.0,12.0,12.0,1.0,,,,,,,,,,
0.0,1.0,1.46494,,,,,,letter_opener_03s.jpg,0.0,clockno_default.jpg,3.0,24,,,,,,,,,,,,,,,,,,0.0,13.0,13.0,13.0,1.0,,,,,,,,,,
0.0,1.0,1.29986,,,,,,sundae_08s.jpg,0.0,clockno_default.jpg,3.0,24,,,,,,,,,,,,,,,,,,0.0,14.0,14.0,14.0,1.0,,,,,,,,,,
1.0,0.0,1.968285,,,,,,cushion_08s.jpg,0.0,clockno_default.jpg,3.0,24,,,,,,,,,,,,,,,,,,0.0,15.0,15.0,15.0,1.0,,,,,,,,,,
0.0,1.0,1.39732,,,,,,eggshell_14s.jpg,0.0,clockno_default.jpg,3.0,24,,,,,,,,,,,,,,,,,,0.0,16.0,16.0,16.0,1.0,,,,,,,,,,
0.0,1.0,1.513055,,,,,,raft_09s.jpg,0.0,clockno_default.jpg,3.0,24,,,,,,,,,,,,,,,,,,0.0,17.0,17.0,17.0,1.0,,,,,,,,,,
0.0,1.0,1.6925,,,,,,potpourri_03s.jpg,0.0,clockno_up.jpg,4.0,24,,,,,,,,,,,,,,,,,,0.0,18.0,18.0,18.0,1.0,,,,,,,,,,
1.0,1.0,1.54269,,,,,,potpourri_03s.jpg,1.0,clockno_default.jpg,4.0,24,,,,,,,,,,,,,,,,,,0.0,19.0,19.0,19.0,1.0,,,,,,,,,,
0.0,1.0,1.37754,,,,,,cobra_05s.jpg,0.0,clockno_default.jpg,4.0,24,,,,,,,,,,,,,,,,,,0.0,20.0,20.0,20.0,1.0,,,,,,,,,,
1.0,1.0,1.723025,,,,,,potpourri_03s.jpg,1.0,clockno_default.jpg,4.0,24,,,,,,,,,,,,,,,,,,0.0,21.0,21.0,21.0,1.0,,,,,,,,,,
0.0,1.0,1.637845,,,,,,rocking_horse_03s.jpg,0.0,clockno_default.jpg,4.0,24,,,,,,,,,,,,,,,,,,0.0,22.0,22.0,22.0,1.0,,,,,,,,,,
0.0,1.0,1.76477,,,,,,bonsai_07s.jpg,0.0,clockno_up.jpg,5.0,24,,,,,,,,,,,,,,,,,,0.0,23.0,23.0,23.0,1.0,,,,,,,,,,
0.0,1.0,1.552455,,,,,,kangaroo_02s.jpg,0.0,clockno_default.jpg,5.0,24,,,,,,,,,,,,,,,,,,0.0,24.0,24.0,24.0,1.0,,,,,,,,,,
0.0,1.0,1.4925,,,,,,onion_10s.jpg,0.0,clockno_default.jpg,5.0,24,,,,,,,,,,,,,,,,,,0.0,25.0,25.0,25.0,1.0,,,,,,,,,,
0.0,1.0,1.79546,,,,,,mosquito_12s.jpg,0.0,clockno_default.jpg,5.0,24,,,,,,,,,,,,,,,,,,0.0,26.0,26.0,26.0,1.0,,,,,,,,,,
0.0,1.0,1.61084,,,,,,money_07s.jpg,0.0,clockno_default.jpg,5.0,24,,,,,,,,,,,,,,,,,,0.0,27.0,27.0,27.0,1.0,,,,,,,,,,
0.0,1.0,1.59076,,,,,,pretzel_09s.jpg,0.0,clockno_default.jpg,5.0,24,,,,,,,,,,,,,,,,,,0.0,28.0,28.0,28.0,1.0,,,,,,,,,,
0.0,1.0,1.47242,,,,,,magnet_03s.jpg,0.0,clockno_up.jpg,6.0,24,,,,,,,,,,,,,,,,,,0.0,29.0,29.0,29.0,1.0,,,,,,,,,,
0.0,1.0,1.559265,,,,,,outlet_10s.jpg,0.0,clockno_default.jpg,6.0,24,,,,,,,,,,,,,,,,,,0.0,30.0,30.0,30.0,1.0,,,,,,,,,,
0.0,1.0,1.796065,,,,,,candy_cane_06s.jpg,0.0,clockno_default.jpg,6.0,24,,,,,,,,,,,,,,,,,,0.0,31.0,31.0,31.0,1.0,,,,,,,,,,
0.0,1.0,1.491165,,,,,,treadmill_06s.jpg,0.0,clockno_default.jpg,6.0,24,,,,,,,,,,,,,,,,,,0.0,32.0,32.0,32.0,1.0,,,,,,,,,,
1.0,1.0,1.35972,,,,,,treadmill_06s.jpg,1.0,clockno_default.jpg,6.0,24,,,,,,,,,,,,,,,,,,0.0,33.0,33.0,33.0,1.0,,,,,,,,,,
0.0,1.0,2.175765,,,,,,boomerang_06s.jpg,0.0,clockno_default.jpg,6.0,24,,,,,,,,,,,,,,,,,,0.0,34.0,34.0,34.0,1.0,,,,,,,,,,
0.0,1.0,1.878305,,,,,,rocking_horse_03s.jpg,0.0,clockno_default.jpg,6.0,24,,,,,,,,,,,,,,,,,,0.0,35.0,35.0,35.0,1.0,,,,,,,,,,
,,,,,,,,,1.0,,,24,1.0,1.0,7.449865,,,,,,cobra_05s.jpg,bonsai_07s.jpg,,,,,,,,,,,,,0.0,0.0,0.0,0.0,1.0,,,,,
,,,,,,,,,0.0,,,24,1.0,0.0,1.46209,,,,,,outlet_10s.jpg,money_07s.jpg,,,,,,,,,,,,,0.0,1.0,1.0,1.0,1.0,,,,,
,,,,,,,,,0.0,,,24,0.0,1.0,2.18988,,,,,,pocketknife_12s.jpg,raccoon_02s.jpg,,,,,,,,,,,,,0.0,2.0,2.0,2.0,1.0,,,,,
,,,,,,,,,1.0,,,24,0.0,0.0,4.69853,,,,,,letter_opener_03s.jpg,eggshell_14s.jpg,,,,,,,,,,,,,0.0,3.0,3.0,3.0,1.0,,,,,
,,,,,,,,,0.0,,,24,0.0,1.0,2.64416,,,,,,raft_09s.jpg,sundae_08s.jpg,,,,,,,,,,,,,0.0,4.0,4.0,4.0,1.0,,,,,
,,,,,,,,,1.0,,,24,1.0,1.0,2.400935,,,,,,onion_10s.jpg,pretzel_09s.jpg,,,,,,,,,,,,,0.0,5.0,5.0,5.0,1.0,,,,,
,,,,,,,,,,,,24,,,,,,,,,,,,,,,,clockno_present_3_9.xlsx,clockno_compare_task_3_9.xlsx,,,,,,,,,,,0.0,2.0,2.0,2.0,1.0
0.0,1.0,1.02107,,,,,,rock_08s.jpg,0.0,clockno_up.jpg,1.0,24,,,,,,,,,,,,,,,,,,0.0,0.0,0.0,0.0,1.0,,,,,,,,,,
0.0,1.0,0.53526,,,,,,poinsettia_04s.jpg,0.0,clockno_default.jpg,1.0,24,,,,,,,,,,,,,,,,,,0.0,1.0,1.0,1.0,1.0,,,,,,,,,,
0.0,1.0,0.80571,,,,,,briefcase_03s.jpg,0.0,clockno_default.jpg,1.0,24,,,,,,,,,,,,,,,,,,0.0,2.0,2.0,2.0,1.0,,,,,,,,,,
,0.0,,,,,,,rock_08s.jpg,1.0,clockno_default.jpg,1.0,24,,,,,,,,,,,,,,,,,,0.0,3.0,3.0,3.0,1.0,,,,,,,,,,
0.0,1.0,1.303625,,,,,,pincushion_10s.jpg,0.0,clockno_default.jpg,1.0,24,,,,,,,,,,,,,,,,,,0.0,4.0,4.0,4.0,1.0,,,,,,,,,,
0.0,0.0,1.902845,,,,,,briefcase_03s.jpg,1.0,clockno_default.jpg,1.0,24,,,,,,,,,,,,,,,,,,0.0,5.0,5.0,5.0,1.0,,,,,,,,,,
0.0,1.0,1.27109,,,,,,ant_12s.jpg,0.0,clockno_up.jpg,2.0,24,,,,,,,,,,,,,,,,,,0.0,6.0,6.0,6.0,1.0,,,,,,,,,,
1.0,1.0,1.21381,,,,,,ant_12s.jpg,1.0,clockno_default.jpg,2.0,24,,,,,,,,,,,,,,,,,,0.0,7.0,7.0,7.0,1.0,,,,,,,,,,
0.0,1.0,1.38208,,,,,,measuring_cup_02s.jpg,0.0,clockno_default.jpg,2.0,24,,,,,,,,,,,,,,,,,,0.0,8.0,8.0,8.0,1.0,,,,,,,,,,
0.0,1.0,1.2227,,,,,,glue_01s.jpg,0.0,clockno_default.jpg,2.0,24,,,,,,,,,,,,,,,,,,0.0,9.0,9.0,9.0,1.0,,,,,,,,,,
0.0,1.0,1.674155,,,,,,rice_12s.jpg,0.0,clockno_default.jpg,2.0,24,,,,,,,,,,,,,,,,,,0.0,10.0,10.0,10.0,1.0,,,,,,,,,,
0.0,1.0,1.475915,,,,,,toad_09s.jpg,0.0,clockno_default.jpg,2.0,24,,,,,,,,,,,,,,,,,,0.0,11.0,11.0,11.0,1.0,,,,,,,,,,
0.0,1.0,1.641515,,,,,,rudder_02s.jpg,0.0,clockno_default.jpg,2.0,24,,,,,,,,,,,,,,,,,,0.0,12.0,12.0,12.0,1.0,,,,,,,,,,
0.0,1.0,1.495045,,,,,,lamb_04s.jpg,0.0,clockno_up.jpg,3.0,24,,,,,,,,,,,,,,,,,,0.0,13.0,13.0,13.0,1.0,,,,,,,,,,
0.0,1.0,1.19354,,,,,,rhinoceros_02s.jpg,0.0,clockno_default.jpg,3.0,24,,,,,,,,,,,,,,,,,,0.0,14.0,14.0,14.0,1.0,,,,,,,,,,
0.0,1.0,1.43775,,,,,,crystal_ball_12s.jpg,0.0,clockno_default.jpg,3.0,24,,,,,,,,,,,,,,,,,,0.0,15.0,15.0,15.0,1.0,,,,,,,,,,
0.0,1.0,1.726425,,,,,,ivy_12s.jpg,0.0,clockno_default.jpg,3.0,24,,,,,,,,,,,,,,,,,,0.0,16.0,16.0,16.0,1.0,,,,,,,,,,
0.0,1.0,1.680345,,,,,,bathtub_23s.jpg,0.0,clockno_default.jpg,3.0,24,,,,,,,,,,,,,,,,,,0.0,17.0,17.0,17.0,1.0,,,,,,,,,,
0.0,1.0,1.67615,,,,,,omelet_07s.jpg,0.0,clockno_up.jpg,4.0,24,,,,,,,,,,,,,,,,,,0.0,18.0,18.0,18.0,1.0,,,,,,,,,,
1.0,1.0,1.214445,,,,,,omelet_07s.jpg,1.0,clockno_default.jpg,4.0,24,,,,,,,,,,,,,,,,,,0.0,19.0,19.0,19.0,1.0,,,,,,,,,,
0.0,1.0,1.46588,,,,,,lamb_04s.jpg,0.0,clockno_default.jpg,4.0,24,,,,,,,,,,,,,,,,,,0.0,20.0,20.0,20.0,1.0,,,,,,,,,,
0.0,1.0,1.6736,,,,,,amber_04s.jpg,0.0,clockno_default.jpg,4.0,24,,,,,,,,,,,,,,,,,,0.0,21.0,21.0,21.0,1.0,,,,,,,,,,
0.0,1.0,1.594015,,,,,,rug_09s.jpg,0.0,clockno_default.jpg,4.0,24,,,,,,,,,,,,,,,,,,0.0,22.0,22.0,22.0,1.0,,,,,,,,,,
0.0,1.0,1.53437,,,,,,go-kart_10s.jpg,0.0,clockno_default.jpg,4.0,24,,,,,,,,,,,,,,,,,,0.0,23.0,23.0,23.0,1.0,,,,,,,,,,
0.0,1.0,1.458885,,,,,,clover_04s.jpg,0.0,clockno_default.jpg,4.0,24,,,,,,,,,,,,,,,,,,0.0,24.0,24.0,24.0,1.0,,,,,,,,,,
0.0,1.0,1.37791,,,,,,mattress_01s.jpg,0.0,clockno_up.jpg,5.0,24,,,,,,,,,,,,,,,,,,0.0,25.0,25.0,25.0,1.0,,,,,,,,,,
0.0,1.0,1.42792,,,,,,refrigerator_07s.jpg,0.0,clockno_default.jpg,5.0,24,,,,,,,,,,,,,,,,,,0.0,26.0,26.0,26.0,1.0,,,,,,,,,,
0.0,1.0,1.201005,,,,,,briefcase_03s.jpg,0.0,clockno_default.jpg,5.0,24,,,,,,,,,,,,,,,,,,0.0,27.0,27.0,27.0,1.0,,,,,,,,,,
0.0,1.0,1.186815,,,,,,footprint_11s.jpg,0.0,clockno_default.jpg,5.0,24,,,,,,,,,,,,,,,,,,0.0,28.0,28.0,28.0,1.0,,,,,,,,,,
0.0,1.0,1.29001,,,,,,penlight_12s.jpg,0.0,clockno_default.jpg,5.0,24,,,,,,,,,,,,,,,,,,0.0,29.0,29.0,29.0,1.0,,,,,,,,,,
0.0,1.0,1.415845,,,,,,rabbit_03s.jpg,0.0,clockno_default.jpg,5.0,24,,,,,,,,,,,,,,,,,,0.0,30.0,30.0,30.0,1.0,,,,,,,,,,
0.0,1.0,1.51989,,,,,,pacifier_09s.jpg,0.0,clockno_up.jpg,6.0,24,,,,,,,,,,,,,,,,,,0.0,31.0,31.0,31.0,1.0,,,,,,,,,,
0.0,1.0,1.51003,,,,,,meatball_13s.jpg,0.0,clockno_default.jpg,6.0,24,,,,,,,,,,,,,,,,,,0.0,32.0,32.0,32.0,1.0,,,,,,,,,,
0.0,1.0,1.363905,,,,,,ladle_04s.jpg,0.0,clockno_default.jpg,6.0,24,,,,,,,,,,,,,,,,,,0.0,33.0,33.0,33.0,1.0,,,,,,,,,,
0.0,1.0,1.329005,,,,,,fishhook_06s.jpg,0.0,clockno_default.jpg,6.0,24,,,,,,,,,,,,,,,,,,0.0,34.0,34.0,34.0,1.0,,,,,,,,,,
0.0,1.0,1.23787,,,,,,piano_13n.jpg,0.0,clockno_default.jpg,6.0,24,,,,,,,,,,,,,,,,,,0.0,35.0,35.0,35.0,1.0,,,,,,,,,,
,,,,,,,,,1.0,,,24,1.0,1.0,1.679325,,,,,,rabbit_03s.jpg,ladle_04s.jpg,,,,,,,,,,,,,0.0,0.0,0.0,0.0,1.0,,,,,
,,,,,,,,,1.0,,,24,1.0,1.0,1.731275,,,,,,rudder_02s.jpg,crystal_ball_12s.jpg,,,,,,,,,,,,,0.0,1.0,1.0,1.0,1.0,,,,,
,,,,,,,,,0.0,,,24,0.0,1.0,1.852325,,,,,,mattress_01s.jpg,rug_09s.jpg,,,,,,,,,,,,,0.0,2.0,2.0,2.0,1.0,,,,,
,,,,,,,,,0.0,,,24,1.0,0.0,2.603935,,,,,,pincushion_10s.jpg,poinsettia_04s.jpg,,,,,,,,,,,,,0.0,3.0,3.0,3.0,1.0,,,,,
,,,,,,,,,0.0,,,24,0.0,1.0,1.89888,,,,,,clover_04s.jpg,amber_04s.jpg,,,,,,,,,,,,,0.0,4.0,4.0,4.0,1.0,,,,,
,,,,,,,,,1.0,,,24,1.0,1.0,2.281,,,,,,measuring_cup_02s.jpg,toad_09s.jpg,,,,,,,,,,,,,0.0,5.0,5.0,5.0,1.0,,,,,
,,,,,,,,,,,,24,,,,,,,,,,,,,,,,clockno_present_4_9.xlsx,clockno_compare_task_4_9.xlsx,,,,,,,,,,,0.0,3.0,3.0,3.0,1.0
0.0,1.0,1.29271,,,,,,basket_05s.jpg,0.0,clockno_up.jpg,1.0,24,,,,,,,,,,,,,,,,,,0.0,0.0,0.0,0.0,1.0,,,,,,,,,,
0.0,1.0,0.9639,,,,,,glasses01a.jpg,0.0,clockno_default.jpg,1.0,24,,,,,,,,,,,,,,,,,,0.0,1.0,1.0,1.0,1.0,,,,,,,,,,
1.0,1.0,1.471,,,,,,basket_05s.jpg,1.0,clockno_default.jpg,1.0,24,,,,,,,,,,,,,,,,,,0.0,2.0,2.0,2.0,1.0,,,,,,,,,,
0.0,0.0,1.235845,,,,,,glasses01a.jpg,1.0,clockno_default.jpg,1.0,24,,,,,,,,,,,,,,,,,,0.0,3.0,3.0,3.0,1.0,,,,,,,,,,
1.0,1.0,1.339865,,,,,,basket_05s.jpg,1.0,clockno_default.jpg,1.0,24,,,,,,,,,,,,,,,,,,0.0,4.0,4.0,4.0,1.0,,,,,,,,,,
1.0,1.0,1.20123,,,,,,basket_05s.jpg,1.0,clockno_default.jpg,1.0,24,,,,,,,,,,,,,,,,,,0.0,5.0,5.0,5.0,1.0,,,,,,,,,,
0.0,1.0,1.45442,,,,,,gong_02s.jpg,0.0,clockno_default.jpg,1.0,24,,,,,,,,,,,,,,,,,,0.0,6.0,6.0,6.0,1.0,,,,,,,,,,
0.0,1.0,1.164045,,,,,,frog_09s.jpg,0.0,clockno_up.jpg,2.0,24,,,,,,,,,,,,,,,,,,0.0,7.0,7.0,7.0,1.0,,,,,,,,,,
0.0,1.0,1.286605,,,,,,luggage_08s.jpg,0.0,clockno_default.jpg,2.0,24,,,,,,,,,,,,,,,,,,0.0,8.0,8.0,8.0,1.0,,,,,,,,,,
0.0,1.0,1.28185,,,,,,basket_05s.jpg,0.0,clockno_default.jpg,2.0,24,,,,,,,,,,,,,,,,,,0.0,9.0,9.0,9.0,1.0,,,,,,,,,,
1.0,1.0,1.225205,,,,,,luggage_08s.jpg,1.0,clockno_default.jpg,2.0,24,,,,,,,,,,,,,,,,,,0.0,10.0,10.0,10.0,1.0,,,,,,,,,,
0.0,1.0,1.35417,,,,,,glasses01a.jpg,0.0,clockno_default.jpg,2.0,24,,,,,,,,,,,,,,,,,,0.0,11.0,11.0,11.0,1.0,,,,,,,,,,
0.0,1.0,1.448965,,,,,,lemonade_04s.jpg,0.0,clockno_up.jpg,3.0,24,,,,,,,,,,,,,,,,,,0.0,12.0,12.0,12.0,1.0,,,,,,,,,,
0.0,1.0,1.44612,,,,,,trampoline_13s.jpg,0.0,clockno_default.jpg,3.0,24,,,,,,,,,,,,,,,,,,0.0,13.0,13.0,13.0,1.0,,,,,,,,,,
0.0,1.0,1.616925,,,,,,pancake_12s.jpg,0.0,clockno_default.jpg,3.0,24,,,,,,,,,,,,,,,,,,0.0,14.0,14.0,14.0,1.0,,,,,,,,,,
1.0,0.0,2.108745,,,,,,glasses01a.jpg,0.0,clockno_default.jpg,3.0,24,,,,,,,,,,,,,,,,,,0.0,15.0,15.0,15.0,1.0,,,,,,,,,,
0.0,1.0,1.31292,,,,,,fire_alarm_05s.jpg,0.0,clockno_default.jpg,3.0,24,,,,,,,,,,,,,,,,,,0.0,16.0,16.0,16.0,1.0,,,,,,,,,,
0.0,1.0,1.594135,,,,,,piggy_bank_02s.jpg,0.0,clockno_up.jpg,4.0,24,,,,,,,,,,,,,,,,,,0.0,17.0,17.0,17.0,1.0,,,,,,,,,,
0.0,1.0,1.72839,,,,,,solar_panel_02s.jpg,0.0,clockno_default.jpg,4.0,24,,,,,,,,,,,,,,,,,,0.0,18.0,18.0,18.0,1.0,,,,,,,,,,
1.0,1.0,1.63665,,,,,,piggy_bank_02s.jpg,1.0,clockno_default.jpg,4.0,24,,,,,,,,,,,,,,,,,,0.0,19.0,19.0,19.0,1.0,,,,,,,,,,
0.0,1.0,1.990315,,,,,,eyedropper_12s.jpg,0.0,clockno_default.jpg,4.0,24,,,,,,,,,,,,,,,,,,0.0,20.0,20.0,20.0,1.0,,,,,,,,,,
0.0,1.0,1.64817,,,,,,tile_08s.jpg,0.0,clockno_default.jpg,4.0,24,,,,,,,,,,,,,,,,,,0.0,21.0,21.0,21.0,1.0,,,,,,,,,,
,0.0,,,,,,,cereal_04s.jpg,0.0,clockno_default.jpg,4.0,24,,,,,,,,,,,,,,,,,,0.0,22.0,22.0,22.0,1.0,,,,,,,,,,
0.0,1.0,1.05118,,,,,,kettle_08s.jpg,0.0,clockno_up.jpg,5.0,24,,,,,,,,,,,,,,,,,,0.0,23.0,23.0,23.0,1.0,,,,,,,,,,
0.0,1.0,2.412345,,,,,,ironing_board_07s.jpg,0.0,clockno_default.jpg,5.0,24,,,,,,,,,,,,,,,,,,0.0,24.0,24.0,24.0,1.0,,,,,,,,,,
1.0,1.0,1.84771,,,,,,ironing_board_07s.jpg,1.0,clockno_default.jpg,5.0,24,,,,,,,,,,,,,,,,,,0.0,25.0,25.0,25.0,1.0,,,,,,,,,,
0.0,1.0,1.766405,,,,,,turf_03s.jpg,0.0,clockno_default.jpg,5.0,24,,,,,,,,,,,,,,,,,,0.0,26.0,26.0,26.0,1.0,,,,,,,,,,
0.0,1.0,1.532965,,,,,,keyboard_05s.jpg,0.0,clockno_default.jpg,5.0,24,,,,,,,,,,,,,,,,,,0.0,27.0,27.0,27.0,1.0,,,,,,,,,,
0.0,1.0,1.56626,,,,,,pocket_watch_16s.jpg,0.0,clockno_default.jpg,5.0,24,,,,,,,,,,,,,,,,,,0.0,28.0,28.0,28.0,1.0,,,,,,,,,,
0.0,1.0,1.66351,,,,,,emerald_02s.jpg,0.0,clockno_default.jpg,5.0,24,,,,,,,,,,,,,,,,,,0.0,29.0,29.0,29.0,1.0,,,,,,,,,,
0.0,1.0,1.73303,,,,,,pineapple_12s.jpg,0.0,clockno_up.jpg,6.0,24,,,,,,,,,,,,,,,,,,0.0,30.0,30.0,30.0,1.0,,,,,,,,,,
0.0,1.0,1.78345,,,,,,blazer_02s.jpg,0.0,clockno_default.jpg,6.0,24,,,,,,,,,,,,,,,,,,0.0,31.0,31.0,31.0,1.0,,,,,,,,,,
0.0,1.0,1.732875,,,,,,pinwheel_06s.jpg,0.0,clockno_default.jpg,6.0,24,,,,,,,,,,,,,,,,,,0.0,32.0,32.0,32.0,1.0,,,,,,,,,,
0.0,1.0,1.664255,,,,,,sushi_08s.jpg,0.0,clockno_default.jpg,6.0,24,,,,,,,,,,,,,,,,,,0.0,33.0,33.0,33.0,1.0,,,,,,,,,,
0.0,1.0,1.29975,,,,,,kilt_18s.jpg,0.0,clockno_default.jpg,6.0,24,,,,,,,,,,,,,,,,,,0.0,34.0,34.0,34.0,1.0,,,,,,,,,,
0.0,1.0,1.43142,,,,,,tab_09s.jpg,0.0,clockno_default.jpg,6.0,24,,,,,,,,,,,,,,,,,,0.0,35.0,35.0,35.0,1.0,,,,,,,,,,
,,,,,,,,,0.0,,,24,1.0,0.0,2.04321,,,,,,kettle_08s.jpg,eyedropper_12s.jpg,,,,,,,,,,,,,0.0,0.0,0.0,0.0,1.0,,,,,
,,,,,,,,,0.0,,,24,0.0,1.0,2.39922,,,,,,pineapple_12s.jpg,keyboard_05s.jpg,,,,,,,,,,,,,0.0,1.0,1.0,1.0,1.0,,,,,
,,,,,,,,,1.0,,,24,1.0,1.0,1.517745,,,,,,pocket_watch_16s.jpg,blazer_02s.jpg,,,,,,,,,,,,,0.0,2.0,2.0,2.0,1.0,,,,,
,,,,,,,,,1.0,,,24,1.0,1.0,1.498335,,,,,,trampoline_13s.jpg,fire_alarm_05s.jpg,,,,,,,,,,,,,0.0,3.0,3.0,3.0,1.0,,,,,
,,,,,,,,,0.0,,,24,0.0,1.0,2.953655,,,,,,tile_08s.jpg,solar_panel_02s.jpg,,,,,,,,,,,,,0.0,4.0,4.0,4.0,1.0,,,,,
,,,,,,,,,0.0,,,24,1.0,0.0,1.834015,,,,,,emerald_02s.jpg,turf_03s.jpg,,,,,,,,,,,,,0.0,5.0,5.0,5.0,1.0,,,,,
,,,,,,,,,,,,24,,,,,,,,,,,,,,,,clockno_present_5_9.xlsx,clockno_compare_task_5_9.xlsx,,,,,,,,,,,0.0,4.0,4.0,4.0,1.0
0.0,1.0,1.66943,,,,,,undershirt_02s.jpg,0.0,clockno_up.jpg,1.0,24,,,,,,,,,,,,,,,,,,0.0,0.0,0.0,0.0,1.0,,,,,,,,,,
0.0,1.0,2.296925,,,,,,giraffe_11s.jpg,0.0,clockno_default.jpg,1.0,24,,,,,,,,,,,,,,,,,,0.0,1.0,1.0,1.0,1.0,,,,,,,,,,
1.0,1.0,1.397995,,,,,,undershirt_02s.jpg,1.0,clockno_default.jpg,1.0,24,,,,,,,,,,,,,,,,,,0.0,2.0,2.0,2.0,1.0,,,,,,,,,,
0.0,1.0,1.41489,,,,,,puffin_19s.jpg,0.0,clockno_default.jpg,1.0,24,,,,,,,,,,,,,,,,,,0.0,3.0,3.0,3.0,1.0,,,,,,,,,,
0.0,1.0,0.736215,,,,,,puddle_02s.jpg,0.0,clockno_default.jpg,1.0,24,,,,,,,,,,,,,,,,,,0.0,4.0,4.0,4.0,1.0,,,,,,,,,,
1.0,1.0,1.367675,,,,,,giraffe_11s.jpg,1.0,clockno_default.jpg,1.0,24,,,,,,,,,,,,,,,,,,0.0,5.0,5.0,5.0,1.0,,,,,,,,,,
0.0,1.0,2.178,,,,,,lipstick_02s.jpg,0.0,clockno_default.jpg,1.0,24,,,,,,,,,,,,,,,,,,0.0,6.0,6.0,6.0,1.0,,,,,,,,,,
0.0,1.0,2.0696,,,,,,cotton_candy_01b.jpg,0.0,clockno_up.jpg,2.0,24,,,,,,,,,,,,,,,,,,0.0,7.0,7.0,7.0,1.0,,,,,,,,,,
1.0,1.0,1.633315,,,,,,cotton_candy_01b.jpg,1.0,clockno_default.jpg,2.0,24,,,,,,,,,,,,,,,,,,0.0,8.0,8.0,8.0,1.0,,,,,,,,,,
0.0,1.0,1.066865,,,,,,abacus_12s.jpg,0.0,clockno_default.jpg,2.0,24,,,,,,,,,,,,,,,,,,0.0,9.0,9.0,9.0,1.0,,,,,,,,,,
0.0,1.0,2.22491,,,,,,toaster_03s.jpg,0.0,clockno_default.jpg,2.0,24,,,,,,,,,,,,,,,,,,0.0,10.0,10.0,10.0,1.0,,,,,,,,,,
1.0,1.0,2.39949,,,,,,toaster_03s.jpg,1.0,clockno_default.jpg,2.0,24,,,,,,,,,,,,,,,,,,0.0,11.0,11.0,11.0,1.0,,,,,,,,,,
0.0,1.0,1.81652,,,,,,toy_04s.jpg,0.0,clockno_default.jpg,2.0,24,,,,,,,,,,,,,,,,,,0.0,12.0,12.0,12.0,1.0,,,,,,,,,,
,0.0,,,,,,,chip_04s.jpg,0.0,clockno_up.jpg,3.0,24,,,,,,,,,,,,,,,,,,0.0,13.0,13.0,13.0,1.0,,,,,,,,,,
0.0,1.0,1.69886,,,,,,flask_04s.jpg,0.0,clockno_default.jpg,3.0,24,,,,,,,,,,,,,,,,,,0.0,14.0,14.0,14.0,1.0,,,,,,,,,,
0.0,1.0,1.68124,,,,,,lamppost_09s.jpg,0.0,clockno_default.jpg,3.0,24,,,,,,,,,,,,,,,,,,0.0,15.0,15.0,15.0,1.0,,,,,,,,,,
1.0,1.0,2.46531,,,,,,lamppost_09s.jpg,1.0,clockno_default.jpg,3.0,24,,,,,,,,,,,,,,,,,,0.0,16.0,16.0,16.0,1.0,,,,,,,,,,
0.0,1.0,1.76507,,,,,,tripod_01b.jpg,0.0,clockno_default.jpg,3.0,24,,,,,,,,,,,,,,,,,,0.0,17.0,17.0,17.0,1.0,,,,,,,,,,
0.0,1.0,1.18082,,,,,,flip_flop_03s.jpg,0.0,clockno_up.jpg,4.0,24,,,,,,,,,,,,,,,,,,0.0,18.0,18.0,18.0,1.0,,,,,,,,,,
0.0,0.0,1.082865,,,,,,flip_flop_03s.jpg,1.0,clockno_default.jpg,4.0,24,,,,,,,,,,,,,,,,,,0.0,19.0,19.0,19.0,1.0,,,,,,,,,,
1.0,0.0,1.58216,,,,,,abacus_12s.jpg,0.0,clockno_default.jpg,4.0,24,,,,,,,,,,,,,,,,,,0.0,20.0,20.0,20.0,1.0,,,,,,,,,,
0.0,0.0,2.11552,,,,,,flip_flop_03s.jpg,1.0,clockno_default.jpg,4.0,24,,,,,,,,,,,,,,,,,,0.0,21.0,21.0,21.0,1.0,,,,,,,,,,
0.0,1.0,1.499415,,,,,,rooster_03s.jpg,0.0,clockno_default.jpg,4.0,24,,,,,,,,,,,,,,,,,,0.0,22.0,22.0,22.0,1.0,,,,,,,,,,
0.0,1.0,1.799245,,,,,,boar_10s.jpg,0.0,clockno_up.jpg,5.0,24,,,,,,,,,,,,,,,,,,0.0,23.0,23.0,23.0,1.0,,,,,,,,,,
0.0,1.0,2.163805,,,,,,spoon02a.jpg,0.0,clockno_default.jpg,5.0,24,,,,,,,,,,,,,,,,,,0.0,24.0,24.0,24.0,1.0,,,,,,,,,,
0.0,1.0,1.86533,,,,,,rhubarb_03s.jpg,0.0,clockno_default.jpg,5.0,24,,,,,,,,,,,,,,,,,,0.0,25.0,25.0,25.0,1.0,,,,,,,,,,
0.0,1.0,2.249575,,,,,,thorn_13s.jpg,0.0,clockno_default.jpg,5.0,24,,,,,,,,,,,,,,,,,,0.0,26.0,26.0,26.0,1.0,,,,,,,,,,
0.0,1.0,2.43551,,,,,,badge_03s.jpg,0.0,clockno_default.jpg,5.0,24,,,,,,,,,,,,,,,,,,0.0,27.0,27.0,27.0,1.0,,,,,,,,,,
0.0,1.0,1.749505,,,,,,penguin_16s.jpg,0.0,clockno_default.jpg,5.0,24,,,,,,,,,,,,,,,,,,0.0,28.0,28.0,28.0,1.0,,,,,,,,,,
0.0,1.0,1.71557,,,,,,fur_coat_11s.jpg,0.0,clockno_default.jpg,5.0,24,,,,,,,,,,,,,,,,,,0.0,29.0,29.0,29.0,1.0,,,,,,,,,,
0.0,1.0,1.86613,,,,,,quesadilla_07s.jpg,0.0,clockno_up.jpg,6.0,24,,,,,,,,,,,,,,,,,,0.0,30.0,30.0,30.0,1.0,,,,,,,,,,
0.0,1.0,1.66633,,,,,,teabag_12s.jpg,0.0,clockno_default.jpg,6.0,24,,,,,,,,,,,,,,,,,,0.0,31.0,31.0,31.0,1.0,,,,,,,,,,
,0.0,,,,,,,smoothie_09s.jpg,0.0,clockno_default.jpg,6.0,24,,,,,,,,,,,,,,,,,,0.0,32.0,32.0,32.0,1.0,,,,,,,,,,
0.0,1.0,1.466035,,,,,,lava_02s.jpg,0.0,clockno_default.jpg,6.0,24,,,,,,,,,,,,,,,,,,0.0,33.0,33.0,33.0,1.0,,,,,,,,,,
0.0,1.0,0.94861,,,,,,denture_03s.jpg,0.0,clockno_default.jpg,6.0,24,,,,,,,,,,,,,,,,,,0.0,34.0,34.0,34.0,1.0,,,,,,,,,,
1.0,1.0,1.63206,,,,,,denture_03s.jpg,1.0,clockno_default.jpg,6.0,24,,,,,,,,,,,,,,,,,,0.0,35.0,35.0,35.0,1.0,,,,,,,,,,
,,,,,,,,,0.0,,,24,0.0,1.0,2.71665,,,,,,rhubarb_03s.jpg,rooster_03s.jpg,,,,,,,,,,,,,0.0,0.0,0.0,0.0,1.0,,,,,
,,,,,,,,,1.0,,,24,1.0,1.0,1.685935,,,,,,penguin_16s.jpg,teabag_12s.jpg,,,,,,,,,,,,,0.0,1.0,1.0,1.0,1.0,,,,,
,,,,,,,,,0.0,,,24,1.0,0.0,1.113225,,,,,,smoothie_09s.jpg,fur_coat_11s.jpg,,,,,,,,,,,,,0.0,2.0,2.0,2.0,1.0,,,,,
,,,,,,,,,1.0,,,24,0.0,0.0,3.01516,,,,,,puffin_19s.jpg,lipstick_02s.jpg,,,,,,,,,,,,,0.0,3.0,3.0,3.0,1.0,,,,,
,,,,,,,,,1.0,,,24,1.0,1.0,1.46613,,,,,,flask_04s.jpg,tripod_01b.jpg,,,,,,,,,,,,,0.0,4.0,4.0,4.0,1.0,,,,,
,,,,,,,,,0.0,,,24,1.0,0.0,1.56718,,,,,,thorn_13s.jpg,boar_10s.jpg,,,,,,,,,,,,,0.0,5.0,5.0,5.0,1.0,,,,,
