key_resp.keys,key_resp.corr,key_resp.rt,noclock_loop.thisRepN,noclock_loop.thisTrialN,noclock_loop.thisN,noclock_loop.thisIndex,noclock_loop.ran,pictures,answer,clock,segment,participant,key_resp_2.keys,key_resp_2.corr,key_resp_2.rt,noclock_loop2.thisRepN,noclock_loop2.thisTrialN,noclock_loop2.thisN,noclock_loop2.thisIndex,noclock_loop2.ran,item_a,item_b,noclock_condition.thisRepN,noclock_condition.thisTrialN,noclock_condition.thisN,noclock_condition.thisIndex,noclock_condition.ran,present,compare,present_segment.thisRepN,present_segment.thisTrialN,present_segment.thisN,present_segment.thisIndex,present_segment.ran,compare_segment.thisRepN,compare_segment.thisTrialN,compare_segment.thisN,compare_segment.thisIndex,compare_segment.ran,clock_conditions.thisRepN,clock_conditions.thisTrialN,clock_conditions.thisN,clock_conditions.thisIndex,clock_conditions.ran
0.0,1.0,0.87718,0.0,0.0,0.0,0.0,1.0,pillow_03s.jpg,0.0,clockno_up.jpg,1.0,11,,,,,,,,,,,,,,,,,,,,,,,,,,,,,,,,
1.0,1.0,0.78883,0.0,1.0,1.0,1.0,1.0,pillow_03s.jpg,1.0,clockno_default.jpg,1.0,11,,,,,,,,,,,,,,,,,,,,,,,,,,,,,,,,
0.0,1.0,0.675945,0.0,2.0,2.0,2.0,1.0,padlock_07s.jpg,0.0,clockno_default.jpg,1.0,11,,,,,,,,,,,,,,,,,,,,,,,,,,,,,,,,
1.0,1.0,0.95989,0.0,3.0,3.0,3.0,1.0,pillow_03s.jpg,1.0,clockno_default.jpg,1.0,11,,,,,,,,,,,,,,,,,,,,,,,,,,,,,,,,
0.0,1.0,0.6614,0.0,4.0,4.0,4.0,1.0,crab_16s.jpg,0.0,clockno_default.jpg,1.0,11,,,,,,,,,,,,,,,,,,,,,,,,,,,,,,,,
0.0,1.0,0.79501,0.0,5.0,5.0,5.0,1.0,exhaust_pipe_10s.jpg,0.0,clockno_default.jpg,1.0,11,,,,,,,,,,,,,,,,,,,,,,,,,,,,,,,,
0.0,1.0,0.576555,0.0,6.0,6.0,6.0,1.0,turkey_10s.jpg,0.0,clockno_up.jpg,2.0,11,,,,,,,,,,,,,,,,,,,,,,,,,,,,,,,,
0.0,1.0,0.49103,0.0,7.0,7.0,7.0,1.0,pomegranate_04s.jpg,0.0,clockno_default.jpg,2.0,11,,,,,,,,,,,,,,,,,,,,,,,,,,,,,,,,
0.0,1.0,0.546185,0.0,8.0,8.0,8.0,1.0,chocolate_01b.jpg,0.0,clockno_default.jpg,2.0,11,,,,,,,,,,,,,,,,,,,,,,,,,,,,,,,,
0.0,1.0,0.71574,0.0,9.0,9.0,9.0,1.0,paper_towel_03s.jpg,0.0,clockno_default.jpg,2.0,11,,,,,,,,,,,,,,,,,,,,,,,,,,,,,,,,
0.0,1.0,0.712735,0.0,10.0,10.0,10.0,1.0,keyhole_03s.jpg,0.0,clockno_default.jpg,2.0,11,,,,,,,,,,,,,,,,,,,,,,,,,,,,,,,,
1.0,1.0,1.131835,0.0,11.0,11.0,11.0,1.0,turkey_10s.jpg,1.0,clockno_default.jpg,2.0,11,,,,,,,,,,,,,,,,,,,,,,,,,,,,,,,,
0.0,1.0,0.62678,0.0,12.0,12.0,12.0,1.0,poinsettia_04s.jpg,0.0,clockno_up.jpg,3.0,11,,,,,,,,,,,,,,,,,,,,,,,,,,,,,,,,
1.0,1.0,0.917595,0.0,13.0,13.0,13.0,1.0,poinsettia_04s.jpg,1.0,clockno_default.jpg,3.0,11,,,,,,,,,,,,,,,,,,,,,,,,,,,,,,,,
0.0,1.0,0.69105,0.0,14.0,14.0,14.0,1.0,tape_measure_11s.jpg,0.0,clockno_default.jpg,3.0,11,,,,,,,,,,,,,,,,,,,,,,,,,,,,,,,,
1.0,1.0,1.062415,0.0,15.0,15.0,15.0,1.0,poinsettia_04s.jpg,1.0,clockno_default.jpg,3.0,11,,,,,,,,,,,,,,,,,,,,,,,,,,,,,,,,
0.0,1.0,0.597455,0.0,16.0,16.0,16.0,1.0,footprint_11s.jpg,0.0,clockno_default.jpg,3.0,11,,,,,,,,,,,,,,,,,,,,,,,,,,,,,,,,
0.0,1.0,0.58092,0.0,17.0,17.0,17.0,1.0,rudder_02s.jpg,0.0,clockno_up.jpg,4.0,11,,,,,,,,,,,,,,,,,,,,,,,,,,,,,,,,
0.0,1.0,0.63372,0.0,18.0,18.0,18.0,1.0,tie_03s.jpg,0.0,clockno_default.jpg,4.0,11,,,,,,,,,,,,,,,,,,,,,,,,,,,,,,,,
0.0,1.0,0.577335,0.0,19.0,19.0,19.0,1.0,sea_urchin_09s.jpg,0.0,clockno_default.jpg,4.0,11,,,,,,,,,,,,,,,,,,,,,,,,,,,,,,,,
0.0,1.0,0.861585,0.0,20.0,20.0,20.0,1.0,bacon_05s.jpg,0.0,clockno_default.jpg,4.0,11,,,,,,,,,,,,,,,,,,,,,,,,,,,,,,,,
0.0,1.0,0.72757,0.0,21.0,21.0,21.0,1.0,peppermint_07s.jpg,0.0,clockno_default.jpg,4.0,11,,,,,,,,,,,,,,,,,,,,,,,,,,,,,,,,
0.0,1.0,0.58543,0.0,22.0,22.0,22.0,1.0,stingray_02s.jpg,0.0,clockno_default.jpg,4.0,11,,,,,,,,,,,,,,,,,,,,,,,,,,,,,,,,
0.0,1.0,0.566925,0.0,23.0,23.0,23.0,1.0,hyena_16s.jpg,0.0,clockno_default.jpg,4.0,11,,,,,,,,,,,,,,,,,,,,,,,,,,,,,,,,
0.0,1.0,0.769585,0.0,24.0,24.0,24.0,1.0,leotard_08s.jpg,0.0,clockno_up.jpg,5.0,11,,,,,,,,,,,,,,,,,,,,,,,,,,,,,,,,
0.0,1.0,0.687045,0.0,25.0,25.0,25.0,1.0,loveseat_08s.jpg,0.0,clockno_default.jpg,5.0,11,,,,,,,,,,,,,,,,,,,,,,,,,,,,,,,,
0.0,1.0,0.745895,0.0,26.0,26.0,26.0,1.0,jetski_10s.jpg,0.0,clockno_default.jpg,5.0,11,,,,,,,,,,,,,,,,,,,,,,,,,,,,,,,,
0.0,1.0,1.109885,0.0,27.0,27.0,27.0,1.0,police_car_01s.jpg,0.0,clockno_default.jpg,5.0,11,,,,,,,,,,,,,,,,,,,,,,,,,,,,,,,,
1.0,1.0,1.011115,0.0,28.0,28.0,28.0,1.0,loveseat_08s.jpg,1.0,clockno_default.jpg,5.0,11,,,,,,,,,,,,,,,,,,,,,,,,,,,,,,,,
1.0,0.0,1.19886,0.0,29.0,29.0,29.0,1.0,tie_03s.jpg,0.0,clockno_default.jpg,5.0,11,,,,,,,,,,,,,,,,,,,,,,,,,,,,,,,,
0.0,1.0,0.591965,0.0,30.0,30.0,30.0,1.0,smoothie_09s.jpg,0.0,clockno_default.jpg,5.0,11,,,,,,,,,,,,,,,,,,,,,,,,,,,,,,,,
0.0,1.0,0.825335,0.0,31.0,31.0,31.0,1.0,mosquito_12s.jpg,0.0,clockno_up.jpg,6.0,11,,,,,,,,,,,,,,,,,,,,,,,,,,,,,,,,
0.0,1.0,0.602755,0.0,32.0,32.0,32.0,1.0,badge_03s.jpg,0.0,clockno_default.jpg,6.0,11,,,,,,,,,,,,,,,,,,,,,,,,,,,,,,,,
0.0,1.0,0.56966,0.0,33.0,33.0,33.0,1.0,seagull_01b.jpg,0.0,clockno_default.jpg,6.0,11,,,,,,,,,,,,,,,,,,,,,,,,,,,,,,,,
0.0,1.0,0.70851,0.0,34.0,34.0,34.0,1.0,rhinoceros_02s.jpg,0.0,clockno_default.jpg,6.0,11,,,,,,,,,,,,,,,,,,,,,,,,,,,,,,,,
1.0,1.0,1.020305,0.0,35.0,35.0,35.0,1.0,badge_03s.jpg,1.0,clockno_default.jpg,6.0,11,,,,,,,,,,,,,,,,,,,,,,,,,,,,,,,,
,,,,,,,,,0.0,,,11,0.0,1.0,1.30058,0.0,0.0,0.0,0.0,1.0,pomegranate_04s.jpg,crab_16s.jpg,,,,,,,,,,,,,,,,,,,,,,
,,,,,,,,,1.0,,,11,0.0,0.0,1.67406,0.0,1.0,1.0,1.0,1.0,exhaust_pipe_10s.jpg,chocolate_01b.jpg,,,,,,,,,,,,,,,,,,,,,,
,,,,,,,,,0.0,,,11,1.0,0.0,1.36393,0.0,2.0,2.0,2.0,1.0,rudder_02s.jpg,tape_measure_11s.jpg,,,,,,,,,,,,,,,,,,,,,,
,,,,,,,,,0.0,,,11,1.0,0.0,2.03105,0.0,3.0,3.0,3.0,1.0,rhinoceros_02s.jpg,mosquito_12s.jpg,,,,,,,,,,,,,,,,,,,,,,
,,,,,,,,,0.0,,,11,0.0,1.0,1.54714,0.0,4.0,4.0,4.0,1.0,stingray_02s.jpg,sea_urchin_09s.jpg,,,,,,,,,,,,,,,,,,,,,,
,,,,,,,,,1.0,,,11,1.0,1.0,2.21811,0.0,5.0,5.0,5.0,1.0,bacon_05s.jpg,hyena_16s.jpg,,,,,,,,,,,,,,,,,,,,,,
,,,,,,,,,,,,11,,,,,,,,,,,0.0,0.0,0.0,0.0,1.0,clockno_present_1_2.xlsx,clockno_compare_task_1_2.xlsx,,,,,,,,,,,,,,,
0.0,1.0,0.97183,0.0,0.0,0.0,0.0,1.0,onion_10s.jpg,0.0,clockno_up.jpg,1.0,11,,,,,,,,,,,,,,,,,,,,,,,,,,,,,,,,
0.0,1.0,0.64696,0.0,1.0,1.0,1.0,1.0,fire_alarm_05s.jpg,0.0,clockno_default.jpg,1.0,11,,,,,,,,,,,,,,,,,,,,,,,,,,,,,,,,
0.0,1.0,0.468005,0.0,2.0,2.0,2.0,1.0,diving_board_07s.jpg,0.0,clockno_default.jpg,1.0,11,,,,,,,,,,,,,,,,,,,,,,,,,,,,,,,,
0.0,1.0,0.51217,0.0,3.0,3.0,3.0,1.0,turnstile_08s.jpg,0.0,clockno_default.jpg,1.0,11,,,,,,,,,,,,,,,,,,,,,,,,,,,,,,,,
0.0,0.0,0.89655,0.0,4.0,4.0,4.0,1.0,onion_10s.jpg,1.0,clockno_default.jpg,1.0,11,,,,,,,,,,,,,,,,,,,,,,,,,,,,,,,,
0.0,1.0,0.681475,0.0,5.0,5.0,5.0,1.0,tripod_01b.jpg,0.0,clockno_default.jpg,1.0,11,,,,,,,,,,,,,,,,,,,,,,,,,,,,,,,,
0.0,1.0,0.832875,0.0,6.0,6.0,6.0,1.0,solar_panel_02s.jpg,0.0,clockno_default.jpg,1.0,11,,,,,,,,,,,,,,,,,,,,,,,,,,,,,,,,
0.0,1.0,1.067625,0.0,7.0,7.0,7.0,1.0,kimono_13s.jpg,0.0,clockno_up.jpg,2.0,11,,,,,,,,,,,,,,,,,,,,,,,,,,,,,,,,
0.0,1.0,0.66927,0.0,8.0,8.0,8.0,1.0,puppy_08s.jpg,0.0,clockno_default.jpg,2.0,11,,,,,,,,,,,,,,,,,,,,,,,,,,,,,,,,
0.0,1.0,0.62955,0.0,9.0,9.0,9.0,1.0,sundae_08s.jpg,0.0,clockno_default.jpg,2.0,11,,,,,,,,,,,,,,,,,,,,,,,,,,,,,,,,
0.0,1.0,0.67105,0.0,10.0,10.0,10.0,1.0,go-kart_10s.jpg,0.0,clockno_default.jpg,2.0,11,,,,,,,,,,,,,,,,,,,,,,,,,,,,,,,,
0.0,1.0,0.58352,0.0,11.0,11.0,11.0,1.0,chalice_10s.jpg,0.0,clockno_default.jpg,2.0,11,,,,,,,,,,,,,,,,,,,,,,,,,,,,,,,,
0.0,1.0,0.760515,0.0,12.0,12.0,12.0,1.0,rope_16s.jpg,0.0,clockno_up.jpg,3.0,11,,,,,,,,,,,,,,,,,,,,,,,,,,,,,,,,
0.0,1.0,0.549595,0.0,13.0,13.0,13.0,1.0,muffin_12n.jpg,0.0,clockno_default.jpg,3.0,11,,,,,,,,,,,,,,,,,,,,,,,,,,,,,,,,
0.0,1.0,0.631055,0.0,14.0,14.0,14.0,1.0,typewriter_11s.jpg,0.0,clockno_default.jpg,3.0,11,,,,,,,,,,,,,,,,,,,,,,,,,,,,,,,,
0.0,1.0,0.604545,0.0,15.0,15.0,15.0,1.0,key_07s.jpg,0.0,clockno_default.jpg,3.0,11,,,,,,,,,,,,,,,,,,,,,,,,,,,,,,,,
0.0,1.0,0.511475,0.0,16.0,16.0,16.0,1.0,mannequin_05s.jpg,0.0,clockno_default.jpg,3.0,11,,,,,,,,,,,,,,,,,,,,,,,,,,,,,,,,
0.0,1.0,0.56581,0.0,17.0,17.0,17.0,1.0,tupperware_09s.jpg,0.0,clockno_default.jpg,3.0,11,,,,,,,,,,,,,,,,,,,,,,,,,,,,,,,,
0.0,1.0,0.65872,0.0,18.0,18.0,18.0,1.0,sleeping_bag_12s.jpg,0.0,clockno_default.jpg,3.0,11,,,,,,,,,,,,,,,,,,,,,,,,,,,,,,,,
0.0,1.0,0.679665,0.0,19.0,19.0,19.0,1.0,lemonade_04s.jpg,0.0,clockno_up.jpg,4.0,11,,,,,,,,,,,,,,,,,,,,,,,,,,,,,,,,
0.0,1.0,0.66273,0.0,20.0,20.0,20.0,1.0,pretzel_09s.jpg,0.0,clockno_default.jpg,4.0,11,,,,,,,,,,,,,,,,,,,,,,,,,,,,,,,,
0.0,1.0,0.571845,0.0,21.0,21.0,21.0,1.0,jet_15s.jpg,0.0,clockno_default.jpg,4.0,11,,,,,,,,,,,,,,,,,,,,,,,,,,,,,,,,
0.0,1.0,0.59941,0.0,22.0,22.0,22.0,1.0,flip_flop_03s.jpg,0.0,clockno_default.jpg,4.0,11,,,,,,,,,,,,,,,,,,,,,,,,,,,,,,,,
0.0,1.0,0.68411,0.0,23.0,23.0,23.0,1.0,air_pump_05s.jpg,0.0,clockno_default.jpg,4.0,11,,,,,,,,,,,,,,,,,,,,,,,,,,,,,,,,
1.0,0.0,0.861935,0.0,24.0,24.0,24.0,1.0,tripod_01b.jpg,0.0,clockno_default.jpg,4.0,11,,,,,,,,,,,,,,,,,,,,,,,,,,,,,,,,
0.0,1.0,0.648335,0.0,25.0,25.0,25.0,1.0,undershirt_02s.jpg,0.0,clockno_up.jpg,5.0,11,,,,,,,,,,,,,,,,,,,,,,,,,,,,,,,,
1.0,1.0,0.744555,0.0,26.0,26.0,26.0,1.0,undershirt_02s.jpg,1.0,clockno_default.jpg,5.0,11,,,,,,,,,,,,,,,,,,,,,,,,,,,,,,,,
0.0,1.0,0.868915,0.0,27.0,27.0,27.0,1.0,bank_06s.jpg,0.0,clockno_default.jpg,5.0,11,,,,,,,,,,,,,,,,,,,,,,,,,,,,,,,,
1.0,1.0,1.21279,0.0,28.0,28.0,28.0,1.0,undershirt_02s.jpg,1.0,clockno_default.jpg,5.0,11,,,,,,,,,,,,,,,,,,,,,,,,,,,,,,,,
0.0,1.0,0.59804,0.0,29.0,29.0,29.0,1.0,lavender_10s.jpg,0.0,clockno_default.jpg,5.0,11,,,,,,,,,,,,,,,,,,,,,,,,,,,,,,,,
0.0,1.0,0.90222,0.0,30.0,30.0,30.0,1.0,sparkler_02s.jpg,0.0,clockno_up.jpg,6.0,11,,,,,,,,,,,,,,,,,,,,,,,,,,,,,,,,
1.0,1.0,0.74556,0.0,31.0,31.0,31.0,1.0,sparkler_02s.jpg,1.0,clockno_default.jpg,6.0,11,,,,,,,,,,,,,,,,,,,,,,,,,,,,,,,,
0.0,1.0,0.817805,0.0,32.0,32.0,32.0,1.0,omelet_07s.jpg,0.0,clockno_default.jpg,6.0,11,,,,,,,,,,,,,,,,,,,,,,,,,,,,,,,,
0.0,1.0,0.643365,0.0,33.0,33.0,33.0,1.0,bathtub_23s.jpg,0.0,clockno_default.jpg,6.0,11,,,,,,,,,,,,,,,,,,,,,,,,,,,,,,,,
0.0,1.0,0.58358,0.0,34.0,34.0,34.0,1.0,crate_05s.jpg,0.0,clockno_default.jpg,6.0,11,,,,,,,,,,,,,,,,,,,,,,,,,,,,,,,,
0.0,1.0,0.76022,0.0,35.0,35.0,35.0,1.0,rocking_horse_03s.jpg,0.0,clockno_default.jpg,6.0,11,,,,,,,,,,,,,,,,,,,,,,,,,,,,,,,,
,,,,,,,,,1.0,,,11,1.0,1.0,2.60282,0.0,0.0,0.0,0.0,1.0,solar_panel_02s.jpg,sundae_08s.jpg,,,,,,,,,,,,,,,,,,,,,,
,,,,,,,,,1.0,,,11,0.0,0.0,1.695465,0.0,1.0,1.0,1.0,1.0,sleeping_bag_12s.jpg,jet_15s.jpg,,,,,,,,,,,,,,,,,,,,,,
,,,,,,,,,0.0,,,11,0.0,1.0,2.920915,0.0,2.0,2.0,2.0,1.0,omelet_07s.jpg,lavender_10s.jpg,,,,,,,,,,,,,,,,,,,,,,
,,,,,,,,,0.0,,,11,1.0,0.0,2.228475,0.0,3.0,3.0,3.0,1.0,go-kart_10s.jpg,kimono_13s.jpg,,,,,,,,,,,,,,,,,,,,,,
,,,,,,,,,0.0,,,11,0.0,1.0,1.878045,0.0,4.0,4.0,4.0,1.0,chalice_10s.jpg,puppy_08s.jpg,,,,,,,,,,,,,,,,,,,,,,
,,,,,,,,,1.0,,,11,1.0,1.0,3.11654,0.0,5.0,5.0,5.0,1.0,rope_16s.jpg,key_07s.jpg,,,,,,,,,,,,,,,,,,,,,,
,,,,,,,,,,,,11,,,,,,,,,,,0.0,1.0,1.0,1.0,1.0,clockno_present_2_2.xlsx,clockno_compare_task_2_2.xlsx,,,,,,,,,,,,,,,
0.0,1.0,0.983825,0.0,0.0,0.0,0.0,1.0,cushion_08s.jpg,0.0,clockno_up.jpg,1.0,11,,,,,,,,,,,,,,,,,,,,,,,,,,,,,,,,
0.0,1.0,0.608565,0.0,1.0,1.0,1.0,1.0,eyedropper_12s.jpg,0.0,clockno_default.jpg,1.0,11,,,,,,,,,,,,,,,,,,,,,,,,,,,,,,,,
0.0,1.0,0.60947,0.0,2.0,2.0,2.0,1.0,projector_08s.jpg,0.0,clockno_default.jpg,1.0,11,,,,,,,,,,,,,,,,,,,,,,,,,,,,,,,,
1.0,1.0,0.911065,0.0,3.0,3.0,3.0,1.0,projector_08s.jpg,1.0,clockno_default.jpg,1.0,11,,,,,,,,,,,,,,,,,,,,,,,,,,,,,,,,
0.0,1.0,0.61516,0.0,4.0,4.0,4.0,1.0,doily_13s.jpg,0.0,clockno_default.jpg,1.0,11,,,,,,,,,,,,,,,,,,,,,,,,,,,,,,,,
0.0,1.0,0.67572,0.0,5.0,5.0,5.0,1.0,dirt_bike_11s.jpg,0.0,clockno_up.jpg,2.0,11,,,,,,,,,,,,,,,,,,,,,,,,,,,,,,,,
0.0,1.0,0.736345,0.0,6.0,6.0,6.0,1.0,pocket_watch_16s.jpg,0.0,clockno_default.jpg,2.0,11,,,,,,,,,,,,,,,,,,,,,,,,,,,,,,,,
0.0,1.0,0.678555,0.0,7.0,7.0,7.0,1.0,lifesaver_10s.jpg,0.0,clockno_default.jpg,2.0,11,,,,,,,,,,,,,,,,,,,,,,,,,,,,,,,,
0.0,1.0,0.54311,0.0,8.0,8.0,8.0,1.0,microwave_02s.jpg,0.0,clockno_default.jpg,2.0,11,,,,,,,,,,,,,,,,,,,,,,,,,,,,,,,,
0.0,1.0,0.60084,0.0,9.0,9.0,9.0,1.0,rice_12s.jpg,0.0,clockno_default.jpg,2.0,11,,,,,,,,,,,,,,,,,,,,,,,,,,,,,,,,
0.0,1.0,0.76915,0.0,10.0,10.0,10.0,1.0,mattress_01s.jpg,0.0,clockno_default.jpg,2.0,11,,,,,,,,,,,,,,,,,,,,,,,,,,,,,,,,
0.0,1.0,0.62662,0.0,11.0,11.0,11.0,1.0,seahorse_13s.jpg,0.0,clockno_default.jpg,2.0,11,,,,,,,,,,,,,,,,,,,,,,,,,,,,,,,,
0.0,1.0,0.86539,0.0,12.0,12.0,12.0,1.0,hummingbird_05s.jpg,0.0,clockno_up.jpg,3.0,11,,,,,,,,,,,,,,,,,,,,,,,,,,,,,,,,
0.0,1.0,0.6764,0.0,13.0,13.0,13.0,1.0,pepper_mill_03s.jpg,0.0,clockno_default.jpg,3.0,11,,,,,,,,,,,,,,,,,,,,,,,,,,,,,,,,
0.0,1.0,0.49261,0.0,14.0,14.0,14.0,1.0,prism_10s.jpg,0.0,clockno_default.jpg,3.0,11,,,,,,,,,,,,,,,,,,,,,,,,,,,,,,,,
1.0,1.0,1.050545,0.0,15.0,15.0,15.0,1.0,pepper_mill_03s.jpg,1.0,clockno_default.jpg,3.0,11,,,,,,,,,,,,,,,,,,,,,,,,,,,,,,,,
0.0,1.0,0.66583,0.0,16.0,16.0,16.0,1.0,taxi_15s.jpg,0.0,clockno_default.jpg,3.0,11,,,,,,,,,,,,,,,,,,,,,,,,,,,,,,,,
0.0,1.0,0.686605,0.0,17.0,17.0,17.0,1.0,amber_04s.jpg,0.0,clockno_up.jpg,4.0,11,,,,,,,,,,,,,,,,,,,,,,,,,,,,,,,,
0.0,1.0,0.676525,0.0,18.0,18.0,18.0,1.0,frog_09s.jpg,0.0,clockno_default.jpg,4.0,11,,,,,,,,,,,,,,,,,,,,,,,,,,,,,,,,
0.0,1.0,0.84646,0.0,19.0,19.0,19.0,1.0,ruby_15s.jpg,0.0,clockno_default.jpg,4.0,11,,,,,,,,,,,,,,,,,,,,,,,,,,,,,,,,
1.0,1.0,1.09471,0.0,20.0,20.0,20.0,1.0,amber_04s.jpg,1.0,clockno_default.jpg,4.0,11,,,,,,,,,,,,,,,,,,,,,,,,,,,,,,,,
0.0,1.0,0.8278,0.0,21.0,21.0,21.0,1.0,peach_04s.jpg,0.0,clockno_default.jpg,4.0,11,,,,,,,,,,,,,,,,,,,,,,,,,,,,,,,,
0.0,1.0,0.59474,0.0,22.0,22.0,22.0,1.0,kilt_18s.jpg,0.0,clockno_default.jpg,4.0,11,,,,,,,,,,,,,,,,,,,,,,,,,,,,,,,,
0.0,1.0,0.66405,0.0,23.0,23.0,23.0,1.0,bee_20s.jpg,0.0,clockno_up.jpg,5.0,11,,,,,,,,,,,,,,,,,,,,,,,,,,,,,,,,
0.0,1.0,0.429875,0.0,24.0,24.0,24.0,1.0,chopsticks_08s.jpg,0.0,clockno_default.jpg,5.0,11,,,,,,,,,,,,,,,,,,,,,,,,,,,,,,,,
1.0,1.0,0.888375,0.0,25.0,25.0,25.0,1.0,bee_20s.jpg,1.0,clockno_default.jpg,5.0,11,,,,,,,,,,,,,,,,,,,,,,,,,,,,,,,,
0.0,1.0,0.536505,0.0,26.0,26.0,26.0,1.0,throne_11s.jpg,0.0,clockno_default.jpg,5.0,11,,,,,,,,,,,,,,,,,,,,,,,,,,,,,,,,
0.0,1.0,0.742875,0.0,27.0,27.0,27.0,1.0,marker_05s.jpg,0.0,clockno_default.jpg,5.0,11,,,,,,,,,,,,,,,,,,,,,,,,,,,,,,,,
0.0,1.0,0.54924,0.0,28.0,28.0,28.0,1.0,rock_08s.jpg,0.0,clockno_default.jpg,5.0,11,,,,,,,,,,,,,,,,,,,,,,,,,,,,,,,,
0.0,1.0,0.728405,0.0,29.0,29.0,29.0,1.0,rake_06s.jpg,0.0,clockno_default.jpg,5.0,11,,,,,,,,,,,,,,,,,,,,,,,,,,,,,,,,
0.0,1.0,1.02633,0.0,30.0,30.0,30.0,1.0,contact_lens_15s.jpg,0.0,clockno_up.jpg,6.0,11,,,,,,,,,,,,,,,,,,,,,,,,,,,,,,,,
0.0,1.0,0.65979,0.0,31.0,31.0,31.0,1.0,ice_pack_09s.jpg,0.0,clockno_default.jpg,6.0,11,,,,,,,,,,,,,,,,,,,,,,,,,,,,,,,,
0.0,1.0,0.589945,0.0,32.0,32.0,32.0,1.0,pinwheel_06s.jpg,0.0,clockno_default.jpg,6.0,11,,,,,,,,,,,,,,,,,,,,,,,,,,,,,,,,
0.0,1.0,0.639175,0.0,33.0,33.0,33.0,1.0,antenna_01b.jpg,0.0,clockno_default.jpg,6.0,11,,,,,,,,,,,,,,,,,,,,,,,,,,,,,,,,
0.0,1.0,0.586925,0.0,34.0,34.0,34.0,1.0,fireworks_18s.jpg,0.0,clockno_default.jpg,6.0,11,,,,,,,,,,,,,,,,,,,,,,,,,,,,,,,,
0.0,1.0,0.837135,0.0,35.0,35.0,35.0,1.0,knitting_needle_04s.jpg,0.0,clockno_default.jpg,6.0,11,,,,,,,,,,,,,,,,,,,,,,,,,,,,,,,,
,,,,,,,,,1.0,,,11,1.0,1.0,3.102515,0.0,0.0,0.0,0.0,1.0,rice_12s.jpg,hummingbird_05s.jpg,,,,,,,,,,,,,,,,,,,,,,
,,,,,,,,,1.0,,,11,1.0,1.0,1.666385,0.0,1.0,1.0,1.0,1.0,seahorse_13s.jpg,prism_10s.jpg,,,,,,,,,,,,,,,,,,,,,,
,,,,,,,,,1.0,,,11,0.0,0.0,2.736855,0.0,2.0,2.0,2.0,1.0,taxi_15s.jpg,ruby_15s.jpg,,,,,,,,,,,,,,,,,,,,,,
,,,,,,,,,0.0,,,11,1.0,0.0,5.099015,0.0,3.0,3.0,3.0,1.0,microwave_02s.jpg,dirt_bike_11s.jpg,,,,,,,,,,,,,,,,,,,,,,
,,,,,,,,,0.0,,,11,1.0,0.0,1.67813,0.0,4.0,4.0,4.0,1.0,doily_13s.jpg,eyedropper_12s.jpg,,,,,,,,,,,,,,,,,,,,,,
,,,,,,,,,1.0,,,11,0.0,0.0,1.58487,0.0,5.0,5.0,5.0,1.0,lifesaver_10s.jpg,mattress_01s.jpg,,,,,,,,,,,,,,,,,,,,,,
,,,,,,,,,,,,11,,,,,,,,,,,0.0,2.0,2.0,2.0,1.0,clockno_present_3_2.xlsx,clockno_compare_task_3_2.xlsx,,,,,,,,,,,,,,,
0.0,1.0,0.882275,0.0,0.0,0.0,0.0,1.0,crayon_09s.jpg,0.0,clockno_up.jpg,1.0,11,,,,,,,,,,,,,,,,,,,,,,,,,,,,,,,,
0.0,1.0,0.680435,0.0,1.0,1.0,1.0,1.0,gargoyle_08s.jpg,0.0,clockno_default.jpg,1.0,11,,,,,,,,,,,,,,,,,,,,,,,,,,,,,,,,
1.0,1.0,0.70139,0.0,2.0,2.0,2.0,1.0,gargoyle_08s.jpg,1.0,clockno_default.jpg,1.0,11,,,,,,,,,,,,,,,,,,,,,,,,,,,,,,,,
0.0,1.0,0.55918,0.0,3.0,3.0,3.0,1.0,ticktacktoe_08s.jpg,0.0,clockno_default.jpg,1.0,11,,,,,,,,,,,,,,,,,,,,,,,,,,,,,,,,
1.0,0.0,0.866345,0.0,4.0,4.0,4.0,1.0,pencil_sharpener_09n.jpg,0.0,clockno_default.jpg,1.0,11,,,,,,,,,,,,,,,,,,,,,,,,,,,,,,,,
0.0,1.0,0.71714,0.0,5.0,5.0,5.0,1.0,pump_11s.jpg,0.0,clockno_up.jpg,2.0,11,,,,,,,,,,,,,,,,,,,,,,,,,,,,,,,,
0.0,1.0,0.576235,0.0,6.0,6.0,6.0,1.0,raspberry_12s.jpg,0.0,clockno_default.jpg,2.0,11,,,,,,,,,,,,,,,,,,,,,,,,,,,,,,,,
0.0,1.0,0.525255,0.0,7.0,7.0,7.0,1.0,red_carpet_03s.jpg,0.0,clockno_default.jpg,2.0,11,,,,,,,,,,,,,,,,,,,,,,,,,,,,,,,,
0.0,1.0,0.880355,0.0,8.0,8.0,8.0,1.0,pencil_sharpener_09n.jpg,0.0,clockno_default.jpg,2.0,11,,,,,,,,,,,,,,,,,,,,,,,,,,,,,,,,
0.0,1.0,0.6497,0.0,9.0,9.0,9.0,1.0,plunger_08s.jpg,0.0,clockno_default.jpg,2.0,11,,,,,,,,,,,,,,,,,,,,,,,,,,,,,,,,
0.0,1.0,0.519525,0.0,10.0,10.0,10.0,1.0,cucumber_07s.jpg,0.0,clockno_default.jpg,2.0,11,,,,,,,,,,,,,,,,,,,,,,,,,,,,,,,,
0.0,0.0,0.97071,0.0,11.0,11.0,11.0,1.0,pump_11s.jpg,1.0,clockno_default.jpg,2.0,11,,,,,,,,,,,,,,,,,,,,,,,,,,,,,,,,
0.0,1.0,1.19365,0.0,12.0,12.0,12.0,1.0,pocketknife_12s.jpg,0.0,clockno_up.jpg,3.0,11,,,,,,,,,,,,,,,,,,,,,,,,,,,,,,,,
0.0,1.0,0.52911,0.0,13.0,13.0,13.0,1.0,roller_coaster_07s.jpg,0.0,clockno_default.jpg,3.0,11,,,,,,,,,,,,,,,,,,,,,,,,,,,,,,,,
0.0,1.0,0.54855,0.0,14.0,14.0,14.0,1.0,golf_club_03s.jpg,0.0,clockno_default.jpg,3.0,11,,,,,,,,,,,,,,,,,,,,,,,,,,,,,,,,
0.0,1.0,0.523735,0.0,15.0,15.0,15.0,1.0,rosary_03s.jpg,0.0,clockno_default.jpg,3.0,11,,,,,,,,,,,,,,,,,,,,,,,,,,,,,,,,
0.0,0.0,0.96054,0.0,16.0,16.0,16.0,1.0,roller_coaster_07s.jpg,1.0,clockno_default.jpg,3.0,11,,,,,,,,,,,,,,,,,,,,,,,,,,,,,,,,
1.0,1.0,0.983155,0.0,17.0,17.0,17.0,1.0,pocketknife_12s.jpg,1.0,clockno_default.jpg,3.0,11,,,,,,,,,,,,,,,,,,,,,,,,,,,,,,,,
0.0,1.0,0.695715,0.0,18.0,18.0,18.0,1.0,gas_mask_11s.jpg,0.0,clockno_up.jpg,4.0,11,,,,,,,,,,,,,,,,,,,,,,,,,,,,,,,,
0.0,1.0,0.67382,0.0,19.0,19.0,19.0,1.0,polaroid_05s.jpg,0.0,clockno_default.jpg,4.0,11,,,,,,,,,,,,,,,,,,,,,,,,,,,,,,,,
0.0,1.0,0.64307,0.0,20.0,20.0,20.0,1.0,rocking_chair_05s.jpg,0.0,clockno_default.jpg,4.0,11,,,,,,,,,,,,,,,,,,,,,,,,,,,,,,,,
0.0,1.0,0.58906,0.0,21.0,21.0,21.0,1.0,pacifier_09s.jpg,0.0,clockno_default.jpg,4.0,11,,,,,,,,,,,,,,,,,,,,,,,,,,,,,,,,
0.0,1.0,0.628195,0.0,22.0,22.0,22.0,1.0,loom_05s.jpg,0.0,clockno_default.jpg,4.0,11,,,,,,,,,,,,,,,,,,,,,,,,,,,,,,,,
0.0,1.0,0.67056,0.0,23.0,23.0,23.0,1.0,bubble_01b.jpg,0.0,clockno_default.jpg,4.0,11,,,,,,,,,,,,,,,,,,,,,,,,,,,,,,,,
1.0,1.0,1.143585,0.0,24.0,24.0,24.0,1.0,rocking_chair_05s.jpg,1.0,clockno_default.jpg,4.0,11,,,,,,,,,,,,,,,,,,,,,,,,,,,,,,,,
0.0,1.0,0.660595,0.0,25.0,25.0,25.0,1.0,hydrant_10s.jpg,0.0,clockno_up.jpg,5.0,11,,,,,,,,,,,,,,,,,,,,,,,,,,,,,,,,
0.0,1.0,0.462035,0.0,26.0,26.0,26.0,1.0,oil_02s.jpg,0.0,clockno_default.jpg,5.0,11,,,,,,,,,,,,,,,,,,,,,,,,,,,,,,,,
0.0,1.0,0.470945,0.0,27.0,27.0,27.0,1.0,racehorse_03s.jpg,0.0,clockno_default.jpg,5.0,11,,,,,,,,,,,,,,,,,,,,,,,,,,,,,,,,
0.0,1.0,0.729345,0.0,28.0,28.0,28.0,1.0,mussel_11s.jpg,0.0,clockno_default.jpg,5.0,11,,,,,,,,,,,,,,,,,,,,,,,,,,,,,,,,
1.0,0.0,0.92766,0.0,29.0,29.0,29.0,1.0,raspberry_12s.jpg,0.0,clockno_default.jpg,5.0,11,,,,,,,,,,,,,,,,,,,,,,,,,,,,,,,,
0.0,1.0,0.629265,0.0,30.0,30.0,30.0,1.0,paper_bag_12s.jpg,0.0,clockno_up.jpg,6.0,11,,,,,,,,,,,,,,,,,,,,,,,,,,,,,,,,
0.0,1.0,0.49816,0.0,31.0,31.0,31.0,1.0,flask_04s.jpg,0.0,clockno_default.jpg,6.0,11,,,,,,,,,,,,,,,,,,,,,,,,,,,,,,,,
0.0,1.0,0.628475,0.0,32.0,32.0,32.0,1.0,triangle_10s.jpg,0.0,clockno_default.jpg,6.0,11,,,,,,,,,,,,,,,,,,,,,,,,,,,,,,,,
0.0,1.0,0.684645,0.0,33.0,33.0,33.0,1.0,sugar_cube_11s.jpg,0.0,clockno_default.jpg,6.0,11,,,,,,,,,,,,,,,,,,,,,,,,,,,,,,,,
0.0,1.0,0.78495,0.0,34.0,34.0,34.0,1.0,thread_08s.jpg,0.0,clockno_default.jpg,6.0,11,,,,,,,,,,,,,,,,,,,,,,,,,,,,,,,,
0.0,1.0,0.799935,0.0,35.0,35.0,35.0,1.0,kitten_07s.jpg,0.0,clockno_default.jpg,6.0,11,,,,,,,,,,,,,,,,,,,,,,,,,,,,,,,,
,,,,,,,,,0.0,,,11,1.0,0.0,2.44007,0.0,0.0,0.0,0.0,1.0,oil_02s.jpg,bubble_01b.jpg,,,,,,,,,,,,,,,,,,,,,,
,,,,,,,,,0.0,,,11,0.0,1.0,1.3077,0.0,1.0,1.0,1.0,1.0,gas_mask_11s.jpg,rosary_03s.jpg,,,,,,,,,,,,,,,,,,,,,,
,,,,,,,,,0.0,,,11,1.0,0.0,4.39862,0.0,2.0,2.0,2.0,1.0,paper_bag_12s.jpg,racehorse_03s.jpg,,,,,,,,,,,,,,,,,,,,,,
,,,,,,,,,0.0,,,11,0.0,1.0,2.162625,0.0,3.0,3.0,3.0,1.0,ticktacktoe_08s.jpg,crayon_09s.jpg,,,,,,,,,,,,,,,,,,,,,,
,,,,,,,,,0.0,,,11,0.0,1.0,4.144355,0.0,4.0,4.0,4.0,1.0,cucumber_07s.jpg,red_carpet_03s.jpg,,,,,,,,,,,,,,,,,,,,,,
,,,,,,,,,1.0,,,11,1.0,1.0,3.433295,0.0,5.0,5.0,5.0,1.0,triangle_10s.jpg,kitten_07s.jpg,,,,,,,,,,,,,,,,,,,,,,
,,,,,,,,,,,,11,,,,,,,,,,,0.0,3.0,3.0,3.0,1.0,clockno_present_4_2.xlsx,clockno_compare_task_4_2.xlsx,,,,,,,,,,,,,,,
0.0,1.0,0.9685,0.0,0.0,0.0,0.0,1.0,limousine_12s.jpg,0.0,clockno_up.jpg,1.0,11,,,,,,,,,,,,,,,,,,,,,,,,,,,,,,,,
0.0,1.0,0.531205,0.0,1.0,1.0,1.0,1.0,memory_stick_11s.jpg,0.0,clockno_default.jpg,1.0,11,,,,,,,,,,,,,,,,,,,,,,,,,,,,,,,,
1.0,1.0,0.583925,0.0,2.0,2.0,2.0,1.0,memory_stick_11s.jpg,1.0,clockno_default.jpg,1.0,11,,,,,,,,,,,,,,,,,,,,,,,,,,,,,,,,
1.0,1.0,0.837275,0.0,3.0,3.0,3.0,1.0,limousine_12s.jpg,1.0,clockno_default.jpg,1.0,11,,,,,,,,,,,,,,,,,,,,,,,,,,,,,,,,
0.0,1.0,0.73351,0.0,4.0,4.0,4.0,1.0,juicer1_08s.jpg,0.0,clockno_default.jpg,1.0,11,,,,,,,,,,,,,,,,,,,,,,,,,,,,,,,,
0.0,1.0,0.7362,0.0,5.0,5.0,5.0,1.0,lipstick_02s.jpg,0.0,clockno_default.jpg,1.0,11,,,,,,,,,,,,,,,,,,,,,,,,,,,,,,,,
0.0,1.0,0.59909,0.0,6.0,6.0,6.0,1.0,possum_09s.jpg,0.0,clockno_up.jpg,2.0,11,,,,,,,,,,,,,,,,,,,,,,,,,,,,,,,,
0.0,1.0,0.594935,0.0,7.0,7.0,7.0,1.0,mug_06s.jpg,0.0,clockno_default.jpg,2.0,11,,,,,,,,,,,,,,,,,,,,,,,,,,,,,,,,
0.0,1.0,0.51194,0.0,8.0,8.0,8.0,1.0,pepper2_21s.jpg,0.0,clockno_default.jpg,2.0,11,,,,,,,,,,,,,,,,,,,,,,,,,,,,,,,,
0.0,1.0,0.82964,0.0,9.0,9.0,9.0,1.0,lab_coat_11s.jpg,0.0,clockno_default.jpg,2.0,11,,,,,,,,,,,,,,,,,,,,,,,,,,,,,,,,
0.0,1.0,0.56899,0.0,10.0,10.0,10.0,1.0,tambourine_06s.jpg,0.0,clockno_default.jpg,2.0,11,,,,,,,,,,,,,,,,,,,,,,,,,,,,,,,,
0.0,1.0,0.83115,0.0,11.0,11.0,11.0,1.0,ostrich_06s.jpg,0.0,clockno_up.jpg,3.0,11,,,,,,,,,,,,,,,,,,,,,,,,,,,,,,,,
0.0,1.0,0.49696,0.0,12.0,12.0,12.0,1.0,incense_02s.jpg,0.0,clockno_default.jpg,3.0,11,,,,,,,,,,,,,,,,,,,,,,,,,,,,,,,,
0.0,1.0,0.59488,0.0,13.0,13.0,13.0,1.0,treasure_08s.jpg,0.0,clockno_default.jpg,3.0,11,,,,,,,,,,,,,,,,,,,,,,,,,,,,,,,,
0.0,1.0,0.38837,0.0,14.0,14.0,14.0,1.0,medal_04s.jpg,0.0,clockno_default.jpg,3.0,11,,,,,,,,,,,,,,,,,,,,,,,,,,,,,,,,
0.0,1.0,0.51148,0.0,15.0,15.0,15.0,1.0,pencil02a.jpg,0.0,clockno_default.jpg,3.0,11,,,,,,,,,,,,,,,,,,,,,,,,,,,,,,,,
0.0,1.0,0.759775,0.0,16.0,16.0,16.0,1.0,toothpaste_12s.jpg,0.0,clockno_default.jpg,3.0,11,,,,,,,,,,,,,,,,,,,,,,,,,,,,,,,,
0.0,1.0,0.855515,0.0,17.0,17.0,17.0,1.0,metronome_03s.jpg,0.0,clockno_default.jpg,3.0,11,,,,,,,,,,,,,,,,,,,,,,,,,,,,,,,,
0.0,1.0,0.642605,0.0,18.0,18.0,18.0,1.0,meatball_13s.jpg,0.0,clockno_up.jpg,4.0,11,,,,,,,,,,,,,,,,,,,,,,,,,,,,,,,,
0.0,1.0,0.51217,0.0,19.0,19.0,19.0,1.0,ink_08s.jpg,0.0,clockno_default.jpg,4.0,11,,,,,,,,,,,,,,,,,,,,,,,,,,,,,,,,
1.0,1.0,0.820395,0.0,20.0,20.0,20.0,1.0,meatball_13s.jpg,1.0,clockno_default.jpg,4.0,11,,,,,,,,,,,,,,,,,,,,,,,,,,,,,,,,
0.0,1.0,0.53093,0.0,21.0,21.0,21.0,1.0,lamb_04s.jpg,0.0,clockno_default.jpg,4.0,11,,,,,,,,,,,,,,,,,,,,,,,,,,,,,,,,
0.0,1.0,0.594135,0.0,22.0,22.0,22.0,1.0,teabag_12s.jpg,0.0,clockno_default.jpg,4.0,11,,,,,,,,,,,,,,,,,,,,,,,,,,,,,,,,
0.0,0.0,1.1525,0.0,23.0,23.0,23.0,1.0,ink_08s.jpg,1.0,clockno_default.jpg,4.0,11,,,,,,,,,,,,,,,,,,,,,,,,,,,,,,,,
0.0,1.0,0.693175,0.0,24.0,24.0,24.0,1.0,touchpad_11s.jpg,0.0,clockno_up.jpg,5.0,11,,,,,,,,,,,,,,,,,,,,,,,,,,,,,,,,
1.0,1.0,0.885545,0.0,25.0,25.0,25.0,1.0,touchpad_11s.jpg,1.0,clockno_default.jpg,5.0,11,,,,,,,,,,,,,,,,,,,,,,,,,,,,,,,,
0.0,1.0,0.55986,0.0,26.0,26.0,26.0,1.0,potpourri_03s.jpg,0.0,clockno_default.jpg,5.0,11,,,,,,,,,,,,,,,,,,,,,,,,,,,,,,,,
0.0,1.0,0.47502,0.0,27.0,27.0,27.0,1.0,knot_01b.jpg,0.0,clockno_default.jpg,5.0,11,,,,,,,,,,,,,,,,,,,,,,,,,,,,,,,,
0.0,1.0,0.857285,0.0,28.0,28.0,28.0,1.0,toothpaste_12s.jpg,0.0,clockno_default.jpg,5.0,11,,,,,,,,,,,,,,,,,,,,,,,,,,,,,,,,
1.0,1.0,0.79683,0.0,29.0,29.0,29.0,1.0,toothpaste_12s.jpg,1.0,clockno_default.jpg,5.0,11,,,,,,,,,,,,,,,,,,,,,,,,,,,,,,,,
0.0,0.0,1.183975,0.0,30.0,30.0,30.0,1.0,touchpad_11s.jpg,1.0,clockno_default.jpg,5.0,11,,,,,,,,,,,,,,,,,,,,,,,,,,,,,,,,
0.0,1.0,0.76407,0.0,31.0,31.0,31.0,1.0,reindeer_08s.jpg,0.0,clockno_up.jpg,6.0,11,,,,,,,,,,,,,,,,,,,,,,,,,,,,,,,,
1.0,1.0,0.63125,0.0,32.0,32.0,32.0,1.0,reindeer_08s.jpg,1.0,clockno_default.jpg,6.0,11,,,,,,,,,,,,,,,,,,,,,,,,,,,,,,,,
0.0,1.0,0.569395,0.0,33.0,33.0,33.0,1.0,popcorn_09s.jpg,0.0,clockno_default.jpg,6.0,11,,,,,,,,,,,,,,,,,,,,,,,,,,,,,,,,
1.0,1.0,0.655715,0.0,34.0,34.0,34.0,1.0,popcorn_09s.jpg,1.0,clockno_default.jpg,6.0,11,,,,,,,,,,,,,,,,,,,,,,,,,,,,,,,,
0.0,1.0,0.64821,0.0,35.0,35.0,35.0,1.0,lava_02s.jpg,0.0,clockno_default.jpg,6.0,11,,,,,,,,,,,,,,,,,,,,,,,,,,,,,,,,
,,,,,,,,,0.0,,,11,0.0,1.0,1.900135,0.0,0.0,0.0,0.0,1.0,pepper2_21s.jpg,lipstick_02s.jpg,,,,,,,,,,,,,,,,,,,,,,
,,,,,,,,,1.0,,,11,1.0,1.0,2.61949,0.0,1.0,1.0,1.0,1.0,juicer1_08s.jpg,mug_06s.jpg,,,,,,,,,,,,,,,,,,,,,,
,,,,,,,,,0.0,,,11,1.0,0.0,3.52434,0.0,2.0,2.0,2.0,1.0,treasure_08s.jpg,tambourine_06s.jpg,,,,,,,,,,,,,,,,,,,,,,
,,,,,,,,,1.0,,,11,0.0,0.0,2.68051,0.0,3.0,3.0,3.0,1.0,medal_04s.jpg,metronome_03s.jpg,,,,,,,,,,,,,,,,,,,,,,
,,,,,,,,,0.0,,,11,1.0,0.0,5.253465,0.0,4.0,4.0,4.0,1.0,lab_coat_11s.jpg,possum_09s.jpg,,,,,,,,,,,,,,,,,,,,,,
,,,,,,,,,0.0,,,11,0.0,1.0,3.084995,0.0,5.0,5.0,5.0,1.0,pencil02a.jpg,incense_02s.jpg,,,,,,,,,,,,,,,,,,,,,,
,,,,,,,,,,,,11,,,,,,,,,,,0.0,4.0,4.0,4.0,1.0,clockno_present_5_2.xlsx,clockno_compare_task_5_2.xlsx,,,,,,,,,,,,,,,
0.0,1.0,0.66898,0.0,0.0,0.0,0.0,1.0,spoon02a.jpg,0.0,clockno_up.jpg,1.0,11,,,,,,,,,,,,,,,,,,,,,,,,,,,,,,,,
0.0,1.0,0.51672,0.0,1.0,1.0,1.0,1.0,target_11s.jpg,0.0,clockno_default.jpg,1.0,11,,,,,,,,,,,,,,,,,,,,,,,,,,,,,,,,
0.0,1.0,0.4982,0.0,2.0,2.0,2.0,1.0,piano_13n.jpg,0.0,clockno_default.jpg,1.0,11,,,,,,,,,,,,,,,,,,,,,,,,,,,,,,,,
0.0,1.0,0.447075,0.0,3.0,3.0,3.0,1.0,pea_11s.jpg,0.0,clockno_default.jpg,1.0,11,,,,,,,,,,,,,,,,,,,,,,,,,,,,,,,,
0.0,1.0,0.641165,0.0,4.0,4.0,4.0,1.0,peanut_butter_08s.jpg,0.0,clockno_default.jpg,1.0,11,,,,,,,,,,,,,,,,,,,,,,,,,,,,,,,,
0.0,1.0,0.842905,0.0,5.0,5.0,5.0,1.0,icicle_04s.jpg,0.0,clockno_default.jpg,1.0,11,,,,,,,,,,,,,,,,,,,,,,,,,,,,,,,,
0.0,1.0,0.86495,0.0,6.0,6.0,6.0,1.0,teapot_03s.jpg,0.0,clockno_default.jpg,1.0,11,,,,,,,,,,,,,,,,,,,,,,,,,,,,,,,,
0.0,1.0,0.909065,0.0,7.0,7.0,7.0,1.0,laser_pointer_02s.jpg,0.0,clockno_up.jpg,2.0,11,,,,,,,,,,,,,,,,,,,,,,,,,,,,,,,,
1.0,1.0,0.71153,0.0,8.0,8.0,8.0,1.0,laser_pointer_02s.jpg,1.0,clockno_default.jpg,2.0,11,,,,,,,,,,,,,,,,,,,,,,,,,,,,,,,,
0.0,1.0,0.525895,0.0,9.0,9.0,9.0,1.0,top_hat_11s.jpg,0.0,clockno_default.jpg,2.0,11,,,,,,,,,,,,,,,,,,,,,,,,,,,,,,,,
0.0,1.0,0.578985,0.0,10.0,10.0,10.0,1.0,playpen_11s.jpg,0.0,clockno_default.jpg,2.0,11,,,,,,,,,,,,,,,,,,,,,,,,,,,,,,,,
0.0,1.0,0.594525,0.0,11.0,11.0,11.0,1.0,ironing_board_07s.jpg,0.0,clockno_default.jpg,2.0,11,,,,,,,,,,,,,,,,,,,,,,,,,,,,,,,,
0.0,1.0,0.65835,0.0,12.0,12.0,12.0,1.0,icemaker_10s.jpg,0.0,clockno_default.jpg,2.0,11,,,,,,,,,,,,,,,,,,,,,,,,,,,,,,,,
0.0,1.0,0.842615,0.0,13.0,13.0,13.0,1.0,espresso_01b.jpg,0.0,clockno_default.jpg,2.0,11,,,,,,,,,,,,,,,,,,,,,,,,,,,,,,,,
0.0,1.0,0.809735,0.0,14.0,14.0,14.0,1.0,penguin_16s.jpg,0.0,clockno_up.jpg,3.0,11,,,,,,,,,,,,,,,,,,,,,,,,,,,,,,,,
1.0,1.0,0.748935,0.0,15.0,15.0,15.0,1.0,penguin_16s.jpg,1.0,clockno_default.jpg,3.0,11,,,,,,,,,,,,,,,,,,,,,,,,,,,,,,,,
0.0,1.0,0.75005,0.0,16.0,16.0,16.0,1.0,inhaler_01b.jpg,0.0,clockno_default.jpg,3.0,11,,,,,,,,,,,,,,,,,,,,,,,,,,,,,,,,
0.0,1.0,0.679245,0.0,17.0,17.0,17.0,1.0,road_sign_05s.jpg,0.0,clockno_default.jpg,3.0,11,,,,,,,,,,,,,,,,,,,,,,,,,,,,,,,,
0.0,1.0,0.95411,0.0,18.0,18.0,18.0,1.0,radio_09s.jpg,0.0,clockno_default.jpg,3.0,11,,,,,,,,,,,,,,,,,,,,,,,,,,,,,,,,
0.0,1.0,0.882815,0.0,19.0,19.0,19.0,1.0,telephone_pole_05s.jpg,0.0,clockno_up.jpg,4.0,11,,,,,,,,,,,,,,,,,,,,,,,,,,,,,,,,
1.0,1.0,0.784525,0.0,20.0,20.0,20.0,1.0,telephone_pole_05s.jpg,1.0,clockno_default.jpg,4.0,11,,,,,,,,,,,,,,,,,,,,,,,,,,,,,,,,
0.0,1.0,0.82578,0.0,21.0,21.0,21.0,1.0,lasagna_06s.jpg,0.0,clockno_default.jpg,4.0,11,,,,,,,,,,,,,,,,,,,,,,,,,,,,,,,,
0.0,1.0,0.763015,0.0,22.0,22.0,22.0,1.0,coconut_08s.jpg,0.0,clockno_default.jpg,4.0,11,,,,,,,,,,,,,,,,,,,,,,,,,,,,,,,,
1.0,1.0,1.310075,0.0,23.0,23.0,23.0,1.0,telephone_pole_05s.jpg,1.0,clockno_default.jpg,4.0,11,,,,,,,,,,,,,,,,,,,,,,,,,,,,,,,,
0.0,1.0,0.82944,0.0,24.0,24.0,24.0,1.0,rug_09s.jpg,0.0,clockno_default.jpg,4.0,11,,,,,,,,,,,,,,,,,,,,,,,,,,,,,,,,
0.0,1.0,1.074945,0.0,25.0,25.0,25.0,1.0,phone_01b.jpg,0.0,clockno_up.jpg,5.0,11,,,,,,,,,,,,,,,,,,,,,,,,,,,,,,,,
0.0,1.0,0.535705,0.0,26.0,26.0,26.0,1.0,tuba_12s.jpg,0.0,clockno_default.jpg,5.0,11,,,,,,,,,,,,,,,,,,,,,,,,,,,,,,,,
1.0,1.0,0.93045,0.0,27.0,27.0,27.0,1.0,tuba_12s.jpg,1.0,clockno_default.jpg,5.0,11,,,,,,,,,,,,,,,,,,,,,,,,,,,,,,,,
0.0,1.0,0.450945,0.0,28.0,28.0,28.0,1.0,radio_09s.jpg,0.0,clockno_default.jpg,5.0,11,,,,,,,,,,,,,,,,,,,,,,,,,,,,,,,,
0.0,1.0,0.627815,0.0,29.0,29.0,29.0,1.0,owl_15s.jpg,0.0,clockno_default.jpg,5.0,11,,,,,,,,,,,,,,,,,,,,,,,,,,,,,,,,
0.0,1.0,0.685605,0.0,30.0,30.0,30.0,1.0,ravioli_08s.jpg,0.0,clockno_default.jpg,5.0,11,,,,,,,,,,,,,,,,,,,,,,,,,,,,,,,,
0.0,1.0,0.959315,0.0,31.0,31.0,31.0,1.0,rabbit_03s.jpg,0.0,clockno_up.jpg,6.0,11,,,,,,,,,,,,,,,,,,,,,,,,,,,,,,,,
0.0,1.0,0.99887,0.0,32.0,32.0,32.0,1.0,teapot_03s.jpg,0.0,clockno_default.jpg,6.0,11,,,,,,,,,,,,,,,,,,,,,,,,,,,,,,,,
0.0,1.0,0.541945,0.0,33.0,33.0,33.0,1.0,comic_book_02s.jpg,0.0,clockno_default.jpg,6.0,11,,,,,,,,,,,,,,,,,,,,,,,,,,,,,,,,
0.0,1.0,0.48405,0.0,34.0,34.0,34.0,1.0,spatula04.jpg,0.0,clockno_default.jpg,6.0,11,,,,,,,,,,,,,,,,,,,,,,,,,,,,,,,,
0.0,1.0,0.63656,0.0,35.0,35.0,35.0,1.0,mixer_12s.jpg,0.0,clockno_default.jpg,6.0,11,,,,,,,,,,,,,,,,,,,,,,,,,,,,,,,,
,,,,,,,,,0.0,,,11,1.0,0.0,13.645105,0.0,0.0,0.0,0.0,1.0,phone_01b.jpg,coconut_08s.jpg,,,,,,,,,,,,,,,,,,,,,,
,,,,,,,,,0.0,,,11,1.0,0.0,4.66209,0.0,1.0,1.0,1.0,1.0,comic_book_02s.jpg,ravioli_08s.jpg,,,,,,,,,,,,,,,,,,,,,,
,,,,,,,,,1.0,,,11,0.0,0.0,2.17697,0.0,2.0,2.0,2.0,1.0,espresso_01b.jpg,inhaler_01b.jpg,,,,,,,,,,,,,,,,,,,,,,
,,,,,,,,,0.0,,,11,1.0,0.0,1.81529,0.0,3.0,3.0,3.0,1.0,pea_11s.jpg,spoon02a.jpg,,,,,,,,,,,,,,,,,,,,,,
,,,,,,,,,0.0,,,11,0.0,1.0,2.07911,0.0,4.0,4.0,4.0,1.0,peanut_butter_08s.jpg,target_11s.jpg,,,,,,,,,,,,,,,,,,,,,,
,,,,,,,,,1.0,,,11,0.0,0.0,1.59674,0.0,5.0,5.0,5.0,1.0,piano_13n.jpg,icicle_04s.jpg,,,,,,,,,,,,,,,,,,,,,,
0.0,1.0,0.952515,,,,,,boomerang_06s.jpg,0.0,clock_6_1.png,1.0,11,,,,,,,,,,,,,,,,,,0.0,0.0,0.0,0.0,1.0,,,,,,,,,,
0.0,1.0,0.58815,,,,,,eiffeltower.jpg,0.0,clock_6_2.png,1.0,11,,,,,,,,,,,,,,,,,,0.0,1.0,1.0,1.0,1.0,,,,,,,,,,
0.0,1.0,0.39968,,,,,,bolo_tie_08s.jpg,0.0,clock_6_3.png,1.0,11,,,,,,,,,,,,,,,,,,0.0,2.0,2.0,2.0,1.0,,,,,,,,,,
0.0,1.0,0.455625,,,,,,pear_02s.jpg,0.0,clock_6_4.png,1.0,11,,,,,,,,,,,,,,,,,,0.0,3.0,3.0,3.0,1.0,,,,,,,,,,
0.0,1.0,0.558975,,,,,,lectern_08s.jpg,0.0,clock_6_5.png,1.0,11,,,,,,,,,,,,,,,,,,0.0,4.0,4.0,4.0,1.0,,,,,,,,,,
1.0,1.0,0.95799,,,,,,bolo_tie_08s.jpg,1.0,clock_6_6.png,1.0,11,,,,,,,,,,,,,,,,,,0.0,5.0,5.0,5.0,1.0,,,,,,,,,,
0.0,1.0,0.743855,,,,,,beard_16s.jpg,0.0,clock_7_1.png,2.0,11,,,,,,,,,,,,,,,,,,0.0,6.0,6.0,6.0,1.0,,,,,,,,,,
0.0,1.0,0.71363,,,,,,stethoscope_01b.jpg,0.0,clock_7_2.png,2.0,11,,,,,,,,,,,,,,,,,,0.0,7.0,7.0,7.0,1.0,,,,,,,,,,
0.0,1.0,0.606775,,,,,,safety_pin_02s.jpg,0.0,clock_7_3.png,2.0,11,,,,,,,,,,,,,,,,,,0.0,8.0,8.0,8.0,1.0,,,,,,,,,,
0.0,1.0,0.715145,,,,,,milk_02s.jpg,0.0,clock_7_4.png,2.0,11,,,,,,,,,,,,,,,,,,0.0,9.0,9.0,9.0,1.0,,,,,,,,,,
0.0,1.0,0.621095,,,,,,machine_gun_09s.jpg,0.0,clock_7_5.png,2.0,11,,,,,,,,,,,,,,,,,,0.0,10.0,10.0,10.0,1.0,,,,,,,,,,
0.0,1.0,0.639185,,,,,,trampoline_13s.jpg,0.0,clock_7_6.png,2.0,11,,,,,,,,,,,,,,,,,,0.0,11.0,11.0,11.0,1.0,,,,,,,,,,
0.0,1.0,0.645745,,,,,,mitten_10s.jpg,0.0,clock_7_7.png,2.0,11,,,,,,,,,,,,,,,,,,0.0,12.0,12.0,12.0,1.0,,,,,,,,,,
0.0,1.0,0.67338,,,,,,ice-cream_cone_06s.jpg,0.0,clock_5_1.png,3.0,11,,,,,,,,,,,,,,,,,,0.0,13.0,13.0,13.0,1.0,,,,,,,,,,
0.0,1.0,0.64652,,,,,,mango_09s.jpg,0.0,clock_5_2.png,3.0,11,,,,,,,,,,,,,,,,,,0.0,14.0,14.0,14.0,1.0,,,,,,,,,,
1.0,1.0,0.773395,,,,,,mango_09s.jpg,1.0,clock_5_3.png,3.0,11,,,,,,,,,,,,,,,,,,0.0,15.0,15.0,15.0,1.0,,,,,,,,,,
0.0,1.0,0.639275,,,,,,compass_10n.jpg,0.0,clock_5_4.png,3.0,11,,,,,,,,,,,,,,,,,,0.0,16.0,16.0,16.0,1.0,,,,,,,,,,
0.0,1.0,0.7214,,,,,,tennis_ball_06s.jpg,0.0,clock_5_5.png,3.0,11,,,,,,,,,,,,,,,,,,0.0,17.0,17.0,17.0,1.0,,,,,,,,,,
0.0,1.0,0.58099,,,,,,fork_04s.jpg,0.0,clock_7_1.png,4.0,11,,,,,,,,,,,,,,,,,,0.0,18.0,18.0,18.0,1.0,,,,,,,,,,
0.0,1.0,0.56687,,,,,,timer_03s.jpg,0.0,clock_7_2.png,4.0,11,,,,,,,,,,,,,,,,,,0.0,19.0,19.0,19.0,1.0,,,,,,,,,,
0.0,1.0,0.517195,,,,,,submarine_11n.jpg,0.0,clock_7_3.png,4.0,11,,,,,,,,,,,,,,,,,,0.0,20.0,20.0,20.0,1.0,,,,,,,,,,
0.0,1.0,0.644395,,,,,,fishhook_06s.jpg,0.0,clock_7_4.png,4.0,11,,,,,,,,,,,,,,,,,,0.0,21.0,21.0,21.0,1.0,,,,,,,,,,
0.0,1.0,0.47586,,,,,,tuxedo_01b.jpg,0.0,clock_7_5.png,4.0,11,,,,,,,,,,,,,,,,,,0.0,22.0,22.0,22.0,1.0,,,,,,,,,,
0.0,1.0,0.575515,,,,,,foam_03s.jpg,0.0,clock_7_6.png,4.0,11,,,,,,,,,,,,,,,,,,0.0,23.0,23.0,23.0,1.0,,,,,,,,,,
0.0,1.0,0.59597,,,,,,turf_03s.jpg,0.0,clock_7_7.png,4.0,11,,,,,,,,,,,,,,,,,,0.0,24.0,24.0,24.0,1.0,,,,,,,,,,
0.0,1.0,0.613645,,,,,,pie_08s.jpg,0.0,clock_5_1.png,5.0,11,,,,,,,,,,,,,,,,,,0.0,25.0,25.0,25.0,1.0,,,,,,,,,,
0.0,1.0,0.41894,,,,,,joystick_01b.jpg,0.0,clock_5_2.png,5.0,11,,,,,,,,,,,,,,,,,,0.0,26.0,26.0,26.0,1.0,,,,,,,,,,
0.0,0.0,0.812665,,,,,,pie_08s.jpg,1.0,clock_5_3.png,5.0,11,,,,,,,,,,,,,,,,,,0.0,27.0,27.0,27.0,1.0,,,,,,,,,,
1.0,1.0,0.91325,,,,,,joystick_01b.jpg,1.0,clock_5_4.png,5.0,11,,,,,,,,,,,,,,,,,,0.0,28.0,28.0,28.0,1.0,,,,,,,,,,
0.0,1.0,0.581565,,,,,,ukulele_02s.jpg,0.0,clock_5_5.png,5.0,11,,,,,,,,,,,,,,,,,,0.0,29.0,29.0,29.0,1.0,,,,,,,,,,
0.0,1.0,0.711415,,,,,,lizard_10n.jpg,0.0,clock_6_1.png,6.0,11,,,,,,,,,,,,,,,,,,0.0,30.0,30.0,30.0,1.0,,,,,,,,,,
0.0,1.0,0.62789,,,,,,glasses01a.jpg,0.0,clock_6_2.png,6.0,11,,,,,,,,,,,,,,,,,,0.0,31.0,31.0,31.0,1.0,,,,,,,,,,
1.0,1.0,0.65859,,,,,,glasses01a.jpg,1.0,clock_6_3.png,6.0,11,,,,,,,,,,,,,,,,,,0.0,32.0,32.0,32.0,1.0,,,,,,,,,,
0.0,1.0,0.802555,,,,,,feather02.jpg,0.0,clock_6_4.png,6.0,11,,,,,,,,,,,,,,,,,,0.0,33.0,33.0,33.0,1.0,,,,,,,,,,
0.0,1.0,0.632715,,,,,,mascara_03s.jpg,0.0,clock_6_5.png,6.0,11,,,,,,,,,,,,,,,,,,0.0,34.0,34.0,34.0,1.0,,,,,,,,,,
0.0,1.0,0.62011,,,,,,margarita_03s.jpg,0.0,clock_6_6.png,6.0,11,,,,,,,,,,,,,,,,,,0.0,35.0,35.0,35.0,1.0,,,,,,,,,,
,,,,,,,,,0.0,,,11,1.0,0.0,20.80089,,,,,,submarine_11n.jpg,tennis_ball_06s.jpg,,,,,,,,,,,,,0.0,0.0,0.0,0.0,1.0,,,,,
,,,,,,,,,1.0,,,11,0.0,0.0,7.81289,,,,,,pear_02s.jpg,beard_16s.jpg,,,,,,,,,,,,,0.0,1.0,1.0,1.0,1.0,,,,,
,,,,,,,,,0.0,,,11,0.0,1.0,7.737775,,,,,,stethoscope_01b.jpg,lectern_08s.jpg,,,,,,,,,,,,,0.0,2.0,2.0,2.0,1.0,,,,,
,,,,,,,,,1.0,,,11,1.0,1.0,9.39798,,,,,,safety_pin_02s.jpg,trampoline_13s.jpg,,,,,,,,,,,,,0.0,3.0,3.0,3.0,1.0,,,,,
,,,,,,,,,1.0,,,11,0.0,0.0,3.101395,,,,,,milk_02s.jpg,mitten_10s.jpg,,,,,,,,,,,,,0.0,4.0,4.0,4.0,1.0,,,,,
,,,,,,,,,0.0,,,11,1.0,0.0,9.00121,,,,,,fishhook_06s.jpg,fork_04s.jpg,,,,,,,,,,,,,0.0,5.0,5.0,5.0,1.0,,,,,
,,,,,,,,,,,,11,,,,,,,,,,,,,,,,clock_present_1_2.xlsx,clock_compare_task_1_2.xlsx,,,,,,,,,,,0.0,0.0,0.0,0.0,1.0
0.0,1.0,1.04305,,,,,,butter_14s.jpg,0.0,clock_5_1.png,1.0,11,,,,,,,,,,,,,,,,,,0.0,0.0,0.0,0.0,1.0,,,,,,,,,,
0.0,1.0,0.58711,,,,,,pineapple_12s.jpg,0.0,clock_5_2.png,1.0,11,,,,,,,,,,,,,,,,,,0.0,1.0,1.0,1.0,1.0,,,,,,,,,,
0.0,0.0,0.717295,,,,,,pineapple_12s.jpg,1.0,clock_5_3.png,1.0,11,,,,,,,,,,,,,,,,,,0.0,2.0,2.0,2.0,1.0,,,,,,,,,,
0.0,1.0,0.6102,,,,,,champagne_18s.jpg,0.0,clock_5_4.png,1.0,11,,,,,,,,,,,,,,,,,,0.0,3.0,3.0,3.0,1.0,,,,,,,,,,
0.0,1.0,0.670215,,,,,,funnel_01b.jpg,0.0,clock_5_5.png,1.0,11,,,,,,,,,,,,,,,,,,0.0,4.0,4.0,4.0,1.0,,,,,,,,,,
0.0,1.0,0.637885,,,,,,raft_09s.jpg,0.0,clock_6_1.png,2.0,11,,,,,,,,,,,,,,,,,,0.0,5.0,5.0,5.0,1.0,,,,,,,,,,
0.0,1.0,0.6205,,,,,,jalapeno_15s.jpg,0.0,clock_6_2.png,2.0,11,,,,,,,,,,,,,,,,,,0.0,6.0,6.0,6.0,1.0,,,,,,,,,,
1.0,1.0,1.0938,,,,,,raft_09s.jpg,1.0,clock_6_3.png,2.0,11,,,,,,,,,,,,,,,,,,0.0,7.0,7.0,7.0,1.0,,,,,,,,,,
0.0,1.0,0.769155,,,,,,tortilla_06s.jpg,0.0,clock_6_4.png,2.0,11,,,,,,,,,,,,,,,,,,0.0,8.0,8.0,8.0,1.0,,,,,,,,,,
0.0,1.0,0.88528,,,,,,syringe_02s.jpg,0.0,clock_6_5.png,2.0,11,,,,,,,,,,,,,,,,,,0.0,9.0,9.0,9.0,1.0,,,,,,,,,,
0.0,1.0,0.65947,,,,,,moth_06n.jpg,0.0,clock_6_6.png,2.0,11,,,,,,,,,,,,,,,,,,0.0,10.0,10.0,10.0,1.0,,,,,,,,,,
0.0,1.0,0.626085,,,,,,radiator_05s.jpg,0.0,clock_7_1.png,3.0,11,,,,,,,,,,,,,,,,,,0.0,11.0,11.0,11.0,1.0,,,,,,,,,,
0.0,1.0,0.530925,,,,,,eggshell_14s.jpg,0.0,clock_7_2.png,3.0,11,,,,,,,,,,,,,,,,,,0.0,12.0,12.0,12.0,1.0,,,,,,,,,,
0.0,1.0,0.92746,,,,,,syringe_02s.jpg,0.0,clock_7_3.png,3.0,11,,,,,,,,,,,,,,,,,,0.0,13.0,13.0,13.0,1.0,,,,,,,,,,
0.0,1.0,0.637315,,,,,,mousetrap_15n.jpg,0.0,clock_7_4.png,3.0,11,,,,,,,,,,,,,,,,,,0.0,14.0,14.0,14.0,1.0,,,,,,,,,,
0.0,1.0,0.6297,,,,,,machete_06s.jpg,0.0,clock_7_5.png,3.0,11,,,,,,,,,,,,,,,,,,0.0,15.0,15.0,15.0,1.0,,,,,,,,,,
1.0,1.0,0.868815,,,,,,machete_06s.jpg,1.0,clock_7_6.png,3.0,11,,,,,,,,,,,,,,,,,,0.0,16.0,16.0,16.0,1.0,,,,,,,,,,
1.0,1.0,1.415095,,,,,,eggshell_14s.jpg,1.0,clock_7_7.png,3.0,11,,,,,,,,,,,,,,,,,,0.0,17.0,17.0,17.0,1.0,,,,,,,,,,
0.0,1.0,0.80826,,,,,,kettle_08s.jpg,0.0,clock_5_1.png,4.0,11,,,,,,,,,,,,,,,,,,0.0,18.0,18.0,18.0,1.0,,,,,,,,,,
0.0,1.0,0.42585,,,,,,soccer_ball_12s.jpg,0.0,clock_5_2.png,4.0,11,,,,,,,,,,,,,,,,,,0.0,19.0,19.0,19.0,1.0,,,,,,,,,,
0.0,1.0,0.609675,,,,,,snowman_02s.jpg,0.0,clock_5_3.png,4.0,11,,,,,,,,,,,,,,,,,,0.0,20.0,20.0,20.0,1.0,,,,,,,,,,
0.0,1.0,0.56286,,,,,,magnet_03s.jpg,0.0,clock_5_4.png,4.0,11,,,,,,,,,,,,,,,,,,0.0,21.0,21.0,21.0,1.0,,,,,,,,,,
0.0,1.0,0.645605,,,,,,surfboard_11s.jpg,0.0,clock_5_5.png,4.0,11,,,,,,,,,,,,,,,,,,0.0,22.0,22.0,22.0,1.0,,,,,,,,,,
0.0,1.0,0.579645,,,,,,birthday_cake_09s.jpg,0.0,clock_6_1.png,5.0,11,,,,,,,,,,,,,,,,,,0.0,23.0,23.0,23.0,1.0,,,,,,,,,,
0.0,1.0,0.52658,,,,,,rocket_02s.jpg,0.0,clock_6_2.png,5.0,11,,,,,,,,,,,,,,,,,,0.0,24.0,24.0,24.0,1.0,,,,,,,,,,
0.0,1.0,0.43196,,,,,,crystal_ball_12s.jpg,0.0,clock_6_3.png,5.0,11,,,,,,,,,,,,,,,,,,0.0,25.0,25.0,25.0,1.0,,,,,,,,,,
0.0,1.0,0.497175,,,,,,quilt_03s.jpg,0.0,clock_6_4.png,5.0,11,,,,,,,,,,,,,,,,,,0.0,26.0,26.0,26.0,1.0,,,,,,,,,,
0.0,1.0,0.703435,,,,,,tinsel_12s.jpg,0.0,clock_6_5.png,5.0,11,,,,,,,,,,,,,,,,,,0.0,27.0,27.0,27.0,1.0,,,,,,,,,,
0.0,1.0,0.76212,,,,,,fire_pit_10s.jpg,0.0,clock_6_6.png,5.0,11,,,,,,,,,,,,,,,,,,0.0,28.0,28.0,28.0,1.0,,,,,,,,,,
0.0,1.0,0.65884,,,,,,puppet_01b.jpg,0.0,clock_7_1.png,6.0,11,,,,,,,,,,,,,,,,,,0.0,29.0,29.0,29.0,1.0,,,,,,,,,,
1.0,1.0,0.69372,,,,,,puppet_01b.jpg,1.0,clock_7_2.png,6.0,11,,,,,,,,,,,,,,,,,,0.0,30.0,30.0,30.0,1.0,,,,,,,,,,
0.0,1.0,0.49935,,,,,,slingshot_07s.jpg,0.0,clock_7_3.png,6.0,11,,,,,,,,,,,,,,,,,,0.0,31.0,31.0,31.0,1.0,,,,,,,,,,
0.0,1.0,0.49236,,,,,,thumbtack_14s.jpg,0.0,clock_7_4.png,6.0,11,,,,,,,,,,,,,,,,,,0.0,32.0,32.0,32.0,1.0,,,,,,,,,,
0.0,1.0,0.61802,,,,,,pantyhose_07s.jpg,0.0,clock_7_5.png,6.0,11,,,,,,,,,,,,,,,,,,0.0,33.0,33.0,33.0,1.0,,,,,,,,,,
0.0,1.0,0.812805,,,,,,moth_06n.jpg,0.0,clock_7_6.png,6.0,11,,,,,,,,,,,,,,,,,,0.0,34.0,34.0,34.0,1.0,,,,,,,,,,
0.0,1.0,0.776525,,,,,,thorn_13s.jpg,0.0,clock_7_7.png,6.0,11,,,,,,,,,,,,,,,,,,0.0,35.0,35.0,35.0,1.0,,,,,,,,,,
,,,,,,,,,0.0,,,11,0.0,1.0,22.14275,,,,,,jalapeno_15s.jpg,champagne_18s.jpg,,,,,,,,,,,,,0.0,0.0,0.0,0.0,1.0,,,,,
,,,,,,,,,1.0,,,11,1.0,1.0,10.134045,,,,,,tortilla_06s.jpg,radiator_05s.jpg,,,,,,,,,,,,,0.0,1.0,1.0,1.0,1.0,,,,,
,,,,,,,,,1.0,,,11,1.0,1.0,3.030685,,,,,,snowman_02s.jpg,birthday_cake_09s.jpg,,,,,,,,,,,,,0.0,2.0,2.0,2.0,1.0,,,,,
,,,,,,,,,1.0,,,11,1.0,1.0,19.83319,,,,,,thumbtack_14s.jpg,thorn_13s.jpg,,,,,,,,,,,,,0.0,3.0,3.0,3.0,1.0,,,,,
,,,,,,,,,0.0,,,11,1.0,0.0,3.06138,,,,,,magnet_03s.jpg,kettle_08s.jpg,,,,,,,,,,,,,0.0,4.0,4.0,4.0,1.0,,,,,
,,,,,,,,,1.0,,,11,1.0,1.0,20.95562,,,,,,soccer_ball_12s.jpg,surfboard_11s.jpg,,,,,,,,,,,,,0.0,5.0,5.0,5.0,1.0,,,,,
,,,,,,,,,,,,11,,,,,,,,,,,,,,,,clock_present_2_2.xlsx,clock_compare_task_2_2.xlsx,,,,,,,,,,,0.0,1.0,1.0,1.0,1.0
0.0,1.0,1.06834,,,,,,latch_15s.jpg,0.0,clock_6_1.png,1.0,11,,,,,,,,,,,,,,,,,,0.0,0.0,0.0,0.0,1.0,,,,,,,,,,
0.0,1.0,0.585505,,,,,,ladder_15s.jpg,0.0,clock_6_2.png,1.0,11,,,,,,,,,,,,,,,,,,0.0,1.0,1.0,1.0,1.0,,,,,,,,,,
0.0,1.0,0.710945,,,,,,duck_01b.jpg,0.0,clock_6_3.png,1.0,11,,,,,,,,,,,,,,,,,,0.0,2.0,2.0,2.0,1.0,,,,,,,,,,
1.0,1.0,0.76316,,,,,,duck_01b.jpg,1.0,clock_6_4.png,1.0,11,,,,,,,,,,,,,,,,,,0.0,3.0,3.0,3.0,1.0,,,,,,,,,,
0.0,1.0,0.58352,,,,,,cape_11s.jpg,0.0,clock_6_5.png,1.0,11,,,,,,,,,,,,,,,,,,0.0,4.0,4.0,4.0,1.0,,,,,,,,,,
1.0,1.0,0.75018,,,,,,duck_01b.jpg,1.0,clock_6_6.png,1.0,11,,,,,,,,,,,,,,,,,,0.0,5.0,5.0,5.0,1.0,,,,,,,,,,
0.0,1.0,0.52352,,,,,,tomato_sauce_09s.jpg,0.0,clock_6_1.png,2.0,11,,,,,,,,,,,,,,,,,,0.0,6.0,6.0,6.0,1.0,,,,,,,,,,
0.0,1.0,0.509795,,,,,,spacesuit_02s.jpg,0.0,clock_6_2.png,2.0,11,,,,,,,,,,,,,,,,,,0.0,7.0,7.0,7.0,1.0,,,,,,,,,,
1.0,1.0,0.678175,,,,,,spacesuit_02s.jpg,1.0,clock_6_3.png,2.0,11,,,,,,,,,,,,,,,,,,0.0,8.0,8.0,8.0,1.0,,,,,,,,,,
0.0,1.0,0.629315,,,,,,bagel_15s.jpg,0.0,clock_6_4.png,2.0,11,,,,,,,,,,,,,,,,,,0.0,9.0,9.0,9.0,1.0,,,,,,,,,,
1.0,1.0,1.264285,,,,,,tomato_sauce_09s.jpg,1.0,clock_6_5.png,2.0,11,,,,,,,,,,,,,,,,,,0.0,10.0,10.0,10.0,1.0,,,,,,,,,,
1.0,1.0,0.944995,,,,,,spacesuit_02s.jpg,1.0,clock_6_6.png,2.0,11,,,,,,,,,,,,,,,,,,0.0,11.0,11.0,11.0,1.0,,,,,,,,,,
0.0,1.0,0.67803,,,,,,treadmill_06s.jpg,0.0,clock_7_1.png,3.0,11,,,,,,,,,,,,,,,,,,0.0,12.0,12.0,12.0,1.0,,,,,,,,,,
0.0,1.0,0.742935,,,,,,blowfish_03s.jpg,0.0,clock_7_2.png,3.0,11,,,,,,,,,,,,,,,,,,0.0,13.0,13.0,13.0,1.0,,,,,,,,,,
0.0,1.0,0.66032,,,,,,fox_13s.jpg,0.0,clock_7_3.png,3.0,11,,,,,,,,,,,,,,,,,,0.0,14.0,14.0,14.0,1.0,,,,,,,,,,
0.0,1.0,0.568485,,,,,,tongs_08s.jpg,0.0,clock_7_4.png,3.0,11,,,,,,,,,,,,,,,,,,0.0,15.0,15.0,15.0,1.0,,,,,,,,,,
0.0,1.0,0.65986,,,,,,tape_06s.jpg,0.0,clock_7_5.png,3.0,11,,,,,,,,,,,,,,,,,,0.0,16.0,16.0,16.0,1.0,,,,,,,,,,
0.0,1.0,0.626945,,,,,,quad_04s.jpg,0.0,clock_7_6.png,3.0,11,,,,,,,,,,,,,,,,,,0.0,17.0,17.0,17.0,1.0,,,,,,,,,,
0.0,1.0,0.72677,,,,,,pillbox_04s.jpg,0.0,clock_7_7.png,3.0,11,,,,,,,,,,,,,,,,,,0.0,18.0,18.0,18.0,1.0,,,,,,,,,,
0.0,1.0,0.75332,,,,,,perfume_06s.jpg,0.0,clock_5_1.png,4.0,11,,,,,,,,,,,,,,,,,,0.0,19.0,19.0,19.0,1.0,,,,,,,,,,
0.0,1.0,0.8866,,,,,,tomato_sauce_09s.jpg,0.0,clock_5_2.png,4.0,11,,,,,,,,,,,,,,,,,,0.0,20.0,20.0,20.0,1.0,,,,,,,,,,
0.0,1.0,0.65956,,,,,,trumpet_06s.jpg,0.0,clock_5_3.png,4.0,11,,,,,,,,,,,,,,,,,,0.0,21.0,21.0,21.0,1.0,,,,,,,,,,
0.0,0.0,0.51558,,,,,,perfume_06s.jpg,1.0,clock_5_4.png,4.0,11,,,,,,,,,,,,,,,,,,0.0,22.0,22.0,22.0,1.0,,,,,,,,,,
0.0,1.0,0.67416,,,,,,blazer_02s.jpg,0.0,clock_5_5.png,4.0,11,,,,,,,,,,,,,,,,,,0.0,23.0,23.0,23.0,1.0,,,,,,,,,,
0.0,1.0,0.594635,,,,,,bean_06s.jpg,0.0,clock_7_1.png,5.0,11,,,,,,,,,,,,,,,,,,0.0,24.0,24.0,24.0,1.0,,,,,,,,,,
1.0,1.0,0.89154,,,,,,bean_06s.jpg,1.0,clock_7_2.png,5.0,11,,,,,,,,,,,,,,,,,,0.0,25.0,25.0,25.0,1.0,,,,,,,,,,
0.0,1.0,0.74542,,,,,,bonsai_07s.jpg,0.0,clock_7_3.png,5.0,11,,,,,,,,,,,,,,,,,,0.0,26.0,26.0,26.0,1.0,,,,,,,,,,
0.0,1.0,0.677405,,,,,,stamp2_08s.jpg,0.0,clock_7_4.png,5.0,11,,,,,,,,,,,,,,,,,,0.0,27.0,27.0,27.0,1.0,,,,,,,,,,
1.0,1.0,0.86691,,,,,,stamp2_08s.jpg,1.0,clock_7_5.png,5.0,11,,,,,,,,,,,,,,,,,,0.0,28.0,28.0,28.0,1.0,,,,,,,,,,
0.0,1.0,0.84273,,,,,,fondue_07s.jpg,0.0,clock_7_6.png,5.0,11,,,,,,,,,,,,,,,,,,0.0,29.0,29.0,29.0,1.0,,,,,,,,,,
0.0,1.0,0.87587,,,,,,outlet_10s.jpg,0.0,clock_7_7.png,5.0,11,,,,,,,,,,,,,,,,,,0.0,30.0,30.0,30.0,1.0,,,,,,,,,,
0.0,1.0,0.803185,,,,,,rhubarb_03s.jpg,0.0,clock_5_1.png,6.0,11,,,,,,,,,,,,,,,,,,0.0,31.0,31.0,31.0,1.0,,,,,,,,,,
0.0,1.0,0.934865,,,,,,purse_05s.jpg,0.0,clock_5_2.png,6.0,11,,,,,,,,,,,,,,,,,,0.0,32.0,32.0,32.0,1.0,,,,,,,,,,
0.0,1.0,0.664005,,,,,,puck_06s.jpg,0.0,clock_5_3.png,6.0,11,,,,,,,,,,,,,,,,,,0.0,33.0,33.0,33.0,1.0,,,,,,,,,,
0.0,1.0,0.961065,,,,,,bean_06s.jpg,0.0,clock_5_4.png,6.0,11,,,,,,,,,,,,,,,,,,0.0,34.0,34.0,34.0,1.0,,,,,,,,,,
0.0,1.0,0.69951,,,,,,popsicle_02s.jpg,0.0,clock_5_5.png,6.0,11,,,,,,,,,,,,,,,,,,0.0,35.0,35.0,35.0,1.0,,,,,,,,,,
,,,,,,,,,0.0,,,11,0.0,1.0,10.916395,,,,,,puck_06s.jpg,outlet_10s.jpg,,,,,,,,,,,,,0.0,0.0,0.0,0.0,1.0,,,,,
,,,,,,,,,0.0,,,11,0.0,1.0,3.72786,,,,,,treadmill_06s.jpg,bagel_15s.jpg,,,,,,,,,,,,,0.0,1.0,1.0,1.0,1.0,,,,,
,,,,,,,,,0.0,,,11,0.0,1.0,10.447785,,,,,,trumpet_06s.jpg,pillbox_04s.jpg,,,,,,,,,,,,,0.0,2.0,2.0,2.0,1.0,,,,,
,,,,,,,,,1.0,,,11,0.0,0.0,2.345795,,,,,,ladder_15s.jpg,cape_11s.jpg,,,,,,,,,,,,,0.0,3.0,3.0,3.0,1.0,,,,,
,,,,,,,,,1.0,,,11,1.0,1.0,2.624415,,,,,,blowfish_03s.jpg,tape_06s.jpg,,,,,,,,,,,,,0.0,4.0,4.0,4.0,1.0,,,,,
,,,,,,,,,1.0,,,11,1.0,1.0,4.265725,,,,,,fox_13s.jpg,quad_04s.jpg,,,,,,,,,,,,,0.0,5.0,5.0,5.0,1.0,,,,,
,,,,,,,,,,,,11,,,,,,,,,,,,,,,,clock_present_3_2.xlsx,clock_compare_task_3_2.xlsx,,,,,,,,,,,0.0,2.0,2.0,2.0,1.0
0.0,1.0,0.657545,,,,,,kite_04s.jpg,0.0,clock_7_1.png,1.0,11,,,,,,,,,,,,,,,,,,0.0,0.0,0.0,0.0,1.0,,,,,,,,,,
0.0,1.0,0.754125,,,,,,bowler_hat_10s.jpg,0.0,clock_7_2.png,1.0,11,,,,,,,,,,,,,,,,,,0.0,1.0,1.0,1.0,1.0,,,,,,,,,,
0.0,1.0,0.615475,,,,,,spider_web_03s.jpg,0.0,clock_7_3.png,1.0,11,,,,,,,,,,,,,,,,,,0.0,2.0,2.0,2.0,1.0,,,,,,,,,,
0.0,1.0,0.727225,,,,,,toad_09s.jpg,0.0,clock_7_4.png,1.0,11,,,,,,,,,,,,,,,,,,0.0,3.0,3.0,3.0,1.0,,,,,,,,,,
0.0,1.0,0.58309,,,,,,trident_07s.jpg,0.0,clock_7_5.png,1.0,11,,,,,,,,,,,,,,,,,,0.0,4.0,4.0,4.0,1.0,,,,,,,,,,
0.0,1.0,0.60213,,,,,,jelly_bean_06s.jpg,0.0,clock_7_6.png,1.0,11,,,,,,,,,,,,,,,,,,0.0,5.0,5.0,5.0,1.0,,,,,,,,,,
1.0,1.0,0.91444,,,,,,kite_04s.jpg,1.0,clock_7_7.png,1.0,11,,,,,,,,,,,,,,,,,,0.0,6.0,6.0,6.0,1.0,,,,,,,,,,
0.0,1.0,0.736505,,,,,,quill_09s.jpg,0.0,clock_5_1.png,2.0,11,,,,,,,,,,,,,,,,,,0.0,7.0,7.0,7.0,1.0,,,,,,,,,,
0.0,1.0,0.59763,,,,,,power_line_08s.jpg,0.0,clock_5_2.png,2.0,11,,,,,,,,,,,,,,,,,,0.0,8.0,8.0,8.0,1.0,,,,,,,,,,
1.0,1.0,0.72046,,,,,,power_line_08s.jpg,1.0,clock_5_3.png,2.0,11,,,,,,,,,,,,,,,,,,0.0,9.0,9.0,9.0,1.0,,,,,,,,,,
0.0,1.0,0.71219,,,,,,punch2_09s.jpg,0.0,clock_5_4.png,2.0,11,,,,,,,,,,,,,,,,,,0.0,10.0,10.0,10.0,1.0,,,,,,,,,,
0.0,1.0,1.00888,,,,,,boar_10s.jpg,0.0,clock_5_5.png,2.0,11,,,,,,,,,,,,,,,,,,0.0,11.0,11.0,11.0,1.0,,,,,,,,,,
0.0,1.0,0.965715,,,,,,puffin_19s.jpg,0.0,clock_7_1.png,3.0,11,,,,,,,,,,,,,,,,,,0.0,12.0,12.0,12.0,1.0,,,,,,,,,,
0.0,1.0,0.67046,,,,,,stamp1_11s.jpg,0.0,clock_7_2.png,3.0,11,,,,,,,,,,,,,,,,,,0.0,13.0,13.0,13.0,1.0,,,,,,,,,,
0.0,1.0,0.6089,,,,,,lamp_08s.jpg,0.0,clock_7_3.png,3.0,11,,,,,,,,,,,,,,,,,,0.0,14.0,14.0,14.0,1.0,,,,,,,,,,
0.0,1.0,0.58185,,,,,,mop_08s.jpg,0.0,clock_7_4.png,3.0,11,,,,,,,,,,,,,,,,,,0.0,15.0,15.0,15.0,1.0,,,,,,,,,,
0.0,1.0,0.480565,,,,,,gong_02s.jpg,0.0,clock_7_5.png,3.0,11,,,,,,,,,,,,,,,,,,0.0,16.0,16.0,16.0,1.0,,,,,,,,,,
0.0,1.0,0.708515,,,,,,petri_dish_12s.jpg,0.0,clock_7_6.png,3.0,11,,,,,,,,,,,,,,,,,,0.0,17.0,17.0,17.0,1.0,,,,,,,,,,
0.0,1.0,0.68103,,,,,,kayak_08s.jpg,0.0,clock_7_7.png,3.0,11,,,,,,,,,,,,,,,,,,0.0,18.0,18.0,18.0,1.0,,,,,,,,,,
0.0,1.0,0.576285,,,,,,stopwatch_04s.jpg,0.0,clock_5_1.png,4.0,11,,,,,,,,,,,,,,,,,,0.0,19.0,19.0,19.0,1.0,,,,,,,,,,
0.0,1.0,0.72973,,,,,,umbrella_15s.jpg,0.0,clock_5_2.png,4.0,11,,,,,,,,,,,,,,,,,,0.0,20.0,20.0,20.0,1.0,,,,,,,,,,
0.0,1.0,0.93316,,,,,,punch2_09s.jpg,0.0,clock_5_3.png,4.0,11,,,,,,,,,,,,,,,,,,0.0,21.0,21.0,21.0,1.0,,,,,,,,,,
1.0,1.0,1.11129,,,,,,stopwatch_04s.jpg,1.0,clock_5_4.png,4.0,11,,,,,,,,,,,,,,,,,,0.0,22.0,22.0,22.0,1.0,,,,,,,,,,
0.0,1.0,0.625855,,,,,,toy_04s.jpg,0.0,clock_5_5.png,4.0,11,,,,,,,,,,,,,,,,,,0.0,23.0,23.0,23.0,1.0,,,,,,,,,,
0.0,1.0,0.764295,,,,,,peeler_06s.jpg,0.0,clock_6_1.png,5.0,11,,,,,,,,,,,,,,,,,,0.0,24.0,24.0,24.0,1.0,,,,,,,,,,
0.0,1.0,0.68302,,,,,,teacup_07s.jpg,0.0,clock_6_2.png,5.0,11,,,,,,,,,,,,,,,,,,0.0,25.0,25.0,25.0,1.0,,,,,,,,,,
0.0,0.0,0.730225,,,,,,peeler_06s.jpg,1.0,clock_6_3.png,5.0,11,,,,,,,,,,,,,,,,,,0.0,26.0,26.0,26.0,1.0,,,,,,,,,,
0.0,1.0,0.758815,,,,,,razor_12s.jpg,0.0,clock_6_4.png,5.0,11,,,,,,,,,,,,,,,,,,0.0,27.0,27.0,27.0,1.0,,,,,,,,,,
0.0,1.0,0.65074,,,,,,rollerskate_03s.jpg,0.0,clock_6_5.png,5.0,11,,,,,,,,,,,,,,,,,,0.0,28.0,28.0,28.0,1.0,,,,,,,,,,
0.0,1.0,0.56049,,,,,,coffee_filter_10s.jpg,0.0,clock_6_6.png,5.0,11,,,,,,,,,,,,,,,,,,0.0,29.0,29.0,29.0,1.0,,,,,,,,,,
0.0,1.0,0.502935,,,,,,squirrel_02s.jpg,0.0,clock_6_1.png,6.0,11,,,,,,,,,,,,,,,,,,0.0,30.0,30.0,30.0,1.0,,,,,,,,,,
0.0,1.0,0.39437,,,,,,punch1_10s.jpg,0.0,clock_6_2.png,6.0,11,,,,,,,,,,,,,,,,,,0.0,31.0,31.0,31.0,1.0,,,,,,,,,,
0.0,1.0,0.4475,,,,,,tulip_02s.jpg,0.0,clock_6_3.png,6.0,11,,,,,,,,,,,,,,,,,,0.0,32.0,32.0,32.0,1.0,,,,,,,,,,
0.0,1.0,0.47,,,,,,lip_gloss_06s.jpg,0.0,clock_6_4.png,6.0,11,,,,,,,,,,,,,,,,,,0.0,33.0,33.0,33.0,1.0,,,,,,,,,,
0.0,1.0,0.436805,,,,,,dashboard_02s.jpg,0.0,clock_6_5.png,6.0,11,,,,,,,,,,,,,,,,,,0.0,34.0,34.0,34.0,1.0,,,,,,,,,,
0.0,1.0,0.54422,,,,,,pipe1_10s.jpg,0.0,clock_6_6.png,6.0,11,,,,,,,,,,,,,,,,,,0.0,35.0,35.0,35.0,1.0,,,,,,,,,,
,,,,,,,,,0.0,,,11,1.0,0.0,7.405635,,,,,,quill_09s.jpg,trident_07s.jpg,,,,,,,,,,,,,0.0,0.0,0.0,0.0,1.0,,,,,
,,,,,,,,,1.0,,,11,0.0,0.0,4.821675,,,,,,boar_10s.jpg,lamp_08s.jpg,,,,,,,,,,,,,0.0,1.0,1.0,1.0,1.0,,,,,
,,,,,,,,,1.0,,,11,1.0,1.0,5.89363,,,,,,razor_12s.jpg,squirrel_02s.jpg,,,,,,,,,,,,,0.0,2.0,2.0,2.0,1.0,,,,,
,,,,,,,,,0.0,,,11,0.0,1.0,4.93159,,,,,,jelly_bean_06s.jpg,spider_web_03s.jpg,,,,,,,,,,,,,0.0,3.0,3.0,3.0,1.0,,,,,
,,,,,,,,,0.0,,,11,1.0,0.0,4.997455,,,,,,mop_08s.jpg,puffin_19s.jpg,,,,,,,,,,,,,0.0,4.0,4.0,4.0,1.0,,,,,
,,,,,,,,,0.0,,,11,0.0,1.0,11.57884,,,,,,gong_02s.jpg,stamp1_11s.jpg,,,,,,,,,,,,,0.0,5.0,5.0,5.0,1.0,,,,,
,,,,,,,,,,,,11,,,,,,,,,,,,,,,,clock_present_4_2.xlsx,clock_compare_task_4_2.xlsx,,,,,,,,,,,0.0,3.0,3.0,3.0,1.0
0.0,1.0,1.119455,,,,,,dynamite_01b.jpg,0.0,clock_5_1.png,1.0,11,,,,,,,,,,,,,,,,,,0.0,0.0,0.0,0.0,1.0,,,,,,,,,,
1.0,1.0,0.98576,,,,,,dynamite_01b.jpg,1.0,clock_5_2.png,1.0,11,,,,,,,,,,,,,,,,,,0.0,1.0,1.0,1.0,1.0,,,,,,,,,,
0.0,1.0,0.91554,,,,,,sushi_08s.jpg,0.0,clock_5_3.png,1.0,11,,,,,,,,,,,,,,,,,,0.0,2.0,2.0,2.0,1.0,,,,,,,,,,
1.0,1.0,0.762805,,,,,,dynamite_01b.jpg,1.0,clock_5_4.png,1.0,11,,,,,,,,,,,,,,,,,,0.0,3.0,3.0,3.0,1.0,,,,,,,,,,
1.0,1.0,0.67769,,,,,,dynamite_01b.jpg,1.0,clock_5_5.png,1.0,11,,,,,,,,,,,,,,,,,,0.0,4.0,4.0,4.0,1.0,,,,,,,,,,
0.0,1.0,0.450285,,,,,,kangaroo_02s.jpg,0.0,clock_7_1.png,2.0,11,,,,,,,,,,,,,,,,,,0.0,5.0,5.0,5.0,1.0,,,,,,,,,,
1.0,1.0,0.59723,,,,,,kangaroo_02s.jpg,1.0,clock_7_2.png,2.0,11,,,,,,,,,,,,,,,,,,0.0,6.0,6.0,6.0,1.0,,,,,,,,,,
1.0,1.0,0.690245,,,,,,kangaroo_02s.jpg,1.0,clock_7_3.png,2.0,11,,,,,,,,,,,,,,,,,,0.0,7.0,7.0,7.0,1.0,,,,,,,,,,
0.0,1.0,0.57084,,,,,,swordfish_05s.jpg,0.0,clock_7_4.png,2.0,11,,,,,,,,,,,,,,,,,,0.0,8.0,8.0,8.0,1.0,,,,,,,,,,
0.0,1.0,0.710855,,,,,,aluminum_foil_08s.jpg,0.0,clock_7_5.png,2.0,11,,,,,,,,,,,,,,,,,,0.0,9.0,9.0,9.0,1.0,,,,,,,,,,
0.0,1.0,0.73313,,,,,,towel_rack_04s.jpg,0.0,clock_7_6.png,2.0,11,,,,,,,,,,,,,,,,,,0.0,10.0,10.0,10.0,1.0,,,,,,,,,,
0.0,0.0,0.944945,,,,,,kangaroo_02s.jpg,1.0,clock_7_7.png,2.0,11,,,,,,,,,,,,,,,,,,0.0,11.0,11.0,11.0,1.0,,,,,,,,,,
0.0,1.0,1.178755,,,,,,refrigerator_07s.jpg,0.0,clock_6_1.png,3.0,11,,,,,,,,,,,,,,,,,,0.0,12.0,12.0,12.0,1.0,,,,,,,,,,
0.0,1.0,0.861265,,,,,,soda_fountain_03s.jpg,0.0,clock_6_2.png,3.0,11,,,,,,,,,,,,,,,,,,0.0,13.0,13.0,13.0,1.0,,,,,,,,,,
1.0,1.0,0.845555,,,,,,soda_fountain_03s.jpg,1.0,clock_6_3.png,3.0,11,,,,,,,,,,,,,,,,,,0.0,14.0,14.0,14.0,1.0,,,,,,,,,,
0.0,1.0,0.79318,,,,,,ladle_04s.jpg,0.0,clock_6_4.png,3.0,11,,,,,,,,,,,,,,,,,,0.0,15.0,15.0,15.0,1.0,,,,,,,,,,
0.0,1.0,0.6186,,,,,,iron_13s.jpg,0.0,clock_6_5.png,3.0,11,,,,,,,,,,,,,,,,,,0.0,16.0,16.0,16.0,1.0,,,,,,,,,,
1.0,1.0,0.77684,,,,,,iron_13s.jpg,1.0,clock_6_6.png,3.0,11,,,,,,,,,,,,,,,,,,0.0,17.0,17.0,17.0,1.0,,,,,,,,,,
0.0,1.0,0.58235,,,,,,tweezers_03s.jpg,0.0,clock_7_1.png,4.0,11,,,,,,,,,,,,,,,,,,0.0,18.0,18.0,18.0,1.0,,,,,,,,,,
0.0,1.0,0.715885,,,,,,piggy_bank_02s.jpg,0.0,clock_7_2.png,4.0,11,,,,,,,,,,,,,,,,,,0.0,19.0,19.0,19.0,1.0,,,,,,,,,,
0.0,1.0,0.493115,,,,,,toilet_paper_12s.jpg,0.0,clock_7_3.png,4.0,11,,,,,,,,,,,,,,,,,,0.0,20.0,20.0,20.0,1.0,,,,,,,,,,
0.0,1.0,0.37626,,,,,,denture_03s.jpg,0.0,clock_7_4.png,4.0,11,,,,,,,,,,,,,,,,,,0.0,21.0,21.0,21.0,1.0,,,,,,,,,,
0.0,1.0,0.587365,,,,,,orchid_01b.jpg,0.0,clock_7_5.png,4.0,11,,,,,,,,,,,,,,,,,,0.0,22.0,22.0,22.0,1.0,,,,,,,,,,
0.0,1.0,0.41947,,,,,,gazelle_10s.jpg,0.0,clock_7_6.png,4.0,11,,,,,,,,,,,,,,,,,,0.0,23.0,23.0,23.0,1.0,,,,,,,,,,
0.0,1.0,0.50382,,,,,,lantern_04s.jpg,0.0,clock_7_7.png,4.0,11,,,,,,,,,,,,,,,,,,0.0,24.0,24.0,24.0,1.0,,,,,,,,,,
0.0,1.0,0.462595,,,,,,lid_10s.jpg,0.0,clock_6_1.png,5.0,11,,,,,,,,,,,,,,,,,,0.0,25.0,25.0,25.0,1.0,,,,,,,,,,
0.0,1.0,0.515,,,,,,totem_pole_05s.jpg,0.0,clock_6_2.png,5.0,11,,,,,,,,,,,,,,,,,,0.0,26.0,26.0,26.0,1.0,,,,,,,,,,
0.0,1.0,0.34362,,,,,,checkbook_11s.jpg,0.0,clock_6_3.png,5.0,11,,,,,,,,,,,,,,,,,,0.0,27.0,27.0,27.0,1.0,,,,,,,,,,
0.0,1.0,0.348405,,,,,,crossbow_10s.jpg,0.0,clock_6_4.png,5.0,11,,,,,,,,,,,,,,,,,,0.0,28.0,28.0,28.0,1.0,,,,,,,,,,
0.0,1.0,0.50763,,,,,,measuring_cup_02s.jpg,0.0,clock_6_5.png,5.0,11,,,,,,,,,,,,,,,,,,0.0,29.0,29.0,29.0,1.0,,,,,,,,,,
0.0,1.0,0.44275,,,,,,ant_12s.jpg,0.0,clock_6_6.png,5.0,11,,,,,,,,,,,,,,,,,,0.0,30.0,30.0,30.0,1.0,,,,,,,,,,
0.0,1.0,0.434185,,,,,,blender_08s.jpg,0.0,clock_5_1.png,6.0,11,,,,,,,,,,,,,,,,,,0.0,31.0,31.0,31.0,1.0,,,,,,,,,,
0.0,1.0,0.542815,,,,,,gingerbread_man_03s.jpg,0.0,clock_5_2.png,6.0,11,,,,,,,,,,,,,,,,,,0.0,32.0,32.0,32.0,1.0,,,,,,,,,,
0.0,1.0,0.49973,,,,,,panda_02s.jpg,0.0,clock_5_3.png,6.0,11,,,,,,,,,,,,,,,,,,0.0,33.0,33.0,33.0,1.0,,,,,,,,,,
0.0,1.0,0.52333,,,,,,quesadilla_07s.jpg,0.0,clock_5_4.png,6.0,11,,,,,,,,,,,,,,,,,,0.0,34.0,34.0,34.0,1.0,,,,,,,,,,
0.0,1.0,0.414835,,,,,,dynamite_01b.jpg,0.0,clock_5_5.png,6.0,11,,,,,,,,,,,,,,,,,,0.0,35.0,35.0,35.0,1.0,,,,,,,,,,
,,,,,,,,,0.0,,,11,0.0,1.0,1.91531,,,,,,refrigerator_07s.jpg,aluminum_foil_08s.jpg,,,,,,,,,,,,,0.0,0.0,0.0,0.0,1.0,,,,,
,,,,,,,,,0.0,,,11,0.0,1.0,1.435005,,,,,,gingerbread_man_03s.jpg,measuring_cup_02s.jpg,,,,,,,,,,,,,0.0,1.0,1.0,1.0,1.0,,,,,
,,,,,,,,,1.0,,,11,0.0,0.0,1.97281,,,,,,ant_12s.jpg,panda_02s.jpg,,,,,,,,,,,,,0.0,2.0,2.0,2.0,1.0,,,,,
,,,,,,,,,1.0,,,11,1.0,1.0,2.011145,,,,,,tweezers_03s.jpg,denture_03s.jpg,,,,,,,,,,,,,0.0,3.0,3.0,3.0,1.0,,,,,
,,,,,,,,,1.0,,,11,1.0,1.0,2.604075,,,,,,piggy_bank_02s.jpg,orchid_01b.jpg,,,,,,,,,,,,,0.0,4.0,4.0,4.0,1.0,,,,,
,,,,,,,,,1.0,,,11,0.0,0.0,2.06778,,,,,,toilet_paper_12s.jpg,gazelle_10s.jpg,,,,,,,,,,,,,0.0,5.0,5.0,5.0,1.0,,,,,
,,,,,,,,,,,,11,,,,,,,,,,,,,,,,clock_present_5_2.xlsx,clock_compare_task_5_2.xlsx,,,,,,,,,,,0.0,4.0,4.0,4.0,1.0
0.0,1.0,0.62168,,,,,,coral_08s.jpg,0.0,clock_7_1.png,1.0,11,,,,,,,,,,,,,,,,,,0.0,0.0,0.0,0.0,1.0,,,,,,,,,,
1.0,1.0,0.786835,,,,,,coral_08s.jpg,1.0,clock_7_2.png,1.0,11,,,,,,,,,,,,,,,,,,0.0,1.0,1.0,1.0,1.0,,,,,,,,,,
0.0,1.0,0.877115,,,,,,puddle_02s.jpg,0.0,clock_7_3.png,1.0,11,,,,,,,,,,,,,,,,,,0.0,2.0,2.0,2.0,1.0,,,,,,,,,,
0.0,1.0,0.52585,,,,,,laundry_basket_11s.jpg,0.0,clock_7_4.png,1.0,11,,,,,,,,,,,,,,,,,,0.0,3.0,3.0,3.0,1.0,,,,,,,,,,
0.0,1.0,0.54608,,,,,,ring_03s.jpg,0.0,clock_7_5.png,1.0,11,,,,,,,,,,,,,,,,,,0.0,4.0,4.0,4.0,1.0,,,,,,,,,,
0.0,1.0,0.619025,,,,,,luggage_08s.jpg,0.0,clock_7_6.png,1.0,11,,,,,,,,,,,,,,,,,,0.0,5.0,5.0,5.0,1.0,,,,,,,,,,
0.0,1.0,0.56308,,,,,,tiara_05s.jpg,0.0,clock_7_7.png,1.0,11,,,,,,,,,,,,,,,,,,0.0,6.0,6.0,6.0,1.0,,,,,,,,,,
0.0,1.0,0.61339,,,,,,mask_09s.jpg,0.0,clock_5_1.png,2.0,11,,,,,,,,,,,,,,,,,,0.0,7.0,7.0,7.0,1.0,,,,,,,,,,
0.0,1.0,0.511295,,,,,,licorice_06s.jpg,0.0,clock_5_2.png,2.0,11,,,,,,,,,,,,,,,,,,0.0,8.0,8.0,8.0,1.0,,,,,,,,,,
1.0,1.0,0.76195,,,,,,licorice_06s.jpg,1.0,clock_5_3.png,2.0,11,,,,,,,,,,,,,,,,,,0.0,9.0,9.0,9.0,1.0,,,,,,,,,,
0.0,1.0,0.58235,,,,,,smokingpipe.jpg,0.0,clock_5_4.png,2.0,11,,,,,,,,,,,,,,,,,,0.0,10.0,10.0,10.0,1.0,,,,,,,,,,
0.0,1.0,0.55072,,,,,,cobra_05s.jpg,0.0,clock_5_5.png,2.0,11,,,,,,,,,,,,,,,,,,0.0,11.0,11.0,11.0,1.0,,,,,,,,,,
0.0,1.0,0.683015,,,,,,gear_07s.jpg,0.0,clock_6_1.png,3.0,11,,,,,,,,,,,,,,,,,,0.0,12.0,12.0,12.0,1.0,,,,,,,,,,
0.0,1.0,0.43421,,,,,,juicer2_06s.jpg,0.0,clock_6_2.png,3.0,11,,,,,,,,,,,,,,,,,,0.0,13.0,13.0,13.0,1.0,,,,,,,,,,
1.0,1.0,0.964205,,,,,,juicer2_06s.jpg,1.0,clock_6_3.png,3.0,11,,,,,,,,,,,,,,,,,,0.0,14.0,14.0,14.0,1.0,,,,,,,,,,
1.0,1.0,0.9112,,,,,,gear_07s.jpg,1.0,clock_6_4.png,3.0,11,,,,,,,,,,,,,,,,,,0.0,15.0,15.0,15.0,1.0,,,,,,,,,,
0.0,1.0,0.592975,,,,,,turtleneck_11s.jpg,0.0,clock_6_5.png,3.0,11,,,,,,,,,,,,,,,,,,0.0,16.0,16.0,16.0,1.0,,,,,,,,,,
1.0,1.0,0.75081,,,,,,turtleneck_11s.jpg,1.0,clock_6_6.png,3.0,11,,,,,,,,,,,,,,,,,,0.0,17.0,17.0,17.0,1.0,,,,,,,,,,
0.0,1.0,0.596085,,,,,,potholder_02s.jpg,0.0,clock_6_1.png,4.0,11,,,,,,,,,,,,,,,,,,0.0,18.0,18.0,18.0,1.0,,,,,,,,,,
0.0,1.0,0.560165,,,,,,plaster_cast_13s.jpg,0.0,clock_6_2.png,4.0,11,,,,,,,,,,,,,,,,,,0.0,19.0,19.0,19.0,1.0,,,,,,,,,,
0.0,1.0,0.49525,,,,,,marshmallow_08s.jpg,0.0,clock_6_3.png,4.0,11,,,,,,,,,,,,,,,,,,0.0,20.0,20.0,20.0,1.0,,,,,,,,,,
0.0,1.0,0.52704,,,,,,jukebox_03n.jpg,0.0,clock_6_4.png,4.0,11,,,,,,,,,,,,,,,,,,0.0,21.0,21.0,21.0,1.0,,,,,,,,,,
1.0,1.0,0.87761,,,,,,potholder_02s.jpg,1.0,clock_6_5.png,4.0,11,,,,,,,,,,,,,,,,,,0.0,22.0,22.0,22.0,1.0,,,,,,,,,,
1.0,1.0,0.73865,,,,,,potholder_02s.jpg,1.0,clock_6_6.png,4.0,11,,,,,,,,,,,,,,,,,,0.0,23.0,23.0,23.0,1.0,,,,,,,,,,
0.0,1.0,0.51204,,,,,,pincushion_10s.jpg,0.0,clock_7_1.png,5.0,11,,,,,,,,,,,,,,,,,,0.0,24.0,24.0,24.0,1.0,,,,,,,,,,
0.0,1.0,0.547965,,,,,,cap_05s.jpg,0.0,clock_7_2.png,5.0,11,,,,,,,,,,,,,,,,,,0.0,25.0,25.0,25.0,1.0,,,,,,,,,,
1.0,1.0,0.662155,,,,,,cap_05s.jpg,1.0,clock_7_3.png,5.0,11,,,,,,,,,,,,,,,,,,0.0,26.0,26.0,26.0,1.0,,,,,,,,,,
0.0,1.0,0.779745,,,,,,insole_11s.jpg,0.0,clock_7_4.png,5.0,11,,,,,,,,,,,,,,,,,,0.0,27.0,27.0,27.0,1.0,,,,,,,,,,
0.0,1.0,0.58554,,,,,,ginger_09s.jpg,0.0,clock_7_5.png,5.0,11,,,,,,,,,,,,,,,,,,0.0,28.0,28.0,28.0,1.0,,,,,,,,,,
1.0,1.0,1.149085,,,,,,insole_11s.jpg,1.0,clock_7_6.png,5.0,11,,,,,,,,,,,,,,,,,,0.0,29.0,29.0,29.0,1.0,,,,,,,,,,
0.0,1.0,0.58676,,,,,,letter_opener_03s.jpg,0.0,clock_7_7.png,5.0,11,,,,,,,,,,,,,,,,,,0.0,30.0,30.0,30.0,1.0,,,,,,,,,,
0.0,1.0,0.52401,,,,,,stapler_01b.jpg,0.0,clock_5_1.png,6.0,11,,,,,,,,,,,,,,,,,,0.0,31.0,31.0,31.0,1.0,,,,,,,,,,
0.0,1.0,0.52162,,,,,,powder_07s.jpg,0.0,clock_5_2.png,6.0,11,,,,,,,,,,,,,,,,,,0.0,32.0,32.0,32.0,1.0,,,,,,,,,,
0.0,1.0,0.42692,,,,,,olive_05s.jpg,0.0,clock_5_3.png,6.0,11,,,,,,,,,,,,,,,,,,0.0,33.0,33.0,33.0,1.0,,,,,,,,,,
0.0,0.0,0.37118,,,,,,stapler_01b.jpg,1.0,clock_5_4.png,6.0,11,,,,,,,,,,,,,,,,,,0.0,34.0,34.0,34.0,1.0,,,,,,,,,,
0.0,1.0,0.56567,,,,,,chip_04s.jpg,0.0,clock_5_5.png,6.0,11,,,,,,,,,,,,,,,,,,0.0,35.0,35.0,35.0,1.0,,,,,,,,,,
,,,,,,,,,0.0,,,11,1.0,0.0,4.007565,,,,,,pincushion_10s.jpg,jukebox_03n.jpg,,,,,,,,,,,,,0.0,0.0,0.0,0.0,1.0,,,,,
,,,,,,,,,1.0,,,11,0.0,0.0,7.75168,,,,,,letter_opener_03s.jpg,olive_05s.jpg,,,,,,,,,,,,,0.0,1.0,1.0,1.0,1.0,,,,,
,,,,,,,,,1.0,,,11,0.0,0.0,1.302905,,,,,,ring_03s.jpg,mask_09s.jpg,,,,,,,,,,,,,0.0,2.0,2.0,2.0,1.0,,,,,
,,,,,,,,,0.0,,,11,1.0,0.0,1.40312,,,,,,luggage_08s.jpg,puddle_02s.jpg,,,,,,,,,,,,,0.0,3.0,3.0,3.0,1.0,,,,,
,,,,,,,,,1.0,,,11,0.0,0.0,1.8805,,,,,,laundry_basket_11s.jpg,tiara_05s.jpg,,,,,,,,,,,,,0.0,4.0,4.0,4.0,1.0,,,,,
,,,,,,,,,0.0,,,11,1.0,0.0,1.99304,,,,,,chip_04s.jpg,powder_07s.jpg,,,,,,,,,,,,,0.0,5.0,5.0,5.0,1.0,,,,,
