key_resp.keys,key_resp.corr,noclock_loop.thisRepN,noclock_loop.thisTrialN,noclock_loop.thisN,noclock_loop.thisIndex,noclock_loop.ran,pictures,answer,clock,segment,participant,key_resp.rt,key_resp_2.keys,key_resp_2.corr,key_resp_2.rt,noclock_loop2.thisRepN,noclock_loop2.thisTrialN,noclock_loop2.thisN,noclock_loop2.thisIndex,noclock_loop2.ran,item_a,item_b,noclock_condition.thisRepN,noclock_condition.thisTrialN,noclock_condition.thisN,noclock_condition.thisIndex,noclock_condition.ran,present,compare,present_segment.thisRepN,present_segment.thisTrialN,present_segment.thisN,present_segment.thisIndex,present_segment.ran,compare_segment.thisRepN,compare_segment.thisTrialN,compare_segment.thisN,compare_segment.thisIndex,compare_segment.ran,clock_conditions.thisRepN,clock_conditions.thisTrialN,clock_conditions.thisN,clock_conditions.thisIndex,clock_conditions.ran
,0.0,0.0,0.0,0.0,0.0,1.0,fossil_06s.jpg,0.0,clockno_up.jpg,1.0,42,,,,,,,,,,,,,,,,,,,,,,,,,,,,,,,,,
1.0,0.0,0.0,1.0,1.0,1.0,1.0,lamb_chop_07s.jpg,0.0,clockno_default.jpg,1.0,42,2.321835,,,,,,,,,,,,,,,,,,,,,,,,,,,,,,,,
0.0,1.0,0.0,2.0,2.0,2.0,1.0,parachute_03s.jpg,0.0,clockno_default.jpg,1.0,42,1.507825,,,,,,,,,,,,,,,,,,,,,,,,,,,,,,,,
1.0,1.0,0.0,3.0,3.0,3.0,1.0,parachute_03s.jpg,1.0,clockno_default.jpg,1.0,42,0.998765,,,,,,,,,,,,,,,,,,,,,,,,,,,,,,,,
1.0,0.0,0.0,4.0,4.0,4.0,1.0,peppermint_07s.jpg,0.0,clockno_default.jpg,1.0,42,2.151505,,,,,,,,,,,,,,,,,,,,,,,,,,,,,,,,
0.0,1.0,0.0,5.0,5.0,5.0,1.0,slingshot_07s.jpg,0.0,clockno_up.jpg,2.0,42,1.258485,,,,,,,,,,,,,,,,,,,,,,,,,,,,,,,,
0.0,1.0,0.0,6.0,6.0,6.0,1.0,tile_08s.jpg,0.0,clockno_default.jpg,2.0,42,1.4596,,,,,,,,,,,,,,,,,,,,,,,,,,,,,,,,
0.0,1.0,0.0,7.0,7.0,7.0,1.0,ravioli_08s.jpg,0.0,clockno_default.jpg,2.0,42,1.170915,,,,,,,,,,,,,,,,,,,,,,,,,,,,,,,,
1.0,0.0,0.0,8.0,8.0,8.0,1.0,parachute_03s.jpg,0.0,clockno_default.jpg,2.0,42,0.854345,,,,,,,,,,,,,,,,,,,,,,,,,,,,,,,,
0.0,1.0,0.0,9.0,9.0,9.0,1.0,peppermint_07s.jpg,0.0,clockno_default.jpg,2.0,42,0.97833,,,,,,,,,,,,,,,,,,,,,,,,,,,,,,,,
1.0,0.0,0.0,10.0,10.0,10.0,1.0,petri_dish_12s.jpg,0.0,clockno_up.jpg,3.0,42,1.066175,,,,,,,,,,,,,,,,,,,,,,,,,,,,,,,,
0.0,1.0,0.0,11.0,11.0,11.0,1.0,popcorn_09s.jpg,0.0,clockno_default.jpg,3.0,42,0.684255,,,,,,,,,,,,,,,,,,,,,,,,,,,,,,,,
1.0,0.0,0.0,12.0,12.0,12.0,1.0,paintbrush_04s.jpg,0.0,clockno_default.jpg,3.0,42,0.613745,,,,,,,,,,,,,,,,,,,,,,,,,,,,,,,,
0.0,1.0,0.0,13.0,13.0,13.0,1.0,potpourri_03s.jpg,0.0,clockno_default.jpg,3.0,42,1.303505,,,,,,,,,,,,,,,,,,,,,,,,,,,,,,,,
0.0,1.0,0.0,14.0,14.0,14.0,1.0,throne_11s.jpg,0.0,clockno_default.jpg,3.0,42,0.70313,,,,,,,,,,,,,,,,,,,,,,,,,,,,,,,,
0.0,1.0,0.0,15.0,15.0,15.0,1.0,peppermint_07s.jpg,0.0,clockno_default.jpg,3.0,42,0.810905,,,,,,,,,,,,,,,,,,,,,,,,,,,,,,,,
0.0,1.0,0.0,16.0,16.0,16.0,1.0,muffin_12n.jpg,0.0,clockno_up.jpg,4.0,42,1.35487,,,,,,,,,,,,,,,,,,,,,,,,,,,,,,,,
0.0,1.0,0.0,17.0,17.0,17.0,1.0,toothpaste_12s.jpg,0.0,clockno_default.jpg,4.0,42,0.89434,,,,,,,,,,,,,,,,,,,,,,,,,,,,,,,,
1.0,0.0,0.0,18.0,18.0,18.0,1.0,paintbrush_04s.jpg,0.0,clockno_default.jpg,4.0,42,0.93619,,,,,,,,,,,,,,,,,,,,,,,,,,,,,,,,
0.0,1.0,0.0,19.0,19.0,19.0,1.0,police_car_01s.jpg,0.0,clockno_default.jpg,4.0,42,0.705045,,,,,,,,,,,,,,,,,,,,,,,,,,,,,,,,
1.0,1.0,0.0,20.0,20.0,20.0,1.0,toothpaste_12s.jpg,1.0,clockno_default.jpg,4.0,42,1.985195,,,,,,,,,,,,,,,,,,,,,,,,,,,,,,,,
0.0,1.0,0.0,21.0,21.0,21.0,1.0,jet_15s.jpg,0.0,clockno_default.jpg,4.0,42,0.7808,,,,,,,,,,,,,,,,,,,,,,,,,,,,,,,,
0.0,1.0,0.0,22.0,22.0,22.0,1.0,tripod_01b.jpg,0.0,clockno_up.jpg,5.0,42,1.60469,,,,,,,,,,,,,,,,,,,,,,,,,,,,,,,,
0.0,1.0,0.0,23.0,23.0,23.0,1.0,potpourri_03s.jpg,0.0,clockno_default.jpg,5.0,42,0.91362,,,,,,,,,,,,,,,,,,,,,,,,,,,,,,,,
0.0,1.0,0.0,24.0,24.0,24.0,1.0,lava_02s.jpg,0.0,clockno_default.jpg,5.0,42,0.86568,,,,,,,,,,,,,,,,,,,,,,,,,,,,,,,,
0.0,1.0,0.0,25.0,25.0,25.0,1.0,peeler_06s.jpg,0.0,clockno_default.jpg,5.0,42,2.123195,,,,,,,,,,,,,,,,,,,,,,,,,,,,,,,,
1.0,1.0,0.0,26.0,26.0,26.0,1.0,lava_02s.jpg,1.0,clockno_default.jpg,5.0,42,0.667125,,,,,,,,,,,,,,,,,,,,,,,,,,,,,,,,
0.0,1.0,0.0,27.0,27.0,27.0,1.0,solar_panel_02s.jpg,0.0,clockno_default.jpg,5.0,42,1.069685,,,,,,,,,,,,,,,,,,,,,,,,,,,,,,,,
0.0,1.0,0.0,28.0,28.0,28.0,1.0,kilt_18s.jpg,0.0,clockno_default.jpg,5.0,42,0.640385,,,,,,,,,,,,,,,,,,,,,,,,,,,,,,,,
0.0,1.0,0.0,29.0,29.0,29.0,1.0,flask_04s.jpg,0.0,clockno_up.jpg,6.0,42,0.82448,,,,,,,,,,,,,,,,,,,,,,,,,,,,,,,,
0.0,1.0,0.0,30.0,30.0,30.0,1.0,swimming_pool_17s.jpg,0.0,clockno_default.jpg,6.0,42,0.563095,,,,,,,,,,,,,,,,,,,,,,,,,,,,,,,,
0.0,1.0,0.0,31.0,31.0,31.0,1.0,thermostat_02s.jpg,0.0,clockno_default.jpg,6.0,42,0.804255,,,,,,,,,,,,,,,,,,,,,,,,,,,,,,,,
0.0,1.0,0.0,32.0,32.0,32.0,1.0,tape_06s.jpg,0.0,clockno_default.jpg,6.0,42,0.62874,,,,,,,,,,,,,,,,,,,,,,,,,,,,,,,,
0.0,1.0,0.0,33.0,33.0,33.0,1.0,radiator_05s.jpg,0.0,clockno_default.jpg,6.0,42,0.653105,,,,,,,,,,,,,,,,,,,,,,,,,,,,,,,,
0.0,1.0,0.0,34.0,34.0,34.0,1.0,mixer_12s.jpg,0.0,clockno_default.jpg,6.0,42,0.650185,,,,,,,,,,,,,,,,,,,,,,,,,,,,,,,,
1.0,1.0,0.0,35.0,35.0,35.0,1.0,radiator_05s.jpg,1.0,clockno_default.jpg,6.0,42,2.354395,,,,,,,,,,,,,,,,,,,,,,,,,,,,,,,,
,,,,,,,,0.0,,,42,,1.0,0.0,3.26627,0.0,0.0,0.0,0.0,1.0,petri_dish_12s.jpg,ravioli_08s.jpg,,,,,,,,,,,,,,,,,,,,,,
,,,,,,,,0.0,,,42,,0.0,1.0,7.131835,0.0,1.0,1.0,1.0,1.0,swimming_pool_17s.jpg,solar_panel_02s.jpg,,,,,,,,,,,,,,,,,,,,,,
,,,,,,,,1.0,,,42,,1.0,1.0,3.141645,0.0,2.0,2.0,2.0,1.0,police_car_01s.jpg,tripod_01b.jpg,,,,,,,,,,,,,,,,,,,,,,
,,,,,,,,0.0,,,42,,1.0,0.0,1.804555,0.0,3.0,3.0,3.0,1.0,throne_11s.jpg,popcorn_09s.jpg,,,,,,,,,,,,,,,,,,,,,,
,,,,,,,,1.0,,,42,,1.0,1.0,1.975605,0.0,4.0,4.0,4.0,1.0,flask_04s.jpg,tape_06s.jpg,,,,,,,,,,,,,,,,,,,,,,
,,,,,,,,0.0,,,42,,1.0,0.0,1.669865,0.0,5.0,5.0,5.0,1.0,kilt_18s.jpg,peeler_06s.jpg,,,,,,,,,,,,,,,,,,,,,,
,,,,,,,,,,,42,,,,,,,,,,,,0.0,0.0,0.0,0.0,1.0,clockno_present_1_12.xlsx,clockno_compare_task_1_12.xlsx,,,,,,,,,,,,,,,
0.0,1.0,0.0,0.0,0.0,0.0,1.0,tinsel_12s.jpg,0.0,clockno_up.jpg,1.0,42,1.85229,,,,,,,,,,,,,,,,,,,,,,,,,,,,,,,,
0.0,1.0,0.0,1.0,1.0,1.0,1.0,cap_05s.jpg,0.0,clockno_default.jpg,1.0,42,0.885055,,,,,,,,,,,,,,,,,,,,,,,,,,,,,,,,
0.0,1.0,0.0,2.0,2.0,2.0,1.0,pencil02a.jpg,0.0,clockno_default.jpg,1.0,42,1.34607,,,,,,,,,,,,,,,,,,,,,,,,,,,,,,,,
0.0,1.0,0.0,3.0,3.0,3.0,1.0,keyhole_03s.jpg,0.0,clockno_default.jpg,1.0,42,0.64485,,,,,,,,,,,,,,,,,,,,,,,,,,,,,,,,
1.0,1.0,0.0,4.0,4.0,4.0,1.0,tinsel_12s.jpg,1.0,clockno_default.jpg,1.0,42,1.152145,,,,,,,,,,,,,,,,,,,,,,,,,,,,,,,,
1.0,1.0,0.0,5.0,5.0,5.0,1.0,tinsel_12s.jpg,1.0,clockno_default.jpg,1.0,42,1.05753,,,,,,,,,,,,,,,,,,,,,,,,,,,,,,,,
0.0,1.0,0.0,6.0,6.0,6.0,1.0,abacus_12s.jpg,0.0,clockno_default.jpg,1.0,42,1.0271,,,,,,,,,,,,,,,,,,,,,,,,,,,,,,,,
0.0,1.0,0.0,7.0,7.0,7.0,1.0,bowler_hat_10s.jpg,0.0,clockno_up.jpg,2.0,42,0.596735,,,,,,,,,,,,,,,,,,,,,,,,,,,,,,,,
0.0,1.0,0.0,8.0,8.0,8.0,1.0,spider_web_03s.jpg,0.0,clockno_default.jpg,2.0,42,0.85498,,,,,,,,,,,,,,,,,,,,,,,,,,,,,,,,
0.0,1.0,0.0,9.0,9.0,9.0,1.0,bank_06s.jpg,0.0,clockno_default.jpg,2.0,42,0.680275,,,,,,,,,,,,,,,,,,,,,,,,,,,,,,,,
1.0,0.0,0.0,10.0,10.0,10.0,1.0,abacus_12s.jpg,0.0,clockno_default.jpg,2.0,42,0.785505,,,,,,,,,,,,,,,,,,,,,,,,,,,,,,,,
0.0,1.0,0.0,11.0,11.0,11.0,1.0,inhaler_01b.jpg,0.0,clockno_default.jpg,2.0,42,0.603415,,,,,,,,,,,,,,,,,,,,,,,,,,,,,,,,
0.0,1.0,0.0,12.0,12.0,12.0,1.0,sea_urchin_09s.jpg,0.0,clockno_up.jpg,3.0,42,0.99706,,,,,,,,,,,,,,,,,,,,,,,,,,,,,,,,
0.0,1.0,0.0,13.0,13.0,13.0,1.0,rocking_chair_05s.jpg,0.0,clockno_default.jpg,3.0,42,0.53362,,,,,,,,,,,,,,,,,,,,,,,,,,,,,,,,
0.0,1.0,0.0,14.0,14.0,14.0,1.0,top_hat_11s.jpg,0.0,clockno_default.jpg,3.0,42,0.96433,,,,,,,,,,,,,,,,,,,,,,,,,,,,,,,,
0.0,1.0,0.0,15.0,15.0,15.0,1.0,bubble_01b.jpg,0.0,clockno_default.jpg,3.0,42,0.92143,,,,,,,,,,,,,,,,,,,,,,,,,,,,,,,,
0.0,1.0,0.0,16.0,16.0,16.0,1.0,sundae_08s.jpg,0.0,clockno_default.jpg,3.0,42,0.722435,,,,,,,,,,,,,,,,,,,,,,,,,,,,,,,,
0.0,1.0,0.0,17.0,17.0,17.0,1.0,ruby_15s.jpg,0.0,clockno_default.jpg,3.0,42,0.564815,,,,,,,,,,,,,,,,,,,,,,,,,,,,,,,,
0.0,1.0,0.0,18.0,18.0,18.0,1.0,candy_cane_06s.jpg,0.0,clockno_up.jpg,4.0,42,0.51351,,,,,,,,,,,,,,,,,,,,,,,,,,,,,,,,
0.0,1.0,0.0,19.0,19.0,19.0,1.0,raft_09s.jpg,0.0,clockno_default.jpg,4.0,42,0.87272,,,,,,,,,,,,,,,,,,,,,,,,,,,,,,,,
0.0,1.0,0.0,20.0,20.0,20.0,1.0,purse_05s.jpg,0.0,clockno_default.jpg,4.0,42,0.528745,,,,,,,,,,,,,,,,,,,,,,,,,,,,,,,,
0.0,1.0,0.0,21.0,21.0,21.0,1.0,icicle_04s.jpg,0.0,clockno_default.jpg,4.0,42,0.552165,,,,,,,,,,,,,,,,,,,,,,,,,,,,,,,,
0.0,1.0,0.0,22.0,22.0,22.0,1.0,microwave_02s.jpg,0.0,clockno_default.jpg,4.0,42,0.610635,,,,,,,,,,,,,,,,,,,,,,,,,,,,,,,,
0.0,1.0,0.0,23.0,23.0,23.0,1.0,bacon_05s.jpg,0.0,clockno_up.jpg,5.0,42,0.47055,,,,,,,,,,,,,,,,,,,,,,,,,,,,,,,,
0.0,1.0,0.0,24.0,24.0,24.0,1.0,trampoline_13s.jpg,0.0,clockno_default.jpg,5.0,42,0.816885,,,,,,,,,,,,,,,,,,,,,,,,,,,,,,,,
0.0,1.0,0.0,25.0,25.0,25.0,1.0,toaster_03s.jpg,0.0,clockno_default.jpg,5.0,42,0.763225,,,,,,,,,,,,,,,,,,,,,,,,,,,,,,,,
0.0,1.0,0.0,26.0,26.0,26.0,1.0,raft_09s.jpg,0.0,clockno_default.jpg,5.0,42,0.28497,,,,,,,,,,,,,,,,,,,,,,,,,,,,,,,,
0.0,1.0,0.0,27.0,27.0,27.0,1.0,lantern_04s.jpg,0.0,clockno_default.jpg,5.0,42,0.66341,,,,,,,,,,,,,,,,,,,,,,,,,,,,,,,,
0.0,1.0,0.0,28.0,28.0,28.0,1.0,kitten_07s.jpg,0.0,clockno_default.jpg,5.0,42,0.56724,,,,,,,,,,,,,,,,,,,,,,,,,,,,,,,,
0.0,1.0,0.0,29.0,29.0,29.0,1.0,money_07s.jpg,0.0,clockno_default.jpg,5.0,42,0.688855,,,,,,,,,,,,,,,,,,,,,,,,,,,,,,,,
0.0,1.0,0.0,30.0,30.0,30.0,1.0,harpoon.jpg,0.0,clockno_up.jpg,6.0,42,0.736515,,,,,,,,,,,,,,,,,,,,,,,,,,,,,,,,
0.0,1.0,0.0,31.0,31.0,31.0,1.0,bonsai_07s.jpg,0.0,clockno_default.jpg,6.0,42,0.659245,,,,,,,,,,,,,,,,,,,,,,,,,,,,,,,,
0.0,1.0,0.0,32.0,32.0,32.0,1.0,ticktacktoe_08s.jpg,0.0,clockno_default.jpg,6.0,42,0.66333,,,,,,,,,,,,,,,,,,,,,,,,,,,,,,,,
0.0,1.0,0.0,33.0,33.0,33.0,1.0,kangaroo_02s.jpg,0.0,clockno_default.jpg,6.0,42,0.54433,,,,,,,,,,,,,,,,,,,,,,,,,,,,,,,,
0.0,1.0,0.0,34.0,34.0,34.0,1.0,meatball_13s.jpg,0.0,clockno_default.jpg,6.0,42,0.47276,,,,,,,,,,,,,,,,,,,,,,,,,,,,,,,,
0.0,1.0,0.0,35.0,35.0,35.0,1.0,sugar_cube_11s.jpg,0.0,clockno_default.jpg,6.0,42,0.538065,,,,,,,,,,,,,,,,,,,,,,,,,,,,,,,,
,,,,,,,,1.0,,,42,,0.0,0.0,2.516305,0.0,0.0,0.0,0.0,1.0,purse_05s.jpg,bacon_05s.jpg,,,,,,,,,,,,,,,,,,,,,,
,,,,,,,,1.0,,,42,,0.0,0.0,2.036475,0.0,1.0,1.0,1.0,1.0,bank_06s.jpg,sea_urchin_09s.jpg,,,,,,,,,,,,,,,,,,,,,,
,,,,,,,,1.0,,,42,,1.0,1.0,2.077975,0.0,2.0,2.0,2.0,1.0,microwave_02s.jpg,toaster_03s.jpg,,,,,,,,,,,,,,,,,,,,,,
,,,,,,,,0.0,,,42,,1.0,0.0,1.967735,0.0,3.0,3.0,3.0,1.0,sundae_08s.jpg,rocking_chair_05s.jpg,,,,,,,,,,,,,,,,,,,,,,
,,,,,,,,1.0,,,42,,1.0,1.0,1.488905,0.0,4.0,4.0,4.0,1.0,spider_web_03s.jpg,inhaler_01b.jpg,,,,,,,,,,,,,,,,,,,,,,
,,,,,,,,1.0,,,42,,1.0,1.0,1.57507,0.0,5.0,5.0,5.0,1.0,harpoon.jpg,kangaroo_02s.jpg,,,,,,,,,,,,,,,,,,,,,,
,,,,,,,,,,,42,,,,,,,,,,,,0.0,1.0,1.0,1.0,1.0,clockno_present_2_12.xlsx,clockno_compare_task_2_12.xlsx,,,,,,,,,,,,,,,
0.0,1.0,0.0,0.0,0.0,0.0,1.0,rudder_02s.jpg,0.0,clockno_up.jpg,1.0,42,2.2271,,,,,,,,,,,,,,,,,,,,,,,,,,,,,,,,
0.0,1.0,0.0,1.0,1.0,1.0,1.0,blowfish_03s.jpg,0.0,clockno_default.jpg,1.0,42,0.6563,,,,,,,,,,,,,,,,,,,,,,,,,,,,,,,,
,0.0,0.0,2.0,2.0,2.0,1.0,rudder_02s.jpg,1.0,clockno_default.jpg,1.0,42,,,,,,,,,,,,,,,,,,,,,,,,,,,,,,,,,
0.0,1.0,0.0,3.0,3.0,3.0,1.0,rooster_03s.jpg,0.0,clockno_default.jpg,1.0,42,0.8491,,,,,,,,,,,,,,,,,,,,,,,,,,,,,,,,
1.0,1.0,0.0,4.0,4.0,4.0,1.0,rooster_03s.jpg,1.0,clockno_default.jpg,1.0,42,1.061655,,,,,,,,,,,,,,,,,,,,,,,,,,,,,,,,
1.0,1.0,0.0,5.0,5.0,5.0,1.0,rudder_02s.jpg,1.0,clockno_default.jpg,1.0,42,1.0509,,,,,,,,,,,,,,,,,,,,,,,,,,,,,,,,
0.0,0.0,0.0,6.0,6.0,6.0,1.0,blowfish_03s.jpg,1.0,clockno_default.jpg,1.0,42,1.495355,,,,,,,,,,,,,,,,,,,,,,,,,,,,,,,,
0.0,1.0,0.0,7.0,7.0,7.0,1.0,ironing_board_07s.jpg,0.0,clockno_up.jpg,2.0,42,0.69411,,,,,,,,,,,,,,,,,,,,,,,,,,,,,,,,
0.0,0.0,0.0,8.0,8.0,8.0,1.0,ironing_board_07s.jpg,1.0,clockno_default.jpg,2.0,42,1.003895,,,,,,,,,,,,,,,,,,,,,,,,,,,,,,,,
0.0,1.0,0.0,9.0,9.0,9.0,1.0,ukulele_02s.jpg,0.0,clockno_default.jpg,2.0,42,1.64295,,,,,,,,,,,,,,,,,,,,,,,,,,,,,,,,
0.0,1.0,0.0,10.0,10.0,10.0,1.0,stamp1_11s.jpg,0.0,clockno_default.jpg,2.0,42,1.18163,,,,,,,,,,,,,,,,,,,,,,,,,,,,,,,,
0.0,1.0,0.0,11.0,11.0,11.0,1.0,lemonade_04s.jpg,0.0,clockno_default.jpg,2.0,42,0.823505,,,,,,,,,,,,,,,,,,,,,,,,,,,,,,,,
0.0,1.0,0.0,12.0,12.0,12.0,1.0,foam_03s.jpg,0.0,clockno_default.jpg,2.0,42,0.86524,,,,,,,,,,,,,,,,,,,,,,,,,,,,,,,,
1.0,1.0,0.0,13.0,13.0,13.0,1.0,lemonade_04s.jpg,1.0,clockno_default.jpg,2.0,42,1.08469,,,,,,,,,,,,,,,,,,,,,,,,,,,,,,,,
0.0,1.0,0.0,14.0,14.0,14.0,1.0,antenna_01b.jpg,0.0,clockno_up.jpg,3.0,42,0.644275,,,,,,,,,,,,,,,,,,,,,,,,,,,,,,,,
1.0,1.0,0.0,15.0,15.0,15.0,1.0,antenna_01b.jpg,1.0,clockno_default.jpg,3.0,42,1.10299,,,,,,,,,,,,,,,,,,,,,,,,,,,,,,,,
1.0,1.0,0.0,16.0,16.0,16.0,1.0,antenna_01b.jpg,1.0,clockno_default.jpg,3.0,42,0.62393,,,,,,,,,,,,,,,,,,,,,,,,,,,,,,,,
0.0,1.0,0.0,17.0,17.0,17.0,1.0,pump_11s.jpg,0.0,clockno_default.jpg,3.0,42,0.57027,,,,,,,,,,,,,,,,,,,,,,,,,,,,,,,,
0.0,1.0,0.0,18.0,18.0,18.0,1.0,metronome_03s.jpg,0.0,clockno_default.jpg,3.0,42,0.61441,,,,,,,,,,,,,,,,,,,,,,,,,,,,,,,,
0.0,1.0,0.0,19.0,19.0,19.0,1.0,lamp_08s.jpg,0.0,clockno_default.jpg,3.0,42,0.70318,,,,,,,,,,,,,,,,,,,,,,,,,,,,,,,,
0.0,1.0,0.0,20.0,20.0,20.0,1.0,bean_06s.jpg,0.0,clockno_up.jpg,4.0,42,1.36119,,,,,,,,,,,,,,,,,,,,,,,,,,,,,,,,
0.0,1.0,0.0,21.0,21.0,21.0,1.0,pump_11s.jpg,0.0,clockno_default.jpg,4.0,42,1.47246,,,,,,,,,,,,,,,,,,,,,,,,,,,,,,,,
0.0,1.0,0.0,22.0,22.0,22.0,1.0,tortilla_06s.jpg,0.0,clockno_default.jpg,4.0,42,0.71625,,,,,,,,,,,,,,,,,,,,,,,,,,,,,,,,
0.0,1.0,0.0,23.0,23.0,23.0,1.0,blowfish_03s.jpg,0.0,clockno_default.jpg,4.0,42,0.94175,,,,,,,,,,,,,,,,,,,,,,,,,,,,,,,,
0.0,1.0,0.0,24.0,24.0,24.0,1.0,tweezers_03s.jpg,0.0,clockno_default.jpg,4.0,42,0.65526,,,,,,,,,,,,,,,,,,,,,,,,,,,,,,,,
0.0,1.0,0.0,25.0,25.0,25.0,1.0,marker_05s.jpg,0.0,clockno_default.jpg,4.0,42,0.666495,,,,,,,,,,,,,,,,,,,,,,,,,,,,,,,,
0.0,1.0,0.0,26.0,26.0,26.0,1.0,film_03s.jpg,0.0,clockno_up.jpg,5.0,42,0.763245,,,,,,,,,,,,,,,,,,,,,,,,,,,,,,,,
0.0,1.0,0.0,27.0,27.0,27.0,1.0,lipstick_02s.jpg,0.0,clockno_default.jpg,5.0,42,0.914385,,,,,,,,,,,,,,,,,,,,,,,,,,,,,,,,
0.0,1.0,0.0,28.0,28.0,28.0,1.0,ring_03s.jpg,0.0,clockno_default.jpg,5.0,42,0.591925,,,,,,,,,,,,,,,,,,,,,,,,,,,,,,,,
0.0,1.0,0.0,29.0,29.0,29.0,1.0,chime_12s.jpg,0.0,clockno_default.jpg,5.0,42,0.72905,,,,,,,,,,,,,,,,,,,,,,,,,,,,,,,,
0.0,1.0,0.0,30.0,30.0,30.0,1.0,ice_pack_09s.jpg,0.0,clockno_default.jpg,5.0,42,0.624645,,,,,,,,,,,,,,,,,,,,,,,,,,,,,,,,
0.0,1.0,0.0,31.0,31.0,31.0,1.0,koala_13s.jpg,0.0,clockno_up.jpg,6.0,42,0.594975,,,,,,,,,,,,,,,,,,,,,,,,,,,,,,,,
0.0,1.0,0.0,32.0,32.0,32.0,1.0,footprint_11s.jpg,0.0,clockno_default.jpg,6.0,42,0.67612,,,,,,,,,,,,,,,,,,,,,,,,,,,,,,,,
1.0,1.0,0.0,33.0,33.0,33.0,1.0,footprint_11s.jpg,1.0,clockno_default.jpg,6.0,42,1.54077,,,,,,,,,,,,,,,,,,,,,,,,,,,,,,,,
0.0,1.0,0.0,34.0,34.0,34.0,1.0,lab_coat_11s.jpg,0.0,clockno_default.jpg,6.0,42,0.83941,,,,,,,,,,,,,,,,,,,,,,,,,,,,,,,,
0.0,1.0,0.0,35.0,35.0,35.0,1.0,toy_04s.jpg,0.0,clockno_default.jpg,6.0,42,0.830525,,,,,,,,,,,,,,,,,,,,,,,,,,,,,,,,
,,,,,,,,0.0,,,42,,1.0,0.0,1.756665,0.0,0.0,0.0,0.0,1.0,tortilla_06s.jpg,lamp_08s.jpg,,,,,,,,,,,,,,,,,,,,,,
,,,,,,,,0.0,,,42,,0.0,1.0,1.616395,0.0,1.0,1.0,1.0,1.0,lipstick_02s.jpg,tweezers_03s.jpg,,,,,,,,,,,,,,,,,,,,,,
,,,,,,,,0.0,,,42,,1.0,0.0,1.948945,0.0,2.0,2.0,2.0,1.0,ring_03s.jpg,marker_05s.jpg,,,,,,,,,,,,,,,,,,,,,,
,,,,,,,,1.0,,,42,,1.0,1.0,1.915235,0.0,3.0,3.0,3.0,1.0,ukulele_02s.jpg,foam_03s.jpg,,,,,,,,,,,,,,,,,,,,,,
,,,,,,,,1.0,,,42,,1.0,1.0,2.03388,0.0,4.0,4.0,4.0,1.0,film_03s.jpg,chime_12s.jpg,,,,,,,,,,,,,,,,,,,,,,
,,,,,,,,1.0,,,42,,0.0,0.0,1.64493,0.0,5.0,5.0,5.0,1.0,koala_13s.jpg,lab_coat_11s.jpg,,,,,,,,,,,,,,,,,,,,,,
,,,,,,,,,,,42,,,,,,,,,,,,0.0,2.0,2.0,2.0,1.0,clockno_present_3_12.xlsx,clockno_compare_task_3_12.xlsx,,,,,,,,,,,,,,,
0.0,1.0,0.0,0.0,0.0,0.0,1.0,surfboard_11s.jpg,0.0,clockno_up.jpg,1.0,42,1.28795,,,,,,,,,,,,,,,,,,,,,,,,,,,,,,,,
0.0,1.0,0.0,1.0,1.0,1.0,1.0,pea_11s.jpg,0.0,clockno_default.jpg,1.0,42,0.53805,,,,,,,,,,,,,,,,,,,,,,,,,,,,,,,,
0.0,1.0,0.0,2.0,2.0,2.0,1.0,checkbook_11s.jpg,0.0,clockno_default.jpg,1.0,42,1.819315,,,,,,,,,,,,,,,,,,,,,,,,,,,,,,,,
0.0,1.0,0.0,3.0,3.0,3.0,1.0,golf_club_03s.jpg,0.0,clockno_default.jpg,1.0,42,1.371925,,,,,,,,,,,,,,,,,,,,,,,,,,,,,,,,
0.0,1.0,0.0,4.0,4.0,4.0,1.0,seahorse_13s.jpg,0.0,clockno_default.jpg,1.0,42,1.24668,,,,,,,,,,,,,,,,,,,,,,,,,,,,,,,,
0.0,1.0,0.0,5.0,5.0,5.0,1.0,denture_03s.jpg,0.0,clockno_up.jpg,2.0,42,0.574635,,,,,,,,,,,,,,,,,,,,,,,,,,,,,,,,
0.0,1.0,0.0,6.0,6.0,6.0,1.0,mascara_03s.jpg,0.0,clockno_default.jpg,2.0,42,0.953765,,,,,,,,,,,,,,,,,,,,,,,,,,,,,,,,
0.0,1.0,0.0,7.0,7.0,7.0,1.0,potholder_02s.jpg,0.0,clockno_default.jpg,2.0,42,0.79673,,,,,,,,,,,,,,,,,,,,,,,,,,,,,,,,
0.0,1.0,0.0,8.0,8.0,8.0,1.0,fox_13s.jpg,0.0,clockno_default.jpg,2.0,42,0.56541,,,,,,,,,,,,,,,,,,,,,,,,,,,,,,,,
1.0,0.0,0.0,9.0,9.0,9.0,1.0,surfboard_11s.jpg,0.0,clockno_default.jpg,2.0,42,0.872825,,,,,,,,,,,,,,,,,,,,,,,,,,,,,,,,
0.0,1.0,0.0,10.0,10.0,10.0,1.0,jersey_02s.jpg,0.0,clockno_default.jpg,2.0,42,0.563675,,,,,,,,,,,,,,,,,,,,,,,,,,,,,,,,
0.0,1.0,0.0,11.0,11.0,11.0,1.0,powder_07s.jpg,0.0,clockno_default.jpg,2.0,42,0.68352,,,,,,,,,,,,,,,,,,,,,,,,,,,,,,,,
0.0,1.0,0.0,12.0,12.0,12.0,1.0,paper_towel_03s.jpg,0.0,clockno_up.jpg,3.0,42,0.680645,,,,,,,,,,,,,,,,,,,,,,,,,,,,,,,,
1.0,1.0,0.0,13.0,13.0,13.0,1.0,paper_towel_03s.jpg,1.0,clockno_default.jpg,3.0,42,0.663915,,,,,,,,,,,,,,,,,,,,,,,,,,,,,,,,
0.0,1.0,0.0,14.0,14.0,14.0,1.0,turtle_08s.jpg,0.0,clockno_default.jpg,3.0,42,1.241305,,,,,,,,,,,,,,,,,,,,,,,,,,,,,,,,
1.0,1.0,0.0,15.0,15.0,15.0,1.0,paper_towel_03s.jpg,1.0,clockno_default.jpg,3.0,42,0.94703,,,,,,,,,,,,,,,,,,,,,,,,,,,,,,,,
0.0,1.0,0.0,16.0,16.0,16.0,1.0,checkbook_11s.jpg,0.0,clockno_default.jpg,3.0,42,1.108115,,,,,,,,,,,,,,,,,,,,,,,,,,,,,,,,
0.0,1.0,0.0,17.0,17.0,17.0,1.0,dirt_bike_11s.jpg,0.0,clockno_up.jpg,4.0,42,0.61343,,,,,,,,,,,,,,,,,,,,,,,,,,,,,,,,
0.0,1.0,0.0,18.0,18.0,18.0,1.0,trident_07s.jpg,0.0,clockno_default.jpg,4.0,42,0.982545,,,,,,,,,,,,,,,,,,,,,,,,,,,,,,,,
0.0,1.0,0.0,19.0,19.0,19.0,1.0,denture_03s.jpg,0.0,clockno_default.jpg,4.0,42,0.992725,,,,,,,,,,,,,,,,,,,,,,,,,,,,,,,,
0.0,1.0,0.0,20.0,20.0,20.0,1.0,lip_gloss_06s.jpg,0.0,clockno_default.jpg,4.0,42,1.481145,,,,,,,,,,,,,,,,,,,,,,,,,,,,,,,,
0.0,1.0,0.0,21.0,21.0,21.0,1.0,squirt_gun_03s.jpg,0.0,clockno_default.jpg,4.0,42,0.96374,,,,,,,,,,,,,,,,,,,,,,,,,,,,,,,,
0.0,1.0,0.0,22.0,22.0,22.0,1.0,jigsaw_puzzle_11s.jpg,0.0,clockno_default.jpg,4.0,42,0.916495,,,,,,,,,,,,,,,,,,,,,,,,,,,,,,,,
0.0,1.0,0.0,23.0,23.0,23.0,1.0,pacifier_09s.jpg,0.0,clockno_default.jpg,4.0,42,0.647325,,,,,,,,,,,,,,,,,,,,,,,,,,,,,,,,
0.0,1.0,0.0,24.0,24.0,24.0,1.0,quill_09s.jpg,0.0,clockno_up.jpg,5.0,42,0.633545,,,,,,,,,,,,,,,,,,,,,,,,,,,,,,,,
0.0,1.0,0.0,25.0,25.0,25.0,1.0,seahorse_13s.jpg,0.0,clockno_default.jpg,5.0,42,0.70747,,,,,,,,,,,,,,,,,,,,,,,,,,,,,,,,
0.0,1.0,0.0,26.0,26.0,26.0,1.0,raccoon_02s.jpg,0.0,clockno_default.jpg,5.0,42,0.7069,,,,,,,,,,,,,,,,,,,,,,,,,,,,,,,,
0.0,1.0,0.0,27.0,27.0,27.0,1.0,radio_09s.jpg,0.0,clockno_default.jpg,5.0,42,0.677215,,,,,,,,,,,,,,,,,,,,,,,,,,,,,,,,
0.0,1.0,0.0,28.0,28.0,28.0,1.0,flip_flop_03s.jpg,0.0,clockno_default.jpg,5.0,42,1.20577,,,,,,,,,,,,,,,,,,,,,,,,,,,,,,,,
0.0,1.0,0.0,29.0,29.0,29.0,1.0,rabbit_03s.jpg,0.0,clockno_default.jpg,5.0,42,0.59946,,,,,,,,,,,,,,,,,,,,,,,,,,,,,,,,
0.0,1.0,0.0,30.0,30.0,30.0,1.0,gear_07s.jpg,0.0,clockno_up.jpg,6.0,42,0.38394,,,,,,,,,,,,,,,,,,,,,,,,,,,,,,,,
0.0,1.0,0.0,31.0,31.0,31.0,1.0,otter_05s.jpg,0.0,clockno_default.jpg,6.0,42,0.789825,,,,,,,,,,,,,,,,,,,,,,,,,,,,,,,,
,0.0,0.0,32.0,32.0,32.0,1.0,lectern_08s.jpg,0.0,clockno_default.jpg,6.0,42,,,,,,,,,,,,,,,,,,,,,,,,,,,,,,,,,
0.0,1.0,0.0,33.0,33.0,33.0,1.0,sparkler_02s.jpg,0.0,clockno_default.jpg,6.0,42,0.53078,,,,,,,,,,,,,,,,,,,,,,,,,,,,,,,,
0.0,1.0,0.0,34.0,34.0,34.0,1.0,fork_04s.jpg,0.0,clockno_default.jpg,6.0,42,0.535855,,,,,,,,,,,,,,,,,,,,,,,,,,,,,,,,
0.0,1.0,0.0,35.0,35.0,35.0,1.0,quill_09s.jpg,0.0,clockno_default.jpg,6.0,42,0.59916,,,,,,,,,,,,,,,,,,,,,,,,,,,,,,,,
,,,,,,,,0.0,,,42,,1.0,0.0,1.73308,0.0,0.0,0.0,0.0,1.0,mascara_03s.jpg,golf_club_03s.jpg,,,,,,,,,,,,,,,,,,,,,,
,,,,,,,,0.0,,,42,,1.0,0.0,2.110835,0.0,1.0,1.0,1.0,1.0,turtle_08s.jpg,powder_07s.jpg,,,,,,,,,,,,,,,,,,,,,,
,,,,,,,,1.0,,,42,,1.0,1.0,1.90895,0.0,2.0,2.0,2.0,1.0,radio_09s.jpg,gear_07s.jpg,,,,,,,,,,,,,,,,,,,,,,
,,,,,,,,0.0,,,42,,1.0,0.0,1.559545,0.0,3.0,3.0,3.0,1.0,jersey_02s.jpg,potholder_02s.jpg,,,,,,,,,,,,,,,,,,,,,,
,,,,,,,,0.0,,,42,,0.0,1.0,2.17253,0.0,4.0,4.0,4.0,1.0,squirt_gun_03s.jpg,trident_07s.jpg,,,,,,,,,,,,,,,,,,,,,,
,,,,,,,,0.0,,,42,,0.0,1.0,1.98496,0.0,5.0,5.0,5.0,1.0,lip_gloss_06s.jpg,dirt_bike_11s.jpg,,,,,,,,,,,,,,,,,,,,,,
,,,,,,,,,,,42,,,,,,,,,,,,0.0,3.0,3.0,3.0,1.0,clockno_present_4_12.xlsx,clockno_compare_task_4_12.xlsx,,,,,,,,,,,,,,,
,0.0,0.0,0.0,0.0,0.0,1.0,pinwheel_06s.jpg,0.0,clockno_up.jpg,1.0,42,,,,,,,,,,,,,,,,,,,,,,,,,,,,,,,,,
0.0,1.0,0.0,1.0,1.0,1.0,1.0,rice_12s.jpg,0.0,clockno_default.jpg,1.0,42,0.49764,,,,,,,,,,,,,,,,,,,,,,,,,,,,,,,,
0.0,1.0,0.0,2.0,2.0,2.0,1.0,machete_06s.jpg,0.0,clockno_default.jpg,1.0,42,0.424275,,,,,,,,,,,,,,,,,,,,,,,,,,,,,,,,
0.0,1.0,0.0,3.0,3.0,3.0,1.0,timer_03s.jpg,0.0,clockno_default.jpg,1.0,42,0.873935,,,,,,,,,,,,,,,,,,,,,,,,,,,,,,,,
0.0,1.0,0.0,4.0,4.0,4.0,1.0,mug_06s.jpg,0.0,clockno_default.jpg,1.0,42,0.94072,,,,,,,,,,,,,,,,,,,,,,,,,,,,,,,,
0.0,1.0,0.0,5.0,5.0,5.0,1.0,machine_gun_09s.jpg,0.0,clockno_default.jpg,1.0,42,1.62441,,,,,,,,,,,,,,,,,,,,,,,,,,,,,,,,
0.0,1.0,0.0,6.0,6.0,6.0,1.0,plug_08s.jpg,0.0,clockno_default.jpg,1.0,42,0.542765,,,,,,,,,,,,,,,,,,,,,,,,,,,,,,,,
0.0,1.0,0.0,7.0,7.0,7.0,1.0,tupperware_09s.jpg,0.0,clockno_up.jpg,2.0,42,0.530635,,,,,,,,,,,,,,,,,,,,,,,,,,,,,,,,
0.0,1.0,0.0,8.0,8.0,8.0,1.0,rice_12s.jpg,0.0,clockno_default.jpg,2.0,42,0.53674,,,,,,,,,,,,,,,,,,,,,,,,,,,,,,,,
0.0,1.0,0.0,9.0,9.0,9.0,1.0,briefcase_03s.jpg,0.0,clockno_default.jpg,2.0,42,0.51732,,,,,,,,,,,,,,,,,,,,,,,,,,,,,,,,
1.0,1.0,0.0,10.0,10.0,10.0,1.0,briefcase_03s.jpg,1.0,clockno_default.jpg,2.0,42,1.15075,,,,,,,,,,,,,,,,,,,,,,,,,,,,,,,,
0.0,1.0,0.0,11.0,11.0,11.0,1.0,thorn_13s.jpg,0.0,clockno_default.jpg,2.0,42,0.592835,,,,,,,,,,,,,,,,,,,,,,,,,,,,,,,,
0.0,1.0,0.0,12.0,12.0,12.0,1.0,chopsticks_08s.jpg,0.0,clockno_default.jpg,2.0,42,1.001855,,,,,,,,,,,,,,,,,,,,,,,,,,,,,,,,
0.0,1.0,0.0,13.0,13.0,13.0,1.0,oil_02s.jpg,0.0,clockno_up.jpg,3.0,42,0.755705,,,,,,,,,,,,,,,,,,,,,,,,,,,,,,,,
0.0,1.0,0.0,14.0,14.0,14.0,1.0,luggage_08s.jpg,0.0,clockno_default.jpg,3.0,42,0.581025,,,,,,,,,,,,,,,,,,,,,,,,,,,,,,,,
0.0,1.0,0.0,15.0,15.0,15.0,1.0,dynamite_01b.jpg,0.0,clockno_default.jpg,3.0,42,0.983255,,,,,,,,,,,,,,,,,,,,,,,,,,,,,,,,
0.0,0.0,0.0,16.0,16.0,16.0,1.0,oil_02s.jpg,1.0,clockno_default.jpg,3.0,42,0.504725,,,,,,,,,,,,,,,,,,,,,,,,,,,,,,,,
1.0,1.0,0.0,17.0,17.0,17.0,1.0,oil_02s.jpg,1.0,clockno_default.jpg,3.0,42,1.252185,,,,,,,,,,,,,,,,,,,,,,,,,,,,,,,,
0.0,0.0,0.0,18.0,18.0,18.0,1.0,luggage_08s.jpg,1.0,clockno_default.jpg,3.0,42,0.46932,,,,,,,,,,,,,,,,,,,,,,,,,,,,,,,,
1.0,1.0,0.0,19.0,19.0,19.0,1.0,oil_02s.jpg,1.0,clockno_default.jpg,3.0,42,1.62194,,,,,,,,,,,,,,,,,,,,,,,,,,,,,,,,
0.0,1.0,0.0,20.0,20.0,20.0,1.0,soda_fountain_03s.jpg,0.0,clockno_up.jpg,4.0,42,2.2867,,,,,,,,,,,,,,,,,,,,,,,,,,,,,,,,
0.0,1.0,0.0,21.0,21.0,21.0,1.0,thread_08s.jpg,0.0,clockno_default.jpg,4.0,42,0.640625,,,,,,,,,,,,,,,,,,,,,,,,,,,,,,,,
0.0,1.0,0.0,22.0,22.0,22.0,1.0,rice_12s.jpg,0.0,clockno_default.jpg,4.0,42,0.833665,,,,,,,,,,,,,,,,,,,,,,,,,,,,,,,,
0.0,1.0,0.0,23.0,23.0,23.0,1.0,power_line_08s.jpg,0.0,clockno_default.jpg,4.0,42,0.537915,,,,,,,,,,,,,,,,,,,,,,,,,,,,,,,,
0.0,1.0,0.0,24.0,24.0,24.0,1.0,boar_10s.jpg,0.0,clockno_default.jpg,4.0,42,0.51794,,,,,,,,,,,,,,,,,,,,,,,,,,,,,,,,
0.0,1.0,0.0,25.0,25.0,25.0,1.0,teabag_12s.jpg,0.0,clockno_up.jpg,5.0,42,0.936225,,,,,,,,,,,,,,,,,,,,,,,,,,,,,,,,
0.0,1.0,0.0,26.0,26.0,26.0,1.0,ladle_04s.jpg,0.0,clockno_default.jpg,5.0,42,0.729805,,,,,,,,,,,,,,,,,,,,,,,,,,,,,,,,
1.0,1.0,0.0,27.0,27.0,27.0,1.0,teabag_12s.jpg,1.0,clockno_default.jpg,5.0,42,1.403595,,,,,,,,,,,,,,,,,,,,,,,,,,,,,,,,
0.0,1.0,0.0,28.0,28.0,28.0,1.0,timer_03s.jpg,0.0,clockno_default.jpg,5.0,42,2.05269,,,,,,,,,,,,,,,,,,,,,,,,,,,,,,,,
0.0,1.0,0.0,29.0,29.0,29.0,1.0,sunglasses_11s.jpg,0.0,clockno_default.jpg,5.0,42,1.05958,,,,,,,,,,,,,,,,,,,,,,,,,,,,,,,,
0.0,1.0,0.0,30.0,30.0,30.0,1.0,air_pump_05s.jpg,0.0,clockno_up.jpg,6.0,42,1.11756,,,,,,,,,,,,,,,,,,,,,,,,,,,,,,,,
0.0,1.0,0.0,31.0,31.0,31.0,1.0,bottle_opener_11s.jpg,0.0,clockno_default.jpg,6.0,42,0.566205,,,,,,,,,,,,,,,,,,,,,,,,,,,,,,,,
0.0,1.0,0.0,32.0,32.0,32.0,1.0,kimono_13s.jpg,0.0,clockno_default.jpg,6.0,42,0.86366,,,,,,,,,,,,,,,,,,,,,,,,,,,,,,,,
0.0,0.0,0.0,33.0,33.0,33.0,1.0,bottle_opener_11s.jpg,1.0,clockno_default.jpg,6.0,42,0.539085,,,,,,,,,,,,,,,,,,,,,,,,,,,,,,,,
0.0,1.0,0.0,34.0,34.0,34.0,1.0,orangutan_03s.jpg,0.0,clockno_default.jpg,6.0,42,0.65114,,,,,,,,,,,,,,,,,,,,,,,,,,,,,,,,
0.0,1.0,0.0,35.0,35.0,35.0,1.0,turf_03s.jpg,0.0,clockno_default.jpg,6.0,42,0.58879,,,,,,,,,,,,,,,,,,,,,,,,,,,,,,,,
,,,,,,,,0.0,,,42,,0.0,1.0,1.462485,0.0,0.0,0.0,0.0,1.0,tupperware_09s.jpg,mug_06s.jpg,,,,,,,,,,,,,,,,,,,,,,
,,,,,,,,0.0,,,42,,1.0,0.0,1.66443,0.0,1.0,1.0,1.0,1.0,dynamite_01b.jpg,chopsticks_08s.jpg,,,,,,,,,,,,,,,,,,,,,,
,,,,,,,,0.0,,,42,,0.0,1.0,0.959715,0.0,2.0,2.0,2.0,1.0,ladle_04s.jpg,power_line_08s.jpg,,,,,,,,,,,,,,,,,,,,,,
,,,,,,,,0.0,,,42,,1.0,0.0,1.077895,0.0,3.0,3.0,3.0,1.0,machine_gun_09s.jpg,machete_06s.jpg,,,,,,,,,,,,,,,,,,,,,,
,,,,,,,,0.0,,,42,,0.0,1.0,1.57529,0.0,4.0,4.0,4.0,1.0,boar_10s.jpg,thread_08s.jpg,,,,,,,,,,,,,,,,,,,,,,
,,,,,,,,1.0,,,42,,0.0,0.0,1.749275,0.0,5.0,5.0,5.0,1.0,kimono_13s.jpg,turf_03s.jpg,,,,,,,,,,,,,,,,,,,,,,
,,,,,,,,,,,42,,,,,,,,,,,,0.0,4.0,4.0,4.0,1.0,clockno_present_5_12.xlsx,clockno_compare_task_5_12.xlsx,,,,,,,,,,,,,,,
0.0,1.0,0.0,0.0,0.0,0.0,1.0,magnet_03s.jpg,0.0,clockno_up.jpg,1.0,42,2.38412,,,,,,,,,,,,,,,,,,,,,,,,,,,,,,,,
1.0,1.0,0.0,1.0,1.0,1.0,1.0,magnet_03s.jpg,1.0,clockno_default.jpg,1.0,42,2.04635,,,,,,,,,,,,,,,,,,,,,,,,,,,,,,,,
0.0,1.0,0.0,2.0,2.0,2.0,1.0,margarita_03s.jpg,0.0,clockno_default.jpg,1.0,42,0.81493,,,,,,,,,,,,,,,,,,,,,,,,,,,,,,,,
0.0,1.0,0.0,3.0,3.0,3.0,1.0,pepper2_21s.jpg,0.0,clockno_default.jpg,1.0,42,0.516915,,,,,,,,,,,,,,,,,,,,,,,,,,,,,,,,
0.0,1.0,0.0,4.0,4.0,4.0,1.0,gargoyle_08s.jpg,0.0,clockno_default.jpg,1.0,42,0.528105,,,,,,,,,,,,,,,,,,,,,,,,,,,,,,,,
0.0,1.0,0.0,5.0,5.0,5.0,1.0,exhaust_pipe_10s.jpg,0.0,clockno_up.jpg,2.0,42,0.67582,,,,,,,,,,,,,,,,,,,,,,,,,,,,,,,,
1.0,1.0,0.0,6.0,6.0,6.0,1.0,exhaust_pipe_10s.jpg,1.0,clockno_default.jpg,2.0,42,1.350715,,,,,,,,,,,,,,,,,,,,,,,,,,,,,,,,
0.0,1.0,0.0,7.0,7.0,7.0,1.0,pepper2_21s.jpg,0.0,clockno_default.jpg,2.0,42,1.05305,,,,,,,,,,,,,,,,,,,,,,,,,,,,,,,,
0.0,1.0,0.0,8.0,8.0,8.0,1.0,plunger_08s.jpg,0.0,clockno_default.jpg,2.0,42,0.56627,,,,,,,,,,,,,,,,,,,,,,,,,,,,,,,,
0.0,1.0,0.0,9.0,9.0,9.0,1.0,swan_11s.jpg,0.0,clockno_default.jpg,2.0,42,0.51946,,,,,,,,,,,,,,,,,,,,,,,,,,,,,,,,
1.0,1.0,0.0,10.0,10.0,10.0,1.0,plunger_08s.jpg,1.0,clockno_default.jpg,2.0,42,1.499065,,,,,,,,,,,,,,,,,,,,,,,,,,,,,,,,
1.0,1.0,0.0,11.0,11.0,11.0,1.0,swan_11s.jpg,1.0,clockno_default.jpg,2.0,42,1.566155,,,,,,,,,,,,,,,,,,,,,,,,,,,,,,,,
0.0,1.0,0.0,12.0,12.0,12.0,1.0,tambourine_06s.jpg,0.0,clockno_up.jpg,3.0,42,1.45286,,,,,,,,,,,,,,,,,,,,,,,,,,,,,,,,
1.0,1.0,0.0,13.0,13.0,13.0,1.0,tambourine_06s.jpg,1.0,clockno_default.jpg,3.0,42,1.76546,,,,,,,,,,,,,,,,,,,,,,,,,,,,,,,,
1.0,1.0,0.0,14.0,14.0,14.0,1.0,tambourine_06s.jpg,1.0,clockno_default.jpg,3.0,42,1.21406,,,,,,,,,,,,,,,,,,,,,,,,,,,,,,,,
0.0,1.0,0.0,15.0,15.0,15.0,1.0,mask_09s.jpg,0.0,clockno_default.jpg,3.0,42,0.61316,,,,,,,,,,,,,,,,,,,,,,,,,,,,,,,,
0.0,1.0,0.0,16.0,16.0,16.0,1.0,spoon02a.jpg,0.0,clockno_default.jpg,3.0,42,0.68421,,,,,,,,,,,,,,,,,,,,,,,,,,,,,,,,
0.0,1.0,0.0,17.0,17.0,17.0,1.0,pantyhose_07s.jpg,0.0,clockno_default.jpg,3.0,42,0.65284,,,,,,,,,,,,,,,,,,,,,,,,,,,,,,,,
0.0,1.0,0.0,18.0,18.0,18.0,1.0,fire_pit_10s.jpg,0.0,clockno_up.jpg,4.0,42,0.780755,,,,,,,,,,,,,,,,,,,,,,,,,,,,,,,,
0.0,1.0,0.0,19.0,19.0,19.0,1.0,tape_measure_11s.jpg,0.0,clockno_default.jpg,4.0,42,0.65752,,,,,,,,,,,,,,,,,,,,,,,,,,,,,,,,
0.0,1.0,0.0,20.0,20.0,20.0,1.0,swan_11s.jpg,0.0,clockno_default.jpg,4.0,42,0.705845,,,,,,,,,,,,,,,,,,,,,,,,,,,,,,,,
0.0,1.0,0.0,21.0,21.0,21.0,1.0,bee_20s.jpg,0.0,clockno_default.jpg,4.0,42,1.14763,,,,,,,,,,,,,,,,,,,,,,,,,,,,,,,,
0.0,1.0,0.0,22.0,22.0,22.0,1.0,puppet_01b.jpg,0.0,clockno_default.jpg,4.0,42,0.717105,,,,,,,,,,,,,,,,,,,,,,,,,,,,,,,,
0.0,1.0,0.0,23.0,23.0,23.0,1.0,rock_08s.jpg,0.0,clockno_up.jpg,5.0,42,0.42361,,,,,,,,,,,,,,,,,,,,,,,,,,,,,,,,
0.0,1.0,0.0,24.0,24.0,24.0,1.0,scooter.jpg,0.0,clockno_default.jpg,5.0,42,0.497375,,,,,,,,,,,,,,,,,,,,,,,,,,,,,,,,
0.0,1.0,0.0,25.0,25.0,25.0,1.0,cucumber_07s.jpg,0.0,clockno_default.jpg,5.0,42,0.458485,,,,,,,,,,,,,,,,,,,,,,,,,,,,,,,,
0.0,1.0,0.0,26.0,26.0,26.0,1.0,camcorder_10s.jpg,0.0,clockno_default.jpg,5.0,42,0.57917,,,,,,,,,,,,,,,,,,,,,,,,,,,,,,,,
0.0,0.0,0.0,27.0,27.0,27.0,1.0,camcorder_10s.jpg,1.0,clockno_default.jpg,5.0,42,0.58246,,,,,,,,,,,,,,,,,,,,,,,,,,,,,,,,
0.0,0.0,0.0,28.0,28.0,28.0,1.0,camcorder_10s.jpg,1.0,clockno_default.jpg,5.0,42,0.56262,,,,,,,,,,,,,,,,,,,,,,,,,,,,,,,,
0.0,1.0,0.0,29.0,29.0,29.0,1.0,penguin_16s.jpg,0.0,clockno_up.jpg,6.0,42,2.348255,,,,,,,,,,,,,,,,,,,,,,,,,,,,,,,,
0.0,1.0,0.0,30.0,30.0,30.0,1.0,swordfish_05s.jpg,0.0,clockno_default.jpg,6.0,42,0.477445,,,,,,,,,,,,,,,,,,,,,,,,,,,,,,,,
0.0,1.0,0.0,31.0,31.0,31.0,1.0,turkey_10s.jpg,0.0,clockno_default.jpg,6.0,42,0.566185,,,,,,,,,,,,,,,,,,,,,,,,,,,,,,,,
0.0,1.0,0.0,32.0,32.0,32.0,1.0,quilt_03s.jpg,0.0,clockno_default.jpg,6.0,42,0.518615,,,,,,,,,,,,,,,,,,,,,,,,,,,,,,,,
0.0,1.0,0.0,33.0,33.0,33.0,1.0,gong_02s.jpg,0.0,clockno_default.jpg,6.0,42,0.46526,,,,,,,,,,,,,,,,,,,,,,,,,,,,,,,,
0.0,1.0,0.0,34.0,34.0,34.0,1.0,cobra_05s.jpg,0.0,clockno_default.jpg,6.0,42,0.46576,,,,,,,,,,,,,,,,,,,,,,,,,,,,,,,,
0.0,1.0,0.0,35.0,35.0,35.0,1.0,duck_01b.jpg,0.0,clockno_default.jpg,6.0,42,0.41465,,,,,,,,,,,,,,,,,,,,,,,,,,,,,,,,
,,,,,,,,1.0,,,42,,1.0,1.0,1.586285,0.0,0.0,0.0,0.0,1.0,mask_09s.jpg,fire_pit_10s.jpg,,,,,,,,,,,,,,,,,,,,,,
,,,,,,,,0.0,,,42,,0.0,1.0,1.67087,0.0,1.0,1.0,1.0,1.0,tape_measure_11s.jpg,spoon02a.jpg,,,,,,,,,,,,,,,,,,,,,,
,,,,,,,,0.0,,,42,,0.0,1.0,1.115355,0.0,2.0,2.0,2.0,1.0,scooter.jpg,bee_20s.jpg,,,,,,,,,,,,,,,,,,,,,,
,,,,,,,,0.0,,,42,,0.0,1.0,1.317775,0.0,3.0,3.0,3.0,1.0,quilt_03s.jpg,penguin_16s.jpg,,,,,,,,,,,,,,,,,,,,,,
,,,,,,,,0.0,,,42,,0.0,1.0,1.014215,0.0,4.0,4.0,4.0,1.0,gong_02s.jpg,swordfish_05s.jpg,,,,,,,,,,,,,,,,,,,,,,
,,,,,,,,0.0,,,42,,1.0,0.0,3.01796,0.0,5.0,5.0,5.0,1.0,cobra_05s.jpg,turkey_10s.jpg,,,,,,,,,,,,,,,,,,,,,,
,0.0,,,,,,snowman_02s.jpg,0.0,clock_6_1.png,1.0,42,,,,,,,,,,,,,,,,,,,0.0,0.0,0.0,0.0,1.0,,,,,,,,,,
0.0,1.0,,,,,,juicer1_08s.jpg,0.0,clock_6_2.png,1.0,42,0.71873,,,,,,,,,,,,,,,,,,0.0,1.0,1.0,1.0,1.0,,,,,,,,,,
1.0,1.0,,,,,,juicer1_08s.jpg,1.0,clock_6_3.png,1.0,42,1.3306,,,,,,,,,,,,,,,,,,0.0,2.0,2.0,2.0,1.0,,,,,,,,,,
0.0,1.0,,,,,,comic_book_02s.jpg,0.0,clock_6_4.png,1.0,42,0.524195,,,,,,,,,,,,,,,,,,0.0,3.0,3.0,3.0,1.0,,,,,,,,,,
1.0,1.0,,,,,,comic_book_02s.jpg,1.0,clock_6_5.png,1.0,42,1.313765,,,,,,,,,,,,,,,,,,0.0,4.0,4.0,4.0,1.0,,,,,,,,,,
0.0,1.0,,,,,,rug_09s.jpg,0.0,clock_6_6.png,1.0,42,0.54894,,,,,,,,,,,,,,,,,,0.0,5.0,5.0,5.0,1.0,,,,,,,,,,
0.0,1.0,,,,,,boomerang_06s.jpg,0.0,clock_5_1.png,2.0,42,0.73468,,,,,,,,,,,,,,,,,,0.0,6.0,6.0,6.0,1.0,,,,,,,,,,
0.0,1.0,,,,,,tongs_08s.jpg,0.0,clock_5_2.png,2.0,42,0.66852,,,,,,,,,,,,,,,,,,0.0,7.0,7.0,7.0,1.0,,,,,,,,,,
0.0,1.0,,,,,,crayon_09s.jpg,0.0,clock_5_3.png,2.0,42,0.53075,,,,,,,,,,,,,,,,,,0.0,8.0,8.0,8.0,1.0,,,,,,,,,,
0.0,1.0,,,,,,smokingpipe.jpg,0.0,clock_5_4.png,2.0,42,0.666605,,,,,,,,,,,,,,,,,,0.0,9.0,9.0,9.0,1.0,,,,,,,,,,
0.0,1.0,,,,,,safety_pin_02s.jpg,0.0,clock_5_5.png,2.0,42,0.70087,,,,,,,,,,,,,,,,,,0.0,10.0,10.0,10.0,1.0,,,,,,,,,,
0.0,1.0,,,,,,quesadilla_07s.jpg,0.0,clock_6_1.png,3.0,42,2.41618,,,,,,,,,,,,,,,,,,0.0,11.0,11.0,11.0,1.0,,,,,,,,,,
1.0,1.0,,,,,,quesadilla_07s.jpg,1.0,clock_6_2.png,3.0,42,1.29975,,,,,,,,,,,,,,,,,,0.0,12.0,12.0,12.0,1.0,,,,,,,,,,
1.0,1.0,,,,,,quesadilla_07s.jpg,1.0,clock_6_3.png,3.0,42,1.53365,,,,,,,,,,,,,,,,,,0.0,13.0,13.0,13.0,1.0,,,,,,,,,,
0.0,1.0,,,,,,letter_opener_03s.jpg,0.0,clock_6_4.png,3.0,42,1.111485,,,,,,,,,,,,,,,,,,0.0,14.0,14.0,14.0,1.0,,,,,,,,,,
0.0,1.0,,,,,,feather02.jpg,0.0,clock_6_5.png,3.0,42,1.005175,,,,,,,,,,,,,,,,,,0.0,15.0,15.0,15.0,1.0,,,,,,,,,,
0.0,1.0,,,,,,tongs_08s.jpg,0.0,clock_6_6.png,3.0,42,1.04912,,,,,,,,,,,,,,,,,,0.0,16.0,16.0,16.0,1.0,,,,,,,,,,
0.0,1.0,,,,,,bathtub_23s.jpg,0.0,clock_5_1.png,4.0,42,0.682465,,,,,,,,,,,,,,,,,,0.0,17.0,17.0,17.0,1.0,,,,,,,,,,
1.0,0.0,,,,,,tongs_08s.jpg,0.0,clock_5_2.png,4.0,42,1.356575,,,,,,,,,,,,,,,,,,0.0,18.0,18.0,18.0,1.0,,,,,,,,,,
0.0,1.0,,,,,,loom_05s.jpg,0.0,clock_5_3.png,4.0,42,1.580975,,,,,,,,,,,,,,,,,,0.0,19.0,19.0,19.0,1.0,,,,,,,,,,
0.0,1.0,,,,,,light_switch_02s.jpg,0.0,clock_5_4.png,4.0,42,1.378735,,,,,,,,,,,,,,,,,,0.0,20.0,20.0,20.0,1.0,,,,,,,,,,
1.0,1.0,,,,,,light_switch_02s.jpg,1.0,clock_5_5.png,4.0,42,1.52239,,,,,,,,,,,,,,,,,,0.0,21.0,21.0,21.0,1.0,,,,,,,,,,
0.0,1.0,,,,,,swing_set_15s.jpg,0.0,clock_7_1.png,5.0,42,1.090605,,,,,,,,,,,,,,,,,,0.0,22.0,22.0,22.0,1.0,,,,,,,,,,
0.0,1.0,,,,,,frog_09s.jpg,0.0,clock_7_2.png,5.0,42,0.612,,,,,,,,,,,,,,,,,,0.0,23.0,23.0,23.0,1.0,,,,,,,,,,
0.0,1.0,,,,,,olive_05s.jpg,0.0,clock_7_3.png,5.0,42,0.670325,,,,,,,,,,,,,,,,,,0.0,24.0,24.0,24.0,1.0,,,,,,,,,,
0.0,1.0,,,,,,safety_pin_02s.jpg,0.0,clock_7_4.png,5.0,42,0.647545,,,,,,,,,,,,,,,,,,0.0,25.0,25.0,25.0,1.0,,,,,,,,,,
0.0,1.0,,,,,,espresso_01b.jpg,0.0,clock_7_5.png,5.0,42,0.561735,,,,,,,,,,,,,,,,,,0.0,26.0,26.0,26.0,1.0,,,,,,,,,,
0.0,1.0,,,,,,doily_13s.jpg,0.0,clock_7_6.png,5.0,42,0.698575,,,,,,,,,,,,,,,,,,0.0,27.0,27.0,27.0,1.0,,,,,,,,,,
0.0,1.0,,,,,,punch2_09s.jpg,0.0,clock_7_7.png,5.0,42,0.605185,,,,,,,,,,,,,,,,,,0.0,28.0,28.0,28.0,1.0,,,,,,,,,,
0.0,1.0,,,,,,keyboard_05s.jpg,0.0,clock_7_1.png,6.0,42,0.6999,,,,,,,,,,,,,,,,,,0.0,29.0,29.0,29.0,1.0,,,,,,,,,,
0.0,1.0,,,,,,lollipop_08s.jpg,0.0,clock_7_2.png,6.0,42,0.678985,,,,,,,,,,,,,,,,,,0.0,30.0,30.0,30.0,1.0,,,,,,,,,,
0.0,1.0,,,,,,soccer_ball_12s.jpg,0.0,clock_7_3.png,6.0,42,0.60712,,,,,,,,,,,,,,,,,,0.0,31.0,31.0,31.0,1.0,,,,,,,,,,
0.0,0.0,,,,,,keyboard_05s.jpg,1.0,clock_7_4.png,6.0,42,0.32318,,,,,,,,,,,,,,,,,,0.0,32.0,32.0,32.0,1.0,,,,,,,,,,
0.0,1.0,,,,,,aluminum_foil_08s.jpg,0.0,clock_7_5.png,6.0,42,0.5399,,,,,,,,,,,,,,,,,,0.0,33.0,33.0,33.0,1.0,,,,,,,,,,
0.0,1.0,,,,,,peach_04s.jpg,0.0,clock_7_6.png,6.0,42,0.511565,,,,,,,,,,,,,,,,,,0.0,34.0,34.0,34.0,1.0,,,,,,,,,,
0.0,1.0,,,,,,binder_21s.jpg,0.0,clock_7_7.png,6.0,42,0.545465,,,,,,,,,,,,,,,,,,0.0,35.0,35.0,35.0,1.0,,,,,,,,,,
,,,,,,,,1.0,,,42,,0.0,0.0,1.925625,,,,,,rug_09s.jpg,crayon_09s.jpg,,,,,,,,,,,,,0.0,0.0,0.0,0.0,1.0,,,,,
,,,,,,,,0.0,,,42,,0.0,1.0,1.71481,,,,,,bathtub_23s.jpg,letter_opener_03s.jpg,,,,,,,,,,,,,0.0,1.0,1.0,1.0,1.0,,,,,
,,,,,,,,0.0,,,42,,0.0,1.0,1.58483,,,,,,swing_set_15s.jpg,loom_05s.jpg,,,,,,,,,,,,,0.0,2.0,2.0,2.0,1.0,,,,,
,,,,,,,,1.0,,,42,,0.0,0.0,1.46802,,,,,,boomerang_06s.jpg,smokingpipe.jpg,,,,,,,,,,,,,0.0,3.0,3.0,3.0,1.0,,,,,
,,,,,,,,1.0,,,42,,0.0,0.0,2.006535,,,,,,frog_09s.jpg,espresso_01b.jpg,,,,,,,,,,,,,0.0,4.0,4.0,4.0,1.0,,,,,
,,,,,,,,1.0,,,42,,0.0,0.0,2.03467,,,,,,olive_05s.jpg,doily_13s.jpg,,,,,,,,,,,,,0.0,5.0,5.0,5.0,1.0,,,,,
,,,,,,,,,,,42,,,,,,,,,,,,,,,,,clock_present_1_12.xlsx,clock_compare_task_1_12.xlsx,,,,,,,,,,,0.0,0.0,0.0,0.0,1.0
0.0,1.0,,,,,,lasagna_06s.jpg,0.0,clock_5_1.png,1.0,42,2.44868,,,,,,,,,,,,,,,,,,0.0,0.0,0.0,0.0,1.0,,,,,,,,,,
1.0,1.0,,,,,,lasagna_06s.jpg,1.0,clock_5_2.png,1.0,42,1.40907,,,,,,,,,,,,,,,,,,0.0,1.0,1.0,1.0,1.0,,,,,,,,,,
0.0,1.0,,,,,,triangle_10s.jpg,0.0,clock_5_3.png,1.0,42,0.625115,,,,,,,,,,,,,,,,,,0.0,2.0,2.0,2.0,1.0,,,,,,,,,,
0.0,1.0,,,,,,recliner_02s.jpg,0.0,clock_5_4.png,1.0,42,0.626475,,,,,,,,,,,,,,,,,,0.0,3.0,3.0,3.0,1.0,,,,,,,,,,
0.0,1.0,,,,,,tab_09s.jpg,0.0,clock_5_5.png,1.0,42,0.430095,,,,,,,,,,,,,,,,,,0.0,4.0,4.0,4.0,1.0,,,,,,,,,,
0.0,1.0,,,,,,crate_05s.jpg,0.0,clock_6_1.png,2.0,42,1.436795,,,,,,,,,,,,,,,,,,0.0,5.0,5.0,5.0,1.0,,,,,,,,,,
0.0,1.0,,,,,,jukebox_03n.jpg,0.0,clock_6_2.png,2.0,42,0.66952,,,,,,,,,,,,,,,,,,0.0,6.0,6.0,6.0,1.0,,,,,,,,,,
0.0,1.0,,,,,,possum_09s.jpg,0.0,clock_6_3.png,2.0,42,0.56818,,,,,,,,,,,,,,,,,,0.0,7.0,7.0,7.0,1.0,,,,,,,,,,
0.0,1.0,,,,,,spacesuit_02s.jpg,0.0,clock_6_4.png,2.0,42,0.626125,,,,,,,,,,,,,,,,,,0.0,8.0,8.0,8.0,1.0,,,,,,,,,,
0.0,1.0,,,,,,recliner_02s.jpg,0.0,clock_6_5.png,2.0,42,1.45993,,,,,,,,,,,,,,,,,,0.0,9.0,9.0,9.0,1.0,,,,,,,,,,
0.0,1.0,,,,,,tab_09s.jpg,0.0,clock_6_6.png,2.0,42,0.669835,,,,,,,,,,,,,,,,,,0.0,10.0,10.0,10.0,1.0,,,,,,,,,,
0.0,1.0,,,,,,key_07s.jpg,0.0,clock_7_1.png,3.0,42,0.58965,,,,,,,,,,,,,,,,,,0.0,11.0,11.0,11.0,1.0,,,,,,,,,,
0.0,1.0,,,,,,badge_03s.jpg,0.0,clock_7_2.png,3.0,42,0.5363,,,,,,,,,,,,,,,,,,0.0,12.0,12.0,12.0,1.0,,,,,,,,,,
0.0,1.0,,,,,,fire_alarm_05s.jpg,0.0,clock_7_3.png,3.0,42,0.62973,,,,,,,,,,,,,,,,,,0.0,13.0,13.0,13.0,1.0,,,,,,,,,,
0.0,1.0,,,,,,fishhook_06s.jpg,0.0,clock_7_4.png,3.0,42,0.451635,,,,,,,,,,,,,,,,,,0.0,14.0,14.0,14.0,1.0,,,,,,,,,,
0.0,1.0,,,,,,tuxedo_01b.jpg,0.0,clock_7_5.png,3.0,42,0.733485,,,,,,,,,,,,,,,,,,0.0,15.0,15.0,15.0,1.0,,,,,,,,,,
0.0,1.0,,,,,,jukebox_03n.jpg,0.0,clock_7_6.png,3.0,42,0.73436,,,,,,,,,,,,,,,,,,0.0,16.0,16.0,16.0,1.0,,,,,,,,,,
0.0,1.0,,,,,,treasure_08s.jpg,0.0,clock_7_7.png,3.0,42,0.71335,,,,,,,,,,,,,,,,,,0.0,17.0,17.0,17.0,1.0,,,,,,,,,,
0.0,1.0,,,,,,tie_03s.jpg,0.0,clock_6_1.png,4.0,42,1.45842,,,,,,,,,,,,,,,,,,0.0,18.0,18.0,18.0,1.0,,,,,,,,,,
0.0,1.0,,,,,,lamb_04s.jpg,0.0,clock_6_2.png,4.0,42,0.52243,,,,,,,,,,,,,,,,,,0.0,19.0,19.0,19.0,1.0,,,,,,,,,,
0.0,1.0,,,,,,hummingbird_05s.jpg,0.0,clock_6_3.png,4.0,42,0.549555,,,,,,,,,,,,,,,,,,0.0,20.0,20.0,20.0,1.0,,,,,,,,,,
0.0,1.0,,,,,,glasses01a.jpg,0.0,clock_6_4.png,4.0,42,0.84525,,,,,,,,,,,,,,,,,,0.0,21.0,21.0,21.0,1.0,,,,,,,,,,
0.0,1.0,,,,,,puck_06s.jpg,0.0,clock_6_5.png,4.0,42,0.599295,,,,,,,,,,,,,,,,,,0.0,22.0,22.0,22.0,1.0,,,,,,,,,,
0.0,1.0,,,,,,mold2_04s.jpg,0.0,clock_6_6.png,4.0,42,0.577975,,,,,,,,,,,,,,,,,,0.0,23.0,23.0,23.0,1.0,,,,,,,,,,
0.0,1.0,,,,,,pocket_watch_16s.jpg,0.0,clock_5_1.png,5.0,42,0.862325,,,,,,,,,,,,,,,,,,0.0,24.0,24.0,24.0,1.0,,,,,,,,,,
0.0,1.0,,,,,,recliner_02s.jpg,0.0,clock_5_2.png,5.0,42,0.773105,,,,,,,,,,,,,,,,,,0.0,25.0,25.0,25.0,1.0,,,,,,,,,,
0.0,0.0,,,,,,pocket_watch_16s.jpg,1.0,clock_5_3.png,5.0,42,1.40708,,,,,,,,,,,,,,,,,,0.0,26.0,26.0,26.0,1.0,,,,,,,,,,
0.0,1.0,,,,,,prism_10s.jpg,0.0,clock_5_4.png,5.0,42,0.60079,,,,,,,,,,,,,,,,,,0.0,27.0,27.0,27.0,1.0,,,,,,,,,,
0.0,1.0,,,,,,piggy_bank_02s.jpg,0.0,clock_5_5.png,5.0,42,0.54546,,,,,,,,,,,,,,,,,,0.0,28.0,28.0,28.0,1.0,,,,,,,,,,
0.0,1.0,,,,,,dashboard_02s.jpg,0.0,clock_7_1.png,6.0,42,0.819785,,,,,,,,,,,,,,,,,,0.0,29.0,29.0,29.0,1.0,,,,,,,,,,
1.0,1.0,,,,,,dashboard_02s.jpg,1.0,clock_7_2.png,6.0,42,1.398145,,,,,,,,,,,,,,,,,,0.0,30.0,30.0,30.0,1.0,,,,,,,,,,
0.0,1.0,,,,,,beaker_01b.jpg,0.0,clock_7_3.png,6.0,42,0.614575,,,,,,,,,,,,,,,,,,0.0,31.0,31.0,31.0,1.0,,,,,,,,,,
0.0,1.0,,,,,,fondue_07s.jpg,0.0,clock_7_4.png,6.0,42,1.335145,,,,,,,,,,,,,,,,,,0.0,32.0,32.0,32.0,1.0,,,,,,,,,,
0.0,1.0,,,,,,seagull_01b.jpg,0.0,clock_7_5.png,6.0,42,0.754895,,,,,,,,,,,,,,,,,,0.0,33.0,33.0,33.0,1.0,,,,,,,,,,
0.0,0.0,,,,,,seagull_01b.jpg,1.0,clock_7_6.png,6.0,42,0.763465,,,,,,,,,,,,,,,,,,0.0,34.0,34.0,34.0,1.0,,,,,,,,,,
0.0,0.0,,,,,,beaker_01b.jpg,1.0,clock_7_7.png,6.0,42,1.097245,,,,,,,,,,,,,,,,,,0.0,35.0,35.0,35.0,1.0,,,,,,,,,,
,,,,,,,,1.0,,,42,,0.0,0.0,1.742875,,,,,,triangle_10s.jpg,crate_05s.jpg,,,,,,,,,,,,,0.0,0.0,0.0,0.0,1.0,,,,,
,,,,,,,,1.0,,,42,,1.0,1.0,1.290825,,,,,,spacesuit_02s.jpg,key_07s.jpg,,,,,,,,,,,,,0.0,1.0,1.0,1.0,1.0,,,,,
,,,,,,,,1.0,,,42,,0.0,0.0,1.186555,,,,,,tuxedo_01b.jpg,tie_03s.jpg,,,,,,,,,,,,,0.0,2.0,2.0,2.0,1.0,,,,,
,,,,,,,,1.0,,,42,,1.0,1.0,1.335105,,,,,,lamb_04s.jpg,puck_06s.jpg,,,,,,,,,,,,,0.0,3.0,3.0,3.0,1.0,,,,,
,,,,,,,,0.0,,,42,,0.0,1.0,2.099625,,,,,,treasure_08s.jpg,fishhook_06s.jpg,,,,,,,,,,,,,0.0,4.0,4.0,4.0,1.0,,,,,
,,,,,,,,1.0,,,42,,1.0,1.0,4.86202,,,,,,hummingbird_05s.jpg,mold2_04s.jpg,,,,,,,,,,,,,0.0,5.0,5.0,5.0,1.0,,,,,
,,,,,,,,,,,42,,,,,,,,,,,,,,,,,clock_present_2_12.xlsx,clock_compare_task_2_12.xlsx,,,,,,,,,,,0.0,1.0,1.0,1.0,1.0
0.0,1.0,,,,,,piano_13n.jpg,0.0,clock_7_1.png,1.0,42,1.288125,,,,,,,,,,,,,,,,,,0.0,0.0,0.0,0.0,1.0,,,,,,,,,,
0.0,1.0,,,,,,pincushion_10s.jpg,0.0,clock_7_2.png,1.0,42,0.850875,,,,,,,,,,,,,,,,,,0.0,1.0,1.0,1.0,1.0,,,,,,,,,,
0.0,1.0,,,,,,lid_10s.jpg,0.0,clock_7_3.png,1.0,42,0.830855,,,,,,,,,,,,,,,,,,0.0,2.0,2.0,2.0,1.0,,,,,,,,,,
0.0,1.0,,,,,,ivy_12s.jpg,0.0,clock_7_4.png,1.0,42,0.64601,,,,,,,,,,,,,,,,,,0.0,3.0,3.0,3.0,1.0,,,,,,,,,,
0.0,0.0,,,,,,piano_13n.jpg,1.0,clock_7_5.png,1.0,42,0.518425,,,,,,,,,,,,,,,,,,0.0,4.0,4.0,4.0,1.0,,,,,,,,,,
0.0,1.0,,,,,,insole_11s.jpg,0.0,clock_7_6.png,1.0,42,0.53776,,,,,,,,,,,,,,,,,,0.0,5.0,5.0,5.0,1.0,,,,,,,,,,
0.0,1.0,,,,,,outlet_10s.jpg,0.0,clock_7_7.png,1.0,42,0.62469,,,,,,,,,,,,,,,,,,0.0,6.0,6.0,6.0,1.0,,,,,,,,,,
0.0,1.0,,,,,,coconut_08s.jpg,0.0,clock_5_1.png,2.0,42,1.30034,,,,,,,,,,,,,,,,,,0.0,7.0,7.0,7.0,1.0,,,,,,,,,,
0.0,1.0,,,,,,rocket_02s.jpg,0.0,clock_5_2.png,2.0,42,1.030055,,,,,,,,,,,,,,,,,,0.0,8.0,8.0,8.0,1.0,,,,,,,,,,
0.0,0.0,,,,,,coconut_08s.jpg,1.0,clock_5_3.png,2.0,42,0.929355,,,,,,,,,,,,,,,,,,0.0,9.0,9.0,9.0,1.0,,,,,,,,,,
0.0,1.0,,,,,,pillbox_04s.jpg,0.0,clock_5_4.png,2.0,42,0.86349,,,,,,,,,,,,,,,,,,0.0,10.0,10.0,10.0,1.0,,,,,,,,,,
0.0,1.0,,,,,,glue_01s.jpg,0.0,clock_5_5.png,2.0,42,0.579545,,,,,,,,,,,,,,,,,,0.0,11.0,11.0,11.0,1.0,,,,,,,,,,
0.0,1.0,,,,,,syringe_02s.jpg,0.0,clock_7_1.png,3.0,42,2.17177,,,,,,,,,,,,,,,,,,0.0,12.0,12.0,12.0,1.0,,,,,,,,,,
0.0,0.0,,,,,,syringe_02s.jpg,1.0,clock_7_2.png,3.0,42,0.869645,,,,,,,,,,,,,,,,,,0.0,13.0,13.0,13.0,1.0,,,,,,,,,,
0.0,1.0,,,,,,stopwatch_04s.jpg,0.0,clock_7_3.png,3.0,42,0.713755,,,,,,,,,,,,,,,,,,0.0,14.0,14.0,14.0,1.0,,,,,,,,,,
0.0,1.0,,,,,,mud_13s.jpg,0.0,clock_7_4.png,3.0,42,0.662755,,,,,,,,,,,,,,,,,,0.0,15.0,15.0,15.0,1.0,,,,,,,,,,
0.0,1.0,,,,,,blender_08s.jpg,0.0,clock_7_5.png,3.0,42,0.4964,,,,,,,,,,,,,,,,,,0.0,16.0,16.0,16.0,1.0,,,,,,,,,,
0.0,1.0,,,,,,roller_coaster_07s.jpg,0.0,clock_7_6.png,3.0,42,0.498835,,,,,,,,,,,,,,,,,,0.0,17.0,17.0,17.0,1.0,,,,,,,,,,
0.0,0.0,,,,,,syringe_02s.jpg,1.0,clock_7_7.png,3.0,42,1.11693,,,,,,,,,,,,,,,,,,0.0,18.0,18.0,18.0,1.0,,,,,,,,,,
0.0,1.0,,,,,,pineapple_12s.jpg,0.0,clock_5_1.png,4.0,42,0.59912,,,,,,,,,,,,,,,,,,0.0,19.0,19.0,19.0,1.0,,,,,,,,,,
1.0,1.0,,,,,,pineapple_12s.jpg,1.0,clock_5_2.png,4.0,42,1.399125,,,,,,,,,,,,,,,,,,0.0,20.0,20.0,20.0,1.0,,,,,,,,,,
0.0,1.0,,,,,,target_11s.jpg,0.0,clock_5_3.png,4.0,42,0.6189,,,,,,,,,,,,,,,,,,0.0,21.0,21.0,21.0,1.0,,,,,,,,,,
1.0,1.0,,,,,,target_11s.jpg,1.0,clock_5_4.png,4.0,42,1.147395,,,,,,,,,,,,,,,,,,0.0,22.0,22.0,22.0,1.0,,,,,,,,,,
1.0,1.0,,,,,,target_11s.jpg,1.0,clock_5_5.png,4.0,42,1.20421,,,,,,,,,,,,,,,,,,0.0,23.0,23.0,23.0,1.0,,,,,,,,,,
0.0,1.0,,,,,,bolo_tie_08s.jpg,0.0,clock_6_1.png,5.0,42,0.83857,,,,,,,,,,,,,,,,,,0.0,24.0,24.0,24.0,1.0,,,,,,,,,,
0.0,1.0,,,,,,screwdriver02a.jpg,0.0,clock_6_2.png,5.0,42,0.654395,,,,,,,,,,,,,,,,,,0.0,25.0,25.0,25.0,1.0,,,,,,,,,,
0.0,1.0,,,,,,stingray_02s.jpg,0.0,clock_6_3.png,5.0,42,0.562425,,,,,,,,,,,,,,,,,,0.0,26.0,26.0,26.0,1.0,,,,,,,,,,
0.0,1.0,,,,,,mango_09s.jpg,0.0,clock_6_4.png,5.0,42,0.57219,,,,,,,,,,,,,,,,,,0.0,27.0,27.0,27.0,1.0,,,,,,,,,,
0.0,1.0,,,,,,stethoscope_01b.jpg,0.0,clock_6_5.png,5.0,42,0.484975,,,,,,,,,,,,,,,,,,0.0,28.0,28.0,28.0,1.0,,,,,,,,,,
0.0,1.0,,,,,,mannequin_05s.jpg,0.0,clock_6_6.png,5.0,42,1.401215,,,,,,,,,,,,,,,,,,0.0,29.0,29.0,29.0,1.0,,,,,,,,,,
0.0,1.0,,,,,,ginger_09s.jpg,0.0,clock_6_1.png,6.0,42,1.76806,,,,,,,,,,,,,,,,,,0.0,30.0,30.0,30.0,1.0,,,,,,,,,,
0.0,1.0,,,,,,ice-cream_cone_06s.jpg,0.0,clock_6_2.png,6.0,42,2.418455,,,,,,,,,,,,,,,,,,0.0,31.0,31.0,31.0,1.0,,,,,,,,,,
0.0,1.0,,,,,,rolling_pin_02s.jpg,0.0,clock_6_3.png,6.0,42,0.845865,,,,,,,,,,,,,,,,,,0.0,32.0,32.0,32.0,1.0,,,,,,,,,,
1.0,1.0,,,,,,rolling_pin_02s.jpg,1.0,clock_6_4.png,6.0,42,1.68234,,,,,,,,,,,,,,,,,,0.0,33.0,33.0,33.0,1.0,,,,,,,,,,
0.0,0.0,,,,,,ginger_09s.jpg,1.0,clock_6_5.png,6.0,42,0.5438,,,,,,,,,,,,,,,,,,0.0,34.0,34.0,34.0,1.0,,,,,,,,,,
0.0,1.0,,,,,,toilet_07s.jpg,0.0,clock_6_6.png,6.0,42,0.538725,,,,,,,,,,,,,,,,,,0.0,35.0,35.0,35.0,1.0,,,,,,,,,,
,,,,,,,,1.0,,,42,,1.0,1.0,1.819055,,,,,,stethoscope_01b.jpg,ice-cream_cone_06s.jpg,,,,,,,,,,,,,0.0,0.0,0.0,0.0,1.0,,,,,
,,,,,,,,0.0,,,42,,0.0,1.0,1.606085,,,,,,rocket_02s.jpg,insole_11s.jpg,,,,,,,,,,,,,0.0,1.0,1.0,1.0,1.0,,,,,
,,,,,,,,1.0,,,42,,1.0,1.0,1.17849,,,,,,glue_01s.jpg,stopwatch_04s.jpg,,,,,,,,,,,,,0.0,2.0,2.0,2.0,1.0,,,,,
,,,,,,,,0.0,,,42,,0.0,1.0,0.932135,,,,,,outlet_10s.jpg,ivy_12s.jpg,,,,,,,,,,,,,0.0,3.0,3.0,3.0,1.0,,,,,
,,,,,,,,1.0,,,42,,0.0,0.0,1.26652,,,,,,bolo_tie_08s.jpg,mango_09s.jpg,,,,,,,,,,,,,0.0,4.0,4.0,4.0,1.0,,,,,
,,,,,,,,1.0,,,42,,0.0,0.0,2.191795,,,,,,stingray_02s.jpg,mannequin_05s.jpg,,,,,,,,,,,,,0.0,5.0,5.0,5.0,1.0,,,,,
,,,,,,,,,,,42,,,,,,,,,,,,,,,,,clock_present_3_12.xlsx,clock_compare_task_3_12.xlsx,,,,,,,,,,,0.0,2.0,2.0,2.0,1.0
0.0,1.0,,,,,,roulette_wheel_04s.jpg,0.0,clock_7_1.png,1.0,42,2.218735,,,,,,,,,,,,,,,,,,0.0,0.0,0.0,0.0,1.0,,,,,,,,,,
0.0,1.0,,,,,,gas_mask_11s.jpg,0.0,clock_7_2.png,1.0,42,0.84752,,,,,,,,,,,,,,,,,,0.0,1.0,1.0,1.0,1.0,,,,,,,,,,
0.0,1.0,,,,,,laser_pointer_02s.jpg,0.0,clock_7_3.png,1.0,42,1.92041,,,,,,,,,,,,,,,,,,0.0,2.0,2.0,2.0,1.0,,,,,,,,,,
0.0,1.0,,,,,,coral_08s.jpg,0.0,clock_7_4.png,1.0,42,2.38452,,,,,,,,,,,,,,,,,,0.0,3.0,3.0,3.0,1.0,,,,,,,,,,
0.0,1.0,,,,,,owl_15s.jpg,0.0,clock_7_5.png,1.0,42,1.72265,,,,,,,,,,,,,,,,,,0.0,4.0,4.0,4.0,1.0,,,,,,,,,,
0.0,1.0,,,,,,cereal_04s.jpg,0.0,clock_7_6.png,1.0,42,2.029155,,,,,,,,,,,,,,,,,,0.0,5.0,5.0,5.0,1.0,,,,,,,,,,
0.0,1.0,,,,,,kettle_08s.jpg,0.0,clock_7_7.png,1.0,42,0.76376,,,,,,,,,,,,,,,,,,0.0,6.0,6.0,6.0,1.0,,,,,,,,,,
0.0,1.0,,,,,,polaroid_05s.jpg,0.0,clock_7_1.png,2.0,42,1.331045,,,,,,,,,,,,,,,,,,0.0,7.0,7.0,7.0,1.0,,,,,,,,,,
0.0,1.0,,,,,,jalapeno_15s.jpg,0.0,clock_7_2.png,2.0,42,1.923205,,,,,,,,,,,,,,,,,,0.0,8.0,8.0,8.0,1.0,,,,,,,,,,
0.0,1.0,,,,,,joystick_01b.jpg,0.0,clock_7_3.png,2.0,42,2.262405,,,,,,,,,,,,,,,,,,0.0,9.0,9.0,9.0,1.0,,,,,,,,,,
0.0,1.0,,,,,,omelet_07s.jpg,0.0,clock_7_4.png,2.0,42,1.590685,,,,,,,,,,,,,,,,,,0.0,10.0,10.0,10.0,1.0,,,,,,,,,,
1.0,1.0,,,,,,omelet_07s.jpg,1.0,clock_7_5.png,2.0,42,1.241595,,,,,,,,,,,,,,,,,,0.0,11.0,11.0,11.0,1.0,,,,,,,,,,
0.0,1.0,,,,,,ant_12s.jpg,0.0,clock_7_6.png,2.0,42,0.765405,,,,,,,,,,,,,,,,,,0.0,12.0,12.0,12.0,1.0,,,,,,,,,,
0.0,1.0,,,,,,milk_02s.jpg,0.0,clock_7_7.png,2.0,42,0.635895,,,,,,,,,,,,,,,,,,0.0,13.0,13.0,13.0,1.0,,,,,,,,,,
0.0,1.0,,,,,,cotton_candy_01b.jpg,0.0,clock_5_1.png,3.0,42,0.566575,,,,,,,,,,,,,,,,,,0.0,14.0,14.0,14.0,1.0,,,,,,,,,,
0.0,1.0,,,,,,ram_05s.jpg,0.0,clock_5_2.png,3.0,42,1.062885,,,,,,,,,,,,,,,,,,0.0,15.0,15.0,15.0,1.0,,,,,,,,,,
0.0,1.0,,,,,,coral_08s.jpg,0.0,clock_5_3.png,3.0,42,1.05031,,,,,,,,,,,,,,,,,,0.0,16.0,16.0,16.0,1.0,,,,,,,,,,
0.0,1.0,,,,,,incense_02s.jpg,0.0,clock_5_4.png,3.0,42,0.466045,,,,,,,,,,,,,,,,,,0.0,17.0,17.0,17.0,1.0,,,,,,,,,,
0.0,1.0,,,,,,medal_04s.jpg,0.0,clock_5_5.png,3.0,42,0.547235,,,,,,,,,,,,,,,,,,0.0,18.0,18.0,18.0,1.0,,,,,,,,,,
0.0,1.0,,,,,,eyedropper_12s.jpg,0.0,clock_6_1.png,4.0,42,0.53262,,,,,,,,,,,,,,,,,,0.0,19.0,19.0,19.0,1.0,,,,,,,,,,
0.0,1.0,,,,,,touchpad_11s.jpg,0.0,clock_6_2.png,4.0,42,0.501565,,,,,,,,,,,,,,,,,,0.0,20.0,20.0,20.0,1.0,,,,,,,,,,
0.0,1.0,,,,,,fireworks_18s.jpg,0.0,clock_6_3.png,4.0,42,2.320745,,,,,,,,,,,,,,,,,,0.0,21.0,21.0,21.0,1.0,,,,,,,,,,
0.0,1.0,,,,,,cushion_08s.jpg,0.0,clock_6_4.png,4.0,42,0.474435,,,,,,,,,,,,,,,,,,0.0,22.0,22.0,22.0,1.0,,,,,,,,,,
0.0,1.0,,,,,,butter_14s.jpg,0.0,clock_6_5.png,4.0,42,0.4464,,,,,,,,,,,,,,,,,,0.0,23.0,23.0,23.0,1.0,,,,,,,,,,
0.0,1.0,,,,,,gazelle_10s.jpg,0.0,clock_6_6.png,4.0,42,0.51781,,,,,,,,,,,,,,,,,,0.0,24.0,24.0,24.0,1.0,,,,,,,,,,
0.0,1.0,,,,,,gingerbread_man_03s.jpg,0.0,clock_5_1.png,5.0,42,0.295705,,,,,,,,,,,,,,,,,,0.0,25.0,25.0,25.0,1.0,,,,,,,,,,
0.0,1.0,,,,,,lion_18s.jpg,0.0,clock_5_2.png,5.0,42,2.07181,,,,,,,,,,,,,,,,,,0.0,26.0,26.0,26.0,1.0,,,,,,,,,,
0.0,1.0,,,,,,rhinoceros_02s.jpg,0.0,clock_5_3.png,5.0,42,1.18503,,,,,,,,,,,,,,,,,,0.0,27.0,27.0,27.0,1.0,,,,,,,,,,
0.0,1.0,,,,,,latch_15s.jpg,0.0,clock_5_4.png,5.0,42,1.0202,,,,,,,,,,,,,,,,,,0.0,28.0,28.0,28.0,1.0,,,,,,,,,,
0.0,1.0,,,,,,megaphone_03s.jpg,0.0,clock_5_5.png,5.0,42,0.59589,,,,,,,,,,,,,,,,,,0.0,29.0,29.0,29.0,1.0,,,,,,,,,,
0.0,1.0,,,,,,plaster_cast_13s.jpg,0.0,clock_6_1.png,6.0,42,1.054795,,,,,,,,,,,,,,,,,,0.0,30.0,30.0,30.0,1.0,,,,,,,,,,
0.0,1.0,,,,,,marshmallow_08s.jpg,0.0,clock_6_2.png,6.0,42,0.7195,,,,,,,,,,,,,,,,,,0.0,31.0,31.0,31.0,1.0,,,,,,,,,,
0.0,1.0,,,,,,medal_04s.jpg,0.0,clock_6_3.png,6.0,42,0.85786,,,,,,,,,,,,,,,,,,0.0,32.0,32.0,32.0,1.0,,,,,,,,,,
0.0,0.0,,,,,,marshmallow_08s.jpg,1.0,clock_6_4.png,6.0,42,0.820705,,,,,,,,,,,,,,,,,,0.0,33.0,33.0,33.0,1.0,,,,,,,,,,
1.0,1.0,,,,,,plaster_cast_13s.jpg,1.0,clock_6_5.png,6.0,42,1.494945,,,,,,,,,,,,,,,,,,0.0,34.0,34.0,34.0,1.0,,,,,,,,,,
0.0,1.0,,,,,,mussel_11s.jpg,0.0,clock_6_6.png,6.0,42,1.486045,,,,,,,,,,,,,,,,,,0.0,35.0,35.0,35.0,1.0,,,,,,,,,,
,,,,,,,,0.0,,,42,,0.0,1.0,2.602195,,,,,,polaroid_05s.jpg,owl_15s.jpg,,,,,,,,,,,,,0.0,0.0,0.0,0.0,1.0,,,,,
,,,,,,,,1.0,,,42,,0.0,0.0,0.98776,,,,,,cereal_04s.jpg,jalapeno_15s.jpg,,,,,,,,,,,,,0.0,1.0,1.0,1.0,1.0,,,,,
,,,,,,,,1.0,,,42,,0.0,0.0,1.35161,,,,,,kettle_08s.jpg,joystick_01b.jpg,,,,,,,,,,,,,0.0,2.0,2.0,2.0,1.0,,,,,
,,,,,,,,1.0,,,42,,0.0,0.0,2.26891,,,,,,cotton_candy_01b.jpg,incense_02s.jpg,,,,,,,,,,,,,0.0,3.0,3.0,3.0,1.0,,,,,
,,,,,,,,0.0,,,42,,1.0,0.0,1.654015,,,,,,cushion_08s.jpg,eyedropper_12s.jpg,,,,,,,,,,,,,0.0,4.0,4.0,4.0,1.0,,,,,
,,,,,,,,1.0,,,42,,1.0,1.0,0.95124,,,,,,fireworks_18s.jpg,gazelle_10s.jpg,,,,,,,,,,,,,0.0,5.0,5.0,5.0,1.0,,,,,
,,,,,,,,,,,42,,,,,,,,,,,,,,,,,clock_present_4_12.xlsx,clock_compare_task_4_12.xlsx,,,,,,,,,,,0.0,3.0,3.0,3.0,1.0
0.0,1.0,,,,,,pillow_03s.jpg,0.0,clock_6_1.png,1.0,42,0.443555,,,,,,,,,,,,,,,,,,0.0,0.0,0.0,0.0,1.0,,,,,,,,,,
0.0,1.0,,,,,,lavender_10s.jpg,0.0,clock_6_2.png,1.0,42,0.848275,,,,,,,,,,,,,,,,,,0.0,1.0,1.0,1.0,1.0,,,,,,,,,,
0.0,0.0,,,,,,pillow_03s.jpg,1.0,clock_6_3.png,1.0,42,2.05118,,,,,,,,,,,,,,,,,,0.0,2.0,2.0,2.0,1.0,,,,,,,,,,
0.0,1.0,,,,,,tiara_05s.jpg,0.0,clock_6_4.png,1.0,42,1.33203,,,,,,,,,,,,,,,,,,0.0,3.0,3.0,3.0,1.0,,,,,,,,,,
0.0,1.0,,,,,,mushroom_10n.jpg,0.0,clock_6_5.png,1.0,42,0.85147,,,,,,,,,,,,,,,,,,0.0,4.0,4.0,4.0,1.0,,,,,,,,,,
0.0,1.0,,,,,,leash_10s.jpg,0.0,clock_6_6.png,1.0,42,0.501,,,,,,,,,,,,,,,,,,0.0,5.0,5.0,5.0,1.0,,,,,,,,,,
0.0,1.0,,,,,,stump_02s.jpg,0.0,clock_5_1.png,2.0,42,0.736795,,,,,,,,,,,,,,,,,,0.0,6.0,6.0,6.0,1.0,,,,,,,,,,
0.0,1.0,,,,,,treadmill_06s.jpg,0.0,clock_5_2.png,2.0,42,1.28454,,,,,,,,,,,,,,,,,,0.0,7.0,7.0,7.0,1.0,,,,,,,,,,
0.0,1.0,,,,,,pumpkin_03s.jpg,0.0,clock_5_3.png,2.0,42,0.57191,,,,,,,,,,,,,,,,,,0.0,8.0,8.0,8.0,1.0,,,,,,,,,,
0.0,1.0,,,,,,crystal_ball_12s.jpg,0.0,clock_5_4.png,2.0,42,1.013925,,,,,,,,,,,,,,,,,,0.0,9.0,9.0,9.0,1.0,,,,,,,,,,
0.0,1.0,,,,,,puffin_19s.jpg,0.0,clock_5_5.png,2.0,42,0.97612,,,,,,,,,,,,,,,,,,0.0,10.0,10.0,10.0,1.0,,,,,,,,,,
0.0,1.0,,,,,,mousetrap_15n.jpg,0.0,clock_5_1.png,3.0,42,0.593155,,,,,,,,,,,,,,,,,,0.0,11.0,11.0,11.0,1.0,,,,,,,,,,
0.0,0.0,,,,,,mousetrap_15n.jpg,1.0,clock_5_2.png,3.0,42,0.84449,,,,,,,,,,,,,,,,,,0.0,12.0,12.0,12.0,1.0,,,,,,,,,,
0.0,1.0,,,,,,rope_16s.jpg,0.0,clock_5_3.png,3.0,42,0.70027,,,,,,,,,,,,,,,,,,0.0,13.0,13.0,13.0,1.0,,,,,,,,,,
0.0,1.0,,,,,,loveseat_08s.jpg,0.0,clock_5_4.png,3.0,42,0.47806,,,,,,,,,,,,,,,,,,0.0,14.0,14.0,14.0,1.0,,,,,,,,,,
0.0,1.0,,,,,,laundry_basket_11s.jpg,0.0,clock_5_5.png,3.0,42,0.574345,,,,,,,,,,,,,,,,,,0.0,15.0,15.0,15.0,1.0,,,,,,,,,,
0.0,1.0,,,,,,cardinal_07s.jpg,0.0,clock_7_1.png,4.0,42,0.65018,,,,,,,,,,,,,,,,,,0.0,16.0,16.0,16.0,1.0,,,,,,,,,,
0.0,1.0,,,,,,squirrel_02s.jpg,0.0,clock_7_2.png,4.0,42,0.61997,,,,,,,,,,,,,,,,,,0.0,17.0,17.0,17.0,1.0,,,,,,,,,,
0.0,0.0,,,,,,squirrel_02s.jpg,1.0,clock_7_3.png,4.0,42,0.70181,,,,,,,,,,,,,,,,,,0.0,18.0,18.0,18.0,1.0,,,,,,,,,,
0.0,1.0,,,,,,funnel_01b.jpg,0.0,clock_7_4.png,4.0,42,0.415375,,,,,,,,,,,,,,,,,,0.0,19.0,19.0,19.0,1.0,,,,,,,,,,
1.0,1.0,,,,,,squirrel_02s.jpg,1.0,clock_7_5.png,4.0,42,1.181945,,,,,,,,,,,,,,,,,,0.0,20.0,20.0,20.0,1.0,,,,,,,,,,
1.0,1.0,,,,,,cardinal_07s.jpg,1.0,clock_7_6.png,4.0,42,1.810595,,,,,,,,,,,,,,,,,,0.0,21.0,21.0,21.0,1.0,,,,,,,,,,
0.0,1.0,,,,,,ink_08s.jpg,0.0,clock_7_7.png,4.0,42,0.514295,,,,,,,,,,,,,,,,,,0.0,22.0,22.0,22.0,1.0,,,,,,,,,,
0.0,1.0,,,,,,toad_09s.jpg,0.0,clock_7_1.png,5.0,42,0.766875,,,,,,,,,,,,,,,,,,0.0,23.0,23.0,23.0,1.0,,,,,,,,,,
0.0,1.0,,,,,,bagel_15s.jpg,0.0,clock_7_2.png,5.0,42,0.99098,,,,,,,,,,,,,,,,,,0.0,24.0,24.0,24.0,1.0,,,,,,,,,,
1.0,1.0,,,,,,bagel_15s.jpg,1.0,clock_7_3.png,5.0,42,2.095545,,,,,,,,,,,,,,,,,,0.0,25.0,25.0,25.0,1.0,,,,,,,,,,
0.0,1.0,,,,,,treadmill_06s.jpg,0.0,clock_7_4.png,5.0,42,0.58224,,,,,,,,,,,,,,,,,,0.0,26.0,26.0,26.0,1.0,,,,,,,,,,
0.0,1.0,,,,,,rhubarb_03s.jpg,0.0,clock_7_5.png,5.0,42,0.5408,,,,,,,,,,,,,,,,,,0.0,27.0,27.0,27.0,1.0,,,,,,,,,,
0.0,1.0,,,,,,kayak_08s.jpg,0.0,clock_7_6.png,5.0,42,0.50358,,,,,,,,,,,,,,,,,,0.0,28.0,28.0,28.0,1.0,,,,,,,,,,
0.0,1.0,,,,,,cardinal_07s.jpg,0.0,clock_7_7.png,5.0,42,0.72013,,,,,,,,,,,,,,,,,,0.0,29.0,29.0,29.0,1.0,,,,,,,,,,
0.0,1.0,,,,,,pear_02s.jpg,0.0,clock_6_1.png,6.0,42,0.506335,,,,,,,,,,,,,,,,,,0.0,30.0,30.0,30.0,1.0,,,,,,,,,,
0.0,1.0,,,,,,limousine_12s.jpg,0.0,clock_6_2.png,6.0,42,0.530745,,,,,,,,,,,,,,,,,,0.0,31.0,31.0,31.0,1.0,,,,,,,,,,
0.0,0.0,,,,,,limousine_12s.jpg,1.0,clock_6_3.png,6.0,42,0.525165,,,,,,,,,,,,,,,,,,0.0,32.0,32.0,32.0,1.0,,,,,,,,,,
0.0,1.0,,,,,,taxi_15s.jpg,0.0,clock_6_4.png,6.0,42,0.6861,,,,,,,,,,,,,,,,,,0.0,33.0,33.0,33.0,1.0,,,,,,,,,,
0.0,1.0,,,,,,compass_10n.jpg,0.0,clock_6_5.png,6.0,42,0.55228,,,,,,,,,,,,,,,,,,0.0,34.0,34.0,34.0,1.0,,,,,,,,,,
0.0,1.0,,,,,,razor_12s.jpg,0.0,clock_6_6.png,6.0,42,1.80265,,,,,,,,,,,,,,,,,,0.0,35.0,35.0,35.0,1.0,,,,,,,,,,
,,,,,,,,0.0,,,42,,1.0,0.0,2.621455,,,,,,pumpkin_03s.jpg,leash_10s.jpg,,,,,,,,,,,,,0.0,0.0,0.0,0.0,1.0,,,,,
,,,,,,,,0.0,,,42,,1.0,0.0,1.230835,,,,,,rope_16s.jpg,puffin_19s.jpg,,,,,,,,,,,,,0.0,1.0,1.0,1.0,1.0,,,,,
,,,,,,,,1.0,,,42,,0.0,0.0,1.150665,,,,,,tiara_05s.jpg,stump_02s.jpg,,,,,,,,,,,,,0.0,2.0,2.0,2.0,1.0,,,,,
,,,,,,,,1.0,,,42,,0.0,0.0,1.063675,,,,,,lavender_10s.jpg,mushroom_10n.jpg,,,,,,,,,,,,,0.0,3.0,3.0,3.0,1.0,,,,,
,,,,,,,,1.0,,,42,,1.0,1.0,1.582625,,,,,,funnel_01b.jpg,ink_08s.jpg,,,,,,,,,,,,,0.0,4.0,4.0,4.0,1.0,,,,,
,,,,,,,,1.0,,,42,,1.0,1.0,2.42362,,,,,,pear_02s.jpg,taxi_15s.jpg,,,,,,,,,,,,,0.0,5.0,5.0,5.0,1.0,,,,,
,,,,,,,,,,,42,,,,,,,,,,,,,,,,,clock_present_5_12.xlsx,clock_compare_task_5_12.xlsx,,,,,,,,,,,0.0,4.0,4.0,4.0,1.0
0.0,1.0,,,,,,turnstile_08s.jpg,0.0,clock_7_1.png,1.0,42,0.53194,,,,,,,,,,,,,,,,,,0.0,0.0,0.0,0.0,1.0,,,,,,,,,,
0.0,1.0,,,,,,knitting_needle_04s.jpg,0.0,clock_7_2.png,1.0,42,1.91941,,,,,,,,,,,,,,,,,,0.0,1.0,1.0,1.0,1.0,,,,,,,,,,
1.0,1.0,,,,,,turnstile_08s.jpg,1.0,clock_7_3.png,1.0,42,1.563625,,,,,,,,,,,,,,,,,,0.0,2.0,2.0,2.0,1.0,,,,,,,,,,
1.0,1.0,,,,,,turnstile_08s.jpg,1.0,clock_7_4.png,1.0,42,1.37225,,,,,,,,,,,,,,,,,,0.0,3.0,3.0,3.0,1.0,,,,,,,,,,
1.0,1.0,,,,,,knitting_needle_04s.jpg,1.0,clock_7_5.png,1.0,42,1.414455,,,,,,,,,,,,,,,,,,0.0,4.0,4.0,4.0,1.0,,,,,,,,,,
0.0,1.0,,,,,,coat_rack_01b.jpg,0.0,clock_7_6.png,1.0,42,0.56148,,,,,,,,,,,,,,,,,,0.0,5.0,5.0,5.0,1.0,,,,,,,,,,
1.0,1.0,,,,,,turnstile_08s.jpg,1.0,clock_7_7.png,1.0,42,1.25494,,,,,,,,,,,,,,,,,,0.0,6.0,6.0,6.0,1.0,,,,,,,,,,
0.0,1.0,,,,,,eiffeltower.jpg,0.0,clock_7_1.png,2.0,42,0.655575,,,,,,,,,,,,,,,,,,0.0,7.0,7.0,7.0,1.0,,,,,,,,,,
0.0,1.0,,,,,,jelly_bean_06s.jpg,0.0,clock_7_2.png,2.0,42,1.105325,,,,,,,,,,,,,,,,,,0.0,8.0,8.0,8.0,1.0,,,,,,,,,,
0.0,1.0,,,,,,racehorse_03s.jpg,0.0,clock_7_3.png,2.0,42,0.77227,,,,,,,,,,,,,,,,,,0.0,9.0,9.0,9.0,1.0,,,,,,,,,,
0.0,0.0,,,,,,jelly_bean_06s.jpg,1.0,clock_7_4.png,2.0,42,0.74826,,,,,,,,,,,,,,,,,,0.0,10.0,10.0,10.0,1.0,,,,,,,,,,
0.0,1.0,,,,,,turnstile_08s.jpg,0.0,clock_7_5.png,2.0,42,1.03316,,,,,,,,,,,,,,,,,,0.0,11.0,11.0,11.0,1.0,,,,,,,,,,
0.0,0.0,,,,,,racehorse_03s.jpg,1.0,clock_7_6.png,2.0,42,0.8635,,,,,,,,,,,,,,,,,,0.0,12.0,12.0,12.0,1.0,,,,,,,,,,
0.0,1.0,,,,,,cape_11s.jpg,0.0,clock_7_7.png,2.0,42,0.54529,,,,,,,,,,,,,,,,,,0.0,13.0,13.0,13.0,1.0,,,,,,,,,,
0.0,1.0,,,,,,birthday_cake_09s.jpg,0.0,clock_5_1.png,3.0,42,0.619285,,,,,,,,,,,,,,,,,,0.0,14.0,14.0,14.0,1.0,,,,,,,,,,
0.0,1.0,,,,,,refrigerator_07s.jpg,0.0,clock_5_2.png,3.0,42,0.862355,,,,,,,,,,,,,,,,,,0.0,15.0,15.0,15.0,1.0,,,,,,,,,,
0.0,1.0,,,,,,turnstile_08s.jpg,0.0,clock_5_3.png,3.0,42,0.60512,,,,,,,,,,,,,,,,,,0.0,16.0,16.0,16.0,1.0,,,,,,,,,,
0.0,1.0,,,,,,mattress_01s.jpg,0.0,clock_5_4.png,3.0,42,1.017195,,,,,,,,,,,,,,,,,,0.0,17.0,17.0,17.0,1.0,,,,,,,,,,
0.0,1.0,,,,,,chalice_10s.jpg,0.0,clock_5_5.png,3.0,42,0.651055,,,,,,,,,,,,,,,,,,0.0,18.0,18.0,18.0,1.0,,,,,,,,,,
0.0,1.0,,,,,,measuring_cup_02s.jpg,0.0,clock_6_1.png,4.0,42,0.55756,,,,,,,,,,,,,,,,,,0.0,19.0,19.0,19.0,1.0,,,,,,,,,,
0.0,0.0,,,,,,measuring_cup_02s.jpg,1.0,clock_6_2.png,4.0,42,0.63,,,,,,,,,,,,,,,,,,0.0,20.0,20.0,20.0,1.0,,,,,,,,,,
0.0,1.0,,,,,,jewel_01b.jpg,0.0,clock_6_3.png,4.0,42,0.663405,,,,,,,,,,,,,,,,,,0.0,21.0,21.0,21.0,1.0,,,,,,,,,,
0.0,1.0,,,,,,tennis_ball_06s.jpg,0.0,clock_6_4.png,4.0,42,0.55464,,,,,,,,,,,,,,,,,,0.0,22.0,22.0,22.0,1.0,,,,,,,,,,
0.0,1.0,,,,,,knot_01b.jpg,0.0,clock_6_5.png,4.0,42,0.614715,,,,,,,,,,,,,,,,,,0.0,23.0,23.0,23.0,1.0,,,,,,,,,,
0.0,1.0,,,,,,moth_06n.jpg,0.0,clock_6_6.png,4.0,42,0.566225,,,,,,,,,,,,,,,,,,0.0,24.0,24.0,24.0,1.0,,,,,,,,,,
0.0,1.0,,,,,,perfume_06s.jpg,0.0,clock_6_1.png,5.0,42,0.654345,,,,,,,,,,,,,,,,,,0.0,25.0,25.0,25.0,1.0,,,,,,,,,,
0.0,1.0,,,,,,paper_bag_12s.jpg,0.0,clock_6_2.png,5.0,42,0.65054,,,,,,,,,,,,,,,,,,0.0,26.0,26.0,26.0,1.0,,,,,,,,,,
0.0,1.0,,,,,,sledgehammer_03s.jpg,0.0,clock_6_3.png,5.0,42,0.60044,,,,,,,,,,,,,,,,,,0.0,27.0,27.0,27.0,1.0,,,,,,,,,,
0.0,1.0,,,,,,mattress_01s.jpg,0.0,clock_6_4.png,5.0,42,0.810415,,,,,,,,,,,,,,,,,,0.0,28.0,28.0,28.0,1.0,,,,,,,,,,
0.0,1.0,,,,,,crab_16s.jpg,0.0,clock_6_5.png,5.0,42,0.617865,,,,,,,,,,,,,,,,,,0.0,29.0,29.0,29.0,1.0,,,,,,,,,,
0.0,1.0,,,,,,crossbow_10s.jpg,0.0,clock_6_6.png,5.0,42,0.530615,,,,,,,,,,,,,,,,,,0.0,30.0,30.0,30.0,1.0,,,,,,,,,,
0.0,1.0,,,,,,frame_06s.jpg,0.0,clock_5_1.png,6.0,42,0.649085,,,,,,,,,,,,,,,,,,0.0,31.0,31.0,31.0,1.0,,,,,,,,,,
0.0,1.0,,,,,,pipe1_10s.jpg,0.0,clock_5_2.png,6.0,42,0.61541,,,,,,,,,,,,,,,,,,0.0,32.0,32.0,32.0,1.0,,,,,,,,,,
0.0,1.0,,,,,,smoothie_09s.jpg,0.0,clock_5_3.png,6.0,42,0.56526,,,,,,,,,,,,,,,,,,0.0,33.0,33.0,33.0,1.0,,,,,,,,,,
0.0,1.0,,,,,,reindeer_08s.jpg,0.0,clock_5_4.png,6.0,42,0.524435,,,,,,,,,,,,,,,,,,0.0,34.0,34.0,34.0,1.0,,,,,,,,,,
0.0,1.0,,,,,,saddle_06s.jpg,0.0,clock_5_5.png,6.0,42,0.549795,,,,,,,,,,,,,,,,,,0.0,35.0,35.0,35.0,1.0,,,,,,,,,,
,,,,,,,,0.0,,,42,,1.0,0.0,1.39389,,,,,,perfume_06s.jpg,tennis_ball_06s.jpg,,,,,,,,,,,,,0.0,0.0,0.0,0.0,1.0,,,,,
,,,,,,,,0.0,,,42,,1.0,0.0,3.70222,,,,,,paper_bag_12s.jpg,knot_01b.jpg,,,,,,,,,,,,,0.0,1.0,1.0,1.0,1.0,,,,,
,,,,,,,,1.0,,,42,,0.0,0.0,1.147605,,,,,,crossbow_10s.jpg,smoothie_09s.jpg,,,,,,,,,,,,,0.0,2.0,2.0,2.0,1.0,,,,,
,,,,,,,,0.0,,,42,,0.0,1.0,1.798345,,,,,,reindeer_08s.jpg,frame_06s.jpg,,,,,,,,,,,,,0.0,3.0,3.0,3.0,1.0,,,,,
,,,,,,,,1.0,,,42,,1.0,1.0,1.18704,,,,,,refrigerator_07s.jpg,chalice_10s.jpg,,,,,,,,,,,,,0.0,4.0,4.0,4.0,1.0,,,,,
,,,,,,,,1.0,,,42,,1.0,1.0,1.365265,,,,,,pipe1_10s.jpg,saddle_06s.jpg,,,,,,,,,,,,,0.0,5.0,5.0,5.0,1.0,,,,,
