key_resp.keys,key_resp.corr,key_resp.rt,noclock_loop.thisRepN,noclock_loop.thisTrialN,noclock_loop.thisN,noclock_loop.thisIndex,noclock_loop.ran,pictures,answer,clock,segment,participant,key_resp_2.keys,key_resp_2.corr,key_resp_2.rt,noclock_loop2.thisRepN,noclock_loop2.thisTrialN,noclock_loop2.thisN,noclock_loop2.thisIndex,noclock_loop2.ran,item_a,item_b,noclock_condition.thisRepN,noclock_condition.thisTrialN,noclock_condition.thisN,noclock_condition.thisIndex,noclock_condition.ran,present,compare,present_segment.thisRepN,present_segment.thisTrialN,present_segment.thisN,present_segment.thisIndex,present_segment.ran,compare_segment.thisRepN,compare_segment.thisTrialN,compare_segment.thisN,compare_segment.thisIndex,compare_segment.ran,clock_conditions.thisRepN,clock_conditions.thisTrialN,clock_conditions.thisN,clock_conditions.thisIndex,clock_conditions.ran
0.0,1.0,1.33208,0.0,0.0,0.0,0.0,1.0,harpoon.jpg,0.0,clockno_up.jpg,1.0,14,,,,,,,,,,,,,,,,,,,,,,,,,,,,,,,,
0.0,1.0,1.46879,0.0,1.0,1.0,1.0,1.0,blender_08s.jpg,0.0,clockno_default.jpg,1.0,14,,,,,,,,,,,,,,,,,,,,,,,,,,,,,,,,
0.0,1.0,1.169135,0.0,2.0,2.0,2.0,1.0,tube_top_03s.jpg,0.0,clockno_default.jpg,1.0,14,,,,,,,,,,,,,,,,,,,,,,,,,,,,,,,,
0.0,1.0,1.628575,0.0,3.0,3.0,3.0,1.0,rocket_02s.jpg,0.0,clockno_default.jpg,1.0,14,,,,,,,,,,,,,,,,,,,,,,,,,,,,,,,,
0.0,1.0,1.05045,0.0,4.0,4.0,4.0,1.0,bonsai_07s.jpg,0.0,clockno_default.jpg,1.0,14,,,,,,,,,,,,,,,,,,,,,,,,,,,,,,,,
1.0,1.0,1.507585,0.0,5.0,5.0,5.0,1.0,blender_08s.jpg,1.0,clockno_default.jpg,1.0,14,,,,,,,,,,,,,,,,,,,,,,,,,,,,,,,,
0.0,1.0,1.178295,0.0,6.0,6.0,6.0,1.0,kayak_08s.jpg,0.0,clockno_up.jpg,2.0,14,,,,,,,,,,,,,,,,,,,,,,,,,,,,,,,,
0.0,1.0,1.44887,0.0,7.0,7.0,7.0,1.0,oil_02s.jpg,0.0,clockno_default.jpg,2.0,14,,,,,,,,,,,,,,,,,,,,,,,,,,,,,,,,
0.0,1.0,1.33202,0.0,8.0,8.0,8.0,1.0,petri_dish_12s.jpg,0.0,clockno_default.jpg,2.0,14,,,,,,,,,,,,,,,,,,,,,,,,,,,,,,,,
0.0,1.0,1.56994,0.0,9.0,9.0,9.0,1.0,ant_12s.jpg,0.0,clockno_default.jpg,2.0,14,,,,,,,,,,,,,,,,,,,,,,,,,,,,,,,,
0.0,1.0,1.678775,0.0,10.0,10.0,10.0,1.0,tile_08s.jpg,0.0,clockno_default.jpg,2.0,14,,,,,,,,,,,,,,,,,,,,,,,,,,,,,,,,
0.0,1.0,2.23745,0.0,11.0,11.0,11.0,1.0,piano_13n.jpg,0.0,clockno_up.jpg,3.0,14,,,,,,,,,,,,,,,,,,,,,,,,,,,,,,,,
0.0,1.0,1.5782,0.0,12.0,12.0,12.0,1.0,beaker_01b.jpg,0.0,clockno_default.jpg,3.0,14,,,,,,,,,,,,,,,,,,,,,,,,,,,,,,,,
0.0,1.0,1.71269,0.0,13.0,13.0,13.0,1.0,ladder_15s.jpg,0.0,clockno_default.jpg,3.0,14,,,,,,,,,,,,,,,,,,,,,,,,,,,,,,,,
0.0,1.0,1.18675,0.0,14.0,14.0,14.0,1.0,abacus_12s.jpg,0.0,clockno_default.jpg,3.0,14,,,,,,,,,,,,,,,,,,,,,,,,,,,,,,,,
0.0,1.0,1.346055,0.0,15.0,15.0,15.0,1.0,puck_06s.jpg,0.0,clockno_default.jpg,3.0,14,,,,,,,,,,,,,,,,,,,,,,,,,,,,,,,,
0.0,1.0,1.016855,0.0,16.0,16.0,16.0,1.0,breadstick_08s.jpg,0.0,clockno_default.jpg,3.0,14,,,,,,,,,,,,,,,,,,,,,,,,,,,,,,,,
0.0,1.0,2.34649,0.0,17.0,17.0,17.0,1.0,mailbox_11s.jpg,0.0,clockno_up.jpg,4.0,14,,,,,,,,,,,,,,,,,,,,,,,,,,,,,,,,
0.0,1.0,1.94638,0.0,18.0,18.0,18.0,1.0,amber_04s.jpg,0.0,clockno_default.jpg,4.0,14,,,,,,,,,,,,,,,,,,,,,,,,,,,,,,,,
0.0,1.0,2.164525,0.0,19.0,19.0,19.0,1.0,fishhook_06s.jpg,0.0,clockno_default.jpg,4.0,14,,,,,,,,,,,,,,,,,,,,,,,,,,,,,,,,
0.0,1.0,2.096705,0.0,20.0,20.0,20.0,1.0,ukulele_02s.jpg,0.0,clockno_default.jpg,4.0,14,,,,,,,,,,,,,,,,,,,,,,,,,,,,,,,,
0.0,1.0,1.282925,0.0,21.0,21.0,21.0,1.0,juicer1_08s.jpg,0.0,clockno_default.jpg,4.0,14,,,,,,,,,,,,,,,,,,,,,,,,,,,,,,,,
0.0,1.0,2.16421,0.0,22.0,22.0,22.0,1.0,glue_01s.jpg,0.0,clockno_up.jpg,5.0,14,,,,,,,,,,,,,,,,,,,,,,,,,,,,,,,,
0.0,1.0,2.16395,0.0,23.0,23.0,23.0,1.0,stump_02s.jpg,0.0,clockno_default.jpg,5.0,14,,,,,,,,,,,,,,,,,,,,,,,,,,,,,,,,
1.0,1.0,1.223155,0.0,24.0,24.0,24.0,1.0,stump_02s.jpg,1.0,clockno_default.jpg,5.0,14,,,,,,,,,,,,,,,,,,,,,,,,,,,,,,,,
1.0,1.0,1.133565,0.0,25.0,25.0,25.0,1.0,stump_02s.jpg,1.0,clockno_default.jpg,5.0,14,,,,,,,,,,,,,,,,,,,,,,,,,,,,,,,,
0.0,1.0,1.613905,0.0,26.0,26.0,26.0,1.0,tube_top_03s.jpg,0.0,clockno_default.jpg,5.0,14,,,,,,,,,,,,,,,,,,,,,,,,,,,,,,,,
0.0,1.0,1.16575,0.0,27.0,27.0,27.0,1.0,red_carpet_03s.jpg,0.0,clockno_default.jpg,5.0,14,,,,,,,,,,,,,,,,,,,,,,,,,,,,,,,,
0.0,1.0,1.151135,0.0,28.0,28.0,28.0,1.0,harpoon.jpg,0.0,clockno_default.jpg,5.0,14,,,,,,,,,,,,,,,,,,,,,,,,,,,,,,,,
0.0,1.0,1.364115,0.0,29.0,29.0,29.0,1.0,paintbrush_04s.jpg,0.0,clockno_up.jpg,6.0,14,,,,,,,,,,,,,,,,,,,,,,,,,,,,,,,,
0.0,1.0,1.19766,0.0,30.0,30.0,30.0,1.0,bank_06s.jpg,0.0,clockno_default.jpg,6.0,14,,,,,,,,,,,,,,,,,,,,,,,,,,,,,,,,
0.0,1.0,2.071,0.0,31.0,31.0,31.0,1.0,doily_13s.jpg,0.0,clockno_default.jpg,6.0,14,,,,,,,,,,,,,,,,,,,,,,,,,,,,,,,,
0.0,1.0,1.018475,0.0,32.0,32.0,32.0,1.0,pocketknife_12s.jpg,0.0,clockno_default.jpg,6.0,14,,,,,,,,,,,,,,,,,,,,,,,,,,,,,,,,
1.0,1.0,1.47254,0.0,33.0,33.0,33.0,1.0,paintbrush_04s.jpg,1.0,clockno_default.jpg,6.0,14,,,,,,,,,,,,,,,,,,,,,,,,,,,,,,,,
0.0,1.0,2.331065,0.0,34.0,34.0,34.0,1.0,hummingbird_05s.jpg,0.0,clockno_default.jpg,6.0,14,,,,,,,,,,,,,,,,,,,,,,,,,,,,,,,,
0.0,1.0,1.414555,0.0,35.0,35.0,35.0,1.0,abacus_12s.jpg,0.0,clockno_default.jpg,6.0,14,,,,,,,,,,,,,,,,,,,,,,,,,,,,,,,,
,,,,,,,,,1.0,,,14,1.0,1.0,3.76462,0.0,0.0,0.0,0.0,1.0,petri_dish_12s.jpg,piano_13n.jpg,,,,,,,,,,,,,,,,,,,,,,
,,,,,,,,,1.0,,,14,0.0,0.0,5.828155,0.0,1.0,1.0,1.0,1.0,fishhook_06s.jpg,glue_01s.jpg,,,,,,,,,,,,,,,,,,,,,,
,,,,,,,,,0.0,,,14,0.0,1.0,4.054145,0.0,2.0,2.0,2.0,1.0,bank_06s.jpg,red_carpet_03s.jpg,,,,,,,,,,,,,,,,,,,,,,
,,,,,,,,,0.0,,,14,1.0,0.0,2.19916,0.0,3.0,3.0,3.0,1.0,ukulele_02s.jpg,mailbox_11s.jpg,,,,,,,,,,,,,,,,,,,,,,
,,,,,,,,,0.0,,,14,1.0,0.0,3.099395,0.0,4.0,4.0,4.0,1.0,hummingbird_05s.jpg,doily_13s.jpg,,,,,,,,,,,,,,,,,,,,,,
,,,,,,,,,1.0,,,14,1.0,1.0,1.908855,0.0,5.0,5.0,5.0,1.0,amber_04s.jpg,juicer1_08s.jpg,,,,,,,,,,,,,,,,,,,,,,
,,,,,,,,,,,,14,,,,,,,,,,,0.0,0.0,0.0,0.0,1.0,clockno_present_1_13.xlsx,clockno_compare_task_1_13.xlsx,,,,,,,,,,,,,,,
0.0,1.0,1.57577,0.0,0.0,0.0,0.0,1.0,lemonade_04s.jpg,0.0,clockno_up.jpg,1.0,14,,,,,,,,,,,,,,,,,,,,,,,,,,,,,,,,
0.0,1.0,1.969585,0.0,1.0,1.0,1.0,1.0,toilet_paper_12s.jpg,0.0,clockno_default.jpg,1.0,14,,,,,,,,,,,,,,,,,,,,,,,,,,,,,,,,
0.0,1.0,1.318085,0.0,2.0,2.0,2.0,1.0,teacup_07s.jpg,0.0,clockno_default.jpg,1.0,14,,,,,,,,,,,,,,,,,,,,,,,,,,,,,,,,
1.0,1.0,1.33124,0.0,3.0,3.0,3.0,1.0,toilet_paper_12s.jpg,1.0,clockno_default.jpg,1.0,14,,,,,,,,,,,,,,,,,,,,,,,,,,,,,,,,
0.0,1.0,2.034345,0.0,4.0,4.0,4.0,1.0,ice-cream_cone_06s.jpg,0.0,clockno_default.jpg,1.0,14,,,,,,,,,,,,,,,,,,,,,,,,,,,,,,,,
0.0,1.0,1.56538,0.0,5.0,5.0,5.0,1.0,loveseat_08s.jpg,0.0,clockno_default.jpg,1.0,14,,,,,,,,,,,,,,,,,,,,,,,,,,,,,,,,
,0.0,,0.0,6.0,6.0,6.0,1.0,otter_05s.jpg,0.0,clockno_up.jpg,2.0,14,,,,,,,,,,,,,,,,,,,,,,,,,,,,,,,,
0.0,1.0,1.68093,0.0,7.0,7.0,7.0,1.0,rope_16s.jpg,0.0,clockno_default.jpg,2.0,14,,,,,,,,,,,,,,,,,,,,,,,,,,,,,,,,
0.0,1.0,0.76279,0.0,8.0,8.0,8.0,1.0,raccoon_02s.jpg,0.0,clockno_default.jpg,2.0,14,,,,,,,,,,,,,,,,,,,,,,,,,,,,,,,,
0.0,1.0,0.934425,0.0,9.0,9.0,9.0,1.0,light_switch_02s.jpg,0.0,clockno_default.jpg,2.0,14,,,,,,,,,,,,,,,,,,,,,,,,,,,,,,,,
0.0,1.0,0.988255,0.0,10.0,10.0,10.0,1.0,smokingpipe.jpg,0.0,clockno_default.jpg,2.0,14,,,,,,,,,,,,,,,,,,,,,,,,,,,,,,,,
0.0,1.0,1.61327,0.0,11.0,11.0,11.0,1.0,radio_09s.jpg,0.0,clockno_default.jpg,2.0,14,,,,,,,,,,,,,,,,,,,,,,,,,,,,,,,,
0.0,1.0,1.095445,0.0,12.0,12.0,12.0,1.0,razor_blade_01b.jpg,0.0,clockno_up.jpg,3.0,14,,,,,,,,,,,,,,,,,,,,,,,,,,,,,,,,
0.0,1.0,0.69698,0.0,13.0,13.0,13.0,1.0,sugar_cube_11s.jpg,0.0,clockno_default.jpg,3.0,14,,,,,,,,,,,,,,,,,,,,,,,,,,,,,,,,
0.0,1.0,1.162785,0.0,14.0,14.0,14.0,1.0,ravioli_08s.jpg,0.0,clockno_default.jpg,3.0,14,,,,,,,,,,,,,,,,,,,,,,,,,,,,,,,,
0.0,1.0,1.347285,0.0,15.0,15.0,15.0,1.0,compass_10n.jpg,0.0,clockno_default.jpg,3.0,14,,,,,,,,,,,,,,,,,,,,,,,,,,,,,,,,
0.0,1.0,0.895615,0.0,16.0,16.0,16.0,1.0,memory_stick_11s.jpg,0.0,clockno_default.jpg,3.0,14,,,,,,,,,,,,,,,,,,,,,,,,,,,,,,,,
0.0,1.0,1.22411,0.0,17.0,17.0,17.0,1.0,pancake_12s.jpg,0.0,clockno_up.jpg,4.0,14,,,,,,,,,,,,,,,,,,,,,,,,,,,,,,,,
0.0,1.0,1.70164,0.0,18.0,18.0,18.0,1.0,quill_09s.jpg,0.0,clockno_default.jpg,4.0,14,,,,,,,,,,,,,,,,,,,,,,,,,,,,,,,,
0.0,1.0,1.66301,0.0,19.0,19.0,19.0,1.0,footprint_11s.jpg,0.0,clockno_default.jpg,4.0,14,,,,,,,,,,,,,,,,,,,,,,,,,,,,,,,,
0.0,1.0,1.879435,0.0,20.0,20.0,20.0,1.0,gas_mask_11s.jpg,0.0,clockno_default.jpg,4.0,14,,,,,,,,,,,,,,,,,,,,,,,,,,,,,,,,
1.0,1.0,1.179995,0.0,21.0,21.0,21.0,1.0,pancake_12s.jpg,1.0,clockno_default.jpg,4.0,14,,,,,,,,,,,,,,,,,,,,,,,,,,,,,,,,
0.0,1.0,1.295995,0.0,22.0,22.0,22.0,1.0,crayon_09s.jpg,0.0,clockno_default.jpg,4.0,14,,,,,,,,,,,,,,,,,,,,,,,,,,,,,,,,
0.0,0.0,2.14793,0.0,23.0,23.0,23.0,1.0,footprint_11s.jpg,1.0,clockno_default.jpg,4.0,14,,,,,,,,,,,,,,,,,,,,,,,,,,,,,,,,
0.0,1.0,1.929675,0.0,24.0,24.0,24.0,1.0,pinwheel_06s.jpg,0.0,clockno_up.jpg,5.0,14,,,,,,,,,,,,,,,,,,,,,,,,,,,,,,,,
,0.0,,0.0,25.0,25.0,25.0,1.0,lectern_08s.jpg,0.0,clockno_default.jpg,5.0,14,,,,,,,,,,,,,,,,,,,,,,,,,,,,,,,,
0.0,1.0,0.701985,0.0,26.0,26.0,26.0,1.0,puffin_19s.jpg,0.0,clockno_default.jpg,5.0,14,,,,,,,,,,,,,,,,,,,,,,,,,,,,,,,,
0.0,1.0,0.93769,0.0,27.0,27.0,27.0,1.0,peach_04s.jpg,0.0,clockno_default.jpg,5.0,14,,,,,,,,,,,,,,,,,,,,,,,,,,,,,,,,
0.0,1.0,1.230205,0.0,28.0,28.0,28.0,1.0,raccoon_02s.jpg,0.0,clockno_default.jpg,5.0,14,,,,,,,,,,,,,,,,,,,,,,,,,,,,,,,,
0.0,1.0,1.283735,0.0,29.0,29.0,29.0,1.0,gas_mask_11s.jpg,0.0,clockno_default.jpg,5.0,14,,,,,,,,,,,,,,,,,,,,,,,,,,,,,,,,
0.0,1.0,1.306215,0.0,30.0,30.0,30.0,1.0,bubble_01b.jpg,0.0,clockno_default.jpg,5.0,14,,,,,,,,,,,,,,,,,,,,,,,,,,,,,,,,
0.0,1.0,1.36283,0.0,31.0,31.0,31.0,1.0,pillbox_04s.jpg,0.0,clockno_up.jpg,6.0,14,,,,,,,,,,,,,,,,,,,,,,,,,,,,,,,,
0.0,1.0,0.836045,0.0,32.0,32.0,32.0,1.0,chopsticks_08s.jpg,0.0,clockno_default.jpg,6.0,14,,,,,,,,,,,,,,,,,,,,,,,,,,,,,,,,
0.0,1.0,0.671885,0.0,33.0,33.0,33.0,1.0,lizard_10n.jpg,0.0,clockno_default.jpg,6.0,14,,,,,,,,,,,,,,,,,,,,,,,,,,,,,,,,
0.0,1.0,1.034375,0.0,34.0,34.0,34.0,1.0,mattress_01s.jpg,0.0,clockno_default.jpg,6.0,14,,,,,,,,,,,,,,,,,,,,,,,,,,,,,,,,
0.0,1.0,0.888805,0.0,35.0,35.0,35.0,1.0,jukebox_03n.jpg,0.0,clockno_default.jpg,6.0,14,,,,,,,,,,,,,,,,,,,,,,,,,,,,,,,,
,,,,,,,,,0.0,,,14,1.0,0.0,2.62927,0.0,0.0,0.0,0.0,1.0,ravioli_08s.jpg,radio_09s.jpg,,,,,,,,,,,,,,,,,,,,,,
,,,,,,,,,0.0,,,14,0.0,1.0,4.000885,0.0,1.0,1.0,1.0,1.0,lectern_08s.jpg,crayon_09s.jpg,,,,,,,,,,,,,,,,,,,,,,
,,,,,,,,,1.0,,,14,0.0,0.0,3.71597,0.0,2.0,2.0,2.0,1.0,ice-cream_cone_06s.jpg,rope_16s.jpg,,,,,,,,,,,,,,,,,,,,,,
,,,,,,,,,1.0,,,14,1.0,1.0,3.566195,0.0,3.0,3.0,3.0,1.0,teacup_07s.jpg,loveseat_08s.jpg,,,,,,,,,,,,,,,,,,,,,,
,,,,,,,,,1.0,,,14,0.0,0.0,1.54125,0.0,4.0,4.0,4.0,1.0,pinwheel_06s.jpg,peach_04s.jpg,,,,,,,,,,,,,,,,,,,,,,
,,,,,,,,,0.0,,,14,0.0,1.0,2.302845,0.0,5.0,5.0,5.0,1.0,mattress_01s.jpg,pillbox_04s.jpg,,,,,,,,,,,,,,,,,,,,,,
,,,,,,,,,,,,14,,,,,,,,,,,0.0,1.0,1.0,1.0,1.0,clockno_present_2_13.xlsx,clockno_compare_task_2_13.xlsx,,,,,,,,,,,,,,,
0.0,1.0,1.896485,0.0,0.0,0.0,0.0,1.0,piggy_bank_02s.jpg,0.0,clockno_up.jpg,1.0,14,,,,,,,,,,,,,,,,,,,,,,,,,,,,,,,,
0.0,1.0,2.255525,0.0,1.0,1.0,1.0,1.0,powder_07s.jpg,0.0,clockno_default.jpg,1.0,14,,,,,,,,,,,,,,,,,,,,,,,,,,,,,,,,
0.0,1.0,1.16299,0.0,2.0,2.0,2.0,1.0,perfume_06s.jpg,0.0,clockno_default.jpg,1.0,14,,,,,,,,,,,,,,,,,,,,,,,,,,,,,,,,
0.0,1.0,1.71617,0.0,3.0,3.0,3.0,1.0,icemaker_10s.jpg,0.0,clockno_default.jpg,1.0,14,,,,,,,,,,,,,,,,,,,,,,,,,,,,,,,,
1.0,1.0,1.464485,0.0,4.0,4.0,4.0,1.0,powder_07s.jpg,1.0,clockno_default.jpg,1.0,14,,,,,,,,,,,,,,,,,,,,,,,,,,,,,,,,
0.0,1.0,0.9662,0.0,5.0,5.0,5.0,1.0,juicer2_06s.jpg,0.0,clockno_up.jpg,2.0,14,,,,,,,,,,,,,,,,,,,,,,,,,,,,,,,,
0.0,1.0,1.500725,0.0,6.0,6.0,6.0,1.0,olive_05s.jpg,0.0,clockno_default.jpg,2.0,14,,,,,,,,,,,,,,,,,,,,,,,,,,,,,,,,
0.0,1.0,1.333865,0.0,7.0,7.0,7.0,1.0,pretzel_09s.jpg,0.0,clockno_default.jpg,2.0,14,,,,,,,,,,,,,,,,,,,,,,,,,,,,,,,,
0.0,1.0,1.89703,0.0,8.0,8.0,8.0,1.0,totem_pole_05s.jpg,0.0,clockno_default.jpg,2.0,14,,,,,,,,,,,,,,,,,,,,,,,,,,,,,,,,
1.0,1.0,1.14816,0.0,9.0,9.0,9.0,1.0,olive_05s.jpg,1.0,clockno_default.jpg,2.0,14,,,,,,,,,,,,,,,,,,,,,,,,,,,,,,,,
0.0,1.0,1.319515,0.0,10.0,10.0,10.0,1.0,mussel_11s.jpg,0.0,clockno_default.jpg,2.0,14,,,,,,,,,,,,,,,,,,,,,,,,,,,,,,,,
0.0,1.0,1.06242,0.0,11.0,11.0,11.0,1.0,bee_20s.jpg,0.0,clockno_up.jpg,3.0,14,,,,,,,,,,,,,,,,,,,,,,,,,,,,,,,,
1.0,1.0,1.14971,0.0,12.0,12.0,12.0,1.0,bee_20s.jpg,1.0,clockno_default.jpg,3.0,14,,,,,,,,,,,,,,,,,,,,,,,,,,,,,,,,
1.0,1.0,1.115945,0.0,13.0,13.0,13.0,1.0,bee_20s.jpg,1.0,clockno_default.jpg,3.0,14,,,,,,,,,,,,,,,,,,,,,,,,,,,,,,,,
0.0,1.0,1.068855,0.0,14.0,14.0,14.0,1.0,clover_04s.jpg,0.0,clockno_default.jpg,3.0,14,,,,,,,,,,,,,,,,,,,,,,,,,,,,,,,,
0.0,1.0,0.971225,0.0,15.0,15.0,15.0,1.0,muffin_12n.jpg,0.0,clockno_default.jpg,3.0,14,,,,,,,,,,,,,,,,,,,,,,,,,,,,,,,,
0.0,1.0,1.081695,0.0,16.0,16.0,16.0,1.0,turtle_08s.jpg,0.0,clockno_default.jpg,3.0,14,,,,,,,,,,,,,,,,,,,,,,,,,,,,,,,,
0.0,1.0,0.882885,0.0,17.0,17.0,17.0,1.0,blazer_02s.jpg,0.0,clockno_default.jpg,3.0,14,,,,,,,,,,,,,,,,,,,,,,,,,,,,,,,,
0.0,1.0,1.697215,0.0,18.0,18.0,18.0,1.0,target_11s.jpg,0.0,clockno_up.jpg,4.0,14,,,,,,,,,,,,,,,,,,,,,,,,,,,,,,,,
0.0,1.0,1.34906,0.0,19.0,19.0,19.0,1.0,machine_gun_09s.jpg,0.0,clockno_default.jpg,4.0,14,,,,,,,,,,,,,,,,,,,,,,,,,,,,,,,,
0.0,1.0,1.662775,0.0,20.0,20.0,20.0,1.0,eiffeltower.jpg,0.0,clockno_default.jpg,4.0,14,,,,,,,,,,,,,,,,,,,,,,,,,,,,,,,,
1.0,1.0,1.21316,0.0,21.0,21.0,21.0,1.0,eiffeltower.jpg,1.0,clockno_default.jpg,4.0,14,,,,,,,,,,,,,,,,,,,,,,,,,,,,,,,,
0.0,1.0,1.13049,0.0,22.0,22.0,22.0,1.0,tablet_04s.jpg,0.0,clockno_default.jpg,4.0,14,,,,,,,,,,,,,,,,,,,,,,,,,,,,,,,,
0.0,0.0,1.80836,0.0,23.0,23.0,23.0,1.0,target_11s.jpg,1.0,clockno_default.jpg,4.0,14,,,,,,,,,,,,,,,,,,,,,,,,,,,,,,,,
0.0,1.0,2.218595,0.0,24.0,24.0,24.0,1.0,ram_05s.jpg,0.0,clockno_up.jpg,5.0,14,,,,,,,,,,,,,,,,,,,,,,,,,,,,,,,,
0.0,1.0,0.979555,0.0,25.0,25.0,25.0,1.0,stamp1_11s.jpg,0.0,clockno_default.jpg,5.0,14,,,,,,,,,,,,,,,,,,,,,,,,,,,,,,,,
0.0,1.0,1.430435,0.0,26.0,26.0,26.0,1.0,marker_05s.jpg,0.0,clockno_default.jpg,5.0,14,,,,,,,,,,,,,,,,,,,,,,,,,,,,,,,,
0.0,1.0,1.33583,0.0,27.0,27.0,27.0,1.0,turtle_08s.jpg,0.0,clockno_default.jpg,5.0,14,,,,,,,,,,,,,,,,,,,,,,,,,,,,,,,,
0.0,1.0,0.8287,0.0,28.0,28.0,28.0,1.0,go-kart_10s.jpg,0.0,clockno_default.jpg,5.0,14,,,,,,,,,,,,,,,,,,,,,,,,,,,,,,,,
0.0,1.0,1.17892,0.0,29.0,29.0,29.0,1.0,peanut_butter_08s.jpg,0.0,clockno_up.jpg,6.0,14,,,,,,,,,,,,,,,,,,,,,,,,,,,,,,,,
0.0,1.0,0.86997,0.0,30.0,30.0,30.0,1.0,measuring_cup_02s.jpg,0.0,clockno_default.jpg,6.0,14,,,,,,,,,,,,,,,,,,,,,,,,,,,,,,,,
0.0,1.0,1.623,0.0,31.0,31.0,31.0,1.0,laser_pointer_02s.jpg,0.0,clockno_default.jpg,6.0,14,,,,,,,,,,,,,,,,,,,,,,,,,,,,,,,,
0.0,1.0,1.146515,0.0,32.0,32.0,32.0,1.0,marker_05s.jpg,0.0,clockno_default.jpg,6.0,14,,,,,,,,,,,,,,,,,,,,,,,,,,,,,,,,
0.0,1.0,0.86641,0.0,33.0,33.0,33.0,1.0,tuba_12s.jpg,0.0,clockno_default.jpg,6.0,14,,,,,,,,,,,,,,,,,,,,,,,,,,,,,,,,
0.0,1.0,1.1382,0.0,34.0,34.0,34.0,1.0,spoon02a.jpg,0.0,clockno_default.jpg,6.0,14,,,,,,,,,,,,,,,,,,,,,,,,,,,,,,,,
0.0,1.0,1.757675,0.0,35.0,35.0,35.0,1.0,mosquito_12s.jpg,0.0,clockno_default.jpg,6.0,14,,,,,,,,,,,,,,,,,,,,,,,,,,,,,,,,
,,,,,,,,,0.0,,,14,0.0,1.0,3.92542,0.0,0.0,0.0,0.0,1.0,juicer2_06s.jpg,perfume_06s.jpg,,,,,,,,,,,,,,,,,,,,,,
,,,,,,,,,0.0,,,14,1.0,0.0,3.37219,0.0,1.0,1.0,1.0,1.0,stamp1_11s.jpg,tablet_04s.jpg,,,,,,,,,,,,,,,,,,,,,,
,,,,,,,,,0.0,,,14,1.0,0.0,2.098255,0.0,2.0,2.0,2.0,1.0,laser_pointer_02s.jpg,go-kart_10s.jpg,,,,,,,,,,,,,,,,,,,,,,
,,,,,,,,,1.0,,,14,0.0,0.0,3.09848,0.0,3.0,3.0,3.0,1.0,piggy_bank_02s.jpg,icemaker_10s.jpg,,,,,,,,,,,,,,,,,,,,,,
,,,,,,,,,0.0,,,14,1.0,0.0,5.577165,0.0,4.0,4.0,4.0,1.0,mussel_11s.jpg,pretzel_09s.jpg,,,,,,,,,,,,,,,,,,,,,,
,,,,,,,,,0.0,,,14,0.0,1.0,2.615265,0.0,5.0,5.0,5.0,1.0,blazer_02s.jpg,clover_04s.jpg,,,,,,,,,,,,,,,,,,,,,,
,,,,,,,,,,,,14,,,,,,,,,,,0.0,2.0,2.0,2.0,1.0,clockno_present_3_13.xlsx,clockno_compare_task_3_13.xlsx,,,,,,,,,,,,,,,
0.0,1.0,1.339815,0.0,0.0,0.0,0.0,1.0,penguin_16s.jpg,0.0,clockno_up.jpg,1.0,14,,,,,,,,,,,,,,,,,,,,,,,,,,,,,,,,
1.0,1.0,1.5223,0.0,1.0,1.0,1.0,1.0,penguin_16s.jpg,1.0,clockno_default.jpg,1.0,14,,,,,,,,,,,,,,,,,,,,,,,,,,,,,,,,
1.0,1.0,0.917695,0.0,2.0,2.0,2.0,1.0,penguin_16s.jpg,1.0,clockno_default.jpg,1.0,14,,,,,,,,,,,,,,,,,,,,,,,,,,,,,,,,
1.0,1.0,1.71341,0.0,3.0,3.0,3.0,1.0,penguin_16s.jpg,1.0,clockno_default.jpg,1.0,14,,,,,,,,,,,,,,,,,,,,,,,,,,,,,,,,
0.0,1.0,0.95993,0.0,4.0,4.0,4.0,1.0,tripod_01b.jpg,0.0,clockno_default.jpg,1.0,14,,,,,,,,,,,,,,,,,,,,,,,,,,,,,,,,
0.0,1.0,1.19698,0.0,5.0,5.0,5.0,1.0,touchpad_11s.jpg,0.0,clockno_default.jpg,1.0,14,,,,,,,,,,,,,,,,,,,,,,,,,,,,,,,,
0.0,1.0,1.521735,0.0,6.0,6.0,6.0,1.0,possum_09s.jpg,0.0,clockno_up.jpg,2.0,14,,,,,,,,,,,,,,,,,,,,,,,,,,,,,,,,
0.0,1.0,1.19598,0.0,7.0,7.0,7.0,1.0,frame_06s.jpg,0.0,clockno_default.jpg,2.0,14,,,,,,,,,,,,,,,,,,,,,,,,,,,,,,,,
0.0,1.0,1.21811,0.0,8.0,8.0,8.0,1.0,submarine_11n.jpg,0.0,clockno_default.jpg,2.0,14,,,,,,,,,,,,,,,,,,,,,,,,,,,,,,,,
0.0,1.0,0.778535,0.0,9.0,9.0,9.0,1.0,squirt_gun_03s.jpg,0.0,clockno_default.jpg,2.0,14,,,,,,,,,,,,,,,,,,,,,,,,,,,,,,,,
0.0,1.0,0.770685,0.0,10.0,10.0,10.0,1.0,screwdriver02a.jpg,0.0,clockno_default.jpg,2.0,14,,,,,,,,,,,,,,,,,,,,,,,,,,,,,,,,
0.0,1.0,1.068285,0.0,11.0,11.0,11.0,1.0,icicle_04s.jpg,0.0,clockno_default.jpg,2.0,14,,,,,,,,,,,,,,,,,,,,,,,,,,,,,,,,
0.0,1.0,1.93005,0.0,12.0,12.0,12.0,1.0,radiator_05s.jpg,0.0,clockno_up.jpg,3.0,14,,,,,,,,,,,,,,,,,,,,,,,,,,,,,,,,
0.0,1.0,1.64667,0.0,13.0,13.0,13.0,1.0,tupperware_09s.jpg,0.0,clockno_default.jpg,3.0,14,,,,,,,,,,,,,,,,,,,,,,,,,,,,,,,,
0.0,1.0,1.37044,0.0,14.0,14.0,14.0,1.0,lantern_04s.jpg,0.0,clockno_default.jpg,3.0,14,,,,,,,,,,,,,,,,,,,,,,,,,,,,,,,,
0.0,1.0,0.795985,0.0,15.0,15.0,15.0,1.0,quad_04s.jpg,0.0,clockno_default.jpg,3.0,14,,,,,,,,,,,,,,,,,,,,,,,,,,,,,,,,
0.0,1.0,1.049785,0.0,16.0,16.0,16.0,1.0,tape_measure_11s.jpg,0.0,clockno_default.jpg,3.0,14,,,,,,,,,,,,,,,,,,,,,,,,,,,,,,,,
0.0,1.0,0.911815,0.0,17.0,17.0,17.0,1.0,roulette_wheel_04s.jpg,0.0,clockno_default.jpg,3.0,14,,,,,,,,,,,,,,,,,,,,,,,,,,,,,,,,
0.0,1.0,1.080125,0.0,18.0,18.0,18.0,1.0,microwave_02s.jpg,0.0,clockno_default.jpg,3.0,14,,,,,,,,,,,,,,,,,,,,,,,,,,,,,,,,
0.0,1.0,1.2666,0.0,19.0,19.0,19.0,1.0,mop_08s.jpg,0.0,clockno_up.jpg,4.0,14,,,,,,,,,,,,,,,,,,,,,,,,,,,,,,,,
0.0,1.0,1.51234,0.0,20.0,20.0,20.0,1.0,pipe1_10s.jpg,0.0,clockno_default.jpg,4.0,14,,,,,,,,,,,,,,,,,,,,,,,,,,,,,,,,
0.0,1.0,1.030215,0.0,21.0,21.0,21.0,1.0,possum_09s.jpg,0.0,clockno_default.jpg,4.0,14,,,,,,,,,,,,,,,,,,,,,,,,,,,,,,,,
0.0,1.0,0.947885,0.0,22.0,22.0,22.0,1.0,turnstile_08s.jpg,0.0,clockno_default.jpg,4.0,14,,,,,,,,,,,,,,,,,,,,,,,,,,,,,,,,
0.0,1.0,0.981605,0.0,23.0,23.0,23.0,1.0,raft_09s.jpg,0.0,clockno_default.jpg,4.0,14,,,,,,,,,,,,,,,,,,,,,,,,,,,,,,,,
0.0,1.0,1.4035,0.0,24.0,24.0,24.0,1.0,treadmill_06s.jpg,0.0,clockno_up.jpg,5.0,14,,,,,,,,,,,,,,,,,,,,,,,,,,,,,,,,
0.0,1.0,1.23716,0.0,25.0,25.0,25.0,1.0,quad_04s.jpg,0.0,clockno_default.jpg,5.0,14,,,,,,,,,,,,,,,,,,,,,,,,,,,,,,,,
0.0,1.0,1.26566,0.0,26.0,26.0,26.0,1.0,mop_08s.jpg,0.0,clockno_default.jpg,5.0,14,,,,,,,,,,,,,,,,,,,,,,,,,,,,,,,,
0.0,1.0,1.09896,0.0,27.0,27.0,27.0,1.0,pan_02s.jpg,0.0,clockno_default.jpg,5.0,14,,,,,,,,,,,,,,,,,,,,,,,,,,,,,,,,
0.0,1.0,0.757035,0.0,28.0,28.0,28.0,1.0,coconut_08s.jpg,0.0,clockno_default.jpg,5.0,14,,,,,,,,,,,,,,,,,,,,,,,,,,,,,,,,
0.0,1.0,1.3464,0.0,29.0,29.0,29.0,1.0,key_07s.jpg,0.0,clockno_default.jpg,5.0,14,,,,,,,,,,,,,,,,,,,,,,,,,,,,,,,,
0.0,1.0,1.23722,0.0,30.0,30.0,30.0,1.0,sunflower_17s.jpg,0.0,clockno_default.jpg,5.0,14,,,,,,,,,,,,,,,,,,,,,,,,,,,,,,,,
0.0,1.0,0.987455,0.0,31.0,31.0,31.0,1.0,pie_08s.jpg,0.0,clockno_up.jpg,6.0,14,,,,,,,,,,,,,,,,,,,,,,,,,,,,,,,,
0.0,1.0,0.980305,0.0,32.0,32.0,32.0,1.0,tape_06s.jpg,0.0,clockno_default.jpg,6.0,14,,,,,,,,,,,,,,,,,,,,,,,,,,,,,,,,
0.0,1.0,2.02227,0.0,33.0,33.0,33.0,1.0,rooster_03s.jpg,0.0,clockno_default.jpg,6.0,14,,,,,,,,,,,,,,,,,,,,,,,,,,,,,,,,
0.0,1.0,1.15788,0.0,34.0,34.0,34.0,1.0,meatball_13s.jpg,0.0,clockno_default.jpg,6.0,14,,,,,,,,,,,,,,,,,,,,,,,,,,,,,,,,
0.0,1.0,1.068335,0.0,35.0,35.0,35.0,1.0,mask_09s.jpg,0.0,clockno_default.jpg,6.0,14,,,,,,,,,,,,,,,,,,,,,,,,,,,,,,,,
,,,,,,,,,1.0,,,14,0.0,0.0,4.84112,0.0,0.0,0.0,0.0,1.0,squirt_gun_03s.jpg,radiator_05s.jpg,,,,,,,,,,,,,,,,,,,,,,
,,,,,,,,,0.0,,,14,0.0,1.0,5.593185,0.0,1.0,1.0,1.0,1.0,frame_06s.jpg,tripod_01b.jpg,,,,,,,,,,,,,,,,,,,,,,
,,,,,,,,,0.0,,,14,1.0,0.0,7.269445,0.0,2.0,2.0,2.0,1.0,submarine_11n.jpg,touchpad_11s.jpg,,,,,,,,,,,,,,,,,,,,,,
,,,,,,,,,1.0,,,14,0.0,0.0,3.608045,0.0,3.0,3.0,3.0,1.0,treadmill_06s.jpg,pan_02s.jpg,,,,,,,,,,,,,,,,,,,,,,
,,,,,,,,,1.0,,,14,1.0,1.0,2.083265,0.0,4.0,4.0,4.0,1.0,tupperware_09s.jpg,tape_measure_11s.jpg,,,,,,,,,,,,,,,,,,,,,,
,,,,,,,,,0.0,,,14,1.0,0.0,2.441895,0.0,5.0,5.0,5.0,1.0,raft_09s.jpg,pipe1_10s.jpg,,,,,,,,,,,,,,,,,,,,,,
,,,,,,,,,,,,14,,,,,,,,,,,0.0,3.0,3.0,3.0,1.0,clockno_present_4_13.xlsx,clockno_compare_task_4_13.xlsx,,,,,,,,,,,,,,,
0.0,1.0,0.96729,0.0,0.0,0.0,0.0,1.0,dashboard_02s.jpg,0.0,clockno_up.jpg,1.0,14,,,,,,,,,,,,,,,,,,,,,,,,,,,,,,,,
0.0,1.0,1.429645,0.0,1.0,1.0,1.0,1.0,jet_15s.jpg,0.0,clockno_default.jpg,1.0,14,,,,,,,,,,,,,,,,,,,,,,,,,,,,,,,,
0.0,1.0,0.984625,0.0,2.0,2.0,2.0,1.0,sushi_08s.jpg,0.0,clockno_default.jpg,1.0,14,,,,,,,,,,,,,,,,,,,,,,,,,,,,,,,,
0.0,1.0,1.34996,0.0,3.0,3.0,3.0,1.0,denture_03s.jpg,0.0,clockno_default.jpg,1.0,14,,,,,,,,,,,,,,,,,,,,,,,,,,,,,,,,
0.0,1.0,1.162345,0.0,4.0,4.0,4.0,1.0,ironing_board_07s.jpg,0.0,clockno_default.jpg,1.0,14,,,,,,,,,,,,,,,,,,,,,,,,,,,,,,,,
1.0,1.0,1.305225,0.0,5.0,5.0,5.0,1.0,jet_15s.jpg,1.0,clockno_default.jpg,1.0,14,,,,,,,,,,,,,,,,,,,,,,,,,,,,,,,,
0.0,1.0,1.31714,0.0,6.0,6.0,6.0,1.0,owl_15s.jpg,0.0,clockno_up.jpg,2.0,14,,,,,,,,,,,,,,,,,,,,,,,,,,,,,,,,
0.0,1.0,1.33189,0.0,7.0,7.0,7.0,1.0,plaster_cast_13s.jpg,0.0,clockno_default.jpg,2.0,14,,,,,,,,,,,,,,,,,,,,,,,,,,,,,,,,
1.0,1.0,1.27037,0.0,8.0,8.0,8.0,1.0,owl_15s.jpg,1.0,clockno_default.jpg,2.0,14,,,,,,,,,,,,,,,,,,,,,,,,,,,,,,,,
0.0,1.0,1.38243,0.0,9.0,9.0,9.0,1.0,lab_coat_11s.jpg,0.0,clockno_default.jpg,2.0,14,,,,,,,,,,,,,,,,,,,,,,,,,,,,,,,,
0.0,1.0,1.870885,0.0,10.0,10.0,10.0,1.0,mold2_04s.jpg,0.0,clockno_default.jpg,2.0,14,,,,,,,,,,,,,,,,,,,,,,,,,,,,,,,,
0.0,1.0,1.01339,0.0,11.0,11.0,11.0,1.0,umbrella_15s.jpg,0.0,clockno_default.jpg,2.0,14,,,,,,,,,,,,,,,,,,,,,,,,,,,,,,,,
0.0,1.0,1.062425,0.0,12.0,12.0,12.0,1.0,penlight_12s.jpg,0.0,clockno_up.jpg,3.0,14,,,,,,,,,,,,,,,,,,,,,,,,,,,,,,,,
0.0,1.0,1.216035,0.0,13.0,13.0,13.0,1.0,machete_06s.jpg,0.0,clockno_default.jpg,3.0,14,,,,,,,,,,,,,,,,,,,,,,,,,,,,,,,,
1.0,1.0,2.08982,0.0,14.0,14.0,14.0,1.0,penlight_12s.jpg,1.0,clockno_default.jpg,3.0,14,,,,,,,,,,,,,,,,,,,,,,,,,,,,,,,,
0.0,1.0,1.00799,0.0,15.0,15.0,15.0,1.0,keyhole_03s.jpg,0.0,clockno_default.jpg,3.0,14,,,,,,,,,,,,,,,,,,,,,,,,,,,,,,,,
0.0,1.0,1.863445,0.0,16.0,16.0,16.0,1.0,ginger_09s.jpg,0.0,clockno_default.jpg,3.0,14,,,,,,,,,,,,,,,,,,,,,,,,,,,,,,,,
0.0,1.0,1.463235,0.0,17.0,17.0,17.0,1.0,emerald_02s.jpg,0.0,clockno_up.jpg,4.0,14,,,,,,,,,,,,,,,,,,,,,,,,,,,,,,,,
0.0,1.0,1.179875,0.0,18.0,18.0,18.0,1.0,torch_02s.jpg,0.0,clockno_default.jpg,4.0,14,,,,,,,,,,,,,,,,,,,,,,,,,,,,,,,,
0.0,1.0,1.596805,0.0,19.0,19.0,19.0,1.0,flip_flop_03s.jpg,0.0,clockno_default.jpg,4.0,14,,,,,,,,,,,,,,,,,,,,,,,,,,,,,,,,
0.0,1.0,1.54641,0.0,20.0,20.0,20.0,1.0,plunger_08s.jpg,0.0,clockno_default.jpg,4.0,14,,,,,,,,,,,,,,,,,,,,,,,,,,,,,,,,
0.0,1.0,1.81668,0.0,21.0,21.0,21.0,1.0,thorn_13s.jpg,0.0,clockno_default.jpg,4.0,14,,,,,,,,,,,,,,,,,,,,,,,,,,,,,,,,
0.0,1.0,1.09586,0.0,22.0,22.0,22.0,1.0,tongs_08s.jpg,0.0,clockno_default.jpg,4.0,14,,,,,,,,,,,,,,,,,,,,,,,,,,,,,,,,
0.0,1.0,1.362705,0.0,23.0,23.0,23.0,1.0,teapot_03s.jpg,0.0,clockno_default.jpg,4.0,14,,,,,,,,,,,,,,,,,,,,,,,,,,,,,,,,
0.0,1.0,1.132875,0.0,24.0,24.0,24.0,1.0,tennis_ball_06s.jpg,0.0,clockno_up.jpg,5.0,14,,,,,,,,,,,,,,,,,,,,,,,,,,,,,,,,
0.0,1.0,1.63016,0.0,25.0,25.0,25.0,1.0,penlight_12s.jpg,0.0,clockno_default.jpg,5.0,14,,,,,,,,,,,,,,,,,,,,,,,,,,,,,,,,
0.0,1.0,0.685915,0.0,26.0,26.0,26.0,1.0,dynamite_01b.jpg,0.0,clockno_default.jpg,5.0,14,,,,,,,,,,,,,,,,,,,,,,,,,,,,,,,,
0.0,1.0,1.319135,0.0,27.0,27.0,27.0,1.0,rhubarb_03s.jpg,0.0,clockno_default.jpg,5.0,14,,,,,,,,,,,,,,,,,,,,,,,,,,,,,,,,
0.0,1.0,1.312615,0.0,28.0,28.0,28.0,1.0,mango_09s.jpg,0.0,clockno_default.jpg,5.0,14,,,,,,,,,,,,,,,,,,,,,,,,,,,,,,,,
0.0,1.0,1.265155,0.0,29.0,29.0,29.0,1.0,pear_02s.jpg,0.0,clockno_default.jpg,5.0,14,,,,,,,,,,,,,,,,,,,,,,,,,,,,,,,,
0.0,1.0,1.61855,0.0,30.0,30.0,30.0,1.0,tongs_08s.jpg,0.0,clockno_default.jpg,5.0,14,,,,,,,,,,,,,,,,,,,,,,,,,,,,,,,,
0.0,1.0,0.90203,0.0,31.0,31.0,31.0,1.0,rock_08s.jpg,0.0,clockno_up.jpg,6.0,14,,,,,,,,,,,,,,,,,,,,,,,,,,,,,,,,
1.0,1.0,1.148705,0.0,32.0,32.0,32.0,1.0,rock_08s.jpg,1.0,clockno_default.jpg,6.0,14,,,,,,,,,,,,,,,,,,,,,,,,,,,,,,,,
0.0,1.0,1.529365,0.0,33.0,33.0,33.0,1.0,sunglasses_11s.jpg,0.0,clockno_default.jpg,6.0,14,,,,,,,,,,,,,,,,,,,,,,,,,,,,,,,,
0.0,1.0,1.23796,0.0,34.0,34.0,34.0,1.0,phone_01b.jpg,0.0,clockno_default.jpg,6.0,14,,,,,,,,,,,,,,,,,,,,,,,,,,,,,,,,
1.0,1.0,0.94739,0.0,35.0,35.0,35.0,1.0,phone_01b.jpg,1.0,clockno_default.jpg,6.0,14,,,,,,,,,,,,,,,,,,,,,,,,,,,,,,,,
,,,,,,,,,1.0,,,14,1.0,1.0,3.509255,0.0,0.0,0.0,0.0,1.0,ironing_board_07s.jpg,plaster_cast_13s.jpg,,,,,,,,,,,,,,,,,,,,,,
,,,,,,,,,0.0,,,14,1.0,0.0,2.720315,0.0,1.0,1.0,1.0,1.0,torch_02s.jpg,keyhole_03s.jpg,,,,,,,,,,,,,,,,,,,,,,
,,,,,,,,,0.0,,,14,0.0,1.0,2.02445,0.0,2.0,2.0,2.0,1.0,flip_flop_03s.jpg,ginger_09s.jpg,,,,,,,,,,,,,,,,,,,,,,
,,,,,,,,,1.0,,,14,1.0,1.0,2.01184,0.0,3.0,3.0,3.0,1.0,dashboard_02s.jpg,denture_03s.jpg,,,,,,,,,,,,,,,,,,,,,,
,,,,,,,,,0.0,,,14,0.0,1.0,1.714915,0.0,4.0,4.0,4.0,1.0,plunger_08s.jpg,emerald_02s.jpg,,,,,,,,,,,,,,,,,,,,,,
,,,,,,,,,1.0,,,14,1.0,1.0,1.681915,0.0,5.0,5.0,5.0,1.0,tennis_ball_06s.jpg,rhubarb_03s.jpg,,,,,,,,,,,,,,,,,,,,,,
,,,,,,,,,,,,14,,,,,,,,,,,0.0,4.0,4.0,4.0,1.0,clockno_present_5_13.xlsx,clockno_compare_task_5_13.xlsx,,,,,,,,,,,,,,,
0.0,1.0,1.278285,0.0,0.0,0.0,0.0,1.0,kilt_18s.jpg,0.0,clockno_up.jpg,1.0,14,,,,,,,,,,,,,,,,,,,,,,,,,,,,,,,,
1.0,1.0,0.847645,0.0,1.0,1.0,1.0,1.0,kilt_18s.jpg,1.0,clockno_default.jpg,1.0,14,,,,,,,,,,,,,,,,,,,,,,,,,,,,,,,,
0.0,1.0,1.68454,0.0,2.0,2.0,2.0,1.0,puddle_02s.jpg,0.0,clockno_default.jpg,1.0,14,,,,,,,,,,,,,,,,,,,,,,,,,,,,,,,,
0.0,1.0,1.54688,0.0,3.0,3.0,3.0,1.0,ladle_04s.jpg,0.0,clockno_default.jpg,1.0,14,,,,,,,,,,,,,,,,,,,,,,,,,,,,,,,,
0.0,1.0,1.280825,0.0,4.0,4.0,4.0,1.0,mud_13s.jpg,0.0,clockno_default.jpg,1.0,14,,,,,,,,,,,,,,,,,,,,,,,,,,,,,,,,
0.0,1.0,1.65016,0.0,5.0,5.0,5.0,1.0,popcorn_09s.jpg,0.0,clockno_up.jpg,2.0,14,,,,,,,,,,,,,,,,,,,,,,,,,,,,,,,,
0.0,1.0,1.240705,0.0,6.0,6.0,6.0,1.0,kilt_18s.jpg,0.0,clockno_default.jpg,2.0,14,,,,,,,,,,,,,,,,,,,,,,,,,,,,,,,,
0.0,1.0,1.07541,0.0,7.0,7.0,7.0,1.0,lip_gloss_06s.jpg,0.0,clockno_default.jpg,2.0,14,,,,,,,,,,,,,,,,,,,,,,,,,,,,,,,,
0.0,1.0,1.15255,0.0,8.0,8.0,8.0,1.0,bottle_opener_11s.jpg,0.0,clockno_default.jpg,2.0,14,,,,,,,,,,,,,,,,,,,,,,,,,,,,,,,,
0.0,1.0,1.164355,0.0,9.0,9.0,9.0,1.0,cape_11s.jpg,0.0,clockno_default.jpg,2.0,14,,,,,,,,,,,,,,,,,,,,,,,,,,,,,,,,
0.0,1.0,1.1646,0.0,10.0,10.0,10.0,1.0,puddle_02s.jpg,0.0,clockno_default.jpg,2.0,14,,,,,,,,,,,,,,,,,,,,,,,,,,,,,,,,
0.0,1.0,0.8853,0.0,11.0,11.0,11.0,1.0,mushroom_10n.jpg,0.0,clockno_default.jpg,2.0,14,,,,,,,,,,,,,,,,,,,,,,,,,,,,,,,,
0.0,1.0,0.818375,0.0,12.0,12.0,12.0,1.0,paper_bag_12s.jpg,0.0,clockno_up.jpg,3.0,14,,,,,,,,,,,,,,,,,,,,,,,,,,,,,,,,
0.0,1.0,1.02968,0.0,13.0,13.0,13.0,1.0,antenna_01b.jpg,0.0,clockno_default.jpg,3.0,14,,,,,,,,,,,,,,,,,,,,,,,,,,,,,,,,
0.0,1.0,1.69951,0.0,14.0,14.0,14.0,1.0,kangaroo_02s.jpg,0.0,clockno_default.jpg,3.0,14,,,,,,,,,,,,,,,,,,,,,,,,,,,,,,,,
0.0,1.0,1.836895,0.0,15.0,15.0,15.0,1.0,ring_03s.jpg,0.0,clockno_default.jpg,3.0,14,,,,,,,,,,,,,,,,,,,,,,,,,,,,,,,,
0.0,1.0,1.655035,0.0,16.0,16.0,16.0,1.0,pineapple_12s.jpg,0.0,clockno_default.jpg,3.0,14,,,,,,,,,,,,,,,,,,,,,,,,,,,,,,,,
0.0,1.0,1.468105,0.0,17.0,17.0,17.0,1.0,pillow_03s.jpg,0.0,clockno_default.jpg,3.0,14,,,,,,,,,,,,,,,,,,,,,,,,,,,,,,,,
0.0,1.0,0.80045,0.0,18.0,18.0,18.0,1.0,swan_11s.jpg,0.0,clockno_up.jpg,4.0,14,,,,,,,,,,,,,,,,,,,,,,,,,,,,,,,,
1.0,1.0,0.84739,0.0,19.0,19.0,19.0,1.0,swan_11s.jpg,1.0,clockno_default.jpg,4.0,14,,,,,,,,,,,,,,,,,,,,,,,,,,,,,,,,
0.0,1.0,1.224915,0.0,20.0,20.0,20.0,1.0,coat_rack_01b.jpg,0.0,clockno_default.jpg,4.0,14,,,,,,,,,,,,,,,,,,,,,,,,,,,,,,,,
0.0,1.0,1.71806,0.0,21.0,21.0,21.0,1.0,candy_cane_06s.jpg,0.0,clockno_default.jpg,4.0,14,,,,,,,,,,,,,,,,,,,,,,,,,,,,,,,,
0.0,1.0,1.48228,0.0,22.0,22.0,22.0,1.0,swimming_pool_17s.jpg,0.0,clockno_default.jpg,4.0,14,,,,,,,,,,,,,,,,,,,,,,,,,,,,,,,,
0.0,1.0,1.270645,0.0,23.0,23.0,23.0,1.0,incense_02s.jpg,0.0,clockno_default.jpg,4.0,14,,,,,,,,,,,,,,,,,,,,,,,,,,,,,,,,
0.0,1.0,2.046865,0.0,24.0,24.0,24.0,1.0,coffee_filter_10s.jpg,0.0,clockno_default.jpg,4.0,14,,,,,,,,,,,,,,,,,,,,,,,,,,,,,,,,
0.0,1.0,1.97994,0.0,25.0,25.0,25.0,1.0,scooter.jpg,0.0,clockno_up.jpg,5.0,14,,,,,,,,,,,,,,,,,,,,,,,,,,,,,,,,
0.0,1.0,1.46673,0.0,26.0,26.0,26.0,1.0,sleeping_bag_12s.jpg,0.0,clockno_default.jpg,5.0,14,,,,,,,,,,,,,,,,,,,,,,,,,,,,,,,,
0.0,1.0,1.13176,0.0,27.0,27.0,27.0,1.0,pepper_mill_03s.jpg,0.0,clockno_default.jpg,5.0,14,,,,,,,,,,,,,,,,,,,,,,,,,,,,,,,,
0.0,1.0,1.13653,0.0,28.0,28.0,28.0,1.0,gargoyle_08s.jpg,0.0,clockno_default.jpg,5.0,14,,,,,,,,,,,,,,,,,,,,,,,,,,,,,,,,
0.0,1.0,0.91825,0.0,29.0,29.0,29.0,1.0,safety_pin_02s.jpg,0.0,clockno_default.jpg,5.0,14,,,,,,,,,,,,,,,,,,,,,,,,,,,,,,,,
0.0,1.0,0.92148,0.0,30.0,30.0,30.0,1.0,omelet_07s.jpg,0.0,clockno_default.jpg,5.0,14,,,,,,,,,,,,,,,,,,,,,,,,,,,,,,,,
0.0,1.0,2.129915,0.0,31.0,31.0,31.0,1.0,rabbit_03s.jpg,0.0,clockno_up.jpg,6.0,14,,,,,,,,,,,,,,,,,,,,,,,,,,,,,,,,
1.0,1.0,1.251105,0.0,32.0,32.0,32.0,1.0,rabbit_03s.jpg,1.0,clockno_default.jpg,6.0,14,,,,,,,,,,,,,,,,,,,,,,,,,,,,,,,,
1.0,1.0,0.52149,0.0,33.0,33.0,33.0,1.0,rabbit_03s.jpg,1.0,clockno_default.jpg,6.0,14,,,,,,,,,,,,,,,,,,,,,,,,,,,,,,,,
0.0,1.0,1.064045,0.0,34.0,34.0,34.0,1.0,letter_opener_03s.jpg,0.0,clockno_default.jpg,6.0,14,,,,,,,,,,,,,,,,,,,,,,,,,,,,,,,,
0.0,1.0,1.596245,0.0,35.0,35.0,35.0,1.0,rice_12s.jpg,0.0,clockno_default.jpg,6.0,14,,,,,,,,,,,,,,,,,,,,,,,,,,,,,,,,
,,,,,,,,,1.0,,,14,1.0,1.0,6.01486,0.0,0.0,0.0,0.0,1.0,mud_13s.jpg,lip_gloss_06s.jpg,,,,,,,,,,,,,,,,,,,,,,
,,,,,,,,,1.0,,,14,1.0,1.0,2.81505,0.0,1.0,1.0,1.0,1.0,cape_11s.jpg,paper_bag_12s.jpg,,,,,,,,,,,,,,,,,,,,,,
,,,,,,,,,1.0,,,14,1.0,1.0,2.33359,0.0,2.0,2.0,2.0,1.0,swimming_pool_17s.jpg,scooter.jpg,,,,,,,,,,,,,,,,,,,,,,
,,,,,,,,,0.0,,,14,0.0,1.0,4.649535,0.0,3.0,3.0,3.0,1.0,bottle_opener_11s.jpg,popcorn_09s.jpg,,,,,,,,,,,,,,,,,,,,,,
,,,,,,,,,1.0,,,14,1.0,1.0,6.001095,0.0,4.0,4.0,4.0,1.0,antenna_01b.jpg,pineapple_12s.jpg,,,,,,,,,,,,,,,,,,,,,,
,,,,,,,,,1.0,,,14,1.0,1.0,1.98159,0.0,5.0,5.0,5.0,1.0,candy_cane_06s.jpg,coffee_filter_10s.jpg,,,,,,,,,,,,,,,,,,,,,,
0.0,1.0,2.07217,,,,,,rolling_pin_02s.jpg,0.0,clock_7_1.png,1.0,14,,,,,,,,,,,,,,,,,,0.0,0.0,0.0,0.0,1.0,,,,,,,,,,
1.0,1.0,1.118665,,,,,,rolling_pin_02s.jpg,1.0,clock_7_2.png,1.0,14,,,,,,,,,,,,,,,,,,0.0,1.0,1.0,1.0,1.0,,,,,,,,,,
0.0,1.0,1.91155,,,,,,roller_coaster_07s.jpg,0.0,clock_7_3.png,1.0,14,,,,,,,,,,,,,,,,,,0.0,2.0,2.0,2.0,1.0,,,,,,,,,,
0.0,1.0,0.920665,,,,,,ice_pack_09s.jpg,0.0,clock_7_4.png,1.0,14,,,,,,,,,,,,,,,,,,0.0,3.0,3.0,3.0,1.0,,,,,,,,,,
1.0,1.0,1.11675,,,,,,rolling_pin_02s.jpg,1.0,clock_7_5.png,1.0,14,,,,,,,,,,,,,,,,,,0.0,4.0,4.0,4.0,1.0,,,,,,,,,,
1.0,1.0,0.89882,,,,,,roller_coaster_07s.jpg,1.0,clock_7_6.png,1.0,14,,,,,,,,,,,,,,,,,,0.0,5.0,5.0,5.0,1.0,,,,,,,,,,
0.0,1.0,1.01868,,,,,,jalapeno_15s.jpg,0.0,clock_7_7.png,1.0,14,,,,,,,,,,,,,,,,,,0.0,6.0,6.0,6.0,1.0,,,,,,,,,,
0.0,1.0,0.863745,,,,,,iron_13s.jpg,0.0,clock_6_1.png,2.0,14,,,,,,,,,,,,,,,,,,0.0,7.0,7.0,7.0,1.0,,,,,,,,,,
0.0,1.0,0.932675,,,,,,joystick_01b.jpg,0.0,clock_6_2.png,2.0,14,,,,,,,,,,,,,,,,,,0.0,8.0,8.0,8.0,1.0,,,,,,,,,,
0.0,1.0,0.746785,,,,,,tiara_05s.jpg,0.0,clock_6_3.png,2.0,14,,,,,,,,,,,,,,,,,,0.0,9.0,9.0,9.0,1.0,,,,,,,,,,
0.0,1.0,0.730525,,,,,,tie_03s.jpg,0.0,clock_6_4.png,2.0,14,,,,,,,,,,,,,,,,,,0.0,10.0,10.0,10.0,1.0,,,,,,,,,,
1.0,1.0,1.418525,,,,,,tiara_05s.jpg,1.0,clock_6_5.png,2.0,14,,,,,,,,,,,,,,,,,,0.0,11.0,11.0,11.0,1.0,,,,,,,,,,
0.0,1.0,0.987055,,,,,,padlock_07s.jpg,0.0,clock_6_6.png,2.0,14,,,,,,,,,,,,,,,,,,0.0,12.0,12.0,12.0,1.0,,,,,,,,,,
0.0,1.0,1.017645,,,,,,keyboard_05s.jpg,0.0,clock_5_1.png,3.0,14,,,,,,,,,,,,,,,,,,0.0,13.0,13.0,13.0,1.0,,,,,,,,,,
0.0,1.0,1.262545,,,,,,lamb_chop_07s.jpg,0.0,clock_5_2.png,3.0,14,,,,,,,,,,,,,,,,,,0.0,14.0,14.0,14.0,1.0,,,,,,,,,,
0.0,1.0,0.83072,,,,,,projector_08s.jpg,0.0,clock_5_3.png,3.0,14,,,,,,,,,,,,,,,,,,0.0,15.0,15.0,15.0,1.0,,,,,,,,,,
0.0,1.0,1.206545,,,,,,soccer_ball_12s.jpg,0.0,clock_5_4.png,3.0,14,,,,,,,,,,,,,,,,,,0.0,16.0,16.0,16.0,1.0,,,,,,,,,,
0.0,1.0,1.04331,,,,,,chocolate_01b.jpg,0.0,clock_5_5.png,3.0,14,,,,,,,,,,,,,,,,,,0.0,17.0,17.0,17.0,1.0,,,,,,,,,,
0.0,1.0,0.937065,,,,,,sea_urchin_09s.jpg,0.0,clock_5_1.png,4.0,14,,,,,,,,,,,,,,,,,,0.0,18.0,18.0,18.0,1.0,,,,,,,,,,
0.0,1.0,1.41786,,,,,,surfboard_11s.jpg,0.0,clock_5_2.png,4.0,14,,,,,,,,,,,,,,,,,,0.0,19.0,19.0,19.0,1.0,,,,,,,,,,
0.0,1.0,1.764535,,,,,,ink_08s.jpg,0.0,clock_5_3.png,4.0,14,,,,,,,,,,,,,,,,,,0.0,20.0,20.0,20.0,1.0,,,,,,,,,,
0.0,1.0,1.9644,,,,,,air_pump_05s.jpg,0.0,clock_5_4.png,4.0,14,,,,,,,,,,,,,,,,,,0.0,21.0,21.0,21.0,1.0,,,,,,,,,,
0.0,1.0,0.945225,,,,,,stamp2_08s.jpg,0.0,clock_5_5.png,4.0,14,,,,,,,,,,,,,,,,,,0.0,22.0,22.0,22.0,1.0,,,,,,,,,,
0.0,1.0,1.097645,,,,,,magnet_03s.jpg,0.0,clock_7_1.png,5.0,14,,,,,,,,,,,,,,,,,,0.0,23.0,23.0,23.0,1.0,,,,,,,,,,
0.0,1.0,1.45471,,,,,,razor_12s.jpg,0.0,clock_7_2.png,5.0,14,,,,,,,,,,,,,,,,,,0.0,24.0,24.0,24.0,1.0,,,,,,,,,,
0.0,1.0,0.846115,,,,,,trident_07s.jpg,0.0,clock_7_3.png,5.0,14,,,,,,,,,,,,,,,,,,0.0,25.0,25.0,25.0,1.0,,,,,,,,,,
0.0,0.0,0.729755,,,,,,magnet_03s.jpg,1.0,clock_7_4.png,5.0,14,,,,,,,,,,,,,,,,,,0.0,26.0,26.0,26.0,1.0,,,,,,,,,,
0.0,1.0,1.29689,,,,,,lamb_04s.jpg,0.0,clock_7_5.png,5.0,14,,,,,,,,,,,,,,,,,,0.0,27.0,27.0,27.0,1.0,,,,,,,,,,
1.0,1.0,1.14748,,,,,,magnet_03s.jpg,1.0,clock_7_6.png,5.0,14,,,,,,,,,,,,,,,,,,0.0,28.0,28.0,28.0,1.0,,,,,,,,,,
0.0,1.0,1.164765,,,,,,plug_08s.jpg,0.0,clock_7_7.png,5.0,14,,,,,,,,,,,,,,,,,,0.0,29.0,29.0,29.0,1.0,,,,,,,,,,
0.0,1.0,1.146305,,,,,,ticktacktoe_08s.jpg,0.0,clock_6_1.png,6.0,14,,,,,,,,,,,,,,,,,,0.0,30.0,30.0,30.0,1.0,,,,,,,,,,
0.0,1.0,1.063375,,,,,,treasure_08s.jpg,0.0,clock_6_2.png,6.0,14,,,,,,,,,,,,,,,,,,0.0,31.0,31.0,31.0,1.0,,,,,,,,,,
0.0,1.0,0.86332,,,,,,tulip_02s.jpg,0.0,clock_6_3.png,6.0,14,,,,,,,,,,,,,,,,,,0.0,32.0,32.0,32.0,1.0,,,,,,,,,,
0.0,1.0,1.074615,,,,,,telephone_pole_05s.jpg,0.0,clock_6_4.png,6.0,14,,,,,,,,,,,,,,,,,,0.0,33.0,33.0,33.0,1.0,,,,,,,,,,
0.0,1.0,1.313555,,,,,,luggage_08s.jpg,0.0,clock_6_5.png,6.0,14,,,,,,,,,,,,,,,,,,0.0,34.0,34.0,34.0,1.0,,,,,,,,,,
0.0,1.0,1.13649,,,,,,dirt_bike_11s.jpg,0.0,clock_6_6.png,6.0,14,,,,,,,,,,,,,,,,,,0.0,35.0,35.0,35.0,1.0,,,,,,,,,,
,,,,,,,,,1.0,,,14,1.0,1.0,3.16673,,,,,,padlock_07s.jpg,projector_08s.jpg,,,,,,,,,,,,,0.0,0.0,0.0,0.0,1.0,,,,,
,,,,,,,,,0.0,,,14,0.0,1.0,3.931735,,,,,,ink_08s.jpg,chocolate_01b.jpg,,,,,,,,,,,,,0.0,1.0,1.0,1.0,1.0,,,,,
,,,,,,,,,0.0,,,14,0.0,1.0,5.93572,,,,,,trident_07s.jpg,stamp2_08s.jpg,,,,,,,,,,,,,0.0,2.0,2.0,2.0,1.0,,,,,
,,,,,,,,,1.0,,,14,0.0,0.0,1.633505,,,,,,ice_pack_09s.jpg,jalapeno_15s.jpg,,,,,,,,,,,,,0.0,3.0,3.0,3.0,1.0,,,,,
,,,,,,,,,1.0,,,14,1.0,1.0,2.13234,,,,,,treasure_08s.jpg,luggage_08s.jpg,,,,,,,,,,,,,0.0,4.0,4.0,4.0,1.0,,,,,
,,,,,,,,,1.0,,,14,1.0,1.0,3.06706,,,,,,iron_13s.jpg,tie_03s.jpg,,,,,,,,,,,,,0.0,5.0,5.0,5.0,1.0,,,,,
,,,,,,,,,,,,14,,,,,,,,,,,,,,,,clock_present_1_13.xlsx,clock_compare_task_1_13.xlsx,,,,,,,,,,,0.0,0.0,0.0,0.0,1.0
0.0,1.0,1.545205,,,,,,pocket_watch_16s.jpg,0.0,clock_6_1.png,1.0,14,,,,,,,,,,,,,,,,,,0.0,0.0,0.0,0.0,1.0,,,,,,,,,,
0.0,1.0,1.638185,,,,,,throne_11s.jpg,0.0,clock_6_2.png,1.0,14,,,,,,,,,,,,,,,,,,0.0,1.0,1.0,1.0,1.0,,,,,,,,,,
0.0,1.0,1.34566,,,,,,flask_04s.jpg,0.0,clock_6_3.png,1.0,14,,,,,,,,,,,,,,,,,,0.0,2.0,2.0,2.0,1.0,,,,,,,,,,
0.0,1.0,1.246215,,,,,,funnel_01b.jpg,0.0,clock_6_4.png,1.0,14,,,,,,,,,,,,,,,,,,0.0,3.0,3.0,3.0,1.0,,,,,,,,,,
0.0,1.0,1.449845,,,,,,lid_10s.jpg,0.0,clock_6_5.png,1.0,14,,,,,,,,,,,,,,,,,,0.0,4.0,4.0,4.0,1.0,,,,,,,,,,
0.0,1.0,0.97993,,,,,,polaroid_05s.jpg,0.0,clock_6_6.png,1.0,14,,,,,,,,,,,,,,,,,,0.0,5.0,5.0,5.0,1.0,,,,,,,,,,
0.0,1.0,0.441415,,,,,,inhaler_01b.jpg,0.0,clock_7_1.png,2.0,14,,,,,,,,,,,,,,,,,,0.0,6.0,6.0,6.0,1.0,,,,,,,,,,
1.0,1.0,1.01777,,,,,,inhaler_01b.jpg,1.0,clock_7_2.png,2.0,14,,,,,,,,,,,,,,,,,,0.0,7.0,7.0,7.0,1.0,,,,,,,,,,
0.0,1.0,0.83934,,,,,,jewel_01b.jpg,0.0,clock_7_3.png,2.0,14,,,,,,,,,,,,,,,,,,0.0,8.0,8.0,8.0,1.0,,,,,,,,,,
0.0,1.0,1.24935,,,,,,pea_11s.jpg,0.0,clock_7_4.png,2.0,14,,,,,,,,,,,,,,,,,,0.0,9.0,9.0,9.0,1.0,,,,,,,,,,
,0.0,,,,,,,frog_09s.jpg,0.0,clock_7_5.png,2.0,14,,,,,,,,,,,,,,,,,,0.0,10.0,10.0,10.0,1.0,,,,,,,,,,
1.0,1.0,1.113585,,,,,,inhaler_01b.jpg,1.0,clock_7_6.png,2.0,14,,,,,,,,,,,,,,,,,,0.0,11.0,11.0,11.0,1.0,,,,,,,,,,
0.0,1.0,1.154215,,,,,,purse_05s.jpg,0.0,clock_7_7.png,2.0,14,,,,,,,,,,,,,,,,,,0.0,12.0,12.0,12.0,1.0,,,,,,,,,,
0.0,1.0,0.913865,,,,,,hydrant_10s.jpg,0.0,clock_7_1.png,3.0,14,,,,,,,,,,,,,,,,,,0.0,13.0,13.0,13.0,1.0,,,,,,,,,,
0.0,1.0,1.18146,,,,,,film_03s.jpg,0.0,clock_7_2.png,3.0,14,,,,,,,,,,,,,,,,,,0.0,14.0,14.0,14.0,1.0,,,,,,,,,,
0.0,1.0,0.74959,,,,,,quilt_03s.jpg,0.0,clock_7_3.png,3.0,14,,,,,,,,,,,,,,,,,,0.0,15.0,15.0,15.0,1.0,,,,,,,,,,
0.0,1.0,1.046845,,,,,,popsicle_02s.jpg,0.0,clock_7_4.png,3.0,14,,,,,,,,,,,,,,,,,,0.0,16.0,16.0,16.0,1.0,,,,,,,,,,
0.0,1.0,1.163495,,,,,,fox_13s.jpg,0.0,clock_7_5.png,3.0,14,,,,,,,,,,,,,,,,,,0.0,17.0,17.0,17.0,1.0,,,,,,,,,,
0.0,1.0,1.368565,,,,,,orchid_01b.jpg,0.0,clock_7_6.png,3.0,14,,,,,,,,,,,,,,,,,,0.0,18.0,18.0,18.0,1.0,,,,,,,,,,
0.0,1.0,1.10645,,,,,,marshmallow_08s.jpg,0.0,clock_7_7.png,3.0,14,,,,,,,,,,,,,,,,,,0.0,19.0,19.0,19.0,1.0,,,,,,,,,,
0.0,1.0,1.479905,,,,,,taxi_15s.jpg,0.0,clock_5_1.png,4.0,14,,,,,,,,,,,,,,,,,,0.0,20.0,20.0,20.0,1.0,,,,,,,,,,
0.0,1.0,0.95219,,,,,,fork_04s.jpg,0.0,clock_5_2.png,4.0,14,,,,,,,,,,,,,,,,,,0.0,21.0,21.0,21.0,1.0,,,,,,,,,,
0.0,1.0,1.38148,,,,,,puppet_01b.jpg,0.0,clock_5_3.png,4.0,14,,,,,,,,,,,,,,,,,,0.0,22.0,22.0,22.0,1.0,,,,,,,,,,
0.0,1.0,1.079235,,,,,,megaphone_03s.jpg,0.0,clock_5_4.png,4.0,14,,,,,,,,,,,,,,,,,,0.0,23.0,23.0,23.0,1.0,,,,,,,,,,
1.0,1.0,1.017385,,,,,,megaphone_03s.jpg,1.0,clock_5_5.png,4.0,14,,,,,,,,,,,,,,,,,,0.0,24.0,24.0,24.0,1.0,,,,,,,,,,
0.0,1.0,0.78844,,,,,,cotton_candy_01b.jpg,0.0,clock_5_1.png,5.0,14,,,,,,,,,,,,,,,,,,0.0,25.0,25.0,25.0,1.0,,,,,,,,,,
0.0,1.0,0.85341,,,,,,puppy_08s.jpg,0.0,clock_5_2.png,5.0,14,,,,,,,,,,,,,,,,,,0.0,26.0,26.0,26.0,1.0,,,,,,,,,,
0.0,1.0,1.361185,,,,,,glasses01a.jpg,0.0,clock_5_3.png,5.0,14,,,,,,,,,,,,,,,,,,0.0,27.0,27.0,27.0,1.0,,,,,,,,,,
1.0,1.0,1.01502,,,,,,glasses01a.jpg,1.0,clock_5_4.png,5.0,14,,,,,,,,,,,,,,,,,,0.0,28.0,28.0,28.0,1.0,,,,,,,,,,
0.0,1.0,1.66187,,,,,,typewriter_11s.jpg,0.0,clock_5_5.png,5.0,14,,,,,,,,,,,,,,,,,,0.0,29.0,29.0,29.0,1.0,,,,,,,,,,
0.0,1.0,1.137745,,,,,,fur_coat_11s.jpg,0.0,clock_6_1.png,6.0,14,,,,,,,,,,,,,,,,,,0.0,30.0,30.0,30.0,1.0,,,,,,,,,,
0.0,1.0,0.845715,,,,,,rudder_02s.jpg,0.0,clock_6_2.png,6.0,14,,,,,,,,,,,,,,,,,,0.0,31.0,31.0,31.0,1.0,,,,,,,,,,
0.0,1.0,1.41122,,,,,,chip_04s.jpg,0.0,clock_6_3.png,6.0,14,,,,,,,,,,,,,,,,,,0.0,32.0,32.0,32.0,1.0,,,,,,,,,,
0.0,1.0,1.29939,,,,,,thread_08s.jpg,0.0,clock_6_4.png,6.0,14,,,,,,,,,,,,,,,,,,0.0,33.0,33.0,33.0,1.0,,,,,,,,,,
0.0,1.0,1.187235,,,,,,quilt_03s.jpg,0.0,clock_6_5.png,6.0,14,,,,,,,,,,,,,,,,,,0.0,34.0,34.0,34.0,1.0,,,,,,,,,,
0.0,1.0,1.26545,,,,,,polar_bear_02s.jpg,0.0,clock_6_6.png,6.0,14,,,,,,,,,,,,,,,,,,0.0,35.0,35.0,35.0,1.0,,,,,,,,,,
,,,,,,,,,0.0,,,14,0.0,1.0,3.21457,,,,,,fork_04s.jpg,orchid_01b.jpg,,,,,,,,,,,,,0.0,0.0,0.0,0.0,1.0,,,,,
,,,,,,,,,0.0,,,14,1.0,0.0,3.23416,,,,,,cotton_candy_01b.jpg,puppet_01b.jpg,,,,,,,,,,,,,0.0,1.0,1.0,1.0,1.0,,,,,
,,,,,,,,,1.0,,,14,1.0,1.0,9.33549,,,,,,polaroid_05s.jpg,jewel_01b.jpg,,,,,,,,,,,,,0.0,2.0,2.0,2.0,1.0,,,,,
,,,,,,,,,1.0,,,14,1.0,1.0,2.90045,,,,,,pocket_watch_16s.jpg,funnel_01b.jpg,,,,,,,,,,,,,0.0,3.0,3.0,3.0,1.0,,,,,
,,,,,,,,,0.0,,,14,0.0,1.0,3.69027,,,,,,lid_10s.jpg,throne_11s.jpg,,,,,,,,,,,,,0.0,4.0,4.0,4.0,1.0,,,,,
,,,,,,,,,1.0,,,14,1.0,1.0,2.049185,,,,,,pea_11s.jpg,purse_05s.jpg,,,,,,,,,,,,,0.0,5.0,5.0,5.0,1.0,,,,,
,,,,,,,,,,,,14,,,,,,,,,,,,,,,,clock_present_2_13.xlsx,clock_compare_task_2_13.xlsx,,,,,,,,,,,0.0,1.0,1.0,1.0,1.0
0.0,1.0,0.936825,,,,,,trumpet_06s.jpg,0.0,clock_6_1.png,1.0,14,,,,,,,,,,,,,,,,,,0.0,0.0,0.0,0.0,1.0,,,,,,,,,,
0.0,1.0,1.1898,,,,,,pantyhose_07s.jpg,0.0,clock_6_2.png,1.0,14,,,,,,,,,,,,,,,,,,0.0,1.0,1.0,1.0,1.0,,,,,,,,,,
0.0,1.0,0.920555,,,,,,latte_06s.jpg,0.0,clock_6_3.png,1.0,14,,,,,,,,,,,,,,,,,,0.0,2.0,2.0,2.0,1.0,,,,,,,,,,
1.0,1.0,1.164225,,,,,,trumpet_06s.jpg,1.0,clock_6_4.png,1.0,14,,,,,,,,,,,,,,,,,,0.0,3.0,3.0,3.0,1.0,,,,,,,,,,
0.0,1.0,1.403155,,,,,,jetski_10s.jpg,0.0,clock_6_5.png,1.0,14,,,,,,,,,,,,,,,,,,0.0,4.0,4.0,4.0,1.0,,,,,,,,,,
0.0,1.0,0.766625,,,,,,toy_04s.jpg,0.0,clock_6_6.png,1.0,14,,,,,,,,,,,,,,,,,,0.0,5.0,5.0,5.0,1.0,,,,,,,,,,
0.0,1.0,1.31469,,,,,,espresso_01b.jpg,0.0,clock_5_1.png,2.0,14,,,,,,,,,,,,,,,,,,0.0,6.0,6.0,6.0,1.0,,,,,,,,,,
0.0,1.0,1.082615,,,,,,tambourine_06s.jpg,0.0,clock_5_2.png,2.0,14,,,,,,,,,,,,,,,,,,0.0,7.0,7.0,7.0,1.0,,,,,,,,,,
0.0,1.0,0.89672,,,,,,comic_book_02s.jpg,0.0,clock_5_3.png,2.0,14,,,,,,,,,,,,,,,,,,0.0,8.0,8.0,8.0,1.0,,,,,,,,,,
0.0,1.0,0.72232,,,,,,snowman_02s.jpg,0.0,clock_5_4.png,2.0,14,,,,,,,,,,,,,,,,,,0.0,9.0,9.0,9.0,1.0,,,,,,,,,,
,0.0,,,,,,,espresso_01b.jpg,1.0,clock_5_5.png,2.0,14,,,,,,,,,,,,,,,,,,0.0,10.0,10.0,10.0,1.0,,,,,,,,,,
0.0,1.0,0.81713,,,,,,blowfish_03s.jpg,0.0,clock_7_1.png,3.0,14,,,,,,,,,,,,,,,,,,0.0,11.0,11.0,11.0,1.0,,,,,,,,,,
1.0,1.0,0.84867,,,,,,blowfish_03s.jpg,1.0,clock_7_2.png,3.0,14,,,,,,,,,,,,,,,,,,0.0,12.0,12.0,12.0,1.0,,,,,,,,,,
1.0,1.0,1.006915,,,,,,blowfish_03s.jpg,1.0,clock_7_3.png,3.0,14,,,,,,,,,,,,,,,,,,0.0,13.0,13.0,13.0,1.0,,,,,,,,,,
1.0,1.0,0.905985,,,,,,blowfish_03s.jpg,1.0,clock_7_4.png,3.0,14,,,,,,,,,,,,,,,,,,0.0,14.0,14.0,14.0,1.0,,,,,,,,,,
0.0,1.0,0.67457,,,,,,beard_16s.jpg,0.0,clock_7_5.png,3.0,14,,,,,,,,,,,,,,,,,,0.0,15.0,15.0,15.0,1.0,,,,,,,,,,
0.0,1.0,1.096675,,,,,,police_car_01s.jpg,0.0,clock_7_6.png,3.0,14,,,,,,,,,,,,,,,,,,0.0,16.0,16.0,16.0,1.0,,,,,,,,,,
0.0,1.0,1.123,,,,,,comic_book_02s.jpg,0.0,clock_7_7.png,3.0,14,,,,,,,,,,,,,,,,,,0.0,17.0,17.0,17.0,1.0,,,,,,,,,,
0.0,1.0,0.614135,,,,,,gazelle_10s.jpg,0.0,clock_7_1.png,4.0,14,,,,,,,,,,,,,,,,,,0.0,18.0,18.0,18.0,1.0,,,,,,,,,,
0.0,1.0,1.14938,,,,,,chalice_10s.jpg,0.0,clock_7_2.png,4.0,14,,,,,,,,,,,,,,,,,,0.0,19.0,19.0,19.0,1.0,,,,,,,,,,
0.0,1.0,1.39608,,,,,,foam_03s.jpg,0.0,clock_7_3.png,4.0,14,,,,,,,,,,,,,,,,,,0.0,20.0,20.0,20.0,1.0,,,,,,,,,,
0.0,1.0,0.96543,,,,,,jersey_02s.jpg,0.0,clock_7_4.png,4.0,14,,,,,,,,,,,,,,,,,,0.0,21.0,21.0,21.0,1.0,,,,,,,,,,
1.0,1.0,1.28501,,,,,,foam_03s.jpg,1.0,clock_7_5.png,4.0,14,,,,,,,,,,,,,,,,,,0.0,22.0,22.0,22.0,1.0,,,,,,,,,,
0.0,1.0,0.86262,,,,,,contact_lens_15s.jpg,0.0,clock_7_6.png,4.0,14,,,,,,,,,,,,,,,,,,0.0,23.0,23.0,23.0,1.0,,,,,,,,,,
1.0,1.0,1.11605,,,,,,contact_lens_15s.jpg,1.0,clock_7_7.png,4.0,14,,,,,,,,,,,,,,,,,,0.0,24.0,24.0,24.0,1.0,,,,,,,,,,
0.0,1.0,1.41363,,,,,,pacifier_09s.jpg,0.0,clock_6_1.png,5.0,14,,,,,,,,,,,,,,,,,,0.0,25.0,25.0,25.0,1.0,,,,,,,,,,
0.0,1.0,0.97986,,,,,,onion_10s.jpg,0.0,clock_6_2.png,5.0,14,,,,,,,,,,,,,,,,,,0.0,26.0,26.0,26.0,1.0,,,,,,,,,,
0.0,1.0,1.07419,,,,,,knot_01b.jpg,0.0,clock_6_3.png,5.0,14,,,,,,,,,,,,,,,,,,0.0,27.0,27.0,27.0,1.0,,,,,,,,,,
0.0,1.0,1.483525,,,,,,cucumber_07s.jpg,0.0,clock_6_4.png,5.0,14,,,,,,,,,,,,,,,,,,0.0,28.0,28.0,28.0,1.0,,,,,,,,,,
0.0,1.0,1.314365,,,,,,pump_11s.jpg,0.0,clock_6_5.png,5.0,14,,,,,,,,,,,,,,,,,,0.0,29.0,29.0,29.0,1.0,,,,,,,,,,
0.0,1.0,1.396905,,,,,,stingray_02s.jpg,0.0,clock_6_6.png,5.0,14,,,,,,,,,,,,,,,,,,0.0,30.0,30.0,30.0,1.0,,,,,,,,,,
0.0,1.0,0.889935,,,,,,spacesuit_02s.jpg,0.0,clock_5_1.png,6.0,14,,,,,,,,,,,,,,,,,,0.0,31.0,31.0,31.0,1.0,,,,,,,,,,
0.0,1.0,1.1874,,,,,,contact_lens_15s.jpg,0.0,clock_5_2.png,6.0,14,,,,,,,,,,,,,,,,,,0.0,32.0,32.0,32.0,1.0,,,,,,,,,,
0.0,1.0,1.29766,,,,,,paper_towel_03s.jpg,0.0,clock_5_3.png,6.0,14,,,,,,,,,,,,,,,,,,0.0,33.0,33.0,33.0,1.0,,,,,,,,,,
1.0,1.0,1.083325,,,,,,paper_towel_03s.jpg,1.0,clock_5_4.png,6.0,14,,,,,,,,,,,,,,,,,,0.0,34.0,34.0,34.0,1.0,,,,,,,,,,
1.0,1.0,2.068105,,,,,,spacesuit_02s.jpg,1.0,clock_5_5.png,6.0,14,,,,,,,,,,,,,,,,,,0.0,35.0,35.0,35.0,1.0,,,,,,,,,,
,,,,,,,,,1.0,,,14,1.0,1.0,3.199245,,,,,,police_car_01s.jpg,chalice_10s.jpg,,,,,,,,,,,,,0.0,0.0,0.0,0.0,1.0,,,,,
,,,,,,,,,1.0,,,14,1.0,1.0,2.215975,,,,,,jetski_10s.jpg,tambourine_06s.jpg,,,,,,,,,,,,,0.0,1.0,1.0,1.0,1.0,,,,,
,,,,,,,,,0.0,,,14,0.0,1.0,2.021025,,,,,,gazelle_10s.jpg,beard_16s.jpg,,,,,,,,,,,,,0.0,2.0,2.0,2.0,1.0,,,,,
,,,,,,,,,1.0,,,14,0.0,0.0,3.82012,,,,,,latte_06s.jpg,toy_04s.jpg,,,,,,,,,,,,,0.0,3.0,3.0,3.0,1.0,,,,,
,,,,,,,,,1.0,,,14,1.0,1.0,4.12487,,,,,,pacifier_09s.jpg,cucumber_07s.jpg,,,,,,,,,,,,,0.0,4.0,4.0,4.0,1.0,,,,,
,,,,,,,,,1.0,,,14,1.0,1.0,1.956175,,,,,,onion_10s.jpg,pump_11s.jpg,,,,,,,,,,,,,0.0,5.0,5.0,5.0,1.0,,,,,
,,,,,,,,,,,,14,,,,,,,,,,,,,,,,clock_present_3_13.xlsx,clock_compare_task_3_13.xlsx,,,,,,,,,,,0.0,2.0,2.0,2.0,1.0
0.0,1.0,2.339495,,,,,,lipstick_02s.jpg,0.0,clock_7_1.png,1.0,14,,,,,,,,,,,,,,,,,,0.0,0.0,0.0,0.0,1.0,,,,,,,,,,
0.0,1.0,1.650875,,,,,,kettle_08s.jpg,0.0,clock_7_2.png,1.0,14,,,,,,,,,,,,,,,,,,0.0,1.0,1.0,1.0,1.0,,,,,,,,,,
0.0,0.0,1.949245,,,,,,lipstick_02s.jpg,1.0,clock_7_3.png,1.0,14,,,,,,,,,,,,,,,,,,0.0,2.0,2.0,2.0,1.0,,,,,,,,,,
1.0,1.0,1.09731,,,,,,lipstick_02s.jpg,1.0,clock_7_4.png,1.0,14,,,,,,,,,,,,,,,,,,0.0,3.0,3.0,3.0,1.0,,,,,,,,,,
0.0,1.0,1.03158,,,,,,pomegranate_04s.jpg,0.0,clock_7_5.png,1.0,14,,,,,,,,,,,,,,,,,,0.0,4.0,4.0,4.0,1.0,,,,,,,,,,
0.0,1.0,0.916025,,,,,,pencil02a.jpg,0.0,clock_7_6.png,1.0,14,,,,,,,,,,,,,,,,,,0.0,5.0,5.0,5.0,1.0,,,,,,,,,,
0.0,1.0,0.96317,,,,,,lollipop_08s.jpg,0.0,clock_7_7.png,1.0,14,,,,,,,,,,,,,,,,,,0.0,6.0,6.0,6.0,1.0,,,,,,,,,,
0.0,1.0,1.313065,,,,,,road_sign_05s.jpg,0.0,clock_6_1.png,2.0,14,,,,,,,,,,,,,,,,,,0.0,7.0,7.0,7.0,1.0,,,,,,,,,,
0.0,0.0,1.168065,,,,,,road_sign_05s.jpg,1.0,clock_6_2.png,2.0,14,,,,,,,,,,,,,,,,,,0.0,8.0,8.0,8.0,1.0,,,,,,,,,,
0.0,1.0,1.43668,,,,,,leash_10s.jpg,0.0,clock_6_3.png,2.0,14,,,,,,,,,,,,,,,,,,0.0,9.0,9.0,9.0,1.0,,,,,,,,,,
0.0,1.0,1.072065,,,,,,licorice_06s.jpg,0.0,clock_6_4.png,2.0,14,,,,,,,,,,,,,,,,,,0.0,10.0,10.0,10.0,1.0,,,,,,,,,,
0.0,1.0,0.95036,,,,,,mixer_12s.jpg,0.0,clock_6_5.png,2.0,14,,,,,,,,,,,,,,,,,,0.0,11.0,11.0,11.0,1.0,,,,,,,,,,
0.0,1.0,1.197765,,,,,,lipstick_02s.jpg,0.0,clock_6_6.png,2.0,14,,,,,,,,,,,,,,,,,,0.0,12.0,12.0,12.0,1.0,,,,,,,,,,
0.0,1.0,1.290425,,,,,,rocking_chair_05s.jpg,0.0,clock_6_1.png,3.0,14,,,,,,,,,,,,,,,,,,0.0,13.0,13.0,13.0,1.0,,,,,,,,,,
0.0,1.0,0.929765,,,,,,syringe_02s.jpg,0.0,clock_6_2.png,3.0,14,,,,,,,,,,,,,,,,,,0.0,14.0,14.0,14.0,1.0,,,,,,,,,,
0.0,1.0,0.91357,,,,,,golf_club_03s.jpg,0.0,clock_6_3.png,3.0,14,,,,,,,,,,,,,,,,,,0.0,15.0,15.0,15.0,1.0,,,,,,,,,,
0.0,1.0,1.19649,,,,,,potholder_02s.jpg,0.0,clock_6_4.png,3.0,14,,,,,,,,,,,,,,,,,,0.0,16.0,16.0,16.0,1.0,,,,,,,,,,
0.0,1.0,1.188105,,,,,,pencil02a.jpg,0.0,clock_6_5.png,3.0,14,,,,,,,,,,,,,,,,,,0.0,17.0,17.0,17.0,1.0,,,,,,,,,,
0.0,1.0,1.3146,,,,,,fire_pit_10s.jpg,0.0,clock_6_6.png,3.0,14,,,,,,,,,,,,,,,,,,0.0,18.0,18.0,18.0,1.0,,,,,,,,,,
0.0,1.0,0.59702,,,,,,tinsel_12s.jpg,0.0,clock_5_1.png,4.0,14,,,,,,,,,,,,,,,,,,0.0,19.0,19.0,19.0,1.0,,,,,,,,,,
0.0,1.0,0.77409,,,,,,sledgehammer_03s.jpg,0.0,clock_5_2.png,4.0,14,,,,,,,,,,,,,,,,,,0.0,20.0,20.0,20.0,1.0,,,,,,,,,,
0.0,1.0,1.014585,,,,,,pomegranate_04s.jpg,0.0,clock_5_3.png,4.0,14,,,,,,,,,,,,,,,,,,0.0,21.0,21.0,21.0,1.0,,,,,,,,,,
0.0,1.0,1.20381,,,,,,tattoo_14s.jpg,0.0,clock_5_4.png,4.0,14,,,,,,,,,,,,,,,,,,0.0,22.0,22.0,22.0,1.0,,,,,,,,,,
0.0,1.0,1.134505,,,,,,turkey_10s.jpg,0.0,clock_5_5.png,4.0,14,,,,,,,,,,,,,,,,,,0.0,23.0,23.0,23.0,1.0,,,,,,,,,,
0.0,1.0,1.09763,,,,,,eyedropper_12s.jpg,0.0,clock_5_1.png,5.0,14,,,,,,,,,,,,,,,,,,0.0,24.0,24.0,24.0,1.0,,,,,,,,,,
0.0,1.0,0.94497,,,,,,fondue_07s.jpg,0.0,clock_5_2.png,5.0,14,,,,,,,,,,,,,,,,,,0.0,25.0,25.0,25.0,1.0,,,,,,,,,,
0.0,1.0,0.8132,,,,,,fire_alarm_05s.jpg,0.0,clock_5_3.png,5.0,14,,,,,,,,,,,,,,,,,,0.0,26.0,26.0,26.0,1.0,,,,,,,,,,
1.0,1.0,1.650265,,,,,,eyedropper_12s.jpg,1.0,clock_5_4.png,5.0,14,,,,,,,,,,,,,,,,,,0.0,27.0,27.0,27.0,1.0,,,,,,,,,,
1.0,1.0,1.0138,,,,,,eyedropper_12s.jpg,1.0,clock_5_5.png,5.0,14,,,,,,,,,,,,,,,,,,0.0,28.0,28.0,28.0,1.0,,,,,,,,,,
0.0,1.0,1.46706,,,,,,badge_03s.jpg,0.0,clock_7_1.png,6.0,14,,,,,,,,,,,,,,,,,,0.0,29.0,29.0,29.0,1.0,,,,,,,,,,
0.0,1.0,0.934325,,,,,,lion_18s.jpg,0.0,clock_7_2.png,6.0,14,,,,,,,,,,,,,,,,,,0.0,30.0,30.0,30.0,1.0,,,,,,,,,,
0.0,1.0,0.796525,,,,,,lasagna_06s.jpg,0.0,clock_7_3.png,6.0,14,,,,,,,,,,,,,,,,,,0.0,31.0,31.0,31.0,1.0,,,,,,,,,,
0.0,1.0,0.867835,,,,,,turf_03s.jpg,0.0,clock_7_4.png,6.0,14,,,,,,,,,,,,,,,,,,0.0,32.0,32.0,32.0,1.0,,,,,,,,,,
0.0,1.0,1.03568,,,,,,kitten_07s.jpg,0.0,clock_7_5.png,6.0,14,,,,,,,,,,,,,,,,,,0.0,33.0,33.0,33.0,1.0,,,,,,,,,,
1.0,1.0,1.41455,,,,,,badge_03s.jpg,1.0,clock_7_6.png,6.0,14,,,,,,,,,,,,,,,,,,0.0,34.0,34.0,34.0,1.0,,,,,,,,,,
0.0,1.0,1.222765,,,,,,tinsel_12s.jpg,0.0,clock_7_7.png,6.0,14,,,,,,,,,,,,,,,,,,0.0,35.0,35.0,35.0,1.0,,,,,,,,,,
,,,,,,,,,1.0,,,14,1.0,1.0,2.274415,,,,,,lollipop_08s.jpg,leash_10s.jpg,,,,,,,,,,,,,0.0,0.0,0.0,0.0,1.0,,,,,
,,,,,,,,,1.0,,,14,1.0,1.0,3.352925,,,,,,mixer_12s.jpg,syringe_02s.jpg,,,,,,,,,,,,,0.0,1.0,1.0,1.0,1.0,,,,,
,,,,,,,,,1.0,,,14,1.0,1.0,2.837385,,,,,,tattoo_14s.jpg,fondue_07s.jpg,,,,,,,,,,,,,0.0,2.0,2.0,2.0,1.0,,,,,
,,,,,,,,,1.0,,,14,0.0,0.0,3.61594,,,,,,golf_club_03s.jpg,fire_pit_10s.jpg,,,,,,,,,,,,,0.0,3.0,3.0,3.0,1.0,,,,,
,,,,,,,,,0.0,,,14,0.0,1.0,2.439665,,,,,,kitten_07s.jpg,lion_18s.jpg,,,,,,,,,,,,,0.0,4.0,4.0,4.0,1.0,,,,,
,,,,,,,,,0.0,,,14,1.0,0.0,2.13212,,,,,,potholder_02s.jpg,rocking_chair_05s.jpg,,,,,,,,,,,,,0.0,5.0,5.0,5.0,1.0,,,,,
,,,,,,,,,,,,14,,,,,,,,,,,,,,,,clock_present_4_13.xlsx,clock_compare_task_4_13.xlsx,,,,,,,,,,,0.0,3.0,3.0,3.0,1.0
0.0,1.0,1.24964,,,,,,insole_11s.jpg,0.0,clock_7_1.png,1.0,14,,,,,,,,,,,,,,,,,,0.0,0.0,0.0,0.0,1.0,,,,,,,,,,
0.0,1.0,1.04615,,,,,,aluminum_foil_08s.jpg,0.0,clock_7_2.png,1.0,14,,,,,,,,,,,,,,,,,,0.0,1.0,1.0,1.0,1.0,,,,,,,,,,
1.0,1.0,1.01413,,,,,,aluminum_foil_08s.jpg,1.0,clock_7_3.png,1.0,14,,,,,,,,,,,,,,,,,,0.0,2.0,2.0,2.0,1.0,,,,,,,,,,
1.0,1.0,1.215235,,,,,,insole_11s.jpg,1.0,clock_7_4.png,1.0,14,,,,,,,,,,,,,,,,,,0.0,3.0,3.0,3.0,1.0,,,,,,,,,,
0.0,1.0,0.758075,,,,,,feather02.jpg,0.0,clock_7_5.png,1.0,14,,,,,,,,,,,,,,,,,,0.0,4.0,4.0,4.0,1.0,,,,,,,,,,
1.0,1.0,1.018665,,,,,,aluminum_foil_08s.jpg,1.0,clock_7_6.png,1.0,14,,,,,,,,,,,,,,,,,,0.0,5.0,5.0,5.0,1.0,,,,,,,,,,
0.0,1.0,1.036865,,,,,,panda_02s.jpg,0.0,clock_7_7.png,1.0,14,,,,,,,,,,,,,,,,,,0.0,6.0,6.0,6.0,1.0,,,,,,,,,,
0.0,1.0,1.55524,,,,,,orange_12s.jpg,0.0,clock_7_1.png,2.0,14,,,,,,,,,,,,,,,,,,0.0,7.0,7.0,7.0,1.0,,,,,,,,,,
1.0,1.0,0.89682,,,,,,orange_12s.jpg,1.0,clock_7_2.png,2.0,14,,,,,,,,,,,,,,,,,,0.0,8.0,8.0,8.0,1.0,,,,,,,,,,
0.0,1.0,1.5704,,,,,,loom_05s.jpg,0.0,clock_7_3.png,2.0,14,,,,,,,,,,,,,,,,,,0.0,9.0,9.0,9.0,1.0,,,,,,,,,,
0.0,1.0,1.18656,,,,,,knitting_needle_04s.jpg,0.0,clock_7_4.png,2.0,14,,,,,,,,,,,,,,,,,,0.0,10.0,10.0,10.0,1.0,,,,,,,,,,
1.0,1.0,0.959845,,,,,,knitting_needle_04s.jpg,1.0,clock_7_5.png,2.0,14,,,,,,,,,,,,,,,,,,0.0,11.0,11.0,11.0,1.0,,,,,,,,,,
0.0,1.0,1.633305,,,,,,fireworks_18s.jpg,0.0,clock_7_6.png,2.0,14,,,,,,,,,,,,,,,,,,0.0,12.0,12.0,12.0,1.0,,,,,,,,,,
0.0,1.0,1.547,,,,,,panda_02s.jpg,0.0,clock_7_7.png,2.0,14,,,,,,,,,,,,,,,,,,0.0,13.0,13.0,13.0,1.0,,,,,,,,,,
0.0,1.0,1.68884,,,,,,bacon_05s.jpg,0.0,clock_5_1.png,3.0,14,,,,,,,,,,,,,,,,,,0.0,14.0,14.0,14.0,1.0,,,,,,,,,,
0.0,1.0,0.804335,,,,,,margarita_03s.jpg,0.0,clock_5_2.png,3.0,14,,,,,,,,,,,,,,,,,,0.0,15.0,15.0,15.0,1.0,,,,,,,,,,
0.0,1.0,1.480495,,,,,,tiger_06s.jpg,0.0,clock_5_3.png,3.0,14,,,,,,,,,,,,,,,,,,0.0,16.0,16.0,16.0,1.0,,,,,,,,,,
0.0,1.0,0.73245,,,,,,outlet_10s.jpg,0.0,clock_5_4.png,3.0,14,,,,,,,,,,,,,,,,,,0.0,17.0,17.0,17.0,1.0,,,,,,,,,,
0.0,1.0,0.739275,,,,,,saddle_06s.jpg,0.0,clock_5_5.png,3.0,14,,,,,,,,,,,,,,,,,,0.0,18.0,18.0,18.0,1.0,,,,,,,,,,
0.0,1.0,0.958145,,,,,,moth_06n.jpg,0.0,clock_5_1.png,4.0,14,,,,,,,,,,,,,,,,,,0.0,19.0,19.0,19.0,1.0,,,,,,,,,,
1.0,1.0,1.06744,,,,,,moth_06n.jpg,1.0,clock_5_2.png,4.0,14,,,,,,,,,,,,,,,,,,0.0,20.0,20.0,20.0,1.0,,,,,,,,,,
0.0,1.0,1.185865,,,,,,cardinal_07s.jpg,0.0,clock_5_3.png,4.0,14,,,,,,,,,,,,,,,,,,0.0,21.0,21.0,21.0,1.0,,,,,,,,,,
0.0,1.0,1.622745,,,,,,stapler_01b.jpg,0.0,clock_5_4.png,4.0,14,,,,,,,,,,,,,,,,,,0.0,22.0,22.0,22.0,1.0,,,,,,,,,,
0.0,1.0,0.972945,,,,,,mitten_10s.jpg,0.0,clock_5_5.png,4.0,14,,,,,,,,,,,,,,,,,,0.0,23.0,23.0,23.0,1.0,,,,,,,,,,
0.0,1.0,1.399855,,,,,,sundae_08s.jpg,0.0,clock_6_1.png,5.0,14,,,,,,,,,,,,,,,,,,0.0,24.0,24.0,24.0,1.0,,,,,,,,,,
0.0,1.0,1.32935,,,,,,boomerang_06s.jpg,0.0,clock_6_2.png,5.0,14,,,,,,,,,,,,,,,,,,0.0,25.0,25.0,25.0,1.0,,,,,,,,,,
0.0,1.0,1.66392,,,,,,toaster_03s.jpg,0.0,clock_6_3.png,5.0,14,,,,,,,,,,,,,,,,,,0.0,26.0,26.0,26.0,1.0,,,,,,,,,,
0.0,1.0,0.964725,,,,,,quesadilla_07s.jpg,0.0,clock_6_4.png,5.0,14,,,,,,,,,,,,,,,,,,0.0,27.0,27.0,27.0,1.0,,,,,,,,,,
1.0,1.0,1.187725,,,,,,toaster_03s.jpg,1.0,clock_6_5.png,5.0,14,,,,,,,,,,,,,,,,,,0.0,28.0,28.0,28.0,1.0,,,,,,,,,,
0.0,1.0,1.563325,,,,,,punch1_10s.jpg,0.0,clock_6_6.png,5.0,14,,,,,,,,,,,,,,,,,,0.0,29.0,29.0,29.0,1.0,,,,,,,,,,
0.0,1.0,1.569585,,,,,,tuxedo_01b.jpg,0.0,clock_6_1.png,6.0,14,,,,,,,,,,,,,,,,,,0.0,30.0,30.0,30.0,1.0,,,,,,,,,,
0.0,1.0,1.12039,,,,,,kimono_13s.jpg,0.0,clock_6_2.png,6.0,14,,,,,,,,,,,,,,,,,,0.0,31.0,31.0,31.0,1.0,,,,,,,,,,
0.0,1.0,0.84738,,,,,,power_line_08s.jpg,0.0,clock_6_3.png,6.0,14,,,,,,,,,,,,,,,,,,0.0,32.0,32.0,32.0,1.0,,,,,,,,,,
0.0,1.0,0.96354,,,,,,coral_08s.jpg,0.0,clock_6_4.png,6.0,14,,,,,,,,,,,,,,,,,,0.0,33.0,33.0,33.0,1.0,,,,,,,,,,
0.0,1.0,1.084015,,,,,,undershirt_02s.jpg,0.0,clock_6_5.png,6.0,14,,,,,,,,,,,,,,,,,,0.0,34.0,34.0,34.0,1.0,,,,,,,,,,
0.0,1.0,1.26901,,,,,,ruby_15s.jpg,0.0,clock_6_6.png,6.0,14,,,,,,,,,,,,,,,,,,0.0,35.0,35.0,35.0,1.0,,,,,,,,,,
,,,,,,,,,0.0,,,14,0.0,1.0,2.355925,,,,,,boomerang_06s.jpg,stapler_01b.jpg,,,,,,,,,,,,,0.0,0.0,0.0,0.0,1.0,,,,,
,,,,,,,,,0.0,,,14,0.0,1.0,2.157315,,,,,,cardinal_07s.jpg,saddle_06s.jpg,,,,,,,,,,,,,0.0,1.0,1.0,1.0,1.0,,,,,
,,,,,,,,,0.0,,,14,1.0,0.0,2.068285,,,,,,power_line_08s.jpg,punch1_10s.jpg,,,,,,,,,,,,,0.0,2.0,2.0,2.0,1.0,,,,,
,,,,,,,,,1.0,,,14,1.0,1.0,2.44863,,,,,,bacon_05s.jpg,outlet_10s.jpg,,,,,,,,,,,,,0.0,3.0,3.0,3.0,1.0,,,,,
,,,,,,,,,0.0,,,14,0.0,1.0,2.50399,,,,,,undershirt_02s.jpg,kimono_13s.jpg,,,,,,,,,,,,,0.0,4.0,4.0,4.0,1.0,,,,,
,,,,,,,,,0.0,,,14,0.0,1.0,2.731135,,,,,,fireworks_18s.jpg,loom_05s.jpg,,,,,,,,,,,,,0.0,5.0,5.0,5.0,1.0,,,,,
,,,,,,,,,,,,14,,,,,,,,,,,,,,,,clock_present_5_13.xlsx,clock_compare_task_5_13.xlsx,,,,,,,,,,,0.0,4.0,4.0,4.0,1.0
0.0,1.0,1.08443,,,,,,boar_10s.jpg,0.0,clock_5_1.png,1.0,14,,,,,,,,,,,,,,,,,,0.0,0.0,0.0,0.0,1.0,,,,,,,,,,
0.0,1.0,0.870755,,,,,,rocking_horse_03s.jpg,0.0,clock_5_2.png,1.0,14,,,,,,,,,,,,,,,,,,0.0,1.0,1.0,1.0,1.0,,,,,,,,,,
0.0,1.0,0.650625,,,,,,playpen_11s.jpg,0.0,clock_5_3.png,1.0,14,,,,,,,,,,,,,,,,,,0.0,2.0,2.0,2.0,1.0,,,,,,,,,,
0.0,1.0,0.92971,,,,,,ivy_12s.jpg,0.0,clock_5_4.png,1.0,14,,,,,,,,,,,,,,,,,,0.0,3.0,3.0,3.0,1.0,,,,,,,,,,
0.0,1.0,1.11236,,,,,,punch2_09s.jpg,0.0,clock_5_5.png,1.0,14,,,,,,,,,,,,,,,,,,0.0,4.0,4.0,4.0,1.0,,,,,,,,,,
0.0,1.0,1.16567,,,,,,pencil_sharpener_09n.jpg,0.0,clock_7_1.png,2.0,14,,,,,,,,,,,,,,,,,,0.0,5.0,5.0,5.0,1.0,,,,,,,,,,
0.0,1.0,0.823315,,,,,,prism_10s.jpg,0.0,clock_7_2.png,2.0,14,,,,,,,,,,,,,,,,,,0.0,6.0,6.0,6.0,1.0,,,,,,,,,,
0.0,1.0,0.862865,,,,,,bathtub_23s.jpg,0.0,clock_7_3.png,2.0,14,,,,,,,,,,,,,,,,,,0.0,7.0,7.0,7.0,1.0,,,,,,,,,,
0.0,1.0,1.133535,,,,,,potpourri_03s.jpg,0.0,clock_7_4.png,2.0,14,,,,,,,,,,,,,,,,,,0.0,8.0,8.0,8.0,1.0,,,,,,,,,,
0.0,1.0,1.08615,,,,,,rug_09s.jpg,0.0,clock_7_5.png,2.0,14,,,,,,,,,,,,,,,,,,0.0,9.0,9.0,9.0,1.0,,,,,,,,,,
1.0,1.0,0.88135,,,,,,rug_09s.jpg,1.0,clock_7_6.png,2.0,14,,,,,,,,,,,,,,,,,,0.0,10.0,10.0,10.0,1.0,,,,,,,,,,
0.0,1.0,1.086705,,,,,,leotard_08s.jpg,0.0,clock_7_7.png,2.0,14,,,,,,,,,,,,,,,,,,0.0,11.0,11.0,11.0,1.0,,,,,,,,,,
0.0,1.0,1.185755,,,,,,orangutan_03s.jpg,0.0,clock_7_1.png,3.0,14,,,,,,,,,,,,,,,,,,0.0,12.0,12.0,12.0,1.0,,,,,,,,,,
0.0,1.0,1.414305,,,,,,pencil_sharpener_09n.jpg,0.0,clock_7_2.png,3.0,14,,,,,,,,,,,,,,,,,,0.0,13.0,13.0,13.0,1.0,,,,,,,,,,
0.0,1.0,1.16628,,,,,,limousine_12s.jpg,0.0,clock_7_3.png,3.0,14,,,,,,,,,,,,,,,,,,0.0,14.0,14.0,14.0,1.0,,,,,,,,,,
0.0,1.0,0.596625,,,,,,mirror_12s.jpg,0.0,clock_7_4.png,3.0,14,,,,,,,,,,,,,,,,,,0.0,15.0,15.0,15.0,1.0,,,,,,,,,,
1.0,1.0,1.2999,,,,,,orangutan_03s.jpg,1.0,clock_7_5.png,3.0,14,,,,,,,,,,,,,,,,,,0.0,16.0,16.0,16.0,1.0,,,,,,,,,,
0.0,1.0,1.069985,,,,,,thumbtack_14s.jpg,0.0,clock_7_6.png,3.0,14,,,,,,,,,,,,,,,,,,0.0,17.0,17.0,17.0,1.0,,,,,,,,,,
0.0,1.0,2.101765,,,,,,potpourri_03s.jpg,0.0,clock_7_7.png,3.0,14,,,,,,,,,,,,,,,,,,0.0,18.0,18.0,18.0,1.0,,,,,,,,,,
0.0,1.0,0.8994,,,,,,crossbow_10s.jpg,0.0,clock_6_1.png,4.0,14,,,,,,,,,,,,,,,,,,0.0,19.0,19.0,19.0,1.0,,,,,,,,,,
0.0,1.0,1.08347,,,,,,mannequin_05s.jpg,0.0,clock_6_2.png,4.0,14,,,,,,,,,,,,,,,,,,0.0,20.0,20.0,20.0,1.0,,,,,,,,,,
0.0,1.0,1.33909,,,,,,sparkler_02s.jpg,0.0,clock_6_3.png,4.0,14,,,,,,,,,,,,,,,,,,0.0,21.0,21.0,21.0,1.0,,,,,,,,,,
0.0,1.0,1.04647,,,,,,soda_fountain_03s.jpg,0.0,clock_6_4.png,4.0,14,,,,,,,,,,,,,,,,,,0.0,22.0,22.0,22.0,1.0,,,,,,,,,,
0.0,1.0,0.75131,,,,,,spider_web_03s.jpg,0.0,clock_6_5.png,4.0,14,,,,,,,,,,,,,,,,,,0.0,23.0,23.0,23.0,1.0,,,,,,,,,,
0.0,1.0,1.48244,,,,,,printer_09s.jpg,0.0,clock_6_6.png,4.0,14,,,,,,,,,,,,,,,,,,0.0,24.0,24.0,24.0,1.0,,,,,,,,,,
0.0,1.0,0.897605,,,,,,hyena_16s.jpg,0.0,clock_5_1.png,5.0,14,,,,,,,,,,,,,,,,,,0.0,25.0,25.0,25.0,1.0,,,,,,,,,,
0.0,1.0,1.31396,,,,,,mirror_12s.jpg,0.0,clock_5_2.png,5.0,14,,,,,,,,,,,,,,,,,,0.0,26.0,26.0,26.0,1.0,,,,,,,,,,
0.0,1.0,1.27994,,,,,,cap_05s.jpg,0.0,clock_5_3.png,5.0,14,,,,,,,,,,,,,,,,,,0.0,27.0,27.0,27.0,1.0,,,,,,,,,,
0.0,1.0,1.00436,,,,,,briefcase_03s.jpg,0.0,clock_5_4.png,5.0,14,,,,,,,,,,,,,,,,,,0.0,28.0,28.0,28.0,1.0,,,,,,,,,,
1.0,1.0,1.41529,,,,,,briefcase_03s.jpg,1.0,clock_5_5.png,5.0,14,,,,,,,,,,,,,,,,,,0.0,29.0,29.0,29.0,1.0,,,,,,,,,,
0.0,1.0,1.679555,,,,,,solar_panel_02s.jpg,0.0,clock_6_1.png,6.0,14,,,,,,,,,,,,,,,,,,0.0,30.0,30.0,30.0,1.0,,,,,,,,,,
0.0,1.0,1.66351,,,,,,turtleneck_11s.jpg,0.0,clock_6_2.png,6.0,14,,,,,,,,,,,,,,,,,,0.0,31.0,31.0,31.0,1.0,,,,,,,,,,
0.0,1.0,0.93888,,,,,,cushion_08s.jpg,0.0,clock_6_3.png,6.0,14,,,,,,,,,,,,,,,,,,0.0,32.0,32.0,32.0,1.0,,,,,,,,,,
0.0,1.0,1.66251,,,,,,stethoscope_01b.jpg,0.0,clock_6_4.png,6.0,14,,,,,,,,,,,,,,,,,,0.0,33.0,33.0,33.0,1.0,,,,,,,,,,
1.0,1.0,1.65003,,,,,,turtleneck_11s.jpg,1.0,clock_6_5.png,6.0,14,,,,,,,,,,,,,,,,,,0.0,34.0,34.0,34.0,1.0,,,,,,,,,,
0.0,1.0,1.26627,,,,,,gear_07s.jpg,0.0,clock_6_6.png,6.0,14,,,,,,,,,,,,,,,,,,0.0,35.0,35.0,35.0,1.0,,,,,,,,,,
,,,,,,,,,1.0,,,14,1.0,1.0,3.715945,,,,,,ivy_12s.jpg,prism_10s.jpg,,,,,,,,,,,,,0.0,0.0,0.0,0.0,1.0,,,,,
,,,,,,,,,0.0,,,14,0.0,1.0,2.039995,,,,,,bathtub_23s.jpg,punch2_09s.jpg,,,,,,,,,,,,,0.0,1.0,1.0,1.0,1.0,,,,,
,,,,,,,,,1.0,,,14,0.0,0.0,7.420205,,,,,,leotard_08s.jpg,limousine_12s.jpg,,,,,,,,,,,,,0.0,2.0,2.0,2.0,1.0,,,,,
,,,,,,,,,0.0,,,14,0.0,1.0,2.4906,,,,,,gear_07s.jpg,cushion_08s.jpg,,,,,,,,,,,,,0.0,3.0,3.0,3.0,1.0,,,,,
,,,,,,,,,1.0,,,14,1.0,1.0,4.223595,,,,,,crossbow_10s.jpg,soda_fountain_03s.jpg,,,,,,,,,,,,,0.0,4.0,4.0,4.0,1.0,,,,,
,,,,,,,,,1.0,,,14,0.0,0.0,1.875355,,,,,,mannequin_05s.jpg,spider_web_03s.jpg,,,,,,,,,,,,,0.0,5.0,5.0,5.0,1.0,,,,,
