key_resp.keys,key_resp.corr,key_resp.rt,present_segment.thisRepN,present_segment.thisTrialN,present_segment.thisN,present_segment.thisIndex,present_segment.ran,pictures,answer,clock,segment,participant,key_resp_2.keys,key_resp_2.corr,key_resp_2.rt,compare_segment.thisRepN,compare_segment.thisTrialN,compare_segment.thisN,compare_segment.thisIndex,compare_segment.ran,item_a,item_b,clock_conditions.thisRepN,clock_conditions.thisTrialN,clock_conditions.thisN,clock_conditions.thisIndex,clock_conditions.ran,present,compare,noclock_present.thisRepN,noclock_present.thisTrialN,noclock_present.thisN,noclock_present.thisIndex,noclock_present.ran,noclock_compare.thisRepN,noclock_compare.thisTrialN,noclock_compare.thisN,noclock_compare.thisIndex,noclock_compare.ran,noclock_conditions.thisRepN,noclock_conditions.thisTrialN,noclock_conditions.thisN,noclock_conditions.thisIndex,noclock_conditions.ran
0.0,1.0,1.154015,0.0,0.0,0.0,0.0,1.0,printer_09s.jpg,0.0,clock_6_1.png,1.0,59,,,,,,,,,,,,,,,,,,,,,,,,,,,,,,,,
0.0,1.0,0.56184,0.0,1.0,1.0,1.0,1.0,rope_16s.jpg,0.0,clock_6_2.png,1.0,59,,,,,,,,,,,,,,,,,,,,,,,,,,,,,,,,
0.0,1.0,0.52574,0.0,2.0,2.0,2.0,1.0,lion_18s.jpg,0.0,clock_6_3.png,1.0,59,,,,,,,,,,,,,,,,,,,,,,,,,,,,,,,,
0.0,1.0,0.73952,0.0,3.0,3.0,3.0,1.0,rabbit_03s.jpg,0.0,clock_6_4.png,1.0,59,,,,,,,,,,,,,,,,,,,,,,,,,,,,,,,,
0.0,1.0,0.665565,0.0,4.0,4.0,4.0,1.0,boomerang_06s.jpg,0.0,clock_6_5.png,1.0,59,,,,,,,,,,,,,,,,,,,,,,,,,,,,,,,,
1.0,1.0,0.706495,0.0,5.0,5.0,5.0,1.0,lion_18s.jpg,1.0,clock_6_6.png,1.0,59,,,,,,,,,,,,,,,,,,,,,,,,,,,,,,,,
0.0,1.0,0.831795,0.0,6.0,6.0,6.0,1.0,pillbox_04s.jpg,0.0,clock_7_1.png,2.0,59,,,,,,,,,,,,,,,,,,,,,,,,,,,,,,,,
0.0,1.0,0.552915,0.0,7.0,7.0,7.0,1.0,blowfish_03s.jpg,0.0,clock_7_2.png,2.0,59,,,,,,,,,,,,,,,,,,,,,,,,,,,,,,,,
0.0,1.0,0.60926,0.0,8.0,8.0,8.0,1.0,rhubarb_03s.jpg,0.0,clock_7_3.png,2.0,59,,,,,,,,,,,,,,,,,,,,,,,,,,,,,,,,
0.0,1.0,1.102065,0.0,9.0,9.0,9.0,1.0,torch_02s.jpg,0.0,clock_7_4.png,2.0,59,,,,,,,,,,,,,,,,,,,,,,,,,,,,,,,,
1.0,1.0,2.14541,0.0,10.0,10.0,10.0,1.0,rhubarb_03s.jpg,1.0,clock_7_5.png,2.0,59,,,,,,,,,,,,,,,,,,,,,,,,,,,,,,,,
0.0,1.0,0.53847,0.0,11.0,11.0,11.0,1.0,tablet_04s.jpg,0.0,clock_7_6.png,2.0,59,,,,,,,,,,,,,,,,,,,,,,,,,,,,,,,,
0.0,1.0,1.412295,0.0,12.0,12.0,12.0,1.0,mop_08s.jpg,0.0,clock_7_7.png,2.0,59,,,,,,,,,,,,,,,,,,,,,,,,,,,,,,,,
0.0,1.0,1.3049,0.0,13.0,13.0,13.0,1.0,mirror_12s.jpg,0.0,clock_5_1.png,3.0,59,,,,,,,,,,,,,,,,,,,,,,,,,,,,,,,,
0.0,1.0,1.289705,0.0,14.0,14.0,14.0,1.0,torch_02s.jpg,0.0,clock_5_2.png,3.0,59,,,,,,,,,,,,,,,,,,,,,,,,,,,,,,,,
0.0,1.0,1.26399,0.0,15.0,15.0,15.0,1.0,compass_10n.jpg,0.0,clock_5_3.png,3.0,59,,,,,,,,,,,,,,,,,,,,,,,,,,,,,,,,
0.0,1.0,1.444825,0.0,16.0,16.0,16.0,1.0,peppermint_07s.jpg,0.0,clock_5_4.png,3.0,59,,,,,,,,,,,,,,,,,,,,,,,,,,,,,,,,
0.0,1.0,1.23077,0.0,17.0,17.0,17.0,1.0,surfboard_11s.jpg,0.0,clock_5_5.png,3.0,59,,,,,,,,,,,,,,,,,,,,,,,,,,,,,,,,
0.0,1.0,0.943585,0.0,18.0,18.0,18.0,1.0,microwave_02s.jpg,0.0,clock_5_1.png,4.0,59,,,,,,,,,,,,,,,,,,,,,,,,,,,,,,,,
0.0,1.0,0.92675,0.0,19.0,19.0,19.0,1.0,pumpkin_03s.jpg,0.0,clock_5_2.png,4.0,59,,,,,,,,,,,,,,,,,,,,,,,,,,,,,,,,
0.0,1.0,0.892275,0.0,20.0,20.0,20.0,1.0,rhubarb_03s.jpg,0.0,clock_5_3.png,4.0,59,,,,,,,,,,,,,,,,,,,,,,,,,,,,,,,,
0.0,1.0,0.90266,0.0,21.0,21.0,21.0,1.0,metronome_03s.jpg,0.0,clock_5_4.png,4.0,59,,,,,,,,,,,,,,,,,,,,,,,,,,,,,,,,
0.0,1.0,0.63694,0.0,22.0,22.0,22.0,1.0,cardinal_07s.jpg,0.0,clock_5_5.png,4.0,59,,,,,,,,,,,,,,,,,,,,,,,,,,,,,,,,
0.0,1.0,0.952925,0.0,23.0,23.0,23.0,1.0,quesadilla_07s.jpg,0.0,clock_6_1.png,5.0,59,,,,,,,,,,,,,,,,,,,,,,,,,,,,,,,,
0.0,1.0,0.56384,0.0,24.0,24.0,24.0,1.0,bonsai_07s.jpg,0.0,clock_6_2.png,5.0,59,,,,,,,,,,,,,,,,,,,,,,,,,,,,,,,,
0.0,1.0,0.819635,0.0,25.0,25.0,25.0,1.0,lion_18s.jpg,0.0,clock_6_3.png,5.0,59,,,,,,,,,,,,,,,,,,,,,,,,,,,,,,,,
0.0,1.0,0.601995,0.0,26.0,26.0,26.0,1.0,fire_pit_10s.jpg,0.0,clock_6_4.png,5.0,59,,,,,,,,,,,,,,,,,,,,,,,,,,,,,,,,
0.0,1.0,0.895675,0.0,27.0,27.0,27.0,1.0,peppermint_07s.jpg,0.0,clock_6_5.png,5.0,59,,,,,,,,,,,,,,,,,,,,,,,,,,,,,,,,
1.0,1.0,0.809895,0.0,28.0,28.0,28.0,1.0,bonsai_07s.jpg,1.0,clock_6_6.png,5.0,59,,,,,,,,,,,,,,,,,,,,,,,,,,,,,,,,
0.0,1.0,0.77365,0.0,29.0,29.0,29.0,1.0,potholder_02s.jpg,0.0,clock_7_1.png,6.0,59,,,,,,,,,,,,,,,,,,,,,,,,,,,,,,,,
0.0,1.0,0.86992,0.0,30.0,30.0,30.0,1.0,amber_04s.jpg,0.0,clock_7_2.png,6.0,59,,,,,,,,,,,,,,,,,,,,,,,,,,,,,,,,
0.0,1.0,0.79048,0.0,31.0,31.0,31.0,1.0,doily_13s.jpg,0.0,clock_7_3.png,6.0,59,,,,,,,,,,,,,,,,,,,,,,,,,,,,,,,,
0.0,1.0,0.682515,0.0,32.0,32.0,32.0,1.0,champagne_18s.jpg,0.0,clock_7_4.png,6.0,59,,,,,,,,,,,,,,,,,,,,,,,,,,,,,,,,
1.0,1.0,0.657145,0.0,33.0,33.0,33.0,1.0,champagne_18s.jpg,1.0,clock_7_5.png,6.0,59,,,,,,,,,,,,,,,,,,,,,,,,,,,,,,,,
1.0,1.0,0.971935,0.0,34.0,34.0,34.0,1.0,doily_13s.jpg,1.0,clock_7_6.png,6.0,59,,,,,,,,,,,,,,,,,,,,,,,,,,,,,,,,
0.0,1.0,0.9941,0.0,35.0,35.0,35.0,1.0,ice_pack_09s.jpg,0.0,clock_7_7.png,6.0,59,,,,,,,,,,,,,,,,,,,,,,,,,,,,,,,,
,,,,,,,,,0.0,,,59,0.0,1.0,1.68723,0.0,0.0,0.0,0.0,1.0,compass_10n.jpg,mop_08s.jpg,,,,,,,,,,,,,,,,,,,,,,
,,,,,,,,,1.0,,,59,0.0,0.0,2.83728,0.0,1.0,1.0,1.0,1.0,rabbit_03s.jpg,pillbox_04s.jpg,,,,,,,,,,,,,,,,,,,,,,
,,,,,,,,,0.0,,,59,1.0,0.0,1.38536,0.0,2.0,2.0,2.0,1.0,blowfish_03s.jpg,boomerang_06s.jpg,,,,,,,,,,,,,,,,,,,,,,
,,,,,,,,,1.0,,,59,1.0,1.0,3.82686,0.0,3.0,3.0,3.0,1.0,pumpkin_03s.jpg,cardinal_07s.jpg,,,,,,,,,,,,,,,,,,,,,,
,,,,,,,,,0.0,,,59,0.0,1.0,1.430215,0.0,4.0,4.0,4.0,1.0,metronome_03s.jpg,microwave_02s.jpg,,,,,,,,,,,,,,,,,,,,,,
,,,,,,,,,0.0,,,59,1.0,0.0,1.860475,0.0,5.0,5.0,5.0,1.0,fire_pit_10s.jpg,quesadilla_07s.jpg,,,,,,,,,,,,,,,,,,,,,,
,,,,,,,,,,,,59,,,,,,,,,,,0.0,0.0,0.0,0.0,1.0,clock_present_1_18.xlsx,clock_compare_task_1_18.xlsx,,,,,,,,,,,,,,,
0.0,1.0,1.11824,0.0,0.0,0.0,0.0,1.0,thorn_13s.jpg,0.0,clock_7_1.png,1.0,59,,,,,,,,,,,,,,,,,,,,,,,,,,,,,,,,
0.0,1.0,1.06759,0.0,1.0,1.0,1.0,1.0,lamppost_09s.jpg,0.0,clock_7_2.png,1.0,59,,,,,,,,,,,,,,,,,,,,,,,,,,,,,,,,
0.0,1.0,0.54979,0.0,2.0,2.0,2.0,1.0,crystal_ball_12s.jpg,0.0,clock_7_3.png,1.0,59,,,,,,,,,,,,,,,,,,,,,,,,,,,,,,,,
0.0,1.0,1.025035,0.0,3.0,3.0,3.0,1.0,bean_06s.jpg,0.0,clock_7_4.png,1.0,59,,,,,,,,,,,,,,,,,,,,,,,,,,,,,,,,
0.0,1.0,0.80939,0.0,4.0,4.0,4.0,1.0,fossil_06s.jpg,0.0,clock_7_5.png,1.0,59,,,,,,,,,,,,,,,,,,,,,,,,,,,,,,,,
0.0,1.0,0.800795,0.0,5.0,5.0,5.0,1.0,keyhole_03s.jpg,0.0,clock_7_6.png,1.0,59,,,,,,,,,,,,,,,,,,,,,,,,,,,,,,,,
1.0,1.0,0.972665,0.0,6.0,6.0,6.0,1.0,fossil_06s.jpg,1.0,clock_7_7.png,1.0,59,,,,,,,,,,,,,,,,,,,,,,,,,,,,,,,,
0.0,1.0,0.838195,0.0,7.0,7.0,7.0,1.0,eggshell_14s.jpg,0.0,clock_6_1.png,2.0,59,,,,,,,,,,,,,,,,,,,,,,,,,,,,,,,,
0.0,1.0,0.92151,0.0,8.0,8.0,8.0,1.0,crystal_ball_12s.jpg,0.0,clock_6_2.png,2.0,59,,,,,,,,,,,,,,,,,,,,,,,,,,,,,,,,
0.0,1.0,1.08822,0.0,9.0,9.0,9.0,1.0,lamp_08s.jpg,0.0,clock_6_3.png,2.0,59,,,,,,,,,,,,,,,,,,,,,,,,,,,,,,,,
0.0,1.0,0.62942,0.0,10.0,10.0,10.0,1.0,limousine_12s.jpg,0.0,clock_6_4.png,2.0,59,,,,,,,,,,,,,,,,,,,,,,,,,,,,,,,,
1.0,1.0,0.85203,0.0,11.0,11.0,11.0,1.0,limousine_12s.jpg,1.0,clock_6_5.png,2.0,59,,,,,,,,,,,,,,,,,,,,,,,,,,,,,,,,
0.0,1.0,0.92952,0.0,12.0,12.0,12.0,1.0,fur_coat_11s.jpg,0.0,clock_6_6.png,2.0,59,,,,,,,,,,,,,,,,,,,,,,,,,,,,,,,,
0.0,1.0,0.84019,0.0,13.0,13.0,13.0,1.0,meatball_13s.jpg,0.0,clock_6_1.png,3.0,59,,,,,,,,,,,,,,,,,,,,,,,,,,,,,,,,
0.0,1.0,0.715795,0.0,14.0,14.0,14.0,1.0,kitten_07s.jpg,0.0,clock_6_2.png,3.0,59,,,,,,,,,,,,,,,,,,,,,,,,,,,,,,,,
0.0,1.0,0.64662,0.0,15.0,15.0,15.0,1.0,radiator_05s.jpg,0.0,clock_6_3.png,3.0,59,,,,,,,,,,,,,,,,,,,,,,,,,,,,,,,,
0.0,1.0,0.870575,0.0,16.0,16.0,16.0,1.0,bacon_05s.jpg,0.0,clock_6_4.png,3.0,59,,,,,,,,,,,,,,,,,,,,,,,,,,,,,,,,
0.0,1.0,0.808365,0.0,17.0,17.0,17.0,1.0,turtleneck_11s.jpg,0.0,clock_6_5.png,3.0,59,,,,,,,,,,,,,,,,,,,,,,,,,,,,,,,,
0.0,1.0,0.72671,0.0,18.0,18.0,18.0,1.0,pea_11s.jpg,0.0,clock_6_6.png,3.0,59,,,,,,,,,,,,,,,,,,,,,,,,,,,,,,,,
0.0,1.0,1.450845,0.0,19.0,19.0,19.0,1.0,submarine_11n.jpg,0.0,clock_5_1.png,4.0,59,,,,,,,,,,,,,,,,,,,,,,,,,,,,,,,,
0.0,1.0,0.655235,0.0,20.0,20.0,20.0,1.0,phone_01b.jpg,0.0,clock_5_2.png,4.0,59,,,,,,,,,,,,,,,,,,,,,,,,,,,,,,,,
0.0,1.0,0.648615,0.0,21.0,21.0,21.0,1.0,rhinoceros_02s.jpg,0.0,clock_5_3.png,4.0,59,,,,,,,,,,,,,,,,,,,,,,,,,,,,,,,,
0.0,1.0,0.82062,0.0,22.0,22.0,22.0,1.0,spider_web_03s.jpg,0.0,clock_5_4.png,4.0,59,,,,,,,,,,,,,,,,,,,,,,,,,,,,,,,,
0.0,1.0,0.78477,0.0,23.0,23.0,23.0,1.0,reindeer_08s.jpg,0.0,clock_5_5.png,4.0,59,,,,,,,,,,,,,,,,,,,,,,,,,,,,,,,,
0.0,1.0,0.91625,0.0,24.0,24.0,24.0,1.0,jewel_01b.jpg,0.0,clock_5_1.png,5.0,59,,,,,,,,,,,,,,,,,,,,,,,,,,,,,,,,
0.0,1.0,0.62282,0.0,25.0,25.0,25.0,1.0,cap_05s.jpg,0.0,clock_5_2.png,5.0,59,,,,,,,,,,,,,,,,,,,,,,,,,,,,,,,,
0.0,1.0,0.617665,0.0,26.0,26.0,26.0,1.0,cape_11s.jpg,0.0,clock_5_3.png,5.0,59,,,,,,,,,,,,,,,,,,,,,,,,,,,,,,,,
0.0,1.0,0.54897,0.0,27.0,27.0,27.0,1.0,giraffe_11s.jpg,0.0,clock_5_4.png,5.0,59,,,,,,,,,,,,,,,,,,,,,,,,,,,,,,,,
0.0,1.0,0.9369,0.0,28.0,28.0,28.0,1.0,kitten_07s.jpg,0.0,clock_5_5.png,5.0,59,,,,,,,,,,,,,,,,,,,,,,,,,,,,,,,,
0.0,1.0,0.84754,0.0,29.0,29.0,29.0,1.0,sparkler_02s.jpg,0.0,clock_7_1.png,6.0,59,,,,,,,,,,,,,,,,,,,,,,,,,,,,,,,,
1.0,1.0,0.70103,0.0,30.0,30.0,30.0,1.0,sparkler_02s.jpg,1.0,clock_7_2.png,6.0,59,,,,,,,,,,,,,,,,,,,,,,,,,,,,,,,,
0.0,1.0,0.62538,0.0,31.0,31.0,31.0,1.0,bee_20s.jpg,0.0,clock_7_3.png,6.0,59,,,,,,,,,,,,,,,,,,,,,,,,,,,,,,,,
0.0,1.0,0.67901,0.0,32.0,32.0,32.0,1.0,jetski_10s.jpg,0.0,clock_7_4.png,6.0,59,,,,,,,,,,,,,,,,,,,,,,,,,,,,,,,,
0.0,1.0,0.7309,0.0,33.0,33.0,33.0,1.0,pear_02s.jpg,0.0,clock_7_5.png,6.0,59,,,,,,,,,,,,,,,,,,,,,,,,,,,,,,,,
0.0,1.0,0.797225,0.0,34.0,34.0,34.0,1.0,kilt_18s.jpg,0.0,clock_7_6.png,6.0,59,,,,,,,,,,,,,,,,,,,,,,,,,,,,,,,,
0.0,1.0,0.96847,0.0,35.0,35.0,35.0,1.0,bacon_05s.jpg,0.0,clock_7_7.png,6.0,59,,,,,,,,,,,,,,,,,,,,,,,,,,,,,,,,
,,,,,,,,,1.0,,,59,1.0,1.0,1.649165,0.0,0.0,0.0,0.0,1.0,turtleneck_11s.jpg,phone_01b.jpg,,,,,,,,,,,,,,,,,,,,,,
,,,,,,,,,0.0,,,59,0.0,1.0,2.28011,0.0,1.0,1.0,1.0,1.0,rhinoceros_02s.jpg,pea_11s.jpg,,,,,,,,,,,,,,,,,,,,,,
,,,,,,,,,1.0,,,59,1.0,1.0,8.346085,0.0,2.0,2.0,2.0,1.0,spider_web_03s.jpg,cap_05s.jpg,,,,,,,,,,,,,,,,,,,,,,
,,,,,,,,,0.0,,,59,0.0,1.0,3.128595,0.0,3.0,3.0,3.0,1.0,bean_06s.jpg,thorn_13s.jpg,,,,,,,,,,,,,,,,,,,,,,
,,,,,,,,,0.0,,,59,1.0,0.0,1.778575,0.0,4.0,4.0,4.0,1.0,kilt_18s.jpg,bee_20s.jpg,,,,,,,,,,,,,,,,,,,,,,
,,,,,,,,,0.0,,,59,0.0,1.0,2.220875,0.0,5.0,5.0,5.0,1.0,fur_coat_11s.jpg,lamp_08s.jpg,,,,,,,,,,,,,,,,,,,,,,
,,,,,,,,,,,,59,,,,,,,,,,,0.0,1.0,1.0,1.0,1.0,clock_present_2_18.xlsx,clock_compare_task_2_18.xlsx,,,,,,,,,,,,,,,
0.0,1.0,0.939145,0.0,0.0,0.0,0.0,1.0,thermostat_02s.jpg,0.0,clock_7_1.png,1.0,59,,,,,,,,,,,,,,,,,,,,,,,,,,,,,,,,
1.0,1.0,0.90089,0.0,1.0,1.0,1.0,1.0,thermostat_02s.jpg,1.0,clock_7_2.png,1.0,59,,,,,,,,,,,,,,,,,,,,,,,,,,,,,,,,
0.0,1.0,1.31762,0.0,2.0,2.0,2.0,1.0,raft_09s.jpg,0.0,clock_7_3.png,1.0,59,,,,,,,,,,,,,,,,,,,,,,,,,,,,,,,,
0.0,1.0,0.54006,0.0,3.0,3.0,3.0,1.0,magnet_03s.jpg,0.0,clock_7_4.png,1.0,59,,,,,,,,,,,,,,,,,,,,,,,,,,,,,,,,
1.0,1.0,0.90397,0.0,4.0,4.0,4.0,1.0,raft_09s.jpg,1.0,clock_7_5.png,1.0,59,,,,,,,,,,,,,,,,,,,,,,,,,,,,,,,,
0.0,1.0,0.527145,0.0,5.0,5.0,5.0,1.0,duck_01b.jpg,0.0,clock_7_6.png,1.0,59,,,,,,,,,,,,,,,,,,,,,,,,,,,,,,,,
0.0,1.0,1.571145,0.0,6.0,6.0,6.0,1.0,ring_03s.jpg,0.0,clock_7_7.png,1.0,59,,,,,,,,,,,,,,,,,,,,,,,,,,,,,,,,
0.0,1.0,1.01572,0.0,7.0,7.0,7.0,1.0,lectern_08s.jpg,0.0,clock_6_1.png,2.0,59,,,,,,,,,,,,,,,,,,,,,,,,,,,,,,,,
0.0,1.0,0.898205,0.0,8.0,8.0,8.0,1.0,orange_12s.jpg,0.0,clock_6_2.png,2.0,59,,,,,,,,,,,,,,,,,,,,,,,,,,,,,,,,
0.0,1.0,1.59221,0.0,9.0,9.0,9.0,1.0,swan_11s.jpg,0.0,clock_6_3.png,2.0,59,,,,,,,,,,,,,,,,,,,,,,,,,,,,,,,,
0.0,1.0,0.925435,0.0,10.0,10.0,10.0,1.0,seahorse_13s.jpg,0.0,clock_6_4.png,2.0,59,,,,,,,,,,,,,,,,,,,,,,,,,,,,,,,,
0.0,1.0,0.80938,0.0,11.0,11.0,11.0,1.0,mosquito_12s.jpg,0.0,clock_6_5.png,2.0,59,,,,,,,,,,,,,,,,,,,,,,,,,,,,,,,,
0.0,1.0,1.664755,0.0,12.0,12.0,12.0,1.0,leash_10s.jpg,0.0,clock_6_6.png,2.0,59,,,,,,,,,,,,,,,,,,,,,,,,,,,,,,,,
0.0,1.0,1.03948,0.0,13.0,13.0,13.0,1.0,rudder_02s.jpg,0.0,clock_5_1.png,3.0,59,,,,,,,,,,,,,,,,,,,,,,,,,,,,,,,,
0.0,1.0,1.337835,0.0,14.0,14.0,14.0,1.0,quilt_03s.jpg,0.0,clock_5_2.png,3.0,59,,,,,,,,,,,,,,,,,,,,,,,,,,,,,,,,
0.0,1.0,0.63355,0.0,15.0,15.0,15.0,1.0,peach_04s.jpg,0.0,clock_5_3.png,3.0,59,,,,,,,,,,,,,,,,,,,,,,,,,,,,,,,,
1.0,1.0,0.7268,0.0,16.0,16.0,16.0,1.0,quilt_03s.jpg,1.0,clock_5_4.png,3.0,59,,,,,,,,,,,,,,,,,,,,,,,,,,,,,,,,
0.0,1.0,0.569175,0.0,17.0,17.0,17.0,1.0,roller_coaster_07s.jpg,0.0,clock_5_5.png,3.0,59,,,,,,,,,,,,,,,,,,,,,,,,,,,,,,,,
0.0,1.0,1.22488,0.0,18.0,18.0,18.0,1.0,gargoyle_08s.jpg,0.0,clock_6_1.png,4.0,59,,,,,,,,,,,,,,,,,,,,,,,,,,,,,,,,
0.0,1.0,1.377715,0.0,19.0,19.0,19.0,1.0,rudder_02s.jpg,0.0,clock_6_2.png,4.0,59,,,,,,,,,,,,,,,,,,,,,,,,,,,,,,,,
0.0,1.0,0.92119,0.0,20.0,20.0,20.0,1.0,mannequin_05s.jpg,0.0,clock_6_3.png,4.0,59,,,,,,,,,,,,,,,,,,,,,,,,,,,,,,,,
0.0,1.0,0.695485,0.0,21.0,21.0,21.0,1.0,machete_06s.jpg,0.0,clock_6_4.png,4.0,59,,,,,,,,,,,,,,,,,,,,,,,,,,,,,,,,
0.0,1.0,0.93795,0.0,22.0,22.0,22.0,1.0,mailbox_11s.jpg,0.0,clock_6_5.png,4.0,59,,,,,,,,,,,,,,,,,,,,,,,,,,,,,,,,
0.0,1.0,0.96962,0.0,23.0,23.0,23.0,1.0,ruby_15s.jpg,0.0,clock_6_6.png,4.0,59,,,,,,,,,,,,,,,,,,,,,,,,,,,,,,,,
0.0,1.0,0.865375,0.0,24.0,24.0,24.0,1.0,glasses01a.jpg,0.0,clock_7_1.png,5.0,59,,,,,,,,,,,,,,,,,,,,,,,,,,,,,,,,
1.0,1.0,0.72925,0.0,25.0,25.0,25.0,1.0,glasses01a.jpg,1.0,clock_7_2.png,5.0,59,,,,,,,,,,,,,,,,,,,,,,,,,,,,,,,,
1.0,1.0,0.593095,0.0,26.0,26.0,26.0,1.0,glasses01a.jpg,1.0,clock_7_3.png,5.0,59,,,,,,,,,,,,,,,,,,,,,,,,,,,,,,,,
0.0,1.0,0.805845,0.0,27.0,27.0,27.0,1.0,rolling_pin_02s.jpg,0.0,clock_7_4.png,5.0,59,,,,,,,,,,,,,,,,,,,,,,,,,,,,,,,,
0.0,1.0,0.868675,0.0,28.0,28.0,28.0,1.0,scooter.jpg,0.0,clock_7_5.png,5.0,59,,,,,,,,,,,,,,,,,,,,,,,,,,,,,,,,
0.0,1.0,0.74265,0.0,29.0,29.0,29.0,1.0,puffin_19s.jpg,0.0,clock_7_6.png,5.0,59,,,,,,,,,,,,,,,,,,,,,,,,,,,,,,,,
0.0,1.0,1.205275,0.0,30.0,30.0,30.0,1.0,roulette_wheel_04s.jpg,0.0,clock_7_7.png,5.0,59,,,,,,,,,,,,,,,,,,,,,,,,,,,,,,,,
0.0,1.0,1.309845,0.0,31.0,31.0,31.0,1.0,crab_16s.jpg,0.0,clock_5_1.png,6.0,59,,,,,,,,,,,,,,,,,,,,,,,,,,,,,,,,
1.0,1.0,0.67423,0.0,32.0,32.0,32.0,1.0,crab_16s.jpg,1.0,clock_5_2.png,6.0,59,,,,,,,,,,,,,,,,,,,,,,,,,,,,,,,,
0.0,1.0,0.6271,0.0,33.0,33.0,33.0,1.0,timer_03s.jpg,0.0,clock_5_3.png,6.0,59,,,,,,,,,,,,,,,,,,,,,,,,,,,,,,,,
0.0,1.0,0.671055,0.0,34.0,34.0,34.0,1.0,paper_towel_03s.jpg,0.0,clock_5_4.png,6.0,59,,,,,,,,,,,,,,,,,,,,,,,,,,,,,,,,
0.0,1.0,1.166815,0.0,35.0,35.0,35.0,1.0,orange_12s.jpg,0.0,clock_5_5.png,6.0,59,,,,,,,,,,,,,,,,,,,,,,,,,,,,,,,,
,,,,,,,,,1.0,,,59,0.0,0.0,2.060595,0.0,0.0,0.0,0.0,1.0,leash_10s.jpg,peach_04s.jpg,,,,,,,,,,,,,,,,,,,,,,
,,,,,,,,,0.0,,,59,0.0,1.0,2.65297,0.0,1.0,1.0,1.0,1.0,mannequin_05s.jpg,roller_coaster_07s.jpg,,,,,,,,,,,,,,,,,,,,,,
,,,,,,,,,0.0,,,59,1.0,0.0,1.68881,0.0,2.0,2.0,2.0,1.0,timer_03s.jpg,roulette_wheel_04s.jpg,,,,,,,,,,,,,,,,,,,,,,
,,,,,,,,,0.0,,,59,1.0,0.0,2.29257,0.0,3.0,3.0,3.0,1.0,seahorse_13s.jpg,lectern_08s.jpg,,,,,,,,,,,,,,,,,,,,,,
,,,,,,,,,0.0,,,59,0.0,1.0,1.160115,0.0,4.0,4.0,4.0,1.0,ring_03s.jpg,magnet_03s.jpg,,,,,,,,,,,,,,,,,,,,,,
,,,,,,,,,0.0,,,59,1.0,0.0,3.209795,0.0,5.0,5.0,5.0,1.0,machete_06s.jpg,gargoyle_08s.jpg,,,,,,,,,,,,,,,,,,,,,,
,,,,,,,,,,,,59,,,,,,,,,,,0.0,2.0,2.0,2.0,1.0,clock_present_3_18.xlsx,clock_compare_task_3_18.xlsx,,,,,,,,,,,,,,,
0.0,1.0,0.76581,0.0,0.0,0.0,0.0,1.0,peeler_06s.jpg,0.0,clock_6_1.png,1.0,59,,,,,,,,,,,,,,,,,,,,,,,,,,,,,,,,
0.0,1.0,0.66005,0.0,1.0,1.0,1.0,1.0,flip_flop_03s.jpg,0.0,clock_6_2.png,1.0,59,,,,,,,,,,,,,,,,,,,,,,,,,,,,,,,,
1.0,1.0,0.755205,0.0,2.0,2.0,2.0,1.0,flip_flop_03s.jpg,1.0,clock_6_3.png,1.0,59,,,,,,,,,,,,,,,,,,,,,,,,,,,,,,,,
0.0,1.0,0.63797,0.0,3.0,3.0,3.0,1.0,orchid_01b.jpg,0.0,clock_6_4.png,1.0,59,,,,,,,,,,,,,,,,,,,,,,,,,,,,,,,,
1.0,1.0,1.04246,0.0,4.0,4.0,4.0,1.0,peeler_06s.jpg,1.0,clock_6_5.png,1.0,59,,,,,,,,,,,,,,,,,,,,,,,,,,,,,,,,
0.0,1.0,0.854775,0.0,5.0,5.0,5.0,1.0,machine_gun_09s.jpg,0.0,clock_6_6.png,1.0,59,,,,,,,,,,,,,,,,,,,,,,,,,,,,,,,,
0.0,1.0,0.450905,0.0,6.0,6.0,6.0,1.0,tattoo_14s.jpg,0.0,clock_5_1.png,2.0,59,,,,,,,,,,,,,,,,,,,,,,,,,,,,,,,,
1.0,1.0,0.83366,0.0,7.0,7.0,7.0,1.0,tattoo_14s.jpg,1.0,clock_5_2.png,2.0,59,,,,,,,,,,,,,,,,,,,,,,,,,,,,,,,,
0.0,1.0,0.696245,0.0,8.0,8.0,8.0,1.0,bolo_tie_08s.jpg,0.0,clock_5_3.png,2.0,59,,,,,,,,,,,,,,,,,,,,,,,,,,,,,,,,
0.0,1.0,0.769325,0.0,9.0,9.0,9.0,1.0,petri_dish_12s.jpg,0.0,clock_5_4.png,2.0,59,,,,,,,,,,,,,,,,,,,,,,,,,,,,,,,,
0.0,1.0,0.91489,0.0,10.0,10.0,10.0,1.0,mushroom_10n.jpg,0.0,clock_5_5.png,2.0,59,,,,,,,,,,,,,,,,,,,,,,,,,,,,,,,,
0.0,1.0,1.197275,0.0,11.0,11.0,11.0,1.0,tape_06s.jpg,0.0,clock_7_1.png,3.0,59,,,,,,,,,,,,,,,,,,,,,,,,,,,,,,,,
,0.0,,0.0,12.0,12.0,12.0,1.0,tape_06s.jpg,1.0,clock_7_2.png,3.0,59,,,,,,,,,,,,,,,,,,,,,,,,,,,,,,,,
1.0,1.0,0.77106,0.0,13.0,13.0,13.0,1.0,tape_06s.jpg,1.0,clock_7_3.png,3.0,59,,,,,,,,,,,,,,,,,,,,,,,,,,,,,,,,
0.0,1.0,0.82818,0.0,14.0,14.0,14.0,1.0,rug_09s.jpg,0.0,clock_7_4.png,3.0,59,,,,,,,,,,,,,,,,,,,,,,,,,,,,,,,,
0.0,1.0,1.66657,0.0,15.0,15.0,15.0,1.0,teabag_12s.jpg,0.0,clock_7_5.png,3.0,59,,,,,,,,,,,,,,,,,,,,,,,,,,,,,,,,
0.0,1.0,1.20313,0.0,16.0,16.0,16.0,1.0,jet_15s.jpg,0.0,clock_7_6.png,3.0,59,,,,,,,,,,,,,,,,,,,,,,,,,,,,,,,,
0.0,1.0,1.1267,0.0,17.0,17.0,17.0,1.0,throne_11s.jpg,0.0,clock_7_7.png,3.0,59,,,,,,,,,,,,,,,,,,,,,,,,,,,,,,,,
0.0,1.0,1.65235,0.0,18.0,18.0,18.0,1.0,padlock_07s.jpg,0.0,clock_5_1.png,4.0,59,,,,,,,,,,,,,,,,,,,,,,,,,,,,,,,,
1.0,1.0,0.804145,0.0,19.0,19.0,19.0,1.0,padlock_07s.jpg,1.0,clock_5_2.png,4.0,59,,,,,,,,,,,,,,,,,,,,,,,,,,,,,,,,
0.0,1.0,1.056885,0.0,20.0,20.0,20.0,1.0,purse_05s.jpg,0.0,clock_5_3.png,4.0,59,,,,,,,,,,,,,,,,,,,,,,,,,,,,,,,,
0.0,1.0,0.662135,0.0,21.0,21.0,21.0,1.0,snowman_02s.jpg,0.0,clock_5_4.png,4.0,59,,,,,,,,,,,,,,,,,,,,,,,,,,,,,,,,
1.0,1.0,1.22501,0.0,22.0,22.0,22.0,1.0,purse_05s.jpg,1.0,clock_5_5.png,4.0,59,,,,,,,,,,,,,,,,,,,,,,,,,,,,,,,,
0.0,1.0,0.870735,0.0,23.0,23.0,23.0,1.0,cotton_candy_01b.jpg,0.0,clock_6_1.png,5.0,59,,,,,,,,,,,,,,,,,,,,,,,,,,,,,,,,
0.0,1.0,0.77076,0.0,24.0,24.0,24.0,1.0,lollipop_08s.jpg,0.0,clock_6_2.png,5.0,59,,,,,,,,,,,,,,,,,,,,,,,,,,,,,,,,
0.0,1.0,0.905365,0.0,25.0,25.0,25.0,1.0,birthday_cake_09s.jpg,0.0,clock_6_3.png,5.0,59,,,,,,,,,,,,,,,,,,,,,,,,,,,,,,,,
0.0,1.0,0.77756,0.0,26.0,26.0,26.0,1.0,pipe1_10s.jpg,0.0,clock_6_4.png,5.0,59,,,,,,,,,,,,,,,,,,,,,,,,,,,,,,,,
0.0,1.0,0.623495,0.0,27.0,27.0,27.0,1.0,totem_pole_05s.jpg,0.0,clock_6_5.png,5.0,59,,,,,,,,,,,,,,,,,,,,,,,,,,,,,,,,
0.0,1.0,0.816395,0.0,28.0,28.0,28.0,1.0,teapot_03s.jpg,0.0,clock_6_6.png,5.0,59,,,,,,,,,,,,,,,,,,,,,,,,,,,,,,,,
0.0,1.0,0.470745,0.0,29.0,29.0,29.0,1.0,polaroid_05s.jpg,0.0,clock_7_1.png,6.0,59,,,,,,,,,,,,,,,,,,,,,,,,,,,,,,,,
0.0,1.0,1.10237,0.0,30.0,30.0,30.0,1.0,marker_05s.jpg,0.0,clock_7_2.png,6.0,59,,,,,,,,,,,,,,,,,,,,,,,,,,,,,,,,
0.0,1.0,0.815175,0.0,31.0,31.0,31.0,1.0,pacifier_09s.jpg,0.0,clock_7_3.png,6.0,59,,,,,,,,,,,,,,,,,,,,,,,,,,,,,,,,
0.0,1.0,0.770095,0.0,32.0,32.0,32.0,1.0,comic_book_02s.jpg,0.0,clock_7_4.png,6.0,59,,,,,,,,,,,,,,,,,,,,,,,,,,,,,,,,
0.0,1.0,1.432735,0.0,33.0,33.0,33.0,1.0,telephone_pole_05s.jpg,0.0,clock_7_5.png,6.0,59,,,,,,,,,,,,,,,,,,,,,,,,,,,,,,,,
0.0,1.0,0.984045,0.0,34.0,34.0,34.0,1.0,turnstile_08s.jpg,0.0,clock_7_6.png,6.0,59,,,,,,,,,,,,,,,,,,,,,,,,,,,,,,,,
0.0,1.0,0.960895,0.0,35.0,35.0,35.0,1.0,jersey_02s.jpg,0.0,clock_7_7.png,6.0,59,,,,,,,,,,,,,,,,,,,,,,,,,,,,,,,,
,,,,,,,,,0.0,,,59,1.0,0.0,1.519525,0.0,0.0,0.0,0.0,1.0,bolo_tie_08s.jpg,machine_gun_09s.jpg,,,,,,,,,,,,,,,,,,,,,,
,,,,,,,,,0.0,,,59,0.0,1.0,1.87698,0.0,1.0,1.0,1.0,1.0,lollipop_08s.jpg,snowman_02s.jpg,,,,,,,,,,,,,,,,,,,,,,
,,,,,,,,,1.0,,,59,0.0,0.0,2.652395,0.0,2.0,2.0,2.0,1.0,pipe1_10s.jpg,polaroid_05s.jpg,,,,,,,,,,,,,,,,,,,,,,
,,,,,,,,,1.0,,,59,1.0,1.0,1.700325,0.0,3.0,3.0,3.0,1.0,rug_09s.jpg,throne_11s.jpg,,,,,,,,,,,,,,,,,,,,,,
,,,,,,,,,0.0,,,59,0.0,1.0,1.038625,0.0,4.0,4.0,4.0,1.0,jersey_02s.jpg,comic_book_02s.jpg,,,,,,,,,,,,,,,,,,,,,,
,,,,,,,,,0.0,,,59,1.0,0.0,0.9352,0.0,5.0,5.0,5.0,1.0,teapot_03s.jpg,birthday_cake_09s.jpg,,,,,,,,,,,,,,,,,,,,,,
,,,,,,,,,,,,59,,,,,,,,,,,0.0,3.0,3.0,3.0,1.0,clock_present_4_18.xlsx,clock_compare_task_4_18.xlsx,,,,,,,,,,,,,,,
0.0,1.0,1.2029,0.0,0.0,0.0,0.0,1.0,plunger_08s.jpg,0.0,clock_7_1.png,1.0,59,,,,,,,,,,,,,,,,,,,,,,,,,,,,,,,,
0.0,1.0,0.83621,0.0,1.0,1.0,1.0,1.0,footprint_11s.jpg,0.0,clock_7_2.png,1.0,59,,,,,,,,,,,,,,,,,,,,,,,,,,,,,,,,
1.0,1.0,0.802175,0.0,2.0,2.0,2.0,1.0,plunger_08s.jpg,1.0,clock_7_3.png,1.0,59,,,,,,,,,,,,,,,,,,,,,,,,,,,,,,,,
0.0,1.0,0.6141,0.0,3.0,3.0,3.0,1.0,pepper2_21s.jpg,0.0,clock_7_4.png,1.0,59,,,,,,,,,,,,,,,,,,,,,,,,,,,,,,,,
0.0,1.0,0.737905,0.0,4.0,4.0,4.0,1.0,mitten_10s.jpg,0.0,clock_7_5.png,1.0,59,,,,,,,,,,,,,,,,,,,,,,,,,,,,,,,,
0.0,1.0,0.650805,0.0,5.0,5.0,5.0,1.0,dynamite_01b.jpg,0.0,clock_7_6.png,1.0,59,,,,,,,,,,,,,,,,,,,,,,,,,,,,,,,,
0.0,1.0,0.69535,0.0,6.0,6.0,6.0,1.0,recliner_02s.jpg,0.0,clock_7_7.png,1.0,59,,,,,,,,,,,,,,,,,,,,,,,,,,,,,,,,
0.0,1.0,0.579865,0.0,7.0,7.0,7.0,1.0,crossbow_10s.jpg,0.0,clock_7_1.png,2.0,59,,,,,,,,,,,,,,,,,,,,,,,,,,,,,,,,
0.0,1.0,0.661945,0.0,8.0,8.0,8.0,1.0,fondue_07s.jpg,0.0,clock_7_2.png,2.0,59,,,,,,,,,,,,,,,,,,,,,,,,,,,,,,,,
0.0,1.0,1.395465,0.0,9.0,9.0,9.0,1.0,sushi_08s.jpg,0.0,clock_7_3.png,2.0,59,,,,,,,,,,,,,,,,,,,,,,,,,,,,,,,,
1.0,1.0,0.77028,0.0,10.0,10.0,10.0,1.0,fondue_07s.jpg,1.0,clock_7_4.png,2.0,59,,,,,,,,,,,,,,,,,,,,,,,,,,,,,,,,
0.0,1.0,0.721985,0.0,11.0,11.0,11.0,1.0,tiara_05s.jpg,0.0,clock_7_5.png,2.0,59,,,,,,,,,,,,,,,,,,,,,,,,,,,,,,,,
0.0,1.0,0.78749,0.0,12.0,12.0,12.0,1.0,contact_lens_15s.jpg,0.0,clock_7_6.png,2.0,59,,,,,,,,,,,,,,,,,,,,,,,,,,,,,,,,
0.0,1.0,1.281155,0.0,13.0,13.0,13.0,1.0,plunger_08s.jpg,0.0,clock_7_7.png,2.0,59,,,,,,,,,,,,,,,,,,,,,,,,,,,,,,,,
0.0,1.0,0.89416,0.0,14.0,14.0,14.0,1.0,polar_bear_02s.jpg,0.0,clock_5_1.png,3.0,59,,,,,,,,,,,,,,,,,,,,,,,,,,,,,,,,
0.0,1.0,0.91551,0.0,15.0,15.0,15.0,1.0,cereal_04s.jpg,0.0,clock_5_2.png,3.0,59,,,,,,,,,,,,,,,,,,,,,,,,,,,,,,,,
0.0,1.0,1.091585,0.0,16.0,16.0,16.0,1.0,hummingbird_05s.jpg,0.0,clock_5_3.png,3.0,59,,,,,,,,,,,,,,,,,,,,,,,,,,,,,,,,
1.0,1.0,2.20362,0.0,17.0,17.0,17.0,1.0,polar_bear_02s.jpg,1.0,clock_5_4.png,3.0,59,,,,,,,,,,,,,,,,,,,,,,,,,,,,,,,,
0.0,1.0,0.718145,0.0,18.0,18.0,18.0,1.0,omelet_07s.jpg,0.0,clock_5_5.png,3.0,59,,,,,,,,,,,,,,,,,,,,,,,,,,,,,,,,
0.0,1.0,1.01975,0.0,19.0,19.0,19.0,1.0,buoy_04s.jpg,0.0,clock_6_1.png,4.0,59,,,,,,,,,,,,,,,,,,,,,,,,,,,,,,,,
0.0,1.0,1.095575,0.0,20.0,20.0,20.0,1.0,dynamite_01b.jpg,0.0,clock_6_2.png,4.0,59,,,,,,,,,,,,,,,,,,,,,,,,,,,,,,,,
0.0,1.0,0.81763,0.0,21.0,21.0,21.0,1.0,peanut_butter_08s.jpg,0.0,clock_6_3.png,4.0,59,,,,,,,,,,,,,,,,,,,,,,,,,,,,,,,,
1.0,1.0,2.23296,0.0,22.0,22.0,22.0,1.0,buoy_04s.jpg,1.0,clock_6_4.png,4.0,59,,,,,,,,,,,,,,,,,,,,,,,,,,,,,,,,
0.0,1.0,1.59662,0.0,23.0,23.0,23.0,1.0,tripod_01b.jpg,0.0,clock_6_5.png,4.0,59,,,,,,,,,,,,,,,,,,,,,,,,,,,,,,,,
1.0,1.0,0.790445,0.0,24.0,24.0,24.0,1.0,tripod_01b.jpg,1.0,clock_6_6.png,4.0,59,,,,,,,,,,,,,,,,,,,,,,,,,,,,,,,,
0.0,1.0,1.110525,0.0,25.0,25.0,25.0,1.0,spoon02a.jpg,0.0,clock_5_1.png,5.0,59,,,,,,,,,,,,,,,,,,,,,,,,,,,,,,,,
0.0,1.0,0.97641,0.0,26.0,26.0,26.0,1.0,spatula04.jpg,0.0,clock_5_2.png,5.0,59,,,,,,,,,,,,,,,,,,,,,,,,,,,,,,,,
0.0,1.0,0.86987,0.0,27.0,27.0,27.0,1.0,sugar_cube_11s.jpg,0.0,clock_5_3.png,5.0,59,,,,,,,,,,,,,,,,,,,,,,,,,,,,,,,,
0.0,1.0,1.06308,0.0,28.0,28.0,28.0,1.0,recliner_02s.jpg,0.0,clock_5_4.png,5.0,59,,,,,,,,,,,,,,,,,,,,,,,,,,,,,,,,
0.0,1.0,0.9875,0.0,29.0,29.0,29.0,1.0,stethoscope_01b.jpg,0.0,clock_5_5.png,5.0,59,,,,,,,,,,,,,,,,,,,,,,,,,,,,,,,,
0.0,1.0,0.87962,0.0,30.0,30.0,30.0,1.0,coconut_08s.jpg,0.0,clock_6_1.png,6.0,59,,,,,,,,,,,,,,,,,,,,,,,,,,,,,,,,
0.0,1.0,0.74473,0.0,31.0,31.0,31.0,1.0,pocketknife_12s.jpg,0.0,clock_6_2.png,6.0,59,,,,,,,,,,,,,,,,,,,,,,,,,,,,,,,,
0.0,1.0,0.79772,0.0,32.0,32.0,32.0,1.0,jigsaw_puzzle_11s.jpg,0.0,clock_6_3.png,6.0,59,,,,,,,,,,,,,,,,,,,,,,,,,,,,,,,,
0.0,1.0,0.90088,0.0,33.0,33.0,33.0,1.0,denture_03s.jpg,0.0,clock_6_4.png,6.0,59,,,,,,,,,,,,,,,,,,,,,,,,,,,,,,,,
0.0,1.0,0.915125,0.0,34.0,34.0,34.0,1.0,mask_09s.jpg,0.0,clock_6_5.png,6.0,59,,,,,,,,,,,,,,,,,,,,,,,,,,,,,,,,
0.0,1.0,0.748445,0.0,35.0,35.0,35.0,1.0,ivy_12s.jpg,0.0,clock_6_6.png,6.0,59,,,,,,,,,,,,,,,,,,,,,,,,,,,,,,,,
,,,,,,,,,0.0,,,59,0.0,1.0,3.542835,0.0,0.0,0.0,0.0,1.0,crossbow_10s.jpg,mitten_10s.jpg,,,,,,,,,,,,,,,,,,,,,,
,,,,,,,,,0.0,,,59,1.0,0.0,1.23904,0.0,1.0,1.0,1.0,1.0,peanut_butter_08s.jpg,omelet_07s.jpg,,,,,,,,,,,,,,,,,,,,,,
,,,,,,,,,1.0,,,59,1.0,1.0,1.33324,0.0,2.0,2.0,2.0,1.0,sugar_cube_11s.jpg,coconut_08s.jpg,,,,,,,,,,,,,,,,,,,,,,
,,,,,,,,,1.0,,,59,1.0,1.0,4.35955,0.0,3.0,3.0,3.0,1.0,pocketknife_12s.jpg,mask_09s.jpg,,,,,,,,,,,,,,,,,,,,,,
,,,,,,,,,0.0,,,59,1.0,0.0,1.377465,0.0,4.0,4.0,4.0,1.0,contact_lens_15s.jpg,sushi_08s.jpg,,,,,,,,,,,,,,,,,,,,,,
,,,,,,,,,0.0,,,59,0.0,1.0,1.61298,0.0,5.0,5.0,5.0,1.0,stethoscope_01b.jpg,spatula04.jpg,,,,,,,,,,,,,,,,,,,,,,
,,,,,,,,,,,,59,,,,,,,,,,,0.0,4.0,4.0,4.0,1.0,clock_present_5_18.xlsx,clock_compare_task_5_18.xlsx,,,,,,,,,,,,,,,
0.0,1.0,0.90611,0.0,0.0,0.0,0.0,1.0,kite_04s.jpg,0.0,clock_5_1.png,1.0,59,,,,,,,,,,,,,,,,,,,,,,,,,,,,,,,,
0.0,1.0,1.108765,0.0,1.0,1.0,1.0,1.0,pretzel_09s.jpg,0.0,clock_5_2.png,1.0,59,,,,,,,,,,,,,,,,,,,,,,,,,,,,,,,,
0.0,1.0,0.943355,0.0,2.0,2.0,2.0,1.0,diving_board_07s.jpg,0.0,clock_5_3.png,1.0,59,,,,,,,,,,,,,,,,,,,,,,,,,,,,,,,,
0.0,1.0,0.9643,0.0,3.0,3.0,3.0,1.0,prism_10s.jpg,0.0,clock_5_4.png,1.0,59,,,,,,,,,,,,,,,,,,,,,,,,,,,,,,,,
0.0,1.0,0.95908,0.0,4.0,4.0,4.0,1.0,plug_08s.jpg,0.0,clock_5_5.png,1.0,59,,,,,,,,,,,,,,,,,,,,,,,,,,,,,,,,
0.0,1.0,0.9623,0.0,5.0,5.0,5.0,1.0,antenna_01b.jpg,0.0,clock_7_1.png,2.0,59,,,,,,,,,,,,,,,,,,,,,,,,,,,,,,,,
0.0,1.0,1.25686,0.0,6.0,6.0,6.0,1.0,pretzel_09s.jpg,0.0,clock_7_2.png,2.0,59,,,,,,,,,,,,,,,,,,,,,,,,,,,,,,,,
0.0,1.0,1.179815,0.0,7.0,7.0,7.0,1.0,mug_06s.jpg,0.0,clock_7_3.png,2.0,59,,,,,,,,,,,,,,,,,,,,,,,,,,,,,,,,
1.0,1.0,1.694775,0.0,8.0,8.0,8.0,1.0,antenna_01b.jpg,1.0,clock_7_4.png,2.0,59,,,,,,,,,,,,,,,,,,,,,,,,,,,,,,,,
0.0,1.0,0.697335,0.0,9.0,9.0,9.0,1.0,sledgehammer_03s.jpg,0.0,clock_7_5.png,2.0,59,,,,,,,,,,,,,,,,,,,,,,,,,,,,,,,,
0.0,1.0,1.551115,0.0,10.0,10.0,10.0,1.0,plug_08s.jpg,0.0,clock_7_6.png,2.0,59,,,,,,,,,,,,,,,,,,,,,,,,,,,,,,,,
0.0,1.0,1.29399,0.0,11.0,11.0,11.0,1.0,gas_mask_11s.jpg,0.0,clock_7_7.png,2.0,59,,,,,,,,,,,,,,,,,,,,,,,,,,,,,,,,
0.0,1.0,1.457875,0.0,12.0,12.0,12.0,1.0,coat_rack_01b.jpg,0.0,clock_7_1.png,3.0,59,,,,,,,,,,,,,,,,,,,,,,,,,,,,,,,,
0.0,1.0,0.772625,0.0,13.0,13.0,13.0,1.0,ladle_04s.jpg,0.0,clock_7_2.png,3.0,59,,,,,,,,,,,,,,,,,,,,,,,,,,,,,,,,
0.0,1.0,1.16551,0.0,14.0,14.0,14.0,1.0,fishhook_06s.jpg,0.0,clock_7_3.png,3.0,59,,,,,,,,,,,,,,,,,,,,,,,,,,,,,,,,
0.0,1.0,0.95043,0.0,15.0,15.0,15.0,1.0,camcorder_10s.jpg,0.0,clock_7_4.png,3.0,59,,,,,,,,,,,,,,,,,,,,,,,,,,,,,,,,
0.0,1.0,0.872675,0.0,16.0,16.0,16.0,1.0,koala_13s.jpg,0.0,clock_7_5.png,3.0,59,,,,,,,,,,,,,,,,,,,,,,,,,,,,,,,,
0.0,1.0,0.955805,0.0,17.0,17.0,17.0,1.0,treadmill_06s.jpg,0.0,clock_7_6.png,3.0,59,,,,,,,,,,,,,,,,,,,,,,,,,,,,,,,,
0.0,1.0,0.92922,0.0,18.0,18.0,18.0,1.0,jukebox_03n.jpg,0.0,clock_7_7.png,3.0,59,,,,,,,,,,,,,,,,,,,,,,,,,,,,,,,,
0.0,1.0,0.95257,0.0,19.0,19.0,19.0,1.0,trident_07s.jpg,0.0,clock_6_1.png,4.0,59,,,,,,,,,,,,,,,,,,,,,,,,,,,,,,,,
0.0,1.0,1.084495,0.0,20.0,20.0,20.0,1.0,loveseat_08s.jpg,0.0,clock_6_2.png,4.0,59,,,,,,,,,,,,,,,,,,,,,,,,,,,,,,,,
0.0,1.0,1.03959,0.0,21.0,21.0,21.0,1.0,muffin_12n.jpg,0.0,clock_6_3.png,4.0,59,,,,,,,,,,,,,,,,,,,,,,,,,,,,,,,,
0.0,1.0,0.902265,0.0,22.0,22.0,22.0,1.0,squirrel_02s.jpg,0.0,clock_6_4.png,4.0,59,,,,,,,,,,,,,,,,,,,,,,,,,,,,,,,,
0.0,1.0,0.98785,0.0,23.0,23.0,23.0,1.0,gas_mask_11s.jpg,0.0,clock_6_5.png,4.0,59,,,,,,,,,,,,,,,,,,,,,,,,,,,,,,,,
0.0,1.0,1.137975,0.0,24.0,24.0,24.0,1.0,birdcage_08s.jpg,0.0,clock_6_6.png,4.0,59,,,,,,,,,,,,,,,,,,,,,,,,,,,,,,,,
0.0,1.0,0.68416,0.0,25.0,25.0,25.0,1.0,sea_urchin_09s.jpg,0.0,clock_5_1.png,5.0,59,,,,,,,,,,,,,,,,,,,,,,,,,,,,,,,,
0.0,1.0,0.80635,0.0,26.0,26.0,26.0,1.0,lizard_10n.jpg,0.0,clock_5_2.png,5.0,59,,,,,,,,,,,,,,,,,,,,,,,,,,,,,,,,
0.0,1.0,1.19123,0.0,27.0,27.0,27.0,1.0,refrigerator_07s.jpg,0.0,clock_5_3.png,5.0,59,,,,,,,,,,,,,,,,,,,,,,,,,,,,,,,,
0.0,1.0,0.764675,0.0,28.0,28.0,28.0,1.0,toilet_paper_12s.jpg,0.0,clock_5_4.png,5.0,59,,,,,,,,,,,,,,,,,,,,,,,,,,,,,,,,
0.0,1.0,0.8393,0.0,29.0,29.0,29.0,1.0,pantyhose_07s.jpg,0.0,clock_5_5.png,5.0,59,,,,,,,,,,,,,,,,,,,,,,,,,,,,,,,,
0.0,1.0,0.91171,0.0,30.0,30.0,30.0,1.0,screwdriver02a.jpg,0.0,clock_6_1.png,6.0,59,,,,,,,,,,,,,,,,,,,,,,,,,,,,,,,,
0.0,1.0,1.095235,0.0,31.0,31.0,31.0,1.0,toaster_03s.jpg,0.0,clock_6_2.png,6.0,59,,,,,,,,,,,,,,,,,,,,,,,,,,,,,,,,
0.0,1.0,0.90888,0.0,32.0,32.0,32.0,1.0,toad_09s.jpg,0.0,clock_6_3.png,6.0,59,,,,,,,,,,,,,,,,,,,,,,,,,,,,,,,,
0.0,1.0,0.572085,0.0,33.0,33.0,33.0,1.0,pincushion_10s.jpg,0.0,clock_6_4.png,6.0,59,,,,,,,,,,,,,,,,,,,,,,,,,,,,,,,,
1.0,1.0,0.82618,0.0,34.0,34.0,34.0,1.0,screwdriver02a.jpg,1.0,clock_6_5.png,6.0,59,,,,,,,,,,,,,,,,,,,,,,,,,,,,,,,,
0.0,1.0,1.080265,0.0,35.0,35.0,35.0,1.0,coat_rack_01b.jpg,0.0,clock_6_6.png,6.0,59,,,,,,,,,,,,,,,,,,,,,,,,,,,,,,,,
,,,,,,,,,0.0,,,59,1.0,0.0,0.988855,0.0,0.0,0.0,0.0,1.0,loveseat_08s.jpg,treadmill_06s.jpg,,,,,,,,,,,,,,,,,,,,,,
,,,,,,,,,1.0,,,59,0.0,0.0,1.247825,0.0,1.0,1.0,1.0,1.0,birdcage_08s.jpg,refrigerator_07s.jpg,,,,,,,,,,,,,,,,,,,,,,
,,,,,,,,,0.0,,,59,1.0,0.0,1.329295,0.0,2.0,2.0,2.0,1.0,toaster_03s.jpg,toilet_paper_12s.jpg,,,,,,,,,,,,,,,,,,,,,,
,,,,,,,,,0.0,,,59,0.0,1.0,1.502165,0.0,3.0,3.0,3.0,1.0,prism_10s.jpg,kite_04s.jpg,,,,,,,,,,,,,,,,,,,,,,
,,,,,,,,,1.0,,,59,1.0,1.0,2.332395,0.0,4.0,4.0,4.0,1.0,ladle_04s.jpg,koala_13s.jpg,,,,,,,,,,,,,,,,,,,,,,
,,,,,,,,,1.0,,,59,0.0,0.0,1.61981,0.0,5.0,5.0,5.0,1.0,camcorder_10s.jpg,jukebox_03n.jpg,,,,,,,,,,,,,,,,,,,,,,
0.0,1.0,0.77107,,,,,,marshmallow_08s.jpg,0.0,clockno_up.jpg,1.0,59,,,,,,,,,,,,,,,,,,0.0,0.0,0.0,0.0,1.0,,,,,,,,,,
0.0,1.0,1.120515,,,,,,exhaust_pipe_10s.jpg,0.0,clockno_default.jpg,1.0,59,,,,,,,,,,,,,,,,,,0.0,1.0,1.0,1.0,1.0,,,,,,,,,,
0.0,1.0,0.53574,,,,,,olive_05s.jpg,0.0,clockno_default.jpg,1.0,59,,,,,,,,,,,,,,,,,,0.0,2.0,2.0,2.0,1.0,,,,,,,,,,
0.0,1.0,0.50946,,,,,,chime_12s.jpg,0.0,clockno_default.jpg,1.0,59,,,,,,,,,,,,,,,,,,0.0,3.0,3.0,3.0,1.0,,,,,,,,,,
0.0,1.0,0.573455,,,,,,safety_pin_02s.jpg,0.0,clockno_default.jpg,1.0,59,,,,,,,,,,,,,,,,,,0.0,4.0,4.0,4.0,1.0,,,,,,,,,,
0.0,1.0,0.546915,,,,,,squirt_gun_03s.jpg,0.0,clockno_default.jpg,1.0,59,,,,,,,,,,,,,,,,,,0.0,5.0,5.0,5.0,1.0,,,,,,,,,,
0.0,1.0,0.92872,,,,,,seagull_01b.jpg,0.0,clockno_default.jpg,1.0,59,,,,,,,,,,,,,,,,,,0.0,6.0,6.0,6.0,1.0,,,,,,,,,,
0.0,1.0,0.702335,,,,,,sunflower_17s.jpg,0.0,clockno_up.jpg,2.0,59,,,,,,,,,,,,,,,,,,0.0,7.0,7.0,7.0,1.0,,,,,,,,,,
0.0,1.0,0.75545,,,,,,tile_08s.jpg,0.0,clockno_default.jpg,2.0,59,,,,,,,,,,,,,,,,,,0.0,8.0,8.0,8.0,1.0,,,,,,,,,,
0.0,1.0,0.75083,,,,,,butter_14s.jpg,0.0,clockno_default.jpg,2.0,59,,,,,,,,,,,,,,,,,,0.0,9.0,9.0,9.0,1.0,,,,,,,,,,
1.0,1.0,1.29496,,,,,,butter_14s.jpg,1.0,clockno_default.jpg,2.0,59,,,,,,,,,,,,,,,,,,0.0,10.0,10.0,10.0,1.0,,,,,,,,,,
0.0,1.0,0.81934,,,,,,safety_pin_02s.jpg,0.0,clockno_default.jpg,2.0,59,,,,,,,,,,,,,,,,,,0.0,11.0,11.0,11.0,1.0,,,,,,,,,,
0.0,1.0,0.832255,,,,,,owl_15s.jpg,0.0,clockno_default.jpg,2.0,59,,,,,,,,,,,,,,,,,,0.0,12.0,12.0,12.0,1.0,,,,,,,,,,
0.0,1.0,0.84404,,,,,,trampoline_13s.jpg,0.0,clockno_up.jpg,3.0,59,,,,,,,,,,,,,,,,,,0.0,13.0,13.0,13.0,1.0,,,,,,,,,,
0.0,1.0,1.078525,,,,,,penguin_16s.jpg,0.0,clockno_default.jpg,3.0,59,,,,,,,,,,,,,,,,,,0.0,14.0,14.0,14.0,1.0,,,,,,,,,,
0.0,1.0,2.200995,,,,,,espresso_01b.jpg,0.0,clockno_default.jpg,3.0,59,,,,,,,,,,,,,,,,,,0.0,15.0,15.0,15.0,1.0,,,,,,,,,,
0.0,1.0,0.78248,,,,,,smokingpipe.jpg,0.0,clockno_default.jpg,3.0,59,,,,,,,,,,,,,,,,,,0.0,16.0,16.0,16.0,1.0,,,,,,,,,,
0.0,1.0,0.645225,,,,,,ginger_09s.jpg,0.0,clockno_default.jpg,3.0,59,,,,,,,,,,,,,,,,,,0.0,17.0,17.0,17.0,1.0,,,,,,,,,,
0.0,1.0,0.630555,,,,,,lamb_04s.jpg,0.0,clockno_default.jpg,3.0,59,,,,,,,,,,,,,,,,,,0.0,18.0,18.0,18.0,1.0,,,,,,,,,,
0.0,1.0,0.734645,,,,,,tortilla_06s.jpg,0.0,clockno_default.jpg,3.0,59,,,,,,,,,,,,,,,,,,0.0,19.0,19.0,19.0,1.0,,,,,,,,,,
0.0,1.0,0.855245,,,,,,medal_04s.jpg,0.0,clockno_up.jpg,4.0,59,,,,,,,,,,,,,,,,,,0.0,20.0,20.0,20.0,1.0,,,,,,,,,,
0.0,1.0,0.92092,,,,,,laser_pointer_02s.jpg,0.0,clockno_default.jpg,4.0,59,,,,,,,,,,,,,,,,,,0.0,21.0,21.0,21.0,1.0,,,,,,,,,,
0.0,1.0,0.531955,,,,,,mango_09s.jpg,0.0,clockno_default.jpg,4.0,59,,,,,,,,,,,,,,,,,,0.0,22.0,22.0,22.0,1.0,,,,,,,,,,
1.0,1.0,1.257075,,,,,,medal_04s.jpg,1.0,clockno_default.jpg,4.0,59,,,,,,,,,,,,,,,,,,0.0,23.0,23.0,23.0,1.0,,,,,,,,,,
0.0,1.0,1.519585,,,,,,fire_alarm_05s.jpg,0.0,clockno_default.jpg,4.0,59,,,,,,,,,,,,,,,,,,0.0,24.0,24.0,24.0,1.0,,,,,,,,,,
0.0,1.0,0.792595,,,,,,tape_measure_11s.jpg,0.0,clockno_up.jpg,5.0,59,,,,,,,,,,,,,,,,,,0.0,25.0,25.0,25.0,1.0,,,,,,,,,,
0.0,1.0,1.124845,,,,,,piano_13n.jpg,0.0,clockno_default.jpg,5.0,59,,,,,,,,,,,,,,,,,,0.0,26.0,26.0,26.0,1.0,,,,,,,,,,
0.0,1.0,0.72112,,,,,,harpoon.jpg,0.0,clockno_default.jpg,5.0,59,,,,,,,,,,,,,,,,,,0.0,27.0,27.0,27.0,1.0,,,,,,,,,,
0.0,1.0,0.57482,,,,,,lemonade_04s.jpg,0.0,clockno_default.jpg,5.0,59,,,,,,,,,,,,,,,,,,0.0,28.0,28.0,28.0,1.0,,,,,,,,,,
0.0,1.0,0.72066,,,,,,thumbtack_14s.jpg,0.0,clockno_default.jpg,5.0,59,,,,,,,,,,,,,,,,,,0.0,29.0,29.0,29.0,1.0,,,,,,,,,,
0.0,1.0,0.671655,,,,,,ink_08s.jpg,0.0,clockno_default.jpg,5.0,59,,,,,,,,,,,,,,,,,,0.0,30.0,30.0,30.0,1.0,,,,,,,,,,
0.0,1.0,0.723765,,,,,,pencil_sharpener_09n.jpg,0.0,clockno_up.jpg,6.0,59,,,,,,,,,,,,,,,,,,0.0,31.0,31.0,31.0,1.0,,,,,,,,,,
0.0,1.0,0.769175,,,,,,hydrant_10s.jpg,0.0,clockno_default.jpg,6.0,59,,,,,,,,,,,,,,,,,,0.0,32.0,32.0,32.0,1.0,,,,,,,,,,
0.0,1.0,0.66208,,,,,,punch1_10s.jpg,0.0,clockno_default.jpg,6.0,59,,,,,,,,,,,,,,,,,,0.0,33.0,33.0,33.0,1.0,,,,,,,,,,
0.0,1.0,0.5645,,,,,,crayon_09s.jpg,0.0,clockno_default.jpg,6.0,59,,,,,,,,,,,,,,,,,,0.0,34.0,34.0,34.0,1.0,,,,,,,,,,
1.0,1.0,1.054365,,,,,,punch1_10s.jpg,1.0,clockno_default.jpg,6.0,59,,,,,,,,,,,,,,,,,,0.0,35.0,35.0,35.0,1.0,,,,,,,,,,
,,,,,,,,,0.0,,,59,1.0,0.0,1.59644,,,,,,tile_08s.jpg,squirt_gun_03s.jpg,,,,,,,,,,,,,0.0,0.0,0.0,0.0,1.0,,,,,
,,,,,,,,,0.0,,,59,0.0,1.0,1.18685,,,,,,espresso_01b.jpg,owl_15s.jpg,,,,,,,,,,,,,0.0,1.0,1.0,1.0,1.0,,,,,
,,,,,,,,,1.0,,,59,1.0,1.0,0.98791,,,,,,tortilla_06s.jpg,mango_09s.jpg,,,,,,,,,,,,,0.0,2.0,2.0,2.0,1.0,,,,,
,,,,,,,,,0.0,,,59,1.0,0.0,1.08206,,,,,,chime_12s.jpg,marshmallow_08s.jpg,,,,,,,,,,,,,0.0,3.0,3.0,3.0,1.0,,,,,
,,,,,,,,,1.0,,,59,0.0,0.0,0.73929,,,,,,trampoline_13s.jpg,smokingpipe.jpg,,,,,,,,,,,,,0.0,4.0,4.0,4.0,1.0,,,,,
,,,,,,,,,1.0,,,59,1.0,1.0,0.971555,,,,,,penguin_16s.jpg,ginger_09s.jpg,,,,,,,,,,,,,0.0,5.0,5.0,5.0,1.0,,,,,
,,,,,,,,,,,,59,,,,,,,,,,,,,,,,clockno_present_1_18.xlsx,clockno_compare_task_1_18.xlsx,,,,,,,,,,,0.0,0.0,0.0,0.0,1.0
0.0,1.0,1.19898,,,,,,potpourri_03s.jpg,0.0,clock_6_1.png,1.0,59,,,,,,,,,,,,,,,,,,0.0,0.0,0.0,0.0,1.0,,,,,,,,,,
0.0,1.0,0.479895,,,,,,chopsticks_08s.jpg,0.0,clock_6_2.png,1.0,59,,,,,,,,,,,,,,,,,,0.0,1.0,1.0,1.0,1.0,,,,,,,,,,
0.0,1.0,0.51415,,,,,,slingshot_07s.jpg,0.0,clock_6_3.png,1.0,59,,,,,,,,,,,,,,,,,,0.0,2.0,2.0,2.0,1.0,,,,,,,,,,
0.0,1.0,0.4475,,,,,,lid_10s.jpg,0.0,clock_6_4.png,1.0,59,,,,,,,,,,,,,,,,,,0.0,3.0,3.0,3.0,1.0,,,,,,,,,,
0.0,1.0,0.63136,,,,,,bagel_15s.jpg,0.0,clock_6_5.png,1.0,59,,,,,,,,,,,,,,,,,,0.0,4.0,4.0,4.0,1.0,,,,,,,,,,
1.0,1.0,0.60493,,,,,,potpourri_03s.jpg,1.0,clock_6_6.png,1.0,59,,,,,,,,,,,,,,,,,,0.0,5.0,5.0,5.0,1.0,,,,,,,,,,
0.0,1.0,0.590985,,,,,,clover_04s.jpg,0.0,clock_7_1.png,2.0,59,,,,,,,,,,,,,,,,,,0.0,6.0,6.0,6.0,1.0,,,,,,,,,,
0.0,1.0,0.45205,,,,,,dashboard_02s.jpg,0.0,clock_7_2.png,2.0,59,,,,,,,,,,,,,,,,,,0.0,7.0,7.0,7.0,1.0,,,,,,,,,,
1.0,1.0,0.98467,,,,,,dashboard_02s.jpg,1.0,clock_7_3.png,2.0,59,,,,,,,,,,,,,,,,,,0.0,8.0,8.0,8.0,1.0,,,,,,,,,,
0.0,1.0,0.61824,,,,,,soccer_ball_12s.jpg,0.0,clock_7_4.png,2.0,59,,,,,,,,,,,,,,,,,,0.0,9.0,9.0,9.0,1.0,,,,,,,,,,
0.0,1.0,0.552835,,,,,,lava_02s.jpg,0.0,clock_7_5.png,2.0,59,,,,,,,,,,,,,,,,,,0.0,10.0,10.0,10.0,1.0,,,,,,,,,,
1.0,1.0,1.095995,,,,,,dashboard_02s.jpg,1.0,clock_7_6.png,2.0,59,,,,,,,,,,,,,,,,,,0.0,11.0,11.0,11.0,1.0,,,,,,,,,,
0.0,1.0,0.549415,,,,,,thread_08s.jpg,0.0,clock_7_7.png,2.0,59,,,,,,,,,,,,,,,,,,0.0,12.0,12.0,12.0,1.0,,,,,,,,,,
0.0,1.0,0.76159,,,,,,bowler_hat_10s.jpg,0.0,clock_5_1.png,3.0,59,,,,,,,,,,,,,,,,,,0.0,13.0,13.0,13.0,1.0,,,,,,,,,,
0.0,1.0,0.824685,,,,,,paintbrush_04s.jpg,0.0,clock_5_2.png,3.0,59,,,,,,,,,,,,,,,,,,0.0,14.0,14.0,14.0,1.0,,,,,,,,,,
0.0,1.0,0.920165,,,,,,rollerskate_03s.jpg,0.0,clock_5_3.png,3.0,59,,,,,,,,,,,,,,,,,,0.0,15.0,15.0,15.0,1.0,,,,,,,,,,
0.0,1.0,1.00802,,,,,,slingshot_07s.jpg,0.0,clock_5_4.png,3.0,59,,,,,,,,,,,,,,,,,,0.0,16.0,16.0,16.0,1.0,,,,,,,,,,
0.0,1.0,0.936795,,,,,,clover_04s.jpg,0.0,clock_5_5.png,3.0,59,,,,,,,,,,,,,,,,,,0.0,17.0,17.0,17.0,1.0,,,,,,,,,,
0.0,1.0,0.72047,,,,,,otter_05s.jpg,0.0,clock_5_1.png,4.0,59,,,,,,,,,,,,,,,,,,0.0,18.0,18.0,18.0,1.0,,,,,,,,,,
0.0,1.0,0.67459,,,,,,teacup_07s.jpg,0.0,clock_5_2.png,4.0,59,,,,,,,,,,,,,,,,,,0.0,19.0,19.0,19.0,1.0,,,,,,,,,,
0.0,1.0,0.66778,,,,,,joystick_01b.jpg,0.0,clock_5_3.png,4.0,59,,,,,,,,,,,,,,,,,,0.0,20.0,20.0,20.0,1.0,,,,,,,,,,
1.0,0.0,1.413135,,,,,,paintbrush_04s.jpg,0.0,clock_5_4.png,4.0,59,,,,,,,,,,,,,,,,,,0.0,21.0,21.0,21.0,1.0,,,,,,,,,,
0.0,0.0,1.449555,,,,,,joystick_01b.jpg,1.0,clock_5_5.png,4.0,59,,,,,,,,,,,,,,,,,,0.0,22.0,22.0,22.0,1.0,,,,,,,,,,
0.0,1.0,0.79899,,,,,,flask_04s.jpg,0.0,clock_7_1.png,5.0,59,,,,,,,,,,,,,,,,,,0.0,23.0,23.0,23.0,1.0,,,,,,,,,,
0.0,1.0,0.66167,,,,,,stapler_01b.jpg,0.0,clock_7_2.png,5.0,59,,,,,,,,,,,,,,,,,,0.0,24.0,24.0,24.0,1.0,,,,,,,,,,
1.0,1.0,0.8061,,,,,,flask_04s.jpg,1.0,clock_7_3.png,5.0,59,,,,,,,,,,,,,,,,,,0.0,25.0,25.0,25.0,1.0,,,,,,,,,,
0.0,1.0,0.762285,,,,,,kettle_08s.jpg,0.0,clock_7_4.png,5.0,59,,,,,,,,,,,,,,,,,,0.0,26.0,26.0,26.0,1.0,,,,,,,,,,
0.0,1.0,0.553655,,,,,,playpen_11s.jpg,0.0,clock_7_5.png,5.0,59,,,,,,,,,,,,,,,,,,0.0,27.0,27.0,27.0,1.0,,,,,,,,,,
0.0,1.0,0.70654,,,,,,red_carpet_03s.jpg,0.0,clock_7_6.png,5.0,59,,,,,,,,,,,,,,,,,,0.0,28.0,28.0,28.0,1.0,,,,,,,,,,
1.0,1.0,1.09161,,,,,,kettle_08s.jpg,1.0,clock_7_7.png,5.0,59,,,,,,,,,,,,,,,,,,0.0,29.0,29.0,29.0,1.0,,,,,,,,,,
0.0,1.0,0.754785,,,,,,oil_02s.jpg,0.0,clock_6_1.png,6.0,59,,,,,,,,,,,,,,,,,,0.0,30.0,30.0,30.0,1.0,,,,,,,,,,
0.0,1.0,0.94727,,,,,,flask_04s.jpg,0.0,clock_6_2.png,6.0,59,,,,,,,,,,,,,,,,,,0.0,31.0,31.0,31.0,1.0,,,,,,,,,,
0.0,1.0,0.711205,,,,,,bottle_opener_11s.jpg,0.0,clock_6_3.png,6.0,59,,,,,,,,,,,,,,,,,,0.0,32.0,32.0,32.0,1.0,,,,,,,,,,
0.0,1.0,0.48179,,,,,,tuba_12s.jpg,0.0,clock_6_4.png,6.0,59,,,,,,,,,,,,,,,,,,0.0,33.0,33.0,33.0,1.0,,,,,,,,,,
0.0,1.0,0.636205,,,,,,lifesaver_10s.jpg,0.0,clock_6_5.png,6.0,59,,,,,,,,,,,,,,,,,,0.0,34.0,34.0,34.0,1.0,,,,,,,,,,
0.0,1.0,0.60079,,,,,,rocking_horse_03s.jpg,0.0,clock_6_6.png,6.0,59,,,,,,,,,,,,,,,,,,0.0,35.0,35.0,35.0,1.0,,,,,,,,,,
,,,,,,,,,1.0,,,59,1.0,1.0,2.134855,,,,,,lava_02s.jpg,bowler_hat_10s.jpg,,,,,,,,,,,,,0.0,0.0,0.0,0.0,1.0,,,,,
,,,,,,,,,0.0,,,59,0.0,1.0,1.30429,,,,,,otter_05s.jpg,rollerskate_03s.jpg,,,,,,,,,,,,,0.0,1.0,1.0,1.0,1.0,,,,,
,,,,,,,,,1.0,,,59,0.0,0.0,1.477615,,,,,,playpen_11s.jpg,oil_02s.jpg,,,,,,,,,,,,,0.0,2.0,2.0,2.0,1.0,,,,,
,,,,,,,,,1.0,,,59,1.0,1.0,1.728375,,,,,,chopsticks_08s.jpg,bagel_15s.jpg,,,,,,,,,,,,,0.0,3.0,3.0,3.0,1.0,,,,,
,,,,,,,,,1.0,,,59,0.0,0.0,2.44812,,,,,,bottle_opener_11s.jpg,rocking_horse_03s.jpg,,,,,,,,,,,,,0.0,4.0,4.0,4.0,1.0,,,,,
,,,,,,,,,0.0,,,59,1.0,0.0,1.463685,,,,,,thread_08s.jpg,soccer_ball_12s.jpg,,,,,,,,,,,,,0.0,5.0,5.0,5.0,1.0,,,,,
,,,,,,,,,,,,59,,,,,,,,,,,,,,,,clockno_present_2_18.xlsx,clockno_compare_task_2_18.xlsx,,,,,,,,,,,0.0,1.0,1.0,1.0,1.0
0.0,1.0,0.991035,,,,,,tiger_06s.jpg,0.0,clock_5_1.png,1.0,59,,,,,,,,,,,,,,,,,,0.0,0.0,0.0,0.0,1.0,,,,,,,,,,
0.0,1.0,0.64034,,,,,,kayak_08s.jpg,0.0,clock_5_2.png,1.0,59,,,,,,,,,,,,,,,,,,0.0,1.0,1.0,1.0,1.0,,,,,,,,,,
0.0,1.0,0.68571,,,,,,ironing_board_07s.jpg,0.0,clock_5_3.png,1.0,59,,,,,,,,,,,,,,,,,,0.0,2.0,2.0,2.0,1.0,,,,,,,,,,
0.0,1.0,0.538415,,,,,,lavender_10s.jpg,0.0,clock_5_4.png,1.0,59,,,,,,,,,,,,,,,,,,0.0,3.0,3.0,3.0,1.0,,,,,,,,,,
0.0,1.0,1.0334,,,,,,onion_10s.jpg,0.0,clock_5_5.png,1.0,59,,,,,,,,,,,,,,,,,,0.0,4.0,4.0,4.0,1.0,,,,,,,,,,
0.0,1.0,0.87686,,,,,,fireworks_18s.jpg,0.0,clock_5_1.png,2.0,59,,,,,,,,,,,,,,,,,,0.0,5.0,5.0,5.0,1.0,,,,,,,,,,
0.0,1.0,0.64003,,,,,,fork_04s.jpg,0.0,clock_5_2.png,2.0,59,,,,,,,,,,,,,,,,,,0.0,6.0,6.0,6.0,1.0,,,,,,,,,,
0.0,1.0,0.624955,,,,,,lantern_04s.jpg,0.0,clock_5_3.png,2.0,59,,,,,,,,,,,,,,,,,,0.0,7.0,7.0,7.0,1.0,,,,,,,,,,
1.0,1.0,2.396385,,,,,,lantern_04s.jpg,1.0,clock_5_4.png,2.0,59,,,,,,,,,,,,,,,,,,0.0,8.0,8.0,8.0,1.0,,,,,,,,,,
0.0,1.0,0.891595,,,,,,projector_08s.jpg,0.0,clock_5_5.png,2.0,59,,,,,,,,,,,,,,,,,,0.0,9.0,9.0,9.0,1.0,,,,,,,,,,
0.0,1.0,0.84555,,,,,,glue_01s.jpg,0.0,clock_7_1.png,3.0,59,,,,,,,,,,,,,,,,,,0.0,10.0,10.0,10.0,1.0,,,,,,,,,,
0.0,1.0,1.481025,,,,,,milk_02s.jpg,0.0,clock_7_2.png,3.0,59,,,,,,,,,,,,,,,,,,0.0,11.0,11.0,11.0,1.0,,,,,,,,,,
0.0,1.0,1.66104,,,,,,coral_08s.jpg,0.0,clock_7_3.png,3.0,59,,,,,,,,,,,,,,,,,,0.0,12.0,12.0,12.0,1.0,,,,,,,,,,
0.0,1.0,0.594635,,,,,,ladder_15s.jpg,0.0,clock_7_4.png,3.0,59,,,,,,,,,,,,,,,,,,0.0,13.0,13.0,13.0,1.0,,,,,,,,,,
0.0,1.0,0.58841,,,,,,margarita_03s.jpg,0.0,clock_7_5.png,3.0,59,,,,,,,,,,,,,,,,,,0.0,14.0,14.0,14.0,1.0,,,,,,,,,,
0.0,1.0,1.242615,,,,,,onion_10s.jpg,0.0,clock_7_6.png,3.0,59,,,,,,,,,,,,,,,,,,0.0,15.0,15.0,15.0,1.0,,,,,,,,,,
0.0,1.0,0.756465,,,,,,pan_02s.jpg,0.0,clock_7_7.png,3.0,59,,,,,,,,,,,,,,,,,,0.0,16.0,16.0,16.0,1.0,,,,,,,,,,
0.0,1.0,0.5696,,,,,,perfume_06s.jpg,0.0,clock_7_1.png,4.0,59,,,,,,,,,,,,,,,,,,0.0,17.0,17.0,17.0,1.0,,,,,,,,,,
0.0,1.0,0.813205,,,,,,puddle_02s.jpg,0.0,clock_7_2.png,4.0,59,,,,,,,,,,,,,,,,,,0.0,18.0,18.0,18.0,1.0,,,,,,,,,,
0.0,1.0,0.746685,,,,,,margarita_03s.jpg,0.0,clock_7_3.png,4.0,59,,,,,,,,,,,,,,,,,,0.0,19.0,19.0,19.0,1.0,,,,,,,,,,
0.0,1.0,0.669695,,,,,,luggage_08s.jpg,0.0,clock_7_4.png,4.0,59,,,,,,,,,,,,,,,,,,0.0,20.0,20.0,20.0,1.0,,,,,,,,,,
0.0,1.0,0.785355,,,,,,letter_opener_03s.jpg,0.0,clock_7_5.png,4.0,59,,,,,,,,,,,,,,,,,,0.0,21.0,21.0,21.0,1.0,,,,,,,,,,
0.0,1.0,0.713575,,,,,,top_hat_11s.jpg,0.0,clock_7_6.png,4.0,59,,,,,,,,,,,,,,,,,,0.0,22.0,22.0,22.0,1.0,,,,,,,,,,
0.0,1.0,0.72592,,,,,,turkey_10s.jpg,0.0,clock_7_7.png,4.0,59,,,,,,,,,,,,,,,,,,0.0,23.0,23.0,23.0,1.0,,,,,,,,,,
0.0,1.0,0.58018,,,,,,inhaler_01b.jpg,0.0,clock_6_1.png,5.0,59,,,,,,,,,,,,,,,,,,0.0,24.0,24.0,24.0,1.0,,,,,,,,,,
0.0,1.0,0.58364,,,,,,swing_set_15s.jpg,0.0,clock_6_2.png,5.0,59,,,,,,,,,,,,,,,,,,0.0,25.0,25.0,25.0,1.0,,,,,,,,,,
0.0,1.0,0.50796,,,,,,memory_stick_11s.jpg,0.0,clock_6_3.png,5.0,59,,,,,,,,,,,,,,,,,,0.0,26.0,26.0,26.0,1.0,,,,,,,,,,
1.0,1.0,1.002285,,,,,,inhaler_01b.jpg,1.0,clock_6_4.png,5.0,59,,,,,,,,,,,,,,,,,,0.0,27.0,27.0,27.0,1.0,,,,,,,,,,
0.0,1.0,0.635405,,,,,,gingerbread_man_03s.jpg,0.0,clock_6_5.png,5.0,59,,,,,,,,,,,,,,,,,,0.0,28.0,28.0,28.0,1.0,,,,,,,,,,
0.0,1.0,0.76804,,,,,,cushion_08s.jpg,0.0,clock_6_6.png,5.0,59,,,,,,,,,,,,,,,,,,0.0,29.0,29.0,29.0,1.0,,,,,,,,,,
0.0,1.0,0.671555,,,,,,aluminum_foil_08s.jpg,0.0,clock_6_1.png,6.0,59,,,,,,,,,,,,,,,,,,0.0,30.0,30.0,30.0,1.0,,,,,,,,,,
0.0,1.0,0.57613,,,,,,sleeping_bag_12s.jpg,0.0,clock_6_2.png,6.0,59,,,,,,,,,,,,,,,,,,0.0,31.0,31.0,31.0,1.0,,,,,,,,,,
0.0,1.0,0.549315,,,,,,rock_08s.jpg,0.0,clock_6_3.png,6.0,59,,,,,,,,,,,,,,,,,,0.0,32.0,32.0,32.0,1.0,,,,,,,,,,
0.0,1.0,0.621095,,,,,,stump_02s.jpg,0.0,clock_6_4.png,6.0,59,,,,,,,,,,,,,,,,,,0.0,33.0,33.0,33.0,1.0,,,,,,,,,,
0.0,1.0,0.556805,,,,,,road_sign_05s.jpg,0.0,clock_6_5.png,6.0,59,,,,,,,,,,,,,,,,,,0.0,34.0,34.0,34.0,1.0,,,,,,,,,,
0.0,1.0,0.848845,,,,,,tiger_06s.jpg,0.0,clock_6_6.png,6.0,59,,,,,,,,,,,,,,,,,,0.0,35.0,35.0,35.0,1.0,,,,,,,,,,
,,,,,,,,,0.0,,,59,0.0,1.0,1.969855,,,,,,fireworks_18s.jpg,ironing_board_07s.jpg,,,,,,,,,,,,,0.0,0.0,0.0,0.0,1.0,,,,,
,,,,,,,,,0.0,,,59,1.0,0.0,1.938845,,,,,,fork_04s.jpg,lavender_10s.jpg,,,,,,,,,,,,,0.0,1.0,1.0,1.0,1.0,,,,,
,,,,,,,,,0.0,,,59,0.0,1.0,1.952675,,,,,,coral_08s.jpg,projector_08s.jpg,,,,,,,,,,,,,0.0,2.0,2.0,2.0,1.0,,,,,
,,,,,,,,,0.0,,,59,0.0,1.0,1.151535,,,,,,ladder_15s.jpg,glue_01s.jpg,,,,,,,,,,,,,0.0,3.0,3.0,3.0,1.0,,,,,
,,,,,,,,,0.0,,,59,1.0,0.0,0.75838,,,,,,luggage_08s.jpg,perfume_06s.jpg,,,,,,,,,,,,,0.0,4.0,4.0,4.0,1.0,,,,,
,,,,,,,,,1.0,,,59,1.0,1.0,1.180675,,,,,,puddle_02s.jpg,letter_opener_03s.jpg,,,,,,,,,,,,,0.0,5.0,5.0,5.0,1.0,,,,,
,,,,,,,,,,,,59,,,,,,,,,,,,,,,,clockno_present_3_18.xlsx,clockno_compare_task_3_18.xlsx,,,,,,,,,,,0.0,2.0,2.0,2.0,1.0
0.0,1.0,1.201695,,,,,,pie_08s.jpg,0.0,clockno_up.jpg,1.0,59,,,,,,,,,,,,,,,,,,0.0,0.0,0.0,0.0,1.0,,,,,,,,,,
0.0,1.0,0.878925,,,,,,tab_09s.jpg,0.0,clockno_default.jpg,1.0,59,,,,,,,,,,,,,,,,,,0.0,1.0,1.0,1.0,1.0,,,,,,,,,,
0.0,1.0,0.853855,,,,,,umbrella_15s.jpg,0.0,clockno_default.jpg,1.0,59,,,,,,,,,,,,,,,,,,0.0,2.0,2.0,2.0,1.0,,,,,,,,,,
1.0,1.0,0.710865,,,,,,tab_09s.jpg,1.0,clockno_default.jpg,1.0,59,,,,,,,,,,,,,,,,,,0.0,3.0,3.0,3.0,1.0,,,,,,,,,,
0.0,1.0,0.49109,,,,,,quad_04s.jpg,0.0,clockno_default.jpg,1.0,59,,,,,,,,,,,,,,,,,,0.0,4.0,4.0,4.0,1.0,,,,,,,,,,
0.0,1.0,0.66465,,,,,,racehorse_03s.jpg,0.0,clockno_default.jpg,1.0,59,,,,,,,,,,,,,,,,,,0.0,5.0,5.0,5.0,1.0,,,,,,,,,,
0.0,1.0,0.758265,,,,,,jelly_bean_06s.jpg,0.0,clockno_up.jpg,2.0,59,,,,,,,,,,,,,,,,,,0.0,6.0,6.0,6.0,1.0,,,,,,,,,,
0.0,1.0,1.001485,,,,,,key_07s.jpg,0.0,clockno_default.jpg,2.0,59,,,,,,,,,,,,,,,,,,0.0,7.0,7.0,7.0,1.0,,,,,,,,,,
0.0,1.0,1.006245,,,,,,target_11s.jpg,0.0,clockno_default.jpg,2.0,59,,,,,,,,,,,,,,,,,,0.0,8.0,8.0,8.0,1.0,,,,,,,,,,
0.0,1.0,0.948845,,,,,,air_pump_05s.jpg,0.0,clockno_default.jpg,2.0,59,,,,,,,,,,,,,,,,,,0.0,9.0,9.0,9.0,1.0,,,,,,,,,,
0.0,1.0,0.89286,,,,,,paper_bag_12s.jpg,0.0,clockno_default.jpg,2.0,59,,,,,,,,,,,,,,,,,,0.0,10.0,10.0,10.0,1.0,,,,,,,,,,
0.0,1.0,0.574975,,,,,,frame_06s.jpg,0.0,clockno_default.jpg,2.0,59,,,,,,,,,,,,,,,,,,0.0,11.0,11.0,11.0,1.0,,,,,,,,,,
0.0,1.0,0.928535,,,,,,tambourine_06s.jpg,0.0,clockno_default.jpg,2.0,59,,,,,,,,,,,,,,,,,,0.0,12.0,12.0,12.0,1.0,,,,,,,,,,
0.0,1.0,0.573195,,,,,,crate_05s.jpg,0.0,clockno_up.jpg,3.0,59,,,,,,,,,,,,,,,,,,0.0,13.0,13.0,13.0,1.0,,,,,,,,,,
0.0,1.0,0.677315,,,,,,chip_04s.jpg,0.0,clockno_default.jpg,3.0,59,,,,,,,,,,,,,,,,,,0.0,14.0,14.0,14.0,1.0,,,,,,,,,,
0.0,1.0,0.519075,,,,,,lipstick_02s.jpg,0.0,clockno_default.jpg,3.0,59,,,,,,,,,,,,,,,,,,0.0,15.0,15.0,15.0,1.0,,,,,,,,,,
0.0,1.0,0.48294,,,,,,go-kart_10s.jpg,0.0,clockno_default.jpg,3.0,59,,,,,,,,,,,,,,,,,,0.0,16.0,16.0,16.0,1.0,,,,,,,,,,
1.0,1.0,0.72705,,,,,,crate_05s.jpg,1.0,clockno_default.jpg,3.0,59,,,,,,,,,,,,,,,,,,0.0,17.0,17.0,17.0,1.0,,,,,,,,,,
0.0,1.0,1.680595,,,,,,ravioli_08s.jpg,0.0,clockno_default.jpg,3.0,59,,,,,,,,,,,,,,,,,,0.0,18.0,18.0,18.0,1.0,,,,,,,,,,
0.0,1.0,0.803705,,,,,,latch_15s.jpg,0.0,clockno_default.jpg,3.0,59,,,,,,,,,,,,,,,,,,0.0,19.0,19.0,19.0,1.0,,,,,,,,,,
0.0,1.0,0.93661,,,,,,tulip_02s.jpg,0.0,clockno_up.jpg,4.0,59,,,,,,,,,,,,,,,,,,0.0,20.0,20.0,20.0,1.0,,,,,,,,,,
0.0,1.0,0.770935,,,,,,foam_03s.jpg,0.0,clockno_default.jpg,4.0,59,,,,,,,,,,,,,,,,,,0.0,21.0,21.0,21.0,1.0,,,,,,,,,,
0.0,1.0,0.53583,,,,,,leotard_08s.jpg,0.0,clockno_default.jpg,4.0,59,,,,,,,,,,,,,,,,,,0.0,22.0,22.0,22.0,1.0,,,,,,,,,,
0.0,1.0,0.6173,,,,,,blender_08s.jpg,0.0,clockno_default.jpg,4.0,59,,,,,,,,,,,,,,,,,,0.0,23.0,23.0,23.0,1.0,,,,,,,,,,
1.0,1.0,0.852675,,,,,,leotard_08s.jpg,1.0,clockno_default.jpg,4.0,59,,,,,,,,,,,,,,,,,,0.0,24.0,24.0,24.0,1.0,,,,,,,,,,
0.0,1.0,0.693995,,,,,,tuxedo_01b.jpg,0.0,clockno_default.jpg,4.0,59,,,,,,,,,,,,,,,,,,0.0,25.0,25.0,25.0,1.0,,,,,,,,,,
0.0,1.0,0.837645,,,,,,sunglasses_11s.jpg,0.0,clockno_up.jpg,5.0,59,,,,,,,,,,,,,,,,,,0.0,26.0,26.0,26.0,1.0,,,,,,,,,,
0.0,1.0,0.672355,,,,,,tweezers_03s.jpg,0.0,clockno_default.jpg,5.0,59,,,,,,,,,,,,,,,,,,0.0,27.0,27.0,27.0,1.0,,,,,,,,,,
0.0,1.0,1.08352,,,,,,kimono_13s.jpg,0.0,clockno_default.jpg,5.0,59,,,,,,,,,,,,,,,,,,0.0,28.0,28.0,28.0,1.0,,,,,,,,,,
0.0,1.0,0.65075,,,,,,pineapple_12s.jpg,0.0,clockno_default.jpg,5.0,59,,,,,,,,,,,,,,,,,,0.0,29.0,29.0,29.0,1.0,,,,,,,,,,
0.0,1.0,0.611665,,,,,,measuring_cup_02s.jpg,0.0,clockno_default.jpg,5.0,59,,,,,,,,,,,,,,,,,,0.0,30.0,30.0,30.0,1.0,,,,,,,,,,
0.0,1.0,1.163855,,,,,,ant_12s.jpg,0.0,clockno_up.jpg,6.0,59,,,,,,,,,,,,,,,,,,0.0,31.0,31.0,31.0,1.0,,,,,,,,,,
0.0,1.0,1.750705,,,,,,measuring_cup_02s.jpg,0.0,clockno_default.jpg,6.0,59,,,,,,,,,,,,,,,,,,0.0,32.0,32.0,32.0,1.0,,,,,,,,,,
0.0,1.0,1.17045,,,,,,stamp1_11s.jpg,0.0,clockno_default.jpg,6.0,59,,,,,,,,,,,,,,,,,,0.0,33.0,33.0,33.0,1.0,,,,,,,,,,
0.0,1.0,0.56784,,,,,,cucumber_07s.jpg,0.0,clockno_default.jpg,6.0,59,,,,,,,,,,,,,,,,,,0.0,34.0,34.0,34.0,1.0,,,,,,,,,,
0.0,1.0,0.74243,,,,,,panda_02s.jpg,0.0,clockno_default.jpg,6.0,59,,,,,,,,,,,,,,,,,,0.0,35.0,35.0,35.0,1.0,,,,,,,,,,
,,,,,,,,,0.0,,,59,1.0,0.0,1.59358,,,,,,kimono_13s.jpg,tuxedo_01b.jpg,,,,,,,,,,,,,0.0,0.0,0.0,0.0,1.0,,,,,
,,,,,,,,,0.0,,,59,0.0,1.0,1.25399,,,,,,key_07s.jpg,quad_04s.jpg,,,,,,,,,,,,,0.0,1.0,1.0,1.0,1.0,,,,,
,,,,,,,,,0.0,,,59,1.0,0.0,1.28496,,,,,,chip_04s.jpg,frame_06s.jpg,,,,,,,,,,,,,0.0,2.0,2.0,2.0,1.0,,,,,
,,,,,,,,,1.0,,,59,1.0,1.0,0.74145,,,,,,jelly_bean_06s.jpg,air_pump_05s.jpg,,,,,,,,,,,,,0.0,3.0,3.0,3.0,1.0,,,,,
,,,,,,,,,0.0,,,59,0.0,1.0,0.98722,,,,,,latch_15s.jpg,go-kart_10s.jpg,,,,,,,,,,,,,0.0,4.0,4.0,4.0,1.0,,,,,
,,,,,,,,,0.0,,,59,1.0,0.0,0.85004,,,,,,racehorse_03s.jpg,umbrella_15s.jpg,,,,,,,,,,,,,0.0,5.0,5.0,5.0,1.0,,,,,
,,,,,,,,,,,,59,,,,,,,,,,,,,,,,clockno_present_4_18.xlsx,clockno_compare_task_4_18.xlsx,,,,,,,,,,,0.0,3.0,3.0,3.0,1.0
0.0,1.0,1.41997,,,,,,swimming_pool_17s.jpg,0.0,clockno_up.jpg,1.0,59,,,,,,,,,,,,,,,,,,0.0,0.0,0.0,0.0,1.0,,,,,,,,,,
1.0,1.0,0.653865,,,,,,swimming_pool_17s.jpg,1.0,clockno_default.jpg,1.0,59,,,,,,,,,,,,,,,,,,0.0,1.0,1.0,1.0,1.0,,,,,,,,,,
0.0,1.0,1.6084,,,,,,poinsettia_04s.jpg,0.0,clockno_default.jpg,1.0,59,,,,,,,,,,,,,,,,,,0.0,2.0,2.0,2.0,1.0,,,,,,,,,,
0.0,1.0,0.591195,,,,,,toilet_07s.jpg,0.0,clockno_default.jpg,1.0,59,,,,,,,,,,,,,,,,,,0.0,3.0,3.0,3.0,1.0,,,,,,,,,,
0.0,1.0,0.714565,,,,,,razor_12s.jpg,0.0,clockno_default.jpg,1.0,59,,,,,,,,,,,,,,,,,,0.0,4.0,4.0,4.0,1.0,,,,,,,,,,
0.0,1.0,0.5571,,,,,,bathtub_23s.jpg,0.0,clockno_default.jpg,1.0,59,,,,,,,,,,,,,,,,,,0.0,5.0,5.0,5.0,1.0,,,,,,,,,,
0.0,1.0,0.68228,,,,,,raccoon_02s.jpg,0.0,clockno_default.jpg,1.0,59,,,,,,,,,,,,,,,,,,0.0,6.0,6.0,6.0,1.0,,,,,,,,,,
0.0,1.0,0.984525,,,,,,gazelle_10s.jpg,0.0,clockno_up.jpg,2.0,59,,,,,,,,,,,,,,,,,,0.0,7.0,7.0,7.0,1.0,,,,,,,,,,
0.0,1.0,0.658815,,,,,,mud_13s.jpg,0.0,clockno_default.jpg,2.0,59,,,,,,,,,,,,,,,,,,0.0,8.0,8.0,8.0,1.0,,,,,,,,,,
0.0,1.0,0.691955,,,,,,raspberry_12s.jpg,0.0,clockno_default.jpg,2.0,59,,,,,,,,,,,,,,,,,,0.0,9.0,9.0,9.0,1.0,,,,,,,,,,
0.0,1.0,0.715795,,,,,,typewriter_11s.jpg,0.0,clockno_default.jpg,2.0,59,,,,,,,,,,,,,,,,,,0.0,10.0,10.0,10.0,1.0,,,,,,,,,,
0.0,1.0,0.629935,,,,,,golf_club_03s.jpg,0.0,clockno_default.jpg,2.0,59,,,,,,,,,,,,,,,,,,0.0,11.0,11.0,11.0,1.0,,,,,,,,,,
1.0,1.0,1.373625,,,,,,typewriter_11s.jpg,1.0,clockno_default.jpg,2.0,59,,,,,,,,,,,,,,,,,,0.0,12.0,12.0,12.0,1.0,,,,,,,,,,
0.0,1.0,0.69538,,,,,,beard_16s.jpg,0.0,clockno_default.jpg,2.0,59,,,,,,,,,,,,,,,,,,0.0,13.0,13.0,13.0,1.0,,,,,,,,,,
0.0,1.0,0.97085,,,,,,punch2_09s.jpg,0.0,clockno_up.jpg,3.0,59,,,,,,,,,,,,,,,,,,0.0,14.0,14.0,14.0,1.0,,,,,,,,,,
0.0,1.0,0.673575,,,,,,treasure_08s.jpg,0.0,clockno_default.jpg,3.0,59,,,,,,,,,,,,,,,,,,0.0,15.0,15.0,15.0,1.0,,,,,,,,,,
0.0,1.0,0.527005,,,,,,film_03s.jpg,0.0,clockno_default.jpg,3.0,59,,,,,,,,,,,,,,,,,,0.0,16.0,16.0,16.0,1.0,,,,,,,,,,
0.0,1.0,0.64029,,,,,,mixer_12s.jpg,0.0,clockno_default.jpg,3.0,59,,,,,,,,,,,,,,,,,,0.0,17.0,17.0,17.0,1.0,,,,,,,,,,
0.0,1.0,0.783795,,,,,,poinsettia_04s.jpg,0.0,clockno_default.jpg,3.0,59,,,,,,,,,,,,,,,,,,0.0,18.0,18.0,18.0,1.0,,,,,,,,,,
0.0,1.0,1.088195,,,,,,radio_09s.jpg,0.0,clockno_default.jpg,3.0,59,,,,,,,,,,,,,,,,,,0.0,19.0,19.0,19.0,1.0,,,,,,,,,,
0.0,1.0,1.080665,,,,,,possum_09s.jpg,0.0,clockno_up.jpg,4.0,59,,,,,,,,,,,,,,,,,,0.0,20.0,20.0,20.0,1.0,,,,,,,,,,
0.0,1.0,1.036455,,,,,,ram_05s.jpg,0.0,clockno_default.jpg,4.0,59,,,,,,,,,,,,,,,,,,0.0,21.0,21.0,21.0,1.0,,,,,,,,,,
0.0,1.0,0.528345,,,,,,gear_07s.jpg,0.0,clockno_default.jpg,4.0,59,,,,,,,,,,,,,,,,,,0.0,22.0,22.0,22.0,1.0,,,,,,,,,,
0.0,1.0,0.602345,,,,,,orangutan_03s.jpg,0.0,clockno_default.jpg,4.0,59,,,,,,,,,,,,,,,,,,0.0,23.0,23.0,23.0,1.0,,,,,,,,,,
0.0,1.0,0.554765,,,,,,hyena_16s.jpg,0.0,clockno_default.jpg,4.0,59,,,,,,,,,,,,,,,,,,0.0,24.0,24.0,24.0,1.0,,,,,,,,,,
0.0,1.0,0.74876,,,,,,puck_06s.jpg,0.0,clockno_up.jpg,5.0,59,,,,,,,,,,,,,,,,,,0.0,25.0,25.0,25.0,1.0,,,,,,,,,,
0.0,1.0,0.59241,,,,,,golf_club_03s.jpg,0.0,clockno_default.jpg,5.0,59,,,,,,,,,,,,,,,,,,0.0,26.0,26.0,26.0,1.0,,,,,,,,,,
0.0,1.0,0.5348,,,,,,stingray_02s.jpg,0.0,clockno_default.jpg,5.0,59,,,,,,,,,,,,,,,,,,0.0,27.0,27.0,27.0,1.0,,,,,,,,,,
1.0,1.0,0.759805,,,,,,stingray_02s.jpg,1.0,clockno_default.jpg,5.0,59,,,,,,,,,,,,,,,,,,0.0,28.0,28.0,28.0,1.0,,,,,,,,,,
0.0,1.0,0.812865,,,,,,chalice_10s.jpg,0.0,clockno_default.jpg,5.0,59,,,,,,,,,,,,,,,,,,0.0,29.0,29.0,29.0,1.0,,,,,,,,,,
0.0,1.0,0.98612,,,,,,pepper_mill_03s.jpg,0.0,clockno_up.jpg,6.0,59,,,,,,,,,,,,,,,,,,0.0,30.0,30.0,30.0,1.0,,,,,,,,,,
0.0,1.0,0.54088,,,,,,parachute_03s.jpg,0.0,clockno_default.jpg,6.0,59,,,,,,,,,,,,,,,,,,0.0,31.0,31.0,31.0,1.0,,,,,,,,,,
0.0,1.0,0.673335,,,,,,pinwheel_06s.jpg,0.0,clockno_default.jpg,6.0,59,,,,,,,,,,,,,,,,,,0.0,32.0,32.0,32.0,1.0,,,,,,,,,,
0.0,1.0,0.717415,,,,,,iron_13s.jpg,0.0,clockno_default.jpg,6.0,59,,,,,,,,,,,,,,,,,,0.0,33.0,33.0,33.0,1.0,,,,,,,,,,
1.0,1.0,0.95202,,,,,,pepper_mill_03s.jpg,1.0,clockno_default.jpg,6.0,59,,,,,,,,,,,,,,,,,,0.0,34.0,34.0,34.0,1.0,,,,,,,,,,
0.0,1.0,0.51457,,,,,,basket_05s.jpg,0.0,clockno_default.jpg,6.0,59,,,,,,,,,,,,,,,,,,0.0,35.0,35.0,35.0,1.0,,,,,,,,,,
,,,,,,,,,1.0,,,59,1.0,1.0,4.79435,,,,,,razor_12s.jpg,gazelle_10s.jpg,,,,,,,,,,,,,0.0,0.0,0.0,0.0,1.0,,,,,
,,,,,,,,,0.0,,,59,0.0,1.0,1.999705,,,,,,mud_13s.jpg,bathtub_23s.jpg,,,,,,,,,,,,,0.0,1.0,1.0,1.0,1.0,,,,,
,,,,,,,,,1.0,,,59,1.0,1.0,2.34071,,,,,,gear_07s.jpg,puck_06s.jpg,,,,,,,,,,,,,0.0,2.0,2.0,2.0,1.0,,,,,
,,,,,,,,,0.0,,,59,0.0,1.0,1.069585,,,,,,hyena_16s.jpg,ram_05s.jpg,,,,,,,,,,,,,0.0,3.0,3.0,3.0,1.0,,,,,
,,,,,,,,,1.0,,,59,0.0,0.0,1.100405,,,,,,toilet_07s.jpg,raccoon_02s.jpg,,,,,,,,,,,,,0.0,4.0,4.0,4.0,1.0,,,,,
,,,,,,,,,0.0,,,59,1.0,0.0,0.80201,,,,,,mixer_12s.jpg,punch2_09s.jpg,,,,,,,,,,,,,0.0,5.0,5.0,5.0,1.0,,,,,
,,,,,,,,,,,,59,,,,,,,,,,,,,,,,clockno_present_5_18.xlsx,clockno_compare_task_5_18.xlsx,,,,,,,,,,,0.0,4.0,4.0,4.0,1.0
0.0,1.0,1.57369,,,,,,spacesuit_02s.jpg,0.0,clock_5_1.png,1.0,59,,,,,,,,,,,,,,,,,,0.0,0.0,0.0,0.0,1.0,,,,,,,,,,
0.0,1.0,0.53104,,,,,,megaphone_03s.jpg,0.0,clock_5_2.png,1.0,59,,,,,,,,,,,,,,,,,,0.0,1.0,1.0,1.0,1.0,,,,,,,,,,
0.0,1.0,1.084555,,,,,,power_line_08s.jpg,0.0,clock_5_3.png,1.0,59,,,,,,,,,,,,,,,,,,0.0,2.0,2.0,2.0,1.0,,,,,,,,,,
0.0,1.0,0.56841,,,,,,insole_11s.jpg,0.0,clock_5_4.png,1.0,59,,,,,,,,,,,,,,,,,,0.0,3.0,3.0,3.0,1.0,,,,,,,,,,
0.0,1.0,0.57238,,,,,,turtle_08s.jpg,0.0,clock_5_5.png,1.0,59,,,,,,,,,,,,,,,,,,0.0,4.0,4.0,4.0,1.0,,,,,,,,,,
0.0,1.0,0.758695,,,,,,checkbook_11s.jpg,0.0,clock_6_1.png,2.0,59,,,,,,,,,,,,,,,,,,0.0,5.0,5.0,5.0,1.0,,,,,,,,,,
0.0,1.0,0.54819,,,,,,sundae_08s.jpg,0.0,clock_6_2.png,2.0,59,,,,,,,,,,,,,,,,,,0.0,6.0,6.0,6.0,1.0,,,,,,,,,,
0.0,1.0,0.612165,,,,,,puppet_01b.jpg,0.0,clock_6_3.png,2.0,59,,,,,,,,,,,,,,,,,,0.0,7.0,7.0,7.0,1.0,,,,,,,,,,
0.0,1.0,0.91847,,,,,,spacesuit_02s.jpg,0.0,clock_6_4.png,2.0,59,,,,,,,,,,,,,,,,,,0.0,8.0,8.0,8.0,1.0,,,,,,,,,,
0.0,1.0,0.700585,,,,,,popsicle_02s.jpg,0.0,clock_6_5.png,2.0,59,,,,,,,,,,,,,,,,,,0.0,9.0,9.0,9.0,1.0,,,,,,,,,,
0.0,1.0,1.26363,,,,,,tinsel_12s.jpg,0.0,clock_6_6.png,2.0,59,,,,,,,,,,,,,,,,,,0.0,10.0,10.0,10.0,1.0,,,,,,,,,,
0.0,1.0,1.47705,,,,,,saddle_06s.jpg,0.0,clock_5_1.png,3.0,59,,,,,,,,,,,,,,,,,,0.0,11.0,11.0,11.0,1.0,,,,,,,,,,
0.0,1.0,0.71329,,,,,,tomato_sauce_09s.jpg,0.0,clock_5_2.png,3.0,59,,,,,,,,,,,,,,,,,,0.0,12.0,12.0,12.0,1.0,,,,,,,,,,
0.0,1.0,0.804655,,,,,,laundry_basket_11s.jpg,0.0,clock_5_3.png,3.0,59,,,,,,,,,,,,,,,,,,0.0,13.0,13.0,13.0,1.0,,,,,,,,,,
0.0,1.0,0.89788,,,,,,knitting_needle_04s.jpg,0.0,clock_5_4.png,3.0,59,,,,,,,,,,,,,,,,,,0.0,14.0,14.0,14.0,1.0,,,,,,,,,,
1.0,1.0,0.91263,,,,,,tomato_sauce_09s.jpg,1.0,clock_5_5.png,3.0,59,,,,,,,,,,,,,,,,,,0.0,15.0,15.0,15.0,1.0,,,,,,,,,,
0.0,1.0,0.844705,,,,,,moth_06n.jpg,0.0,clock_7_1.png,4.0,59,,,,,,,,,,,,,,,,,,0.0,16.0,16.0,16.0,1.0,,,,,,,,,,
1.0,1.0,0.67896,,,,,,moth_06n.jpg,1.0,clock_7_2.png,4.0,59,,,,,,,,,,,,,,,,,,0.0,17.0,17.0,17.0,1.0,,,,,,,,,,
0.0,1.0,0.49293,,,,,,tube_top_03s.jpg,0.0,clock_7_3.png,4.0,59,,,,,,,,,,,,,,,,,,0.0,18.0,18.0,18.0,1.0,,,,,,,,,,
0.0,1.0,0.83512,,,,,,juicer1_08s.jpg,0.0,clock_7_4.png,4.0,59,,,,,,,,,,,,,,,,,,0.0,19.0,19.0,19.0,1.0,,,,,,,,,,
0.0,1.0,0.778045,,,,,,plaster_cast_13s.jpg,0.0,clock_7_5.png,4.0,59,,,,,,,,,,,,,,,,,,0.0,20.0,20.0,20.0,1.0,,,,,,,,,,
0.0,1.0,0.84149,,,,,,knot_01b.jpg,0.0,clock_7_6.png,4.0,59,,,,,,,,,,,,,,,,,,0.0,21.0,21.0,21.0,1.0,,,,,,,,,,
0.0,1.0,0.97707,,,,,,insole_11s.jpg,0.0,clock_7_7.png,4.0,59,,,,,,,,,,,,,,,,,,0.0,22.0,22.0,22.0,1.0,,,,,,,,,,
0.0,1.0,0.659075,,,,,,frog_09s.jpg,0.0,clock_6_1.png,5.0,59,,,,,,,,,,,,,,,,,,0.0,23.0,23.0,23.0,1.0,,,,,,,,,,
1.0,1.0,0.634535,,,,,,frog_09s.jpg,1.0,clock_6_2.png,5.0,59,,,,,,,,,,,,,,,,,,0.0,24.0,24.0,24.0,1.0,,,,,,,,,,
0.0,1.0,0.555715,,,,,,icicle_04s.jpg,0.0,clock_6_3.png,5.0,59,,,,,,,,,,,,,,,,,,0.0,25.0,25.0,25.0,1.0,,,,,,,,,,
0.0,1.0,0.66041,,,,,,trumpet_06s.jpg,0.0,clock_6_4.png,5.0,59,,,,,,,,,,,,,,,,,,0.0,26.0,26.0,26.0,1.0,,,,,,,,,,
0.0,1.0,0.624355,,,,,,touchpad_11s.jpg,0.0,clock_6_5.png,5.0,59,,,,,,,,,,,,,,,,,,0.0,27.0,27.0,27.0,1.0,,,,,,,,,,
0.0,0.0,1.73688,,,,,,trumpet_06s.jpg,1.0,clock_6_6.png,5.0,59,,,,,,,,,,,,,,,,,,0.0,28.0,28.0,28.0,1.0,,,,,,,,,,
0.0,1.0,0.60945,,,,,,lamb_chop_07s.jpg,0.0,clock_7_1.png,6.0,59,,,,,,,,,,,,,,,,,,0.0,29.0,29.0,29.0,1.0,,,,,,,,,,
0.0,1.0,0.464395,,,,,,rocket_02s.jpg,0.0,clock_7_2.png,6.0,59,,,,,,,,,,,,,,,,,,0.0,30.0,30.0,30.0,1.0,,,,,,,,,,
0.0,1.0,0.517695,,,,,,candy_cane_06s.jpg,0.0,clock_7_3.png,6.0,59,,,,,,,,,,,,,,,,,,0.0,31.0,31.0,31.0,1.0,,,,,,,,,,
0.0,1.0,0.5112,,,,,,coffee_filter_10s.jpg,0.0,clock_7_4.png,6.0,59,,,,,,,,,,,,,,,,,,0.0,32.0,32.0,32.0,1.0,,,,,,,,,,
1.0,1.0,2.314765,,,,,,candy_cane_06s.jpg,1.0,clock_7_5.png,6.0,59,,,,,,,,,,,,,,,,,,0.0,33.0,33.0,33.0,1.0,,,,,,,,,,
1.0,1.0,0.633035,,,,,,candy_cane_06s.jpg,1.0,clock_7_6.png,6.0,59,,,,,,,,,,,,,,,,,,0.0,34.0,34.0,34.0,1.0,,,,,,,,,,
0.0,1.0,0.94247,,,,,,emerald_02s.jpg,0.0,clock_7_7.png,6.0,59,,,,,,,,,,,,,,,,,,0.0,35.0,35.0,35.0,1.0,,,,,,,,,,
,,,,,,,,,1.0,,,59,0.0,0.0,1.6999,,,,,,power_line_08s.jpg,checkbook_11s.jpg,,,,,,,,,,,,,0.0,0.0,0.0,0.0,1.0,,,,,
,,,,,,,,,1.0,,,59,1.0,1.0,1.08315,,,,,,touchpad_11s.jpg,rocket_02s.jpg,,,,,,,,,,,,,0.0,1.0,1.0,1.0,1.0,,,,,
,,,,,,,,,0.0,,,59,0.0,1.0,0.950105,,,,,,laundry_basket_11s.jpg,tinsel_12s.jpg,,,,,,,,,,,,,0.0,2.0,2.0,2.0,1.0,,,,,
,,,,,,,,,1.0,,,59,0.0,0.0,0.938245,,,,,,sundae_08s.jpg,popsicle_02s.jpg,,,,,,,,,,,,,0.0,3.0,3.0,3.0,1.0,,,,,
,,,,,,,,,0.0,,,59,1.0,0.0,0.66092,,,,,,knitting_needle_04s.jpg,saddle_06s.jpg,,,,,,,,,,,,,0.0,4.0,4.0,4.0,1.0,,,,,
,,,,,,,,,1.0,,,59,0.0,0.0,0.332235,,,,,,tube_top_03s.jpg,knot_01b.jpg,,,,,,,,,,,,,0.0,5.0,5.0,5.0,1.0,,,,,
