key_resp.keys,key_resp.corr,key_resp.rt,present_segment.thisRepN,present_segment.thisTrialN,present_segment.thisN,present_segment.thisIndex,present_segment.ran,pictures,answer,clock,segment,participant,key_resp_2.keys,key_resp_2.corr,key_resp_2.rt,compare_segment.thisRepN,compare_segment.thisTrialN,compare_segment.thisN,compare_segment.thisIndex,compare_segment.ran,item_a,item_b,clock_conditions.thisRepN,clock_conditions.thisTrialN,clock_conditions.thisN,clock_conditions.thisIndex,clock_conditions.ran,present,compare,noclock_present.thisRepN,noclock_present.thisTrialN,noclock_present.thisN,noclock_present.thisIndex,noclock_present.ran,noclock_compare.thisRepN,noclock_compare.thisTrialN,noclock_compare.thisN,noclock_compare.thisIndex,noclock_compare.ran,noclock_conditions.thisRepN,noclock_conditions.thisTrialN,noclock_conditions.thisN,noclock_conditions.thisIndex,noclock_conditions.ran
0.0,1.0,0.981405,0.0,0.0,0.0,0.0,1.0,compass_10n.jpg,0.0,clock_5_1.png,1.0,72,,,,,,,,,,,,,,,,,,,,,,,,,,,,,,,,
0.0,1.0,0.850425,0.0,1.0,1.0,1.0,1.0,rollerskate_03s.jpg,0.0,clock_5_2.png,1.0,72,,,,,,,,,,,,,,,,,,,,,,,,,,,,,,,,
1.0,1.0,0.722445,0.0,2.0,2.0,2.0,1.0,rollerskate_03s.jpg,1.0,clock_5_3.png,1.0,72,,,,,,,,,,,,,,,,,,,,,,,,,,,,,,,,
0.0,1.0,0.830925,0.0,3.0,3.0,3.0,1.0,toy_04s.jpg,0.0,clock_5_4.png,1.0,72,,,,,,,,,,,,,,,,,,,,,,,,,,,,,,,,
0.0,1.0,1.660645,0.0,4.0,4.0,4.0,1.0,bowler_hat_10s.jpg,0.0,clock_5_5.png,1.0,72,,,,,,,,,,,,,,,,,,,,,,,,,,,,,,,,
0.0,1.0,1.65412,0.0,5.0,5.0,5.0,1.0,pan_02s.jpg,0.0,clock_6_1.png,2.0,72,,,,,,,,,,,,,,,,,,,,,,,,,,,,,,,,
0.0,1.0,0.671985,0.0,6.0,6.0,6.0,1.0,camcorder_10s.jpg,0.0,clock_6_2.png,2.0,72,,,,,,,,,,,,,,,,,,,,,,,,,,,,,,,,
0.0,1.0,0.81657,0.0,7.0,7.0,7.0,1.0,turtleneck_11s.jpg,0.0,clock_6_3.png,2.0,72,,,,,,,,,,,,,,,,,,,,,,,,,,,,,,,,
0.0,1.0,0.762655,0.0,8.0,8.0,8.0,1.0,pineapple_12s.jpg,0.0,clock_6_4.png,2.0,72,,,,,,,,,,,,,,,,,,,,,,,,,,,,,,,,
0.0,1.0,0.932975,0.0,9.0,9.0,9.0,1.0,stingray_02s.jpg,0.0,clock_6_5.png,2.0,72,,,,,,,,,,,,,,,,,,,,,,,,,,,,,,,,
0.0,1.0,0.68226,0.0,10.0,10.0,10.0,1.0,polar_bear_02s.jpg,0.0,clock_6_6.png,2.0,72,,,,,,,,,,,,,,,,,,,,,,,,,,,,,,,,
0.0,1.0,1.287755,0.0,11.0,11.0,11.0,1.0,jukebox_03n.jpg,0.0,clock_5_1.png,3.0,72,,,,,,,,,,,,,,,,,,,,,,,,,,,,,,,,
0.0,1.0,0.89889,0.0,12.0,12.0,12.0,1.0,tweezers_03s.jpg,0.0,clock_5_2.png,3.0,72,,,,,,,,,,,,,,,,,,,,,,,,,,,,,,,,
0.0,1.0,0.798525,0.0,13.0,13.0,13.0,1.0,clover_04s.jpg,0.0,clock_5_3.png,3.0,72,,,,,,,,,,,,,,,,,,,,,,,,,,,,,,,,
0.0,1.0,0.67923,0.0,14.0,14.0,14.0,1.0,tinsel_12s.jpg,0.0,clock_5_4.png,3.0,72,,,,,,,,,,,,,,,,,,,,,,,,,,,,,,,,
0.0,1.0,0.70477,0.0,15.0,15.0,15.0,1.0,rocking_horse_03s.jpg,0.0,clock_5_5.png,3.0,72,,,,,,,,,,,,,,,,,,,,,,,,,,,,,,,,
0.0,1.0,0.71063,0.0,16.0,16.0,16.0,1.0,hyena_16s.jpg,0.0,clock_7_1.png,4.0,72,,,,,,,,,,,,,,,,,,,,,,,,,,,,,,,,
0.0,1.0,0.899385,0.0,17.0,17.0,17.0,1.0,pear_02s.jpg,0.0,clock_7_2.png,4.0,72,,,,,,,,,,,,,,,,,,,,,,,,,,,,,,,,
0.0,1.0,1.37126,0.0,18.0,18.0,18.0,1.0,ink_08s.jpg,0.0,clock_7_3.png,4.0,72,,,,,,,,,,,,,,,,,,,,,,,,,,,,,,,,
0.0,1.0,0.700675,0.0,19.0,19.0,19.0,1.0,inhaler_01b.jpg,0.0,clock_7_4.png,4.0,72,,,,,,,,,,,,,,,,,,,,,,,,,,,,,,,,
0.0,1.0,0.844055,0.0,20.0,20.0,20.0,1.0,clover_04s.jpg,0.0,clock_7_5.png,4.0,72,,,,,,,,,,,,,,,,,,,,,,,,,,,,,,,,
1.0,1.0,0.921205,0.0,21.0,21.0,21.0,1.0,ink_08s.jpg,1.0,clock_7_6.png,4.0,72,,,,,,,,,,,,,,,,,,,,,,,,,,,,,,,,
0.0,1.0,0.727245,0.0,22.0,22.0,22.0,1.0,throne_11s.jpg,0.0,clock_7_7.png,4.0,72,,,,,,,,,,,,,,,,,,,,,,,,,,,,,,,,
0.0,1.0,1.01799,0.0,23.0,23.0,23.0,1.0,medal_04s.jpg,0.0,clock_6_1.png,5.0,72,,,,,,,,,,,,,,,,,,,,,,,,,,,,,,,,
0.0,1.0,0.943825,0.0,24.0,24.0,24.0,1.0,inhaler_01b.jpg,0.0,clock_6_2.png,5.0,72,,,,,,,,,,,,,,,,,,,,,,,,,,,,,,,,
0.0,1.0,1.41484,0.0,25.0,25.0,25.0,1.0,luggage_08s.jpg,0.0,clock_6_3.png,5.0,72,,,,,,,,,,,,,,,,,,,,,,,,,,,,,,,,
1.0,1.0,0.763705,0.0,26.0,26.0,26.0,1.0,medal_04s.jpg,1.0,clock_6_4.png,5.0,72,,,,,,,,,,,,,,,,,,,,,,,,,,,,,,,,
1.0,1.0,1.60648,0.0,27.0,27.0,27.0,1.0,luggage_08s.jpg,1.0,clock_6_5.png,5.0,72,,,,,,,,,,,,,,,,,,,,,,,,,,,,,,,,
0.0,1.0,1.49889,0.0,28.0,28.0,28.0,1.0,eyedropper_12s.jpg,0.0,clock_6_6.png,5.0,72,,,,,,,,,,,,,,,,,,,,,,,,,,,,,,,,
0.0,1.0,1.4417,0.0,29.0,29.0,29.0,1.0,fire_pit_10s.jpg,0.0,clock_7_1.png,6.0,72,,,,,,,,,,,,,,,,,,,,,,,,,,,,,,,,
0.0,1.0,0.824995,0.0,30.0,30.0,30.0,1.0,camcorder_10s.jpg,0.0,clock_7_2.png,6.0,72,,,,,,,,,,,,,,,,,,,,,,,,,,,,,,,,
0.0,1.0,0.69221,0.0,31.0,31.0,31.0,1.0,mixer_12s.jpg,0.0,clock_7_3.png,6.0,72,,,,,,,,,,,,,,,,,,,,,,,,,,,,,,,,
0.0,1.0,0.692805,0.0,32.0,32.0,32.0,1.0,lipstick_02s.jpg,0.0,clock_7_4.png,6.0,72,,,,,,,,,,,,,,,,,,,,,,,,,,,,,,,,
0.0,1.0,1.058545,0.0,33.0,33.0,33.0,1.0,lifesaver_10s.jpg,0.0,clock_7_5.png,6.0,72,,,,,,,,,,,,,,,,,,,,,,,,,,,,,,,,
1.0,1.0,0.75966,0.0,34.0,34.0,34.0,1.0,lipstick_02s.jpg,1.0,clock_7_6.png,6.0,72,,,,,,,,,,,,,,,,,,,,,,,,,,,,,,,,
0.0,1.0,0.703215,0.0,35.0,35.0,35.0,1.0,polaroid_05s.jpg,0.0,clock_7_7.png,6.0,72,,,,,,,,,,,,,,,,,,,,,,,,,,,,,,,,
,,,,,,,,,1.0,,,72,0.0,0.0,2.13336,0.0,0.0,0.0,0.0,1.0,eyedropper_12s.jpg,mixer_12s.jpg,,,,,,,,,,,,,,,,,,,,,,
,,,,,,,,,0.0,,,72,0.0,1.0,2.791855,0.0,1.0,1.0,1.0,1.0,turtleneck_11s.jpg,bowler_hat_10s.jpg,,,,,,,,,,,,,,,,,,,,,,
,,,,,,,,,0.0,,,72,1.0,0.0,1.5322,0.0,2.0,2.0,2.0,1.0,tweezers_03s.jpg,stingray_02s.jpg,,,,,,,,,,,,,,,,,,,,,,
,,,,,,,,,1.0,,,72,1.0,1.0,1.639165,0.0,3.0,3.0,3.0,1.0,compass_10n.jpg,toy_04s.jpg,,,,,,,,,,,,,,,,,,,,,,
,,,,,,,,,0.0,,,72,1.0,0.0,2.50438,0.0,4.0,4.0,4.0,1.0,pineapple_12s.jpg,pan_02s.jpg,,,,,,,,,,,,,,,,,,,,,,
,,,,,,,,,1.0,,,72,0.0,0.0,2.73039,0.0,5.0,5.0,5.0,1.0,jukebox_03n.jpg,tinsel_12s.jpg,,,,,,,,,,,,,,,,,,,,,,
,,,,,,,,,,,,72,,,,,,,,,,,0.0,0.0,0.0,0.0,1.0,clock_present_1_6.xlsx,clock_compare_task_1_6.xlsx,,,,,,,,,,,,,,,
0.0,1.0,1.173825,0.0,0.0,0.0,0.0,1.0,olive_05s.jpg,0.0,clock_5_1.png,1.0,72,,,,,,,,,,,,,,,,,,,,,,,,,,,,,,,,
0.0,1.0,0.969325,0.0,1.0,1.0,1.0,1.0,lip_gloss_06s.jpg,0.0,clock_5_2.png,1.0,72,,,,,,,,,,,,,,,,,,,,,,,,,,,,,,,,
1.0,1.0,0.77344,0.0,2.0,2.0,2.0,1.0,lip_gloss_06s.jpg,1.0,clock_5_3.png,1.0,72,,,,,,,,,,,,,,,,,,,,,,,,,,,,,,,,
0.0,1.0,0.70341,0.0,3.0,3.0,3.0,1.0,crab_16s.jpg,0.0,clock_5_4.png,1.0,72,,,,,,,,,,,,,,,,,,,,,,,,,,,,,,,,
0.0,1.0,0.98319,0.0,4.0,4.0,4.0,1.0,omelet_07s.jpg,0.0,clock_5_5.png,1.0,72,,,,,,,,,,,,,,,,,,,,,,,,,,,,,,,,
0.0,1.0,1.04414,0.0,5.0,5.0,5.0,1.0,briefcase_03s.jpg,0.0,clock_6_1.png,2.0,72,,,,,,,,,,,,,,,,,,,,,,,,,,,,,,,,
0.0,1.0,0.786525,0.0,6.0,6.0,6.0,1.0,stopwatch_04s.jpg,0.0,clock_6_2.png,2.0,72,,,,,,,,,,,,,,,,,,,,,,,,,,,,,,,,
0.0,1.0,0.83556,0.0,7.0,7.0,7.0,1.0,insole_11s.jpg,0.0,clock_6_3.png,2.0,72,,,,,,,,,,,,,,,,,,,,,,,,,,,,,,,,
1.0,1.0,0.74564,0.0,8.0,8.0,8.0,1.0,briefcase_03s.jpg,1.0,clock_6_4.png,2.0,72,,,,,,,,,,,,,,,,,,,,,,,,,,,,,,,,
0.0,1.0,0.860615,0.0,9.0,9.0,9.0,1.0,beard_16s.jpg,0.0,clock_6_5.png,2.0,72,,,,,,,,,,,,,,,,,,,,,,,,,,,,,,,,
0.0,1.0,0.853285,0.0,10.0,10.0,10.0,1.0,thorn_13s.jpg,0.0,clock_6_6.png,2.0,72,,,,,,,,,,,,,,,,,,,,,,,,,,,,,,,,
0.0,1.0,0.95679,0.0,11.0,11.0,11.0,1.0,ostrich_06s.jpg,0.0,clock_6_1.png,3.0,72,,,,,,,,,,,,,,,,,,,,,,,,,,,,,,,,
0.0,1.0,0.72044,0.0,12.0,12.0,12.0,1.0,razor_12s.jpg,0.0,clock_6_2.png,3.0,72,,,,,,,,,,,,,,,,,,,,,,,,,,,,,,,,
0.0,1.0,1.015865,0.0,13.0,13.0,13.0,1.0,onion_10s.jpg,0.0,clock_6_3.png,3.0,72,,,,,,,,,,,,,,,,,,,,,,,,,,,,,,,,
0.0,1.0,0.891635,0.0,14.0,14.0,14.0,1.0,olive_05s.jpg,0.0,clock_6_4.png,3.0,72,,,,,,,,,,,,,,,,,,,,,,,,,,,,,,,,
0.0,1.0,0.79054,0.0,15.0,15.0,15.0,1.0,pump_11s.jpg,0.0,clock_6_5.png,3.0,72,,,,,,,,,,,,,,,,,,,,,,,,,,,,,,,,
0.0,1.0,0.6661,0.0,16.0,16.0,16.0,1.0,perfume_06s.jpg,0.0,clock_6_6.png,3.0,72,,,,,,,,,,,,,,,,,,,,,,,,,,,,,,,,
0.0,1.0,1.08146,0.0,17.0,17.0,17.0,1.0,gas_mask_11s.jpg,0.0,clock_7_1.png,4.0,72,,,,,,,,,,,,,,,,,,,,,,,,,,,,,,,,
0.0,1.0,0.84292,0.0,18.0,18.0,18.0,1.0,powder_07s.jpg,0.0,clock_7_2.png,4.0,72,,,,,,,,,,,,,,,,,,,,,,,,,,,,,,,,
0.0,1.0,0.648075,0.0,19.0,19.0,19.0,1.0,quad_04s.jpg,0.0,clock_7_3.png,4.0,72,,,,,,,,,,,,,,,,,,,,,,,,,,,,,,,,
0.0,1.0,0.67522,0.0,20.0,20.0,20.0,1.0,chalice_10s.jpg,0.0,clock_7_4.png,4.0,72,,,,,,,,,,,,,,,,,,,,,,,,,,,,,,,,
1.0,1.0,0.73185,0.0,21.0,21.0,21.0,1.0,chalice_10s.jpg,1.0,clock_7_5.png,4.0,72,,,,,,,,,,,,,,,,,,,,,,,,,,,,,,,,
0.0,1.0,0.785715,0.0,22.0,22.0,22.0,1.0,pencil02a.jpg,0.0,clock_7_6.png,4.0,72,,,,,,,,,,,,,,,,,,,,,,,,,,,,,,,,
1.0,1.0,0.704235,0.0,23.0,23.0,23.0,1.0,quad_04s.jpg,1.0,clock_7_7.png,4.0,72,,,,,,,,,,,,,,,,,,,,,,,,,,,,,,,,
0.0,1.0,0.89594,0.0,24.0,24.0,24.0,1.0,outlet_10s.jpg,0.0,clock_5_1.png,5.0,72,,,,,,,,,,,,,,,,,,,,,,,,,,,,,,,,
0.0,1.0,0.848805,0.0,25.0,25.0,25.0,1.0,pie_08s.jpg,0.0,clock_5_2.png,5.0,72,,,,,,,,,,,,,,,,,,,,,,,,,,,,,,,,
0.0,1.0,0.76513,0.0,26.0,26.0,26.0,1.0,coat_rack_01b.jpg,0.0,clock_5_3.png,5.0,72,,,,,,,,,,,,,,,,,,,,,,,,,,,,,,,,
1.0,1.0,0.638865,0.0,27.0,27.0,27.0,1.0,pie_08s.jpg,1.0,clock_5_4.png,5.0,72,,,,,,,,,,,,,,,,,,,,,,,,,,,,,,,,
0.0,1.0,0.71179,0.0,28.0,28.0,28.0,1.0,basket_05s.jpg,0.0,clock_5_5.png,5.0,72,,,,,,,,,,,,,,,,,,,,,,,,,,,,,,,,
0.0,1.0,0.610575,0.0,29.0,29.0,29.0,1.0,totem_pole_05s.jpg,0.0,clock_7_1.png,6.0,72,,,,,,,,,,,,,,,,,,,,,,,,,,,,,,,,
0.0,1.0,0.96303,0.0,30.0,30.0,30.0,1.0,latch_15s.jpg,0.0,clock_7_2.png,6.0,72,,,,,,,,,,,,,,,,,,,,,,,,,,,,,,,,
0.0,1.0,0.820265,0.0,31.0,31.0,31.0,1.0,sundae_08s.jpg,0.0,clock_7_3.png,6.0,72,,,,,,,,,,,,,,,,,,,,,,,,,,,,,,,,
0.0,1.0,0.794255,0.0,32.0,32.0,32.0,1.0,basket_05s.jpg,0.0,clock_7_4.png,6.0,72,,,,,,,,,,,,,,,,,,,,,,,,,,,,,,,,
0.0,1.0,0.703385,0.0,33.0,33.0,33.0,1.0,rope_16s.jpg,0.0,clock_7_5.png,6.0,72,,,,,,,,,,,,,,,,,,,,,,,,,,,,,,,,
0.0,1.0,0.732715,0.0,34.0,34.0,34.0,1.0,microwave_02s.jpg,0.0,clock_7_6.png,6.0,72,,,,,,,,,,,,,,,,,,,,,,,,,,,,,,,,
1.0,1.0,0.629655,0.0,35.0,35.0,35.0,1.0,rope_16s.jpg,1.0,clock_7_7.png,6.0,72,,,,,,,,,,,,,,,,,,,,,,,,,,,,,,,,
,,,,,,,,,1.0,,,72,1.0,1.0,1.44292,0.0,0.0,0.0,0.0,1.0,coat_rack_01b.jpg,totem_pole_05s.jpg,,,,,,,,,,,,,,,,,,,,,,
,,,,,,,,,0.0,,,72,0.0,1.0,2.50402,0.0,1.0,1.0,1.0,1.0,stopwatch_04s.jpg,crab_16s.jpg,,,,,,,,,,,,,,,,,,,,,,
,,,,,,,,,1.0,,,72,0.0,0.0,1.732245,0.0,2.0,2.0,2.0,1.0,omelet_07s.jpg,insole_11s.jpg,,,,,,,,,,,,,,,,,,,,,,
,,,,,,,,,0.0,,,72,0.0,1.0,2.22277,0.0,3.0,3.0,3.0,1.0,microwave_02s.jpg,sundae_08s.jpg,,,,,,,,,,,,,,,,,,,,,,
,,,,,,,,,0.0,,,72,0.0,1.0,1.514595,0.0,4.0,4.0,4.0,1.0,perfume_06s.jpg,onion_10s.jpg,,,,,,,,,,,,,,,,,,,,,,
,,,,,,,,,1.0,,,72,0.0,0.0,1.746835,0.0,5.0,5.0,5.0,1.0,razor_12s.jpg,pump_11s.jpg,,,,,,,,,,,,,,,,,,,,,,
,,,,,,,,,,,,72,,,,,,,,,,,0.0,1.0,1.0,1.0,1.0,clock_present_2_6.xlsx,clock_compare_task_2_6.xlsx,,,,,,,,,,,,,,,
0.0,1.0,1.10539,0.0,0.0,0.0,0.0,1.0,amber_04s.jpg,0.0,clock_7_1.png,1.0,72,,,,,,,,,,,,,,,,,,,,,,,,,,,,,,,,
0.0,1.0,0.58135,0.0,1.0,1.0,1.0,1.0,mascara_03s.jpg,0.0,clock_7_2.png,1.0,72,,,,,,,,,,,,,,,,,,,,,,,,,,,,,,,,
1.0,1.0,0.64588,0.0,2.0,2.0,2.0,1.0,mascara_03s.jpg,1.0,clock_7_3.png,1.0,72,,,,,,,,,,,,,,,,,,,,,,,,,,,,,,,,
0.0,1.0,0.93857,0.0,3.0,3.0,3.0,1.0,printer_09s.jpg,0.0,clock_7_4.png,1.0,72,,,,,,,,,,,,,,,,,,,,,,,,,,,,,,,,
0.0,1.0,0.60208,0.0,4.0,4.0,4.0,1.0,smokingpipe.jpg,0.0,clock_7_5.png,1.0,72,,,,,,,,,,,,,,,,,,,,,,,,,,,,,,,,
0.0,1.0,0.584795,0.0,5.0,5.0,5.0,1.0,trampoline_13s.jpg,0.0,clock_7_6.png,1.0,72,,,,,,,,,,,,,,,,,,,,,,,,,,,,,,,,
1.0,1.0,0.71503,0.0,6.0,6.0,6.0,1.0,printer_09s.jpg,1.0,clock_7_7.png,1.0,72,,,,,,,,,,,,,,,,,,,,,,,,,,,,,,,,
0.0,1.0,0.85744,0.0,7.0,7.0,7.0,1.0,stump_02s.jpg,0.0,clock_6_1.png,2.0,72,,,,,,,,,,,,,,,,,,,,,,,,,,,,,,,,
0.0,1.0,1.03031,0.0,8.0,8.0,8.0,1.0,pumpkin_03s.jpg,0.0,clock_6_2.png,2.0,72,,,,,,,,,,,,,,,,,,,,,,,,,,,,,,,,
0.0,1.0,0.69343,0.0,9.0,9.0,9.0,1.0,syringe_02s.jpg,0.0,clock_6_3.png,2.0,72,,,,,,,,,,,,,,,,,,,,,,,,,,,,,,,,
0.0,1.0,1.356645,0.0,10.0,10.0,10.0,1.0,lid_10s.jpg,0.0,clock_6_4.png,2.0,72,,,,,,,,,,,,,,,,,,,,,,,,,,,,,,,,
0.0,1.0,0.69784,0.0,11.0,11.0,11.0,1.0,muffin_12n.jpg,0.0,clock_6_5.png,2.0,72,,,,,,,,,,,,,,,,,,,,,,,,,,,,,,,,
1.0,1.0,1.03947,0.0,12.0,12.0,12.0,1.0,syringe_02s.jpg,1.0,clock_6_6.png,2.0,72,,,,,,,,,,,,,,,,,,,,,,,,,,,,,,,,
0.0,1.0,0.803175,0.0,13.0,13.0,13.0,1.0,frog_09s.jpg,0.0,clock_5_1.png,3.0,72,,,,,,,,,,,,,,,,,,,,,,,,,,,,,,,,
0.0,1.0,1.14798,0.0,14.0,14.0,14.0,1.0,sunglasses_11s.jpg,0.0,clock_5_2.png,3.0,72,,,,,,,,,,,,,,,,,,,,,,,,,,,,,,,,
1.0,0.0,0.937675,0.0,15.0,15.0,15.0,1.0,printer_09s.jpg,0.0,clock_5_3.png,3.0,72,,,,,,,,,,,,,,,,,,,,,,,,,,,,,,,,
1.0,1.0,0.76422,0.0,16.0,16.0,16.0,1.0,frog_09s.jpg,1.0,clock_5_4.png,3.0,72,,,,,,,,,,,,,,,,,,,,,,,,,,,,,,,,
0.0,1.0,0.723,0.0,17.0,17.0,17.0,1.0,jigsaw_puzzle_11s.jpg,0.0,clock_5_5.png,3.0,72,,,,,,,,,,,,,,,,,,,,,,,,,,,,,,,,
0.0,1.0,0.67371,0.0,18.0,18.0,18.0,1.0,gong_02s.jpg,0.0,clock_7_1.png,4.0,72,,,,,,,,,,,,,,,,,,,,,,,,,,,,,,,,
1.0,1.0,0.56346,0.0,19.0,19.0,19.0,1.0,gong_02s.jpg,1.0,clock_7_2.png,4.0,72,,,,,,,,,,,,,,,,,,,,,,,,,,,,,,,,
0.0,1.0,0.753655,0.0,20.0,20.0,20.0,1.0,chip_04s.jpg,0.0,clock_7_3.png,4.0,72,,,,,,,,,,,,,,,,,,,,,,,,,,,,,,,,
0.0,1.0,0.955815,0.0,21.0,21.0,21.0,1.0,tripod_01b.jpg,0.0,clock_7_4.png,4.0,72,,,,,,,,,,,,,,,,,,,,,,,,,,,,,,,,
0.0,1.0,0.73973,0.0,22.0,22.0,22.0,1.0,pepper_mill_03s.jpg,0.0,clock_7_5.png,4.0,72,,,,,,,,,,,,,,,,,,,,,,,,,,,,,,,,
1.0,1.0,0.615195,0.0,23.0,23.0,23.0,1.0,gong_02s.jpg,1.0,clock_7_6.png,4.0,72,,,,,,,,,,,,,,,,,,,,,,,,,,,,,,,,
0.0,1.0,0.88418,0.0,24.0,24.0,24.0,1.0,pomegranate_04s.jpg,0.0,clock_7_7.png,4.0,72,,,,,,,,,,,,,,,,,,,,,,,,,,,,,,,,
0.0,1.0,0.567015,0.0,25.0,25.0,25.0,1.0,funnel_01b.jpg,0.0,clock_5_1.png,5.0,72,,,,,,,,,,,,,,,,,,,,,,,,,,,,,,,,
0.0,1.0,0.7715,0.0,26.0,26.0,26.0,1.0,air_pump_05s.jpg,0.0,clock_5_2.png,5.0,72,,,,,,,,,,,,,,,,,,,,,,,,,,,,,,,,
1.0,1.0,0.922935,0.0,27.0,27.0,27.0,1.0,funnel_01b.jpg,1.0,clock_5_3.png,5.0,72,,,,,,,,,,,,,,,,,,,,,,,,,,,,,,,,
1.0,1.0,0.724805,0.0,28.0,28.0,28.0,1.0,funnel_01b.jpg,1.0,clock_5_4.png,5.0,72,,,,,,,,,,,,,,,,,,,,,,,,,,,,,,,,
0.0,1.0,1.01864,0.0,29.0,29.0,29.0,1.0,fork_04s.jpg,0.0,clock_5_5.png,5.0,72,,,,,,,,,,,,,,,,,,,,,,,,,,,,,,,,
0.0,1.0,1.04432,0.0,30.0,30.0,30.0,1.0,cape_11s.jpg,0.0,clock_6_1.png,6.0,72,,,,,,,,,,,,,,,,,,,,,,,,,,,,,,,,
0.0,1.0,0.70771,0.0,31.0,31.0,31.0,1.0,machine_gun_09s.jpg,0.0,clock_6_2.png,6.0,72,,,,,,,,,,,,,,,,,,,,,,,,,,,,,,,,
0.0,1.0,0.67362,0.0,32.0,32.0,32.0,1.0,timer_03s.jpg,0.0,clock_6_3.png,6.0,72,,,,,,,,,,,,,,,,,,,,,,,,,,,,,,,,
0.0,1.0,0.72914,0.0,33.0,33.0,33.0,1.0,spoon02a.jpg,0.0,clock_6_4.png,6.0,72,,,,,,,,,,,,,,,,,,,,,,,,,,,,,,,,
0.0,1.0,1.062975,0.0,34.0,34.0,34.0,1.0,lid_10s.jpg,0.0,clock_6_5.png,6.0,72,,,,,,,,,,,,,,,,,,,,,,,,,,,,,,,,
0.0,1.0,1.02049,0.0,35.0,35.0,35.0,1.0,reindeer_08s.jpg,0.0,clock_6_6.png,6.0,72,,,,,,,,,,,,,,,,,,,,,,,,,,,,,,,,
,,,,,,,,,1.0,,,72,0.0,0.0,1.258,0.0,0.0,0.0,0.0,1.0,smokingpipe.jpg,stump_02s.jpg,,,,,,,,,,,,,,,,,,,,,,
,,,,,,,,,0.0,,,72,1.0,0.0,1.313,0.0,1.0,1.0,1.0,1.0,pumpkin_03s.jpg,trampoline_13s.jpg,,,,,,,,,,,,,,,,,,,,,,
,,,,,,,,,1.0,,,72,0.0,0.0,3.145,0.0,2.0,2.0,2.0,1.0,jigsaw_puzzle_11s.jpg,chip_04s.jpg,,,,,,,,,,,,,,,,,,,,,,
,,,,,,,,,1.0,,,72,1.0,1.0,1.830295,0.0,3.0,3.0,3.0,1.0,tripod_01b.jpg,pomegranate_04s.jpg,,,,,,,,,,,,,,,,,,,,,,
,,,,,,,,,1.0,,,72,0.0,0.0,2.356675,0.0,4.0,4.0,4.0,1.0,cape_11s.jpg,spoon02a.jpg,,,,,,,,,,,,,,,,,,,,,,
,,,,,,,,,0.0,,,72,1.0,0.0,2.18873,0.0,5.0,5.0,5.0,1.0,fork_04s.jpg,air_pump_05s.jpg,,,,,,,,,,,,,,,,,,,,,,
,,,,,,,,,,,,72,,,,,,,,,,,0.0,2.0,2.0,2.0,1.0,clock_present_3_6.xlsx,clock_compare_task_3_6.xlsx,,,,,,,,,,,,,,,
0.0,1.0,1.70064,0.0,0.0,0.0,0.0,1.0,radiator_05s.jpg,0.0,clock_6_1.png,1.0,72,,,,,,,,,,,,,,,,,,,,,,,,,,,,,,,,
1.0,1.0,0.63329,0.0,1.0,1.0,1.0,1.0,radiator_05s.jpg,1.0,clock_6_2.png,1.0,72,,,,,,,,,,,,,,,,,,,,,,,,,,,,,,,,
0.0,1.0,0.678385,0.0,2.0,2.0,2.0,1.0,kilt_18s.jpg,0.0,clock_6_3.png,1.0,72,,,,,,,,,,,,,,,,,,,,,,,,,,,,,,,,
0.0,1.0,0.62618,0.0,3.0,3.0,3.0,1.0,lavender_10s.jpg,0.0,clock_6_4.png,1.0,72,,,,,,,,,,,,,,,,,,,,,,,,,,,,,,,,
1.0,1.0,0.60888,0.0,4.0,4.0,4.0,1.0,kilt_18s.jpg,1.0,clock_6_5.png,1.0,72,,,,,,,,,,,,,,,,,,,,,,,,,,,,,,,,
0.0,1.0,0.78022,0.0,5.0,5.0,5.0,1.0,undershirt_02s.jpg,0.0,clock_6_6.png,1.0,72,,,,,,,,,,,,,,,,,,,,,,,,,,,,,,,,
0.0,1.0,0.824655,0.0,6.0,6.0,6.0,1.0,coconut_08s.jpg,0.0,clock_7_1.png,2.0,72,,,,,,,,,,,,,,,,,,,,,,,,,,,,,,,,
0.0,1.0,0.65108,0.0,7.0,7.0,7.0,1.0,refrigerator_07s.jpg,0.0,clock_7_2.png,2.0,72,,,,,,,,,,,,,,,,,,,,,,,,,,,,,,,,
0.0,1.0,0.62209,0.0,8.0,8.0,8.0,1.0,feather02.jpg,0.0,clock_7_3.png,2.0,72,,,,,,,,,,,,,,,,,,,,,,,,,,,,,,,,
0.0,1.0,0.59264,0.0,9.0,9.0,9.0,1.0,ivy_12s.jpg,0.0,clock_7_4.png,2.0,72,,,,,,,,,,,,,,,,,,,,,,,,,,,,,,,,
0.0,1.0,0.59329,0.0,10.0,10.0,10.0,1.0,tab_09s.jpg,0.0,clock_7_5.png,2.0,72,,,,,,,,,,,,,,,,,,,,,,,,,,,,,,,,
0.0,1.0,0.633895,0.0,11.0,11.0,11.0,1.0,fossil_06s.jpg,0.0,clock_7_6.png,2.0,72,,,,,,,,,,,,,,,,,,,,,,,,,,,,,,,,
0.0,1.0,0.62522,0.0,12.0,12.0,12.0,1.0,puppy_08s.jpg,0.0,clock_7_7.png,2.0,72,,,,,,,,,,,,,,,,,,,,,,,,,,,,,,,,
0.0,1.0,0.801625,0.0,13.0,13.0,13.0,1.0,flip_flop_03s.jpg,0.0,clock_7_1.png,3.0,72,,,,,,,,,,,,,,,,,,,,,,,,,,,,,,,,
0.0,1.0,1.24996,0.0,14.0,14.0,14.0,1.0,slingshot_07s.jpg,0.0,clock_7_2.png,3.0,72,,,,,,,,,,,,,,,,,,,,,,,,,,,,,,,,
1.0,1.0,0.829305,0.0,15.0,15.0,15.0,1.0,flip_flop_03s.jpg,1.0,clock_7_3.png,3.0,72,,,,,,,,,,,,,,,,,,,,,,,,,,,,,,,,
0.0,1.0,0.7917,0.0,16.0,16.0,16.0,1.0,gargoyle_08s.jpg,0.0,clock_7_4.png,3.0,72,,,,,,,,,,,,,,,,,,,,,,,,,,,,,,,,
0.0,1.0,1.11318,0.0,17.0,17.0,17.0,1.0,undershirt_02s.jpg,0.0,clock_7_5.png,3.0,72,,,,,,,,,,,,,,,,,,,,,,,,,,,,,,,,
0.0,1.0,0.65985,0.0,18.0,18.0,18.0,1.0,toilet_paper_12s.jpg,0.0,clock_7_6.png,3.0,72,,,,,,,,,,,,,,,,,,,,,,,,,,,,,,,,
0.0,0.0,2.10449,0.0,19.0,19.0,19.0,1.0,flip_flop_03s.jpg,1.0,clock_7_7.png,3.0,72,,,,,,,,,,,,,,,,,,,,,,,,,,,,,,,,
0.0,1.0,0.88939,0.0,20.0,20.0,20.0,1.0,rocket_02s.jpg,0.0,clock_6_1.png,4.0,72,,,,,,,,,,,,,,,,,,,,,,,,,,,,,,,,
0.0,1.0,0.70476,0.0,21.0,21.0,21.0,1.0,tattoo_14s.jpg,0.0,clock_6_2.png,4.0,72,,,,,,,,,,,,,,,,,,,,,,,,,,,,,,,,
0.0,1.0,0.62291,0.0,22.0,22.0,22.0,1.0,ukulele_02s.jpg,0.0,clock_6_3.png,4.0,72,,,,,,,,,,,,,,,,,,,,,,,,,,,,,,,,
0.0,1.0,0.688875,0.0,23.0,23.0,23.0,1.0,latte_06s.jpg,0.0,clock_6_4.png,4.0,72,,,,,,,,,,,,,,,,,,,,,,,,,,,,,,,,
0.0,1.0,0.729875,0.0,24.0,24.0,24.0,1.0,petri_dish_12s.jpg,0.0,clock_6_5.png,4.0,72,,,,,,,,,,,,,,,,,,,,,,,,,,,,,,,,
0.0,1.0,0.63257,0.0,25.0,25.0,25.0,1.0,tablet_04s.jpg,0.0,clock_6_6.png,4.0,72,,,,,,,,,,,,,,,,,,,,,,,,,,,,,,,,
0.0,1.0,1.209045,0.0,26.0,26.0,26.0,1.0,projector_08s.jpg,0.0,clock_5_1.png,5.0,72,,,,,,,,,,,,,,,,,,,,,,,,,,,,,,,,
1.0,1.0,1.163575,0.0,27.0,27.0,27.0,1.0,projector_08s.jpg,1.0,clock_5_2.png,5.0,72,,,,,,,,,,,,,,,,,,,,,,,,,,,,,,,,
1.0,1.0,1.105325,0.0,28.0,28.0,28.0,1.0,projector_08s.jpg,1.0,clock_5_3.png,5.0,72,,,,,,,,,,,,,,,,,,,,,,,,,,,,,,,,
0.0,1.0,0.714265,0.0,29.0,29.0,29.0,1.0,cushion_08s.jpg,0.0,clock_5_4.png,5.0,72,,,,,,,,,,,,,,,,,,,,,,,,,,,,,,,,
0.0,1.0,0.9193,0.0,30.0,30.0,30.0,1.0,tomato_sauce_09s.jpg,0.0,clock_5_5.png,5.0,72,,,,,,,,,,,,,,,,,,,,,,,,,,,,,,,,
0.0,1.0,0.932285,0.0,31.0,31.0,31.0,1.0,espresso_01b.jpg,0.0,clock_5_1.png,6.0,72,,,,,,,,,,,,,,,,,,,,,,,,,,,,,,,,
0.0,1.0,1.11501,0.0,32.0,32.0,32.0,1.0,telephone_pole_05s.jpg,0.0,clock_5_2.png,6.0,72,,,,,,,,,,,,,,,,,,,,,,,,,,,,,,,,
0.0,1.0,0.75805,0.0,33.0,33.0,33.0,1.0,exhaust_pipe_10s.jpg,0.0,clock_5_3.png,6.0,72,,,,,,,,,,,,,,,,,,,,,,,,,,,,,,,,
0.0,1.0,0.94927,0.0,34.0,34.0,34.0,1.0,pantyhose_07s.jpg,0.0,clock_5_4.png,6.0,72,,,,,,,,,,,,,,,,,,,,,,,,,,,,,,,,
1.0,1.0,0.92871,0.0,35.0,35.0,35.0,1.0,exhaust_pipe_10s.jpg,1.0,clock_5_5.png,6.0,72,,,,,,,,,,,,,,,,,,,,,,,,,,,,,,,,
,,,,,,,,,0.0,,,72,0.0,1.0,4.386285,0.0,0.0,0.0,0.0,1.0,telephone_pole_05s.jpg,cushion_08s.jpg,,,,,,,,,,,,,,,,,,,,,,
,,,,,,,,,1.0,,,72,0.0,0.0,1.80117,0.0,1.0,1.0,1.0,1.0,lavender_10s.jpg,coconut_08s.jpg,,,,,,,,,,,,,,,,,,,,,,
,,,,,,,,,1.0,,,72,0.0,0.0,1.88205,0.0,2.0,2.0,2.0,1.0,fossil_06s.jpg,slingshot_07s.jpg,,,,,,,,,,,,,,,,,,,,,,
,,,,,,,,,0.0,,,72,0.0,1.0,2.59339,0.0,3.0,3.0,3.0,1.0,tab_09s.jpg,refrigerator_07s.jpg,,,,,,,,,,,,,,,,,,,,,,
,,,,,,,,,1.0,,,72,1.0,1.0,1.867625,0.0,4.0,4.0,4.0,1.0,ivy_12s.jpg,puppy_08s.jpg,,,,,,,,,,,,,,,,,,,,,,
,,,,,,,,,0.0,,,72,0.0,1.0,1.513385,0.0,5.0,5.0,5.0,1.0,latte_06s.jpg,rocket_02s.jpg,,,,,,,,,,,,,,,,,,,,,,
,,,,,,,,,,,,72,,,,,,,,,,,0.0,3.0,3.0,3.0,1.0,clock_present_4_6.xlsx,clock_compare_task_4_6.xlsx,,,,,,,,,,,,,,,
0.0,1.0,0.8992,0.0,0.0,0.0,0.0,1.0,mask_09s.jpg,0.0,clock_6_1.png,1.0,72,,,,,,,,,,,,,,,,,,,,,,,,,,,,,,,,
0.0,1.0,0.99868,0.0,1.0,1.0,1.0,1.0,lab_coat_11s.jpg,0.0,clock_6_2.png,1.0,72,,,,,,,,,,,,,,,,,,,,,,,,,,,,,,,,
0.0,1.0,0.93021,0.0,2.0,2.0,2.0,1.0,radio_09s.jpg,0.0,clock_6_3.png,1.0,72,,,,,,,,,,,,,,,,,,,,,,,,,,,,,,,,
0.0,1.0,0.936195,0.0,3.0,3.0,3.0,1.0,breadstick_08s.jpg,0.0,clock_6_4.png,1.0,72,,,,,,,,,,,,,,,,,,,,,,,,,,,,,,,,
0.0,1.0,0.71271,0.0,4.0,4.0,4.0,1.0,mousetrap_15n.jpg,0.0,clock_6_5.png,1.0,72,,,,,,,,,,,,,,,,,,,,,,,,,,,,,,,,
0.0,1.0,0.78491,0.0,5.0,5.0,5.0,1.0,flask_04s.jpg,0.0,clock_6_6.png,1.0,72,,,,,,,,,,,,,,,,,,,,,,,,,,,,,,,,
0.0,1.0,1.05104,0.0,6.0,6.0,6.0,1.0,orange_12s.jpg,0.0,clock_5_1.png,2.0,72,,,,,,,,,,,,,,,,,,,,,,,,,,,,,,,,
0.0,1.0,0.9263,0.0,7.0,7.0,7.0,1.0,mannequin_05s.jpg,0.0,clock_5_2.png,2.0,72,,,,,,,,,,,,,,,,,,,,,,,,,,,,,,,,
0.0,1.0,0.79889,0.0,8.0,8.0,8.0,1.0,bean_06s.jpg,0.0,clock_5_3.png,2.0,72,,,,,,,,,,,,,,,,,,,,,,,,,,,,,,,,
0.0,1.0,0.626595,0.0,9.0,9.0,9.0,1.0,stamp2_08s.jpg,0.0,clock_5_4.png,2.0,72,,,,,,,,,,,,,,,,,,,,,,,,,,,,,,,,
0.0,1.0,0.581535,0.0,10.0,10.0,10.0,1.0,mosquito_12s.jpg,0.0,clock_5_5.png,2.0,72,,,,,,,,,,,,,,,,,,,,,,,,,,,,,,,,
0.0,1.0,0.947065,0.0,11.0,11.0,11.0,1.0,leotard_08s.jpg,0.0,clock_7_1.png,3.0,72,,,,,,,,,,,,,,,,,,,,,,,,,,,,,,,,
1.0,1.0,0.738825,0.0,12.0,12.0,12.0,1.0,leotard_08s.jpg,1.0,clock_7_2.png,3.0,72,,,,,,,,,,,,,,,,,,,,,,,,,,,,,,,,
0.0,1.0,1.008215,0.0,13.0,13.0,13.0,1.0,juicer2_06s.jpg,0.0,clock_7_3.png,3.0,72,,,,,,,,,,,,,,,,,,,,,,,,,,,,,,,,
0.0,1.0,1.11069,0.0,14.0,14.0,14.0,1.0,breadstick_08s.jpg,0.0,clock_7_4.png,3.0,72,,,,,,,,,,,,,,,,,,,,,,,,,,,,,,,,
0.0,1.0,0.747645,0.0,15.0,15.0,15.0,1.0,blazer_02s.jpg,0.0,clock_7_5.png,3.0,72,,,,,,,,,,,,,,,,,,,,,,,,,,,,,,,,
0.0,1.0,0.75508,0.0,16.0,16.0,16.0,1.0,puddle_02s.jpg,0.0,clock_7_6.png,3.0,72,,,,,,,,,,,,,,,,,,,,,,,,,,,,,,,,
1.0,1.0,0.736985,0.0,17.0,17.0,17.0,1.0,puddle_02s.jpg,1.0,clock_7_7.png,3.0,72,,,,,,,,,,,,,,,,,,,,,,,,,,,,,,,,
0.0,1.0,1.16859,0.0,18.0,18.0,18.0,1.0,bathtub_23s.jpg,0.0,clock_6_1.png,4.0,72,,,,,,,,,,,,,,,,,,,,,,,,,,,,,,,,
1.0,1.0,0.903895,0.0,19.0,19.0,19.0,1.0,bathtub_23s.jpg,1.0,clock_6_2.png,4.0,72,,,,,,,,,,,,,,,,,,,,,,,,,,,,,,,,
0.0,1.0,0.62413,0.0,20.0,20.0,20.0,1.0,target_11s.jpg,0.0,clock_6_3.png,4.0,72,,,,,,,,,,,,,,,,,,,,,,,,,,,,,,,,
0.0,1.0,1.06159,0.0,21.0,21.0,21.0,1.0,tiger_06s.jpg,0.0,clock_6_4.png,4.0,72,,,,,,,,,,,,,,,,,,,,,,,,,,,,,,,,
0.0,1.0,0.747795,0.0,22.0,22.0,22.0,1.0,toad_09s.jpg,0.0,clock_6_5.png,4.0,72,,,,,,,,,,,,,,,,,,,,,,,,,,,,,,,,
0.0,1.0,0.70093,0.0,23.0,23.0,23.0,1.0,jalapeno_15s.jpg,0.0,clock_6_6.png,4.0,72,,,,,,,,,,,,,,,,,,,,,,,,,,,,,,,,
0.0,1.0,1.623785,0.0,24.0,24.0,24.0,1.0,emerald_02s.jpg,0.0,clock_7_1.png,5.0,72,,,,,,,,,,,,,,,,,,,,,,,,,,,,,,,,
1.0,1.0,0.74791,0.0,25.0,25.0,25.0,1.0,emerald_02s.jpg,1.0,clock_7_2.png,5.0,72,,,,,,,,,,,,,,,,,,,,,,,,,,,,,,,,
0.0,1.0,0.969745,0.0,26.0,26.0,26.0,1.0,ticktacktoe_08s.jpg,0.0,clock_7_3.png,5.0,72,,,,,,,,,,,,,,,,,,,,,,,,,,,,,,,,
1.0,1.0,0.78019,0.0,27.0,27.0,27.0,1.0,ticktacktoe_08s.jpg,1.0,clock_7_4.png,5.0,72,,,,,,,,,,,,,,,,,,,,,,,,,,,,,,,,
0.0,1.0,0.74683,0.0,28.0,28.0,28.0,1.0,spacesuit_02s.jpg,0.0,clock_7_5.png,5.0,72,,,,,,,,,,,,,,,,,,,,,,,,,,,,,,,,
0.0,1.0,0.80639,0.0,29.0,29.0,29.0,1.0,sledgehammer_03s.jpg,0.0,clock_7_6.png,5.0,72,,,,,,,,,,,,,,,,,,,,,,,,,,,,,,,,
0.0,1.0,0.607865,0.0,30.0,30.0,30.0,1.0,rhubarb_03s.jpg,0.0,clock_7_7.png,5.0,72,,,,,,,,,,,,,,,,,,,,,,,,,,,,,,,,
0.0,1.0,0.731565,0.0,31.0,31.0,31.0,1.0,kite_04s.jpg,0.0,clock_5_1.png,6.0,72,,,,,,,,,,,,,,,,,,,,,,,,,,,,,,,,
0.0,1.0,0.679195,0.0,32.0,32.0,32.0,1.0,birdcage_08s.jpg,0.0,clock_5_2.png,6.0,72,,,,,,,,,,,,,,,,,,,,,,,,,,,,,,,,
0.0,1.0,0.717995,0.0,33.0,33.0,33.0,1.0,crate_05s.jpg,0.0,clock_5_3.png,6.0,72,,,,,,,,,,,,,,,,,,,,,,,,,,,,,,,,
0.0,1.0,0.592485,0.0,34.0,34.0,34.0,1.0,go-kart_10s.jpg,0.0,clock_5_4.png,6.0,72,,,,,,,,,,,,,,,,,,,,,,,,,,,,,,,,
1.0,1.0,0.77605,0.0,35.0,35.0,35.0,1.0,crate_05s.jpg,1.0,clock_5_5.png,6.0,72,,,,,,,,,,,,,,,,,,,,,,,,,,,,,,,,
,,,,,,,,,1.0,,,72,0.0,0.0,1.803015,0.0,0.0,0.0,0.0,1.0,sledgehammer_03s.jpg,birdcage_08s.jpg,,,,,,,,,,,,,,,,,,,,,,
,,,,,,,,,1.0,,,72,1.0,1.0,2.553895,0.0,1.0,1.0,1.0,1.0,flask_04s.jpg,bean_06s.jpg,,,,,,,,,,,,,,,,,,,,,,
,,,,,,,,,0.0,,,72,1.0,0.0,3.1156,0.0,2.0,2.0,2.0,1.0,juicer2_06s.jpg,mosquito_12s.jpg,,,,,,,,,,,,,,,,,,,,,,
,,,,,,,,,1.0,,,72,1.0,1.0,2.937215,0.0,3.0,3.0,3.0,1.0,orange_12s.jpg,stamp2_08s.jpg,,,,,,,,,,,,,,,,,,,,,,
,,,,,,,,,0.0,,,72,0.0,1.0,3.066125,0.0,4.0,4.0,4.0,1.0,jalapeno_15s.jpg,target_11s.jpg,,,,,,,,,,,,,,,,,,,,,,
,,,,,,,,,0.0,,,72,0.0,1.0,1.9313,0.0,5.0,5.0,5.0,1.0,mousetrap_15n.jpg,lab_coat_11s.jpg,,,,,,,,,,,,,,,,,,,,,,
,,,,,,,,,,,,72,,,,,,,,,,,0.0,4.0,4.0,4.0,1.0,clock_present_5_6.xlsx,clock_compare_task_5_6.xlsx,,,,,,,,,,,,,,,
0.0,1.0,0.893435,0.0,0.0,0.0,0.0,1.0,playpen_11s.jpg,0.0,clock_7_1.png,1.0,72,,,,,,,,,,,,,,,,,,,,,,,,,,,,,,,,
1.0,1.0,0.59255,0.0,1.0,1.0,1.0,1.0,playpen_11s.jpg,1.0,clock_7_2.png,1.0,72,,,,,,,,,,,,,,,,,,,,,,,,,,,,,,,,
0.0,1.0,0.625815,0.0,2.0,2.0,2.0,1.0,abacus_12s.jpg,0.0,clock_7_3.png,1.0,72,,,,,,,,,,,,,,,,,,,,,,,,,,,,,,,,
0.0,1.0,0.84509,0.0,3.0,3.0,3.0,1.0,butter_14s.jpg,0.0,clock_7_4.png,1.0,72,,,,,,,,,,,,,,,,,,,,,,,,,,,,,,,,
1.0,1.0,0.73059,0.0,4.0,4.0,4.0,1.0,abacus_12s.jpg,1.0,clock_7_5.png,1.0,72,,,,,,,,,,,,,,,,,,,,,,,,,,,,,,,,
0.0,1.0,0.90283,0.0,5.0,5.0,5.0,1.0,towel_rack_04s.jpg,0.0,clock_7_6.png,1.0,72,,,,,,,,,,,,,,,,,,,,,,,,,,,,,,,,
0.0,1.0,1.0789,0.0,6.0,6.0,6.0,1.0,bee_20s.jpg,0.0,clock_7_7.png,1.0,72,,,,,,,,,,,,,,,,,,,,,,,,,,,,,,,,
0.0,1.0,1.045345,0.0,7.0,7.0,7.0,1.0,padlock_07s.jpg,0.0,clock_6_1.png,2.0,72,,,,,,,,,,,,,,,,,,,,,,,,,,,,,,,,
0.0,1.0,0.99368,0.0,8.0,8.0,8.0,1.0,butter_14s.jpg,0.0,clock_6_2.png,2.0,72,,,,,,,,,,,,,,,,,,,,,,,,,,,,,,,,
0.0,1.0,0.607075,0.0,9.0,9.0,9.0,1.0,purse_05s.jpg,0.0,clock_6_3.png,2.0,72,,,,,,,,,,,,,,,,,,,,,,,,,,,,,,,,
1.0,1.0,0.667845,0.0,10.0,10.0,10.0,1.0,butter_14s.jpg,1.0,clock_6_4.png,2.0,72,,,,,,,,,,,,,,,,,,,,,,,,,,,,,,,,
0.0,1.0,0.695095,0.0,11.0,11.0,11.0,1.0,peppermint_07s.jpg,0.0,clock_6_5.png,2.0,72,,,,,,,,,,,,,,,,,,,,,,,,,,,,,,,,
0.0,1.0,0.70219,0.0,12.0,12.0,12.0,1.0,cucumber_07s.jpg,0.0,clock_6_6.png,2.0,72,,,,,,,,,,,,,,,,,,,,,,,,,,,,,,,,
0.0,1.0,0.81394,0.0,13.0,13.0,13.0,1.0,orangutan_03s.jpg,0.0,clock_5_1.png,3.0,72,,,,,,,,,,,,,,,,,,,,,,,,,,,,,,,,
0.0,1.0,0.474765,0.0,14.0,14.0,14.0,1.0,chime_12s.jpg,0.0,clock_5_2.png,3.0,72,,,,,,,,,,,,,,,,,,,,,,,,,,,,,,,,
1.0,1.0,0.632885,0.0,15.0,15.0,15.0,1.0,orangutan_03s.jpg,1.0,clock_5_3.png,3.0,72,,,,,,,,,,,,,,,,,,,,,,,,,,,,,,,,
0.0,1.0,0.70502,0.0,16.0,16.0,16.0,1.0,turkey_10s.jpg,0.0,clock_5_4.png,3.0,72,,,,,,,,,,,,,,,,,,,,,,,,,,,,,,,,
1.0,1.0,0.919375,0.0,17.0,17.0,17.0,1.0,orangutan_03s.jpg,1.0,clock_5_5.png,3.0,72,,,,,,,,,,,,,,,,,,,,,,,,,,,,,,,,
0.0,1.0,0.721935,0.0,18.0,18.0,18.0,1.0,birthday_cake_09s.jpg,0.0,clock_5_1.png,4.0,72,,,,,,,,,,,,,,,,,,,,,,,,,,,,,,,,
0.0,1.0,1.014465,0.0,19.0,19.0,19.0,1.0,lizard_10n.jpg,0.0,clock_5_2.png,4.0,72,,,,,,,,,,,,,,,,,,,,,,,,,,,,,,,,
0.0,1.0,0.798685,0.0,20.0,20.0,20.0,1.0,lava_02s.jpg,0.0,clock_5_3.png,4.0,72,,,,,,,,,,,,,,,,,,,,,,,,,,,,,,,,
0.0,1.0,0.70812,0.0,21.0,21.0,21.0,1.0,rudder_02s.jpg,0.0,clock_5_4.png,4.0,72,,,,,,,,,,,,,,,,,,,,,,,,,,,,,,,,
0.0,1.0,0.622555,0.0,22.0,22.0,22.0,1.0,cap_05s.jpg,0.0,clock_5_5.png,4.0,72,,,,,,,,,,,,,,,,,,,,,,,,,,,,,,,,
0.0,1.0,0.951265,0.0,23.0,23.0,23.0,1.0,eggshell_14s.jpg,0.0,clock_6_1.png,5.0,72,,,,,,,,,,,,,,,,,,,,,,,,,,,,,,,,
0.0,1.0,1.82946,0.0,24.0,24.0,24.0,1.0,gear_07s.jpg,0.0,clock_6_2.png,5.0,72,,,,,,,,,,,,,,,,,,,,,,,,,,,,,,,,
0.0,1.0,0.648455,0.0,25.0,25.0,25.0,1.0,icicle_04s.jpg,0.0,clock_6_3.png,5.0,72,,,,,,,,,,,,,,,,,,,,,,,,,,,,,,,,
0.0,1.0,0.64774,0.0,26.0,26.0,26.0,1.0,submarine_11n.jpg,0.0,clock_6_4.png,5.0,72,,,,,,,,,,,,,,,,,,,,,,,,,,,,,,,,
0.0,1.0,1.713255,0.0,27.0,27.0,27.0,1.0,boar_10s.jpg,0.0,clock_6_5.png,5.0,72,,,,,,,,,,,,,,,,,,,,,,,,,,,,,,,,
0.0,1.0,0.95519,0.0,28.0,28.0,28.0,1.0,plunger_08s.jpg,0.0,clock_6_6.png,5.0,72,,,,,,,,,,,,,,,,,,,,,,,,,,,,,,,,
0.0,1.0,1.034955,0.0,29.0,29.0,29.0,1.0,ant_12s.jpg,0.0,clock_7_1.png,6.0,72,,,,,,,,,,,,,,,,,,,,,,,,,,,,,,,,
0.0,1.0,0.659095,0.0,30.0,30.0,30.0,1.0,juicer1_08s.jpg,0.0,clock_7_2.png,6.0,72,,,,,,,,,,,,,,,,,,,,,,,,,,,,,,,,
0.0,1.0,0.664685,0.0,31.0,31.0,31.0,1.0,submarine_11n.jpg,0.0,clock_7_3.png,6.0,72,,,,,,,,,,,,,,,,,,,,,,,,,,,,,,,,
1.0,1.0,0.973445,0.0,32.0,32.0,32.0,1.0,juicer1_08s.jpg,1.0,clock_7_4.png,6.0,72,,,,,,,,,,,,,,,,,,,,,,,,,,,,,,,,
0.0,1.0,1.034025,0.0,33.0,33.0,33.0,1.0,cucumber_07s.jpg,0.0,clock_7_5.png,6.0,72,,,,,,,,,,,,,,,,,,,,,,,,,,,,,,,,
0.0,1.0,0.71355,0.0,34.0,34.0,34.0,1.0,mailbox_11s.jpg,0.0,clock_7_6.png,6.0,72,,,,,,,,,,,,,,,,,,,,,,,,,,,,,,,,
1.0,1.0,0.75706,0.0,35.0,35.0,35.0,1.0,juicer1_08s.jpg,1.0,clock_7_7.png,6.0,72,,,,,,,,,,,,,,,,,,,,,,,,,,,,,,,,
,,,,,,,,,1.0,,,72,0.0,0.0,1.69342,0.0,0.0,0.0,0.0,1.0,bee_20s.jpg,purse_05s.jpg,,,,,,,,,,,,,,,,,,,,,,
,,,,,,,,,0.0,,,72,1.0,0.0,1.869995,0.0,1.0,1.0,1.0,1.0,chime_12s.jpg,peppermint_07s.jpg,,,,,,,,,,,,,,,,,,,,,,
,,,,,,,,,1.0,,,72,0.0,0.0,1.533435,0.0,2.0,2.0,2.0,1.0,lava_02s.jpg,eggshell_14s.jpg,,,,,,,,,,,,,,,,,,,,,,
,,,,,,,,,1.0,,,72,1.0,1.0,1.23074,0.0,3.0,3.0,3.0,1.0,birthday_cake_09s.jpg,rudder_02s.jpg,,,,,,,,,,,,,,,,,,,,,,
,,,,,,,,,0.0,,,72,1.0,0.0,1.332495,0.0,4.0,4.0,4.0,1.0,boar_10s.jpg,gear_07s.jpg,,,,,,,,,,,,,,,,,,,,,,
,,,,,,,,,0.0,,,72,1.0,0.0,1.680025,0.0,5.0,5.0,5.0,1.0,plunger_08s.jpg,icicle_04s.jpg,,,,,,,,,,,,,,,,,,,,,,
0.0,1.0,1.102835,,,,,,stamp1_11s.jpg,0.0,clockno_up.jpg,1.0,72,,,,,,,,,,,,,,,,,,0.0,0.0,0.0,0.0,1.0,,,,,,,,,,
1.0,1.0,0.662775,,,,,,stamp1_11s.jpg,1.0,clockno_default.jpg,1.0,72,,,,,,,,,,,,,,,,,,0.0,1.0,1.0,1.0,1.0,,,,,,,,,,
1.0,1.0,0.674175,,,,,,stamp1_11s.jpg,1.0,clockno_default.jpg,1.0,72,,,,,,,,,,,,,,,,,,0.0,2.0,2.0,2.0,1.0,,,,,,,,,,
0.0,1.0,0.889075,,,,,,bacon_05s.jpg,0.0,clockno_default.jpg,1.0,72,,,,,,,,,,,,,,,,,,0.0,3.0,3.0,3.0,1.0,,,,,,,,,,
0.0,1.0,1.11548,,,,,,mold2_04s.jpg,0.0,clockno_default.jpg,1.0,72,,,,,,,,,,,,,,,,,,0.0,4.0,4.0,4.0,1.0,,,,,,,,,,
0.0,1.0,0.835775,,,,,,ravioli_08s.jpg,0.0,clockno_up.jpg,2.0,72,,,,,,,,,,,,,,,,,,0.0,5.0,5.0,5.0,1.0,,,,,,,,,,
0.0,1.0,0.82189,,,,,,lasagna_06s.jpg,0.0,clockno_default.jpg,2.0,72,,,,,,,,,,,,,,,,,,0.0,6.0,6.0,6.0,1.0,,,,,,,,,,
0.0,1.0,0.6382,,,,,,soda_fountain_03s.jpg,0.0,clockno_default.jpg,2.0,72,,,,,,,,,,,,,,,,,,0.0,7.0,7.0,7.0,1.0,,,,,,,,,,
0.0,1.0,0.74068,,,,,,sparkler_02s.jpg,0.0,clockno_default.jpg,2.0,72,,,,,,,,,,,,,,,,,,0.0,8.0,8.0,8.0,1.0,,,,,,,,,,
1.0,1.0,1.00176,,,,,,ravioli_08s.jpg,1.0,clockno_default.jpg,2.0,72,,,,,,,,,,,,,,,,,,0.0,9.0,9.0,9.0,1.0,,,,,,,,,,
0.0,1.0,0.90328,,,,,,raccoon_02s.jpg,0.0,clockno_default.jpg,2.0,72,,,,,,,,,,,,,,,,,,0.0,10.0,10.0,10.0,1.0,,,,,,,,,,
0.0,1.0,0.70737,,,,,,ruby_15s.jpg,0.0,clockno_default.jpg,2.0,72,,,,,,,,,,,,,,,,,,0.0,11.0,11.0,11.0,1.0,,,,,,,,,,
0.0,1.0,0.768245,,,,,,boomerang_06s.jpg,0.0,clockno_up.jpg,3.0,72,,,,,,,,,,,,,,,,,,0.0,12.0,12.0,12.0,1.0,,,,,,,,,,
0.0,1.0,0.851525,,,,,,tape_measure_11s.jpg,0.0,clockno_default.jpg,3.0,72,,,,,,,,,,,,,,,,,,0.0,13.0,13.0,13.0,1.0,,,,,,,,,,
0.0,1.0,0.732675,,,,,,power_line_08s.jpg,0.0,clockno_default.jpg,3.0,72,,,,,,,,,,,,,,,,,,0.0,14.0,14.0,14.0,1.0,,,,,,,,,,
1.0,1.0,0.62393,,,,,,boomerang_06s.jpg,1.0,clockno_default.jpg,3.0,72,,,,,,,,,,,,,,,,,,0.0,15.0,15.0,15.0,1.0,,,,,,,,,,
0.0,1.0,0.85402,,,,,,letter_opener_03s.jpg,0.0,clockno_default.jpg,3.0,72,,,,,,,,,,,,,,,,,,0.0,16.0,16.0,16.0,1.0,,,,,,,,,,
0.0,1.0,1.15127,,,,,,parachute_03s.jpg,0.0,clockno_default.jpg,3.0,72,,,,,,,,,,,,,,,,,,0.0,17.0,17.0,17.0,1.0,,,,,,,,,,
0.0,1.0,0.72789,,,,,,snowman_02s.jpg,0.0,clockno_up.jpg,4.0,72,,,,,,,,,,,,,,,,,,0.0,18.0,18.0,18.0,1.0,,,,,,,,,,
0.0,1.0,0.63721,,,,,,turtle_08s.jpg,0.0,clockno_default.jpg,4.0,72,,,,,,,,,,,,,,,,,,0.0,19.0,19.0,19.0,1.0,,,,,,,,,,
0.0,1.0,0.65119,,,,,,rug_09s.jpg,0.0,clockno_default.jpg,4.0,72,,,,,,,,,,,,,,,,,,0.0,20.0,20.0,20.0,1.0,,,,,,,,,,
0.0,1.0,0.67186,,,,,,soccer_ball_12s.jpg,0.0,clockno_default.jpg,4.0,72,,,,,,,,,,,,,,,,,,0.0,21.0,21.0,21.0,1.0,,,,,,,,,,
0.0,1.0,0.718265,,,,,,paper_bag_12s.jpg,0.0,clockno_default.jpg,4.0,72,,,,,,,,,,,,,,,,,,0.0,22.0,22.0,22.0,1.0,,,,,,,,,,
1.0,1.0,0.70258,,,,,,paper_bag_12s.jpg,1.0,clockno_default.jpg,4.0,72,,,,,,,,,,,,,,,,,,0.0,23.0,23.0,23.0,1.0,,,,,,,,,,
0.0,1.0,1.09955,,,,,,lasagna_06s.jpg,0.0,clockno_default.jpg,4.0,72,,,,,,,,,,,,,,,,,,0.0,24.0,24.0,24.0,1.0,,,,,,,,,,
0.0,1.0,0.92896,,,,,,teapot_03s.jpg,0.0,clockno_up.jpg,5.0,72,,,,,,,,,,,,,,,,,,0.0,25.0,25.0,25.0,1.0,,,,,,,,,,
0.0,1.0,0.741345,,,,,,frame_06s.jpg,0.0,clockno_default.jpg,5.0,72,,,,,,,,,,,,,,,,,,0.0,26.0,26.0,26.0,1.0,,,,,,,,,,
0.0,1.0,1.118225,,,,,,dashboard_02s.jpg,0.0,clockno_default.jpg,5.0,72,,,,,,,,,,,,,,,,,,0.0,27.0,27.0,27.0,1.0,,,,,,,,,,
0.0,1.0,0.651675,,,,,,glasses01a.jpg,0.0,clockno_default.jpg,5.0,72,,,,,,,,,,,,,,,,,,0.0,28.0,28.0,28.0,1.0,,,,,,,,,,
0.0,1.0,0.81098,,,,,,popsicle_02s.jpg,0.0,clockno_default.jpg,5.0,72,,,,,,,,,,,,,,,,,,0.0,29.0,29.0,29.0,1.0,,,,,,,,,,
0.0,1.0,1.22772,,,,,,screwdriver02a.jpg,0.0,clockno_up.jpg,6.0,72,,,,,,,,,,,,,,,,,,0.0,30.0,30.0,30.0,1.0,,,,,,,,,,
0.0,1.0,0.830345,,,,,,kayak_08s.jpg,0.0,clockno_default.jpg,6.0,72,,,,,,,,,,,,,,,,,,0.0,31.0,31.0,31.0,1.0,,,,,,,,,,
0.0,1.0,1.56995,,,,,,marker_05s.jpg,0.0,clockno_default.jpg,6.0,72,,,,,,,,,,,,,,,,,,0.0,32.0,32.0,32.0,1.0,,,,,,,,,,
0.0,1.0,0.72929,,,,,,knot_01b.jpg,0.0,clockno_default.jpg,6.0,72,,,,,,,,,,,,,,,,,,0.0,33.0,33.0,33.0,1.0,,,,,,,,,,
0.0,1.0,0.61216,,,,,,oil_02s.jpg,0.0,clockno_default.jpg,6.0,72,,,,,,,,,,,,,,,,,,0.0,34.0,34.0,34.0,1.0,,,,,,,,,,
0.0,1.0,0.879535,,,,,,light_switch_02s.jpg,0.0,clockno_default.jpg,6.0,72,,,,,,,,,,,,,,,,,,0.0,35.0,35.0,35.0,1.0,,,,,,,,,,
,,,,,,,,,1.0,,,72,1.0,1.0,2.27243,,,,,,mold2_04s.jpg,soda_fountain_03s.jpg,,,,,,,,,,,,,0.0,0.0,0.0,0.0,1.0,,,,,
,,,,,,,,,0.0,,,72,1.0,0.0,1.530205,,,,,,turtle_08s.jpg,letter_opener_03s.jpg,,,,,,,,,,,,,0.0,1.0,1.0,1.0,1.0,,,,,
,,,,,,,,,0.0,,,72,1.0,0.0,2.53379,,,,,,rug_09s.jpg,parachute_03s.jpg,,,,,,,,,,,,,0.0,2.0,2.0,2.0,1.0,,,,,
,,,,,,,,,1.0,,,72,1.0,1.0,2.26233,,,,,,snowman_02s.jpg,soccer_ball_12s.jpg,,,,,,,,,,,,,0.0,3.0,3.0,3.0,1.0,,,,,
,,,,,,,,,0.0,,,72,0.0,1.0,1.94864,,,,,,ruby_15s.jpg,sparkler_02s.jpg,,,,,,,,,,,,,0.0,4.0,4.0,4.0,1.0,,,,,
,,,,,,,,,0.0,,,72,0.0,1.0,2.18471,,,,,,glasses01a.jpg,teapot_03s.jpg,,,,,,,,,,,,,0.0,5.0,5.0,5.0,1.0,,,,,
,,,,,,,,,,,,72,,,,,,,,,,,,,,,,clockno_present_1_6.xlsx,clockno_compare_task_1_6.xlsx,,,,,,,,,,,0.0,0.0,0.0,0.0,1.0
0.0,1.0,0.92411,,,,,,bottle_opener_11s.jpg,0.0,clockno_up.jpg,1.0,72,,,,,,,,,,,,,,,,,,0.0,0.0,0.0,0.0,1.0,,,,,,,,,,
0.0,1.0,1.0064,,,,,,racehorse_03s.jpg,0.0,clockno_default.jpg,1.0,72,,,,,,,,,,,,,,,,,,0.0,1.0,1.0,1.0,1.0,,,,,,,,,,
0.0,1.0,0.701255,,,,,,peach_04s.jpg,0.0,clockno_default.jpg,1.0,72,,,,,,,,,,,,,,,,,,0.0,2.0,2.0,2.0,1.0,,,,,,,,,,
1.0,1.0,0.696285,,,,,,bottle_opener_11s.jpg,1.0,clockno_default.jpg,1.0,72,,,,,,,,,,,,,,,,,,0.0,3.0,3.0,3.0,1.0,,,,,,,,,,
1.0,1.0,0.841465,,,,,,peach_04s.jpg,1.0,clockno_default.jpg,1.0,72,,,,,,,,,,,,,,,,,,0.0,4.0,4.0,4.0,1.0,,,,,,,,,,
0.0,1.0,0.80143,,,,,,tortilla_06s.jpg,0.0,clockno_up.jpg,2.0,72,,,,,,,,,,,,,,,,,,0.0,5.0,5.0,5.0,1.0,,,,,,,,,,
0.0,1.0,0.77977,,,,,,denture_03s.jpg,0.0,clockno_default.jpg,2.0,72,,,,,,,,,,,,,,,,,,0.0,6.0,6.0,6.0,1.0,,,,,,,,,,
0.0,1.0,0.58927,,,,,,cereal_04s.jpg,0.0,clockno_default.jpg,2.0,72,,,,,,,,,,,,,,,,,,0.0,7.0,7.0,7.0,1.0,,,,,,,,,,
0.0,1.0,0.614295,,,,,,antenna_01b.jpg,0.0,clockno_default.jpg,2.0,72,,,,,,,,,,,,,,,,,,0.0,8.0,8.0,8.0,1.0,,,,,,,,,,
0.0,1.0,0.583855,,,,,,milk_02s.jpg,0.0,clockno_default.jpg,2.0,72,,,,,,,,,,,,,,,,,,0.0,9.0,9.0,9.0,1.0,,,,,,,,,,
0.0,1.0,0.58107,,,,,,mushroom_10n.jpg,0.0,clockno_default.jpg,2.0,72,,,,,,,,,,,,,,,,,,0.0,10.0,10.0,10.0,1.0,,,,,,,,,,
0.0,1.0,0.81439,,,,,,racehorse_03s.jpg,0.0,clockno_default.jpg,2.0,72,,,,,,,,,,,,,,,,,,0.0,11.0,11.0,11.0,1.0,,,,,,,,,,
0.0,1.0,1.085275,,,,,,pancake_12s.jpg,0.0,clockno_up.jpg,3.0,72,,,,,,,,,,,,,,,,,,0.0,12.0,12.0,12.0,1.0,,,,,,,,,,
0.0,1.0,0.79088,,,,,,saddle_06s.jpg,0.0,clockno_default.jpg,3.0,72,,,,,,,,,,,,,,,,,,0.0,13.0,13.0,13.0,1.0,,,,,,,,,,
0.0,1.0,0.80166,,,,,,mussel_11s.jpg,0.0,clockno_default.jpg,3.0,72,,,,,,,,,,,,,,,,,,0.0,14.0,14.0,14.0,1.0,,,,,,,,,,
0.0,1.0,0.795685,,,,,,fox_13s.jpg,0.0,clockno_default.jpg,3.0,72,,,,,,,,,,,,,,,,,,0.0,15.0,15.0,15.0,1.0,,,,,,,,,,
0.0,1.0,0.6109,,,,,,laundry_basket_11s.jpg,0.0,clockno_default.jpg,3.0,72,,,,,,,,,,,,,,,,,,0.0,16.0,16.0,16.0,1.0,,,,,,,,,,
0.0,1.0,1.10994,,,,,,kitten_07s.jpg,0.0,clockno_up.jpg,4.0,72,,,,,,,,,,,,,,,,,,0.0,17.0,17.0,17.0,1.0,,,,,,,,,,
1.0,1.0,0.918365,,,,,,kitten_07s.jpg,1.0,clockno_default.jpg,4.0,72,,,,,,,,,,,,,,,,,,0.0,18.0,18.0,18.0,1.0,,,,,,,,,,
0.0,1.0,0.84154,,,,,,tube_top_03s.jpg,0.0,clockno_default.jpg,4.0,72,,,,,,,,,,,,,,,,,,0.0,19.0,19.0,19.0,1.0,,,,,,,,,,
0.0,1.0,0.897285,,,,,,tennis_ball_06s.jpg,0.0,clockno_default.jpg,4.0,72,,,,,,,,,,,,,,,,,,0.0,20.0,20.0,20.0,1.0,,,,,,,,,,
0.0,1.0,0.86942,,,,,,spatula04.jpg,0.0,clockno_default.jpg,4.0,72,,,,,,,,,,,,,,,,,,0.0,21.0,21.0,21.0,1.0,,,,,,,,,,
0.0,1.0,0.68824,,,,,,fishhook_06s.jpg,0.0,clockno_default.jpg,4.0,72,,,,,,,,,,,,,,,,,,0.0,22.0,22.0,22.0,1.0,,,,,,,,,,
0.0,1.0,0.879885,,,,,,sushi_08s.jpg,0.0,clockno_up.jpg,5.0,72,,,,,,,,,,,,,,,,,,0.0,23.0,23.0,23.0,1.0,,,,,,,,,,
0.0,1.0,0.92701,,,,,,ring_03s.jpg,0.0,clockno_default.jpg,5.0,72,,,,,,,,,,,,,,,,,,0.0,24.0,24.0,24.0,1.0,,,,,,,,,,
0.0,1.0,0.584425,,,,,,glue_01s.jpg,0.0,clockno_default.jpg,5.0,72,,,,,,,,,,,,,,,,,,0.0,25.0,25.0,25.0,1.0,,,,,,,,,,
0.0,1.0,0.732845,,,,,,trumpet_06s.jpg,0.0,clockno_default.jpg,5.0,72,,,,,,,,,,,,,,,,,,0.0,26.0,26.0,26.0,1.0,,,,,,,,,,
0.0,1.0,0.750755,,,,,,seagull_01b.jpg,0.0,clockno_default.jpg,5.0,72,,,,,,,,,,,,,,,,,,0.0,27.0,27.0,27.0,1.0,,,,,,,,,,
0.0,1.0,0.762935,,,,,,contact_lens_15s.jpg,0.0,clockno_default.jpg,5.0,72,,,,,,,,,,,,,,,,,,0.0,28.0,28.0,28.0,1.0,,,,,,,,,,
0.0,1.0,0.91167,,,,,,puppet_01b.jpg,0.0,clockno_up.jpg,6.0,72,,,,,,,,,,,,,,,,,,0.0,29.0,29.0,29.0,1.0,,,,,,,,,,
0.0,1.0,0.780965,,,,,,rhinoceros_02s.jpg,0.0,clockno_default.jpg,6.0,72,,,,,,,,,,,,,,,,,,0.0,30.0,30.0,30.0,1.0,,,,,,,,,,
1.0,1.0,1.97328,,,,,,puppet_01b.jpg,1.0,clockno_default.jpg,6.0,72,,,,,,,,,,,,,,,,,,0.0,31.0,31.0,31.0,1.0,,,,,,,,,,
0.0,1.0,1.16256,,,,,,plaster_cast_13s.jpg,0.0,clockno_default.jpg,6.0,72,,,,,,,,,,,,,,,,,,0.0,32.0,32.0,32.0,1.0,,,,,,,,,,
1.0,1.0,0.889325,,,,,,rhinoceros_02s.jpg,1.0,clockno_default.jpg,6.0,72,,,,,,,,,,,,,,,,,,0.0,33.0,33.0,33.0,1.0,,,,,,,,,,
0.0,1.0,0.7081,,,,,,turnstile_08s.jpg,0.0,clockno_default.jpg,6.0,72,,,,,,,,,,,,,,,,,,0.0,34.0,34.0,34.0,1.0,,,,,,,,,,
0.0,1.0,0.696565,,,,,,kimono_13s.jpg,0.0,clockno_default.jpg,6.0,72,,,,,,,,,,,,,,,,,,0.0,35.0,35.0,35.0,1.0,,,,,,,,,,
,,,,,,,,,0.0,,,72,0.0,1.0,1.580465,,,,,,sushi_08s.jpg,tennis_ball_06s.jpg,,,,,,,,,,,,,0.0,0.0,0.0,0.0,1.0,,,,,
,,,,,,,,,0.0,,,72,0.0,1.0,2.068005,,,,,,ring_03s.jpg,spatula04.jpg,,,,,,,,,,,,,0.0,1.0,1.0,1.0,1.0,,,,,
,,,,,,,,,0.0,,,72,0.0,1.0,1.785305,,,,,,pancake_12s.jpg,milk_02s.jpg,,,,,,,,,,,,,0.0,2.0,2.0,2.0,1.0,,,,,
,,,,,,,,,0.0,,,72,0.0,1.0,1.695565,,,,,,antenna_01b.jpg,tortilla_06s.jpg,,,,,,,,,,,,,0.0,3.0,3.0,3.0,1.0,,,,,
,,,,,,,,,1.0,,,72,1.0,1.0,1.58321,,,,,,plaster_cast_13s.jpg,kimono_13s.jpg,,,,,,,,,,,,,0.0,4.0,4.0,4.0,1.0,,,,,
,,,,,,,,,1.0,,,72,0.0,0.0,2.176315,,,,,,cereal_04s.jpg,mushroom_10n.jpg,,,,,,,,,,,,,0.0,5.0,5.0,5.0,1.0,,,,,
,,,,,,,,,,,,72,,,,,,,,,,,,,,,,clockno_present_2_6.xlsx,clockno_compare_task_2_6.xlsx,,,,,,,,,,,0.0,1.0,1.0,1.0,1.0
0.0,1.0,1.26814,,,,,,binder_21s.jpg,0.0,clockno_up.jpg,1.0,72,,,,,,,,,,,,,,,,,,0.0,0.0,0.0,0.0,1.0,,,,,,,,,,
0.0,1.0,0.91964,,,,,,magnet_03s.jpg,0.0,clockno_default.jpg,1.0,72,,,,,,,,,,,,,,,,,,0.0,1.0,1.0,1.0,1.0,,,,,,,,,,
0.0,1.0,0.63107,,,,,,penguin_16s.jpg,0.0,clockno_default.jpg,1.0,72,,,,,,,,,,,,,,,,,,0.0,2.0,2.0,2.0,1.0,,,,,,,,,,
0.0,1.0,0.77787,,,,,,rocking_chair_05s.jpg,0.0,clockno_default.jpg,1.0,72,,,,,,,,,,,,,,,,,,0.0,3.0,3.0,3.0,1.0,,,,,,,,,,
1.0,1.0,0.717315,,,,,,magnet_03s.jpg,1.0,clockno_default.jpg,1.0,72,,,,,,,,,,,,,,,,,,0.0,4.0,4.0,4.0,1.0,,,,,,,,,,
0.0,1.0,0.95966,,,,,,gazelle_10s.jpg,0.0,clockno_up.jpg,2.0,72,,,,,,,,,,,,,,,,,,0.0,5.0,5.0,5.0,1.0,,,,,,,,,,
0.0,1.0,0.731515,,,,,,coffee_filter_10s.jpg,0.0,clockno_default.jpg,2.0,72,,,,,,,,,,,,,,,,,,0.0,6.0,6.0,6.0,1.0,,,,,,,,,,
1.0,1.0,0.741655,,,,,,coffee_filter_10s.jpg,1.0,clockno_default.jpg,2.0,72,,,,,,,,,,,,,,,,,,0.0,7.0,7.0,7.0,1.0,,,,,,,,,,
0.0,1.0,0.828945,,,,,,beaker_01b.jpg,0.0,clockno_default.jpg,2.0,72,,,,,,,,,,,,,,,,,,0.0,8.0,8.0,8.0,1.0,,,,,,,,,,
0.0,1.0,0.73404,,,,,,lamb_04s.jpg,0.0,clockno_default.jpg,2.0,72,,,,,,,,,,,,,,,,,,0.0,9.0,9.0,9.0,1.0,,,,,,,,,,
0.0,1.0,0.645615,,,,,,bagel_15s.jpg,0.0,clockno_default.jpg,2.0,72,,,,,,,,,,,,,,,,,,0.0,10.0,10.0,10.0,1.0,,,,,,,,,,
0.0,1.0,0.69767,,,,,,coral_08s.jpg,0.0,clockno_default.jpg,2.0,72,,,,,,,,,,,,,,,,,,0.0,11.0,11.0,11.0,1.0,,,,,,,,,,
0.0,1.0,0.98052,,,,,,orchid_01b.jpg,0.0,clockno_up.jpg,3.0,72,,,,,,,,,,,,,,,,,,0.0,12.0,12.0,12.0,1.0,,,,,,,,,,
0.0,1.0,0.922125,,,,,,toaster_03s.jpg,0.0,clockno_default.jpg,3.0,72,,,,,,,,,,,,,,,,,,0.0,13.0,13.0,13.0,1.0,,,,,,,,,,
0.0,1.0,0.831165,,,,,,rocking_chair_05s.jpg,0.0,clockno_default.jpg,3.0,72,,,,,,,,,,,,,,,,,,0.0,14.0,14.0,14.0,1.0,,,,,,,,,,
0.0,1.0,1.00799,,,,,,coral_08s.jpg,0.0,clockno_default.jpg,3.0,72,,,,,,,,,,,,,,,,,,0.0,15.0,15.0,15.0,1.0,,,,,,,,,,
0.0,1.0,0.73523,,,,,,megaphone_03s.jpg,0.0,clockno_default.jpg,3.0,72,,,,,,,,,,,,,,,,,,0.0,16.0,16.0,16.0,1.0,,,,,,,,,,
0.0,1.0,0.69821,,,,,,doily_13s.jpg,0.0,clockno_default.jpg,3.0,72,,,,,,,,,,,,,,,,,,0.0,17.0,17.0,17.0,1.0,,,,,,,,,,
0.0,1.0,0.89413,,,,,,harpoon.jpg,0.0,clockno_up.jpg,4.0,72,,,,,,,,,,,,,,,,,,0.0,18.0,18.0,18.0,1.0,,,,,,,,,,
0.0,1.0,0.71143,,,,,,peanut_butter_08s.jpg,0.0,clockno_default.jpg,4.0,72,,,,,,,,,,,,,,,,,,0.0,19.0,19.0,19.0,1.0,,,,,,,,,,
0.0,1.0,0.75346,,,,,,margarita_03s.jpg,0.0,clockno_default.jpg,4.0,72,,,,,,,,,,,,,,,,,,0.0,20.0,20.0,20.0,1.0,,,,,,,,,,
1.0,1.0,0.844495,,,,,,peanut_butter_08s.jpg,1.0,clockno_default.jpg,4.0,72,,,,,,,,,,,,,,,,,,0.0,21.0,21.0,21.0,1.0,,,,,,,,,,
0.0,1.0,0.693555,,,,,,coral_08s.jpg,0.0,clockno_default.jpg,4.0,72,,,,,,,,,,,,,,,,,,0.0,22.0,22.0,22.0,1.0,,,,,,,,,,
0.0,1.0,0.87049,,,,,,punch1_10s.jpg,0.0,clockno_up.jpg,5.0,72,,,,,,,,,,,,,,,,,,0.0,23.0,23.0,23.0,1.0,,,,,,,,,,
0.0,1.0,0.986815,,,,,,bonsai_07s.jpg,0.0,clockno_default.jpg,5.0,72,,,,,,,,,,,,,,,,,,0.0,24.0,24.0,24.0,1.0,,,,,,,,,,
0.0,1.0,0.91691,,,,,,licorice_06s.jpg,0.0,clockno_default.jpg,5.0,72,,,,,,,,,,,,,,,,,,0.0,25.0,25.0,25.0,1.0,,,,,,,,,,
0.0,1.0,0.67773,,,,,,candy_cane_06s.jpg,0.0,clockno_default.jpg,5.0,72,,,,,,,,,,,,,,,,,,0.0,26.0,26.0,26.0,1.0,,,,,,,,,,
0.0,1.0,0.8646,,,,,,quesadilla_07s.jpg,0.0,clockno_default.jpg,5.0,72,,,,,,,,,,,,,,,,,,0.0,27.0,27.0,27.0,1.0,,,,,,,,,,
0.0,1.0,0.710415,,,,,,margarita_03s.jpg,0.0,clockno_default.jpg,5.0,72,,,,,,,,,,,,,,,,,,0.0,28.0,28.0,28.0,1.0,,,,,,,,,,
0.0,1.0,0.8331,,,,,,possum_09s.jpg,0.0,clockno_up.jpg,6.0,72,,,,,,,,,,,,,,,,,,0.0,29.0,29.0,29.0,1.0,,,,,,,,,,
0.0,1.0,0.62967,,,,,,mop_08s.jpg,0.0,clockno_default.jpg,6.0,72,,,,,,,,,,,,,,,,,,0.0,30.0,30.0,30.0,1.0,,,,,,,,,,
0.0,1.0,0.66506,,,,,,rice_12s.jpg,0.0,clockno_default.jpg,6.0,72,,,,,,,,,,,,,,,,,,0.0,31.0,31.0,31.0,1.0,,,,,,,,,,
0.0,1.0,0.59239,,,,,,thumbtack_14s.jpg,0.0,clockno_default.jpg,6.0,72,,,,,,,,,,,,,,,,,,0.0,32.0,32.0,32.0,1.0,,,,,,,,,,
0.0,1.0,1.16228,,,,,,rake_06s.jpg,0.0,clockno_default.jpg,6.0,72,,,,,,,,,,,,,,,,,,0.0,33.0,33.0,33.0,1.0,,,,,,,,,,
0.0,1.0,0.71864,,,,,,police_car_01s.jpg,0.0,clockno_default.jpg,6.0,72,,,,,,,,,,,,,,,,,,0.0,34.0,34.0,34.0,1.0,,,,,,,,,,
1.0,1.0,1.94528,,,,,,mop_08s.jpg,1.0,clockno_default.jpg,6.0,72,,,,,,,,,,,,,,,,,,0.0,35.0,35.0,35.0,1.0,,,,,,,,,,
,,,,,,,,,0.0,,,72,0.0,1.0,2.2144,,,,,,orchid_01b.jpg,lamb_04s.jpg,,,,,,,,,,,,,0.0,0.0,0.0,0.0,1.0,,,,,
,,,,,,,,,1.0,,,72,1.0,1.0,1.679995,,,,,,penguin_16s.jpg,gazelle_10s.jpg,,,,,,,,,,,,,0.0,1.0,1.0,1.0,1.0,,,,,
,,,,,,,,,1.0,,,72,0.0,0.0,2.54444,,,,,,bagel_15s.jpg,toaster_03s.jpg,,,,,,,,,,,,,0.0,2.0,2.0,2.0,1.0,,,,,
,,,,,,,,,0.0,,,72,0.0,1.0,1.943855,,,,,,quesadilla_07s.jpg,bonsai_07s.jpg,,,,,,,,,,,,,0.0,3.0,3.0,3.0,1.0,,,,,
,,,,,,,,,0.0,,,72,0.0,1.0,1.573315,,,,,,police_car_01s.jpg,rice_12s.jpg,,,,,,,,,,,,,0.0,4.0,4.0,4.0,1.0,,,,,
,,,,,,,,,1.0,,,72,1.0,1.0,1.90336,,,,,,punch1_10s.jpg,candy_cane_06s.jpg,,,,,,,,,,,,,0.0,5.0,5.0,5.0,1.0,,,,,
,,,,,,,,,,,,72,,,,,,,,,,,,,,,,clockno_present_3_6.xlsx,clockno_compare_task_3_6.xlsx,,,,,,,,,,,0.0,2.0,2.0,2.0,1.0
0.0,1.0,0.85027,,,,,,teacup_07s.jpg,0.0,clockno_up.jpg,1.0,72,,,,,,,,,,,,,,,,,,0.0,0.0,0.0,0.0,1.0,,,,,,,,,,
0.0,1.0,0.65195,,,,,,hummingbird_05s.jpg,0.0,clockno_default.jpg,1.0,72,,,,,,,,,,,,,,,,,,0.0,1.0,1.0,1.0,1.0,,,,,,,,,,
0.0,1.0,0.616315,,,,,,lion_18s.jpg,0.0,clockno_default.jpg,1.0,72,,,,,,,,,,,,,,,,,,0.0,2.0,2.0,2.0,1.0,,,,,,,,,,
1.0,1.0,0.690645,,,,,,lion_18s.jpg,1.0,clockno_default.jpg,1.0,72,,,,,,,,,,,,,,,,,,0.0,3.0,3.0,3.0,1.0,,,,,,,,,,
1.0,1.0,0.754555,,,,,,hummingbird_05s.jpg,1.0,clockno_default.jpg,1.0,72,,,,,,,,,,,,,,,,,,0.0,4.0,4.0,4.0,1.0,,,,,,,,,,
0.0,1.0,1.242275,,,,,,razor_blade_01b.jpg,0.0,clockno_default.jpg,1.0,72,,,,,,,,,,,,,,,,,,0.0,5.0,5.0,5.0,1.0,,,,,,,,,,
0.0,1.0,1.19364,,,,,,ladle_04s.jpg,0.0,clockno_default.jpg,1.0,72,,,,,,,,,,,,,,,,,,0.0,6.0,6.0,6.0,1.0,,,,,,,,,,
0.0,1.0,0.99778,,,,,,typewriter_11s.jpg,0.0,clockno_up.jpg,2.0,72,,,,,,,,,,,,,,,,,,0.0,7.0,7.0,7.0,1.0,,,,,,,,,,
0.0,1.0,0.673455,,,,,,bubble_01b.jpg,0.0,clockno_default.jpg,2.0,72,,,,,,,,,,,,,,,,,,0.0,8.0,8.0,8.0,1.0,,,,,,,,,,
0.0,1.0,1.016435,,,,,,teacup_07s.jpg,0.0,clockno_default.jpg,2.0,72,,,,,,,,,,,,,,,,,,0.0,9.0,9.0,9.0,1.0,,,,,,,,,,
0.0,1.0,0.913765,,,,,,toothpaste_12s.jpg,0.0,clockno_default.jpg,2.0,72,,,,,,,,,,,,,,,,,,0.0,10.0,10.0,10.0,1.0,,,,,,,,,,
0.0,1.0,0.681995,,,,,,loveseat_08s.jpg,0.0,clockno_default.jpg,2.0,72,,,,,,,,,,,,,,,,,,0.0,11.0,11.0,11.0,1.0,,,,,,,,,,
0.0,1.0,0.941675,,,,,,mirror_12s.jpg,0.0,clockno_up.jpg,3.0,72,,,,,,,,,,,,,,,,,,0.0,12.0,12.0,12.0,1.0,,,,,,,,,,
0.0,1.0,1.05281,,,,,,tupperware_09s.jpg,0.0,clockno_default.jpg,3.0,72,,,,,,,,,,,,,,,,,,0.0,13.0,13.0,13.0,1.0,,,,,,,,,,
0.0,1.0,0.87269,,,,,,keyboard_05s.jpg,0.0,clockno_default.jpg,3.0,72,,,,,,,,,,,,,,,,,,0.0,14.0,14.0,14.0,1.0,,,,,,,,,,
0.0,1.0,0.57408,,,,,,diving_board_07s.jpg,0.0,clockno_default.jpg,3.0,72,,,,,,,,,,,,,,,,,,0.0,15.0,15.0,15.0,1.0,,,,,,,,,,
0.0,1.0,1.20497,,,,,,ironing_board_07s.jpg,0.0,clockno_default.jpg,3.0,72,,,,,,,,,,,,,,,,,,0.0,16.0,16.0,16.0,1.0,,,,,,,,,,
0.0,1.0,1.13192,,,,,,ladle_04s.jpg,0.0,clockno_default.jpg,3.0,72,,,,,,,,,,,,,,,,,,0.0,17.0,17.0,17.0,1.0,,,,,,,,,,
0.0,1.0,0.72059,,,,,,treadmill_06s.jpg,0.0,clockno_default.jpg,3.0,72,,,,,,,,,,,,,,,,,,0.0,18.0,18.0,18.0,1.0,,,,,,,,,,
0.0,1.0,0.972785,,,,,,teabag_12s.jpg,0.0,clockno_up.jpg,4.0,72,,,,,,,,,,,,,,,,,,0.0,19.0,19.0,19.0,1.0,,,,,,,,,,
0.0,1.0,0.66683,,,,,,mango_09s.jpg,0.0,clockno_default.jpg,4.0,72,,,,,,,,,,,,,,,,,,0.0,20.0,20.0,20.0,1.0,,,,,,,,,,
0.0,1.0,0.66183,,,,,,memory_stick_11s.jpg,0.0,clockno_default.jpg,4.0,72,,,,,,,,,,,,,,,,,,0.0,21.0,21.0,21.0,1.0,,,,,,,,,,
0.0,1.0,1.075405,,,,,,tuxedo_01b.jpg,0.0,clockno_default.jpg,4.0,72,,,,,,,,,,,,,,,,,,0.0,22.0,22.0,22.0,1.0,,,,,,,,,,
0.0,1.0,0.816175,,,,,,lion_18s.jpg,0.0,clockno_default.jpg,4.0,72,,,,,,,,,,,,,,,,,,0.0,23.0,23.0,23.0,1.0,,,,,,,,,,
0.0,1.0,0.912595,,,,,,lamb_chop_07s.jpg,0.0,clockno_default.jpg,4.0,72,,,,,,,,,,,,,,,,,,0.0,24.0,24.0,24.0,1.0,,,,,,,,,,
0.0,1.0,0.849865,,,,,,crayon_09s.jpg,0.0,clockno_up.jpg,5.0,72,,,,,,,,,,,,,,,,,,0.0,25.0,25.0,25.0,1.0,,,,,,,,,,
0.0,1.0,0.788315,,,,,,squirt_gun_03s.jpg,0.0,clockno_default.jpg,5.0,72,,,,,,,,,,,,,,,,,,0.0,26.0,26.0,26.0,1.0,,,,,,,,,,
0.0,1.0,0.704045,,,,,,tupperware_09s.jpg,0.0,clockno_default.jpg,5.0,72,,,,,,,,,,,,,,,,,,0.0,27.0,27.0,27.0,1.0,,,,,,,,,,
0.0,1.0,0.78518,,,,,,fireworks_18s.jpg,0.0,clockno_default.jpg,5.0,72,,,,,,,,,,,,,,,,,,0.0,28.0,28.0,28.0,1.0,,,,,,,,,,
0.0,1.0,0.88586,,,,,,golf_club_03s.jpg,0.0,clockno_default.jpg,5.0,72,,,,,,,,,,,,,,,,,,0.0,29.0,29.0,29.0,1.0,,,,,,,,,,
0.0,1.0,0.832735,,,,,,keyboard_05s.jpg,0.0,clockno_default.jpg,5.0,72,,,,,,,,,,,,,,,,,,0.0,30.0,30.0,30.0,1.0,,,,,,,,,,
0.0,1.0,1.074175,,,,,,tiara_05s.jpg,0.0,clockno_up.jpg,6.0,72,,,,,,,,,,,,,,,,,,0.0,31.0,31.0,31.0,1.0,,,,,,,,,,
1.0,1.0,0.681495,,,,,,tiara_05s.jpg,1.0,clockno_default.jpg,6.0,72,,,,,,,,,,,,,,,,,,0.0,32.0,32.0,32.0,1.0,,,,,,,,,,
0.0,1.0,0.72176,,,,,,spider_web_03s.jpg,0.0,clockno_default.jpg,6.0,72,,,,,,,,,,,,,,,,,,0.0,33.0,33.0,33.0,1.0,,,,,,,,,,
0.0,1.0,0.879975,,,,,,chopsticks_08s.jpg,0.0,clockno_default.jpg,6.0,72,,,,,,,,,,,,,,,,,,0.0,34.0,34.0,34.0,1.0,,,,,,,,,,
0.0,1.0,0.92842,,,,,,stethoscope_01b.jpg,0.0,clockno_default.jpg,6.0,72,,,,,,,,,,,,,,,,,,0.0,35.0,35.0,35.0,1.0,,,,,,,,,,
,,,,,,,,,1.0,,,72,0.0,0.0,1.90609,,,,,,razor_blade_01b.jpg,bubble_01b.jpg,,,,,,,,,,,,,0.0,0.0,0.0,0.0,1.0,,,,,
,,,,,,,,,1.0,,,72,1.0,1.0,1.488515,,,,,,ironing_board_07s.jpg,teabag_12s.jpg,,,,,,,,,,,,,0.0,1.0,1.0,1.0,1.0,,,,,
,,,,,,,,,1.0,,,72,0.0,0.0,1.62524,,,,,,treadmill_06s.jpg,memory_stick_11s.jpg,,,,,,,,,,,,,0.0,2.0,2.0,2.0,1.0,,,,,
,,,,,,,,,1.0,,,72,0.0,0.0,1.76443,,,,,,typewriter_11s.jpg,toothpaste_12s.jpg,,,,,,,,,,,,,0.0,3.0,3.0,3.0,1.0,,,,,
,,,,,,,,,1.0,,,72,1.0,1.0,1.98179,,,,,,mirror_12s.jpg,diving_board_07s.jpg,,,,,,,,,,,,,0.0,4.0,4.0,4.0,1.0,,,,,
,,,,,,,,,0.0,,,72,1.0,0.0,1.514885,,,,,,golf_club_03s.jpg,squirt_gun_03s.jpg,,,,,,,,,,,,,0.0,5.0,5.0,5.0,1.0,,,,,
,,,,,,,,,,,,72,,,,,,,,,,,,,,,,clockno_present_4_6.xlsx,clockno_compare_task_4_6.xlsx,,,,,,,,,,,0.0,3.0,3.0,3.0,1.0
0.0,1.0,0.85053,,,,,,ice_pack_09s.jpg,0.0,clockno_up.jpg,1.0,72,,,,,,,,,,,,,,,,,,0.0,0.0,0.0,0.0,1.0,,,,,,,,,,
0.0,1.0,0.90772,,,,,,hydrant_10s.jpg,0.0,clockno_default.jpg,1.0,72,,,,,,,,,,,,,,,,,,0.0,1.0,1.0,1.0,1.0,,,,,,,,,,
0.0,1.0,0.763525,,,,,,stapler_01b.jpg,0.0,clockno_default.jpg,1.0,72,,,,,,,,,,,,,,,,,,0.0,2.0,2.0,2.0,1.0,,,,,,,,,,
0.0,1.0,1.117425,,,,,,mitten_10s.jpg,0.0,clockno_default.jpg,1.0,72,,,,,,,,,,,,,,,,,,0.0,3.0,3.0,3.0,1.0,,,,,,,,,,
1.0,1.0,0.928255,,,,,,ice_pack_09s.jpg,1.0,clockno_default.jpg,1.0,72,,,,,,,,,,,,,,,,,,0.0,4.0,4.0,4.0,1.0,,,,,,,,,,
0.0,1.0,0.63235,,,,,,surfboard_11s.jpg,0.0,clockno_up.jpg,2.0,72,,,,,,,,,,,,,,,,,,0.0,5.0,5.0,5.0,1.0,,,,,,,,,,
0.0,1.0,0.85266,,,,,,pepper2_21s.jpg,0.0,clockno_default.jpg,2.0,72,,,,,,,,,,,,,,,,,,0.0,6.0,6.0,6.0,1.0,,,,,,,,,,
0.0,1.0,0.71851,,,,,,raspberry_12s.jpg,0.0,clockno_default.jpg,2.0,72,,,,,,,,,,,,,,,,,,0.0,7.0,7.0,7.0,1.0,,,,,,,,,,
0.0,1.0,0.68125,,,,,,marshmallow_08s.jpg,0.0,clockno_default.jpg,2.0,72,,,,,,,,,,,,,,,,,,0.0,8.0,8.0,8.0,1.0,,,,,,,,,,
0.0,1.0,0.56073,,,,,,lantern_04s.jpg,0.0,clockno_default.jpg,2.0,72,,,,,,,,,,,,,,,,,,0.0,9.0,9.0,9.0,1.0,,,,,,,,,,
0.0,1.0,0.8107,,,,,,tongs_08s.jpg,0.0,clockno_default.jpg,2.0,72,,,,,,,,,,,,,,,,,,0.0,10.0,10.0,10.0,1.0,,,,,,,,,,
0.0,1.0,0.87043,,,,,,scooter.jpg,0.0,clockno_default.jpg,2.0,72,,,,,,,,,,,,,,,,,,0.0,11.0,11.0,11.0,1.0,,,,,,,,,,
0.0,1.0,1.264615,,,,,,pocketknife_12s.jpg,0.0,clockno_up.jpg,3.0,72,,,,,,,,,,,,,,,,,,0.0,12.0,12.0,12.0,1.0,,,,,,,,,,
0.0,1.0,0.957875,,,,,,popcorn_09s.jpg,0.0,clockno_default.jpg,3.0,72,,,,,,,,,,,,,,,,,,0.0,13.0,13.0,13.0,1.0,,,,,,,,,,
0.0,1.0,0.650835,,,,,,panda_02s.jpg,0.0,clockno_default.jpg,3.0,72,,,,,,,,,,,,,,,,,,0.0,14.0,14.0,14.0,1.0,,,,,,,,,,
1.0,1.0,0.681185,,,,,,panda_02s.jpg,1.0,clockno_default.jpg,3.0,72,,,,,,,,,,,,,,,,,,0.0,15.0,15.0,15.0,1.0,,,,,,,,,,
0.0,1.0,1.03733,,,,,,treasure_08s.jpg,0.0,clockno_default.jpg,3.0,72,,,,,,,,,,,,,,,,,,0.0,16.0,16.0,16.0,1.0,,,,,,,,,,
0.0,1.0,1.01815,,,,,,giraffe_11s.jpg,0.0,clockno_up.jpg,4.0,72,,,,,,,,,,,,,,,,,,0.0,17.0,17.0,17.0,1.0,,,,,,,,,,
0.0,1.0,1.08104,,,,,,recliner_02s.jpg,0.0,clockno_default.jpg,4.0,72,,,,,,,,,,,,,,,,,,0.0,18.0,18.0,18.0,1.0,,,,,,,,,,
0.0,1.0,0.667755,,,,,,bolo_tie_08s.jpg,0.0,clockno_default.jpg,4.0,72,,,,,,,,,,,,,,,,,,0.0,19.0,19.0,19.0,1.0,,,,,,,,,,
0.0,1.0,0.569875,,,,,,potpourri_03s.jpg,0.0,clockno_default.jpg,4.0,72,,,,,,,,,,,,,,,,,,0.0,20.0,20.0,20.0,1.0,,,,,,,,,,
0.0,1.0,0.559785,,,,,,money_07s.jpg,0.0,clockno_default.jpg,4.0,72,,,,,,,,,,,,,,,,,,0.0,21.0,21.0,21.0,1.0,,,,,,,,,,
0.0,1.0,0.542425,,,,,,lamp_08s.jpg,0.0,clockno_default.jpg,4.0,72,,,,,,,,,,,,,,,,,,0.0,22.0,22.0,22.0,1.0,,,,,,,,,,
0.0,1.0,0.79671,,,,,,jersey_02s.jpg,0.0,clockno_up.jpg,5.0,72,,,,,,,,,,,,,,,,,,0.0,23.0,23.0,23.0,1.0,,,,,,,,,,
0.0,1.0,0.635035,,,,,,poinsettia_04s.jpg,0.0,clockno_default.jpg,5.0,72,,,,,,,,,,,,,,,,,,0.0,24.0,24.0,24.0,1.0,,,,,,,,,,
1.0,1.0,0.866605,,,,,,jersey_02s.jpg,1.0,clockno_default.jpg,5.0,72,,,,,,,,,,,,,,,,,,0.0,25.0,25.0,25.0,1.0,,,,,,,,,,
0.0,1.0,0.626105,,,,,,mattress_01s.jpg,0.0,clockno_default.jpg,5.0,72,,,,,,,,,,,,,,,,,,0.0,26.0,26.0,26.0,1.0,,,,,,,,,,
0.0,1.0,1.0668,,,,,,pocketknife_12s.jpg,0.0,clockno_default.jpg,5.0,72,,,,,,,,,,,,,,,,,,0.0,27.0,27.0,27.0,1.0,,,,,,,,,,
0.0,1.0,0.689215,,,,,,swan_11s.jpg,0.0,clockno_default.jpg,5.0,72,,,,,,,,,,,,,,,,,,0.0,28.0,28.0,28.0,1.0,,,,,,,,,,
0.0,1.0,0.60594,,,,,,toilet_07s.jpg,0.0,clockno_default.jpg,5.0,72,,,,,,,,,,,,,,,,,,0.0,29.0,29.0,29.0,1.0,,,,,,,,,,
0.0,1.0,0.746175,,,,,,kettle_08s.jpg,0.0,clockno_up.jpg,6.0,72,,,,,,,,,,,,,,,,,,0.0,30.0,30.0,30.0,1.0,,,,,,,,,,
0.0,1.0,0.62245,,,,,,pea_11s.jpg,0.0,clockno_default.jpg,6.0,72,,,,,,,,,,,,,,,,,,0.0,31.0,31.0,31.0,1.0,,,,,,,,,,
0.0,1.0,0.710605,,,,,,tongs_08s.jpg,0.0,clockno_default.jpg,6.0,72,,,,,,,,,,,,,,,,,,0.0,32.0,32.0,32.0,1.0,,,,,,,,,,
0.0,1.0,0.65075,,,,,,turf_03s.jpg,0.0,clockno_default.jpg,6.0,72,,,,,,,,,,,,,,,,,,0.0,33.0,33.0,33.0,1.0,,,,,,,,,,
0.0,1.0,0.58645,,,,,,blowfish_03s.jpg,0.0,clockno_default.jpg,6.0,72,,,,,,,,,,,,,,,,,,0.0,34.0,34.0,34.0,1.0,,,,,,,,,,
0.0,1.0,0.749035,,,,,,rock_08s.jpg,0.0,clockno_default.jpg,6.0,72,,,,,,,,,,,,,,,,,,0.0,35.0,35.0,35.0,1.0,,,,,,,,,,
,,,,,,,,,0.0,,,72,0.0,1.0,2.84462,,,,,,surfboard_11s.jpg,stapler_01b.jpg,,,,,,,,,,,,,0.0,0.0,0.0,0.0,1.0,,,,,
,,,,,,,,,0.0,,,72,1.0,0.0,1.55655,,,,,,pepper2_21s.jpg,mitten_10s.jpg,,,,,,,,,,,,,0.0,1.0,1.0,1.0,1.0,,,,,
,,,,,,,,,1.0,,,72,0.0,0.0,1.20059,,,,,,money_07s.jpg,poinsettia_04s.jpg,,,,,,,,,,,,,0.0,2.0,2.0,2.0,1.0,,,,,
,,,,,,,,,1.0,,,72,1.0,1.0,1.30114,,,,,,marshmallow_08s.jpg,scooter.jpg,,,,,,,,,,,,,0.0,3.0,3.0,3.0,1.0,,,,,
,,,,,,,,,1.0,,,72,0.0,0.0,1.079055,,,,,,giraffe_11s.jpg,potpourri_03s.jpg,,,,,,,,,,,,,0.0,4.0,4.0,4.0,1.0,,,,,
,,,,,,,,,1.0,,,72,0.0,0.0,1.505865,,,,,,mattress_01s.jpg,toilet_07s.jpg,,,,,,,,,,,,,0.0,5.0,5.0,5.0,1.0,,,,,
,,,,,,,,,,,,72,,,,,,,,,,,,,,,,clockno_present_5_6.xlsx,clockno_compare_task_5_6.xlsx,,,,,,,,,,,0.0,4.0,4.0,4.0,1.0
0.0,1.0,0.807055,,,,,,loom_05s.jpg,0.0,clockno_up.jpg,1.0,72,,,,,,,,,,,,,,,,,,0.0,0.0,0.0,0.0,1.0,,,,,,,,,,
1.0,1.0,1.115565,,,,,,loom_05s.jpg,1.0,clockno_default.jpg,1.0,72,,,,,,,,,,,,,,,,,,0.0,1.0,1.0,1.0,1.0,,,,,,,,,,
0.0,1.0,0.78703,,,,,,metronome_03s.jpg,0.0,clockno_default.jpg,1.0,72,,,,,,,,,,,,,,,,,,0.0,2.0,2.0,2.0,1.0,,,,,,,,,,
0.0,1.0,0.98628,,,,,,eiffeltower.jpg,0.0,clockno_default.jpg,1.0,72,,,,,,,,,,,,,,,,,,0.0,3.0,3.0,3.0,1.0,,,,,,,,,,
1.0,1.0,0.81387,,,,,,metronome_03s.jpg,1.0,clockno_default.jpg,1.0,72,,,,,,,,,,,,,,,,,,0.0,4.0,4.0,4.0,1.0,,,,,,,,,,
0.0,1.0,0.6065,,,,,,road_sign_05s.jpg,0.0,clockno_default.jpg,1.0,72,,,,,,,,,,,,,,,,,,0.0,5.0,5.0,5.0,1.0,,,,,,,,,,
0.0,1.0,0.86695,,,,,,comic_book_02s.jpg,0.0,clockno_up.jpg,2.0,72,,,,,,,,,,,,,,,,,,0.0,6.0,6.0,6.0,1.0,,,,,,,,,,
0.0,1.0,0.846645,,,,,,swordfish_05s.jpg,0.0,clockno_default.jpg,2.0,72,,,,,,,,,,,,,,,,,,0.0,7.0,7.0,7.0,1.0,,,,,,,,,,
0.0,1.0,0.712875,,,,,,potholder_02s.jpg,0.0,clockno_default.jpg,2.0,72,,,,,,,,,,,,,,,,,,0.0,8.0,8.0,8.0,1.0,,,,,,,,,,
0.0,1.0,0.59155,,,,,,prism_10s.jpg,0.0,clockno_default.jpg,2.0,72,,,,,,,,,,,,,,,,,,0.0,9.0,9.0,9.0,1.0,,,,,,,,,,
0.0,1.0,0.90552,,,,,,loom_05s.jpg,0.0,clockno_default.jpg,2.0,72,,,,,,,,,,,,,,,,,,0.0,10.0,10.0,10.0,1.0,,,,,,,,,,
0.0,1.0,0.75644,,,,,,trident_07s.jpg,0.0,clockno_up.jpg,3.0,72,,,,,,,,,,,,,,,,,,0.0,11.0,11.0,11.0,1.0,,,,,,,,,,
1.0,1.0,0.884725,,,,,,trident_07s.jpg,1.0,clockno_default.jpg,3.0,72,,,,,,,,,,,,,,,,,,0.0,12.0,12.0,12.0,1.0,,,,,,,,,,
0.0,1.0,0.705465,,,,,,metronome_03s.jpg,0.0,clockno_default.jpg,3.0,72,,,,,,,,,,,,,,,,,,0.0,13.0,13.0,13.0,1.0,,,,,,,,,,
0.0,1.0,0.653585,,,,,,incense_02s.jpg,0.0,clockno_default.jpg,3.0,72,,,,,,,,,,,,,,,,,,0.0,14.0,14.0,14.0,1.0,,,,,,,,,,
0.0,1.0,0.54786,,,,,,seahorse_13s.jpg,0.0,clockno_default.jpg,3.0,72,,,,,,,,,,,,,,,,,,0.0,15.0,15.0,15.0,1.0,,,,,,,,,,
0.0,1.0,0.66967,,,,,,ice-cream_cone_06s.jpg,0.0,clockno_up.jpg,4.0,72,,,,,,,,,,,,,,,,,,0.0,16.0,16.0,16.0,1.0,,,,,,,,,,
0.0,1.0,0.58942,,,,,,lemonade_04s.jpg,0.0,clockno_default.jpg,4.0,72,,,,,,,,,,,,,,,,,,0.0,17.0,17.0,17.0,1.0,,,,,,,,,,
1.0,1.0,0.702395,,,,,,lemonade_04s.jpg,1.0,clockno_default.jpg,4.0,72,,,,,,,,,,,,,,,,,,0.0,18.0,18.0,18.0,1.0,,,,,,,,,,
0.0,1.0,0.633435,,,,,,thread_08s.jpg,0.0,clockno_default.jpg,4.0,72,,,,,,,,,,,,,,,,,,0.0,19.0,19.0,19.0,1.0,,,,,,,,,,
0.0,1.0,0.57132,,,,,,measuring_cup_02s.jpg,0.0,clockno_default.jpg,4.0,72,,,,,,,,,,,,,,,,,,0.0,20.0,20.0,20.0,1.0,,,,,,,,,,
1.0,1.0,0.81346,,,,,,measuring_cup_02s.jpg,1.0,clockno_default.jpg,4.0,72,,,,,,,,,,,,,,,,,,0.0,21.0,21.0,21.0,1.0,,,,,,,,,,
0.0,1.0,0.58347,,,,,,duck_01b.jpg,0.0,clockno_default.jpg,4.0,72,,,,,,,,,,,,,,,,,,0.0,22.0,22.0,22.0,1.0,,,,,,,,,,
0.0,1.0,0.83787,,,,,,owl_15s.jpg,0.0,clockno_up.jpg,5.0,72,,,,,,,,,,,,,,,,,,0.0,23.0,23.0,23.0,1.0,,,,,,,,,,
0.0,1.0,0.730035,,,,,,paper_towel_03s.jpg,0.0,clockno_default.jpg,5.0,72,,,,,,,,,,,,,,,,,,0.0,24.0,24.0,24.0,1.0,,,,,,,,,,
0.0,1.0,0.84718,,,,,,pillow_03s.jpg,0.0,clockno_default.jpg,5.0,72,,,,,,,,,,,,,,,,,,0.0,25.0,25.0,25.0,1.0,,,,,,,,,,
0.0,1.0,0.58229,,,,,,phone_01b.jpg,0.0,clockno_default.jpg,5.0,72,,,,,,,,,,,,,,,,,,0.0,26.0,26.0,26.0,1.0,,,,,,,,,,
0.0,1.0,0.74992,,,,,,plug_08s.jpg,0.0,clockno_default.jpg,5.0,72,,,,,,,,,,,,,,,,,,0.0,27.0,27.0,27.0,1.0,,,,,,,,,,
0.0,1.0,0.699505,,,,,,triangle_10s.jpg,0.0,clockno_default.jpg,5.0,72,,,,,,,,,,,,,,,,,,0.0,28.0,28.0,28.0,1.0,,,,,,,,,,
0.0,1.0,1.200485,,,,,,moth_06n.jpg,0.0,clockno_up.jpg,6.0,72,,,,,,,,,,,,,,,,,,0.0,29.0,29.0,29.0,1.0,,,,,,,,,,
0.0,1.0,1.01028,,,,,,umbrella_15s.jpg,0.0,clockno_default.jpg,6.0,72,,,,,,,,,,,,,,,,,,0.0,30.0,30.0,30.0,1.0,,,,,,,,,,
0.0,1.0,0.74904,,,,,,penlight_12s.jpg,0.0,clockno_default.jpg,6.0,72,,,,,,,,,,,,,,,,,,0.0,31.0,31.0,31.0,1.0,,,,,,,,,,
0.0,1.0,0.638755,,,,,,tuba_12s.jpg,0.0,clockno_default.jpg,6.0,72,,,,,,,,,,,,,,,,,,0.0,32.0,32.0,32.0,1.0,,,,,,,,,,
0.0,1.0,0.60277,,,,,,squirrel_02s.jpg,0.0,clockno_default.jpg,6.0,72,,,,,,,,,,,,,,,,,,0.0,33.0,33.0,33.0,1.0,,,,,,,,,,
0.0,1.0,1.00805,,,,,,iron_13s.jpg,0.0,clockno_default.jpg,6.0,72,,,,,,,,,,,,,,,,,,0.0,34.0,34.0,34.0,1.0,,,,,,,,,,
0.0,1.0,0.579845,,,,,,ram_05s.jpg,0.0,clockno_default.jpg,6.0,72,,,,,,,,,,,,,,,,,,0.0,35.0,35.0,35.0,1.0,,,,,,,,,,
,,,,,,,,,0.0,,,72,1.0,0.0,1.818115,,,,,,potholder_02s.jpg,road_sign_05s.jpg,,,,,,,,,,,,,0.0,0.0,0.0,0.0,1.0,,,,,
,,,,,,,,,1.0,,,72,1.0,1.0,4.55904,,,,,,eiffeltower.jpg,comic_book_02s.jpg,,,,,,,,,,,,,0.0,1.0,1.0,1.0,1.0,,,,,
,,,,,,,,,1.0,,,72,1.0,1.0,1.634175,,,,,,duck_01b.jpg,pillow_03s.jpg,,,,,,,,,,,,,0.0,2.0,2.0,2.0,1.0,,,,,
,,,,,,,,,1.0,,,72,1.0,1.0,1.60446,,,,,,ice-cream_cone_06s.jpg,thread_08s.jpg,,,,,,,,,,,,,0.0,3.0,3.0,3.0,1.0,,,,,
,,,,,,,,,0.0,,,72,1.0,0.0,1.81637,,,,,,ram_05s.jpg,tuba_12s.jpg,,,,,,,,,,,,,0.0,4.0,4.0,4.0,1.0,,,,,
,,,,,,,,,0.0,,,72,0.0,1.0,2.095035,,,,,,phone_01b.jpg,owl_15s.jpg,,,,,,,,,,,,,0.0,5.0,5.0,5.0,1.0,,,,,
