key_resp.keys,key_resp.corr,key_resp.rt,present_segment.thisRepN,present_segment.thisTrialN,present_segment.thisN,present_segment.thisIndex,present_segment.ran,pictures,answer,clock,segment,participant,key_resp_2.keys,key_resp_2.corr,key_resp_2.rt,compare_segment.thisRepN,compare_segment.thisTrialN,compare_segment.thisN,compare_segment.thisIndex,compare_segment.ran,item_a,item_b,clock_conditions.thisRepN,clock_conditions.thisTrialN,clock_conditions.thisN,clock_conditions.thisIndex,clock_conditions.ran,present,compare,noclock_present.thisRepN,noclock_present.thisTrialN,noclock_present.thisN,noclock_present.thisIndex,noclock_present.ran,noclock_compare.thisRepN,noclock_compare.thisTrialN,noclock_compare.thisN,noclock_compare.thisIndex,noclock_compare.ran,noclock_conditions.thisRepN,noclock_conditions.thisTrialN,noclock_conditions.thisN,noclock_conditions.thisIndex,noclock_conditions.ran
0.0,1.0,2.4742,0.0,0.0,0.0,0.0,1.0,snowman_02s.jpg,0.0,clock_6_1.png,1.0,20,,,,,,,,,,,,,,,,,,,,,,,,,,,,,,,,
0.0,1.0,1.960115,0.0,1.0,1.0,1.0,1.0,juicer1_08s.jpg,0.0,clock_6_2.png,1.0,20,,,,,,,,,,,,,,,,,,,,,,,,,,,,,,,,
1.0,1.0,2.253995,0.0,2.0,2.0,2.0,1.0,juicer1_08s.jpg,1.0,clock_6_3.png,1.0,20,,,,,,,,,,,,,,,,,,,,,,,,,,,,,,,,
0.0,1.0,2.445825,0.0,3.0,3.0,3.0,1.0,comic_book_02s.jpg,0.0,clock_6_4.png,1.0,20,,,,,,,,,,,,,,,,,,,,,,,,,,,,,,,,
1.0,1.0,2.21301,0.0,4.0,4.0,4.0,1.0,comic_book_02s.jpg,1.0,clock_6_5.png,1.0,20,,,,,,,,,,,,,,,,,,,,,,,,,,,,,,,,
0.0,1.0,2.35523,0.0,5.0,5.0,5.0,1.0,rug_09s.jpg,0.0,clock_6_6.png,1.0,20,,,,,,,,,,,,,,,,,,,,,,,,,,,,,,,,
0.0,1.0,2.36217,0.0,6.0,6.0,6.0,1.0,boomerang_06s.jpg,0.0,clock_5_1.png,2.0,20,,,,,,,,,,,,,,,,,,,,,,,,,,,,,,,,
0.0,1.0,2.18693,0.0,7.0,7.0,7.0,1.0,tongs_08s.jpg,0.0,clock_5_2.png,2.0,20,,,,,,,,,,,,,,,,,,,,,,,,,,,,,,,,
0.0,1.0,2.2239,0.0,8.0,8.0,8.0,1.0,crayon_09s.jpg,0.0,clock_5_3.png,2.0,20,,,,,,,,,,,,,,,,,,,,,,,,,,,,,,,,
0.0,1.0,2.38223,0.0,9.0,9.0,9.0,1.0,smokingpipe.jpg,0.0,clock_5_4.png,2.0,20,,,,,,,,,,,,,,,,,,,,,,,,,,,,,,,,
0.0,1.0,2.372755,0.0,10.0,10.0,10.0,1.0,safety_pin_02s.jpg,0.0,clock_5_5.png,2.0,20,,,,,,,,,,,,,,,,,,,,,,,,,,,,,,,,
0.0,1.0,2.425555,0.0,11.0,11.0,11.0,1.0,quesadilla_07s.jpg,0.0,clock_6_1.png,3.0,20,,,,,,,,,,,,,,,,,,,,,,,,,,,,,,,,
1.0,1.0,2.277325,0.0,12.0,12.0,12.0,1.0,quesadilla_07s.jpg,1.0,clock_6_2.png,3.0,20,,,,,,,,,,,,,,,,,,,,,,,,,,,,,,,,
1.0,1.0,2.044665,0.0,13.0,13.0,13.0,1.0,quesadilla_07s.jpg,1.0,clock_6_3.png,3.0,20,,,,,,,,,,,,,,,,,,,,,,,,,,,,,,,,
0.0,1.0,2.203125,0.0,14.0,14.0,14.0,1.0,letter_opener_03s.jpg,0.0,clock_6_4.png,3.0,20,,,,,,,,,,,,,,,,,,,,,,,,,,,,,,,,
0.0,1.0,2.234615,0.0,15.0,15.0,15.0,1.0,feather02.jpg,0.0,clock_6_5.png,3.0,20,,,,,,,,,,,,,,,,,,,,,,,,,,,,,,,,
0.0,1.0,2.31583,0.0,16.0,16.0,16.0,1.0,tongs_08s.jpg,0.0,clock_6_6.png,3.0,20,,,,,,,,,,,,,,,,,,,,,,,,,,,,,,,,
0.0,1.0,2.257035,0.0,17.0,17.0,17.0,1.0,bathtub_23s.jpg,0.0,clock_5_1.png,4.0,20,,,,,,,,,,,,,,,,,,,,,,,,,,,,,,,,
0.0,1.0,2.13959,0.0,18.0,18.0,18.0,1.0,tongs_08s.jpg,0.0,clock_5_2.png,4.0,20,,,,,,,,,,,,,,,,,,,,,,,,,,,,,,,,
0.0,1.0,2.26038,0.0,19.0,19.0,19.0,1.0,loom_05s.jpg,0.0,clock_5_3.png,4.0,20,,,,,,,,,,,,,,,,,,,,,,,,,,,,,,,,
0.0,1.0,2.458165,0.0,20.0,20.0,20.0,1.0,light_switch_02s.jpg,0.0,clock_5_4.png,4.0,20,,,,,,,,,,,,,,,,,,,,,,,,,,,,,,,,
1.0,1.0,2.15564,0.0,21.0,21.0,21.0,1.0,light_switch_02s.jpg,1.0,clock_5_5.png,4.0,20,,,,,,,,,,,,,,,,,,,,,,,,,,,,,,,,
0.0,1.0,2.30465,0.0,22.0,22.0,22.0,1.0,swing_set_15s.jpg,0.0,clock_7_1.png,5.0,20,,,,,,,,,,,,,,,,,,,,,,,,,,,,,,,,
0.0,1.0,2.367125,0.0,23.0,23.0,23.0,1.0,frog_09s.jpg,0.0,clock_7_2.png,5.0,20,,,,,,,,,,,,,,,,,,,,,,,,,,,,,,,,
0.0,1.0,2.230155,0.0,24.0,24.0,24.0,1.0,olive_05s.jpg,0.0,clock_7_3.png,5.0,20,,,,,,,,,,,,,,,,,,,,,,,,,,,,,,,,
0.0,1.0,2.37665,0.0,25.0,25.0,25.0,1.0,safety_pin_02s.jpg,0.0,clock_7_4.png,5.0,20,,,,,,,,,,,,,,,,,,,,,,,,,,,,,,,,
0.0,1.0,1.80271,0.0,26.0,26.0,26.0,1.0,espresso_01b.jpg,0.0,clock_7_5.png,5.0,20,,,,,,,,,,,,,,,,,,,,,,,,,,,,,,,,
0.0,1.0,2.352085,0.0,27.0,27.0,27.0,1.0,doily_13s.jpg,0.0,clock_7_6.png,5.0,20,,,,,,,,,,,,,,,,,,,,,,,,,,,,,,,,
0.0,1.0,2.187635,0.0,28.0,28.0,28.0,1.0,punch2_09s.jpg,0.0,clock_7_7.png,5.0,20,,,,,,,,,,,,,,,,,,,,,,,,,,,,,,,,
0.0,1.0,2.32712,0.0,29.0,29.0,29.0,1.0,keyboard_05s.jpg,0.0,clock_7_1.png,6.0,20,,,,,,,,,,,,,,,,,,,,,,,,,,,,,,,,
0.0,1.0,2.000775,0.0,30.0,30.0,30.0,1.0,lollipop_08s.jpg,0.0,clock_7_2.png,6.0,20,,,,,,,,,,,,,,,,,,,,,,,,,,,,,,,,
0.0,1.0,2.148295,0.0,31.0,31.0,31.0,1.0,soccer_ball_12s.jpg,0.0,clock_7_3.png,6.0,20,,,,,,,,,,,,,,,,,,,,,,,,,,,,,,,,
0.0,0.0,2.451565,0.0,32.0,32.0,32.0,1.0,keyboard_05s.jpg,1.0,clock_7_4.png,6.0,20,,,,,,,,,,,,,,,,,,,,,,,,,,,,,,,,
0.0,1.0,2.43982,0.0,33.0,33.0,33.0,1.0,aluminum_foil_08s.jpg,0.0,clock_7_5.png,6.0,20,,,,,,,,,,,,,,,,,,,,,,,,,,,,,,,,
0.0,1.0,2.331235,0.0,34.0,34.0,34.0,1.0,peach_04s.jpg,0.0,clock_7_6.png,6.0,20,,,,,,,,,,,,,,,,,,,,,,,,,,,,,,,,
0.0,1.0,2.20183,0.0,35.0,35.0,35.0,1.0,binder_21s.jpg,0.0,clock_7_7.png,6.0,20,,,,,,,,,,,,,,,,,,,,,,,,,,,,,,,,
,,,,,,,,,1.0,,,20,0.0,0.0,1.35971,0.0,0.0,0.0,0.0,1.0,rug_09s.jpg,crayon_09s.jpg,,,,,,,,,,,,,,,,,,,,,,
,,,,,,,,,0.0,,,20,1.0,0.0,1.73279,0.0,1.0,1.0,1.0,1.0,bathtub_23s.jpg,letter_opener_03s.jpg,,,,,,,,,,,,,,,,,,,,,,
,,,,,,,,,0.0,,,20,0.0,1.0,1.695345,0.0,2.0,2.0,2.0,1.0,swing_set_15s.jpg,loom_05s.jpg,,,,,,,,,,,,,,,,,,,,,,
,,,,,,,,,1.0,,,20,1.0,1.0,1.105805,0.0,3.0,3.0,3.0,1.0,boomerang_06s.jpg,smokingpipe.jpg,,,,,,,,,,,,,,,,,,,,,,
,,,,,,,,,1.0,,,20,1.0,1.0,1.82183,0.0,4.0,4.0,4.0,1.0,frog_09s.jpg,espresso_01b.jpg,,,,,,,,,,,,,,,,,,,,,,
,,,,,,,,,1.0,,,20,1.0,1.0,1.440625,0.0,5.0,5.0,5.0,1.0,olive_05s.jpg,doily_13s.jpg,,,,,,,,,,,,,,,,,,,,,,
,,,,,,,,,,,,20,,,,,,,,,,,0.0,0.0,0.0,0.0,1.0,clock_present_1_12.xlsx,clock_compare_task_1_12.xlsx,,,,,,,,,,,,,,,
0.0,1.0,2.415645,0.0,0.0,0.0,0.0,1.0,lasagna_06s.jpg,0.0,clock_5_1.png,1.0,20,,,,,,,,,,,,,,,,,,,,,,,,,,,,,,,,
1.0,1.0,2.36798,0.0,1.0,1.0,1.0,1.0,lasagna_06s.jpg,1.0,clock_5_2.png,1.0,20,,,,,,,,,,,,,,,,,,,,,,,,,,,,,,,,
0.0,1.0,2.4622,0.0,2.0,2.0,2.0,1.0,triangle_10s.jpg,0.0,clock_5_3.png,1.0,20,,,,,,,,,,,,,,,,,,,,,,,,,,,,,,,,
0.0,1.0,2.289735,0.0,3.0,3.0,3.0,1.0,recliner_02s.jpg,0.0,clock_5_4.png,1.0,20,,,,,,,,,,,,,,,,,,,,,,,,,,,,,,,,
0.0,1.0,2.398655,0.0,4.0,4.0,4.0,1.0,tab_09s.jpg,0.0,clock_5_5.png,1.0,20,,,,,,,,,,,,,,,,,,,,,,,,,,,,,,,,
0.0,1.0,2.30768,0.0,5.0,5.0,5.0,1.0,crate_05s.jpg,0.0,clock_6_1.png,2.0,20,,,,,,,,,,,,,,,,,,,,,,,,,,,,,,,,
0.0,1.0,2.452925,0.0,6.0,6.0,6.0,1.0,jukebox_03n.jpg,0.0,clock_6_2.png,2.0,20,,,,,,,,,,,,,,,,,,,,,,,,,,,,,,,,
0.0,1.0,1.75024,0.0,7.0,7.0,7.0,1.0,possum_09s.jpg,0.0,clock_6_3.png,2.0,20,,,,,,,,,,,,,,,,,,,,,,,,,,,,,,,,
0.0,1.0,2.177615,0.0,8.0,8.0,8.0,1.0,spacesuit_02s.jpg,0.0,clock_6_4.png,2.0,20,,,,,,,,,,,,,,,,,,,,,,,,,,,,,,,,
0.0,1.0,2.21904,0.0,9.0,9.0,9.0,1.0,recliner_02s.jpg,0.0,clock_6_5.png,2.0,20,,,,,,,,,,,,,,,,,,,,,,,,,,,,,,,,
1.0,0.0,1.494975,0.0,10.0,10.0,10.0,1.0,tab_09s.jpg,0.0,clock_6_6.png,2.0,20,,,,,,,,,,,,,,,,,,,,,,,,,,,,,,,,
0.0,1.0,2.23863,0.0,11.0,11.0,11.0,1.0,key_07s.jpg,0.0,clock_7_1.png,3.0,20,,,,,,,,,,,,,,,,,,,,,,,,,,,,,,,,
0.0,1.0,2.43361,0.0,12.0,12.0,12.0,1.0,badge_03s.jpg,0.0,clock_7_2.png,3.0,20,,,,,,,,,,,,,,,,,,,,,,,,,,,,,,,,
0.0,1.0,2.366015,0.0,13.0,13.0,13.0,1.0,fire_alarm_05s.jpg,0.0,clock_7_3.png,3.0,20,,,,,,,,,,,,,,,,,,,,,,,,,,,,,,,,
0.0,1.0,2.39017,0.0,14.0,14.0,14.0,1.0,fishhook_06s.jpg,0.0,clock_7_4.png,3.0,20,,,,,,,,,,,,,,,,,,,,,,,,,,,,,,,,
0.0,1.0,2.174905,0.0,15.0,15.0,15.0,1.0,tuxedo_01b.jpg,0.0,clock_7_5.png,3.0,20,,,,,,,,,,,,,,,,,,,,,,,,,,,,,,,,
0.0,1.0,2.45402,0.0,16.0,16.0,16.0,1.0,jukebox_03n.jpg,0.0,clock_7_6.png,3.0,20,,,,,,,,,,,,,,,,,,,,,,,,,,,,,,,,
0.0,1.0,2.1967,0.0,17.0,17.0,17.0,1.0,treasure_08s.jpg,0.0,clock_7_7.png,3.0,20,,,,,,,,,,,,,,,,,,,,,,,,,,,,,,,,
0.0,1.0,2.204055,0.0,18.0,18.0,18.0,1.0,tie_03s.jpg,0.0,clock_6_1.png,4.0,20,,,,,,,,,,,,,,,,,,,,,,,,,,,,,,,,
0.0,1.0,2.29968,0.0,19.0,19.0,19.0,1.0,lamb_04s.jpg,0.0,clock_6_2.png,4.0,20,,,,,,,,,,,,,,,,,,,,,,,,,,,,,,,,
0.0,1.0,2.473105,0.0,20.0,20.0,20.0,1.0,hummingbird_05s.jpg,0.0,clock_6_3.png,4.0,20,,,,,,,,,,,,,,,,,,,,,,,,,,,,,,,,
0.0,1.0,2.23155,0.0,21.0,21.0,21.0,1.0,glasses01a.jpg,0.0,clock_6_4.png,4.0,20,,,,,,,,,,,,,,,,,,,,,,,,,,,,,,,,
0.0,1.0,2.302455,0.0,22.0,22.0,22.0,1.0,puck_06s.jpg,0.0,clock_6_5.png,4.0,20,,,,,,,,,,,,,,,,,,,,,,,,,,,,,,,,
0.0,1.0,2.38213,0.0,23.0,23.0,23.0,1.0,mold2_04s.jpg,0.0,clock_6_6.png,4.0,20,,,,,,,,,,,,,,,,,,,,,,,,,,,,,,,,
0.0,1.0,2.43482,0.0,24.0,24.0,24.0,1.0,pocket_watch_16s.jpg,0.0,clock_5_1.png,5.0,20,,,,,,,,,,,,,,,,,,,,,,,,,,,,,,,,
0.0,1.0,2.3379,0.0,25.0,25.0,25.0,1.0,recliner_02s.jpg,0.0,clock_5_2.png,5.0,20,,,,,,,,,,,,,,,,,,,,,,,,,,,,,,,,
1.0,1.0,2.448635,0.0,26.0,26.0,26.0,1.0,pocket_watch_16s.jpg,1.0,clock_5_3.png,5.0,20,,,,,,,,,,,,,,,,,,,,,,,,,,,,,,,,
0.0,1.0,2.416505,0.0,27.0,27.0,27.0,1.0,prism_10s.jpg,0.0,clock_5_4.png,5.0,20,,,,,,,,,,,,,,,,,,,,,,,,,,,,,,,,
0.0,1.0,2.283175,0.0,28.0,28.0,28.0,1.0,piggy_bank_02s.jpg,0.0,clock_5_5.png,5.0,20,,,,,,,,,,,,,,,,,,,,,,,,,,,,,,,,
0.0,1.0,2.222725,0.0,29.0,29.0,29.0,1.0,dashboard_02s.jpg,0.0,clock_7_1.png,6.0,20,,,,,,,,,,,,,,,,,,,,,,,,,,,,,,,,
1.0,1.0,2.2507,0.0,30.0,30.0,30.0,1.0,dashboard_02s.jpg,1.0,clock_7_2.png,6.0,20,,,,,,,,,,,,,,,,,,,,,,,,,,,,,,,,
0.0,1.0,2.45832,0.0,31.0,31.0,31.0,1.0,beaker_01b.jpg,0.0,clock_7_3.png,6.0,20,,,,,,,,,,,,,,,,,,,,,,,,,,,,,,,,
0.0,1.0,2.20687,0.0,32.0,32.0,32.0,1.0,fondue_07s.jpg,0.0,clock_7_4.png,6.0,20,,,,,,,,,,,,,,,,,,,,,,,,,,,,,,,,
0.0,1.0,2.407895,0.0,33.0,33.0,33.0,1.0,seagull_01b.jpg,0.0,clock_7_5.png,6.0,20,,,,,,,,,,,,,,,,,,,,,,,,,,,,,,,,
1.0,1.0,2.32744,0.0,34.0,34.0,34.0,1.0,seagull_01b.jpg,1.0,clock_7_6.png,6.0,20,,,,,,,,,,,,,,,,,,,,,,,,,,,,,,,,
0.0,0.0,2.260345,0.0,35.0,35.0,35.0,1.0,beaker_01b.jpg,1.0,clock_7_7.png,6.0,20,,,,,,,,,,,,,,,,,,,,,,,,,,,,,,,,
,,,,,,,,,1.0,,,20,1.0,1.0,1.241025,0.0,0.0,0.0,0.0,1.0,triangle_10s.jpg,crate_05s.jpg,,,,,,,,,,,,,,,,,,,,,,
,,,,,,,,,1.0,,,20,1.0,1.0,1.11991,0.0,1.0,1.0,1.0,1.0,spacesuit_02s.jpg,key_07s.jpg,,,,,,,,,,,,,,,,,,,,,,
,,,,,,,,,1.0,,,20,0.0,0.0,1.825215,0.0,2.0,2.0,2.0,1.0,tuxedo_01b.jpg,tie_03s.jpg,,,,,,,,,,,,,,,,,,,,,,
,,,,,,,,,1.0,,,20,1.0,1.0,1.840615,0.0,3.0,3.0,3.0,1.0,lamb_04s.jpg,puck_06s.jpg,,,,,,,,,,,,,,,,,,,,,,
,,,,,,,,,0.0,,,20,1.0,0.0,2.013445,0.0,4.0,4.0,4.0,1.0,treasure_08s.jpg,fishhook_06s.jpg,,,,,,,,,,,,,,,,,,,,,,
,,,,,,,,,1.0,,,20,0.0,0.0,1.321035,0.0,5.0,5.0,5.0,1.0,hummingbird_05s.jpg,mold2_04s.jpg,,,,,,,,,,,,,,,,,,,,,,
,,,,,,,,,,,,20,,,,,,,,,,,0.0,1.0,1.0,1.0,1.0,clock_present_2_12.xlsx,clock_compare_task_2_12.xlsx,,,,,,,,,,,,,,,
0.0,1.0,2.16058,0.0,0.0,0.0,0.0,1.0,piano_13n.jpg,0.0,clock_7_1.png,1.0,20,,,,,,,,,,,,,,,,,,,,,,,,,,,,,,,,
0.0,1.0,2.323015,0.0,1.0,1.0,1.0,1.0,pincushion_10s.jpg,0.0,clock_7_2.png,1.0,20,,,,,,,,,,,,,,,,,,,,,,,,,,,,,,,,
0.0,1.0,2.27416,0.0,2.0,2.0,2.0,1.0,lid_10s.jpg,0.0,clock_7_3.png,1.0,20,,,,,,,,,,,,,,,,,,,,,,,,,,,,,,,,
0.0,1.0,2.25621,0.0,3.0,3.0,3.0,1.0,ivy_12s.jpg,0.0,clock_7_4.png,1.0,20,,,,,,,,,,,,,,,,,,,,,,,,,,,,,,,,
1.0,1.0,2.447125,0.0,4.0,4.0,4.0,1.0,piano_13n.jpg,1.0,clock_7_5.png,1.0,20,,,,,,,,,,,,,,,,,,,,,,,,,,,,,,,,
0.0,1.0,2.210905,0.0,5.0,5.0,5.0,1.0,insole_11s.jpg,0.0,clock_7_6.png,1.0,20,,,,,,,,,,,,,,,,,,,,,,,,,,,,,,,,
0.0,1.0,2.367635,0.0,6.0,6.0,6.0,1.0,outlet_10s.jpg,0.0,clock_7_7.png,1.0,20,,,,,,,,,,,,,,,,,,,,,,,,,,,,,,,,
0.0,1.0,2.335945,0.0,7.0,7.0,7.0,1.0,coconut_08s.jpg,0.0,clock_5_1.png,2.0,20,,,,,,,,,,,,,,,,,,,,,,,,,,,,,,,,
0.0,1.0,2.3224,0.0,8.0,8.0,8.0,1.0,rocket_02s.jpg,0.0,clock_5_2.png,2.0,20,,,,,,,,,,,,,,,,,,,,,,,,,,,,,,,,
1.0,1.0,2.19256,0.0,9.0,9.0,9.0,1.0,coconut_08s.jpg,1.0,clock_5_3.png,2.0,20,,,,,,,,,,,,,,,,,,,,,,,,,,,,,,,,
0.0,1.0,2.24014,0.0,10.0,10.0,10.0,1.0,pillbox_04s.jpg,0.0,clock_5_4.png,2.0,20,,,,,,,,,,,,,,,,,,,,,,,,,,,,,,,,
0.0,1.0,2.384695,0.0,11.0,11.0,11.0,1.0,glue_01s.jpg,0.0,clock_5_5.png,2.0,20,,,,,,,,,,,,,,,,,,,,,,,,,,,,,,,,
0.0,1.0,2.46261,0.0,12.0,12.0,12.0,1.0,syringe_02s.jpg,0.0,clock_7_1.png,3.0,20,,,,,,,,,,,,,,,,,,,,,,,,,,,,,,,,
1.0,1.0,2.40117,0.0,13.0,13.0,13.0,1.0,syringe_02s.jpg,1.0,clock_7_2.png,3.0,20,,,,,,,,,,,,,,,,,,,,,,,,,,,,,,,,
0.0,1.0,2.447025,0.0,14.0,14.0,14.0,1.0,stopwatch_04s.jpg,0.0,clock_7_3.png,3.0,20,,,,,,,,,,,,,,,,,,,,,,,,,,,,,,,,
0.0,1.0,2.156525,0.0,15.0,15.0,15.0,1.0,mud_13s.jpg,0.0,clock_7_4.png,3.0,20,,,,,,,,,,,,,,,,,,,,,,,,,,,,,,,,
0.0,1.0,2.4294,0.0,16.0,16.0,16.0,1.0,blender_08s.jpg,0.0,clock_7_5.png,3.0,20,,,,,,,,,,,,,,,,,,,,,,,,,,,,,,,,
0.0,1.0,2.31539,0.0,17.0,17.0,17.0,1.0,roller_coaster_07s.jpg,0.0,clock_7_6.png,3.0,20,,,,,,,,,,,,,,,,,,,,,,,,,,,,,,,,
0.0,0.0,2.377465,0.0,18.0,18.0,18.0,1.0,syringe_02s.jpg,1.0,clock_7_7.png,3.0,20,,,,,,,,,,,,,,,,,,,,,,,,,,,,,,,,
0.0,1.0,2.208885,0.0,19.0,19.0,19.0,1.0,pineapple_12s.jpg,0.0,clock_5_1.png,4.0,20,,,,,,,,,,,,,,,,,,,,,,,,,,,,,,,,
1.0,1.0,2.32251,0.0,20.0,20.0,20.0,1.0,pineapple_12s.jpg,1.0,clock_5_2.png,4.0,20,,,,,,,,,,,,,,,,,,,,,,,,,,,,,,,,
0.0,1.0,2.2873,0.0,21.0,21.0,21.0,1.0,target_11s.jpg,0.0,clock_5_3.png,4.0,20,,,,,,,,,,,,,,,,,,,,,,,,,,,,,,,,
1.0,1.0,2.363715,0.0,22.0,22.0,22.0,1.0,target_11s.jpg,1.0,clock_5_4.png,4.0,20,,,,,,,,,,,,,,,,,,,,,,,,,,,,,,,,
1.0,1.0,2.231555,0.0,23.0,23.0,23.0,1.0,target_11s.jpg,1.0,clock_5_5.png,4.0,20,,,,,,,,,,,,,,,,,,,,,,,,,,,,,,,,
0.0,1.0,2.392935,0.0,24.0,24.0,24.0,1.0,bolo_tie_08s.jpg,0.0,clock_6_1.png,5.0,20,,,,,,,,,,,,,,,,,,,,,,,,,,,,,,,,
0.0,1.0,2.373795,0.0,25.0,25.0,25.0,1.0,screwdriver02a.jpg,0.0,clock_6_2.png,5.0,20,,,,,,,,,,,,,,,,,,,,,,,,,,,,,,,,
0.0,1.0,2.47519,0.0,26.0,26.0,26.0,1.0,stingray_02s.jpg,0.0,clock_6_3.png,5.0,20,,,,,,,,,,,,,,,,,,,,,,,,,,,,,,,,
0.0,1.0,2.371235,0.0,27.0,27.0,27.0,1.0,mango_09s.jpg,0.0,clock_6_4.png,5.0,20,,,,,,,,,,,,,,,,,,,,,,,,,,,,,,,,
0.0,1.0,2.432195,0.0,28.0,28.0,28.0,1.0,stethoscope_01b.jpg,0.0,clock_6_5.png,5.0,20,,,,,,,,,,,,,,,,,,,,,,,,,,,,,,,,
0.0,1.0,2.266595,0.0,29.0,29.0,29.0,1.0,mannequin_05s.jpg,0.0,clock_6_6.png,5.0,20,,,,,,,,,,,,,,,,,,,,,,,,,,,,,,,,
0.0,1.0,2.17597,0.0,30.0,30.0,30.0,1.0,ginger_09s.jpg,0.0,clock_6_1.png,6.0,20,,,,,,,,,,,,,,,,,,,,,,,,,,,,,,,,
0.0,1.0,2.40557,0.0,31.0,31.0,31.0,1.0,ice-cream_cone_06s.jpg,0.0,clock_6_2.png,6.0,20,,,,,,,,,,,,,,,,,,,,,,,,,,,,,,,,
0.0,1.0,2.19058,0.0,32.0,32.0,32.0,1.0,rolling_pin_02s.jpg,0.0,clock_6_3.png,6.0,20,,,,,,,,,,,,,,,,,,,,,,,,,,,,,,,,
1.0,1.0,2.16207,0.0,33.0,33.0,33.0,1.0,rolling_pin_02s.jpg,1.0,clock_6_4.png,6.0,20,,,,,,,,,,,,,,,,,,,,,,,,,,,,,,,,
1.0,1.0,2.078875,0.0,34.0,34.0,34.0,1.0,ginger_09s.jpg,1.0,clock_6_5.png,6.0,20,,,,,,,,,,,,,,,,,,,,,,,,,,,,,,,,
0.0,1.0,2.39275,0.0,35.0,35.0,35.0,1.0,toilet_07s.jpg,0.0,clock_6_6.png,6.0,20,,,,,,,,,,,,,,,,,,,,,,,,,,,,,,,,
,,,,,,,,,1.0,,,20,0.0,0.0,1.64101,0.0,0.0,0.0,0.0,1.0,stethoscope_01b.jpg,ice-cream_cone_06s.jpg,,,,,,,,,,,,,,,,,,,,,,
,,,,,,,,,0.0,,,20,1.0,0.0,1.036015,0.0,1.0,1.0,1.0,1.0,rocket_02s.jpg,insole_11s.jpg,,,,,,,,,,,,,,,,,,,,,,
,,,,,,,,,1.0,,,20,1.0,1.0,0.99116,0.0,2.0,2.0,2.0,1.0,glue_01s.jpg,stopwatch_04s.jpg,,,,,,,,,,,,,,,,,,,,,,
,,,,,,,,,0.0,,,20,1.0,0.0,1.000025,0.0,3.0,3.0,3.0,1.0,outlet_10s.jpg,ivy_12s.jpg,,,,,,,,,,,,,,,,,,,,,,
,,,,,,,,,1.0,,,20,0.0,0.0,1.32106,0.0,4.0,4.0,4.0,1.0,bolo_tie_08s.jpg,mango_09s.jpg,,,,,,,,,,,,,,,,,,,,,,
,,,,,,,,,1.0,,,20,0.0,0.0,2.017505,0.0,5.0,5.0,5.0,1.0,stingray_02s.jpg,mannequin_05s.jpg,,,,,,,,,,,,,,,,,,,,,,
,,,,,,,,,,,,20,,,,,,,,,,,0.0,2.0,2.0,2.0,1.0,clock_present_3_12.xlsx,clock_compare_task_3_12.xlsx,,,,,,,,,,,,,,,
0.0,1.0,2.16609,0.0,0.0,0.0,0.0,1.0,roulette_wheel_04s.jpg,0.0,clock_7_1.png,1.0,20,,,,,,,,,,,,,,,,,,,,,,,,,,,,,,,,
0.0,1.0,2.328955,0.0,1.0,1.0,1.0,1.0,gas_mask_11s.jpg,0.0,clock_7_2.png,1.0,20,,,,,,,,,,,,,,,,,,,,,,,,,,,,,,,,
0.0,1.0,2.454235,0.0,2.0,2.0,2.0,1.0,laser_pointer_02s.jpg,0.0,clock_7_3.png,1.0,20,,,,,,,,,,,,,,,,,,,,,,,,,,,,,,,,
0.0,1.0,2.292015,0.0,3.0,3.0,3.0,1.0,coral_08s.jpg,0.0,clock_7_4.png,1.0,20,,,,,,,,,,,,,,,,,,,,,,,,,,,,,,,,
0.0,1.0,2.315605,0.0,4.0,4.0,4.0,1.0,owl_15s.jpg,0.0,clock_7_5.png,1.0,20,,,,,,,,,,,,,,,,,,,,,,,,,,,,,,,,
0.0,1.0,2.210785,0.0,5.0,5.0,5.0,1.0,cereal_04s.jpg,0.0,clock_7_6.png,1.0,20,,,,,,,,,,,,,,,,,,,,,,,,,,,,,,,,
0.0,1.0,2.211365,0.0,6.0,6.0,6.0,1.0,kettle_08s.jpg,0.0,clock_7_7.png,1.0,20,,,,,,,,,,,,,,,,,,,,,,,,,,,,,,,,
0.0,1.0,2.37076,0.0,7.0,7.0,7.0,1.0,polaroid_05s.jpg,0.0,clock_7_1.png,2.0,20,,,,,,,,,,,,,,,,,,,,,,,,,,,,,,,,
0.0,1.0,2.39864,0.0,8.0,8.0,8.0,1.0,jalapeno_15s.jpg,0.0,clock_7_2.png,2.0,20,,,,,,,,,,,,,,,,,,,,,,,,,,,,,,,,
0.0,1.0,2.322185,0.0,9.0,9.0,9.0,1.0,joystick_01b.jpg,0.0,clock_7_3.png,2.0,20,,,,,,,,,,,,,,,,,,,,,,,,,,,,,,,,
0.0,1.0,2.34043,0.0,10.0,10.0,10.0,1.0,omelet_07s.jpg,0.0,clock_7_4.png,2.0,20,,,,,,,,,,,,,,,,,,,,,,,,,,,,,,,,
1.0,1.0,2.224985,0.0,11.0,11.0,11.0,1.0,omelet_07s.jpg,1.0,clock_7_5.png,2.0,20,,,,,,,,,,,,,,,,,,,,,,,,,,,,,,,,
0.0,1.0,1.957635,0.0,12.0,12.0,12.0,1.0,ant_12s.jpg,0.0,clock_7_6.png,2.0,20,,,,,,,,,,,,,,,,,,,,,,,,,,,,,,,,
0.0,1.0,2.313945,0.0,13.0,13.0,13.0,1.0,milk_02s.jpg,0.0,clock_7_7.png,2.0,20,,,,,,,,,,,,,,,,,,,,,,,,,,,,,,,,
0.0,1.0,2.44751,0.0,14.0,14.0,14.0,1.0,cotton_candy_01b.jpg,0.0,clock_5_1.png,3.0,20,,,,,,,,,,,,,,,,,,,,,,,,,,,,,,,,
0.0,1.0,2.25046,0.0,15.0,15.0,15.0,1.0,ram_05s.jpg,0.0,clock_5_2.png,3.0,20,,,,,,,,,,,,,,,,,,,,,,,,,,,,,,,,
0.0,1.0,2.454085,0.0,16.0,16.0,16.0,1.0,coral_08s.jpg,0.0,clock_5_3.png,3.0,20,,,,,,,,,,,,,,,,,,,,,,,,,,,,,,,,
0.0,1.0,2.266415,0.0,17.0,17.0,17.0,1.0,incense_02s.jpg,0.0,clock_5_4.png,3.0,20,,,,,,,,,,,,,,,,,,,,,,,,,,,,,,,,
0.0,1.0,2.461075,0.0,18.0,18.0,18.0,1.0,medal_04s.jpg,0.0,clock_5_5.png,3.0,20,,,,,,,,,,,,,,,,,,,,,,,,,,,,,,,,
0.0,1.0,2.19722,0.0,19.0,19.0,19.0,1.0,eyedropper_12s.jpg,0.0,clock_6_1.png,4.0,20,,,,,,,,,,,,,,,,,,,,,,,,,,,,,,,,
0.0,1.0,2.32208,0.0,20.0,20.0,20.0,1.0,touchpad_11s.jpg,0.0,clock_6_2.png,4.0,20,,,,,,,,,,,,,,,,,,,,,,,,,,,,,,,,
0.0,1.0,2.391765,0.0,21.0,21.0,21.0,1.0,fireworks_18s.jpg,0.0,clock_6_3.png,4.0,20,,,,,,,,,,,,,,,,,,,,,,,,,,,,,,,,
0.0,1.0,2.45441,0.0,22.0,22.0,22.0,1.0,cushion_08s.jpg,0.0,clock_6_4.png,4.0,20,,,,,,,,,,,,,,,,,,,,,,,,,,,,,,,,
0.0,1.0,2.28772,0.0,23.0,23.0,23.0,1.0,butter_14s.jpg,0.0,clock_6_5.png,4.0,20,,,,,,,,,,,,,,,,,,,,,,,,,,,,,,,,
0.0,1.0,2.27925,0.0,24.0,24.0,24.0,1.0,gazelle_10s.jpg,0.0,clock_6_6.png,4.0,20,,,,,,,,,,,,,,,,,,,,,,,,,,,,,,,,
0.0,1.0,2.329585,0.0,25.0,25.0,25.0,1.0,gingerbread_man_03s.jpg,0.0,clock_5_1.png,5.0,20,,,,,,,,,,,,,,,,,,,,,,,,,,,,,,,,
0.0,1.0,2.37513,0.0,26.0,26.0,26.0,1.0,lion_18s.jpg,0.0,clock_5_2.png,5.0,20,,,,,,,,,,,,,,,,,,,,,,,,,,,,,,,,
0.0,1.0,2.357385,0.0,27.0,27.0,27.0,1.0,rhinoceros_02s.jpg,0.0,clock_5_3.png,5.0,20,,,,,,,,,,,,,,,,,,,,,,,,,,,,,,,,
0.0,1.0,2.162655,0.0,28.0,28.0,28.0,1.0,latch_15s.jpg,0.0,clock_5_4.png,5.0,20,,,,,,,,,,,,,,,,,,,,,,,,,,,,,,,,
0.0,1.0,2.33401,0.0,29.0,29.0,29.0,1.0,megaphone_03s.jpg,0.0,clock_5_5.png,5.0,20,,,,,,,,,,,,,,,,,,,,,,,,,,,,,,,,
0.0,1.0,2.265995,0.0,30.0,30.0,30.0,1.0,plaster_cast_13s.jpg,0.0,clock_6_1.png,6.0,20,,,,,,,,,,,,,,,,,,,,,,,,,,,,,,,,
0.0,1.0,2.44197,0.0,31.0,31.0,31.0,1.0,marshmallow_08s.jpg,0.0,clock_6_2.png,6.0,20,,,,,,,,,,,,,,,,,,,,,,,,,,,,,,,,
0.0,1.0,2.18774,0.0,32.0,32.0,32.0,1.0,medal_04s.jpg,0.0,clock_6_3.png,6.0,20,,,,,,,,,,,,,,,,,,,,,,,,,,,,,,,,
1.0,1.0,2.36228,0.0,33.0,33.0,33.0,1.0,marshmallow_08s.jpg,1.0,clock_6_4.png,6.0,20,,,,,,,,,,,,,,,,,,,,,,,,,,,,,,,,
1.0,1.0,2.45567,0.0,34.0,34.0,34.0,1.0,plaster_cast_13s.jpg,1.0,clock_6_5.png,6.0,20,,,,,,,,,,,,,,,,,,,,,,,,,,,,,,,,
1.0,0.0,1.847665,0.0,35.0,35.0,35.0,1.0,mussel_11s.jpg,0.0,clock_6_6.png,6.0,20,,,,,,,,,,,,,,,,,,,,,,,,,,,,,,,,
,,,,,,,,,0.0,,,20,1.0,0.0,1.667645,0.0,0.0,0.0,0.0,1.0,polaroid_05s.jpg,owl_15s.jpg,,,,,,,,,,,,,,,,,,,,,,
,,,,,,,,,1.0,,,20,1.0,1.0,0.980265,0.0,1.0,1.0,1.0,1.0,cereal_04s.jpg,jalapeno_15s.jpg,,,,,,,,,,,,,,,,,,,,,,
,,,,,,,,,1.0,,,20,0.0,0.0,1.208275,0.0,2.0,2.0,2.0,1.0,kettle_08s.jpg,joystick_01b.jpg,,,,,,,,,,,,,,,,,,,,,,
,,,,,,,,,1.0,,,20,0.0,0.0,1.44571,0.0,3.0,3.0,3.0,1.0,cotton_candy_01b.jpg,incense_02s.jpg,,,,,,,,,,,,,,,,,,,,,,
,,,,,,,,,0.0,,,20,1.0,0.0,0.950935,0.0,4.0,4.0,4.0,1.0,cushion_08s.jpg,eyedropper_12s.jpg,,,,,,,,,,,,,,,,,,,,,,
,,,,,,,,,1.0,,,20,1.0,1.0,1.39989,0.0,5.0,5.0,5.0,1.0,fireworks_18s.jpg,gazelle_10s.jpg,,,,,,,,,,,,,,,,,,,,,,
,,,,,,,,,,,,20,,,,,,,,,,,0.0,3.0,3.0,3.0,1.0,clock_present_4_12.xlsx,clock_compare_task_4_12.xlsx,,,,,,,,,,,,,,,
0.0,1.0,2.418,0.0,0.0,0.0,0.0,1.0,pillow_03s.jpg,0.0,clock_6_1.png,1.0,20,,,,,,,,,,,,,,,,,,,,,,,,,,,,,,,,
0.0,1.0,2.28029,0.0,1.0,1.0,1.0,1.0,lavender_10s.jpg,0.0,clock_6_2.png,1.0,20,,,,,,,,,,,,,,,,,,,,,,,,,,,,,,,,
1.0,1.0,2.11382,0.0,2.0,2.0,2.0,1.0,pillow_03s.jpg,1.0,clock_6_3.png,1.0,20,,,,,,,,,,,,,,,,,,,,,,,,,,,,,,,,
0.0,1.0,2.231885,0.0,3.0,3.0,3.0,1.0,tiara_05s.jpg,0.0,clock_6_4.png,1.0,20,,,,,,,,,,,,,,,,,,,,,,,,,,,,,,,,
0.0,1.0,2.33079,0.0,4.0,4.0,4.0,1.0,mushroom_10n.jpg,0.0,clock_6_5.png,1.0,20,,,,,,,,,,,,,,,,,,,,,,,,,,,,,,,,
0.0,1.0,2.428025,0.0,5.0,5.0,5.0,1.0,leash_10s.jpg,0.0,clock_6_6.png,1.0,20,,,,,,,,,,,,,,,,,,,,,,,,,,,,,,,,
0.0,1.0,2.312715,0.0,6.0,6.0,6.0,1.0,stump_02s.jpg,0.0,clock_5_1.png,2.0,20,,,,,,,,,,,,,,,,,,,,,,,,,,,,,,,,
0.0,1.0,2.28436,0.0,7.0,7.0,7.0,1.0,treadmill_06s.jpg,0.0,clock_5_2.png,2.0,20,,,,,,,,,,,,,,,,,,,,,,,,,,,,,,,,
0.0,1.0,2.474875,0.0,8.0,8.0,8.0,1.0,pumpkin_03s.jpg,0.0,clock_5_3.png,2.0,20,,,,,,,,,,,,,,,,,,,,,,,,,,,,,,,,
0.0,1.0,2.18249,0.0,9.0,9.0,9.0,1.0,crystal_ball_12s.jpg,0.0,clock_5_4.png,2.0,20,,,,,,,,,,,,,,,,,,,,,,,,,,,,,,,,
0.0,1.0,2.454285,0.0,10.0,10.0,10.0,1.0,puffin_19s.jpg,0.0,clock_5_5.png,2.0,20,,,,,,,,,,,,,,,,,,,,,,,,,,,,,,,,
0.0,1.0,2.22819,0.0,11.0,11.0,11.0,1.0,mousetrap_15n.jpg,0.0,clock_5_1.png,3.0,20,,,,,,,,,,,,,,,,,,,,,,,,,,,,,,,,
0.0,0.0,2.33608,0.0,12.0,12.0,12.0,1.0,mousetrap_15n.jpg,1.0,clock_5_2.png,3.0,20,,,,,,,,,,,,,,,,,,,,,,,,,,,,,,,,
0.0,1.0,2.42614,0.0,13.0,13.0,13.0,1.0,rope_16s.jpg,0.0,clock_5_3.png,3.0,20,,,,,,,,,,,,,,,,,,,,,,,,,,,,,,,,
0.0,1.0,2.32394,0.0,14.0,14.0,14.0,1.0,loveseat_08s.jpg,0.0,clock_5_4.png,3.0,20,,,,,,,,,,,,,,,,,,,,,,,,,,,,,,,,
0.0,1.0,2.31755,0.0,15.0,15.0,15.0,1.0,laundry_basket_11s.jpg,0.0,clock_5_5.png,3.0,20,,,,,,,,,,,,,,,,,,,,,,,,,,,,,,,,
0.0,1.0,2.276635,0.0,16.0,16.0,16.0,1.0,cardinal_07s.jpg,0.0,clock_7_1.png,4.0,20,,,,,,,,,,,,,,,,,,,,,,,,,,,,,,,,
0.0,1.0,2.254365,0.0,17.0,17.0,17.0,1.0,squirrel_02s.jpg,0.0,clock_7_2.png,4.0,20,,,,,,,,,,,,,,,,,,,,,,,,,,,,,,,,
1.0,1.0,2.270965,0.0,18.0,18.0,18.0,1.0,squirrel_02s.jpg,1.0,clock_7_3.png,4.0,20,,,,,,,,,,,,,,,,,,,,,,,,,,,,,,,,
0.0,1.0,2.343055,0.0,19.0,19.0,19.0,1.0,funnel_01b.jpg,0.0,clock_7_4.png,4.0,20,,,,,,,,,,,,,,,,,,,,,,,,,,,,,,,,
1.0,1.0,2.18299,0.0,20.0,20.0,20.0,1.0,squirrel_02s.jpg,1.0,clock_7_5.png,4.0,20,,,,,,,,,,,,,,,,,,,,,,,,,,,,,,,,
1.0,1.0,2.15529,0.0,21.0,21.0,21.0,1.0,cardinal_07s.jpg,1.0,clock_7_6.png,4.0,20,,,,,,,,,,,,,,,,,,,,,,,,,,,,,,,,
0.0,1.0,2.224935,0.0,22.0,22.0,22.0,1.0,ink_08s.jpg,0.0,clock_7_7.png,4.0,20,,,,,,,,,,,,,,,,,,,,,,,,,,,,,,,,
0.0,1.0,2.245575,0.0,23.0,23.0,23.0,1.0,toad_09s.jpg,0.0,clock_7_1.png,5.0,20,,,,,,,,,,,,,,,,,,,,,,,,,,,,,,,,
0.0,1.0,2.38464,0.0,24.0,24.0,24.0,1.0,bagel_15s.jpg,0.0,clock_7_2.png,5.0,20,,,,,,,,,,,,,,,,,,,,,,,,,,,,,,,,
1.0,1.0,2.229835,0.0,25.0,25.0,25.0,1.0,bagel_15s.jpg,1.0,clock_7_3.png,5.0,20,,,,,,,,,,,,,,,,,,,,,,,,,,,,,,,,
0.0,1.0,2.39156,0.0,26.0,26.0,26.0,1.0,treadmill_06s.jpg,0.0,clock_7_4.png,5.0,20,,,,,,,,,,,,,,,,,,,,,,,,,,,,,,,,
0.0,1.0,2.16931,0.0,27.0,27.0,27.0,1.0,rhubarb_03s.jpg,0.0,clock_7_5.png,5.0,20,,,,,,,,,,,,,,,,,,,,,,,,,,,,,,,,
0.0,1.0,2.370825,0.0,28.0,28.0,28.0,1.0,kayak_08s.jpg,0.0,clock_7_6.png,5.0,20,,,,,,,,,,,,,,,,,,,,,,,,,,,,,,,,
0.0,1.0,2.25694,0.0,29.0,29.0,29.0,1.0,cardinal_07s.jpg,0.0,clock_7_7.png,5.0,20,,,,,,,,,,,,,,,,,,,,,,,,,,,,,,,,
0.0,1.0,2.19011,0.0,30.0,30.0,30.0,1.0,pear_02s.jpg,0.0,clock_6_1.png,6.0,20,,,,,,,,,,,,,,,,,,,,,,,,,,,,,,,,
0.0,1.0,2.36591,0.0,31.0,31.0,31.0,1.0,limousine_12s.jpg,0.0,clock_6_2.png,6.0,20,,,,,,,,,,,,,,,,,,,,,,,,,,,,,,,,
1.0,1.0,2.260015,0.0,32.0,32.0,32.0,1.0,limousine_12s.jpg,1.0,clock_6_3.png,6.0,20,,,,,,,,,,,,,,,,,,,,,,,,,,,,,,,,
0.0,1.0,2.377625,0.0,33.0,33.0,33.0,1.0,taxi_15s.jpg,0.0,clock_6_4.png,6.0,20,,,,,,,,,,,,,,,,,,,,,,,,,,,,,,,,
0.0,1.0,2.46793,0.0,34.0,34.0,34.0,1.0,compass_10n.jpg,0.0,clock_6_5.png,6.0,20,,,,,,,,,,,,,,,,,,,,,,,,,,,,,,,,
0.0,1.0,2.370705,0.0,35.0,35.0,35.0,1.0,razor_12s.jpg,0.0,clock_6_6.png,6.0,20,,,,,,,,,,,,,,,,,,,,,,,,,,,,,,,,
,,,,,,,,,0.0,,,20,1.0,0.0,1.147365,0.0,0.0,0.0,0.0,1.0,pumpkin_03s.jpg,leash_10s.jpg,,,,,,,,,,,,,,,,,,,,,,
,,,,,,,,,0.0,,,20,1.0,0.0,0.99524,0.0,1.0,1.0,1.0,1.0,rope_16s.jpg,puffin_19s.jpg,,,,,,,,,,,,,,,,,,,,,,
,,,,,,,,,1.0,,,20,1.0,1.0,1.050105,0.0,2.0,2.0,2.0,1.0,tiara_05s.jpg,stump_02s.jpg,,,,,,,,,,,,,,,,,,,,,,
,,,,,,,,,1.0,,,20,0.0,0.0,0.9526,0.0,3.0,3.0,3.0,1.0,lavender_10s.jpg,mushroom_10n.jpg,,,,,,,,,,,,,,,,,,,,,,
,,,,,,,,,1.0,,,20,0.0,0.0,1.735235,0.0,4.0,4.0,4.0,1.0,funnel_01b.jpg,ink_08s.jpg,,,,,,,,,,,,,,,,,,,,,,
,,,,,,,,,1.0,,,20,1.0,1.0,1.47738,0.0,5.0,5.0,5.0,1.0,pear_02s.jpg,taxi_15s.jpg,,,,,,,,,,,,,,,,,,,,,,
,,,,,,,,,,,,20,,,,,,,,,,,0.0,4.0,4.0,4.0,1.0,clock_present_5_12.xlsx,clock_compare_task_5_12.xlsx,,,,,,,,,,,,,,,
0.0,1.0,2.35611,0.0,0.0,0.0,0.0,1.0,turnstile_08s.jpg,0.0,clock_7_1.png,1.0,20,,,,,,,,,,,,,,,,,,,,,,,,,,,,,,,,
0.0,1.0,2.177155,0.0,1.0,1.0,1.0,1.0,knitting_needle_04s.jpg,0.0,clock_7_2.png,1.0,20,,,,,,,,,,,,,,,,,,,,,,,,,,,,,,,,
1.0,1.0,2.392815,0.0,2.0,2.0,2.0,1.0,turnstile_08s.jpg,1.0,clock_7_3.png,1.0,20,,,,,,,,,,,,,,,,,,,,,,,,,,,,,,,,
1.0,1.0,2.10999,0.0,3.0,3.0,3.0,1.0,turnstile_08s.jpg,1.0,clock_7_4.png,1.0,20,,,,,,,,,,,,,,,,,,,,,,,,,,,,,,,,
1.0,1.0,2.40173,0.0,4.0,4.0,4.0,1.0,knitting_needle_04s.jpg,1.0,clock_7_5.png,1.0,20,,,,,,,,,,,,,,,,,,,,,,,,,,,,,,,,
0.0,1.0,1.641705,0.0,5.0,5.0,5.0,1.0,coat_rack_01b.jpg,0.0,clock_7_6.png,1.0,20,,,,,,,,,,,,,,,,,,,,,,,,,,,,,,,,
1.0,1.0,2.448935,0.0,6.0,6.0,6.0,1.0,turnstile_08s.jpg,1.0,clock_7_7.png,1.0,20,,,,,,,,,,,,,,,,,,,,,,,,,,,,,,,,
0.0,1.0,2.307595,0.0,7.0,7.0,7.0,1.0,eiffeltower.jpg,0.0,clock_7_1.png,2.0,20,,,,,,,,,,,,,,,,,,,,,,,,,,,,,,,,
0.0,1.0,2.349905,0.0,8.0,8.0,8.0,1.0,jelly_bean_06s.jpg,0.0,clock_7_2.png,2.0,20,,,,,,,,,,,,,,,,,,,,,,,,,,,,,,,,
0.0,1.0,2.204095,0.0,9.0,9.0,9.0,1.0,racehorse_03s.jpg,0.0,clock_7_3.png,2.0,20,,,,,,,,,,,,,,,,,,,,,,,,,,,,,,,,
1.0,1.0,2.277825,0.0,10.0,10.0,10.0,1.0,jelly_bean_06s.jpg,1.0,clock_7_4.png,2.0,20,,,,,,,,,,,,,,,,,,,,,,,,,,,,,,,,
0.0,1.0,2.219145,0.0,11.0,11.0,11.0,1.0,turnstile_08s.jpg,0.0,clock_7_5.png,2.0,20,,,,,,,,,,,,,,,,,,,,,,,,,,,,,,,,
0.0,0.0,2.33598,0.0,12.0,12.0,12.0,1.0,racehorse_03s.jpg,1.0,clock_7_6.png,2.0,20,,,,,,,,,,,,,,,,,,,,,,,,,,,,,,,,
0.0,1.0,2.420605,0.0,13.0,13.0,13.0,1.0,cape_11s.jpg,0.0,clock_7_7.png,2.0,20,,,,,,,,,,,,,,,,,,,,,,,,,,,,,,,,
0.0,1.0,2.312035,0.0,14.0,14.0,14.0,1.0,birthday_cake_09s.jpg,0.0,clock_5_1.png,3.0,20,,,,,,,,,,,,,,,,,,,,,,,,,,,,,,,,
0.0,1.0,2.38464,0.0,15.0,15.0,15.0,1.0,refrigerator_07s.jpg,0.0,clock_5_2.png,3.0,20,,,,,,,,,,,,,,,,,,,,,,,,,,,,,,,,
0.0,1.0,2.37773,0.0,16.0,16.0,16.0,1.0,turnstile_08s.jpg,0.0,clock_5_3.png,3.0,20,,,,,,,,,,,,,,,,,,,,,,,,,,,,,,,,
0.0,1.0,2.26654,0.0,17.0,17.0,17.0,1.0,mattress_01s.jpg,0.0,clock_5_4.png,3.0,20,,,,,,,,,,,,,,,,,,,,,,,,,,,,,,,,
0.0,1.0,2.44016,0.0,18.0,18.0,18.0,1.0,chalice_10s.jpg,0.0,clock_5_5.png,3.0,20,,,,,,,,,,,,,,,,,,,,,,,,,,,,,,,,
0.0,1.0,2.20382,0.0,19.0,19.0,19.0,1.0,measuring_cup_02s.jpg,0.0,clock_6_1.png,4.0,20,,,,,,,,,,,,,,,,,,,,,,,,,,,,,,,,
1.0,1.0,2.39858,0.0,20.0,20.0,20.0,1.0,measuring_cup_02s.jpg,1.0,clock_6_2.png,4.0,20,,,,,,,,,,,,,,,,,,,,,,,,,,,,,,,,
0.0,1.0,2.44029,0.0,21.0,21.0,21.0,1.0,jewel_01b.jpg,0.0,clock_6_3.png,4.0,20,,,,,,,,,,,,,,,,,,,,,,,,,,,,,,,,
0.0,1.0,2.198725,0.0,22.0,22.0,22.0,1.0,tennis_ball_06s.jpg,0.0,clock_6_4.png,4.0,20,,,,,,,,,,,,,,,,,,,,,,,,,,,,,,,,
0.0,1.0,2.39844,0.0,23.0,23.0,23.0,1.0,knot_01b.jpg,0.0,clock_6_5.png,4.0,20,,,,,,,,,,,,,,,,,,,,,,,,,,,,,,,,
0.0,1.0,2.280355,0.0,24.0,24.0,24.0,1.0,moth_06n.jpg,0.0,clock_6_6.png,4.0,20,,,,,,,,,,,,,,,,,,,,,,,,,,,,,,,,
0.0,1.0,2.1873,0.0,25.0,25.0,25.0,1.0,perfume_06s.jpg,0.0,clock_6_1.png,5.0,20,,,,,,,,,,,,,,,,,,,,,,,,,,,,,,,,
0.0,1.0,2.315325,0.0,26.0,26.0,26.0,1.0,paper_bag_12s.jpg,0.0,clock_6_2.png,5.0,20,,,,,,,,,,,,,,,,,,,,,,,,,,,,,,,,
0.0,1.0,2.40557,0.0,27.0,27.0,27.0,1.0,sledgehammer_03s.jpg,0.0,clock_6_3.png,5.0,20,,,,,,,,,,,,,,,,,,,,,,,,,,,,,,,,
0.0,1.0,2.475025,0.0,28.0,28.0,28.0,1.0,mattress_01s.jpg,0.0,clock_6_4.png,5.0,20,,,,,,,,,,,,,,,,,,,,,,,,,,,,,,,,
0.0,1.0,2.22206,0.0,29.0,29.0,29.0,1.0,crab_16s.jpg,0.0,clock_6_5.png,5.0,20,,,,,,,,,,,,,,,,,,,,,,,,,,,,,,,,
0.0,1.0,2.43354,0.0,30.0,30.0,30.0,1.0,crossbow_10s.jpg,0.0,clock_6_6.png,5.0,20,,,,,,,,,,,,,,,,,,,,,,,,,,,,,,,,
0.0,1.0,2.29435,0.0,31.0,31.0,31.0,1.0,frame_06s.jpg,0.0,clock_5_1.png,6.0,20,,,,,,,,,,,,,,,,,,,,,,,,,,,,,,,,
0.0,1.0,2.1896,0.0,32.0,32.0,32.0,1.0,pipe1_10s.jpg,0.0,clock_5_2.png,6.0,20,,,,,,,,,,,,,,,,,,,,,,,,,,,,,,,,
0.0,1.0,2.185725,0.0,33.0,33.0,33.0,1.0,smoothie_09s.jpg,0.0,clock_5_3.png,6.0,20,,,,,,,,,,,,,,,,,,,,,,,,,,,,,,,,
0.0,1.0,2.21523,0.0,34.0,34.0,34.0,1.0,reindeer_08s.jpg,0.0,clock_5_4.png,6.0,20,,,,,,,,,,,,,,,,,,,,,,,,,,,,,,,,
0.0,1.0,2.450145,0.0,35.0,35.0,35.0,1.0,saddle_06s.jpg,0.0,clock_5_5.png,6.0,20,,,,,,,,,,,,,,,,,,,,,,,,,,,,,,,,
,,,,,,,,,0.0,,,20,0.0,1.0,1.750385,0.0,0.0,0.0,0.0,1.0,perfume_06s.jpg,tennis_ball_06s.jpg,,,,,,,,,,,,,,,,,,,,,,
,,,,,,,,,0.0,,,20,1.0,0.0,0.966665,0.0,1.0,1.0,1.0,1.0,paper_bag_12s.jpg,knot_01b.jpg,,,,,,,,,,,,,,,,,,,,,,
,,,,,,,,,1.0,,,20,1.0,1.0,0.87652,0.0,2.0,2.0,2.0,1.0,crossbow_10s.jpg,smoothie_09s.jpg,,,,,,,,,,,,,,,,,,,,,,
,,,,,,,,,0.0,,,20,1.0,0.0,1.03675,0.0,3.0,3.0,3.0,1.0,reindeer_08s.jpg,frame_06s.jpg,,,,,,,,,,,,,,,,,,,,,,
,,,,,,,,,1.0,,,20,1.0,1.0,1.38149,0.0,4.0,4.0,4.0,1.0,refrigerator_07s.jpg,chalice_10s.jpg,,,,,,,,,,,,,,,,,,,,,,
,,,,,,,,,1.0,,,20,1.0,1.0,0.89712,0.0,5.0,5.0,5.0,1.0,pipe1_10s.jpg,saddle_06s.jpg,,,,,,,,,,,,,,,,,,,,,,
0.0,1.0,2.173645,,,,,,fossil_06s.jpg,0.0,clockno_up.jpg,1.0,20,,,,,,,,,,,,,,,,,,0.0,0.0,0.0,0.0,1.0,,,,,,,,,,
0.0,1.0,2.30811,,,,,,lamb_chop_07s.jpg,0.0,clockno_default.jpg,1.0,20,,,,,,,,,,,,,,,,,,0.0,1.0,1.0,1.0,1.0,,,,,,,,,,
0.0,1.0,2.308325,,,,,,parachute_03s.jpg,0.0,clockno_default.jpg,1.0,20,,,,,,,,,,,,,,,,,,0.0,2.0,2.0,2.0,1.0,,,,,,,,,,
1.0,1.0,2.41954,,,,,,parachute_03s.jpg,1.0,clockno_default.jpg,1.0,20,,,,,,,,,,,,,,,,,,0.0,3.0,3.0,3.0,1.0,,,,,,,,,,
,0.0,,,,,,,peppermint_07s.jpg,0.0,clockno_default.jpg,1.0,20,,,,,,,,,,,,,,,,,,0.0,4.0,4.0,4.0,1.0,,,,,,,,,,
0.0,1.0,1.73104,,,,,,slingshot_07s.jpg,0.0,clockno_up.jpg,2.0,20,,,,,,,,,,,,,,,,,,0.0,5.0,5.0,5.0,1.0,,,,,,,,,,
0.0,1.0,2.426425,,,,,,tile_08s.jpg,0.0,clockno_default.jpg,2.0,20,,,,,,,,,,,,,,,,,,0.0,6.0,6.0,6.0,1.0,,,,,,,,,,
0.0,1.0,2.423855,,,,,,ravioli_08s.jpg,0.0,clockno_default.jpg,2.0,20,,,,,,,,,,,,,,,,,,0.0,7.0,7.0,7.0,1.0,,,,,,,,,,
0.0,1.0,2.461395,,,,,,parachute_03s.jpg,0.0,clockno_default.jpg,2.0,20,,,,,,,,,,,,,,,,,,0.0,8.0,8.0,8.0,1.0,,,,,,,,,,
0.0,1.0,1.390645,,,,,,peppermint_07s.jpg,0.0,clockno_default.jpg,2.0,20,,,,,,,,,,,,,,,,,,0.0,9.0,9.0,9.0,1.0,,,,,,,,,,
0.0,1.0,2.475255,,,,,,petri_dish_12s.jpg,0.0,clockno_up.jpg,3.0,20,,,,,,,,,,,,,,,,,,0.0,10.0,10.0,10.0,1.0,,,,,,,,,,
0.0,1.0,2.435285,,,,,,popcorn_09s.jpg,0.0,clockno_default.jpg,3.0,20,,,,,,,,,,,,,,,,,,0.0,11.0,11.0,11.0,1.0,,,,,,,,,,
0.0,1.0,2.26844,,,,,,paintbrush_04s.jpg,0.0,clockno_default.jpg,3.0,20,,,,,,,,,,,,,,,,,,0.0,12.0,12.0,12.0,1.0,,,,,,,,,,
0.0,1.0,2.35177,,,,,,potpourri_03s.jpg,0.0,clockno_default.jpg,3.0,20,,,,,,,,,,,,,,,,,,0.0,13.0,13.0,13.0,1.0,,,,,,,,,,
0.0,1.0,2.407705,,,,,,throne_11s.jpg,0.0,clockno_default.jpg,3.0,20,,,,,,,,,,,,,,,,,,0.0,14.0,14.0,14.0,1.0,,,,,,,,,,
0.0,1.0,2.392965,,,,,,peppermint_07s.jpg,0.0,clockno_default.jpg,3.0,20,,,,,,,,,,,,,,,,,,0.0,15.0,15.0,15.0,1.0,,,,,,,,,,
0.0,1.0,2.107415,,,,,,muffin_12n.jpg,0.0,clockno_up.jpg,4.0,20,,,,,,,,,,,,,,,,,,0.0,16.0,16.0,16.0,1.0,,,,,,,,,,
0.0,1.0,2.4365,,,,,,toothpaste_12s.jpg,0.0,clockno_default.jpg,4.0,20,,,,,,,,,,,,,,,,,,0.0,17.0,17.0,17.0,1.0,,,,,,,,,,
0.0,1.0,2.187325,,,,,,paintbrush_04s.jpg,0.0,clockno_default.jpg,4.0,20,,,,,,,,,,,,,,,,,,0.0,18.0,18.0,18.0,1.0,,,,,,,,,,
0.0,1.0,2.408745,,,,,,police_car_01s.jpg,0.0,clockno_default.jpg,4.0,20,,,,,,,,,,,,,,,,,,0.0,19.0,19.0,19.0,1.0,,,,,,,,,,
0.0,0.0,2.361265,,,,,,toothpaste_12s.jpg,1.0,clockno_default.jpg,4.0,20,,,,,,,,,,,,,,,,,,0.0,20.0,20.0,20.0,1.0,,,,,,,,,,
0.0,1.0,2.255075,,,,,,jet_15s.jpg,0.0,clockno_default.jpg,4.0,20,,,,,,,,,,,,,,,,,,0.0,21.0,21.0,21.0,1.0,,,,,,,,,,
0.0,1.0,2.214795,,,,,,tripod_01b.jpg,0.0,clockno_up.jpg,5.0,20,,,,,,,,,,,,,,,,,,0.0,22.0,22.0,22.0,1.0,,,,,,,,,,
0.0,1.0,1.068615,,,,,,potpourri_03s.jpg,0.0,clockno_default.jpg,5.0,20,,,,,,,,,,,,,,,,,,0.0,23.0,23.0,23.0,1.0,,,,,,,,,,
0.0,1.0,2.441505,,,,,,lava_02s.jpg,0.0,clockno_default.jpg,5.0,20,,,,,,,,,,,,,,,,,,0.0,24.0,24.0,24.0,1.0,,,,,,,,,,
0.0,1.0,2.28051,,,,,,peeler_06s.jpg,0.0,clockno_default.jpg,5.0,20,,,,,,,,,,,,,,,,,,0.0,25.0,25.0,25.0,1.0,,,,,,,,,,
1.0,1.0,2.282485,,,,,,lava_02s.jpg,1.0,clockno_default.jpg,5.0,20,,,,,,,,,,,,,,,,,,0.0,26.0,26.0,26.0,1.0,,,,,,,,,,
0.0,1.0,2.413905,,,,,,solar_panel_02s.jpg,0.0,clockno_default.jpg,5.0,20,,,,,,,,,,,,,,,,,,0.0,27.0,27.0,27.0,1.0,,,,,,,,,,
0.0,1.0,2.44063,,,,,,kilt_18s.jpg,0.0,clockno_default.jpg,5.0,20,,,,,,,,,,,,,,,,,,0.0,28.0,28.0,28.0,1.0,,,,,,,,,,
0.0,1.0,2.281145,,,,,,flask_04s.jpg,0.0,clockno_up.jpg,6.0,20,,,,,,,,,,,,,,,,,,0.0,29.0,29.0,29.0,1.0,,,,,,,,,,
0.0,1.0,2.293515,,,,,,swimming_pool_17s.jpg,0.0,clockno_default.jpg,6.0,20,,,,,,,,,,,,,,,,,,0.0,30.0,30.0,30.0,1.0,,,,,,,,,,
0.0,1.0,2.30728,,,,,,thermostat_02s.jpg,0.0,clockno_default.jpg,6.0,20,,,,,,,,,,,,,,,,,,0.0,31.0,31.0,31.0,1.0,,,,,,,,,,
0.0,1.0,2.200725,,,,,,tape_06s.jpg,0.0,clockno_default.jpg,6.0,20,,,,,,,,,,,,,,,,,,0.0,32.0,32.0,32.0,1.0,,,,,,,,,,
0.0,1.0,2.11343,,,,,,radiator_05s.jpg,0.0,clockno_default.jpg,6.0,20,,,,,,,,,,,,,,,,,,0.0,33.0,33.0,33.0,1.0,,,,,,,,,,
0.0,1.0,2.18822,,,,,,mixer_12s.jpg,0.0,clockno_default.jpg,6.0,20,,,,,,,,,,,,,,,,,,0.0,34.0,34.0,34.0,1.0,,,,,,,,,,
0.0,0.0,2.24576,,,,,,radiator_05s.jpg,1.0,clockno_default.jpg,6.0,20,,,,,,,,,,,,,,,,,,0.0,35.0,35.0,35.0,1.0,,,,,,,,,,
,,,,,,,,,0.0,,,20,0.0,1.0,5.401585,,,,,,petri_dish_12s.jpg,ravioli_08s.jpg,,,,,,,,,,,,,0.0,0.0,0.0,0.0,1.0,,,,,
,,,,,,,,,0.0,,,20,0.0,1.0,1.71734,,,,,,swimming_pool_17s.jpg,solar_panel_02s.jpg,,,,,,,,,,,,,0.0,1.0,1.0,1.0,1.0,,,,,
,,,,,,,,,1.0,,,20,1.0,1.0,0.8271,,,,,,police_car_01s.jpg,tripod_01b.jpg,,,,,,,,,,,,,0.0,2.0,2.0,2.0,1.0,,,,,
,,,,,,,,,0.0,,,20,1.0,0.0,0.94543,,,,,,throne_11s.jpg,popcorn_09s.jpg,,,,,,,,,,,,,0.0,3.0,3.0,3.0,1.0,,,,,
,,,,,,,,,1.0,,,20,0.0,0.0,1.488065,,,,,,flask_04s.jpg,tape_06s.jpg,,,,,,,,,,,,,0.0,4.0,4.0,4.0,1.0,,,,,
,,,,,,,,,0.0,,,20,1.0,0.0,0.885045,,,,,,kilt_18s.jpg,peeler_06s.jpg,,,,,,,,,,,,,0.0,5.0,5.0,5.0,1.0,,,,,
,,,,,,,,,,,,20,,,,,,,,,,,,,,,,clockno_present_1_12.xlsx,clockno_compare_task_1_12.xlsx,,,,,,,,,,,0.0,0.0,0.0,0.0,1.0
0.0,1.0,2.457345,,,,,,tinsel_12s.jpg,0.0,clockno_up.jpg,1.0,20,,,,,,,,,,,,,,,,,,0.0,0.0,0.0,0.0,1.0,,,,,,,,,,
0.0,1.0,2.03032,,,,,,cap_05s.jpg,0.0,clockno_default.jpg,1.0,20,,,,,,,,,,,,,,,,,,0.0,1.0,1.0,1.0,1.0,,,,,,,,,,
0.0,1.0,2.135275,,,,,,pencil02a.jpg,0.0,clockno_default.jpg,1.0,20,,,,,,,,,,,,,,,,,,0.0,2.0,2.0,2.0,1.0,,,,,,,,,,
0.0,1.0,2.2455,,,,,,keyhole_03s.jpg,0.0,clockno_default.jpg,1.0,20,,,,,,,,,,,,,,,,,,0.0,3.0,3.0,3.0,1.0,,,,,,,,,,
1.0,1.0,2.280365,,,,,,tinsel_12s.jpg,1.0,clockno_default.jpg,1.0,20,,,,,,,,,,,,,,,,,,0.0,4.0,4.0,4.0,1.0,,,,,,,,,,
1.0,1.0,2.231585,,,,,,tinsel_12s.jpg,1.0,clockno_default.jpg,1.0,20,,,,,,,,,,,,,,,,,,0.0,5.0,5.0,5.0,1.0,,,,,,,,,,
0.0,1.0,2.188845,,,,,,abacus_12s.jpg,0.0,clockno_default.jpg,1.0,20,,,,,,,,,,,,,,,,,,0.0,6.0,6.0,6.0,1.0,,,,,,,,,,
0.0,1.0,2.238465,,,,,,bowler_hat_10s.jpg,0.0,clockno_up.jpg,2.0,20,,,,,,,,,,,,,,,,,,0.0,7.0,7.0,7.0,1.0,,,,,,,,,,
0.0,1.0,2.384245,,,,,,spider_web_03s.jpg,0.0,clockno_default.jpg,2.0,20,,,,,,,,,,,,,,,,,,0.0,8.0,8.0,8.0,1.0,,,,,,,,,,
0.0,1.0,2.43323,,,,,,bank_06s.jpg,0.0,clockno_default.jpg,2.0,20,,,,,,,,,,,,,,,,,,0.0,9.0,9.0,9.0,1.0,,,,,,,,,,
0.0,1.0,2.280265,,,,,,abacus_12s.jpg,0.0,clockno_default.jpg,2.0,20,,,,,,,,,,,,,,,,,,0.0,10.0,10.0,10.0,1.0,,,,,,,,,,
0.0,1.0,2.39162,,,,,,inhaler_01b.jpg,0.0,clockno_default.jpg,2.0,20,,,,,,,,,,,,,,,,,,0.0,11.0,11.0,11.0,1.0,,,,,,,,,,
0.0,1.0,2.19744,,,,,,sea_urchin_09s.jpg,0.0,clockno_up.jpg,3.0,20,,,,,,,,,,,,,,,,,,0.0,12.0,12.0,12.0,1.0,,,,,,,,,,
0.0,1.0,2.18276,,,,,,rocking_chair_05s.jpg,0.0,clockno_default.jpg,3.0,20,,,,,,,,,,,,,,,,,,0.0,13.0,13.0,13.0,1.0,,,,,,,,,,
0.0,1.0,2.45427,,,,,,top_hat_11s.jpg,0.0,clockno_default.jpg,3.0,20,,,,,,,,,,,,,,,,,,0.0,14.0,14.0,14.0,1.0,,,,,,,,,,
0.0,1.0,2.30806,,,,,,bubble_01b.jpg,0.0,clockno_default.jpg,3.0,20,,,,,,,,,,,,,,,,,,0.0,15.0,15.0,15.0,1.0,,,,,,,,,,
0.0,1.0,2.319335,,,,,,sundae_08s.jpg,0.0,clockno_default.jpg,3.0,20,,,,,,,,,,,,,,,,,,0.0,16.0,16.0,16.0,1.0,,,,,,,,,,
0.0,1.0,2.454575,,,,,,ruby_15s.jpg,0.0,clockno_default.jpg,3.0,20,,,,,,,,,,,,,,,,,,0.0,17.0,17.0,17.0,1.0,,,,,,,,,,
0.0,1.0,2.245585,,,,,,candy_cane_06s.jpg,0.0,clockno_up.jpg,4.0,20,,,,,,,,,,,,,,,,,,0.0,18.0,18.0,18.0,1.0,,,,,,,,,,
0.0,1.0,2.412345,,,,,,raft_09s.jpg,0.0,clockno_default.jpg,4.0,20,,,,,,,,,,,,,,,,,,0.0,19.0,19.0,19.0,1.0,,,,,,,,,,
0.0,1.0,2.260295,,,,,,purse_05s.jpg,0.0,clockno_default.jpg,4.0,20,,,,,,,,,,,,,,,,,,0.0,20.0,20.0,20.0,1.0,,,,,,,,,,
0.0,1.0,2.182965,,,,,,icicle_04s.jpg,0.0,clockno_default.jpg,4.0,20,,,,,,,,,,,,,,,,,,0.0,21.0,21.0,21.0,1.0,,,,,,,,,,
0.0,1.0,2.46809,,,,,,microwave_02s.jpg,0.0,clockno_default.jpg,4.0,20,,,,,,,,,,,,,,,,,,0.0,22.0,22.0,22.0,1.0,,,,,,,,,,
0.0,1.0,2.32881,,,,,,bacon_05s.jpg,0.0,clockno_up.jpg,5.0,20,,,,,,,,,,,,,,,,,,0.0,23.0,23.0,23.0,1.0,,,,,,,,,,
0.0,1.0,2.448685,,,,,,trampoline_13s.jpg,0.0,clockno_default.jpg,5.0,20,,,,,,,,,,,,,,,,,,0.0,24.0,24.0,24.0,1.0,,,,,,,,,,
0.0,1.0,2.440125,,,,,,toaster_03s.jpg,0.0,clockno_default.jpg,5.0,20,,,,,,,,,,,,,,,,,,0.0,25.0,25.0,25.0,1.0,,,,,,,,,,
0.0,1.0,2.301,,,,,,raft_09s.jpg,0.0,clockno_default.jpg,5.0,20,,,,,,,,,,,,,,,,,,0.0,26.0,26.0,26.0,1.0,,,,,,,,,,
0.0,1.0,2.17584,,,,,,lantern_04s.jpg,0.0,clockno_default.jpg,5.0,20,,,,,,,,,,,,,,,,,,0.0,27.0,27.0,27.0,1.0,,,,,,,,,,
0.0,1.0,2.474755,,,,,,kitten_07s.jpg,0.0,clockno_default.jpg,5.0,20,,,,,,,,,,,,,,,,,,0.0,28.0,28.0,28.0,1.0,,,,,,,,,,
0.0,1.0,2.217715,,,,,,money_07s.jpg,0.0,clockno_default.jpg,5.0,20,,,,,,,,,,,,,,,,,,0.0,29.0,29.0,29.0,1.0,,,,,,,,,,
0.0,1.0,2.18305,,,,,,harpoon.jpg,0.0,clockno_up.jpg,6.0,20,,,,,,,,,,,,,,,,,,0.0,30.0,30.0,30.0,1.0,,,,,,,,,,
0.0,1.0,2.279055,,,,,,bonsai_07s.jpg,0.0,clockno_default.jpg,6.0,20,,,,,,,,,,,,,,,,,,0.0,31.0,31.0,31.0,1.0,,,,,,,,,,
0.0,1.0,2.19023,,,,,,ticktacktoe_08s.jpg,0.0,clockno_default.jpg,6.0,20,,,,,,,,,,,,,,,,,,0.0,32.0,32.0,32.0,1.0,,,,,,,,,,
0.0,1.0,2.290225,,,,,,kangaroo_02s.jpg,0.0,clockno_default.jpg,6.0,20,,,,,,,,,,,,,,,,,,0.0,33.0,33.0,33.0,1.0,,,,,,,,,,
0.0,1.0,2.307805,,,,,,meatball_13s.jpg,0.0,clockno_default.jpg,6.0,20,,,,,,,,,,,,,,,,,,0.0,34.0,34.0,34.0,1.0,,,,,,,,,,
0.0,1.0,2.46812,,,,,,sugar_cube_11s.jpg,0.0,clockno_default.jpg,6.0,20,,,,,,,,,,,,,,,,,,0.0,35.0,35.0,35.0,1.0,,,,,,,,,,
,,,,,,,,,1.0,,,20,0.0,0.0,1.635075,,,,,,purse_05s.jpg,bacon_05s.jpg,,,,,,,,,,,,,0.0,0.0,0.0,0.0,1.0,,,,,
,,,,,,,,,1.0,,,20,1.0,1.0,1.844495,,,,,,bank_06s.jpg,sea_urchin_09s.jpg,,,,,,,,,,,,,0.0,1.0,1.0,1.0,1.0,,,,,
,,,,,,,,,1.0,,,20,1.0,1.0,3.27416,,,,,,microwave_02s.jpg,toaster_03s.jpg,,,,,,,,,,,,,0.0,2.0,2.0,2.0,1.0,,,,,
,,,,,,,,,0.0,,,20,1.0,0.0,0.909035,,,,,,sundae_08s.jpg,rocking_chair_05s.jpg,,,,,,,,,,,,,0.0,3.0,3.0,3.0,1.0,,,,,
,,,,,,,,,1.0,,,20,0.0,0.0,0.908615,,,,,,spider_web_03s.jpg,inhaler_01b.jpg,,,,,,,,,,,,,0.0,4.0,4.0,4.0,1.0,,,,,
,,,,,,,,,1.0,,,20,1.0,1.0,1.233335,,,,,,harpoon.jpg,kangaroo_02s.jpg,,,,,,,,,,,,,0.0,5.0,5.0,5.0,1.0,,,,,
,,,,,,,,,,,,20,,,,,,,,,,,,,,,,clockno_present_2_12.xlsx,clockno_compare_task_2_12.xlsx,,,,,,,,,,,0.0,1.0,1.0,1.0,1.0
0.0,1.0,2.227575,,,,,,rudder_02s.jpg,0.0,clockno_up.jpg,1.0,20,,,,,,,,,,,,,,,,,,0.0,0.0,0.0,0.0,1.0,,,,,,,,,,
0.0,1.0,2.21513,,,,,,blowfish_03s.jpg,0.0,clockno_default.jpg,1.0,20,,,,,,,,,,,,,,,,,,0.0,1.0,1.0,1.0,1.0,,,,,,,,,,
1.0,1.0,2.116065,,,,,,rudder_02s.jpg,1.0,clockno_default.jpg,1.0,20,,,,,,,,,,,,,,,,,,0.0,2.0,2.0,2.0,1.0,,,,,,,,,,
1.0,0.0,2.41378,,,,,,rooster_03s.jpg,0.0,clockno_default.jpg,1.0,20,,,,,,,,,,,,,,,,,,0.0,3.0,3.0,3.0,1.0,,,,,,,,,,
,0.0,,,,,,,rooster_03s.jpg,1.0,clockno_default.jpg,1.0,20,,,,,,,,,,,,,,,,,,0.0,4.0,4.0,4.0,1.0,,,,,,,,,,
,0.0,,,,,,,rudder_02s.jpg,1.0,clockno_default.jpg,1.0,20,,,,,,,,,,,,,,,,,,0.0,5.0,5.0,5.0,1.0,,,,,,,,,,
1.0,1.0,2.279965,,,,,,blowfish_03s.jpg,1.0,clockno_default.jpg,1.0,20,,,,,,,,,,,,,,,,,,0.0,6.0,6.0,6.0,1.0,,,,,,,,,,
0.0,1.0,2.213485,,,,,,ironing_board_07s.jpg,0.0,clockno_up.jpg,2.0,20,,,,,,,,,,,,,,,,,,0.0,7.0,7.0,7.0,1.0,,,,,,,,,,
0.0,0.0,2.240125,,,,,,ironing_board_07s.jpg,1.0,clockno_default.jpg,2.0,20,,,,,,,,,,,,,,,,,,0.0,8.0,8.0,8.0,1.0,,,,,,,,,,
0.0,1.0,2.13402,,,,,,ukulele_02s.jpg,0.0,clockno_default.jpg,2.0,20,,,,,,,,,,,,,,,,,,0.0,9.0,9.0,9.0,1.0,,,,,,,,,,
0.0,1.0,2.24089,,,,,,stamp1_11s.jpg,0.0,clockno_default.jpg,2.0,20,,,,,,,,,,,,,,,,,,0.0,10.0,10.0,10.0,1.0,,,,,,,,,,
0.0,1.0,2.147665,,,,,,lemonade_04s.jpg,0.0,clockno_default.jpg,2.0,20,,,,,,,,,,,,,,,,,,0.0,11.0,11.0,11.0,1.0,,,,,,,,,,
0.0,1.0,2.20139,,,,,,foam_03s.jpg,0.0,clockno_default.jpg,2.0,20,,,,,,,,,,,,,,,,,,0.0,12.0,12.0,12.0,1.0,,,,,,,,,,
0.0,0.0,2.4541,,,,,,lemonade_04s.jpg,1.0,clockno_default.jpg,2.0,20,,,,,,,,,,,,,,,,,,0.0,13.0,13.0,13.0,1.0,,,,,,,,,,
0.0,1.0,2.32092,,,,,,antenna_01b.jpg,0.0,clockno_up.jpg,3.0,20,,,,,,,,,,,,,,,,,,0.0,14.0,14.0,14.0,1.0,,,,,,,,,,
0.0,0.0,2.38705,,,,,,antenna_01b.jpg,1.0,clockno_default.jpg,3.0,20,,,,,,,,,,,,,,,,,,0.0,15.0,15.0,15.0,1.0,,,,,,,,,,
1.0,1.0,2.26683,,,,,,antenna_01b.jpg,1.0,clockno_default.jpg,3.0,20,,,,,,,,,,,,,,,,,,0.0,16.0,16.0,16.0,1.0,,,,,,,,,,
0.0,1.0,2.36031,,,,,,pump_11s.jpg,0.0,clockno_default.jpg,3.0,20,,,,,,,,,,,,,,,,,,0.0,17.0,17.0,17.0,1.0,,,,,,,,,,
0.0,1.0,2.18933,,,,,,metronome_03s.jpg,0.0,clockno_default.jpg,3.0,20,,,,,,,,,,,,,,,,,,0.0,18.0,18.0,18.0,1.0,,,,,,,,,,
0.0,1.0,2.360895,,,,,,lamp_08s.jpg,0.0,clockno_default.jpg,3.0,20,,,,,,,,,,,,,,,,,,0.0,19.0,19.0,19.0,1.0,,,,,,,,,,
0.0,1.0,2.16924,,,,,,bean_06s.jpg,0.0,clockno_up.jpg,4.0,20,,,,,,,,,,,,,,,,,,0.0,20.0,20.0,20.0,1.0,,,,,,,,,,
0.0,1.0,2.186555,,,,,,pump_11s.jpg,0.0,clockno_default.jpg,4.0,20,,,,,,,,,,,,,,,,,,0.0,21.0,21.0,21.0,1.0,,,,,,,,,,
0.0,1.0,2.15555,,,,,,tortilla_06s.jpg,0.0,clockno_default.jpg,4.0,20,,,,,,,,,,,,,,,,,,0.0,22.0,22.0,22.0,1.0,,,,,,,,,,
0.0,1.0,2.2281,,,,,,blowfish_03s.jpg,0.0,clockno_default.jpg,4.0,20,,,,,,,,,,,,,,,,,,0.0,23.0,23.0,23.0,1.0,,,,,,,,,,
0.0,1.0,2.37527,,,,,,tweezers_03s.jpg,0.0,clockno_default.jpg,4.0,20,,,,,,,,,,,,,,,,,,0.0,24.0,24.0,24.0,1.0,,,,,,,,,,
0.0,1.0,2.17541,,,,,,marker_05s.jpg,0.0,clockno_default.jpg,4.0,20,,,,,,,,,,,,,,,,,,0.0,25.0,25.0,25.0,1.0,,,,,,,,,,
0.0,1.0,2.294155,,,,,,film_03s.jpg,0.0,clockno_up.jpg,5.0,20,,,,,,,,,,,,,,,,,,0.0,26.0,26.0,26.0,1.0,,,,,,,,,,
0.0,1.0,2.400475,,,,,,lipstick_02s.jpg,0.0,clockno_default.jpg,5.0,20,,,,,,,,,,,,,,,,,,0.0,27.0,27.0,27.0,1.0,,,,,,,,,,
0.0,1.0,2.35183,,,,,,ring_03s.jpg,0.0,clockno_default.jpg,5.0,20,,,,,,,,,,,,,,,,,,0.0,28.0,28.0,28.0,1.0,,,,,,,,,,
0.0,1.0,2.320735,,,,,,chime_12s.jpg,0.0,clockno_default.jpg,5.0,20,,,,,,,,,,,,,,,,,,0.0,29.0,29.0,29.0,1.0,,,,,,,,,,
0.0,1.0,2.45454,,,,,,ice_pack_09s.jpg,0.0,clockno_default.jpg,5.0,20,,,,,,,,,,,,,,,,,,0.0,30.0,30.0,30.0,1.0,,,,,,,,,,
0.0,1.0,2.214,,,,,,koala_13s.jpg,0.0,clockno_up.jpg,6.0,20,,,,,,,,,,,,,,,,,,0.0,31.0,31.0,31.0,1.0,,,,,,,,,,
0.0,1.0,2.241035,,,,,,footprint_11s.jpg,0.0,clockno_default.jpg,6.0,20,,,,,,,,,,,,,,,,,,0.0,32.0,32.0,32.0,1.0,,,,,,,,,,
0.0,0.0,2.346955,,,,,,footprint_11s.jpg,1.0,clockno_default.jpg,6.0,20,,,,,,,,,,,,,,,,,,0.0,33.0,33.0,33.0,1.0,,,,,,,,,,
0.0,1.0,2.267275,,,,,,lab_coat_11s.jpg,0.0,clockno_default.jpg,6.0,20,,,,,,,,,,,,,,,,,,0.0,34.0,34.0,34.0,1.0,,,,,,,,,,
0.0,1.0,2.41465,,,,,,toy_04s.jpg,0.0,clockno_default.jpg,6.0,20,,,,,,,,,,,,,,,,,,0.0,35.0,35.0,35.0,1.0,,,,,,,,,,
,,,,,,,,,0.0,,,20,0.0,1.0,1.39736,,,,,,tortilla_06s.jpg,lamp_08s.jpg,,,,,,,,,,,,,0.0,0.0,0.0,0.0,1.0,,,,,
,,,,,,,,,0.0,,,20,0.0,1.0,1.230485,,,,,,lipstick_02s.jpg,tweezers_03s.jpg,,,,,,,,,,,,,0.0,1.0,1.0,1.0,1.0,,,,,
,,,,,,,,,0.0,,,20,0.0,1.0,0.888445,,,,,,ring_03s.jpg,marker_05s.jpg,,,,,,,,,,,,,0.0,2.0,2.0,2.0,1.0,,,,,
,,,,,,,,,1.0,,,20,1.0,1.0,1.82169,,,,,,ukulele_02s.jpg,foam_03s.jpg,,,,,,,,,,,,,0.0,3.0,3.0,3.0,1.0,,,,,
,,,,,,,,,1.0,,,20,0.0,0.0,0.945395,,,,,,film_03s.jpg,chime_12s.jpg,,,,,,,,,,,,,0.0,4.0,4.0,4.0,1.0,,,,,
,,,,,,,,,1.0,,,20,0.0,0.0,1.020105,,,,,,koala_13s.jpg,lab_coat_11s.jpg,,,,,,,,,,,,,0.0,5.0,5.0,5.0,1.0,,,,,
,,,,,,,,,,,,20,,,,,,,,,,,,,,,,clockno_present_3_12.xlsx,clockno_compare_task_3_12.xlsx,,,,,,,,,,,0.0,2.0,2.0,2.0,1.0
0.0,1.0,2.321785,,,,,,surfboard_11s.jpg,0.0,clockno_up.jpg,1.0,20,,,,,,,,,,,,,,,,,,0.0,0.0,0.0,0.0,1.0,,,,,,,,,,
0.0,1.0,2.260455,,,,,,pea_11s.jpg,0.0,clockno_default.jpg,1.0,20,,,,,,,,,,,,,,,,,,0.0,1.0,1.0,1.0,1.0,,,,,,,,,,
0.0,1.0,1.241515,,,,,,checkbook_11s.jpg,0.0,clockno_default.jpg,1.0,20,,,,,,,,,,,,,,,,,,0.0,2.0,2.0,2.0,1.0,,,,,,,,,,
0.0,1.0,1.552165,,,,,,golf_club_03s.jpg,0.0,clockno_default.jpg,1.0,20,,,,,,,,,,,,,,,,,,0.0,3.0,3.0,3.0,1.0,,,,,,,,,,
0.0,1.0,1.3133,,,,,,seahorse_13s.jpg,0.0,clockno_default.jpg,1.0,20,,,,,,,,,,,,,,,,,,0.0,4.0,4.0,4.0,1.0,,,,,,,,,,
0.0,1.0,2.333565,,,,,,denture_03s.jpg,0.0,clockno_up.jpg,2.0,20,,,,,,,,,,,,,,,,,,0.0,5.0,5.0,5.0,1.0,,,,,,,,,,
0.0,1.0,2.168085,,,,,,mascara_03s.jpg,0.0,clockno_default.jpg,2.0,20,,,,,,,,,,,,,,,,,,0.0,6.0,6.0,6.0,1.0,,,,,,,,,,
0.0,1.0,1.94727,,,,,,potholder_02s.jpg,0.0,clockno_default.jpg,2.0,20,,,,,,,,,,,,,,,,,,0.0,7.0,7.0,7.0,1.0,,,,,,,,,,
0.0,1.0,1.769245,,,,,,fox_13s.jpg,0.0,clockno_default.jpg,2.0,20,,,,,,,,,,,,,,,,,,0.0,8.0,8.0,8.0,1.0,,,,,,,,,,
0.0,1.0,2.37485,,,,,,surfboard_11s.jpg,0.0,clockno_default.jpg,2.0,20,,,,,,,,,,,,,,,,,,0.0,9.0,9.0,9.0,1.0,,,,,,,,,,
0.0,1.0,2.281405,,,,,,jersey_02s.jpg,0.0,clockno_default.jpg,2.0,20,,,,,,,,,,,,,,,,,,0.0,10.0,10.0,10.0,1.0,,,,,,,,,,
0.0,1.0,2.202255,,,,,,powder_07s.jpg,0.0,clockno_default.jpg,2.0,20,,,,,,,,,,,,,,,,,,0.0,11.0,11.0,11.0,1.0,,,,,,,,,,
0.0,1.0,2.177295,,,,,,paper_towel_03s.jpg,0.0,clockno_up.jpg,3.0,20,,,,,,,,,,,,,,,,,,0.0,12.0,12.0,12.0,1.0,,,,,,,,,,
0.0,0.0,2.28121,,,,,,paper_towel_03s.jpg,1.0,clockno_default.jpg,3.0,20,,,,,,,,,,,,,,,,,,0.0,13.0,13.0,13.0,1.0,,,,,,,,,,
0.0,1.0,2.150605,,,,,,turtle_08s.jpg,0.0,clockno_default.jpg,3.0,20,,,,,,,,,,,,,,,,,,0.0,14.0,14.0,14.0,1.0,,,,,,,,,,
0.0,0.0,2.317325,,,,,,paper_towel_03s.jpg,1.0,clockno_default.jpg,3.0,20,,,,,,,,,,,,,,,,,,0.0,15.0,15.0,15.0,1.0,,,,,,,,,,
0.0,1.0,2.320335,,,,,,checkbook_11s.jpg,0.0,clockno_default.jpg,3.0,20,,,,,,,,,,,,,,,,,,0.0,16.0,16.0,16.0,1.0,,,,,,,,,,
0.0,1.0,2.455945,,,,,,dirt_bike_11s.jpg,0.0,clockno_up.jpg,4.0,20,,,,,,,,,,,,,,,,,,0.0,17.0,17.0,17.0,1.0,,,,,,,,,,
0.0,1.0,2.3028,,,,,,trident_07s.jpg,0.0,clockno_default.jpg,4.0,20,,,,,,,,,,,,,,,,,,0.0,18.0,18.0,18.0,1.0,,,,,,,,,,
0.0,1.0,2.3598,,,,,,denture_03s.jpg,0.0,clockno_default.jpg,4.0,20,,,,,,,,,,,,,,,,,,0.0,19.0,19.0,19.0,1.0,,,,,,,,,,
0.0,1.0,2.32139,,,,,,lip_gloss_06s.jpg,0.0,clockno_default.jpg,4.0,20,,,,,,,,,,,,,,,,,,0.0,20.0,20.0,20.0,1.0,,,,,,,,,,
0.0,1.0,2.19254,,,,,,squirt_gun_03s.jpg,0.0,clockno_default.jpg,4.0,20,,,,,,,,,,,,,,,,,,0.0,21.0,21.0,21.0,1.0,,,,,,,,,,
0.0,1.0,2.45384,,,,,,jigsaw_puzzle_11s.jpg,0.0,clockno_default.jpg,4.0,20,,,,,,,,,,,,,,,,,,0.0,22.0,22.0,22.0,1.0,,,,,,,,,,
0.0,1.0,2.45573,,,,,,pacifier_09s.jpg,0.0,clockno_default.jpg,4.0,20,,,,,,,,,,,,,,,,,,0.0,23.0,23.0,23.0,1.0,,,,,,,,,,
0.0,1.0,2.226705,,,,,,quill_09s.jpg,0.0,clockno_up.jpg,5.0,20,,,,,,,,,,,,,,,,,,0.0,24.0,24.0,24.0,1.0,,,,,,,,,,
0.0,1.0,2.333985,,,,,,seahorse_13s.jpg,0.0,clockno_default.jpg,5.0,20,,,,,,,,,,,,,,,,,,0.0,25.0,25.0,25.0,1.0,,,,,,,,,,
0.0,1.0,2.232845,,,,,,raccoon_02s.jpg,0.0,clockno_default.jpg,5.0,20,,,,,,,,,,,,,,,,,,0.0,26.0,26.0,26.0,1.0,,,,,,,,,,
0.0,1.0,2.250715,,,,,,radio_09s.jpg,0.0,clockno_default.jpg,5.0,20,,,,,,,,,,,,,,,,,,0.0,27.0,27.0,27.0,1.0,,,,,,,,,,
0.0,1.0,2.30336,,,,,,flip_flop_03s.jpg,0.0,clockno_default.jpg,5.0,20,,,,,,,,,,,,,,,,,,0.0,28.0,28.0,28.0,1.0,,,,,,,,,,
0.0,1.0,2.168555,,,,,,rabbit_03s.jpg,0.0,clockno_default.jpg,5.0,20,,,,,,,,,,,,,,,,,,0.0,29.0,29.0,29.0,1.0,,,,,,,,,,
0.0,1.0,2.214595,,,,,,gear_07s.jpg,0.0,clockno_up.jpg,6.0,20,,,,,,,,,,,,,,,,,,0.0,30.0,30.0,30.0,1.0,,,,,,,,,,
0.0,1.0,2.454125,,,,,,otter_05s.jpg,0.0,clockno_default.jpg,6.0,20,,,,,,,,,,,,,,,,,,0.0,31.0,31.0,31.0,1.0,,,,,,,,,,
0.0,1.0,2.3746,,,,,,lectern_08s.jpg,0.0,clockno_default.jpg,6.0,20,,,,,,,,,,,,,,,,,,0.0,32.0,32.0,32.0,1.0,,,,,,,,,,
0.0,1.0,2.360715,,,,,,sparkler_02s.jpg,0.0,clockno_default.jpg,6.0,20,,,,,,,,,,,,,,,,,,0.0,33.0,33.0,33.0,1.0,,,,,,,,,,
0.0,1.0,2.427265,,,,,,fork_04s.jpg,0.0,clockno_default.jpg,6.0,20,,,,,,,,,,,,,,,,,,0.0,34.0,34.0,34.0,1.0,,,,,,,,,,
1.0,0.0,2.27635,,,,,,quill_09s.jpg,0.0,clockno_default.jpg,6.0,20,,,,,,,,,,,,,,,,,,0.0,35.0,35.0,35.0,1.0,,,,,,,,,,
,,,,,,,,,0.0,,,20,0.0,1.0,0.956415,,,,,,mascara_03s.jpg,golf_club_03s.jpg,,,,,,,,,,,,,0.0,0.0,0.0,0.0,1.0,,,,,
,,,,,,,,,0.0,,,20,0.0,1.0,0.632605,,,,,,turtle_08s.jpg,powder_07s.jpg,,,,,,,,,,,,,0.0,1.0,1.0,1.0,1.0,,,,,
,,,,,,,,,1.0,,,20,0.0,0.0,0.82751,,,,,,radio_09s.jpg,gear_07s.jpg,,,,,,,,,,,,,0.0,2.0,2.0,2.0,1.0,,,,,
,,,,,,,,,0.0,,,20,0.0,1.0,0.62574,,,,,,jersey_02s.jpg,potholder_02s.jpg,,,,,,,,,,,,,0.0,3.0,3.0,3.0,1.0,,,,,
,,,,,,,,,0.0,,,20,0.0,1.0,0.8025,,,,,,squirt_gun_03s.jpg,trident_07s.jpg,,,,,,,,,,,,,0.0,4.0,4.0,4.0,1.0,,,,,
,,,,,,,,,0.0,,,20,0.0,1.0,0.494195,,,,,,lip_gloss_06s.jpg,dirt_bike_11s.jpg,,,,,,,,,,,,,0.0,5.0,5.0,5.0,1.0,,,,,
,,,,,,,,,,,,20,,,,,,,,,,,,,,,,clockno_present_4_12.xlsx,clockno_compare_task_4_12.xlsx,,,,,,,,,,,0.0,3.0,3.0,3.0,1.0
0.0,1.0,2.21556,,,,,,pinwheel_06s.jpg,0.0,clockno_up.jpg,1.0,20,,,,,,,,,,,,,,,,,,0.0,0.0,0.0,0.0,1.0,,,,,,,,,,
0.0,1.0,1.966595,,,,,,rice_12s.jpg,0.0,clockno_default.jpg,1.0,20,,,,,,,,,,,,,,,,,,0.0,1.0,1.0,1.0,1.0,,,,,,,,,,
0.0,1.0,2.259165,,,,,,machete_06s.jpg,0.0,clockno_default.jpg,1.0,20,,,,,,,,,,,,,,,,,,0.0,2.0,2.0,2.0,1.0,,,,,,,,,,
0.0,1.0,2.384515,,,,,,timer_03s.jpg,0.0,clockno_default.jpg,1.0,20,,,,,,,,,,,,,,,,,,0.0,3.0,3.0,3.0,1.0,,,,,,,,,,
0.0,1.0,2.04418,,,,,,mug_06s.jpg,0.0,clockno_default.jpg,1.0,20,,,,,,,,,,,,,,,,,,0.0,4.0,4.0,4.0,1.0,,,,,,,,,,
0.0,1.0,2.467795,,,,,,machine_gun_09s.jpg,0.0,clockno_default.jpg,1.0,20,,,,,,,,,,,,,,,,,,0.0,5.0,5.0,5.0,1.0,,,,,,,,,,
0.0,1.0,2.277775,,,,,,plug_08s.jpg,0.0,clockno_default.jpg,1.0,20,,,,,,,,,,,,,,,,,,0.0,6.0,6.0,6.0,1.0,,,,,,,,,,
0.0,1.0,2.284335,,,,,,tupperware_09s.jpg,0.0,clockno_up.jpg,2.0,20,,,,,,,,,,,,,,,,,,0.0,7.0,7.0,7.0,1.0,,,,,,,,,,
0.0,1.0,2.44059,,,,,,rice_12s.jpg,0.0,clockno_default.jpg,2.0,20,,,,,,,,,,,,,,,,,,0.0,8.0,8.0,8.0,1.0,,,,,,,,,,
0.0,1.0,2.328965,,,,,,briefcase_03s.jpg,0.0,clockno_default.jpg,2.0,20,,,,,,,,,,,,,,,,,,0.0,9.0,9.0,9.0,1.0,,,,,,,,,,
0.0,0.0,2.43312,,,,,,briefcase_03s.jpg,1.0,clockno_default.jpg,2.0,20,,,,,,,,,,,,,,,,,,0.0,10.0,10.0,10.0,1.0,,,,,,,,,,
0.0,1.0,2.363645,,,,,,thorn_13s.jpg,0.0,clockno_default.jpg,2.0,20,,,,,,,,,,,,,,,,,,0.0,11.0,11.0,11.0,1.0,,,,,,,,,,
0.0,1.0,2.44952,,,,,,chopsticks_08s.jpg,0.0,clockno_default.jpg,2.0,20,,,,,,,,,,,,,,,,,,0.0,12.0,12.0,12.0,1.0,,,,,,,,,,
0.0,1.0,2.2232,,,,,,oil_02s.jpg,0.0,clockno_up.jpg,3.0,20,,,,,,,,,,,,,,,,,,0.0,13.0,13.0,13.0,1.0,,,,,,,,,,
0.0,1.0,2.217665,,,,,,luggage_08s.jpg,0.0,clockno_default.jpg,3.0,20,,,,,,,,,,,,,,,,,,0.0,14.0,14.0,14.0,1.0,,,,,,,,,,
0.0,1.0,2.34279,,,,,,dynamite_01b.jpg,0.0,clockno_default.jpg,3.0,20,,,,,,,,,,,,,,,,,,0.0,15.0,15.0,15.0,1.0,,,,,,,,,,
0.0,0.0,2.314255,,,,,,oil_02s.jpg,1.0,clockno_default.jpg,3.0,20,,,,,,,,,,,,,,,,,,0.0,16.0,16.0,16.0,1.0,,,,,,,,,,
1.0,1.0,2.294065,,,,,,oil_02s.jpg,1.0,clockno_default.jpg,3.0,20,,,,,,,,,,,,,,,,,,0.0,17.0,17.0,17.0,1.0,,,,,,,,,,
0.0,0.0,2.315965,,,,,,luggage_08s.jpg,1.0,clockno_default.jpg,3.0,20,,,,,,,,,,,,,,,,,,0.0,18.0,18.0,18.0,1.0,,,,,,,,,,
1.0,1.0,2.41148,,,,,,oil_02s.jpg,1.0,clockno_default.jpg,3.0,20,,,,,,,,,,,,,,,,,,0.0,19.0,19.0,19.0,1.0,,,,,,,,,,
,0.0,,,,,,,soda_fountain_03s.jpg,0.0,clockno_up.jpg,4.0,20,,,,,,,,,,,,,,,,,,0.0,20.0,20.0,20.0,1.0,,,,,,,,,,
0.0,1.0,2.38593,,,,,,thread_08s.jpg,0.0,clockno_default.jpg,4.0,20,,,,,,,,,,,,,,,,,,0.0,21.0,21.0,21.0,1.0,,,,,,,,,,
0.0,1.0,2.28732,,,,,,rice_12s.jpg,0.0,clockno_default.jpg,4.0,20,,,,,,,,,,,,,,,,,,0.0,22.0,22.0,22.0,1.0,,,,,,,,,,
0.0,1.0,2.36558,,,,,,power_line_08s.jpg,0.0,clockno_default.jpg,4.0,20,,,,,,,,,,,,,,,,,,0.0,23.0,23.0,23.0,1.0,,,,,,,,,,
0.0,1.0,2.20388,,,,,,boar_10s.jpg,0.0,clockno_default.jpg,4.0,20,,,,,,,,,,,,,,,,,,0.0,24.0,24.0,24.0,1.0,,,,,,,,,,
0.0,1.0,2.23865,,,,,,teabag_12s.jpg,0.0,clockno_up.jpg,5.0,20,,,,,,,,,,,,,,,,,,0.0,25.0,25.0,25.0,1.0,,,,,,,,,,
0.0,1.0,2.36356,,,,,,ladle_04s.jpg,0.0,clockno_default.jpg,5.0,20,,,,,,,,,,,,,,,,,,0.0,26.0,26.0,26.0,1.0,,,,,,,,,,
0.0,0.0,2.335805,,,,,,teabag_12s.jpg,1.0,clockno_default.jpg,5.0,20,,,,,,,,,,,,,,,,,,0.0,27.0,27.0,27.0,1.0,,,,,,,,,,
0.0,1.0,2.20775,,,,,,timer_03s.jpg,0.0,clockno_default.jpg,5.0,20,,,,,,,,,,,,,,,,,,0.0,28.0,28.0,28.0,1.0,,,,,,,,,,
0.0,1.0,2.464635,,,,,,sunglasses_11s.jpg,0.0,clockno_default.jpg,5.0,20,,,,,,,,,,,,,,,,,,0.0,29.0,29.0,29.0,1.0,,,,,,,,,,
0.0,1.0,2.388585,,,,,,air_pump_05s.jpg,0.0,clockno_up.jpg,6.0,20,,,,,,,,,,,,,,,,,,0.0,30.0,30.0,30.0,1.0,,,,,,,,,,
0.0,1.0,2.435215,,,,,,bottle_opener_11s.jpg,0.0,clockno_default.jpg,6.0,20,,,,,,,,,,,,,,,,,,0.0,31.0,31.0,31.0,1.0,,,,,,,,,,
0.0,1.0,2.38443,,,,,,kimono_13s.jpg,0.0,clockno_default.jpg,6.0,20,,,,,,,,,,,,,,,,,,0.0,32.0,32.0,32.0,1.0,,,,,,,,,,
0.0,0.0,2.356655,,,,,,bottle_opener_11s.jpg,1.0,clockno_default.jpg,6.0,20,,,,,,,,,,,,,,,,,,0.0,33.0,33.0,33.0,1.0,,,,,,,,,,
0.0,1.0,2.339725,,,,,,orangutan_03s.jpg,0.0,clockno_default.jpg,6.0,20,,,,,,,,,,,,,,,,,,0.0,34.0,34.0,34.0,1.0,,,,,,,,,,
0.0,1.0,2.33955,,,,,,turf_03s.jpg,0.0,clockno_default.jpg,6.0,20,,,,,,,,,,,,,,,,,,0.0,35.0,35.0,35.0,1.0,,,,,,,,,,
,,,,,,,,,0.0,,,20,0.0,1.0,0.648145,,,,,,tupperware_09s.jpg,mug_06s.jpg,,,,,,,,,,,,,0.0,0.0,0.0,0.0,1.0,,,,,
,,,,,,,,,0.0,,,20,0.0,1.0,0.86914,,,,,,dynamite_01b.jpg,chopsticks_08s.jpg,,,,,,,,,,,,,0.0,1.0,1.0,1.0,1.0,,,,,
,,,,,,,,,0.0,,,20,0.0,1.0,0.631295,,,,,,ladle_04s.jpg,power_line_08s.jpg,,,,,,,,,,,,,0.0,2.0,2.0,2.0,1.0,,,,,
,,,,,,,,,0.0,,,20,0.0,1.0,0.894675,,,,,,machine_gun_09s.jpg,machete_06s.jpg,,,,,,,,,,,,,0.0,3.0,3.0,3.0,1.0,,,,,
,,,,,,,,,0.0,,,20,0.0,1.0,0.545765,,,,,,boar_10s.jpg,thread_08s.jpg,,,,,,,,,,,,,0.0,4.0,4.0,4.0,1.0,,,,,
,,,,,,,,,1.0,,,20,0.0,0.0,0.417225,,,,,,kimono_13s.jpg,turf_03s.jpg,,,,,,,,,,,,,0.0,5.0,5.0,5.0,1.0,,,,,
,,,,,,,,,,,,20,,,,,,,,,,,,,,,,clockno_present_5_12.xlsx,clockno_compare_task_5_12.xlsx,,,,,,,,,,,0.0,4.0,4.0,4.0,1.0
0.0,1.0,2.430355,,,,,,magnet_03s.jpg,0.0,clockno_up.jpg,1.0,20,,,,,,,,,,,,,,,,,,0.0,0.0,0.0,0.0,1.0,,,,,,,,,,
1.0,1.0,2.22441,,,,,,magnet_03s.jpg,1.0,clockno_default.jpg,1.0,20,,,,,,,,,,,,,,,,,,0.0,1.0,1.0,1.0,1.0,,,,,,,,,,
0.0,1.0,2.336635,,,,,,margarita_03s.jpg,0.0,clockno_default.jpg,1.0,20,,,,,,,,,,,,,,,,,,0.0,2.0,2.0,2.0,1.0,,,,,,,,,,
0.0,1.0,2.419265,,,,,,pepper2_21s.jpg,0.0,clockno_default.jpg,1.0,20,,,,,,,,,,,,,,,,,,0.0,3.0,3.0,3.0,1.0,,,,,,,,,,
0.0,1.0,2.474895,,,,,,gargoyle_08s.jpg,0.0,clockno_default.jpg,1.0,20,,,,,,,,,,,,,,,,,,0.0,4.0,4.0,4.0,1.0,,,,,,,,,,
0.0,1.0,2.231485,,,,,,exhaust_pipe_10s.jpg,0.0,clockno_up.jpg,2.0,20,,,,,,,,,,,,,,,,,,0.0,5.0,5.0,5.0,1.0,,,,,,,,,,
1.0,1.0,2.42991,,,,,,exhaust_pipe_10s.jpg,1.0,clockno_default.jpg,2.0,20,,,,,,,,,,,,,,,,,,0.0,6.0,6.0,6.0,1.0,,,,,,,,,,
1.0,0.0,2.414135,,,,,,pepper2_21s.jpg,0.0,clockno_default.jpg,2.0,20,,,,,,,,,,,,,,,,,,0.0,7.0,7.0,7.0,1.0,,,,,,,,,,
0.0,1.0,2.46095,,,,,,plunger_08s.jpg,0.0,clockno_default.jpg,2.0,20,,,,,,,,,,,,,,,,,,0.0,8.0,8.0,8.0,1.0,,,,,,,,,,
0.0,1.0,2.29416,,,,,,swan_11s.jpg,0.0,clockno_default.jpg,2.0,20,,,,,,,,,,,,,,,,,,0.0,9.0,9.0,9.0,1.0,,,,,,,,,,
1.0,1.0,2.301055,,,,,,plunger_08s.jpg,1.0,clockno_default.jpg,2.0,20,,,,,,,,,,,,,,,,,,0.0,10.0,10.0,10.0,1.0,,,,,,,,,,
1.0,1.0,2.308125,,,,,,swan_11s.jpg,1.0,clockno_default.jpg,2.0,20,,,,,,,,,,,,,,,,,,0.0,11.0,11.0,11.0,1.0,,,,,,,,,,
0.0,1.0,2.37749,,,,,,tambourine_06s.jpg,0.0,clockno_up.jpg,3.0,20,,,,,,,,,,,,,,,,,,0.0,12.0,12.0,12.0,1.0,,,,,,,,,,
0.0,0.0,2.278005,,,,,,tambourine_06s.jpg,1.0,clockno_default.jpg,3.0,20,,,,,,,,,,,,,,,,,,0.0,13.0,13.0,13.0,1.0,,,,,,,,,,
1.0,1.0,2.263505,,,,,,tambourine_06s.jpg,1.0,clockno_default.jpg,3.0,20,,,,,,,,,,,,,,,,,,0.0,14.0,14.0,14.0,1.0,,,,,,,,,,
,0.0,,,,,,,mask_09s.jpg,0.0,clockno_default.jpg,3.0,20,,,,,,,,,,,,,,,,,,0.0,15.0,15.0,15.0,1.0,,,,,,,,,,
,0.0,,,,,,,spoon02a.jpg,0.0,clockno_default.jpg,3.0,20,,,,,,,,,,,,,,,,,,0.0,16.0,16.0,16.0,1.0,,,,,,,,,,
,0.0,,,,,,,pantyhose_07s.jpg,0.0,clockno_default.jpg,3.0,20,,,,,,,,,,,,,,,,,,0.0,17.0,17.0,17.0,1.0,,,,,,,,,,
,0.0,,,,,,,fire_pit_10s.jpg,0.0,clockno_up.jpg,4.0,20,,,,,,,,,,,,,,,,,,0.0,18.0,18.0,18.0,1.0,,,,,,,,,,
,0.0,,,,,,,tape_measure_11s.jpg,0.0,clockno_default.jpg,4.0,20,,,,,,,,,,,,,,,,,,0.0,19.0,19.0,19.0,1.0,,,,,,,,,,
1.0,0.0,0.69946,,,,,,swan_11s.jpg,0.0,clockno_default.jpg,4.0,20,,,,,,,,,,,,,,,,,,0.0,20.0,20.0,20.0,1.0,,,,,,,,,,
,0.0,,,,,,,bee_20s.jpg,0.0,clockno_default.jpg,4.0,20,,,,,,,,,,,,,,,,,,0.0,21.0,21.0,21.0,1.0,,,,,,,,,,
,0.0,,,,,,,puppet_01b.jpg,0.0,clockno_default.jpg,4.0,20,,,,,,,,,,,,,,,,,,0.0,22.0,22.0,22.0,1.0,,,,,,,,,,
,0.0,,,,,,,rock_08s.jpg,0.0,clockno_up.jpg,5.0,20,,,,,,,,,,,,,,,,,,0.0,23.0,23.0,23.0,1.0,,,,,,,,,,
0.0,1.0,2.402465,,,,,,scooter.jpg,0.0,clockno_default.jpg,5.0,20,,,,,,,,,,,,,,,,,,0.0,24.0,24.0,24.0,1.0,,,,,,,,,,
0.0,1.0,2.27998,,,,,,cucumber_07s.jpg,0.0,clockno_default.jpg,5.0,20,,,,,,,,,,,,,,,,,,0.0,25.0,25.0,25.0,1.0,,,,,,,,,,
0.0,1.0,2.29479,,,,,,camcorder_10s.jpg,0.0,clockno_default.jpg,5.0,20,,,,,,,,,,,,,,,,,,0.0,26.0,26.0,26.0,1.0,,,,,,,,,,
1.0,1.0,2.377415,,,,,,camcorder_10s.jpg,1.0,clockno_default.jpg,5.0,20,,,,,,,,,,,,,,,,,,0.0,27.0,27.0,27.0,1.0,,,,,,,,,,
1.0,1.0,2.23835,,,,,,camcorder_10s.jpg,1.0,clockno_default.jpg,5.0,20,,,,,,,,,,,,,,,,,,0.0,28.0,28.0,28.0,1.0,,,,,,,,,,
0.0,1.0,2.31903,,,,,,penguin_16s.jpg,0.0,clockno_up.jpg,6.0,20,,,,,,,,,,,,,,,,,,0.0,29.0,29.0,29.0,1.0,,,,,,,,,,
0.0,1.0,2.29493,,,,,,swordfish_05s.jpg,0.0,clockno_default.jpg,6.0,20,,,,,,,,,,,,,,,,,,0.0,30.0,30.0,30.0,1.0,,,,,,,,,,
0.0,1.0,2.265645,,,,,,turkey_10s.jpg,0.0,clockno_default.jpg,6.0,20,,,,,,,,,,,,,,,,,,0.0,31.0,31.0,31.0,1.0,,,,,,,,,,
0.0,1.0,2.287395,,,,,,quilt_03s.jpg,0.0,clockno_default.jpg,6.0,20,,,,,,,,,,,,,,,,,,0.0,32.0,32.0,32.0,1.0,,,,,,,,,,
0.0,1.0,2.42615,,,,,,gong_02s.jpg,0.0,clockno_default.jpg,6.0,20,,,,,,,,,,,,,,,,,,0.0,33.0,33.0,33.0,1.0,,,,,,,,,,
0.0,1.0,2.217485,,,,,,cobra_05s.jpg,0.0,clockno_default.jpg,6.0,20,,,,,,,,,,,,,,,,,,0.0,34.0,34.0,34.0,1.0,,,,,,,,,,
0.0,1.0,2.25926,,,,,,duck_01b.jpg,0.0,clockno_default.jpg,6.0,20,,,,,,,,,,,,,,,,,,0.0,35.0,35.0,35.0,1.0,,,,,,,,,,
,,,,,,,,,1.0,,,20,0.0,0.0,1.642035,,,,,,mask_09s.jpg,fire_pit_10s.jpg,,,,,,,,,,,,,0.0,0.0,0.0,0.0,1.0,,,,,
,,,,,,,,,0.0,,,20,1.0,0.0,1.77484,,,,,,tape_measure_11s.jpg,spoon02a.jpg,,,,,,,,,,,,,0.0,1.0,1.0,1.0,1.0,,,,,
,,,,,,,,,0.0,,,20,0.0,1.0,0.730075,,,,,,scooter.jpg,bee_20s.jpg,,,,,,,,,,,,,0.0,2.0,2.0,2.0,1.0,,,,,
,,,,,,,,,0.0,,,20,0.0,1.0,0.667015,,,,,,quilt_03s.jpg,penguin_16s.jpg,,,,,,,,,,,,,0.0,3.0,3.0,3.0,1.0,,,,,
,,,,,,,,,0.0,,,20,0.0,1.0,1.105605,,,,,,gong_02s.jpg,swordfish_05s.jpg,,,,,,,,,,,,,0.0,4.0,4.0,4.0,1.0,,,,,
,,,,,,,,,0.0,,,20,1.0,0.0,0.938545,,,,,,cobra_05s.jpg,turkey_10s.jpg,,,,,,,,,,,,,0.0,5.0,5.0,5.0,1.0,,,,,
