key_resp.keys,key_resp.corr,key_resp.rt,present_segment.thisRepN,present_segment.thisTrialN,present_segment.thisN,present_segment.thisIndex,present_segment.ran,pictures,answer,clock,segment,participant,key_resp_2.keys,key_resp_2.corr,key_resp_2.rt,compare_segment.thisRepN,compare_segment.thisTrialN,compare_segment.thisN,compare_segment.thisIndex,compare_segment.ran,item_a,item_b,clock_conditions.thisRepN,clock_conditions.thisTrialN,clock_conditions.thisN,clock_conditions.thisIndex,clock_conditions.ran,present,compare,noclock_present.thisRepN,noclock_present.thisTrialN,noclock_present.thisN,noclock_present.thisIndex,noclock_present.ran,noclock_compare.thisRepN,noclock_compare.thisTrialN,noclock_compare.thisN,noclock_compare.thisIndex,noclock_compare.ran,noclock_conditions.thisRepN,noclock_conditions.thisTrialN,noclock_conditions.thisN,noclock_conditions.thisIndex,noclock_conditions.ran
0.0,1.0,1.532,0.0,0.0,0.0,0.0,1.0,undershirt_02s.jpg,0.0,clock_5_1.png,1.0,28,,,,,,,,,,,,,,,,,,,,,,,,,,,,,,,,
0.0,1.0,1.458,0.0,1.0,1.0,1.0,1.0,ladder_15s.jpg,0.0,clock_5_2.png,1.0,28,,,,,,,,,,,,,,,,,,,,,,,,,,,,,,,,
0.0,1.0,1.041,0.0,2.0,2.0,2.0,1.0,lantern_04s.jpg,0.0,clock_5_3.png,1.0,28,,,,,,,,,,,,,,,,,,,,,,,,,,,,,,,,
0.0,1.0,0.76,0.0,3.0,3.0,3.0,1.0,cap_05s.jpg,0.0,clock_5_4.png,1.0,28,,,,,,,,,,,,,,,,,,,,,,,,,,,,,,,,
0.0,1.0,0.527,0.0,4.0,4.0,4.0,1.0,boar_10s.jpg,0.0,clock_5_5.png,1.0,28,,,,,,,,,,,,,,,,,,,,,,,,,,,,,,,,
0.0,1.0,0.985,0.0,5.0,5.0,5.0,1.0,ring_03s.jpg,0.0,clock_7_1.png,2.0,28,,,,,,,,,,,,,,,,,,,,,,,,,,,,,,,,
0.0,1.0,0.512,0.0,6.0,6.0,6.0,1.0,kimono_13s.jpg,0.0,clock_7_2.png,2.0,28,,,,,,,,,,,,,,,,,,,,,,,,,,,,,,,,
0.0,1.0,0.432,0.0,7.0,7.0,7.0,1.0,pacifier_09s.jpg,0.0,clock_7_3.png,2.0,28,,,,,,,,,,,,,,,,,,,,,,,,,,,,,,,,
0.0,1.0,0.562,0.0,8.0,8.0,8.0,1.0,cape_11s.jpg,0.0,clock_7_4.png,2.0,28,,,,,,,,,,,,,,,,,,,,,,,,,,,,,,,,
,0.0,,0.0,9.0,9.0,9.0,1.0,spider_web_03s.jpg,0.0,clock_7_5.png,2.0,28,,,,,,,,,,,,,,,,,,,,,,,,,,,,,,,,
0.0,1.0,0.84,0.0,10.0,10.0,10.0,1.0,pancake_12s.jpg,0.0,clock_7_6.png,2.0,28,,,,,,,,,,,,,,,,,,,,,,,,,,,,,,,,
1.0,1.0,1.128,0.0,11.0,11.0,11.0,1.0,pancake_12s.jpg,1.0,clock_7_7.png,2.0,28,,,,,,,,,,,,,,,,,,,,,,,,,,,,,,,,
0.0,1.0,1.052,0.0,12.0,12.0,12.0,1.0,tulip_02s.jpg,0.0,clock_6_1.png,3.0,28,,,,,,,,,,,,,,,,,,,,,,,,,,,,,,,,
1.0,0.0,0.879,0.0,13.0,13.0,13.0,1.0,pacifier_09s.jpg,0.0,clock_6_2.png,3.0,28,,,,,,,,,,,,,,,,,,,,,,,,,,,,,,,,
0.0,1.0,0.913,0.0,14.0,14.0,14.0,1.0,gas_mask_11s.jpg,0.0,clock_6_3.png,3.0,28,,,,,,,,,,,,,,,,,,,,,,,,,,,,,,,,
0.0,1.0,1.048,0.0,15.0,15.0,15.0,1.0,torch_02s.jpg,0.0,clock_6_4.png,3.0,28,,,,,,,,,,,,,,,,,,,,,,,,,,,,,,,,
0.0,1.0,0.497,0.0,16.0,16.0,16.0,1.0,powder_07s.jpg,0.0,clock_6_5.png,3.0,28,,,,,,,,,,,,,,,,,,,,,,,,,,,,,,,,
0.0,1.0,0.481,0.0,17.0,17.0,17.0,1.0,lamppost_09s.jpg,0.0,clock_6_6.png,3.0,28,,,,,,,,,,,,,,,,,,,,,,,,,,,,,,,,
0.0,1.0,0.533,0.0,18.0,18.0,18.0,1.0,rug_09s.jpg,0.0,clock_7_1.png,4.0,28,,,,,,,,,,,,,,,,,,,,,,,,,,,,,,,,
0.0,0.0,0.473,0.0,19.0,19.0,19.0,1.0,rug_09s.jpg,1.0,clock_7_2.png,4.0,28,,,,,,,,,,,,,,,,,,,,,,,,,,,,,,,,
0.0,1.0,0.649,0.0,20.0,20.0,20.0,1.0,pencil_sharpener_09n.jpg,0.0,clock_7_3.png,4.0,28,,,,,,,,,,,,,,,,,,,,,,,,,,,,,,,,
0.0,1.0,0.449,0.0,21.0,21.0,21.0,1.0,trumpet_06s.jpg,0.0,clock_7_4.png,4.0,28,,,,,,,,,,,,,,,,,,,,,,,,,,,,,,,,
0.0,1.0,0.397,0.0,22.0,22.0,22.0,1.0,typewriter_11s.jpg,0.0,clock_7_5.png,4.0,28,,,,,,,,,,,,,,,,,,,,,,,,,,,,,,,,
0.0,1.0,0.969,0.0,23.0,23.0,23.0,1.0,swan_11s.jpg,0.0,clock_7_6.png,4.0,28,,,,,,,,,,,,,,,,,,,,,,,,,,,,,,,,
0.0,1.0,0.431,0.0,24.0,24.0,24.0,1.0,torch_02s.jpg,0.0,clock_7_7.png,4.0,28,,,,,,,,,,,,,,,,,,,,,,,,,,,,,,,,
0.0,1.0,0.546,0.0,25.0,25.0,25.0,1.0,submarine_11n.jpg,0.0,clock_6_1.png,5.0,28,,,,,,,,,,,,,,,,,,,,,,,,,,,,,,,,
0.0,1.0,0.433,0.0,26.0,26.0,26.0,1.0,popcorn_09s.jpg,0.0,clock_6_2.png,5.0,28,,,,,,,,,,,,,,,,,,,,,,,,,,,,,,,,
0.0,1.0,0.5,0.0,27.0,27.0,27.0,1.0,turnstile_08s.jpg,0.0,clock_6_3.png,5.0,28,,,,,,,,,,,,,,,,,,,,,,,,,,,,,,,,
0.0,1.0,0.48,0.0,28.0,28.0,28.0,1.0,printer_09s.jpg,0.0,clock_6_4.png,5.0,28,,,,,,,,,,,,,,,,,,,,,,,,,,,,,,,,
0.0,1.0,0.617,0.0,29.0,29.0,29.0,1.0,orange_12s.jpg,0.0,clock_6_5.png,5.0,28,,,,,,,,,,,,,,,,,,,,,,,,,,,,,,,,
0.0,0.0,0.451,0.0,30.0,30.0,30.0,1.0,submarine_11n.jpg,1.0,clock_6_6.png,5.0,28,,,,,,,,,,,,,,,,,,,,,,,,,,,,,,,,
0.0,1.0,0.997,0.0,31.0,31.0,31.0,1.0,red_carpet_03s.jpg,0.0,clock_5_1.png,6.0,28,,,,,,,,,,,,,,,,,,,,,,,,,,,,,,,,
0.0,1.0,0.648,0.0,32.0,32.0,32.0,1.0,spider_web_03s.jpg,0.0,clock_5_2.png,6.0,28,,,,,,,,,,,,,,,,,,,,,,,,,,,,,,,,
0.0,1.0,0.498,0.0,33.0,33.0,33.0,1.0,fireworks_18s.jpg,0.0,clock_5_3.png,6.0,28,,,,,,,,,,,,,,,,,,,,,,,,,,,,,,,,
0.0,1.0,0.48,0.0,34.0,34.0,34.0,1.0,piano_13n.jpg,0.0,clock_5_4.png,6.0,28,,,,,,,,,,,,,,,,,,,,,,,,,,,,,,,,
0.0,1.0,0.497,0.0,35.0,35.0,35.0,1.0,fondue_07s.jpg,0.0,clock_5_5.png,6.0,28,,,,,,,,,,,,,,,,,,,,,,,,,,,,,,,,
,,,,,,,,,1.0,,,28,1.0,1.0,1.673,0.0,0.0,0.0,0.0,1.0,lantern_04s.jpg,ring_03s.jpg,,,,,,,,,,,,,,,,,,,,,,
,,,,,,,,,1.0,,,28,0.0,0.0,1.917,0.0,1.0,1.0,1.0,1.0,cap_05s.jpg,kimono_13s.jpg,,,,,,,,,,,,,,,,,,,,,,
,,,,,,,,,0.0,,,28,0.0,1.0,1.266,0.0,2.0,2.0,2.0,1.0,red_carpet_03s.jpg,printer_09s.jpg,,,,,,,,,,,,,,,,,,,,,,
,,,,,,,,,0.0,,,28,1.0,0.0,1.352,0.0,3.0,3.0,3.0,1.0,boar_10s.jpg,ladder_15s.jpg,,,,,,,,,,,,,,,,,,,,,,
,,,,,,,,,0.0,,,28,0.0,1.0,1.599,0.0,4.0,4.0,4.0,1.0,lamppost_09s.jpg,gas_mask_11s.jpg,,,,,,,,,,,,,,,,,,,,,,
,,,,,,,,,1.0,,,28,1.0,1.0,1.53,0.0,5.0,5.0,5.0,1.0,popcorn_09s.jpg,orange_12s.jpg,,,,,,,,,,,,,,,,,,,,,,
,,,,,,,,,,,,28,,,,,,,,,,,0.0,0.0,0.0,0.0,1.0,clock_present_1_5.xlsx,clock_compare_task_1_5.xlsx,,,,,,,,,,,,,,,
0.0,1.0,1.442,0.0,0.0,0.0,0.0,1.0,rhinoceros_02s.jpg,0.0,clock_5_1.png,1.0,28,,,,,,,,,,,,,,,,,,,,,,,,,,,,,,,,
0.0,1.0,0.864,0.0,1.0,1.0,1.0,1.0,laundry_basket_11s.jpg,0.0,clock_5_2.png,1.0,28,,,,,,,,,,,,,,,,,,,,,,,,,,,,,,,,
0.0,0.0,0.866,0.0,2.0,2.0,2.0,1.0,laundry_basket_11s.jpg,1.0,clock_5_3.png,1.0,28,,,,,,,,,,,,,,,,,,,,,,,,,,,,,,,,
0.0,1.0,0.525,0.0,3.0,3.0,3.0,1.0,peeler_06s.jpg,0.0,clock_5_4.png,1.0,28,,,,,,,,,,,,,,,,,,,,,,,,,,,,,,,,
0.0,1.0,0.432,0.0,4.0,4.0,4.0,1.0,pepper_mill_03s.jpg,0.0,clock_5_5.png,1.0,28,,,,,,,,,,,,,,,,,,,,,,,,,,,,,,,,
0.0,1.0,0.963,0.0,5.0,5.0,5.0,1.0,eiffeltower.jpg,0.0,clock_7_1.png,2.0,28,,,,,,,,,,,,,,,,,,,,,,,,,,,,,,,,
0.0,0.0,0.937,0.0,6.0,6.0,6.0,1.0,eiffeltower.jpg,1.0,clock_7_2.png,2.0,28,,,,,,,,,,,,,,,,,,,,,,,,,,,,,,,,
0.0,1.0,0.473,0.0,7.0,7.0,7.0,1.0,blender_08s.jpg,0.0,clock_7_3.png,2.0,28,,,,,,,,,,,,,,,,,,,,,,,,,,,,,,,,
0.0,1.0,0.431,0.0,8.0,8.0,8.0,1.0,treasure_08s.jpg,0.0,clock_7_4.png,2.0,28,,,,,,,,,,,,,,,,,,,,,,,,,,,,,,,,
0.0,0.0,0.448,0.0,9.0,9.0,9.0,1.0,eiffeltower.jpg,1.0,clock_7_5.png,2.0,28,,,,,,,,,,,,,,,,,,,,,,,,,,,,,,,,
0.0,1.0,0.593,0.0,10.0,10.0,10.0,1.0,lamb_04s.jpg,0.0,clock_7_6.png,2.0,28,,,,,,,,,,,,,,,,,,,,,,,,,,,,,,,,
1.0,1.0,0.871,0.0,11.0,11.0,11.0,1.0,blender_08s.jpg,1.0,clock_7_7.png,2.0,28,,,,,,,,,,,,,,,,,,,,,,,,,,,,,,,,
0.0,1.0,1.091,0.0,12.0,12.0,12.0,1.0,outlet_10s.jpg,0.0,clock_6_1.png,3.0,28,,,,,,,,,,,,,,,,,,,,,,,,,,,,,,,,
0.0,1.0,0.496,0.0,13.0,13.0,13.0,1.0,mixer_12s.jpg,0.0,clock_6_2.png,3.0,28,,,,,,,,,,,,,,,,,,,,,,,,,,,,,,,,
0.0,1.0,0.66,0.0,14.0,14.0,14.0,1.0,toilet_07s.jpg,0.0,clock_6_3.png,3.0,28,,,,,,,,,,,,,,,,,,,,,,,,,,,,,,,,
0.0,1.0,0.406,0.0,15.0,15.0,15.0,1.0,keyboard_05s.jpg,0.0,clock_6_4.png,3.0,28,,,,,,,,,,,,,,,,,,,,,,,,,,,,,,,,
1.0,1.0,0.837,0.0,16.0,16.0,16.0,1.0,toilet_07s.jpg,1.0,clock_6_5.png,3.0,28,,,,,,,,,,,,,,,,,,,,,,,,,,,,,,,,
0.0,1.0,0.664,0.0,17.0,17.0,17.0,1.0,air_pump_05s.jpg,0.0,clock_6_6.png,3.0,28,,,,,,,,,,,,,,,,,,,,,,,,,,,,,,,,
0.0,1.0,0.702,0.0,18.0,18.0,18.0,1.0,limousine_12s.jpg,0.0,clock_7_1.png,4.0,28,,,,,,,,,,,,,,,,,,,,,,,,,,,,,,,,
0.0,0.0,1.039,0.0,19.0,19.0,19.0,1.0,limousine_12s.jpg,1.0,clock_7_2.png,4.0,28,,,,,,,,,,,,,,,,,,,,,,,,,,,,,,,,
0.0,1.0,0.599,0.0,20.0,20.0,20.0,1.0,rope_16s.jpg,0.0,clock_7_3.png,4.0,28,,,,,,,,,,,,,,,,,,,,,,,,,,,,,,,,
0.0,1.0,1.199,0.0,21.0,21.0,21.0,1.0,omelet_07s.jpg,0.0,clock_7_4.png,4.0,28,,,,,,,,,,,,,,,,,,,,,,,,,,,,,,,,
0.0,1.0,0.547,0.0,22.0,22.0,22.0,1.0,jigsaw_puzzle_11s.jpg,0.0,clock_7_5.png,4.0,28,,,,,,,,,,,,,,,,,,,,,,,,,,,,,,,,
0.0,1.0,0.694,0.0,23.0,23.0,23.0,1.0,taxi_15s.jpg,0.0,clock_7_6.png,4.0,28,,,,,,,,,,,,,,,,,,,,,,,,,,,,,,,,
0.0,1.0,0.697,0.0,24.0,24.0,24.0,1.0,puck_06s.jpg,0.0,clock_7_7.png,4.0,28,,,,,,,,,,,,,,,,,,,,,,,,,,,,,,,,
0.0,1.0,0.674,0.0,25.0,25.0,25.0,1.0,tube_top_03s.jpg,0.0,clock_5_1.png,5.0,28,,,,,,,,,,,,,,,,,,,,,,,,,,,,,,,,
0.0,1.0,0.613,0.0,26.0,26.0,26.0,1.0,exhaust_pipe_10s.jpg,0.0,clock_5_2.png,5.0,28,,,,,,,,,,,,,,,,,,,,,,,,,,,,,,,,
0.0,1.0,0.659,0.0,27.0,27.0,27.0,1.0,polar_bear_02s.jpg,0.0,clock_5_3.png,5.0,28,,,,,,,,,,,,,,,,,,,,,,,,,,,,,,,,
0.0,1.0,1.415,0.0,28.0,28.0,28.0,1.0,pillow_03s.jpg,0.0,clock_5_4.png,5.0,28,,,,,,,,,,,,,,,,,,,,,,,,,,,,,,,,
0.0,1.0,0.745,0.0,29.0,29.0,29.0,1.0,harpoon.jpg,0.0,clock_5_5.png,5.0,28,,,,,,,,,,,,,,,,,,,,,,,,,,,,,,,,
0.0,1.0,1.027,0.0,30.0,30.0,30.0,1.0,turkey_10s.jpg,0.0,clock_6_1.png,6.0,28,,,,,,,,,,,,,,,,,,,,,,,,,,,,,,,,
0.0,1.0,1.08,0.0,31.0,31.0,31.0,1.0,thermostat_02s.jpg,0.0,clock_6_2.png,6.0,28,,,,,,,,,,,,,,,,,,,,,,,,,,,,,,,,
0.0,1.0,1.042,0.0,32.0,32.0,32.0,1.0,chopsticks_08s.jpg,0.0,clock_6_3.png,6.0,28,,,,,,,,,,,,,,,,,,,,,,,,,,,,,,,,
0.0,1.0,0.759,0.0,33.0,33.0,33.0,1.0,tab_09s.jpg,0.0,clock_6_4.png,6.0,28,,,,,,,,,,,,,,,,,,,,,,,,,,,,,,,,
0.0,1.0,0.622,0.0,34.0,34.0,34.0,1.0,breadstick_08s.jpg,0.0,clock_6_5.png,6.0,28,,,,,,,,,,,,,,,,,,,,,,,,,,,,,,,,
0.0,1.0,0.792,0.0,35.0,35.0,35.0,1.0,rhinoceros_02s.jpg,0.0,clock_6_6.png,6.0,28,,,,,,,,,,,,,,,,,,,,,,,,,,,,,,,,
,,,,,,,,,0.0,,,28,0.0,1.0,1.116,0.0,0.0,0.0,0.0,1.0,mixer_12s.jpg,lamb_04s.jpg,,,,,,,,,,,,,,,,,,,,,,
,,,,,,,,,0.0,,,28,1.0,0.0,1.432,0.0,1.0,1.0,1.0,1.0,rope_16s.jpg,air_pump_05s.jpg,,,,,,,,,,,,,,,,,,,,,,
,,,,,,,,,1.0,,,28,1.0,1.0,1.766,0.0,2.0,2.0,2.0,1.0,jigsaw_puzzle_11s.jpg,tube_top_03s.jpg,,,,,,,,,,,,,,,,,,,,,,
,,,,,,,,,1.0,,,28,0.0,0.0,1.467,0.0,3.0,3.0,3.0,1.0,outlet_10s.jpg,keyboard_05s.jpg,,,,,,,,,,,,,,,,,,,,,,
,,,,,,,,,0.0,,,28,0.0,1.0,2.038,0.0,4.0,4.0,4.0,1.0,puck_06s.jpg,omelet_07s.jpg,,,,,,,,,,,,,,,,,,,,,,
,,,,,,,,,1.0,,,28,1.0,1.0,1.81,0.0,5.0,5.0,5.0,1.0,turkey_10s.jpg,tab_09s.jpg,,,,,,,,,,,,,,,,,,,,,,
,,,,,,,,,,,,28,,,,,,,,,,,0.0,1.0,1.0,1.0,1.0,clock_present_2_5.xlsx,clock_compare_task_2_5.xlsx,,,,,,,,,,,,,,,
0.0,1.0,0.79,0.0,0.0,0.0,0.0,1.0,pumpkin_03s.jpg,0.0,clock_7_1.png,1.0,28,,,,,,,,,,,,,,,,,,,,,,,,,,,,,,,,
0.0,1.0,0.861,0.0,1.0,1.0,1.0,1.0,bottle_opener_11s.jpg,0.0,clock_7_2.png,1.0,28,,,,,,,,,,,,,,,,,,,,,,,,,,,,,,,,
0.0,1.0,0.602,0.0,2.0,2.0,2.0,1.0,tupperware_09s.jpg,0.0,clock_7_3.png,1.0,28,,,,,,,,,,,,,,,,,,,,,,,,,,,,,,,,
0.0,1.0,0.545,0.0,3.0,3.0,3.0,1.0,mango_09s.jpg,0.0,clock_7_4.png,1.0,28,,,,,,,,,,,,,,,,,,,,,,,,,,,,,,,,
0.0,1.0,0.496,0.0,4.0,4.0,4.0,1.0,marker_05s.jpg,0.0,clock_7_5.png,1.0,28,,,,,,,,,,,,,,,,,,,,,,,,,,,,,,,,
0.0,1.0,0.664,0.0,5.0,5.0,5.0,1.0,bean_06s.jpg,0.0,clock_7_6.png,1.0,28,,,,,,,,,,,,,,,,,,,,,,,,,,,,,,,,
0.0,1.0,0.345,0.0,6.0,6.0,6.0,1.0,pear_02s.jpg,0.0,clock_7_7.png,1.0,28,,,,,,,,,,,,,,,,,,,,,,,,,,,,,,,,
0.0,1.0,0.648,0.0,7.0,7.0,7.0,1.0,clover_04s.jpg,0.0,clock_5_1.png,2.0,28,,,,,,,,,,,,,,,,,,,,,,,,,,,,,,,,
0.0,1.0,0.698,0.0,8.0,8.0,8.0,1.0,perfume_06s.jpg,0.0,clock_5_2.png,2.0,28,,,,,,,,,,,,,,,,,,,,,,,,,,,,,,,,
0.0,1.0,0.661,0.0,9.0,9.0,9.0,1.0,spacesuit_02s.jpg,0.0,clock_5_3.png,2.0,28,,,,,,,,,,,,,,,,,,,,,,,,,,,,,,,,
0.0,1.0,0.929,0.0,10.0,10.0,10.0,1.0,recliner_02s.jpg,0.0,clock_5_4.png,2.0,28,,,,,,,,,,,,,,,,,,,,,,,,,,,,,,,,
0.0,1.0,1.03,0.0,11.0,11.0,11.0,1.0,hyena_16s.jpg,0.0,clock_5_5.png,2.0,28,,,,,,,,,,,,,,,,,,,,,,,,,,,,,,,,
0.0,1.0,0.448,0.0,12.0,12.0,12.0,1.0,bolo_tie_08s.jpg,0.0,clock_7_1.png,3.0,28,,,,,,,,,,,,,,,,,,,,,,,,,,,,,,,,
0.0,1.0,1.12,0.0,13.0,13.0,13.0,1.0,plaster_cast_13s.jpg,0.0,clock_7_2.png,3.0,28,,,,,,,,,,,,,,,,,,,,,,,,,,,,,,,,
0.0,1.0,0.784,0.0,14.0,14.0,14.0,1.0,badge_03s.jpg,0.0,clock_7_3.png,3.0,28,,,,,,,,,,,,,,,,,,,,,,,,,,,,,,,,
0.0,1.0,0.375,0.0,15.0,15.0,15.0,1.0,swordfish_05s.jpg,0.0,clock_7_4.png,3.0,28,,,,,,,,,,,,,,,,,,,,,,,,,,,,,,,,
0.0,1.0,0.351,0.0,16.0,16.0,16.0,1.0,perfume_06s.jpg,0.0,clock_7_5.png,3.0,28,,,,,,,,,,,,,,,,,,,,,,,,,,,,,,,,
0.0,1.0,0.439,0.0,17.0,17.0,17.0,1.0,pear_02s.jpg,0.0,clock_7_6.png,3.0,28,,,,,,,,,,,,,,,,,,,,,,,,,,,,,,,,
0.0,1.0,1.234,0.0,18.0,18.0,18.0,1.0,quill_09s.jpg,0.0,clock_7_7.png,3.0,28,,,,,,,,,,,,,,,,,,,,,,,,,,,,,,,,
0.0,1.0,0.497,0.0,19.0,19.0,19.0,1.0,mop_08s.jpg,0.0,clock_6_1.png,4.0,28,,,,,,,,,,,,,,,,,,,,,,,,,,,,,,,,
0.0,1.0,0.615,0.0,20.0,20.0,20.0,1.0,plaster_cast_13s.jpg,0.0,clock_6_2.png,4.0,28,,,,,,,,,,,,,,,,,,,,,,,,,,,,,,,,
0.0,1.0,0.581,0.0,21.0,21.0,21.0,1.0,parachute_03s.jpg,0.0,clock_6_3.png,4.0,28,,,,,,,,,,,,,,,,,,,,,,,,,,,,,,,,
0.0,1.0,1.268,0.0,22.0,22.0,22.0,1.0,inhaler_01b.jpg,0.0,clock_6_4.png,4.0,28,,,,,,,,,,,,,,,,,,,,,,,,,,,,,,,,
0.0,1.0,1.0,0.0,23.0,23.0,23.0,1.0,diving_board_07s.jpg,0.0,clock_6_5.png,4.0,28,,,,,,,,,,,,,,,,,,,,,,,,,,,,,,,,
0.0,1.0,0.943,0.0,24.0,24.0,24.0,1.0,lion_18s.jpg,0.0,clock_6_6.png,4.0,28,,,,,,,,,,,,,,,,,,,,,,,,,,,,,,,,
,0.0,,0.0,25.0,25.0,25.0,1.0,onion_10s.jpg,0.0,clock_6_1.png,5.0,28,,,,,,,,,,,,,,,,,,,,,,,,,,,,,,,,
0.0,1.0,1.148,0.0,26.0,26.0,26.0,1.0,throne_11s.jpg,0.0,clock_6_2.png,5.0,28,,,,,,,,,,,,,,,,,,,,,,,,,,,,,,,,
0.0,1.0,0.798,0.0,27.0,27.0,27.0,1.0,quad_04s.jpg,0.0,clock_6_3.png,5.0,28,,,,,,,,,,,,,,,,,,,,,,,,,,,,,,,,
0.0,1.0,1.5,0.0,28.0,28.0,28.0,1.0,roulette_wheel_04s.jpg,0.0,clock_6_4.png,5.0,28,,,,,,,,,,,,,,,,,,,,,,,,,,,,,,,,
0.0,1.0,0.57,0.0,29.0,29.0,29.0,1.0,puppy_08s.jpg,0.0,clock_6_5.png,5.0,28,,,,,,,,,,,,,,,,,,,,,,,,,,,,,,,,
0.0,1.0,0.563,0.0,30.0,30.0,30.0,1.0,thorn_13s.jpg,0.0,clock_6_6.png,5.0,28,,,,,,,,,,,,,,,,,,,,,,,,,,,,,,,,
0.0,1.0,0.714,0.0,31.0,31.0,31.0,1.0,mirror_12s.jpg,0.0,clock_5_1.png,6.0,28,,,,,,,,,,,,,,,,,,,,,,,,,,,,,,,,
0.0,1.0,0.751,0.0,32.0,32.0,32.0,1.0,police_car_01s.jpg,0.0,clock_5_2.png,6.0,28,,,,,,,,,,,,,,,,,,,,,,,,,,,,,,,,
1.0,1.0,1.464,0.0,33.0,33.0,33.0,1.0,mirror_12s.jpg,1.0,clock_5_3.png,6.0,28,,,,,,,,,,,,,,,,,,,,,,,,,,,,,,,,
0.0,1.0,0.964,0.0,34.0,34.0,34.0,1.0,rooster_03s.jpg,0.0,clock_5_4.png,6.0,28,,,,,,,,,,,,,,,,,,,,,,,,,,,,,,,,
0.0,1.0,0.718,0.0,35.0,35.0,35.0,1.0,trampoline_13s.jpg,0.0,clock_5_5.png,6.0,28,,,,,,,,,,,,,,,,,,,,,,,,,,,,,,,,
,,,,,,,,,0.0,,,28,0.0,1.0,2.117,0.0,0.0,0.0,0.0,1.0,badge_03s.jpg,hyena_16s.jpg,,,,,,,,,,,,,,,,,,,,,,
,,,,,,,,,1.0,,,28,0.0,0.0,3.418,0.0,1.0,1.0,1.0,1.0,spacesuit_02s.jpg,bolo_tie_08s.jpg,,,,,,,,,,,,,,,,,,,,,,
,,,,,,,,,0.0,,,28,1.0,0.0,1.682,0.0,2.0,2.0,2.0,1.0,throne_11s.jpg,diving_board_07s.jpg,,,,,,,,,,,,,,,,,,,,,,
,,,,,,,,,0.0,,,28,1.0,0.0,1.663,0.0,3.0,3.0,3.0,1.0,mango_09s.jpg,pumpkin_03s.jpg,,,,,,,,,,,,,,,,,,,,,,
,,,,,,,,,1.0,,,28,1.0,1.0,1.488,0.0,4.0,4.0,4.0,1.0,tupperware_09s.jpg,bean_06s.jpg,,,,,,,,,,,,,,,,,,,,,,
,,,,,,,,,1.0,,,28,0.0,0.0,1.898,0.0,5.0,5.0,5.0,1.0,bottle_opener_11s.jpg,marker_05s.jpg,,,,,,,,,,,,,,,,,,,,,,
,,,,,,,,,,,,28,,,,,,,,,,,0.0,2.0,2.0,2.0,1.0,clock_present_3_5.xlsx,clock_compare_task_3_5.xlsx,,,,,,,,,,,,,,,
0.0,1.0,0.903,0.0,0.0,0.0,0.0,1.0,ginger_09s.jpg,0.0,clock_6_1.png,1.0,28,,,,,,,,,,,,,,,,,,,,,,,,,,,,,,,,
0.0,1.0,0.432,0.0,1.0,1.0,1.0,1.0,letter_opener_03s.jpg,0.0,clock_6_2.png,1.0,28,,,,,,,,,,,,,,,,,,,,,,,,,,,,,,,,
0.0,1.0,0.532,0.0,2.0,2.0,2.0,1.0,loveseat_08s.jpg,0.0,clock_6_3.png,1.0,28,,,,,,,,,,,,,,,,,,,,,,,,,,,,,,,,
0.0,0.0,1.241,0.0,3.0,3.0,3.0,1.0,letter_opener_03s.jpg,1.0,clock_6_4.png,1.0,28,,,,,,,,,,,,,,,,,,,,,,,,,,,,,,,,
0.0,0.0,0.465,0.0,4.0,4.0,4.0,1.0,loveseat_08s.jpg,1.0,clock_6_5.png,1.0,28,,,,,,,,,,,,,,,,,,,,,,,,,,,,,,,,
0.0,1.0,1.936,0.0,5.0,5.0,5.0,1.0,towel_rack_04s.jpg,0.0,clock_6_6.png,1.0,28,,,,,,,,,,,,,,,,,,,,,,,,,,,,,,,,
0.0,1.0,0.88,0.0,6.0,6.0,6.0,1.0,rollerskate_03s.jpg,0.0,clock_5_1.png,2.0,28,,,,,,,,,,,,,,,,,,,,,,,,,,,,,,,,
0.0,1.0,0.578,0.0,7.0,7.0,7.0,1.0,puddle_02s.jpg,0.0,clock_5_2.png,2.0,28,,,,,,,,,,,,,,,,,,,,,,,,,,,,,,,,
1.0,1.0,1.599,0.0,8.0,8.0,8.0,1.0,rollerskate_03s.jpg,1.0,clock_5_3.png,2.0,28,,,,,,,,,,,,,,,,,,,,,,,,,,,,,,,,
0.0,1.0,0.43,0.0,9.0,9.0,9.0,1.0,dirt_bike_11s.jpg,0.0,clock_5_4.png,2.0,28,,,,,,,,,,,,,,,,,,,,,,,,,,,,,,,,
0.0,1.0,0.76,0.0,10.0,10.0,10.0,1.0,prism_10s.jpg,0.0,clock_5_5.png,2.0,28,,,,,,,,,,,,,,,,,,,,,,,,,,,,,,,,
0.0,1.0,1.011,0.0,11.0,11.0,11.0,1.0,kayak_08s.jpg,0.0,clock_7_1.png,3.0,28,,,,,,,,,,,,,,,,,,,,,,,,,,,,,,,,
0.0,1.0,1.349,0.0,12.0,12.0,12.0,1.0,rock_08s.jpg,0.0,clock_7_2.png,3.0,28,,,,,,,,,,,,,,,,,,,,,,,,,,,,,,,,
0.0,1.0,0.38,0.0,13.0,13.0,13.0,1.0,tile_08s.jpg,0.0,clock_7_3.png,3.0,28,,,,,,,,,,,,,,,,,,,,,,,,,,,,,,,,
1.0,0.0,1.262,0.0,14.0,14.0,14.0,1.0,dirt_bike_11s.jpg,0.0,clock_7_4.png,3.0,28,,,,,,,,,,,,,,,,,,,,,,,,,,,,,,,,
,0.0,,0.0,15.0,15.0,15.0,1.0,ginger_09s.jpg,0.0,clock_7_5.png,3.0,28,,,,,,,,,,,,,,,,,,,,,,,,,,,,,,,,
1.0,1.0,1.778,0.0,16.0,16.0,16.0,1.0,tile_08s.jpg,1.0,clock_7_6.png,3.0,28,,,,,,,,,,,,,,,,,,,,,,,,,,,,,,,,
0.0,1.0,0.462,0.0,17.0,17.0,17.0,1.0,camcorder_10s.jpg,0.0,clock_7_7.png,3.0,28,,,,,,,,,,,,,,,,,,,,,,,,,,,,,,,,
1.0,0.0,1.232,0.0,18.0,18.0,18.0,1.0,jet_15s.jpg,0.0,clock_6_1.png,4.0,28,,,,,,,,,,,,,,,,,,,,,,,,,,,,,,,,
1.0,1.0,0.782,0.0,19.0,19.0,19.0,1.0,jet_15s.jpg,1.0,clock_6_2.png,4.0,28,,,,,,,,,,,,,,,,,,,,,,,,,,,,,,,,
0.0,1.0,0.73,0.0,20.0,20.0,20.0,1.0,kitten_07s.jpg,0.0,clock_6_3.png,4.0,28,,,,,,,,,,,,,,,,,,,,,,,,,,,,,,,,
1.0,1.0,0.731,0.0,21.0,21.0,21.0,1.0,jet_15s.jpg,1.0,clock_6_4.png,4.0,28,,,,,,,,,,,,,,,,,,,,,,,,,,,,,,,,
0.0,1.0,0.598,0.0,22.0,22.0,22.0,1.0,chime_12s.jpg,0.0,clock_6_5.png,4.0,28,,,,,,,,,,,,,,,,,,,,,,,,,,,,,,,,
0.0,1.0,0.697,0.0,23.0,23.0,23.0,1.0,eggshell_14s.jpg,0.0,clock_6_6.png,4.0,28,,,,,,,,,,,,,,,,,,,,,,,,,,,,,,,,
0.0,1.0,0.701,0.0,24.0,24.0,24.0,1.0,luggage_08s.jpg,0.0,clock_7_1.png,5.0,28,,,,,,,,,,,,,,,,,,,,,,,,,,,,,,,,
0.0,1.0,0.367,0.0,25.0,25.0,25.0,1.0,mascara_03s.jpg,0.0,clock_7_2.png,5.0,28,,,,,,,,,,,,,,,,,,,,,,,,,,,,,,,,
0.0,1.0,0.448,0.0,26.0,26.0,26.0,1.0,cotton_candy_01b.jpg,0.0,clock_7_3.png,5.0,28,,,,,,,,,,,,,,,,,,,,,,,,,,,,,,,,
0.0,1.0,0.532,0.0,27.0,27.0,27.0,1.0,ruby_15s.jpg,0.0,clock_7_4.png,5.0,28,,,,,,,,,,,,,,,,,,,,,,,,,,,,,,,,
0.0,1.0,0.519,0.0,28.0,28.0,28.0,1.0,razor_blade_01b.jpg,0.0,clock_7_5.png,5.0,28,,,,,,,,,,,,,,,,,,,,,,,,,,,,,,,,
0.0,1.0,0.748,0.0,29.0,29.0,29.0,1.0,hydrant_10s.jpg,0.0,clock_7_6.png,5.0,28,,,,,,,,,,,,,,,,,,,,,,,,,,,,,,,,
0.0,1.0,0.712,0.0,30.0,30.0,30.0,1.0,mushroom_10n.jpg,0.0,clock_7_7.png,5.0,28,,,,,,,,,,,,,,,,,,,,,,,,,,,,,,,,
0.0,1.0,0.446,0.0,31.0,31.0,31.0,1.0,turtle_08s.jpg,0.0,clock_5_1.png,6.0,28,,,,,,,,,,,,,,,,,,,,,,,,,,,,,,,,
0.0,1.0,1.344,0.0,32.0,32.0,32.0,1.0,sparkler_02s.jpg,0.0,clock_5_2.png,6.0,28,,,,,,,,,,,,,,,,,,,,,,,,,,,,,,,,
0.0,1.0,0.461,0.0,33.0,33.0,33.0,1.0,tambourine_06s.jpg,0.0,clock_5_3.png,6.0,28,,,,,,,,,,,,,,,,,,,,,,,,,,,,,,,,
0.0,1.0,0.413,0.0,34.0,34.0,34.0,1.0,lavender_10s.jpg,0.0,clock_5_4.png,6.0,28,,,,,,,,,,,,,,,,,,,,,,,,,,,,,,,,
1.0,1.0,1.134,0.0,35.0,35.0,35.0,1.0,lavender_10s.jpg,1.0,clock_5_5.png,6.0,28,,,,,,,,,,,,,,,,,,,,,,,,,,,,,,,,
,,,,,,,,,0.0,,,28,0.0,1.0,6.299,0.0,0.0,0.0,0.0,1.0,kitten_07s.jpg,camcorder_10s.jpg,,,,,,,,,,,,,,,,,,,,,,
,,,,,,,,,0.0,,,28,0.0,1.0,2.783,0.0,1.0,1.0,1.0,1.0,mascara_03s.jpg,chime_12s.jpg,,,,,,,,,,,,,,,,,,,,,,
,,,,,,,,,0.0,,,28,0.0,1.0,10.871,0.0,2.0,2.0,2.0,1.0,turtle_08s.jpg,razor_blade_01b.jpg,,,,,,,,,,,,,,,,,,,,,,
,,,,,,,,,1.0,,,28,0.0,0.0,19.1,0.0,3.0,3.0,3.0,1.0,puddle_02s.jpg,prism_10s.jpg,,,,,,,,,,,,,,,,,,,,,,
,,,,,,,,,0.0,,,28,1.0,0.0,2.549,0.0,4.0,4.0,4.0,1.0,ruby_15s.jpg,luggage_08s.jpg,,,,,,,,,,,,,,,,,,,,,,
,,,,,,,,,1.0,,,28,0.0,0.0,2.962,0.0,5.0,5.0,5.0,1.0,cotton_candy_01b.jpg,hydrant_10s.jpg,,,,,,,,,,,,,,,,,,,,,,
,,,,,,,,,,,,28,,,,,,,,,,,0.0,3.0,3.0,3.0,1.0,clock_present_4_5.xlsx,clock_compare_task_4_5.xlsx,,,,,,,,,,,,,,,
0.0,1.0,2.127,0.0,0.0,0.0,0.0,1.0,marshmallow_08s.jpg,0.0,clock_5_1.png,1.0,28,,,,,,,,,,,,,,,,,,,,,,,,,,,,,,,,
,0.0,,0.0,1.0,1.0,1.0,1.0,coat_rack_01b.jpg,0.0,clock_5_2.png,1.0,28,,,,,,,,,,,,,,,,,,,,,,,,,,,,,,,,
0.0,1.0,2.01,0.0,2.0,2.0,2.0,1.0,coral_08s.jpg,0.0,clock_5_3.png,1.0,28,,,,,,,,,,,,,,,,,,,,,,,,,,,,,,,,
0.0,1.0,1.394,0.0,3.0,3.0,3.0,1.0,fox_13s.jpg,0.0,clock_5_4.png,1.0,28,,,,,,,,,,,,,,,,,,,,,,,,,,,,,,,,
0.0,1.0,0.959,0.0,4.0,4.0,4.0,1.0,stethoscope_01b.jpg,0.0,clock_5_5.png,1.0,28,,,,,,,,,,,,,,,,,,,,,,,,,,,,,,,,
0.0,1.0,0.923,0.0,5.0,5.0,5.0,1.0,moth_06n.jpg,0.0,clock_6_1.png,2.0,28,,,,,,,,,,,,,,,,,,,,,,,,,,,,,,,,
0.0,1.0,1.176,0.0,6.0,6.0,6.0,1.0,licorice_06s.jpg,0.0,clock_6_2.png,2.0,28,,,,,,,,,,,,,,,,,,,,,,,,,,,,,,,,
0.0,1.0,1.362,0.0,7.0,7.0,7.0,1.0,sleeping_bag_12s.jpg,0.0,clock_6_3.png,2.0,28,,,,,,,,,,,,,,,,,,,,,,,,,,,,,,,,
0.0,1.0,1.631,0.0,8.0,8.0,8.0,1.0,treadmill_06s.jpg,0.0,clock_6_4.png,2.0,28,,,,,,,,,,,,,,,,,,,,,,,,,,,,,,,,
0.0,1.0,1.611,0.0,9.0,9.0,9.0,1.0,bathtub_23s.jpg,0.0,clock_6_5.png,2.0,28,,,,,,,,,,,,,,,,,,,,,,,,,,,,,,,,
0.0,1.0,1.55,0.0,10.0,10.0,10.0,1.0,film_03s.jpg,0.0,clock_6_6.png,2.0,28,,,,,,,,,,,,,,,,,,,,,,,,,,,,,,,,
0.0,1.0,1.397,0.0,11.0,11.0,11.0,1.0,trident_07s.jpg,0.0,clock_7_1.png,3.0,28,,,,,,,,,,,,,,,,,,,,,,,,,,,,,,,,
0.0,1.0,1.834,0.0,12.0,12.0,12.0,1.0,coffee_filter_10s.jpg,0.0,clock_7_2.png,3.0,28,,,,,,,,,,,,,,,,,,,,,,,,,,,,,,,,
,0.0,,0.0,13.0,13.0,13.0,1.0,mud_13s.jpg,0.0,clock_7_3.png,3.0,28,,,,,,,,,,,,,,,,,,,,,,,,,,,,,,,,
0.0,1.0,1.831,0.0,14.0,14.0,14.0,1.0,fire_alarm_05s.jpg,0.0,clock_7_4.png,3.0,28,,,,,,,,,,,,,,,,,,,,,,,,,,,,,,,,
0.0,0.0,1.561,0.0,15.0,15.0,15.0,1.0,mud_13s.jpg,1.0,clock_7_5.png,3.0,28,,,,,,,,,,,,,,,,,,,,,,,,,,,,,,,,
0.0,1.0,1.299,0.0,16.0,16.0,16.0,1.0,timer_03s.jpg,0.0,clock_7_6.png,3.0,28,,,,,,,,,,,,,,,,,,,,,,,,,,,,,,,,
0.0,1.0,1.099,0.0,17.0,17.0,17.0,1.0,pea_11s.jpg,0.0,clock_7_7.png,3.0,28,,,,,,,,,,,,,,,,,,,,,,,,,,,,,,,,
0.0,1.0,1.431,0.0,18.0,18.0,18.0,1.0,flask_04s.jpg,0.0,clock_5_1.png,4.0,28,,,,,,,,,,,,,,,,,,,,,,,,,,,,,,,,
0.0,1.0,1.151,0.0,19.0,19.0,19.0,1.0,iron_13s.jpg,0.0,clock_5_2.png,4.0,28,,,,,,,,,,,,,,,,,,,,,,,,,,,,,,,,
0.0,1.0,0.985,0.0,20.0,20.0,20.0,1.0,trident_07s.jpg,0.0,clock_5_3.png,4.0,28,,,,,,,,,,,,,,,,,,,,,,,,,,,,,,,,
0.0,1.0,0.566,0.0,21.0,21.0,21.0,1.0,memory_stick_11s.jpg,0.0,clock_5_4.png,4.0,28,,,,,,,,,,,,,,,,,,,,,,,,,,,,,,,,
0.0,1.0,1.087,0.0,22.0,22.0,22.0,1.0,oil_02s.jpg,0.0,clock_5_5.png,4.0,28,,,,,,,,,,,,,,,,,,,,,,,,,,,,,,,,
0.0,1.0,0.739,0.0,23.0,23.0,23.0,1.0,coconut_08s.jpg,0.0,clock_7_1.png,5.0,28,,,,,,,,,,,,,,,,,,,,,,,,,,,,,,,,
0.0,0.0,1.15,0.0,24.0,24.0,24.0,1.0,coconut_08s.jpg,1.0,clock_7_2.png,5.0,28,,,,,,,,,,,,,,,,,,,,,,,,,,,,,,,,
0.0,1.0,0.766,0.0,25.0,25.0,25.0,1.0,jelly_bean_06s.jpg,0.0,clock_7_3.png,5.0,28,,,,,,,,,,,,,,,,,,,,,,,,,,,,,,,,
0.0,1.0,1.066,0.0,26.0,26.0,26.0,1.0,ice-cream_cone_06s.jpg,0.0,clock_7_4.png,5.0,28,,,,,,,,,,,,,,,,,,,,,,,,,,,,,,,,
0.0,1.0,0.983,0.0,27.0,27.0,27.0,1.0,mud_13s.jpg,0.0,clock_7_5.png,5.0,28,,,,,,,,,,,,,,,,,,,,,,,,,,,,,,,,
0.0,1.0,1.215,0.0,28.0,28.0,28.0,1.0,feather02.jpg,0.0,clock_7_6.png,5.0,28,,,,,,,,,,,,,,,,,,,,,,,,,,,,,,,,
0.0,1.0,0.647,0.0,29.0,29.0,29.0,1.0,ukulele_02s.jpg,0.0,clock_7_7.png,5.0,28,,,,,,,,,,,,,,,,,,,,,,,,,,,,,,,,
0.0,1.0,1.33,0.0,30.0,30.0,30.0,1.0,snowman_02s.jpg,0.0,clock_6_1.png,6.0,28,,,,,,,,,,,,,,,,,,,,,,,,,,,,,,,,
0.0,1.0,0.647,0.0,31.0,31.0,31.0,1.0,lifesaver_10s.jpg,0.0,clock_6_2.png,6.0,28,,,,,,,,,,,,,,,,,,,,,,,,,,,,,,,,
0.0,0.0,1.209,0.0,32.0,32.0,32.0,1.0,lifesaver_10s.jpg,1.0,clock_6_3.png,6.0,28,,,,,,,,,,,,,,,,,,,,,,,,,,,,,,,,
0.0,1.0,2.281,0.0,33.0,33.0,33.0,1.0,scooter.jpg,0.0,clock_6_4.png,6.0,28,,,,,,,,,,,,,,,,,,,,,,,,,,,,,,,,
0.0,1.0,0.613,0.0,34.0,34.0,34.0,1.0,compass_10n.jpg,0.0,clock_6_5.png,6.0,28,,,,,,,,,,,,,,,,,,,,,,,,,,,,,,,,
0.0,1.0,0.644,0.0,35.0,35.0,35.0,1.0,denture_03s.jpg,0.0,clock_6_6.png,6.0,28,,,,,,,,,,,,,,,,,,,,,,,,,,,,,,,,
,,,,,,,,,0.0,,,28,1.0,0.0,2.217,0.0,0.0,0.0,0.0,1.0,moth_06n.jpg,coral_08s.jpg,,,,,,,,,,,,,,,,,,,,,,
,,,,,,,,,1.0,,,28,1.0,1.0,1.892,0.0,1.0,1.0,1.0,1.0,bathtub_23s.jpg,coffee_filter_10s.jpg,,,,,,,,,,,,,,,,,,,,,,
,,,,,,,,,1.0,,,28,0.0,0.0,1.431,0.0,2.0,2.0,2.0,1.0,timer_03s.jpg,iron_13s.jpg,,,,,,,,,,,,,,,,,,,,,,
,,,,,,,,,1.0,,,28,0.0,0.0,1.906,0.0,3.0,3.0,3.0,1.0,fire_alarm_05s.jpg,pea_11s.jpg,,,,,,,,,,,,,,,,,,,,,,
,,,,,,,,,1.0,,,28,1.0,1.0,1.382,0.0,4.0,4.0,4.0,1.0,flask_04s.jpg,memory_stick_11s.jpg,,,,,,,,,,,,,,,,,,,,,,
,,,,,,,,,0.0,,,28,0.0,1.0,1.809,0.0,5.0,5.0,5.0,1.0,ukulele_02s.jpg,ice-cream_cone_06s.jpg,,,,,,,,,,,,,,,,,,,,,,
,,,,,,,,,,,,28,,,,,,,,,,,0.0,4.0,4.0,4.0,1.0,clock_present_5_5.xlsx,clock_compare_task_5_5.xlsx,,,,,,,,,,,,,,,
0.0,1.0,1.164,0.0,0.0,0.0,0.0,1.0,sledgehammer_03s.jpg,0.0,clock_6_1.png,1.0,28,,,,,,,,,,,,,,,,,,,,,,,,,,,,,,,,
0.0,1.0,1.048,0.0,1.0,1.0,1.0,1.0,basket_05s.jpg,0.0,clock_6_2.png,1.0,28,,,,,,,,,,,,,,,,,,,,,,,,,,,,,,,,
0.0,1.0,1.182,0.0,2.0,2.0,2.0,1.0,go-kart_10s.jpg,0.0,clock_6_3.png,1.0,28,,,,,,,,,,,,,,,,,,,,,,,,,,,,,,,,
0.0,1.0,0.516,0.0,3.0,3.0,3.0,1.0,sunglasses_11s.jpg,0.0,clock_6_4.png,1.0,28,,,,,,,,,,,,,,,,,,,,,,,,,,,,,,,,
0.0,1.0,1.118,0.0,4.0,4.0,4.0,1.0,ostrich_06s.jpg,0.0,clock_6_5.png,1.0,28,,,,,,,,,,,,,,,,,,,,,,,,,,,,,,,,
0.0,1.0,0.961,0.0,5.0,5.0,5.0,1.0,stingray_02s.jpg,0.0,clock_6_6.png,1.0,28,,,,,,,,,,,,,,,,,,,,,,,,,,,,,,,,
0.0,1.0,0.734,0.0,6.0,6.0,6.0,1.0,peanut_butter_08s.jpg,0.0,clock_7_1.png,2.0,28,,,,,,,,,,,,,,,,,,,,,,,,,,,,,,,,
1.0,1.0,2.276,0.0,7.0,7.0,7.0,1.0,peanut_butter_08s.jpg,1.0,clock_7_2.png,2.0,28,,,,,,,,,,,,,,,,,,,,,,,,,,,,,,,,
0.0,1.0,1.141,0.0,8.0,8.0,8.0,1.0,puffin_19s.jpg,0.0,clock_7_3.png,2.0,28,,,,,,,,,,,,,,,,,,,,,,,,,,,,,,,,
1.0,1.0,0.742,0.0,9.0,9.0,9.0,1.0,peanut_butter_08s.jpg,1.0,clock_7_4.png,2.0,28,,,,,,,,,,,,,,,,,,,,,,,,,,,,,,,,
1.0,1.0,1.176,0.0,10.0,10.0,10.0,1.0,puffin_19s.jpg,1.0,clock_7_5.png,2.0,28,,,,,,,,,,,,,,,,,,,,,,,,,,,,,,,,
0.0,1.0,1.047,0.0,11.0,11.0,11.0,1.0,stamp2_08s.jpg,0.0,clock_7_6.png,2.0,28,,,,,,,,,,,,,,,,,,,,,,,,,,,,,,,,
0.0,1.0,0.875,0.0,12.0,12.0,12.0,1.0,comic_book_02s.jpg,0.0,clock_7_7.png,2.0,28,,,,,,,,,,,,,,,,,,,,,,,,,,,,,,,,
0.0,1.0,1.366,0.0,13.0,13.0,13.0,1.0,ink_08s.jpg,0.0,clock_7_1.png,3.0,28,,,,,,,,,,,,,,,,,,,,,,,,,,,,,,,,
0.0,1.0,1.166,0.0,14.0,14.0,14.0,1.0,doily_13s.jpg,0.0,clock_7_2.png,3.0,28,,,,,,,,,,,,,,,,,,,,,,,,,,,,,,,,
0.0,1.0,0.553,0.0,15.0,15.0,15.0,1.0,light_switch_02s.jpg,0.0,clock_7_3.png,3.0,28,,,,,,,,,,,,,,,,,,,,,,,,,,,,,,,,
0.0,1.0,1.232,0.0,16.0,16.0,16.0,1.0,pepper2_21s.jpg,0.0,clock_7_4.png,3.0,28,,,,,,,,,,,,,,,,,,,,,,,,,,,,,,,,
0.0,1.0,1.424,0.0,17.0,17.0,17.0,1.0,crab_16s.jpg,0.0,clock_7_5.png,3.0,28,,,,,,,,,,,,,,,,,,,,,,,,,,,,,,,,
0.0,1.0,1.432,0.0,18.0,18.0,18.0,1.0,beard_16s.jpg,0.0,clock_7_6.png,3.0,28,,,,,,,,,,,,,,,,,,,,,,,,,,,,,,,,
0.0,1.0,0.971,0.0,19.0,19.0,19.0,1.0,mask_09s.jpg,0.0,clock_7_7.png,3.0,28,,,,,,,,,,,,,,,,,,,,,,,,,,,,,,,,
0.0,1.0,0.859,0.0,20.0,20.0,20.0,1.0,dynamite_01b.jpg,0.0,clock_6_1.png,4.0,28,,,,,,,,,,,,,,,,,,,,,,,,,,,,,,,,
0.0,1.0,1.443,0.0,21.0,21.0,21.0,1.0,abacus_12s.jpg,0.0,clock_6_2.png,4.0,28,,,,,,,,,,,,,,,,,,,,,,,,,,,,,,,,
0.0,1.0,1.261,0.0,22.0,22.0,22.0,1.0,icicle_04s.jpg,0.0,clock_6_3.png,4.0,28,,,,,,,,,,,,,,,,,,,,,,,,,,,,,,,,
0.0,1.0,1.364,0.0,23.0,23.0,23.0,1.0,comic_book_02s.jpg,0.0,clock_6_4.png,4.0,28,,,,,,,,,,,,,,,,,,,,,,,,,,,,,,,,
1.0,1.0,1.626,0.0,24.0,24.0,24.0,1.0,abacus_12s.jpg,1.0,clock_6_5.png,4.0,28,,,,,,,,,,,,,,,,,,,,,,,,,,,,,,,,
0.0,1.0,1.564,0.0,25.0,25.0,25.0,1.0,duck_01b.jpg,0.0,clock_6_6.png,4.0,28,,,,,,,,,,,,,,,,,,,,,,,,,,,,,,,,
0.0,1.0,1.03,0.0,26.0,26.0,26.0,1.0,jetski_10s.jpg,0.0,clock_5_1.png,5.0,28,,,,,,,,,,,,,,,,,,,,,,,,,,,,,,,,
0.0,0.0,2.096,0.0,27.0,27.0,27.0,1.0,jetski_10s.jpg,1.0,clock_5_2.png,5.0,28,,,,,,,,,,,,,,,,,,,,,,,,,,,,,,,,
0.0,1.0,1.7,0.0,28.0,28.0,28.0,1.0,latte_06s.jpg,0.0,clock_5_3.png,5.0,28,,,,,,,,,,,,,,,,,,,,,,,,,,,,,,,,
0.0,1.0,0.92,0.0,29.0,29.0,29.0,1.0,basket_05s.jpg,0.0,clock_5_4.png,5.0,28,,,,,,,,,,,,,,,,,,,,,,,,,,,,,,,,
0.0,1.0,1.065,0.0,30.0,30.0,30.0,1.0,pump_11s.jpg,0.0,clock_5_5.png,5.0,28,,,,,,,,,,,,,,,,,,,,,,,,,,,,,,,,
0.0,1.0,0.982,0.0,31.0,31.0,31.0,1.0,bacon_05s.jpg,0.0,clock_5_1.png,6.0,28,,,,,,,,,,,,,,,,,,,,,,,,,,,,,,,,
0.0,1.0,1.001,0.0,32.0,32.0,32.0,1.0,lectern_08s.jpg,0.0,clock_5_2.png,6.0,28,,,,,,,,,,,,,,,,,,,,,,,,,,,,,,,,
0.0,1.0,1.216,0.0,33.0,33.0,33.0,1.0,amber_04s.jpg,0.0,clock_5_3.png,6.0,28,,,,,,,,,,,,,,,,,,,,,,,,,,,,,,,,
0.0,1.0,0.998,0.0,34.0,34.0,34.0,1.0,orangutan_03s.jpg,0.0,clock_5_4.png,6.0,28,,,,,,,,,,,,,,,,,,,,,,,,,,,,,,,,
0.0,1.0,1.066,0.0,35.0,35.0,35.0,1.0,pan_02s.jpg,0.0,clock_5_5.png,6.0,28,,,,,,,,,,,,,,,,,,,,,,,,,,,,,,,,
,,,,,,,,,1.0,,,28,0.0,0.0,1.963,0.0,0.0,0.0,0.0,1.0,pump_11s.jpg,amber_04s.jpg,,,,,,,,,,,,,,,,,,,,,,
,,,,,,,,,0.0,,,28,1.0,0.0,1.835,0.0,1.0,1.0,1.0,1.0,doily_13s.jpg,stamp2_08s.jpg,,,,,,,,,,,,,,,,,,,,,,
,,,,,,,,,1.0,,,28,1.0,1.0,1.401,0.0,2.0,2.0,2.0,1.0,crab_16s.jpg,dynamite_01b.jpg,,,,,,,,,,,,,,,,,,,,,,
,,,,,,,,,0.0,,,28,0.0,1.0,1.368,0.0,3.0,3.0,3.0,1.0,sunglasses_11s.jpg,sledgehammer_03s.jpg,,,,,,,,,,,,,,,,,,,,,,
,,,,,,,,,0.0,,,28,0.0,1.0,1.916,0.0,4.0,4.0,4.0,1.0,stingray_02s.jpg,go-kart_10s.jpg,,,,,,,,,,,,,,,,,,,,,,
,,,,,,,,,0.0,,,28,1.0,0.0,2.166,0.0,5.0,5.0,5.0,1.0,pepper2_21s.jpg,ink_08s.jpg,,,,,,,,,,,,,,,,,,,,,,
0.0,1.0,1.75,,,,,,tripod_01b.jpg,0.0,clockno_up.jpg,1.0,28,,,,,,,,,,,,,,,,,,0.0,0.0,0.0,0.0,1.0,,,,,,,,,,
0.0,1.0,1.463,,,,,,pocket_watch_16s.jpg,0.0,clockno_default.jpg,1.0,28,,,,,,,,,,,,,,,,,,0.0,1.0,1.0,1.0,1.0,,,,,,,,,,
0.0,1.0,0.515,,,,,,loom_05s.jpg,0.0,clockno_default.jpg,1.0,28,,,,,,,,,,,,,,,,,,0.0,2.0,2.0,2.0,1.0,,,,,,,,,,
1.0,1.0,1.096,,,,,,tripod_01b.jpg,1.0,clockno_default.jpg,1.0,28,,,,,,,,,,,,,,,,,,0.0,3.0,3.0,3.0,1.0,,,,,,,,,,
0.0,1.0,0.534,,,,,,thread_08s.jpg,0.0,clockno_default.jpg,1.0,28,,,,,,,,,,,,,,,,,,0.0,4.0,4.0,4.0,1.0,,,,,,,,,,
0.0,1.0,0.498,,,,,,rocket_02s.jpg,0.0,clockno_default.jpg,1.0,28,,,,,,,,,,,,,,,,,,0.0,5.0,5.0,5.0,1.0,,,,,,,,,,
0.0,1.0,0.563,,,,,,ladle_04s.jpg,0.0,clockno_up.jpg,2.0,28,,,,,,,,,,,,,,,,,,0.0,6.0,6.0,6.0,1.0,,,,,,,,,,
0.0,1.0,0.464,,,,,,bubble_01b.jpg,0.0,clockno_default.jpg,2.0,28,,,,,,,,,,,,,,,,,,0.0,7.0,7.0,7.0,1.0,,,,,,,,,,
0.0,1.0,1.453,,,,,,pocket_watch_16s.jpg,0.0,clockno_default.jpg,2.0,28,,,,,,,,,,,,,,,,,,0.0,8.0,8.0,8.0,1.0,,,,,,,,,,
0.0,1.0,0.475,,,,,,projector_08s.jpg,0.0,clockno_default.jpg,2.0,28,,,,,,,,,,,,,,,,,,0.0,9.0,9.0,9.0,1.0,,,,,,,,,,
0.0,1.0,0.566,,,,,,penlight_12s.jpg,0.0,clockno_default.jpg,2.0,28,,,,,,,,,,,,,,,,,,0.0,10.0,10.0,10.0,1.0,,,,,,,,,,
0.0,1.0,0.446,,,,,,golf_club_03s.jpg,0.0,clockno_up.jpg,3.0,28,,,,,,,,,,,,,,,,,,0.0,11.0,11.0,11.0,1.0,,,,,,,,,,
0.0,1.0,0.987,,,,,,espresso_01b.jpg,0.0,clockno_default.jpg,3.0,28,,,,,,,,,,,,,,,,,,0.0,12.0,12.0,12.0,1.0,,,,,,,,,,
1.0,1.0,0.733,,,,,,espresso_01b.jpg,1.0,clockno_default.jpg,3.0,28,,,,,,,,,,,,,,,,,,0.0,13.0,13.0,13.0,1.0,,,,,,,,,,
0.0,1.0,0.449,,,,,,mannequin_05s.jpg,0.0,clockno_default.jpg,3.0,28,,,,,,,,,,,,,,,,,,0.0,14.0,14.0,14.0,1.0,,,,,,,,,,
0.0,0.0,0.385,,,,,,golf_club_03s.jpg,1.0,clockno_default.jpg,3.0,28,,,,,,,,,,,,,,,,,,0.0,15.0,15.0,15.0,1.0,,,,,,,,,,
0.0,1.0,0.486,,,,,,loom_05s.jpg,0.0,clockno_default.jpg,3.0,28,,,,,,,,,,,,,,,,,,0.0,16.0,16.0,16.0,1.0,,,,,,,,,,
0.0,1.0,0.584,,,,,,machete_06s.jpg,0.0,clockno_up.jpg,4.0,28,,,,,,,,,,,,,,,,,,0.0,17.0,17.0,17.0,1.0,,,,,,,,,,
,0.0,,,,,,,seahorse_13s.jpg,0.0,clockno_default.jpg,4.0,28,,,,,,,,,,,,,,,,,,0.0,18.0,18.0,18.0,1.0,,,,,,,,,,
,0.0,,,,,,,mannequin_05s.jpg,0.0,clockno_default.jpg,4.0,28,,,,,,,,,,,,,,,,,,0.0,19.0,19.0,19.0,1.0,,,,,,,,,,
0.0,1.0,0.592,,,,,,saddle_06s.jpg,0.0,clockno_default.jpg,4.0,28,,,,,,,,,,,,,,,,,,0.0,20.0,20.0,20.0,1.0,,,,,,,,,,
0.0,1.0,1.082,,,,,,rake_06s.jpg,0.0,clockno_default.jpg,4.0,28,,,,,,,,,,,,,,,,,,0.0,21.0,21.0,21.0,1.0,,,,,,,,,,
0.0,1.0,0.733,,,,,,jewel_01b.jpg,0.0,clockno_default.jpg,4.0,28,,,,,,,,,,,,,,,,,,0.0,22.0,22.0,22.0,1.0,,,,,,,,,,
0.0,1.0,0.4,,,,,,ironing_board_07s.jpg,0.0,clockno_default.jpg,4.0,28,,,,,,,,,,,,,,,,,,0.0,23.0,23.0,23.0,1.0,,,,,,,,,,
0.0,1.0,0.465,,,,,,tuxedo_01b.jpg,0.0,clockno_up.jpg,5.0,28,,,,,,,,,,,,,,,,,,0.0,24.0,24.0,24.0,1.0,,,,,,,,,,
0.0,1.0,0.567,,,,,,pie_08s.jpg,0.0,clockno_default.jpg,5.0,28,,,,,,,,,,,,,,,,,,0.0,25.0,25.0,25.0,1.0,,,,,,,,,,
0.0,1.0,0.566,,,,,,mousetrap_15n.jpg,0.0,clockno_default.jpg,5.0,28,,,,,,,,,,,,,,,,,,0.0,26.0,26.0,26.0,1.0,,,,,,,,,,
0.0,1.0,0.733,,,,,,measuring_cup_02s.jpg,0.0,clockno_default.jpg,5.0,28,,,,,,,,,,,,,,,,,,0.0,27.0,27.0,27.0,1.0,,,,,,,,,,
0.0,0.0,0.569,,,,,,measuring_cup_02s.jpg,1.0,clockno_default.jpg,5.0,28,,,,,,,,,,,,,,,,,,0.0,28.0,28.0,28.0,1.0,,,,,,,,,,
0.0,1.0,1.051,,,,,,olive_05s.jpg,0.0,clockno_up.jpg,6.0,28,,,,,,,,,,,,,,,,,,0.0,29.0,29.0,29.0,1.0,,,,,,,,,,
0.0,1.0,0.666,,,,,,razor_12s.jpg,0.0,clockno_default.jpg,6.0,28,,,,,,,,,,,,,,,,,,0.0,30.0,30.0,30.0,1.0,,,,,,,,,,
0.0,1.0,0.999,,,,,,footprint_11s.jpg,0.0,clockno_default.jpg,6.0,28,,,,,,,,,,,,,,,,,,0.0,31.0,31.0,31.0,1.0,,,,,,,,,,
0.0,1.0,0.483,,,,,,reindeer_08s.jpg,0.0,clockno_default.jpg,6.0,28,,,,,,,,,,,,,,,,,,0.0,32.0,32.0,32.0,1.0,,,,,,,,,,
1.0,1.0,0.769,,,,,,olive_05s.jpg,1.0,clockno_default.jpg,6.0,28,,,,,,,,,,,,,,,,,,0.0,33.0,33.0,33.0,1.0,,,,,,,,,,
1.0,1.0,1.333,,,,,,razor_12s.jpg,1.0,clockno_default.jpg,6.0,28,,,,,,,,,,,,,,,,,,0.0,34.0,34.0,34.0,1.0,,,,,,,,,,
0.0,1.0,0.932,,,,,,mold2_04s.jpg,0.0,clockno_default.jpg,6.0,28,,,,,,,,,,,,,,,,,,0.0,35.0,35.0,35.0,1.0,,,,,,,,,,
,,,,,,,,,1.0,,,28,1.0,1.0,3.964,,,,,,jewel_01b.jpg,pie_08s.jpg,,,,,,,,,,,,,0.0,0.0,0.0,0.0,1.0,,,,,
,,,,,,,,,1.0,,,28,0.0,0.0,2.005,,,,,,thread_08s.jpg,bubble_01b.jpg,,,,,,,,,,,,,0.0,1.0,1.0,1.0,1.0,,,,,
,,,,,,,,,0.0,,,28,0.0,1.0,1.421,,,,,,tuxedo_01b.jpg,rake_06s.jpg,,,,,,,,,,,,,0.0,2.0,2.0,2.0,1.0,,,,,
,,,,,,,,,1.0,,,28,0.0,0.0,1.631,,,,,,ladle_04s.jpg,projector_08s.jpg,,,,,,,,,,,,,0.0,3.0,3.0,3.0,1.0,,,,,
,,,,,,,,,0.0,,,28,0.0,1.0,2.037,,,,,,saddle_06s.jpg,machete_06s.jpg,,,,,,,,,,,,,0.0,4.0,4.0,4.0,1.0,,,,,
,,,,,,,,,0.0,,,28,0.0,1.0,1.039,,,,,,mold2_04s.jpg,reindeer_08s.jpg,,,,,,,,,,,,,0.0,5.0,5.0,5.0,1.0,,,,,
,,,,,,,,,,,,28,,,,,,,,,,,,,,,,clockno_present_1_5.xlsx,clockno_compare_task_1_5.xlsx,,,,,,,,,,,0.0,0.0,0.0,0.0,1.0
0.0,1.0,1.002,,,,,,sushi_08s.jpg,0.0,clockno_up.jpg,1.0,28,,,,,,,,,,,,,,,,,,0.0,0.0,0.0,0.0,1.0,,,,,,,,,,
0.0,1.0,1.282,,,,,,tweezers_03s.jpg,0.0,clockno_default.jpg,1.0,28,,,,,,,,,,,,,,,,,,0.0,1.0,1.0,1.0,1.0,,,,,,,,,,
0.0,1.0,0.668,,,,,,teapot_03s.jpg,0.0,clockno_default.jpg,1.0,28,,,,,,,,,,,,,,,,,,0.0,2.0,2.0,2.0,1.0,,,,,,,,,,
0.0,1.0,0.684,,,,,,tinsel_12s.jpg,0.0,clockno_default.jpg,1.0,28,,,,,,,,,,,,,,,,,,0.0,3.0,3.0,3.0,1.0,,,,,,,,,,
0.0,1.0,0.503,,,,,,tuba_12s.jpg,0.0,clockno_default.jpg,1.0,28,,,,,,,,,,,,,,,,,,0.0,4.0,4.0,4.0,1.0,,,,,,,,,,
0.0,1.0,0.603,,,,,,paintbrush_04s.jpg,0.0,clockno_default.jpg,1.0,28,,,,,,,,,,,,,,,,,,0.0,5.0,5.0,5.0,1.0,,,,,,,,,,
0.0,1.0,0.483,,,,,,lasagna_06s.jpg,0.0,clockno_default.jpg,1.0,28,,,,,,,,,,,,,,,,,,0.0,6.0,6.0,6.0,1.0,,,,,,,,,,
0.0,1.0,1.072,,,,,,pinwheel_06s.jpg,0.0,clockno_up.jpg,2.0,28,,,,,,,,,,,,,,,,,,0.0,7.0,7.0,7.0,1.0,,,,,,,,,,
0.0,1.0,0.499,,,,,,owl_15s.jpg,0.0,clockno_default.jpg,2.0,28,,,,,,,,,,,,,,,,,,0.0,8.0,8.0,8.0,1.0,,,,,,,,,,
0.0,1.0,1.333,,,,,,glasses01a.jpg,0.0,clockno_default.jpg,2.0,28,,,,,,,,,,,,,,,,,,0.0,9.0,9.0,9.0,1.0,,,,,,,,,,
0.0,1.0,0.52,,,,,,pocketknife_12s.jpg,0.0,clockno_default.jpg,2.0,28,,,,,,,,,,,,,,,,,,0.0,10.0,10.0,10.0,1.0,,,,,,,,,,
0.0,1.0,0.651,,,,,,fur_coat_11s.jpg,0.0,clockno_default.jpg,2.0,28,,,,,,,,,,,,,,,,,,0.0,11.0,11.0,11.0,1.0,,,,,,,,,,
0.0,1.0,0.885,,,,,,tongs_08s.jpg,0.0,clockno_up.jpg,3.0,28,,,,,,,,,,,,,,,,,,0.0,12.0,12.0,12.0,1.0,,,,,,,,,,
0.0,0.0,0.414,,,,,,tongs_08s.jpg,1.0,clockno_default.jpg,3.0,28,,,,,,,,,,,,,,,,,,0.0,13.0,13.0,13.0,1.0,,,,,,,,,,
0.0,1.0,0.603,,,,,,leash_10s.jpg,0.0,clockno_default.jpg,3.0,28,,,,,,,,,,,,,,,,,,0.0,14.0,14.0,14.0,1.0,,,,,,,,,,
0.0,1.0,0.803,,,,,,spoon02a.jpg,0.0,clockno_default.jpg,3.0,28,,,,,,,,,,,,,,,,,,0.0,15.0,15.0,15.0,1.0,,,,,,,,,,
0.0,1.0,0.899,,,,,,plunger_08s.jpg,0.0,clockno_default.jpg,3.0,28,,,,,,,,,,,,,,,,,,0.0,16.0,16.0,16.0,1.0,,,,,,,,,,
1.0,1.0,0.907,,,,,,plunger_08s.jpg,1.0,clockno_default.jpg,3.0,28,,,,,,,,,,,,,,,,,,0.0,17.0,17.0,17.0,1.0,,,,,,,,,,
0.0,1.0,0.536,,,,,,playpen_11s.jpg,0.0,clockno_up.jpg,4.0,28,,,,,,,,,,,,,,,,,,0.0,18.0,18.0,18.0,1.0,,,,,,,,,,
0.0,1.0,0.564,,,,,,smoothie_09s.jpg,0.0,clockno_default.jpg,4.0,28,,,,,,,,,,,,,,,,,,0.0,19.0,19.0,19.0,1.0,,,,,,,,,,
0.0,1.0,2.083,,,,,,gear_07s.jpg,0.0,clockno_default.jpg,4.0,28,,,,,,,,,,,,,,,,,,0.0,20.0,20.0,20.0,1.0,,,,,,,,,,
0.0,0.0,0.682,,,,,,smoothie_09s.jpg,1.0,clockno_default.jpg,4.0,28,,,,,,,,,,,,,,,,,,0.0,21.0,21.0,21.0,1.0,,,,,,,,,,
0.0,1.0,0.967,,,,,,lamp_08s.jpg,0.0,clockno_default.jpg,4.0,28,,,,,,,,,,,,,,,,,,0.0,22.0,22.0,22.0,1.0,,,,,,,,,,
0.0,1.0,0.848,,,,,,lollipop_08s.jpg,0.0,clockno_up.jpg,5.0,28,,,,,,,,,,,,,,,,,,0.0,23.0,23.0,23.0,1.0,,,,,,,,,,
0.0,1.0,1.65,,,,,,squirt_gun_03s.jpg,0.0,clockno_default.jpg,5.0,28,,,,,,,,,,,,,,,,,,0.0,24.0,24.0,24.0,1.0,,,,,,,,,,
0.0,1.0,0.505,,,,,,otter_05s.jpg,0.0,clockno_default.jpg,5.0,28,,,,,,,,,,,,,,,,,,0.0,25.0,25.0,25.0,1.0,,,,,,,,,,
0.0,1.0,0.813,,,,,,tape_06s.jpg,0.0,clockno_default.jpg,5.0,28,,,,,,,,,,,,,,,,,,0.0,26.0,26.0,26.0,1.0,,,,,,,,,,
0.0,1.0,0.4,,,,,,sunflower_17s.jpg,0.0,clockno_default.jpg,5.0,28,,,,,,,,,,,,,,,,,,0.0,27.0,27.0,27.0,1.0,,,,,,,,,,
0.0,1.0,0.415,,,,,,fountain_pen_06s.jpg,0.0,clockno_default.jpg,5.0,28,,,,,,,,,,,,,,,,,,0.0,28.0,28.0,28.0,1.0,,,,,,,,,,
0.0,1.0,0.783,,,,,,ant_12s.jpg,0.0,clockno_up.jpg,6.0,28,,,,,,,,,,,,,,,,,,0.0,29.0,29.0,29.0,1.0,,,,,,,,,,
0.0,1.0,0.786,,,,,,tattoo_14s.jpg,0.0,clockno_default.jpg,6.0,28,,,,,,,,,,,,,,,,,,0.0,30.0,30.0,30.0,1.0,,,,,,,,,,
0.0,1.0,0.582,,,,,,gear_07s.jpg,0.0,clockno_default.jpg,6.0,28,,,,,,,,,,,,,,,,,,0.0,31.0,31.0,31.0,1.0,,,,,,,,,,
0.0,1.0,0.784,,,,,,tiger_06s.jpg,0.0,clockno_default.jpg,6.0,28,,,,,,,,,,,,,,,,,,0.0,32.0,32.0,32.0,1.0,,,,,,,,,,
0.0,1.0,1.417,,,,,,raccoon_02s.jpg,0.0,clockno_default.jpg,6.0,28,,,,,,,,,,,,,,,,,,0.0,33.0,33.0,33.0,1.0,,,,,,,,,,
0.0,1.0,1.285,,,,,,toilet_paper_12s.jpg,0.0,clockno_default.jpg,6.0,28,,,,,,,,,,,,,,,,,,0.0,34.0,34.0,34.0,1.0,,,,,,,,,,
1.0,1.0,2.136,,,,,,tattoo_14s.jpg,1.0,clockno_default.jpg,6.0,28,,,,,,,,,,,,,,,,,,0.0,35.0,35.0,35.0,1.0,,,,,,,,,,
,,,,,,,,,1.0,,,28,0.0,0.0,2.808,,,,,,spoon02a.jpg,playpen_11s.jpg,,,,,,,,,,,,,0.0,0.0,0.0,0.0,1.0,,,,,
,,,,,,,,,1.0,,,28,0.0,0.0,3.082,,,,,,lasagna_06s.jpg,glasses01a.jpg,,,,,,,,,,,,,0.0,1.0,1.0,1.0,1.0,,,,,
,,,,,,,,,1.0,,,28,0.0,0.0,1.284,,,,,,fur_coat_11s.jpg,leash_10s.jpg,,,,,,,,,,,,,0.0,2.0,2.0,2.0,1.0,,,,,
,,,,,,,,,1.0,,,28,0.0,0.0,3.852,,,,,,sushi_08s.jpg,tinsel_12s.jpg,,,,,,,,,,,,,0.0,3.0,3.0,3.0,1.0,,,,,
,,,,,,,,,1.0,,,28,0.0,0.0,0.648,,,,,,squirt_gun_03s.jpg,sunflower_17s.jpg,,,,,,,,,,,,,0.0,4.0,4.0,4.0,1.0,,,,,
,,,,,,,,,0.0,,,28,0.0,1.0,1.018,,,,,,tuba_12s.jpg,tweezers_03s.jpg,,,,,,,,,,,,,0.0,5.0,5.0,5.0,1.0,,,,,
,,,,,,,,,,,,28,,,,,,,,,,,,,,,,clockno_present_2_5.xlsx,clockno_compare_task_2_5.xlsx,,,,,,,,,,,0.0,1.0,1.0,1.0,1.0
0.0,1.0,1.232,,,,,,ram_05s.jpg,0.0,clockno_up.jpg,1.0,28,,,,,,,,,,,,,,,,,,0.0,0.0,0.0,0.0,1.0,,,,,,,,,,
0.0,1.0,1.232,,,,,,panda_02s.jpg,0.0,clockno_default.jpg,1.0,28,,,,,,,,,,,,,,,,,,0.0,1.0,1.0,1.0,1.0,,,,,,,,,,
0.0,1.0,0.866,,,,,,beaker_01b.jpg,0.0,clockno_default.jpg,1.0,28,,,,,,,,,,,,,,,,,,0.0,2.0,2.0,2.0,1.0,,,,,,,,,,
0.0,0.0,1.056,,,,,,beaker_01b.jpg,1.0,clockno_default.jpg,1.0,28,,,,,,,,,,,,,,,,,,0.0,3.0,3.0,3.0,1.0,,,,,,,,,,
0.0,1.0,0.564,,,,,,megaphone_03s.jpg,0.0,clockno_default.jpg,1.0,28,,,,,,,,,,,,,,,,,,0.0,4.0,4.0,4.0,1.0,,,,,,,,,,
0.0,1.0,0.451,,,,,,dashboard_02s.jpg,0.0,clockno_up.jpg,2.0,28,,,,,,,,,,,,,,,,,,0.0,5.0,5.0,5.0,1.0,,,,,,,,,,
0.0,1.0,0.918,,,,,,juicer2_06s.jpg,0.0,clockno_default.jpg,2.0,28,,,,,,,,,,,,,,,,,,0.0,6.0,6.0,6.0,1.0,,,,,,,,,,
0.0,1.0,0.54,,,,,,butter_14s.jpg,0.0,clockno_default.jpg,2.0,28,,,,,,,,,,,,,,,,,,0.0,7.0,7.0,7.0,1.0,,,,,,,,,,
0.0,1.0,1.851,,,,,,quesadilla_07s.jpg,0.0,clockno_default.jpg,2.0,28,,,,,,,,,,,,,,,,,,0.0,8.0,8.0,8.0,1.0,,,,,,,,,,
0.0,1.0,0.715,,,,,,thumbtack_14s.jpg,0.0,clockno_default.jpg,2.0,28,,,,,,,,,,,,,,,,,,0.0,9.0,9.0,9.0,1.0,,,,,,,,,,
0.0,1.0,1.537,,,,,,potholder_02s.jpg,0.0,clockno_default.jpg,2.0,28,,,,,,,,,,,,,,,,,,0.0,10.0,10.0,10.0,1.0,,,,,,,,,,
,0.0,,,,,,,purse_05s.jpg,0.0,clockno_default.jpg,2.0,28,,,,,,,,,,,,,,,,,,0.0,11.0,11.0,11.0,1.0,,,,,,,,,,
0.0,1.0,0.552,,,,,,binder_21s.jpg,0.0,clockno_up.jpg,3.0,28,,,,,,,,,,,,,,,,,,0.0,12.0,12.0,12.0,1.0,,,,,,,,,,
0.0,0.0,1.098,,,,,,binder_21s.jpg,1.0,clockno_default.jpg,3.0,28,,,,,,,,,,,,,,,,,,0.0,13.0,13.0,13.0,1.0,,,,,,,,,,
0.0,1.0,1.032,,,,,,knot_01b.jpg,0.0,clockno_default.jpg,3.0,28,,,,,,,,,,,,,,,,,,0.0,14.0,14.0,14.0,1.0,,,,,,,,,,
1.0,1.0,0.95,,,,,,binder_21s.jpg,1.0,clockno_default.jpg,3.0,28,,,,,,,,,,,,,,,,,,0.0,15.0,15.0,15.0,1.0,,,,,,,,,,
0.0,1.0,0.623,,,,,,raspberry_12s.jpg,0.0,clockno_default.jpg,3.0,28,,,,,,,,,,,,,,,,,,0.0,16.0,16.0,16.0,1.0,,,,,,,,,,
1.0,0.0,1.234,,,,,,padlock_07s.jpg,0.0,clockno_up.jpg,4.0,28,,,,,,,,,,,,,,,,,,0.0,17.0,17.0,17.0,1.0,,,,,,,,,,
0.0,1.0,1.817,,,,,,phone_01b.jpg,0.0,clockno_default.jpg,4.0,28,,,,,,,,,,,,,,,,,,0.0,18.0,18.0,18.0,1.0,,,,,,,,,,
0.0,1.0,0.815,,,,,,lizard_10n.jpg,0.0,clockno_default.jpg,4.0,28,,,,,,,,,,,,,,,,,,0.0,19.0,19.0,19.0,1.0,,,,,,,,,,
0.0,1.0,1.017,,,,,,seagull_01b.jpg,0.0,clockno_default.jpg,4.0,28,,,,,,,,,,,,,,,,,,0.0,20.0,20.0,20.0,1.0,,,,,,,,,,
0.0,1.0,1.536,,,,,,stapler_01b.jpg,0.0,clockno_default.jpg,4.0,28,,,,,,,,,,,,,,,,,,0.0,21.0,21.0,21.0,1.0,,,,,,,,,,
0.0,1.0,0.871,,,,,,turtleneck_11s.jpg,0.0,clockno_default.jpg,4.0,28,,,,,,,,,,,,,,,,,,0.0,22.0,22.0,22.0,1.0,,,,,,,,,,
0.0,1.0,0.815,,,,,,top_hat_11s.jpg,0.0,clockno_up.jpg,5.0,28,,,,,,,,,,,,,,,,,,0.0,23.0,23.0,23.0,1.0,,,,,,,,,,
0.0,1.0,1.383,,,,,,screwdriver02a.jpg,0.0,clockno_default.jpg,5.0,28,,,,,,,,,,,,,,,,,,0.0,24.0,24.0,24.0,1.0,,,,,,,,,,
1.0,0.0,1.283,,,,,,raspberry_12s.jpg,0.0,clockno_default.jpg,5.0,28,,,,,,,,,,,,,,,,,,0.0,25.0,25.0,25.0,1.0,,,,,,,,,,
0.0,1.0,1.15,,,,,,gingerbread_man_03s.jpg,0.0,clockno_default.jpg,5.0,28,,,,,,,,,,,,,,,,,,0.0,26.0,26.0,26.0,1.0,,,,,,,,,,
0.0,1.0,0.818,,,,,,bagel_15s.jpg,0.0,clockno_default.jpg,5.0,28,,,,,,,,,,,,,,,,,,0.0,27.0,27.0,27.0,1.0,,,,,,,,,,
0.0,0.0,0.532,,,,,,top_hat_11s.jpg,1.0,clockno_default.jpg,5.0,28,,,,,,,,,,,,,,,,,,0.0,28.0,28.0,28.0,1.0,,,,,,,,,,
0.0,1.0,1.583,,,,,,smokingpipe.jpg,0.0,clockno_default.jpg,5.0,28,,,,,,,,,,,,,,,,,,0.0,29.0,29.0,29.0,1.0,,,,,,,,,,
0.0,1.0,1.667,,,,,,sea_urchin_09s.jpg,0.0,clockno_up.jpg,6.0,28,,,,,,,,,,,,,,,,,,0.0,30.0,30.0,30.0,1.0,,,,,,,,,,
0.0,1.0,1.034,,,,,,tomato_sauce_09s.jpg,0.0,clockno_default.jpg,6.0,28,,,,,,,,,,,,,,,,,,0.0,31.0,31.0,31.0,1.0,,,,,,,,,,
0.0,1.0,0.782,,,,,,triangle_10s.jpg,0.0,clockno_default.jpg,6.0,28,,,,,,,,,,,,,,,,,,0.0,32.0,32.0,32.0,1.0,,,,,,,,,,
0.0,1.0,0.365,,,,,,squirrel_02s.jpg,0.0,clockno_default.jpg,6.0,28,,,,,,,,,,,,,,,,,,0.0,33.0,33.0,33.0,1.0,,,,,,,,,,
0.0,1.0,1.021,,,,,,punch1_10s.jpg,0.0,clockno_default.jpg,6.0,28,,,,,,,,,,,,,,,,,,0.0,34.0,34.0,34.0,1.0,,,,,,,,,,
0.0,1.0,1.017,,,,,,chalice_10s.jpg,0.0,clockno_default.jpg,6.0,28,,,,,,,,,,,,,,,,,,0.0,35.0,35.0,35.0,1.0,,,,,,,,,,
,,,,,,,,,1.0,,,28,0.0,0.0,1.592,,,,,,purse_05s.jpg,knot_01b.jpg,,,,,,,,,,,,,0.0,0.0,0.0,0.0,1.0,,,,,
,,,,,,,,,0.0,,,28,1.0,0.0,2.441,,,,,,butter_14s.jpg,megaphone_03s.jpg,,,,,,,,,,,,,0.0,1.0,1.0,1.0,1.0,,,,,
,,,,,,,,,0.0,,,28,0.0,1.0,1.47,,,,,,screwdriver02a.jpg,stapler_01b.jpg,,,,,,,,,,,,,0.0,2.0,2.0,2.0,1.0,,,,,
,,,,,,,,,0.0,,,28,0.0,1.0,1.813,,,,,,quesadilla_07s.jpg,dashboard_02s.jpg,,,,,,,,,,,,,0.0,3.0,3.0,3.0,1.0,,,,,
,,,,,,,,,0.0,,,28,0.0,1.0,1.529,,,,,,thumbtack_14s.jpg,juicer2_06s.jpg,,,,,,,,,,,,,0.0,4.0,4.0,4.0,1.0,,,,,
,,,,,,,,,0.0,,,28,0.0,1.0,1.8,,,,,,turtleneck_11s.jpg,lizard_10n.jpg,,,,,,,,,,,,,0.0,5.0,5.0,5.0,1.0,,,,,
,,,,,,,,,,,,28,,,,,,,,,,,,,,,,clockno_present_3_5.xlsx,clockno_compare_task_3_5.xlsx,,,,,,,,,,,0.0,2.0,2.0,2.0,1.0
,0.0,,,,,,,leotard_08s.jpg,0.0,clockno_up.jpg,1.0,28,,,,,,,,,,,,,,,,,,0.0,0.0,0.0,0.0,1.0,,,,,,,,,,
,0.0,,,,,,,popsicle_02s.jpg,0.0,clockno_default.jpg,1.0,28,,,,,,,,,,,,,,,,,,0.0,1.0,1.0,1.0,1.0,,,,,,,,,,
1.0,1.0,1.805,,,,,,popsicle_02s.jpg,1.0,clockno_default.jpg,1.0,28,,,,,,,,,,,,,,,,,,0.0,2.0,2.0,2.0,1.0,,,,,,,,,,
1.0,1.0,1.775,,,,,,popsicle_02s.jpg,1.0,clockno_default.jpg,1.0,28,,,,,,,,,,,,,,,,,,0.0,3.0,3.0,3.0,1.0,,,,,,,,,,
0.0,1.0,1.186,,,,,,rocking_horse_03s.jpg,0.0,clockno_default.jpg,1.0,28,,,,,,,,,,,,,,,,,,0.0,4.0,4.0,4.0,1.0,,,,,,,,,,
0.0,1.0,0.652,,,,,,incense_02s.jpg,0.0,clockno_up.jpg,2.0,28,,,,,,,,,,,,,,,,,,0.0,5.0,5.0,5.0,1.0,,,,,,,,,,
,0.0,,,,,,,margarita_03s.jpg,0.0,clockno_default.jpg,2.0,28,,,,,,,,,,,,,,,,,,0.0,6.0,6.0,6.0,1.0,,,,,,,,,,
0.0,1.0,0.407,,,,,,telephone_pole_05s.jpg,0.0,clockno_default.jpg,2.0,28,,,,,,,,,,,,,,,,,,0.0,7.0,7.0,7.0,1.0,,,,,,,,,,
0.0,1.0,0.643,,,,,,hummingbird_05s.jpg,0.0,clockno_default.jpg,2.0,28,,,,,,,,,,,,,,,,,,0.0,8.0,8.0,8.0,1.0,,,,,,,,,,
0.0,1.0,0.499,,,,,,pincushion_10s.jpg,0.0,clockno_default.jpg,2.0,28,,,,,,,,,,,,,,,,,,0.0,9.0,9.0,9.0,1.0,,,,,,,,,,
0.0,1.0,0.557,,,,,,peppermint_07s.jpg,0.0,clockno_default.jpg,2.0,28,,,,,,,,,,,,,,,,,,0.0,10.0,10.0,10.0,1.0,,,,,,,,,,
0.0,1.0,0.992,,,,,,mattress_01s.jpg,0.0,clockno_up.jpg,3.0,28,,,,,,,,,,,,,,,,,,0.0,11.0,11.0,11.0,1.0,,,,,,,,,,
0.0,1.0,0.606,,,,,,swimming_pool_17s.jpg,0.0,clockno_default.jpg,3.0,28,,,,,,,,,,,,,,,,,,0.0,12.0,12.0,12.0,1.0,,,,,,,,,,
0.0,1.0,1.305,,,,,,pincushion_10s.jpg,0.0,clockno_default.jpg,3.0,28,,,,,,,,,,,,,,,,,,0.0,13.0,13.0,13.0,1.0,,,,,,,,,,
0.0,1.0,1.115,,,,,,pomegranate_04s.jpg,0.0,clockno_default.jpg,3.0,28,,,,,,,,,,,,,,,,,,0.0,14.0,14.0,14.0,1.0,,,,,,,,,,
1.0,1.0,2.379,,,,,,pincushion_10s.jpg,1.0,clockno_default.jpg,3.0,28,,,,,,,,,,,,,,,,,,0.0,15.0,15.0,15.0,1.0,,,,,,,,,,
0.0,1.0,1.161,,,,,,soccer_ball_12s.jpg,0.0,clockno_default.jpg,3.0,28,,,,,,,,,,,,,,,,,,0.0,16.0,16.0,16.0,1.0,,,,,,,,,,
0.0,1.0,1.177,,,,,,swing_set_15s.jpg,0.0,clockno_default.jpg,3.0,28,,,,,,,,,,,,,,,,,,0.0,17.0,17.0,17.0,1.0,,,,,,,,,,
0.0,1.0,0.862,,,,,,lipstick_02s.jpg,0.0,clockno_up.jpg,4.0,28,,,,,,,,,,,,,,,,,,0.0,18.0,18.0,18.0,1.0,,,,,,,,,,
0.0,0.0,0.55,,,,,,lipstick_02s.jpg,1.0,clockno_default.jpg,4.0,28,,,,,,,,,,,,,,,,,,0.0,19.0,19.0,19.0,1.0,,,,,,,,,,
0.0,1.0,0.434,,,,,,tie_03s.jpg,0.0,clockno_default.jpg,4.0,28,,,,,,,,,,,,,,,,,,0.0,20.0,20.0,20.0,1.0,,,,,,,,,,
0.0,1.0,0.706,,,,,,muffin_12n.jpg,0.0,clockno_default.jpg,4.0,28,,,,,,,,,,,,,,,,,,0.0,21.0,21.0,21.0,1.0,,,,,,,,,,
0.0,1.0,0.667,,,,,,solar_panel_02s.jpg,0.0,clockno_default.jpg,4.0,28,,,,,,,,,,,,,,,,,,0.0,22.0,22.0,22.0,1.0,,,,,,,,,,
0.0,1.0,0.926,,,,,,safety_pin_02s.jpg,0.0,clockno_default.jpg,4.0,28,,,,,,,,,,,,,,,,,,0.0,23.0,23.0,23.0,1.0,,,,,,,,,,
0.0,1.0,0.75,,,,,,rolling_pin_02s.jpg,0.0,clockno_up.jpg,5.0,28,,,,,,,,,,,,,,,,,,0.0,24.0,24.0,24.0,1.0,,,,,,,,,,
0.0,1.0,0.777,,,,,,toaster_03s.jpg,0.0,clockno_default.jpg,5.0,28,,,,,,,,,,,,,,,,,,0.0,25.0,25.0,25.0,1.0,,,,,,,,,,
0.0,1.0,0.685,,,,,,umbrella_15s.jpg,0.0,clockno_default.jpg,5.0,28,,,,,,,,,,,,,,,,,,0.0,26.0,26.0,26.0,1.0,,,,,,,,,,
0.0,1.0,0.643,,,,,,gong_02s.jpg,0.0,clockno_default.jpg,5.0,28,,,,,,,,,,,,,,,,,,0.0,27.0,27.0,27.0,1.0,,,,,,,,,,
0.0,1.0,0.651,,,,,,plug_08s.jpg,0.0,clockno_default.jpg,5.0,28,,,,,,,,,,,,,,,,,,0.0,28.0,28.0,28.0,1.0,,,,,,,,,,
0.0,1.0,0.431,,,,,,bonsai_07s.jpg,0.0,clockno_up.jpg,6.0,28,,,,,,,,,,,,,,,,,,0.0,29.0,29.0,29.0,1.0,,,,,,,,,,
0.0,1.0,0.782,,,,,,raft_09s.jpg,0.0,clockno_default.jpg,6.0,28,,,,,,,,,,,,,,,,,,0.0,30.0,30.0,30.0,1.0,,,,,,,,,,
0.0,1.0,0.841,,,,,,puppet_01b.jpg,0.0,clockno_default.jpg,6.0,28,,,,,,,,,,,,,,,,,,0.0,31.0,31.0,31.0,1.0,,,,,,,,,,
,0.0,,,,,,,puppet_01b.jpg,1.0,clockno_default.jpg,6.0,28,,,,,,,,,,,,,,,,,,0.0,32.0,32.0,32.0,1.0,,,,,,,,,,
0.0,1.0,1.011,,,,,,emerald_02s.jpg,0.0,clockno_default.jpg,6.0,28,,,,,,,,,,,,,,,,,,0.0,33.0,33.0,33.0,1.0,,,,,,,,,,
0.0,1.0,0.44,,,,,,pencil02a.jpg,0.0,clockno_default.jpg,6.0,28,,,,,,,,,,,,,,,,,,0.0,34.0,34.0,34.0,1.0,,,,,,,,,,
0.0,1.0,0.815,,,,,,gazelle_10s.jpg,0.0,clockno_default.jpg,6.0,28,,,,,,,,,,,,,,,,,,0.0,35.0,35.0,35.0,1.0,,,,,,,,,,
,,,,,,,,,1.0,,,28,0.0,0.0,2.027,,,,,,umbrella_15s.jpg,bonsai_07s.jpg,,,,,,,,,,,,,0.0,0.0,0.0,0.0,1.0,,,,,
,,,,,,,,,1.0,,,28,1.0,1.0,1.363,,,,,,rocking_horse_03s.jpg,telephone_pole_05s.jpg,,,,,,,,,,,,,0.0,1.0,1.0,1.0,1.0,,,,,
,,,,,,,,,1.0,,,28,1.0,1.0,2.707,,,,,,muffin_12n.jpg,rolling_pin_02s.jpg,,,,,,,,,,,,,0.0,2.0,2.0,2.0,1.0,,,,,
,,,,,,,,,1.0,,,28,0.0,0.0,1.761,,,,,,incense_02s.jpg,hummingbird_05s.jpg,,,,,,,,,,,,,0.0,3.0,3.0,3.0,1.0,,,,,
,,,,,,,,,0.0,,,28,1.0,0.0,1.93,,,,,,pomegranate_04s.jpg,mattress_01s.jpg,,,,,,,,,,,,,0.0,4.0,4.0,4.0,1.0,,,,,
,,,,,,,,,1.0,,,28,0.0,0.0,2.936,,,,,,toaster_03s.jpg,plug_08s.jpg,,,,,,,,,,,,,0.0,5.0,5.0,5.0,1.0,,,,,
,,,,,,,,,,,,28,,,,,,,,,,,,,,,,clockno_present_4_5.xlsx,clockno_compare_task_4_5.xlsx,,,,,,,,,,,0.0,3.0,3.0,3.0,1.0
,0.0,,,,,,,tiara_05s.jpg,0.0,clockno_up.jpg,1.0,28,,,,,,,,,,,,,,,,,,0.0,0.0,0.0,0.0,1.0,,,,,,,,,,
0.0,1.0,1.992,,,,,,refrigerator_07s.jpg,0.0,clockno_default.jpg,1.0,28,,,,,,,,,,,,,,,,,,0.0,1.0,1.0,1.0,1.0,,,,,,,,,,
0.0,1.0,0.735,,,,,,roller_coaster_07s.jpg,0.0,clockno_default.jpg,1.0,28,,,,,,,,,,,,,,,,,,0.0,2.0,2.0,2.0,1.0,,,,,,,,,,
0.0,1.0,0.882,,,,,,crystal_ball_12s.jpg,0.0,clockno_default.jpg,1.0,28,,,,,,,,,,,,,,,,,,0.0,3.0,3.0,3.0,1.0,,,,,,,,,,
0.0,1.0,0.4,,,,,,racehorse_03s.jpg,0.0,clockno_default.jpg,1.0,28,,,,,,,,,,,,,,,,,,0.0,4.0,4.0,4.0,1.0,,,,,,,,,,
0.0,1.0,0.41,,,,,,lamb_chop_07s.jpg,0.0,clockno_default.jpg,1.0,28,,,,,,,,,,,,,,,,,,0.0,5.0,5.0,5.0,1.0,,,,,,,,,,
0.0,1.0,0.601,,,,,,paper_towel_03s.jpg,0.0,clockno_up.jpg,2.0,28,,,,,,,,,,,,,,,,,,0.0,6.0,6.0,6.0,1.0,,,,,,,,,,
0.0,1.0,0.767,,,,,,radiator_05s.jpg,0.0,clockno_default.jpg,2.0,28,,,,,,,,,,,,,,,,,,0.0,7.0,7.0,7.0,1.0,,,,,,,,,,
0.0,1.0,0.682,,,,,,frog_09s.jpg,0.0,clockno_default.jpg,2.0,28,,,,,,,,,,,,,,,,,,0.0,8.0,8.0,8.0,1.0,,,,,,,,,,
0.0,0.0,1.086,,,,,,radiator_05s.jpg,1.0,clockno_default.jpg,2.0,28,,,,,,,,,,,,,,,,,,0.0,9.0,9.0,9.0,1.0,,,,,,,,,,
0.0,1.0,0.382,,,,,,chocolate_01b.jpg,0.0,clockno_default.jpg,2.0,28,,,,,,,,,,,,,,,,,,0.0,10.0,10.0,10.0,1.0,,,,,,,,,,
0.0,1.0,1.049,,,,,,metronome_03s.jpg,0.0,clockno_up.jpg,3.0,28,,,,,,,,,,,,,,,,,,0.0,11.0,11.0,11.0,1.0,,,,,,,,,,
0.0,1.0,1.617,,,,,,kettle_08s.jpg,0.0,clockno_default.jpg,3.0,28,,,,,,,,,,,,,,,,,,0.0,12.0,12.0,12.0,1.0,,,,,,,,,,
0.0,1.0,0.8,,,,,,refrigerator_07s.jpg,0.0,clockno_default.jpg,3.0,28,,,,,,,,,,,,,,,,,,0.0,13.0,13.0,13.0,1.0,,,,,,,,,,
0.0,1.0,0.598,,,,,,eyedropper_12s.jpg,0.0,clockno_default.jpg,3.0,28,,,,,,,,,,,,,,,,,,0.0,14.0,14.0,14.0,1.0,,,,,,,,,,
0.0,1.0,0.433,,,,,,totem_pole_05s.jpg,0.0,clockno_default.jpg,3.0,28,,,,,,,,,,,,,,,,,,0.0,15.0,15.0,15.0,1.0,,,,,,,,,,
0.0,1.0,0.456,,,,,,aluminum_foil_08s.jpg,0.0,clockno_default.jpg,3.0,28,,,,,,,,,,,,,,,,,,0.0,16.0,16.0,16.0,1.0,,,,,,,,,,
0.0,1.0,0.44,,,,,,birdcage_08s.jpg,0.0,clockno_default.jpg,3.0,28,,,,,,,,,,,,,,,,,,0.0,17.0,17.0,17.0,1.0,,,,,,,,,,
0.0,1.0,0.542,,,,,,gargoyle_08s.jpg,0.0,clockno_up.jpg,4.0,28,,,,,,,,,,,,,,,,,,0.0,18.0,18.0,18.0,1.0,,,,,,,,,,
0.0,1.0,0.894,,,,,,cobra_05s.jpg,0.0,clockno_default.jpg,4.0,28,,,,,,,,,,,,,,,,,,0.0,19.0,19.0,19.0,1.0,,,,,,,,,,
0.0,1.0,0.331,,,,,,bank_06s.jpg,0.0,clockno_default.jpg,4.0,28,,,,,,,,,,,,,,,,,,0.0,20.0,20.0,20.0,1.0,,,,,,,,,,
0.0,1.0,0.631,,,,,,spatula04.jpg,0.0,clockno_default.jpg,4.0,28,,,,,,,,,,,,,,,,,,0.0,21.0,21.0,21.0,1.0,,,,,,,,,,
0.0,1.0,0.693,,,,,,syringe_02s.jpg,0.0,clockno_default.jpg,4.0,28,,,,,,,,,,,,,,,,,,0.0,22.0,22.0,22.0,1.0,,,,,,,,,,
0.0,1.0,0.564,,,,,,surfboard_11s.jpg,0.0,clockno_up.jpg,5.0,28,,,,,,,,,,,,,,,,,,0.0,23.0,23.0,23.0,1.0,,,,,,,,,,
0.0,1.0,0.502,,,,,,birthday_cake_09s.jpg,0.0,clockno_default.jpg,5.0,28,,,,,,,,,,,,,,,,,,0.0,24.0,24.0,24.0,1.0,,,,,,,,,,
0.0,1.0,0.398,,,,,,pretzel_09s.jpg,0.0,clockno_default.jpg,5.0,28,,,,,,,,,,,,,,,,,,0.0,25.0,25.0,25.0,1.0,,,,,,,,,,
0.0,1.0,0.418,,,,,,possum_09s.jpg,0.0,clockno_default.jpg,5.0,28,,,,,,,,,,,,,,,,,,0.0,26.0,26.0,26.0,1.0,,,,,,,,,,
0.0,1.0,0.849,,,,,,magnet_03s.jpg,0.0,clockno_default.jpg,5.0,28,,,,,,,,,,,,,,,,,,0.0,27.0,27.0,27.0,1.0,,,,,,,,,,
0.0,1.0,0.564,,,,,,crate_05s.jpg,0.0,clockno_default.jpg,5.0,28,,,,,,,,,,,,,,,,,,0.0,28.0,28.0,28.0,1.0,,,,,,,,,,
0.0,1.0,0.864,,,,,,fossil_06s.jpg,0.0,clockno_up.jpg,6.0,28,,,,,,,,,,,,,,,,,,0.0,29.0,29.0,29.0,1.0,,,,,,,,,,
0.0,1.0,0.753,,,,,,contact_lens_15s.jpg,0.0,clockno_default.jpg,6.0,28,,,,,,,,,,,,,,,,,,0.0,30.0,30.0,30.0,1.0,,,,,,,,,,
0.0,1.0,0.677,,,,,,sugar_cube_11s.jpg,0.0,clockno_default.jpg,6.0,28,,,,,,,,,,,,,,,,,,0.0,31.0,31.0,31.0,1.0,,,,,,,,,,
0.0,1.0,0.751,,,,,,key_07s.jpg,0.0,clockno_default.jpg,6.0,28,,,,,,,,,,,,,,,,,,0.0,32.0,32.0,32.0,1.0,,,,,,,,,,
0.0,1.0,0.667,,,,,,birthday_cake_09s.jpg,0.0,clockno_default.jpg,6.0,28,,,,,,,,,,,,,,,,,,0.0,33.0,33.0,33.0,1.0,,,,,,,,,,
0.0,1.0,0.498,,,,,,kangaroo_02s.jpg,0.0,clockno_default.jpg,6.0,28,,,,,,,,,,,,,,,,,,0.0,34.0,34.0,34.0,1.0,,,,,,,,,,
0.0,1.0,0.532,,,,,,juicer1_08s.jpg,0.0,clockno_default.jpg,6.0,28,,,,,,,,,,,,,,,,,,0.0,35.0,35.0,35.0,1.0,,,,,,,,,,
,,,,,,,,,1.0,,,28,0.0,0.0,1.876,,,,,,magnet_03s.jpg,contact_lens_15s.jpg,,,,,,,,,,,,,0.0,0.0,0.0,0.0,1.0,,,,,
,,,,,,,,,0.0,,,28,1.0,0.0,1.168,,,,,,paper_towel_03s.jpg,crystal_ball_12s.jpg,,,,,,,,,,,,,0.0,1.0,1.0,1.0,1.0,,,,,
,,,,,,,,,0.0,,,28,0.0,1.0,1.132,,,,,,frog_09s.jpg,lamb_chop_07s.jpg,,,,,,,,,,,,,0.0,2.0,2.0,2.0,1.0,,,,,
,,,,,,,,,0.0,,,28,0.0,1.0,1.235,,,,,,juicer1_08s.jpg,key_07s.jpg,,,,,,,,,,,,,0.0,3.0,3.0,3.0,1.0,,,,,
,,,,,,,,,0.0,,,28,1.0,0.0,1.852,,,,,,eyedropper_12s.jpg,metronome_03s.jpg,,,,,,,,,,,,,0.0,4.0,4.0,4.0,1.0,,,,,
,,,,,,,,,0.0,,,28,0.0,1.0,1.716,,,,,,totem_pole_05s.jpg,kettle_08s.jpg,,,,,,,,,,,,,0.0,5.0,5.0,5.0,1.0,,,,,
,,,,,,,,,,,,28,,,,,,,,,,,,,,,,clockno_present_5_5.xlsx,clockno_compare_task_5_5.xlsx,,,,,,,,,,,0.0,4.0,4.0,4.0,1.0
0.0,1.0,0.84,,,,,,fishhook_06s.jpg,0.0,clockno_up.jpg,1.0,28,,,,,,,,,,,,,,,,,,0.0,0.0,0.0,0.0,1.0,,,,,,,,,,
1.0,1.0,1.252,,,,,,fishhook_06s.jpg,1.0,clockno_default.jpg,1.0,28,,,,,,,,,,,,,,,,,,0.0,1.0,1.0,1.0,1.0,,,,,,,,,,
1.0,1.0,0.651,,,,,,fishhook_06s.jpg,1.0,clockno_default.jpg,1.0,28,,,,,,,,,,,,,,,,,,0.0,2.0,2.0,2.0,1.0,,,,,,,,,,
0.0,1.0,0.687,,,,,,chip_04s.jpg,0.0,clockno_default.jpg,1.0,28,,,,,,,,,,,,,,,,,,0.0,3.0,3.0,3.0,1.0,,,,,,,,,,
0.0,1.0,0.569,,,,,,kite_04s.jpg,0.0,clockno_default.jpg,1.0,28,,,,,,,,,,,,,,,,,,0.0,4.0,4.0,4.0,1.0,,,,,,,,,,
1.0,1.0,0.8,,,,,,fishhook_06s.jpg,1.0,clockno_default.jpg,1.0,28,,,,,,,,,,,,,,,,,,0.0,5.0,5.0,5.0,1.0,,,,,,,,,,
0.0,1.0,0.745,,,,,,potpourri_03s.jpg,0.0,clockno_default.jpg,1.0,28,,,,,,,,,,,,,,,,,,0.0,6.0,6.0,6.0,1.0,,,,,,,,,,
0.0,1.0,0.661,,,,,,blazer_02s.jpg,0.0,clockno_up.jpg,2.0,28,,,,,,,,,,,,,,,,,,0.0,7.0,7.0,7.0,1.0,,,,,,,,,,
0.0,1.0,0.566,,,,,,toy_04s.jpg,0.0,clockno_default.jpg,2.0,28,,,,,,,,,,,,,,,,,,0.0,8.0,8.0,8.0,1.0,,,,,,,,,,
0.0,1.0,0.549,,,,,,poinsettia_04s.jpg,0.0,clockno_default.jpg,2.0,28,,,,,,,,,,,,,,,,,,0.0,9.0,9.0,9.0,1.0,,,,,,,,,,
0.0,1.0,0.599,,,,,,punch2_09s.jpg,0.0,clockno_default.jpg,2.0,28,,,,,,,,,,,,,,,,,,0.0,10.0,10.0,10.0,1.0,,,,,,,,,,
1.0,1.0,2.268,,,,,,toy_04s.jpg,1.0,clockno_default.jpg,2.0,28,,,,,,,,,,,,,,,,,,0.0,11.0,11.0,11.0,1.0,,,,,,,,,,
0.0,1.0,0.653,,,,,,quilt_03s.jpg,0.0,clockno_up.jpg,3.0,28,,,,,,,,,,,,,,,,,,0.0,12.0,12.0,12.0,1.0,,,,,,,,,,
1.0,1.0,1.05,,,,,,quilt_03s.jpg,1.0,clockno_default.jpg,3.0,28,,,,,,,,,,,,,,,,,,0.0,13.0,13.0,13.0,1.0,,,,,,,,,,
0.0,1.0,0.436,,,,,,toad_09s.jpg,0.0,clockno_default.jpg,3.0,28,,,,,,,,,,,,,,,,,,0.0,14.0,14.0,14.0,1.0,,,,,,,,,,
1.0,1.0,0.799,,,,,,toad_09s.jpg,1.0,clockno_default.jpg,3.0,28,,,,,,,,,,,,,,,,,,0.0,15.0,15.0,15.0,1.0,,,,,,,,,,
1.0,1.0,0.8,,,,,,quilt_03s.jpg,1.0,clockno_default.jpg,3.0,28,,,,,,,,,,,,,,,,,,0.0,16.0,16.0,16.0,1.0,,,,,,,,,,
0.0,1.0,0.619,,,,,,cucumber_07s.jpg,0.0,clockno_default.jpg,3.0,28,,,,,,,,,,,,,,,,,,0.0,17.0,17.0,17.0,1.0,,,,,,,,,,
0.0,1.0,0.585,,,,,,turf_03s.jpg,0.0,clockno_default.jpg,3.0,28,,,,,,,,,,,,,,,,,,0.0,18.0,18.0,18.0,1.0,,,,,,,,,,
0.0,1.0,0.667,,,,,,slingshot_07s.jpg,0.0,clockno_up.jpg,4.0,28,,,,,,,,,,,,,,,,,,0.0,19.0,19.0,19.0,1.0,,,,,,,,,,
1.0,0.0,1.079,,,,,,toy_04s.jpg,0.0,clockno_default.jpg,4.0,28,,,,,,,,,,,,,,,,,,0.0,20.0,20.0,20.0,1.0,,,,,,,,,,
0.0,1.0,0.533,,,,,,rice_12s.jpg,0.0,clockno_default.jpg,4.0,28,,,,,,,,,,,,,,,,,,0.0,21.0,21.0,21.0,1.0,,,,,,,,,,
0.0,1.0,0.669,,,,,,flip_flop_03s.jpg,0.0,clockno_default.jpg,4.0,28,,,,,,,,,,,,,,,,,,0.0,22.0,22.0,22.0,1.0,,,,,,,,,,
0.0,1.0,0.592,,,,,,knitting_needle_04s.jpg,0.0,clockno_default.jpg,4.0,28,,,,,,,,,,,,,,,,,,0.0,23.0,23.0,23.0,1.0,,,,,,,,,,
0.0,1.0,0.472,,,,,,crossbow_10s.jpg,0.0,clockno_default.jpg,4.0,28,,,,,,,,,,,,,,,,,,0.0,24.0,24.0,24.0,1.0,,,,,,,,,,
0.0,1.0,0.674,,,,,,rocking_chair_05s.jpg,0.0,clockno_up.jpg,5.0,28,,,,,,,,,,,,,,,,,,0.0,25.0,25.0,25.0,1.0,,,,,,,,,,
0.0,1.0,1.033,,,,,,fire_pit_10s.jpg,0.0,clockno_default.jpg,5.0,28,,,,,,,,,,,,,,,,,,0.0,26.0,26.0,26.0,1.0,,,,,,,,,,
1.0,1.0,2.359,,,,,,rocking_chair_05s.jpg,1.0,clockno_default.jpg,5.0,28,,,,,,,,,,,,,,,,,,0.0,27.0,27.0,27.0,1.0,,,,,,,,,,
1.0,1.0,1.856,,,,,,rocking_chair_05s.jpg,1.0,clockno_default.jpg,5.0,28,,,,,,,,,,,,,,,,,,0.0,28.0,28.0,28.0,1.0,,,,,,,,,,
0.0,1.0,1.37,,,,,,toad_09s.jpg,0.0,clockno_default.jpg,5.0,28,,,,,,,,,,,,,,,,,,0.0,29.0,29.0,29.0,1.0,,,,,,,,,,
1.0,1.0,1.166,,,,,,rocking_chair_05s.jpg,1.0,clockno_default.jpg,5.0,28,,,,,,,,,,,,,,,,,,0.0,30.0,30.0,30.0,1.0,,,,,,,,,,
0.0,1.0,0.616,,,,,,money_07s.jpg,0.0,clockno_up.jpg,6.0,28,,,,,,,,,,,,,,,,,,0.0,31.0,31.0,31.0,1.0,,,,,,,,,,
0.0,1.0,0.661,,,,,,boomerang_06s.jpg,0.0,clockno_default.jpg,6.0,28,,,,,,,,,,,,,,,,,,0.0,32.0,32.0,32.0,1.0,,,,,,,,,,
0.0,1.0,0.716,,,,,,mitten_10s.jpg,0.0,clockno_default.jpg,6.0,28,,,,,,,,,,,,,,,,,,0.0,33.0,33.0,33.0,1.0,,,,,,,,,,
0.0,1.0,1.066,,,,,,cereal_04s.jpg,0.0,clockno_default.jpg,6.0,28,,,,,,,,,,,,,,,,,,0.0,34.0,34.0,34.0,1.0,,,,,,,,,,
0.0,1.0,0.699,,,,,,mailbox_11s.jpg,0.0,clockno_default.jpg,6.0,28,,,,,,,,,,,,,,,,,,0.0,35.0,35.0,35.0,1.0,,,,,,,,,,
,,,,,,,,,1.0,,,28,0.0,0.0,3.154,,,,,,knitting_needle_04s.jpg,fire_pit_10s.jpg,,,,,,,,,,,,,0.0,0.0,0.0,0.0,1.0,,,,,
,,,,,,,,,1.0,,,28,1.0,1.0,1.735,,,,,,kite_04s.jpg,blazer_02s.jpg,,,,,,,,,,,,,0.0,1.0,1.0,1.0,1.0,,,,,
,,,,,,,,,1.0,,,28,1.0,1.0,1.782,,,,,,potpourri_03s.jpg,poinsettia_04s.jpg,,,,,,,,,,,,,0.0,2.0,2.0,2.0,1.0,,,,,
,,,,,,,,,1.0,,,28,0.0,0.0,1.45,,,,,,slingshot_07s.jpg,flip_flop_03s.jpg,,,,,,,,,,,,,0.0,3.0,3.0,3.0,1.0,,,,,
,,,,,,,,,1.0,,,28,0.0,0.0,1.431,,,,,,money_07s.jpg,cereal_04s.jpg,,,,,,,,,,,,,0.0,4.0,4.0,4.0,1.0,,,,,
,,,,,,,,,1.0,,,28,1.0,1.0,1.517,,,,,,boomerang_06s.jpg,mailbox_11s.jpg,,,,,,,,,,,,,0.0,5.0,5.0,5.0,1.0,,,,,
