key_resp.keys,key_resp.corr,key_resp.rt,present_segment.thisRepN,present_segment.thisTrialN,present_segment.thisN,present_segment.thisIndex,present_segment.ran,pictures,answer,clock,segment,participant,key_resp_2.keys,key_resp_2.corr,key_resp_2.rt,compare_segment.thisRepN,compare_segment.thisTrialN,compare_segment.thisN,compare_segment.thisIndex,compare_segment.ran,item_a,item_b,clock_conditions.thisRepN,clock_conditions.thisTrialN,clock_conditions.thisN,clock_conditions.thisIndex,clock_conditions.ran,present,compare,noclock_present.thisRepN,noclock_present.thisTrialN,noclock_present.thisN,noclock_present.thisIndex,noclock_present.ran,noclock_compare.thisRepN,noclock_compare.thisTrialN,noclock_compare.thisN,noclock_compare.thisIndex,noclock_compare.ran,noclock_conditions.thisRepN,noclock_conditions.thisTrialN,noclock_conditions.thisN,noclock_conditions.thisIndex,noclock_conditions.ran
0.0,1.0,1.724545,0.0,0.0,0.0,0.0,1.0,prism_10s.jpg,0.0,clock_5_1.png,1.0,21,,,,,,,,,,,,,,,,,,,,,,,,,,,,,,,,
0.0,1.0,0.900635,0.0,1.0,1.0,1.0,1.0,snowman_02s.jpg,0.0,clock_5_2.png,1.0,21,,,,,,,,,,,,,,,,,,,,,,,,,,,,,,,,
0.0,1.0,0.71121,0.0,2.0,2.0,2.0,1.0,safety_pin_02s.jpg,0.0,clock_5_3.png,1.0,21,,,,,,,,,,,,,,,,,,,,,,,,,,,,,,,,
1.0,1.0,2.2722,0.0,3.0,3.0,3.0,1.0,prism_10s.jpg,1.0,clock_5_4.png,1.0,21,,,,,,,,,,,,,,,,,,,,,,,,,,,,,,,,
0.0,1.0,0.596565,0.0,4.0,4.0,4.0,1.0,peppermint_07s.jpg,0.0,clock_5_5.png,1.0,21,,,,,,,,,,,,,,,,,,,,,,,,,,,,,,,,
0.0,1.0,0.577265,0.0,5.0,5.0,5.0,1.0,radio_09s.jpg,0.0,clock_6_1.png,2.0,21,,,,,,,,,,,,,,,,,,,,,,,,,,,,,,,,
0.0,1.0,0.7168,0.0,6.0,6.0,6.0,1.0,tablet_04s.jpg,0.0,clock_6_2.png,2.0,21,,,,,,,,,,,,,,,,,,,,,,,,,,,,,,,,
0.0,1.0,0.59143,0.0,7.0,7.0,7.0,1.0,sleeping_bag_12s.jpg,0.0,clock_6_3.png,2.0,21,,,,,,,,,,,,,,,,,,,,,,,,,,,,,,,,
0.0,1.0,0.525135,0.0,8.0,8.0,8.0,1.0,racehorse_03s.jpg,0.0,clock_6_4.png,2.0,21,,,,,,,,,,,,,,,,,,,,,,,,,,,,,,,,
1.0,0.0,0.723415,0.0,9.0,9.0,9.0,1.0,peppermint_07s.jpg,0.0,clock_6_5.png,2.0,21,,,,,,,,,,,,,,,,,,,,,,,,,,,,,,,,
0.0,1.0,0.531425,0.0,10.0,10.0,10.0,1.0,jukebox_03n.jpg,0.0,clock_6_6.png,2.0,21,,,,,,,,,,,,,,,,,,,,,,,,,,,,,,,,
0.0,1.0,0.558615,0.0,11.0,11.0,11.0,1.0,moth_06n.jpg,0.0,clock_6_1.png,3.0,21,,,,,,,,,,,,,,,,,,,,,,,,,,,,,,,,
0.0,1.0,0.563715,0.0,12.0,12.0,12.0,1.0,ant_12s.jpg,0.0,clock_6_2.png,3.0,21,,,,,,,,,,,,,,,,,,,,,,,,,,,,,,,,
0.0,1.0,0.56565,0.0,13.0,13.0,13.0,1.0,chocolate_01b.jpg,0.0,clock_6_3.png,3.0,21,,,,,,,,,,,,,,,,,,,,,,,,,,,,,,,,
0.0,1.0,0.49759,0.0,14.0,14.0,14.0,1.0,puck_06s.jpg,0.0,clock_6_4.png,3.0,21,,,,,,,,,,,,,,,,,,,,,,,,,,,,,,,,
1.0,1.0,0.736225,0.0,15.0,15.0,15.0,1.0,chocolate_01b.jpg,1.0,clock_6_5.png,3.0,21,,,,,,,,,,,,,,,,,,,,,,,,,,,,,,,,
0.0,1.0,0.485835,0.0,16.0,16.0,16.0,1.0,orchid_01b.jpg,0.0,clock_6_6.png,3.0,21,,,,,,,,,,,,,,,,,,,,,,,,,,,,,,,,
0.0,1.0,0.48948,0.0,17.0,17.0,17.0,1.0,pillow_03s.jpg,0.0,clock_7_1.png,4.0,21,,,,,,,,,,,,,,,,,,,,,,,,,,,,,,,,
1.0,1.0,1.28267,0.0,18.0,18.0,18.0,1.0,pillow_03s.jpg,1.0,clock_7_2.png,4.0,21,,,,,,,,,,,,,,,,,,,,,,,,,,,,,,,,
0.0,1.0,0.51612,0.0,19.0,19.0,19.0,1.0,loom_05s.jpg,0.0,clock_7_3.png,4.0,21,,,,,,,,,,,,,,,,,,,,,,,,,,,,,,,,
0.0,1.0,0.509665,0.0,20.0,20.0,20.0,1.0,kangaroo_02s.jpg,0.0,clock_7_4.png,4.0,21,,,,,,,,,,,,,,,,,,,,,,,,,,,,,,,,
0.0,1.0,0.59861,0.0,21.0,21.0,21.0,1.0,plunger_08s.jpg,0.0,clock_7_5.png,4.0,21,,,,,,,,,,,,,,,,,,,,,,,,,,,,,,,,
0.0,1.0,0.577575,0.0,22.0,22.0,22.0,1.0,refrigerator_07s.jpg,0.0,clock_7_6.png,4.0,21,,,,,,,,,,,,,,,,,,,,,,,,,,,,,,,,
0.0,1.0,0.58505,0.0,23.0,23.0,23.0,1.0,mousetrap_15n.jpg,0.0,clock_7_7.png,4.0,21,,,,,,,,,,,,,,,,,,,,,,,,,,,,,,,,
0.0,1.0,0.59708,0.0,24.0,24.0,24.0,1.0,margarita_03s.jpg,0.0,clock_5_1.png,5.0,21,,,,,,,,,,,,,,,,,,,,,,,,,,,,,,,,
0.0,1.0,0.552955,0.0,25.0,25.0,25.0,1.0,plaster_cast_13s.jpg,0.0,clock_5_2.png,5.0,21,,,,,,,,,,,,,,,,,,,,,,,,,,,,,,,,
0.0,1.0,1.165965,0.0,26.0,26.0,26.0,1.0,radio_09s.jpg,0.0,clock_5_3.png,5.0,21,,,,,,,,,,,,,,,,,,,,,,,,,,,,,,,,
0.0,1.0,0.79669,0.0,27.0,27.0,27.0,1.0,footprint_11s.jpg,0.0,clock_5_4.png,5.0,21,,,,,,,,,,,,,,,,,,,,,,,,,,,,,,,,
0.0,1.0,0.88359,0.0,28.0,28.0,28.0,1.0,ant_12s.jpg,0.0,clock_5_5.png,5.0,21,,,,,,,,,,,,,,,,,,,,,,,,,,,,,,,,
0.0,1.0,0.543135,0.0,29.0,29.0,29.0,1.0,tiger_06s.jpg,0.0,clock_7_1.png,6.0,21,,,,,,,,,,,,,,,,,,,,,,,,,,,,,,,,
0.0,1.0,0.663085,0.0,30.0,30.0,30.0,1.0,fishhook_06s.jpg,0.0,clock_7_2.png,6.0,21,,,,,,,,,,,,,,,,,,,,,,,,,,,,,,,,
0.0,1.0,0.54548,0.0,31.0,31.0,31.0,1.0,poinsettia_04s.jpg,0.0,clock_7_3.png,6.0,21,,,,,,,,,,,,,,,,,,,,,,,,,,,,,,,,
0.0,0.0,1.187025,0.0,32.0,32.0,32.0,1.0,tiger_06s.jpg,1.0,clock_7_4.png,6.0,21,,,,,,,,,,,,,,,,,,,,,,,,,,,,,,,,
0.0,1.0,0.5526,0.0,33.0,33.0,33.0,1.0,limousine_12s.jpg,0.0,clock_7_5.png,6.0,21,,,,,,,,,,,,,,,,,,,,,,,,,,,,,,,,
0.0,1.0,0.631335,0.0,34.0,34.0,34.0,1.0,submarine_11n.jpg,0.0,clock_7_6.png,6.0,21,,,,,,,,,,,,,,,,,,,,,,,,,,,,,,,,
0.0,1.0,0.60212,0.0,35.0,35.0,35.0,1.0,quill_09s.jpg,0.0,clock_7_7.png,6.0,21,,,,,,,,,,,,,,,,,,,,,,,,,,,,,,,,
,,,,,,,,,0.0,,,21,0.0,1.0,2.16546,0.0,0.0,0.0,0.0,1.0,moth_06n.jpg,racehorse_03s.jpg,,,,,,,,,,,,,,,,,,,,,,
,,,,,,,,,1.0,,,21,1.0,1.0,2.93105,0.0,1.0,1.0,1.0,1.0,orchid_01b.jpg,loom_05s.jpg,,,,,,,,,,,,,,,,,,,,,,
,,,,,,,,,0.0,,,21,1.0,0.0,2.623175,0.0,2.0,2.0,2.0,1.0,margarita_03s.jpg,plunger_08s.jpg,,,,,,,,,,,,,,,,,,,,,,
,,,,,,,,,1.0,,,21,0.0,0.0,2.859785,0.0,3.0,3.0,3.0,1.0,sleeping_bag_12s.jpg,jukebox_03n.jpg,,,,,,,,,,,,,,,,,,,,,,
,,,,,,,,,1.0,,,21,0.0,0.0,1.43804,0.0,4.0,4.0,4.0,1.0,kangaroo_02s.jpg,mousetrap_15n.jpg,,,,,,,,,,,,,,,,,,,,,,
,,,,,,,,,0.0,,,21,0.0,1.0,1.569235,0.0,5.0,5.0,5.0,1.0,submarine_11n.jpg,poinsettia_04s.jpg,,,,,,,,,,,,,,,,,,,,,,
,,,,,,,,,,,,21,,,,,,,,,,,0.0,0.0,0.0,0.0,1.0,clock_present_1_16.xlsx,clock_compare_task_1_16.xlsx,,,,,,,,,,,,,,,
0.0,1.0,1.61607,0.0,0.0,0.0,0.0,1.0,metronome_03s.jpg,0.0,clock_5_1.png,1.0,21,,,,,,,,,,,,,,,,,,,,,,,,,,,,,,,,
0.0,1.0,0.44813,0.0,1.0,1.0,1.0,1.0,cereal_04s.jpg,0.0,clock_5_2.png,1.0,21,,,,,,,,,,,,,,,,,,,,,,,,,,,,,,,,
0.0,1.0,0.61686,0.0,2.0,2.0,2.0,1.0,tripod_01b.jpg,0.0,clock_5_3.png,1.0,21,,,,,,,,,,,,,,,,,,,,,,,,,,,,,,,,
0.0,1.0,0.580735,0.0,3.0,3.0,3.0,1.0,thermostat_02s.jpg,0.0,clock_5_4.png,1.0,21,,,,,,,,,,,,,,,,,,,,,,,,,,,,,,,,
0.0,1.0,0.546465,0.0,4.0,4.0,4.0,1.0,jalapeno_15s.jpg,0.0,clock_5_5.png,1.0,21,,,,,,,,,,,,,,,,,,,,,,,,,,,,,,,,
0.0,1.0,0.591485,0.0,5.0,5.0,5.0,1.0,aluminum_foil_08s.jpg,0.0,clock_6_1.png,2.0,21,,,,,,,,,,,,,,,,,,,,,,,,,,,,,,,,
0.0,1.0,0.58975,0.0,6.0,6.0,6.0,1.0,medal_04s.jpg,0.0,clock_6_2.png,2.0,21,,,,,,,,,,,,,,,,,,,,,,,,,,,,,,,,
0.0,1.0,0.64859,0.0,7.0,7.0,7.0,1.0,flip_flop_03s.jpg,0.0,clock_6_3.png,2.0,21,,,,,,,,,,,,,,,,,,,,,,,,,,,,,,,,
0.0,1.0,0.539595,0.0,8.0,8.0,8.0,1.0,orangutan_03s.jpg,0.0,clock_6_4.png,2.0,21,,,,,,,,,,,,,,,,,,,,,,,,,,,,,,,,
0.0,1.0,0.470145,0.0,9.0,9.0,9.0,1.0,otter_05s.jpg,0.0,clock_6_5.png,2.0,21,,,,,,,,,,,,,,,,,,,,,,,,,,,,,,,,
0.0,1.0,0.46131,0.0,10.0,10.0,10.0,1.0,polar_bear_02s.jpg,0.0,clock_6_6.png,2.0,21,,,,,,,,,,,,,,,,,,,,,,,,,,,,,,,,
0.0,1.0,0.51313,0.0,11.0,11.0,11.0,1.0,pocketknife_12s.jpg,0.0,clock_7_1.png,3.0,21,,,,,,,,,,,,,,,,,,,,,,,,,,,,,,,,
1.0,1.0,1.41833,0.0,12.0,12.0,12.0,1.0,pocketknife_12s.jpg,1.0,clock_7_2.png,3.0,21,,,,,,,,,,,,,,,,,,,,,,,,,,,,,,,,
0.0,1.0,0.418565,0.0,13.0,13.0,13.0,1.0,tulip_02s.jpg,0.0,clock_7_3.png,3.0,21,,,,,,,,,,,,,,,,,,,,,,,,,,,,,,,,
0.0,1.0,0.45576,0.0,14.0,14.0,14.0,1.0,lamb_chop_07s.jpg,0.0,clock_7_4.png,3.0,21,,,,,,,,,,,,,,,,,,,,,,,,,,,,,,,,
0.0,1.0,0.453435,0.0,15.0,15.0,15.0,1.0,tape_measure_11s.jpg,0.0,clock_7_5.png,3.0,21,,,,,,,,,,,,,,,,,,,,,,,,,,,,,,,,
1.0,1.0,2.019885,0.0,16.0,16.0,16.0,1.0,pocketknife_12s.jpg,1.0,clock_7_6.png,3.0,21,,,,,,,,,,,,,,,,,,,,,,,,,,,,,,,,
0.0,1.0,0.53695,0.0,17.0,17.0,17.0,1.0,pear_02s.jpg,0.0,clock_7_7.png,3.0,21,,,,,,,,,,,,,,,,,,,,,,,,,,,,,,,,
0.0,1.0,0.563275,0.0,18.0,18.0,18.0,1.0,lectern_08s.jpg,0.0,clock_6_1.png,4.0,21,,,,,,,,,,,,,,,,,,,,,,,,,,,,,,,,
0.0,1.0,0.93505,0.0,19.0,19.0,19.0,1.0,pineapple_12s.jpg,0.0,clock_6_2.png,4.0,21,,,,,,,,,,,,,,,,,,,,,,,,,,,,,,,,
0.0,1.0,0.51959,0.0,20.0,20.0,20.0,1.0,stamp1_11s.jpg,0.0,clock_6_3.png,4.0,21,,,,,,,,,,,,,,,,,,,,,,,,,,,,,,,,
0.0,1.0,0.5452,0.0,21.0,21.0,21.0,1.0,boomerang_06s.jpg,0.0,clock_6_4.png,4.0,21,,,,,,,,,,,,,,,,,,,,,,,,,,,,,,,,
0.0,1.0,0.51412,0.0,22.0,22.0,22.0,1.0,screwdriver02a.jpg,0.0,clock_6_5.png,4.0,21,,,,,,,,,,,,,,,,,,,,,,,,,,,,,,,,
0.0,1.0,0.553245,0.0,23.0,23.0,23.0,1.0,solar_panel_02s.jpg,0.0,clock_6_6.png,4.0,21,,,,,,,,,,,,,,,,,,,,,,,,,,,,,,,,
0.0,1.0,0.53189,0.0,24.0,24.0,24.0,1.0,tile_08s.jpg,0.0,clock_5_1.png,5.0,21,,,,,,,,,,,,,,,,,,,,,,,,,,,,,,,,
0.0,1.0,0.530225,0.0,25.0,25.0,25.0,1.0,roulette_wheel_04s.jpg,0.0,clock_5_2.png,5.0,21,,,,,,,,,,,,,,,,,,,,,,,,,,,,,,,,
0.0,1.0,0.517705,0.0,26.0,26.0,26.0,1.0,lid_10s.jpg,0.0,clock_5_3.png,5.0,21,,,,,,,,,,,,,,,,,,,,,,,,,,,,,,,,
0.0,1.0,0.69554,0.0,27.0,27.0,27.0,1.0,pineapple_12s.jpg,0.0,clock_5_4.png,5.0,21,,,,,,,,,,,,,,,,,,,,,,,,,,,,,,,,
0.0,1.0,0.55208,0.0,28.0,28.0,28.0,1.0,potpourri_03s.jpg,0.0,clock_5_5.png,5.0,21,,,,,,,,,,,,,,,,,,,,,,,,,,,,,,,,
0.0,1.0,0.562555,0.0,29.0,29.0,29.0,1.0,measuring_cup_02s.jpg,0.0,clock_7_1.png,6.0,21,,,,,,,,,,,,,,,,,,,,,,,,,,,,,,,,
0.0,1.0,0.79642,0.0,30.0,30.0,30.0,1.0,kite_04s.jpg,0.0,clock_7_2.png,6.0,21,,,,,,,,,,,,,,,,,,,,,,,,,,,,,,,,
0.0,1.0,1.77577,0.0,31.0,31.0,31.0,1.0,solar_panel_02s.jpg,0.0,clock_7_3.png,6.0,21,,,,,,,,,,,,,,,,,,,,,,,,,,,,,,,,
0.0,1.0,0.561765,0.0,32.0,32.0,32.0,1.0,piano_13n.jpg,0.0,clock_7_4.png,6.0,21,,,,,,,,,,,,,,,,,,,,,,,,,,,,,,,,
0.0,1.0,0.68759,0.0,33.0,33.0,33.0,1.0,sea_urchin_09s.jpg,0.0,clock_7_5.png,6.0,21,,,,,,,,,,,,,,,,,,,,,,,,,,,,,,,,
0.0,1.0,0.86715,0.0,34.0,34.0,34.0,1.0,thermostat_02s.jpg,0.0,clock_7_6.png,6.0,21,,,,,,,,,,,,,,,,,,,,,,,,,,,,,,,,
0.0,1.0,0.94568,0.0,35.0,35.0,35.0,1.0,stapler_01b.jpg,0.0,clock_7_7.png,6.0,21,,,,,,,,,,,,,,,,,,,,,,,,,,,,,,,,
,,,,,,,,,0.0,,,21,1.0,0.0,1.390175,0.0,0.0,0.0,0.0,1.0,aluminum_foil_08s.jpg,tripod_01b.jpg,,,,,,,,,,,,,,,,,,,,,,
,,,,,,,,,0.0,,,21,0.0,1.0,1.25629,0.0,1.0,1.0,1.0,1.0,tulip_02s.jpg,polar_bear_02s.jpg,,,,,,,,,,,,,,,,,,,,,,
,,,,,,,,,1.0,,,21,0.0,0.0,1.429495,0.0,2.0,2.0,2.0,1.0,tape_measure_11s.jpg,lectern_08s.jpg,,,,,,,,,,,,,,,,,,,,,,
,,,,,,,,,1.0,,,21,1.0,1.0,1.254305,0.0,3.0,3.0,3.0,1.0,medal_04s.jpg,otter_05s.jpg,,,,,,,,,,,,,,,,,,,,,,
,,,,,,,,,1.0,,,21,1.0,1.0,1.536855,0.0,4.0,4.0,4.0,1.0,kite_04s.jpg,sea_urchin_09s.jpg,,,,,,,,,,,,,,,,,,,,,,
,,,,,,,,,1.0,,,21,0.0,0.0,1.49461,0.0,5.0,5.0,5.0,1.0,piano_13n.jpg,stapler_01b.jpg,,,,,,,,,,,,,,,,,,,,,,
,,,,,,,,,,,,21,,,,,,,,,,,0.0,1.0,1.0,1.0,1.0,clock_present_2_16.xlsx,clock_compare_task_2_16.xlsx,,,,,,,,,,,,,,,
0.0,1.0,1.76756,0.0,0.0,0.0,0.0,1.0,trampoline_13s.jpg,0.0,clock_5_1.png,1.0,21,,,,,,,,,,,,,,,,,,,,,,,,,,,,,,,,
0.0,1.0,0.53717,0.0,1.0,1.0,1.0,1.0,ice_pack_09s.jpg,0.0,clock_5_2.png,1.0,21,,,,,,,,,,,,,,,,,,,,,,,,,,,,,,,,
0.0,1.0,0.567235,0.0,2.0,2.0,2.0,1.0,printer_09s.jpg,0.0,clock_5_3.png,1.0,21,,,,,,,,,,,,,,,,,,,,,,,,,,,,,,,,
1.0,1.0,1.32898,0.0,3.0,3.0,3.0,1.0,ice_pack_09s.jpg,1.0,clock_5_4.png,1.0,21,,,,,,,,,,,,,,,,,,,,,,,,,,,,,,,,
0.0,1.0,0.585675,0.0,4.0,4.0,4.0,1.0,koala_13s.jpg,0.0,clock_5_5.png,1.0,21,,,,,,,,,,,,,,,,,,,,,,,,,,,,,,,,
0.0,1.0,0.612505,0.0,5.0,5.0,5.0,1.0,key_07s.jpg,0.0,clock_5_1.png,2.0,21,,,,,,,,,,,,,,,,,,,,,,,,,,,,,,,,
0.0,1.0,0.517125,0.0,6.0,6.0,6.0,1.0,lamppost_09s.jpg,0.0,clock_5_2.png,2.0,21,,,,,,,,,,,,,,,,,,,,,,,,,,,,,,,,
0.0,1.0,0.513625,0.0,7.0,7.0,7.0,1.0,jigsaw_puzzle_11s.jpg,0.0,clock_5_3.png,2.0,21,,,,,,,,,,,,,,,,,,,,,,,,,,,,,,,,
0.0,1.0,0.473285,0.0,8.0,8.0,8.0,1.0,pantyhose_07s.jpg,0.0,clock_5_4.png,2.0,21,,,,,,,,,,,,,,,,,,,,,,,,,,,,,,,,
0.0,1.0,0.482505,0.0,9.0,9.0,9.0,1.0,typewriter_11s.jpg,0.0,clock_5_5.png,2.0,21,,,,,,,,,,,,,,,,,,,,,,,,,,,,,,,,
0.0,1.0,0.54373,0.0,10.0,10.0,10.0,1.0,rocking_horse_03s.jpg,0.0,clock_7_1.png,3.0,21,,,,,,,,,,,,,,,,,,,,,,,,,,,,,,,,
1.0,1.0,0.7816,0.0,11.0,11.0,11.0,1.0,rocking_horse_03s.jpg,1.0,clock_7_2.png,3.0,21,,,,,,,,,,,,,,,,,,,,,,,,,,,,,,,,
0.0,1.0,0.511245,0.0,12.0,12.0,12.0,1.0,spider_web_03s.jpg,0.0,clock_7_3.png,3.0,21,,,,,,,,,,,,,,,,,,,,,,,,,,,,,,,,
0.0,1.0,0.479505,0.0,13.0,13.0,13.0,1.0,hydrant_10s.jpg,0.0,clock_7_4.png,3.0,21,,,,,,,,,,,,,,,,,,,,,,,,,,,,,,,,
0.0,1.0,0.695615,0.0,14.0,14.0,14.0,1.0,recliner_02s.jpg,0.0,clock_7_5.png,3.0,21,,,,,,,,,,,,,,,,,,,,,,,,,,,,,,,,
0.0,1.0,0.49748,0.0,15.0,15.0,15.0,1.0,pantyhose_07s.jpg,0.0,clock_7_6.png,3.0,21,,,,,,,,,,,,,,,,,,,,,,,,,,,,,,,,
0.0,1.0,1.02821,0.0,16.0,16.0,16.0,1.0,mosquito_12s.jpg,0.0,clock_7_7.png,3.0,21,,,,,,,,,,,,,,,,,,,,,,,,,,,,,,,,
0.0,1.0,0.68629,0.0,17.0,17.0,17.0,1.0,pan_02s.jpg,0.0,clock_7_1.png,4.0,21,,,,,,,,,,,,,,,,,,,,,,,,,,,,,,,,
1.0,0.0,1.834915,0.0,18.0,18.0,18.0,1.0,rope_16s.jpg,0.0,clock_7_2.png,4.0,21,,,,,,,,,,,,,,,,,,,,,,,,,,,,,,,,
0.0,1.0,0.54485,0.0,19.0,19.0,19.0,1.0,diving_board_07s.jpg,0.0,clock_7_3.png,4.0,21,,,,,,,,,,,,,,,,,,,,,,,,,,,,,,,,
0.0,1.0,0.67341,0.0,20.0,20.0,20.0,1.0,lamppost_09s.jpg,0.0,clock_7_4.png,4.0,21,,,,,,,,,,,,,,,,,,,,,,,,,,,,,,,,
0.0,1.0,0.799775,0.0,21.0,21.0,21.0,1.0,tape_06s.jpg,0.0,clock_7_5.png,4.0,21,,,,,,,,,,,,,,,,,,,,,,,,,,,,,,,,
0.0,1.0,0.62974,0.0,22.0,22.0,22.0,1.0,keyhole_03s.jpg,0.0,clock_7_6.png,4.0,21,,,,,,,,,,,,,,,,,,,,,,,,,,,,,,,,
,0.0,,0.0,23.0,23.0,23.0,1.0,compass_10n.jpg,0.0,clock_7_7.png,4.0,21,,,,,,,,,,,,,,,,,,,,,,,,,,,,,,,,
0.0,1.0,0.646405,0.0,24.0,24.0,24.0,1.0,coconut_08s.jpg,0.0,clock_6_1.png,5.0,21,,,,,,,,,,,,,,,,,,,,,,,,,,,,,,,,
0.0,1.0,0.64685,0.0,25.0,25.0,25.0,1.0,bolo_tie_08s.jpg,0.0,clock_6_2.png,5.0,21,,,,,,,,,,,,,,,,,,,,,,,,,,,,,,,,
0.0,1.0,0.53101,0.0,26.0,26.0,26.0,1.0,frog_09s.jpg,0.0,clock_6_3.png,5.0,21,,,,,,,,,,,,,,,,,,,,,,,,,,,,,,,,
0.0,1.0,0.4977,0.0,27.0,27.0,27.0,1.0,mop_08s.jpg,0.0,clock_6_4.png,5.0,21,,,,,,,,,,,,,,,,,,,,,,,,,,,,,,,,
0.0,1.0,0.53393,0.0,28.0,28.0,28.0,1.0,jewel_01b.jpg,0.0,clock_6_5.png,5.0,21,,,,,,,,,,,,,,,,,,,,,,,,,,,,,,,,
1.0,1.0,0.80499,0.0,29.0,29.0,29.0,1.0,mop_08s.jpg,1.0,clock_6_6.png,5.0,21,,,,,,,,,,,,,,,,,,,,,,,,,,,,,,,,
0.0,1.0,0.642695,0.0,30.0,30.0,30.0,1.0,leash_10s.jpg,0.0,clock_6_1.png,6.0,21,,,,,,,,,,,,,,,,,,,,,,,,,,,,,,,,
1.0,1.0,1.14298,0.0,31.0,31.0,31.0,1.0,leash_10s.jpg,1.0,clock_6_2.png,6.0,21,,,,,,,,,,,,,,,,,,,,,,,,,,,,,,,,
1.0,1.0,0.962565,0.0,32.0,32.0,32.0,1.0,leash_10s.jpg,1.0,clock_6_3.png,6.0,21,,,,,,,,,,,,,,,,,,,,,,,,,,,,,,,,
0.0,1.0,0.50302,0.0,33.0,33.0,33.0,1.0,abacus_12s.jpg,0.0,clock_6_4.png,6.0,21,,,,,,,,,,,,,,,,,,,,,,,,,,,,,,,,
0.0,1.0,0.96809,0.0,34.0,34.0,34.0,1.0,compass_10n.jpg,0.0,clock_6_5.png,6.0,21,,,,,,,,,,,,,,,,,,,,,,,,,,,,,,,,
0.0,1.0,0.668785,0.0,35.0,35.0,35.0,1.0,marker_05s.jpg,0.0,clock_6_6.png,6.0,21,,,,,,,,,,,,,,,,,,,,,,,,,,,,,,,,
,,,,,,,,,1.0,,,21,1.0,1.0,1.68263,0.0,0.0,0.0,0.0,1.0,printer_09s.jpg,key_07s.jpg,,,,,,,,,,,,,,,,,,,,,,
,,,,,,,,,1.0,,,21,1.0,1.0,1.3606,0.0,1.0,1.0,1.0,1.0,koala_13s.jpg,jigsaw_puzzle_11s.jpg,,,,,,,,,,,,,,,,,,,,,,
,,,,,,,,,0.0,,,21,0.0,1.0,1.140245,0.0,2.0,2.0,2.0,1.0,spider_web_03s.jpg,typewriter_11s.jpg,,,,,,,,,,,,,,,,,,,,,,
,,,,,,,,,0.0,,,21,1.0,0.0,0.951715,0.0,3.0,3.0,3.0,1.0,mosquito_12s.jpg,hydrant_10s.jpg,,,,,,,,,,,,,,,,,,,,,,
,,,,,,,,,0.0,,,21,1.0,0.0,1.295775,0.0,4.0,4.0,4.0,1.0,tape_06s.jpg,rope_16s.jpg,,,,,,,,,,,,,,,,,,,,,,
,,,,,,,,,0.0,,,21,1.0,0.0,1.954445,0.0,5.0,5.0,5.0,1.0,jewel_01b.jpg,bolo_tie_08s.jpg,,,,,,,,,,,,,,,,,,,,,,
,,,,,,,,,,,,21,,,,,,,,,,,0.0,2.0,2.0,2.0,1.0,clock_present_3_16.xlsx,clock_compare_task_3_16.xlsx,,,,,,,,,,,,,,,
0.0,1.0,0.741335,0.0,0.0,0.0,0.0,1.0,mud_13s.jpg,0.0,clock_5_1.png,1.0,21,,,,,,,,,,,,,,,,,,,,,,,,,,,,,,,,
0.0,1.0,0.453455,0.0,1.0,1.0,1.0,1.0,mannequin_05s.jpg,0.0,clock_5_2.png,1.0,21,,,,,,,,,,,,,,,,,,,,,,,,,,,,,,,,
0.0,1.0,0.529065,0.0,2.0,2.0,2.0,1.0,turtleneck_11s.jpg,0.0,clock_5_3.png,1.0,21,,,,,,,,,,,,,,,,,,,,,,,,,,,,,,,,
0.0,1.0,0.54105,0.0,3.0,3.0,3.0,1.0,umbrella_15s.jpg,0.0,clock_5_4.png,1.0,21,,,,,,,,,,,,,,,,,,,,,,,,,,,,,,,,
0.0,0.0,0.517455,0.0,4.0,4.0,4.0,1.0,mannequin_05s.jpg,1.0,clock_5_5.png,1.0,21,,,,,,,,,,,,,,,,,,,,,,,,,,,,,,,,
0.0,1.0,0.54371,0.0,5.0,5.0,5.0,1.0,quad_04s.jpg,0.0,clock_7_1.png,2.0,21,,,,,,,,,,,,,,,,,,,,,,,,,,,,,,,,
0.0,1.0,0.48264,0.0,6.0,6.0,6.0,1.0,inhaler_01b.jpg,0.0,clock_7_2.png,2.0,21,,,,,,,,,,,,,,,,,,,,,,,,,,,,,,,,
0.0,1.0,0.480865,0.0,7.0,7.0,7.0,1.0,lollipop_08s.jpg,0.0,clock_7_3.png,2.0,21,,,,,,,,,,,,,,,,,,,,,,,,,,,,,,,,
0.0,1.0,0.54555,0.0,8.0,8.0,8.0,1.0,rocket_02s.jpg,0.0,clock_7_4.png,2.0,21,,,,,,,,,,,,,,,,,,,,,,,,,,,,,,,,
0.0,1.0,1.221875,0.0,9.0,9.0,9.0,1.0,spacesuit_02s.jpg,0.0,clock_7_5.png,2.0,21,,,,,,,,,,,,,,,,,,,,,,,,,,,,,,,,
0.0,1.0,0.621235,0.0,10.0,10.0,10.0,1.0,quesadilla_07s.jpg,0.0,clock_7_6.png,2.0,21,,,,,,,,,,,,,,,,,,,,,,,,,,,,,,,,
0.0,1.0,0.49902,0.0,11.0,11.0,11.0,1.0,punch1_10s.jpg,0.0,clock_7_7.png,2.0,21,,,,,,,,,,,,,,,,,,,,,,,,,,,,,,,,
0.0,1.0,0.505095,0.0,12.0,12.0,12.0,1.0,swimming_pool_17s.jpg,0.0,clock_5_1.png,3.0,21,,,,,,,,,,,,,,,,,,,,,,,,,,,,,,,,
0.0,1.0,0.479555,0.0,13.0,13.0,13.0,1.0,espresso_01b.jpg,0.0,clock_5_2.png,3.0,21,,,,,,,,,,,,,,,,,,,,,,,,,,,,,,,,
0.0,1.0,0.45928,0.0,14.0,14.0,14.0,1.0,torch_02s.jpg,0.0,clock_5_3.png,3.0,21,,,,,,,,,,,,,,,,,,,,,,,,,,,,,,,,
0.0,1.0,0.90568,0.0,15.0,15.0,15.0,1.0,spacesuit_02s.jpg,0.0,clock_5_4.png,3.0,21,,,,,,,,,,,,,,,,,,,,,,,,,,,,,,,,
0.0,1.0,0.522535,0.0,16.0,16.0,16.0,1.0,pipe1_10s.jpg,0.0,clock_5_5.png,3.0,21,,,,,,,,,,,,,,,,,,,,,,,,,,,,,,,,
0.0,1.0,0.63061,0.0,17.0,17.0,17.0,1.0,hummingbird_05s.jpg,0.0,clock_6_1.png,4.0,21,,,,,,,,,,,,,,,,,,,,,,,,,,,,,,,,
0.0,1.0,0.964435,0.0,18.0,18.0,18.0,1.0,scooter.jpg,0.0,clock_6_2.png,4.0,21,,,,,,,,,,,,,,,,,,,,,,,,,,,,,,,,
0.0,1.0,0.677365,0.0,19.0,19.0,19.0,1.0,sunglasses_11s.jpg,0.0,clock_6_3.png,4.0,21,,,,,,,,,,,,,,,,,,,,,,,,,,,,,,,,
1.0,1.0,1.107505,0.0,20.0,20.0,20.0,1.0,hummingbird_05s.jpg,1.0,clock_6_4.png,4.0,21,,,,,,,,,,,,,,,,,,,,,,,,,,,,,,,,
0.0,1.0,0.466885,0.0,21.0,21.0,21.0,1.0,ice-cream_cone_06s.jpg,0.0,clock_6_5.png,4.0,21,,,,,,,,,,,,,,,,,,,,,,,,,,,,,,,,
0.0,1.0,0.97217,0.0,22.0,22.0,22.0,1.0,ink_08s.jpg,0.0,clock_6_6.png,4.0,21,,,,,,,,,,,,,,,,,,,,,,,,,,,,,,,,
0.0,1.0,1.81269,0.0,23.0,23.0,23.0,1.0,butter_14s.jpg,0.0,clock_6_1.png,5.0,21,,,,,,,,,,,,,,,,,,,,,,,,,,,,,,,,
0.0,1.0,0.471375,0.0,24.0,24.0,24.0,1.0,ink_08s.jpg,0.0,clock_6_2.png,5.0,21,,,,,,,,,,,,,,,,,,,,,,,,,,,,,,,,
0.0,1.0,0.76118,0.0,25.0,25.0,25.0,1.0,foam_03s.jpg,0.0,clock_6_3.png,5.0,21,,,,,,,,,,,,,,,,,,,,,,,,,,,,,,,,
0.0,1.0,0.56272,0.0,26.0,26.0,26.0,1.0,lava_02s.jpg,0.0,clock_6_4.png,5.0,21,,,,,,,,,,,,,,,,,,,,,,,,,,,,,,,,
0.0,1.0,0.568025,0.0,27.0,27.0,27.0,1.0,rudder_02s.jpg,0.0,clock_6_5.png,5.0,21,,,,,,,,,,,,,,,,,,,,,,,,,,,,,,,,
0.0,1.0,0.554475,0.0,28.0,28.0,28.0,1.0,tab_09s.jpg,0.0,clock_6_6.png,5.0,21,,,,,,,,,,,,,,,,,,,,,,,,,,,,,,,,
0.0,1.0,0.57875,0.0,29.0,29.0,29.0,1.0,lemonade_04s.jpg,0.0,clock_7_1.png,6.0,21,,,,,,,,,,,,,,,,,,,,,,,,,,,,,,,,
0.0,1.0,0.48367,0.0,30.0,30.0,30.0,1.0,lollipop_08s.jpg,0.0,clock_7_2.png,6.0,21,,,,,,,,,,,,,,,,,,,,,,,,,,,,,,,,
0.0,1.0,0.43191,0.0,31.0,31.0,31.0,1.0,teabag_12s.jpg,0.0,clock_7_3.png,6.0,21,,,,,,,,,,,,,,,,,,,,,,,,,,,,,,,,
0.0,1.0,1.050005,0.0,32.0,32.0,32.0,1.0,sunglasses_11s.jpg,0.0,clock_7_4.png,6.0,21,,,,,,,,,,,,,,,,,,,,,,,,,,,,,,,,
0.0,0.0,0.51352,0.0,33.0,33.0,33.0,1.0,lemonade_04s.jpg,1.0,clock_7_5.png,6.0,21,,,,,,,,,,,,,,,,,,,,,,,,,,,,,,,,
0.0,1.0,0.57848,0.0,34.0,34.0,34.0,1.0,fire_pit_10s.jpg,0.0,clock_7_6.png,6.0,21,,,,,,,,,,,,,,,,,,,,,,,,,,,,,,,,
0.0,1.0,0.56199,0.0,35.0,35.0,35.0,1.0,crayon_09s.jpg,0.0,clock_7_7.png,6.0,21,,,,,,,,,,,,,,,,,,,,,,,,,,,,,,,,
,,,,,,,,,0.0,,,21,0.0,1.0,2.35556,0.0,0.0,0.0,0.0,1.0,quad_04s.jpg,turtleneck_11s.jpg,,,,,,,,,,,,,,,,,,,,,,
,,,,,,,,,1.0,,,21,0.0,0.0,1.35362,0.0,1.0,1.0,1.0,1.0,umbrella_15s.jpg,inhaler_01b.jpg,,,,,,,,,,,,,,,,,,,,,,
,,,,,,,,,1.0,,,21,1.0,1.0,2.015335,0.0,2.0,2.0,2.0,1.0,quesadilla_07s.jpg,espresso_01b.jpg,,,,,,,,,,,,,,,,,,,,,,
,,,,,,,,,1.0,,,21,0.0,0.0,1.30499,0.0,3.0,3.0,3.0,1.0,scooter.jpg,ice-cream_cone_06s.jpg,,,,,,,,,,,,,,,,,,,,,,
,,,,,,,,,1.0,,,21,1.0,1.0,1.742655,0.0,4.0,4.0,4.0,1.0,butter_14s.jpg,lava_02s.jpg,,,,,,,,,,,,,,,,,,,,,,
,,,,,,,,,1.0,,,21,1.0,1.0,1.207725,0.0,5.0,5.0,5.0,1.0,rocket_02s.jpg,punch1_10s.jpg,,,,,,,,,,,,,,,,,,,,,,
,,,,,,,,,,,,21,,,,,,,,,,,0.0,3.0,3.0,3.0,1.0,clock_present_4_16.xlsx,clock_compare_task_4_16.xlsx,,,,,,,,,,,,,,,
0.0,1.0,1.662115,0.0,0.0,0.0,0.0,1.0,clover_04s.jpg,0.0,clock_6_1.png,1.0,21,,,,,,,,,,,,,,,,,,,,,,,,,,,,,,,,
0.0,1.0,0.37914,0.0,1.0,1.0,1.0,1.0,kayak_08s.jpg,0.0,clock_6_2.png,1.0,21,,,,,,,,,,,,,,,,,,,,,,,,,,,,,,,,
0.0,1.0,0.538485,0.0,2.0,2.0,2.0,1.0,toothpaste_12s.jpg,0.0,clock_6_3.png,1.0,21,,,,,,,,,,,,,,,,,,,,,,,,,,,,,,,,
1.0,1.0,1.717395,0.0,3.0,3.0,3.0,1.0,kayak_08s.jpg,1.0,clock_6_4.png,1.0,21,,,,,,,,,,,,,,,,,,,,,,,,,,,,,,,,
1.0,1.0,1.493465,0.0,4.0,4.0,4.0,1.0,clover_04s.jpg,1.0,clock_6_5.png,1.0,21,,,,,,,,,,,,,,,,,,,,,,,,,,,,,,,,
0.0,1.0,0.544525,0.0,5.0,5.0,5.0,1.0,bonsai_07s.jpg,0.0,clock_6_6.png,1.0,21,,,,,,,,,,,,,,,,,,,,,,,,,,,,,,,,
0.0,1.0,0.51394,0.0,6.0,6.0,6.0,1.0,comic_book_02s.jpg,0.0,clock_5_1.png,2.0,21,,,,,,,,,,,,,,,,,,,,,,,,,,,,,,,,
0.0,1.0,0.582435,0.0,7.0,7.0,7.0,1.0,penlight_12s.jpg,0.0,clock_5_2.png,2.0,21,,,,,,,,,,,,,,,,,,,,,,,,,,,,,,,,
0.0,1.0,0.588815,0.0,8.0,8.0,8.0,1.0,emerald_02s.jpg,0.0,clock_5_3.png,2.0,21,,,,,,,,,,,,,,,,,,,,,,,,,,,,,,,,
0.0,1.0,1.171395,0.0,9.0,9.0,9.0,1.0,mussel_11s.jpg,0.0,clock_5_4.png,2.0,21,,,,,,,,,,,,,,,,,,,,,,,,,,,,,,,,
0.0,1.0,0.505085,0.0,10.0,10.0,10.0,1.0,rock_08s.jpg,0.0,clock_5_5.png,2.0,21,,,,,,,,,,,,,,,,,,,,,,,,,,,,,,,,
0.0,1.0,0.52216,0.0,11.0,11.0,11.0,1.0,toilet_paper_12s.jpg,0.0,clock_6_1.png,3.0,21,,,,,,,,,,,,,,,,,,,,,,,,,,,,,,,,
0.0,1.0,0.43644,0.0,12.0,12.0,12.0,1.0,microwave_02s.jpg,0.0,clock_6_2.png,3.0,21,,,,,,,,,,,,,,,,,,,,,,,,,,,,,,,,
1.0,1.0,1.48641,0.0,13.0,13.0,13.0,1.0,toilet_paper_12s.jpg,1.0,clock_6_3.png,3.0,21,,,,,,,,,,,,,,,,,,,,,,,,,,,,,,,,
0.0,1.0,0.628995,0.0,14.0,14.0,14.0,1.0,mattress_01s.jpg,0.0,clock_6_4.png,3.0,21,,,,,,,,,,,,,,,,,,,,,,,,,,,,,,,,
0.0,1.0,0.475755,0.0,15.0,15.0,15.0,1.0,cushion_08s.jpg,0.0,clock_6_5.png,3.0,21,,,,,,,,,,,,,,,,,,,,,,,,,,,,,,,,
0.0,1.0,0.548065,0.0,16.0,16.0,16.0,1.0,rhinoceros_02s.jpg,0.0,clock_6_6.png,3.0,21,,,,,,,,,,,,,,,,,,,,,,,,,,,,,,,,
0.0,1.0,0.84714,0.0,17.0,17.0,17.0,1.0,latte_06s.jpg,0.0,clock_5_1.png,4.0,21,,,,,,,,,,,,,,,,,,,,,,,,,,,,,,,,
0.0,1.0,0.534535,0.0,18.0,18.0,18.0,1.0,projector_08s.jpg,0.0,clock_5_2.png,4.0,21,,,,,,,,,,,,,,,,,,,,,,,,,,,,,,,,
0.0,1.0,0.43418,0.0,19.0,19.0,19.0,1.0,rollerskate_03s.jpg,0.0,clock_5_3.png,4.0,21,,,,,,,,,,,,,,,,,,,,,,,,,,,,,,,,
0.0,0.0,0.61655,0.0,20.0,20.0,20.0,1.0,latte_06s.jpg,1.0,clock_5_4.png,4.0,21,,,,,,,,,,,,,,,,,,,,,,,,,,,,,,,,
0.0,1.0,0.8691,0.0,21.0,21.0,21.0,1.0,pincushion_10s.jpg,0.0,clock_5_5.png,4.0,21,,,,,,,,,,,,,,,,,,,,,,,,,,,,,,,,
0.0,1.0,0.49543,0.0,22.0,22.0,22.0,1.0,tuba_12s.jpg,0.0,clock_7_1.png,5.0,21,,,,,,,,,,,,,,,,,,,,,,,,,,,,,,,,
0.0,1.0,0.548835,0.0,23.0,23.0,23.0,1.0,cucumber_07s.jpg,0.0,clock_7_2.png,5.0,21,,,,,,,,,,,,,,,,,,,,,,,,,,,,,,,,
0.0,1.0,0.61341,0.0,24.0,24.0,24.0,1.0,treasure_08s.jpg,0.0,clock_7_3.png,5.0,21,,,,,,,,,,,,,,,,,,,,,,,,,,,,,,,,
1.0,1.0,1.05849,0.0,25.0,25.0,25.0,1.0,cucumber_07s.jpg,1.0,clock_7_4.png,5.0,21,,,,,,,,,,,,,,,,,,,,,,,,,,,,,,,,
0.0,1.0,0.599895,0.0,26.0,26.0,26.0,1.0,razor_12s.jpg,0.0,clock_7_5.png,5.0,21,,,,,,,,,,,,,,,,,,,,,,,,,,,,,,,,
0.0,1.0,0.63163,0.0,27.0,27.0,27.0,1.0,sunflower_17s.jpg,0.0,clock_7_6.png,5.0,21,,,,,,,,,,,,,,,,,,,,,,,,,,,,,,,,
0.0,1.0,0.599205,0.0,28.0,28.0,28.0,1.0,basket_05s.jpg,0.0,clock_7_7.png,5.0,21,,,,,,,,,,,,,,,,,,,,,,,,,,,,,,,,
0.0,1.0,0.713225,0.0,29.0,29.0,29.0,1.0,breadstick_08s.jpg,0.0,clock_7_1.png,6.0,21,,,,,,,,,,,,,,,,,,,,,,,,,,,,,,,,
1.0,1.0,1.66794,0.0,30.0,30.0,30.0,1.0,breadstick_08s.jpg,1.0,clock_7_2.png,6.0,21,,,,,,,,,,,,,,,,,,,,,,,,,,,,,,,,
1.0,1.0,1.199235,0.0,31.0,31.0,31.0,1.0,breadstick_08s.jpg,1.0,clock_7_3.png,6.0,21,,,,,,,,,,,,,,,,,,,,,,,,,,,,,,,,
0.0,1.0,0.52874,0.0,32.0,32.0,32.0,1.0,gingerbread_man_03s.jpg,0.0,clock_7_4.png,6.0,21,,,,,,,,,,,,,,,,,,,,,,,,,,,,,,,,
0.0,1.0,0.80656,0.0,33.0,33.0,33.0,1.0,laser_pointer_02s.jpg,0.0,clock_7_5.png,6.0,21,,,,,,,,,,,,,,,,,,,,,,,,,,,,,,,,
0.0,1.0,0.635555,0.0,34.0,34.0,34.0,1.0,marshmallow_08s.jpg,0.0,clock_7_6.png,6.0,21,,,,,,,,,,,,,,,,,,,,,,,,,,,,,,,,
0.0,0.0,1.57359,0.0,35.0,35.0,35.0,1.0,breadstick_08s.jpg,1.0,clock_7_7.png,6.0,21,,,,,,,,,,,,,,,,,,,,,,,,,,,,,,,,
,,,,,,,,,1.0,,,21,0.0,0.0,3.116785,0.0,0.0,0.0,0.0,1.0,rhinoceros_02s.jpg,rollerskate_03s.jpg,,,,,,,,,,,,,,,,,,,,,,
,,,,,,,,,0.0,,,21,0.0,1.0,1.42831,0.0,1.0,1.0,1.0,1.0,emerald_02s.jpg,bonsai_07s.jpg,,,,,,,,,,,,,,,,,,,,,,
,,,,,,,,,0.0,,,21,0.0,1.0,1.185855,0.0,2.0,2.0,2.0,1.0,microwave_02s.jpg,mussel_11s.jpg,,,,,,,,,,,,,,,,,,,,,,
,,,,,,,,,0.0,,,21,1.0,0.0,1.28677,0.0,3.0,3.0,3.0,1.0,rock_08s.jpg,penlight_12s.jpg,,,,,,,,,,,,,,,,,,,,,,
,,,,,,,,,1.0,,,21,1.0,1.0,1.38704,0.0,4.0,4.0,4.0,1.0,treasure_08s.jpg,sunflower_17s.jpg,,,,,,,,,,,,,,,,,,,,,,
,,,,,,,,,1.0,,,21,0.0,0.0,1.306755,0.0,5.0,5.0,5.0,1.0,projector_08s.jpg,pincushion_10s.jpg,,,,,,,,,,,,,,,,,,,,,,
,,,,,,,,,,,,21,,,,,,,,,,,0.0,4.0,4.0,4.0,1.0,clock_present_5_16.xlsx,clock_compare_task_5_16.xlsx,,,,,,,,,,,,,,,
0.0,1.0,0.7006,0.0,0.0,0.0,0.0,1.0,buoy_04s.jpg,0.0,clock_5_1.png,1.0,21,,,,,,,,,,,,,,,,,,,,,,,,,,,,,,,,
0.0,1.0,0.52275,0.0,1.0,1.0,1.0,1.0,punch2_09s.jpg,0.0,clock_5_2.png,1.0,21,,,,,,,,,,,,,,,,,,,,,,,,,,,,,,,,
0.0,1.0,0.587095,0.0,2.0,2.0,2.0,1.0,rosary_03s.jpg,0.0,clock_5_3.png,1.0,21,,,,,,,,,,,,,,,,,,,,,,,,,,,,,,,,
0.0,1.0,0.566485,0.0,3.0,3.0,3.0,1.0,toad_09s.jpg,0.0,clock_5_4.png,1.0,21,,,,,,,,,,,,,,,,,,,,,,,,,,,,,,,,
0.0,1.0,0.574495,0.0,4.0,4.0,4.0,1.0,lab_coat_11s.jpg,0.0,clock_5_5.png,1.0,21,,,,,,,,,,,,,,,,,,,,,,,,,,,,,,,,
0.0,1.0,0.498775,0.0,5.0,5.0,5.0,1.0,swing_set_15s.jpg,0.0,clock_5_1.png,2.0,21,,,,,,,,,,,,,,,,,,,,,,,,,,,,,,,,
1.0,1.0,2.007545,0.0,6.0,6.0,6.0,1.0,swing_set_15s.jpg,1.0,clock_5_2.png,2.0,21,,,,,,,,,,,,,,,,,,,,,,,,,,,,,,,,
1.0,1.0,1.74446,0.0,7.0,7.0,7.0,1.0,swing_set_15s.jpg,1.0,clock_5_3.png,2.0,21,,,,,,,,,,,,,,,,,,,,,,,,,,,,,,,,
1.0,1.0,1.070455,0.0,8.0,8.0,8.0,1.0,swing_set_15s.jpg,1.0,clock_5_4.png,2.0,21,,,,,,,,,,,,,,,,,,,,,,,,,,,,,,,,
0.0,1.0,0.432175,0.0,9.0,9.0,9.0,1.0,tennis_ball_06s.jpg,0.0,clock_5_5.png,2.0,21,,,,,,,,,,,,,,,,,,,,,,,,,,,,,,,,
0.0,1.0,0.520705,0.0,10.0,10.0,10.0,1.0,powder_07s.jpg,0.0,clock_6_1.png,3.0,21,,,,,,,,,,,,,,,,,,,,,,,,,,,,,,,,
0.0,1.0,0.470345,0.0,11.0,11.0,11.0,1.0,tattoo_14s.jpg,0.0,clock_6_2.png,3.0,21,,,,,,,,,,,,,,,,,,,,,,,,,,,,,,,,
0.0,1.0,0.487315,0.0,12.0,12.0,12.0,1.0,cape_11s.jpg,0.0,clock_6_3.png,3.0,21,,,,,,,,,,,,,,,,,,,,,,,,,,,,,,,,
0.0,1.0,0.427695,0.0,13.0,13.0,13.0,1.0,turnstile_08s.jpg,0.0,clock_6_4.png,3.0,21,,,,,,,,,,,,,,,,,,,,,,,,,,,,,,,,
1.0,1.0,1.10358,0.0,14.0,14.0,14.0,1.0,cape_11s.jpg,1.0,clock_6_5.png,3.0,21,,,,,,,,,,,,,,,,,,,,,,,,,,,,,,,,
0.0,1.0,0.743595,0.0,15.0,15.0,15.0,1.0,loveseat_08s.jpg,0.0,clock_6_6.png,3.0,21,,,,,,,,,,,,,,,,,,,,,,,,,,,,,,,,
0.0,1.0,0.701835,0.0,16.0,16.0,16.0,1.0,swan_11s.jpg,0.0,clock_6_1.png,4.0,21,,,,,,,,,,,,,,,,,,,,,,,,,,,,,,,,
0.0,1.0,0.8133,0.0,17.0,17.0,17.0,1.0,totem_pole_05s.jpg,0.0,clock_6_2.png,4.0,21,,,,,,,,,,,,,,,,,,,,,,,,,,,,,,,,
0.0,1.0,0.8821,0.0,18.0,18.0,18.0,1.0,lip_gloss_06s.jpg,0.0,clock_6_3.png,4.0,21,,,,,,,,,,,,,,,,,,,,,,,,,,,,,,,,
0.0,1.0,1.87104,0.0,19.0,19.0,19.0,1.0,toad_09s.jpg,0.0,clock_6_4.png,4.0,21,,,,,,,,,,,,,,,,,,,,,,,,,,,,,,,,
0.0,1.0,0.58545,0.0,20.0,20.0,20.0,1.0,ring_03s.jpg,0.0,clock_6_5.png,4.0,21,,,,,,,,,,,,,,,,,,,,,,,,,,,,,,,,
0.0,1.0,1.025195,0.0,21.0,21.0,21.0,1.0,powder_07s.jpg,0.0,clock_6_6.png,4.0,21,,,,,,,,,,,,,,,,,,,,,,,,,,,,,,,,
0.0,1.0,1.420915,0.0,22.0,22.0,22.0,1.0,taxi_15s.jpg,0.0,clock_7_1.png,5.0,21,,,,,,,,,,,,,,,,,,,,,,,,,,,,,,,,
1.0,1.0,1.29989,0.0,23.0,23.0,23.0,1.0,taxi_15s.jpg,1.0,clock_7_2.png,5.0,21,,,,,,,,,,,,,,,,,,,,,,,,,,,,,,,,
0.0,1.0,0.78992,0.0,24.0,24.0,24.0,1.0,gazelle_10s.jpg,0.0,clock_7_3.png,5.0,21,,,,,,,,,,,,,,,,,,,,,,,,,,,,,,,,
0.0,1.0,0.692335,0.0,25.0,25.0,25.0,1.0,thumbtack_14s.jpg,0.0,clock_7_4.png,5.0,21,,,,,,,,,,,,,,,,,,,,,,,,,,,,,,,,
0.0,1.0,0.696825,0.0,26.0,26.0,26.0,1.0,hyena_16s.jpg,0.0,clock_7_5.png,5.0,21,,,,,,,,,,,,,,,,,,,,,,,,,,,,,,,,
0.0,1.0,0.548565,0.0,27.0,27.0,27.0,1.0,badge_03s.jpg,0.0,clock_7_6.png,5.0,21,,,,,,,,,,,,,,,,,,,,,,,,,,,,,,,,
0.0,1.0,0.5293,0.0,28.0,28.0,28.0,1.0,blazer_02s.jpg,0.0,clock_7_7.png,5.0,21,,,,,,,,,,,,,,,,,,,,,,,,,,,,,,,,
0.0,1.0,0.590195,0.0,29.0,29.0,29.0,1.0,blowfish_03s.jpg,0.0,clock_7_1.png,6.0,21,,,,,,,,,,,,,,,,,,,,,,,,,,,,,,,,
0.0,1.0,0.63639,0.0,30.0,30.0,30.0,1.0,licorice_06s.jpg,0.0,clock_7_2.png,6.0,21,,,,,,,,,,,,,,,,,,,,,,,,,,,,,,,,
0.0,1.0,0.563915,0.0,31.0,31.0,31.0,1.0,checkbook_11s.jpg,0.0,clock_7_3.png,6.0,21,,,,,,,,,,,,,,,,,,,,,,,,,,,,,,,,
0.0,1.0,0.616225,0.0,32.0,32.0,32.0,1.0,reindeer_08s.jpg,0.0,clock_7_4.png,6.0,21,,,,,,,,,,,,,,,,,,,,,,,,,,,,,,,,
0.0,1.0,0.702695,0.0,33.0,33.0,33.0,1.0,doily_13s.jpg,0.0,clock_7_5.png,6.0,21,,,,,,,,,,,,,,,,,,,,,,,,,,,,,,,,
0.0,1.0,0.515455,0.0,34.0,34.0,34.0,1.0,possum_09s.jpg,0.0,clock_7_6.png,6.0,21,,,,,,,,,,,,,,,,,,,,,,,,,,,,,,,,
0.0,1.0,0.67906,0.0,35.0,35.0,35.0,1.0,keyboard_05s.jpg,0.0,clock_7_7.png,6.0,21,,,,,,,,,,,,,,,,,,,,,,,,,,,,,,,,
,,,,,,,,,1.0,,,21,0.0,0.0,1.52491,0.0,0.0,0.0,0.0,1.0,turnstile_08s.jpg,swan_11s.jpg,,,,,,,,,,,,,,,,,,,,,,
,,,,,,,,,1.0,,,21,1.0,1.0,1.2687,0.0,1.0,1.0,1.0,1.0,loveseat_08s.jpg,lip_gloss_06s.jpg,,,,,,,,,,,,,,,,,,,,,,
,,,,,,,,,1.0,,,21,1.0,1.0,1.796225,0.0,2.0,2.0,2.0,1.0,hyena_16s.jpg,blowfish_03s.jpg,,,,,,,,,,,,,,,,,,,,,,
,,,,,,,,,0.0,,,21,1.0,0.0,0.8755,0.0,3.0,3.0,3.0,1.0,lab_coat_11s.jpg,punch2_09s.jpg,,,,,,,,,,,,,,,,,,,,,,
,,,,,,,,,0.0,,,21,0.0,1.0,1.75428,0.0,4.0,4.0,4.0,1.0,ring_03s.jpg,totem_pole_05s.jpg,,,,,,,,,,,,,,,,,,,,,,
,,,,,,,,,0.0,,,21,1.0,0.0,1.556275,0.0,5.0,5.0,5.0,1.0,keyboard_05s.jpg,reindeer_08s.jpg,,,,,,,,,,,,,,,,,,,,,,
0.0,1.0,1.8893,,,,,,tube_top_03s.jpg,0.0,clockno_up.jpg,1.0,21,,,,,,,,,,,,,,,,,,0.0,0.0,0.0,0.0,1.0,,,,,,,,,,
1.0,1.0,0.99867,,,,,,tube_top_03s.jpg,1.0,clockno_default.jpg,1.0,21,,,,,,,,,,,,,,,,,,0.0,1.0,1.0,1.0,1.0,,,,,,,,,,
0.0,1.0,0.469075,,,,,,piggy_bank_02s.jpg,0.0,clockno_default.jpg,1.0,21,,,,,,,,,,,,,,,,,,0.0,2.0,2.0,2.0,1.0,,,,,,,,,,
0.0,1.0,0.7415,,,,,,peach_04s.jpg,0.0,clockno_default.jpg,1.0,21,,,,,,,,,,,,,,,,,,0.0,3.0,3.0,3.0,1.0,,,,,,,,,,
0.0,1.0,0.50114,,,,,,petri_dish_12s.jpg,0.0,clockno_default.jpg,1.0,21,,,,,,,,,,,,,,,,,,0.0,4.0,4.0,4.0,1.0,,,,,,,,,,
0.0,1.0,1.44807,,,,,,memory_stick_11s.jpg,0.0,clockno_default.jpg,1.0,21,,,,,,,,,,,,,,,,,,0.0,5.0,5.0,5.0,1.0,,,,,,,,,,
1.0,1.0,1.77279,,,,,,piggy_bank_02s.jpg,1.0,clockno_default.jpg,1.0,21,,,,,,,,,,,,,,,,,,0.0,6.0,6.0,6.0,1.0,,,,,,,,,,
0.0,1.0,0.82771,,,,,,tweezers_03s.jpg,0.0,clockno_up.jpg,2.0,21,,,,,,,,,,,,,,,,,,0.0,7.0,7.0,7.0,1.0,,,,,,,,,,
0.0,1.0,1.04712,,,,,,coffee_filter_10s.jpg,0.0,clockno_default.jpg,2.0,21,,,,,,,,,,,,,,,,,,0.0,8.0,8.0,8.0,1.0,,,,,,,,,,
0.0,1.0,0.50348,,,,,,tambourine_06s.jpg,0.0,clockno_default.jpg,2.0,21,,,,,,,,,,,,,,,,,,0.0,9.0,9.0,9.0,1.0,,,,,,,,,,
0.0,1.0,1.29488,,,,,,ukulele_02s.jpg,0.0,clockno_default.jpg,2.0,21,,,,,,,,,,,,,,,,,,0.0,10.0,10.0,10.0,1.0,,,,,,,,,,
0.0,1.0,1.42203,,,,,,towel_rack_04s.jpg,0.0,clockno_default.jpg,2.0,21,,,,,,,,,,,,,,,,,,0.0,11.0,11.0,11.0,1.0,,,,,,,,,,
0.0,1.0,0.788065,,,,,,ravioli_08s.jpg,0.0,clockno_up.jpg,3.0,21,,,,,,,,,,,,,,,,,,0.0,12.0,12.0,12.0,1.0,,,,,,,,,,
,0.0,,,,,,,ravioli_08s.jpg,1.0,clockno_default.jpg,3.0,21,,,,,,,,,,,,,,,,,,0.0,13.0,13.0,13.0,1.0,,,,,,,,,,
0.0,1.0,1.487985,,,,,,peanut_butter_08s.jpg,0.0,clockno_default.jpg,3.0,21,,,,,,,,,,,,,,,,,,0.0,14.0,14.0,14.0,1.0,,,,,,,,,,
0.0,1.0,0.76046,,,,,,sledgehammer_03s.jpg,0.0,clockno_default.jpg,3.0,21,,,,,,,,,,,,,,,,,,0.0,15.0,15.0,15.0,1.0,,,,,,,,,,
0.0,1.0,1.150695,,,,,,syringe_02s.jpg,0.0,clockno_default.jpg,3.0,21,,,,,,,,,,,,,,,,,,0.0,16.0,16.0,16.0,1.0,,,,,,,,,,
0.0,1.0,0.585905,,,,,,quilt_03s.jpg,0.0,clockno_default.jpg,3.0,21,,,,,,,,,,,,,,,,,,0.0,17.0,17.0,17.0,1.0,,,,,,,,,,
0.0,0.0,1.73561,,,,,,syringe_02s.jpg,1.0,clockno_default.jpg,3.0,21,,,,,,,,,,,,,,,,,,0.0,18.0,18.0,18.0,1.0,,,,,,,,,,
0.0,1.0,0.746745,,,,,,radiator_05s.jpg,0.0,clockno_up.jpg,4.0,21,,,,,,,,,,,,,,,,,,0.0,19.0,19.0,19.0,1.0,,,,,,,,,,
0.0,1.0,0.63272,,,,,,jelly_bean_06s.jpg,0.0,clockno_default.jpg,4.0,21,,,,,,,,,,,,,,,,,,0.0,20.0,20.0,20.0,1.0,,,,,,,,,,
0.0,1.0,0.464425,,,,,,top_hat_11s.jpg,0.0,clockno_default.jpg,4.0,21,,,,,,,,,,,,,,,,,,0.0,21.0,21.0,21.0,1.0,,,,,,,,,,
0.0,0.0,0.617495,,,,,,radiator_05s.jpg,1.0,clockno_default.jpg,4.0,21,,,,,,,,,,,,,,,,,,0.0,22.0,22.0,22.0,1.0,,,,,,,,,,
0.0,1.0,0.577965,,,,,,contact_lens_15s.jpg,0.0,clockno_default.jpg,4.0,21,,,,,,,,,,,,,,,,,,0.0,23.0,23.0,23.0,1.0,,,,,,,,,,
0.0,1.0,0.54953,,,,,,rake_06s.jpg,0.0,clockno_default.jpg,4.0,21,,,,,,,,,,,,,,,,,,0.0,24.0,24.0,24.0,1.0,,,,,,,,,,
0.0,1.0,0.769765,,,,,,surfboard_11s.jpg,0.0,clockno_up.jpg,5.0,21,,,,,,,,,,,,,,,,,,0.0,25.0,25.0,25.0,1.0,,,,,,,,,,
0.0,1.0,0.56601,,,,,,toy_04s.jpg,0.0,clockno_default.jpg,5.0,21,,,,,,,,,,,,,,,,,,0.0,26.0,26.0,26.0,1.0,,,,,,,,,,
0.0,1.0,0.852815,,,,,,raccoon_02s.jpg,0.0,clockno_default.jpg,5.0,21,,,,,,,,,,,,,,,,,,0.0,27.0,27.0,27.0,1.0,,,,,,,,,,
0.0,1.0,0.83688,,,,,,phone_01b.jpg,0.0,clockno_default.jpg,5.0,21,,,,,,,,,,,,,,,,,,0.0,28.0,28.0,28.0,1.0,,,,,,,,,,
0.0,1.0,0.79738,,,,,,ukulele_02s.jpg,0.0,clockno_default.jpg,5.0,21,,,,,,,,,,,,,,,,,,0.0,29.0,29.0,29.0,1.0,,,,,,,,,,
0.0,1.0,0.563535,,,,,,raft_09s.jpg,0.0,clockno_default.jpg,5.0,21,,,,,,,,,,,,,,,,,,0.0,30.0,30.0,30.0,1.0,,,,,,,,,,
0.0,1.0,0.448195,,,,,,kettle_08s.jpg,0.0,clockno_up.jpg,6.0,21,,,,,,,,,,,,,,,,,,0.0,31.0,31.0,31.0,1.0,,,,,,,,,,
1.0,0.0,1.939005,,,,,,target_11s.jpg,0.0,clockno_default.jpg,6.0,21,,,,,,,,,,,,,,,,,,0.0,32.0,32.0,32.0,1.0,,,,,,,,,,
0.0,1.0,0.51457,,,,,,icicle_04s.jpg,0.0,clockno_default.jpg,6.0,21,,,,,,,,,,,,,,,,,,0.0,33.0,33.0,33.0,1.0,,,,,,,,,,
0.0,1.0,1.18228,,,,,,timer_03s.jpg,0.0,clockno_default.jpg,6.0,21,,,,,,,,,,,,,,,,,,0.0,34.0,34.0,34.0,1.0,,,,,,,,,,
1.0,1.0,1.624415,,,,,,timer_03s.jpg,1.0,clockno_default.jpg,6.0,21,,,,,,,,,,,,,,,,,,0.0,35.0,35.0,35.0,1.0,,,,,,,,,,
,,,,,,,,,0.0,,,21,0.0,1.0,3.36512,,,,,,tweezers_03s.jpg,petri_dish_12s.jpg,,,,,,,,,,,,,0.0,0.0,0.0,0.0,1.0,,,,,
,,,,,,,,,1.0,,,21,1.0,1.0,1.977585,,,,,,memory_stick_11s.jpg,coffee_filter_10s.jpg,,,,,,,,,,,,,0.0,1.0,1.0,1.0,1.0,,,,,
,,,,,,,,,0.0,,,21,0.0,1.0,2.128305,,,,,,toy_04s.jpg,contact_lens_15s.jpg,,,,,,,,,,,,,0.0,2.0,2.0,2.0,1.0,,,,,
,,,,,,,,,0.0,,,21,1.0,0.0,1.212555,,,,,,rake_06s.jpg,top_hat_11s.jpg,,,,,,,,,,,,,0.0,3.0,3.0,3.0,1.0,,,,,
,,,,,,,,,0.0,,,21,1.0,0.0,2.29782,,,,,,phone_01b.jpg,surfboard_11s.jpg,,,,,,,,,,,,,0.0,4.0,4.0,4.0,1.0,,,,,
,,,,,,,,,1.0,,,21,1.0,1.0,2.8769,,,,,,peanut_butter_08s.jpg,quilt_03s.jpg,,,,,,,,,,,,,0.0,5.0,5.0,5.0,1.0,,,,,
,,,,,,,,,,,,21,,,,,,,,,,,,,,,,clockno_present_1_16.xlsx,clockno_compare_task_1_16.xlsx,,,,,,,,,,,0.0,0.0,0.0,0.0,1.0
0.0,1.0,0.813765,,,,,,juicer2_06s.jpg,0.0,clockno_up.jpg,1.0,21,,,,,,,,,,,,,,,,,,0.0,0.0,0.0,0.0,1.0,,,,,,,,,,
0.0,1.0,0.479485,,,,,,potholder_02s.jpg,0.0,clockno_default.jpg,1.0,21,,,,,,,,,,,,,,,,,,0.0,1.0,1.0,1.0,1.0,,,,,,,,,,
0.0,1.0,0.66345,,,,,,pencil02a.jpg,0.0,clockno_default.jpg,1.0,21,,,,,,,,,,,,,,,,,,0.0,2.0,2.0,2.0,1.0,,,,,,,,,,
0.0,1.0,0.787135,,,,,,chopsticks_08s.jpg,0.0,clockno_default.jpg,1.0,21,,,,,,,,,,,,,,,,,,0.0,3.0,3.0,3.0,1.0,,,,,,,,,,
0.0,0.0,0.590585,,,,,,potholder_02s.jpg,1.0,clockno_default.jpg,1.0,21,,,,,,,,,,,,,,,,,,0.0,4.0,4.0,4.0,1.0,,,,,,,,,,
0.0,1.0,0.580935,,,,,,fondue_07s.jpg,0.0,clockno_up.jpg,2.0,21,,,,,,,,,,,,,,,,,,0.0,5.0,5.0,5.0,1.0,,,,,,,,,,
0.0,1.0,0.619035,,,,,,pillbox_04s.jpg,0.0,clockno_default.jpg,2.0,21,,,,,,,,,,,,,,,,,,0.0,6.0,6.0,6.0,1.0,,,,,,,,,,
0.0,1.0,0.603735,,,,,,pumpkin_03s.jpg,0.0,clockno_default.jpg,2.0,21,,,,,,,,,,,,,,,,,,0.0,7.0,7.0,7.0,1.0,,,,,,,,,,
0.0,1.0,0.411265,,,,,,cardinal_07s.jpg,0.0,clockno_default.jpg,2.0,21,,,,,,,,,,,,,,,,,,0.0,8.0,8.0,8.0,1.0,,,,,,,,,,
0.0,1.0,0.544625,,,,,,swordfish_05s.jpg,0.0,clockno_default.jpg,2.0,21,,,,,,,,,,,,,,,,,,0.0,9.0,9.0,9.0,1.0,,,,,,,,,,
0.0,1.0,0.620055,,,,,,turkey_10s.jpg,0.0,clockno_up.jpg,3.0,21,,,,,,,,,,,,,,,,,,0.0,10.0,10.0,10.0,1.0,,,,,,,,,,
0.0,1.0,0.47805,,,,,,road_sign_05s.jpg,0.0,clockno_default.jpg,3.0,21,,,,,,,,,,,,,,,,,,0.0,11.0,11.0,11.0,1.0,,,,,,,,,,
1.0,1.0,1.667235,,,,,,road_sign_05s.jpg,1.0,clockno_default.jpg,3.0,21,,,,,,,,,,,,,,,,,,0.0,12.0,12.0,12.0,1.0,,,,,,,,,,
0.0,1.0,0.479305,,,,,,rhubarb_03s.jpg,0.0,clockno_default.jpg,3.0,21,,,,,,,,,,,,,,,,,,0.0,13.0,13.0,13.0,1.0,,,,,,,,,,
0.0,1.0,0.49551,,,,,,ivy_12s.jpg,0.0,clockno_default.jpg,3.0,21,,,,,,,,,,,,,,,,,,0.0,14.0,14.0,14.0,1.0,,,,,,,,,,
0.0,1.0,0.50062,,,,,,boar_10s.jpg,0.0,clockno_default.jpg,3.0,21,,,,,,,,,,,,,,,,,,0.0,15.0,15.0,15.0,1.0,,,,,,,,,,
0.0,1.0,0.546305,,,,,,mango_09s.jpg,0.0,clockno_up.jpg,4.0,21,,,,,,,,,,,,,,,,,,0.0,16.0,16.0,16.0,1.0,,,,,,,,,,
0.0,1.0,0.528065,,,,,,feather02.jpg,0.0,clockno_default.jpg,4.0,21,,,,,,,,,,,,,,,,,,0.0,17.0,17.0,17.0,1.0,,,,,,,,,,
0.0,1.0,0.49678,,,,,,pumpkin_03s.jpg,0.0,clockno_default.jpg,4.0,21,,,,,,,,,,,,,,,,,,0.0,18.0,18.0,18.0,1.0,,,,,,,,,,
0.0,1.0,0.64123,,,,,,giraffe_11s.jpg,0.0,clockno_default.jpg,4.0,21,,,,,,,,,,,,,,,,,,0.0,19.0,19.0,19.0,1.0,,,,,,,,,,
0.0,1.0,0.437015,,,,,,meatball_13s.jpg,0.0,clockno_default.jpg,4.0,21,,,,,,,,,,,,,,,,,,0.0,20.0,20.0,20.0,1.0,,,,,,,,,,
1.0,0.0,2.259895,,,,,,turkey_10s.jpg,0.0,clockno_default.jpg,4.0,21,,,,,,,,,,,,,,,,,,0.0,21.0,21.0,21.0,1.0,,,,,,,,,,
0.0,1.0,0.543945,,,,,,stump_02s.jpg,0.0,clockno_up.jpg,5.0,21,,,,,,,,,,,,,,,,,,0.0,22.0,22.0,22.0,1.0,,,,,,,,,,
1.0,0.0,1.799795,,,,,,ostrich_06s.jpg,0.0,clockno_default.jpg,5.0,21,,,,,,,,,,,,,,,,,,0.0,23.0,23.0,23.0,1.0,,,,,,,,,,
0.0,1.0,0.59498,,,,,,amber_04s.jpg,0.0,clockno_default.jpg,5.0,21,,,,,,,,,,,,,,,,,,0.0,24.0,24.0,24.0,1.0,,,,,,,,,,
0.0,1.0,0.57036,,,,,,blender_08s.jpg,0.0,clockno_default.jpg,5.0,21,,,,,,,,,,,,,,,,,,0.0,25.0,25.0,25.0,1.0,,,,,,,,,,
0.0,1.0,0.712455,,,,,,trumpet_06s.jpg,0.0,clockno_default.jpg,5.0,21,,,,,,,,,,,,,,,,,,0.0,26.0,26.0,26.0,1.0,,,,,,,,,,
0.0,1.0,0.88209,,,,,,ivy_12s.jpg,0.0,clockno_default.jpg,5.0,21,,,,,,,,,,,,,,,,,,0.0,27.0,27.0,27.0,1.0,,,,,,,,,,
0.0,1.0,0.72863,,,,,,ironing_board_07s.jpg,0.0,clockno_default.jpg,5.0,21,,,,,,,,,,,,,,,,,,0.0,28.0,28.0,28.0,1.0,,,,,,,,,,
0.0,1.0,0.82965,,,,,,lavender_10s.jpg,0.0,clockno_up.jpg,6.0,21,,,,,,,,,,,,,,,,,,0.0,29.0,29.0,29.0,1.0,,,,,,,,,,
0.0,1.0,0.645645,,,,,,pea_11s.jpg,0.0,clockno_default.jpg,6.0,21,,,,,,,,,,,,,,,,,,0.0,30.0,30.0,30.0,1.0,,,,,,,,,,
0.0,1.0,0.62826,,,,,,sundae_08s.jpg,0.0,clockno_default.jpg,6.0,21,,,,,,,,,,,,,,,,,,0.0,31.0,31.0,31.0,1.0,,,,,,,,,,
0.0,1.0,0.901945,,,,,,champagne_18s.jpg,0.0,clockno_default.jpg,6.0,21,,,,,,,,,,,,,,,,,,0.0,32.0,32.0,32.0,1.0,,,,,,,,,,
0.0,1.0,1.10469,,,,,,turtle_08s.jpg,0.0,clockno_default.jpg,6.0,21,,,,,,,,,,,,,,,,,,0.0,33.0,33.0,33.0,1.0,,,,,,,,,,
0.0,1.0,0.666185,,,,,,gargoyle_08s.jpg,0.0,clockno_default.jpg,6.0,21,,,,,,,,,,,,,,,,,,0.0,34.0,34.0,34.0,1.0,,,,,,,,,,
0.0,1.0,0.732695,,,,,,crate_05s.jpg,0.0,clockno_default.jpg,6.0,21,,,,,,,,,,,,,,,,,,0.0,35.0,35.0,35.0,1.0,,,,,,,,,,
,,,,,,,,,1.0,,,21,0.0,0.0,1.615945,,,,,,pencil02a.jpg,fondue_07s.jpg,,,,,,,,,,,,,0.0,0.0,0.0,0.0,1.0,,,,,
,,,,,,,,,0.0,,,21,0.0,1.0,1.824475,,,,,,mango_09s.jpg,rhubarb_03s.jpg,,,,,,,,,,,,,0.0,1.0,1.0,1.0,1.0,,,,,
,,,,,,,,,1.0,,,21,1.0,1.0,1.777055,,,,,,chopsticks_08s.jpg,pillbox_04s.jpg,,,,,,,,,,,,,0.0,2.0,2.0,2.0,1.0,,,,,
,,,,,,,,,0.0,,,21,1.0,0.0,2.58161,,,,,,turtle_08s.jpg,pea_11s.jpg,,,,,,,,,,,,,0.0,3.0,3.0,3.0,1.0,,,,,
,,,,,,,,,0.0,,,21,1.0,0.0,1.88633,,,,,,crate_05s.jpg,champagne_18s.jpg,,,,,,,,,,,,,0.0,4.0,4.0,4.0,1.0,,,,,
,,,,,,,,,0.0,,,21,1.0,0.0,1.11968,,,,,,meatball_13s.jpg,feather02.jpg,,,,,,,,,,,,,0.0,5.0,5.0,5.0,1.0,,,,,
,,,,,,,,,,,,21,,,,,,,,,,,,,,,,clockno_present_2_16.xlsx,clockno_compare_task_2_16.xlsx,,,,,,,,,,,0.0,1.0,1.0,1.0,1.0
0.0,1.0,0.987585,,,,,,magnet_03s.jpg,0.0,clockno_up.jpg,1.0,21,,,,,,,,,,,,,,,,,,0.0,0.0,0.0,0.0,1.0,,,,,,,,,,
0.0,1.0,0.697275,,,,,,luggage_08s.jpg,0.0,clockno_default.jpg,1.0,21,,,,,,,,,,,,,,,,,,0.0,1.0,1.0,1.0,1.0,,,,,,,,,,
0.0,1.0,1.415265,,,,,,fountain_pen_06s.jpg,0.0,clockno_default.jpg,1.0,21,,,,,,,,,,,,,,,,,,0.0,2.0,2.0,2.0,1.0,,,,,,,,,,
0.0,1.0,0.62743,,,,,,fur_coat_11s.jpg,0.0,clockno_default.jpg,1.0,21,,,,,,,,,,,,,,,,,,0.0,3.0,3.0,3.0,1.0,,,,,,,,,,
0.0,1.0,0.77968,,,,,,ladder_15s.jpg,0.0,clockno_default.jpg,1.0,21,,,,,,,,,,,,,,,,,,0.0,4.0,4.0,4.0,1.0,,,,,,,,,,
0.0,1.0,0.795915,,,,,,mushroom_10n.jpg,0.0,clockno_default.jpg,1.0,21,,,,,,,,,,,,,,,,,,0.0,5.0,5.0,5.0,1.0,,,,,,,,,,
0.0,1.0,0.662245,,,,,,milk_02s.jpg,0.0,clockno_up.jpg,2.0,21,,,,,,,,,,,,,,,,,,0.0,6.0,6.0,6.0,1.0,,,,,,,,,,
0.0,1.0,0.584615,,,,,,fork_04s.jpg,0.0,clockno_default.jpg,2.0,21,,,,,,,,,,,,,,,,,,0.0,7.0,7.0,7.0,1.0,,,,,,,,,,
0.0,1.0,0.81229,,,,,,bank_06s.jpg,0.0,clockno_default.jpg,2.0,21,,,,,,,,,,,,,,,,,,0.0,8.0,8.0,8.0,1.0,,,,,,,,,,
0.0,1.0,0.53188,,,,,,paintbrush_04s.jpg,0.0,clockno_default.jpg,2.0,21,,,,,,,,,,,,,,,,,,0.0,9.0,9.0,9.0,1.0,,,,,,,,,,
1.0,1.0,1.466165,,,,,,fork_04s.jpg,1.0,clockno_default.jpg,2.0,21,,,,,,,,,,,,,,,,,,0.0,10.0,10.0,10.0,1.0,,,,,,,,,,
0.0,1.0,0.4441,,,,,,fireworks_18s.jpg,0.0,clockno_up.jpg,3.0,21,,,,,,,,,,,,,,,,,,0.0,11.0,11.0,11.0,1.0,,,,,,,,,,
1.0,1.0,1.53883,,,,,,fireworks_18s.jpg,1.0,clockno_default.jpg,3.0,21,,,,,,,,,,,,,,,,,,0.0,12.0,12.0,12.0,1.0,,,,,,,,,,
1.0,1.0,1.498865,,,,,,fireworks_18s.jpg,1.0,clockno_default.jpg,3.0,21,,,,,,,,,,,,,,,,,,0.0,13.0,13.0,13.0,1.0,,,,,,,,,,
0.0,1.0,0.51156,,,,,,outlet_10s.jpg,0.0,clockno_default.jpg,3.0,21,,,,,,,,,,,,,,,,,,0.0,14.0,14.0,14.0,1.0,,,,,,,,,,
0.0,1.0,0.60958,,,,,,olive_05s.jpg,0.0,clockno_default.jpg,3.0,21,,,,,,,,,,,,,,,,,,0.0,15.0,15.0,15.0,1.0,,,,,,,,,,
0.0,1.0,0.56094,,,,,,toaster_03s.jpg,0.0,clockno_default.jpg,3.0,21,,,,,,,,,,,,,,,,,,0.0,16.0,16.0,16.0,1.0,,,,,,,,,,
0.0,1.0,0.61349,,,,,,kitten_07s.jpg,0.0,clockno_default.jpg,3.0,21,,,,,,,,,,,,,,,,,,0.0,17.0,17.0,17.0,1.0,,,,,,,,,,
0.0,1.0,0.613975,,,,,,soda_fountain_03s.jpg,0.0,clockno_up.jpg,4.0,21,,,,,,,,,,,,,,,,,,0.0,18.0,18.0,18.0,1.0,,,,,,,,,,
0.0,1.0,0.44826,,,,,,paper_bag_12s.jpg,0.0,clockno_default.jpg,4.0,21,,,,,,,,,,,,,,,,,,0.0,19.0,19.0,19.0,1.0,,,,,,,,,,
0.0,1.0,1.269185,,,,,,frame_06s.jpg,0.0,clockno_default.jpg,4.0,21,,,,,,,,,,,,,,,,,,0.0,20.0,20.0,20.0,1.0,,,,,,,,,,
0.0,1.0,0.672625,,,,,,mold2_04s.jpg,0.0,clockno_default.jpg,4.0,21,,,,,,,,,,,,,,,,,,0.0,21.0,21.0,21.0,1.0,,,,,,,,,,
0.0,1.0,0.913285,,,,,,tupperware_09s.jpg,0.0,clockno_default.jpg,4.0,21,,,,,,,,,,,,,,,,,,0.0,22.0,22.0,22.0,1.0,,,,,,,,,,
0.0,1.0,0.572795,,,,,,eggshell_14s.jpg,0.0,clockno_default.jpg,4.0,21,,,,,,,,,,,,,,,,,,0.0,23.0,23.0,23.0,1.0,,,,,,,,,,
0.0,1.0,0.719055,,,,,,antenna_01b.jpg,0.0,clockno_up.jpg,5.0,21,,,,,,,,,,,,,,,,,,0.0,24.0,24.0,24.0,1.0,,,,,,,,,,
1.0,1.0,1.82196,,,,,,antenna_01b.jpg,1.0,clockno_default.jpg,5.0,21,,,,,,,,,,,,,,,,,,0.0,25.0,25.0,25.0,1.0,,,,,,,,,,
0.0,1.0,0.69757,,,,,,padlock_07s.jpg,0.0,clockno_default.jpg,5.0,21,,,,,,,,,,,,,,,,,,0.0,26.0,26.0,26.0,1.0,,,,,,,,,,
0.0,1.0,0.60133,,,,,,pocket_watch_16s.jpg,0.0,clockno_default.jpg,5.0,21,,,,,,,,,,,,,,,,,,0.0,27.0,27.0,27.0,1.0,,,,,,,,,,
0.0,1.0,0.66536,,,,,,bank_06s.jpg,0.0,clockno_default.jpg,5.0,21,,,,,,,,,,,,,,,,,,0.0,28.0,28.0,28.0,1.0,,,,,,,,,,
0.0,1.0,0.611105,,,,,,incense_02s.jpg,0.0,clockno_up.jpg,6.0,21,,,,,,,,,,,,,,,,,,0.0,29.0,29.0,29.0,1.0,,,,,,,,,,
0.0,1.0,0.91305,,,,,,bagel_15s.jpg,0.0,clockno_default.jpg,6.0,21,,,,,,,,,,,,,,,,,,0.0,30.0,30.0,30.0,1.0,,,,,,,,,,
0.0,1.0,0.556945,,,,,,milk_02s.jpg,0.0,clockno_default.jpg,6.0,21,,,,,,,,,,,,,,,,,,0.0,31.0,31.0,31.0,1.0,,,,,,,,,,
0.0,1.0,0.49453,,,,,,iron_13s.jpg,0.0,clockno_default.jpg,6.0,21,,,,,,,,,,,,,,,,,,0.0,32.0,32.0,32.0,1.0,,,,,,,,,,
0.0,1.0,0.56032,,,,,,duck_01b.jpg,0.0,clockno_default.jpg,6.0,21,,,,,,,,,,,,,,,,,,0.0,33.0,33.0,33.0,1.0,,,,,,,,,,
0.0,1.0,0.82098,,,,,,rooster_03s.jpg,0.0,clockno_default.jpg,6.0,21,,,,,,,,,,,,,,,,,,0.0,34.0,34.0,34.0,1.0,,,,,,,,,,
0.0,1.0,0.73527,,,,,,sugar_cube_11s.jpg,0.0,clockno_default.jpg,6.0,21,,,,,,,,,,,,,,,,,,0.0,35.0,35.0,35.0,1.0,,,,,,,,,,
,,,,,,,,,0.0,,,21,0.0,1.0,1.708205,,,,,,soda_fountain_03s.jpg,olive_05s.jpg,,,,,,,,,,,,,0.0,0.0,0.0,0.0,1.0,,,,,
,,,,,,,,,1.0,,,21,0.0,0.0,1.169505,,,,,,toaster_03s.jpg,paper_bag_12s.jpg,,,,,,,,,,,,,0.0,1.0,1.0,1.0,1.0,,,,,
,,,,,,,,,1.0,,,21,1.0,1.0,1.269675,,,,,,eggshell_14s.jpg,padlock_07s.jpg,,,,,,,,,,,,,0.0,2.0,2.0,2.0,1.0,,,,,
,,,,,,,,,1.0,,,21,0.0,0.0,1.21806,,,,,,magnet_03s.jpg,fur_coat_11s.jpg,,,,,,,,,,,,,0.0,3.0,3.0,3.0,1.0,,,,,
,,,,,,,,,0.0,,,21,0.0,1.0,1.629125,,,,,,ladder_15s.jpg,luggage_08s.jpg,,,,,,,,,,,,,0.0,4.0,4.0,4.0,1.0,,,,,
,,,,,,,,,0.0,,,21,1.0,0.0,1.38032,,,,,,mushroom_10n.jpg,fountain_pen_06s.jpg,,,,,,,,,,,,,0.0,5.0,5.0,5.0,1.0,,,,,
,,,,,,,,,,,,21,,,,,,,,,,,,,,,,clockno_present_3_16.xlsx,clockno_compare_task_3_16.xlsx,,,,,,,,,,,0.0,2.0,2.0,2.0,1.0
0.0,1.0,0.90457,,,,,,insole_11s.jpg,0.0,clockno_up.jpg,1.0,21,,,,,,,,,,,,,,,,,,0.0,0.0,0.0,0.0,1.0,,,,,,,,,,
0.0,1.0,0.36595,,,,,,teapot_03s.jpg,0.0,clockno_default.jpg,1.0,21,,,,,,,,,,,,,,,,,,0.0,1.0,1.0,1.0,1.0,,,,,,,,,,
0.0,1.0,0.416415,,,,,,orange_12s.jpg,0.0,clockno_default.jpg,1.0,21,,,,,,,,,,,,,,,,,,0.0,2.0,2.0,2.0,1.0,,,,,,,,,,
1.0,1.0,1.482255,,,,,,insole_11s.jpg,1.0,clockno_default.jpg,1.0,21,,,,,,,,,,,,,,,,,,0.0,3.0,3.0,3.0,1.0,,,,,,,,,,
0.0,1.0,0.61575,,,,,,jersey_02s.jpg,0.0,clockno_default.jpg,1.0,21,,,,,,,,,,,,,,,,,,0.0,4.0,4.0,4.0,1.0,,,,,,,,,,
0.0,1.0,0.49697,,,,,,dashboard_02s.jpg,0.0,clockno_up.jpg,2.0,21,,,,,,,,,,,,,,,,,,0.0,5.0,5.0,5.0,1.0,,,,,,,,,,
0.0,1.0,0.49448,,,,,,harpoon.jpg,0.0,clockno_default.jpg,2.0,21,,,,,,,,,,,,,,,,,,0.0,6.0,6.0,6.0,1.0,,,,,,,,,,
0.0,1.0,0.493215,,,,,,kilt_18s.jpg,0.0,clockno_default.jpg,2.0,21,,,,,,,,,,,,,,,,,,0.0,7.0,7.0,7.0,1.0,,,,,,,,,,
0.0,1.0,0.42179,,,,,,bowler_hat_10s.jpg,0.0,clockno_default.jpg,2.0,21,,,,,,,,,,,,,,,,,,0.0,8.0,8.0,8.0,1.0,,,,,,,,,,
0.0,1.0,0.40422,,,,,,light_switch_02s.jpg,0.0,clockno_default.jpg,2.0,21,,,,,,,,,,,,,,,,,,0.0,9.0,9.0,9.0,1.0,,,,,,,,,,
0.0,1.0,0.69934,,,,,,mirror_12s.jpg,0.0,clockno_up.jpg,3.0,21,,,,,,,,,,,,,,,,,,0.0,10.0,10.0,10.0,1.0,,,,,,,,,,
0.0,1.0,0.45112,,,,,,raspberry_12s.jpg,0.0,clockno_default.jpg,3.0,21,,,,,,,,,,,,,,,,,,0.0,11.0,11.0,11.0,1.0,,,,,,,,,,
0.0,1.0,0.602265,,,,,,gas_mask_11s.jpg,0.0,clockno_default.jpg,3.0,21,,,,,,,,,,,,,,,,,,0.0,12.0,12.0,12.0,1.0,,,,,,,,,,
0.0,1.0,0.467715,,,,,,teacup_07s.jpg,0.0,clockno_default.jpg,3.0,21,,,,,,,,,,,,,,,,,,0.0,13.0,13.0,13.0,1.0,,,,,,,,,,
0.0,1.0,0.578605,,,,,,icemaker_10s.jpg,0.0,clockno_default.jpg,3.0,21,,,,,,,,,,,,,,,,,,0.0,14.0,14.0,14.0,1.0,,,,,,,,,,
0.0,1.0,0.527815,,,,,,pacifier_09s.jpg,0.0,clockno_default.jpg,3.0,21,,,,,,,,,,,,,,,,,,0.0,15.0,15.0,15.0,1.0,,,,,,,,,,
0.0,1.0,0.707135,,,,,,pepper_mill_03s.jpg,0.0,clockno_default.jpg,3.0,21,,,,,,,,,,,,,,,,,,0.0,16.0,16.0,16.0,1.0,,,,,,,,,,
0.0,1.0,0.656155,,,,,,juicer1_08s.jpg,0.0,clockno_up.jpg,4.0,21,,,,,,,,,,,,,,,,,,0.0,17.0,17.0,17.0,1.0,,,,,,,,,,
0.0,1.0,0.3748,,,,,,lion_18s.jpg,0.0,clockno_default.jpg,4.0,21,,,,,,,,,,,,,,,,,,0.0,18.0,18.0,18.0,1.0,,,,,,,,,,
0.0,1.0,0.493895,,,,,,rocking_chair_05s.jpg,0.0,clockno_default.jpg,4.0,21,,,,,,,,,,,,,,,,,,0.0,19.0,19.0,19.0,1.0,,,,,,,,,,
0.0,1.0,0.59405,,,,,,beaker_01b.jpg,0.0,clockno_default.jpg,4.0,21,,,,,,,,,,,,,,,,,,0.0,20.0,20.0,20.0,1.0,,,,,,,,,,
0.0,1.0,0.484015,,,,,,leotard_08s.jpg,0.0,clockno_default.jpg,4.0,21,,,,,,,,,,,,,,,,,,0.0,21.0,21.0,21.0,1.0,,,,,,,,,,
0.0,1.0,0.465175,,,,,,puppet_01b.jpg,0.0,clockno_default.jpg,4.0,21,,,,,,,,,,,,,,,,,,0.0,22.0,22.0,22.0,1.0,,,,,,,,,,
0.0,1.0,0.484545,,,,,,soccer_ball_12s.jpg,0.0,clockno_up.jpg,5.0,21,,,,,,,,,,,,,,,,,,0.0,23.0,23.0,23.0,1.0,,,,,,,,,,
0.0,1.0,0.781615,,,,,,fox_13s.jpg,0.0,clockno_default.jpg,5.0,21,,,,,,,,,,,,,,,,,,0.0,24.0,24.0,24.0,1.0,,,,,,,,,,
0.0,1.0,0.417985,,,,,,birthday_cake_09s.jpg,0.0,clockno_default.jpg,5.0,21,,,,,,,,,,,,,,,,,,0.0,25.0,25.0,25.0,1.0,,,,,,,,,,
0.0,1.0,0.435415,,,,,,sushi_08s.jpg,0.0,clockno_default.jpg,5.0,21,,,,,,,,,,,,,,,,,,0.0,26.0,26.0,26.0,1.0,,,,,,,,,,
0.0,1.0,0.53032,,,,,,sparkler_02s.jpg,0.0,clockno_default.jpg,5.0,21,,,,,,,,,,,,,,,,,,0.0,27.0,27.0,27.0,1.0,,,,,,,,,,
0.0,1.0,1.651455,,,,,,dashboard_02s.jpg,0.0,clockno_default.jpg,5.0,21,,,,,,,,,,,,,,,,,,0.0,28.0,28.0,28.0,1.0,,,,,,,,,,
0.0,1.0,0.845195,,,,,,lizard_10n.jpg,0.0,clockno_up.jpg,6.0,21,,,,,,,,,,,,,,,,,,0.0,29.0,29.0,29.0,1.0,,,,,,,,,,
0.0,1.0,0.562865,,,,,,purse_05s.jpg,0.0,clockno_default.jpg,6.0,21,,,,,,,,,,,,,,,,,,0.0,30.0,30.0,30.0,1.0,,,,,,,,,,
0.0,1.0,0.477935,,,,,,owl_15s.jpg,0.0,clockno_default.jpg,6.0,21,,,,,,,,,,,,,,,,,,0.0,31.0,31.0,31.0,1.0,,,,,,,,,,
0.0,1.0,0.624365,,,,,,cobra_05s.jpg,0.0,clockno_default.jpg,6.0,21,,,,,,,,,,,,,,,,,,0.0,32.0,32.0,32.0,1.0,,,,,,,,,,
1.0,1.0,1.481875,,,,,,owl_15s.jpg,1.0,clockno_default.jpg,6.0,21,,,,,,,,,,,,,,,,,,0.0,33.0,33.0,33.0,1.0,,,,,,,,,,
0.0,1.0,0.66513,,,,,,pomegranate_04s.jpg,0.0,clockno_default.jpg,6.0,21,,,,,,,,,,,,,,,,,,0.0,34.0,34.0,34.0,1.0,,,,,,,,,,
0.0,1.0,0.830425,,,,,,plug_08s.jpg,0.0,clockno_default.jpg,6.0,21,,,,,,,,,,,,,,,,,,0.0,35.0,35.0,35.0,1.0,,,,,,,,,,
,,,,,,,,,0.0,,,21,0.0,1.0,1.62702,,,,,,kilt_18s.jpg,jersey_02s.jpg,,,,,,,,,,,,,0.0,0.0,0.0,0.0,1.0,,,,,
,,,,,,,,,0.0,,,21,1.0,0.0,1.896975,,,,,,raspberry_12s.jpg,bowler_hat_10s.jpg,,,,,,,,,,,,,0.0,1.0,1.0,1.0,1.0,,,,,
,,,,,,,,,0.0,,,21,0.0,1.0,2.61963,,,,,,birthday_cake_09s.jpg,puppet_01b.jpg,,,,,,,,,,,,,0.0,2.0,2.0,2.0,1.0,,,,,
,,,,,,,,,0.0,,,21,1.0,0.0,1.49455,,,,,,plug_08s.jpg,cobra_05s.jpg,,,,,,,,,,,,,0.0,3.0,3.0,3.0,1.0,,,,,
,,,,,,,,,0.0,,,21,0.0,1.0,1.249245,,,,,,light_switch_02s.jpg,harpoon.jpg,,,,,,,,,,,,,0.0,4.0,4.0,4.0,1.0,,,,,
,,,,,,,,,1.0,,,21,0.0,0.0,0.9015,,,,,,mirror_12s.jpg,teacup_07s.jpg,,,,,,,,,,,,,0.0,5.0,5.0,5.0,1.0,,,,,
,,,,,,,,,,,,21,,,,,,,,,,,,,,,,clockno_present_4_16.xlsx,clockno_compare_task_4_16.xlsx,,,,,,,,,,,0.0,3.0,3.0,3.0,1.0
0.0,1.0,1.2141,,,,,,film_03s.jpg,0.0,clockno_up.jpg,1.0,21,,,,,,,,,,,,,,,,,,0.0,0.0,0.0,0.0,1.0,,,,,,,,,,
0.0,1.0,0.49672,,,,,,stopwatch_04s.jpg,0.0,clockno_default.jpg,1.0,21,,,,,,,,,,,,,,,,,,0.0,1.0,1.0,1.0,1.0,,,,,,,,,,
0.0,1.0,0.43039,,,,,,pepper2_21s.jpg,0.0,clockno_default.jpg,1.0,21,,,,,,,,,,,,,,,,,,0.0,2.0,2.0,2.0,1.0,,,,,,,,,,
0.0,0.0,0.516495,,,,,,film_03s.jpg,1.0,clockno_default.jpg,1.0,21,,,,,,,,,,,,,,,,,,0.0,3.0,3.0,3.0,1.0,,,,,,,,,,
1.0,1.0,1.137875,,,,,,film_03s.jpg,1.0,clockno_default.jpg,1.0,21,,,,,,,,,,,,,,,,,,0.0,4.0,4.0,4.0,1.0,,,,,,,,,,
0.0,1.0,0.69944,,,,,,ginger_09s.jpg,0.0,clockno_default.jpg,1.0,21,,,,,,,,,,,,,,,,,,0.0,5.0,5.0,5.0,1.0,,,,,,,,,,
0.0,0.0,1.28938,,,,,,pepper2_21s.jpg,1.0,clockno_default.jpg,1.0,21,,,,,,,,,,,,,,,,,,0.0,6.0,6.0,6.0,1.0,,,,,,,,,,
0.0,1.0,1.142635,,,,,,puffin_19s.jpg,0.0,clockno_up.jpg,2.0,21,,,,,,,,,,,,,,,,,,0.0,7.0,7.0,7.0,1.0,,,,,,,,,,
0.0,1.0,0.707655,,,,,,golf_club_03s.jpg,0.0,clockno_default.jpg,2.0,21,,,,,,,,,,,,,,,,,,0.0,8.0,8.0,8.0,1.0,,,,,,,,,,
0.0,1.0,0.524605,,,,,,crab_16s.jpg,0.0,clockno_default.jpg,2.0,21,,,,,,,,,,,,,,,,,,0.0,9.0,9.0,9.0,1.0,,,,,,,,,,
0.0,1.0,0.58155,,,,,,bathtub_23s.jpg,0.0,clockno_default.jpg,2.0,21,,,,,,,,,,,,,,,,,,0.0,10.0,10.0,10.0,1.0,,,,,,,,,,
0.0,0.0,0.53089,,,,,,crab_16s.jpg,1.0,clockno_default.jpg,2.0,21,,,,,,,,,,,,,,,,,,0.0,11.0,11.0,11.0,1.0,,,,,,,,,,
0.0,1.0,0.61429,,,,,,pancake_12s.jpg,0.0,clockno_default.jpg,2.0,21,,,,,,,,,,,,,,,,,,0.0,12.0,12.0,12.0,1.0,,,,,,,,,,
0.0,1.0,0.612755,,,,,,lamb_04s.jpg,0.0,clockno_up.jpg,3.0,21,,,,,,,,,,,,,,,,,,0.0,13.0,13.0,13.0,1.0,,,,,,,,,,
0.0,1.0,0.450795,,,,,,ladle_04s.jpg,0.0,clockno_default.jpg,3.0,21,,,,,,,,,,,,,,,,,,0.0,14.0,14.0,14.0,1.0,,,,,,,,,,
0.0,1.0,0.495095,,,,,,popsicle_02s.jpg,0.0,clockno_default.jpg,3.0,21,,,,,,,,,,,,,,,,,,0.0,15.0,15.0,15.0,1.0,,,,,,,,,,
0.0,1.0,0.490415,,,,,,eiffeltower.jpg,0.0,clockno_default.jpg,3.0,21,,,,,,,,,,,,,,,,,,0.0,16.0,16.0,16.0,1.0,,,,,,,,,,
0.0,1.0,0.543815,,,,,,rolling_pin_02s.jpg,0.0,clockno_default.jpg,3.0,21,,,,,,,,,,,,,,,,,,0.0,17.0,17.0,17.0,1.0,,,,,,,,,,
0.0,1.0,0.393915,,,,,,lantern_04s.jpg,0.0,clockno_up.jpg,4.0,21,,,,,,,,,,,,,,,,,,0.0,18.0,18.0,18.0,1.0,,,,,,,,,,
0.0,1.0,0.44394,,,,,,telephone_pole_05s.jpg,0.0,clockno_default.jpg,4.0,21,,,,,,,,,,,,,,,,,,0.0,19.0,19.0,19.0,1.0,,,,,,,,,,
0.0,0.0,0.51358,,,,,,lantern_04s.jpg,1.0,clockno_default.jpg,4.0,21,,,,,,,,,,,,,,,,,,0.0,20.0,20.0,20.0,1.0,,,,,,,,,,
0.0,1.0,0.810665,,,,,,seahorse_13s.jpg,0.0,clockno_default.jpg,4.0,21,,,,,,,,,,,,,,,,,,0.0,21.0,21.0,21.0,1.0,,,,,,,,,,
0.0,1.0,0.46194,,,,,,ruby_15s.jpg,0.0,clockno_default.jpg,4.0,21,,,,,,,,,,,,,,,,,,0.0,22.0,22.0,22.0,1.0,,,,,,,,,,
0.0,1.0,0.399815,,,,,,machete_06s.jpg,0.0,clockno_up.jpg,5.0,21,,,,,,,,,,,,,,,,,,0.0,23.0,23.0,23.0,1.0,,,,,,,,,,
0.0,1.0,0.472305,,,,,,dirt_bike_11s.jpg,0.0,clockno_default.jpg,5.0,21,,,,,,,,,,,,,,,,,,0.0,24.0,24.0,24.0,1.0,,,,,,,,,,
0.0,1.0,0.48307,,,,,,tuxedo_01b.jpg,0.0,clockno_default.jpg,5.0,21,,,,,,,,,,,,,,,,,,0.0,25.0,25.0,25.0,1.0,,,,,,,,,,
0.0,1.0,0.645115,,,,,,mascara_03s.jpg,0.0,clockno_default.jpg,5.0,21,,,,,,,,,,,,,,,,,,0.0,26.0,26.0,26.0,1.0,,,,,,,,,,
0.0,1.0,0.511225,,,,,,puddle_02s.jpg,0.0,clockno_default.jpg,5.0,21,,,,,,,,,,,,,,,,,,0.0,27.0,27.0,27.0,1.0,,,,,,,,,,
0.0,1.0,1.151045,,,,,,lantern_04s.jpg,0.0,clockno_default.jpg,5.0,21,,,,,,,,,,,,,,,,,,0.0,28.0,28.0,28.0,1.0,,,,,,,,,,
0.0,1.0,0.598245,,,,,,pump_11s.jpg,0.0,clockno_up.jpg,6.0,21,,,,,,,,,,,,,,,,,,0.0,29.0,29.0,29.0,1.0,,,,,,,,,,
0.0,1.0,1.14667,,,,,,machine_gun_09s.jpg,0.0,clockno_default.jpg,6.0,21,,,,,,,,,,,,,,,,,,0.0,30.0,30.0,30.0,1.0,,,,,,,,,,
0.0,1.0,0.451305,,,,,,mitten_10s.jpg,0.0,clockno_default.jpg,6.0,21,,,,,,,,,,,,,,,,,,0.0,31.0,31.0,31.0,1.0,,,,,,,,,,
0.0,1.0,0.347825,,,,,,joystick_01b.jpg,0.0,clockno_default.jpg,6.0,21,,,,,,,,,,,,,,,,,,0.0,32.0,32.0,32.0,1.0,,,,,,,,,,
0.0,1.0,0.403925,,,,,,rice_12s.jpg,0.0,clockno_default.jpg,6.0,21,,,,,,,,,,,,,,,,,,0.0,33.0,33.0,33.0,1.0,,,,,,,,,,
0.0,1.0,0.480745,,,,,,lifesaver_10s.jpg,0.0,clockno_default.jpg,6.0,21,,,,,,,,,,,,,,,,,,0.0,34.0,34.0,34.0,1.0,,,,,,,,,,
0.0,1.0,0.463325,,,,,,lamp_08s.jpg,0.0,clockno_default.jpg,6.0,21,,,,,,,,,,,,,,,,,,0.0,35.0,35.0,35.0,1.0,,,,,,,,,,
,,,,,,,,,0.0,,,21,0.0,1.0,1.49702,,,,,,golf_club_03s.jpg,ginger_09s.jpg,,,,,,,,,,,,,0.0,0.0,0.0,0.0,1.0,,,,,
,,,,,,,,,0.0,,,21,1.0,0.0,1.18017,,,,,,popsicle_02s.jpg,pancake_12s.jpg,,,,,,,,,,,,,0.0,1.0,1.0,1.0,1.0,,,,,
,,,,,,,,,1.0,,,21,1.0,1.0,1.158325,,,,,,seahorse_13s.jpg,dirt_bike_11s.jpg,,,,,,,,,,,,,0.0,2.0,2.0,2.0,1.0,,,,,
,,,,,,,,,1.0,,,21,1.0,1.0,1.00559,,,,,,ladle_04s.jpg,rolling_pin_02s.jpg,,,,,,,,,,,,,0.0,3.0,3.0,3.0,1.0,,,,,
,,,,,,,,,1.0,,,21,1.0,1.0,0.851595,,,,,,mitten_10s.jpg,lifesaver_10s.jpg,,,,,,,,,,,,,0.0,4.0,4.0,4.0,1.0,,,,,
,,,,,,,,,0.0,,,21,0.0,1.0,0.974065,,,,,,lamp_08s.jpg,joystick_01b.jpg,,,,,,,,,,,,,0.0,5.0,5.0,5.0,1.0,,,,,
,,,,,,,,,,,,21,,,,,,,,,,,,,,,,clockno_present_5_16.xlsx,clockno_compare_task_5_16.xlsx,,,,,,,,,,,0.0,4.0,4.0,4.0,1.0
0.0,1.0,0.66587,,,,,,seagull_01b.jpg,0.0,clockno_up.jpg,1.0,21,,,,,,,,,,,,,,,,,,0.0,0.0,0.0,0.0,1.0,,,,,,,,,,
0.0,1.0,0.671555,,,,,,denture_03s.jpg,0.0,clockno_default.jpg,1.0,21,,,,,,,,,,,,,,,,,,0.0,1.0,1.0,1.0,1.0,,,,,,,,,,
1.0,1.0,1.17383,,,,,,seagull_01b.jpg,1.0,clockno_default.jpg,1.0,21,,,,,,,,,,,,,,,,,,0.0,2.0,2.0,2.0,1.0,,,,,,,,,,
1.0,1.0,1.02901,,,,,,seagull_01b.jpg,1.0,clockno_default.jpg,1.0,21,,,,,,,,,,,,,,,,,,0.0,3.0,3.0,3.0,1.0,,,,,,,,,,
1.0,1.0,0.96466,,,,,,seagull_01b.jpg,1.0,clockno_default.jpg,1.0,21,,,,,,,,,,,,,,,,,,0.0,4.0,4.0,4.0,1.0,,,,,,,,,,
0.0,1.0,0.45851,,,,,,knitting_needle_04s.jpg,0.0,clockno_default.jpg,1.0,21,,,,,,,,,,,,,,,,,,0.0,5.0,5.0,5.0,1.0,,,,,,,,,,
0.0,1.0,0.46873,,,,,,birdcage_08s.jpg,0.0,clockno_default.jpg,1.0,21,,,,,,,,,,,,,,,,,,0.0,6.0,6.0,6.0,1.0,,,,,,,,,,
0.0,1.0,0.49451,,,,,,pie_08s.jpg,0.0,clockno_up.jpg,2.0,21,,,,,,,,,,,,,,,,,,0.0,7.0,7.0,7.0,1.0,,,,,,,,,,
0.0,1.0,0.828325,,,,,,glasses01a.jpg,0.0,clockno_default.jpg,2.0,21,,,,,,,,,,,,,,,,,,0.0,8.0,8.0,8.0,1.0,,,,,,,,,,
0.0,1.0,0.47555,,,,,,onion_10s.jpg,0.0,clockno_default.jpg,2.0,21,,,,,,,,,,,,,,,,,,0.0,9.0,9.0,9.0,1.0,,,,,,,,,,
1.0,0.0,1.217625,,,,,,seagull_01b.jpg,0.0,clockno_default.jpg,2.0,21,,,,,,,,,,,,,,,,,,0.0,10.0,10.0,10.0,1.0,,,,,,,,,,
0.0,1.0,0.948335,,,,,,tortilla_06s.jpg,0.0,clockno_default.jpg,2.0,21,,,,,,,,,,,,,,,,,,0.0,11.0,11.0,11.0,1.0,,,,,,,,,,
0.0,1.0,0.90244,,,,,,panda_02s.jpg,0.0,clockno_up.jpg,3.0,21,,,,,,,,,,,,,,,,,,0.0,12.0,12.0,12.0,1.0,,,,,,,,,,
0.0,1.0,0.459435,,,,,,lipstick_02s.jpg,0.0,clockno_default.jpg,3.0,21,,,,,,,,,,,,,,,,,,0.0,13.0,13.0,13.0,1.0,,,,,,,,,,
1.0,1.0,1.28569,,,,,,lipstick_02s.jpg,1.0,clockno_default.jpg,3.0,21,,,,,,,,,,,,,,,,,,0.0,14.0,14.0,14.0,1.0,,,,,,,,,,
0.0,1.0,0.512685,,,,,,chime_12s.jpg,0.0,clockno_default.jpg,3.0,21,,,,,,,,,,,,,,,,,,0.0,15.0,15.0,15.0,1.0,,,,,,,,,,
1.0,1.0,1.53307,,,,,,panda_02s.jpg,1.0,clockno_default.jpg,3.0,21,,,,,,,,,,,,,,,,,,0.0,16.0,16.0,16.0,1.0,,,,,,,,,,
0.0,1.0,0.916765,,,,,,mug_06s.jpg,0.0,clockno_default.jpg,3.0,21,,,,,,,,,,,,,,,,,,0.0,17.0,17.0,17.0,1.0,,,,,,,,,,
0.0,1.0,0.401235,,,,,,pie_08s.jpg,0.0,clockno_default.jpg,3.0,21,,,,,,,,,,,,,,,,,,0.0,18.0,18.0,18.0,1.0,,,,,,,,,,
0.0,1.0,0.74902,,,,,,latch_15s.jpg,0.0,clockno_up.jpg,4.0,21,,,,,,,,,,,,,,,,,,0.0,19.0,19.0,19.0,1.0,,,,,,,,,,
0.0,0.0,0.39797,,,,,,latch_15s.jpg,1.0,clockno_default.jpg,4.0,21,,,,,,,,,,,,,,,,,,0.0,20.0,20.0,20.0,1.0,,,,,,,,,,
0.0,1.0,0.51681,,,,,,camcorder_10s.jpg,0.0,clockno_default.jpg,4.0,21,,,,,,,,,,,,,,,,,,0.0,21.0,21.0,21.0,1.0,,,,,,,,,,
0.0,1.0,0.548855,,,,,,kimono_13s.jpg,0.0,clockno_default.jpg,4.0,21,,,,,,,,,,,,,,,,,,0.0,22.0,22.0,22.0,1.0,,,,,,,,,,
1.0,1.0,0.969355,,,,,,kimono_13s.jpg,1.0,clockno_default.jpg,4.0,21,,,,,,,,,,,,,,,,,,0.0,23.0,23.0,23.0,1.0,,,,,,,,,,
0.0,1.0,0.44521,,,,,,bee_20s.jpg,0.0,clockno_up.jpg,5.0,21,,,,,,,,,,,,,,,,,,0.0,24.0,24.0,24.0,1.0,,,,,,,,,,
0.0,1.0,0.49544,,,,,,saddle_06s.jpg,0.0,clockno_default.jpg,5.0,21,,,,,,,,,,,,,,,,,,0.0,25.0,25.0,25.0,1.0,,,,,,,,,,
,0.0,,,,,,,fire_alarm_05s.jpg,0.0,clockno_default.jpg,5.0,21,,,,,,,,,,,,,,,,,,0.0,26.0,26.0,26.0,1.0,,,,,,,,,,
0.0,1.0,0.446045,,,,,,ram_05s.jpg,0.0,clockno_default.jpg,5.0,21,,,,,,,,,,,,,,,,,,0.0,27.0,27.0,27.0,1.0,,,,,,,,,,
0.0,1.0,0.44436,,,,,,coral_08s.jpg,0.0,clockno_default.jpg,5.0,21,,,,,,,,,,,,,,,,,,0.0,28.0,28.0,28.0,1.0,,,,,,,,,,
0.0,1.0,1.104895,,,,,,roller_coaster_07s.jpg,0.0,clockno_default.jpg,5.0,21,,,,,,,,,,,,,,,,,,0.0,29.0,29.0,29.0,1.0,,,,,,,,,,
0.0,1.0,0.5012,,,,,,playpen_11s.jpg,0.0,clockno_up.jpg,6.0,21,,,,,,,,,,,,,,,,,,0.0,30.0,30.0,30.0,1.0,,,,,,,,,,
0.0,1.0,0.513605,,,,,,mask_09s.jpg,0.0,clockno_default.jpg,6.0,21,,,,,,,,,,,,,,,,,,0.0,31.0,31.0,31.0,1.0,,,,,,,,,,
1.0,1.0,1.33566,,,,,,mask_09s.jpg,1.0,clockno_default.jpg,6.0,21,,,,,,,,,,,,,,,,,,0.0,32.0,32.0,32.0,1.0,,,,,,,,,,
0.0,1.0,0.47655,,,,,,turf_03s.jpg,0.0,clockno_default.jpg,6.0,21,,,,,,,,,,,,,,,,,,0.0,33.0,33.0,33.0,1.0,,,,,,,,,,
0.0,1.0,0.516405,,,,,,go-kart_10s.jpg,0.0,clockno_default.jpg,6.0,21,,,,,,,,,,,,,,,,,,0.0,34.0,34.0,34.0,1.0,,,,,,,,,,
0.0,1.0,0.593905,,,,,,polaroid_05s.jpg,0.0,clockno_default.jpg,6.0,21,,,,,,,,,,,,,,,,,,0.0,35.0,35.0,35.0,1.0,,,,,,,,,,
,,,,,,,,,1.0,,,21,0.0,0.0,1.69903,,,,,,birdcage_08s.jpg,onion_10s.jpg,,,,,,,,,,,,,0.0,0.0,0.0,0.0,1.0,,,,,
,,,,,,,,,0.0,,,21,1.0,0.0,2.094315,,,,,,glasses01a.jpg,knitting_needle_04s.jpg,,,,,,,,,,,,,0.0,1.0,1.0,1.0,1.0,,,,,
,,,,,,,,,0.0,,,21,0.0,1.0,1.504885,,,,,,bee_20s.jpg,camcorder_10s.jpg,,,,,,,,,,,,,0.0,2.0,2.0,2.0,1.0,,,,,
,,,,,,,,,0.0,,,21,0.0,1.0,1.636235,,,,,,coral_08s.jpg,saddle_06s.jpg,,,,,,,,,,,,,0.0,3.0,3.0,3.0,1.0,,,,,
,,,,,,,,,1.0,,,21,1.0,1.0,1.08781,,,,,,fire_alarm_05s.jpg,roller_coaster_07s.jpg,,,,,,,,,,,,,0.0,4.0,4.0,4.0,1.0,,,,,
,,,,,,,,,0.0,,,21,1.0,0.0,1.100075,,,,,,turf_03s.jpg,playpen_11s.jpg,,,,,,,,,,,,,0.0,5.0,5.0,5.0,1.0,,,,,
