key_resp.keys,key_resp.corr,key_resp.rt,noclock_loop.thisRepN,noclock_loop.thisTrialN,noclock_loop.thisN,noclock_loop.thisIndex,noclock_loop.ran,pictures,answer,clock,segment,participant,key_resp_2.keys,key_resp_2.corr,key_resp_2.rt,noclock_loop2.thisRepN,noclock_loop2.thisTrialN,noclock_loop2.thisN,noclock_loop2.thisIndex,noclock_loop2.ran,item_a,item_b,noclock_condition.thisRepN,noclock_condition.thisTrialN,noclock_condition.thisN,noclock_condition.thisIndex,noclock_condition.ran,present,compare,present_segment.thisRepN,present_segment.thisTrialN,present_segment.thisN,present_segment.thisIndex,present_segment.ran,compare_segment.thisRepN,compare_segment.thisTrialN,compare_segment.thisN,compare_segment.thisIndex,compare_segment.ran,clock_conditions.thisRepN,clock_conditions.thisTrialN,clock_conditions.thisN,clock_conditions.thisIndex,clock_conditions.ran
0.0,1.0,1.267,0.0,0.0,0.0,0.0,1.0,pillow_03s.jpg,0.0,clock_6_1.png,1.0,44,,,,,,,,,,,,,,,,,,,,,,,,,,,,,,,,
1.0,1.0,0.791,0.0,1.0,1.0,1.0,1.0,pillow_03s.jpg,1.0,clock_6_2.png,1.0,44,,,,,,,,,,,,,,,,,,,,,,,,,,,,,,,,
0.0,1.0,0.643,0.0,2.0,2.0,2.0,1.0,padlock_07s.jpg,0.0,clock_6_3.png,1.0,44,,,,,,,,,,,,,,,,,,,,,,,,,,,,,,,,
1.0,1.0,1.196,0.0,3.0,3.0,3.0,1.0,pillow_03s.jpg,1.0,clock_6_4.png,1.0,44,,,,,,,,,,,,,,,,,,,,,,,,,,,,,,,,
0.0,1.0,0.713,0.0,4.0,4.0,4.0,1.0,crab_16s.jpg,0.0,clock_6_5.png,1.0,44,,,,,,,,,,,,,,,,,,,,,,,,,,,,,,,,
0.0,1.0,0.679,0.0,5.0,5.0,5.0,1.0,exhaust_pipe_10s.jpg,0.0,clock_6_6.png,1.0,44,,,,,,,,,,,,,,,,,,,,,,,,,,,,,,,,
0.0,1.0,0.666,0.0,6.0,6.0,6.0,1.0,turkey_10s.jpg,0.0,clock_6_1.png,2.0,44,,,,,,,,,,,,,,,,,,,,,,,,,,,,,,,,
0.0,1.0,1.57,0.0,7.0,7.0,7.0,1.0,pomegranate_04s.jpg,0.0,clock_6_2.png,2.0,44,,,,,,,,,,,,,,,,,,,,,,,,,,,,,,,,
0.0,1.0,0.558,0.0,8.0,8.0,8.0,1.0,chocolate_01b.jpg,0.0,clock_6_3.png,2.0,44,,,,,,,,,,,,,,,,,,,,,,,,,,,,,,,,
0.0,1.0,1.077,0.0,9.0,9.0,9.0,1.0,paper_towel_03s.jpg,0.0,clock_6_4.png,2.0,44,,,,,,,,,,,,,,,,,,,,,,,,,,,,,,,,
0.0,1.0,0.498,0.0,10.0,10.0,10.0,1.0,keyhole_03s.jpg,0.0,clock_6_5.png,2.0,44,,,,,,,,,,,,,,,,,,,,,,,,,,,,,,,,
1.0,1.0,1.408,0.0,11.0,11.0,11.0,1.0,turkey_10s.jpg,1.0,clock_6_6.png,2.0,44,,,,,,,,,,,,,,,,,,,,,,,,,,,,,,,,
0.0,1.0,0.674,0.0,12.0,12.0,12.0,1.0,poinsettia_04s.jpg,0.0,clock_5_1.png,3.0,44,,,,,,,,,,,,,,,,,,,,,,,,,,,,,,,,
1.0,1.0,0.65,0.0,13.0,13.0,13.0,1.0,poinsettia_04s.jpg,1.0,clock_5_2.png,3.0,44,,,,,,,,,,,,,,,,,,,,,,,,,,,,,,,,
0.0,1.0,0.644,0.0,14.0,14.0,14.0,1.0,tape_measure_11s.jpg,0.0,clock_5_3.png,3.0,44,,,,,,,,,,,,,,,,,,,,,,,,,,,,,,,,
1.0,1.0,0.596,0.0,15.0,15.0,15.0,1.0,poinsettia_04s.jpg,1.0,clock_5_4.png,3.0,44,,,,,,,,,,,,,,,,,,,,,,,,,,,,,,,,
0.0,1.0,0.57,0.0,16.0,16.0,16.0,1.0,footprint_11s.jpg,0.0,clock_5_5.png,3.0,44,,,,,,,,,,,,,,,,,,,,,,,,,,,,,,,,
0.0,1.0,0.742,0.0,17.0,17.0,17.0,1.0,rudder_02s.jpg,0.0,clock_7_1.png,4.0,44,,,,,,,,,,,,,,,,,,,,,,,,,,,,,,,,
0.0,1.0,0.554,0.0,18.0,18.0,18.0,1.0,tie_03s.jpg,0.0,clock_7_2.png,4.0,44,,,,,,,,,,,,,,,,,,,,,,,,,,,,,,,,
0.0,1.0,0.581,0.0,19.0,19.0,19.0,1.0,sea_urchin_09s.jpg,0.0,clock_7_3.png,4.0,44,,,,,,,,,,,,,,,,,,,,,,,,,,,,,,,,
0.0,1.0,0.513,0.0,20.0,20.0,20.0,1.0,bacon_05s.jpg,0.0,clock_7_4.png,4.0,44,,,,,,,,,,,,,,,,,,,,,,,,,,,,,,,,
0.0,1.0,0.553,0.0,21.0,21.0,21.0,1.0,peppermint_07s.jpg,0.0,clock_7_5.png,4.0,44,,,,,,,,,,,,,,,,,,,,,,,,,,,,,,,,
0.0,1.0,0.47,0.0,22.0,22.0,22.0,1.0,stingray_02s.jpg,0.0,clock_7_6.png,4.0,44,,,,,,,,,,,,,,,,,,,,,,,,,,,,,,,,
0.0,1.0,0.618,0.0,23.0,23.0,23.0,1.0,hyena_16s.jpg,0.0,clock_7_7.png,4.0,44,,,,,,,,,,,,,,,,,,,,,,,,,,,,,,,,
0.0,1.0,0.696,0.0,24.0,24.0,24.0,1.0,leotard_08s.jpg,0.0,clock_7_1.png,5.0,44,,,,,,,,,,,,,,,,,,,,,,,,,,,,,,,,
0.0,1.0,0.526,0.0,25.0,25.0,25.0,1.0,loveseat_08s.jpg,0.0,clock_7_2.png,5.0,44,,,,,,,,,,,,,,,,,,,,,,,,,,,,,,,,
0.0,1.0,0.5,0.0,26.0,26.0,26.0,1.0,jetski_10s.jpg,0.0,clock_7_3.png,5.0,44,,,,,,,,,,,,,,,,,,,,,,,,,,,,,,,,
0.0,1.0,0.62,0.0,27.0,27.0,27.0,1.0,police_car_01s.jpg,0.0,clock_7_4.png,5.0,44,,,,,,,,,,,,,,,,,,,,,,,,,,,,,,,,
1.0,1.0,0.797,0.0,28.0,28.0,28.0,1.0,loveseat_08s.jpg,1.0,clock_7_5.png,5.0,44,,,,,,,,,,,,,,,,,,,,,,,,,,,,,,,,
0.0,1.0,1.631,0.0,29.0,29.0,29.0,1.0,tie_03s.jpg,0.0,clock_7_6.png,5.0,44,,,,,,,,,,,,,,,,,,,,,,,,,,,,,,,,
0.0,1.0,0.563,0.0,30.0,30.0,30.0,1.0,smoothie_09s.jpg,0.0,clock_7_7.png,5.0,44,,,,,,,,,,,,,,,,,,,,,,,,,,,,,,,,
0.0,1.0,0.497,0.0,31.0,31.0,31.0,1.0,mosquito_12s.jpg,0.0,clock_5_1.png,6.0,44,,,,,,,,,,,,,,,,,,,,,,,,,,,,,,,,
0.0,1.0,0.545,0.0,32.0,32.0,32.0,1.0,badge_03s.jpg,0.0,clock_5_2.png,6.0,44,,,,,,,,,,,,,,,,,,,,,,,,,,,,,,,,
0.0,1.0,0.52,0.0,33.0,33.0,33.0,1.0,seagull_01b.jpg,0.0,clock_5_3.png,6.0,44,,,,,,,,,,,,,,,,,,,,,,,,,,,,,,,,
0.0,1.0,0.48,0.0,34.0,34.0,34.0,1.0,rhinoceros_02s.jpg,0.0,clock_5_4.png,6.0,44,,,,,,,,,,,,,,,,,,,,,,,,,,,,,,,,
1.0,1.0,1.485,0.0,35.0,35.0,35.0,1.0,badge_03s.jpg,1.0,clock_5_5.png,6.0,44,,,,,,,,,,,,,,,,,,,,,,,,,,,,,,,,
,,,,,,,,,0.0,,,44,0.0,1.0,1.773,0.0,0.0,0.0,0.0,1.0,pomegranate_04s.jpg,crab_16s.jpg,,,,,,,,,,,,,,,,,,,,,,
,,,,,,,,,1.0,,,44,0.0,0.0,2.381,0.0,1.0,1.0,1.0,1.0,exhaust_pipe_10s.jpg,chocolate_01b.jpg,,,,,,,,,,,,,,,,,,,,,,
,,,,,,,,,0.0,,,44,1.0,0.0,1.881,0.0,2.0,2.0,2.0,1.0,rudder_02s.jpg,tape_measure_11s.jpg,,,,,,,,,,,,,,,,,,,,,,
,,,,,,,,,0.0,,,44,1.0,0.0,1.182,0.0,3.0,3.0,3.0,1.0,rhinoceros_02s.jpg,mosquito_12s.jpg,,,,,,,,,,,,,,,,,,,,,,
,,,,,,,,,0.0,,,44,0.0,1.0,1.581,0.0,4.0,4.0,4.0,1.0,stingray_02s.jpg,sea_urchin_09s.jpg,,,,,,,,,,,,,,,,,,,,,,
,,,,,,,,,1.0,,,44,0.0,0.0,2.885,0.0,5.0,5.0,5.0,1.0,bacon_05s.jpg,hyena_16s.jpg,,,,,,,,,,,,,,,,,,,,,,
,,,,,,,,,,,,44,,,,,,,,,,,0.0,0.0,0.0,0.0,1.0,clockno_present_1_2.xlsx,clockno_compare_task_1_2.xlsx,,,,,,,,,,,,,,,
0.0,1.0,0.874,0.0,0.0,0.0,0.0,1.0,onion_10s.jpg,0.0,clockno_up.jpg,1.0,44,,,,,,,,,,,,,,,,,,,,,,,,,,,,,,,,
0.0,1.0,0.683,0.0,1.0,1.0,1.0,1.0,fire_alarm_05s.jpg,0.0,clockno_default.jpg,1.0,44,,,,,,,,,,,,,,,,,,,,,,,,,,,,,,,,
0.0,1.0,0.473,0.0,2.0,2.0,2.0,1.0,diving_board_07s.jpg,0.0,clockno_default.jpg,1.0,44,,,,,,,,,,,,,,,,,,,,,,,,,,,,,,,,
0.0,1.0,0.736,0.0,3.0,3.0,3.0,1.0,turnstile_08s.jpg,0.0,clockno_default.jpg,1.0,44,,,,,,,,,,,,,,,,,,,,,,,,,,,,,,,,
1.0,1.0,0.755,0.0,4.0,4.0,4.0,1.0,onion_10s.jpg,1.0,clockno_default.jpg,1.0,44,,,,,,,,,,,,,,,,,,,,,,,,,,,,,,,,
0.0,1.0,0.631,0.0,5.0,5.0,5.0,1.0,tripod_01b.jpg,0.0,clockno_default.jpg,1.0,44,,,,,,,,,,,,,,,,,,,,,,,,,,,,,,,,
0.0,1.0,0.752,0.0,6.0,6.0,6.0,1.0,solar_panel_02s.jpg,0.0,clockno_default.jpg,1.0,44,,,,,,,,,,,,,,,,,,,,,,,,,,,,,,,,
0.0,1.0,0.478,0.0,7.0,7.0,7.0,1.0,kimono_13s.jpg,0.0,clockno_up.jpg,2.0,44,,,,,,,,,,,,,,,,,,,,,,,,,,,,,,,,
0.0,1.0,0.454,0.0,8.0,8.0,8.0,1.0,puppy_08s.jpg,0.0,clockno_default.jpg,2.0,44,,,,,,,,,,,,,,,,,,,,,,,,,,,,,,,,
0.0,1.0,0.378,0.0,9.0,9.0,9.0,1.0,sundae_08s.jpg,0.0,clockno_default.jpg,2.0,44,,,,,,,,,,,,,,,,,,,,,,,,,,,,,,,,
0.0,1.0,0.497,0.0,10.0,10.0,10.0,1.0,go-kart_10s.jpg,0.0,clockno_default.jpg,2.0,44,,,,,,,,,,,,,,,,,,,,,,,,,,,,,,,,
0.0,1.0,0.511,0.0,11.0,11.0,11.0,1.0,chalice_10s.jpg,0.0,clockno_default.jpg,2.0,44,,,,,,,,,,,,,,,,,,,,,,,,,,,,,,,,
0.0,1.0,0.468,0.0,12.0,12.0,12.0,1.0,rope_16s.jpg,0.0,clockno_up.jpg,3.0,44,,,,,,,,,,,,,,,,,,,,,,,,,,,,,,,,
0.0,1.0,0.43,0.0,13.0,13.0,13.0,1.0,muffin_12n.jpg,0.0,clockno_default.jpg,3.0,44,,,,,,,,,,,,,,,,,,,,,,,,,,,,,,,,
0.0,1.0,0.477,0.0,14.0,14.0,14.0,1.0,typewriter_11s.jpg,0.0,clockno_default.jpg,3.0,44,,,,,,,,,,,,,,,,,,,,,,,,,,,,,,,,
0.0,1.0,0.529,0.0,15.0,15.0,15.0,1.0,key_07s.jpg,0.0,clockno_default.jpg,3.0,44,,,,,,,,,,,,,,,,,,,,,,,,,,,,,,,,
0.0,1.0,0.429,0.0,16.0,16.0,16.0,1.0,mannequin_05s.jpg,0.0,clockno_default.jpg,3.0,44,,,,,,,,,,,,,,,,,,,,,,,,,,,,,,,,
0.0,1.0,0.48,0.0,17.0,17.0,17.0,1.0,tupperware_09s.jpg,0.0,clockno_default.jpg,3.0,44,,,,,,,,,,,,,,,,,,,,,,,,,,,,,,,,
0.0,1.0,0.568,0.0,18.0,18.0,18.0,1.0,sleeping_bag_12s.jpg,0.0,clockno_default.jpg,3.0,44,,,,,,,,,,,,,,,,,,,,,,,,,,,,,,,,
0.0,1.0,0.679,0.0,19.0,19.0,19.0,1.0,lemonade_04s.jpg,0.0,clockno_up.jpg,4.0,44,,,,,,,,,,,,,,,,,,,,,,,,,,,,,,,,
0.0,1.0,0.57,0.0,20.0,20.0,20.0,1.0,pretzel_09s.jpg,0.0,clockno_default.jpg,4.0,44,,,,,,,,,,,,,,,,,,,,,,,,,,,,,,,,
0.0,1.0,0.462,0.0,21.0,21.0,21.0,1.0,jet_15s.jpg,0.0,clockno_default.jpg,4.0,44,,,,,,,,,,,,,,,,,,,,,,,,,,,,,,,,
0.0,1.0,0.498,0.0,22.0,22.0,22.0,1.0,flip_flop_03s.jpg,0.0,clockno_default.jpg,4.0,44,,,,,,,,,,,,,,,,,,,,,,,,,,,,,,,,
0.0,1.0,0.563,0.0,23.0,23.0,23.0,1.0,air_pump_05s.jpg,0.0,clockno_default.jpg,4.0,44,,,,,,,,,,,,,,,,,,,,,,,,,,,,,,,,
0.0,1.0,0.514,0.0,24.0,24.0,24.0,1.0,tripod_01b.jpg,0.0,clockno_default.jpg,4.0,44,,,,,,,,,,,,,,,,,,,,,,,,,,,,,,,,
0.0,1.0,0.463,0.0,25.0,25.0,25.0,1.0,undershirt_02s.jpg,0.0,clockno_up.jpg,5.0,44,,,,,,,,,,,,,,,,,,,,,,,,,,,,,,,,
1.0,1.0,1.251,0.0,26.0,26.0,26.0,1.0,undershirt_02s.jpg,1.0,clockno_default.jpg,5.0,44,,,,,,,,,,,,,,,,,,,,,,,,,,,,,,,,
0.0,1.0,0.696,0.0,27.0,27.0,27.0,1.0,bank_06s.jpg,0.0,clockno_default.jpg,5.0,44,,,,,,,,,,,,,,,,,,,,,,,,,,,,,,,,
1.0,1.0,0.739,0.0,28.0,28.0,28.0,1.0,undershirt_02s.jpg,1.0,clockno_default.jpg,5.0,44,,,,,,,,,,,,,,,,,,,,,,,,,,,,,,,,
0.0,1.0,0.547,0.0,29.0,29.0,29.0,1.0,lavender_10s.jpg,0.0,clockno_default.jpg,5.0,44,,,,,,,,,,,,,,,,,,,,,,,,,,,,,,,,
0.0,1.0,0.612,0.0,30.0,30.0,30.0,1.0,sparkler_02s.jpg,0.0,clockno_up.jpg,6.0,44,,,,,,,,,,,,,,,,,,,,,,,,,,,,,,,,
1.0,1.0,0.731,0.0,31.0,31.0,31.0,1.0,sparkler_02s.jpg,1.0,clockno_default.jpg,6.0,44,,,,,,,,,,,,,,,,,,,,,,,,,,,,,,,,
0.0,1.0,0.435,0.0,32.0,32.0,32.0,1.0,omelet_07s.jpg,0.0,clockno_default.jpg,6.0,44,,,,,,,,,,,,,,,,,,,,,,,,,,,,,,,,
0.0,1.0,0.555,0.0,33.0,33.0,33.0,1.0,bathtub_23s.jpg,0.0,clockno_default.jpg,6.0,44,,,,,,,,,,,,,,,,,,,,,,,,,,,,,,,,
0.0,1.0,0.578,0.0,34.0,34.0,34.0,1.0,crate_05s.jpg,0.0,clockno_default.jpg,6.0,44,,,,,,,,,,,,,,,,,,,,,,,,,,,,,,,,
0.0,1.0,0.644,0.0,35.0,35.0,35.0,1.0,rocking_horse_03s.jpg,0.0,clockno_default.jpg,6.0,44,,,,,,,,,,,,,,,,,,,,,,,,,,,,,,,,
,,,,,,,,,1.0,,,44,1.0,1.0,1.442,0.0,0.0,0.0,0.0,1.0,solar_panel_02s.jpg,sundae_08s.jpg,,,,,,,,,,,,,,,,,,,,,,
,,,,,,,,,1.0,,,44,1.0,1.0,4.139,0.0,1.0,1.0,1.0,1.0,sleeping_bag_12s.jpg,jet_15s.jpg,,,,,,,,,,,,,,,,,,,,,,
,,,,,,,,,0.0,,,44,0.0,1.0,1.389,0.0,2.0,2.0,2.0,1.0,omelet_07s.jpg,lavender_10s.jpg,,,,,,,,,,,,,,,,,,,,,,
,,,,,,,,,0.0,,,44,0.0,1.0,1.782,0.0,3.0,3.0,3.0,1.0,go-kart_10s.jpg,kimono_13s.jpg,,,,,,,,,,,,,,,,,,,,,,
,,,,,,,,,0.0,,,44,1.0,0.0,1.515,0.0,4.0,4.0,4.0,1.0,chalice_10s.jpg,puppy_08s.jpg,,,,,,,,,,,,,,,,,,,,,,
,,,,,,,,,1.0,,,44,1.0,1.0,1.365,0.0,5.0,5.0,5.0,1.0,rope_16s.jpg,key_07s.jpg,,,,,,,,,,,,,,,,,,,,,,
,,,,,,,,,,,,44,,,,,,,,,,,0.0,1.0,1.0,1.0,1.0,clockno_present_2_2.xlsx,clockno_compare_task_2_2.xlsx,,,,,,,,,,,,,,,
0.0,1.0,1.693,0.0,0.0,0.0,0.0,1.0,cushion_08s.jpg,0.0,clockno_up.jpg,1.0,44,,,,,,,,,,,,,,,,,,,,,,,,,,,,,,,,
0.0,1.0,0.983,0.0,1.0,1.0,1.0,1.0,eyedropper_12s.jpg,0.0,clockno_default.jpg,1.0,44,,,,,,,,,,,,,,,,,,,,,,,,,,,,,,,,
0.0,1.0,0.678,0.0,2.0,2.0,2.0,1.0,projector_08s.jpg,0.0,clockno_default.jpg,1.0,44,,,,,,,,,,,,,,,,,,,,,,,,,,,,,,,,
1.0,1.0,0.696,0.0,3.0,3.0,3.0,1.0,projector_08s.jpg,1.0,clockno_default.jpg,1.0,44,,,,,,,,,,,,,,,,,,,,,,,,,,,,,,,,
0.0,1.0,0.619,0.0,4.0,4.0,4.0,1.0,doily_13s.jpg,0.0,clockno_default.jpg,1.0,44,,,,,,,,,,,,,,,,,,,,,,,,,,,,,,,,
0.0,1.0,0.649,0.0,5.0,5.0,5.0,1.0,dirt_bike_11s.jpg,0.0,clockno_up.jpg,2.0,44,,,,,,,,,,,,,,,,,,,,,,,,,,,,,,,,
0.0,1.0,0.598,0.0,6.0,6.0,6.0,1.0,pocket_watch_16s.jpg,0.0,clockno_default.jpg,2.0,44,,,,,,,,,,,,,,,,,,,,,,,,,,,,,,,,
0.0,1.0,0.483,0.0,7.0,7.0,7.0,1.0,lifesaver_10s.jpg,0.0,clockno_default.jpg,2.0,44,,,,,,,,,,,,,,,,,,,,,,,,,,,,,,,,
0.0,1.0,0.753,0.0,8.0,8.0,8.0,1.0,microwave_02s.jpg,0.0,clockno_default.jpg,2.0,44,,,,,,,,,,,,,,,,,,,,,,,,,,,,,,,,
0.0,1.0,0.662,0.0,9.0,9.0,9.0,1.0,rice_12s.jpg,0.0,clockno_default.jpg,2.0,44,,,,,,,,,,,,,,,,,,,,,,,,,,,,,,,,
0.0,1.0,0.579,0.0,10.0,10.0,10.0,1.0,mattress_01s.jpg,0.0,clockno_default.jpg,2.0,44,,,,,,,,,,,,,,,,,,,,,,,,,,,,,,,,
0.0,1.0,0.638,0.0,11.0,11.0,11.0,1.0,seahorse_13s.jpg,0.0,clockno_default.jpg,2.0,44,,,,,,,,,,,,,,,,,,,,,,,,,,,,,,,,
0.0,1.0,0.771,0.0,12.0,12.0,12.0,1.0,hummingbird_05s.jpg,0.0,clockno_up.jpg,3.0,44,,,,,,,,,,,,,,,,,,,,,,,,,,,,,,,,
0.0,1.0,0.534,0.0,13.0,13.0,13.0,1.0,pepper_mill_03s.jpg,0.0,clockno_default.jpg,3.0,44,,,,,,,,,,,,,,,,,,,,,,,,,,,,,,,,
0.0,1.0,0.702,0.0,14.0,14.0,14.0,1.0,prism_10s.jpg,0.0,clockno_default.jpg,3.0,44,,,,,,,,,,,,,,,,,,,,,,,,,,,,,,,,
1.0,1.0,1.355,0.0,15.0,15.0,15.0,1.0,pepper_mill_03s.jpg,1.0,clockno_default.jpg,3.0,44,,,,,,,,,,,,,,,,,,,,,,,,,,,,,,,,
0.0,1.0,0.729,0.0,16.0,16.0,16.0,1.0,taxi_15s.jpg,0.0,clockno_default.jpg,3.0,44,,,,,,,,,,,,,,,,,,,,,,,,,,,,,,,,
0.0,1.0,0.532,0.0,17.0,17.0,17.0,1.0,amber_04s.jpg,0.0,clockno_up.jpg,4.0,44,,,,,,,,,,,,,,,,,,,,,,,,,,,,,,,,
0.0,1.0,0.662,0.0,18.0,18.0,18.0,1.0,frog_09s.jpg,0.0,clockno_default.jpg,4.0,44,,,,,,,,,,,,,,,,,,,,,,,,,,,,,,,,
0.0,1.0,0.463,0.0,19.0,19.0,19.0,1.0,ruby_15s.jpg,0.0,clockno_default.jpg,4.0,44,,,,,,,,,,,,,,,,,,,,,,,,,,,,,,,,
1.0,1.0,1.39,0.0,20.0,20.0,20.0,1.0,amber_04s.jpg,1.0,clockno_default.jpg,4.0,44,,,,,,,,,,,,,,,,,,,,,,,,,,,,,,,,
0.0,1.0,0.563,0.0,21.0,21.0,21.0,1.0,peach_04s.jpg,0.0,clockno_default.jpg,4.0,44,,,,,,,,,,,,,,,,,,,,,,,,,,,,,,,,
0.0,1.0,0.553,0.0,22.0,22.0,22.0,1.0,kilt_18s.jpg,0.0,clockno_default.jpg,4.0,44,,,,,,,,,,,,,,,,,,,,,,,,,,,,,,,,
0.0,1.0,0.679,0.0,23.0,23.0,23.0,1.0,bee_20s.jpg,0.0,clockno_up.jpg,5.0,44,,,,,,,,,,,,,,,,,,,,,,,,,,,,,,,,
0.0,1.0,0.516,0.0,24.0,24.0,24.0,1.0,chopsticks_08s.jpg,0.0,clockno_default.jpg,5.0,44,,,,,,,,,,,,,,,,,,,,,,,,,,,,,,,,
1.0,1.0,1.318,0.0,25.0,25.0,25.0,1.0,bee_20s.jpg,1.0,clockno_default.jpg,5.0,44,,,,,,,,,,,,,,,,,,,,,,,,,,,,,,,,
0.0,1.0,0.521,0.0,26.0,26.0,26.0,1.0,throne_11s.jpg,0.0,clockno_default.jpg,5.0,44,,,,,,,,,,,,,,,,,,,,,,,,,,,,,,,,
0.0,1.0,0.497,0.0,27.0,27.0,27.0,1.0,marker_05s.jpg,0.0,clockno_default.jpg,5.0,44,,,,,,,,,,,,,,,,,,,,,,,,,,,,,,,,
0.0,1.0,0.555,0.0,28.0,28.0,28.0,1.0,rock_08s.jpg,0.0,clockno_default.jpg,5.0,44,,,,,,,,,,,,,,,,,,,,,,,,,,,,,,,,
0.0,1.0,0.663,0.0,29.0,29.0,29.0,1.0,rake_06s.jpg,0.0,clockno_default.jpg,5.0,44,,,,,,,,,,,,,,,,,,,,,,,,,,,,,,,,
0.0,1.0,0.83,0.0,30.0,30.0,30.0,1.0,contact_lens_15s.jpg,0.0,clockno_up.jpg,6.0,44,,,,,,,,,,,,,,,,,,,,,,,,,,,,,,,,
0.0,1.0,0.854,0.0,31.0,31.0,31.0,1.0,ice_pack_09s.jpg,0.0,clockno_default.jpg,6.0,44,,,,,,,,,,,,,,,,,,,,,,,,,,,,,,,,
0.0,1.0,0.829,0.0,32.0,32.0,32.0,1.0,pinwheel_06s.jpg,0.0,clockno_default.jpg,6.0,44,,,,,,,,,,,,,,,,,,,,,,,,,,,,,,,,
0.0,1.0,0.542,0.0,33.0,33.0,33.0,1.0,antenna_01b.jpg,0.0,clockno_default.jpg,6.0,44,,,,,,,,,,,,,,,,,,,,,,,,,,,,,,,,
0.0,1.0,0.53,0.0,34.0,34.0,34.0,1.0,fireworks_18s.jpg,0.0,clockno_default.jpg,6.0,44,,,,,,,,,,,,,,,,,,,,,,,,,,,,,,,,
0.0,1.0,0.662,0.0,35.0,35.0,35.0,1.0,knitting_needle_04s.jpg,0.0,clockno_default.jpg,6.0,44,,,,,,,,,,,,,,,,,,,,,,,,,,,,,,,,
,,,,,,,,,1.0,,,44,0.0,0.0,1.627,0.0,0.0,0.0,0.0,1.0,rice_12s.jpg,hummingbird_05s.jpg,,,,,,,,,,,,,,,,,,,,,,
,,,,,,,,,1.0,,,44,0.0,0.0,2.086,0.0,1.0,1.0,1.0,1.0,seahorse_13s.jpg,prism_10s.jpg,,,,,,,,,,,,,,,,,,,,,,
,,,,,,,,,1.0,,,44,1.0,1.0,1.655,0.0,2.0,2.0,2.0,1.0,taxi_15s.jpg,ruby_15s.jpg,,,,,,,,,,,,,,,,,,,,,,
,,,,,,,,,0.0,,,44,1.0,0.0,1.431,0.0,3.0,3.0,3.0,1.0,microwave_02s.jpg,dirt_bike_11s.jpg,,,,,,,,,,,,,,,,,,,,,,
,,,,,,,,,0.0,,,44,1.0,0.0,1.455,0.0,4.0,4.0,4.0,1.0,doily_13s.jpg,eyedropper_12s.jpg,,,,,,,,,,,,,,,,,,,,,,
,,,,,,,,,1.0,,,44,1.0,1.0,2.054,0.0,5.0,5.0,5.0,1.0,lifesaver_10s.jpg,mattress_01s.jpg,,,,,,,,,,,,,,,,,,,,,,
,,,,,,,,,,,,44,,,,,,,,,,,0.0,2.0,2.0,2.0,1.0,clockno_present_3_2.xlsx,clockno_compare_task_3_2.xlsx,,,,,,,,,,,,,,,
0.0,1.0,1.324,0.0,0.0,0.0,0.0,1.0,crayon_09s.jpg,0.0,clockno_up.jpg,1.0,44,,,,,,,,,,,,,,,,,,,,,,,,,,,,,,,,
0.0,1.0,0.829,0.0,1.0,1.0,1.0,1.0,gargoyle_08s.jpg,0.0,clockno_default.jpg,1.0,44,,,,,,,,,,,,,,,,,,,,,,,,,,,,,,,,
1.0,1.0,0.904,0.0,2.0,2.0,2.0,1.0,gargoyle_08s.jpg,1.0,clockno_default.jpg,1.0,44,,,,,,,,,,,,,,,,,,,,,,,,,,,,,,,,
,0.0,,0.0,3.0,3.0,3.0,1.0,ticktacktoe_08s.jpg,0.0,clockno_default.jpg,1.0,44,,,,,,,,,,,,,,,,,,,,,,,,,,,,,,,,
0.0,1.0,1.68,0.0,4.0,4.0,4.0,1.0,pencil_sharpener_09n.jpg,0.0,clockno_default.jpg,1.0,44,,,,,,,,,,,,,,,,,,,,,,,,,,,,,,,,
0.0,1.0,1.618,0.0,5.0,5.0,5.0,1.0,pump_11s.jpg,0.0,clockno_up.jpg,2.0,44,,,,,,,,,,,,,,,,,,,,,,,,,,,,,,,,
0.0,1.0,1.468,0.0,6.0,6.0,6.0,1.0,raspberry_12s.jpg,0.0,clockno_default.jpg,2.0,44,,,,,,,,,,,,,,,,,,,,,,,,,,,,,,,,
0.0,1.0,1.199,0.0,7.0,7.0,7.0,1.0,red_carpet_03s.jpg,0.0,clockno_default.jpg,2.0,44,,,,,,,,,,,,,,,,,,,,,,,,,,,,,,,,
,0.0,,0.0,8.0,8.0,8.0,1.0,pencil_sharpener_09n.jpg,0.0,clockno_default.jpg,2.0,44,,,,,,,,,,,,,,,,,,,,,,,,,,,,,,,,
0.0,1.0,1.23,0.0,9.0,9.0,9.0,1.0,plunger_08s.jpg,0.0,clockno_default.jpg,2.0,44,,,,,,,,,,,,,,,,,,,,,,,,,,,,,,,,
0.0,1.0,0.712,0.0,10.0,10.0,10.0,1.0,cucumber_07s.jpg,0.0,clockno_default.jpg,2.0,44,,,,,,,,,,,,,,,,,,,,,,,,,,,,,,,,
0.0,0.0,1.414,0.0,11.0,11.0,11.0,1.0,pump_11s.jpg,1.0,clockno_default.jpg,2.0,44,,,,,,,,,,,,,,,,,,,,,,,,,,,,,,,,
0.0,1.0,0.731,0.0,12.0,12.0,12.0,1.0,pocketknife_12s.jpg,0.0,clockno_up.jpg,3.0,44,,,,,,,,,,,,,,,,,,,,,,,,,,,,,,,,
0.0,1.0,0.537,0.0,13.0,13.0,13.0,1.0,roller_coaster_07s.jpg,0.0,clockno_default.jpg,3.0,44,,,,,,,,,,,,,,,,,,,,,,,,,,,,,,,,
0.0,1.0,0.628,0.0,14.0,14.0,14.0,1.0,golf_club_03s.jpg,0.0,clockno_default.jpg,3.0,44,,,,,,,,,,,,,,,,,,,,,,,,,,,,,,,,
0.0,1.0,0.686,0.0,15.0,15.0,15.0,1.0,rosary_03s.jpg,0.0,clockno_default.jpg,3.0,44,,,,,,,,,,,,,,,,,,,,,,,,,,,,,,,,
0.0,0.0,0.536,0.0,16.0,16.0,16.0,1.0,roller_coaster_07s.jpg,1.0,clockno_default.jpg,3.0,44,,,,,,,,,,,,,,,,,,,,,,,,,,,,,,,,
1.0,1.0,1.565,0.0,17.0,17.0,17.0,1.0,pocketknife_12s.jpg,1.0,clockno_default.jpg,3.0,44,,,,,,,,,,,,,,,,,,,,,,,,,,,,,,,,
,0.0,,0.0,18.0,18.0,18.0,1.0,gas_mask_11s.jpg,0.0,clockno_up.jpg,4.0,44,,,,,,,,,,,,,,,,,,,,,,,,,,,,,,,,
0.0,1.0,0.886,0.0,19.0,19.0,19.0,1.0,polaroid_05s.jpg,0.0,clockno_default.jpg,4.0,44,,,,,,,,,,,,,,,,,,,,,,,,,,,,,,,,
0.0,1.0,0.597,0.0,20.0,20.0,20.0,1.0,rocking_chair_05s.jpg,0.0,clockno_default.jpg,4.0,44,,,,,,,,,,,,,,,,,,,,,,,,,,,,,,,,
0.0,1.0,0.514,0.0,21.0,21.0,21.0,1.0,pacifier_09s.jpg,0.0,clockno_default.jpg,4.0,44,,,,,,,,,,,,,,,,,,,,,,,,,,,,,,,,
0.0,1.0,0.597,0.0,22.0,22.0,22.0,1.0,loom_05s.jpg,0.0,clockno_default.jpg,4.0,44,,,,,,,,,,,,,,,,,,,,,,,,,,,,,,,,
0.0,1.0,0.716,0.0,23.0,23.0,23.0,1.0,bubble_01b.jpg,0.0,clockno_default.jpg,4.0,44,,,,,,,,,,,,,,,,,,,,,,,,,,,,,,,,
0.0,0.0,0.514,0.0,24.0,24.0,24.0,1.0,rocking_chair_05s.jpg,1.0,clockno_default.jpg,4.0,44,,,,,,,,,,,,,,,,,,,,,,,,,,,,,,,,
0.0,1.0,0.601,0.0,25.0,25.0,25.0,1.0,hydrant_10s.jpg,0.0,clockno_up.jpg,5.0,44,,,,,,,,,,,,,,,,,,,,,,,,,,,,,,,,
0.0,1.0,0.696,0.0,26.0,26.0,26.0,1.0,oil_02s.jpg,0.0,clockno_default.jpg,5.0,44,,,,,,,,,,,,,,,,,,,,,,,,,,,,,,,,
0.0,1.0,0.616,0.0,27.0,27.0,27.0,1.0,racehorse_03s.jpg,0.0,clockno_default.jpg,5.0,44,,,,,,,,,,,,,,,,,,,,,,,,,,,,,,,,
0.0,1.0,0.728,0.0,28.0,28.0,28.0,1.0,mussel_11s.jpg,0.0,clockno_default.jpg,5.0,44,,,,,,,,,,,,,,,,,,,,,,,,,,,,,,,,
0.0,1.0,0.498,0.0,29.0,29.0,29.0,1.0,raspberry_12s.jpg,0.0,clockno_default.jpg,5.0,44,,,,,,,,,,,,,,,,,,,,,,,,,,,,,,,,
0.0,1.0,0.569,0.0,30.0,30.0,30.0,1.0,paper_bag_12s.jpg,0.0,clockno_up.jpg,6.0,44,,,,,,,,,,,,,,,,,,,,,,,,,,,,,,,,
0.0,1.0,0.784,0.0,31.0,31.0,31.0,1.0,flask_04s.jpg,0.0,clockno_default.jpg,6.0,44,,,,,,,,,,,,,,,,,,,,,,,,,,,,,,,,
0.0,1.0,0.546,0.0,32.0,32.0,32.0,1.0,triangle_10s.jpg,0.0,clockno_default.jpg,6.0,44,,,,,,,,,,,,,,,,,,,,,,,,,,,,,,,,
0.0,1.0,0.647,0.0,33.0,33.0,33.0,1.0,sugar_cube_11s.jpg,0.0,clockno_default.jpg,6.0,44,,,,,,,,,,,,,,,,,,,,,,,,,,,,,,,,
0.0,1.0,0.996,0.0,34.0,34.0,34.0,1.0,thread_08s.jpg,0.0,clockno_default.jpg,6.0,44,,,,,,,,,,,,,,,,,,,,,,,,,,,,,,,,
0.0,1.0,0.48,0.0,35.0,35.0,35.0,1.0,kitten_07s.jpg,0.0,clockno_default.jpg,6.0,44,,,,,,,,,,,,,,,,,,,,,,,,,,,,,,,,
,,,,,,,,,0.0,,,44,0.0,1.0,2.403,0.0,0.0,0.0,0.0,1.0,oil_02s.jpg,bubble_01b.jpg,,,,,,,,,,,,,,,,,,,,,,
,,,,,,,,,0.0,,,44,1.0,0.0,1.321,0.0,1.0,1.0,1.0,1.0,gas_mask_11s.jpg,rosary_03s.jpg,,,,,,,,,,,,,,,,,,,,,,
,,,,,,,,,0.0,,,44,0.0,1.0,1.698,0.0,2.0,2.0,2.0,1.0,paper_bag_12s.jpg,racehorse_03s.jpg,,,,,,,,,,,,,,,,,,,,,,
,,,,,,,,,0.0,,,44,0.0,1.0,1.387,0.0,3.0,3.0,3.0,1.0,ticktacktoe_08s.jpg,crayon_09s.jpg,,,,,,,,,,,,,,,,,,,,,,
,,,,,,,,,0.0,,,44,1.0,0.0,1.048,0.0,4.0,4.0,4.0,1.0,cucumber_07s.jpg,red_carpet_03s.jpg,,,,,,,,,,,,,,,,,,,,,,
,,,,,,,,,1.0,,,44,1.0,1.0,1.471,0.0,5.0,5.0,5.0,1.0,triangle_10s.jpg,kitten_07s.jpg,,,,,,,,,,,,,,,,,,,,,,
,,,,,,,,,,,,44,,,,,,,,,,,0.0,3.0,3.0,3.0,1.0,clockno_present_4_2.xlsx,clockno_compare_task_4_2.xlsx,,,,,,,,,,,,,,,
0.0,1.0,0.736,0.0,0.0,0.0,0.0,1.0,limousine_12s.jpg,0.0,clockno_up.jpg,1.0,44,,,,,,,,,,,,,,,,,,,,,,,,,,,,,,,,
0.0,1.0,0.518,0.0,1.0,1.0,1.0,1.0,memory_stick_11s.jpg,0.0,clockno_default.jpg,1.0,44,,,,,,,,,,,,,,,,,,,,,,,,,,,,,,,,
1.0,1.0,1.501,0.0,2.0,2.0,2.0,1.0,memory_stick_11s.jpg,1.0,clockno_default.jpg,1.0,44,,,,,,,,,,,,,,,,,,,,,,,,,,,,,,,,
1.0,1.0,0.903,0.0,3.0,3.0,3.0,1.0,limousine_12s.jpg,1.0,clockno_default.jpg,1.0,44,,,,,,,,,,,,,,,,,,,,,,,,,,,,,,,,
0.0,1.0,0.861,0.0,4.0,4.0,4.0,1.0,juicer1_08s.jpg,0.0,clockno_default.jpg,1.0,44,,,,,,,,,,,,,,,,,,,,,,,,,,,,,,,,
0.0,1.0,0.631,0.0,5.0,5.0,5.0,1.0,lipstick_02s.jpg,0.0,clockno_default.jpg,1.0,44,,,,,,,,,,,,,,,,,,,,,,,,,,,,,,,,
0.0,1.0,0.817,0.0,6.0,6.0,6.0,1.0,possum_09s.jpg,0.0,clockno_up.jpg,2.0,44,,,,,,,,,,,,,,,,,,,,,,,,,,,,,,,,
0.0,1.0,0.912,0.0,7.0,7.0,7.0,1.0,mug_06s.jpg,0.0,clockno_default.jpg,2.0,44,,,,,,,,,,,,,,,,,,,,,,,,,,,,,,,,
0.0,1.0,0.651,0.0,8.0,8.0,8.0,1.0,pepper2_21s.jpg,0.0,clockno_default.jpg,2.0,44,,,,,,,,,,,,,,,,,,,,,,,,,,,,,,,,
0.0,1.0,0.581,0.0,9.0,9.0,9.0,1.0,lab_coat_11s.jpg,0.0,clockno_default.jpg,2.0,44,,,,,,,,,,,,,,,,,,,,,,,,,,,,,,,,
0.0,1.0,1.588,0.0,10.0,10.0,10.0,1.0,tambourine_06s.jpg,0.0,clockno_default.jpg,2.0,44,,,,,,,,,,,,,,,,,,,,,,,,,,,,,,,,
0.0,1.0,1.23,0.0,11.0,11.0,11.0,1.0,ostrich_06s.jpg,0.0,clockno_up.jpg,3.0,44,,,,,,,,,,,,,,,,,,,,,,,,,,,,,,,,
0.0,1.0,0.513,0.0,12.0,12.0,12.0,1.0,incense_02s.jpg,0.0,clockno_default.jpg,3.0,44,,,,,,,,,,,,,,,,,,,,,,,,,,,,,,,,
0.0,1.0,0.713,0.0,13.0,13.0,13.0,1.0,treasure_08s.jpg,0.0,clockno_default.jpg,3.0,44,,,,,,,,,,,,,,,,,,,,,,,,,,,,,,,,
0.0,1.0,0.615,0.0,14.0,14.0,14.0,1.0,medal_04s.jpg,0.0,clockno_default.jpg,3.0,44,,,,,,,,,,,,,,,,,,,,,,,,,,,,,,,,
0.0,1.0,0.635,0.0,15.0,15.0,15.0,1.0,pencil02a.jpg,0.0,clockno_default.jpg,3.0,44,,,,,,,,,,,,,,,,,,,,,,,,,,,,,,,,
0.0,1.0,0.964,0.0,16.0,16.0,16.0,1.0,toothpaste_12s.jpg,0.0,clockno_default.jpg,3.0,44,,,,,,,,,,,,,,,,,,,,,,,,,,,,,,,,
0.0,1.0,0.696,0.0,17.0,17.0,17.0,1.0,metronome_03s.jpg,0.0,clockno_default.jpg,3.0,44,,,,,,,,,,,,,,,,,,,,,,,,,,,,,,,,
0.0,1.0,0.646,0.0,18.0,18.0,18.0,1.0,meatball_13s.jpg,0.0,clockno_up.jpg,4.0,44,,,,,,,,,,,,,,,,,,,,,,,,,,,,,,,,
0.0,1.0,0.551,0.0,19.0,19.0,19.0,1.0,ink_08s.jpg,0.0,clockno_default.jpg,4.0,44,,,,,,,,,,,,,,,,,,,,,,,,,,,,,,,,
0.0,0.0,0.632,0.0,20.0,20.0,20.0,1.0,meatball_13s.jpg,1.0,clockno_default.jpg,4.0,44,,,,,,,,,,,,,,,,,,,,,,,,,,,,,,,,
0.0,1.0,0.601,0.0,21.0,21.0,21.0,1.0,lamb_04s.jpg,0.0,clockno_default.jpg,4.0,44,,,,,,,,,,,,,,,,,,,,,,,,,,,,,,,,
0.0,1.0,0.501,0.0,22.0,22.0,22.0,1.0,teabag_12s.jpg,0.0,clockno_default.jpg,4.0,44,,,,,,,,,,,,,,,,,,,,,,,,,,,,,,,,
1.0,1.0,1.399,0.0,23.0,23.0,23.0,1.0,ink_08s.jpg,1.0,clockno_default.jpg,4.0,44,,,,,,,,,,,,,,,,,,,,,,,,,,,,,,,,
0.0,1.0,0.481,0.0,24.0,24.0,24.0,1.0,touchpad_11s.jpg,0.0,clockno_up.jpg,5.0,44,,,,,,,,,,,,,,,,,,,,,,,,,,,,,,,,
1.0,1.0,1.221,0.0,25.0,25.0,25.0,1.0,touchpad_11s.jpg,1.0,clockno_default.jpg,5.0,44,,,,,,,,,,,,,,,,,,,,,,,,,,,,,,,,
0.0,1.0,0.78,0.0,26.0,26.0,26.0,1.0,potpourri_03s.jpg,0.0,clockno_default.jpg,5.0,44,,,,,,,,,,,,,,,,,,,,,,,,,,,,,,,,
0.0,1.0,0.696,0.0,27.0,27.0,27.0,1.0,knot_01b.jpg,0.0,clockno_default.jpg,5.0,44,,,,,,,,,,,,,,,,,,,,,,,,,,,,,,,,
0.0,1.0,0.931,0.0,28.0,28.0,28.0,1.0,toothpaste_12s.jpg,0.0,clockno_default.jpg,5.0,44,,,,,,,,,,,,,,,,,,,,,,,,,,,,,,,,
1.0,1.0,1.181,0.0,29.0,29.0,29.0,1.0,toothpaste_12s.jpg,1.0,clockno_default.jpg,5.0,44,,,,,,,,,,,,,,,,,,,,,,,,,,,,,,,,
0.0,0.0,0.648,0.0,30.0,30.0,30.0,1.0,touchpad_11s.jpg,1.0,clockno_default.jpg,5.0,44,,,,,,,,,,,,,,,,,,,,,,,,,,,,,,,,
0.0,1.0,0.562,0.0,31.0,31.0,31.0,1.0,reindeer_08s.jpg,0.0,clockno_up.jpg,6.0,44,,,,,,,,,,,,,,,,,,,,,,,,,,,,,,,,
1.0,1.0,1.399,0.0,32.0,32.0,32.0,1.0,reindeer_08s.jpg,1.0,clockno_default.jpg,6.0,44,,,,,,,,,,,,,,,,,,,,,,,,,,,,,,,,
0.0,1.0,1.548,0.0,33.0,33.0,33.0,1.0,popcorn_09s.jpg,0.0,clockno_default.jpg,6.0,44,,,,,,,,,,,,,,,,,,,,,,,,,,,,,,,,
1.0,1.0,1.313,0.0,34.0,34.0,34.0,1.0,popcorn_09s.jpg,1.0,clockno_default.jpg,6.0,44,,,,,,,,,,,,,,,,,,,,,,,,,,,,,,,,
0.0,1.0,0.729,0.0,35.0,35.0,35.0,1.0,lava_02s.jpg,0.0,clockno_default.jpg,6.0,44,,,,,,,,,,,,,,,,,,,,,,,,,,,,,,,,
,,,,,,,,,0.0,,,44,1.0,0.0,1.603,0.0,0.0,0.0,0.0,1.0,pepper2_21s.jpg,lipstick_02s.jpg,,,,,,,,,,,,,,,,,,,,,,
,,,,,,,,,1.0,,,44,1.0,1.0,1.249,0.0,1.0,1.0,1.0,1.0,juicer1_08s.jpg,mug_06s.jpg,,,,,,,,,,,,,,,,,,,,,,
,,,,,,,,,0.0,,,44,1.0,0.0,1.405,0.0,2.0,2.0,2.0,1.0,treasure_08s.jpg,tambourine_06s.jpg,,,,,,,,,,,,,,,,,,,,,,
,,,,,,,,,1.0,,,44,1.0,1.0,1.284,0.0,3.0,3.0,3.0,1.0,medal_04s.jpg,metronome_03s.jpg,,,,,,,,,,,,,,,,,,,,,,
,,,,,,,,,0.0,,,44,0.0,1.0,2.385,0.0,4.0,4.0,4.0,1.0,lab_coat_11s.jpg,possum_09s.jpg,,,,,,,,,,,,,,,,,,,,,,
,,,,,,,,,0.0,,,44,0.0,1.0,1.271,0.0,5.0,5.0,5.0,1.0,pencil02a.jpg,incense_02s.jpg,,,,,,,,,,,,,,,,,,,,,,
,,,,,,,,,,,,44,,,,,,,,,,,0.0,4.0,4.0,4.0,1.0,clockno_present_5_2.xlsx,clockno_compare_task_5_2.xlsx,,,,,,,,,,,,,,,
0.0,1.0,0.726,0.0,0.0,0.0,0.0,1.0,spoon02a.jpg,0.0,clockno_up.jpg,1.0,44,,,,,,,,,,,,,,,,,,,,,,,,,,,,,,,,
0.0,1.0,0.736,0.0,1.0,1.0,1.0,1.0,target_11s.jpg,0.0,clockno_default.jpg,1.0,44,,,,,,,,,,,,,,,,,,,,,,,,,,,,,,,,
0.0,1.0,0.563,0.0,2.0,2.0,2.0,1.0,piano_13n.jpg,0.0,clockno_default.jpg,1.0,44,,,,,,,,,,,,,,,,,,,,,,,,,,,,,,,,
0.0,1.0,0.547,0.0,3.0,3.0,3.0,1.0,pea_11s.jpg,0.0,clockno_default.jpg,1.0,44,,,,,,,,,,,,,,,,,,,,,,,,,,,,,,,,
0.0,1.0,0.537,0.0,4.0,4.0,4.0,1.0,peanut_butter_08s.jpg,0.0,clockno_default.jpg,1.0,44,,,,,,,,,,,,,,,,,,,,,,,,,,,,,,,,
0.0,1.0,0.747,0.0,5.0,5.0,5.0,1.0,icicle_04s.jpg,0.0,clockno_default.jpg,1.0,44,,,,,,,,,,,,,,,,,,,,,,,,,,,,,,,,
0.0,1.0,0.685,0.0,6.0,6.0,6.0,1.0,teapot_03s.jpg,0.0,clockno_default.jpg,1.0,44,,,,,,,,,,,,,,,,,,,,,,,,,,,,,,,,
,0.0,,0.0,7.0,7.0,7.0,1.0,laser_pointer_02s.jpg,0.0,clockno_up.jpg,2.0,44,,,,,,,,,,,,,,,,,,,,,,,,,,,,,,,,
1.0,1.0,1.665,0.0,8.0,8.0,8.0,1.0,laser_pointer_02s.jpg,1.0,clockno_default.jpg,2.0,44,,,,,,,,,,,,,,,,,,,,,,,,,,,,,,,,
0.0,1.0,0.551,0.0,9.0,9.0,9.0,1.0,top_hat_11s.jpg,0.0,clockno_default.jpg,2.0,44,,,,,,,,,,,,,,,,,,,,,,,,,,,,,,,,
0.0,1.0,0.696,0.0,10.0,10.0,10.0,1.0,playpen_11s.jpg,0.0,clockno_default.jpg,2.0,44,,,,,,,,,,,,,,,,,,,,,,,,,,,,,,,,
0.0,1.0,0.62,0.0,11.0,11.0,11.0,1.0,ironing_board_07s.jpg,0.0,clockno_default.jpg,2.0,44,,,,,,,,,,,,,,,,,,,,,,,,,,,,,,,,
0.0,1.0,0.697,0.0,12.0,12.0,12.0,1.0,icemaker_10s.jpg,0.0,clockno_default.jpg,2.0,44,,,,,,,,,,,,,,,,,,,,,,,,,,,,,,,,
0.0,1.0,0.694,0.0,13.0,13.0,13.0,1.0,espresso_01b.jpg,0.0,clockno_default.jpg,2.0,44,,,,,,,,,,,,,,,,,,,,,,,,,,,,,,,,
0.0,1.0,0.647,0.0,14.0,14.0,14.0,1.0,penguin_16s.jpg,0.0,clockno_up.jpg,3.0,44,,,,,,,,,,,,,,,,,,,,,,,,,,,,,,,,
1.0,1.0,1.655,0.0,15.0,15.0,15.0,1.0,penguin_16s.jpg,1.0,clockno_default.jpg,3.0,44,,,,,,,,,,,,,,,,,,,,,,,,,,,,,,,,
0.0,1.0,0.816,0.0,16.0,16.0,16.0,1.0,inhaler_01b.jpg,0.0,clockno_default.jpg,3.0,44,,,,,,,,,,,,,,,,,,,,,,,,,,,,,,,,
0.0,1.0,0.729,0.0,17.0,17.0,17.0,1.0,road_sign_05s.jpg,0.0,clockno_default.jpg,3.0,44,,,,,,,,,,,,,,,,,,,,,,,,,,,,,,,,
0.0,1.0,0.73,0.0,18.0,18.0,18.0,1.0,radio_09s.jpg,0.0,clockno_default.jpg,3.0,44,,,,,,,,,,,,,,,,,,,,,,,,,,,,,,,,
0.0,1.0,1.553,0.0,19.0,19.0,19.0,1.0,telephone_pole_05s.jpg,0.0,clockno_up.jpg,4.0,44,,,,,,,,,,,,,,,,,,,,,,,,,,,,,,,,
,0.0,,0.0,20.0,20.0,20.0,1.0,telephone_pole_05s.jpg,1.0,clockno_default.jpg,4.0,44,,,,,,,,,,,,,,,,,,,,,,,,,,,,,,,,
0.0,1.0,1.029,0.0,21.0,21.0,21.0,1.0,lasagna_06s.jpg,0.0,clockno_default.jpg,4.0,44,,,,,,,,,,,,,,,,,,,,,,,,,,,,,,,,
0.0,1.0,0.613,0.0,22.0,22.0,22.0,1.0,coconut_08s.jpg,0.0,clockno_default.jpg,4.0,44,,,,,,,,,,,,,,,,,,,,,,,,,,,,,,,,
1.0,1.0,1.232,0.0,23.0,23.0,23.0,1.0,telephone_pole_05s.jpg,1.0,clockno_default.jpg,4.0,44,,,,,,,,,,,,,,,,,,,,,,,,,,,,,,,,
0.0,1.0,1.031,0.0,24.0,24.0,24.0,1.0,rug_09s.jpg,0.0,clockno_default.jpg,4.0,44,,,,,,,,,,,,,,,,,,,,,,,,,,,,,,,,
0.0,1.0,1.063,0.0,25.0,25.0,25.0,1.0,phone_01b.jpg,0.0,clockno_up.jpg,5.0,44,,,,,,,,,,,,,,,,,,,,,,,,,,,,,,,,
0.0,1.0,1.031,0.0,26.0,26.0,26.0,1.0,tuba_12s.jpg,0.0,clockno_default.jpg,5.0,44,,,,,,,,,,,,,,,,,,,,,,,,,,,,,,,,
1.0,1.0,0.803,0.0,27.0,27.0,27.0,1.0,tuba_12s.jpg,1.0,clockno_default.jpg,5.0,44,,,,,,,,,,,,,,,,,,,,,,,,,,,,,,,,
0.0,1.0,0.765,0.0,28.0,28.0,28.0,1.0,radio_09s.jpg,0.0,clockno_default.jpg,5.0,44,,,,,,,,,,,,,,,,,,,,,,,,,,,,,,,,
0.0,1.0,1.013,0.0,29.0,29.0,29.0,1.0,owl_15s.jpg,0.0,clockno_default.jpg,5.0,44,,,,,,,,,,,,,,,,,,,,,,,,,,,,,,,,
0.0,1.0,1.186,0.0,30.0,30.0,30.0,1.0,ravioli_08s.jpg,0.0,clockno_default.jpg,5.0,44,,,,,,,,,,,,,,,,,,,,,,,,,,,,,,,,
0.0,1.0,1.278,0.0,31.0,31.0,31.0,1.0,rabbit_03s.jpg,0.0,clockno_up.jpg,6.0,44,,,,,,,,,,,,,,,,,,,,,,,,,,,,,,,,
0.0,1.0,0.932,0.0,32.0,32.0,32.0,1.0,teapot_03s.jpg,0.0,clockno_default.jpg,6.0,44,,,,,,,,,,,,,,,,,,,,,,,,,,,,,,,,
0.0,1.0,1.53,0.0,33.0,33.0,33.0,1.0,comic_book_02s.jpg,0.0,clockno_default.jpg,6.0,44,,,,,,,,,,,,,,,,,,,,,,,,,,,,,,,,
0.0,1.0,1.144,0.0,34.0,34.0,34.0,1.0,spatula04.jpg,0.0,clockno_default.jpg,6.0,44,,,,,,,,,,,,,,,,,,,,,,,,,,,,,,,,
0.0,1.0,1.612,0.0,35.0,35.0,35.0,1.0,mixer_12s.jpg,0.0,clockno_default.jpg,6.0,44,,,,,,,,,,,,,,,,,,,,,,,,,,,,,,,,
,,,,,,,,,0.0,,,44,0.0,1.0,2.994,0.0,0.0,0.0,0.0,1.0,phone_01b.jpg,coconut_08s.jpg,,,,,,,,,,,,,,,,,,,,,,
,,,,,,,,,0.0,,,44,0.0,1.0,1.438,0.0,1.0,1.0,1.0,1.0,comic_book_02s.jpg,ravioli_08s.jpg,,,,,,,,,,,,,,,,,,,,,,
,,,,,,,,,1.0,,,44,1.0,1.0,1.735,0.0,2.0,2.0,2.0,1.0,espresso_01b.jpg,inhaler_01b.jpg,,,,,,,,,,,,,,,,,,,,,,
,,,,,,,,,0.0,,,44,0.0,1.0,1.253,0.0,3.0,3.0,3.0,1.0,pea_11s.jpg,spoon02a.jpg,,,,,,,,,,,,,,,,,,,,,,
,,,,,,,,,0.0,,,44,0.0,1.0,1.086,0.0,4.0,4.0,4.0,1.0,peanut_butter_08s.jpg,target_11s.jpg,,,,,,,,,,,,,,,,,,,,,,
,,,,,,,,,1.0,,,44,1.0,1.0,0.971,0.0,5.0,5.0,5.0,1.0,piano_13n.jpg,icicle_04s.jpg,,,,,,,,,,,,,,,,,,,,,,
0.0,1.0,0.889,,,,,,boomerang_06s.jpg,0.0,clock_6_1.png,1.0,44,,,,,,,,,,,,,,,,,,0.0,0.0,0.0,0.0,1.0,,,,,,,,,,
0.0,1.0,1.099,,,,,,eiffeltower.jpg,0.0,clock_6_2.png,1.0,44,,,,,,,,,,,,,,,,,,0.0,1.0,1.0,1.0,1.0,,,,,,,,,,
0.0,1.0,0.548,,,,,,bolo_tie_08s.jpg,0.0,clock_6_3.png,1.0,44,,,,,,,,,,,,,,,,,,0.0,2.0,2.0,2.0,1.0,,,,,,,,,,
0.0,1.0,0.496,,,,,,pear_02s.jpg,0.0,clock_6_4.png,1.0,44,,,,,,,,,,,,,,,,,,0.0,3.0,3.0,3.0,1.0,,,,,,,,,,
0.0,1.0,0.51,,,,,,lectern_08s.jpg,0.0,clock_6_5.png,1.0,44,,,,,,,,,,,,,,,,,,0.0,4.0,4.0,4.0,1.0,,,,,,,,,,
1.0,1.0,1.498,,,,,,bolo_tie_08s.jpg,1.0,clock_6_6.png,1.0,44,,,,,,,,,,,,,,,,,,0.0,5.0,5.0,5.0,1.0,,,,,,,,,,
0.0,1.0,0.794,,,,,,beard_16s.jpg,0.0,clock_7_1.png,2.0,44,,,,,,,,,,,,,,,,,,0.0,6.0,6.0,6.0,1.0,,,,,,,,,,
0.0,1.0,0.548,,,,,,stethoscope_01b.jpg,0.0,clock_7_2.png,2.0,44,,,,,,,,,,,,,,,,,,0.0,7.0,7.0,7.0,1.0,,,,,,,,,,
0.0,1.0,0.698,,,,,,safety_pin_02s.jpg,0.0,clock_7_3.png,2.0,44,,,,,,,,,,,,,,,,,,0.0,8.0,8.0,8.0,1.0,,,,,,,,,,
0.0,1.0,0.466,,,,,,milk_02s.jpg,0.0,clock_7_4.png,2.0,44,,,,,,,,,,,,,,,,,,0.0,9.0,9.0,9.0,1.0,,,,,,,,,,
0.0,1.0,0.544,,,,,,machine_gun_09s.jpg,0.0,clock_7_5.png,2.0,44,,,,,,,,,,,,,,,,,,0.0,10.0,10.0,10.0,1.0,,,,,,,,,,
0.0,1.0,0.545,,,,,,trampoline_13s.jpg,0.0,clock_7_6.png,2.0,44,,,,,,,,,,,,,,,,,,0.0,11.0,11.0,11.0,1.0,,,,,,,,,,
0.0,1.0,0.516,,,,,,mitten_10s.jpg,0.0,clock_7_7.png,2.0,44,,,,,,,,,,,,,,,,,,0.0,12.0,12.0,12.0,1.0,,,,,,,,,,
0.0,1.0,0.512,,,,,,ice-cream_cone_06s.jpg,0.0,clock_5_1.png,3.0,44,,,,,,,,,,,,,,,,,,0.0,13.0,13.0,13.0,1.0,,,,,,,,,,
0.0,1.0,0.833,,,,,,mango_09s.jpg,0.0,clock_5_2.png,3.0,44,,,,,,,,,,,,,,,,,,0.0,14.0,14.0,14.0,1.0,,,,,,,,,,
1.0,1.0,2.115,,,,,,mango_09s.jpg,1.0,clock_5_3.png,3.0,44,,,,,,,,,,,,,,,,,,0.0,15.0,15.0,15.0,1.0,,,,,,,,,,
,0.0,,,,,,,compass_10n.jpg,0.0,clock_5_4.png,3.0,44,,,,,,,,,,,,,,,,,,0.0,16.0,16.0,16.0,1.0,,,,,,,,,,
0.0,1.0,1.679,,,,,,tennis_ball_06s.jpg,0.0,clock_5_5.png,3.0,44,,,,,,,,,,,,,,,,,,0.0,17.0,17.0,17.0,1.0,,,,,,,,,,
,0.0,,,,,,,fork_04s.jpg,0.0,clock_7_1.png,4.0,44,,,,,,,,,,,,,,,,,,0.0,18.0,18.0,18.0,1.0,,,,,,,,,,
0.0,1.0,0.901,,,,,,timer_03s.jpg,0.0,clock_7_2.png,4.0,44,,,,,,,,,,,,,,,,,,0.0,19.0,19.0,19.0,1.0,,,,,,,,,,
0.0,1.0,1.779,,,,,,submarine_11n.jpg,0.0,clock_7_3.png,4.0,44,,,,,,,,,,,,,,,,,,0.0,20.0,20.0,20.0,1.0,,,,,,,,,,
0.0,1.0,1.346,,,,,,fishhook_06s.jpg,0.0,clock_7_4.png,4.0,44,,,,,,,,,,,,,,,,,,0.0,21.0,21.0,21.0,1.0,,,,,,,,,,
0.0,1.0,1.369,,,,,,tuxedo_01b.jpg,0.0,clock_7_5.png,4.0,44,,,,,,,,,,,,,,,,,,0.0,22.0,22.0,22.0,1.0,,,,,,,,,,
0.0,1.0,1.129,,,,,,foam_03s.jpg,0.0,clock_7_6.png,4.0,44,,,,,,,,,,,,,,,,,,0.0,23.0,23.0,23.0,1.0,,,,,,,,,,
0.0,1.0,1.219,,,,,,turf_03s.jpg,0.0,clock_7_7.png,4.0,44,,,,,,,,,,,,,,,,,,0.0,24.0,24.0,24.0,1.0,,,,,,,,,,
0.0,1.0,1.163,,,,,,pie_08s.jpg,0.0,clock_5_1.png,5.0,44,,,,,,,,,,,,,,,,,,0.0,25.0,25.0,25.0,1.0,,,,,,,,,,
0.0,1.0,1.233,,,,,,joystick_01b.jpg,0.0,clock_5_2.png,5.0,44,,,,,,,,,,,,,,,,,,0.0,26.0,26.0,26.0,1.0,,,,,,,,,,
1.0,1.0,1.865,,,,,,pie_08s.jpg,1.0,clock_5_3.png,5.0,44,,,,,,,,,,,,,,,,,,0.0,27.0,27.0,27.0,1.0,,,,,,,,,,
0.0,0.0,0.869,,,,,,joystick_01b.jpg,1.0,clock_5_4.png,5.0,44,,,,,,,,,,,,,,,,,,0.0,28.0,28.0,28.0,1.0,,,,,,,,,,
0.0,1.0,1.467,,,,,,ukulele_02s.jpg,0.0,clock_5_5.png,5.0,44,,,,,,,,,,,,,,,,,,0.0,29.0,29.0,29.0,1.0,,,,,,,,,,
0.0,1.0,0.58,,,,,,lizard_10n.jpg,0.0,clock_6_1.png,6.0,44,,,,,,,,,,,,,,,,,,0.0,30.0,30.0,30.0,1.0,,,,,,,,,,
0.0,1.0,0.616,,,,,,glasses01a.jpg,0.0,clock_6_2.png,6.0,44,,,,,,,,,,,,,,,,,,0.0,31.0,31.0,31.0,1.0,,,,,,,,,,
1.0,1.0,0.719,,,,,,glasses01a.jpg,1.0,clock_6_3.png,6.0,44,,,,,,,,,,,,,,,,,,0.0,32.0,32.0,32.0,1.0,,,,,,,,,,
0.0,1.0,0.521,,,,,,feather02.jpg,0.0,clock_6_4.png,6.0,44,,,,,,,,,,,,,,,,,,0.0,33.0,33.0,33.0,1.0,,,,,,,,,,
0.0,1.0,0.778,,,,,,mascara_03s.jpg,0.0,clock_6_5.png,6.0,44,,,,,,,,,,,,,,,,,,0.0,34.0,34.0,34.0,1.0,,,,,,,,,,
0.0,1.0,0.769,,,,,,margarita_03s.jpg,0.0,clock_6_6.png,6.0,44,,,,,,,,,,,,,,,,,,0.0,35.0,35.0,35.0,1.0,,,,,,,,,,
,,,,,,,,,0.0,,,44,0.0,1.0,1.872,,,,,,submarine_11n.jpg,tennis_ball_06s.jpg,,,,,,,,,,,,,0.0,0.0,0.0,0.0,1.0,,,,,
,,,,,,,,,1.0,,,44,0.0,0.0,1.382,,,,,,pear_02s.jpg,beard_16s.jpg,,,,,,,,,,,,,0.0,1.0,1.0,1.0,1.0,,,,,
,,,,,,,,,0.0,,,44,1.0,0.0,1.368,,,,,,stethoscope_01b.jpg,lectern_08s.jpg,,,,,,,,,,,,,0.0,2.0,2.0,2.0,1.0,,,,,
,,,,,,,,,1.0,,,44,1.0,1.0,2.012,,,,,,safety_pin_02s.jpg,trampoline_13s.jpg,,,,,,,,,,,,,0.0,3.0,3.0,3.0,1.0,,,,,
,,,,,,,,,1.0,,,44,0.0,0.0,1.548,,,,,,milk_02s.jpg,mitten_10s.jpg,,,,,,,,,,,,,0.0,4.0,4.0,4.0,1.0,,,,,
,,,,,,,,,0.0,,,44,1.0,0.0,1.134,,,,,,fishhook_06s.jpg,fork_04s.jpg,,,,,,,,,,,,,0.0,5.0,5.0,5.0,1.0,,,,,
,,,,,,,,,,,,44,,,,,,,,,,,,,,,,clock_present_1_2.xlsx,clock_compare_task_1_2.xlsx,,,,,,,,,,,0.0,0.0,0.0,0.0,1.0
0.0,1.0,1.004,,,,,,butter_14s.jpg,0.0,clock_5_1.png,1.0,44,,,,,,,,,,,,,,,,,,0.0,0.0,0.0,0.0,1.0,,,,,,,,,,
0.0,1.0,0.596,,,,,,pineapple_12s.jpg,0.0,clock_5_2.png,1.0,44,,,,,,,,,,,,,,,,,,0.0,1.0,1.0,1.0,1.0,,,,,,,,,,
0.0,0.0,0.421,,,,,,pineapple_12s.jpg,1.0,clock_5_3.png,1.0,44,,,,,,,,,,,,,,,,,,0.0,2.0,2.0,2.0,1.0,,,,,,,,,,
0.0,1.0,1.587,,,,,,champagne_18s.jpg,0.0,clock_5_4.png,1.0,44,,,,,,,,,,,,,,,,,,0.0,3.0,3.0,3.0,1.0,,,,,,,,,,
0.0,1.0,0.646,,,,,,funnel_01b.jpg,0.0,clock_5_5.png,1.0,44,,,,,,,,,,,,,,,,,,0.0,4.0,4.0,4.0,1.0,,,,,,,,,,
0.0,1.0,2.395,,,,,,raft_09s.jpg,0.0,clock_6_1.png,2.0,44,,,,,,,,,,,,,,,,,,0.0,5.0,5.0,5.0,1.0,,,,,,,,,,
0.0,1.0,2.047,,,,,,jalapeno_15s.jpg,0.0,clock_6_2.png,2.0,44,,,,,,,,,,,,,,,,,,0.0,6.0,6.0,6.0,1.0,,,,,,,,,,
0.0,0.0,1.065,,,,,,raft_09s.jpg,1.0,clock_6_3.png,2.0,44,,,,,,,,,,,,,,,,,,0.0,7.0,7.0,7.0,1.0,,,,,,,,,,
0.0,1.0,1.48,,,,,,tortilla_06s.jpg,0.0,clock_6_4.png,2.0,44,,,,,,,,,,,,,,,,,,0.0,8.0,8.0,8.0,1.0,,,,,,,,,,
0.0,1.0,2.378,,,,,,syringe_02s.jpg,0.0,clock_6_5.png,2.0,44,,,,,,,,,,,,,,,,,,0.0,9.0,9.0,9.0,1.0,,,,,,,,,,
0.0,1.0,1.048,,,,,,moth_06n.jpg,0.0,clock_6_6.png,2.0,44,,,,,,,,,,,,,,,,,,0.0,10.0,10.0,10.0,1.0,,,,,,,,,,
0.0,1.0,1.052,,,,,,radiator_05s.jpg,0.0,clock_7_1.png,3.0,44,,,,,,,,,,,,,,,,,,0.0,11.0,11.0,11.0,1.0,,,,,,,,,,
0.0,1.0,1.096,,,,,,eggshell_14s.jpg,0.0,clock_7_2.png,3.0,44,,,,,,,,,,,,,,,,,,0.0,12.0,12.0,12.0,1.0,,,,,,,,,,
1.0,0.0,2.452,,,,,,syringe_02s.jpg,0.0,clock_7_3.png,3.0,44,,,,,,,,,,,,,,,,,,0.0,13.0,13.0,13.0,1.0,,,,,,,,,,
0.0,1.0,2.179,,,,,,mousetrap_15n.jpg,0.0,clock_7_4.png,3.0,44,,,,,,,,,,,,,,,,,,0.0,14.0,14.0,14.0,1.0,,,,,,,,,,
,0.0,,,,,,,machete_06s.jpg,0.0,clock_7_5.png,3.0,44,,,,,,,,,,,,,,,,,,0.0,15.0,15.0,15.0,1.0,,,,,,,,,,
1.0,1.0,2.465,,,,,,machete_06s.jpg,1.0,clock_7_6.png,3.0,44,,,,,,,,,,,,,,,,,,0.0,16.0,16.0,16.0,1.0,,,,,,,,,,
0.0,0.0,2.432,,,,,,eggshell_14s.jpg,1.0,clock_7_7.png,3.0,44,,,,,,,,,,,,,,,,,,0.0,17.0,17.0,17.0,1.0,,,,,,,,,,
0.0,1.0,2.396,,,,,,kettle_08s.jpg,0.0,clock_5_1.png,4.0,44,,,,,,,,,,,,,,,,,,0.0,18.0,18.0,18.0,1.0,,,,,,,,,,
0.0,1.0,2.295,,,,,,soccer_ball_12s.jpg,0.0,clock_5_2.png,4.0,44,,,,,,,,,,,,,,,,,,0.0,19.0,19.0,19.0,1.0,,,,,,,,,,
0.0,1.0,2.413,,,,,,snowman_02s.jpg,0.0,clock_5_3.png,4.0,44,,,,,,,,,,,,,,,,,,0.0,20.0,20.0,20.0,1.0,,,,,,,,,,
0.0,1.0,2.337,,,,,,magnet_03s.jpg,0.0,clock_5_4.png,4.0,44,,,,,,,,,,,,,,,,,,0.0,21.0,21.0,21.0,1.0,,,,,,,,,,
0.0,1.0,2.247,,,,,,surfboard_11s.jpg,0.0,clock_5_5.png,4.0,44,,,,,,,,,,,,,,,,,,0.0,22.0,22.0,22.0,1.0,,,,,,,,,,
0.0,1.0,2.253,,,,,,birthday_cake_09s.jpg,0.0,clock_6_1.png,5.0,44,,,,,,,,,,,,,,,,,,0.0,23.0,23.0,23.0,1.0,,,,,,,,,,
0.0,1.0,1.053,,,,,,rocket_02s.jpg,0.0,clock_6_2.png,5.0,44,,,,,,,,,,,,,,,,,,0.0,24.0,24.0,24.0,1.0,,,,,,,,,,
0.0,1.0,1.846,,,,,,crystal_ball_12s.jpg,0.0,clock_6_3.png,5.0,44,,,,,,,,,,,,,,,,,,0.0,25.0,25.0,25.0,1.0,,,,,,,,,,
0.0,1.0,2.395,,,,,,quilt_03s.jpg,0.0,clock_6_4.png,5.0,44,,,,,,,,,,,,,,,,,,0.0,26.0,26.0,26.0,1.0,,,,,,,,,,
0.0,1.0,1.153,,,,,,tinsel_12s.jpg,0.0,clock_6_5.png,5.0,44,,,,,,,,,,,,,,,,,,0.0,27.0,27.0,27.0,1.0,,,,,,,,,,
0.0,1.0,0.885,,,,,,fire_pit_10s.jpg,0.0,clock_6_6.png,5.0,44,,,,,,,,,,,,,,,,,,0.0,28.0,28.0,28.0,1.0,,,,,,,,,,
0.0,1.0,0.678,,,,,,puppet_01b.jpg,0.0,clock_7_1.png,6.0,44,,,,,,,,,,,,,,,,,,0.0,29.0,29.0,29.0,1.0,,,,,,,,,,
1.0,1.0,2.335,,,,,,puppet_01b.jpg,1.0,clock_7_2.png,6.0,44,,,,,,,,,,,,,,,,,,0.0,30.0,30.0,30.0,1.0,,,,,,,,,,
0.0,1.0,0.586,,,,,,slingshot_07s.jpg,0.0,clock_7_3.png,6.0,44,,,,,,,,,,,,,,,,,,0.0,31.0,31.0,31.0,1.0,,,,,,,,,,
0.0,1.0,0.995,,,,,,thumbtack_14s.jpg,0.0,clock_7_4.png,6.0,44,,,,,,,,,,,,,,,,,,0.0,32.0,32.0,32.0,1.0,,,,,,,,,,
0.0,1.0,2.264,,,,,,pantyhose_07s.jpg,0.0,clock_7_5.png,6.0,44,,,,,,,,,,,,,,,,,,0.0,33.0,33.0,33.0,1.0,,,,,,,,,,
0.0,1.0,2.422,,,,,,moth_06n.jpg,0.0,clock_7_6.png,6.0,44,,,,,,,,,,,,,,,,,,0.0,34.0,34.0,34.0,1.0,,,,,,,,,,
0.0,1.0,0.997,,,,,,thorn_13s.jpg,0.0,clock_7_7.png,6.0,44,,,,,,,,,,,,,,,,,,0.0,35.0,35.0,35.0,1.0,,,,,,,,,,
,,,,,,,,,0.0,,,44,0.0,1.0,1.652,,,,,,jalapeno_15s.jpg,champagne_18s.jpg,,,,,,,,,,,,,0.0,0.0,0.0,0.0,1.0,,,,,
,,,,,,,,,1.0,,,44,0.0,0.0,1.596,,,,,,tortilla_06s.jpg,radiator_05s.jpg,,,,,,,,,,,,,0.0,1.0,1.0,1.0,1.0,,,,,
,,,,,,,,,1.0,,,44,1.0,1.0,1.329,,,,,,snowman_02s.jpg,birthday_cake_09s.jpg,,,,,,,,,,,,,0.0,2.0,2.0,2.0,1.0,,,,,
,,,,,,,,,1.0,,,44,1.0,1.0,1.415,,,,,,thumbtack_14s.jpg,thorn_13s.jpg,,,,,,,,,,,,,0.0,3.0,3.0,3.0,1.0,,,,,
,,,,,,,,,0.0,,,44,1.0,0.0,1.105,,,,,,magnet_03s.jpg,kettle_08s.jpg,,,,,,,,,,,,,0.0,4.0,4.0,4.0,1.0,,,,,
,,,,,,,,,1.0,,,44,1.0,1.0,1.404,,,,,,soccer_ball_12s.jpg,surfboard_11s.jpg,,,,,,,,,,,,,0.0,5.0,5.0,5.0,1.0,,,,,
,,,,,,,,,,,,44,,,,,,,,,,,,,,,,clock_present_2_2.xlsx,clock_compare_task_2_2.xlsx,,,,,,,,,,,0.0,1.0,1.0,1.0,1.0
0.0,1.0,0.703,,,,,,latch_15s.jpg,0.0,clock_6_1.png,1.0,44,,,,,,,,,,,,,,,,,,0.0,0.0,0.0,0.0,1.0,,,,,,,,,,
0.0,1.0,0.865,,,,,,ladder_15s.jpg,0.0,clock_6_2.png,1.0,44,,,,,,,,,,,,,,,,,,0.0,1.0,1.0,1.0,1.0,,,,,,,,,,
0.0,1.0,0.61,,,,,,duck_01b.jpg,0.0,clock_6_3.png,1.0,44,,,,,,,,,,,,,,,,,,0.0,2.0,2.0,2.0,1.0,,,,,,,,,,
,0.0,,,,,,,duck_01b.jpg,1.0,clock_6_4.png,1.0,44,,,,,,,,,,,,,,,,,,0.0,3.0,3.0,3.0,1.0,,,,,,,,,,
0.0,1.0,1.08,,,,,,cape_11s.jpg,0.0,clock_6_5.png,1.0,44,,,,,,,,,,,,,,,,,,0.0,4.0,4.0,4.0,1.0,,,,,,,,,,
1.0,1.0,0.599,,,,,,duck_01b.jpg,1.0,clock_6_6.png,1.0,44,,,,,,,,,,,,,,,,,,0.0,5.0,5.0,5.0,1.0,,,,,,,,,,
0.0,1.0,0.817,,,,,,tomato_sauce_09s.jpg,0.0,clock_6_1.png,2.0,44,,,,,,,,,,,,,,,,,,0.0,6.0,6.0,6.0,1.0,,,,,,,,,,
0.0,1.0,0.847,,,,,,spacesuit_02s.jpg,0.0,clock_6_2.png,2.0,44,,,,,,,,,,,,,,,,,,0.0,7.0,7.0,7.0,1.0,,,,,,,,,,
1.0,1.0,0.653,,,,,,spacesuit_02s.jpg,1.0,clock_6_3.png,2.0,44,,,,,,,,,,,,,,,,,,0.0,8.0,8.0,8.0,1.0,,,,,,,,,,
0.0,1.0,1.228,,,,,,bagel_15s.jpg,0.0,clock_6_4.png,2.0,44,,,,,,,,,,,,,,,,,,0.0,9.0,9.0,9.0,1.0,,,,,,,,,,
0.0,0.0,1.164,,,,,,tomato_sauce_09s.jpg,1.0,clock_6_5.png,2.0,44,,,,,,,,,,,,,,,,,,0.0,10.0,10.0,10.0,1.0,,,,,,,,,,
1.0,1.0,0.699,,,,,,spacesuit_02s.jpg,1.0,clock_6_6.png,2.0,44,,,,,,,,,,,,,,,,,,0.0,11.0,11.0,11.0,1.0,,,,,,,,,,
,0.0,,,,,,,treadmill_06s.jpg,0.0,clock_7_1.png,3.0,44,,,,,,,,,,,,,,,,,,0.0,12.0,12.0,12.0,1.0,,,,,,,,,,
0.0,1.0,1.069,,,,,,blowfish_03s.jpg,0.0,clock_7_2.png,3.0,44,,,,,,,,,,,,,,,,,,0.0,13.0,13.0,13.0,1.0,,,,,,,,,,
0.0,1.0,0.554,,,,,,fox_13s.jpg,0.0,clock_7_3.png,3.0,44,,,,,,,,,,,,,,,,,,0.0,14.0,14.0,14.0,1.0,,,,,,,,,,
0.0,1.0,0.613,,,,,,tongs_08s.jpg,0.0,clock_7_4.png,3.0,44,,,,,,,,,,,,,,,,,,0.0,15.0,15.0,15.0,1.0,,,,,,,,,,
0.0,1.0,0.547,,,,,,tape_06s.jpg,0.0,clock_7_5.png,3.0,44,,,,,,,,,,,,,,,,,,0.0,16.0,16.0,16.0,1.0,,,,,,,,,,
0.0,1.0,0.53,,,,,,quad_04s.jpg,0.0,clock_7_6.png,3.0,44,,,,,,,,,,,,,,,,,,0.0,17.0,17.0,17.0,1.0,,,,,,,,,,
0.0,1.0,0.531,,,,,,pillbox_04s.jpg,0.0,clock_7_7.png,3.0,44,,,,,,,,,,,,,,,,,,0.0,18.0,18.0,18.0,1.0,,,,,,,,,,
0.0,1.0,0.562,,,,,,perfume_06s.jpg,0.0,clock_5_1.png,4.0,44,,,,,,,,,,,,,,,,,,0.0,19.0,19.0,19.0,1.0,,,,,,,,,,
0.0,1.0,1.565,,,,,,tomato_sauce_09s.jpg,0.0,clock_5_2.png,4.0,44,,,,,,,,,,,,,,,,,,0.0,20.0,20.0,20.0,1.0,,,,,,,,,,
0.0,1.0,0.948,,,,,,trumpet_06s.jpg,0.0,clock_5_3.png,4.0,44,,,,,,,,,,,,,,,,,,0.0,21.0,21.0,21.0,1.0,,,,,,,,,,
1.0,1.0,1.182,,,,,,perfume_06s.jpg,1.0,clock_5_4.png,4.0,44,,,,,,,,,,,,,,,,,,0.0,22.0,22.0,22.0,1.0,,,,,,,,,,
0.0,1.0,0.498,,,,,,blazer_02s.jpg,0.0,clock_5_5.png,4.0,44,,,,,,,,,,,,,,,,,,0.0,23.0,23.0,23.0,1.0,,,,,,,,,,
0.0,1.0,0.519,,,,,,bean_06s.jpg,0.0,clock_7_1.png,5.0,44,,,,,,,,,,,,,,,,,,0.0,24.0,24.0,24.0,1.0,,,,,,,,,,
1.0,1.0,0.754,,,,,,bean_06s.jpg,1.0,clock_7_2.png,5.0,44,,,,,,,,,,,,,,,,,,0.0,25.0,25.0,25.0,1.0,,,,,,,,,,
0.0,1.0,0.465,,,,,,bonsai_07s.jpg,0.0,clock_7_3.png,5.0,44,,,,,,,,,,,,,,,,,,0.0,26.0,26.0,26.0,1.0,,,,,,,,,,
0.0,1.0,0.571,,,,,,stamp2_08s.jpg,0.0,clock_7_4.png,5.0,44,,,,,,,,,,,,,,,,,,0.0,27.0,27.0,27.0,1.0,,,,,,,,,,
1.0,1.0,2.07,,,,,,stamp2_08s.jpg,1.0,clock_7_5.png,5.0,44,,,,,,,,,,,,,,,,,,0.0,28.0,28.0,28.0,1.0,,,,,,,,,,
0.0,1.0,0.55,,,,,,fondue_07s.jpg,0.0,clock_7_6.png,5.0,44,,,,,,,,,,,,,,,,,,0.0,29.0,29.0,29.0,1.0,,,,,,,,,,
0.0,1.0,0.613,,,,,,outlet_10s.jpg,0.0,clock_7_7.png,5.0,44,,,,,,,,,,,,,,,,,,0.0,30.0,30.0,30.0,1.0,,,,,,,,,,
0.0,1.0,0.533,,,,,,rhubarb_03s.jpg,0.0,clock_5_1.png,6.0,44,,,,,,,,,,,,,,,,,,0.0,31.0,31.0,31.0,1.0,,,,,,,,,,
0.0,1.0,0.746,,,,,,purse_05s.jpg,0.0,clock_5_2.png,6.0,44,,,,,,,,,,,,,,,,,,0.0,32.0,32.0,32.0,1.0,,,,,,,,,,
0.0,1.0,0.746,,,,,,puck_06s.jpg,0.0,clock_5_3.png,6.0,44,,,,,,,,,,,,,,,,,,0.0,33.0,33.0,33.0,1.0,,,,,,,,,,
0.0,1.0,0.83,,,,,,bean_06s.jpg,0.0,clock_5_4.png,6.0,44,,,,,,,,,,,,,,,,,,0.0,34.0,34.0,34.0,1.0,,,,,,,,,,
0.0,1.0,0.829,,,,,,popsicle_02s.jpg,0.0,clock_5_5.png,6.0,44,,,,,,,,,,,,,,,,,,0.0,35.0,35.0,35.0,1.0,,,,,,,,,,
,,,,,,,,,0.0,,,44,0.0,1.0,1.288,,,,,,puck_06s.jpg,outlet_10s.jpg,,,,,,,,,,,,,0.0,0.0,0.0,0.0,1.0,,,,,
,,,,,,,,,0.0,,,44,0.0,1.0,1.429,,,,,,treadmill_06s.jpg,bagel_15s.jpg,,,,,,,,,,,,,0.0,1.0,1.0,1.0,1.0,,,,,
,,,,,,,,,0.0,,,44,1.0,0.0,0.851,,,,,,trumpet_06s.jpg,pillbox_04s.jpg,,,,,,,,,,,,,0.0,2.0,2.0,2.0,1.0,,,,,
,,,,,,,,,1.0,,,44,1.0,1.0,1.367,,,,,,ladder_15s.jpg,cape_11s.jpg,,,,,,,,,,,,,0.0,3.0,3.0,3.0,1.0,,,,,
,,,,,,,,,1.0,,,44,0.0,0.0,1.699,,,,,,blowfish_03s.jpg,tape_06s.jpg,,,,,,,,,,,,,0.0,4.0,4.0,4.0,1.0,,,,,
,,,,,,,,,1.0,,,44,1.0,1.0,1.684,,,,,,fox_13s.jpg,quad_04s.jpg,,,,,,,,,,,,,0.0,5.0,5.0,5.0,1.0,,,,,
,,,,,,,,,,,,44,,,,,,,,,,,,,,,,clock_present_3_2.xlsx,clock_compare_task_3_2.xlsx,,,,,,,,,,,0.0,2.0,2.0,2.0,1.0
0.0,1.0,0.737,,,,,,kite_04s.jpg,0.0,clock_7_1.png,1.0,44,,,,,,,,,,,,,,,,,,0.0,0.0,0.0,0.0,1.0,,,,,,,,,,
0.0,1.0,0.595,,,,,,bowler_hat_10s.jpg,0.0,clock_7_2.png,1.0,44,,,,,,,,,,,,,,,,,,0.0,1.0,1.0,1.0,1.0,,,,,,,,,,
0.0,1.0,0.399,,,,,,spider_web_03s.jpg,0.0,clock_7_3.png,1.0,44,,,,,,,,,,,,,,,,,,0.0,2.0,2.0,2.0,1.0,,,,,,,,,,
0.0,1.0,0.696,,,,,,toad_09s.jpg,0.0,clock_7_4.png,1.0,44,,,,,,,,,,,,,,,,,,0.0,3.0,3.0,3.0,1.0,,,,,,,,,,
0.0,1.0,0.48,,,,,,trident_07s.jpg,0.0,clock_7_5.png,1.0,44,,,,,,,,,,,,,,,,,,0.0,4.0,4.0,4.0,1.0,,,,,,,,,,
0.0,1.0,0.561,,,,,,jelly_bean_06s.jpg,0.0,clock_7_6.png,1.0,44,,,,,,,,,,,,,,,,,,0.0,5.0,5.0,5.0,1.0,,,,,,,,,,
0.0,0.0,0.848,,,,,,kite_04s.jpg,1.0,clock_7_7.png,1.0,44,,,,,,,,,,,,,,,,,,0.0,6.0,6.0,6.0,1.0,,,,,,,,,,
0.0,1.0,0.896,,,,,,quill_09s.jpg,0.0,clock_5_1.png,2.0,44,,,,,,,,,,,,,,,,,,0.0,7.0,7.0,7.0,1.0,,,,,,,,,,
0.0,1.0,0.446,,,,,,power_line_08s.jpg,0.0,clock_5_2.png,2.0,44,,,,,,,,,,,,,,,,,,0.0,8.0,8.0,8.0,1.0,,,,,,,,,,
1.0,1.0,0.749,,,,,,power_line_08s.jpg,1.0,clock_5_3.png,2.0,44,,,,,,,,,,,,,,,,,,0.0,9.0,9.0,9.0,1.0,,,,,,,,,,
0.0,1.0,0.999,,,,,,punch2_09s.jpg,0.0,clock_5_4.png,2.0,44,,,,,,,,,,,,,,,,,,0.0,10.0,10.0,10.0,1.0,,,,,,,,,,
0.0,1.0,0.93,,,,,,boar_10s.jpg,0.0,clock_5_5.png,2.0,44,,,,,,,,,,,,,,,,,,0.0,11.0,11.0,11.0,1.0,,,,,,,,,,
0.0,1.0,1.219,,,,,,puffin_19s.jpg,0.0,clock_7_1.png,3.0,44,,,,,,,,,,,,,,,,,,0.0,12.0,12.0,12.0,1.0,,,,,,,,,,
0.0,1.0,1.002,,,,,,stamp1_11s.jpg,0.0,clock_7_2.png,3.0,44,,,,,,,,,,,,,,,,,,0.0,13.0,13.0,13.0,1.0,,,,,,,,,,
0.0,1.0,2.395,,,,,,lamp_08s.jpg,0.0,clock_7_3.png,3.0,44,,,,,,,,,,,,,,,,,,0.0,14.0,14.0,14.0,1.0,,,,,,,,,,
0.0,1.0,0.5,,,,,,mop_08s.jpg,0.0,clock_7_4.png,3.0,44,,,,,,,,,,,,,,,,,,0.0,15.0,15.0,15.0,1.0,,,,,,,,,,
0.0,1.0,1.151,,,,,,gong_02s.jpg,0.0,clock_7_5.png,3.0,44,,,,,,,,,,,,,,,,,,0.0,16.0,16.0,16.0,1.0,,,,,,,,,,
0.0,1.0,2.453,,,,,,petri_dish_12s.jpg,0.0,clock_7_6.png,3.0,44,,,,,,,,,,,,,,,,,,0.0,17.0,17.0,17.0,1.0,,,,,,,,,,
0.0,1.0,2.081,,,,,,kayak_08s.jpg,0.0,clock_7_7.png,3.0,44,,,,,,,,,,,,,,,,,,0.0,18.0,18.0,18.0,1.0,,,,,,,,,,
0.0,1.0,0.502,,,,,,stopwatch_04s.jpg,0.0,clock_5_1.png,4.0,44,,,,,,,,,,,,,,,,,,0.0,19.0,19.0,19.0,1.0,,,,,,,,,,
0.0,1.0,0.879,,,,,,umbrella_15s.jpg,0.0,clock_5_2.png,4.0,44,,,,,,,,,,,,,,,,,,0.0,20.0,20.0,20.0,1.0,,,,,,,,,,
0.0,1.0,1.066,,,,,,punch2_09s.jpg,0.0,clock_5_3.png,4.0,44,,,,,,,,,,,,,,,,,,0.0,21.0,21.0,21.0,1.0,,,,,,,,,,
1.0,1.0,1.681,,,,,,stopwatch_04s.jpg,1.0,clock_5_4.png,4.0,44,,,,,,,,,,,,,,,,,,0.0,22.0,22.0,22.0,1.0,,,,,,,,,,
0.0,1.0,0.579,,,,,,toy_04s.jpg,0.0,clock_5_5.png,4.0,44,,,,,,,,,,,,,,,,,,0.0,23.0,23.0,23.0,1.0,,,,,,,,,,
0.0,1.0,0.567,,,,,,peeler_06s.jpg,0.0,clock_6_1.png,5.0,44,,,,,,,,,,,,,,,,,,0.0,24.0,24.0,24.0,1.0,,,,,,,,,,
0.0,1.0,0.962,,,,,,teacup_07s.jpg,0.0,clock_6_2.png,5.0,44,,,,,,,,,,,,,,,,,,0.0,25.0,25.0,25.0,1.0,,,,,,,,,,
0.0,0.0,1.732,,,,,,peeler_06s.jpg,1.0,clock_6_3.png,5.0,44,,,,,,,,,,,,,,,,,,0.0,26.0,26.0,26.0,1.0,,,,,,,,,,
0.0,1.0,1.485,,,,,,razor_12s.jpg,0.0,clock_6_4.png,5.0,44,,,,,,,,,,,,,,,,,,0.0,27.0,27.0,27.0,1.0,,,,,,,,,,
0.0,1.0,1.846,,,,,,rollerskate_03s.jpg,0.0,clock_6_5.png,5.0,44,,,,,,,,,,,,,,,,,,0.0,28.0,28.0,28.0,1.0,,,,,,,,,,
,0.0,,,,,,,coffee_filter_10s.jpg,0.0,clock_6_6.png,5.0,44,,,,,,,,,,,,,,,,,,0.0,29.0,29.0,29.0,1.0,,,,,,,,,,
0.0,1.0,1.104,,,,,,squirrel_02s.jpg,0.0,clock_6_1.png,6.0,44,,,,,,,,,,,,,,,,,,0.0,30.0,30.0,30.0,1.0,,,,,,,,,,
0.0,1.0,0.583,,,,,,punch1_10s.jpg,0.0,clock_6_2.png,6.0,44,,,,,,,,,,,,,,,,,,0.0,31.0,31.0,31.0,1.0,,,,,,,,,,
,0.0,,,,,,,tulip_02s.jpg,0.0,clock_6_3.png,6.0,44,,,,,,,,,,,,,,,,,,0.0,32.0,32.0,32.0,1.0,,,,,,,,,,
,0.0,,,,,,,lip_gloss_06s.jpg,0.0,clock_6_4.png,6.0,44,,,,,,,,,,,,,,,,,,0.0,33.0,33.0,33.0,1.0,,,,,,,,,,
0.0,1.0,2.088,,,,,,dashboard_02s.jpg,0.0,clock_6_5.png,6.0,44,,,,,,,,,,,,,,,,,,0.0,34.0,34.0,34.0,1.0,,,,,,,,,,
,0.0,,,,,,,pipe1_10s.jpg,0.0,clock_6_6.png,6.0,44,,,,,,,,,,,,,,,,,,0.0,35.0,35.0,35.0,1.0,,,,,,,,,,
,,,,,,,,,0.0,,,44,0.0,1.0,1.886,,,,,,quill_09s.jpg,trident_07s.jpg,,,,,,,,,,,,,0.0,0.0,0.0,0.0,1.0,,,,,
,,,,,,,,,1.0,,,44,1.0,1.0,1.055,,,,,,boar_10s.jpg,lamp_08s.jpg,,,,,,,,,,,,,0.0,1.0,1.0,1.0,1.0,,,,,
,,,,,,,,,1.0,,,44,1.0,1.0,1.515,,,,,,razor_12s.jpg,squirrel_02s.jpg,,,,,,,,,,,,,0.0,2.0,2.0,2.0,1.0,,,,,
,,,,,,,,,0.0,,,44,1.0,0.0,0.947,,,,,,jelly_bean_06s.jpg,spider_web_03s.jpg,,,,,,,,,,,,,0.0,3.0,3.0,3.0,1.0,,,,,
,,,,,,,,,0.0,,,44,0.0,1.0,0.804,,,,,,mop_08s.jpg,puffin_19s.jpg,,,,,,,,,,,,,0.0,4.0,4.0,4.0,1.0,,,,,
,,,,,,,,,0.0,,,44,1.0,0.0,0.799,,,,,,gong_02s.jpg,stamp1_11s.jpg,,,,,,,,,,,,,0.0,5.0,5.0,5.0,1.0,,,,,
,,,,,,,,,,,,44,,,,,,,,,,,,,,,,clock_present_4_2.xlsx,clock_compare_task_4_2.xlsx,,,,,,,,,,,0.0,3.0,3.0,3.0,1.0
0.0,1.0,1.919,,,,,,dynamite_01b.jpg,0.0,clock_5_1.png,1.0,44,,,,,,,,,,,,,,,,,,0.0,0.0,0.0,0.0,1.0,,,,,,,,,,
1.0,1.0,0.715,,,,,,dynamite_01b.jpg,1.0,clock_5_2.png,1.0,44,,,,,,,,,,,,,,,,,,0.0,1.0,1.0,1.0,1.0,,,,,,,,,,
0.0,1.0,0.918,,,,,,sushi_08s.jpg,0.0,clock_5_3.png,1.0,44,,,,,,,,,,,,,,,,,,0.0,2.0,2.0,2.0,1.0,,,,,,,,,,
1.0,1.0,0.782,,,,,,dynamite_01b.jpg,1.0,clock_5_4.png,1.0,44,,,,,,,,,,,,,,,,,,0.0,3.0,3.0,3.0,1.0,,,,,,,,,,
1.0,1.0,0.681,,,,,,dynamite_01b.jpg,1.0,clock_5_5.png,1.0,44,,,,,,,,,,,,,,,,,,0.0,4.0,4.0,4.0,1.0,,,,,,,,,,
,0.0,,,,,,,kangaroo_02s.jpg,0.0,clock_7_1.png,2.0,44,,,,,,,,,,,,,,,,,,0.0,5.0,5.0,5.0,1.0,,,,,,,,,,
1.0,1.0,1.031,,,,,,kangaroo_02s.jpg,1.0,clock_7_2.png,2.0,44,,,,,,,,,,,,,,,,,,0.0,6.0,6.0,6.0,1.0,,,,,,,,,,
1.0,1.0,1.349,,,,,,kangaroo_02s.jpg,1.0,clock_7_3.png,2.0,44,,,,,,,,,,,,,,,,,,0.0,7.0,7.0,7.0,1.0,,,,,,,,,,
0.0,1.0,0.498,,,,,,swordfish_05s.jpg,0.0,clock_7_4.png,2.0,44,,,,,,,,,,,,,,,,,,0.0,8.0,8.0,8.0,1.0,,,,,,,,,,
0.0,1.0,0.605,,,,,,aluminum_foil_08s.jpg,0.0,clock_7_5.png,2.0,44,,,,,,,,,,,,,,,,,,0.0,9.0,9.0,9.0,1.0,,,,,,,,,,
,0.0,,,,,,,towel_rack_04s.jpg,0.0,clock_7_6.png,2.0,44,,,,,,,,,,,,,,,,,,0.0,10.0,10.0,10.0,1.0,,,,,,,,,,
1.0,1.0,2.252,,,,,,kangaroo_02s.jpg,1.0,clock_7_7.png,2.0,44,,,,,,,,,,,,,,,,,,0.0,11.0,11.0,11.0,1.0,,,,,,,,,,
0.0,1.0,1.716,,,,,,refrigerator_07s.jpg,0.0,clock_6_1.png,3.0,44,,,,,,,,,,,,,,,,,,0.0,12.0,12.0,12.0,1.0,,,,,,,,,,
0.0,1.0,0.716,,,,,,soda_fountain_03s.jpg,0.0,clock_6_2.png,3.0,44,,,,,,,,,,,,,,,,,,0.0,13.0,13.0,13.0,1.0,,,,,,,,,,
0.0,0.0,0.897,,,,,,soda_fountain_03s.jpg,1.0,clock_6_3.png,3.0,44,,,,,,,,,,,,,,,,,,0.0,14.0,14.0,14.0,1.0,,,,,,,,,,
0.0,1.0,0.867,,,,,,ladle_04s.jpg,0.0,clock_6_4.png,3.0,44,,,,,,,,,,,,,,,,,,0.0,15.0,15.0,15.0,1.0,,,,,,,,,,
0.0,1.0,1.598,,,,,,iron_13s.jpg,0.0,clock_6_5.png,3.0,44,,,,,,,,,,,,,,,,,,0.0,16.0,16.0,16.0,1.0,,,,,,,,,,
1.0,1.0,2.098,,,,,,iron_13s.jpg,1.0,clock_6_6.png,3.0,44,,,,,,,,,,,,,,,,,,0.0,17.0,17.0,17.0,1.0,,,,,,,,,,
0.0,1.0,0.617,,,,,,tweezers_03s.jpg,0.0,clock_7_1.png,4.0,44,,,,,,,,,,,,,,,,,,0.0,18.0,18.0,18.0,1.0,,,,,,,,,,
0.0,1.0,0.747,,,,,,piggy_bank_02s.jpg,0.0,clock_7_2.png,4.0,44,,,,,,,,,,,,,,,,,,0.0,19.0,19.0,19.0,1.0,,,,,,,,,,
0.0,1.0,0.563,,,,,,toilet_paper_12s.jpg,0.0,clock_7_3.png,4.0,44,,,,,,,,,,,,,,,,,,0.0,20.0,20.0,20.0,1.0,,,,,,,,,,
0.0,1.0,0.414,,,,,,denture_03s.jpg,0.0,clock_7_4.png,4.0,44,,,,,,,,,,,,,,,,,,0.0,21.0,21.0,21.0,1.0,,,,,,,,,,
0.0,1.0,0.579,,,,,,orchid_01b.jpg,0.0,clock_7_5.png,4.0,44,,,,,,,,,,,,,,,,,,0.0,22.0,22.0,22.0,1.0,,,,,,,,,,
0.0,1.0,0.736,,,,,,gazelle_10s.jpg,0.0,clock_7_6.png,4.0,44,,,,,,,,,,,,,,,,,,0.0,23.0,23.0,23.0,1.0,,,,,,,,,,
0.0,1.0,0.778,,,,,,lantern_04s.jpg,0.0,clock_7_7.png,4.0,44,,,,,,,,,,,,,,,,,,0.0,24.0,24.0,24.0,1.0,,,,,,,,,,
0.0,1.0,0.503,,,,,,lid_10s.jpg,0.0,clock_6_1.png,5.0,44,,,,,,,,,,,,,,,,,,0.0,25.0,25.0,25.0,1.0,,,,,,,,,,
0.0,1.0,0.519,,,,,,totem_pole_05s.jpg,0.0,clock_6_2.png,5.0,44,,,,,,,,,,,,,,,,,,0.0,26.0,26.0,26.0,1.0,,,,,,,,,,
0.0,1.0,0.973,,,,,,checkbook_11s.jpg,0.0,clock_6_3.png,5.0,44,,,,,,,,,,,,,,,,,,0.0,27.0,27.0,27.0,1.0,,,,,,,,,,
0.0,1.0,0.534,,,,,,crossbow_10s.jpg,0.0,clock_6_4.png,5.0,44,,,,,,,,,,,,,,,,,,0.0,28.0,28.0,28.0,1.0,,,,,,,,,,
0.0,1.0,0.516,,,,,,measuring_cup_02s.jpg,0.0,clock_6_5.png,5.0,44,,,,,,,,,,,,,,,,,,0.0,29.0,29.0,29.0,1.0,,,,,,,,,,
0.0,1.0,0.678,,,,,,ant_12s.jpg,0.0,clock_6_6.png,5.0,44,,,,,,,,,,,,,,,,,,0.0,30.0,30.0,30.0,1.0,,,,,,,,,,
0.0,1.0,0.448,,,,,,blender_08s.jpg,0.0,clock_5_1.png,6.0,44,,,,,,,,,,,,,,,,,,0.0,31.0,31.0,31.0,1.0,,,,,,,,,,
0.0,1.0,0.646,,,,,,gingerbread_man_03s.jpg,0.0,clock_5_2.png,6.0,44,,,,,,,,,,,,,,,,,,0.0,32.0,32.0,32.0,1.0,,,,,,,,,,
0.0,1.0,0.629,,,,,,panda_02s.jpg,0.0,clock_5_3.png,6.0,44,,,,,,,,,,,,,,,,,,0.0,33.0,33.0,33.0,1.0,,,,,,,,,,
0.0,1.0,0.534,,,,,,quesadilla_07s.jpg,0.0,clock_5_4.png,6.0,44,,,,,,,,,,,,,,,,,,0.0,34.0,34.0,34.0,1.0,,,,,,,,,,
0.0,1.0,0.972,,,,,,dynamite_01b.jpg,0.0,clock_5_5.png,6.0,44,,,,,,,,,,,,,,,,,,0.0,35.0,35.0,35.0,1.0,,,,,,,,,,
,,,,,,,,,0.0,,,44,0.0,1.0,1.01,,,,,,refrigerator_07s.jpg,aluminum_foil_08s.jpg,,,,,,,,,,,,,0.0,0.0,0.0,0.0,1.0,,,,,
,,,,,,,,,0.0,,,44,0.0,1.0,1.136,,,,,,gingerbread_man_03s.jpg,measuring_cup_02s.jpg,,,,,,,,,,,,,0.0,1.0,1.0,1.0,1.0,,,,,
,,,,,,,,,1.0,,,44,0.0,0.0,1.033,,,,,,ant_12s.jpg,panda_02s.jpg,,,,,,,,,,,,,0.0,2.0,2.0,2.0,1.0,,,,,
,,,,,,,,,1.0,,,44,0.0,0.0,1.386,,,,,,tweezers_03s.jpg,denture_03s.jpg,,,,,,,,,,,,,0.0,3.0,3.0,3.0,1.0,,,,,
,,,,,,,,,1.0,,,44,0.0,0.0,0.848,,,,,,piggy_bank_02s.jpg,orchid_01b.jpg,,,,,,,,,,,,,0.0,4.0,4.0,4.0,1.0,,,,,
,,,,,,,,,1.0,,,44,0.0,0.0,0.637,,,,,,toilet_paper_12s.jpg,gazelle_10s.jpg,,,,,,,,,,,,,0.0,5.0,5.0,5.0,1.0,,,,,
,,,,,,,,,,,,44,,,,,,,,,,,,,,,,clock_present_5_2.xlsx,clock_compare_task_5_2.xlsx,,,,,,,,,,,0.0,4.0,4.0,4.0,1.0
0.0,1.0,0.936,,,,,,coral_08s.jpg,0.0,clock_7_1.png,1.0,44,,,,,,,,,,,,,,,,,,0.0,0.0,0.0,0.0,1.0,,,,,,,,,,
1.0,1.0,1.264,,,,,,coral_08s.jpg,1.0,clock_7_2.png,1.0,44,,,,,,,,,,,,,,,,,,0.0,1.0,1.0,1.0,1.0,,,,,,,,,,
0.0,1.0,0.581,,,,,,puddle_02s.jpg,0.0,clock_7_3.png,1.0,44,,,,,,,,,,,,,,,,,,0.0,2.0,2.0,2.0,1.0,,,,,,,,,,
,0.0,,,,,,,laundry_basket_11s.jpg,0.0,clock_7_4.png,1.0,44,,,,,,,,,,,,,,,,,,0.0,3.0,3.0,3.0,1.0,,,,,,,,,,
0.0,1.0,0.701,,,,,,ring_03s.jpg,0.0,clock_7_5.png,1.0,44,,,,,,,,,,,,,,,,,,0.0,4.0,4.0,4.0,1.0,,,,,,,,,,
0.0,1.0,0.416,,,,,,luggage_08s.jpg,0.0,clock_7_6.png,1.0,44,,,,,,,,,,,,,,,,,,0.0,5.0,5.0,5.0,1.0,,,,,,,,,,
0.0,1.0,0.664,,,,,,tiara_05s.jpg,0.0,clock_7_7.png,1.0,44,,,,,,,,,,,,,,,,,,0.0,6.0,6.0,6.0,1.0,,,,,,,,,,
0.0,1.0,0.713,,,,,,mask_09s.jpg,0.0,clock_5_1.png,2.0,44,,,,,,,,,,,,,,,,,,0.0,7.0,7.0,7.0,1.0,,,,,,,,,,
0.0,1.0,0.481,,,,,,licorice_06s.jpg,0.0,clock_5_2.png,2.0,44,,,,,,,,,,,,,,,,,,0.0,8.0,8.0,8.0,1.0,,,,,,,,,,
,0.0,,,,,,,licorice_06s.jpg,1.0,clock_5_3.png,2.0,44,,,,,,,,,,,,,,,,,,0.0,9.0,9.0,9.0,1.0,,,,,,,,,,
0.0,1.0,2.1,,,,,,smokingpipe.jpg,0.0,clock_5_4.png,2.0,44,,,,,,,,,,,,,,,,,,0.0,10.0,10.0,10.0,1.0,,,,,,,,,,
0.0,1.0,0.769,,,,,,cobra_05s.jpg,0.0,clock_5_5.png,2.0,44,,,,,,,,,,,,,,,,,,0.0,11.0,11.0,11.0,1.0,,,,,,,,,,
0.0,1.0,0.918,,,,,,gear_07s.jpg,0.0,clock_6_1.png,3.0,44,,,,,,,,,,,,,,,,,,0.0,12.0,12.0,12.0,1.0,,,,,,,,,,
0.0,1.0,0.63,,,,,,juicer2_06s.jpg,0.0,clock_6_2.png,3.0,44,,,,,,,,,,,,,,,,,,0.0,13.0,13.0,13.0,1.0,,,,,,,,,,
1.0,1.0,0.588,,,,,,juicer2_06s.jpg,1.0,clock_6_3.png,3.0,44,,,,,,,,,,,,,,,,,,0.0,14.0,14.0,14.0,1.0,,,,,,,,,,
0.0,0.0,0.452,,,,,,gear_07s.jpg,1.0,clock_6_4.png,3.0,44,,,,,,,,,,,,,,,,,,0.0,15.0,15.0,15.0,1.0,,,,,,,,,,
0.0,1.0,1.619,,,,,,turtleneck_11s.jpg,0.0,clock_6_5.png,3.0,44,,,,,,,,,,,,,,,,,,0.0,16.0,16.0,16.0,1.0,,,,,,,,,,
1.0,1.0,1.159,,,,,,turtleneck_11s.jpg,1.0,clock_6_6.png,3.0,44,,,,,,,,,,,,,,,,,,0.0,17.0,17.0,17.0,1.0,,,,,,,,,,
0.0,1.0,1.352,,,,,,potholder_02s.jpg,0.0,clock_6_1.png,4.0,44,,,,,,,,,,,,,,,,,,0.0,18.0,18.0,18.0,1.0,,,,,,,,,,
0.0,1.0,0.803,,,,,,plaster_cast_13s.jpg,0.0,clock_6_2.png,4.0,44,,,,,,,,,,,,,,,,,,0.0,19.0,19.0,19.0,1.0,,,,,,,,,,
0.0,1.0,0.782,,,,,,marshmallow_08s.jpg,0.0,clock_6_3.png,4.0,44,,,,,,,,,,,,,,,,,,0.0,20.0,20.0,20.0,1.0,,,,,,,,,,
0.0,1.0,0.633,,,,,,jukebox_03n.jpg,0.0,clock_6_4.png,4.0,44,,,,,,,,,,,,,,,,,,0.0,21.0,21.0,21.0,1.0,,,,,,,,,,
0.0,0.0,0.622,,,,,,potholder_02s.jpg,1.0,clock_6_5.png,4.0,44,,,,,,,,,,,,,,,,,,0.0,22.0,22.0,22.0,1.0,,,,,,,,,,
1.0,1.0,1.848,,,,,,potholder_02s.jpg,1.0,clock_6_6.png,4.0,44,,,,,,,,,,,,,,,,,,0.0,23.0,23.0,23.0,1.0,,,,,,,,,,
0.0,1.0,0.546,,,,,,pincushion_10s.jpg,0.0,clock_7_1.png,5.0,44,,,,,,,,,,,,,,,,,,0.0,24.0,24.0,24.0,1.0,,,,,,,,,,
0.0,1.0,0.665,,,,,,cap_05s.jpg,0.0,clock_7_2.png,5.0,44,,,,,,,,,,,,,,,,,,0.0,25.0,25.0,25.0,1.0,,,,,,,,,,
0.0,0.0,1.417,,,,,,cap_05s.jpg,1.0,clock_7_3.png,5.0,44,,,,,,,,,,,,,,,,,,0.0,26.0,26.0,26.0,1.0,,,,,,,,,,
0.0,1.0,1.251,,,,,,insole_11s.jpg,0.0,clock_7_4.png,5.0,44,,,,,,,,,,,,,,,,,,0.0,27.0,27.0,27.0,1.0,,,,,,,,,,
,0.0,,,,,,,ginger_09s.jpg,0.0,clock_7_5.png,5.0,44,,,,,,,,,,,,,,,,,,0.0,28.0,28.0,28.0,1.0,,,,,,,,,,
0.0,0.0,0.604,,,,,,insole_11s.jpg,1.0,clock_7_6.png,5.0,44,,,,,,,,,,,,,,,,,,0.0,29.0,29.0,29.0,1.0,,,,,,,,,,
0.0,1.0,1.075,,,,,,letter_opener_03s.jpg,0.0,clock_7_7.png,5.0,44,,,,,,,,,,,,,,,,,,0.0,30.0,30.0,30.0,1.0,,,,,,,,,,
0.0,1.0,0.729,,,,,,stapler_01b.jpg,0.0,clock_5_1.png,6.0,44,,,,,,,,,,,,,,,,,,0.0,31.0,31.0,31.0,1.0,,,,,,,,,,
0.0,1.0,0.636,,,,,,powder_07s.jpg,0.0,clock_5_2.png,6.0,44,,,,,,,,,,,,,,,,,,0.0,32.0,32.0,32.0,1.0,,,,,,,,,,
0.0,1.0,0.716,,,,,,olive_05s.jpg,0.0,clock_5_3.png,6.0,44,,,,,,,,,,,,,,,,,,0.0,33.0,33.0,33.0,1.0,,,,,,,,,,
0.0,0.0,0.598,,,,,,stapler_01b.jpg,1.0,clock_5_4.png,6.0,44,,,,,,,,,,,,,,,,,,0.0,34.0,34.0,34.0,1.0,,,,,,,,,,
,0.0,,,,,,,chip_04s.jpg,0.0,clock_5_5.png,6.0,44,,,,,,,,,,,,,,,,,,0.0,35.0,35.0,35.0,1.0,,,,,,,,,,
,,,,,,,,,0.0,,,44,1.0,0.0,2.036,,,,,,pincushion_10s.jpg,jukebox_03n.jpg,,,,,,,,,,,,,0.0,0.0,0.0,0.0,1.0,,,,,
,,,,,,,,,1.0,,,44,0.0,0.0,0.852,,,,,,letter_opener_03s.jpg,olive_05s.jpg,,,,,,,,,,,,,0.0,1.0,1.0,1.0,1.0,,,,,
,,,,,,,,,1.0,,,44,0.0,0.0,1.422,,,,,,ring_03s.jpg,mask_09s.jpg,,,,,,,,,,,,,0.0,2.0,2.0,2.0,1.0,,,,,
,,,,,,,,,0.0,,,44,1.0,0.0,1.619,,,,,,luggage_08s.jpg,puddle_02s.jpg,,,,,,,,,,,,,0.0,3.0,3.0,3.0,1.0,,,,,
,,,,,,,,,1.0,,,44,1.0,1.0,1.004,,,,,,laundry_basket_11s.jpg,tiara_05s.jpg,,,,,,,,,,,,,0.0,4.0,4.0,4.0,1.0,,,,,
,,,,,,,,,0.0,,,44,0.0,1.0,1.163,,,,,,chip_04s.jpg,powder_07s.jpg,,,,,,,,,,,,,0.0,5.0,5.0,5.0,1.0,,,,,
