key_resp.keys,key_resp.corr,key_resp.rt,noclock_loop.thisRepN,noclock_loop.thisTrialN,noclock_loop.thisN,noclock_loop.thisIndex,noclock_loop.ran,pictures,answer,clock,segment,participant,key_resp_2.keys,key_resp_2.corr,key_resp_2.rt,noclock_loop2.thisRepN,noclock_loop2.thisTrialN,noclock_loop2.thisN,noclock_loop2.thisIndex,noclock_loop2.ran,item_a,item_b,noclock_condition.thisRepN,noclock_condition.thisTrialN,noclock_condition.thisN,noclock_condition.thisIndex,noclock_condition.ran,present,compare,present_segment.thisRepN,present_segment.thisTrialN,present_segment.thisN,present_segment.thisIndex,present_segment.ran,compare_segment.thisRepN,compare_segment.thisTrialN,compare_segment.thisN,compare_segment.thisIndex,compare_segment.ran,clock_conditions.thisRepN,clock_conditions.thisTrialN,clock_conditions.thisN,clock_conditions.thisIndex,clock_conditions.ran
0.0,1.0,1.235145,0.0,0.0,0.0,0.0,1.0,gong_02s.jpg,0.0,clockno_up.jpg,1.0,63,,,,,,,,,,,,,,,,,,,,,,,,,,,,,,,,
1.0,1.0,1.092855,0.0,1.0,1.0,1.0,1.0,gong_02s.jpg,1.0,clockno_default.jpg,1.0,63,,,,,,,,,,,,,,,,,,,,,,,,,,,,,,,,
0.0,1.0,1.105485,0.0,2.0,2.0,2.0,1.0,laser_pointer_02s.jpg,0.0,clockno_default.jpg,1.0,63,,,,,,,,,,,,,,,,,,,,,,,,,,,,,,,,
1.0,1.0,0.915315,0.0,3.0,3.0,3.0,1.0,laser_pointer_02s.jpg,1.0,clockno_default.jpg,1.0,63,,,,,,,,,,,,,,,,,,,,,,,,,,,,,,,,
1.0,1.0,0.72668,0.0,4.0,4.0,4.0,1.0,laser_pointer_02s.jpg,1.0,clockno_default.jpg,1.0,63,,,,,,,,,,,,,,,,,,,,,,,,,,,,,,,,
0.0,1.0,0.914745,0.0,5.0,5.0,5.0,1.0,peppermint_07s.jpg,0.0,clockno_default.jpg,1.0,63,,,,,,,,,,,,,,,,,,,,,,,,,,,,,,,,
0.0,1.0,1.21107,0.0,6.0,6.0,6.0,1.0,mold2_04s.jpg,0.0,clockno_default.jpg,1.0,63,,,,,,,,,,,,,,,,,,,,,,,,,,,,,,,,
0.0,1.0,0.842095,0.0,7.0,7.0,7.0,1.0,toothpaste_12s.jpg,0.0,clockno_up.jpg,2.0,63,,,,,,,,,,,,,,,,,,,,,,,,,,,,,,,,
0.0,1.0,0.93497,0.0,8.0,8.0,8.0,1.0,lava_02s.jpg,0.0,clockno_default.jpg,2.0,63,,,,,,,,,,,,,,,,,,,,,,,,,,,,,,,,
0.0,1.0,0.72352,0.0,9.0,9.0,9.0,1.0,pumpkin_03s.jpg,0.0,clockno_default.jpg,2.0,63,,,,,,,,,,,,,,,,,,,,,,,,,,,,,,,,
0.0,1.0,0.68904,0.0,10.0,10.0,10.0,1.0,blowfish_03s.jpg,0.0,clockno_default.jpg,2.0,63,,,,,,,,,,,,,,,,,,,,,,,,,,,,,,,,
0.0,1.0,0.83824,0.0,11.0,11.0,11.0,1.0,gong_02s.jpg,0.0,clockno_default.jpg,2.0,63,,,,,,,,,,,,,,,,,,,,,,,,,,,,,,,,
1.0,1.0,0.83531,0.0,12.0,12.0,12.0,1.0,toothpaste_12s.jpg,1.0,clockno_default.jpg,2.0,63,,,,,,,,,,,,,,,,,,,,,,,,,,,,,,,,
0.0,1.0,1.38333,0.0,13.0,13.0,13.0,1.0,megaphone_03s.jpg,0.0,clockno_default.jpg,2.0,63,,,,,,,,,,,,,,,,,,,,,,,,,,,,,,,,
0.0,1.0,1.27104,0.0,14.0,14.0,14.0,1.0,tab_09s.jpg,0.0,clockno_up.jpg,3.0,63,,,,,,,,,,,,,,,,,,,,,,,,,,,,,,,,
0.0,1.0,0.69186,0.0,15.0,15.0,15.0,1.0,aluminum_foil_08s.jpg,0.0,clockno_default.jpg,3.0,63,,,,,,,,,,,,,,,,,,,,,,,,,,,,,,,,
0.0,1.0,0.672535,0.0,16.0,16.0,16.0,1.0,margarita_03s.jpg,0.0,clockno_default.jpg,3.0,63,,,,,,,,,,,,,,,,,,,,,,,,,,,,,,,,
0.0,1.0,0.56399,0.0,17.0,17.0,17.0,1.0,lamb_04s.jpg,0.0,clockno_default.jpg,3.0,63,,,,,,,,,,,,,,,,,,,,,,,,,,,,,,,,
0.0,1.0,0.66871,0.0,18.0,18.0,18.0,1.0,quesadilla_07s.jpg,0.0,clockno_default.jpg,3.0,63,,,,,,,,,,,,,,,,,,,,,,,,,,,,,,,,
1.0,1.0,0.64754,0.0,19.0,19.0,19.0,1.0,aluminum_foil_08s.jpg,1.0,clockno_default.jpg,3.0,63,,,,,,,,,,,,,,,,,,,,,,,,,,,,,,,,
0.0,1.0,1.15985,0.0,20.0,20.0,20.0,1.0,radiator_05s.jpg,0.0,clockno_up.jpg,4.0,63,,,,,,,,,,,,,,,,,,,,,,,,,,,,,,,,
0.0,1.0,0.74806,0.0,21.0,21.0,21.0,1.0,koala_13s.jpg,0.0,clockno_default.jpg,4.0,63,,,,,,,,,,,,,,,,,,,,,,,,,,,,,,,,
0.0,1.0,1.930565,0.0,22.0,22.0,22.0,1.0,blowfish_03s.jpg,0.0,clockno_default.jpg,4.0,63,,,,,,,,,,,,,,,,,,,,,,,,,,,,,,,,
0.0,1.0,0.994355,0.0,23.0,23.0,23.0,1.0,mango_09s.jpg,0.0,clockno_default.jpg,4.0,63,,,,,,,,,,,,,,,,,,,,,,,,,,,,,,,,
0.0,1.0,0.51387,0.0,24.0,24.0,24.0,1.0,marker_05s.jpg,0.0,clockno_default.jpg,4.0,63,,,,,,,,,,,,,,,,,,,,,,,,,,,,,,,,
1.0,1.0,0.691155,0.0,25.0,25.0,25.0,1.0,koala_13s.jpg,1.0,clockno_default.jpg,4.0,63,,,,,,,,,,,,,,,,,,,,,,,,,,,,,,,,
0.0,1.0,1.6467,0.0,26.0,26.0,26.0,1.0,blender_08s.jpg,0.0,clockno_up.jpg,5.0,63,,,,,,,,,,,,,,,,,,,,,,,,,,,,,,,,
0.0,1.0,0.79917,0.0,27.0,27.0,27.0,1.0,camcorder_10s.jpg,0.0,clockno_default.jpg,5.0,63,,,,,,,,,,,,,,,,,,,,,,,,,,,,,,,,
1.0,1.0,0.86566,0.0,28.0,28.0,28.0,1.0,blender_08s.jpg,1.0,clockno_default.jpg,5.0,63,,,,,,,,,,,,,,,,,,,,,,,,,,,,,,,,
0.0,1.0,0.670915,0.0,29.0,29.0,29.0,1.0,memory_stick_11s.jpg,0.0,clockno_default.jpg,5.0,63,,,,,,,,,,,,,,,,,,,,,,,,,,,,,,,,
1.0,1.0,0.952845,0.0,30.0,30.0,30.0,1.0,memory_stick_11s.jpg,1.0,clockno_default.jpg,5.0,63,,,,,,,,,,,,,,,,,,,,,,,,,,,,,,,,
0.0,1.0,1.213545,0.0,31.0,31.0,31.0,1.0,kitten_07s.jpg,0.0,clockno_up.jpg,6.0,63,,,,,,,,,,,,,,,,,,,,,,,,,,,,,,,,
0.0,1.0,1.15071,0.0,32.0,32.0,32.0,1.0,mitten_10s.jpg,0.0,clockno_default.jpg,6.0,63,,,,,,,,,,,,,,,,,,,,,,,,,,,,,,,,
0.0,1.0,1.083825,0.0,33.0,33.0,33.0,1.0,submarine_11n.jpg,0.0,clockno_default.jpg,6.0,63,,,,,,,,,,,,,,,,,,,,,,,,,,,,,,,,
0.0,1.0,0.556265,0.0,34.0,34.0,34.0,1.0,frog_09s.jpg,0.0,clockno_default.jpg,6.0,63,,,,,,,,,,,,,,,,,,,,,,,,,,,,,,,,
0.0,1.0,0.682775,0.0,35.0,35.0,35.0,1.0,rudder_02s.jpg,0.0,clockno_default.jpg,6.0,63,,,,,,,,,,,,,,,,,,,,,,,,,,,,,,,,
,,,,,,,,,0.0,,,63,0.0,1.0,2.22575,0.0,0.0,0.0,0.0,1.0,lava_02s.jpg,peppermint_07s.jpg,,,,,,,,,,,,,,,,,,,,,,
,,,,,,,,,0.0,,,63,0.0,1.0,1.5373,0.0,1.0,1.0,1.0,1.0,pumpkin_03s.jpg,mold2_04s.jpg,,,,,,,,,,,,,,,,,,,,,,
,,,,,,,,,1.0,,,63,1.0,1.0,1.278235,0.0,2.0,2.0,2.0,1.0,megaphone_03s.jpg,margarita_03s.jpg,,,,,,,,,,,,,,,,,,,,,,
,,,,,,,,,0.0,,,63,0.0,1.0,2.36874,0.0,3.0,3.0,3.0,1.0,frog_09s.jpg,kitten_07s.jpg,,,,,,,,,,,,,,,,,,,,,,
,,,,,,,,,1.0,,,63,1.0,1.0,1.453745,0.0,4.0,4.0,4.0,1.0,mitten_10s.jpg,rudder_02s.jpg,,,,,,,,,,,,,,,,,,,,,,
,,,,,,,,,0.0,,,63,0.0,1.0,1.62726,0.0,5.0,5.0,5.0,1.0,lamb_04s.jpg,tab_09s.jpg,,,,,,,,,,,,,,,,,,,,,,
,,,,,,,,,,,,63,,,,,,,,,,,0.0,0.0,0.0,0.0,1.0,clockno_present_1_7.xlsx,clockno_compare_task_1_7.xlsx,,,,,,,,,,,,,,,
0.0,1.0,0.95639,0.0,0.0,0.0,0.0,1.0,seahorse_13s.jpg,0.0,clockno_up.jpg,1.0,63,,,,,,,,,,,,,,,,,,,,,,,,,,,,,,,,
1.0,1.0,0.841295,0.0,1.0,1.0,1.0,1.0,seahorse_13s.jpg,1.0,clockno_default.jpg,1.0,63,,,,,,,,,,,,,,,,,,,,,,,,,,,,,,,,
0.0,1.0,1.124575,0.0,2.0,2.0,2.0,1.0,tube_top_03s.jpg,0.0,clockno_default.jpg,1.0,63,,,,,,,,,,,,,,,,,,,,,,,,,,,,,,,,
1.0,1.0,0.58729,0.0,3.0,3.0,3.0,1.0,tube_top_03s.jpg,1.0,clockno_default.jpg,1.0,63,,,,,,,,,,,,,,,,,,,,,,,,,,,,,,,,
0.0,1.0,0.91335,0.0,4.0,4.0,4.0,1.0,cobra_05s.jpg,0.0,clockno_default.jpg,1.0,63,,,,,,,,,,,,,,,,,,,,,,,,,,,,,,,,
0.0,1.0,1.073865,0.0,5.0,5.0,5.0,1.0,throne_11s.jpg,0.0,clockno_up.jpg,2.0,63,,,,,,,,,,,,,,,,,,,,,,,,,,,,,,,,
0.0,1.0,0.91746,0.0,6.0,6.0,6.0,1.0,tuxedo_01b.jpg,0.0,clockno_default.jpg,2.0,63,,,,,,,,,,,,,,,,,,,,,,,,,,,,,,,,
1.0,1.0,0.96838,0.0,7.0,7.0,7.0,1.0,throne_11s.jpg,1.0,clockno_default.jpg,2.0,63,,,,,,,,,,,,,,,,,,,,,,,,,,,,,,,,
0.0,1.0,1.348345,0.0,8.0,8.0,8.0,1.0,refrigerator_07s.jpg,0.0,clockno_default.jpg,2.0,63,,,,,,,,,,,,,,,,,,,,,,,,,,,,,,,,
0.0,1.0,1.025375,0.0,9.0,9.0,9.0,1.0,omelet_07s.jpg,0.0,clockno_default.jpg,2.0,63,,,,,,,,,,,,,,,,,,,,,,,,,,,,,,,,
0.0,1.0,0.847025,0.0,10.0,10.0,10.0,1.0,puddle_02s.jpg,0.0,clockno_default.jpg,2.0,63,,,,,,,,,,,,,,,,,,,,,,,,,,,,,,,,
0.0,1.0,1.330375,0.0,11.0,11.0,11.0,1.0,rosary_03s.jpg,0.0,clockno_up.jpg,3.0,63,,,,,,,,,,,,,,,,,,,,,,,,,,,,,,,,
0.0,1.0,1.19042,0.0,12.0,12.0,12.0,1.0,rocket_02s.jpg,0.0,clockno_default.jpg,3.0,63,,,,,,,,,,,,,,,,,,,,,,,,,,,,,,,,
0.0,1.0,0.82218,0.0,13.0,13.0,13.0,1.0,tube_top_03s.jpg,0.0,clockno_default.jpg,3.0,63,,,,,,,,,,,,,,,,,,,,,,,,,,,,,,,,
0.0,1.0,0.706385,0.0,14.0,14.0,14.0,1.0,machine_gun_09s.jpg,0.0,clockno_default.jpg,3.0,63,,,,,,,,,,,,,,,,,,,,,,,,,,,,,,,,
1.0,1.0,1.217895,0.0,15.0,15.0,15.0,1.0,rocket_02s.jpg,1.0,clockno_default.jpg,3.0,63,,,,,,,,,,,,,,,,,,,,,,,,,,,,,,,,
0.0,1.0,0.97113,0.0,16.0,16.0,16.0,1.0,meatball_13s.jpg,0.0,clockno_default.jpg,3.0,63,,,,,,,,,,,,,,,,,,,,,,,,,,,,,,,,
0.0,1.0,1.144375,0.0,17.0,17.0,17.0,1.0,stump_02s.jpg,0.0,clockno_default.jpg,3.0,63,,,,,,,,,,,,,,,,,,,,,,,,,,,,,,,,
0.0,1.0,1.351605,0.0,18.0,18.0,18.0,1.0,peanut_butter_08s.jpg,0.0,clockno_up.jpg,4.0,63,,,,,,,,,,,,,,,,,,,,,,,,,,,,,,,,
0.0,1.0,0.975215,0.0,19.0,19.0,19.0,1.0,machine_gun_09s.jpg,0.0,clockno_default.jpg,4.0,63,,,,,,,,,,,,,,,,,,,,,,,,,,,,,,,,
0.0,1.0,0.88032,0.0,20.0,20.0,20.0,1.0,loveseat_08s.jpg,0.0,clockno_default.jpg,4.0,63,,,,,,,,,,,,,,,,,,,,,,,,,,,,,,,,
0.0,1.0,0.77053,0.0,21.0,21.0,21.0,1.0,eiffeltower.jpg,0.0,clockno_default.jpg,4.0,63,,,,,,,,,,,,,,,,,,,,,,,,,,,,,,,,
0.0,1.0,1.334425,0.0,22.0,22.0,22.0,1.0,tube_top_03s.jpg,0.0,clockno_default.jpg,4.0,63,,,,,,,,,,,,,,,,,,,,,,,,,,,,,,,,
0.0,1.0,1.174775,0.0,23.0,23.0,23.0,1.0,fossil_06s.jpg,0.0,clockno_default.jpg,4.0,63,,,,,,,,,,,,,,,,,,,,,,,,,,,,,,,,
1.0,1.0,1.03415,0.0,24.0,24.0,24.0,1.0,peanut_butter_08s.jpg,1.0,clockno_default.jpg,4.0,63,,,,,,,,,,,,,,,,,,,,,,,,,,,,,,,,
0.0,1.0,0.932615,0.0,25.0,25.0,25.0,1.0,rocking_chair_05s.jpg,0.0,clockno_up.jpg,5.0,63,,,,,,,,,,,,,,,,,,,,,,,,,,,,,,,,
0.0,1.0,1.190975,0.0,26.0,26.0,26.0,1.0,rocking_horse_03s.jpg,0.0,clockno_default.jpg,5.0,63,,,,,,,,,,,,,,,,,,,,,,,,,,,,,,,,
0.0,1.0,1.320635,0.0,27.0,27.0,27.0,1.0,ticktacktoe_08s.jpg,0.0,clockno_default.jpg,5.0,63,,,,,,,,,,,,,,,,,,,,,,,,,,,,,,,,
0.0,1.0,0.70387,0.0,28.0,28.0,28.0,1.0,pocketknife_12s.jpg,0.0,clockno_default.jpg,5.0,63,,,,,,,,,,,,,,,,,,,,,,,,,,,,,,,,
0.0,1.0,1.048025,0.0,29.0,29.0,29.0,1.0,tweezers_03s.jpg,0.0,clockno_default.jpg,5.0,63,,,,,,,,,,,,,,,,,,,,,,,,,,,,,,,,
0.0,1.0,0.67633,0.0,30.0,30.0,30.0,1.0,briefcase_03s.jpg,0.0,clockno_default.jpg,5.0,63,,,,,,,,,,,,,,,,,,,,,,,,,,,,,,,,
0.0,1.0,1.176585,0.0,31.0,31.0,31.0,1.0,tablet_04s.jpg,0.0,clockno_up.jpg,6.0,63,,,,,,,,,,,,,,,,,,,,,,,,,,,,,,,,
0.0,1.0,0.836605,0.0,32.0,32.0,32.0,1.0,totem_pole_05s.jpg,0.0,clockno_default.jpg,6.0,63,,,,,,,,,,,,,,,,,,,,,,,,,,,,,,,,
1.0,1.0,0.96595,0.0,33.0,33.0,33.0,1.0,totem_pole_05s.jpg,1.0,clockno_default.jpg,6.0,63,,,,,,,,,,,,,,,,,,,,,,,,,,,,,,,,
0.0,1.0,0.763605,0.0,34.0,34.0,34.0,1.0,snowman_02s.jpg,0.0,clockno_default.jpg,6.0,63,,,,,,,,,,,,,,,,,,,,,,,,,,,,,,,,
1.0,1.0,0.864305,0.0,35.0,35.0,35.0,1.0,snowman_02s.jpg,1.0,clockno_default.jpg,6.0,63,,,,,,,,,,,,,,,,,,,,,,,,,,,,,,,,
,,,,,,,,,0.0,,,63,0.0,1.0,3.27729,0.0,0.0,0.0,0.0,1.0,rosary_03s.jpg,refrigerator_07s.jpg,,,,,,,,,,,,,,,,,,,,,,
,,,,,,,,,1.0,,,63,1.0,1.0,1.37309,0.0,1.0,1.0,1.0,1.0,stump_02s.jpg,loveseat_08s.jpg,,,,,,,,,,,,,,,,,,,,,,
,,,,,,,,,1.0,,,63,0.0,0.0,2.248475,0.0,2.0,2.0,2.0,1.0,pocketknife_12s.jpg,tablet_04s.jpg,,,,,,,,,,,,,,,,,,,,,,
,,,,,,,,,0.0,,,63,0.0,1.0,1.722225,0.0,3.0,3.0,3.0,1.0,omelet_07s.jpg,tuxedo_01b.jpg,,,,,,,,,,,,,,,,,,,,,,
,,,,,,,,,0.0,,,63,0.0,1.0,1.82267,0.0,4.0,4.0,4.0,1.0,briefcase_03s.jpg,ticktacktoe_08s.jpg,,,,,,,,,,,,,,,,,,,,,,
,,,,,,,,,0.0,,,63,0.0,1.0,1.454775,0.0,5.0,5.0,5.0,1.0,tweezers_03s.jpg,rocking_horse_03s.jpg,,,,,,,,,,,,,,,,,,,,,,
,,,,,,,,,,,,63,,,,,,,,,,,0.0,1.0,1.0,1.0,1.0,clockno_present_2_7.xlsx,clockno_compare_task_2_7.xlsx,,,,,,,,,,,,,,,
0.0,1.0,0.9265,0.0,0.0,0.0,0.0,1.0,turtle_08s.jpg,0.0,clockno_up.jpg,1.0,63,,,,,,,,,,,,,,,,,,,,,,,,,,,,,,,,
1.0,1.0,1.01838,0.0,1.0,1.0,1.0,1.0,turtle_08s.jpg,1.0,clockno_default.jpg,1.0,63,,,,,,,,,,,,,,,,,,,,,,,,,,,,,,,,
0.0,1.0,1.550665,0.0,2.0,2.0,2.0,1.0,triangle_10s.jpg,0.0,clockno_default.jpg,1.0,63,,,,,,,,,,,,,,,,,,,,,,,,,,,,,,,,
0.0,1.0,0.885055,0.0,3.0,3.0,3.0,1.0,thorn_13s.jpg,0.0,clockno_default.jpg,1.0,63,,,,,,,,,,,,,,,,,,,,,,,,,,,,,,,,
1.0,1.0,0.981175,0.0,4.0,4.0,4.0,1.0,turtle_08s.jpg,1.0,clockno_default.jpg,1.0,63,,,,,,,,,,,,,,,,,,,,,,,,,,,,,,,,
1.0,1.0,0.922035,0.0,5.0,5.0,5.0,1.0,thorn_13s.jpg,1.0,clockno_default.jpg,1.0,63,,,,,,,,,,,,,,,,,,,,,,,,,,,,,,,,
,0.0,,0.0,6.0,6.0,6.0,1.0,pancake_12s.jpg,0.0,clockno_up.jpg,2.0,63,,,,,,,,,,,,,,,,,,,,,,,,,,,,,,,,
0.0,1.0,1.16542,0.0,7.0,7.0,7.0,1.0,lid_10s.jpg,0.0,clockno_default.jpg,2.0,63,,,,,,,,,,,,,,,,,,,,,,,,,,,,,,,,
0.0,1.0,0.951995,0.0,8.0,8.0,8.0,1.0,beard_16s.jpg,0.0,clockno_default.jpg,2.0,63,,,,,,,,,,,,,,,,,,,,,,,,,,,,,,,,
0.0,1.0,0.737415,0.0,9.0,9.0,9.0,1.0,top_hat_11s.jpg,0.0,clockno_default.jpg,2.0,63,,,,,,,,,,,,,,,,,,,,,,,,,,,,,,,,
1.0,1.0,0.823115,0.0,10.0,10.0,10.0,1.0,pancake_12s.jpg,1.0,clockno_default.jpg,2.0,63,,,,,,,,,,,,,,,,,,,,,,,,,,,,,,,,
0.0,1.0,0.72315,0.0,11.0,11.0,11.0,1.0,potpourri_03s.jpg,0.0,clockno_up.jpg,3.0,63,,,,,,,,,,,,,,,,,,,,,,,,,,,,,,,,
0.0,1.0,0.826925,0.0,12.0,12.0,12.0,1.0,fork_04s.jpg,0.0,clockno_default.jpg,3.0,63,,,,,,,,,,,,,,,,,,,,,,,,,,,,,,,,
1.0,1.0,0.868355,0.0,13.0,13.0,13.0,1.0,potpourri_03s.jpg,1.0,clockno_default.jpg,3.0,63,,,,,,,,,,,,,,,,,,,,,,,,,,,,,,,,
0.0,1.0,0.616705,0.0,14.0,14.0,14.0,1.0,turtle_08s.jpg,0.0,clockno_default.jpg,3.0,63,,,,,,,,,,,,,,,,,,,,,,,,,,,,,,,,
0.0,1.0,0.846275,0.0,15.0,15.0,15.0,1.0,crate_05s.jpg,0.0,clockno_default.jpg,3.0,63,,,,,,,,,,,,,,,,,,,,,,,,,,,,,,,,
0.0,1.0,1.10725,0.0,16.0,16.0,16.0,1.0,jalapeno_15s.jpg,0.0,clockno_default.jpg,3.0,63,,,,,,,,,,,,,,,,,,,,,,,,,,,,,,,,
0.0,1.0,1.119825,0.0,17.0,17.0,17.0,1.0,beard_16s.jpg,0.0,clockno_default.jpg,3.0,63,,,,,,,,,,,,,,,,,,,,,,,,,,,,,,,,
0.0,1.0,1.848475,0.0,18.0,18.0,18.0,1.0,moth_06n.jpg,0.0,clockno_up.jpg,4.0,63,,,,,,,,,,,,,,,,,,,,,,,,,,,,,,,,
0.0,1.0,1.08812,0.0,19.0,19.0,19.0,1.0,doily_13s.jpg,0.0,clockno_default.jpg,4.0,63,,,,,,,,,,,,,,,,,,,,,,,,,,,,,,,,
1.0,1.0,0.69326,0.0,20.0,20.0,20.0,1.0,doily_13s.jpg,1.0,clockno_default.jpg,4.0,63,,,,,,,,,,,,,,,,,,,,,,,,,,,,,,,,
0.0,1.0,0.78826,0.0,21.0,21.0,21.0,1.0,paintbrush_04s.jpg,0.0,clockno_default.jpg,4.0,63,,,,,,,,,,,,,,,,,,,,,,,,,,,,,,,,
0.0,1.0,0.86362,0.0,22.0,22.0,22.0,1.0,fur_coat_11s.jpg,0.0,clockno_default.jpg,4.0,63,,,,,,,,,,,,,,,,,,,,,,,,,,,,,,,,
0.0,1.0,0.95565,0.0,23.0,23.0,23.0,1.0,funnel_01b.jpg,0.0,clockno_default.jpg,4.0,63,,,,,,,,,,,,,,,,,,,,,,,,,,,,,,,,
0.0,1.0,1.08031,0.0,24.0,24.0,24.0,1.0,breadstick_08s.jpg,0.0,clockno_up.jpg,5.0,63,,,,,,,,,,,,,,,,,,,,,,,,,,,,,,,,
0.0,1.0,1.113925,0.0,25.0,25.0,25.0,1.0,mask_09s.jpg,0.0,clockno_default.jpg,5.0,63,,,,,,,,,,,,,,,,,,,,,,,,,,,,,,,,
0.0,1.0,1.0074,0.0,26.0,26.0,26.0,1.0,chime_12s.jpg,0.0,clockno_default.jpg,5.0,63,,,,,,,,,,,,,,,,,,,,,,,,,,,,,,,,
0.0,1.0,0.74879,0.0,27.0,27.0,27.0,1.0,potholder_02s.jpg,0.0,clockno_default.jpg,5.0,63,,,,,,,,,,,,,,,,,,,,,,,,,,,,,,,,
1.0,1.0,0.89763,0.0,28.0,28.0,28.0,1.0,potholder_02s.jpg,1.0,clockno_default.jpg,5.0,63,,,,,,,,,,,,,,,,,,,,,,,,,,,,,,,,
0.0,1.0,1.32044,0.0,29.0,29.0,29.0,1.0,keyhole_03s.jpg,0.0,clockno_up.jpg,6.0,63,,,,,,,,,,,,,,,,,,,,,,,,,,,,,,,,
0.0,1.0,0.70411,0.0,30.0,30.0,30.0,1.0,pillow_03s.jpg,0.0,clockno_default.jpg,6.0,63,,,,,,,,,,,,,,,,,,,,,,,,,,,,,,,,
0.0,1.0,0.913895,0.0,31.0,31.0,31.0,1.0,key_07s.jpg,0.0,clockno_default.jpg,6.0,63,,,,,,,,,,,,,,,,,,,,,,,,,,,,,,,,
0.0,1.0,1.353945,0.0,32.0,32.0,32.0,1.0,poinsettia_04s.jpg,0.0,clockno_default.jpg,6.0,63,,,,,,,,,,,,,,,,,,,,,,,,,,,,,,,,
0.0,1.0,1.94224,0.0,33.0,33.0,33.0,1.0,rug_09s.jpg,0.0,clockno_default.jpg,6.0,63,,,,,,,,,,,,,,,,,,,,,,,,,,,,,,,,
0.0,1.0,0.776435,0.0,34.0,34.0,34.0,1.0,jelly_bean_06s.jpg,0.0,clockno_default.jpg,6.0,63,,,,,,,,,,,,,,,,,,,,,,,,,,,,,,,,
0.0,1.0,0.96734,0.0,35.0,35.0,35.0,1.0,gear_07s.jpg,0.0,clockno_default.jpg,6.0,63,,,,,,,,,,,,,,,,,,,,,,,,,,,,,,,,
,,,,,,,,,1.0,,,63,0.0,0.0,3.28729,0.0,0.0,0.0,0.0,1.0,fur_coat_11s.jpg,mask_09s.jpg,,,,,,,,,,,,,,,,,,,,,,
,,,,,,,,,0.0,,,63,1.0,0.0,1.281685,0.0,1.0,1.0,1.0,1.0,chime_12s.jpg,funnel_01b.jpg,,,,,,,,,,,,,,,,,,,,,,
,,,,,,,,,0.0,,,63,1.0,0.0,1.31845,0.0,2.0,2.0,2.0,1.0,fork_04s.jpg,top_hat_11s.jpg,,,,,,,,,,,,,,,,,,,,,,
,,,,,,,,,0.0,,,63,0.0,1.0,1.375565,0.0,3.0,3.0,3.0,1.0,rug_09s.jpg,pillow_03s.jpg,,,,,,,,,,,,,,,,,,,,,,
,,,,,,,,,1.0,,,63,0.0,0.0,1.94854,0.0,4.0,4.0,4.0,1.0,key_07s.jpg,jelly_bean_06s.jpg,,,,,,,,,,,,,,,,,,,,,,
,,,,,,,,,1.0,,,63,0.0,0.0,1.420345,0.0,5.0,5.0,5.0,1.0,poinsettia_04s.jpg,gear_07s.jpg,,,,,,,,,,,,,,,,,,,,,,
,,,,,,,,,,,,63,,,,,,,,,,,0.0,2.0,2.0,2.0,1.0,clockno_present_3_7.xlsx,clockno_compare_task_3_7.xlsx,,,,,,,,,,,,,,,
0.0,1.0,2.070875,0.0,0.0,0.0,0.0,1.0,gazelle_10s.jpg,0.0,clockno_up.jpg,1.0,63,,,,,,,,,,,,,,,,,,,,,,,,,,,,,,,,
0.0,1.0,0.896865,0.0,1.0,1.0,1.0,1.0,luggage_08s.jpg,0.0,clockno_default.jpg,1.0,63,,,,,,,,,,,,,,,,,,,,,,,,,,,,,,,,
0.0,1.0,0.746825,0.0,2.0,2.0,2.0,1.0,clover_04s.jpg,0.0,clockno_default.jpg,1.0,63,,,,,,,,,,,,,,,,,,,,,,,,,,,,,,,,
0.0,1.0,0.77584,0.0,3.0,3.0,3.0,1.0,stingray_02s.jpg,0.0,clockno_default.jpg,1.0,63,,,,,,,,,,,,,,,,,,,,,,,,,,,,,,,,
0.0,1.0,0.67266,0.0,4.0,4.0,4.0,1.0,treasure_08s.jpg,0.0,clockno_default.jpg,1.0,63,,,,,,,,,,,,,,,,,,,,,,,,,,,,,,,,
0.0,1.0,0.71905,0.0,5.0,5.0,5.0,1.0,ant_12s.jpg,0.0,clockno_default.jpg,1.0,63,,,,,,,,,,,,,,,,,,,,,,,,,,,,,,,,
0.0,1.0,0.880315,0.0,6.0,6.0,6.0,1.0,champagne_18s.jpg,0.0,clockno_default.jpg,1.0,63,,,,,,,,,,,,,,,,,,,,,,,,,,,,,,,,
0.0,1.0,1.229765,0.0,7.0,7.0,7.0,1.0,frame_06s.jpg,0.0,clockno_up.jpg,2.0,63,,,,,,,,,,,,,,,,,,,,,,,,,,,,,,,,
0.0,1.0,1.83608,0.0,8.0,8.0,8.0,1.0,lamb_chop_07s.jpg,0.0,clockno_default.jpg,2.0,63,,,,,,,,,,,,,,,,,,,,,,,,,,,,,,,,
,0.0,,0.0,9.0,9.0,9.0,1.0,lantern_04s.jpg,0.0,clockno_default.jpg,2.0,63,,,,,,,,,,,,,,,,,,,,,,,,,,,,,,,,
0.0,1.0,0.872225,0.0,10.0,10.0,10.0,1.0,duck_01b.jpg,0.0,clockno_default.jpg,2.0,63,,,,,,,,,,,,,,,,,,,,,,,,,,,,,,,,
0.0,1.0,1.126125,0.0,11.0,11.0,11.0,1.0,fountain_pen_06s.jpg,0.0,clockno_default.jpg,2.0,63,,,,,,,,,,,,,,,,,,,,,,,,,,,,,,,,
0.0,1.0,0.648175,0.0,12.0,12.0,12.0,1.0,latch_15s.jpg,0.0,clockno_default.jpg,2.0,63,,,,,,,,,,,,,,,,,,,,,,,,,,,,,,,,
0.0,1.0,2.05318,0.0,13.0,13.0,13.0,1.0,chopsticks_08s.jpg,0.0,clockno_up.jpg,3.0,63,,,,,,,,,,,,,,,,,,,,,,,,,,,,,,,,
0.0,1.0,1.74921,0.0,14.0,14.0,14.0,1.0,swimming_pool_17s.jpg,0.0,clockno_default.jpg,3.0,63,,,,,,,,,,,,,,,,,,,,,,,,,,,,,,,,
1.0,1.0,0.92691,0.0,15.0,15.0,15.0,1.0,swimming_pool_17s.jpg,1.0,clockno_default.jpg,3.0,63,,,,,,,,,,,,,,,,,,,,,,,,,,,,,,,,
0.0,1.0,0.82058,0.0,16.0,16.0,16.0,1.0,gazelle_10s.jpg,0.0,clockno_default.jpg,3.0,63,,,,,,,,,,,,,,,,,,,,,,,,,,,,,,,,
1.0,1.0,0.818855,0.0,17.0,17.0,17.0,1.0,chopsticks_08s.jpg,1.0,clockno_default.jpg,3.0,63,,,,,,,,,,,,,,,,,,,,,,,,,,,,,,,,
0.0,1.0,0.90707,0.0,18.0,18.0,18.0,1.0,candy_cane_06s.jpg,0.0,clockno_default.jpg,3.0,63,,,,,,,,,,,,,,,,,,,,,,,,,,,,,,,,
0.0,1.0,1.194155,0.0,19.0,19.0,19.0,1.0,squirrel_02s.jpg,0.0,clockno_default.jpg,3.0,63,,,,,,,,,,,,,,,,,,,,,,,,,,,,,,,,
0.0,1.0,0.99371,0.0,20.0,20.0,20.0,1.0,knot_01b.jpg,0.0,clockno_up.jpg,4.0,63,,,,,,,,,,,,,,,,,,,,,,,,,,,,,,,,
0.0,1.0,0.792035,0.0,21.0,21.0,21.0,1.0,tile_08s.jpg,0.0,clockno_default.jpg,4.0,63,,,,,,,,,,,,,,,,,,,,,,,,,,,,,,,,
0.0,1.0,0.888425,0.0,22.0,22.0,22.0,1.0,ladle_04s.jpg,0.0,clockno_default.jpg,4.0,63,,,,,,,,,,,,,,,,,,,,,,,,,,,,,,,,
0.0,1.0,1.2494,0.0,23.0,23.0,23.0,1.0,prism_10s.jpg,0.0,clockno_default.jpg,4.0,63,,,,,,,,,,,,,,,,,,,,,,,,,,,,,,,,
0.0,1.0,0.80258,0.0,24.0,24.0,24.0,1.0,ant_12s.jpg,0.0,clockno_default.jpg,4.0,63,,,,,,,,,,,,,,,,,,,,,,,,,,,,,,,,
0.0,1.0,0.791575,0.0,25.0,25.0,25.0,1.0,footprint_11s.jpg,0.0,clockno_up.jpg,5.0,63,,,,,,,,,,,,,,,,,,,,,,,,,,,,,,,,
0.0,1.0,1.16792,0.0,26.0,26.0,26.0,1.0,incense_02s.jpg,0.0,clockno_default.jpg,5.0,63,,,,,,,,,,,,,,,,,,,,,,,,,,,,,,,,
0.0,1.0,0.856875,0.0,27.0,27.0,27.0,1.0,puffin_19s.jpg,0.0,clockno_default.jpg,5.0,63,,,,,,,,,,,,,,,,,,,,,,,,,,,,,,,,
0.0,1.0,0.986965,0.0,28.0,28.0,28.0,1.0,tile_08s.jpg,0.0,clockno_default.jpg,5.0,63,,,,,,,,,,,,,,,,,,,,,,,,,,,,,,,,
1.0,1.0,1.19807,0.0,29.0,29.0,29.0,1.0,incense_02s.jpg,1.0,clockno_default.jpg,5.0,63,,,,,,,,,,,,,,,,,,,,,,,,,,,,,,,,
0.0,1.0,1.137615,0.0,30.0,30.0,30.0,1.0,insole_11s.jpg,0.0,clockno_up.jpg,6.0,63,,,,,,,,,,,,,,,,,,,,,,,,,,,,,,,,
0.0,1.0,1.48576,0.0,31.0,31.0,31.0,1.0,knot_01b.jpg,0.0,clockno_default.jpg,6.0,63,,,,,,,,,,,,,,,,,,,,,,,,,,,,,,,,
0.0,1.0,1.02994,0.0,32.0,32.0,32.0,1.0,jewel_01b.jpg,0.0,clockno_default.jpg,6.0,63,,,,,,,,,,,,,,,,,,,,,,,,,,,,,,,,
0.0,1.0,1.035625,0.0,33.0,33.0,33.0,1.0,otter_05s.jpg,0.0,clockno_default.jpg,6.0,63,,,,,,,,,,,,,,,,,,,,,,,,,,,,,,,,
1.0,1.0,0.669935,0.0,34.0,34.0,34.0,1.0,otter_05s.jpg,1.0,clockno_default.jpg,6.0,63,,,,,,,,,,,,,,,,,,,,,,,,,,,,,,,,
0.0,1.0,0.949325,0.0,35.0,35.0,35.0,1.0,sunglasses_11s.jpg,0.0,clockno_default.jpg,6.0,63,,,,,,,,,,,,,,,,,,,,,,,,,,,,,,,,
,,,,,,,,,1.0,,,63,1.0,1.0,2.27325,0.0,0.0,0.0,0.0,1.0,squirrel_02s.jpg,ladle_04s.jpg,,,,,,,,,,,,,,,,,,,,,,
,,,,,,,,,1.0,,,63,1.0,1.0,1.373295,0.0,1.0,1.0,1.0,1.0,puffin_19s.jpg,insole_11s.jpg,,,,,,,,,,,,,,,,,,,,,,
,,,,,,,,,0.0,,,63,0.0,1.0,5.19203,0.0,2.0,2.0,2.0,1.0,frame_06s.jpg,treasure_08s.jpg,,,,,,,,,,,,,,,,,,,,,,
,,,,,,,,,0.0,,,63,1.0,0.0,1.4918,0.0,3.0,3.0,3.0,1.0,fountain_pen_06s.jpg,lamb_chop_07s.jpg,,,,,,,,,,,,,,,,,,,,,,
,,,,,,,,,1.0,,,63,0.0,0.0,1.371305,0.0,4.0,4.0,4.0,1.0,jewel_01b.jpg,sunglasses_11s.jpg,,,,,,,,,,,,,,,,,,,,,,
,,,,,,,,,1.0,,,63,1.0,1.0,1.06149,0.0,5.0,5.0,5.0,1.0,stingray_02s.jpg,champagne_18s.jpg,,,,,,,,,,,,,,,,,,,,,,
,,,,,,,,,,,,63,,,,,,,,,,,0.0,3.0,3.0,3.0,1.0,clockno_present_4_7.xlsx,clockno_compare_task_4_7.xlsx,,,,,,,,,,,,,,,
0.0,1.0,0.82485,0.0,0.0,0.0,0.0,1.0,thumbtack_14s.jpg,0.0,clockno_up.jpg,1.0,63,,,,,,,,,,,,,,,,,,,,,,,,,,,,,,,,
0.0,1.0,0.90786,0.0,1.0,1.0,1.0,1.0,pantyhose_07s.jpg,0.0,clockno_default.jpg,1.0,63,,,,,,,,,,,,,,,,,,,,,,,,,,,,,,,,
0.0,1.0,1.603555,0.0,2.0,2.0,2.0,1.0,screwdriver02a.jpg,0.0,clockno_default.jpg,1.0,63,,,,,,,,,,,,,,,,,,,,,,,,,,,,,,,,
0.0,1.0,0.719345,0.0,3.0,3.0,3.0,1.0,popsicle_02s.jpg,0.0,clockno_default.jpg,1.0,63,,,,,,,,,,,,,,,,,,,,,,,,,,,,,,,,
1.0,1.0,0.876925,0.0,4.0,4.0,4.0,1.0,pantyhose_07s.jpg,1.0,clockno_default.jpg,1.0,63,,,,,,,,,,,,,,,,,,,,,,,,,,,,,,,,
0.0,0.0,1.322245,0.0,5.0,5.0,5.0,1.0,screwdriver02a.jpg,1.0,clockno_default.jpg,1.0,63,,,,,,,,,,,,,,,,,,,,,,,,,,,,,,,,
1.0,1.0,0.859685,0.0,6.0,6.0,6.0,1.0,pantyhose_07s.jpg,1.0,clockno_default.jpg,1.0,63,,,,,,,,,,,,,,,,,,,,,,,,,,,,,,,,
0.0,1.0,0.996775,0.0,7.0,7.0,7.0,1.0,tinsel_12s.jpg,0.0,clockno_up.jpg,2.0,63,,,,,,,,,,,,,,,,,,,,,,,,,,,,,,,,
0.0,1.0,1.01375,0.0,8.0,8.0,8.0,1.0,exhaust_pipe_10s.jpg,0.0,clockno_default.jpg,2.0,63,,,,,,,,,,,,,,,,,,,,,,,,,,,,,,,,
0.0,1.0,1.34681,0.0,9.0,9.0,9.0,1.0,rabbit_03s.jpg,0.0,clockno_default.jpg,2.0,63,,,,,,,,,,,,,,,,,,,,,,,,,,,,,,,,
0.0,1.0,0.698715,0.0,10.0,10.0,10.0,1.0,ostrich_06s.jpg,0.0,clockno_default.jpg,2.0,63,,,,,,,,,,,,,,,,,,,,,,,,,,,,,,,,
0.0,1.0,1.019835,0.0,11.0,11.0,11.0,1.0,glue_01s.jpg,0.0,clockno_default.jpg,2.0,63,,,,,,,,,,,,,,,,,,,,,,,,,,,,,,,,
0.0,1.0,1.474675,0.0,12.0,12.0,12.0,1.0,fondue_07s.jpg,0.0,clockno_up.jpg,3.0,63,,,,,,,,,,,,,,,,,,,,,,,,,,,,,,,,
0.0,1.0,1.924935,0.0,13.0,13.0,13.0,1.0,lamp_08s.jpg,0.0,clockno_default.jpg,3.0,63,,,,,,,,,,,,,,,,,,,,,,,,,,,,,,,,
0.0,1.0,0.830655,0.0,14.0,14.0,14.0,1.0,lavender_10s.jpg,0.0,clockno_default.jpg,3.0,63,,,,,,,,,,,,,,,,,,,,,,,,,,,,,,,,
1.0,1.0,0.77052,0.0,15.0,15.0,15.0,1.0,lamp_08s.jpg,1.0,clockno_default.jpg,3.0,63,,,,,,,,,,,,,,,,,,,,,,,,,,,,,,,,
0.0,1.0,0.931805,0.0,16.0,16.0,16.0,1.0,spacesuit_02s.jpg,0.0,clockno_default.jpg,3.0,63,,,,,,,,,,,,,,,,,,,,,,,,,,,,,,,,
0.0,1.0,0.855635,0.0,17.0,17.0,17.0,1.0,marshmallow_08s.jpg,0.0,clockno_default.jpg,3.0,63,,,,,,,,,,,,,,,,,,,,,,,,,,,,,,,,
0.0,1.0,1.017775,0.0,18.0,18.0,18.0,1.0,ring_03s.jpg,0.0,clockno_up.jpg,4.0,63,,,,,,,,,,,,,,,,,,,,,,,,,,,,,,,,
1.0,1.0,0.79111,0.0,19.0,19.0,19.0,1.0,ring_03s.jpg,1.0,clockno_default.jpg,4.0,63,,,,,,,,,,,,,,,,,,,,,,,,,,,,,,,,
0.0,1.0,0.797585,0.0,20.0,20.0,20.0,1.0,fishhook_06s.jpg,0.0,clockno_default.jpg,4.0,63,,,,,,,,,,,,,,,,,,,,,,,,,,,,,,,,
0.0,1.0,0.754915,0.0,21.0,21.0,21.0,1.0,syringe_02s.jpg,0.0,clockno_default.jpg,4.0,63,,,,,,,,,,,,,,,,,,,,,,,,,,,,,,,,
0.0,1.0,0.679695,0.0,22.0,22.0,22.0,1.0,pencil02a.jpg,0.0,clockno_default.jpg,4.0,63,,,,,,,,,,,,,,,,,,,,,,,,,,,,,,,,
0.0,1.0,1.206045,0.0,23.0,23.0,23.0,1.0,crossbow_10s.jpg,0.0,clockno_up.jpg,5.0,63,,,,,,,,,,,,,,,,,,,,,,,,,,,,,,,,
0.0,1.0,0.899975,0.0,24.0,24.0,24.0,1.0,orange_12s.jpg,0.0,clockno_default.jpg,5.0,63,,,,,,,,,,,,,,,,,,,,,,,,,,,,,,,,
1.0,1.0,0.83767,0.0,25.0,25.0,25.0,1.0,crossbow_10s.jpg,1.0,clockno_default.jpg,5.0,63,,,,,,,,,,,,,,,,,,,,,,,,,,,,,,,,
0.0,1.0,0.77506,0.0,26.0,26.0,26.0,1.0,toilet_paper_12s.jpg,0.0,clockno_default.jpg,5.0,63,,,,,,,,,,,,,,,,,,,,,,,,,,,,,,,,
0.0,1.0,1.976725,0.0,27.0,27.0,27.0,1.0,antenna_01b.jpg,0.0,clockno_default.jpg,5.0,63,,,,,,,,,,,,,,,,,,,,,,,,,,,,,,,,
0.0,1.0,0.73201,0.0,28.0,28.0,28.0,1.0,panda_02s.jpg,0.0,clockno_default.jpg,5.0,63,,,,,,,,,,,,,,,,,,,,,,,,,,,,,,,,
0.0,1.0,1.124465,0.0,29.0,29.0,29.0,1.0,fire_alarm_05s.jpg,0.0,clockno_default.jpg,5.0,63,,,,,,,,,,,,,,,,,,,,,,,,,,,,,,,,
0.0,1.0,1.496875,0.0,30.0,30.0,30.0,1.0,orchid_01b.jpg,0.0,clockno_up.jpg,6.0,63,,,,,,,,,,,,,,,,,,,,,,,,,,,,,,,,
0.0,1.0,0.965755,0.0,31.0,31.0,31.0,1.0,swordfish_05s.jpg,0.0,clockno_default.jpg,6.0,63,,,,,,,,,,,,,,,,,,,,,,,,,,,,,,,,
0.0,1.0,1.556095,0.0,32.0,32.0,32.0,1.0,diving_board_07s.jpg,0.0,clockno_default.jpg,6.0,63,,,,,,,,,,,,,,,,,,,,,,,,,,,,,,,,
0.0,1.0,0.886855,0.0,33.0,33.0,33.0,1.0,police_car_01s.jpg,0.0,clockno_default.jpg,6.0,63,,,,,,,,,,,,,,,,,,,,,,,,,,,,,,,,
1.0,1.0,0.770255,0.0,34.0,34.0,34.0,1.0,police_car_01s.jpg,1.0,clockno_default.jpg,6.0,63,,,,,,,,,,,,,,,,,,,,,,,,,,,,,,,,
1.0,1.0,0.85241,0.0,35.0,35.0,35.0,1.0,swordfish_05s.jpg,1.0,clockno_default.jpg,6.0,63,,,,,,,,,,,,,,,,,,,,,,,,,,,,,,,,
,,,,,,,,,1.0,,,63,1.0,1.0,4.63034,0.0,0.0,0.0,0.0,1.0,rabbit_03s.jpg,fondue_07s.jpg,,,,,,,,,,,,,,,,,,,,,,
,,,,,,,,,0.0,,,63,1.0,0.0,1.63541,0.0,1.0,1.0,1.0,1.0,fishhook_06s.jpg,marshmallow_08s.jpg,,,,,,,,,,,,,,,,,,,,,,
,,,,,,,,,1.0,,,63,0.0,0.0,1.39875,0.0,2.0,2.0,2.0,1.0,syringe_02s.jpg,orange_12s.jpg,,,,,,,,,,,,,,,,,,,,,,
,,,,,,,,,1.0,,,63,1.0,1.0,1.06581,0.0,3.0,3.0,3.0,1.0,thumbtack_14s.jpg,popsicle_02s.jpg,,,,,,,,,,,,,,,,,,,,,,
,,,,,,,,,1.0,,,63,1.0,1.0,1.4121,0.0,4.0,4.0,4.0,1.0,tinsel_12s.jpg,ostrich_06s.jpg,,,,,,,,,,,,,,,,,,,,,,
,,,,,,,,,0.0,,,63,0.0,1.0,2.070955,0.0,5.0,5.0,5.0,1.0,glue_01s.jpg,exhaust_pipe_10s.jpg,,,,,,,,,,,,,,,,,,,,,,
,,,,,,,,,,,,63,,,,,,,,,,,0.0,4.0,4.0,4.0,1.0,clockno_present_5_7.xlsx,clockno_compare_task_5_7.xlsx,,,,,,,,,,,,,,,
0.0,1.0,0.88381,0.0,0.0,0.0,0.0,1.0,reindeer_08s.jpg,0.0,clockno_up.jpg,1.0,63,,,,,,,,,,,,,,,,,,,,,,,,,,,,,,,,
0.0,1.0,0.546865,0.0,1.0,1.0,1.0,1.0,hydrant_10s.jpg,0.0,clockno_default.jpg,1.0,63,,,,,,,,,,,,,,,,,,,,,,,,,,,,,,,,
0.0,1.0,0.863495,0.0,2.0,2.0,2.0,1.0,spoon02a.jpg,0.0,clockno_default.jpg,1.0,63,,,,,,,,,,,,,,,,,,,,,,,,,,,,,,,,
0.0,1.0,0.61345,0.0,3.0,3.0,3.0,1.0,pacifier_09s.jpg,0.0,clockno_default.jpg,1.0,63,,,,,,,,,,,,,,,,,,,,,,,,,,,,,,,,
0.0,1.0,0.74714,0.0,4.0,4.0,4.0,1.0,keyboard_05s.jpg,0.0,clockno_default.jpg,1.0,63,,,,,,,,,,,,,,,,,,,,,,,,,,,,,,,,
0.0,1.0,1.22157,0.0,5.0,5.0,5.0,1.0,bubble_01b.jpg,0.0,clockno_up.jpg,2.0,63,,,,,,,,,,,,,,,,,,,,,,,,,,,,,,,,
0.0,1.0,0.84916,0.0,6.0,6.0,6.0,1.0,leotard_08s.jpg,0.0,clockno_default.jpg,2.0,63,,,,,,,,,,,,,,,,,,,,,,,,,,,,,,,,
0.0,1.0,1.337245,0.0,7.0,7.0,7.0,1.0,tape_06s.jpg,0.0,clockno_default.jpg,2.0,63,,,,,,,,,,,,,,,,,,,,,,,,,,,,,,,,
0.0,1.0,0.78378,0.0,8.0,8.0,8.0,1.0,spatula04.jpg,0.0,clockno_default.jpg,2.0,63,,,,,,,,,,,,,,,,,,,,,,,,,,,,,,,,
0.0,1.0,1.071485,0.0,9.0,9.0,9.0,1.0,projector_08s.jpg,0.0,clockno_default.jpg,2.0,63,,,,,,,,,,,,,,,,,,,,,,,,,,,,,,,,
0.0,1.0,0.798795,0.0,10.0,10.0,10.0,1.0,bean_06s.jpg,0.0,clockno_default.jpg,2.0,63,,,,,,,,,,,,,,,,,,,,,,,,,,,,,,,,
0.0,1.0,1.12614,0.0,11.0,11.0,11.0,1.0,bottle_opener_11s.jpg,0.0,clockno_up.jpg,3.0,63,,,,,,,,,,,,,,,,,,,,,,,,,,,,,,,,
0.0,1.0,1.42987,0.0,12.0,12.0,12.0,1.0,razor_12s.jpg,0.0,clockno_default.jpg,3.0,63,,,,,,,,,,,,,,,,,,,,,,,,,,,,,,,,
1.0,1.0,0.94871,0.0,13.0,13.0,13.0,1.0,razor_12s.jpg,1.0,clockno_default.jpg,3.0,63,,,,,,,,,,,,,,,,,,,,,,,,,,,,,,,,
0.0,1.0,1.618245,0.0,14.0,14.0,14.0,1.0,razor_blade_01b.jpg,0.0,clockno_default.jpg,3.0,63,,,,,,,,,,,,,,,,,,,,,,,,,,,,,,,,
0.0,1.0,1.437145,0.0,15.0,15.0,15.0,1.0,quad_04s.jpg,0.0,clockno_default.jpg,3.0,63,,,,,,,,,,,,,,,,,,,,,,,,,,,,,,,,
0.0,1.0,1.34748,0.0,16.0,16.0,16.0,1.0,leotard_08s.jpg,0.0,clockno_default.jpg,3.0,63,,,,,,,,,,,,,,,,,,,,,,,,,,,,,,,,
0.0,1.0,0.825685,0.0,17.0,17.0,17.0,1.0,tiger_06s.jpg,0.0,clockno_default.jpg,3.0,63,,,,,,,,,,,,,,,,,,,,,,,,,,,,,,,,
0.0,1.0,1.36706,0.0,18.0,18.0,18.0,1.0,stethoscope_01b.jpg,0.0,clockno_up.jpg,4.0,63,,,,,,,,,,,,,,,,,,,,,,,,,,,,,,,,
0.0,1.0,1.214145,0.0,19.0,19.0,19.0,1.0,sugar_cube_11s.jpg,0.0,clockno_default.jpg,4.0,63,,,,,,,,,,,,,,,,,,,,,,,,,,,,,,,,
0.0,1.0,1.115775,0.0,20.0,20.0,20.0,1.0,joystick_01b.jpg,0.0,clockno_default.jpg,4.0,63,,,,,,,,,,,,,,,,,,,,,,,,,,,,,,,,
1.0,1.0,0.883495,0.0,21.0,21.0,21.0,1.0,stethoscope_01b.jpg,1.0,clockno_default.jpg,4.0,63,,,,,,,,,,,,,,,,,,,,,,,,,,,,,,,,
0.0,1.0,0.5469,0.0,22.0,22.0,22.0,1.0,taxi_15s.jpg,0.0,clockno_default.jpg,4.0,63,,,,,,,,,,,,,,,,,,,,,,,,,,,,,,,,
0.0,1.0,1.080195,0.0,23.0,23.0,23.0,1.0,pepper2_21s.jpg,0.0,clockno_up.jpg,5.0,63,,,,,,,,,,,,,,,,,,,,,,,,,,,,,,,,
0.0,1.0,0.76199,0.0,24.0,24.0,24.0,1.0,pillbox_04s.jpg,0.0,clockno_default.jpg,5.0,63,,,,,,,,,,,,,,,,,,,,,,,,,,,,,,,,
0.0,1.0,1.18429,0.0,25.0,25.0,25.0,1.0,kimono_13s.jpg,0.0,clockno_default.jpg,5.0,63,,,,,,,,,,,,,,,,,,,,,,,,,,,,,,,,
0.0,1.0,0.658315,0.0,26.0,26.0,26.0,1.0,owl_15s.jpg,0.0,clockno_default.jpg,5.0,63,,,,,,,,,,,,,,,,,,,,,,,,,,,,,,,,
1.0,1.0,1.00416,0.0,27.0,27.0,27.0,1.0,kimono_13s.jpg,1.0,clockno_default.jpg,5.0,63,,,,,,,,,,,,,,,,,,,,,,,,,,,,,,,,
1.0,1.0,1.01175,0.0,28.0,28.0,28.0,1.0,owl_15s.jpg,1.0,clockno_default.jpg,5.0,63,,,,,,,,,,,,,,,,,,,,,,,,,,,,,,,,
0.0,1.0,1.07223,0.0,29.0,29.0,29.0,1.0,pencil_sharpener_09n.jpg,0.0,clockno_up.jpg,6.0,63,,,,,,,,,,,,,,,,,,,,,,,,,,,,,,,,
0.0,1.0,0.69351,0.0,30.0,30.0,30.0,1.0,eggshell_14s.jpg,0.0,clockno_default.jpg,6.0,63,,,,,,,,,,,,,,,,,,,,,,,,,,,,,,,,
0.0,1.0,1.74011,0.0,31.0,31.0,31.0,1.0,bank_06s.jpg,0.0,clockno_default.jpg,6.0,63,,,,,,,,,,,,,,,,,,,,,,,,,,,,,,,,
0.0,1.0,1.73492,0.0,32.0,32.0,32.0,1.0,thread_08s.jpg,0.0,clockno_default.jpg,6.0,63,,,,,,,,,,,,,,,,,,,,,,,,,,,,,,,,
0.0,1.0,1.55556,0.0,33.0,33.0,33.0,1.0,bee_20s.jpg,0.0,clockno_default.jpg,6.0,63,,,,,,,,,,,,,,,,,,,,,,,,,,,,,,,,
1.0,1.0,1.23903,0.0,34.0,34.0,34.0,1.0,bank_06s.jpg,1.0,clockno_default.jpg,6.0,63,,,,,,,,,,,,,,,,,,,,,,,,,,,,,,,,
,0.0,,0.0,35.0,35.0,35.0,1.0,fireworks_18s.jpg,0.0,clockno_default.jpg,6.0,63,,,,,,,,,,,,,,,,,,,,,,,,,,,,,,,,
,,,,,,,,,0.0,,,63,1.0,0.0,1.861115,0.0,0.0,0.0,0.0,1.0,pepper2_21s.jpg,joystick_01b.jpg,,,,,,,,,,,,,,,,,,,,,,
,,,,,,,,,1.0,,,63,0.0,0.0,1.342485,0.0,1.0,1.0,1.0,1.0,spoon02a.jpg,bubble_01b.jpg,,,,,,,,,,,,,,,,,,,,,,
,,,,,,,,,1.0,,,63,0.0,0.0,1.66498,0.0,2.0,2.0,2.0,1.0,keyboard_05s.jpg,tape_06s.jpg,,,,,,,,,,,,,,,,,,,,,,
,,,,,,,,,1.0,,,63,1.0,1.0,1.693125,0.0,3.0,3.0,3.0,1.0,reindeer_08s.jpg,pacifier_09s.jpg,,,,,,,,,,,,,,,,,,,,,,
,,,,,,,,,1.0,,,63,1.0,1.0,1.490775,0.0,4.0,4.0,4.0,1.0,sugar_cube_11s.jpg,taxi_15s.jpg,,,,,,,,,,,,,,,,,,,,,,
,,,,,,,,,1.0,,,63,1.0,1.0,1.511735,0.0,5.0,5.0,5.0,1.0,pencil_sharpener_09n.jpg,thread_08s.jpg,,,,,,,,,,,,,,,,,,,,,,
0.0,1.0,1.44142,,,,,,target_11s.jpg,0.0,clock_7_1.png,1.0,63,,,,,,,,,,,,,,,,,,0.0,0.0,0.0,0.0,1.0,,,,,,,,,,
0.0,1.0,2.037825,,,,,,ram_05s.jpg,0.0,clock_7_2.png,1.0,63,,,,,,,,,,,,,,,,,,0.0,1.0,1.0,1.0,1.0,,,,,,,,,,
0.0,1.0,0.968735,,,,,,stopwatch_04s.jpg,0.0,clock_7_3.png,1.0,63,,,,,,,,,,,,,,,,,,0.0,2.0,2.0,2.0,1.0,,,,,,,,,,
0.0,1.0,0.730145,,,,,,paper_towel_03s.jpg,0.0,clock_7_4.png,1.0,63,,,,,,,,,,,,,,,,,,0.0,3.0,3.0,3.0,1.0,,,,,,,,,,
1.0,1.0,0.72022,,,,,,stopwatch_04s.jpg,1.0,clock_7_5.png,1.0,63,,,,,,,,,,,,,,,,,,0.0,4.0,4.0,4.0,1.0,,,,,,,,,,
0.0,1.0,1.18529,,,,,,bacon_05s.jpg,0.0,clock_7_6.png,1.0,63,,,,,,,,,,,,,,,,,,0.0,5.0,5.0,5.0,1.0,,,,,,,,,,
0.0,1.0,0.73992,,,,,,hummingbird_05s.jpg,0.0,clock_7_7.png,1.0,63,,,,,,,,,,,,,,,,,,0.0,6.0,6.0,6.0,1.0,,,,,,,,,,
0.0,1.0,0.96744,,,,,,ivy_12s.jpg,0.0,clock_5_1.png,2.0,63,,,,,,,,,,,,,,,,,,0.0,7.0,7.0,7.0,1.0,,,,,,,,,,
1.0,1.0,0.505745,,,,,,ivy_12s.jpg,1.0,clock_5_2.png,2.0,63,,,,,,,,,,,,,,,,,,0.0,8.0,8.0,8.0,1.0,,,,,,,,,,
0.0,1.0,1.324655,,,,,,espresso_01b.jpg,0.0,clock_5_3.png,2.0,63,,,,,,,,,,,,,,,,,,0.0,9.0,9.0,9.0,1.0,,,,,,,,,,
0.0,1.0,0.84288,,,,,,mailbox_11s.jpg,0.0,clock_5_4.png,2.0,63,,,,,,,,,,,,,,,,,,0.0,10.0,10.0,10.0,1.0,,,,,,,,,,
0.0,1.0,1.63034,,,,,,hummingbird_05s.jpg,0.0,clock_5_5.png,2.0,63,,,,,,,,,,,,,,,,,,0.0,11.0,11.0,11.0,1.0,,,,,,,,,,
0.0,1.0,1.522275,,,,,,orangutan_03s.jpg,0.0,clock_7_1.png,3.0,63,,,,,,,,,,,,,,,,,,0.0,12.0,12.0,12.0,1.0,,,,,,,,,,
0.0,1.0,1.315225,,,,,,sledgehammer_03s.jpg,0.0,clock_7_2.png,3.0,63,,,,,,,,,,,,,,,,,,0.0,13.0,13.0,13.0,1.0,,,,,,,,,,
0.0,1.0,1.305105,,,,,,kettle_08s.jpg,0.0,clock_7_3.png,3.0,63,,,,,,,,,,,,,,,,,,0.0,14.0,14.0,14.0,1.0,,,,,,,,,,
0.0,1.0,0.75495,,,,,,sleeping_bag_12s.jpg,0.0,clock_7_4.png,3.0,63,,,,,,,,,,,,,,,,,,0.0,15.0,15.0,15.0,1.0,,,,,,,,,,
0.0,1.0,1.25647,,,,,,ginger_09s.jpg,0.0,clock_7_5.png,3.0,63,,,,,,,,,,,,,,,,,,0.0,16.0,16.0,16.0,1.0,,,,,,,,,,
0.0,1.0,1.49786,,,,,,ironing_board_07s.jpg,0.0,clock_7_6.png,3.0,63,,,,,,,,,,,,,,,,,,0.0,17.0,17.0,17.0,1.0,,,,,,,,,,
0.0,1.0,1.68027,,,,,,rhubarb_03s.jpg,0.0,clock_7_7.png,3.0,63,,,,,,,,,,,,,,,,,,0.0,18.0,18.0,18.0,1.0,,,,,,,,,,
0.0,1.0,0.854985,,,,,,jukebox_03n.jpg,0.0,clock_5_1.png,4.0,63,,,,,,,,,,,,,,,,,,0.0,19.0,19.0,19.0,1.0,,,,,,,,,,
0.0,1.0,0.876565,,,,,,soccer_ball_12s.jpg,0.0,clock_5_2.png,4.0,63,,,,,,,,,,,,,,,,,,0.0,20.0,20.0,20.0,1.0,,,,,,,,,,
0.0,1.0,0.597445,,,,,,recliner_02s.jpg,0.0,clock_5_3.png,4.0,63,,,,,,,,,,,,,,,,,,0.0,21.0,21.0,21.0,1.0,,,,,,,,,,
0.0,0.0,0.93728,,,,,,jukebox_03n.jpg,1.0,clock_5_4.png,4.0,63,,,,,,,,,,,,,,,,,,0.0,22.0,22.0,22.0,1.0,,,,,,,,,,
1.0,1.0,1.01608,,,,,,soccer_ball_12s.jpg,1.0,clock_5_5.png,4.0,63,,,,,,,,,,,,,,,,,,0.0,23.0,23.0,23.0,1.0,,,,,,,,,,
0.0,1.0,1.18898,,,,,,rollerskate_03s.jpg,0.0,clock_6_1.png,5.0,63,,,,,,,,,,,,,,,,,,0.0,24.0,24.0,24.0,1.0,,,,,,,,,,
0.0,1.0,1.481475,,,,,,lizard_10n.jpg,0.0,clock_6_2.png,5.0,63,,,,,,,,,,,,,,,,,,0.0,25.0,25.0,25.0,1.0,,,,,,,,,,
0.0,1.0,0.82412,,,,,,microwave_02s.jpg,0.0,clock_6_3.png,5.0,63,,,,,,,,,,,,,,,,,,0.0,26.0,26.0,26.0,1.0,,,,,,,,,,
0.0,1.0,1.222545,,,,,,cushion_08s.jpg,0.0,clock_6_4.png,5.0,63,,,,,,,,,,,,,,,,,,0.0,27.0,27.0,27.0,1.0,,,,,,,,,,
0.0,1.0,1.571545,,,,,,roller_coaster_07s.jpg,0.0,clock_6_5.png,5.0,63,,,,,,,,,,,,,,,,,,0.0,28.0,28.0,28.0,1.0,,,,,,,,,,
0.0,1.0,0.715745,,,,,,licorice_06s.jpg,0.0,clock_6_6.png,5.0,63,,,,,,,,,,,,,,,,,,0.0,29.0,29.0,29.0,1.0,,,,,,,,,,
0.0,1.0,0.82223,,,,,,pincushion_10s.jpg,0.0,clock_6_1.png,6.0,63,,,,,,,,,,,,,,,,,,0.0,30.0,30.0,30.0,1.0,,,,,,,,,,
0.0,1.0,0.605775,,,,,,compass_10n.jpg,0.0,clock_6_2.png,6.0,63,,,,,,,,,,,,,,,,,,0.0,31.0,31.0,31.0,1.0,,,,,,,,,,
1.0,1.0,1.0144,,,,,,pincushion_10s.jpg,1.0,clock_6_3.png,6.0,63,,,,,,,,,,,,,,,,,,0.0,32.0,32.0,32.0,1.0,,,,,,,,,,
1.0,1.0,0.960335,,,,,,compass_10n.jpg,1.0,clock_6_4.png,6.0,63,,,,,,,,,,,,,,,,,,0.0,33.0,33.0,33.0,1.0,,,,,,,,,,
0.0,1.0,1.170945,,,,,,penguin_16s.jpg,0.0,clock_6_5.png,6.0,63,,,,,,,,,,,,,,,,,,0.0,34.0,34.0,34.0,1.0,,,,,,,,,,
1.0,1.0,0.82616,,,,,,penguin_16s.jpg,1.0,clock_6_6.png,6.0,63,,,,,,,,,,,,,,,,,,0.0,35.0,35.0,35.0,1.0,,,,,,,,,,
,,,,,,,,,1.0,,,63,0.0,0.0,1.816705,,,,,,espresso_01b.jpg,orangutan_03s.jpg,,,,,,,,,,,,,0.0,0.0,0.0,0.0,1.0,,,,,
,,,,,,,,,1.0,,,63,0.0,0.0,1.570835,,,,,,mailbox_11s.jpg,sledgehammer_03s.jpg,,,,,,,,,,,,,0.0,1.0,1.0,1.0,1.0,,,,,
,,,,,,,,,1.0,,,63,1.0,1.0,1.251025,,,,,,rhubarb_03s.jpg,recliner_02s.jpg,,,,,,,,,,,,,0.0,2.0,2.0,2.0,1.0,,,,,
,,,,,,,,,0.0,,,63,0.0,1.0,1.42805,,,,,,paper_towel_03s.jpg,target_11s.jpg,,,,,,,,,,,,,0.0,3.0,3.0,3.0,1.0,,,,,
,,,,,,,,,1.0,,,63,1.0,1.0,1.176265,,,,,,kettle_08s.jpg,ironing_board_07s.jpg,,,,,,,,,,,,,0.0,4.0,4.0,4.0,1.0,,,,,
,,,,,,,,,1.0,,,63,1.0,1.0,2.098375,,,,,,lizard_10n.jpg,roller_coaster_07s.jpg,,,,,,,,,,,,,0.0,5.0,5.0,5.0,1.0,,,,,
,,,,,,,,,,,,63,,,,,,,,,,,,,,,,clock_present_1_7.xlsx,clock_compare_task_1_7.xlsx,,,,,,,,,,,0.0,0.0,0.0,0.0,1.0
0.0,1.0,1.710495,,,,,,buoy_04s.jpg,0.0,clock_5_1.png,1.0,63,,,,,,,,,,,,,,,,,,0.0,0.0,0.0,0.0,1.0,,,,,,,,,,
0.0,1.0,0.64863,,,,,,safety_pin_02s.jpg,0.0,clock_5_2.png,1.0,63,,,,,,,,,,,,,,,,,,0.0,1.0,1.0,1.0,1.0,,,,,,,,,,
0.0,1.0,0.669775,,,,,,printer_09s.jpg,0.0,clock_5_3.png,1.0,63,,,,,,,,,,,,,,,,,,0.0,2.0,2.0,2.0,1.0,,,,,,,,,,
0.0,1.0,0.63025,,,,,,amber_04s.jpg,0.0,clock_5_4.png,1.0,63,,,,,,,,,,,,,,,,,,0.0,3.0,3.0,3.0,1.0,,,,,,,,,,
1.0,1.0,1.19189,,,,,,printer_09s.jpg,1.0,clock_5_5.png,1.0,63,,,,,,,,,,,,,,,,,,0.0,4.0,4.0,4.0,1.0,,,,,,,,,,
0.0,1.0,1.26888,,,,,,abacus_12s.jpg,0.0,clock_6_1.png,2.0,63,,,,,,,,,,,,,,,,,,0.0,5.0,5.0,5.0,1.0,,,,,,,,,,
1.0,1.0,0.924575,,,,,,abacus_12s.jpg,1.0,clock_6_2.png,2.0,63,,,,,,,,,,,,,,,,,,0.0,6.0,6.0,6.0,1.0,,,,,,,,,,
0.0,1.0,1.94949,,,,,,sushi_08s.jpg,0.0,clock_6_3.png,2.0,63,,,,,,,,,,,,,,,,,,0.0,7.0,7.0,7.0,1.0,,,,,,,,,,
0.0,1.0,0.7638,,,,,,soda_fountain_03s.jpg,0.0,clock_6_4.png,2.0,63,,,,,,,,,,,,,,,,,,0.0,8.0,8.0,8.0,1.0,,,,,,,,,,
1.0,1.0,1.55526,,,,,,soda_fountain_03s.jpg,1.0,clock_6_5.png,2.0,63,,,,,,,,,,,,,,,,,,0.0,9.0,9.0,9.0,1.0,,,,,,,,,,
0.0,1.0,1.551,,,,,,telephone_pole_05s.jpg,0.0,clock_6_6.png,2.0,63,,,,,,,,,,,,,,,,,,0.0,10.0,10.0,10.0,1.0,,,,,,,,,,
0.0,1.0,1.648505,,,,,,plug_08s.jpg,0.0,clock_5_1.png,3.0,63,,,,,,,,,,,,,,,,,,0.0,11.0,11.0,11.0,1.0,,,,,,,,,,
1.0,1.0,1.470795,,,,,,plug_08s.jpg,1.0,clock_5_2.png,3.0,63,,,,,,,,,,,,,,,,,,0.0,12.0,12.0,12.0,1.0,,,,,,,,,,
0.0,1.0,0.938375,,,,,,power_line_08s.jpg,0.0,clock_5_3.png,3.0,63,,,,,,,,,,,,,,,,,,0.0,13.0,13.0,13.0,1.0,,,,,,,,,,
0.0,1.0,0.818385,,,,,,racehorse_03s.jpg,0.0,clock_5_4.png,3.0,63,,,,,,,,,,,,,,,,,,0.0,14.0,14.0,14.0,1.0,,,,,,,,,,
1.0,0.0,2.271105,,,,,,telephone_pole_05s.jpg,0.0,clock_5_5.png,3.0,63,,,,,,,,,,,,,,,,,,0.0,15.0,15.0,15.0,1.0,,,,,,,,,,
0.0,1.0,0.849745,,,,,,tape_measure_11s.jpg,0.0,clock_7_1.png,4.0,63,,,,,,,,,,,,,,,,,,0.0,16.0,16.0,16.0,1.0,,,,,,,,,,
0.0,1.0,0.772275,,,,,,swan_11s.jpg,0.0,clock_7_2.png,4.0,63,,,,,,,,,,,,,,,,,,0.0,17.0,17.0,17.0,1.0,,,,,,,,,,
0.0,1.0,0.780495,,,,,,tripod_01b.jpg,0.0,clock_7_3.png,4.0,63,,,,,,,,,,,,,,,,,,0.0,18.0,18.0,18.0,1.0,,,,,,,,,,
1.0,1.0,0.98264,,,,,,tripod_01b.jpg,1.0,clock_7_4.png,4.0,63,,,,,,,,,,,,,,,,,,0.0,19.0,19.0,19.0,1.0,,,,,,,,,,
0.0,1.0,1.40952,,,,,,jet_15s.jpg,0.0,clock_7_5.png,4.0,63,,,,,,,,,,,,,,,,,,0.0,20.0,20.0,20.0,1.0,,,,,,,,,,
0.0,1.0,1.066945,,,,,,soda_fountain_03s.jpg,0.0,clock_7_6.png,4.0,63,,,,,,,,,,,,,,,,,,0.0,21.0,21.0,21.0,1.0,,,,,,,,,,
0.0,1.0,1.09902,,,,,,tennis_ball_06s.jpg,0.0,clock_7_7.png,4.0,63,,,,,,,,,,,,,,,,,,0.0,22.0,22.0,22.0,1.0,,,,,,,,,,
0.0,1.0,1.24933,,,,,,peeler_06s.jpg,0.0,clock_7_1.png,5.0,63,,,,,,,,,,,,,,,,,,0.0,23.0,23.0,23.0,1.0,,,,,,,,,,
,0.0,,,,,,,jersey_02s.jpg,0.0,clock_7_2.png,5.0,63,,,,,,,,,,,,,,,,,,0.0,24.0,24.0,24.0,1.0,,,,,,,,,,
0.0,1.0,1.73073,,,,,,tiara_05s.jpg,0.0,clock_7_3.png,5.0,63,,,,,,,,,,,,,,,,,,0.0,25.0,25.0,25.0,1.0,,,,,,,,,,
0.0,1.0,1.2919,,,,,,butter_14s.jpg,0.0,clock_7_4.png,5.0,63,,,,,,,,,,,,,,,,,,0.0,26.0,26.0,26.0,1.0,,,,,,,,,,
0.0,1.0,1.66597,,,,,,trumpet_06s.jpg,0.0,clock_7_5.png,5.0,63,,,,,,,,,,,,,,,,,,0.0,27.0,27.0,27.0,1.0,,,,,,,,,,
0.0,0.0,2.286135,,,,,,trumpet_06s.jpg,1.0,clock_7_6.png,5.0,63,,,,,,,,,,,,,,,,,,0.0,28.0,28.0,28.0,1.0,,,,,,,,,,
0.0,1.0,0.704055,,,,,,coconut_08s.jpg,0.0,clock_7_7.png,5.0,63,,,,,,,,,,,,,,,,,,0.0,29.0,29.0,29.0,1.0,,,,,,,,,,
0.0,1.0,0.969205,,,,,,plaster_cast_13s.jpg,0.0,clock_6_1.png,6.0,63,,,,,,,,,,,,,,,,,,0.0,30.0,30.0,30.0,1.0,,,,,,,,,,
0.0,1.0,0.77453,,,,,,milk_02s.jpg,0.0,clock_6_2.png,6.0,63,,,,,,,,,,,,,,,,,,0.0,31.0,31.0,31.0,1.0,,,,,,,,,,
0.0,1.0,0.630715,,,,,,mirror_12s.jpg,0.0,clock_6_3.png,6.0,63,,,,,,,,,,,,,,,,,,0.0,32.0,32.0,32.0,1.0,,,,,,,,,,
0.0,1.0,0.73605,,,,,,lectern_08s.jpg,0.0,clock_6_4.png,6.0,63,,,,,,,,,,,,,,,,,,0.0,33.0,33.0,33.0,1.0,,,,,,,,,,
1.0,1.0,0.697695,,,,,,plaster_cast_13s.jpg,1.0,clock_6_5.png,6.0,63,,,,,,,,,,,,,,,,,,0.0,34.0,34.0,34.0,1.0,,,,,,,,,,
0.0,1.0,0.626115,,,,,,tie_03s.jpg,0.0,clock_6_6.png,6.0,63,,,,,,,,,,,,,,,,,,0.0,35.0,35.0,35.0,1.0,,,,,,,,,,
,,,,,,,,,0.0,,,63,1.0,0.0,1.908695,,,,,,tape_measure_11s.jpg,power_line_08s.jpg,,,,,,,,,,,,,0.0,0.0,0.0,0.0,1.0,,,,,
,,,,,,,,,1.0,,,63,0.0,0.0,1.653205,,,,,,tennis_ball_06s.jpg,tiara_05s.jpg,,,,,,,,,,,,,0.0,1.0,1.0,1.0,1.0,,,,,
,,,,,,,,,1.0,,,63,0.0,0.0,1.58242,,,,,,racehorse_03s.jpg,swan_11s.jpg,,,,,,,,,,,,,0.0,2.0,2.0,2.0,1.0,,,,,
,,,,,,,,,1.0,,,63,1.0,1.0,1.019405,,,,,,buoy_04s.jpg,amber_04s.jpg,,,,,,,,,,,,,0.0,3.0,3.0,3.0,1.0,,,,,
,,,,,,,,,1.0,,,63,1.0,1.0,1.319805,,,,,,peeler_06s.jpg,butter_14s.jpg,,,,,,,,,,,,,0.0,4.0,4.0,4.0,1.0,,,,,
,,,,,,,,,1.0,,,63,1.0,1.0,1.24797,,,,,,mirror_12s.jpg,tie_03s.jpg,,,,,,,,,,,,,0.0,5.0,5.0,5.0,1.0,,,,,
,,,,,,,,,,,,63,,,,,,,,,,,,,,,,clock_present_2_7.xlsx,clock_compare_task_2_7.xlsx,,,,,,,,,,,0.0,1.0,1.0,1.0,1.0
0.0,1.0,1.11865,,,,,,lifesaver_10s.jpg,0.0,clock_6_1.png,1.0,63,,,,,,,,,,,,,,,,,,0.0,0.0,0.0,0.0,1.0,,,,,,,,,,
1.0,1.0,0.53736,,,,,,lifesaver_10s.jpg,1.0,clock_6_2.png,1.0,63,,,,,,,,,,,,,,,,,,0.0,1.0,1.0,1.0,1.0,,,,,,,,,,
1.0,1.0,0.69806,,,,,,lifesaver_10s.jpg,1.0,clock_6_3.png,1.0,63,,,,,,,,,,,,,,,,,,0.0,2.0,2.0,2.0,1.0,,,,,,,,,,
0.0,1.0,0.725795,,,,,,feather02.jpg,0.0,clock_6_4.png,1.0,63,,,,,,,,,,,,,,,,,,0.0,3.0,3.0,3.0,1.0,,,,,,,,,,
0.0,1.0,0.80758,,,,,,laundry_basket_11s.jpg,0.0,clock_6_5.png,1.0,63,,,,,,,,,,,,,,,,,,0.0,4.0,4.0,4.0,1.0,,,,,,,,,,
0.0,1.0,1.85878,,,,,,checkbook_11s.jpg,0.0,clock_6_6.png,1.0,63,,,,,,,,,,,,,,,,,,0.0,5.0,5.0,5.0,1.0,,,,,,,,,,
0.0,1.0,0.60062,,,,,,icicle_04s.jpg,0.0,clock_7_1.png,2.0,63,,,,,,,,,,,,,,,,,,0.0,6.0,6.0,6.0,1.0,,,,,,,,,,
0.0,1.0,0.987945,,,,,,lifesaver_10s.jpg,0.0,clock_7_2.png,2.0,63,,,,,,,,,,,,,,,,,,0.0,7.0,7.0,7.0,1.0,,,,,,,,,,
0.0,1.0,0.748465,,,,,,basket_05s.jpg,0.0,clock_7_3.png,2.0,63,,,,,,,,,,,,,,,,,,0.0,8.0,8.0,8.0,1.0,,,,,,,,,,
0.0,1.0,0.680375,,,,,,radio_09s.jpg,0.0,clock_7_4.png,2.0,63,,,,,,,,,,,,,,,,,,0.0,9.0,9.0,9.0,1.0,,,,,,,,,,
0.0,1.0,1.151265,,,,,,leash_10s.jpg,0.0,clock_7_5.png,2.0,63,,,,,,,,,,,,,,,,,,0.0,10.0,10.0,10.0,1.0,,,,,,,,,,
0.0,1.0,1.08482,,,,,,teacup_07s.jpg,0.0,clock_7_6.png,2.0,63,,,,,,,,,,,,,,,,,,0.0,11.0,11.0,11.0,1.0,,,,,,,,,,
1.0,1.0,1.580965,,,,,,lifesaver_10s.jpg,1.0,clock_7_7.png,2.0,63,,,,,,,,,,,,,,,,,,0.0,12.0,12.0,12.0,1.0,,,,,,,,,,
0.0,1.0,1.09807,,,,,,squirt_gun_03s.jpg,0.0,clock_6_1.png,3.0,63,,,,,,,,,,,,,,,,,,0.0,13.0,13.0,13.0,1.0,,,,,,,,,,
0.0,1.0,0.82302,,,,,,golf_club_03s.jpg,0.0,clock_6_2.png,3.0,63,,,,,,,,,,,,,,,,,,0.0,14.0,14.0,14.0,1.0,,,,,,,,,,
0.0,1.0,0.614815,,,,,,laundry_basket_11s.jpg,0.0,clock_6_3.png,3.0,63,,,,,,,,,,,,,,,,,,0.0,15.0,15.0,15.0,1.0,,,,,,,,,,
0.0,1.0,0.691835,,,,,,teacup_07s.jpg,0.0,clock_6_4.png,3.0,63,,,,,,,,,,,,,,,,,,0.0,16.0,16.0,16.0,1.0,,,,,,,,,,
1.0,1.0,0.85091,,,,,,squirt_gun_03s.jpg,1.0,clock_6_5.png,3.0,63,,,,,,,,,,,,,,,,,,0.0,17.0,17.0,17.0,1.0,,,,,,,,,,
0.0,1.0,0.86594,,,,,,outlet_10s.jpg,0.0,clock_6_6.png,3.0,63,,,,,,,,,,,,,,,,,,0.0,18.0,18.0,18.0,1.0,,,,,,,,,,
0.0,1.0,1.424995,,,,,,polar_bear_02s.jpg,0.0,clock_5_1.png,4.0,63,,,,,,,,,,,,,,,,,,0.0,19.0,19.0,19.0,1.0,,,,,,,,,,
1.0,1.0,0.92128,,,,,,polar_bear_02s.jpg,1.0,clock_5_2.png,4.0,63,,,,,,,,,,,,,,,,,,0.0,20.0,20.0,20.0,1.0,,,,,,,,,,
0.0,1.0,0.717995,,,,,,smoothie_09s.jpg,0.0,clock_5_3.png,4.0,63,,,,,,,,,,,,,,,,,,0.0,21.0,21.0,21.0,1.0,,,,,,,,,,
0.0,1.0,0.76497,,,,,,pump_11s.jpg,0.0,clock_5_4.png,4.0,63,,,,,,,,,,,,,,,,,,0.0,22.0,22.0,22.0,1.0,,,,,,,,,,
0.0,1.0,0.80461,,,,,,magnet_03s.jpg,0.0,clock_5_5.png,4.0,63,,,,,,,,,,,,,,,,,,0.0,23.0,23.0,23.0,1.0,,,,,,,,,,
0.0,1.0,1.33015,,,,,,ravioli_08s.jpg,0.0,clock_5_1.png,5.0,63,,,,,,,,,,,,,,,,,,0.0,24.0,24.0,24.0,1.0,,,,,,,,,,
1.0,1.0,0.53299,,,,,,ravioli_08s.jpg,1.0,clock_5_2.png,5.0,63,,,,,,,,,,,,,,,,,,0.0,25.0,25.0,25.0,1.0,,,,,,,,,,
0.0,1.0,1.110015,,,,,,flip_flop_03s.jpg,0.0,clock_5_3.png,5.0,63,,,,,,,,,,,,,,,,,,0.0,26.0,26.0,26.0,1.0,,,,,,,,,,
0.0,1.0,0.82111,,,,,,loom_05s.jpg,0.0,clock_5_4.png,5.0,63,,,,,,,,,,,,,,,,,,0.0,27.0,27.0,27.0,1.0,,,,,,,,,,
0.0,1.0,0.65019,,,,,,comic_book_02s.jpg,0.0,clock_5_5.png,5.0,63,,,,,,,,,,,,,,,,,,0.0,28.0,28.0,28.0,1.0,,,,,,,,,,
0.0,1.0,1.19177,,,,,,emerald_02s.jpg,0.0,clock_7_1.png,6.0,63,,,,,,,,,,,,,,,,,,0.0,29.0,29.0,29.0,1.0,,,,,,,,,,
0.0,1.0,1.17223,,,,,,popcorn_09s.jpg,0.0,clock_7_2.png,6.0,63,,,,,,,,,,,,,,,,,,0.0,30.0,30.0,30.0,1.0,,,,,,,,,,
0.0,1.0,0.72064,,,,,,tupperware_09s.jpg,0.0,clock_7_3.png,6.0,63,,,,,,,,,,,,,,,,,,0.0,31.0,31.0,31.0,1.0,,,,,,,,,,
0.0,1.0,0.835895,,,,,,piano_13n.jpg,0.0,clock_7_4.png,6.0,63,,,,,,,,,,,,,,,,,,0.0,32.0,32.0,32.0,1.0,,,,,,,,,,
0.0,1.0,0.684665,,,,,,flip_flop_03s.jpg,0.0,clock_7_5.png,6.0,63,,,,,,,,,,,,,,,,,,0.0,33.0,33.0,33.0,1.0,,,,,,,,,,
0.0,1.0,0.64309,,,,,,quilt_03s.jpg,0.0,clock_7_6.png,6.0,63,,,,,,,,,,,,,,,,,,0.0,34.0,34.0,34.0,1.0,,,,,,,,,,
0.0,1.0,0.83365,,,,,,coffee_filter_10s.jpg,0.0,clock_7_7.png,6.0,63,,,,,,,,,,,,,,,,,,0.0,35.0,35.0,35.0,1.0,,,,,,,,,,
,,,,,,,,,1.0,,,63,1.0,1.0,1.366285,,,,,,checkbook_11s.jpg,basket_05s.jpg,,,,,,,,,,,,,0.0,0.0,0.0,0.0,1.0,,,,,
,,,,,,,,,0.0,,,63,0.0,1.0,1.152295,,,,,,smoothie_09s.jpg,outlet_10s.jpg,,,,,,,,,,,,,0.0,1.0,1.0,1.0,1.0,,,,,
,,,,,,,,,0.0,,,63,0.0,1.0,3.0673,,,,,,popcorn_09s.jpg,loom_05s.jpg,,,,,,,,,,,,,0.0,2.0,2.0,2.0,1.0,,,,,
,,,,,,,,,1.0,,,63,1.0,1.0,1.670865,,,,,,emerald_02s.jpg,piano_13n.jpg,,,,,,,,,,,,,0.0,3.0,3.0,3.0,1.0,,,,,
,,,,,,,,,0.0,,,63,0.0,1.0,1.5435,,,,,,radio_09s.jpg,icicle_04s.jpg,,,,,,,,,,,,,0.0,4.0,4.0,4.0,1.0,,,,,
,,,,,,,,,0.0,,,63,0.0,1.0,1.25927,,,,,,quilt_03s.jpg,tupperware_09s.jpg,,,,,,,,,,,,,0.0,5.0,5.0,5.0,1.0,,,,,
,,,,,,,,,,,,63,,,,,,,,,,,,,,,,clock_present_3_7.xlsx,clock_compare_task_3_7.xlsx,,,,,,,,,,,0.0,2.0,2.0,2.0,1.0
0.0,1.0,1.09186,,,,,,turf_03s.jpg,0.0,clock_7_1.png,1.0,63,,,,,,,,,,,,,,,,,,0.0,0.0,0.0,0.0,1.0,,,,,,,,,,
0.0,1.0,0.97699,,,,,,letter_opener_03s.jpg,0.0,clock_7_2.png,1.0,63,,,,,,,,,,,,,,,,,,0.0,1.0,1.0,1.0,1.0,,,,,,,,,,
0.0,1.0,0.519715,,,,,,cucumber_07s.jpg,0.0,clock_7_3.png,1.0,63,,,,,,,,,,,,,,,,,,0.0,2.0,2.0,2.0,1.0,,,,,,,,,,
0.0,1.0,0.613665,,,,,,cap_05s.jpg,0.0,clock_7_4.png,1.0,63,,,,,,,,,,,,,,,,,,0.0,3.0,3.0,3.0,1.0,,,,,,,,,,
0.0,1.0,0.60079,,,,,,kite_04s.jpg,0.0,clock_7_5.png,1.0,63,,,,,,,,,,,,,,,,,,0.0,4.0,4.0,4.0,1.0,,,,,,,,,,
0.0,1.0,1.463735,,,,,,pomegranate_04s.jpg,0.0,clock_7_6.png,1.0,63,,,,,,,,,,,,,,,,,,0.0,5.0,5.0,5.0,1.0,,,,,,,,,,
0.0,1.0,0.859715,,,,,,lab_coat_11s.jpg,0.0,clock_7_7.png,1.0,63,,,,,,,,,,,,,,,,,,0.0,6.0,6.0,6.0,1.0,,,,,,,,,,
0.0,1.0,1.065095,,,,,,powder_07s.jpg,0.0,clock_5_1.png,2.0,63,,,,,,,,,,,,,,,,,,0.0,7.0,7.0,7.0,1.0,,,,,,,,,,
0.0,1.0,0.78866,,,,,,trampoline_13s.jpg,0.0,clock_5_2.png,2.0,63,,,,,,,,,,,,,,,,,,0.0,8.0,8.0,8.0,1.0,,,,,,,,,,
1.0,1.0,0.773275,,,,,,trampoline_13s.jpg,1.0,clock_5_3.png,2.0,63,,,,,,,,,,,,,,,,,,0.0,9.0,9.0,9.0,1.0,,,,,,,,,,
0.0,1.0,0.753885,,,,,,ruby_15s.jpg,0.0,clock_5_4.png,2.0,63,,,,,,,,,,,,,,,,,,0.0,10.0,10.0,10.0,1.0,,,,,,,,,,
0.0,1.0,0.55921,,,,,,cereal_04s.jpg,0.0,clock_5_5.png,2.0,63,,,,,,,,,,,,,,,,,,0.0,11.0,11.0,11.0,1.0,,,,,,,,,,
0.0,1.0,1.03402,,,,,,teabag_12s.jpg,0.0,clock_6_1.png,3.0,63,,,,,,,,,,,,,,,,,,0.0,12.0,12.0,12.0,1.0,,,,,,,,,,
0.0,1.0,0.89171,,,,,,sunflower_17s.jpg,0.0,clock_6_2.png,3.0,63,,,,,,,,,,,,,,,,,,0.0,13.0,13.0,13.0,1.0,,,,,,,,,,
0.0,1.0,0.85174,,,,,,coral_08s.jpg,0.0,clock_6_3.png,3.0,63,,,,,,,,,,,,,,,,,,0.0,14.0,14.0,14.0,1.0,,,,,,,,,,
0.0,1.0,0.69171,,,,,,tortilla_06s.jpg,0.0,clock_6_4.png,3.0,63,,,,,,,,,,,,,,,,,,0.0,15.0,15.0,15.0,1.0,,,,,,,,,,
0.0,1.0,0.67578,,,,,,lemonade_04s.jpg,0.0,clock_6_5.png,3.0,63,,,,,,,,,,,,,,,,,,0.0,16.0,16.0,16.0,1.0,,,,,,,,,,
0.0,1.0,0.72493,,,,,,typewriter_11s.jpg,0.0,clock_6_6.png,3.0,63,,,,,,,,,,,,,,,,,,0.0,17.0,17.0,17.0,1.0,,,,,,,,,,
0.0,1.0,0.85954,,,,,,badge_03s.jpg,0.0,clock_6_1.png,4.0,63,,,,,,,,,,,,,,,,,,0.0,18.0,18.0,18.0,1.0,,,,,,,,,,
0.0,1.0,0.540795,,,,,,birdcage_08s.jpg,0.0,clock_6_2.png,4.0,63,,,,,,,,,,,,,,,,,,0.0,19.0,19.0,19.0,1.0,,,,,,,,,,
1.0,1.0,0.755735,,,,,,badge_03s.jpg,1.0,clock_6_3.png,4.0,63,,,,,,,,,,,,,,,,,,0.0,20.0,20.0,20.0,1.0,,,,,,,,,,
0.0,1.0,0.713935,,,,,,air_pump_05s.jpg,0.0,clock_6_4.png,4.0,63,,,,,,,,,,,,,,,,,,0.0,21.0,21.0,21.0,1.0,,,,,,,,,,
0.0,1.0,0.62972,,,,,,gargoyle_08s.jpg,0.0,clock_6_5.png,4.0,63,,,,,,,,,,,,,,,,,,0.0,22.0,22.0,22.0,1.0,,,,,,,,,,
0.0,1.0,0.754135,,,,,,towel_rack_04s.jpg,0.0,clock_6_6.png,4.0,63,,,,,,,,,,,,,,,,,,0.0,23.0,23.0,23.0,1.0,,,,,,,,,,
0.0,1.0,1.121485,,,,,,go-kart_10s.jpg,0.0,clock_5_1.png,5.0,63,,,,,,,,,,,,,,,,,,0.0,24.0,24.0,24.0,1.0,,,,,,,,,,
0.0,1.0,1.21759,,,,,,chip_04s.jpg,0.0,clock_5_2.png,5.0,63,,,,,,,,,,,,,,,,,,0.0,25.0,25.0,25.0,1.0,,,,,,,,,,
1.0,1.0,0.50274,,,,,,go-kart_10s.jpg,1.0,clock_5_3.png,5.0,63,,,,,,,,,,,,,,,,,,0.0,26.0,26.0,26.0,1.0,,,,,,,,,,
0.0,1.0,1.13452,,,,,,quill_09s.jpg,0.0,clock_5_4.png,5.0,63,,,,,,,,,,,,,,,,,,0.0,27.0,27.0,27.0,1.0,,,,,,,,,,
0.0,1.0,1.04158,,,,,,metronome_03s.jpg,0.0,clock_5_5.png,5.0,63,,,,,,,,,,,,,,,,,,0.0,28.0,28.0,28.0,1.0,,,,,,,,,,
0.0,1.0,1.280305,,,,,,juicer1_08s.jpg,0.0,clock_7_1.png,6.0,63,,,,,,,,,,,,,,,,,,0.0,29.0,29.0,29.0,1.0,,,,,,,,,,
1.0,1.0,0.84808,,,,,,juicer1_08s.jpg,1.0,clock_7_2.png,6.0,63,,,,,,,,,,,,,,,,,,0.0,30.0,30.0,30.0,1.0,,,,,,,,,,
0.0,1.0,0.709085,,,,,,foam_03s.jpg,0.0,clock_7_3.png,6.0,63,,,,,,,,,,,,,,,,,,0.0,31.0,31.0,31.0,1.0,,,,,,,,,,
0.0,1.0,0.56631,,,,,,turkey_10s.jpg,0.0,clock_7_4.png,6.0,63,,,,,,,,,,,,,,,,,,0.0,32.0,32.0,32.0,1.0,,,,,,,,,,
0.0,1.0,1.406035,,,,,,olive_05s.jpg,0.0,clock_7_5.png,6.0,63,,,,,,,,,,,,,,,,,,0.0,33.0,33.0,33.0,1.0,,,,,,,,,,
0.0,1.0,0.795035,,,,,,letter_opener_03s.jpg,0.0,clock_7_6.png,6.0,63,,,,,,,,,,,,,,,,,,0.0,34.0,34.0,34.0,1.0,,,,,,,,,,
0.0,1.0,0.80476,,,,,,solar_panel_02s.jpg,0.0,clock_7_7.png,6.0,63,,,,,,,,,,,,,,,,,,0.0,35.0,35.0,35.0,1.0,,,,,,,,,,
,,,,,,,,,0.0,,,63,1.0,0.0,1.89026,,,,,,powder_07s.jpg,kite_04s.jpg,,,,,,,,,,,,,0.0,0.0,0.0,0.0,1.0,,,,,
,,,,,,,,,0.0,,,63,0.0,1.0,1.525735,,,,,,coral_08s.jpg,cereal_04s.jpg,,,,,,,,,,,,,0.0,1.0,1.0,1.0,1.0,,,,,
,,,,,,,,,1.0,,,63,1.0,1.0,1.060735,,,,,,metronome_03s.jpg,foam_03s.jpg,,,,,,,,,,,,,0.0,2.0,2.0,2.0,1.0,,,,,
,,,,,,,,,0.0,,,63,0.0,1.0,0.8959,,,,,,cap_05s.jpg,turf_03s.jpg,,,,,,,,,,,,,0.0,3.0,3.0,3.0,1.0,,,,,
,,,,,,,,,1.0,,,63,1.0,1.0,1.12574,,,,,,cucumber_07s.jpg,pomegranate_04s.jpg,,,,,,,,,,,,,0.0,4.0,4.0,4.0,1.0,,,,,
,,,,,,,,,1.0,,,63,1.0,1.0,1.17506,,,,,,teabag_12s.jpg,tortilla_06s.jpg,,,,,,,,,,,,,0.0,5.0,5.0,5.0,1.0,,,,,
,,,,,,,,,,,,63,,,,,,,,,,,,,,,,clock_present_4_7.xlsx,clock_compare_task_4_7.xlsx,,,,,,,,,,,0.0,3.0,3.0,3.0,1.0
0.0,1.0,0.80822,,,,,,onion_10s.jpg,0.0,clock_5_1.png,1.0,63,,,,,,,,,,,,,,,,,,0.0,0.0,0.0,0.0,1.0,,,,,,,,,,
0.0,1.0,0.930375,,,,,,contact_lens_15s.jpg,0.0,clock_5_2.png,1.0,63,,,,,,,,,,,,,,,,,,0.0,1.0,1.0,1.0,1.0,,,,,,,,,,
0.0,1.0,0.547125,,,,,,machete_06s.jpg,0.0,clock_5_3.png,1.0,63,,,,,,,,,,,,,,,,,,0.0,2.0,2.0,2.0,1.0,,,,,,,,,,
1.0,1.0,0.90409,,,,,,contact_lens_15s.jpg,1.0,clock_5_4.png,1.0,63,,,,,,,,,,,,,,,,,,0.0,3.0,3.0,3.0,1.0,,,,,,,,,,
0.0,1.0,0.91552,,,,,,ice-cream_cone_06s.jpg,0.0,clock_5_5.png,1.0,63,,,,,,,,,,,,,,,,,,0.0,4.0,4.0,4.0,1.0,,,,,,,,,,
0.0,1.0,1.06693,,,,,,paper_bag_12s.jpg,0.0,clock_5_1.png,2.0,63,,,,,,,,,,,,,,,,,,0.0,5.0,5.0,5.0,1.0,,,,,,,,,,
0.0,1.0,0.5102,,,,,,possum_09s.jpg,0.0,clock_5_2.png,2.0,63,,,,,,,,,,,,,,,,,,0.0,6.0,6.0,6.0,1.0,,,,,,,,,,
1.0,1.0,0.78731,,,,,,possum_09s.jpg,1.0,clock_5_3.png,2.0,63,,,,,,,,,,,,,,,,,,0.0,7.0,7.0,7.0,1.0,,,,,,,,,,
1.0,1.0,0.871365,,,,,,possum_09s.jpg,1.0,clock_5_4.png,2.0,63,,,,,,,,,,,,,,,,,,0.0,8.0,8.0,8.0,1.0,,,,,,,,,,
0.0,1.0,0.530505,,,,,,gingerbread_man_03s.jpg,0.0,clock_5_5.png,2.0,63,,,,,,,,,,,,,,,,,,0.0,9.0,9.0,9.0,1.0,,,,,,,,,,
0.0,1.0,0.736975,,,,,,gas_mask_11s.jpg,0.0,clock_6_1.png,3.0,63,,,,,,,,,,,,,,,,,,0.0,10.0,10.0,10.0,1.0,,,,,,,,,,
0.0,1.0,0.68835,,,,,,pan_02s.jpg,0.0,clock_6_2.png,3.0,63,,,,,,,,,,,,,,,,,,0.0,11.0,11.0,11.0,1.0,,,,,,,,,,
0.0,1.0,0.82764,,,,,,onion_10s.jpg,0.0,clock_6_3.png,3.0,63,,,,,,,,,,,,,,,,,,0.0,12.0,12.0,12.0,1.0,,,,,,,,,,
0.0,1.0,0.66798,,,,,,denture_03s.jpg,0.0,clock_6_4.png,3.0,63,,,,,,,,,,,,,,,,,,0.0,13.0,13.0,13.0,1.0,,,,,,,,,,
1.0,1.0,0.78795,,,,,,denture_03s.jpg,1.0,clock_6_5.png,3.0,63,,,,,,,,,,,,,,,,,,0.0,14.0,14.0,14.0,1.0,,,,,,,,,,
1.0,1.0,1.14457,,,,,,pan_02s.jpg,1.0,clock_6_6.png,3.0,63,,,,,,,,,,,,,,,,,,0.0,15.0,15.0,15.0,1.0,,,,,,,,,,
0.0,1.0,1.116245,,,,,,pipe1_10s.jpg,0.0,clock_7_1.png,4.0,63,,,,,,,,,,,,,,,,,,0.0,16.0,16.0,16.0,1.0,,,,,,,,,,
0.0,1.0,1.29058,,,,,,mug_06s.jpg,0.0,clock_7_2.png,4.0,63,,,,,,,,,,,,,,,,,,0.0,17.0,17.0,17.0,1.0,,,,,,,,,,
0.0,1.0,0.810235,,,,,,glasses01a.jpg,0.0,clock_7_3.png,4.0,63,,,,,,,,,,,,,,,,,,0.0,18.0,18.0,18.0,1.0,,,,,,,,,,
0.0,1.0,0.71983,,,,,,knitting_needle_04s.jpg,0.0,clock_7_4.png,4.0,63,,,,,,,,,,,,,,,,,,0.0,19.0,19.0,19.0,1.0,,,,,,,,,,
0.0,1.0,1.16391,,,,,,piggy_bank_02s.jpg,0.0,clock_7_5.png,4.0,63,,,,,,,,,,,,,,,,,,0.0,20.0,20.0,20.0,1.0,,,,,,,,,,
0.0,1.0,0.82075,,,,,,juicer2_06s.jpg,0.0,clock_7_6.png,4.0,63,,,,,,,,,,,,,,,,,,0.0,21.0,21.0,21.0,1.0,,,,,,,,,,
0.0,1.0,0.517195,,,,,,rice_12s.jpg,0.0,clock_7_7.png,4.0,63,,,,,,,,,,,,,,,,,,0.0,22.0,22.0,22.0,1.0,,,,,,,,,,
0.0,1.0,1.546875,,,,,,lamppost_09s.jpg,0.0,clock_7_1.png,5.0,63,,,,,,,,,,,,,,,,,,0.0,23.0,23.0,23.0,1.0,,,,,,,,,,
0.0,1.0,1.688035,,,,,,bolo_tie_08s.jpg,0.0,clock_7_2.png,5.0,63,,,,,,,,,,,,,,,,,,0.0,24.0,24.0,24.0,1.0,,,,,,,,,,
0.0,1.0,0.83359,,,,,,torch_02s.jpg,0.0,clock_7_3.png,5.0,63,,,,,,,,,,,,,,,,,,0.0,25.0,25.0,25.0,1.0,,,,,,,,,,
0.0,1.0,0.781875,,,,,,stamp2_08s.jpg,0.0,clock_7_4.png,5.0,63,,,,,,,,,,,,,,,,,,0.0,26.0,26.0,26.0,1.0,,,,,,,,,,
0.0,1.0,0.577005,,,,,,boar_10s.jpg,0.0,clock_7_5.png,5.0,63,,,,,,,,,,,,,,,,,,0.0,27.0,27.0,27.0,1.0,,,,,,,,,,
0.0,1.0,0.65715,,,,,,cotton_candy_01b.jpg,0.0,clock_7_6.png,5.0,63,,,,,,,,,,,,,,,,,,0.0,28.0,28.0,28.0,1.0,,,,,,,,,,
0.0,1.0,0.62784,,,,,,toaster_03s.jpg,0.0,clock_7_7.png,5.0,63,,,,,,,,,,,,,,,,,,0.0,29.0,29.0,29.0,1.0,,,,,,,,,,
0.0,1.0,0.97038,,,,,,jetski_10s.jpg,0.0,clock_6_1.png,6.0,63,,,,,,,,,,,,,,,,,,0.0,30.0,30.0,30.0,1.0,,,,,,,,,,
0.0,1.0,0.810575,,,,,,raspberry_12s.jpg,0.0,clock_6_2.png,6.0,63,,,,,,,,,,,,,,,,,,0.0,31.0,31.0,31.0,1.0,,,,,,,,,,
0.0,1.0,0.553295,,,,,,pea_11s.jpg,0.0,clock_6_3.png,6.0,63,,,,,,,,,,,,,,,,,,0.0,32.0,32.0,32.0,1.0,,,,,,,,,,
0.0,1.0,1.170585,,,,,,ladder_15s.jpg,0.0,clock_6_4.png,6.0,63,,,,,,,,,,,,,,,,,,0.0,33.0,33.0,33.0,1.0,,,,,,,,,,
0.0,1.0,0.759725,,,,,,piggy_bank_02s.jpg,0.0,clock_6_5.png,6.0,63,,,,,,,,,,,,,,,,,,0.0,34.0,34.0,34.0,1.0,,,,,,,,,,
0.0,1.0,1.03995,,,,,,lamppost_09s.jpg,0.0,clock_6_6.png,6.0,63,,,,,,,,,,,,,,,,,,0.0,35.0,35.0,35.0,1.0,,,,,,,,,,
,,,,,,,,,0.0,,,63,1.0,0.0,3.21827,,,,,,paper_bag_12s.jpg,machete_06s.jpg,,,,,,,,,,,,,0.0,0.0,0.0,0.0,1.0,,,,,
,,,,,,,,,0.0,,,63,0.0,1.0,1.967695,,,,,,raspberry_12s.jpg,cotton_candy_01b.jpg,,,,,,,,,,,,,0.0,1.0,1.0,1.0,1.0,,,,,
,,,,,,,,,0.0,,,63,1.0,0.0,1.314885,,,,,,pea_11s.jpg,toaster_03s.jpg,,,,,,,,,,,,,0.0,2.0,2.0,2.0,1.0,,,,,
,,,,,,,,,1.0,,,63,1.0,1.0,1.20872,,,,,,pipe1_10s.jpg,knitting_needle_04s.jpg,,,,,,,,,,,,,0.0,3.0,3.0,3.0,1.0,,,,,
,,,,,,,,,0.0,,,63,0.0,1.0,1.134805,,,,,,juicer2_06s.jpg,glasses01a.jpg,,,,,,,,,,,,,0.0,4.0,4.0,4.0,1.0,,,,,
,,,,,,,,,0.0,,,63,0.0,1.0,1.229135,,,,,,ladder_15s.jpg,jetski_10s.jpg,,,,,,,,,,,,,0.0,5.0,5.0,5.0,1.0,,,,,
,,,,,,,,,,,,63,,,,,,,,,,,,,,,,clock_present_5_7.xlsx,clock_compare_task_5_7.xlsx,,,,,,,,,,,0.0,4.0,4.0,4.0,1.0
0.0,1.0,1.301845,,,,,,lion_18s.jpg,0.0,clock_6_1.png,1.0,63,,,,,,,,,,,,,,,,,,0.0,0.0,0.0,0.0,1.0,,,,,,,,,,
0.0,1.0,0.89239,,,,,,perfume_06s.jpg,0.0,clock_6_2.png,1.0,63,,,,,,,,,,,,,,,,,,0.0,1.0,1.0,1.0,1.0,,,,,,,,,,
0.0,1.0,0.59843,,,,,,bonsai_07s.jpg,0.0,clock_6_3.png,1.0,63,,,,,,,,,,,,,,,,,,0.0,2.0,2.0,2.0,1.0,,,,,,,,,,
1.0,1.0,0.6815,,,,,,bonsai_07s.jpg,1.0,clock_6_4.png,1.0,63,,,,,,,,,,,,,,,,,,0.0,3.0,3.0,3.0,1.0,,,,,,,,,,
0.0,1.0,0.72624,,,,,,eyedropper_12s.jpg,0.0,clock_6_5.png,1.0,63,,,,,,,,,,,,,,,,,,0.0,4.0,4.0,4.0,1.0,,,,,,,,,,
0.0,1.0,1.000325,,,,,,puck_06s.jpg,0.0,clock_6_6.png,1.0,63,,,,,,,,,,,,,,,,,,0.0,5.0,5.0,5.0,1.0,,,,,,,,,,
0.0,1.0,0.735225,,,,,,limousine_12s.jpg,0.0,clock_6_1.png,2.0,63,,,,,,,,,,,,,,,,,,0.0,6.0,6.0,6.0,1.0,,,,,,,,,,
0.0,1.0,0.91344,,,,,,harpoon.jpg,0.0,clock_6_2.png,2.0,63,,,,,,,,,,,,,,,,,,0.0,7.0,7.0,7.0,1.0,,,,,,,,,,
0.0,1.0,0.634225,,,,,,treadmill_06s.jpg,0.0,clock_6_3.png,2.0,63,,,,,,,,,,,,,,,,,,0.0,8.0,8.0,8.0,1.0,,,,,,,,,,
0.0,1.0,1.137755,,,,,,touchpad_11s.jpg,0.0,clock_6_4.png,2.0,63,,,,,,,,,,,,,,,,,,0.0,9.0,9.0,9.0,1.0,,,,,,,,,,
0.0,1.0,1.44003,,,,,,coat_rack_01b.jpg,0.0,clock_6_5.png,2.0,63,,,,,,,,,,,,,,,,,,0.0,10.0,10.0,10.0,1.0,,,,,,,,,,
0.0,1.0,0.55418,,,,,,timer_03s.jpg,0.0,clock_6_6.png,2.0,63,,,,,,,,,,,,,,,,,,0.0,11.0,11.0,11.0,1.0,,,,,,,,,,
0.0,1.0,1.559505,,,,,,rope_16s.jpg,0.0,clock_5_1.png,3.0,63,,,,,,,,,,,,,,,,,,0.0,12.0,12.0,12.0,1.0,,,,,,,,,,
0.0,1.0,0.939915,,,,,,chalice_10s.jpg,0.0,clock_5_2.png,3.0,63,,,,,,,,,,,,,,,,,,0.0,13.0,13.0,13.0,1.0,,,,,,,,,,
0.0,1.0,1.37018,,,,,,thermostat_02s.jpg,0.0,clock_5_3.png,3.0,63,,,,,,,,,,,,,,,,,,0.0,14.0,14.0,14.0,1.0,,,,,,,,,,
1.0,1.0,0.956835,,,,,,rope_16s.jpg,1.0,clock_5_4.png,3.0,63,,,,,,,,,,,,,,,,,,0.0,15.0,15.0,15.0,1.0,,,,,,,,,,
0.0,1.0,1.339725,,,,,,raccoon_02s.jpg,0.0,clock_5_5.png,3.0,63,,,,,,,,,,,,,,,,,,0.0,16.0,16.0,16.0,1.0,,,,,,,,,,
0.0,1.0,1.02781,,,,,,mussel_11s.jpg,0.0,clock_7_1.png,4.0,63,,,,,,,,,,,,,,,,,,0.0,17.0,17.0,17.0,1.0,,,,,,,,,,
0.0,1.0,2.43411,,,,,,kayak_08s.jpg,0.0,clock_7_2.png,4.0,63,,,,,,,,,,,,,,,,,,0.0,18.0,18.0,18.0,1.0,,,,,,,,,,
0.0,1.0,0.95953,,,,,,pepper_mill_03s.jpg,0.0,clock_7_3.png,4.0,63,,,,,,,,,,,,,,,,,,0.0,19.0,19.0,19.0,1.0,,,,,,,,,,
0.0,1.0,0.92296,,,,,,pineapple_12s.jpg,0.0,clock_7_4.png,4.0,63,,,,,,,,,,,,,,,,,,0.0,20.0,20.0,20.0,1.0,,,,,,,,,,
0.0,1.0,1.15884,,,,,,timer_03s.jpg,0.0,clock_7_5.png,4.0,63,,,,,,,,,,,,,,,,,,0.0,21.0,21.0,21.0,1.0,,,,,,,,,,
0.0,1.0,1.44304,,,,,,chalice_10s.jpg,0.0,clock_7_6.png,4.0,63,,,,,,,,,,,,,,,,,,0.0,22.0,22.0,22.0,1.0,,,,,,,,,,
0.0,1.0,1.087405,,,,,,swing_set_15s.jpg,0.0,clock_7_7.png,4.0,63,,,,,,,,,,,,,,,,,,0.0,23.0,23.0,23.0,1.0,,,,,,,,,,
0.0,1.0,0.54742,,,,,,rooster_03s.jpg,0.0,clock_5_1.png,5.0,63,,,,,,,,,,,,,,,,,,0.0,24.0,24.0,24.0,1.0,,,,,,,,,,
0.0,1.0,0.52016,,,,,,sundae_08s.jpg,0.0,clock_5_2.png,5.0,63,,,,,,,,,,,,,,,,,,0.0,25.0,25.0,25.0,1.0,,,,,,,,,,
0.0,1.0,0.63423,,,,,,mushroom_10n.jpg,0.0,clock_5_3.png,5.0,63,,,,,,,,,,,,,,,,,,0.0,26.0,26.0,26.0,1.0,,,,,,,,,,
0.0,1.0,1.219755,,,,,,tongs_08s.jpg,0.0,clock_5_4.png,5.0,63,,,,,,,,,,,,,,,,,,0.0,27.0,27.0,27.0,1.0,,,,,,,,,,
0.0,1.0,0.547225,,,,,,mop_08s.jpg,0.0,clock_5_5.png,5.0,63,,,,,,,,,,,,,,,,,,0.0,28.0,28.0,28.0,1.0,,,,,,,,,,
0.0,1.0,0.880205,,,,,,saddle_06s.jpg,0.0,clock_7_1.png,6.0,63,,,,,,,,,,,,,,,,,,0.0,29.0,29.0,29.0,1.0,,,,,,,,,,
1.0,1.0,1.09773,,,,,,saddle_06s.jpg,1.0,clock_7_2.png,6.0,63,,,,,,,,,,,,,,,,,,0.0,30.0,30.0,30.0,1.0,,,,,,,,,,
0.0,1.0,1.01935,,,,,,thermostat_02s.jpg,0.0,clock_7_3.png,6.0,63,,,,,,,,,,,,,,,,,,0.0,31.0,31.0,31.0,1.0,,,,,,,,,,
0.0,1.0,1.109215,,,,,,tuba_12s.jpg,0.0,clock_7_4.png,6.0,63,,,,,,,,,,,,,,,,,,0.0,32.0,32.0,32.0,1.0,,,,,,,,,,
0.0,1.0,0.592425,,,,,,beaker_01b.jpg,0.0,clock_7_5.png,6.0,63,,,,,,,,,,,,,,,,,,0.0,33.0,33.0,33.0,1.0,,,,,,,,,,
0.0,1.0,0.61531,,,,,,toy_04s.jpg,0.0,clock_7_6.png,6.0,63,,,,,,,,,,,,,,,,,,0.0,34.0,34.0,34.0,1.0,,,,,,,,,,
0.0,1.0,0.758465,,,,,,surfboard_11s.jpg,0.0,clock_7_7.png,6.0,63,,,,,,,,,,,,,,,,,,0.0,35.0,35.0,35.0,1.0,,,,,,,,,,
,,,,,,,,,0.0,,,63,0.0,1.0,1.69003,,,,,,treadmill_06s.jpg,puck_06s.jpg,,,,,,,,,,,,,0.0,0.0,0.0,0.0,1.0,,,,,
,,,,,,,,,1.0,,,63,1.0,1.0,1.410975,,,,,,raccoon_02s.jpg,pepper_mill_03s.jpg,,,,,,,,,,,,,0.0,1.0,1.0,1.0,1.0,,,,,
,,,,,,,,,0.0,,,63,1.0,0.0,1.165205,,,,,,mushroom_10n.jpg,swing_set_15s.jpg,,,,,,,,,,,,,0.0,2.0,2.0,2.0,1.0,,,,,
,,,,,,,,,0.0,,,63,0.0,1.0,1.13614,,,,,,touchpad_11s.jpg,limousine_12s.jpg,,,,,,,,,,,,,0.0,3.0,3.0,3.0,1.0,,,,,
,,,,,,,,,0.0,,,63,1.0,0.0,1.89359,,,,,,pineapple_12s.jpg,mussel_11s.jpg,,,,,,,,,,,,,0.0,4.0,4.0,4.0,1.0,,,,,
,,,,,,,,,0.0,,,63,0.0,1.0,1.15147,,,,,,tongs_08s.jpg,rooster_03s.jpg,,,,,,,,,,,,,0.0,5.0,5.0,5.0,1.0,,,,,
