key_resp.keys,key_resp.corr,key_resp.rt,noclock_loop.thisRepN,noclock_loop.thisTrialN,noclock_loop.thisN,noclock_loop.thisIndex,noclock_loop.ran,pictures,answer,clock,segment,participant,key_resp_2.keys,key_resp_2.corr,key_resp_2.rt,noclock_loop2.thisRepN,noclock_loop2.thisTrialN,noclock_loop2.thisN,noclock_loop2.thisIndex,noclock_loop2.ran,item_a,item_b,noclock_condition.thisRepN,noclock_condition.thisTrialN,noclock_condition.thisN,noclock_condition.thisIndex,noclock_condition.ran,present,compare,present_segment.thisRepN,present_segment.thisTrialN,present_segment.thisN,present_segment.thisIndex,present_segment.ran,compare_segment.thisRepN,compare_segment.thisTrialN,compare_segment.thisN,compare_segment.thisIndex,compare_segment.ran,clock_conditions.thisRepN,clock_conditions.thisTrialN,clock_conditions.thisN,clock_conditions.thisIndex,clock_conditions.ran
0.0,1.0,1.001925,0.0,0.0,0.0,0.0,1.0,tripod_01b.jpg,0.0,clockno_up.jpg,1.0,51,,,,,,,,,,,,,,,,,,,,,,,,,,,,,,,,
0.0,1.0,1.248735,0.0,1.0,1.0,1.0,1.0,pocket_watch_16s.jpg,0.0,clockno_default.jpg,1.0,51,,,,,,,,,,,,,,,,,,,,,,,,,,,,,,,,
0.0,1.0,0.64961,0.0,2.0,2.0,2.0,1.0,loom_05s.jpg,0.0,clockno_default.jpg,1.0,51,,,,,,,,,,,,,,,,,,,,,,,,,,,,,,,,
1.0,1.0,1.07354,0.0,3.0,3.0,3.0,1.0,tripod_01b.jpg,1.0,clockno_default.jpg,1.0,51,,,,,,,,,,,,,,,,,,,,,,,,,,,,,,,,
0.0,1.0,1.065245,0.0,4.0,4.0,4.0,1.0,thread_08s.jpg,0.0,clockno_default.jpg,1.0,51,,,,,,,,,,,,,,,,,,,,,,,,,,,,,,,,
0.0,1.0,0.609445,0.0,5.0,5.0,5.0,1.0,rocket_02s.jpg,0.0,clockno_default.jpg,1.0,51,,,,,,,,,,,,,,,,,,,,,,,,,,,,,,,,
0.0,1.0,1.03266,0.0,6.0,6.0,6.0,1.0,ladle_04s.jpg,0.0,clockno_up.jpg,2.0,51,,,,,,,,,,,,,,,,,,,,,,,,,,,,,,,,
0.0,1.0,0.59309,0.0,7.0,7.0,7.0,1.0,bubble_01b.jpg,0.0,clockno_default.jpg,2.0,51,,,,,,,,,,,,,,,,,,,,,,,,,,,,,,,,
0.0,1.0,0.825185,0.0,8.0,8.0,8.0,1.0,pocket_watch_16s.jpg,0.0,clockno_default.jpg,2.0,51,,,,,,,,,,,,,,,,,,,,,,,,,,,,,,,,
0.0,1.0,0.68875,0.0,9.0,9.0,9.0,1.0,projector_08s.jpg,0.0,clockno_default.jpg,2.0,51,,,,,,,,,,,,,,,,,,,,,,,,,,,,,,,,
0.0,1.0,0.816895,0.0,10.0,10.0,10.0,1.0,penlight_12s.jpg,0.0,clockno_default.jpg,2.0,51,,,,,,,,,,,,,,,,,,,,,,,,,,,,,,,,
0.0,1.0,1.336965,0.0,11.0,11.0,11.0,1.0,golf_club_03s.jpg,0.0,clockno_up.jpg,3.0,51,,,,,,,,,,,,,,,,,,,,,,,,,,,,,,,,
0.0,1.0,0.71397,0.0,12.0,12.0,12.0,1.0,espresso_01b.jpg,0.0,clockno_default.jpg,3.0,51,,,,,,,,,,,,,,,,,,,,,,,,,,,,,,,,
1.0,1.0,0.832915,0.0,13.0,13.0,13.0,1.0,espresso_01b.jpg,1.0,clockno_default.jpg,3.0,51,,,,,,,,,,,,,,,,,,,,,,,,,,,,,,,,
0.0,1.0,0.62517,0.0,14.0,14.0,14.0,1.0,mannequin_05s.jpg,0.0,clockno_default.jpg,3.0,51,,,,,,,,,,,,,,,,,,,,,,,,,,,,,,,,
1.0,1.0,1.05714,0.0,15.0,15.0,15.0,1.0,golf_club_03s.jpg,1.0,clockno_default.jpg,3.0,51,,,,,,,,,,,,,,,,,,,,,,,,,,,,,,,,
0.0,1.0,1.761255,0.0,16.0,16.0,16.0,1.0,loom_05s.jpg,0.0,clockno_default.jpg,3.0,51,,,,,,,,,,,,,,,,,,,,,,,,,,,,,,,,
0.0,1.0,0.84047,0.0,17.0,17.0,17.0,1.0,machete_06s.jpg,0.0,clockno_up.jpg,4.0,51,,,,,,,,,,,,,,,,,,,,,,,,,,,,,,,,
0.0,1.0,1.17587,0.0,18.0,18.0,18.0,1.0,seahorse_13s.jpg,0.0,clockno_default.jpg,4.0,51,,,,,,,,,,,,,,,,,,,,,,,,,,,,,,,,
0.0,1.0,1.504795,0.0,19.0,19.0,19.0,1.0,mannequin_05s.jpg,0.0,clockno_default.jpg,4.0,51,,,,,,,,,,,,,,,,,,,,,,,,,,,,,,,,
0.0,1.0,0.81728,0.0,20.0,20.0,20.0,1.0,saddle_06s.jpg,0.0,clockno_default.jpg,4.0,51,,,,,,,,,,,,,,,,,,,,,,,,,,,,,,,,
0.0,1.0,0.76862,0.0,21.0,21.0,21.0,1.0,rake_06s.jpg,0.0,clockno_default.jpg,4.0,51,,,,,,,,,,,,,,,,,,,,,,,,,,,,,,,,
0.0,1.0,0.887865,0.0,22.0,22.0,22.0,1.0,jewel_01b.jpg,0.0,clockno_default.jpg,4.0,51,,,,,,,,,,,,,,,,,,,,,,,,,,,,,,,,
0.0,1.0,1.79241,0.0,23.0,23.0,23.0,1.0,ironing_board_07s.jpg,0.0,clockno_default.jpg,4.0,51,,,,,,,,,,,,,,,,,,,,,,,,,,,,,,,,
0.0,1.0,2.384565,0.0,24.0,24.0,24.0,1.0,tuxedo_01b.jpg,0.0,clockno_up.jpg,5.0,51,,,,,,,,,,,,,,,,,,,,,,,,,,,,,,,,
0.0,1.0,1.28122,0.0,25.0,25.0,25.0,1.0,pie_08s.jpg,0.0,clockno_default.jpg,5.0,51,,,,,,,,,,,,,,,,,,,,,,,,,,,,,,,,
0.0,1.0,0.66374,0.0,26.0,26.0,26.0,1.0,mousetrap_15n.jpg,0.0,clockno_default.jpg,5.0,51,,,,,,,,,,,,,,,,,,,,,,,,,,,,,,,,
0.0,1.0,0.76833,0.0,27.0,27.0,27.0,1.0,measuring_cup_02s.jpg,0.0,clockno_default.jpg,5.0,51,,,,,,,,,,,,,,,,,,,,,,,,,,,,,,,,
1.0,1.0,0.81625,0.0,28.0,28.0,28.0,1.0,measuring_cup_02s.jpg,1.0,clockno_default.jpg,5.0,51,,,,,,,,,,,,,,,,,,,,,,,,,,,,,,,,
0.0,1.0,0.66275,0.0,29.0,29.0,29.0,1.0,olive_05s.jpg,0.0,clockno_up.jpg,6.0,51,,,,,,,,,,,,,,,,,,,,,,,,,,,,,,,,
0.0,1.0,0.640155,0.0,30.0,30.0,30.0,1.0,razor_12s.jpg,0.0,clockno_default.jpg,6.0,51,,,,,,,,,,,,,,,,,,,,,,,,,,,,,,,,
0.0,1.0,0.55947,0.0,31.0,31.0,31.0,1.0,footprint_11s.jpg,0.0,clockno_default.jpg,6.0,51,,,,,,,,,,,,,,,,,,,,,,,,,,,,,,,,
0.0,1.0,0.73594,0.0,32.0,32.0,32.0,1.0,reindeer_08s.jpg,0.0,clockno_default.jpg,6.0,51,,,,,,,,,,,,,,,,,,,,,,,,,,,,,,,,
1.0,1.0,1.520125,0.0,33.0,33.0,33.0,1.0,olive_05s.jpg,1.0,clockno_default.jpg,6.0,51,,,,,,,,,,,,,,,,,,,,,,,,,,,,,,,,
0.0,0.0,0.928135,0.0,34.0,34.0,34.0,1.0,razor_12s.jpg,1.0,clockno_default.jpg,6.0,51,,,,,,,,,,,,,,,,,,,,,,,,,,,,,,,,
0.0,1.0,0.75049,0.0,35.0,35.0,35.0,1.0,mold2_04s.jpg,0.0,clockno_default.jpg,6.0,51,,,,,,,,,,,,,,,,,,,,,,,,,,,,,,,,
,,,,,,,,,1.0,,,51,0.0,0.0,1.962745,0.0,0.0,0.0,0.0,1.0,jewel_01b.jpg,pie_08s.jpg,,,,,,,,,,,,,,,,,,,,,,
,,,,,,,,,1.0,,,51,0.0,0.0,3.45233,0.0,1.0,1.0,1.0,1.0,thread_08s.jpg,bubble_01b.jpg,,,,,,,,,,,,,,,,,,,,,,
,,,,,,,,,0.0,,,51,0.0,1.0,3.0767,0.0,2.0,2.0,2.0,1.0,tuxedo_01b.jpg,rake_06s.jpg,,,,,,,,,,,,,,,,,,,,,,
,,,,,,,,,1.0,,,51,1.0,1.0,2.63148,0.0,3.0,3.0,3.0,1.0,ladle_04s.jpg,projector_08s.jpg,,,,,,,,,,,,,,,,,,,,,,
,,,,,,,,,0.0,,,51,1.0,0.0,2.327895,0.0,4.0,4.0,4.0,1.0,saddle_06s.jpg,machete_06s.jpg,,,,,,,,,,,,,,,,,,,,,,
,,,,,,,,,0.0,,,51,1.0,0.0,4.910695,0.0,5.0,5.0,5.0,1.0,mold2_04s.jpg,reindeer_08s.jpg,,,,,,,,,,,,,,,,,,,,,,
,,,,,,,,,,,,51,,,,,,,,,,,0.0,0.0,0.0,0.0,1.0,clockno_present_1_5.xlsx,clockno_compare_task_1_5.xlsx,,,,,,,,,,,,,,,
0.0,1.0,0.923765,0.0,0.0,0.0,0.0,1.0,sushi_08s.jpg,0.0,clockno_up.jpg,1.0,51,,,,,,,,,,,,,,,,,,,,,,,,,,,,,,,,
0.0,1.0,0.90822,0.0,1.0,1.0,1.0,1.0,tweezers_03s.jpg,0.0,clockno_default.jpg,1.0,51,,,,,,,,,,,,,,,,,,,,,,,,,,,,,,,,
0.0,1.0,0.69173,0.0,2.0,2.0,2.0,1.0,teapot_03s.jpg,0.0,clockno_default.jpg,1.0,51,,,,,,,,,,,,,,,,,,,,,,,,,,,,,,,,
0.0,1.0,2.402755,0.0,3.0,3.0,3.0,1.0,tinsel_12s.jpg,0.0,clockno_default.jpg,1.0,51,,,,,,,,,,,,,,,,,,,,,,,,,,,,,,,,
0.0,1.0,0.76393,0.0,4.0,4.0,4.0,1.0,tuba_12s.jpg,0.0,clockno_default.jpg,1.0,51,,,,,,,,,,,,,,,,,,,,,,,,,,,,,,,,
0.0,1.0,1.739405,0.0,5.0,5.0,5.0,1.0,paintbrush_04s.jpg,0.0,clockno_default.jpg,1.0,51,,,,,,,,,,,,,,,,,,,,,,,,,,,,,,,,
0.0,1.0,0.843525,0.0,6.0,6.0,6.0,1.0,lasagna_06s.jpg,0.0,clockno_default.jpg,1.0,51,,,,,,,,,,,,,,,,,,,,,,,,,,,,,,,,
0.0,1.0,1.0195,0.0,7.0,7.0,7.0,1.0,pinwheel_06s.jpg,0.0,clockno_up.jpg,2.0,51,,,,,,,,,,,,,,,,,,,,,,,,,,,,,,,,
0.0,1.0,0.580795,0.0,8.0,8.0,8.0,1.0,owl_15s.jpg,0.0,clockno_default.jpg,2.0,51,,,,,,,,,,,,,,,,,,,,,,,,,,,,,,,,
0.0,1.0,0.979825,0.0,9.0,9.0,9.0,1.0,glasses01a.jpg,0.0,clockno_default.jpg,2.0,51,,,,,,,,,,,,,,,,,,,,,,,,,,,,,,,,
0.0,1.0,0.80317,0.0,10.0,10.0,10.0,1.0,pocketknife_12s.jpg,0.0,clockno_default.jpg,2.0,51,,,,,,,,,,,,,,,,,,,,,,,,,,,,,,,,
0.0,1.0,0.61033,0.0,11.0,11.0,11.0,1.0,fur_coat_11s.jpg,0.0,clockno_default.jpg,2.0,51,,,,,,,,,,,,,,,,,,,,,,,,,,,,,,,,
0.0,1.0,1.796775,0.0,12.0,12.0,12.0,1.0,tongs_08s.jpg,0.0,clockno_up.jpg,3.0,51,,,,,,,,,,,,,,,,,,,,,,,,,,,,,,,,
1.0,1.0,0.914595,0.0,13.0,13.0,13.0,1.0,tongs_08s.jpg,1.0,clockno_default.jpg,3.0,51,,,,,,,,,,,,,,,,,,,,,,,,,,,,,,,,
0.0,1.0,0.659185,0.0,14.0,14.0,14.0,1.0,leash_10s.jpg,0.0,clockno_default.jpg,3.0,51,,,,,,,,,,,,,,,,,,,,,,,,,,,,,,,,
0.0,1.0,0.810625,0.0,15.0,15.0,15.0,1.0,spoon02a.jpg,0.0,clockno_default.jpg,3.0,51,,,,,,,,,,,,,,,,,,,,,,,,,,,,,,,,
0.0,1.0,0.755105,0.0,16.0,16.0,16.0,1.0,plunger_08s.jpg,0.0,clockno_default.jpg,3.0,51,,,,,,,,,,,,,,,,,,,,,,,,,,,,,,,,
1.0,1.0,0.883125,0.0,17.0,17.0,17.0,1.0,plunger_08s.jpg,1.0,clockno_default.jpg,3.0,51,,,,,,,,,,,,,,,,,,,,,,,,,,,,,,,,
0.0,1.0,0.714355,0.0,18.0,18.0,18.0,1.0,playpen_11s.jpg,0.0,clockno_up.jpg,4.0,51,,,,,,,,,,,,,,,,,,,,,,,,,,,,,,,,
0.0,1.0,0.63426,0.0,19.0,19.0,19.0,1.0,smoothie_09s.jpg,0.0,clockno_default.jpg,4.0,51,,,,,,,,,,,,,,,,,,,,,,,,,,,,,,,,
0.0,1.0,0.66669,0.0,20.0,20.0,20.0,1.0,gear_07s.jpg,0.0,clockno_default.jpg,4.0,51,,,,,,,,,,,,,,,,,,,,,,,,,,,,,,,,
1.0,1.0,1.051255,0.0,21.0,21.0,21.0,1.0,smoothie_09s.jpg,1.0,clockno_default.jpg,4.0,51,,,,,,,,,,,,,,,,,,,,,,,,,,,,,,,,
0.0,1.0,0.7954,0.0,22.0,22.0,22.0,1.0,lamp_08s.jpg,0.0,clockno_default.jpg,4.0,51,,,,,,,,,,,,,,,,,,,,,,,,,,,,,,,,
0.0,1.0,0.62674,0.0,23.0,23.0,23.0,1.0,lollipop_08s.jpg,0.0,clockno_up.jpg,5.0,51,,,,,,,,,,,,,,,,,,,,,,,,,,,,,,,,
0.0,1.0,0.97857,0.0,24.0,24.0,24.0,1.0,squirt_gun_03s.jpg,0.0,clockno_default.jpg,5.0,51,,,,,,,,,,,,,,,,,,,,,,,,,,,,,,,,
0.0,1.0,0.95398,0.0,25.0,25.0,25.0,1.0,otter_05s.jpg,0.0,clockno_default.jpg,5.0,51,,,,,,,,,,,,,,,,,,,,,,,,,,,,,,,,
0.0,1.0,0.562085,0.0,26.0,26.0,26.0,1.0,tape_06s.jpg,0.0,clockno_default.jpg,5.0,51,,,,,,,,,,,,,,,,,,,,,,,,,,,,,,,,
0.0,1.0,0.8984,0.0,27.0,27.0,27.0,1.0,sunflower_17s.jpg,0.0,clockno_default.jpg,5.0,51,,,,,,,,,,,,,,,,,,,,,,,,,,,,,,,,
0.0,1.0,0.94771,0.0,28.0,28.0,28.0,1.0,fountain_pen_06s.jpg,0.0,clockno_default.jpg,5.0,51,,,,,,,,,,,,,,,,,,,,,,,,,,,,,,,,
0.0,1.0,0.66649,0.0,29.0,29.0,29.0,1.0,ant_12s.jpg,0.0,clockno_up.jpg,6.0,51,,,,,,,,,,,,,,,,,,,,,,,,,,,,,,,,
0.0,1.0,0.69803,0.0,30.0,30.0,30.0,1.0,tattoo_14s.jpg,0.0,clockno_default.jpg,6.0,51,,,,,,,,,,,,,,,,,,,,,,,,,,,,,,,,
0.0,1.0,0.97095,0.0,31.0,31.0,31.0,1.0,gear_07s.jpg,0.0,clockno_default.jpg,6.0,51,,,,,,,,,,,,,,,,,,,,,,,,,,,,,,,,
0.0,1.0,0.769895,0.0,32.0,32.0,32.0,1.0,tiger_06s.jpg,0.0,clockno_default.jpg,6.0,51,,,,,,,,,,,,,,,,,,,,,,,,,,,,,,,,
0.0,1.0,0.730865,0.0,33.0,33.0,33.0,1.0,raccoon_02s.jpg,0.0,clockno_default.jpg,6.0,51,,,,,,,,,,,,,,,,,,,,,,,,,,,,,,,,
0.0,1.0,0.76158,0.0,34.0,34.0,34.0,1.0,toilet_paper_12s.jpg,0.0,clockno_default.jpg,6.0,51,,,,,,,,,,,,,,,,,,,,,,,,,,,,,,,,
1.0,1.0,2.258155,0.0,35.0,35.0,35.0,1.0,tattoo_14s.jpg,1.0,clockno_default.jpg,6.0,51,,,,,,,,,,,,,,,,,,,,,,,,,,,,,,,,
,,,,,,,,,1.0,,,51,1.0,1.0,2.911575,0.0,0.0,0.0,0.0,1.0,spoon02a.jpg,playpen_11s.jpg,,,,,,,,,,,,,,,,,,,,,,
,,,,,,,,,1.0,,,51,1.0,1.0,8.58148,0.0,1.0,1.0,1.0,1.0,lasagna_06s.jpg,glasses01a.jpg,,,,,,,,,,,,,,,,,,,,,,
,,,,,,,,,1.0,,,51,1.0,1.0,2.52919,0.0,2.0,2.0,2.0,1.0,fur_coat_11s.jpg,leash_10s.jpg,,,,,,,,,,,,,,,,,,,,,,
,,,,,,,,,1.0,,,51,0.0,0.0,3.93673,0.0,3.0,3.0,3.0,1.0,sushi_08s.jpg,tinsel_12s.jpg,,,,,,,,,,,,,,,,,,,,,,
,,,,,,,,,1.0,,,51,0.0,0.0,1.9264,0.0,4.0,4.0,4.0,1.0,squirt_gun_03s.jpg,sunflower_17s.jpg,,,,,,,,,,,,,,,,,,,,,,
,,,,,,,,,0.0,,,51,0.0,1.0,4.7487,0.0,5.0,5.0,5.0,1.0,tuba_12s.jpg,tweezers_03s.jpg,,,,,,,,,,,,,,,,,,,,,,
,,,,,,,,,,,,51,,,,,,,,,,,0.0,1.0,1.0,1.0,1.0,clockno_present_2_5.xlsx,clockno_compare_task_2_5.xlsx,,,,,,,,,,,,,,,
0.0,1.0,1.321005,0.0,0.0,0.0,0.0,1.0,ram_05s.jpg,0.0,clockno_up.jpg,1.0,51,,,,,,,,,,,,,,,,,,,,,,,,,,,,,,,,
0.0,1.0,0.68873,0.0,1.0,1.0,1.0,1.0,panda_02s.jpg,0.0,clockno_default.jpg,1.0,51,,,,,,,,,,,,,,,,,,,,,,,,,,,,,,,,
0.0,1.0,0.71383,0.0,2.0,2.0,2.0,1.0,beaker_01b.jpg,0.0,clockno_default.jpg,1.0,51,,,,,,,,,,,,,,,,,,,,,,,,,,,,,,,,
1.0,1.0,1.06485,0.0,3.0,3.0,3.0,1.0,beaker_01b.jpg,1.0,clockno_default.jpg,1.0,51,,,,,,,,,,,,,,,,,,,,,,,,,,,,,,,,
0.0,1.0,0.86362,0.0,4.0,4.0,4.0,1.0,megaphone_03s.jpg,0.0,clockno_default.jpg,1.0,51,,,,,,,,,,,,,,,,,,,,,,,,,,,,,,,,
0.0,1.0,1.66448,0.0,5.0,5.0,5.0,1.0,dashboard_02s.jpg,0.0,clockno_up.jpg,2.0,51,,,,,,,,,,,,,,,,,,,,,,,,,,,,,,,,
0.0,1.0,0.855695,0.0,6.0,6.0,6.0,1.0,juicer2_06s.jpg,0.0,clockno_default.jpg,2.0,51,,,,,,,,,,,,,,,,,,,,,,,,,,,,,,,,
0.0,1.0,0.6642,0.0,7.0,7.0,7.0,1.0,butter_14s.jpg,0.0,clockno_default.jpg,2.0,51,,,,,,,,,,,,,,,,,,,,,,,,,,,,,,,,
0.0,1.0,0.807905,0.0,8.0,8.0,8.0,1.0,quesadilla_07s.jpg,0.0,clockno_default.jpg,2.0,51,,,,,,,,,,,,,,,,,,,,,,,,,,,,,,,,
0.0,1.0,0.815305,0.0,9.0,9.0,9.0,1.0,thumbtack_14s.jpg,0.0,clockno_default.jpg,2.0,51,,,,,,,,,,,,,,,,,,,,,,,,,,,,,,,,
0.0,1.0,0.975825,0.0,10.0,10.0,10.0,1.0,potholder_02s.jpg,0.0,clockno_default.jpg,2.0,51,,,,,,,,,,,,,,,,,,,,,,,,,,,,,,,,
0.0,1.0,0.90378,0.0,11.0,11.0,11.0,1.0,purse_05s.jpg,0.0,clockno_default.jpg,2.0,51,,,,,,,,,,,,,,,,,,,,,,,,,,,,,,,,
0.0,1.0,0.91075,0.0,12.0,12.0,12.0,1.0,binder_21s.jpg,0.0,clockno_up.jpg,3.0,51,,,,,,,,,,,,,,,,,,,,,,,,,,,,,,,,
1.0,1.0,0.872415,0.0,13.0,13.0,13.0,1.0,binder_21s.jpg,1.0,clockno_default.jpg,3.0,51,,,,,,,,,,,,,,,,,,,,,,,,,,,,,,,,
0.0,1.0,0.655335,0.0,14.0,14.0,14.0,1.0,knot_01b.jpg,0.0,clockno_default.jpg,3.0,51,,,,,,,,,,,,,,,,,,,,,,,,,,,,,,,,
1.0,1.0,0.928125,0.0,15.0,15.0,15.0,1.0,binder_21s.jpg,1.0,clockno_default.jpg,3.0,51,,,,,,,,,,,,,,,,,,,,,,,,,,,,,,,,
0.0,1.0,1.18235,0.0,16.0,16.0,16.0,1.0,raspberry_12s.jpg,0.0,clockno_default.jpg,3.0,51,,,,,,,,,,,,,,,,,,,,,,,,,,,,,,,,
0.0,1.0,0.77549,0.0,17.0,17.0,17.0,1.0,padlock_07s.jpg,0.0,clockno_up.jpg,4.0,51,,,,,,,,,,,,,,,,,,,,,,,,,,,,,,,,
0.0,1.0,0.630905,0.0,18.0,18.0,18.0,1.0,phone_01b.jpg,0.0,clockno_default.jpg,4.0,51,,,,,,,,,,,,,,,,,,,,,,,,,,,,,,,,
0.0,1.0,0.807085,0.0,19.0,19.0,19.0,1.0,lizard_10n.jpg,0.0,clockno_default.jpg,4.0,51,,,,,,,,,,,,,,,,,,,,,,,,,,,,,,,,
0.0,1.0,0.703165,0.0,20.0,20.0,20.0,1.0,seagull_01b.jpg,0.0,clockno_default.jpg,4.0,51,,,,,,,,,,,,,,,,,,,,,,,,,,,,,,,,
0.0,1.0,0.871065,0.0,21.0,21.0,21.0,1.0,stapler_01b.jpg,0.0,clockno_default.jpg,4.0,51,,,,,,,,,,,,,,,,,,,,,,,,,,,,,,,,
0.0,1.0,0.85455,0.0,22.0,22.0,22.0,1.0,turtleneck_11s.jpg,0.0,clockno_default.jpg,4.0,51,,,,,,,,,,,,,,,,,,,,,,,,,,,,,,,,
0.0,1.0,1.502745,0.0,23.0,23.0,23.0,1.0,top_hat_11s.jpg,0.0,clockno_up.jpg,5.0,51,,,,,,,,,,,,,,,,,,,,,,,,,,,,,,,,
0.0,1.0,0.933935,0.0,24.0,24.0,24.0,1.0,screwdriver02a.jpg,0.0,clockno_default.jpg,5.0,51,,,,,,,,,,,,,,,,,,,,,,,,,,,,,,,,
0.0,1.0,1.119585,0.0,25.0,25.0,25.0,1.0,raspberry_12s.jpg,0.0,clockno_default.jpg,5.0,51,,,,,,,,,,,,,,,,,,,,,,,,,,,,,,,,
0.0,1.0,0.77492,0.0,26.0,26.0,26.0,1.0,gingerbread_man_03s.jpg,0.0,clockno_default.jpg,5.0,51,,,,,,,,,,,,,,,,,,,,,,,,,,,,,,,,
0.0,1.0,0.98228,0.0,27.0,27.0,27.0,1.0,bagel_15s.jpg,0.0,clockno_default.jpg,5.0,51,,,,,,,,,,,,,,,,,,,,,,,,,,,,,,,,
1.0,1.0,1.374675,0.0,28.0,28.0,28.0,1.0,top_hat_11s.jpg,1.0,clockno_default.jpg,5.0,51,,,,,,,,,,,,,,,,,,,,,,,,,,,,,,,,
0.0,1.0,1.190525,0.0,29.0,29.0,29.0,1.0,smokingpipe.jpg,0.0,clockno_default.jpg,5.0,51,,,,,,,,,,,,,,,,,,,,,,,,,,,,,,,,
0.0,1.0,0.847545,0.0,30.0,30.0,30.0,1.0,sea_urchin_09s.jpg,0.0,clockno_up.jpg,6.0,51,,,,,,,,,,,,,,,,,,,,,,,,,,,,,,,,
0.0,1.0,1.16657,0.0,31.0,31.0,31.0,1.0,tomato_sauce_09s.jpg,0.0,clockno_default.jpg,6.0,51,,,,,,,,,,,,,,,,,,,,,,,,,,,,,,,,
0.0,1.0,1.263455,0.0,32.0,32.0,32.0,1.0,triangle_10s.jpg,0.0,clockno_default.jpg,6.0,51,,,,,,,,,,,,,,,,,,,,,,,,,,,,,,,,
0.0,1.0,0.74118,0.0,33.0,33.0,33.0,1.0,squirrel_02s.jpg,0.0,clockno_default.jpg,6.0,51,,,,,,,,,,,,,,,,,,,,,,,,,,,,,,,,
0.0,1.0,0.71823,0.0,34.0,34.0,34.0,1.0,punch1_10s.jpg,0.0,clockno_default.jpg,6.0,51,,,,,,,,,,,,,,,,,,,,,,,,,,,,,,,,
0.0,1.0,0.78187,0.0,35.0,35.0,35.0,1.0,chalice_10s.jpg,0.0,clockno_default.jpg,6.0,51,,,,,,,,,,,,,,,,,,,,,,,,,,,,,,,,
,,,,,,,,,1.0,,,51,0.0,0.0,6.682935,0.0,0.0,0.0,0.0,1.0,purse_05s.jpg,knot_01b.jpg,,,,,,,,,,,,,,,,,,,,,,
,,,,,,,,,0.0,,,51,1.0,0.0,5.171465,0.0,1.0,1.0,1.0,1.0,butter_14s.jpg,megaphone_03s.jpg,,,,,,,,,,,,,,,,,,,,,,
,,,,,,,,,0.0,,,51,0.0,1.0,4.2076,0.0,2.0,2.0,2.0,1.0,screwdriver02a.jpg,stapler_01b.jpg,,,,,,,,,,,,,,,,,,,,,,
,,,,,,,,,0.0,,,51,0.0,1.0,3.93926,0.0,3.0,3.0,3.0,1.0,quesadilla_07s.jpg,dashboard_02s.jpg,,,,,,,,,,,,,,,,,,,,,,
,,,,,,,,,0.0,,,51,0.0,1.0,2.71396,0.0,4.0,4.0,4.0,1.0,thumbtack_14s.jpg,juicer2_06s.jpg,,,,,,,,,,,,,,,,,,,,,,
,,,,,,,,,0.0,,,51,0.0,1.0,3.17614,0.0,5.0,5.0,5.0,1.0,turtleneck_11s.jpg,lizard_10n.jpg,,,,,,,,,,,,,,,,,,,,,,
,,,,,,,,,,,,51,,,,,,,,,,,0.0,2.0,2.0,2.0,1.0,clockno_present_3_5.xlsx,clockno_compare_task_3_5.xlsx,,,,,,,,,,,,,,,
0.0,1.0,0.86502,0.0,0.0,0.0,0.0,1.0,leotard_08s.jpg,0.0,clockno_up.jpg,1.0,51,,,,,,,,,,,,,,,,,,,,,,,,,,,,,,,,
0.0,1.0,1.19245,0.0,1.0,1.0,1.0,1.0,popsicle_02s.jpg,0.0,clockno_default.jpg,1.0,51,,,,,,,,,,,,,,,,,,,,,,,,,,,,,,,,
1.0,1.0,0.839985,0.0,2.0,2.0,2.0,1.0,popsicle_02s.jpg,1.0,clockno_default.jpg,1.0,51,,,,,,,,,,,,,,,,,,,,,,,,,,,,,,,,
1.0,1.0,0.76832,0.0,3.0,3.0,3.0,1.0,popsicle_02s.jpg,1.0,clockno_default.jpg,1.0,51,,,,,,,,,,,,,,,,,,,,,,,,,,,,,,,,
0.0,1.0,0.65631,0.0,4.0,4.0,4.0,1.0,rocking_horse_03s.jpg,0.0,clockno_default.jpg,1.0,51,,,,,,,,,,,,,,,,,,,,,,,,,,,,,,,,
0.0,1.0,1.039465,0.0,5.0,5.0,5.0,1.0,incense_02s.jpg,0.0,clockno_up.jpg,2.0,51,,,,,,,,,,,,,,,,,,,,,,,,,,,,,,,,
0.0,1.0,0.76727,0.0,6.0,6.0,6.0,1.0,margarita_03s.jpg,0.0,clockno_default.jpg,2.0,51,,,,,,,,,,,,,,,,,,,,,,,,,,,,,,,,
0.0,1.0,0.697125,0.0,7.0,7.0,7.0,1.0,telephone_pole_05s.jpg,0.0,clockno_default.jpg,2.0,51,,,,,,,,,,,,,,,,,,,,,,,,,,,,,,,,
0.0,1.0,0.688005,0.0,8.0,8.0,8.0,1.0,hummingbird_05s.jpg,0.0,clockno_default.jpg,2.0,51,,,,,,,,,,,,,,,,,,,,,,,,,,,,,,,,
0.0,1.0,0.952385,0.0,9.0,9.0,9.0,1.0,pincushion_10s.jpg,0.0,clockno_default.jpg,2.0,51,,,,,,,,,,,,,,,,,,,,,,,,,,,,,,,,
0.0,1.0,1.54362,0.0,10.0,10.0,10.0,1.0,peppermint_07s.jpg,0.0,clockno_default.jpg,2.0,51,,,,,,,,,,,,,,,,,,,,,,,,,,,,,,,,
0.0,1.0,0.72731,0.0,11.0,11.0,11.0,1.0,mattress_01s.jpg,0.0,clockno_up.jpg,3.0,51,,,,,,,,,,,,,,,,,,,,,,,,,,,,,,,,
0.0,1.0,0.74389,0.0,12.0,12.0,12.0,1.0,swimming_pool_17s.jpg,0.0,clockno_default.jpg,3.0,51,,,,,,,,,,,,,,,,,,,,,,,,,,,,,,,,
0.0,1.0,1.897695,0.0,13.0,13.0,13.0,1.0,pincushion_10s.jpg,0.0,clockno_default.jpg,3.0,51,,,,,,,,,,,,,,,,,,,,,,,,,,,,,,,,
0.0,1.0,0.91144,0.0,14.0,14.0,14.0,1.0,pomegranate_04s.jpg,0.0,clockno_default.jpg,3.0,51,,,,,,,,,,,,,,,,,,,,,,,,,,,,,,,,
1.0,1.0,1.61508,0.0,15.0,15.0,15.0,1.0,pincushion_10s.jpg,1.0,clockno_default.jpg,3.0,51,,,,,,,,,,,,,,,,,,,,,,,,,,,,,,,,
0.0,1.0,0.679845,0.0,16.0,16.0,16.0,1.0,soccer_ball_12s.jpg,0.0,clockno_default.jpg,3.0,51,,,,,,,,,,,,,,,,,,,,,,,,,,,,,,,,
0.0,1.0,0.846885,0.0,17.0,17.0,17.0,1.0,swing_set_15s.jpg,0.0,clockno_default.jpg,3.0,51,,,,,,,,,,,,,,,,,,,,,,,,,,,,,,,,
0.0,1.0,1.11108,0.0,18.0,18.0,18.0,1.0,lipstick_02s.jpg,0.0,clockno_up.jpg,4.0,51,,,,,,,,,,,,,,,,,,,,,,,,,,,,,,,,
1.0,1.0,0.959785,0.0,19.0,19.0,19.0,1.0,lipstick_02s.jpg,1.0,clockno_default.jpg,4.0,51,,,,,,,,,,,,,,,,,,,,,,,,,,,,,,,,
0.0,1.0,1.006715,0.0,20.0,20.0,20.0,1.0,tie_03s.jpg,0.0,clockno_default.jpg,4.0,51,,,,,,,,,,,,,,,,,,,,,,,,,,,,,,,,
0.0,1.0,0.6941,0.0,21.0,21.0,21.0,1.0,muffin_12n.jpg,0.0,clockno_default.jpg,4.0,51,,,,,,,,,,,,,,,,,,,,,,,,,,,,,,,,
0.0,1.0,0.782515,0.0,22.0,22.0,22.0,1.0,solar_panel_02s.jpg,0.0,clockno_default.jpg,4.0,51,,,,,,,,,,,,,,,,,,,,,,,,,,,,,,,,
0.0,1.0,0.838875,0.0,23.0,23.0,23.0,1.0,safety_pin_02s.jpg,0.0,clockno_default.jpg,4.0,51,,,,,,,,,,,,,,,,,,,,,,,,,,,,,,,,
0.0,1.0,1.25484,0.0,24.0,24.0,24.0,1.0,rolling_pin_02s.jpg,0.0,clockno_up.jpg,5.0,51,,,,,,,,,,,,,,,,,,,,,,,,,,,,,,,,
0.0,1.0,0.550175,0.0,25.0,25.0,25.0,1.0,toaster_03s.jpg,0.0,clockno_default.jpg,5.0,51,,,,,,,,,,,,,,,,,,,,,,,,,,,,,,,,
0.0,1.0,0.590895,0.0,26.0,26.0,26.0,1.0,umbrella_15s.jpg,0.0,clockno_default.jpg,5.0,51,,,,,,,,,,,,,,,,,,,,,,,,,,,,,,,,
0.0,1.0,0.886395,0.0,27.0,27.0,27.0,1.0,gong_02s.jpg,0.0,clockno_default.jpg,5.0,51,,,,,,,,,,,,,,,,,,,,,,,,,,,,,,,,
0.0,1.0,0.83067,0.0,28.0,28.0,28.0,1.0,plug_08s.jpg,0.0,clockno_default.jpg,5.0,51,,,,,,,,,,,,,,,,,,,,,,,,,,,,,,,,
0.0,1.0,0.82208,0.0,29.0,29.0,29.0,1.0,bonsai_07s.jpg,0.0,clockno_up.jpg,6.0,51,,,,,,,,,,,,,,,,,,,,,,,,,,,,,,,,
0.0,1.0,2.214505,0.0,30.0,30.0,30.0,1.0,raft_09s.jpg,0.0,clockno_default.jpg,6.0,51,,,,,,,,,,,,,,,,,,,,,,,,,,,,,,,,
0.0,1.0,0.726125,0.0,31.0,31.0,31.0,1.0,puppet_01b.jpg,0.0,clockno_default.jpg,6.0,51,,,,,,,,,,,,,,,,,,,,,,,,,,,,,,,,
1.0,1.0,0.879055,0.0,32.0,32.0,32.0,1.0,puppet_01b.jpg,1.0,clockno_default.jpg,6.0,51,,,,,,,,,,,,,,,,,,,,,,,,,,,,,,,,
0.0,1.0,0.8383,0.0,33.0,33.0,33.0,1.0,emerald_02s.jpg,0.0,clockno_default.jpg,6.0,51,,,,,,,,,,,,,,,,,,,,,,,,,,,,,,,,
0.0,1.0,0.663205,0.0,34.0,34.0,34.0,1.0,pencil02a.jpg,0.0,clockno_default.jpg,6.0,51,,,,,,,,,,,,,,,,,,,,,,,,,,,,,,,,
0.0,1.0,0.981815,0.0,35.0,35.0,35.0,1.0,gazelle_10s.jpg,0.0,clockno_default.jpg,6.0,51,,,,,,,,,,,,,,,,,,,,,,,,,,,,,,,,
,,,,,,,,,1.0,,,51,1.0,1.0,3.838265,0.0,0.0,0.0,0.0,1.0,umbrella_15s.jpg,bonsai_07s.jpg,,,,,,,,,,,,,,,,,,,,,,
,,,,,,,,,1.0,,,51,0.0,0.0,5.98204,0.0,1.0,1.0,1.0,1.0,rocking_horse_03s.jpg,telephone_pole_05s.jpg,,,,,,,,,,,,,,,,,,,,,,
,,,,,,,,,1.0,,,51,1.0,1.0,4.13828,0.0,2.0,2.0,2.0,1.0,muffin_12n.jpg,rolling_pin_02s.jpg,,,,,,,,,,,,,,,,,,,,,,
,,,,,,,,,1.0,,,51,1.0,1.0,2.41566,0.0,3.0,3.0,3.0,1.0,incense_02s.jpg,hummingbird_05s.jpg,,,,,,,,,,,,,,,,,,,,,,
,,,,,,,,,0.0,,,51,1.0,0.0,2.49145,0.0,4.0,4.0,4.0,1.0,pomegranate_04s.jpg,mattress_01s.jpg,,,,,,,,,,,,,,,,,,,,,,
,,,,,,,,,1.0,,,51,0.0,0.0,2.21855,0.0,5.0,5.0,5.0,1.0,toaster_03s.jpg,plug_08s.jpg,,,,,,,,,,,,,,,,,,,,,,
,,,,,,,,,,,,51,,,,,,,,,,,0.0,3.0,3.0,3.0,1.0,clockno_present_4_5.xlsx,clockno_compare_task_4_5.xlsx,,,,,,,,,,,,,,,
0.0,1.0,0.94246,0.0,0.0,0.0,0.0,1.0,tiara_05s.jpg,0.0,clockno_up.jpg,1.0,51,,,,,,,,,,,,,,,,,,,,,,,,,,,,,,,,
0.0,1.0,0.75646,0.0,1.0,1.0,1.0,1.0,refrigerator_07s.jpg,0.0,clockno_default.jpg,1.0,51,,,,,,,,,,,,,,,,,,,,,,,,,,,,,,,,
0.0,1.0,0.819155,0.0,2.0,2.0,2.0,1.0,roller_coaster_07s.jpg,0.0,clockno_default.jpg,1.0,51,,,,,,,,,,,,,,,,,,,,,,,,,,,,,,,,
0.0,1.0,1.1722,0.0,3.0,3.0,3.0,1.0,crystal_ball_12s.jpg,0.0,clockno_default.jpg,1.0,51,,,,,,,,,,,,,,,,,,,,,,,,,,,,,,,,
0.0,1.0,1.34744,0.0,4.0,4.0,4.0,1.0,racehorse_03s.jpg,0.0,clockno_default.jpg,1.0,51,,,,,,,,,,,,,,,,,,,,,,,,,,,,,,,,
0.0,1.0,0.836665,0.0,5.0,5.0,5.0,1.0,lamb_chop_07s.jpg,0.0,clockno_default.jpg,1.0,51,,,,,,,,,,,,,,,,,,,,,,,,,,,,,,,,
0.0,1.0,1.451125,0.0,6.0,6.0,6.0,1.0,paper_towel_03s.jpg,0.0,clockno_up.jpg,2.0,51,,,,,,,,,,,,,,,,,,,,,,,,,,,,,,,,
0.0,1.0,0.643385,0.0,7.0,7.0,7.0,1.0,radiator_05s.jpg,0.0,clockno_default.jpg,2.0,51,,,,,,,,,,,,,,,,,,,,,,,,,,,,,,,,
0.0,1.0,0.850905,0.0,8.0,8.0,8.0,1.0,frog_09s.jpg,0.0,clockno_default.jpg,2.0,51,,,,,,,,,,,,,,,,,,,,,,,,,,,,,,,,
1.0,1.0,1.740075,0.0,9.0,9.0,9.0,1.0,radiator_05s.jpg,1.0,clockno_default.jpg,2.0,51,,,,,,,,,,,,,,,,,,,,,,,,,,,,,,,,
0.0,1.0,0.90753,0.0,10.0,10.0,10.0,1.0,chocolate_01b.jpg,0.0,clockno_default.jpg,2.0,51,,,,,,,,,,,,,,,,,,,,,,,,,,,,,,,,
0.0,1.0,0.83573,0.0,11.0,11.0,11.0,1.0,metronome_03s.jpg,0.0,clockno_up.jpg,3.0,51,,,,,,,,,,,,,,,,,,,,,,,,,,,,,,,,
0.0,1.0,0.63591,0.0,12.0,12.0,12.0,1.0,kettle_08s.jpg,0.0,clockno_default.jpg,3.0,51,,,,,,,,,,,,,,,,,,,,,,,,,,,,,,,,
0.0,1.0,1.314905,0.0,13.0,13.0,13.0,1.0,refrigerator_07s.jpg,0.0,clockno_default.jpg,3.0,51,,,,,,,,,,,,,,,,,,,,,,,,,,,,,,,,
0.0,1.0,0.82745,0.0,14.0,14.0,14.0,1.0,eyedropper_12s.jpg,0.0,clockno_default.jpg,3.0,51,,,,,,,,,,,,,,,,,,,,,,,,,,,,,,,,
0.0,1.0,0.7639,0.0,15.0,15.0,15.0,1.0,totem_pole_05s.jpg,0.0,clockno_default.jpg,3.0,51,,,,,,,,,,,,,,,,,,,,,,,,,,,,,,,,
0.0,1.0,0.674625,0.0,16.0,16.0,16.0,1.0,aluminum_foil_08s.jpg,0.0,clockno_default.jpg,3.0,51,,,,,,,,,,,,,,,,,,,,,,,,,,,,,,,,
0.0,1.0,0.819495,0.0,17.0,17.0,17.0,1.0,birdcage_08s.jpg,0.0,clockno_default.jpg,3.0,51,,,,,,,,,,,,,,,,,,,,,,,,,,,,,,,,
0.0,1.0,0.77065,0.0,18.0,18.0,18.0,1.0,gargoyle_08s.jpg,0.0,clockno_up.jpg,4.0,51,,,,,,,,,,,,,,,,,,,,,,,,,,,,,,,,
0.0,1.0,0.906985,0.0,19.0,19.0,19.0,1.0,cobra_05s.jpg,0.0,clockno_default.jpg,4.0,51,,,,,,,,,,,,,,,,,,,,,,,,,,,,,,,,
0.0,1.0,0.74698,0.0,20.0,20.0,20.0,1.0,bank_06s.jpg,0.0,clockno_default.jpg,4.0,51,,,,,,,,,,,,,,,,,,,,,,,,,,,,,,,,
0.0,1.0,0.8588,0.0,21.0,21.0,21.0,1.0,spatula04.jpg,0.0,clockno_default.jpg,4.0,51,,,,,,,,,,,,,,,,,,,,,,,,,,,,,,,,
0.0,1.0,0.786165,0.0,22.0,22.0,22.0,1.0,syringe_02s.jpg,0.0,clockno_default.jpg,4.0,51,,,,,,,,,,,,,,,,,,,,,,,,,,,,,,,,
0.0,1.0,1.32268,0.0,23.0,23.0,23.0,1.0,surfboard_11s.jpg,0.0,clockno_up.jpg,5.0,51,,,,,,,,,,,,,,,,,,,,,,,,,,,,,,,,
0.0,1.0,0.99399,0.0,24.0,24.0,24.0,1.0,birthday_cake_09s.jpg,0.0,clockno_default.jpg,5.0,51,,,,,,,,,,,,,,,,,,,,,,,,,,,,,,,,
0.0,1.0,0.55379,0.0,25.0,25.0,25.0,1.0,pretzel_09s.jpg,0.0,clockno_default.jpg,5.0,51,,,,,,,,,,,,,,,,,,,,,,,,,,,,,,,,
0.0,1.0,0.7145,0.0,26.0,26.0,26.0,1.0,possum_09s.jpg,0.0,clockno_default.jpg,5.0,51,,,,,,,,,,,,,,,,,,,,,,,,,,,,,,,,
0.0,1.0,0.69833,0.0,27.0,27.0,27.0,1.0,magnet_03s.jpg,0.0,clockno_default.jpg,5.0,51,,,,,,,,,,,,,,,,,,,,,,,,,,,,,,,,
0.0,1.0,1.10617,0.0,28.0,28.0,28.0,1.0,crate_05s.jpg,0.0,clockno_default.jpg,5.0,51,,,,,,,,,,,,,,,,,,,,,,,,,,,,,,,,
0.0,1.0,0.88982,0.0,29.0,29.0,29.0,1.0,fossil_06s.jpg,0.0,clockno_up.jpg,6.0,51,,,,,,,,,,,,,,,,,,,,,,,,,,,,,,,,
0.0,1.0,0.82624,0.0,30.0,30.0,30.0,1.0,contact_lens_15s.jpg,0.0,clockno_default.jpg,6.0,51,,,,,,,,,,,,,,,,,,,,,,,,,,,,,,,,
0.0,1.0,1.44987,0.0,31.0,31.0,31.0,1.0,sugar_cube_11s.jpg,0.0,clockno_default.jpg,6.0,51,,,,,,,,,,,,,,,,,,,,,,,,,,,,,,,,
0.0,1.0,0.68923,0.0,32.0,32.0,32.0,1.0,key_07s.jpg,0.0,clockno_default.jpg,6.0,51,,,,,,,,,,,,,,,,,,,,,,,,,,,,,,,,
0.0,1.0,0.83436,0.0,33.0,33.0,33.0,1.0,birthday_cake_09s.jpg,0.0,clockno_default.jpg,6.0,51,,,,,,,,,,,,,,,,,,,,,,,,,,,,,,,,
0.0,1.0,0.73742,0.0,34.0,34.0,34.0,1.0,kangaroo_02s.jpg,0.0,clockno_default.jpg,6.0,51,,,,,,,,,,,,,,,,,,,,,,,,,,,,,,,,
0.0,1.0,0.96168,0.0,35.0,35.0,35.0,1.0,juicer1_08s.jpg,0.0,clockno_default.jpg,6.0,51,,,,,,,,,,,,,,,,,,,,,,,,,,,,,,,,
,,,,,,,,,1.0,,,51,1.0,1.0,3.33516,0.0,0.0,0.0,0.0,1.0,magnet_03s.jpg,contact_lens_15s.jpg,,,,,,,,,,,,,,,,,,,,,,
,,,,,,,,,0.0,,,51,0.0,1.0,3.41761,0.0,1.0,1.0,1.0,1.0,paper_towel_03s.jpg,crystal_ball_12s.jpg,,,,,,,,,,,,,,,,,,,,,,
,,,,,,,,,0.0,,,51,0.0,1.0,4.476575,0.0,2.0,2.0,2.0,1.0,frog_09s.jpg,lamb_chop_07s.jpg,,,,,,,,,,,,,,,,,,,,,,
,,,,,,,,,0.0,,,51,0.0,1.0,1.692415,0.0,3.0,3.0,3.0,1.0,juicer1_08s.jpg,key_07s.jpg,,,,,,,,,,,,,,,,,,,,,,
,,,,,,,,,0.0,,,51,1.0,0.0,6.398285,0.0,4.0,4.0,4.0,1.0,eyedropper_12s.jpg,metronome_03s.jpg,,,,,,,,,,,,,,,,,,,,,,
,,,,,,,,,0.0,,,51,0.0,1.0,2.527225,0.0,5.0,5.0,5.0,1.0,totem_pole_05s.jpg,kettle_08s.jpg,,,,,,,,,,,,,,,,,,,,,,
,,,,,,,,,,,,51,,,,,,,,,,,0.0,4.0,4.0,4.0,1.0,clockno_present_5_5.xlsx,clockno_compare_task_5_5.xlsx,,,,,,,,,,,,,,,
0.0,1.0,0.919005,0.0,0.0,0.0,0.0,1.0,fishhook_06s.jpg,0.0,clockno_up.jpg,1.0,51,,,,,,,,,,,,,,,,,,,,,,,,,,,,,,,,
1.0,1.0,0.950495,0.0,1.0,1.0,1.0,1.0,fishhook_06s.jpg,1.0,clockno_default.jpg,1.0,51,,,,,,,,,,,,,,,,,,,,,,,,,,,,,,,,
1.0,1.0,0.66235,0.0,2.0,2.0,2.0,1.0,fishhook_06s.jpg,1.0,clockno_default.jpg,1.0,51,,,,,,,,,,,,,,,,,,,,,,,,,,,,,,,,
0.0,1.0,0.847615,0.0,3.0,3.0,3.0,1.0,chip_04s.jpg,0.0,clockno_default.jpg,1.0,51,,,,,,,,,,,,,,,,,,,,,,,,,,,,,,,,
0.0,1.0,0.798115,0.0,4.0,4.0,4.0,1.0,kite_04s.jpg,0.0,clockno_default.jpg,1.0,51,,,,,,,,,,,,,,,,,,,,,,,,,,,,,,,,
1.0,1.0,2.01533,0.0,5.0,5.0,5.0,1.0,fishhook_06s.jpg,1.0,clockno_default.jpg,1.0,51,,,,,,,,,,,,,,,,,,,,,,,,,,,,,,,,
0.0,1.0,1.806315,0.0,6.0,6.0,6.0,1.0,potpourri_03s.jpg,0.0,clockno_default.jpg,1.0,51,,,,,,,,,,,,,,,,,,,,,,,,,,,,,,,,
0.0,1.0,1.11804,0.0,7.0,7.0,7.0,1.0,blazer_02s.jpg,0.0,clockno_up.jpg,2.0,51,,,,,,,,,,,,,,,,,,,,,,,,,,,,,,,,
0.0,1.0,0.781145,0.0,8.0,8.0,8.0,1.0,toy_04s.jpg,0.0,clockno_default.jpg,2.0,51,,,,,,,,,,,,,,,,,,,,,,,,,,,,,,,,
0.0,1.0,0.621255,0.0,9.0,9.0,9.0,1.0,poinsettia_04s.jpg,0.0,clockno_default.jpg,2.0,51,,,,,,,,,,,,,,,,,,,,,,,,,,,,,,,,
0.0,1.0,0.693705,0.0,10.0,10.0,10.0,1.0,punch2_09s.jpg,0.0,clockno_default.jpg,2.0,51,,,,,,,,,,,,,,,,,,,,,,,,,,,,,,,,
1.0,1.0,1.2059,0.0,11.0,11.0,11.0,1.0,toy_04s.jpg,1.0,clockno_default.jpg,2.0,51,,,,,,,,,,,,,,,,,,,,,,,,,,,,,,,,
0.0,1.0,0.573495,0.0,12.0,12.0,12.0,1.0,quilt_03s.jpg,0.0,clockno_up.jpg,3.0,51,,,,,,,,,,,,,,,,,,,,,,,,,,,,,,,,
1.0,1.0,0.79726,0.0,13.0,13.0,13.0,1.0,quilt_03s.jpg,1.0,clockno_default.jpg,3.0,51,,,,,,,,,,,,,,,,,,,,,,,,,,,,,,,,
0.0,1.0,0.973905,0.0,14.0,14.0,14.0,1.0,toad_09s.jpg,0.0,clockno_default.jpg,3.0,51,,,,,,,,,,,,,,,,,,,,,,,,,,,,,,,,
1.0,1.0,0.741345,0.0,15.0,15.0,15.0,1.0,toad_09s.jpg,1.0,clockno_default.jpg,3.0,51,,,,,,,,,,,,,,,,,,,,,,,,,,,,,,,,
1.0,1.0,2.181325,0.0,16.0,16.0,16.0,1.0,quilt_03s.jpg,1.0,clockno_default.jpg,3.0,51,,,,,,,,,,,,,,,,,,,,,,,,,,,,,,,,
0.0,1.0,1.15718,0.0,17.0,17.0,17.0,1.0,cucumber_07s.jpg,0.0,clockno_default.jpg,3.0,51,,,,,,,,,,,,,,,,,,,,,,,,,,,,,,,,
0.0,1.0,0.789075,0.0,18.0,18.0,18.0,1.0,turf_03s.jpg,0.0,clockno_default.jpg,3.0,51,,,,,,,,,,,,,,,,,,,,,,,,,,,,,,,,
0.0,1.0,0.86929,0.0,19.0,19.0,19.0,1.0,slingshot_07s.jpg,0.0,clockno_up.jpg,4.0,51,,,,,,,,,,,,,,,,,,,,,,,,,,,,,,,,
0.0,1.0,1.045865,0.0,20.0,20.0,20.0,1.0,toy_04s.jpg,0.0,clockno_default.jpg,4.0,51,,,,,,,,,,,,,,,,,,,,,,,,,,,,,,,,
0.0,1.0,0.70112,0.0,21.0,21.0,21.0,1.0,rice_12s.jpg,0.0,clockno_default.jpg,4.0,51,,,,,,,,,,,,,,,,,,,,,,,,,,,,,,,,
0.0,1.0,0.989035,0.0,22.0,22.0,22.0,1.0,flip_flop_03s.jpg,0.0,clockno_default.jpg,4.0,51,,,,,,,,,,,,,,,,,,,,,,,,,,,,,,,,
0.0,1.0,1.484865,0.0,23.0,23.0,23.0,1.0,knitting_needle_04s.jpg,0.0,clockno_default.jpg,4.0,51,,,,,,,,,,,,,,,,,,,,,,,,,,,,,,,,
0.0,1.0,0.82059,0.0,24.0,24.0,24.0,1.0,crossbow_10s.jpg,0.0,clockno_default.jpg,4.0,51,,,,,,,,,,,,,,,,,,,,,,,,,,,,,,,,
0.0,1.0,0.85309,0.0,25.0,25.0,25.0,1.0,rocking_chair_05s.jpg,0.0,clockno_up.jpg,5.0,51,,,,,,,,,,,,,,,,,,,,,,,,,,,,,,,,
0.0,1.0,1.74072,0.0,26.0,26.0,26.0,1.0,fire_pit_10s.jpg,0.0,clockno_default.jpg,5.0,51,,,,,,,,,,,,,,,,,,,,,,,,,,,,,,,,
1.0,1.0,1.005285,0.0,27.0,27.0,27.0,1.0,rocking_chair_05s.jpg,1.0,clockno_default.jpg,5.0,51,,,,,,,,,,,,,,,,,,,,,,,,,,,,,,,,
1.0,1.0,0.69324,0.0,28.0,28.0,28.0,1.0,rocking_chair_05s.jpg,1.0,clockno_default.jpg,5.0,51,,,,,,,,,,,,,,,,,,,,,,,,,,,,,,,,
0.0,1.0,0.94896,0.0,29.0,29.0,29.0,1.0,toad_09s.jpg,0.0,clockno_default.jpg,5.0,51,,,,,,,,,,,,,,,,,,,,,,,,,,,,,,,,
1.0,1.0,1.068345,0.0,30.0,30.0,30.0,1.0,rocking_chair_05s.jpg,1.0,clockno_default.jpg,5.0,51,,,,,,,,,,,,,,,,,,,,,,,,,,,,,,,,
0.0,1.0,0.667965,0.0,31.0,31.0,31.0,1.0,money_07s.jpg,0.0,clockno_up.jpg,6.0,51,,,,,,,,,,,,,,,,,,,,,,,,,,,,,,,,
0.0,1.0,0.636575,0.0,32.0,32.0,32.0,1.0,boomerang_06s.jpg,0.0,clockno_default.jpg,6.0,51,,,,,,,,,,,,,,,,,,,,,,,,,,,,,,,,
0.0,1.0,0.596925,0.0,33.0,33.0,33.0,1.0,mitten_10s.jpg,0.0,clockno_default.jpg,6.0,51,,,,,,,,,,,,,,,,,,,,,,,,,,,,,,,,
0.0,1.0,0.65229,0.0,34.0,34.0,34.0,1.0,cereal_04s.jpg,0.0,clockno_default.jpg,6.0,51,,,,,,,,,,,,,,,,,,,,,,,,,,,,,,,,
0.0,1.0,0.668175,0.0,35.0,35.0,35.0,1.0,mailbox_11s.jpg,0.0,clockno_default.jpg,6.0,51,,,,,,,,,,,,,,,,,,,,,,,,,,,,,,,,
,,,,,,,,,1.0,,,51,1.0,1.0,4.89025,0.0,0.0,0.0,0.0,1.0,knitting_needle_04s.jpg,fire_pit_10s.jpg,,,,,,,,,,,,,,,,,,,,,,
,,,,,,,,,1.0,,,51,1.0,1.0,2.54959,0.0,1.0,1.0,1.0,1.0,kite_04s.jpg,blazer_02s.jpg,,,,,,,,,,,,,,,,,,,,,,
,,,,,,,,,1.0,,,51,0.0,0.0,2.96484,0.0,2.0,2.0,2.0,1.0,potpourri_03s.jpg,poinsettia_04s.jpg,,,,,,,,,,,,,,,,,,,,,,
,,,,,,,,,1.0,,,51,0.0,0.0,2.720505,0.0,3.0,3.0,3.0,1.0,slingshot_07s.jpg,flip_flop_03s.jpg,,,,,,,,,,,,,,,,,,,,,,
,,,,,,,,,1.0,,,51,1.0,1.0,2.06995,0.0,4.0,4.0,4.0,1.0,money_07s.jpg,cereal_04s.jpg,,,,,,,,,,,,,,,,,,,,,,
,,,,,,,,,1.0,,,51,1.0,1.0,3.087095,0.0,5.0,5.0,5.0,1.0,boomerang_06s.jpg,mailbox_11s.jpg,,,,,,,,,,,,,,,,,,,,,,
0.0,1.0,1.258445,,,,,,undershirt_02s.jpg,0.0,clock_5_1.png,1.0,51,,,,,,,,,,,,,,,,,,0.0,0.0,0.0,0.0,1.0,,,,,,,,,,
0.0,1.0,0.91007,,,,,,ladder_15s.jpg,0.0,clock_5_2.png,1.0,51,,,,,,,,,,,,,,,,,,0.0,1.0,1.0,1.0,1.0,,,,,,,,,,
0.0,1.0,0.997055,,,,,,lantern_04s.jpg,0.0,clock_5_3.png,1.0,51,,,,,,,,,,,,,,,,,,0.0,2.0,2.0,2.0,1.0,,,,,,,,,,
0.0,1.0,0.589935,,,,,,cap_05s.jpg,0.0,clock_5_4.png,1.0,51,,,,,,,,,,,,,,,,,,0.0,3.0,3.0,3.0,1.0,,,,,,,,,,
0.0,1.0,0.62179,,,,,,boar_10s.jpg,0.0,clock_5_5.png,1.0,51,,,,,,,,,,,,,,,,,,0.0,4.0,4.0,4.0,1.0,,,,,,,,,,
0.0,1.0,0.646885,,,,,,ring_03s.jpg,0.0,clock_7_1.png,2.0,51,,,,,,,,,,,,,,,,,,0.0,5.0,5.0,5.0,1.0,,,,,,,,,,
0.0,1.0,0.821045,,,,,,kimono_13s.jpg,0.0,clock_7_2.png,2.0,51,,,,,,,,,,,,,,,,,,0.0,6.0,6.0,6.0,1.0,,,,,,,,,,
0.0,1.0,0.74164,,,,,,pacifier_09s.jpg,0.0,clock_7_3.png,2.0,51,,,,,,,,,,,,,,,,,,0.0,7.0,7.0,7.0,1.0,,,,,,,,,,
0.0,1.0,0.781285,,,,,,cape_11s.jpg,0.0,clock_7_4.png,2.0,51,,,,,,,,,,,,,,,,,,0.0,8.0,8.0,8.0,1.0,,,,,,,,,,
0.0,1.0,0.94164,,,,,,spider_web_03s.jpg,0.0,clock_7_5.png,2.0,51,,,,,,,,,,,,,,,,,,0.0,9.0,9.0,9.0,1.0,,,,,,,,,,
0.0,1.0,0.66094,,,,,,pancake_12s.jpg,0.0,clock_7_6.png,2.0,51,,,,,,,,,,,,,,,,,,0.0,10.0,10.0,10.0,1.0,,,,,,,,,,
1.0,1.0,1.397905,,,,,,pancake_12s.jpg,1.0,clock_7_7.png,2.0,51,,,,,,,,,,,,,,,,,,0.0,11.0,11.0,11.0,1.0,,,,,,,,,,
0.0,1.0,0.940505,,,,,,tulip_02s.jpg,0.0,clock_6_1.png,3.0,51,,,,,,,,,,,,,,,,,,0.0,12.0,12.0,12.0,1.0,,,,,,,,,,
0.0,1.0,0.789805,,,,,,pacifier_09s.jpg,0.0,clock_6_2.png,3.0,51,,,,,,,,,,,,,,,,,,0.0,13.0,13.0,13.0,1.0,,,,,,,,,,
0.0,1.0,0.692425,,,,,,gas_mask_11s.jpg,0.0,clock_6_3.png,3.0,51,,,,,,,,,,,,,,,,,,0.0,14.0,14.0,14.0,1.0,,,,,,,,,,
0.0,1.0,0.646485,,,,,,torch_02s.jpg,0.0,clock_6_4.png,3.0,51,,,,,,,,,,,,,,,,,,0.0,15.0,15.0,15.0,1.0,,,,,,,,,,
0.0,1.0,0.58895,,,,,,powder_07s.jpg,0.0,clock_6_5.png,3.0,51,,,,,,,,,,,,,,,,,,0.0,16.0,16.0,16.0,1.0,,,,,,,,,,
0.0,1.0,0.733235,,,,,,lamppost_09s.jpg,0.0,clock_6_6.png,3.0,51,,,,,,,,,,,,,,,,,,0.0,17.0,17.0,17.0,1.0,,,,,,,,,,
0.0,1.0,0.821595,,,,,,rug_09s.jpg,0.0,clock_7_1.png,4.0,51,,,,,,,,,,,,,,,,,,0.0,18.0,18.0,18.0,1.0,,,,,,,,,,
1.0,1.0,0.781995,,,,,,rug_09s.jpg,1.0,clock_7_2.png,4.0,51,,,,,,,,,,,,,,,,,,0.0,19.0,19.0,19.0,1.0,,,,,,,,,,
0.0,1.0,0.847215,,,,,,pencil_sharpener_09n.jpg,0.0,clock_7_3.png,4.0,51,,,,,,,,,,,,,,,,,,0.0,20.0,20.0,20.0,1.0,,,,,,,,,,
0.0,1.0,0.92603,,,,,,trumpet_06s.jpg,0.0,clock_7_4.png,4.0,51,,,,,,,,,,,,,,,,,,0.0,21.0,21.0,21.0,1.0,,,,,,,,,,
0.0,1.0,1.4212,,,,,,typewriter_11s.jpg,0.0,clock_7_5.png,4.0,51,,,,,,,,,,,,,,,,,,0.0,22.0,22.0,22.0,1.0,,,,,,,,,,
0.0,1.0,0.68576,,,,,,swan_11s.jpg,0.0,clock_7_6.png,4.0,51,,,,,,,,,,,,,,,,,,0.0,23.0,23.0,23.0,1.0,,,,,,,,,,
0.0,1.0,1.59005,,,,,,torch_02s.jpg,0.0,clock_7_7.png,4.0,51,,,,,,,,,,,,,,,,,,0.0,24.0,24.0,24.0,1.0,,,,,,,,,,
0.0,1.0,0.996985,,,,,,submarine_11n.jpg,0.0,clock_6_1.png,5.0,51,,,,,,,,,,,,,,,,,,0.0,25.0,25.0,25.0,1.0,,,,,,,,,,
0.0,1.0,0.8611,,,,,,popcorn_09s.jpg,0.0,clock_6_2.png,5.0,51,,,,,,,,,,,,,,,,,,0.0,26.0,26.0,26.0,1.0,,,,,,,,,,
0.0,1.0,0.997305,,,,,,turnstile_08s.jpg,0.0,clock_6_3.png,5.0,51,,,,,,,,,,,,,,,,,,0.0,27.0,27.0,27.0,1.0,,,,,,,,,,
0.0,1.0,1.200015,,,,,,printer_09s.jpg,0.0,clock_6_4.png,5.0,51,,,,,,,,,,,,,,,,,,0.0,28.0,28.0,28.0,1.0,,,,,,,,,,
0.0,1.0,1.03682,,,,,,orange_12s.jpg,0.0,clock_6_5.png,5.0,51,,,,,,,,,,,,,,,,,,0.0,29.0,29.0,29.0,1.0,,,,,,,,,,
1.0,1.0,1.60536,,,,,,submarine_11n.jpg,1.0,clock_6_6.png,5.0,51,,,,,,,,,,,,,,,,,,0.0,30.0,30.0,30.0,1.0,,,,,,,,,,
0.0,1.0,1.10055,,,,,,red_carpet_03s.jpg,0.0,clock_5_1.png,6.0,51,,,,,,,,,,,,,,,,,,0.0,31.0,31.0,31.0,1.0,,,,,,,,,,
0.0,1.0,1.197935,,,,,,spider_web_03s.jpg,0.0,clock_5_2.png,6.0,51,,,,,,,,,,,,,,,,,,0.0,32.0,32.0,32.0,1.0,,,,,,,,,,
0.0,1.0,0.6929,,,,,,fireworks_18s.jpg,0.0,clock_5_3.png,6.0,51,,,,,,,,,,,,,,,,,,0.0,33.0,33.0,33.0,1.0,,,,,,,,,,
0.0,1.0,0.901065,,,,,,piano_13n.jpg,0.0,clock_5_4.png,6.0,51,,,,,,,,,,,,,,,,,,0.0,34.0,34.0,34.0,1.0,,,,,,,,,,
0.0,1.0,1.013935,,,,,,fondue_07s.jpg,0.0,clock_5_5.png,6.0,51,,,,,,,,,,,,,,,,,,0.0,35.0,35.0,35.0,1.0,,,,,,,,,,
,,,,,,,,,1.0,,,51,1.0,1.0,4.79661,,,,,,lantern_04s.jpg,ring_03s.jpg,,,,,,,,,,,,,0.0,0.0,0.0,0.0,1.0,,,,,
,,,,,,,,,1.0,,,51,1.0,1.0,3.27629,,,,,,cap_05s.jpg,kimono_13s.jpg,,,,,,,,,,,,,0.0,1.0,1.0,1.0,1.0,,,,,
,,,,,,,,,0.0,,,51,0.0,1.0,2.5487,,,,,,red_carpet_03s.jpg,printer_09s.jpg,,,,,,,,,,,,,0.0,2.0,2.0,2.0,1.0,,,,,
,,,,,,,,,0.0,,,51,1.0,0.0,1.281785,,,,,,boar_10s.jpg,ladder_15s.jpg,,,,,,,,,,,,,0.0,3.0,3.0,3.0,1.0,,,,,
,,,,,,,,,0.0,,,51,1.0,0.0,3.114955,,,,,,lamppost_09s.jpg,gas_mask_11s.jpg,,,,,,,,,,,,,0.0,4.0,4.0,4.0,1.0,,,,,
,,,,,,,,,1.0,,,51,1.0,1.0,1.4888,,,,,,popcorn_09s.jpg,orange_12s.jpg,,,,,,,,,,,,,0.0,5.0,5.0,5.0,1.0,,,,,
,,,,,,,,,,,,51,,,,,,,,,,,,,,,,clock_present_1_5.xlsx,clock_compare_task_1_5.xlsx,,,,,,,,,,,0.0,0.0,0.0,0.0,1.0
0.0,1.0,1.930775,,,,,,rhinoceros_02s.jpg,0.0,clock_5_1.png,1.0,51,,,,,,,,,,,,,,,,,,0.0,0.0,0.0,0.0,1.0,,,,,,,,,,
0.0,1.0,1.29789,,,,,,laundry_basket_11s.jpg,0.0,clock_5_2.png,1.0,51,,,,,,,,,,,,,,,,,,0.0,1.0,1.0,1.0,1.0,,,,,,,,,,
1.0,1.0,0.825185,,,,,,laundry_basket_11s.jpg,1.0,clock_5_3.png,1.0,51,,,,,,,,,,,,,,,,,,0.0,2.0,2.0,2.0,1.0,,,,,,,,,,
0.0,1.0,1.01595,,,,,,peeler_06s.jpg,0.0,clock_5_4.png,1.0,51,,,,,,,,,,,,,,,,,,0.0,3.0,3.0,3.0,1.0,,,,,,,,,,
0.0,1.0,0.792645,,,,,,pepper_mill_03s.jpg,0.0,clock_5_5.png,1.0,51,,,,,,,,,,,,,,,,,,0.0,4.0,4.0,4.0,1.0,,,,,,,,,,
0.0,1.0,0.753465,,,,,,eiffeltower.jpg,0.0,clock_7_1.png,2.0,51,,,,,,,,,,,,,,,,,,0.0,5.0,5.0,5.0,1.0,,,,,,,,,,
1.0,1.0,0.864465,,,,,,eiffeltower.jpg,1.0,clock_7_2.png,2.0,51,,,,,,,,,,,,,,,,,,0.0,6.0,6.0,6.0,1.0,,,,,,,,,,
0.0,1.0,1.160315,,,,,,blender_08s.jpg,0.0,clock_7_3.png,2.0,51,,,,,,,,,,,,,,,,,,0.0,7.0,7.0,7.0,1.0,,,,,,,,,,
0.0,1.0,1.128005,,,,,,treasure_08s.jpg,0.0,clock_7_4.png,2.0,51,,,,,,,,,,,,,,,,,,0.0,8.0,8.0,8.0,1.0,,,,,,,,,,
1.0,1.0,1.47255,,,,,,eiffeltower.jpg,1.0,clock_7_5.png,2.0,51,,,,,,,,,,,,,,,,,,0.0,9.0,9.0,9.0,1.0,,,,,,,,,,
0.0,1.0,0.56008,,,,,,lamb_04s.jpg,0.0,clock_7_6.png,2.0,51,,,,,,,,,,,,,,,,,,0.0,10.0,10.0,10.0,1.0,,,,,,,,,,
0.0,0.0,1.551655,,,,,,blender_08s.jpg,1.0,clock_7_7.png,2.0,51,,,,,,,,,,,,,,,,,,0.0,11.0,11.0,11.0,1.0,,,,,,,,,,
0.0,1.0,0.831345,,,,,,outlet_10s.jpg,0.0,clock_6_1.png,3.0,51,,,,,,,,,,,,,,,,,,0.0,12.0,12.0,12.0,1.0,,,,,,,,,,
0.0,1.0,0.831415,,,,,,mixer_12s.jpg,0.0,clock_6_2.png,3.0,51,,,,,,,,,,,,,,,,,,0.0,13.0,13.0,13.0,1.0,,,,,,,,,,
0.0,1.0,0.63168,,,,,,toilet_07s.jpg,0.0,clock_6_3.png,3.0,51,,,,,,,,,,,,,,,,,,0.0,14.0,14.0,14.0,1.0,,,,,,,,,,
0.0,1.0,0.61516,,,,,,keyboard_05s.jpg,0.0,clock_6_4.png,3.0,51,,,,,,,,,,,,,,,,,,0.0,15.0,15.0,15.0,1.0,,,,,,,,,,
1.0,1.0,0.89769,,,,,,toilet_07s.jpg,1.0,clock_6_5.png,3.0,51,,,,,,,,,,,,,,,,,,0.0,16.0,16.0,16.0,1.0,,,,,,,,,,
0.0,1.0,0.671595,,,,,,air_pump_05s.jpg,0.0,clock_6_6.png,3.0,51,,,,,,,,,,,,,,,,,,0.0,17.0,17.0,17.0,1.0,,,,,,,,,,
0.0,1.0,1.735175,,,,,,limousine_12s.jpg,0.0,clock_7_1.png,4.0,51,,,,,,,,,,,,,,,,,,0.0,18.0,18.0,18.0,1.0,,,,,,,,,,
1.0,1.0,1.2321,,,,,,limousine_12s.jpg,1.0,clock_7_2.png,4.0,51,,,,,,,,,,,,,,,,,,0.0,19.0,19.0,19.0,1.0,,,,,,,,,,
0.0,1.0,0.68769,,,,,,rope_16s.jpg,0.0,clock_7_3.png,4.0,51,,,,,,,,,,,,,,,,,,0.0,20.0,20.0,20.0,1.0,,,,,,,,,,
0.0,1.0,0.64734,,,,,,omelet_07s.jpg,0.0,clock_7_4.png,4.0,51,,,,,,,,,,,,,,,,,,0.0,21.0,21.0,21.0,1.0,,,,,,,,,,
0.0,1.0,0.79124,,,,,,jigsaw_puzzle_11s.jpg,0.0,clock_7_5.png,4.0,51,,,,,,,,,,,,,,,,,,0.0,22.0,22.0,22.0,1.0,,,,,,,,,,
0.0,1.0,0.65513,,,,,,taxi_15s.jpg,0.0,clock_7_6.png,4.0,51,,,,,,,,,,,,,,,,,,0.0,23.0,23.0,23.0,1.0,,,,,,,,,,
0.0,1.0,0.670895,,,,,,puck_06s.jpg,0.0,clock_7_7.png,4.0,51,,,,,,,,,,,,,,,,,,0.0,24.0,24.0,24.0,1.0,,,,,,,,,,
0.0,1.0,1.263845,,,,,,tube_top_03s.jpg,0.0,clock_5_1.png,5.0,51,,,,,,,,,,,,,,,,,,0.0,25.0,25.0,25.0,1.0,,,,,,,,,,
0.0,1.0,1.11923,,,,,,exhaust_pipe_10s.jpg,0.0,clock_5_2.png,5.0,51,,,,,,,,,,,,,,,,,,0.0,26.0,26.0,26.0,1.0,,,,,,,,,,
0.0,1.0,0.680725,,,,,,polar_bear_02s.jpg,0.0,clock_5_3.png,5.0,51,,,,,,,,,,,,,,,,,,0.0,27.0,27.0,27.0,1.0,,,,,,,,,,
0.0,1.0,0.77468,,,,,,pillow_03s.jpg,0.0,clock_5_4.png,5.0,51,,,,,,,,,,,,,,,,,,0.0,28.0,28.0,28.0,1.0,,,,,,,,,,
0.0,1.0,0.614605,,,,,,harpoon.jpg,0.0,clock_5_5.png,5.0,51,,,,,,,,,,,,,,,,,,0.0,29.0,29.0,29.0,1.0,,,,,,,,,,
0.0,1.0,0.927105,,,,,,turkey_10s.jpg,0.0,clock_6_1.png,6.0,51,,,,,,,,,,,,,,,,,,0.0,30.0,30.0,30.0,1.0,,,,,,,,,,
0.0,1.0,0.774555,,,,,,thermostat_02s.jpg,0.0,clock_6_2.png,6.0,51,,,,,,,,,,,,,,,,,,0.0,31.0,31.0,31.0,1.0,,,,,,,,,,
0.0,1.0,0.847665,,,,,,chopsticks_08s.jpg,0.0,clock_6_3.png,6.0,51,,,,,,,,,,,,,,,,,,0.0,32.0,32.0,32.0,1.0,,,,,,,,,,
0.0,1.0,0.59045,,,,,,tab_09s.jpg,0.0,clock_6_4.png,6.0,51,,,,,,,,,,,,,,,,,,0.0,33.0,33.0,33.0,1.0,,,,,,,,,,
0.0,1.0,1.110525,,,,,,breadstick_08s.jpg,0.0,clock_6_5.png,6.0,51,,,,,,,,,,,,,,,,,,0.0,34.0,34.0,34.0,1.0,,,,,,,,,,
0.0,1.0,0.839685,,,,,,rhinoceros_02s.jpg,0.0,clock_6_6.png,6.0,51,,,,,,,,,,,,,,,,,,0.0,35.0,35.0,35.0,1.0,,,,,,,,,,
,,,,,,,,,0.0,,,51,0.0,1.0,4.275475,,,,,,mixer_12s.jpg,lamb_04s.jpg,,,,,,,,,,,,,0.0,0.0,0.0,0.0,1.0,,,,,
,,,,,,,,,0.0,,,51,0.0,1.0,4.659105,,,,,,rope_16s.jpg,air_pump_05s.jpg,,,,,,,,,,,,,0.0,1.0,1.0,1.0,1.0,,,,,
,,,,,,,,,1.0,,,51,1.0,1.0,3.82061,,,,,,jigsaw_puzzle_11s.jpg,tube_top_03s.jpg,,,,,,,,,,,,,0.0,2.0,2.0,2.0,1.0,,,,,
,,,,,,,,,1.0,,,51,0.0,0.0,1.782855,,,,,,outlet_10s.jpg,keyboard_05s.jpg,,,,,,,,,,,,,0.0,3.0,3.0,3.0,1.0,,,,,
,,,,,,,,,0.0,,,51,0.0,1.0,1.435545,,,,,,puck_06s.jpg,omelet_07s.jpg,,,,,,,,,,,,,0.0,4.0,4.0,4.0,1.0,,,,,
,,,,,,,,,1.0,,,51,1.0,1.0,1.82112,,,,,,turkey_10s.jpg,tab_09s.jpg,,,,,,,,,,,,,0.0,5.0,5.0,5.0,1.0,,,,,
,,,,,,,,,,,,51,,,,,,,,,,,,,,,,clock_present_2_5.xlsx,clock_compare_task_2_5.xlsx,,,,,,,,,,,0.0,1.0,1.0,1.0,1.0
0.0,1.0,0.877865,,,,,,pumpkin_03s.jpg,0.0,clock_7_1.png,1.0,51,,,,,,,,,,,,,,,,,,0.0,0.0,0.0,0.0,1.0,,,,,,,,,,
0.0,1.0,0.683625,,,,,,bottle_opener_11s.jpg,0.0,clock_7_2.png,1.0,51,,,,,,,,,,,,,,,,,,0.0,1.0,1.0,1.0,1.0,,,,,,,,,,
0.0,1.0,0.643885,,,,,,tupperware_09s.jpg,0.0,clock_7_3.png,1.0,51,,,,,,,,,,,,,,,,,,0.0,2.0,2.0,2.0,1.0,,,,,,,,,,
0.0,1.0,0.683195,,,,,,mango_09s.jpg,0.0,clock_7_4.png,1.0,51,,,,,,,,,,,,,,,,,,0.0,3.0,3.0,3.0,1.0,,,,,,,,,,
0.0,1.0,0.515505,,,,,,marker_05s.jpg,0.0,clock_7_5.png,1.0,51,,,,,,,,,,,,,,,,,,0.0,4.0,4.0,4.0,1.0,,,,,,,,,,
0.0,1.0,0.83566,,,,,,bean_06s.jpg,0.0,clock_7_6.png,1.0,51,,,,,,,,,,,,,,,,,,0.0,5.0,5.0,5.0,1.0,,,,,,,,,,
0.0,1.0,0.676035,,,,,,pear_02s.jpg,0.0,clock_7_7.png,1.0,51,,,,,,,,,,,,,,,,,,0.0,6.0,6.0,6.0,1.0,,,,,,,,,,
0.0,1.0,0.62753,,,,,,clover_04s.jpg,0.0,clock_5_1.png,2.0,51,,,,,,,,,,,,,,,,,,0.0,7.0,7.0,7.0,1.0,,,,,,,,,,
0.0,1.0,0.78054,,,,,,perfume_06s.jpg,0.0,clock_5_2.png,2.0,51,,,,,,,,,,,,,,,,,,0.0,8.0,8.0,8.0,1.0,,,,,,,,,,
0.0,1.0,0.554785,,,,,,spacesuit_02s.jpg,0.0,clock_5_3.png,2.0,51,,,,,,,,,,,,,,,,,,0.0,9.0,9.0,9.0,1.0,,,,,,,,,,
0.0,1.0,0.803275,,,,,,recliner_02s.jpg,0.0,clock_5_4.png,2.0,51,,,,,,,,,,,,,,,,,,0.0,10.0,10.0,10.0,1.0,,,,,,,,,,
0.0,1.0,0.7312,,,,,,hyena_16s.jpg,0.0,clock_5_5.png,2.0,51,,,,,,,,,,,,,,,,,,0.0,11.0,11.0,11.0,1.0,,,,,,,,,,
0.0,1.0,0.674835,,,,,,bolo_tie_08s.jpg,0.0,clock_7_1.png,3.0,51,,,,,,,,,,,,,,,,,,0.0,12.0,12.0,12.0,1.0,,,,,,,,,,
0.0,1.0,0.65898,,,,,,plaster_cast_13s.jpg,0.0,clock_7_2.png,3.0,51,,,,,,,,,,,,,,,,,,0.0,13.0,13.0,13.0,1.0,,,,,,,,,,
0.0,1.0,0.634935,,,,,,badge_03s.jpg,0.0,clock_7_3.png,3.0,51,,,,,,,,,,,,,,,,,,0.0,14.0,14.0,14.0,1.0,,,,,,,,,,
0.0,1.0,0.530895,,,,,,swordfish_05s.jpg,0.0,clock_7_4.png,3.0,51,,,,,,,,,,,,,,,,,,0.0,15.0,15.0,15.0,1.0,,,,,,,,,,
0.0,1.0,0.65165,,,,,,perfume_06s.jpg,0.0,clock_7_5.png,3.0,51,,,,,,,,,,,,,,,,,,0.0,16.0,16.0,16.0,1.0,,,,,,,,,,
0.0,1.0,0.948285,,,,,,pear_02s.jpg,0.0,clock_7_6.png,3.0,51,,,,,,,,,,,,,,,,,,0.0,17.0,17.0,17.0,1.0,,,,,,,,,,
0.0,1.0,0.780265,,,,,,quill_09s.jpg,0.0,clock_7_7.png,3.0,51,,,,,,,,,,,,,,,,,,0.0,18.0,18.0,18.0,1.0,,,,,,,,,,
0.0,1.0,0.938495,,,,,,mop_08s.jpg,0.0,clock_6_1.png,4.0,51,,,,,,,,,,,,,,,,,,0.0,19.0,19.0,19.0,1.0,,,,,,,,,,
0.0,1.0,1.114855,,,,,,plaster_cast_13s.jpg,0.0,clock_6_2.png,4.0,51,,,,,,,,,,,,,,,,,,0.0,20.0,20.0,20.0,1.0,,,,,,,,,,
0.0,1.0,0.7784,,,,,,parachute_03s.jpg,0.0,clock_6_3.png,4.0,51,,,,,,,,,,,,,,,,,,0.0,21.0,21.0,21.0,1.0,,,,,,,,,,
0.0,1.0,0.641945,,,,,,inhaler_01b.jpg,0.0,clock_6_4.png,4.0,51,,,,,,,,,,,,,,,,,,0.0,22.0,22.0,22.0,1.0,,,,,,,,,,
0.0,1.0,0.68989,,,,,,diving_board_07s.jpg,0.0,clock_6_5.png,4.0,51,,,,,,,,,,,,,,,,,,0.0,23.0,23.0,23.0,1.0,,,,,,,,,,
0.0,1.0,0.530635,,,,,,lion_18s.jpg,0.0,clock_6_6.png,4.0,51,,,,,,,,,,,,,,,,,,0.0,24.0,24.0,24.0,1.0,,,,,,,,,,
0.0,1.0,0.762165,,,,,,onion_10s.jpg,0.0,clock_6_1.png,5.0,51,,,,,,,,,,,,,,,,,,0.0,25.0,25.0,25.0,1.0,,,,,,,,,,
0.0,1.0,0.63392,,,,,,throne_11s.jpg,0.0,clock_6_2.png,5.0,51,,,,,,,,,,,,,,,,,,0.0,26.0,26.0,26.0,1.0,,,,,,,,,,
0.0,1.0,0.658035,,,,,,quad_04s.jpg,0.0,clock_6_3.png,5.0,51,,,,,,,,,,,,,,,,,,0.0,27.0,27.0,27.0,1.0,,,,,,,,,,
0.0,1.0,0.82559,,,,,,roulette_wheel_04s.jpg,0.0,clock_6_4.png,5.0,51,,,,,,,,,,,,,,,,,,0.0,28.0,28.0,28.0,1.0,,,,,,,,,,
0.0,1.0,0.75314,,,,,,puppy_08s.jpg,0.0,clock_6_5.png,5.0,51,,,,,,,,,,,,,,,,,,0.0,29.0,29.0,29.0,1.0,,,,,,,,,,
0.0,1.0,0.83362,,,,,,thorn_13s.jpg,0.0,clock_6_6.png,5.0,51,,,,,,,,,,,,,,,,,,0.0,30.0,30.0,30.0,1.0,,,,,,,,,,
0.0,1.0,0.777415,,,,,,mirror_12s.jpg,0.0,clock_5_1.png,6.0,51,,,,,,,,,,,,,,,,,,0.0,31.0,31.0,31.0,1.0,,,,,,,,,,
0.0,1.0,1.314525,,,,,,police_car_01s.jpg,0.0,clock_5_2.png,6.0,51,,,,,,,,,,,,,,,,,,0.0,32.0,32.0,32.0,1.0,,,,,,,,,,
1.0,1.0,1.53821,,,,,,mirror_12s.jpg,1.0,clock_5_3.png,6.0,51,,,,,,,,,,,,,,,,,,0.0,33.0,33.0,33.0,1.0,,,,,,,,,,
0.0,1.0,0.600935,,,,,,rooster_03s.jpg,0.0,clock_5_4.png,6.0,51,,,,,,,,,,,,,,,,,,0.0,34.0,34.0,34.0,1.0,,,,,,,,,,
0.0,1.0,0.58589,,,,,,trampoline_13s.jpg,0.0,clock_5_5.png,6.0,51,,,,,,,,,,,,,,,,,,0.0,35.0,35.0,35.0,1.0,,,,,,,,,,
,,,,,,,,,0.0,,,51,0.0,1.0,4.142695,,,,,,badge_03s.jpg,hyena_16s.jpg,,,,,,,,,,,,,0.0,0.0,0.0,0.0,1.0,,,,,
,,,,,,,,,1.0,,,51,1.0,1.0,1.76777,,,,,,spacesuit_02s.jpg,bolo_tie_08s.jpg,,,,,,,,,,,,,0.0,1.0,1.0,1.0,1.0,,,,,
,,,,,,,,,0.0,,,51,0.0,1.0,1.59817,,,,,,throne_11s.jpg,diving_board_07s.jpg,,,,,,,,,,,,,0.0,2.0,2.0,2.0,1.0,,,,,
,,,,,,,,,0.0,,,51,1.0,0.0,2.081785,,,,,,mango_09s.jpg,pumpkin_03s.jpg,,,,,,,,,,,,,0.0,3.0,3.0,3.0,1.0,,,,,
,,,,,,,,,1.0,,,51,1.0,1.0,2.303985,,,,,,tupperware_09s.jpg,bean_06s.jpg,,,,,,,,,,,,,0.0,4.0,4.0,4.0,1.0,,,,,
,,,,,,,,,1.0,,,51,0.0,0.0,1.583045,,,,,,bottle_opener_11s.jpg,marker_05s.jpg,,,,,,,,,,,,,0.0,5.0,5.0,5.0,1.0,,,,,
,,,,,,,,,,,,51,,,,,,,,,,,,,,,,clock_present_3_5.xlsx,clock_compare_task_3_5.xlsx,,,,,,,,,,,0.0,2.0,2.0,2.0,1.0
0.0,1.0,1.14883,,,,,,ginger_09s.jpg,0.0,clock_6_1.png,1.0,51,,,,,,,,,,,,,,,,,,0.0,0.0,0.0,0.0,1.0,,,,,,,,,,
0.0,1.0,0.750285,,,,,,letter_opener_03s.jpg,0.0,clock_6_2.png,1.0,51,,,,,,,,,,,,,,,,,,0.0,1.0,1.0,1.0,1.0,,,,,,,,,,
0.0,1.0,1.2147,,,,,,loveseat_08s.jpg,0.0,clock_6_3.png,1.0,51,,,,,,,,,,,,,,,,,,0.0,2.0,2.0,2.0,1.0,,,,,,,,,,
1.0,1.0,1.118395,,,,,,letter_opener_03s.jpg,1.0,clock_6_4.png,1.0,51,,,,,,,,,,,,,,,,,,0.0,3.0,3.0,3.0,1.0,,,,,,,,,,
1.0,1.0,0.918545,,,,,,loveseat_08s.jpg,1.0,clock_6_5.png,1.0,51,,,,,,,,,,,,,,,,,,0.0,4.0,4.0,4.0,1.0,,,,,,,,,,
0.0,1.0,0.781935,,,,,,towel_rack_04s.jpg,0.0,clock_6_6.png,1.0,51,,,,,,,,,,,,,,,,,,0.0,5.0,5.0,5.0,1.0,,,,,,,,,,
0.0,1.0,0.670395,,,,,,rollerskate_03s.jpg,0.0,clock_5_1.png,2.0,51,,,,,,,,,,,,,,,,,,0.0,6.0,6.0,6.0,1.0,,,,,,,,,,
0.0,1.0,1.02261,,,,,,puddle_02s.jpg,0.0,clock_5_2.png,2.0,51,,,,,,,,,,,,,,,,,,0.0,7.0,7.0,7.0,1.0,,,,,,,,,,
1.0,1.0,0.934305,,,,,,rollerskate_03s.jpg,1.0,clock_5_3.png,2.0,51,,,,,,,,,,,,,,,,,,0.0,8.0,8.0,8.0,1.0,,,,,,,,,,
0.0,1.0,0.59808,,,,,,dirt_bike_11s.jpg,0.0,clock_5_4.png,2.0,51,,,,,,,,,,,,,,,,,,0.0,9.0,9.0,9.0,1.0,,,,,,,,,,
0.0,1.0,0.861205,,,,,,prism_10s.jpg,0.0,clock_5_5.png,2.0,51,,,,,,,,,,,,,,,,,,0.0,10.0,10.0,10.0,1.0,,,,,,,,,,
0.0,1.0,0.648145,,,,,,kayak_08s.jpg,0.0,clock_7_1.png,3.0,51,,,,,,,,,,,,,,,,,,0.0,11.0,11.0,11.0,1.0,,,,,,,,,,
0.0,1.0,0.47571,,,,,,rock_08s.jpg,0.0,clock_7_2.png,3.0,51,,,,,,,,,,,,,,,,,,0.0,12.0,12.0,12.0,1.0,,,,,,,,,,
0.0,1.0,0.677325,,,,,,tile_08s.jpg,0.0,clock_7_3.png,3.0,51,,,,,,,,,,,,,,,,,,0.0,13.0,13.0,13.0,1.0,,,,,,,,,,
0.0,1.0,0.98157,,,,,,dirt_bike_11s.jpg,0.0,clock_7_4.png,3.0,51,,,,,,,,,,,,,,,,,,0.0,14.0,14.0,14.0,1.0,,,,,,,,,,
0.0,1.0,0.77416,,,,,,ginger_09s.jpg,0.0,clock_7_5.png,3.0,51,,,,,,,,,,,,,,,,,,0.0,15.0,15.0,15.0,1.0,,,,,,,,,,
1.0,1.0,1.86078,,,,,,tile_08s.jpg,1.0,clock_7_6.png,3.0,51,,,,,,,,,,,,,,,,,,0.0,16.0,16.0,16.0,1.0,,,,,,,,,,
0.0,1.0,0.87766,,,,,,camcorder_10s.jpg,0.0,clock_7_7.png,3.0,51,,,,,,,,,,,,,,,,,,0.0,17.0,17.0,17.0,1.0,,,,,,,,,,
0.0,1.0,0.83135,,,,,,jet_15s.jpg,0.0,clock_6_1.png,4.0,51,,,,,,,,,,,,,,,,,,0.0,18.0,18.0,18.0,1.0,,,,,,,,,,
1.0,1.0,0.83163,,,,,,jet_15s.jpg,1.0,clock_6_2.png,4.0,51,,,,,,,,,,,,,,,,,,0.0,19.0,19.0,19.0,1.0,,,,,,,,,,
0.0,1.0,0.653035,,,,,,kitten_07s.jpg,0.0,clock_6_3.png,4.0,51,,,,,,,,,,,,,,,,,,0.0,20.0,20.0,20.0,1.0,,,,,,,,,,
1.0,1.0,1.292905,,,,,,jet_15s.jpg,1.0,clock_6_4.png,4.0,51,,,,,,,,,,,,,,,,,,0.0,21.0,21.0,21.0,1.0,,,,,,,,,,
0.0,1.0,0.61453,,,,,,chime_12s.jpg,0.0,clock_6_5.png,4.0,51,,,,,,,,,,,,,,,,,,0.0,22.0,22.0,22.0,1.0,,,,,,,,,,
0.0,1.0,0.631585,,,,,,eggshell_14s.jpg,0.0,clock_6_6.png,4.0,51,,,,,,,,,,,,,,,,,,0.0,23.0,23.0,23.0,1.0,,,,,,,,,,
0.0,1.0,0.93234,,,,,,luggage_08s.jpg,0.0,clock_7_1.png,5.0,51,,,,,,,,,,,,,,,,,,0.0,24.0,24.0,24.0,1.0,,,,,,,,,,
0.0,1.0,1.724275,,,,,,mascara_03s.jpg,0.0,clock_7_2.png,5.0,51,,,,,,,,,,,,,,,,,,0.0,25.0,25.0,25.0,1.0,,,,,,,,,,
0.0,1.0,0.765035,,,,,,cotton_candy_01b.jpg,0.0,clock_7_3.png,5.0,51,,,,,,,,,,,,,,,,,,0.0,26.0,26.0,26.0,1.0,,,,,,,,,,
0.0,1.0,0.83669,,,,,,ruby_15s.jpg,0.0,clock_7_4.png,5.0,51,,,,,,,,,,,,,,,,,,0.0,27.0,27.0,27.0,1.0,,,,,,,,,,
0.0,1.0,0.764355,,,,,,razor_blade_01b.jpg,0.0,clock_7_5.png,5.0,51,,,,,,,,,,,,,,,,,,0.0,28.0,28.0,28.0,1.0,,,,,,,,,,
0.0,1.0,0.94835,,,,,,hydrant_10s.jpg,0.0,clock_7_6.png,5.0,51,,,,,,,,,,,,,,,,,,0.0,29.0,29.0,29.0,1.0,,,,,,,,,,
0.0,1.0,0.614885,,,,,,mushroom_10n.jpg,0.0,clock_7_7.png,5.0,51,,,,,,,,,,,,,,,,,,0.0,30.0,30.0,30.0,1.0,,,,,,,,,,
0.0,1.0,1.275465,,,,,,turtle_08s.jpg,0.0,clock_5_1.png,6.0,51,,,,,,,,,,,,,,,,,,0.0,31.0,31.0,31.0,1.0,,,,,,,,,,
0.0,1.0,0.876105,,,,,,sparkler_02s.jpg,0.0,clock_5_2.png,6.0,51,,,,,,,,,,,,,,,,,,0.0,32.0,32.0,32.0,1.0,,,,,,,,,,
0.0,1.0,0.86743,,,,,,tambourine_06s.jpg,0.0,clock_5_3.png,6.0,51,,,,,,,,,,,,,,,,,,0.0,33.0,33.0,33.0,1.0,,,,,,,,,,
0.0,1.0,0.740065,,,,,,lavender_10s.jpg,0.0,clock_5_4.png,6.0,51,,,,,,,,,,,,,,,,,,0.0,34.0,34.0,34.0,1.0,,,,,,,,,,
1.0,1.0,0.81202,,,,,,lavender_10s.jpg,1.0,clock_5_5.png,6.0,51,,,,,,,,,,,,,,,,,,0.0,35.0,35.0,35.0,1.0,,,,,,,,,,
,,,,,,,,,0.0,,,51,1.0,0.0,4.77451,,,,,,kitten_07s.jpg,camcorder_10s.jpg,,,,,,,,,,,,,0.0,0.0,0.0,0.0,1.0,,,,,
,,,,,,,,,0.0,,,51,1.0,0.0,3.926495,,,,,,mascara_03s.jpg,chime_12s.jpg,,,,,,,,,,,,,0.0,1.0,1.0,1.0,1.0,,,,,
,,,,,,,,,0.0,,,51,1.0,0.0,1.340755,,,,,,turtle_08s.jpg,razor_blade_01b.jpg,,,,,,,,,,,,,0.0,2.0,2.0,2.0,1.0,,,,,
,,,,,,,,,1.0,,,51,1.0,1.0,1.47417,,,,,,puddle_02s.jpg,prism_10s.jpg,,,,,,,,,,,,,0.0,3.0,3.0,3.0,1.0,,,,,
,,,,,,,,,0.0,,,51,0.0,1.0,2.275015,,,,,,ruby_15s.jpg,luggage_08s.jpg,,,,,,,,,,,,,0.0,4.0,4.0,4.0,1.0,,,,,
,,,,,,,,,1.0,,,51,0.0,0.0,2.22016,,,,,,cotton_candy_01b.jpg,hydrant_10s.jpg,,,,,,,,,,,,,0.0,5.0,5.0,5.0,1.0,,,,,
,,,,,,,,,,,,51,,,,,,,,,,,,,,,,clock_present_4_5.xlsx,clock_compare_task_4_5.xlsx,,,,,,,,,,,0.0,3.0,3.0,3.0,1.0
0.0,1.0,1.28388,,,,,,marshmallow_08s.jpg,0.0,clock_5_1.png,1.0,51,,,,,,,,,,,,,,,,,,0.0,0.0,0.0,0.0,1.0,,,,,,,,,,
0.0,1.0,0.76098,,,,,,coat_rack_01b.jpg,0.0,clock_5_2.png,1.0,51,,,,,,,,,,,,,,,,,,0.0,1.0,1.0,1.0,1.0,,,,,,,,,,
0.0,1.0,0.745345,,,,,,coral_08s.jpg,0.0,clock_5_3.png,1.0,51,,,,,,,,,,,,,,,,,,0.0,2.0,2.0,2.0,1.0,,,,,,,,,,
0.0,1.0,0.776465,,,,,,fox_13s.jpg,0.0,clock_5_4.png,1.0,51,,,,,,,,,,,,,,,,,,0.0,3.0,3.0,3.0,1.0,,,,,,,,,,
0.0,1.0,0.90445,,,,,,stethoscope_01b.jpg,0.0,clock_5_5.png,1.0,51,,,,,,,,,,,,,,,,,,0.0,4.0,4.0,4.0,1.0,,,,,,,,,,
0.0,1.0,0.714325,,,,,,moth_06n.jpg,0.0,clock_6_1.png,2.0,51,,,,,,,,,,,,,,,,,,0.0,5.0,5.0,5.0,1.0,,,,,,,,,,
0.0,1.0,0.57628,,,,,,licorice_06s.jpg,0.0,clock_6_2.png,2.0,51,,,,,,,,,,,,,,,,,,0.0,6.0,6.0,6.0,1.0,,,,,,,,,,
0.0,1.0,0.656785,,,,,,sleeping_bag_12s.jpg,0.0,clock_6_3.png,2.0,51,,,,,,,,,,,,,,,,,,0.0,7.0,7.0,7.0,1.0,,,,,,,,,,
0.0,1.0,0.59244,,,,,,treadmill_06s.jpg,0.0,clock_6_4.png,2.0,51,,,,,,,,,,,,,,,,,,0.0,8.0,8.0,8.0,1.0,,,,,,,,,,
0.0,1.0,0.681415,,,,,,bathtub_23s.jpg,0.0,clock_6_5.png,2.0,51,,,,,,,,,,,,,,,,,,0.0,9.0,9.0,9.0,1.0,,,,,,,,,,
0.0,1.0,0.608145,,,,,,film_03s.jpg,0.0,clock_6_6.png,2.0,51,,,,,,,,,,,,,,,,,,0.0,10.0,10.0,10.0,1.0,,,,,,,,,,
0.0,1.0,0.68099,,,,,,trident_07s.jpg,0.0,clock_7_1.png,3.0,51,,,,,,,,,,,,,,,,,,0.0,11.0,11.0,11.0,1.0,,,,,,,,,,
0.0,1.0,0.7991,,,,,,coffee_filter_10s.jpg,0.0,clock_7_2.png,3.0,51,,,,,,,,,,,,,,,,,,0.0,12.0,12.0,12.0,1.0,,,,,,,,,,
0.0,1.0,0.67145,,,,,,mud_13s.jpg,0.0,clock_7_3.png,3.0,51,,,,,,,,,,,,,,,,,,0.0,13.0,13.0,13.0,1.0,,,,,,,,,,
0.0,1.0,1.342765,,,,,,fire_alarm_05s.jpg,0.0,clock_7_4.png,3.0,51,,,,,,,,,,,,,,,,,,0.0,14.0,14.0,14.0,1.0,,,,,,,,,,
1.0,1.0,1.72804,,,,,,mud_13s.jpg,1.0,clock_7_5.png,3.0,51,,,,,,,,,,,,,,,,,,0.0,15.0,15.0,15.0,1.0,,,,,,,,,,
0.0,1.0,0.648415,,,,,,timer_03s.jpg,0.0,clock_7_6.png,3.0,51,,,,,,,,,,,,,,,,,,0.0,16.0,16.0,16.0,1.0,,,,,,,,,,
0.0,1.0,0.640325,,,,,,pea_11s.jpg,0.0,clock_7_7.png,3.0,51,,,,,,,,,,,,,,,,,,0.0,17.0,17.0,17.0,1.0,,,,,,,,,,
0.0,1.0,0.711625,,,,,,flask_04s.jpg,0.0,clock_5_1.png,4.0,51,,,,,,,,,,,,,,,,,,0.0,18.0,18.0,18.0,1.0,,,,,,,,,,
0.0,1.0,0.63107,,,,,,iron_13s.jpg,0.0,clock_5_2.png,4.0,51,,,,,,,,,,,,,,,,,,0.0,19.0,19.0,19.0,1.0,,,,,,,,,,
0.0,1.0,0.88841,,,,,,trident_07s.jpg,0.0,clock_5_3.png,4.0,51,,,,,,,,,,,,,,,,,,0.0,20.0,20.0,20.0,1.0,,,,,,,,,,
0.0,1.0,0.607045,,,,,,memory_stick_11s.jpg,0.0,clock_5_4.png,4.0,51,,,,,,,,,,,,,,,,,,0.0,21.0,21.0,21.0,1.0,,,,,,,,,,
0.0,1.0,0.71898,,,,,,oil_02s.jpg,0.0,clock_5_5.png,4.0,51,,,,,,,,,,,,,,,,,,0.0,22.0,22.0,22.0,1.0,,,,,,,,,,
0.0,1.0,0.664875,,,,,,coconut_08s.jpg,0.0,clock_7_1.png,5.0,51,,,,,,,,,,,,,,,,,,0.0,23.0,23.0,23.0,1.0,,,,,,,,,,
1.0,1.0,0.92818,,,,,,coconut_08s.jpg,1.0,clock_7_2.png,5.0,51,,,,,,,,,,,,,,,,,,0.0,24.0,24.0,24.0,1.0,,,,,,,,,,
0.0,1.0,0.5674,,,,,,jelly_bean_06s.jpg,0.0,clock_7_3.png,5.0,51,,,,,,,,,,,,,,,,,,0.0,25.0,25.0,25.0,1.0,,,,,,,,,,
0.0,1.0,0.58295,,,,,,ice-cream_cone_06s.jpg,0.0,clock_7_4.png,5.0,51,,,,,,,,,,,,,,,,,,0.0,26.0,26.0,26.0,1.0,,,,,,,,,,
0.0,1.0,1.383025,,,,,,mud_13s.jpg,0.0,clock_7_5.png,5.0,51,,,,,,,,,,,,,,,,,,0.0,27.0,27.0,27.0,1.0,,,,,,,,,,
0.0,1.0,1.126545,,,,,,feather02.jpg,0.0,clock_7_6.png,5.0,51,,,,,,,,,,,,,,,,,,0.0,28.0,28.0,28.0,1.0,,,,,,,,,,
0.0,1.0,0.942315,,,,,,ukulele_02s.jpg,0.0,clock_7_7.png,5.0,51,,,,,,,,,,,,,,,,,,0.0,29.0,29.0,29.0,1.0,,,,,,,,,,
0.0,1.0,0.76636,,,,,,snowman_02s.jpg,0.0,clock_6_1.png,6.0,51,,,,,,,,,,,,,,,,,,0.0,30.0,30.0,30.0,1.0,,,,,,,,,,
0.0,1.0,0.79896,,,,,,lifesaver_10s.jpg,0.0,clock_6_2.png,6.0,51,,,,,,,,,,,,,,,,,,0.0,31.0,31.0,31.0,1.0,,,,,,,,,,
1.0,1.0,0.75889,,,,,,lifesaver_10s.jpg,1.0,clock_6_3.png,6.0,51,,,,,,,,,,,,,,,,,,0.0,32.0,32.0,32.0,1.0,,,,,,,,,,
0.0,1.0,0.61451,,,,,,scooter.jpg,0.0,clock_6_4.png,6.0,51,,,,,,,,,,,,,,,,,,0.0,33.0,33.0,33.0,1.0,,,,,,,,,,
0.0,1.0,0.878635,,,,,,compass_10n.jpg,0.0,clock_6_5.png,6.0,51,,,,,,,,,,,,,,,,,,0.0,34.0,34.0,34.0,1.0,,,,,,,,,,
0.0,1.0,0.766455,,,,,,denture_03s.jpg,0.0,clock_6_6.png,6.0,51,,,,,,,,,,,,,,,,,,0.0,35.0,35.0,35.0,1.0,,,,,,,,,,
,,,,,,,,,0.0,,,51,0.0,1.0,2.52085,,,,,,moth_06n.jpg,coral_08s.jpg,,,,,,,,,,,,,0.0,0.0,0.0,0.0,1.0,,,,,
,,,,,,,,,1.0,,,51,1.0,1.0,2.71663,,,,,,bathtub_23s.jpg,coffee_filter_10s.jpg,,,,,,,,,,,,,0.0,1.0,1.0,1.0,1.0,,,,,
,,,,,,,,,1.0,,,51,1.0,1.0,1.532295,,,,,,timer_03s.jpg,iron_13s.jpg,,,,,,,,,,,,,0.0,2.0,2.0,2.0,1.0,,,,,
,,,,,,,,,1.0,,,51,0.0,0.0,3.40098,,,,,,fire_alarm_05s.jpg,pea_11s.jpg,,,,,,,,,,,,,0.0,3.0,3.0,3.0,1.0,,,,,
,,,,,,,,,1.0,,,51,1.0,1.0,1.483225,,,,,,flask_04s.jpg,memory_stick_11s.jpg,,,,,,,,,,,,,0.0,4.0,4.0,4.0,1.0,,,,,
,,,,,,,,,0.0,,,51,0.0,1.0,2.54931,,,,,,ukulele_02s.jpg,ice-cream_cone_06s.jpg,,,,,,,,,,,,,0.0,5.0,5.0,5.0,1.0,,,,,
,,,,,,,,,,,,51,,,,,,,,,,,,,,,,clock_present_5_5.xlsx,clock_compare_task_5_5.xlsx,,,,,,,,,,,0.0,4.0,4.0,4.0,1.0
0.0,1.0,1.47972,,,,,,sledgehammer_03s.jpg,0.0,clock_6_1.png,1.0,51,,,,,,,,,,,,,,,,,,0.0,0.0,0.0,0.0,1.0,,,,,,,,,,
0.0,1.0,0.58179,,,,,,basket_05s.jpg,0.0,clock_6_2.png,1.0,51,,,,,,,,,,,,,,,,,,0.0,1.0,1.0,1.0,1.0,,,,,,,,,,
0.0,1.0,0.620805,,,,,,go-kart_10s.jpg,0.0,clock_6_3.png,1.0,51,,,,,,,,,,,,,,,,,,0.0,2.0,2.0,2.0,1.0,,,,,,,,,,
0.0,1.0,0.64508,,,,,,sunglasses_11s.jpg,0.0,clock_6_4.png,1.0,51,,,,,,,,,,,,,,,,,,0.0,3.0,3.0,3.0,1.0,,,,,,,,,,
0.0,1.0,0.59781,,,,,,ostrich_06s.jpg,0.0,clock_6_5.png,1.0,51,,,,,,,,,,,,,,,,,,0.0,4.0,4.0,4.0,1.0,,,,,,,,,,
0.0,1.0,1.3979,,,,,,stingray_02s.jpg,0.0,clock_6_6.png,1.0,51,,,,,,,,,,,,,,,,,,0.0,5.0,5.0,5.0,1.0,,,,,,,,,,
0.0,1.0,0.84402,,,,,,peanut_butter_08s.jpg,0.0,clock_7_1.png,2.0,51,,,,,,,,,,,,,,,,,,0.0,6.0,6.0,6.0,1.0,,,,,,,,,,
1.0,1.0,1.39865,,,,,,peanut_butter_08s.jpg,1.0,clock_7_2.png,2.0,51,,,,,,,,,,,,,,,,,,0.0,7.0,7.0,7.0,1.0,,,,,,,,,,
0.0,1.0,0.620815,,,,,,puffin_19s.jpg,0.0,clock_7_3.png,2.0,51,,,,,,,,,,,,,,,,,,0.0,8.0,8.0,8.0,1.0,,,,,,,,,,
1.0,1.0,1.724575,,,,,,peanut_butter_08s.jpg,1.0,clock_7_4.png,2.0,51,,,,,,,,,,,,,,,,,,0.0,9.0,9.0,9.0,1.0,,,,,,,,,,
0.0,0.0,1.292795,,,,,,puffin_19s.jpg,1.0,clock_7_5.png,2.0,51,,,,,,,,,,,,,,,,,,0.0,10.0,10.0,10.0,1.0,,,,,,,,,,
0.0,1.0,0.851975,,,,,,stamp2_08s.jpg,0.0,clock_7_6.png,2.0,51,,,,,,,,,,,,,,,,,,0.0,11.0,11.0,11.0,1.0,,,,,,,,,,
0.0,1.0,0.65166,,,,,,comic_book_02s.jpg,0.0,clock_7_7.png,2.0,51,,,,,,,,,,,,,,,,,,0.0,12.0,12.0,12.0,1.0,,,,,,,,,,
0.0,1.0,0.90816,,,,,,ink_08s.jpg,0.0,clock_7_1.png,3.0,51,,,,,,,,,,,,,,,,,,0.0,13.0,13.0,13.0,1.0,,,,,,,,,,
0.0,1.0,0.66757,,,,,,doily_13s.jpg,0.0,clock_7_2.png,3.0,51,,,,,,,,,,,,,,,,,,0.0,14.0,14.0,14.0,1.0,,,,,,,,,,
0.0,1.0,0.59797,,,,,,light_switch_02s.jpg,0.0,clock_7_3.png,3.0,51,,,,,,,,,,,,,,,,,,0.0,15.0,15.0,15.0,1.0,,,,,,,,,,
0.0,1.0,0.660465,,,,,,pepper2_21s.jpg,0.0,clock_7_4.png,3.0,51,,,,,,,,,,,,,,,,,,0.0,16.0,16.0,16.0,1.0,,,,,,,,,,
0.0,1.0,0.67538,,,,,,crab_16s.jpg,0.0,clock_7_5.png,3.0,51,,,,,,,,,,,,,,,,,,0.0,17.0,17.0,17.0,1.0,,,,,,,,,,
0.0,1.0,0.63548,,,,,,beard_16s.jpg,0.0,clock_7_6.png,3.0,51,,,,,,,,,,,,,,,,,,0.0,18.0,18.0,18.0,1.0,,,,,,,,,,
0.0,1.0,0.715345,,,,,,mask_09s.jpg,0.0,clock_7_7.png,3.0,51,,,,,,,,,,,,,,,,,,0.0,19.0,19.0,19.0,1.0,,,,,,,,,,
0.0,1.0,0.764805,,,,,,dynamite_01b.jpg,0.0,clock_6_1.png,4.0,51,,,,,,,,,,,,,,,,,,0.0,20.0,20.0,20.0,1.0,,,,,,,,,,
0.0,1.0,0.88323,,,,,,abacus_12s.jpg,0.0,clock_6_2.png,4.0,51,,,,,,,,,,,,,,,,,,0.0,21.0,21.0,21.0,1.0,,,,,,,,,,
0.0,1.0,0.71508,,,,,,icicle_04s.jpg,0.0,clock_6_3.png,4.0,51,,,,,,,,,,,,,,,,,,0.0,22.0,22.0,22.0,1.0,,,,,,,,,,
0.0,1.0,1.09952,,,,,,comic_book_02s.jpg,0.0,clock_6_4.png,4.0,51,,,,,,,,,,,,,,,,,,0.0,23.0,23.0,23.0,1.0,,,,,,,,,,
1.0,1.0,1.42011,,,,,,abacus_12s.jpg,1.0,clock_6_5.png,4.0,51,,,,,,,,,,,,,,,,,,0.0,24.0,24.0,24.0,1.0,,,,,,,,,,
0.0,1.0,1.466465,,,,,,duck_01b.jpg,0.0,clock_6_6.png,4.0,51,,,,,,,,,,,,,,,,,,0.0,25.0,25.0,25.0,1.0,,,,,,,,,,
0.0,1.0,0.73935,,,,,,jetski_10s.jpg,0.0,clock_5_1.png,5.0,51,,,,,,,,,,,,,,,,,,0.0,26.0,26.0,26.0,1.0,,,,,,,,,,
1.0,1.0,1.46593,,,,,,jetski_10s.jpg,1.0,clock_5_2.png,5.0,51,,,,,,,,,,,,,,,,,,0.0,27.0,27.0,27.0,1.0,,,,,,,,,,
0.0,1.0,0.68278,,,,,,latte_06s.jpg,0.0,clock_5_3.png,5.0,51,,,,,,,,,,,,,,,,,,0.0,28.0,28.0,28.0,1.0,,,,,,,,,,
0.0,1.0,0.94809,,,,,,basket_05s.jpg,0.0,clock_5_4.png,5.0,51,,,,,,,,,,,,,,,,,,0.0,29.0,29.0,29.0,1.0,,,,,,,,,,
0.0,1.0,0.86653,,,,,,pump_11s.jpg,0.0,clock_5_5.png,5.0,51,,,,,,,,,,,,,,,,,,0.0,30.0,30.0,30.0,1.0,,,,,,,,,,
0.0,1.0,0.68227,,,,,,bacon_05s.jpg,0.0,clock_5_1.png,6.0,51,,,,,,,,,,,,,,,,,,0.0,31.0,31.0,31.0,1.0,,,,,,,,,,
0.0,1.0,0.67497,,,,,,lectern_08s.jpg,0.0,clock_5_2.png,6.0,51,,,,,,,,,,,,,,,,,,0.0,32.0,32.0,32.0,1.0,,,,,,,,,,
0.0,1.0,0.58659,,,,,,amber_04s.jpg,0.0,clock_5_3.png,6.0,51,,,,,,,,,,,,,,,,,,0.0,33.0,33.0,33.0,1.0,,,,,,,,,,
0.0,1.0,0.56457,,,,,,orangutan_03s.jpg,0.0,clock_5_4.png,6.0,51,,,,,,,,,,,,,,,,,,0.0,34.0,34.0,34.0,1.0,,,,,,,,,,
0.0,1.0,1.266165,,,,,,pan_02s.jpg,0.0,clock_5_5.png,6.0,51,,,,,,,,,,,,,,,,,,0.0,35.0,35.0,35.0,1.0,,,,,,,,,,
,,,,,,,,,1.0,,,51,1.0,1.0,5.178465,,,,,,pump_11s.jpg,amber_04s.jpg,,,,,,,,,,,,,0.0,0.0,0.0,0.0,1.0,,,,,
,,,,,,,,,0.0,,,51,1.0,0.0,3.011785,,,,,,doily_13s.jpg,stamp2_08s.jpg,,,,,,,,,,,,,0.0,1.0,1.0,1.0,1.0,,,,,
,,,,,,,,,1.0,,,51,1.0,1.0,2.73515,,,,,,crab_16s.jpg,dynamite_01b.jpg,,,,,,,,,,,,,0.0,2.0,2.0,2.0,1.0,,,,,
,,,,,,,,,0.0,,,51,0.0,1.0,3.509215,,,,,,sunglasses_11s.jpg,sledgehammer_03s.jpg,,,,,,,,,,,,,0.0,3.0,3.0,3.0,1.0,,,,,
,,,,,,,,,0.0,,,51,1.0,0.0,1.88397,,,,,,stingray_02s.jpg,go-kart_10s.jpg,,,,,,,,,,,,,0.0,4.0,4.0,4.0,1.0,,,,,
,,,,,,,,,0.0,,,51,1.0,0.0,1.483905,,,,,,pepper2_21s.jpg,ink_08s.jpg,,,,,,,,,,,,,0.0,5.0,5.0,5.0,1.0,,,,,
