key_resp.keys,key_resp.corr,present_segment.thisRepN,present_segment.thisTrialN,present_segment.thisN,present_segment.thisIndex,present_segment.ran,pictures,answer,clock,segment,participant,key_resp.rt,key_resp_2.keys,key_resp_2.corr,key_resp_2.rt,compare_segment.thisRepN,compare_segment.thisTrialN,compare_segment.thisN,compare_segment.thisIndex,compare_segment.ran,item_a,item_b,clock_conditions.thisRepN,clock_conditions.thisTrialN,clock_conditions.thisN,clock_conditions.thisIndex,clock_conditions.ran,present,compare,noclock_present.thisRepN,noclock_present.thisTrialN,noclock_present.thisN,noclock_present.thisIndex,noclock_present.ran,noclock_compare.thisRepN,noclock_compare.thisTrialN,noclock_compare.thisN,noclock_compare.thisIndex,noclock_compare.ran,noclock_conditions.thisRepN,noclock_conditions.thisTrialN,noclock_conditions.thisN,noclock_conditions.thisIndex,noclock_conditions.ran
,0.0,0.0,0.0,0.0,0.0,1.0,racehorse_03s.jpg,0.0,clock_6_1.png,1.0,45,,,,,,,,,,,,,,,,,,,,,,,,,,,,,,,,,
1.0,1.0,0.0,1.0,1.0,1.0,1.0,racehorse_03s.jpg,1.0,clock_6_2.png,1.0,45,1.03887,,,,,,,,,,,,,,,,,,,,,,,,,,,,,,,,
0.0,1.0,0.0,2.0,2.0,2.0,1.0,ravioli_08s.jpg,0.0,clock_6_3.png,1.0,45,2.03405,,,,,,,,,,,,,,,,,,,,,,,,,,,,,,,,
1.0,1.0,0.0,3.0,3.0,3.0,1.0,racehorse_03s.jpg,1.0,clock_6_4.png,1.0,45,1.510235,,,,,,,,,,,,,,,,,,,,,,,,,,,,,,,,
0.0,1.0,0.0,4.0,4.0,4.0,1.0,swing_set_15s.jpg,0.0,clock_6_5.png,1.0,45,2.368245,,,,,,,,,,,,,,,,,,,,,,,,,,,,,,,,
1.0,1.0,0.0,5.0,5.0,5.0,1.0,swing_set_15s.jpg,1.0,clock_6_6.png,1.0,45,2.250365,,,,,,,,,,,,,,,,,,,,,,,,,,,,,,,,
0.0,1.0,0.0,6.0,6.0,6.0,1.0,ruby_15s.jpg,0.0,clock_7_1.png,2.0,45,1.835965,,,,,,,,,,,,,,,,,,,,,,,,,,,,,,,,
0.0,1.0,0.0,7.0,7.0,7.0,1.0,loom_05s.jpg,0.0,clock_7_2.png,2.0,45,1.867565,,,,,,,,,,,,,,,,,,,,,,,,,,,,,,,,
0.0,1.0,0.0,8.0,8.0,8.0,1.0,pocket_watch_16s.jpg,0.0,clock_7_3.png,2.0,45,1.761645,,,,,,,,,,,,,,,,,,,,,,,,,,,,,,,,
0.0,1.0,0.0,9.0,9.0,9.0,1.0,peanut_butter_08s.jpg,0.0,clock_7_4.png,2.0,45,2.27449,,,,,,,,,,,,,,,,,,,,,,,,,,,,,,,,
0.0,1.0,0.0,10.0,10.0,10.0,1.0,piano_13n.jpg,0.0,clock_7_5.png,2.0,45,1.707695,,,,,,,,,,,,,,,,,,,,,,,,,,,,,,,,
0.0,1.0,0.0,11.0,11.0,11.0,1.0,emerald_02s.jpg,0.0,clock_7_6.png,2.0,45,1.739925,,,,,,,,,,,,,,,,,,,,,,,,,,,,,,,,
0.0,1.0,0.0,12.0,12.0,12.0,1.0,swing_set_15s.jpg,0.0,clock_7_7.png,2.0,45,2.45244,,,,,,,,,,,,,,,,,,,,,,,,,,,,,,,,
0.0,1.0,0.0,13.0,13.0,13.0,1.0,gong_02s.jpg,0.0,clock_5_1.png,3.0,45,2.2404,,,,,,,,,,,,,,,,,,,,,,,,,,,,,,,,
0.0,1.0,0.0,14.0,14.0,14.0,1.0,turf_03s.jpg,0.0,clock_5_2.png,3.0,45,2.21876,,,,,,,,,,,,,,,,,,,,,,,,,,,,,,,,
0.0,1.0,0.0,15.0,15.0,15.0,1.0,tie_03s.jpg,0.0,clock_5_3.png,3.0,45,1.53763,,,,,,,,,,,,,,,,,,,,,,,,,,,,,,,,
0.0,1.0,0.0,16.0,16.0,16.0,1.0,swan_11s.jpg,0.0,clock_5_4.png,3.0,45,1.410265,,,,,,,,,,,,,,,,,,,,,,,,,,,,,,,,
0.0,1.0,0.0,17.0,17.0,17.0,1.0,margarita_03s.jpg,0.0,clock_5_5.png,3.0,45,2.10394,,,,,,,,,,,,,,,,,,,,,,,,,,,,,,,,
0.0,1.0,0.0,18.0,18.0,18.0,1.0,denture_03s.jpg,0.0,clock_5_1.png,4.0,45,1.94092,,,,,,,,,,,,,,,,,,,,,,,,,,,,,,,,
0.0,1.0,0.0,19.0,19.0,19.0,1.0,pincushion_10s.jpg,0.0,clock_5_2.png,4.0,45,1.65088,,,,,,,,,,,,,,,,,,,,,,,,,,,,,,,,
0.0,1.0,0.0,20.0,20.0,20.0,1.0,lavender_10s.jpg,0.0,clock_5_3.png,4.0,45,1.99802,,,,,,,,,,,,,,,,,,,,,,,,,,,,,,,,
0.0,1.0,0.0,21.0,21.0,21.0,1.0,treadmill_06s.jpg,0.0,clock_5_4.png,4.0,45,2.016715,,,,,,,,,,,,,,,,,,,,,,,,,,,,,,,,
0.0,1.0,0.0,22.0,22.0,22.0,1.0,seagull_01b.jpg,0.0,clock_5_5.png,4.0,45,2.14218,,,,,,,,,,,,,,,,,,,,,,,,,,,,,,,,
0.0,1.0,0.0,23.0,23.0,23.0,1.0,omelet_07s.jpg,0.0,clock_6_1.png,5.0,45,2.269095,,,,,,,,,,,,,,,,,,,,,,,,,,,,,,,,
0.0,1.0,0.0,24.0,24.0,24.0,1.0,pear_02s.jpg,0.0,clock_6_2.png,5.0,45,2.07995,,,,,,,,,,,,,,,,,,,,,,,,,,,,,,,,
0.0,1.0,0.0,25.0,25.0,25.0,1.0,knitting_needle_04s.jpg,0.0,clock_6_3.png,5.0,45,2.10903,,,,,,,,,,,,,,,,,,,,,,,,,,,,,,,,
0.0,1.0,0.0,26.0,26.0,26.0,1.0,loom_05s.jpg,0.0,clock_6_4.png,5.0,45,1.974525,,,,,,,,,,,,,,,,,,,,,,,,,,,,,,,,
1.0,1.0,0.0,27.0,27.0,27.0,1.0,omelet_07s.jpg,1.0,clock_6_5.png,5.0,45,1.86836,,,,,,,,,,,,,,,,,,,,,,,,,,,,,,,,
0.0,1.0,0.0,28.0,28.0,28.0,1.0,beaker_01b.jpg,0.0,clock_6_6.png,5.0,45,1.6339,,,,,,,,,,,,,,,,,,,,,,,,,,,,,,,,
0.0,1.0,0.0,29.0,29.0,29.0,1.0,ginger_09s.jpg,0.0,clock_7_1.png,6.0,45,2.08598,,,,,,,,,,,,,,,,,,,,,,,,,,,,,,,,
0.0,1.0,0.0,30.0,30.0,30.0,1.0,kilt_18s.jpg,0.0,clock_7_2.png,6.0,45,1.96332,,,,,,,,,,,,,,,,,,,,,,,,,,,,,,,,
1.0,1.0,0.0,31.0,31.0,31.0,1.0,ginger_09s.jpg,1.0,clock_7_3.png,6.0,45,2.28964,,,,,,,,,,,,,,,,,,,,,,,,,,,,,,,,
1.0,1.0,0.0,32.0,32.0,32.0,1.0,ginger_09s.jpg,1.0,clock_7_4.png,6.0,45,2.35895,,,,,,,,,,,,,,,,,,,,,,,,,,,,,,,,
1.0,1.0,0.0,33.0,33.0,33.0,1.0,kilt_18s.jpg,1.0,clock_7_5.png,6.0,45,1.95346,,,,,,,,,,,,,,,,,,,,,,,,,,,,,,,,
0.0,1.0,0.0,34.0,34.0,34.0,1.0,raccoon_02s.jpg,0.0,clock_7_6.png,6.0,45,2.188435,,,,,,,,,,,,,,,,,,,,,,,,,,,,,,,,
0.0,1.0,0.0,35.0,35.0,35.0,1.0,mixer_12s.jpg,0.0,clock_7_7.png,6.0,45,2.105025,,,,,,,,,,,,,,,,,,,,,,,,,,,,,,,,
,,,,,,,,1.0,,,45,,0.0,0.0,3.472115,0.0,0.0,0.0,0.0,1.0,piano_13n.jpg,gong_02s.jpg,,,,,,,,,,,,,,,,,,,,,,
,,,,,,,,1.0,,,45,,1.0,1.0,2.909465,0.0,1.0,1.0,1.0,1.0,tie_03s.jpg,denture_03s.jpg,,,,,,,,,,,,,,,,,,,,,,
,,,,,,,,1.0,,,45,,1.0,1.0,1.591595,0.0,2.0,2.0,2.0,1.0,margarita_03s.jpg,lavender_10s.jpg,,,,,,,,,,,,,,,,,,,,,,
,,,,,,,,1.0,,,45,,1.0,1.0,2.82341,0.0,3.0,3.0,3.0,1.0,ruby_15s.jpg,peanut_butter_08s.jpg,,,,,,,,,,,,,,,,,,,,,,
,,,,,,,,1.0,,,45,,1.0,1.0,1.869505,0.0,4.0,4.0,4.0,1.0,pocket_watch_16s.jpg,emerald_02s.jpg,,,,,,,,,,,,,,,,,,,,,,
,,,,,,,,1.0,,,45,,1.0,1.0,1.39509,0.0,5.0,5.0,5.0,1.0,knitting_needle_04s.jpg,beaker_01b.jpg,,,,,,,,,,,,,,,,,,,,,,
,,,,,,,,,,,45,,,,,,,,,,,,0.0,0.0,0.0,0.0,1.0,clock_present_1_17.xlsx,clock_compare_task_1_17.xlsx,,,,,,,,,,,,,,,
,0.0,0.0,0.0,0.0,0.0,1.0,polar_bear_02s.jpg,0.0,clock_6_1.png,1.0,45,,,,,,,,,,,,,,,,,,,,,,,,,,,,,,,,,
0.0,1.0,0.0,1.0,1.0,1.0,1.0,radiator_05s.jpg,0.0,clock_6_2.png,1.0,45,2.123155,,,,,,,,,,,,,,,,,,,,,,,,,,,,,,,,
0.0,1.0,0.0,2.0,2.0,2.0,1.0,target_11s.jpg,0.0,clock_6_3.png,1.0,45,1.694655,,,,,,,,,,,,,,,,,,,,,,,,,,,,,,,,
1.0,1.0,0.0,3.0,3.0,3.0,1.0,polar_bear_02s.jpg,1.0,clock_6_4.png,1.0,45,2.337805,,,,,,,,,,,,,,,,,,,,,,,,,,,,,,,,
0.0,1.0,0.0,4.0,4.0,4.0,1.0,sundae_08s.jpg,0.0,clock_6_5.png,1.0,45,1.88525,,,,,,,,,,,,,,,,,,,,,,,,,,,,,,,,
1.0,1.0,0.0,5.0,5.0,5.0,1.0,polar_bear_02s.jpg,1.0,clock_6_6.png,1.0,45,2.02894,,,,,,,,,,,,,,,,,,,,,,,,,,,,,,,,
0.0,1.0,0.0,6.0,6.0,6.0,1.0,flask_04s.jpg,0.0,clock_7_1.png,2.0,45,2.12699,,,,,,,,,,,,,,,,,,,,,,,,,,,,,,,,
1.0,1.0,0.0,7.0,7.0,7.0,1.0,flask_04s.jpg,1.0,clock_7_2.png,2.0,45,2.408105,,,,,,,,,,,,,,,,,,,,,,,,,,,,,,,,
0.0,1.0,0.0,8.0,8.0,8.0,1.0,rake_06s.jpg,0.0,clock_7_3.png,2.0,45,1.6194,,,,,,,,,,,,,,,,,,,,,,,,,,,,,,,,
1.0,1.0,0.0,9.0,9.0,9.0,1.0,flask_04s.jpg,1.0,clock_7_4.png,2.0,45,2.42527,,,,,,,,,,,,,,,,,,,,,,,,,,,,,,,,
0.0,1.0,0.0,10.0,10.0,10.0,1.0,cap_05s.jpg,0.0,clock_7_5.png,2.0,45,2.1396,,,,,,,,,,,,,,,,,,,,,,,,,,,,,,,,
1.0,1.0,0.0,11.0,11.0,11.0,1.0,rake_06s.jpg,1.0,clock_7_6.png,2.0,45,2.32102,,,,,,,,,,,,,,,,,,,,,,,,,,,,,,,,
0.0,1.0,0.0,12.0,12.0,12.0,1.0,marshmallow_08s.jpg,0.0,clock_7_7.png,2.0,45,1.823865,,,,,,,,,,,,,,,,,,,,,,,,,,,,,,,,
0.0,1.0,0.0,13.0,13.0,13.0,1.0,padlock_07s.jpg,0.0,clock_5_1.png,3.0,45,2.042235,,,,,,,,,,,,,,,,,,,,,,,,,,,,,,,,
0.0,1.0,0.0,14.0,14.0,14.0,1.0,rake_06s.jpg,0.0,clock_5_2.png,3.0,45,1.88946,,,,,,,,,,,,,,,,,,,,,,,,,,,,,,,,
0.0,1.0,0.0,15.0,15.0,15.0,1.0,hydrant_10s.jpg,0.0,clock_5_3.png,3.0,45,2.219505,,,,,,,,,,,,,,,,,,,,,,,,,,,,,,,,
0.0,1.0,0.0,16.0,16.0,16.0,1.0,petri_dish_12s.jpg,0.0,clock_5_4.png,3.0,45,2.27618,,,,,,,,,,,,,,,,,,,,,,,,,,,,,,,,
0.0,1.0,0.0,17.0,17.0,17.0,1.0,soda_fountain_03s.jpg,0.0,clock_5_5.png,3.0,45,2.302585,,,,,,,,,,,,,,,,,,,,,,,,,,,,,,,,
0.0,1.0,0.0,18.0,18.0,18.0,1.0,boar_10s.jpg,0.0,clock_6_1.png,4.0,45,2.190065,,,,,,,,,,,,,,,,,,,,,,,,,,,,,,,,
0.0,1.0,0.0,19.0,19.0,19.0,1.0,rocket_02s.jpg,0.0,clock_6_2.png,4.0,45,2.3873,,,,,,,,,,,,,,,,,,,,,,,,,,,,,,,,
0.0,1.0,0.0,20.0,20.0,20.0,1.0,knot_01b.jpg,0.0,clock_6_3.png,4.0,45,1.992275,,,,,,,,,,,,,,,,,,,,,,,,,,,,,,,,
0.0,1.0,0.0,21.0,21.0,21.0,1.0,tab_09s.jpg,0.0,clock_6_4.png,4.0,45,2.14067,,,,,,,,,,,,,,,,,,,,,,,,,,,,,,,,
0.0,1.0,0.0,22.0,22.0,22.0,1.0,lipstick_02s.jpg,0.0,clock_6_5.png,4.0,45,2.295705,,,,,,,,,,,,,,,,,,,,,,,,,,,,,,,,
0.0,1.0,0.0,23.0,23.0,23.0,1.0,jersey_02s.jpg,0.0,clock_6_6.png,4.0,45,2.45554,,,,,,,,,,,,,,,,,,,,,,,,,,,,,,,,
0.0,1.0,0.0,24.0,24.0,24.0,1.0,ostrich_06s.jpg,0.0,clock_5_1.png,5.0,45,2.30574,,,,,,,,,,,,,,,,,,,,,,,,,,,,,,,,
0.0,1.0,0.0,25.0,25.0,25.0,1.0,jukebox_03n.jpg,0.0,clock_5_2.png,5.0,45,2.059135,,,,,,,,,,,,,,,,,,,,,,,,,,,,,,,,
0.0,1.0,0.0,26.0,26.0,26.0,1.0,umbrella_15s.jpg,0.0,clock_5_3.png,5.0,45,2.42861,,,,,,,,,,,,,,,,,,,,,,,,,,,,,,,,
0.0,1.0,0.0,27.0,27.0,27.0,1.0,machine_gun_09s.jpg,0.0,clock_5_4.png,5.0,45,2.268485,,,,,,,,,,,,,,,,,,,,,,,,,,,,,,,,
0.0,1.0,0.0,28.0,28.0,28.0,1.0,inhaler_01b.jpg,0.0,clock_5_5.png,5.0,45,1.794185,,,,,,,,,,,,,,,,,,,,,,,,,,,,,,,,
0.0,1.0,0.0,29.0,29.0,29.0,1.0,screwdriver02a.jpg,0.0,clock_7_1.png,6.0,45,2.13978,,,,,,,,,,,,,,,,,,,,,,,,,,,,,,,,
0.0,1.0,0.0,30.0,30.0,30.0,1.0,thread_08s.jpg,0.0,clock_7_2.png,6.0,45,2.007015,,,,,,,,,,,,,,,,,,,,,,,,,,,,,,,,
0.0,1.0,0.0,31.0,31.0,31.0,1.0,ironing_board_07s.jpg,0.0,clock_7_3.png,6.0,45,2.13421,,,,,,,,,,,,,,,,,,,,,,,,,,,,,,,,
0.0,1.0,0.0,32.0,32.0,32.0,1.0,lip_gloss_06s.jpg,0.0,clock_7_4.png,6.0,45,2.27147,,,,,,,,,,,,,,,,,,,,,,,,,,,,,,,,
0.0,1.0,0.0,33.0,33.0,33.0,1.0,espresso_01b.jpg,0.0,clock_7_5.png,6.0,45,2.134575,,,,,,,,,,,,,,,,,,,,,,,,,,,,,,,,
0.0,1.0,0.0,34.0,34.0,34.0,1.0,checkbook_11s.jpg,0.0,clock_7_6.png,6.0,45,1.925195,,,,,,,,,,,,,,,,,,,,,,,,,,,,,,,,
0.0,1.0,0.0,35.0,35.0,35.0,1.0,rollerskate_03s.jpg,0.0,clock_7_7.png,6.0,45,1.174385,,,,,,,,,,,,,,,,,,,,,,,,,,,,,,,,
,,,,,,,,0.0,,,45,,1.0,0.0,4.77614,0.0,0.0,0.0,0.0,1.0,hydrant_10s.jpg,marshmallow_08s.jpg,,,,,,,,,,,,,,,,,,,,,,
,,,,,,,,1.0,,,45,,1.0,1.0,1.479885,0.0,1.0,1.0,1.0,1.0,cap_05s.jpg,padlock_07s.jpg,,,,,,,,,,,,,,,,,,,,,,
,,,,,,,,0.0,,,45,,1.0,0.0,1.38727,0.0,2.0,2.0,2.0,1.0,knot_01b.jpg,soda_fountain_03s.jpg,,,,,,,,,,,,,,,,,,,,,,
,,,,,,,,0.0,,,45,,1.0,0.0,1.42779,0.0,3.0,3.0,3.0,1.0,sundae_08s.jpg,radiator_05s.jpg,,,,,,,,,,,,,,,,,,,,,,
,,,,,,,,0.0,,,45,,1.0,0.0,1.71276,0.0,4.0,4.0,4.0,1.0,rollerskate_03s.jpg,lip_gloss_06s.jpg,,,,,,,,,,,,,,,,,,,,,,
,,,,,,,,0.0,,,45,,1.0,0.0,1.52346,0.0,5.0,5.0,5.0,1.0,espresso_01b.jpg,thread_08s.jpg,,,,,,,,,,,,,,,,,,,,,,
,,,,,,,,,,,45,,,,,,,,,,,,0.0,1.0,1.0,1.0,1.0,clock_present_2_17.xlsx,clock_compare_task_2_17.xlsx,,,,,,,,,,,,,,,
,0.0,0.0,0.0,0.0,0.0,1.0,tripod_01b.jpg,0.0,clock_6_1.png,1.0,45,,,,,,,,,,,,,,,,,,,,,,,,,,,,,,,,,
0.0,1.0,0.0,1.0,1.0,1.0,1.0,doily_13s.jpg,0.0,clock_6_2.png,1.0,45,2.31433,,,,,,,,,,,,,,,,,,,,,,,,,,,,,,,,
0.0,1.0,0.0,2.0,2.0,2.0,1.0,sushi_08s.jpg,0.0,clock_6_3.png,1.0,45,1.762475,,,,,,,,,,,,,,,,,,,,,,,,,,,,,,,,
0.0,1.0,0.0,3.0,3.0,3.0,1.0,bubble_01b.jpg,0.0,clock_6_4.png,1.0,45,2.4415,,,,,,,,,,,,,,,,,,,,,,,,,,,,,,,,
0.0,1.0,0.0,4.0,4.0,4.0,1.0,swordfish_05s.jpg,0.0,clock_6_5.png,1.0,45,2.406165,,,,,,,,,,,,,,,,,,,,,,,,,,,,,,,,
0.0,1.0,0.0,5.0,5.0,5.0,1.0,keyboard_05s.jpg,0.0,clock_6_6.png,1.0,45,2.460905,,,,,,,,,,,,,,,,,,,,,,,,,,,,,,,,
0.0,1.0,0.0,6.0,6.0,6.0,1.0,perfume_06s.jpg,0.0,clock_7_1.png,2.0,45,1.78652,,,,,,,,,,,,,,,,,,,,,,,,,,,,,,,,
0.0,1.0,0.0,7.0,7.0,7.0,1.0,mango_09s.jpg,0.0,clock_7_2.png,2.0,45,2.20179,,,,,,,,,,,,,,,,,,,,,,,,,,,,,,,,
0.0,1.0,0.0,8.0,8.0,8.0,1.0,tube_top_03s.jpg,0.0,clock_7_3.png,2.0,45,1.626285,,,,,,,,,,,,,,,,,,,,,,,,,,,,,,,,
0.0,1.0,0.0,9.0,9.0,9.0,1.0,birdcage_08s.jpg,0.0,clock_7_4.png,2.0,45,2.41074,,,,,,,,,,,,,,,,,,,,,,,,,,,,,,,,
0.0,1.0,0.0,10.0,10.0,10.0,1.0,typewriter_11s.jpg,0.0,clock_7_5.png,2.0,45,2.01847,,,,,,,,,,,,,,,,,,,,,,,,,,,,,,,,
0.0,1.0,0.0,11.0,11.0,11.0,1.0,rug_09s.jpg,0.0,clock_7_6.png,2.0,45,1.70103,,,,,,,,,,,,,,,,,,,,,,,,,,,,,,,,
0.0,1.0,0.0,12.0,12.0,12.0,1.0,sushi_08s.jpg,0.0,clock_7_7.png,2.0,45,2.26932,,,,,,,,,,,,,,,,,,,,,,,,,,,,,,,,
0.0,1.0,0.0,13.0,13.0,13.0,1.0,puffin_19s.jpg,0.0,clock_6_1.png,3.0,45,1.836805,,,,,,,,,,,,,,,,,,,,,,,,,,,,,,,,
0.0,1.0,0.0,14.0,14.0,14.0,1.0,orange_12s.jpg,0.0,clock_6_2.png,3.0,45,1.29919,,,,,,,,,,,,,,,,,,,,,,,,,,,,,,,,
0.0,1.0,0.0,15.0,15.0,15.0,1.0,iron_13s.jpg,0.0,clock_6_3.png,3.0,45,2.21426,,,,,,,,,,,,,,,,,,,,,,,,,,,,,,,,
1.0,1.0,0.0,16.0,16.0,16.0,1.0,puffin_19s.jpg,1.0,clock_6_4.png,3.0,45,1.8427,,,,,,,,,,,,,,,,,,,,,,,,,,,,,,,,
0.0,1.0,0.0,17.0,17.0,17.0,1.0,punch1_10s.jpg,0.0,clock_6_5.png,3.0,45,1.361075,,,,,,,,,,,,,,,,,,,,,,,,,,,,,,,,
0.0,1.0,0.0,18.0,18.0,18.0,1.0,penlight_12s.jpg,0.0,clock_6_6.png,3.0,45,2.221165,,,,,,,,,,,,,,,,,,,,,,,,,,,,,,,,
0.0,1.0,0.0,19.0,19.0,19.0,1.0,crossbow_10s.jpg,0.0,clock_5_1.png,4.0,45,2.188435,,,,,,,,,,,,,,,,,,,,,,,,,,,,,,,,
0.0,1.0,0.0,20.0,20.0,20.0,1.0,diving_board_07s.jpg,0.0,clock_5_2.png,4.0,45,2.1339,,,,,,,,,,,,,,,,,,,,,,,,,,,,,,,,
1.0,1.0,0.0,21.0,21.0,21.0,1.0,diving_board_07s.jpg,1.0,clock_5_3.png,4.0,45,2.16914,,,,,,,,,,,,,,,,,,,,,,,,,,,,,,,,
0.0,1.0,0.0,22.0,22.0,22.0,1.0,eyedropper_12s.jpg,0.0,clock_5_4.png,4.0,45,2.0524,,,,,,,,,,,,,,,,,,,,,,,,,,,,,,,,
0.0,1.0,0.0,23.0,23.0,23.0,1.0,reindeer_08s.jpg,0.0,clock_5_5.png,4.0,45,2.00352,,,,,,,,,,,,,,,,,,,,,,,,,,,,,,,,
0.0,1.0,0.0,24.0,24.0,24.0,1.0,stapler_01b.jpg,0.0,clock_7_1.png,5.0,45,2.07055,,,,,,,,,,,,,,,,,,,,,,,,,,,,,,,,
1.0,1.0,0.0,25.0,25.0,25.0,1.0,stapler_01b.jpg,1.0,clock_7_2.png,5.0,45,1.52513,,,,,,,,,,,,,,,,,,,,,,,,,,,,,,,,
1.0,1.0,0.0,26.0,26.0,26.0,1.0,stapler_01b.jpg,1.0,clock_7_3.png,5.0,45,2.236495,,,,,,,,,,,,,,,,,,,,,,,,,,,,,,,,
0.0,1.0,0.0,27.0,27.0,27.0,1.0,fountain_pen_06s.jpg,0.0,clock_7_4.png,5.0,45,2.29548,,,,,,,,,,,,,,,,,,,,,,,,,,,,,,,,
0.0,1.0,0.0,28.0,28.0,28.0,1.0,toaster_03s.jpg,0.0,clock_7_5.png,5.0,45,1.95451,,,,,,,,,,,,,,,,,,,,,,,,,,,,,,,,
0.0,1.0,0.0,29.0,29.0,29.0,1.0,sushi_08s.jpg,0.0,clock_7_6.png,5.0,45,1.21661,,,,,,,,,,,,,,,,,,,,,,,,,,,,,,,,
0.0,1.0,0.0,30.0,30.0,30.0,1.0,chocolate_01b.jpg,0.0,clock_7_7.png,5.0,45,2.04908,,,,,,,,,,,,,,,,,,,,,,,,,,,,,,,,
0.0,1.0,0.0,31.0,31.0,31.0,1.0,microwave_02s.jpg,0.0,clock_5_1.png,6.0,45,2.260905,,,,,,,,,,,,,,,,,,,,,,,,,,,,,,,,
0.0,1.0,0.0,32.0,32.0,32.0,1.0,champagne_18s.jpg,0.0,clock_5_2.png,6.0,45,1.25808,,,,,,,,,,,,,,,,,,,,,,,,,,,,,,,,
0.0,1.0,0.0,33.0,33.0,33.0,1.0,phone_01b.jpg,0.0,clock_5_3.png,6.0,45,2.385235,,,,,,,,,,,,,,,,,,,,,,,,,,,,,,,,
1.0,1.0,0.0,34.0,34.0,34.0,1.0,phone_01b.jpg,1.0,clock_5_4.png,6.0,45,1.351565,,,,,,,,,,,,,,,,,,,,,,,,,,,,,,,,
0.0,1.0,0.0,35.0,35.0,35.0,1.0,perfume_06s.jpg,0.0,clock_5_5.png,6.0,45,1.954895,,,,,,,,,,,,,,,,,,,,,,,,,,,,,,,,
,,,,,,,,0.0,,,45,,0.0,1.0,3.50616,0.0,0.0,0.0,0.0,1.0,microwave_02s.jpg,toaster_03s.jpg,,,,,,,,,,,,,,,,,,,,,,
,,,,,,,,1.0,,,45,,0.0,0.0,2.523585,0.0,1.0,1.0,1.0,1.0,keyboard_05s.jpg,tube_top_03s.jpg,,,,,,,,,,,,,,,,,,,,,,
,,,,,,,,0.0,,,45,,0.0,1.0,1.283675,0.0,2.0,2.0,2.0,1.0,mango_09s.jpg,swordfish_05s.jpg,,,,,,,,,,,,,,,,,,,,,,
,,,,,,,,1.0,,,45,,0.0,0.0,1.13493,0.0,3.0,3.0,3.0,1.0,tripod_01b.jpg,bubble_01b.jpg,,,,,,,,,,,,,,,,,,,,,,
,,,,,,,,1.0,,,45,,1.0,1.0,1.726235,0.0,4.0,4.0,4.0,1.0,iron_13s.jpg,penlight_12s.jpg,,,,,,,,,,,,,,,,,,,,,,
,,,,,,,,0.0,,,45,,1.0,0.0,2.60708,0.0,5.0,5.0,5.0,1.0,eyedropper_12s.jpg,crossbow_10s.jpg,,,,,,,,,,,,,,,,,,,,,,
,,,,,,,,,,,45,,,,,,,,,,,,0.0,2.0,2.0,2.0,1.0,clock_present_3_17.xlsx,clock_compare_task_3_17.xlsx,,,,,,,,,,,,,,,
0.0,1.0,0.0,0.0,0.0,0.0,1.0,aluminum_foil_08s.jpg,0.0,clock_5_1.png,1.0,45,2.255025,,,,,,,,,,,,,,,,,,,,,,,,,,,,,,,,
0.0,1.0,0.0,1.0,1.0,1.0,1.0,kimono_13s.jpg,0.0,clock_5_2.png,1.0,45,2.341725,,,,,,,,,,,,,,,,,,,,,,,,,,,,,,,,
0.0,0.0,0.0,2.0,2.0,2.0,1.0,aluminum_foil_08s.jpg,1.0,clock_5_3.png,1.0,45,2.229855,,,,,,,,,,,,,,,,,,,,,,,,,,,,,,,,
0.0,1.0,0.0,3.0,3.0,3.0,1.0,air_pump_05s.jpg,0.0,clock_5_4.png,1.0,45,2.054185,,,,,,,,,,,,,,,,,,,,,,,,,,,,,,,,
0.0,1.0,0.0,4.0,4.0,4.0,1.0,submarine_11n.jpg,0.0,clock_5_5.png,1.0,45,1.819135,,,,,,,,,,,,,,,,,,,,,,,,,,,,,,,,
0.0,1.0,0.0,5.0,5.0,5.0,1.0,totem_pole_05s.jpg,0.0,clock_5_1.png,2.0,45,2.023815,,,,,,,,,,,,,,,,,,,,,,,,,,,,,,,,
0.0,1.0,0.0,6.0,6.0,6.0,1.0,mattress_01s.jpg,0.0,clock_5_2.png,2.0,45,2.08884,,,,,,,,,,,,,,,,,,,,,,,,,,,,,,,,
1.0,1.0,0.0,7.0,7.0,7.0,1.0,totem_pole_05s.jpg,1.0,clock_5_3.png,2.0,45,2.1785,,,,,,,,,,,,,,,,,,,,,,,,,,,,,,,,
0.0,1.0,0.0,8.0,8.0,8.0,1.0,stump_02s.jpg,0.0,clock_5_4.png,2.0,45,2.339195,,,,,,,,,,,,,,,,,,,,,,,,,,,,,,,,
1.0,1.0,0.0,9.0,9.0,9.0,1.0,mattress_01s.jpg,1.0,clock_5_5.png,2.0,45,2.4157,,,,,,,,,,,,,,,,,,,,,,,,,,,,,,,,
0.0,1.0,0.0,10.0,10.0,10.0,1.0,pantyhose_07s.jpg,0.0,clock_7_1.png,3.0,45,2.106005,,,,,,,,,,,,,,,,,,,,,,,,,,,,,,,,
0.0,1.0,0.0,11.0,11.0,11.0,1.0,olive_05s.jpg,0.0,clock_7_2.png,3.0,45,2.4417,,,,,,,,,,,,,,,,,,,,,,,,,,,,,,,,
0.0,1.0,0.0,12.0,12.0,12.0,1.0,ukulele_02s.jpg,0.0,clock_7_3.png,3.0,45,1.60496,,,,,,,,,,,,,,,,,,,,,,,,,,,,,,,,
0.0,1.0,0.0,13.0,13.0,13.0,1.0,dashboard_02s.jpg,0.0,clock_7_4.png,3.0,45,1.963055,,,,,,,,,,,,,,,,,,,,,,,,,,,,,,,,
0.0,1.0,0.0,14.0,14.0,14.0,1.0,toy_04s.jpg,0.0,clock_7_5.png,3.0,45,2.15538,,,,,,,,,,,,,,,,,,,,,,,,,,,,,,,,
1.0,1.0,0.0,15.0,15.0,15.0,1.0,ukulele_02s.jpg,1.0,clock_7_6.png,3.0,45,1.9351,,,,,,,,,,,,,,,,,,,,,,,,,,,,,,,,
0.0,1.0,0.0,16.0,16.0,16.0,1.0,squirrel_02s.jpg,0.0,clock_7_7.png,3.0,45,1.1831,,,,,,,,,,,,,,,,,,,,,,,,,,,,,,,,
0.0,1.0,0.0,17.0,17.0,17.0,1.0,tweezers_03s.jpg,0.0,clock_6_1.png,4.0,45,1.741535,,,,,,,,,,,,,,,,,,,,,,,,,,,,,,,,
0.0,1.0,0.0,18.0,18.0,18.0,1.0,lantern_04s.jpg,0.0,clock_6_2.png,4.0,45,1.834565,,,,,,,,,,,,,,,,,,,,,,,,,,,,,,,,
0.0,1.0,0.0,19.0,19.0,19.0,1.0,lab_coat_11s.jpg,0.0,clock_6_3.png,4.0,45,2.08399,,,,,,,,,,,,,,,,,,,,,,,,,,,,,,,,
0.0,1.0,0.0,20.0,20.0,20.0,1.0,bank_06s.jpg,0.0,clock_6_4.png,4.0,45,2.2463,,,,,,,,,,,,,,,,,,,,,,,,,,,,,,,,
1.0,1.0,0.0,21.0,21.0,21.0,1.0,bank_06s.jpg,1.0,clock_6_5.png,4.0,45,2.21002,,,,,,,,,,,,,,,,,,,,,,,,,,,,,,,,
0.0,1.0,0.0,22.0,22.0,22.0,1.0,medal_04s.jpg,0.0,clock_6_6.png,4.0,45,2.339025,,,,,,,,,,,,,,,,,,,,,,,,,,,,,,,,
0.0,1.0,0.0,23.0,23.0,23.0,1.0,prism_10s.jpg,0.0,clock_6_1.png,5.0,45,2.07685,,,,,,,,,,,,,,,,,,,,,,,,,,,,,,,,
0.0,1.0,0.0,24.0,24.0,24.0,1.0,rock_08s.jpg,0.0,clock_6_2.png,5.0,45,2.10844,,,,,,,,,,,,,,,,,,,,,,,,,,,,,,,,
1.0,1.0,0.0,25.0,25.0,25.0,1.0,rock_08s.jpg,1.0,clock_6_3.png,5.0,45,1.781635,,,,,,,,,,,,,,,,,,,,,,,,,,,,,,,,
1.0,1.0,0.0,26.0,26.0,26.0,1.0,prism_10s.jpg,1.0,clock_6_4.png,5.0,45,2.152155,,,,,,,,,,,,,,,,,,,,,,,,,,,,,,,,
0.0,1.0,0.0,27.0,27.0,27.0,1.0,aluminum_foil_08s.jpg,0.0,clock_6_5.png,5.0,45,2.122445,,,,,,,,,,,,,,,,,,,,,,,,,,,,,,,,
0.0,1.0,0.0,28.0,28.0,28.0,1.0,coconut_08s.jpg,0.0,clock_6_6.png,5.0,45,2.38165,,,,,,,,,,,,,,,,,,,,,,,,,,,,,,,,
0.0,1.0,0.0,29.0,29.0,29.0,1.0,mousetrap_15n.jpg,0.0,clock_7_1.png,6.0,45,2.15213,,,,,,,,,,,,,,,,,,,,,,,,,,,,,,,,
0.0,1.0,0.0,30.0,30.0,30.0,1.0,pinwheel_06s.jpg,0.0,clock_7_2.png,6.0,45,2.37511,,,,,,,,,,,,,,,,,,,,,,,,,,,,,,,,
0.0,1.0,0.0,31.0,31.0,31.0,1.0,compass_10n.jpg,0.0,clock_7_3.png,6.0,45,2.254015,,,,,,,,,,,,,,,,,,,,,,,,,,,,,,,,
0.0,1.0,0.0,32.0,32.0,32.0,1.0,fireworks_18s.jpg,0.0,clock_7_4.png,6.0,45,2.321475,,,,,,,,,,,,,,,,,,,,,,,,,,,,,,,,
0.0,1.0,0.0,33.0,33.0,33.0,1.0,muffin_12n.jpg,0.0,clock_7_5.png,6.0,45,2.36944,,,,,,,,,,,,,,,,,,,,,,,,,,,,,,,,
1.0,1.0,0.0,34.0,34.0,34.0,1.0,compass_10n.jpg,1.0,clock_7_6.png,6.0,45,1.87465,,,,,,,,,,,,,,,,,,,,,,,,,,,,,,,,
0.0,1.0,0.0,35.0,35.0,35.0,1.0,totem_pole_05s.jpg,0.0,clock_7_7.png,6.0,45,2.012715,,,,,,,,,,,,,,,,,,,,,,,,,,,,,,,,
,,,,,,,,1.0,,,45,,1.0,1.0,2.66404,0.0,0.0,0.0,0.0,1.0,stump_02s.jpg,olive_05s.jpg,,,,,,,,,,,,,,,,,,,,,,
,,,,,,,,0.0,,,45,,1.0,0.0,1.552,0.0,1.0,1.0,1.0,1.0,tweezers_03s.jpg,toy_04s.jpg,,,,,,,,,,,,,,,,,,,,,,
,,,,,,,,0.0,,,45,,1.0,0.0,1.47858,0.0,2.0,2.0,2.0,1.0,lab_coat_11s.jpg,squirrel_02s.jpg,,,,,,,,,,,,,,,,,,,,,,
,,,,,,,,1.0,,,45,,1.0,1.0,1.012755,0.0,3.0,3.0,3.0,1.0,kimono_13s.jpg,submarine_11n.jpg,,,,,,,,,,,,,,,,,,,,,,
,,,,,,,,1.0,,,45,,1.0,1.0,2.637485,0.0,4.0,4.0,4.0,1.0,pantyhose_07s.jpg,dashboard_02s.jpg,,,,,,,,,,,,,,,,,,,,,,
,,,,,,,,0.0,,,45,,1.0,0.0,1.877015,0.0,5.0,5.0,5.0,1.0,fireworks_18s.jpg,mousetrap_15n.jpg,,,,,,,,,,,,,,,,,,,,,,
,,,,,,,,,,,45,,,,,,,,,,,,0.0,3.0,3.0,3.0,1.0,clock_present_4_17.xlsx,clock_compare_task_4_17.xlsx,,,,,,,,,,,,,,,
,0.0,0.0,0.0,0.0,0.0,1.0,timer_03s.jpg,0.0,clock_6_1.png,1.0,45,,,,,,,,,,,,,,,,,,,,,,,,,,,,,,,,,
0.0,1.0,0.0,1.0,1.0,1.0,1.0,cobra_05s.jpg,0.0,clock_6_2.png,1.0,45,2.345145,,,,,,,,,,,,,,,,,,,,,,,,,,,,,,,,
0.0,1.0,0.0,2.0,2.0,2.0,1.0,lizard_10n.jpg,0.0,clock_6_3.png,1.0,45,2.392735,,,,,,,,,,,,,,,,,,,,,,,,,,,,,,,,
1.0,1.0,0.0,3.0,3.0,3.0,1.0,cobra_05s.jpg,1.0,clock_6_4.png,1.0,45,2.2594,,,,,,,,,,,,,,,,,,,,,,,,,,,,,,,,
0.0,1.0,0.0,4.0,4.0,4.0,1.0,teabag_12s.jpg,0.0,clock_6_5.png,1.0,45,2.222725,,,,,,,,,,,,,,,,,,,,,,,,,,,,,,,,
1.0,1.0,0.0,5.0,5.0,5.0,1.0,timer_03s.jpg,1.0,clock_6_6.png,1.0,45,2.321515,,,,,,,,,,,,,,,,,,,,,,,,,,,,,,,,
0.0,1.0,0.0,6.0,6.0,6.0,1.0,tile_08s.jpg,0.0,clock_6_1.png,2.0,45,2.06779,,,,,,,,,,,,,,,,,,,,,,,,,,,,,,,,
0.0,1.0,0.0,7.0,7.0,7.0,1.0,undershirt_02s.jpg,0.0,clock_6_2.png,2.0,45,2.12476,,,,,,,,,,,,,,,,,,,,,,,,,,,,,,,,
0.0,1.0,0.0,8.0,8.0,8.0,1.0,surfboard_11s.jpg,0.0,clock_6_3.png,2.0,45,2.17241,,,,,,,,,,,,,,,,,,,,,,,,,,,,,,,,
0.0,1.0,0.0,9.0,9.0,9.0,1.0,chime_12s.jpg,0.0,clock_6_4.png,2.0,45,2.201115,,,,,,,,,,,,,,,,,,,,,,,,,,,,,,,,
1.0,1.0,0.0,10.0,10.0,10.0,1.0,surfboard_11s.jpg,1.0,clock_6_5.png,2.0,45,2.36225,,,,,,,,,,,,,,,,,,,,,,,,,,,,,,,,
0.0,1.0,0.0,11.0,11.0,11.0,1.0,crab_16s.jpg,0.0,clock_6_6.png,2.0,45,2.10067,,,,,,,,,,,,,,,,,,,,,,,,,,,,,,,,
0.0,1.0,0.0,12.0,12.0,12.0,1.0,frog_09s.jpg,0.0,clock_5_1.png,3.0,45,2.304255,,,,,,,,,,,,,,,,,,,,,,,,,,,,,,,,
0.0,1.0,0.0,13.0,13.0,13.0,1.0,squirt_gun_03s.jpg,0.0,clock_5_2.png,3.0,45,2.446385,,,,,,,,,,,,,,,,,,,,,,,,,,,,,,,,
0.0,1.0,0.0,14.0,14.0,14.0,1.0,undershirt_02s.jpg,0.0,clock_5_3.png,3.0,45,2.156265,,,,,,,,,,,,,,,,,,,,,,,,,,,,,,,,
0.0,1.0,0.0,15.0,15.0,15.0,1.0,razor_blade_01b.jpg,0.0,clock_5_4.png,3.0,45,2.393035,,,,,,,,,,,,,,,,,,,,,,,,,,,,,,,,
0.0,1.0,0.0,16.0,16.0,16.0,1.0,teabag_12s.jpg,0.0,clock_5_5.png,3.0,45,2.2361,,,,,,,,,,,,,,,,,,,,,,,,,,,,,,,,
0.0,1.0,0.0,17.0,17.0,17.0,1.0,fur_coat_11s.jpg,0.0,clock_7_1.png,4.0,45,1.923095,,,,,,,,,,,,,,,,,,,,,,,,,,,,,,,,
1.0,1.0,0.0,18.0,18.0,18.0,1.0,fur_coat_11s.jpg,1.0,clock_7_2.png,4.0,45,2.27548,,,,,,,,,,,,,,,,,,,,,,,,,,,,,,,,
0.0,1.0,0.0,19.0,19.0,19.0,1.0,mushroom_10n.jpg,0.0,clock_7_3.png,4.0,45,2.19137,,,,,,,,,,,,,,,,,,,,,,,,,,,,,,,,
0.0,1.0,0.0,20.0,20.0,20.0,1.0,snowman_02s.jpg,0.0,clock_7_4.png,4.0,45,1.772135,,,,,,,,,,,,,,,,,,,,,,,,,,,,,,,,
1.0,1.0,0.0,21.0,21.0,21.0,1.0,snowman_02s.jpg,1.0,clock_7_5.png,4.0,45,2.00662,,,,,,,,,,,,,,,,,,,,,,,,,,,,,,,,
0.0,1.0,0.0,22.0,22.0,22.0,1.0,safety_pin_02s.jpg,0.0,clock_7_6.png,4.0,45,2.264185,,,,,,,,,,,,,,,,,,,,,,,,,,,,,,,,
0.0,1.0,0.0,23.0,23.0,23.0,1.0,surfboard_11s.jpg,0.0,clock_7_7.png,4.0,45,2.413665,,,,,,,,,,,,,,,,,,,,,,,,,,,,,,,,
0.0,1.0,0.0,24.0,24.0,24.0,1.0,oil_02s.jpg,0.0,clock_7_1.png,5.0,45,2.063025,,,,,,,,,,,,,,,,,,,,,,,,,,,,,,,,
0.0,1.0,0.0,25.0,25.0,25.0,1.0,ice-cream_cone_06s.jpg,0.0,clock_7_2.png,5.0,45,2.08489,,,,,,,,,,,,,,,,,,,,,,,,,,,,,,,,
0.0,1.0,0.0,26.0,26.0,26.0,1.0,tennis_ball_06s.jpg,0.0,clock_7_3.png,5.0,45,1.8881,,,,,,,,,,,,,,,,,,,,,,,,,,,,,,,,
0.0,1.0,0.0,27.0,27.0,27.0,1.0,pencil_sharpener_09n.jpg,0.0,clock_7_4.png,5.0,45,2.058425,,,,,,,,,,,,,,,,,,,,,,,,,,,,,,,,
0.0,1.0,0.0,28.0,28.0,28.0,1.0,pumpkin_03s.jpg,0.0,clock_7_5.png,5.0,45,2.11358,,,,,,,,,,,,,,,,,,,,,,,,,,,,,,,,
0.0,1.0,0.0,29.0,29.0,29.0,1.0,ring_03s.jpg,0.0,clock_7_6.png,5.0,45,2.319315,,,,,,,,,,,,,,,,,,,,,,,,,,,,,,,,
0.0,1.0,0.0,30.0,30.0,30.0,1.0,police_car_01s.jpg,0.0,clock_7_7.png,5.0,45,2.45666,,,,,,,,,,,,,,,,,,,,,,,,,,,,,,,,
0.0,1.0,0.0,31.0,31.0,31.0,1.0,bolo_tie_08s.jpg,0.0,clock_5_1.png,6.0,45,1.80639,,,,,,,,,,,,,,,,,,,,,,,,,,,,,,,,
0.0,1.0,0.0,32.0,32.0,32.0,1.0,jelly_bean_06s.jpg,0.0,clock_5_2.png,6.0,45,2.451805,,,,,,,,,,,,,,,,,,,,,,,,,,,,,,,,
0.0,1.0,0.0,33.0,33.0,33.0,1.0,pencil02a.jpg,0.0,clock_5_3.png,6.0,45,2.187325,,,,,,,,,,,,,,,,,,,,,,,,,,,,,,,,
0.0,1.0,0.0,34.0,34.0,34.0,1.0,lizard_10n.jpg,0.0,clock_5_4.png,6.0,45,1.689295,,,,,,,,,,,,,,,,,,,,,,,,,,,,,,,,
0.0,1.0,0.0,35.0,35.0,35.0,1.0,pepper2_21s.jpg,0.0,clock_5_5.png,6.0,45,2.46295,,,,,,,,,,,,,,,,,,,,,,,,,,,,,,,,
,,,,,,,,0.0,,,45,,1.0,0.0,1.73292,0.0,0.0,0.0,0.0,1.0,bolo_tie_08s.jpg,pumpkin_03s.jpg,,,,,,,,,,,,,,,,,,,,,,
,,,,,,,,1.0,,,45,,0.0,0.0,2.77237,0.0,1.0,1.0,1.0,1.0,police_car_01s.jpg,pencil02a.jpg,,,,,,,,,,,,,,,,,,,,,,
,,,,,,,,1.0,,,45,,0.0,0.0,1.737115,0.0,2.0,2.0,2.0,1.0,chime_12s.jpg,frog_09s.jpg,,,,,,,,,,,,,,,,,,,,,,
,,,,,,,,0.0,,,45,,0.0,1.0,1.522945,0.0,3.0,3.0,3.0,1.0,pencil_sharpener_09n.jpg,oil_02s.jpg,,,,,,,,,,,,,,,,,,,,,,
,,,,,,,,0.0,,,45,,0.0,1.0,2.004345,0.0,4.0,4.0,4.0,1.0,safety_pin_02s.jpg,mushroom_10n.jpg,,,,,,,,,,,,,,,,,,,,,,
,,,,,,,,0.0,,,45,,0.0,1.0,1.60551,0.0,5.0,5.0,5.0,1.0,ring_03s.jpg,tennis_ball_06s.jpg,,,,,,,,,,,,,,,,,,,,,,
,,,,,,,,,,,45,,,,,,,,,,,,0.0,4.0,4.0,4.0,1.0,clock_present_5_17.xlsx,clock_compare_task_5_17.xlsx,,,,,,,,,,,,,,,
,0.0,0.0,0.0,0.0,0.0,1.0,recliner_02s.jpg,0.0,clock_6_1.png,1.0,45,,,,,,,,,,,,,,,,,,,,,,,,,,,,,,,,,
0.0,1.0,0.0,1.0,1.0,1.0,1.0,purse_05s.jpg,0.0,clock_6_2.png,1.0,45,2.112925,,,,,,,,,,,,,,,,,,,,,,,,,,,,,,,,
0.0,1.0,0.0,2.0,2.0,2.0,1.0,treasure_08s.jpg,0.0,clock_6_3.png,1.0,45,2.28917,,,,,,,,,,,,,,,,,,,,,,,,,,,,,,,,
0.0,1.0,0.0,3.0,3.0,3.0,1.0,tongs_08s.jpg,0.0,clock_6_4.png,1.0,45,2.395395,,,,,,,,,,,,,,,,,,,,,,,,,,,,,,,,
1.0,1.0,0.0,4.0,4.0,4.0,1.0,tongs_08s.jpg,1.0,clock_6_5.png,1.0,45,2.102655,,,,,,,,,,,,,,,,,,,,,,,,,,,,,,,,
0.0,1.0,0.0,5.0,5.0,5.0,1.0,feather02.jpg,0.0,clock_6_6.png,1.0,45,2.26569,,,,,,,,,,,,,,,,,,,,,,,,,,,,,,,,
0.0,1.0,0.0,6.0,6.0,6.0,1.0,pocketknife_12s.jpg,0.0,clock_7_1.png,2.0,45,2.1799,,,,,,,,,,,,,,,,,,,,,,,,,,,,,,,,
0.0,1.0,0.0,7.0,7.0,7.0,1.0,bagel_15s.jpg,0.0,clock_7_2.png,2.0,45,2.074095,,,,,,,,,,,,,,,,,,,,,,,,,,,,,,,,
0.0,1.0,0.0,8.0,8.0,8.0,1.0,turtleneck_11s.jpg,0.0,clock_7_3.png,2.0,45,1.955265,,,,,,,,,,,,,,,,,,,,,,,,,,,,,,,,
1.0,1.0,0.0,9.0,9.0,9.0,1.0,turtleneck_11s.jpg,1.0,clock_7_4.png,2.0,45,2.460855,,,,,,,,,,,,,,,,,,,,,,,,,,,,,,,,
0.0,1.0,0.0,10.0,10.0,10.0,1.0,kangaroo_02s.jpg,0.0,clock_7_5.png,2.0,45,2.085405,,,,,,,,,,,,,,,,,,,,,,,,,,,,,,,,
1.0,1.0,0.0,11.0,11.0,11.0,1.0,turtleneck_11s.jpg,1.0,clock_7_6.png,2.0,45,2.25252,,,,,,,,,,,,,,,,,,,,,,,,,,,,,,,,
1.0,0.0,0.0,12.0,12.0,12.0,1.0,tongs_08s.jpg,0.0,clock_7_7.png,2.0,45,2.45372,,,,,,,,,,,,,,,,,,,,,,,,,,,,,,,,
0.0,1.0,0.0,13.0,13.0,13.0,1.0,incense_02s.jpg,0.0,clock_6_1.png,3.0,45,2.36121,,,,,,,,,,,,,,,,,,,,,,,,,,,,,,,,
0.0,1.0,0.0,14.0,14.0,14.0,1.0,peeler_06s.jpg,0.0,clock_6_2.png,3.0,45,2.372135,,,,,,,,,,,,,,,,,,,,,,,,,,,,,,,,
0.0,1.0,0.0,15.0,15.0,15.0,1.0,lollipop_08s.jpg,0.0,clock_6_3.png,3.0,45,2.161575,,,,,,,,,,,,,,,,,,,,,,,,,,,,,,,,
0.0,1.0,0.0,16.0,16.0,16.0,1.0,soccer_ball_12s.jpg,0.0,clock_6_4.png,3.0,45,2.12998,,,,,,,,,,,,,,,,,,,,,,,,,,,,,,,,
0.0,1.0,0.0,17.0,17.0,17.0,1.0,parachute_03s.jpg,0.0,clock_6_5.png,3.0,45,2.309565,,,,,,,,,,,,,,,,,,,,,,,,,,,,,,,,
0.0,1.0,0.0,18.0,18.0,18.0,1.0,pillbox_04s.jpg,0.0,clock_6_6.png,3.0,45,1.40686,,,,,,,,,,,,,,,,,,,,,,,,,,,,,,,,
0.0,1.0,0.0,19.0,19.0,19.0,1.0,solar_panel_02s.jpg,0.0,clock_5_1.png,4.0,45,2.047545,,,,,,,,,,,,,,,,,,,,,,,,,,,,,,,,
0.0,1.0,0.0,20.0,20.0,20.0,1.0,pomegranate_04s.jpg,0.0,clock_5_2.png,4.0,45,2.024575,,,,,,,,,,,,,,,,,,,,,,,,,,,,,,,,
0.0,1.0,0.0,21.0,21.0,21.0,1.0,kettle_08s.jpg,0.0,clock_5_3.png,4.0,45,2.32813,,,,,,,,,,,,,,,,,,,,,,,,,,,,,,,,
1.0,1.0,0.0,22.0,22.0,22.0,1.0,solar_panel_02s.jpg,1.0,clock_5_4.png,4.0,45,2.12624,,,,,,,,,,,,,,,,,,,,,,,,,,,,,,,,
0.0,1.0,0.0,23.0,23.0,23.0,1.0,lollipop_08s.jpg,0.0,clock_5_5.png,4.0,45,2.37671,,,,,,,,,,,,,,,,,,,,,,,,,,,,,,,,
0.0,1.0,0.0,24.0,24.0,24.0,1.0,hummingbird_05s.jpg,0.0,clock_5_1.png,5.0,45,2.20216,,,,,,,,,,,,,,,,,,,,,,,,,,,,,,,,
0.0,1.0,0.0,25.0,25.0,25.0,1.0,quesadilla_07s.jpg,0.0,clock_5_2.png,5.0,45,2.339585,,,,,,,,,,,,,,,,,,,,,,,,,,,,,,,,
0.0,1.0,0.0,26.0,26.0,26.0,1.0,jet_15s.jpg,0.0,clock_5_3.png,5.0,45,2.037945,,,,,,,,,,,,,,,,,,,,,,,,,,,,,,,,
1.0,1.0,0.0,27.0,27.0,27.0,1.0,quesadilla_07s.jpg,1.0,clock_5_4.png,5.0,45,2.277305,,,,,,,,,,,,,,,,,,,,,,,,,,,,,,,,
0.0,1.0,0.0,28.0,28.0,28.0,1.0,soccer_ball_12s.jpg,0.0,clock_5_5.png,5.0,45,2.209015,,,,,,,,,,,,,,,,,,,,,,,,,,,,,,,,
0.0,1.0,0.0,29.0,29.0,29.0,1.0,tomato_sauce_09s.jpg,0.0,clock_7_1.png,6.0,45,1.888245,,,,,,,,,,,,,,,,,,,,,,,,,,,,,,,,
0.0,1.0,0.0,30.0,30.0,30.0,1.0,tiara_05s.jpg,0.0,clock_7_2.png,6.0,45,2.151705,,,,,,,,,,,,,,,,,,,,,,,,,,,,,,,,
0.0,1.0,0.0,31.0,31.0,31.0,1.0,binder_21s.jpg,0.0,clock_7_3.png,6.0,45,1.9041,,,,,,,,,,,,,,,,,,,,,,,,,,,,,,,,
0.0,1.0,0.0,32.0,32.0,32.0,1.0,printer_09s.jpg,0.0,clock_7_4.png,6.0,45,2.068725,,,,,,,,,,,,,,,,,,,,,,,,,,,,,,,,
0.0,1.0,0.0,33.0,33.0,33.0,1.0,hyena_16s.jpg,0.0,clock_7_5.png,6.0,45,2.22183,,,,,,,,,,,,,,,,,,,,,,,,,,,,,,,,
0.0,1.0,0.0,34.0,34.0,34.0,1.0,cushion_08s.jpg,0.0,clock_7_6.png,6.0,45,2.12592,,,,,,,,,,,,,,,,,,,,,,,,,,,,,,,,
0.0,1.0,0.0,35.0,35.0,35.0,1.0,towel_rack_04s.jpg,0.0,clock_7_7.png,6.0,45,2.02603,,,,,,,,,,,,,,,,,,,,,,,,,,,,,,,,
,,,,,,,,0.0,,,45,,1.0,0.0,1.746435,0.0,0.0,0.0,0.0,1.0,kettle_08s.jpg,pillbox_04s.jpg,,,,,,,,,,,,,,,,,,,,,,
,,,,,,,,0.0,,,45,,1.0,0.0,2.453505,0.0,1.0,1.0,1.0,1.0,incense_02s.jpg,kangaroo_02s.jpg,,,,,,,,,,,,,,,,,,,,,,
,,,,,,,,0.0,,,45,,0.0,1.0,1.987625,0.0,2.0,2.0,2.0,1.0,pomegranate_04s.jpg,parachute_03s.jpg,,,,,,,,,,,,,,,,,,,,,,
,,,,,,,,1.0,,,45,,0.0,0.0,1.275145,0.0,3.0,3.0,3.0,1.0,treasure_08s.jpg,feather02.jpg,,,,,,,,,,,,,,,,,,,,,,
,,,,,,,,0.0,,,45,,1.0,0.0,1.49624,0.0,4.0,4.0,4.0,1.0,hyena_16s.jpg,tiara_05s.jpg,,,,,,,,,,,,,,,,,,,,,,
,,,,,,,,1.0,,,45,,1.0,1.0,1.43568,0.0,5.0,5.0,5.0,1.0,binder_21s.jpg,cushion_08s.jpg,,,,,,,,,,,,,,,,,,,,,,
0.0,1.0,,,,,,stamp1_11s.jpg,0.0,clock_5_1.png,1.0,45,2.43048,,,,,,,,,,,,,,,,,,0.0,0.0,0.0,0.0,1.0,,,,,,,,,,
1.0,1.0,,,,,,stamp1_11s.jpg,1.0,clock_5_2.png,1.0,45,2.26406,,,,,,,,,,,,,,,,,,0.0,1.0,1.0,1.0,1.0,,,,,,,,,,
0.0,1.0,,,,,,bacon_05s.jpg,0.0,clock_5_3.png,1.0,45,2.41253,,,,,,,,,,,,,,,,,,0.0,2.0,2.0,2.0,1.0,,,,,,,,,,
0.0,1.0,,,,,,owl_15s.jpg,0.0,clock_5_4.png,1.0,45,2.47201,,,,,,,,,,,,,,,,,,0.0,3.0,3.0,3.0,1.0,,,,,,,,,,
1.0,1.0,,,,,,owl_15s.jpg,1.0,clock_5_5.png,1.0,45,2.22886,,,,,,,,,,,,,,,,,,0.0,4.0,4.0,4.0,1.0,,,,,,,,,,
0.0,1.0,,,,,,eiffeltower.jpg,0.0,clock_5_1.png,2.0,45,1.94502,,,,,,,,,,,,,,,,,,0.0,5.0,5.0,5.0,1.0,,,,,,,,,,
0.0,1.0,,,,,,film_03s.jpg,0.0,clock_5_2.png,2.0,45,2.25678,,,,,,,,,,,,,,,,,,0.0,6.0,6.0,6.0,1.0,,,,,,,,,,
1.0,1.0,,,,,,eiffeltower.jpg,1.0,clock_5_3.png,2.0,45,2.222355,,,,,,,,,,,,,,,,,,0.0,7.0,7.0,7.0,1.0,,,,,,,,,,
0.0,1.0,,,,,,abacus_12s.jpg,0.0,clock_5_4.png,2.0,45,2.00952,,,,,,,,,,,,,,,,,,0.0,8.0,8.0,8.0,1.0,,,,,,,,,,
1.0,1.0,,,,,,eiffeltower.jpg,1.0,clock_5_5.png,2.0,45,2.0044,,,,,,,,,,,,,,,,,,0.0,9.0,9.0,9.0,1.0,,,,,,,,,,
0.0,1.0,,,,,,ram_05s.jpg,0.0,clock_7_1.png,3.0,45,2.260855,,,,,,,,,,,,,,,,,,0.0,10.0,10.0,10.0,1.0,,,,,,,,,,
0.0,1.0,,,,,,fox_13s.jpg,0.0,clock_7_2.png,3.0,45,1.93726,,,,,,,,,,,,,,,,,,0.0,11.0,11.0,11.0,1.0,,,,,,,,,,
0.0,1.0,,,,,,triangle_10s.jpg,0.0,clock_7_3.png,3.0,45,2.42556,,,,,,,,,,,,,,,,,,0.0,12.0,12.0,12.0,1.0,,,,,,,,,,
0.0,1.0,,,,,,key_07s.jpg,0.0,clock_7_4.png,3.0,45,1.98458,,,,,,,,,,,,,,,,,,0.0,13.0,13.0,13.0,1.0,,,,,,,,,,
0.0,1.0,,,,,,plaster_cast_13s.jpg,0.0,clock_7_5.png,3.0,45,2.478985,,,,,,,,,,,,,,,,,,0.0,14.0,14.0,14.0,1.0,,,,,,,,,,
0.0,1.0,,,,,,fishhook_06s.jpg,0.0,clock_7_6.png,3.0,45,1.20375,,,,,,,,,,,,,,,,,,0.0,15.0,15.0,15.0,1.0,,,,,,,,,,
0.0,1.0,,,,,,poinsettia_04s.jpg,0.0,clock_7_7.png,3.0,45,2.084495,,,,,,,,,,,,,,,,,,0.0,16.0,16.0,16.0,1.0,,,,,,,,,,
0.0,1.0,,,,,,teacup_07s.jpg,0.0,clock_6_1.png,4.0,45,2.47705,,,,,,,,,,,,,,,,,,0.0,17.0,17.0,17.0,1.0,,,,,,,,,,
0.0,1.0,,,,,,rabbit_03s.jpg,0.0,clock_6_2.png,4.0,45,2.33561,,,,,,,,,,,,,,,,,,0.0,18.0,18.0,18.0,1.0,,,,,,,,,,
1.0,1.0,,,,,,rabbit_03s.jpg,1.0,clock_6_3.png,4.0,45,2.448505,,,,,,,,,,,,,,,,,,0.0,19.0,19.0,19.0,1.0,,,,,,,,,,
0.0,1.0,,,,,,powder_07s.jpg,0.0,clock_6_4.png,4.0,45,2.017545,,,,,,,,,,,,,,,,,,0.0,20.0,20.0,20.0,1.0,,,,,,,,,,
0.0,1.0,,,,,,gas_mask_11s.jpg,0.0,clock_6_5.png,4.0,45,1.93763,,,,,,,,,,,,,,,,,,0.0,21.0,21.0,21.0,1.0,,,,,,,,,,
0.0,1.0,,,,,,loveseat_08s.jpg,0.0,clock_6_6.png,4.0,45,2.33362,,,,,,,,,,,,,,,,,,0.0,22.0,22.0,22.0,1.0,,,,,,,,,,
0.0,1.0,,,,,,pan_02s.jpg,0.0,clock_7_1.png,5.0,45,2.22023,,,,,,,,,,,,,,,,,,0.0,23.0,23.0,23.0,1.0,,,,,,,,,,
0.0,1.0,,,,,,mirror_12s.jpg,0.0,clock_7_2.png,5.0,45,2.255485,,,,,,,,,,,,,,,,,,0.0,24.0,24.0,24.0,1.0,,,,,,,,,,
0.0,1.0,,,,,,puppy_08s.jpg,0.0,clock_7_3.png,5.0,45,1.932815,,,,,,,,,,,,,,,,,,0.0,25.0,25.0,25.0,1.0,,,,,,,,,,
0.0,1.0,,,,,,laser_pointer_02s.jpg,0.0,clock_7_4.png,5.0,45,2.052935,,,,,,,,,,,,,,,,,,0.0,26.0,26.0,26.0,1.0,,,,,,,,,,
1.0,1.0,,,,,,puppy_08s.jpg,1.0,clock_7_5.png,5.0,45,1.987255,,,,,,,,,,,,,,,,,,0.0,27.0,27.0,27.0,1.0,,,,,,,,,,
0.0,1.0,,,,,,tablet_04s.jpg,0.0,clock_7_6.png,5.0,45,2.083465,,,,,,,,,,,,,,,,,,0.0,28.0,28.0,28.0,1.0,,,,,,,,,,
0.0,1.0,,,,,,jewel_01b.jpg,0.0,clock_7_7.png,5.0,45,1.65298,,,,,,,,,,,,,,,,,,0.0,29.0,29.0,29.0,1.0,,,,,,,,,,
0.0,1.0,,,,,,crystal_ball_12s.jpg,0.0,clock_6_1.png,6.0,45,2.06831,,,,,,,,,,,,,,,,,,0.0,30.0,30.0,30.0,1.0,,,,,,,,,,
0.0,1.0,,,,,,mud_13s.jpg,0.0,clock_6_2.png,6.0,45,2.118095,,,,,,,,,,,,,,,,,,0.0,31.0,31.0,31.0,1.0,,,,,,,,,,
0.0,1.0,,,,,,bee_20s.jpg,0.0,clock_6_3.png,6.0,45,2.30663,,,,,,,,,,,,,,,,,,0.0,32.0,32.0,32.0,1.0,,,,,,,,,,
1.0,1.0,,,,,,mud_13s.jpg,1.0,clock_6_4.png,6.0,45,2.42532,,,,,,,,,,,,,,,,,,0.0,33.0,33.0,33.0,1.0,,,,,,,,,,
0.0,1.0,,,,,,glue_01s.jpg,0.0,clock_6_5.png,6.0,45,2.38531,,,,,,,,,,,,,,,,,,0.0,34.0,34.0,34.0,1.0,,,,,,,,,,
0.0,1.0,,,,,,potpourri_03s.jpg,0.0,clock_6_6.png,6.0,45,2.382375,,,,,,,,,,,,,,,,,,0.0,35.0,35.0,35.0,1.0,,,,,,,,,,
,,,,,,,,0.0,,,45,,1.0,0.0,2.273595,,,,,,mirror_12s.jpg,gas_mask_11s.jpg,,,,,,,,,,,,,0.0,0.0,0.0,0.0,1.0,,,,,
,,,,,,,,0.0,,,45,,0.0,1.0,2.525255,,,,,,fox_13s.jpg,abacus_12s.jpg,,,,,,,,,,,,,0.0,1.0,1.0,1.0,1.0,,,,,
,,,,,,,,1.0,,,45,,0.0,0.0,2.804355,,,,,,plaster_cast_13s.jpg,teacup_07s.jpg,,,,,,,,,,,,,0.0,2.0,2.0,2.0,1.0,,,,,
,,,,,,,,1.0,,,45,,1.0,1.0,2.488655,,,,,,ram_05s.jpg,key_07s.jpg,,,,,,,,,,,,,0.0,3.0,3.0,3.0,1.0,,,,,
,,,,,,,,0.0,,,45,,1.0,0.0,1.200515,,,,,,fishhook_06s.jpg,triangle_10s.jpg,,,,,,,,,,,,,0.0,4.0,4.0,4.0,1.0,,,,,
,,,,,,,,1.0,,,45,,0.0,0.0,2.197285,,,,,,pan_02s.jpg,laser_pointer_02s.jpg,,,,,,,,,,,,,0.0,5.0,5.0,5.0,1.0,,,,,
,,,,,,,,,,,45,,,,,,,,,,,,,,,,,clockno_present_1_17.xlsx,clockno_compare_task_1_17.xlsx,,,,,,,,,,,0.0,0.0,0.0,0.0,1.0
,0.0,,,,,,rope_16s.jpg,0.0,clockno_up.jpg,1.0,45,,,,,,,,,,,,,,,,,,,0.0,0.0,0.0,0.0,1.0,,,,,,,,,,
0.0,1.0,,,,,,stopwatch_04s.jpg,0.0,clockno_default.jpg,1.0,45,2.31884,,,,,,,,,,,,,,,,,,0.0,1.0,1.0,1.0,1.0,,,,,,,,,,
1.0,1.0,,,,,,rope_16s.jpg,1.0,clockno_default.jpg,1.0,45,2.326905,,,,,,,,,,,,,,,,,,0.0,2.0,2.0,2.0,1.0,,,,,,,,,,
0.0,1.0,,,,,,milk_02s.jpg,0.0,clockno_default.jpg,1.0,45,2.40123,,,,,,,,,,,,,,,,,,0.0,3.0,3.0,3.0,1.0,,,,,,,,,,
1.0,1.0,,,,,,milk_02s.jpg,1.0,clockno_default.jpg,1.0,45,2.310715,,,,,,,,,,,,,,,,,,0.0,4.0,4.0,4.0,1.0,,,,,,,,,,
0.0,1.0,,,,,,bathtub_23s.jpg,0.0,clockno_up.jpg,2.0,45,2.325515,,,,,,,,,,,,,,,,,,0.0,5.0,5.0,5.0,1.0,,,,,,,,,,
1.0,1.0,,,,,,bathtub_23s.jpg,1.0,clockno_default.jpg,2.0,45,2.15199,,,,,,,,,,,,,,,,,,0.0,6.0,6.0,6.0,1.0,,,,,,,,,,
0.0,1.0,,,,,,playpen_11s.jpg,0.0,clockno_default.jpg,2.0,45,2.09032,,,,,,,,,,,,,,,,,,0.0,7.0,7.0,7.0,1.0,,,,,,,,,,
0.0,1.0,,,,,,fork_04s.jpg,0.0,clockno_default.jpg,2.0,45,2.144635,,,,,,,,,,,,,,,,,,0.0,8.0,8.0,8.0,1.0,,,,,,,,,,
1.0,0.0,,,,,,milk_02s.jpg,0.0,clockno_default.jpg,2.0,45,1.73472,,,,,,,,,,,,,,,,,,0.0,9.0,9.0,9.0,1.0,,,,,,,,,,
0.0,1.0,,,,,,orchid_01b.jpg,0.0,clockno_default.jpg,2.0,45,1.02437,,,,,,,,,,,,,,,,,,0.0,10.0,10.0,10.0,1.0,,,,,,,,,,
0.0,1.0,,,,,,tiger_06s.jpg,0.0,clockno_default.jpg,2.0,45,1.952655,,,,,,,,,,,,,,,,,,0.0,11.0,11.0,11.0,1.0,,,,,,,,,,
0.0,1.0,,,,,,toad_09s.jpg,0.0,clockno_up.jpg,3.0,45,2.2884,,,,,,,,,,,,,,,,,,0.0,12.0,12.0,12.0,1.0,,,,,,,,,,
0.0,1.0,,,,,,keyhole_03s.jpg,0.0,clockno_default.jpg,3.0,45,1.992595,,,,,,,,,,,,,,,,,,0.0,13.0,13.0,13.0,1.0,,,,,,,,,,
0.0,1.0,,,,,,roulette_wheel_04s.jpg,0.0,clockno_default.jpg,3.0,45,2.067695,,,,,,,,,,,,,,,,,,0.0,14.0,14.0,14.0,1.0,,,,,,,,,,
0.0,1.0,,,,,,lid_10s.jpg,0.0,clockno_default.jpg,3.0,45,2.203445,,,,,,,,,,,,,,,,,,0.0,15.0,15.0,15.0,1.0,,,,,,,,,,
0.0,1.0,,,,,,exhaust_pipe_10s.jpg,0.0,clockno_default.jpg,3.0,45,2.173885,,,,,,,,,,,,,,,,,,0.0,16.0,16.0,16.0,1.0,,,,,,,,,,
0.0,1.0,,,,,,sugar_cube_11s.jpg,0.0,clockno_default.jpg,3.0,45,2.23377,,,,,,,,,,,,,,,,,,0.0,17.0,17.0,17.0,1.0,,,,,,,,,,
0.0,1.0,,,,,,rooster_03s.jpg,0.0,clockno_up.jpg,4.0,45,2.068235,,,,,,,,,,,,,,,,,,0.0,18.0,18.0,18.0,1.0,,,,,,,,,,
0.0,1.0,,,,,,fire_alarm_05s.jpg,0.0,clockno_default.jpg,4.0,45,2.188805,,,,,,,,,,,,,,,,,,0.0,19.0,19.0,19.0,1.0,,,,,,,,,,
0.0,1.0,,,,,,playpen_11s.jpg,0.0,clockno_default.jpg,4.0,45,2.44713,,,,,,,,,,,,,,,,,,0.0,20.0,20.0,20.0,1.0,,,,,,,,,,
0.0,1.0,,,,,,keyhole_03s.jpg,0.0,clockno_default.jpg,4.0,45,2.225565,,,,,,,,,,,,,,,,,,0.0,21.0,21.0,21.0,1.0,,,,,,,,,,
1.0,1.0,,,,,,keyhole_03s.jpg,1.0,clockno_default.jpg,4.0,45,2.326425,,,,,,,,,,,,,,,,,,0.0,22.0,22.0,22.0,1.0,,,,,,,,,,
0.0,1.0,,,,,,mosquito_12s.jpg,0.0,clockno_default.jpg,4.0,45,2.30787,,,,,,,,,,,,,,,,,,0.0,23.0,23.0,23.0,1.0,,,,,,,,,,
0.0,1.0,,,,,,light_switch_02s.jpg,0.0,clockno_default.jpg,4.0,45,2.17024,,,,,,,,,,,,,,,,,,0.0,24.0,24.0,24.0,1.0,,,,,,,,,,
0.0,1.0,,,,,,koala_13s.jpg,0.0,clockno_up.jpg,5.0,45,1.95253,,,,,,,,,,,,,,,,,,0.0,25.0,25.0,25.0,1.0,,,,,,,,,,
0.0,1.0,,,,,,leash_10s.jpg,0.0,clockno_default.jpg,5.0,45,2.117735,,,,,,,,,,,,,,,,,,0.0,26.0,26.0,26.0,1.0,,,,,,,,,,
0.0,1.0,,,,,,sunglasses_11s.jpg,0.0,clockno_default.jpg,5.0,45,2.19032,,,,,,,,,,,,,,,,,,0.0,27.0,27.0,27.0,1.0,,,,,,,,,,
1.0,1.0,,,,,,sunglasses_11s.jpg,1.0,clockno_default.jpg,5.0,45,2.460475,,,,,,,,,,,,,,,,,,0.0,28.0,28.0,28.0,1.0,,,,,,,,,,
0.0,1.0,,,,,,insole_11s.jpg,0.0,clockno_default.jpg,5.0,45,2.40507,,,,,,,,,,,,,,,,,,0.0,29.0,29.0,29.0,1.0,,,,,,,,,,
0.0,1.0,,,,,,juicer2_06s.jpg,0.0,clockno_default.jpg,5.0,45,2.19131,,,,,,,,,,,,,,,,,,0.0,30.0,30.0,30.0,1.0,,,,,,,,,,
0.0,1.0,,,,,,stethoscope_01b.jpg,0.0,clockno_up.jpg,6.0,45,2.076735,,,,,,,,,,,,,,,,,,0.0,31.0,31.0,31.0,1.0,,,,,,,,,,
0.0,1.0,,,,,,torch_02s.jpg,0.0,clockno_default.jpg,6.0,45,2.13607,,,,,,,,,,,,,,,,,,0.0,32.0,32.0,32.0,1.0,,,,,,,,,,
0.0,1.0,,,,,,duck_01b.jpg,0.0,clockno_default.jpg,6.0,45,2.13863,,,,,,,,,,,,,,,,,,0.0,33.0,33.0,33.0,1.0,,,,,,,,,,
0.0,1.0,,,,,,jigsaw_puzzle_11s.jpg,0.0,clockno_default.jpg,6.0,45,2.234525,,,,,,,,,,,,,,,,,,0.0,34.0,34.0,34.0,1.0,,,,,,,,,,
0.0,1.0,,,,,,mop_08s.jpg,0.0,clockno_default.jpg,6.0,45,2.181805,,,,,,,,,,,,,,,,,,0.0,35.0,35.0,35.0,1.0,,,,,,,,,,
,,,,,,,,0.0,,,45,,0.0,1.0,2.68808,,,,,,fire_alarm_05s.jpg,exhaust_pipe_10s.jpg,,,,,,,,,,,,,0.0,0.0,0.0,0.0,1.0,,,,,
,,,,,,,,1.0,,,45,,1.0,1.0,1.424795,,,,,,juicer2_06s.jpg,duck_01b.jpg,,,,,,,,,,,,,0.0,1.0,1.0,1.0,1.0,,,,,
,,,,,,,,1.0,,,45,,0.0,0.0,1.430505,,,,,,lid_10s.jpg,rooster_03s.jpg,,,,,,,,,,,,,0.0,2.0,2.0,2.0,1.0,,,,,
,,,,,,,,1.0,,,45,,1.0,1.0,1.084595,,,,,,stethoscope_01b.jpg,jigsaw_puzzle_11s.jpg,,,,,,,,,,,,,0.0,3.0,3.0,3.0,1.0,,,,,
,,,,,,,,0.0,,,45,,0.0,1.0,0.502745,,,,,,tiger_06s.jpg,fork_04s.jpg,,,,,,,,,,,,,0.0,4.0,4.0,4.0,1.0,,,,,
,,,,,,,,0.0,,,45,,1.0,0.0,0.081025,,,,,,sugar_cube_11s.jpg,roulette_wheel_04s.jpg,,,,,,,,,,,,,0.0,5.0,5.0,5.0,1.0,,,,,
,,,,,,,,,,,45,,,,,,,,,,,,,,,,,clockno_present_2_17.xlsx,clockno_compare_task_2_17.xlsx,,,,,,,,,,,0.0,1.0,1.0,1.0,1.0
0.0,1.0,,,,,,fossil_06s.jpg,0.0,clock_5_1.png,1.0,45,2.418045,,,,,,,,,,,,,,,,,,0.0,0.0,0.0,0.0,1.0,,,,,,,,,,
0.0,1.0,,,,,,ladle_04s.jpg,0.0,clock_5_2.png,1.0,45,1.63467,,,,,,,,,,,,,,,,,,0.0,1.0,1.0,1.0,1.0,,,,,,,,,,
0.0,1.0,,,,,,moth_06n.jpg,0.0,clock_5_3.png,1.0,45,1.14837,,,,,,,,,,,,,,,,,,0.0,2.0,2.0,2.0,1.0,,,,,,,,,,
0.0,1.0,,,,,,magnet_03s.jpg,0.0,clock_5_4.png,1.0,45,1.50948,,,,,,,,,,,,,,,,,,0.0,3.0,3.0,3.0,1.0,,,,,,,,,,
1.0,1.0,,,,,,fossil_06s.jpg,1.0,clock_5_5.png,1.0,45,2.214055,,,,,,,,,,,,,,,,,,0.0,4.0,4.0,4.0,1.0,,,,,,,,,,
0.0,1.0,,,,,,joystick_01b.jpg,0.0,clock_6_1.png,2.0,45,2.139375,,,,,,,,,,,,,,,,,,0.0,5.0,5.0,5.0,1.0,,,,,,,,,,
0.0,1.0,,,,,,giraffe_11s.jpg,0.0,clock_6_2.png,2.0,45,2.44068,,,,,,,,,,,,,,,,,,0.0,6.0,6.0,6.0,1.0,,,,,,,,,,
0.0,1.0,,,,,,money_07s.jpg,0.0,clock_6_3.png,2.0,45,2.288045,,,,,,,,,,,,,,,,,,0.0,7.0,7.0,7.0,1.0,,,,,,,,,,
0.0,1.0,,,,,,lemonade_04s.jpg,0.0,clock_6_4.png,2.0,45,2.29174,,,,,,,,,,,,,,,,,,0.0,8.0,8.0,8.0,1.0,,,,,,,,,,
1.0,0.0,,,,,,fossil_06s.jpg,0.0,clock_6_5.png,2.0,45,2.29301,,,,,,,,,,,,,,,,,,0.0,9.0,9.0,9.0,1.0,,,,,,,,,,
0.0,1.0,,,,,,lectern_08s.jpg,0.0,clock_6_6.png,2.0,45,2.03489,,,,,,,,,,,,,,,,,,0.0,10.0,10.0,10.0,1.0,,,,,,,,,,
0.0,1.0,,,,,,bottle_opener_11s.jpg,0.0,clock_7_1.png,3.0,45,2.334205,,,,,,,,,,,,,,,,,,0.0,11.0,11.0,11.0,1.0,,,,,,,,,,
0.0,1.0,,,,,,pie_08s.jpg,0.0,clock_7_2.png,3.0,45,2.28983,,,,,,,,,,,,,,,,,,0.0,12.0,12.0,12.0,1.0,,,,,,,,,,
0.0,1.0,,,,,,ivy_12s.jpg,0.0,clock_7_3.png,3.0,45,2.034545,,,,,,,,,,,,,,,,,,0.0,13.0,13.0,13.0,1.0,,,,,,,,,,
0.0,1.0,,,,,,fossil_06s.jpg,0.0,clock_7_4.png,3.0,45,2.42847,,,,,,,,,,,,,,,,,,0.0,14.0,14.0,14.0,1.0,,,,,,,,,,
0.0,1.0,,,,,,thermostat_02s.jpg,0.0,clock_7_5.png,3.0,45,2.007235,,,,,,,,,,,,,,,,,,0.0,15.0,15.0,15.0,1.0,,,,,,,,,,
0.0,1.0,,,,,,plunger_08s.jpg,0.0,clock_7_6.png,3.0,45,2.27424,,,,,,,,,,,,,,,,,,0.0,16.0,16.0,16.0,1.0,,,,,,,,,,
0.0,1.0,,,,,,pepper_mill_03s.jpg,0.0,clock_7_7.png,3.0,45,2.45218,,,,,,,,,,,,,,,,,,0.0,17.0,17.0,17.0,1.0,,,,,,,,,,
0.0,1.0,,,,,,penguin_16s.jpg,0.0,clock_6_1.png,4.0,45,2.39449,,,,,,,,,,,,,,,,,,0.0,18.0,18.0,18.0,1.0,,,,,,,,,,
0.0,1.0,,,,,,turtle_08s.jpg,0.0,clock_6_2.png,4.0,45,1.95116,,,,,,,,,,,,,,,,,,0.0,19.0,19.0,19.0,1.0,,,,,,,,,,
0.0,1.0,,,,,,onion_10s.jpg,0.0,clock_6_3.png,4.0,45,2.30689,,,,,,,,,,,,,,,,,,0.0,20.0,20.0,20.0,1.0,,,,,,,,,,
0.0,1.0,,,,,,bottle_opener_11s.jpg,0.0,clock_6_4.png,4.0,45,1.282705,,,,,,,,,,,,,,,,,,0.0,21.0,21.0,21.0,1.0,,,,,,,,,,
0.0,1.0,,,,,,lava_02s.jpg,0.0,clock_6_5.png,4.0,45,2.1726,,,,,,,,,,,,,,,,,,0.0,22.0,22.0,22.0,1.0,,,,,,,,,,
0.0,1.0,,,,,,pillow_03s.jpg,0.0,clock_6_6.png,4.0,45,2.184065,,,,,,,,,,,,,,,,,,0.0,23.0,23.0,23.0,1.0,,,,,,,,,,
0.0,1.0,,,,,,ink_08s.jpg,0.0,clock_7_1.png,5.0,45,1.66661,,,,,,,,,,,,,,,,,,0.0,24.0,24.0,24.0,1.0,,,,,,,,,,
0.0,1.0,,,,,,juicer1_08s.jpg,0.0,clock_7_2.png,5.0,45,2.22785,,,,,,,,,,,,,,,,,,0.0,25.0,25.0,25.0,1.0,,,,,,,,,,
0.0,1.0,,,,,,crate_05s.jpg,0.0,clock_7_3.png,5.0,45,2.101745,,,,,,,,,,,,,,,,,,0.0,26.0,26.0,26.0,1.0,,,,,,,,,,
0.0,1.0,,,,,,gargoyle_08s.jpg,0.0,clock_7_4.png,5.0,45,2.29665,,,,,,,,,,,,,,,,,,0.0,27.0,27.0,27.0,1.0,,,,,,,,,,
0.0,1.0,,,,,,basket_05s.jpg,0.0,clock_7_5.png,5.0,45,2.20038,,,,,,,,,,,,,,,,,,0.0,28.0,28.0,28.0,1.0,,,,,,,,,,
0.0,1.0,,,,,,pepper_mill_03s.jpg,0.0,clock_7_6.png,5.0,45,2.36166,,,,,,,,,,,,,,,,,,0.0,29.0,29.0,29.0,1.0,,,,,,,,,,
0.0,1.0,,,,,,penguin_16s.jpg,0.0,clock_7_7.png,5.0,45,2.323125,,,,,,,,,,,,,,,,,,0.0,30.0,30.0,30.0,1.0,,,,,,,,,,
0.0,1.0,,,,,,quill_09s.jpg,0.0,clock_5_1.png,6.0,45,2.19614,,,,,,,,,,,,,,,,,,0.0,31.0,31.0,31.0,1.0,,,,,,,,,,
0.0,1.0,,,,,,roller_coaster_07s.jpg,0.0,clock_5_2.png,6.0,45,2.24099,,,,,,,,,,,,,,,,,,0.0,32.0,32.0,32.0,1.0,,,,,,,,,,
1.0,1.0,,,,,,roller_coaster_07s.jpg,1.0,clock_5_3.png,6.0,45,1.793115,,,,,,,,,,,,,,,,,,0.0,33.0,33.0,33.0,1.0,,,,,,,,,,
0.0,1.0,,,,,,peppermint_07s.jpg,0.0,clock_5_4.png,6.0,45,2.19556,,,,,,,,,,,,,,,,,,0.0,34.0,34.0,34.0,1.0,,,,,,,,,,
1.0,1.0,,,,,,quill_09s.jpg,1.0,clock_5_5.png,6.0,45,2.35769,,,,,,,,,,,,,,,,,,0.0,35.0,35.0,35.0,1.0,,,,,,,,,,
,,,,,,,,1.0,,,45,,1.0,1.0,1.446145,,,,,,magnet_03s.jpg,giraffe_11s.jpg,,,,,,,,,,,,,0.0,0.0,0.0,0.0,1.0,,,,,
,,,,,,,,0.0,,,45,,0.0,1.0,1.37102,,,,,,joystick_01b.jpg,moth_06n.jpg,,,,,,,,,,,,,0.0,1.0,1.0,1.0,1.0,,,,,
,,,,,,,,1.0,,,45,,1.0,1.0,1.68681,,,,,,pillow_03s.jpg,crate_05s.jpg,,,,,,,,,,,,,0.0,2.0,2.0,2.0,1.0,,,,,
,,,,,,,,1.0,,,45,,1.0,1.0,1.02596,,,,,,pie_08s.jpg,thermostat_02s.jpg,,,,,,,,,,,,,0.0,3.0,3.0,3.0,1.0,,,,,
,,,,,,,,0.0,,,45,,0.0,1.0,1.37075,,,,,,gargoyle_08s.jpg,ink_08s.jpg,,,,,,,,,,,,,0.0,4.0,4.0,4.0,1.0,,,,,
,,,,,,,,0.0,,,45,,0.0,1.0,1.180875,,,,,,lectern_08s.jpg,money_07s.jpg,,,,,,,,,,,,,0.0,5.0,5.0,5.0,1.0,,,,,
,,,,,,,,,,,45,,,,,,,,,,,,,,,,,clockno_present_3_17.xlsx,clockno_compare_task_3_17.xlsx,,,,,,,,,,,0.0,2.0,2.0,2.0,1.0
0.0,1.0,,,,,,luggage_08s.jpg,0.0,clockno_up.jpg,1.0,45,2.173705,,,,,,,,,,,,,,,,,,0.0,0.0,0.0,0.0,1.0,,,,,,,,,,
,0.0,,,,,,lamp_08s.jpg,0.0,clockno_default.jpg,1.0,45,,,,,,,,,,,,,,,,,,,0.0,1.0,1.0,1.0,1.0,,,,,,,,,,
0.0,1.0,,,,,,paper_towel_03s.jpg,0.0,clockno_default.jpg,1.0,45,2.25922,,,,,,,,,,,,,,,,,,0.0,2.0,2.0,2.0,1.0,,,,,,,,,,
0.0,1.0,,,,,,jalapeno_15s.jpg,0.0,clockno_default.jpg,1.0,45,2.140985,,,,,,,,,,,,,,,,,,0.0,3.0,3.0,3.0,1.0,,,,,,,,,,
0.0,1.0,,,,,,sledgehammer_03s.jpg,0.0,clockno_default.jpg,1.0,45,1.380725,,,,,,,,,,,,,,,,,,0.0,4.0,4.0,4.0,1.0,,,,,,,,,,
0.0,1.0,,,,,,memory_stick_11s.jpg,0.0,clockno_default.jpg,1.0,45,2.305255,,,,,,,,,,,,,,,,,,0.0,5.0,5.0,5.0,1.0,,,,,,,,,,
0.0,1.0,,,,,,thorn_13s.jpg,0.0,clockno_up.jpg,2.0,45,2.18179,,,,,,,,,,,,,,,,,,0.0,6.0,6.0,6.0,1.0,,,,,,,,,,
1.0,1.0,,,,,,thorn_13s.jpg,1.0,clockno_default.jpg,2.0,45,2.280945,,,,,,,,,,,,,,,,,,0.0,7.0,7.0,7.0,1.0,,,,,,,,,,
0.0,1.0,,,,,,butter_14s.jpg,0.0,clockno_default.jpg,2.0,45,2.43641,,,,,,,,,,,,,,,,,,0.0,8.0,8.0,8.0,1.0,,,,,,,,,,
0.0,1.0,,,,,,mug_06s.jpg,0.0,clockno_default.jpg,2.0,45,2.294425,,,,,,,,,,,,,,,,,,0.0,9.0,9.0,9.0,1.0,,,,,,,,,,
0.0,1.0,,,,,,gingerbread_man_03s.jpg,0.0,clockno_default.jpg,2.0,45,2.31929,,,,,,,,,,,,,,,,,,0.0,10.0,10.0,10.0,1.0,,,,,,,,,,
0.0,1.0,,,,,,paper_bag_12s.jpg,0.0,clockno_up.jpg,3.0,45,2.153835,,,,,,,,,,,,,,,,,,0.0,11.0,11.0,11.0,1.0,,,,,,,,,,
0.0,1.0,,,,,,machete_06s.jpg,0.0,clockno_default.jpg,3.0,45,1.95368,,,,,,,,,,,,,,,,,,0.0,12.0,12.0,12.0,1.0,,,,,,,,,,
0.0,1.0,,,,,,quad_04s.jpg,0.0,clockno_default.jpg,3.0,45,2.40954,,,,,,,,,,,,,,,,,,0.0,13.0,13.0,13.0,1.0,,,,,,,,,,
0.0,1.0,,,,,,amber_04s.jpg,0.0,clockno_default.jpg,3.0,45,2.1703,,,,,,,,,,,,,,,,,,0.0,14.0,14.0,14.0,1.0,,,,,,,,,,
0.0,1.0,,,,,,mold2_04s.jpg,0.0,clockno_default.jpg,3.0,45,1.152345,,,,,,,,,,,,,,,,,,0.0,15.0,15.0,15.0,1.0,,,,,,,,,,
0.0,1.0,,,,,,plug_08s.jpg,0.0,clockno_default.jpg,3.0,45,2.27503,,,,,,,,,,,,,,,,,,0.0,16.0,16.0,16.0,1.0,,,,,,,,,,
0.0,1.0,,,,,,ticktacktoe_08s.jpg,0.0,clockno_up.jpg,4.0,45,2.15087,,,,,,,,,,,,,,,,,,0.0,17.0,17.0,17.0,1.0,,,,,,,,,,
0.0,1.0,,,,,,tape_measure_11s.jpg,0.0,clockno_default.jpg,4.0,45,1.646015,,,,,,,,,,,,,,,,,,0.0,18.0,18.0,18.0,1.0,,,,,,,,,,
0.0,1.0,,,,,,cape_11s.jpg,0.0,clockno_default.jpg,4.0,45,2.25649,,,,,,,,,,,,,,,,,,0.0,19.0,19.0,19.0,1.0,,,,,,,,,,
1.0,1.0,,,,,,tape_measure_11s.jpg,1.0,clockno_default.jpg,4.0,45,2.428295,,,,,,,,,,,,,,,,,,0.0,20.0,20.0,20.0,1.0,,,,,,,,,,
1.0,0.0,,,,,,machete_06s.jpg,0.0,clockno_default.jpg,4.0,45,2.2357,,,,,,,,,,,,,,,,,,0.0,21.0,21.0,21.0,1.0,,,,,,,,,,
0.0,1.0,,,,,,bowler_hat_10s.jpg,0.0,clockno_default.jpg,4.0,45,1.900705,,,,,,,,,,,,,,,,,,0.0,22.0,22.0,22.0,1.0,,,,,,,,,,
0.0,1.0,,,,,,punch2_09s.jpg,0.0,clockno_default.jpg,4.0,45,2.406625,,,,,,,,,,,,,,,,,,0.0,23.0,23.0,23.0,1.0,,,,,,,,,,
0.0,1.0,,,,,,blowfish_03s.jpg,0.0,clockno_up.jpg,5.0,45,1.32306,,,,,,,,,,,,,,,,,,0.0,24.0,24.0,24.0,1.0,,,,,,,,,,
0.0,1.0,,,,,,plug_08s.jpg,0.0,clockno_default.jpg,5.0,45,2.304555,,,,,,,,,,,,,,,,,,0.0,25.0,25.0,25.0,1.0,,,,,,,,,,
0.0,1.0,,,,,,icemaker_10s.jpg,0.0,clockno_default.jpg,5.0,45,1.700045,,,,,,,,,,,,,,,,,,0.0,26.0,26.0,26.0,1.0,,,,,,,,,,
0.0,1.0,,,,,,cucumber_07s.jpg,0.0,clockno_default.jpg,5.0,45,2.35443,,,,,,,,,,,,,,,,,,0.0,27.0,27.0,27.0,1.0,,,,,,,,,,
0.0,1.0,,,,,,jetski_10s.jpg,0.0,clockno_default.jpg,5.0,45,0.58312,,,,,,,,,,,,,,,,,,0.0,28.0,28.0,28.0,1.0,,,,,,,,,,
0.0,1.0,,,,,,glasses01a.jpg,0.0,clockno_default.jpg,5.0,45,1.758615,,,,,,,,,,,,,,,,,,0.0,29.0,29.0,29.0,1.0,,,,,,,,,,
0.0,1.0,,,,,,kitten_07s.jpg,0.0,clockno_default.jpg,5.0,45,2.309635,,,,,,,,,,,,,,,,,,0.0,30.0,30.0,30.0,1.0,,,,,,,,,,
0.0,1.0,,,,,,taxi_15s.jpg,0.0,clockno_up.jpg,6.0,45,2.317845,,,,,,,,,,,,,,,,,,0.0,31.0,31.0,31.0,1.0,,,,,,,,,,
0.0,1.0,,,,,,lifesaver_10s.jpg,0.0,clockno_default.jpg,6.0,45,1.872755,,,,,,,,,,,,,,,,,,0.0,32.0,32.0,32.0,1.0,,,,,,,,,,
0.0,1.0,,,,,,power_line_08s.jpg,0.0,clockno_default.jpg,6.0,45,2.37175,,,,,,,,,,,,,,,,,,0.0,33.0,33.0,33.0,1.0,,,,,,,,,,
0.0,1.0,,,,,,lasagna_06s.jpg,0.0,clockno_default.jpg,6.0,45,2.04504,,,,,,,,,,,,,,,,,,0.0,34.0,34.0,34.0,1.0,,,,,,,,,,
1.0,1.0,,,,,,lifesaver_10s.jpg,1.0,clockno_default.jpg,6.0,45,2.288945,,,,,,,,,,,,,,,,,,0.0,35.0,35.0,35.0,1.0,,,,,,,,,,
,,,,,,,,1.0,,,45,,1.0,1.0,2.771655,,,,,,gingerbread_man_03s.jpg,quad_04s.jpg,,,,,,,,,,,,,0.0,0.0,0.0,0.0,1.0,,,,,
,,,,,,,,1.0,,,45,,1.0,1.0,1.67351,,,,,,memory_stick_11s.jpg,butter_14s.jpg,,,,,,,,,,,,,0.0,1.0,1.0,1.0,1.0,,,,,
,,,,,,,,0.0,,,45,,0.0,1.0,2.21143,,,,,,ticktacktoe_08s.jpg,amber_04s.jpg,,,,,,,,,,,,,0.0,2.0,2.0,2.0,1.0,,,,,
,,,,,,,,1.0,,,45,,1.0,1.0,1.835625,,,,,,luggage_08s.jpg,jalapeno_15s.jpg,,,,,,,,,,,,,0.0,3.0,3.0,3.0,1.0,,,,,
,,,,,,,,0.0,,,45,,1.0,0.0,1.500095,,,,,,sledgehammer_03s.jpg,lamp_08s.jpg,,,,,,,,,,,,,0.0,4.0,4.0,4.0,1.0,,,,,
,,,,,,,,0.0,,,45,,1.0,0.0,2.146695,,,,,,bowler_hat_10s.jpg,cape_11s.jpg,,,,,,,,,,,,,0.0,5.0,5.0,5.0,1.0,,,,,
,,,,,,,,,,,45,,,,,,,,,,,,,,,,,clockno_present_4_17.xlsx,clockno_compare_task_4_17.xlsx,,,,,,,,,,,0.0,3.0,3.0,3.0,1.0
0.0,1.0,,,,,,puck_06s.jpg,0.0,clockno_up.jpg,1.0,45,2.466835,,,,,,,,,,,,,,,,,,0.0,0.0,0.0,0.0,1.0,,,,,,,,,,
1.0,1.0,,,,,,puck_06s.jpg,1.0,clockno_default.jpg,1.0,45,2.00433,,,,,,,,,,,,,,,,,,0.0,1.0,1.0,1.0,1.0,,,,,,,,,,
0.0,1.0,,,,,,mannequin_05s.jpg,0.0,clockno_default.jpg,1.0,45,1.542115,,,,,,,,,,,,,,,,,,0.0,2.0,2.0,2.0,1.0,,,,,,,,,,
0.0,1.0,,,,,,rhinoceros_02s.jpg,0.0,clockno_default.jpg,1.0,45,2.308835,,,,,,,,,,,,,,,,,,0.0,3.0,3.0,3.0,1.0,,,,,,,,,,
1.0,1.0,,,,,,rhinoceros_02s.jpg,1.0,clockno_default.jpg,1.0,45,2.43588,,,,,,,,,,,,,,,,,,0.0,4.0,4.0,4.0,1.0,,,,,,,,,,
0.0,1.0,,,,,,megaphone_03s.jpg,0.0,clockno_default.jpg,1.0,45,2.216715,,,,,,,,,,,,,,,,,,0.0,5.0,5.0,5.0,1.0,,,,,,,,,,
0.0,1.0,,,,,,tulip_02s.jpg,0.0,clockno_up.jpg,2.0,45,2.38467,,,,,,,,,,,,,,,,,,0.0,6.0,6.0,6.0,1.0,,,,,,,,,,
0.0,1.0,,,,,,smoothie_09s.jpg,0.0,clockno_default.jpg,2.0,45,2.35761,,,,,,,,,,,,,,,,,,0.0,7.0,7.0,7.0,1.0,,,,,,,,,,
1.0,1.0,,,,,,smoothie_09s.jpg,1.0,clockno_default.jpg,2.0,45,2.35378,,,,,,,,,,,,,,,,,,0.0,8.0,8.0,8.0,1.0,,,,,,,,,,
0.0,1.0,,,,,,mannequin_05s.jpg,0.0,clockno_default.jpg,2.0,45,2.25229,,,,,,,,,,,,,,,,,,0.0,9.0,9.0,9.0,1.0,,,,,,,,,,
0.0,1.0,,,,,,mascara_03s.jpg,0.0,clockno_default.jpg,2.0,45,2.01858,,,,,,,,,,,,,,,,,,0.0,10.0,10.0,10.0,1.0,,,,,,,,,,
0.0,1.0,,,,,,badge_03s.jpg,0.0,clockno_default.jpg,2.0,45,2.460085,,,,,,,,,,,,,,,,,,0.0,11.0,11.0,11.0,1.0,,,,,,,,,,
1.0,0.0,,,,,,megaphone_03s.jpg,0.0,clockno_default.jpg,2.0,45,2.290795,,,,,,,,,,,,,,,,,,0.0,12.0,12.0,12.0,1.0,,,,,,,,,,
0.0,1.0,,,,,,latch_15s.jpg,0.0,clockno_up.jpg,3.0,45,2.36083,,,,,,,,,,,,,,,,,,0.0,13.0,13.0,13.0,1.0,,,,,,,,,,
0.0,1.0,,,,,,pipe1_10s.jpg,0.0,clockno_default.jpg,3.0,45,1.881375,,,,,,,,,,,,,,,,,,0.0,14.0,14.0,14.0,1.0,,,,,,,,,,
0.0,1.0,,,,,,fire_pit_10s.jpg,0.0,clockno_default.jpg,3.0,45,2.45434,,,,,,,,,,,,,,,,,,0.0,15.0,15.0,15.0,1.0,,,,,,,,,,
0.0,1.0,,,,,,pump_11s.jpg,0.0,clockno_default.jpg,3.0,45,2.07929,,,,,,,,,,,,,,,,,,0.0,16.0,16.0,16.0,1.0,,,,,,,,,,
0.0,1.0,,,,,,puppet_01b.jpg,0.0,clockno_default.jpg,3.0,45,2.30451,,,,,,,,,,,,,,,,,,0.0,17.0,17.0,17.0,1.0,,,,,,,,,,
0.0,1.0,,,,,,rhinoceros_02s.jpg,0.0,clockno_default.jpg,3.0,45,1.578435,,,,,,,,,,,,,,,,,,0.0,18.0,18.0,18.0,1.0,,,,,,,,,,
0.0,1.0,,,,,,camcorder_10s.jpg,0.0,clockno_default.jpg,3.0,45,2.26999,,,,,,,,,,,,,,,,,,0.0,19.0,19.0,19.0,1.0,,,,,,,,,,
0.0,1.0,,,,,,blender_08s.jpg,0.0,clockno_up.jpg,4.0,45,1.792245,,,,,,,,,,,,,,,,,,0.0,20.0,20.0,20.0,1.0,,,,,,,,,,
0.0,1.0,,,,,,scooter.jpg,0.0,clockno_default.jpg,4.0,45,2.267045,,,,,,,,,,,,,,,,,,0.0,21.0,21.0,21.0,1.0,,,,,,,,,,
0.0,1.0,,,,,,rocking_horse_03s.jpg,0.0,clockno_default.jpg,4.0,45,2.373895,,,,,,,,,,,,,,,,,,0.0,22.0,22.0,22.0,1.0,,,,,,,,,,
1.0,1.0,,,,,,blender_08s.jpg,1.0,clockno_default.jpg,4.0,45,2.15875,,,,,,,,,,,,,,,,,,0.0,23.0,23.0,23.0,1.0,,,,,,,,,,
0.0,1.0,,,,,,kayak_08s.jpg,0.0,clockno_default.jpg,4.0,45,2.135075,,,,,,,,,,,,,,,,,,0.0,24.0,24.0,24.0,1.0,,,,,,,,,,
0.0,1.0,,,,,,radio_09s.jpg,0.0,clockno_up.jpg,5.0,45,1.899955,,,,,,,,,,,,,,,,,,0.0,25.0,25.0,25.0,1.0,,,,,,,,,,
1.0,1.0,,,,,,radio_09s.jpg,1.0,clockno_default.jpg,5.0,45,2.08522,,,,,,,,,,,,,,,,,,0.0,26.0,26.0,26.0,1.0,,,,,,,,,,
0.0,1.0,,,,,,coffee_filter_10s.jpg,0.0,clockno_default.jpg,5.0,45,2.45811,,,,,,,,,,,,,,,,,,0.0,27.0,27.0,27.0,1.0,,,,,,,,,,
0.0,1.0,,,,,,toilet_07s.jpg,0.0,clockno_default.jpg,5.0,45,1.974715,,,,,,,,,,,,,,,,,,0.0,28.0,28.0,28.0,1.0,,,,,,,,,,
0.0,1.0,,,,,,mitten_10s.jpg,0.0,clockno_default.jpg,5.0,45,2.32964,,,,,,,,,,,,,,,,,,0.0,29.0,29.0,29.0,1.0,,,,,,,,,,
0.0,1.0,,,,,,dynamite_01b.jpg,0.0,clockno_up.jpg,6.0,45,2.22171,,,,,,,,,,,,,,,,,,0.0,30.0,30.0,30.0,1.0,,,,,,,,,,
0.0,1.0,,,,,,mask_09s.jpg,0.0,clockno_default.jpg,6.0,45,2.29686,,,,,,,,,,,,,,,,,,0.0,31.0,31.0,31.0,1.0,,,,,,,,,,
0.0,1.0,,,,,,scooter.jpg,0.0,clockno_default.jpg,6.0,45,1.96787,,,,,,,,,,,,,,,,,,0.0,32.0,32.0,32.0,1.0,,,,,,,,,,
0.0,1.0,,,,,,tambourine_06s.jpg,0.0,clockno_default.jpg,6.0,45,1.86466,,,,,,,,,,,,,,,,,,0.0,33.0,33.0,33.0,1.0,,,,,,,,,,
0.0,1.0,,,,,,top_hat_11s.jpg,0.0,clockno_default.jpg,6.0,45,2.45183,,,,,,,,,,,,,,,,,,0.0,34.0,34.0,34.0,1.0,,,,,,,,,,
0.0,1.0,,,,,,outlet_10s.jpg,0.0,clockno_default.jpg,6.0,45,2.302415,,,,,,,,,,,,,,,,,,0.0,35.0,35.0,35.0,1.0,,,,,,,,,,
,,,,,,,,1.0,,,45,,0.0,0.0,3.41054,,,,,,kayak_08s.jpg,coffee_filter_10s.jpg,,,,,,,,,,,,,0.0,0.0,0.0,0.0,1.0,,,,,
,,,,,,,,0.0,,,45,,1.0,0.0,1.902565,,,,,,latch_15s.jpg,mascara_03s.jpg,,,,,,,,,,,,,0.0,1.0,1.0,1.0,1.0,,,,,
,,,,,,,,0.0,,,45,,0.0,1.0,2.22056,,,,,,pipe1_10s.jpg,badge_03s.jpg,,,,,,,,,,,,,0.0,2.0,2.0,2.0,1.0,,,,,
,,,,,,,,1.0,,,45,,1.0,1.0,1.40299,,,,,,pump_11s.jpg,camcorder_10s.jpg,,,,,,,,,,,,,0.0,3.0,3.0,3.0,1.0,,,,,
,,,,,,,,0.0,,,45,,1.0,0.0,2.22949,,,,,,tambourine_06s.jpg,dynamite_01b.jpg,,,,,,,,,,,,,0.0,4.0,4.0,4.0,1.0,,,,,
,,,,,,,,0.0,,,45,,0.0,1.0,1.823785,,,,,,top_hat_11s.jpg,mask_09s.jpg,,,,,,,,,,,,,0.0,5.0,5.0,5.0,1.0,,,,,
,,,,,,,,,,,45,,,,,,,,,,,,,,,,,clockno_present_5_17.xlsx,clockno_compare_task_5_17.xlsx,,,,,,,,,,,0.0,4.0,4.0,4.0,1.0
0.0,1.0,,,,,,refrigerator_07s.jpg,0.0,clockno_up.jpg,1.0,45,2.20753,,,,,,,,,,,,,,,,,,0.0,0.0,0.0,0.0,1.0,,,,,,,,,,
0.0,1.0,,,,,,blazer_02s.jpg,0.0,clockno_default.jpg,1.0,45,2.348035,,,,,,,,,,,,,,,,,,0.0,1.0,1.0,1.0,1.0,,,,,,,,,,
0.0,1.0,,,,,,rudder_02s.jpg,0.0,clockno_default.jpg,1.0,45,2.19308,,,,,,,,,,,,,,,,,,0.0,2.0,2.0,2.0,1.0,,,,,,,,,,
0.0,1.0,,,,,,comic_book_02s.jpg,0.0,clockno_default.jpg,1.0,45,2.20394,,,,,,,,,,,,,,,,,,0.0,3.0,3.0,3.0,1.0,,,,,,,,,,
1.0,1.0,,,,,,comic_book_02s.jpg,1.0,clockno_default.jpg,1.0,45,2.355995,,,,,,,,,,,,,,,,,,0.0,4.0,4.0,4.0,1.0,,,,,,,,,,
0.0,1.0,,,,,,trident_07s.jpg,0.0,clockno_up.jpg,2.0,45,1.977005,,,,,,,,,,,,,,,,,,0.0,5.0,5.0,5.0,1.0,,,,,,,,,,
0.0,1.0,,,,,,candy_cane_06s.jpg,0.0,clockno_default.jpg,2.0,45,2.18072,,,,,,,,,,,,,,,,,,0.0,6.0,6.0,6.0,1.0,,,,,,,,,,
0.0,1.0,,,,,,quilt_03s.jpg,0.0,clockno_default.jpg,2.0,45,2.10919,,,,,,,,,,,,,,,,,,0.0,7.0,7.0,7.0,1.0,,,,,,,,,,
0.0,1.0,,,,,,teapot_03s.jpg,0.0,clockno_default.jpg,2.0,45,1.451585,,,,,,,,,,,,,,,,,,0.0,8.0,8.0,8.0,1.0,,,,,,,,,,
1.0,1.0,,,,,,teapot_03s.jpg,1.0,clockno_default.jpg,2.0,45,2.46942,,,,,,,,,,,,,,,,,,0.0,9.0,9.0,9.0,1.0,,,,,,,,,,
0.0,1.0,,,,,,telephone_pole_05s.jpg,0.0,clockno_default.jpg,2.0,45,2.290465,,,,,,,,,,,,,,,,,,0.0,10.0,10.0,10.0,1.0,,,,,,,,,,
0.0,1.0,,,,,,rolling_pin_02s.jpg,0.0,clockno_default.jpg,2.0,45,2.14703,,,,,,,,,,,,,,,,,,0.0,11.0,11.0,11.0,1.0,,,,,,,,,,
0.0,1.0,,,,,,tuba_12s.jpg,0.0,clockno_up.jpg,3.0,45,2.41775,,,,,,,,,,,,,,,,,,0.0,12.0,12.0,12.0,1.0,,,,,,,,,,
0.0,1.0,,,,,,smokingpipe.jpg,0.0,clockno_default.jpg,3.0,45,2.231885,,,,,,,,,,,,,,,,,,0.0,13.0,13.0,13.0,1.0,,,,,,,,,,
0.0,1.0,,,,,,panda_02s.jpg,0.0,clockno_default.jpg,3.0,45,0.951795,,,,,,,,,,,,,,,,,,0.0,14.0,14.0,14.0,1.0,,,,,,,,,,
0.0,1.0,,,,,,sleeping_bag_12s.jpg,0.0,clockno_default.jpg,3.0,45,2.367875,,,,,,,,,,,,,,,,,,0.0,15.0,15.0,15.0,1.0,,,,,,,,,,
0.0,1.0,,,,,,stamp2_08s.jpg,0.0,clockno_default.jpg,3.0,45,2.1052,,,,,,,,,,,,,,,,,,0.0,16.0,16.0,16.0,1.0,,,,,,,,,,
0.0,1.0,,,,,,kite_04s.jpg,0.0,clockno_up.jpg,4.0,45,2.419665,,,,,,,,,,,,,,,,,,0.0,17.0,17.0,17.0,1.0,,,,,,,,,,
0.0,1.0,,,,,,rocking_chair_05s.jpg,0.0,clockno_default.jpg,4.0,45,2.27077,,,,,,,,,,,,,,,,,,0.0,18.0,18.0,18.0,1.0,,,,,,,,,,
0.0,1.0,,,,,,marker_05s.jpg,0.0,clockno_default.jpg,4.0,45,2.42108,,,,,,,,,,,,,,,,,,0.0,19.0,19.0,19.0,1.0,,,,,,,,,,
0.0,1.0,,,,,,chip_04s.jpg,0.0,clockno_default.jpg,4.0,45,1.957805,,,,,,,,,,,,,,,,,,0.0,20.0,20.0,20.0,1.0,,,,,,,,,,
0.0,1.0,,,,,,pretzel_09s.jpg,0.0,clockno_default.jpg,4.0,45,2.12804,,,,,,,,,,,,,,,,,,0.0,21.0,21.0,21.0,1.0,,,,,,,,,,
0.0,1.0,,,,,,swimming_pool_17s.jpg,0.0,clockno_default.jpg,4.0,45,2.46545,,,,,,,,,,,,,,,,,,0.0,22.0,22.0,22.0,1.0,,,,,,,,,,
0.0,1.0,,,,,,spacesuit_02s.jpg,0.0,clockno_up.jpg,5.0,45,1.77314,,,,,,,,,,,,,,,,,,0.0,23.0,23.0,23.0,1.0,,,,,,,,,,
0.0,1.0,,,,,,letter_opener_03s.jpg,0.0,clockno_default.jpg,5.0,45,2.169945,,,,,,,,,,,,,,,,,,0.0,24.0,24.0,24.0,1.0,,,,,,,,,,
0.0,1.0,,,,,,cotton_candy_01b.jpg,0.0,clockno_default.jpg,5.0,45,2.067675,,,,,,,,,,,,,,,,,,0.0,25.0,25.0,25.0,1.0,,,,,,,,,,
0.0,1.0,,,,,,spatula04.jpg,0.0,clockno_default.jpg,5.0,45,0.74579,,,,,,,,,,,,,,,,,,0.0,26.0,26.0,26.0,1.0,,,,,,,,,,
1.0,1.0,,,,,,cotton_candy_01b.jpg,1.0,clockno_default.jpg,5.0,45,2.19044,,,,,,,,,,,,,,,,,,0.0,27.0,27.0,27.0,1.0,,,,,,,,,,
0.0,1.0,,,,,,boomerang_06s.jpg,0.0,clockno_default.jpg,5.0,45,1.853385,,,,,,,,,,,,,,,,,,0.0,28.0,28.0,28.0,1.0,,,,,,,,,,
0.0,1.0,,,,,,sea_urchin_09s.jpg,0.0,clockno_up.jpg,6.0,45,1.407655,,,,,,,,,,,,,,,,,,0.0,29.0,29.0,29.0,1.0,,,,,,,,,,
0.0,1.0,,,,,,slingshot_07s.jpg,0.0,clockno_default.jpg,6.0,45,1.893185,,,,,,,,,,,,,,,,,,0.0,30.0,30.0,30.0,1.0,,,,,,,,,,
0.0,1.0,,,,,,toilet_paper_12s.jpg,0.0,clockno_default.jpg,6.0,45,2.351815,,,,,,,,,,,,,,,,,,0.0,31.0,31.0,31.0,1.0,,,,,,,,,,
0.0,1.0,,,,,,polaroid_05s.jpg,0.0,clockno_default.jpg,6.0,45,2.279725,,,,,,,,,,,,,,,,,,0.0,32.0,32.0,32.0,1.0,,,,,,,,,,
0.0,1.0,,,,,,cardinal_07s.jpg,0.0,clockno_default.jpg,6.0,45,2.402275,,,,,,,,,,,,,,,,,,0.0,33.0,33.0,33.0,1.0,,,,,,,,,,
0.0,1.0,,,,,,eggshell_14s.jpg,0.0,clockno_default.jpg,6.0,45,2.112095,,,,,,,,,,,,,,,,,,0.0,34.0,34.0,34.0,1.0,,,,,,,,,,
0.0,1.0,,,,,,puddle_02s.jpg,0.0,clockno_default.jpg,6.0,45,2.404515,,,,,,,,,,,,,,,,,,0.0,35.0,35.0,35.0,1.0,,,,,,,,,,
,,,,,,,,0.0,,,45,,0.0,1.0,2.279935,,,,,,trident_07s.jpg,rudder_02s.jpg,,,,,,,,,,,,,0.0,0.0,0.0,0.0,1.0,,,,,
,,,,,,,,0.0,,,45,,0.0,1.0,3.37674,,,,,,panda_02s.jpg,rolling_pin_02s.jpg,,,,,,,,,,,,,0.0,1.0,1.0,1.0,1.0,,,,,
,,,,,,,,1.0,,,45,,1.0,1.0,2.79109,,,,,,pretzel_09s.jpg,letter_opener_03s.jpg,,,,,,,,,,,,,0.0,2.0,2.0,2.0,1.0,,,,,
,,,,,,,,1.0,,,45,,1.0,1.0,2.07144,,,,,,slingshot_07s.jpg,cardinal_07s.jpg,,,,,,,,,,,,,0.0,3.0,3.0,3.0,1.0,,,,,
,,,,,,,,1.0,,,45,,1.0,1.0,1.80205,,,,,,polaroid_05s.jpg,puddle_02s.jpg,,,,,,,,,,,,,0.0,4.0,4.0,4.0,1.0,,,,,
,,,,,,,,0.0,,,45,,0.0,1.0,2.476875,,,,,,telephone_pole_05s.jpg,quilt_03s.jpg,,,,,,,,,,,,,0.0,5.0,5.0,5.0,1.0,,,,,
