key_resp.keys,key_resp.corr,key_resp.rt,present_segment.thisRepN,present_segment.thisTrialN,present_segment.thisN,present_segment.thisIndex,present_segment.ran,pictures,answer,clock,segment,participant,key_resp_2.keys,key_resp_2.corr,key_resp_2.rt,compare_segment.thisRepN,compare_segment.thisTrialN,compare_segment.thisN,compare_segment.thisIndex,compare_segment.ran,item_a,item_b,clock_conditions.thisRepN,clock_conditions.thisTrialN,clock_conditions.thisN,clock_conditions.thisIndex,clock_conditions.ran,present,compare,noclock_present.thisRepN,noclock_present.thisTrialN,noclock_present.thisN,noclock_present.thisIndex,noclock_present.ran,noclock_compare.thisRepN,noclock_compare.thisTrialN,noclock_compare.thisN,noclock_compare.thisIndex,noclock_compare.ran,noclock_conditions.thisRepN,noclock_conditions.thisTrialN,noclock_conditions.thisN,noclock_conditions.thisIndex,noclock_conditions.ran
0.0,1.0,1.35,0.0,0.0,0.0,0.0,1.0,mop_08s.jpg,0.0,clock_5_1.png,1.0,77,,,,,,,,,,,,,,,,,,,,,,,,,,,,,,,,
0.0,1.0,1.786,0.0,1.0,1.0,1.0,1.0,inhaler_01b.jpg,0.0,clock_5_2.png,1.0,77,,,,,,,,,,,,,,,,,,,,,,,,,,,,,,,,
0.0,1.0,1.551,0.0,2.0,2.0,2.0,1.0,racehorse_03s.jpg,0.0,clock_5_3.png,1.0,77,,,,,,,,,,,,,,,,,,,,,,,,,,,,,,,,
1.0,1.0,0.985,0.0,3.0,3.0,3.0,1.0,inhaler_01b.jpg,1.0,clock_5_4.png,1.0,77,,,,,,,,,,,,,,,,,,,,,,,,,,,,,,,,
1.0,1.0,0.847,0.0,4.0,4.0,4.0,1.0,inhaler_01b.jpg,1.0,clock_5_5.png,1.0,77,,,,,,,,,,,,,,,,,,,,,,,,,,,,,,,,
0.0,1.0,1.204,0.0,5.0,5.0,5.0,1.0,crossbow_10s.jpg,0.0,clock_7_1.png,2.0,77,,,,,,,,,,,,,,,,,,,,,,,,,,,,,,,,
0.0,1.0,1.586,0.0,6.0,6.0,6.0,1.0,quad_04s.jpg,0.0,clock_7_2.png,2.0,77,,,,,,,,,,,,,,,,,,,,,,,,,,,,,,,,
0.0,1.0,1.658,0.0,7.0,7.0,7.0,1.0,mannequin_05s.jpg,0.0,clock_7_3.png,2.0,77,,,,,,,,,,,,,,,,,,,,,,,,,,,,,,,,
1.0,1.0,1.173,0.0,8.0,8.0,8.0,1.0,crossbow_10s.jpg,1.0,clock_7_4.png,2.0,77,,,,,,,,,,,,,,,,,,,,,,,,,,,,,,,,
0.0,1.0,1.55,0.0,9.0,9.0,9.0,1.0,squirt_gun_03s.jpg,0.0,clock_7_5.png,2.0,77,,,,,,,,,,,,,,,,,,,,,,,,,,,,,,,,
1.0,1.0,1.159,0.0,10.0,10.0,10.0,1.0,squirt_gun_03s.jpg,1.0,clock_7_6.png,2.0,77,,,,,,,,,,,,,,,,,,,,,,,,,,,,,,,,
0.0,1.0,1.022,0.0,11.0,11.0,11.0,1.0,coconut_08s.jpg,0.0,clock_7_7.png,2.0,77,,,,,,,,,,,,,,,,,,,,,,,,,,,,,,,,
0.0,1.0,1.205,0.0,12.0,12.0,12.0,1.0,leash_10s.jpg,0.0,clock_6_1.png,3.0,77,,,,,,,,,,,,,,,,,,,,,,,,,,,,,,,,
0.0,1.0,0.764,0.0,13.0,13.0,13.0,1.0,tattoo_14s.jpg,0.0,clock_6_2.png,3.0,77,,,,,,,,,,,,,,,,,,,,,,,,,,,,,,,,
0.0,1.0,0.763,0.0,14.0,14.0,14.0,1.0,bowler_hat_10s.jpg,0.0,clock_6_3.png,3.0,77,,,,,,,,,,,,,,,,,,,,,,,,,,,,,,,,
0.0,1.0,0.941,0.0,15.0,15.0,15.0,1.0,powder_07s.jpg,0.0,clock_6_4.png,3.0,77,,,,,,,,,,,,,,,,,,,,,,,,,,,,,,,,
1.0,1.0,0.862,0.0,16.0,16.0,16.0,1.0,powder_07s.jpg,1.0,clock_6_5.png,3.0,77,,,,,,,,,,,,,,,,,,,,,,,,,,,,,,,,
0.0,1.0,1.155,0.0,17.0,17.0,17.0,1.0,trident_07s.jpg,0.0,clock_6_6.png,3.0,77,,,,,,,,,,,,,,,,,,,,,,,,,,,,,,,,
0.0,1.0,1.062,0.0,18.0,18.0,18.0,1.0,stingray_02s.jpg,0.0,clock_6_1.png,4.0,77,,,,,,,,,,,,,,,,,,,,,,,,,,,,,,,,
0.0,1.0,1.389,0.0,19.0,19.0,19.0,1.0,target_11s.jpg,0.0,clock_6_2.png,4.0,77,,,,,,,,,,,,,,,,,,,,,,,,,,,,,,,,
0.0,1.0,0.917,0.0,20.0,20.0,20.0,1.0,parachute_03s.jpg,0.0,clock_6_3.png,4.0,77,,,,,,,,,,,,,,,,,,,,,,,,,,,,,,,,
0.0,1.0,1.169,0.0,21.0,21.0,21.0,1.0,orangutan_03s.jpg,0.0,clock_6_4.png,4.0,77,,,,,,,,,,,,,,,,,,,,,,,,,,,,,,,,
0.0,1.0,1.328,0.0,22.0,22.0,22.0,1.0,fondue_07s.jpg,0.0,clock_6_5.png,4.0,77,,,,,,,,,,,,,,,,,,,,,,,,,,,,,,,,
0.0,1.0,1.714,0.0,23.0,23.0,23.0,1.0,mask_09s.jpg,0.0,clock_6_6.png,4.0,77,,,,,,,,,,,,,,,,,,,,,,,,,,,,,,,,
0.0,1.0,1.157,0.0,24.0,24.0,24.0,1.0,chopsticks_08s.jpg,0.0,clock_5_1.png,5.0,77,,,,,,,,,,,,,,,,,,,,,,,,,,,,,,,,
0.0,1.0,1.37,0.0,25.0,25.0,25.0,1.0,dynamite_01b.jpg,0.0,clock_5_2.png,5.0,77,,,,,,,,,,,,,,,,,,,,,,,,,,,,,,,,
0.0,1.0,0.987,0.0,26.0,26.0,26.0,1.0,quilt_03s.jpg,0.0,clock_5_3.png,5.0,77,,,,,,,,,,,,,,,,,,,,,,,,,,,,,,,,
0.0,1.0,1.456,0.0,27.0,27.0,27.0,1.0,lantern_04s.jpg,0.0,clock_5_4.png,5.0,77,,,,,,,,,,,,,,,,,,,,,,,,,,,,,,,,
0.0,1.0,1.092,0.0,28.0,28.0,28.0,1.0,fondue_07s.jpg,0.0,clock_5_5.png,5.0,77,,,,,,,,,,,,,,,,,,,,,,,,,,,,,,,,
0.0,1.0,1.008,0.0,29.0,29.0,29.0,1.0,road_sign_05s.jpg,0.0,clock_7_1.png,6.0,77,,,,,,,,,,,,,,,,,,,,,,,,,,,,,,,,
0.0,1.0,1.436,0.0,30.0,30.0,30.0,1.0,swan_11s.jpg,0.0,clock_7_2.png,6.0,77,,,,,,,,,,,,,,,,,,,,,,,,,,,,,,,,
0.0,1.0,1.541,0.0,31.0,31.0,31.0,1.0,laser_pointer_02s.jpg,0.0,clock_7_3.png,6.0,77,,,,,,,,,,,,,,,,,,,,,,,,,,,,,,,,
0.0,1.0,0.823,0.0,32.0,32.0,32.0,1.0,toilet_paper_12s.jpg,0.0,clock_7_4.png,6.0,77,,,,,,,,,,,,,,,,,,,,,,,,,,,,,,,,
0.0,1.0,1.227,0.0,33.0,33.0,33.0,1.0,crate_05s.jpg,0.0,clock_7_5.png,6.0,77,,,,,,,,,,,,,,,,,,,,,,,,,,,,,,,,
0.0,1.0,1.238,0.0,34.0,34.0,34.0,1.0,recliner_02s.jpg,0.0,clock_7_6.png,6.0,77,,,,,,,,,,,,,,,,,,,,,,,,,,,,,,,,
1.0,1.0,1.038,0.0,35.0,35.0,35.0,1.0,laser_pointer_02s.jpg,1.0,clock_7_7.png,6.0,77,,,,,,,,,,,,,,,,,,,,,,,,,,,,,,,,
,,,,,,,,,1.0,,,77,0.0,0.0,2.268,0.0,0.0,0.0,0.0,1.0,coconut_08s.jpg,bowler_hat_10s.jpg,,,,,,,,,,,,,,,,,,,,,,
,,,,,,,,,0.0,,,77,0.0,1.0,3.028,0.0,1.0,1.0,1.0,1.0,quilt_03s.jpg,mask_09s.jpg,,,,,,,,,,,,,,,,,,,,,,
,,,,,,,,,0.0,,,77,0.0,1.0,4.308,0.0,2.0,2.0,2.0,1.0,parachute_03s.jpg,trident_07s.jpg,,,,,,,,,,,,,,,,,,,,,,
,,,,,,,,,1.0,,,77,1.0,1.0,1.883,0.0,3.0,3.0,3.0,1.0,stingray_02s.jpg,orangutan_03s.jpg,,,,,,,,,,,,,,,,,,,,,,
,,,,,,,,,0.0,,,77,0.0,1.0,1.848,0.0,4.0,4.0,4.0,1.0,toilet_paper_12s.jpg,road_sign_05s.jpg,,,,,,,,,,,,,,,,,,,,,,
,,,,,,,,,0.0,,,77,0.0,1.0,1.527,0.0,5.0,5.0,5.0,1.0,crate_05s.jpg,swan_11s.jpg,,,,,,,,,,,,,,,,,,,,,,
,,,,,,,,,,,,77,,,,,,,,,,,0.0,0.0,0.0,0.0,1.0,clock_present_1_9.xlsx,clock_compare_task_1_9.xlsx,,,,,,,,,,,,,,,
0.0,1.0,1.177,0.0,0.0,0.0,0.0,1.0,rocket_02s.jpg,0.0,clock_5_1.png,1.0,77,,,,,,,,,,,,,,,,,,,,,,,,,,,,,,,,
0.0,1.0,1.806,0.0,1.0,1.0,1.0,1.0,paintbrush_04s.jpg,0.0,clock_5_2.png,1.0,77,,,,,,,,,,,,,,,,,,,,,,,,,,,,,,,,
0.0,1.0,1.442,0.0,2.0,2.0,2.0,1.0,blender_08s.jpg,0.0,clock_5_3.png,1.0,77,,,,,,,,,,,,,,,,,,,,,,,,,,,,,,,,
0.0,1.0,1.113,0.0,3.0,3.0,3.0,1.0,owl_15s.jpg,0.0,clock_5_4.png,1.0,77,,,,,,,,,,,,,,,,,,,,,,,,,,,,,,,,
1.0,1.0,0.968,0.0,4.0,4.0,4.0,1.0,paintbrush_04s.jpg,1.0,clock_5_5.png,1.0,77,,,,,,,,,,,,,,,,,,,,,,,,,,,,,,,,
0.0,1.0,0.993,0.0,5.0,5.0,5.0,1.0,sparkler_02s.jpg,0.0,clock_7_1.png,2.0,77,,,,,,,,,,,,,,,,,,,,,,,,,,,,,,,,
1.0,1.0,0.877,0.0,6.0,6.0,6.0,1.0,sparkler_02s.jpg,1.0,clock_7_2.png,2.0,77,,,,,,,,,,,,,,,,,,,,,,,,,,,,,,,,
0.0,1.0,0.793,0.0,7.0,7.0,7.0,1.0,paper_towel_03s.jpg,0.0,clock_7_3.png,2.0,77,,,,,,,,,,,,,,,,,,,,,,,,,,,,,,,,
1.0,1.0,0.86,0.0,8.0,8.0,8.0,1.0,paper_towel_03s.jpg,1.0,clock_7_4.png,2.0,77,,,,,,,,,,,,,,,,,,,,,,,,,,,,,,,,
0.0,1.0,0.913,0.0,9.0,9.0,9.0,1.0,punch1_10s.jpg,0.0,clock_7_5.png,2.0,77,,,,,,,,,,,,,,,,,,,,,,,,,,,,,,,,
0.0,1.0,1.219,0.0,10.0,10.0,10.0,1.0,puppet_01b.jpg,0.0,clock_7_6.png,2.0,77,,,,,,,,,,,,,,,,,,,,,,,,,,,,,,,,
0.0,1.0,1.154,0.0,11.0,11.0,11.0,1.0,latte_06s.jpg,0.0,clock_7_7.png,2.0,77,,,,,,,,,,,,,,,,,,,,,,,,,,,,,,,,
0.0,1.0,1.081,0.0,12.0,12.0,12.0,1.0,popcorn_09s.jpg,0.0,clock_6_1.png,3.0,77,,,,,,,,,,,,,,,,,,,,,,,,,,,,,,,,
0.0,1.0,1.489,0.0,13.0,13.0,13.0,1.0,juicer2_06s.jpg,0.0,clock_6_2.png,3.0,77,,,,,,,,,,,,,,,,,,,,,,,,,,,,,,,,
0.0,1.0,1.455,0.0,14.0,14.0,14.0,1.0,teacup_07s.jpg,0.0,clock_6_3.png,3.0,77,,,,,,,,,,,,,,,,,,,,,,,,,,,,,,,,
0.0,1.0,0.898,0.0,15.0,15.0,15.0,1.0,perfume_06s.jpg,0.0,clock_6_4.png,3.0,77,,,,,,,,,,,,,,,,,,,,,,,,,,,,,,,,
0.0,1.0,0.928,0.0,16.0,16.0,16.0,1.0,megaphone_03s.jpg,0.0,clock_6_5.png,3.0,77,,,,,,,,,,,,,,,,,,,,,,,,,,,,,,,,
0.0,1.0,1.305,0.0,17.0,17.0,17.0,1.0,beard_16s.jpg,0.0,clock_6_6.png,3.0,77,,,,,,,,,,,,,,,,,,,,,,,,,,,,,,,,
0.0,1.0,0.854,0.0,18.0,18.0,18.0,1.0,telephone_pole_05s.jpg,0.0,clock_5_1.png,4.0,77,,,,,,,,,,,,,,,,,,,,,,,,,,,,,,,,
0.0,1.0,0.829,0.0,19.0,19.0,19.0,1.0,mousetrap_15n.jpg,0.0,clock_5_2.png,4.0,77,,,,,,,,,,,,,,,,,,,,,,,,,,,,,,,,
0.0,1.0,0.863,0.0,20.0,20.0,20.0,1.0,peanut_butter_08s.jpg,0.0,clock_5_3.png,4.0,77,,,,,,,,,,,,,,,,,,,,,,,,,,,,,,,,
1.0,1.0,0.805,0.0,21.0,21.0,21.0,1.0,mousetrap_15n.jpg,1.0,clock_5_4.png,4.0,77,,,,,,,,,,,,,,,,,,,,,,,,,,,,,,,,
0.0,1.0,0.846,0.0,22.0,22.0,22.0,1.0,thermostat_02s.jpg,0.0,clock_5_5.png,4.0,77,,,,,,,,,,,,,,,,,,,,,,,,,,,,,,,,
0.0,1.0,1.112,0.0,23.0,23.0,23.0,1.0,petri_dish_12s.jpg,0.0,clock_6_1.png,5.0,77,,,,,,,,,,,,,,,,,,,,,,,,,,,,,,,,
1.0,1.0,0.881,0.0,24.0,24.0,24.0,1.0,petri_dish_12s.jpg,1.0,clock_6_2.png,5.0,77,,,,,,,,,,,,,,,,,,,,,,,,,,,,,,,,
0.0,1.0,0.817,0.0,25.0,25.0,25.0,1.0,limousine_12s.jpg,0.0,clock_6_3.png,5.0,77,,,,,,,,,,,,,,,,,,,,,,,,,,,,,,,,
0.0,1.0,0.815,0.0,26.0,26.0,26.0,1.0,loveseat_08s.jpg,0.0,clock_6_4.png,5.0,77,,,,,,,,,,,,,,,,,,,,,,,,,,,,,,,,
0.0,1.0,0.8,0.0,27.0,27.0,27.0,1.0,muffin_12n.jpg,0.0,clock_6_5.png,5.0,77,,,,,,,,,,,,,,,,,,,,,,,,,,,,,,,,
0.0,1.0,1.63,0.0,28.0,28.0,28.0,1.0,orchid_01b.jpg,0.0,clock_6_6.png,5.0,77,,,,,,,,,,,,,,,,,,,,,,,,,,,,,,,,
0.0,1.0,0.916,0.0,29.0,29.0,29.0,1.0,incense_02s.jpg,0.0,clock_7_1.png,6.0,77,,,,,,,,,,,,,,,,,,,,,,,,,,,,,,,,
0.0,1.0,1.442,0.0,30.0,30.0,30.0,1.0,exhaust_pipe_10s.jpg,0.0,clock_7_2.png,6.0,77,,,,,,,,,,,,,,,,,,,,,,,,,,,,,,,,
0.0,1.0,0.961,0.0,31.0,31.0,31.0,1.0,plunger_08s.jpg,0.0,clock_7_3.png,6.0,77,,,,,,,,,,,,,,,,,,,,,,,,,,,,,,,,
0.0,1.0,1.244,0.0,32.0,32.0,32.0,1.0,orchid_01b.jpg,0.0,clock_7_4.png,6.0,77,,,,,,,,,,,,,,,,,,,,,,,,,,,,,,,,
0.0,1.0,1.638,0.0,33.0,33.0,33.0,1.0,tongs_08s.jpg,0.0,clock_7_5.png,6.0,77,,,,,,,,,,,,,,,,,,,,,,,,,,,,,,,,
0.0,1.0,0.975,0.0,34.0,34.0,34.0,1.0,pomegranate_04s.jpg,0.0,clock_7_6.png,6.0,77,,,,,,,,,,,,,,,,,,,,,,,,,,,,,,,,
1.0,1.0,1.013,0.0,35.0,35.0,35.0,1.0,exhaust_pipe_10s.jpg,1.0,clock_7_7.png,6.0,77,,,,,,,,,,,,,,,,,,,,,,,,,,,,,,,,
,,,,,,,,,0.0,,,77,0.0,1.0,3.844,0.0,0.0,0.0,0.0,1.0,limousine_12s.jpg,thermostat_02s.jpg,,,,,,,,,,,,,,,,,,,,,,
,,,,,,,,,0.0,,,77,0.0,1.0,1.427,0.0,1.0,1.0,1.0,1.0,incense_02s.jpg,loveseat_08s.jpg,,,,,,,,,,,,,,,,,,,,,,
,,,,,,,,,1.0,,,77,1.0,1.0,4.983,0.0,2.0,2.0,2.0,1.0,punch1_10s.jpg,popcorn_09s.jpg,,,,,,,,,,,,,,,,,,,,,,
,,,,,,,,,0.0,,,77,0.0,1.0,1.745,0.0,3.0,3.0,3.0,1.0,owl_15s.jpg,rocket_02s.jpg,,,,,,,,,,,,,,,,,,,,,,
,,,,,,,,,0.0,,,77,0.0,1.0,1.548,0.0,4.0,4.0,4.0,1.0,pomegranate_04s.jpg,plunger_08s.jpg,,,,,,,,,,,,,,,,,,,,,,
,,,,,,,,,0.0,,,77,0.0,1.0,2.327,0.0,5.0,5.0,5.0,1.0,megaphone_03s.jpg,juicer2_06s.jpg,,,,,,,,,,,,,,,,,,,,,,
,,,,,,,,,,,,77,,,,,,,,,,,0.0,1.0,1.0,1.0,1.0,clock_present_2_9.xlsx,clock_compare_task_2_9.xlsx,,,,,,,,,,,,,,,
0.0,1.0,1.323,0.0,0.0,0.0,0.0,1.0,teapot_03s.jpg,0.0,clock_5_1.png,1.0,77,,,,,,,,,,,,,,,,,,,,,,,,,,,,,,,,
0.0,1.0,1.26,0.0,1.0,1.0,1.0,1.0,tweezers_03s.jpg,0.0,clock_5_2.png,1.0,77,,,,,,,,,,,,,,,,,,,,,,,,,,,,,,,,
1.0,1.0,1.038,0.0,2.0,2.0,2.0,1.0,teapot_03s.jpg,1.0,clock_5_3.png,1.0,77,,,,,,,,,,,,,,,,,,,,,,,,,,,,,,,,
0.0,1.0,0.823,0.0,3.0,3.0,3.0,1.0,rocking_chair_05s.jpg,0.0,clock_5_4.png,1.0,77,,,,,,,,,,,,,,,,,,,,,,,,,,,,,,,,
1.0,1.0,0.802,0.0,4.0,4.0,4.0,1.0,rocking_chair_05s.jpg,1.0,clock_5_5.png,1.0,77,,,,,,,,,,,,,,,,,,,,,,,,,,,,,,,,
0.0,1.0,1.754,0.0,5.0,5.0,5.0,1.0,memory_stick_11s.jpg,0.0,clock_6_1.png,2.0,77,,,,,,,,,,,,,,,,,,,,,,,,,,,,,,,,
1.0,1.0,0.847,0.0,6.0,6.0,6.0,1.0,memory_stick_11s.jpg,1.0,clock_6_2.png,2.0,77,,,,,,,,,,,,,,,,,,,,,,,,,,,,,,,,
0.0,1.0,0.674,0.0,7.0,7.0,7.0,1.0,power_line_08s.jpg,0.0,clock_6_3.png,2.0,77,,,,,,,,,,,,,,,,,,,,,,,,,,,,,,,,
0.0,1.0,1.17,0.0,8.0,8.0,8.0,1.0,tambourine_06s.jpg,0.0,clock_6_4.png,2.0,77,,,,,,,,,,,,,,,,,,,,,,,,,,,,,,,,
0.0,1.0,1.139,0.0,9.0,9.0,9.0,1.0,lifesaver_10s.jpg,0.0,clock_6_5.png,2.0,77,,,,,,,,,,,,,,,,,,,,,,,,,,,,,,,,
0.0,1.0,1.739,0.0,10.0,10.0,10.0,1.0,punch2_09s.jpg,0.0,clock_6_6.png,2.0,77,,,,,,,,,,,,,,,,,,,,,,,,,,,,,,,,
0.0,1.0,1.709,0.0,11.0,11.0,11.0,1.0,feather02.jpg,0.0,clock_7_1.png,3.0,77,,,,,,,,,,,,,,,,,,,,,,,,,,,,,,,,
0.0,1.0,1.193,0.0,12.0,12.0,12.0,1.0,pencil02a.jpg,0.0,clock_7_2.png,3.0,77,,,,,,,,,,,,,,,,,,,,,,,,,,,,,,,,
0.0,1.0,1.258,0.0,13.0,13.0,13.0,1.0,radiator_05s.jpg,0.0,clock_7_3.png,3.0,77,,,,,,,,,,,,,,,,,,,,,,,,,,,,,,,,
0.0,1.0,1.609,0.0,14.0,14.0,14.0,1.0,olive_05s.jpg,0.0,clock_7_4.png,3.0,77,,,,,,,,,,,,,,,,,,,,,,,,,,,,,,,,
1.0,1.0,0.766,0.0,15.0,15.0,15.0,1.0,radiator_05s.jpg,1.0,clock_7_5.png,3.0,77,,,,,,,,,,,,,,,,,,,,,,,,,,,,,,,,
0.0,1.0,1.206,0.0,16.0,16.0,16.0,1.0,marshmallow_08s.jpg,0.0,clock_7_6.png,3.0,77,,,,,,,,,,,,,,,,,,,,,,,,,,,,,,,,
0.0,1.0,1.372,0.0,17.0,17.0,17.0,1.0,pillbox_04s.jpg,0.0,clock_7_7.png,3.0,77,,,,,,,,,,,,,,,,,,,,,,,,,,,,,,,,
0.0,1.0,1.097,0.0,18.0,18.0,18.0,1.0,laundry_basket_11s.jpg,0.0,clock_5_1.png,4.0,77,,,,,,,,,,,,,,,,,,,,,,,,,,,,,,,,
1.0,1.0,0.87,0.0,19.0,19.0,19.0,1.0,laundry_basket_11s.jpg,1.0,clock_5_2.png,4.0,77,,,,,,,,,,,,,,,,,,,,,,,,,,,,,,,,
1.0,1.0,0.803,0.0,20.0,20.0,20.0,1.0,laundry_basket_11s.jpg,1.0,clock_5_3.png,4.0,77,,,,,,,,,,,,,,,,,,,,,,,,,,,,,,,,
0.0,1.0,1.093,0.0,21.0,21.0,21.0,1.0,knitting_needle_04s.jpg,0.0,clock_5_4.png,4.0,77,,,,,,,,,,,,,,,,,,,,,,,,,,,,,,,,
0.0,1.0,0.795,0.0,22.0,22.0,22.0,1.0,machete_06s.jpg,0.0,clock_5_5.png,4.0,77,,,,,,,,,,,,,,,,,,,,,,,,,,,,,,,,
0.0,1.0,0.945,0.0,23.0,23.0,23.0,1.0,marker_05s.jpg,0.0,clock_6_1.png,5.0,77,,,,,,,,,,,,,,,,,,,,,,,,,,,,,,,,
0.0,1.0,1.716,0.0,24.0,24.0,24.0,1.0,ram_05s.jpg,0.0,clock_6_2.png,5.0,77,,,,,,,,,,,,,,,,,,,,,,,,,,,,,,,,
0.0,1.0,0.975,0.0,25.0,25.0,25.0,1.0,ukulele_02s.jpg,0.0,clock_6_3.png,5.0,77,,,,,,,,,,,,,,,,,,,,,,,,,,,,,,,,
0.0,1.0,1.33,0.0,26.0,26.0,26.0,1.0,stamp2_08s.jpg,0.0,clock_6_4.png,5.0,77,,,,,,,,,,,,,,,,,,,,,,,,,,,,,,,,
0.0,1.0,1.062,0.0,27.0,27.0,27.0,1.0,plaster_cast_13s.jpg,0.0,clock_6_5.png,5.0,77,,,,,,,,,,,,,,,,,,,,,,,,,,,,,,,,
0.0,1.0,0.955,0.0,28.0,28.0,28.0,1.0,tape_measure_11s.jpg,0.0,clock_6_6.png,5.0,77,,,,,,,,,,,,,,,,,,,,,,,,,,,,,,,,
0.0,1.0,1.001,0.0,29.0,29.0,29.0,1.0,pantyhose_07s.jpg,0.0,clock_7_1.png,6.0,77,,,,,,,,,,,,,,,,,,,,,,,,,,,,,,,,
0.0,1.0,0.95,0.0,30.0,30.0,30.0,1.0,spatula04.jpg,0.0,clock_7_2.png,6.0,77,,,,,,,,,,,,,,,,,,,,,,,,,,,,,,,,
0.0,1.0,0.817,0.0,31.0,31.0,31.0,1.0,checkbook_11s.jpg,0.0,clock_7_3.png,6.0,77,,,,,,,,,,,,,,,,,,,,,,,,,,,,,,,,
0.0,1.0,0.832,0.0,32.0,32.0,32.0,1.0,phone_01b.jpg,0.0,clock_7_4.png,6.0,77,,,,,,,,,,,,,,,,,,,,,,,,,,,,,,,,
0.0,1.0,1.061,0.0,33.0,33.0,33.0,1.0,ram_05s.jpg,0.0,clock_7_5.png,6.0,77,,,,,,,,,,,,,,,,,,,,,,,,,,,,,,,,
0.0,1.0,0.98,0.0,34.0,34.0,34.0,1.0,pillbox_04s.jpg,0.0,clock_7_6.png,6.0,77,,,,,,,,,,,,,,,,,,,,,,,,,,,,,,,,
0.0,1.0,1.328,0.0,35.0,35.0,35.0,1.0,tulip_02s.jpg,0.0,clock_7_7.png,6.0,77,,,,,,,,,,,,,,,,,,,,,,,,,,,,,,,,
,,,,,,,,,0.0,,,77,0.0,1.0,2.738,0.0,0.0,0.0,0.0,1.0,pencil02a.jpg,lifesaver_10s.jpg,,,,,,,,,,,,,,,,,,,,,,
,,,,,,,,,1.0,,,77,1.0,1.0,3.898,0.0,1.0,1.0,1.0,1.0,plaster_cast_13s.jpg,spatula04.jpg,,,,,,,,,,,,,,,,,,,,,,
,,,,,,,,,1.0,,,77,1.0,1.0,3.075,0.0,2.0,2.0,2.0,1.0,tambourine_06s.jpg,feather02.jpg,,,,,,,,,,,,,,,,,,,,,,
,,,,,,,,,0.0,,,77,0.0,1.0,1.932,0.0,3.0,3.0,3.0,1.0,punch2_09s.jpg,power_line_08s.jpg,,,,,,,,,,,,,,,,,,,,,,
,,,,,,,,,1.0,,,77,1.0,1.0,6.206,0.0,4.0,4.0,4.0,1.0,phone_01b.jpg,tulip_02s.jpg,,,,,,,,,,,,,,,,,,,,,,
,,,,,,,,,1.0,,,77,1.0,1.0,3.062,0.0,5.0,5.0,5.0,1.0,marker_05s.jpg,stamp2_08s.jpg,,,,,,,,,,,,,,,,,,,,,,
,,,,,,,,,,,,77,,,,,,,,,,,0.0,2.0,2.0,2.0,1.0,clock_present_3_9.xlsx,clock_compare_task_3_9.xlsx,,,,,,,,,,,,,,,
0.0,1.0,1.205,0.0,0.0,0.0,0.0,1.0,comic_book_02s.jpg,0.0,clock_6_1.png,1.0,77,,,,,,,,,,,,,,,,,,,,,,,,,,,,,,,,
0.0,1.0,1.163,0.0,1.0,1.0,1.0,1.0,bolo_tie_08s.jpg,0.0,clock_6_2.png,1.0,77,,,,,,,,,,,,,,,,,,,,,,,,,,,,,,,,
1.0,1.0,0.993,0.0,2.0,2.0,2.0,1.0,comic_book_02s.jpg,1.0,clock_6_3.png,1.0,77,,,,,,,,,,,,,,,,,,,,,,,,,,,,,,,,
0.0,1.0,1.609,0.0,3.0,3.0,3.0,1.0,tomato_sauce_09s.jpg,0.0,clock_6_4.png,1.0,77,,,,,,,,,,,,,,,,,,,,,,,,,,,,,,,,
0.0,1.0,1.315,0.0,4.0,4.0,4.0,1.0,tiger_06s.jpg,0.0,clock_6_5.png,1.0,77,,,,,,,,,,,,,,,,,,,,,,,,,,,,,,,,
0.0,1.0,0.861,0.0,5.0,5.0,5.0,1.0,ice-cream_cone_06s.jpg,0.0,clock_6_6.png,1.0,77,,,,,,,,,,,,,,,,,,,,,,,,,,,,,,,,
0.0,1.0,1.168,0.0,6.0,6.0,6.0,1.0,bacon_05s.jpg,0.0,clock_6_1.png,2.0,77,,,,,,,,,,,,,,,,,,,,,,,,,,,,,,,,
0.0,1.0,0.747,0.0,7.0,7.0,7.0,1.0,padlock_07s.jpg,0.0,clock_6_2.png,2.0,77,,,,,,,,,,,,,,,,,,,,,,,,,,,,,,,,
0.0,1.0,0.673,0.0,8.0,8.0,8.0,1.0,pepper2_21s.jpg,0.0,clock_6_3.png,2.0,77,,,,,,,,,,,,,,,,,,,,,,,,,,,,,,,,
0.0,1.0,1.25,0.0,9.0,9.0,9.0,1.0,possum_09s.jpg,0.0,clock_6_4.png,2.0,77,,,,,,,,,,,,,,,,,,,,,,,,,,,,,,,,
0.0,1.0,0.816,0.0,10.0,10.0,10.0,1.0,golf_club_03s.jpg,0.0,clock_6_5.png,2.0,77,,,,,,,,,,,,,,,,,,,,,,,,,,,,,,,,
1.0,1.0,0.732,0.0,11.0,11.0,11.0,1.0,golf_club_03s.jpg,1.0,clock_6_6.png,2.0,77,,,,,,,,,,,,,,,,,,,,,,,,,,,,,,,,
0.0,1.0,1.307,0.0,12.0,12.0,12.0,1.0,gear_07s.jpg,0.0,clock_7_1.png,3.0,77,,,,,,,,,,,,,,,,,,,,,,,,,,,,,,,,
0.0,1.0,1.218,0.0,13.0,13.0,13.0,1.0,lion_18s.jpg,0.0,clock_7_2.png,3.0,77,,,,,,,,,,,,,,,,,,,,,,,,,,,,,,,,
0.0,1.0,0.84,0.0,14.0,14.0,14.0,1.0,stapler_01b.jpg,0.0,clock_7_3.png,3.0,77,,,,,,,,,,,,,,,,,,,,,,,,,,,,,,,,
0.0,1.0,1.12,0.0,15.0,15.0,15.0,1.0,camcorder_10s.jpg,0.0,clock_7_4.png,3.0,77,,,,,,,,,,,,,,,,,,,,,,,,,,,,,,,,
0.0,1.0,1.236,0.0,16.0,16.0,16.0,1.0,gingerbread_man_03s.jpg,0.0,clock_7_5.png,3.0,77,,,,,,,,,,,,,,,,,,,,,,,,,,,,,,,,
0.0,1.0,1.028,0.0,17.0,17.0,17.0,1.0,pepper2_21s.jpg,0.0,clock_7_6.png,3.0,77,,,,,,,,,,,,,,,,,,,,,,,,,,,,,,,,
0.0,1.0,0.778,0.0,18.0,18.0,18.0,1.0,pea_11s.jpg,0.0,clock_7_7.png,3.0,77,,,,,,,,,,,,,,,,,,,,,,,,,,,,,,,,
0.0,1.0,1.038,0.0,19.0,19.0,19.0,1.0,peach_04s.jpg,0.0,clock_5_1.png,4.0,77,,,,,,,,,,,,,,,,,,,,,,,,,,,,,,,,
0.0,1.0,0.862,0.0,20.0,20.0,20.0,1.0,mushroom_10n.jpg,0.0,clock_5_2.png,4.0,77,,,,,,,,,,,,,,,,,,,,,,,,,,,,,,,,
0.0,1.0,1.144,0.0,21.0,21.0,21.0,1.0,swimming_pool_17s.jpg,0.0,clock_5_3.png,4.0,77,,,,,,,,,,,,,,,,,,,,,,,,,,,,,,,,
0.0,1.0,1.179,0.0,22.0,22.0,22.0,1.0,pan_02s.jpg,0.0,clock_5_4.png,4.0,77,,,,,,,,,,,,,,,,,,,,,,,,,,,,,,,,
0.0,1.0,0.991,0.0,23.0,23.0,23.0,1.0,fox_13s.jpg,0.0,clock_5_5.png,4.0,77,,,,,,,,,,,,,,,,,,,,,,,,,,,,,,,,
0.0,1.0,0.716,0.0,24.0,24.0,24.0,1.0,latch_15s.jpg,0.0,clock_7_1.png,5.0,77,,,,,,,,,,,,,,,,,,,,,,,,,,,,,,,,
0.0,1.0,0.761,0.0,25.0,25.0,25.0,1.0,tinsel_12s.jpg,0.0,clock_7_2.png,5.0,77,,,,,,,,,,,,,,,,,,,,,,,,,,,,,,,,
0.0,1.0,0.712,0.0,26.0,26.0,26.0,1.0,oil_02s.jpg,0.0,clock_7_3.png,5.0,77,,,,,,,,,,,,,,,,,,,,,,,,,,,,,,,,
0.0,1.0,0.72,0.0,27.0,27.0,27.0,1.0,pepper2_21s.jpg,0.0,clock_7_4.png,5.0,77,,,,,,,,,,,,,,,,,,,,,,,,,,,,,,,,
1.0,1.0,1.214,0.0,28.0,28.0,28.0,1.0,latch_15s.jpg,1.0,clock_7_5.png,5.0,77,,,,,,,,,,,,,,,,,,,,,,,,,,,,,,,,
0.0,1.0,0.827,0.0,29.0,29.0,29.0,1.0,sunglasses_11s.jpg,0.0,clock_7_6.png,5.0,77,,,,,,,,,,,,,,,,,,,,,,,,,,,,,,,,
0.0,1.0,1.278,0.0,30.0,30.0,30.0,1.0,diving_board_07s.jpg,0.0,clock_7_7.png,5.0,77,,,,,,,,,,,,,,,,,,,,,,,,,,,,,,,,
,0.0,,0.0,31.0,31.0,31.0,1.0,smokingpipe.jpg,0.0,clock_5_1.png,6.0,77,,,,,,,,,,,,,,,,,,,,,,,,,,,,,,,,
0.0,1.0,0.878,0.0,32.0,32.0,32.0,1.0,possum_09s.jpg,0.0,clock_5_2.png,6.0,77,,,,,,,,,,,,,,,,,,,,,,,,,,,,,,,,
0.0,1.0,0.993,0.0,33.0,33.0,33.0,1.0,beaker_01b.jpg,0.0,clock_5_3.png,6.0,77,,,,,,,,,,,,,,,,,,,,,,,,,,,,,,,,
0.0,1.0,0.694,0.0,34.0,34.0,34.0,1.0,milk_02s.jpg,0.0,clock_5_4.png,6.0,77,,,,,,,,,,,,,,,,,,,,,,,,,,,,,,,,
0.0,1.0,0.629,0.0,35.0,35.0,35.0,1.0,tuxedo_01b.jpg,0.0,clock_5_5.png,6.0,77,,,,,,,,,,,,,,,,,,,,,,,,,,,,,,,,
,,,,,,,,,0.0,,,77,0.0,1.0,2.214,0.0,0.0,0.0,0.0,1.0,bacon_05s.jpg,tomato_sauce_09s.jpg,,,,,,,,,,,,,,,,,,,,,,
,,,,,,,,,1.0,,,77,0.0,0.0,2.864,0.0,1.0,1.0,1.0,1.0,diving_board_07s.jpg,beaker_01b.jpg,,,,,,,,,,,,,,,,,,,,,,
,,,,,,,,,1.0,,,77,1.0,1.0,2.395,0.0,2.0,2.0,2.0,1.0,tiger_06s.jpg,padlock_07s.jpg,,,,,,,,,,,,,,,,,,,,,,
,,,,,,,,,0.0,,,77,0.0,1.0,2.447,0.0,3.0,3.0,3.0,1.0,camcorder_10s.jpg,gear_07s.jpg,,,,,,,,,,,,,,,,,,,,,,
,,,,,,,,,1.0,,,77,1.0,1.0,2.563,0.0,4.0,4.0,4.0,1.0,smokingpipe.jpg,milk_02s.jpg,,,,,,,,,,,,,,,,,,,,,,
,,,,,,,,,0.0,,,77,0.0,1.0,1.864,0.0,5.0,5.0,5.0,1.0,gingerbread_man_03s.jpg,lion_18s.jpg,,,,,,,,,,,,,,,,,,,,,,
,,,,,,,,,,,,77,,,,,,,,,,,0.0,3.0,3.0,3.0,1.0,clock_present_4_9.xlsx,clock_compare_task_4_9.xlsx,,,,,,,,,,,,,,,
0.0,1.0,1.23,0.0,0.0,0.0,0.0,1.0,swordfish_05s.jpg,0.0,clock_5_1.png,1.0,77,,,,,,,,,,,,,,,,,,,,,,,,,,,,,,,,
0.0,1.0,1.095,0.0,1.0,1.0,1.0,1.0,sleeping_bag_12s.jpg,0.0,clock_5_2.png,1.0,77,,,,,,,,,,,,,,,,,,,,,,,,,,,,,,,,
0.0,1.0,1.095,0.0,2.0,2.0,2.0,1.0,turnstile_08s.jpg,0.0,clock_5_3.png,1.0,77,,,,,,,,,,,,,,,,,,,,,,,,,,,,,,,,
0.0,1.0,1.149,0.0,3.0,3.0,3.0,1.0,otter_05s.jpg,0.0,clock_5_4.png,1.0,77,,,,,,,,,,,,,,,,,,,,,,,,,,,,,,,,
0.0,1.0,0.727,0.0,4.0,4.0,4.0,1.0,frame_06s.jpg,0.0,clock_5_5.png,1.0,77,,,,,,,,,,,,,,,,,,,,,,,,,,,,,,,,
0.0,1.0,1.046,0.0,5.0,5.0,5.0,1.0,icemaker_10s.jpg,0.0,clock_6_1.png,2.0,77,,,,,,,,,,,,,,,,,,,,,,,,,,,,,,,,
0.0,1.0,0.887,0.0,6.0,6.0,6.0,1.0,playpen_11s.jpg,0.0,clock_6_2.png,2.0,77,,,,,,,,,,,,,,,,,,,,,,,,,,,,,,,,
0.0,1.0,0.864,0.0,7.0,7.0,7.0,1.0,insole_11s.jpg,0.0,clock_6_3.png,2.0,77,,,,,,,,,,,,,,,,,,,,,,,,,,,,,,,,
1.0,1.0,0.854,0.0,8.0,8.0,8.0,1.0,playpen_11s.jpg,1.0,clock_6_4.png,2.0,77,,,,,,,,,,,,,,,,,,,,,,,,,,,,,,,,
0.0,1.0,0.788,0.0,9.0,9.0,9.0,1.0,metronome_03s.jpg,0.0,clock_6_5.png,2.0,77,,,,,,,,,,,,,,,,,,,,,,,,,,,,,,,,
0.0,1.0,1.091,0.0,10.0,10.0,10.0,1.0,chime_12s.jpg,0.0,clock_6_6.png,2.0,77,,,,,,,,,,,,,,,,,,,,,,,,,,,,,,,,
0.0,1.0,0.739,0.0,11.0,11.0,11.0,1.0,thread_08s.jpg,0.0,clock_7_1.png,3.0,77,,,,,,,,,,,,,,,,,,,,,,,,,,,,,,,,
0.0,1.0,0.831,0.0,12.0,12.0,12.0,1.0,lizard_10n.jpg,0.0,clock_7_2.png,3.0,77,,,,,,,,,,,,,,,,,,,,,,,,,,,,,,,,
0.0,1.0,0.781,0.0,13.0,13.0,13.0,1.0,kayak_08s.jpg,0.0,clock_7_3.png,3.0,77,,,,,,,,,,,,,,,,,,,,,,,,,,,,,,,,
0.0,1.0,0.691,0.0,14.0,14.0,14.0,1.0,coral_08s.jpg,0.0,clock_7_4.png,3.0,77,,,,,,,,,,,,,,,,,,,,,,,,,,,,,,,,
1.0,1.0,0.66,0.0,15.0,15.0,15.0,1.0,kayak_08s.jpg,1.0,clock_7_5.png,3.0,77,,,,,,,,,,,,,,,,,,,,,,,,,,,,,,,,
0.0,1.0,0.778,0.0,16.0,16.0,16.0,1.0,mailbox_11s.jpg,0.0,clock_7_6.png,3.0,77,,,,,,,,,,,,,,,,,,,,,,,,,,,,,,,,
0.0,1.0,0.946,0.0,17.0,17.0,17.0,1.0,rope_16s.jpg,0.0,clock_7_7.png,3.0,77,,,,,,,,,,,,,,,,,,,,,,,,,,,,,,,,
0.0,1.0,0.678,0.0,18.0,18.0,18.0,1.0,saddle_06s.jpg,0.0,clock_7_1.png,4.0,77,,,,,,,,,,,,,,,,,,,,,,,,,,,,,,,,
0.0,1.0,1.135,0.0,19.0,19.0,19.0,1.0,duck_01b.jpg,0.0,clock_7_2.png,4.0,77,,,,,,,,,,,,,,,,,,,,,,,,,,,,,,,,
1.0,1.0,0.74,0.0,20.0,20.0,20.0,1.0,duck_01b.jpg,1.0,clock_7_3.png,4.0,77,,,,,,,,,,,,,,,,,,,,,,,,,,,,,,,,
0.0,1.0,0.713,0.0,21.0,21.0,21.0,1.0,mitten_10s.jpg,0.0,clock_7_4.png,4.0,77,,,,,,,,,,,,,,,,,,,,,,,,,,,,,,,,
0.0,1.0,0.776,0.0,22.0,22.0,22.0,1.0,birdcage_08s.jpg,0.0,clock_7_5.png,4.0,77,,,,,,,,,,,,,,,,,,,,,,,,,,,,,,,,
0.0,1.0,1.449,0.0,23.0,23.0,23.0,1.0,birthday_cake_09s.jpg,0.0,clock_7_6.png,4.0,77,,,,,,,,,,,,,,,,,,,,,,,,,,,,,,,,
1.0,1.0,0.663,0.0,24.0,24.0,24.0,1.0,duck_01b.jpg,1.0,clock_7_7.png,4.0,77,,,,,,,,,,,,,,,,,,,,,,,,,,,,,,,,
0.0,1.0,0.821,0.0,25.0,25.0,25.0,1.0,printer_09s.jpg,0.0,clock_6_1.png,5.0,77,,,,,,,,,,,,,,,,,,,,,,,,,,,,,,,,
0.0,1.0,0.921,0.0,26.0,26.0,26.0,1.0,syringe_02s.jpg,0.0,clock_6_2.png,5.0,77,,,,,,,,,,,,,,,,,,,,,,,,,,,,,,,,
0.0,1.0,0.774,0.0,27.0,27.0,27.0,1.0,jewel_01b.jpg,0.0,clock_6_3.png,5.0,77,,,,,,,,,,,,,,,,,,,,,,,,,,,,,,,,
0.0,1.0,0.738,0.0,28.0,28.0,28.0,1.0,paper_bag_12s.jpg,0.0,clock_6_4.png,5.0,77,,,,,,,,,,,,,,,,,,,,,,,,,,,,,,,,
0.0,1.0,0.625,0.0,29.0,29.0,29.0,1.0,gargoyle_08s.jpg,0.0,clock_6_5.png,5.0,77,,,,,,,,,,,,,,,,,,,,,,,,,,,,,,,,
0.0,1.0,0.94,0.0,30.0,30.0,30.0,1.0,otter_05s.jpg,0.0,clock_6_6.png,5.0,77,,,,,,,,,,,,,,,,,,,,,,,,,,,,,,,,
0.0,1.0,0.876,0.0,31.0,31.0,31.0,1.0,seahorse_13s.jpg,0.0,clock_5_1.png,6.0,77,,,,,,,,,,,,,,,,,,,,,,,,,,,,,,,,
0.0,1.0,0.789,0.0,32.0,32.0,32.0,1.0,metronome_03s.jpg,0.0,clock_5_2.png,6.0,77,,,,,,,,,,,,,,,,,,,,,,,,,,,,,,,,
0.0,1.0,0.789,0.0,33.0,33.0,33.0,1.0,sea_urchin_09s.jpg,0.0,clock_5_3.png,6.0,77,,,,,,,,,,,,,,,,,,,,,,,,,,,,,,,,
0.0,1.0,0.809,0.0,34.0,34.0,34.0,1.0,orange_12s.jpg,0.0,clock_5_4.png,6.0,77,,,,,,,,,,,,,,,,,,,,,,,,,,,,,,,,
0.0,1.0,0.677,0.0,35.0,35.0,35.0,1.0,safety_pin_02s.jpg,0.0,clock_5_5.png,6.0,77,,,,,,,,,,,,,,,,,,,,,,,,,,,,,,,,
,,,,,,,,,0.0,,,77,0.0,1.0,3.003,0.0,0.0,0.0,0.0,1.0,icemaker_10s.jpg,turnstile_08s.jpg,,,,,,,,,,,,,,,,,,,,,,
,,,,,,,,,1.0,,,77,1.0,1.0,1.976,0.0,1.0,1.0,1.0,1.0,birdcage_08s.jpg,printer_09s.jpg,,,,,,,,,,,,,,,,,,,,,,
,,,,,,,,,1.0,,,77,1.0,1.0,2.442,0.0,2.0,2.0,2.0,1.0,birthday_cake_09s.jpg,syringe_02s.jpg,,,,,,,,,,,,,,,,,,,,,,
,,,,,,,,,1.0,,,77,1.0,1.0,1.727,0.0,3.0,3.0,3.0,1.0,thread_08s.jpg,coral_08s.jpg,,,,,,,,,,,,,,,,,,,,,,
,,,,,,,,,0.0,,,77,0.0,1.0,1.961,0.0,4.0,4.0,4.0,1.0,mitten_10s.jpg,saddle_06s.jpg,,,,,,,,,,,,,,,,,,,,,,
,,,,,,,,,1.0,,,77,1.0,1.0,1.759,0.0,5.0,5.0,5.0,1.0,sleeping_bag_12s.jpg,frame_06s.jpg,,,,,,,,,,,,,,,,,,,,,,
,,,,,,,,,,,,77,,,,,,,,,,,0.0,4.0,4.0,4.0,1.0,clock_present_5_9.xlsx,clock_compare_task_5_9.xlsx,,,,,,,,,,,,,,,
0.0,1.0,1.453,0.0,0.0,0.0,0.0,1.0,hummingbird_05s.jpg,0.0,clock_6_1.png,1.0,77,,,,,,,,,,,,,,,,,,,,,,,,,,,,,,,,
0.0,1.0,0.963,0.0,1.0,1.0,1.0,1.0,soccer_ball_12s.jpg,0.0,clock_6_2.png,1.0,77,,,,,,,,,,,,,,,,,,,,,,,,,,,,,,,,
1.0,1.0,0.732,0.0,2.0,2.0,2.0,1.0,hummingbird_05s.jpg,1.0,clock_6_3.png,1.0,77,,,,,,,,,,,,,,,,,,,,,,,,,,,,,,,,
0.0,1.0,0.729,0.0,3.0,3.0,3.0,1.0,reindeer_08s.jpg,0.0,clock_6_4.png,1.0,77,,,,,,,,,,,,,,,,,,,,,,,,,,,,,,,,
0.0,1.0,1.079,0.0,4.0,4.0,4.0,1.0,coat_rack_01b.jpg,0.0,clock_6_5.png,1.0,77,,,,,,,,,,,,,,,,,,,,,,,,,,,,,,,,
0.0,1.0,0.832,0.0,5.0,5.0,5.0,1.0,turkey_10s.jpg,0.0,clock_6_6.png,1.0,77,,,,,,,,,,,,,,,,,,,,,,,,,,,,,,,,
0.0,1.0,0.814,0.0,6.0,6.0,6.0,1.0,trumpet_06s.jpg,0.0,clock_5_1.png,2.0,77,,,,,,,,,,,,,,,,,,,,,,,,,,,,,,,,
1.0,1.0,0.773,0.0,7.0,7.0,7.0,1.0,trumpet_06s.jpg,1.0,clock_5_2.png,2.0,77,,,,,,,,,,,,,,,,,,,,,,,,,,,,,,,,
1.0,1.0,0.733,0.0,8.0,8.0,8.0,1.0,trumpet_06s.jpg,1.0,clock_5_3.png,2.0,77,,,,,,,,,,,,,,,,,,,,,,,,,,,,,,,,
0.0,1.0,0.81,0.0,9.0,9.0,9.0,1.0,hummingbird_05s.jpg,0.0,clock_5_4.png,2.0,77,,,,,,,,,,,,,,,,,,,,,,,,,,,,,,,,
0.0,1.0,1.022,0.0,10.0,10.0,10.0,1.0,projector_08s.jpg,0.0,clock_5_5.png,2.0,77,,,,,,,,,,,,,,,,,,,,,,,,,,,,,,,,
0.0,1.0,0.979,0.0,11.0,11.0,11.0,1.0,ravioli_08s.jpg,0.0,clock_5_1.png,3.0,77,,,,,,,,,,,,,,,,,,,,,,,,,,,,,,,,
0.0,1.0,1.045,0.0,12.0,12.0,12.0,1.0,pencil_sharpener_09n.jpg,0.0,clock_5_2.png,3.0,77,,,,,,,,,,,,,,,,,,,,,,,,,,,,,,,,
1.0,1.0,0.649,0.0,13.0,13.0,13.0,1.0,ravioli_08s.jpg,1.0,clock_5_3.png,3.0,77,,,,,,,,,,,,,,,,,,,,,,,,,,,,,,,,
0.0,1.0,0.879,0.0,14.0,14.0,14.0,1.0,red_carpet_03s.jpg,0.0,clock_5_4.png,3.0,77,,,,,,,,,,,,,,,,,,,,,,,,,,,,,,,,
0.0,1.0,1.246,0.0,15.0,15.0,15.0,1.0,chocolate_01b.jpg,0.0,clock_5_5.png,3.0,77,,,,,,,,,,,,,,,,,,,,,,,,,,,,,,,,
0.0,1.0,0.733,0.0,16.0,16.0,16.0,1.0,puppy_08s.jpg,0.0,clock_6_1.png,4.0,77,,,,,,,,,,,,,,,,,,,,,,,,,,,,,,,,
0.0,1.0,0.678,0.0,17.0,17.0,17.0,1.0,lab_coat_11s.jpg,0.0,clock_6_2.png,4.0,77,,,,,,,,,,,,,,,,,,,,,,,,,,,,,,,,
0.0,1.0,0.997,0.0,18.0,18.0,18.0,1.0,jet_15s.jpg,0.0,clock_6_3.png,4.0,77,,,,,,,,,,,,,,,,,,,,,,,,,,,,,,,,
0.0,1.0,0.822,0.0,19.0,19.0,19.0,1.0,pipe1_10s.jpg,0.0,clock_6_4.png,4.0,77,,,,,,,,,,,,,,,,,,,,,,,,,,,,,,,,
0.0,1.0,1.339,0.0,20.0,20.0,20.0,1.0,roller_coaster_07s.jpg,0.0,clock_6_5.png,4.0,77,,,,,,,,,,,,,,,,,,,,,,,,,,,,,,,,
0.0,1.0,0.867,0.0,21.0,21.0,21.0,1.0,rake_06s.jpg,0.0,clock_6_6.png,4.0,77,,,,,,,,,,,,,,,,,,,,,,,,,,,,,,,,
0.0,1.0,0.907,0.0,22.0,22.0,22.0,1.0,stethoscope_01b.jpg,0.0,clock_7_1.png,5.0,77,,,,,,,,,,,,,,,,,,,,,,,,,,,,,,,,
0.0,1.0,0.772,0.0,23.0,23.0,23.0,1.0,towel_rack_04s.jpg,0.0,clock_7_2.png,5.0,77,,,,,,,,,,,,,,,,,,,,,,,,,,,,,,,,
0.0,1.0,0.706,0.0,24.0,24.0,24.0,1.0,pie_08s.jpg,0.0,clock_7_3.png,5.0,77,,,,,,,,,,,,,,,,,,,,,,,,,,,,,,,,
0.0,1.0,0.855,0.0,25.0,25.0,25.0,1.0,key_07s.jpg,0.0,clock_7_4.png,5.0,77,,,,,,,,,,,,,,,,,,,,,,,,,,,,,,,,
0.0,1.0,0.711,0.0,26.0,26.0,26.0,1.0,jersey_02s.jpg,0.0,clock_7_5.png,5.0,77,,,,,,,,,,,,,,,,,,,,,,,,,,,,,,,,
0.0,1.0,0.79,0.0,27.0,27.0,27.0,1.0,tennis_ball_06s.jpg,0.0,clock_7_6.png,5.0,77,,,,,,,,,,,,,,,,,,,,,,,,,,,,,,,,
0.0,1.0,0.89,0.0,28.0,28.0,28.0,1.0,bean_06s.jpg,0.0,clock_7_7.png,5.0,77,,,,,,,,,,,,,,,,,,,,,,,,,,,,,,,,
0.0,1.0,0.894,0.0,29.0,29.0,29.0,1.0,scooter.jpg,0.0,clock_7_1.png,6.0,77,,,,,,,,,,,,,,,,,,,,,,,,,,,,,,,,
1.0,1.0,0.806,0.0,30.0,30.0,30.0,1.0,scooter.jpg,1.0,clock_7_2.png,6.0,77,,,,,,,,,,,,,,,,,,,,,,,,,,,,,,,,
1.0,1.0,0.726,0.0,31.0,31.0,31.0,1.0,scooter.jpg,1.0,clock_7_3.png,6.0,77,,,,,,,,,,,,,,,,,,,,,,,,,,,,,,,,
0.0,1.0,0.993,0.0,32.0,32.0,32.0,1.0,bubble_01b.jpg,0.0,clock_7_4.png,6.0,77,,,,,,,,,,,,,,,,,,,,,,,,,,,,,,,,
0.0,1.0,0.729,0.0,33.0,33.0,33.0,1.0,ice_pack_09s.jpg,0.0,clock_7_5.png,6.0,77,,,,,,,,,,,,,,,,,,,,,,,,,,,,,,,,
0.0,1.0,0.971,0.0,34.0,34.0,34.0,1.0,leotard_08s.jpg,0.0,clock_7_6.png,6.0,77,,,,,,,,,,,,,,,,,,,,,,,,,,,,,,,,
0.0,1.0,0.726,0.0,35.0,35.0,35.0,1.0,espresso_01b.jpg,0.0,clock_7_7.png,6.0,77,,,,,,,,,,,,,,,,,,,,,,,,,,,,,,,,
,,,,,,,,,0.0,,,77,0.0,1.0,3.544,0.0,0.0,0.0,0.0,1.0,lab_coat_11s.jpg,red_carpet_03s.jpg,,,,,,,,,,,,,,,,,,,,,,
,,,,,,,,,1.0,,,77,1.0,1.0,3.525,0.0,1.0,1.0,1.0,1.0,chocolate_01b.jpg,jet_15s.jpg,,,,,,,,,,,,,,,,,,,,,,
,,,,,,,,,0.0,,,77,0.0,1.0,1.909,0.0,2.0,2.0,2.0,1.0,stethoscope_01b.jpg,pipe1_10s.jpg,,,,,,,,,,,,,,,,,,,,,,
,,,,,,,,,0.0,,,77,0.0,1.0,2.644,0.0,3.0,3.0,3.0,1.0,coat_rack_01b.jpg,soccer_ball_12s.jpg,,,,,,,,,,,,,,,,,,,,,,
,,,,,,,,,1.0,,,77,1.0,1.0,3.731,0.0,4.0,4.0,4.0,1.0,key_07s.jpg,bean_06s.jpg,,,,,,,,,,,,,,,,,,,,,,
,,,,,,,,,1.0,,,77,0.0,0.0,2.03,0.0,5.0,5.0,5.0,1.0,bubble_01b.jpg,espresso_01b.jpg,,,,,,,,,,,,,,,,,,,,,,
0.0,1.0,1.196,,,,,,quill_09s.jpg,0.0,clockno_up.jpg,1.0,77,,,,,,,,,,,,,,,,,,0.0,0.0,0.0,0.0,1.0,,,,,,,,,,
1.0,1.0,0.909,,,,,,quill_09s.jpg,1.0,clockno_default.jpg,1.0,77,,,,,,,,,,,,,,,,,,0.0,1.0,1.0,1.0,1.0,,,,,,,,,,
0.0,1.0,0.794,,,,,,ostrich_06s.jpg,0.0,clockno_default.jpg,1.0,77,,,,,,,,,,,,,,,,,,0.0,2.0,2.0,2.0,1.0,,,,,,,,,,
0.0,1.0,0.749,,,,,,crab_16s.jpg,0.0,clockno_default.jpg,1.0,77,,,,,,,,,,,,,,,,,,0.0,3.0,3.0,3.0,1.0,,,,,,,,,,
0.0,1.0,0.965,,,,,,ladder_15s.jpg,0.0,clockno_default.jpg,1.0,77,,,,,,,,,,,,,,,,,,0.0,4.0,4.0,4.0,1.0,,,,,,,,,,
1.0,1.0,0.629,,,,,,ladder_15s.jpg,1.0,clockno_default.jpg,1.0,77,,,,,,,,,,,,,,,,,,0.0,5.0,5.0,5.0,1.0,,,,,,,,,,
0.0,1.0,0.998,,,,,,harpoon.jpg,0.0,clockno_up.jpg,2.0,77,,,,,,,,,,,,,,,,,,0.0,6.0,6.0,6.0,1.0,,,,,,,,,,
0.0,1.0,0.93,,,,,,razor_12s.jpg,0.0,clockno_default.jpg,2.0,77,,,,,,,,,,,,,,,,,,0.0,7.0,7.0,7.0,1.0,,,,,,,,,,
0.0,1.0,1.097,,,,,,bee_20s.jpg,0.0,clockno_default.jpg,2.0,77,,,,,,,,,,,,,,,,,,0.0,8.0,8.0,8.0,1.0,,,,,,,,,,
0.0,1.0,0.979,,,,,,thumbtack_14s.jpg,0.0,clockno_default.jpg,2.0,77,,,,,,,,,,,,,,,,,,0.0,9.0,9.0,9.0,1.0,,,,,,,,,,
0.0,1.0,0.862,,,,,,mug_06s.jpg,0.0,clockno_default.jpg,2.0,77,,,,,,,,,,,,,,,,,,0.0,10.0,10.0,10.0,1.0,,,,,,,,,,
0.0,1.0,0.795,,,,,,ticktacktoe_08s.jpg,0.0,clockno_up.jpg,3.0,77,,,,,,,,,,,,,,,,,,0.0,11.0,11.0,11.0,1.0,,,,,,,,,,
1.0,1.0,0.827,,,,,,ticktacktoe_08s.jpg,1.0,clockno_default.jpg,3.0,77,,,,,,,,,,,,,,,,,,0.0,12.0,12.0,12.0,1.0,,,,,,,,,,
0.0,1.0,0.842,,,,,,fireworks_18s.jpg,0.0,clockno_default.jpg,3.0,77,,,,,,,,,,,,,,,,,,0.0,13.0,13.0,13.0,1.0,,,,,,,,,,
0.0,1.0,1.111,,,,,,buoy_04s.jpg,0.0,clockno_default.jpg,3.0,77,,,,,,,,,,,,,,,,,,0.0,14.0,14.0,14.0,1.0,,,,,,,,,,
0.0,1.0,1.217,,,,,,lip_gloss_06s.jpg,0.0,clockno_default.jpg,3.0,77,,,,,,,,,,,,,,,,,,0.0,15.0,15.0,15.0,1.0,,,,,,,,,,
0.0,1.0,1.2,,,,,,surfboard_11s.jpg,0.0,clockno_up.jpg,4.0,77,,,,,,,,,,,,,,,,,,0.0,16.0,16.0,16.0,1.0,,,,,,,,,,
1.0,1.0,0.793,,,,,,surfboard_11s.jpg,1.0,clockno_default.jpg,4.0,77,,,,,,,,,,,,,,,,,,0.0,17.0,17.0,17.0,1.0,,,,,,,,,,
0.0,1.0,0.848,,,,,,jigsaw_puzzle_11s.jpg,0.0,clockno_default.jpg,4.0,77,,,,,,,,,,,,,,,,,,0.0,18.0,18.0,18.0,1.0,,,,,,,,,,
1.0,1.0,0.564,,,,,,surfboard_11s.jpg,1.0,clockno_default.jpg,4.0,77,,,,,,,,,,,,,,,,,,0.0,19.0,19.0,19.0,1.0,,,,,,,,,,
0.0,1.0,1.28,,,,,,timer_03s.jpg,0.0,clockno_default.jpg,4.0,77,,,,,,,,,,,,,,,,,,0.0,20.0,20.0,20.0,1.0,,,,,,,,,,
0.0,1.0,1.216,,,,,,fireworks_18s.jpg,0.0,clockno_default.jpg,4.0,77,,,,,,,,,,,,,,,,,,0.0,21.0,21.0,21.0,1.0,,,,,,,,,,
0.0,1.0,0.913,,,,,,turtleneck_11s.jpg,0.0,clockno_up.jpg,5.0,77,,,,,,,,,,,,,,,,,,0.0,22.0,22.0,22.0,1.0,,,,,,,,,,
0.0,1.0,0.928,,,,,,slingshot_07s.jpg,0.0,clockno_default.jpg,5.0,77,,,,,,,,,,,,,,,,,,0.0,23.0,23.0,23.0,1.0,,,,,,,,,,
0.0,1.0,0.9,,,,,,lid_10s.jpg,0.0,clockno_default.jpg,5.0,77,,,,,,,,,,,,,,,,,,0.0,24.0,24.0,24.0,1.0,,,,,,,,,,
0.0,1.0,1.526,,,,,,lasagna_06s.jpg,0.0,clockno_default.jpg,5.0,77,,,,,,,,,,,,,,,,,,0.0,25.0,25.0,25.0,1.0,,,,,,,,,,
0.0,1.0,1.114,,,,,,mud_13s.jpg,0.0,clockno_default.jpg,5.0,77,,,,,,,,,,,,,,,,,,0.0,26.0,26.0,26.0,1.0,,,,,,,,,,
0.0,1.0,1.163,,,,,,juicer1_08s.jpg,0.0,clockno_default.jpg,5.0,77,,,,,,,,,,,,,,,,,,0.0,27.0,27.0,27.0,1.0,,,,,,,,,,
0.0,1.0,0.976,,,,,,sunflower_17s.jpg,0.0,clockno_default.jpg,5.0,77,,,,,,,,,,,,,,,,,,0.0,28.0,28.0,28.0,1.0,,,,,,,,,,
0.0,1.0,1.244,,,,,,pepper_mill_03s.jpg,0.0,clockno_up.jpg,6.0,77,,,,,,,,,,,,,,,,,,0.0,29.0,29.0,29.0,1.0,,,,,,,,,,
1.0,1.0,0.998,,,,,,pepper_mill_03s.jpg,1.0,clockno_default.jpg,6.0,77,,,,,,,,,,,,,,,,,,0.0,30.0,30.0,30.0,1.0,,,,,,,,,,
0.0,1.0,1.343,,,,,,bank_06s.jpg,0.0,clockno_default.jpg,6.0,77,,,,,,,,,,,,,,,,,,0.0,31.0,31.0,31.0,1.0,,,,,,,,,,
0.0,1.0,0.895,,,,,,hyena_16s.jpg,0.0,clockno_default.jpg,6.0,77,,,,,,,,,,,,,,,,,,0.0,32.0,32.0,32.0,1.0,,,,,,,,,,
0.0,1.0,0.745,,,,,,ruby_15s.jpg,0.0,clockno_default.jpg,6.0,77,,,,,,,,,,,,,,,,,,0.0,33.0,33.0,33.0,1.0,,,,,,,,,,
0.0,1.0,1.05,,,,,,bee_20s.jpg,0.0,clockno_default.jpg,6.0,77,,,,,,,,,,,,,,,,,,0.0,34.0,34.0,34.0,1.0,,,,,,,,,,
0.0,1.0,1.531,,,,,,air_pump_05s.jpg,0.0,clockno_default.jpg,6.0,77,,,,,,,,,,,,,,,,,,0.0,35.0,35.0,35.0,1.0,,,,,,,,,,
,,,,,,,,,0.0,,,77,0.0,1.0,4.345,,,,,,jigsaw_puzzle_11s.jpg,lip_gloss_06s.jpg,,,,,,,,,,,,,0.0,0.0,0.0,0.0,1.0,,,,,
,,,,,,,,,0.0,,,77,0.0,1.0,1.359,,,,,,harpoon.jpg,crab_16s.jpg,,,,,,,,,,,,,0.0,1.0,1.0,1.0,1.0,,,,,
,,,,,,,,,0.0,,,77,1.0,0.0,2.903,,,,,,slingshot_07s.jpg,timer_03s.jpg,,,,,,,,,,,,,0.0,2.0,2.0,2.0,1.0,,,,,
,,,,,,,,,0.0,,,77,0.0,1.0,2.826,,,,,,mug_06s.jpg,razor_12s.jpg,,,,,,,,,,,,,0.0,3.0,3.0,3.0,1.0,,,,,
,,,,,,,,,0.0,,,77,0.0,1.0,1.371,,,,,,lasagna_06s.jpg,turtleneck_11s.jpg,,,,,,,,,,,,,0.0,4.0,4.0,4.0,1.0,,,,,
,,,,,,,,,1.0,,,77,1.0,1.0,1.88,,,,,,lid_10s.jpg,juicer1_08s.jpg,,,,,,,,,,,,,0.0,5.0,5.0,5.0,1.0,,,,,
,,,,,,,,,,,,77,,,,,,,,,,,,,,,,clockno_present_1_9.xlsx,clockno_compare_task_1_9.xlsx,,,,,,,,,,,0.0,0.0,0.0,0.0,1.0
0.0,1.0,1.135,,,,,,ink_08s.jpg,0.0,clockno_up.jpg,1.0,77,,,,,,,,,,,,,,,,,,0.0,0.0,0.0,0.0,1.0,,,,,,,,,,
0.0,1.0,1.144,,,,,,tuba_12s.jpg,0.0,clockno_default.jpg,1.0,77,,,,,,,,,,,,,,,,,,0.0,1.0,1.0,1.0,1.0,,,,,,,,,,
0.0,1.0,1.776,,,,,,top_hat_11s.jpg,0.0,clockno_default.jpg,1.0,77,,,,,,,,,,,,,,,,,,0.0,2.0,2.0,2.0,1.0,,,,,,,,,,
0.0,1.0,1.56,,,,,,cape_11s.jpg,0.0,clockno_default.jpg,1.0,77,,,,,,,,,,,,,,,,,,0.0,3.0,3.0,3.0,1.0,,,,,,,,,,
0.0,1.0,0.878,,,,,,mango_09s.jpg,0.0,clockno_default.jpg,1.0,77,,,,,,,,,,,,,,,,,,0.0,4.0,4.0,4.0,1.0,,,,,,,,,,
0.0,1.0,1.079,,,,,,spacesuit_02s.jpg,0.0,clockno_up.jpg,2.0,77,,,,,,,,,,,,,,,,,,0.0,5.0,5.0,5.0,1.0,,,,,,,,,,
0.0,1.0,0.769,,,,,,iron_13s.jpg,0.0,clockno_default.jpg,2.0,77,,,,,,,,,,,,,,,,,,0.0,6.0,6.0,6.0,1.0,,,,,,,,,,
0.0,1.0,0.78,,,,,,lectern_08s.jpg,0.0,clockno_default.jpg,2.0,77,,,,,,,,,,,,,,,,,,0.0,7.0,7.0,7.0,1.0,,,,,,,,,,
0.0,1.0,0.911,,,,,,contact_lens_15s.jpg,0.0,clockno_default.jpg,2.0,77,,,,,,,,,,,,,,,,,,0.0,8.0,8.0,8.0,1.0,,,,,,,,,,
1.0,1.0,0.91,,,,,,lectern_08s.jpg,1.0,clockno_default.jpg,2.0,77,,,,,,,,,,,,,,,,,,0.0,9.0,9.0,9.0,1.0,,,,,,,,,,
0.0,1.0,1.065,,,,,,funnel_01b.jpg,0.0,clockno_default.jpg,2.0,77,,,,,,,,,,,,,,,,,,0.0,10.0,10.0,10.0,1.0,,,,,,,,,,
1.0,1.0,1.011,,,,,,lectern_08s.jpg,1.0,clockno_default.jpg,2.0,77,,,,,,,,,,,,,,,,,,0.0,11.0,11.0,11.0,1.0,,,,,,,,,,
0.0,1.0,0.86,,,,,,rosary_03s.jpg,0.0,clockno_up.jpg,3.0,77,,,,,,,,,,,,,,,,,,0.0,12.0,12.0,12.0,1.0,,,,,,,,,,
0.0,1.0,0.845,,,,,,joystick_01b.jpg,0.0,clockno_default.jpg,3.0,77,,,,,,,,,,,,,,,,,,0.0,13.0,13.0,13.0,1.0,,,,,,,,,,
0.0,1.0,0.911,,,,,,peppermint_07s.jpg,0.0,clockno_default.jpg,3.0,77,,,,,,,,,,,,,,,,,,0.0,14.0,14.0,14.0,1.0,,,,,,,,,,
1.0,1.0,0.762,,,,,,peppermint_07s.jpg,1.0,clockno_default.jpg,3.0,77,,,,,,,,,,,,,,,,,,0.0,15.0,15.0,15.0,1.0,,,,,,,,,,
0.0,1.0,0.845,,,,,,pear_02s.jpg,0.0,clockno_default.jpg,3.0,77,,,,,,,,,,,,,,,,,,0.0,16.0,16.0,16.0,1.0,,,,,,,,,,
1.0,1.0,0.884,,,,,,pear_02s.jpg,1.0,clockno_default.jpg,3.0,77,,,,,,,,,,,,,,,,,,0.0,17.0,17.0,17.0,1.0,,,,,,,,,,
0.0,1.0,1.099,,,,,,treasure_08s.jpg,0.0,clockno_up.jpg,4.0,77,,,,,,,,,,,,,,,,,,0.0,18.0,18.0,18.0,1.0,,,,,,,,,,
0.0,1.0,1.053,,,,,,peppermint_07s.jpg,0.0,clockno_default.jpg,4.0,77,,,,,,,,,,,,,,,,,,0.0,19.0,19.0,19.0,1.0,,,,,,,,,,
0.0,1.0,0.993,,,,,,mixer_12s.jpg,0.0,clockno_default.jpg,4.0,77,,,,,,,,,,,,,,,,,,0.0,20.0,20.0,20.0,1.0,,,,,,,,,,
0.0,1.0,0.844,,,,,,hydrant_10s.jpg,0.0,clockno_default.jpg,4.0,77,,,,,,,,,,,,,,,,,,0.0,21.0,21.0,21.0,1.0,,,,,,,,,,
0.0,1.0,1.225,,,,,,sugar_cube_11s.jpg,0.0,clockno_default.jpg,4.0,77,,,,,,,,,,,,,,,,,,0.0,22.0,22.0,22.0,1.0,,,,,,,,,,
0.0,1.0,0.896,,,,,,margarita_03s.jpg,0.0,clockno_up.jpg,5.0,77,,,,,,,,,,,,,,,,,,0.0,23.0,23.0,23.0,1.0,,,,,,,,,,
0.0,1.0,0.828,,,,,,submarine_11n.jpg,0.0,clockno_default.jpg,5.0,77,,,,,,,,,,,,,,,,,,0.0,24.0,24.0,24.0,1.0,,,,,,,,,,
0.0,1.0,1.061,,,,,,mascara_03s.jpg,0.0,clockno_default.jpg,5.0,77,,,,,,,,,,,,,,,,,,0.0,25.0,25.0,25.0,1.0,,,,,,,,,,
1.0,1.0,0.91,,,,,,mascara_03s.jpg,1.0,clockno_default.jpg,5.0,77,,,,,,,,,,,,,,,,,,0.0,26.0,26.0,26.0,1.0,,,,,,,,,,
0.0,1.0,0.764,,,,,,seagull_01b.jpg,0.0,clockno_default.jpg,5.0,77,,,,,,,,,,,,,,,,,,0.0,27.0,27.0,27.0,1.0,,,,,,,,,,
0.0,1.0,0.815,,,,,,koala_13s.jpg,0.0,clockno_default.jpg,5.0,77,,,,,,,,,,,,,,,,,,0.0,28.0,28.0,28.0,1.0,,,,,,,,,,
0.0,1.0,0.946,,,,,,umbrella_15s.jpg,0.0,clockno_up.jpg,6.0,77,,,,,,,,,,,,,,,,,,0.0,29.0,29.0,29.0,1.0,,,,,,,,,,
1.0,1.0,0.777,,,,,,umbrella_15s.jpg,1.0,clockno_default.jpg,6.0,77,,,,,,,,,,,,,,,,,,0.0,30.0,30.0,30.0,1.0,,,,,,,,,,
1.0,1.0,0.948,,,,,,umbrella_15s.jpg,1.0,clockno_default.jpg,6.0,77,,,,,,,,,,,,,,,,,,0.0,31.0,31.0,31.0,1.0,,,,,,,,,,
1.0,1.0,0.751,,,,,,umbrella_15s.jpg,1.0,clockno_default.jpg,6.0,77,,,,,,,,,,,,,,,,,,0.0,32.0,32.0,32.0,1.0,,,,,,,,,,
0.0,1.0,1.228,,,,,,stopwatch_04s.jpg,0.0,clockno_default.jpg,6.0,77,,,,,,,,,,,,,,,,,,0.0,33.0,33.0,33.0,1.0,,,,,,,,,,
0.0,1.0,0.744,,,,,,gazelle_10s.jpg,0.0,clockno_default.jpg,6.0,77,,,,,,,,,,,,,,,,,,0.0,34.0,34.0,34.0,1.0,,,,,,,,,,
0.0,1.0,0.868,,,,,,peppermint_07s.jpg,0.0,clockno_default.jpg,6.0,77,,,,,,,,,,,,,,,,,,0.0,35.0,35.0,35.0,1.0,,,,,,,,,,
,,,,,,,,,0.0,,,77,0.0,1.0,6.86,,,,,,joystick_01b.jpg,funnel_01b.jpg,,,,,,,,,,,,,0.0,0.0,0.0,0.0,1.0,,,,,
,,,,,,,,,0.0,,,77,0.0,1.0,3.74,,,,,,margarita_03s.jpg,mixer_12s.jpg,,,,,,,,,,,,,0.0,1.0,1.0,1.0,1.0,,,,,
,,,,,,,,,0.0,,,77,0.0,1.0,2.572,,,,,,spacesuit_02s.jpg,top_hat_11s.jpg,,,,,,,,,,,,,0.0,2.0,2.0,2.0,1.0,,,,,
,,,,,,,,,1.0,,,77,1.0,1.0,1.878,,,,,,tuba_12s.jpg,mango_09s.jpg,,,,,,,,,,,,,0.0,3.0,3.0,3.0,1.0,,,,,
,,,,,,,,,0.0,,,77,0.0,1.0,1.294,,,,,,cape_11s.jpg,ink_08s.jpg,,,,,,,,,,,,,0.0,4.0,4.0,4.0,1.0,,,,,
,,,,,,,,,0.0,,,77,1.0,0.0,2.263,,,,,,hydrant_10s.jpg,treasure_08s.jpg,,,,,,,,,,,,,0.0,5.0,5.0,5.0,1.0,,,,,
,,,,,,,,,,,,77,,,,,,,,,,,,,,,,clockno_present_2_9.xlsx,clockno_compare_task_2_9.xlsx,,,,,,,,,,,0.0,1.0,1.0,1.0,1.0
0.0,1.0,1.011,,,,,,rolling_pin_02s.jpg,0.0,clockno_up.jpg,1.0,77,,,,,,,,,,,,,,,,,,0.0,0.0,0.0,0.0,1.0,,,,,,,,,,
0.0,1.0,1.397,,,,,,purse_05s.jpg,0.0,clockno_default.jpg,1.0,77,,,,,,,,,,,,,,,,,,0.0,1.0,1.0,1.0,1.0,,,,,,,,,,
0.0,1.0,1.665,,,,,,mosquito_12s.jpg,0.0,clockno_default.jpg,1.0,77,,,,,,,,,,,,,,,,,,0.0,2.0,2.0,2.0,1.0,,,,,,,,,,
1.0,1.0,0.962,,,,,,rolling_pin_02s.jpg,1.0,clockno_default.jpg,1.0,77,,,,,,,,,,,,,,,,,,0.0,3.0,3.0,3.0,1.0,,,,,,,,,,
0.0,1.0,0.977,,,,,,raccoon_02s.jpg,0.0,clockno_default.jpg,1.0,77,,,,,,,,,,,,,,,,,,0.0,4.0,4.0,4.0,1.0,,,,,,,,,,
0.0,1.0,0.831,,,,,,cushion_08s.jpg,0.0,clockno_up.jpg,2.0,77,,,,,,,,,,,,,,,,,,0.0,5.0,5.0,5.0,1.0,,,,,,,,,,
1.0,1.0,0.765,,,,,,cushion_08s.jpg,1.0,clockno_default.jpg,2.0,77,,,,,,,,,,,,,,,,,,0.0,6.0,6.0,6.0,1.0,,,,,,,,,,
0.0,1.0,0.727,,,,,,pocketknife_12s.jpg,0.0,clockno_default.jpg,2.0,77,,,,,,,,,,,,,,,,,,0.0,7.0,7.0,7.0,1.0,,,,,,,,,,
0.0,1.0,1.245,,,,,,mosquito_12s.jpg,0.0,clockno_default.jpg,2.0,77,,,,,,,,,,,,,,,,,,0.0,8.0,8.0,8.0,1.0,,,,,,,,,,
1.0,1.0,1.0,,,,,,cushion_08s.jpg,1.0,clockno_default.jpg,2.0,77,,,,,,,,,,,,,,,,,,0.0,9.0,9.0,9.0,1.0,,,,,,,,,,
0.0,1.0,0.967,,,,,,stump_02s.jpg,0.0,clockno_default.jpg,2.0,77,,,,,,,,,,,,,,,,,,0.0,10.0,10.0,10.0,1.0,,,,,,,,,,
0.0,1.0,1.057,,,,,,kite_04s.jpg,0.0,clockno_up.jpg,3.0,77,,,,,,,,,,,,,,,,,,0.0,11.0,11.0,11.0,1.0,,,,,,,,,,
1.0,1.0,0.696,,,,,,kite_04s.jpg,1.0,clockno_default.jpg,3.0,77,,,,,,,,,,,,,,,,,,0.0,12.0,12.0,12.0,1.0,,,,,,,,,,
0.0,1.0,0.931,,,,,,letter_opener_03s.jpg,0.0,clockno_default.jpg,3.0,77,,,,,,,,,,,,,,,,,,0.0,13.0,13.0,13.0,1.0,,,,,,,,,,
0.0,1.0,0.963,,,,,,sundae_08s.jpg,0.0,clockno_default.jpg,3.0,77,,,,,,,,,,,,,,,,,,0.0,14.0,14.0,14.0,1.0,,,,,,,,,,
0.0,1.0,1.429,,,,,,cushion_08s.jpg,0.0,clockno_default.jpg,3.0,77,,,,,,,,,,,,,,,,,,0.0,15.0,15.0,15.0,1.0,,,,,,,,,,
0.0,1.0,1.516,,,,,,eggshell_14s.jpg,0.0,clockno_default.jpg,3.0,77,,,,,,,,,,,,,,,,,,0.0,16.0,16.0,16.0,1.0,,,,,,,,,,
0.0,1.0,1.226,,,,,,raft_09s.jpg,0.0,clockno_default.jpg,3.0,77,,,,,,,,,,,,,,,,,,0.0,17.0,17.0,17.0,1.0,,,,,,,,,,
0.0,1.0,1.043,,,,,,potpourri_03s.jpg,0.0,clockno_up.jpg,4.0,77,,,,,,,,,,,,,,,,,,0.0,18.0,18.0,18.0,1.0,,,,,,,,,,
1.0,1.0,0.781,,,,,,potpourri_03s.jpg,1.0,clockno_default.jpg,4.0,77,,,,,,,,,,,,,,,,,,0.0,19.0,19.0,19.0,1.0,,,,,,,,,,
0.0,1.0,0.878,,,,,,cobra_05s.jpg,0.0,clockno_default.jpg,4.0,77,,,,,,,,,,,,,,,,,,0.0,20.0,20.0,20.0,1.0,,,,,,,,,,
1.0,1.0,0.862,,,,,,potpourri_03s.jpg,1.0,clockno_default.jpg,4.0,77,,,,,,,,,,,,,,,,,,0.0,21.0,21.0,21.0,1.0,,,,,,,,,,
0.0,1.0,1.043,,,,,,rocking_horse_03s.jpg,0.0,clockno_default.jpg,4.0,77,,,,,,,,,,,,,,,,,,0.0,22.0,22.0,22.0,1.0,,,,,,,,,,
0.0,1.0,0.93,,,,,,bonsai_07s.jpg,0.0,clockno_up.jpg,5.0,77,,,,,,,,,,,,,,,,,,0.0,23.0,23.0,23.0,1.0,,,,,,,,,,
0.0,1.0,0.711,,,,,,kangaroo_02s.jpg,0.0,clockno_default.jpg,5.0,77,,,,,,,,,,,,,,,,,,0.0,24.0,24.0,24.0,1.0,,,,,,,,,,
0.0,1.0,0.83,,,,,,onion_10s.jpg,0.0,clockno_default.jpg,5.0,77,,,,,,,,,,,,,,,,,,0.0,25.0,25.0,25.0,1.0,,,,,,,,,,
0.0,1.0,1.191,,,,,,mosquito_12s.jpg,0.0,clockno_default.jpg,5.0,77,,,,,,,,,,,,,,,,,,0.0,26.0,26.0,26.0,1.0,,,,,,,,,,
0.0,1.0,0.826,,,,,,money_07s.jpg,0.0,clockno_default.jpg,5.0,77,,,,,,,,,,,,,,,,,,0.0,27.0,27.0,27.0,1.0,,,,,,,,,,
0.0,1.0,0.806,,,,,,pretzel_09s.jpg,0.0,clockno_default.jpg,5.0,77,,,,,,,,,,,,,,,,,,0.0,28.0,28.0,28.0,1.0,,,,,,,,,,
0.0,1.0,0.8,,,,,,magnet_03s.jpg,0.0,clockno_up.jpg,6.0,77,,,,,,,,,,,,,,,,,,0.0,29.0,29.0,29.0,1.0,,,,,,,,,,
0.0,1.0,0.993,,,,,,outlet_10s.jpg,0.0,clockno_default.jpg,6.0,77,,,,,,,,,,,,,,,,,,0.0,30.0,30.0,30.0,1.0,,,,,,,,,,
0.0,1.0,0.763,,,,,,candy_cane_06s.jpg,0.0,clockno_default.jpg,6.0,77,,,,,,,,,,,,,,,,,,0.0,31.0,31.0,31.0,1.0,,,,,,,,,,
0.0,1.0,1.293,,,,,,treadmill_06s.jpg,0.0,clockno_default.jpg,6.0,77,,,,,,,,,,,,,,,,,,0.0,32.0,32.0,32.0,1.0,,,,,,,,,,
1.0,1.0,0.812,,,,,,treadmill_06s.jpg,1.0,clockno_default.jpg,6.0,77,,,,,,,,,,,,,,,,,,0.0,33.0,33.0,33.0,1.0,,,,,,,,,,
0.0,1.0,1.062,,,,,,boomerang_06s.jpg,0.0,clockno_default.jpg,6.0,77,,,,,,,,,,,,,,,,,,0.0,34.0,34.0,34.0,1.0,,,,,,,,,,
0.0,1.0,1.06,,,,,,rocking_horse_03s.jpg,0.0,clockno_default.jpg,6.0,77,,,,,,,,,,,,,,,,,,0.0,35.0,35.0,35.0,1.0,,,,,,,,,,
,,,,,,,,,1.0,,,77,1.0,1.0,2.114,,,,,,cobra_05s.jpg,bonsai_07s.jpg,,,,,,,,,,,,,0.0,0.0,0.0,0.0,1.0,,,,,
,,,,,,,,,0.0,,,77,0.0,1.0,4.04,,,,,,outlet_10s.jpg,money_07s.jpg,,,,,,,,,,,,,0.0,1.0,1.0,1.0,1.0,,,,,
,,,,,,,,,0.0,,,77,0.0,1.0,6.024,,,,,,pocketknife_12s.jpg,raccoon_02s.jpg,,,,,,,,,,,,,0.0,2.0,2.0,2.0,1.0,,,,,
,,,,,,,,,1.0,,,77,1.0,1.0,2.202,,,,,,letter_opener_03s.jpg,eggshell_14s.jpg,,,,,,,,,,,,,0.0,3.0,3.0,3.0,1.0,,,,,
,,,,,,,,,0.0,,,77,0.0,1.0,1.446,,,,,,raft_09s.jpg,sundae_08s.jpg,,,,,,,,,,,,,0.0,4.0,4.0,4.0,1.0,,,,,
,,,,,,,,,1.0,,,77,1.0,1.0,2.309,,,,,,onion_10s.jpg,pretzel_09s.jpg,,,,,,,,,,,,,0.0,5.0,5.0,5.0,1.0,,,,,
,,,,,,,,,,,,77,,,,,,,,,,,,,,,,clockno_present_3_9.xlsx,clockno_compare_task_3_9.xlsx,,,,,,,,,,,0.0,2.0,2.0,2.0,1.0
0.0,1.0,0.909,,,,,,rock_08s.jpg,0.0,clockno_up.jpg,1.0,77,,,,,,,,,,,,,,,,,,0.0,0.0,0.0,0.0,1.0,,,,,,,,,,
0.0,1.0,1.471,,,,,,poinsettia_04s.jpg,0.0,clockno_default.jpg,1.0,77,,,,,,,,,,,,,,,,,,0.0,1.0,1.0,1.0,1.0,,,,,,,,,,
0.0,1.0,1.059,,,,,,briefcase_03s.jpg,0.0,clockno_default.jpg,1.0,77,,,,,,,,,,,,,,,,,,0.0,2.0,2.0,2.0,1.0,,,,,,,,,,
1.0,1.0,1.115,,,,,,rock_08s.jpg,1.0,clockno_default.jpg,1.0,77,,,,,,,,,,,,,,,,,,0.0,3.0,3.0,3.0,1.0,,,,,,,,,,
0.0,1.0,0.878,,,,,,pincushion_10s.jpg,0.0,clockno_default.jpg,1.0,77,,,,,,,,,,,,,,,,,,0.0,4.0,4.0,4.0,1.0,,,,,,,,,,
1.0,1.0,1.144,,,,,,briefcase_03s.jpg,1.0,clockno_default.jpg,1.0,77,,,,,,,,,,,,,,,,,,0.0,5.0,5.0,5.0,1.0,,,,,,,,,,
0.0,1.0,0.878,,,,,,ant_12s.jpg,0.0,clockno_up.jpg,2.0,77,,,,,,,,,,,,,,,,,,0.0,6.0,6.0,6.0,1.0,,,,,,,,,,
1.0,1.0,0.828,,,,,,ant_12s.jpg,1.0,clockno_default.jpg,2.0,77,,,,,,,,,,,,,,,,,,0.0,7.0,7.0,7.0,1.0,,,,,,,,,,
0.0,1.0,0.863,,,,,,measuring_cup_02s.jpg,0.0,clockno_default.jpg,2.0,77,,,,,,,,,,,,,,,,,,0.0,8.0,8.0,8.0,1.0,,,,,,,,,,
0.0,1.0,1.027,,,,,,glue_01s.jpg,0.0,clockno_default.jpg,2.0,77,,,,,,,,,,,,,,,,,,0.0,9.0,9.0,9.0,1.0,,,,,,,,,,
0.0,1.0,0.7,,,,,,rice_12s.jpg,0.0,clockno_default.jpg,2.0,77,,,,,,,,,,,,,,,,,,0.0,10.0,10.0,10.0,1.0,,,,,,,,,,
0.0,1.0,0.796,,,,,,toad_09s.jpg,0.0,clockno_default.jpg,2.0,77,,,,,,,,,,,,,,,,,,0.0,11.0,11.0,11.0,1.0,,,,,,,,,,
0.0,1.0,1.017,,,,,,rudder_02s.jpg,0.0,clockno_default.jpg,2.0,77,,,,,,,,,,,,,,,,,,0.0,12.0,12.0,12.0,1.0,,,,,,,,,,
0.0,1.0,0.729,,,,,,lamb_04s.jpg,0.0,clockno_up.jpg,3.0,77,,,,,,,,,,,,,,,,,,0.0,13.0,13.0,13.0,1.0,,,,,,,,,,
0.0,1.0,0.662,,,,,,rhinoceros_02s.jpg,0.0,clockno_default.jpg,3.0,77,,,,,,,,,,,,,,,,,,0.0,14.0,14.0,14.0,1.0,,,,,,,,,,
0.0,1.0,1.061,,,,,,crystal_ball_12s.jpg,0.0,clockno_default.jpg,3.0,77,,,,,,,,,,,,,,,,,,0.0,15.0,15.0,15.0,1.0,,,,,,,,,,
0.0,1.0,1.48,,,,,,ivy_12s.jpg,0.0,clockno_default.jpg,3.0,77,,,,,,,,,,,,,,,,,,0.0,16.0,16.0,16.0,1.0,,,,,,,,,,
0.0,1.0,0.778,,,,,,bathtub_23s.jpg,0.0,clockno_default.jpg,3.0,77,,,,,,,,,,,,,,,,,,0.0,17.0,17.0,17.0,1.0,,,,,,,,,,
0.0,1.0,1.31,,,,,,omelet_07s.jpg,0.0,clockno_up.jpg,4.0,77,,,,,,,,,,,,,,,,,,0.0,18.0,18.0,18.0,1.0,,,,,,,,,,
1.0,1.0,0.826,,,,,,omelet_07s.jpg,1.0,clockno_default.jpg,4.0,77,,,,,,,,,,,,,,,,,,0.0,19.0,19.0,19.0,1.0,,,,,,,,,,
0.0,1.0,0.879,,,,,,lamb_04s.jpg,0.0,clockno_default.jpg,4.0,77,,,,,,,,,,,,,,,,,,0.0,20.0,20.0,20.0,1.0,,,,,,,,,,
0.0,1.0,1.016,,,,,,amber_04s.jpg,0.0,clockno_default.jpg,4.0,77,,,,,,,,,,,,,,,,,,0.0,21.0,21.0,21.0,1.0,,,,,,,,,,
0.0,1.0,1.209,,,,,,rug_09s.jpg,0.0,clockno_default.jpg,4.0,77,,,,,,,,,,,,,,,,,,0.0,22.0,22.0,22.0,1.0,,,,,,,,,,
0.0,1.0,0.999,,,,,,go-kart_10s.jpg,0.0,clockno_default.jpg,4.0,77,,,,,,,,,,,,,,,,,,0.0,23.0,23.0,23.0,1.0,,,,,,,,,,
0.0,1.0,0.747,,,,,,clover_04s.jpg,0.0,clockno_default.jpg,4.0,77,,,,,,,,,,,,,,,,,,0.0,24.0,24.0,24.0,1.0,,,,,,,,,,
0.0,1.0,0.998,,,,,,mattress_01s.jpg,0.0,clockno_up.jpg,5.0,77,,,,,,,,,,,,,,,,,,0.0,25.0,25.0,25.0,1.0,,,,,,,,,,
0.0,1.0,0.846,,,,,,refrigerator_07s.jpg,0.0,clockno_default.jpg,5.0,77,,,,,,,,,,,,,,,,,,0.0,26.0,26.0,26.0,1.0,,,,,,,,,,
0.0,1.0,0.664,,,,,,briefcase_03s.jpg,0.0,clockno_default.jpg,5.0,77,,,,,,,,,,,,,,,,,,0.0,27.0,27.0,27.0,1.0,,,,,,,,,,
0.0,1.0,0.862,,,,,,footprint_11s.jpg,0.0,clockno_default.jpg,5.0,77,,,,,,,,,,,,,,,,,,0.0,28.0,28.0,28.0,1.0,,,,,,,,,,
0.0,1.0,0.845,,,,,,penlight_12s.jpg,0.0,clockno_default.jpg,5.0,77,,,,,,,,,,,,,,,,,,0.0,29.0,29.0,29.0,1.0,,,,,,,,,,
0.0,1.0,0.797,,,,,,rabbit_03s.jpg,0.0,clockno_default.jpg,5.0,77,,,,,,,,,,,,,,,,,,0.0,30.0,30.0,30.0,1.0,,,,,,,,,,
0.0,1.0,0.928,,,,,,pacifier_09s.jpg,0.0,clockno_up.jpg,6.0,77,,,,,,,,,,,,,,,,,,0.0,31.0,31.0,31.0,1.0,,,,,,,,,,
0.0,1.0,0.867,,,,,,meatball_13s.jpg,0.0,clockno_default.jpg,6.0,77,,,,,,,,,,,,,,,,,,0.0,32.0,32.0,32.0,1.0,,,,,,,,,,
0.0,1.0,0.878,,,,,,ladle_04s.jpg,0.0,clockno_default.jpg,6.0,77,,,,,,,,,,,,,,,,,,0.0,33.0,33.0,33.0,1.0,,,,,,,,,,
0.0,1.0,0.945,,,,,,fishhook_06s.jpg,0.0,clockno_default.jpg,6.0,77,,,,,,,,,,,,,,,,,,0.0,34.0,34.0,34.0,1.0,,,,,,,,,,
0.0,1.0,0.779,,,,,,piano_13n.jpg,0.0,clockno_default.jpg,6.0,77,,,,,,,,,,,,,,,,,,0.0,35.0,35.0,35.0,1.0,,,,,,,,,,
,,,,,,,,,1.0,,,77,1.0,1.0,2.382,,,,,,rabbit_03s.jpg,ladle_04s.jpg,,,,,,,,,,,,,0.0,0.0,0.0,0.0,1.0,,,,,
,,,,,,,,,1.0,,,77,1.0,1.0,3.908,,,,,,rudder_02s.jpg,crystal_ball_12s.jpg,,,,,,,,,,,,,0.0,1.0,1.0,1.0,1.0,,,,,
,,,,,,,,,0.0,,,77,1.0,0.0,2.603,,,,,,mattress_01s.jpg,rug_09s.jpg,,,,,,,,,,,,,0.0,2.0,2.0,2.0,1.0,,,,,
,,,,,,,,,0.0,,,77,0.0,1.0,1.91,,,,,,pincushion_10s.jpg,poinsettia_04s.jpg,,,,,,,,,,,,,0.0,3.0,3.0,3.0,1.0,,,,,
,,,,,,,,,0.0,,,77,0.0,1.0,3.095,,,,,,clover_04s.jpg,amber_04s.jpg,,,,,,,,,,,,,0.0,4.0,4.0,4.0,1.0,,,,,
,,,,,,,,,1.0,,,77,1.0,1.0,1.51,,,,,,measuring_cup_02s.jpg,toad_09s.jpg,,,,,,,,,,,,,0.0,5.0,5.0,5.0,1.0,,,,,
,,,,,,,,,,,,77,,,,,,,,,,,,,,,,clockno_present_4_9.xlsx,clockno_compare_task_4_9.xlsx,,,,,,,,,,,0.0,3.0,3.0,3.0,1.0
0.0,1.0,1.78,,,,,,basket_05s.jpg,0.0,clockno_up.jpg,1.0,77,,,,,,,,,,,,,,,,,,0.0,0.0,0.0,0.0,1.0,,,,,,,,,,
0.0,1.0,1.53,,,,,,glasses01a.jpg,0.0,clockno_default.jpg,1.0,77,,,,,,,,,,,,,,,,,,0.0,1.0,1.0,1.0,1.0,,,,,,,,,,
1.0,1.0,0.848,,,,,,basket_05s.jpg,1.0,clockno_default.jpg,1.0,77,,,,,,,,,,,,,,,,,,0.0,2.0,2.0,2.0,1.0,,,,,,,,,,
1.0,1.0,1.011,,,,,,glasses01a.jpg,1.0,clockno_default.jpg,1.0,77,,,,,,,,,,,,,,,,,,0.0,3.0,3.0,3.0,1.0,,,,,,,,,,
1.0,1.0,0.936,,,,,,basket_05s.jpg,1.0,clockno_default.jpg,1.0,77,,,,,,,,,,,,,,,,,,0.0,4.0,4.0,4.0,1.0,,,,,,,,,,
1.0,1.0,0.686,,,,,,basket_05s.jpg,1.0,clockno_default.jpg,1.0,77,,,,,,,,,,,,,,,,,,0.0,5.0,5.0,5.0,1.0,,,,,,,,,,
0.0,1.0,0.961,,,,,,gong_02s.jpg,0.0,clockno_default.jpg,1.0,77,,,,,,,,,,,,,,,,,,0.0,6.0,6.0,6.0,1.0,,,,,,,,,,
0.0,1.0,1.143,,,,,,frog_09s.jpg,0.0,clockno_up.jpg,2.0,77,,,,,,,,,,,,,,,,,,0.0,7.0,7.0,7.0,1.0,,,,,,,,,,
0.0,1.0,0.702,,,,,,luggage_08s.jpg,0.0,clockno_default.jpg,2.0,77,,,,,,,,,,,,,,,,,,0.0,8.0,8.0,8.0,1.0,,,,,,,,,,
0.0,1.0,1.046,,,,,,basket_05s.jpg,0.0,clockno_default.jpg,2.0,77,,,,,,,,,,,,,,,,,,0.0,9.0,9.0,9.0,1.0,,,,,,,,,,
1.0,1.0,0.893,,,,,,luggage_08s.jpg,1.0,clockno_default.jpg,2.0,77,,,,,,,,,,,,,,,,,,0.0,10.0,10.0,10.0,1.0,,,,,,,,,,
0.0,1.0,1.031,,,,,,glasses01a.jpg,0.0,clockno_default.jpg,2.0,77,,,,,,,,,,,,,,,,,,0.0,11.0,11.0,11.0,1.0,,,,,,,,,,
0.0,1.0,0.828,,,,,,lemonade_04s.jpg,0.0,clockno_up.jpg,3.0,77,,,,,,,,,,,,,,,,,,0.0,12.0,12.0,12.0,1.0,,,,,,,,,,
0.0,1.0,0.731,,,,,,trampoline_13s.jpg,0.0,clockno_default.jpg,3.0,77,,,,,,,,,,,,,,,,,,0.0,13.0,13.0,13.0,1.0,,,,,,,,,,
0.0,1.0,0.644,,,,,,pancake_12s.jpg,0.0,clockno_default.jpg,3.0,77,,,,,,,,,,,,,,,,,,0.0,14.0,14.0,14.0,1.0,,,,,,,,,,
0.0,1.0,1.414,,,,,,glasses01a.jpg,0.0,clockno_default.jpg,3.0,77,,,,,,,,,,,,,,,,,,0.0,15.0,15.0,15.0,1.0,,,,,,,,,,
0.0,1.0,0.737,,,,,,fire_alarm_05s.jpg,0.0,clockno_default.jpg,3.0,77,,,,,,,,,,,,,,,,,,0.0,16.0,16.0,16.0,1.0,,,,,,,,,,
0.0,1.0,0.831,,,,,,piggy_bank_02s.jpg,0.0,clockno_up.jpg,4.0,77,,,,,,,,,,,,,,,,,,0.0,17.0,17.0,17.0,1.0,,,,,,,,,,
0.0,1.0,0.678,,,,,,solar_panel_02s.jpg,0.0,clockno_default.jpg,4.0,77,,,,,,,,,,,,,,,,,,0.0,18.0,18.0,18.0,1.0,,,,,,,,,,
1.0,1.0,1.296,,,,,,piggy_bank_02s.jpg,1.0,clockno_default.jpg,4.0,77,,,,,,,,,,,,,,,,,,0.0,19.0,19.0,19.0,1.0,,,,,,,,,,
0.0,1.0,0.912,,,,,,eyedropper_12s.jpg,0.0,clockno_default.jpg,4.0,77,,,,,,,,,,,,,,,,,,0.0,20.0,20.0,20.0,1.0,,,,,,,,,,
0.0,1.0,0.838,,,,,,tile_08s.jpg,0.0,clockno_default.jpg,4.0,77,,,,,,,,,,,,,,,,,,0.0,21.0,21.0,21.0,1.0,,,,,,,,,,
0.0,1.0,0.831,,,,,,cereal_04s.jpg,0.0,clockno_default.jpg,4.0,77,,,,,,,,,,,,,,,,,,0.0,22.0,22.0,22.0,1.0,,,,,,,,,,
0.0,1.0,0.893,,,,,,kettle_08s.jpg,0.0,clockno_up.jpg,5.0,77,,,,,,,,,,,,,,,,,,0.0,23.0,23.0,23.0,1.0,,,,,,,,,,
0.0,1.0,1.345,,,,,,ironing_board_07s.jpg,0.0,clockno_default.jpg,5.0,77,,,,,,,,,,,,,,,,,,0.0,24.0,24.0,24.0,1.0,,,,,,,,,,
1.0,1.0,0.948,,,,,,ironing_board_07s.jpg,1.0,clockno_default.jpg,5.0,77,,,,,,,,,,,,,,,,,,0.0,25.0,25.0,25.0,1.0,,,,,,,,,,
0.0,1.0,0.967,,,,,,turf_03s.jpg,0.0,clockno_default.jpg,5.0,77,,,,,,,,,,,,,,,,,,0.0,26.0,26.0,26.0,1.0,,,,,,,,,,
0.0,1.0,1.227,,,,,,keyboard_05s.jpg,0.0,clockno_default.jpg,5.0,77,,,,,,,,,,,,,,,,,,0.0,27.0,27.0,27.0,1.0,,,,,,,,,,
0.0,1.0,0.863,,,,,,pocket_watch_16s.jpg,0.0,clockno_default.jpg,5.0,77,,,,,,,,,,,,,,,,,,0.0,28.0,28.0,28.0,1.0,,,,,,,,,,
0.0,1.0,1.228,,,,,,emerald_02s.jpg,0.0,clockno_default.jpg,5.0,77,,,,,,,,,,,,,,,,,,0.0,29.0,29.0,29.0,1.0,,,,,,,,,,
0.0,1.0,0.945,,,,,,pineapple_12s.jpg,0.0,clockno_up.jpg,6.0,77,,,,,,,,,,,,,,,,,,0.0,30.0,30.0,30.0,1.0,,,,,,,,,,
0.0,1.0,0.864,,,,,,blazer_02s.jpg,0.0,clockno_default.jpg,6.0,77,,,,,,,,,,,,,,,,,,0.0,31.0,31.0,31.0,1.0,,,,,,,,,,
0.0,1.0,0.927,,,,,,pinwheel_06s.jpg,0.0,clockno_default.jpg,6.0,77,,,,,,,,,,,,,,,,,,0.0,32.0,32.0,32.0,1.0,,,,,,,,,,
0.0,1.0,0.732,,,,,,sushi_08s.jpg,0.0,clockno_default.jpg,6.0,77,,,,,,,,,,,,,,,,,,0.0,33.0,33.0,33.0,1.0,,,,,,,,,,
0.0,1.0,1.06,,,,,,kilt_18s.jpg,0.0,clockno_default.jpg,6.0,77,,,,,,,,,,,,,,,,,,0.0,34.0,34.0,34.0,1.0,,,,,,,,,,
0.0,1.0,0.862,,,,,,tab_09s.jpg,0.0,clockno_default.jpg,6.0,77,,,,,,,,,,,,,,,,,,0.0,35.0,35.0,35.0,1.0,,,,,,,,,,
,,,,,,,,,0.0,,,77,0.0,1.0,3.498,,,,,,kettle_08s.jpg,eyedropper_12s.jpg,,,,,,,,,,,,,0.0,0.0,0.0,0.0,1.0,,,,,
,,,,,,,,,0.0,,,77,0.0,1.0,2.565,,,,,,pineapple_12s.jpg,keyboard_05s.jpg,,,,,,,,,,,,,0.0,1.0,1.0,1.0,1.0,,,,,
,,,,,,,,,1.0,,,77,1.0,1.0,2.109,,,,,,pocket_watch_16s.jpg,blazer_02s.jpg,,,,,,,,,,,,,0.0,2.0,2.0,2.0,1.0,,,,,
,,,,,,,,,1.0,,,77,1.0,1.0,1.678,,,,,,trampoline_13s.jpg,fire_alarm_05s.jpg,,,,,,,,,,,,,0.0,3.0,3.0,3.0,1.0,,,,,
,,,,,,,,,0.0,,,77,0.0,1.0,1.496,,,,,,tile_08s.jpg,solar_panel_02s.jpg,,,,,,,,,,,,,0.0,4.0,4.0,4.0,1.0,,,,,
,,,,,,,,,0.0,,,77,0.0,1.0,2.507,,,,,,emerald_02s.jpg,turf_03s.jpg,,,,,,,,,,,,,0.0,5.0,5.0,5.0,1.0,,,,,
,,,,,,,,,,,,77,,,,,,,,,,,,,,,,clockno_present_5_9.xlsx,clockno_compare_task_5_9.xlsx,,,,,,,,,,,0.0,4.0,4.0,4.0,1.0
0.0,1.0,1.097,,,,,,undershirt_02s.jpg,0.0,clockno_up.jpg,1.0,77,,,,,,,,,,,,,,,,,,0.0,0.0,0.0,0.0,1.0,,,,,,,,,,
0.0,1.0,2.144,,,,,,giraffe_11s.jpg,0.0,clockno_default.jpg,1.0,77,,,,,,,,,,,,,,,,,,0.0,1.0,1.0,1.0,1.0,,,,,,,,,,
1.0,1.0,0.663,,,,,,undershirt_02s.jpg,1.0,clockno_default.jpg,1.0,77,,,,,,,,,,,,,,,,,,0.0,2.0,2.0,2.0,1.0,,,,,,,,,,
0.0,1.0,0.778,,,,,,puffin_19s.jpg,0.0,clockno_default.jpg,1.0,77,,,,,,,,,,,,,,,,,,0.0,3.0,3.0,3.0,1.0,,,,,,,,,,
0.0,1.0,1.095,,,,,,puddle_02s.jpg,0.0,clockno_default.jpg,1.0,77,,,,,,,,,,,,,,,,,,0.0,4.0,4.0,4.0,1.0,,,,,,,,,,
1.0,1.0,1.296,,,,,,giraffe_11s.jpg,1.0,clockno_default.jpg,1.0,77,,,,,,,,,,,,,,,,,,0.0,5.0,5.0,5.0,1.0,,,,,,,,,,
0.0,1.0,0.843,,,,,,lipstick_02s.jpg,0.0,clockno_default.jpg,1.0,77,,,,,,,,,,,,,,,,,,0.0,6.0,6.0,6.0,1.0,,,,,,,,,,
0.0,1.0,0.911,,,,,,cotton_candy_01b.jpg,0.0,clockno_up.jpg,2.0,77,,,,,,,,,,,,,,,,,,0.0,7.0,7.0,7.0,1.0,,,,,,,,,,
1.0,1.0,0.825,,,,,,cotton_candy_01b.jpg,1.0,clockno_default.jpg,2.0,77,,,,,,,,,,,,,,,,,,0.0,8.0,8.0,8.0,1.0,,,,,,,,,,
0.0,1.0,1.005,,,,,,abacus_12s.jpg,0.0,clockno_default.jpg,2.0,77,,,,,,,,,,,,,,,,,,0.0,9.0,9.0,9.0,1.0,,,,,,,,,,
0.0,1.0,1.096,,,,,,toaster_03s.jpg,0.0,clockno_default.jpg,2.0,77,,,,,,,,,,,,,,,,,,0.0,10.0,10.0,10.0,1.0,,,,,,,,,,
1.0,1.0,0.815,,,,,,toaster_03s.jpg,1.0,clockno_default.jpg,2.0,77,,,,,,,,,,,,,,,,,,0.0,11.0,11.0,11.0,1.0,,,,,,,,,,
0.0,1.0,0.945,,,,,,toy_04s.jpg,0.0,clockno_default.jpg,2.0,77,,,,,,,,,,,,,,,,,,0.0,12.0,12.0,12.0,1.0,,,,,,,,,,
0.0,1.0,1.443,,,,,,chip_04s.jpg,0.0,clockno_up.jpg,3.0,77,,,,,,,,,,,,,,,,,,0.0,13.0,13.0,13.0,1.0,,,,,,,,,,
0.0,1.0,1.246,,,,,,flask_04s.jpg,0.0,clockno_default.jpg,3.0,77,,,,,,,,,,,,,,,,,,0.0,14.0,14.0,14.0,1.0,,,,,,,,,,
0.0,1.0,0.884,,,,,,lamppost_09s.jpg,0.0,clockno_default.jpg,3.0,77,,,,,,,,,,,,,,,,,,0.0,15.0,15.0,15.0,1.0,,,,,,,,,,
1.0,1.0,0.795,,,,,,lamppost_09s.jpg,1.0,clockno_default.jpg,3.0,77,,,,,,,,,,,,,,,,,,0.0,16.0,16.0,16.0,1.0,,,,,,,,,,
0.0,1.0,1.044,,,,,,tripod_01b.jpg,0.0,clockno_default.jpg,3.0,77,,,,,,,,,,,,,,,,,,0.0,17.0,17.0,17.0,1.0,,,,,,,,,,
0.0,1.0,1.215,,,,,,flip_flop_03s.jpg,0.0,clockno_up.jpg,4.0,77,,,,,,,,,,,,,,,,,,0.0,18.0,18.0,18.0,1.0,,,,,,,,,,
1.0,1.0,0.793,,,,,,flip_flop_03s.jpg,1.0,clockno_default.jpg,4.0,77,,,,,,,,,,,,,,,,,,0.0,19.0,19.0,19.0,1.0,,,,,,,,,,
0.0,1.0,0.812,,,,,,abacus_12s.jpg,0.0,clockno_default.jpg,4.0,77,,,,,,,,,,,,,,,,,,0.0,20.0,20.0,20.0,1.0,,,,,,,,,,
1.0,1.0,0.685,,,,,,flip_flop_03s.jpg,1.0,clockno_default.jpg,4.0,77,,,,,,,,,,,,,,,,,,0.0,21.0,21.0,21.0,1.0,,,,,,,,,,
0.0,1.0,0.826,,,,,,rooster_03s.jpg,0.0,clockno_default.jpg,4.0,77,,,,,,,,,,,,,,,,,,0.0,22.0,22.0,22.0,1.0,,,,,,,,,,
0.0,1.0,0.794,,,,,,boar_10s.jpg,0.0,clockno_up.jpg,5.0,77,,,,,,,,,,,,,,,,,,0.0,23.0,23.0,23.0,1.0,,,,,,,,,,
0.0,1.0,1.037,,,,,,spoon02a.jpg,0.0,clockno_default.jpg,5.0,77,,,,,,,,,,,,,,,,,,0.0,24.0,24.0,24.0,1.0,,,,,,,,,,
0.0,1.0,0.728,,,,,,rhubarb_03s.jpg,0.0,clockno_default.jpg,5.0,77,,,,,,,,,,,,,,,,,,0.0,25.0,25.0,25.0,1.0,,,,,,,,,,
0.0,1.0,0.795,,,,,,thorn_13s.jpg,0.0,clockno_default.jpg,5.0,77,,,,,,,,,,,,,,,,,,0.0,26.0,26.0,26.0,1.0,,,,,,,,,,
0.0,1.0,0.864,,,,,,badge_03s.jpg,0.0,clockno_default.jpg,5.0,77,,,,,,,,,,,,,,,,,,0.0,27.0,27.0,27.0,1.0,,,,,,,,,,
0.0,1.0,0.995,,,,,,penguin_16s.jpg,0.0,clockno_default.jpg,5.0,77,,,,,,,,,,,,,,,,,,0.0,28.0,28.0,28.0,1.0,,,,,,,,,,
0.0,1.0,0.996,,,,,,fur_coat_11s.jpg,0.0,clockno_default.jpg,5.0,77,,,,,,,,,,,,,,,,,,0.0,29.0,29.0,29.0,1.0,,,,,,,,,,
0.0,1.0,1.078,,,,,,quesadilla_07s.jpg,0.0,clockno_up.jpg,6.0,77,,,,,,,,,,,,,,,,,,0.0,30.0,30.0,30.0,1.0,,,,,,,,,,
0.0,1.0,1.012,,,,,,teabag_12s.jpg,0.0,clockno_default.jpg,6.0,77,,,,,,,,,,,,,,,,,,0.0,31.0,31.0,31.0,1.0,,,,,,,,,,
0.0,1.0,1.083,,,,,,smoothie_09s.jpg,0.0,clockno_default.jpg,6.0,77,,,,,,,,,,,,,,,,,,0.0,32.0,32.0,32.0,1.0,,,,,,,,,,
0.0,1.0,0.908,,,,,,lava_02s.jpg,0.0,clockno_default.jpg,6.0,77,,,,,,,,,,,,,,,,,,0.0,33.0,33.0,33.0,1.0,,,,,,,,,,
0.0,1.0,0.744,,,,,,denture_03s.jpg,0.0,clockno_default.jpg,6.0,77,,,,,,,,,,,,,,,,,,0.0,34.0,34.0,34.0,1.0,,,,,,,,,,
1.0,1.0,0.762,,,,,,denture_03s.jpg,1.0,clockno_default.jpg,6.0,77,,,,,,,,,,,,,,,,,,0.0,35.0,35.0,35.0,1.0,,,,,,,,,,
,,,,,,,,,0.0,,,77,0.0,1.0,3.459,,,,,,rhubarb_03s.jpg,rooster_03s.jpg,,,,,,,,,,,,,0.0,0.0,0.0,0.0,1.0,,,,,
,,,,,,,,,1.0,,,77,1.0,1.0,1.876,,,,,,penguin_16s.jpg,teabag_12s.jpg,,,,,,,,,,,,,0.0,1.0,1.0,1.0,1.0,,,,,
,,,,,,,,,0.0,,,77,0.0,1.0,1.961,,,,,,smoothie_09s.jpg,fur_coat_11s.jpg,,,,,,,,,,,,,0.0,2.0,2.0,2.0,1.0,,,,,
,,,,,,,,,1.0,,,77,1.0,1.0,1.743,,,,,,puffin_19s.jpg,lipstick_02s.jpg,,,,,,,,,,,,,0.0,3.0,3.0,3.0,1.0,,,,,
,,,,,,,,,1.0,,,77,0.0,0.0,2.443,,,,,,flask_04s.jpg,tripod_01b.jpg,,,,,,,,,,,,,0.0,4.0,4.0,4.0,1.0,,,,,
,,,,,,,,,0.0,,,77,0.0,1.0,1.911,,,,,,thorn_13s.jpg,boar_10s.jpg,,,,,,,,,,,,,0.0,5.0,5.0,5.0,1.0,,,,,
