key_resp.keys,key_resp.corr,key_resp.rt,present_segment.thisRepN,present_segment.thisTrialN,present_segment.thisN,present_segment.thisIndex,present_segment.ran,pictures,answer,clock,segment,participant,key_resp_2.keys,key_resp_2.corr,key_resp_2.rt,compare_segment.thisRepN,compare_segment.thisTrialN,compare_segment.thisN,compare_segment.thisIndex,compare_segment.ran,item_a,item_b,clock_conditions.thisRepN,clock_conditions.thisTrialN,clock_conditions.thisN,clock_conditions.thisIndex,clock_conditions.ran,present,compare,noclock_present.thisRepN,noclock_present.thisTrialN,noclock_present.thisN,noclock_present.thisIndex,noclock_present.ran,noclock_compare.thisRepN,noclock_compare.thisTrialN,noclock_compare.thisN,noclock_compare.thisIndex,noclock_compare.ran,noclock_conditions.thisRepN,noclock_conditions.thisTrialN,noclock_conditions.thisN,noclock_conditions.thisIndex,noclock_conditions.ran
0.0,1.0,0.81234,0.0,0.0,0.0,0.0,1.0,spider_web_03s.jpg,0.0,clock_7_1.png,1.0,37,,,,,,,,,,,,,,,,,,,,,,,,,,,,,,,,
0.0,1.0,0.690445,0.0,1.0,1.0,1.0,1.0,blender_08s.jpg,0.0,clock_7_2.png,1.0,37,,,,,,,,,,,,,,,,,,,,,,,,,,,,,,,,
0.0,1.0,0.58823,0.0,2.0,2.0,2.0,1.0,taxi_15s.jpg,0.0,clock_7_3.png,1.0,37,,,,,,,,,,,,,,,,,,,,,,,,,,,,,,,,
0.0,1.0,0.74466,0.0,3.0,3.0,3.0,1.0,toaster_03s.jpg,0.0,clock_7_4.png,1.0,37,,,,,,,,,,,,,,,,,,,,,,,,,,,,,,,,
0.0,1.0,0.653195,0.0,4.0,4.0,4.0,1.0,latch_15s.jpg,0.0,clock_7_5.png,1.0,37,,,,,,,,,,,,,,,,,,,,,,,,,,,,,,,,
1.0,1.0,0.789355,0.0,5.0,5.0,5.0,1.0,latch_15s.jpg,1.0,clock_7_6.png,1.0,37,,,,,,,,,,,,,,,,,,,,,,,,,,,,,,,,
0.0,1.0,1.144375,0.0,6.0,6.0,6.0,1.0,rock_08s.jpg,0.0,clock_7_7.png,1.0,37,,,,,,,,,,,,,,,,,,,,,,,,,,,,,,,,
0.0,1.0,0.8044,0.0,7.0,7.0,7.0,1.0,ticktacktoe_08s.jpg,0.0,clock_6_1.png,2.0,37,,,,,,,,,,,,,,,,,,,,,,,,,,,,,,,,
1.0,1.0,0.9793,0.0,8.0,8.0,8.0,1.0,ticktacktoe_08s.jpg,1.0,clock_6_2.png,2.0,37,,,,,,,,,,,,,,,,,,,,,,,,,,,,,,,,
0.0,1.0,0.924915,0.0,9.0,9.0,9.0,1.0,rhinoceros_02s.jpg,0.0,clock_6_3.png,2.0,37,,,,,,,,,,,,,,,,,,,,,,,,,,,,,,,,
1.0,1.0,0.936005,0.0,10.0,10.0,10.0,1.0,rhinoceros_02s.jpg,1.0,clock_6_4.png,2.0,37,,,,,,,,,,,,,,,,,,,,,,,,,,,,,,,,
0.0,1.0,0.658025,0.0,11.0,11.0,11.0,1.0,timer_03s.jpg,0.0,clock_6_5.png,2.0,37,,,,,,,,,,,,,,,,,,,,,,,,,,,,,,,,
0.0,1.0,1.11989,0.0,12.0,12.0,12.0,1.0,lizard_10n.jpg,0.0,clock_6_6.png,2.0,37,,,,,,,,,,,,,,,,,,,,,,,,,,,,,,,,
0.0,1.0,1.088215,0.0,13.0,13.0,13.0,1.0,thorn_13s.jpg,0.0,clock_7_1.png,3.0,37,,,,,,,,,,,,,,,,,,,,,,,,,,,,,,,,
0.0,1.0,0.791735,0.0,14.0,14.0,14.0,1.0,turtle_08s.jpg,0.0,clock_7_2.png,3.0,37,,,,,,,,,,,,,,,,,,,,,,,,,,,,,,,,
0.0,1.0,0.977065,0.0,15.0,15.0,15.0,1.0,kimono_13s.jpg,0.0,clock_7_3.png,3.0,37,,,,,,,,,,,,,,,,,,,,,,,,,,,,,,,,
1.0,1.0,0.659195,0.0,16.0,16.0,16.0,1.0,thorn_13s.jpg,1.0,clock_7_4.png,3.0,37,,,,,,,,,,,,,,,,,,,,,,,,,,,,,,,,
0.0,1.0,1.21064,0.0,17.0,17.0,17.0,1.0,sleeping_bag_12s.jpg,0.0,clock_7_5.png,3.0,37,,,,,,,,,,,,,,,,,,,,,,,,,,,,,,,,
1.0,1.0,0.753605,0.0,18.0,18.0,18.0,1.0,kimono_13s.jpg,1.0,clock_7_6.png,3.0,37,,,,,,,,,,,,,,,,,,,,,,,,,,,,,,,,
0.0,1.0,0.621165,0.0,19.0,19.0,19.0,1.0,ivy_12s.jpg,0.0,clock_7_7.png,3.0,37,,,,,,,,,,,,,,,,,,,,,,,,,,,,,,,,
0.0,1.0,0.92506,0.0,20.0,20.0,20.0,1.0,orangutan_03s.jpg,0.0,clock_5_1.png,4.0,37,,,,,,,,,,,,,,,,,,,,,,,,,,,,,,,,
0.0,1.0,0.58931,0.0,21.0,21.0,21.0,1.0,eiffeltower.jpg,0.0,clock_5_2.png,4.0,37,,,,,,,,,,,,,,,,,,,,,,,,,,,,,,,,
0.0,1.0,0.70782,0.0,22.0,22.0,22.0,1.0,metronome_03s.jpg,0.0,clock_5_3.png,4.0,37,,,,,,,,,,,,,,,,,,,,,,,,,,,,,,,,
1.0,0.0,0.95466,0.0,23.0,23.0,23.0,1.0,totem_pole_05s.jpg,0.0,clock_5_4.png,4.0,37,,,,,,,,,,,,,,,,,,,,,,,,,,,,,,,,
1.0,1.0,1.12066,0.0,24.0,24.0,24.0,1.0,metronome_03s.jpg,1.0,clock_5_5.png,4.0,37,,,,,,,,,,,,,,,,,,,,,,,,,,,,,,,,
0.0,1.0,1.1808,0.0,25.0,25.0,25.0,1.0,peeler_06s.jpg,0.0,clock_5_1.png,5.0,37,,,,,,,,,,,,,,,,,,,,,,,,,,,,,,,,
0.0,1.0,0.53584,0.0,26.0,26.0,26.0,1.0,quill_09s.jpg,0.0,clock_5_2.png,5.0,37,,,,,,,,,,,,,,,,,,,,,,,,,,,,,,,,
0.0,1.0,1.1861,0.0,27.0,27.0,27.0,1.0,toad_09s.jpg,0.0,clock_5_3.png,5.0,37,,,,,,,,,,,,,,,,,,,,,,,,,,,,,,,,
0.0,1.0,0.72266,0.0,28.0,28.0,28.0,1.0,beard_16s.jpg,0.0,clock_5_4.png,5.0,37,,,,,,,,,,,,,,,,,,,,,,,,,,,,,,,,
0.0,1.0,0.869785,0.0,29.0,29.0,29.0,1.0,tube_top_03s.jpg,0.0,clock_5_5.png,5.0,37,,,,,,,,,,,,,,,,,,,,,,,,,,,,,,,,
0.0,1.0,0.60425,0.0,30.0,30.0,30.0,1.0,power_line_08s.jpg,0.0,clock_6_1.png,6.0,37,,,,,,,,,,,,,,,,,,,,,,,,,,,,,,,,
0.0,1.0,1.976845,0.0,31.0,31.0,31.0,1.0,lifesaver_10s.jpg,0.0,clock_6_2.png,6.0,37,,,,,,,,,,,,,,,,,,,,,,,,,,,,,,,,
0.0,1.0,0.85706,0.0,32.0,32.0,32.0,1.0,saddle_06s.jpg,0.0,clock_6_3.png,6.0,37,,,,,,,,,,,,,,,,,,,,,,,,,,,,,,,,
0.0,1.0,0.775415,0.0,33.0,33.0,33.0,1.0,ginger_09s.jpg,0.0,clock_6_4.png,6.0,37,,,,,,,,,,,,,,,,,,,,,,,,,,,,,,,,
0.0,1.0,0.75704,0.0,34.0,34.0,34.0,1.0,orange_12s.jpg,0.0,clock_6_5.png,6.0,37,,,,,,,,,,,,,,,,,,,,,,,,,,,,,,,,
0.0,1.0,0.5945,0.0,35.0,35.0,35.0,1.0,tiara_05s.jpg,0.0,clock_6_6.png,6.0,37,,,,,,,,,,,,,,,,,,,,,,,,,,,,,,,,
,,,,,,,,,0.0,,,37,0.0,1.0,2.14125,0.0,0.0,0.0,0.0,1.0,turtle_08s.jpg,timer_03s.jpg,,,,,,,,,,,,,,,,,,,,,,
,,,,,,,,,0.0,,,37,0.0,1.0,1.691665,0.0,1.0,1.0,1.0,1.0,power_line_08s.jpg,toad_09s.jpg,,,,,,,,,,,,,,,,,,,,,,
,,,,,,,,,1.0,,,37,0.0,0.0,2.10992,0.0,2.0,2.0,2.0,1.0,sleeping_bag_12s.jpg,orangutan_03s.jpg,,,,,,,,,,,,,,,,,,,,,,
,,,,,,,,,1.0,,,37,0.0,0.0,1.33584,0.0,3.0,3.0,3.0,1.0,spider_web_03s.jpg,toaster_03s.jpg,,,,,,,,,,,,,,,,,,,,,,
,,,,,,,,,0.0,,,37,1.0,0.0,2.15842,0.0,4.0,4.0,4.0,1.0,beard_16s.jpg,peeler_06s.jpg,,,,,,,,,,,,,,,,,,,,,,
,,,,,,,,,1.0,,,37,0.0,0.0,1.046975,0.0,5.0,5.0,5.0,1.0,lifesaver_10s.jpg,orange_12s.jpg,,,,,,,,,,,,,,,,,,,,,,
,,,,,,,,,,,,37,,,,,,,,,,,0.0,0.0,0.0,0.0,1.0,clock_present_1_10.xlsx,clock_compare_task_1_10.xlsx,,,,,,,,,,,,,,,
0.0,1.0,0.993515,0.0,0.0,0.0,0.0,1.0,giraffe_11s.jpg,0.0,clock_6_1.png,1.0,37,,,,,,,,,,,,,,,,,,,,,,,,,,,,,,,,
0.0,1.0,0.718205,0.0,1.0,1.0,1.0,1.0,fishhook_06s.jpg,0.0,clock_6_2.png,1.0,37,,,,,,,,,,,,,,,,,,,,,,,,,,,,,,,,
0.0,1.0,0.70651,0.0,2.0,2.0,2.0,1.0,tiger_06s.jpg,0.0,clock_6_3.png,1.0,37,,,,,,,,,,,,,,,,,,,,,,,,,,,,,,,,
0.0,1.0,0.804235,0.0,3.0,3.0,3.0,1.0,fossil_06s.jpg,0.0,clock_6_4.png,1.0,37,,,,,,,,,,,,,,,,,,,,,,,,,,,,,,,,
0.0,1.0,0.9423,0.0,4.0,4.0,4.0,1.0,scooter.jpg,0.0,clock_6_5.png,1.0,37,,,,,,,,,,,,,,,,,,,,,,,,,,,,,,,,
1.0,1.0,1.16937,0.0,5.0,5.0,5.0,1.0,tiger_06s.jpg,1.0,clock_6_6.png,1.0,37,,,,,,,,,,,,,,,,,,,,,,,,,,,,,,,,
0.0,1.0,0.849935,0.0,6.0,6.0,6.0,1.0,mannequin_05s.jpg,0.0,clock_5_1.png,2.0,37,,,,,,,,,,,,,,,,,,,,,,,,,,,,,,,,
0.0,1.0,1.040515,0.0,7.0,7.0,7.0,1.0,air_pump_05s.jpg,0.0,clock_5_2.png,2.0,37,,,,,,,,,,,,,,,,,,,,,,,,,,,,,,,,
0.0,1.0,0.601635,0.0,8.0,8.0,8.0,1.0,cushion_08s.jpg,0.0,clock_5_3.png,2.0,37,,,,,,,,,,,,,,,,,,,,,,,,,,,,,,,,
0.0,1.0,0.573445,0.0,9.0,9.0,9.0,1.0,crossbow_10s.jpg,0.0,clock_5_4.png,2.0,37,,,,,,,,,,,,,,,,,,,,,,,,,,,,,,,,
1.0,1.0,1.40875,0.0,10.0,10.0,10.0,1.0,cushion_08s.jpg,1.0,clock_5_5.png,2.0,37,,,,,,,,,,,,,,,,,,,,,,,,,,,,,,,,
0.0,1.0,0.821085,0.0,11.0,11.0,11.0,1.0,thread_08s.jpg,0.0,clock_5_1.png,3.0,37,,,,,,,,,,,,,,,,,,,,,,,,,,,,,,,,
1.0,1.0,1.60587,0.0,12.0,12.0,12.0,1.0,thread_08s.jpg,1.0,clock_5_2.png,3.0,37,,,,,,,,,,,,,,,,,,,,,,,,,,,,,,,,
0.0,1.0,0.77568,0.0,13.0,13.0,13.0,1.0,tiger_06s.jpg,0.0,clock_5_3.png,3.0,37,,,,,,,,,,,,,,,,,,,,,,,,,,,,,,,,
1.0,1.0,0.79106,0.0,14.0,14.0,14.0,1.0,thread_08s.jpg,1.0,clock_5_4.png,3.0,37,,,,,,,,,,,,,,,,,,,,,,,,,,,,,,,,
0.0,1.0,1.12747,0.0,15.0,15.0,15.0,1.0,tab_09s.jpg,0.0,clock_5_5.png,3.0,37,,,,,,,,,,,,,,,,,,,,,,,,,,,,,,,,
0.0,1.0,2.4027,0.0,16.0,16.0,16.0,1.0,ladle_04s.jpg,0.0,clock_7_1.png,4.0,37,,,,,,,,,,,,,,,,,,,,,,,,,,,,,,,,
0.0,1.0,0.687465,0.0,17.0,17.0,17.0,1.0,ice-cream_cone_06s.jpg,0.0,clock_7_2.png,4.0,37,,,,,,,,,,,,,,,,,,,,,,,,,,,,,,,,
0.0,1.0,0.94166,0.0,18.0,18.0,18.0,1.0,thermostat_02s.jpg,0.0,clock_7_3.png,4.0,37,,,,,,,,,,,,,,,,,,,,,,,,,,,,,,,,
1.0,1.0,0.886765,0.0,19.0,19.0,19.0,1.0,thermostat_02s.jpg,1.0,clock_7_4.png,4.0,37,,,,,,,,,,,,,,,,,,,,,,,,,,,,,,,,
0.0,1.0,0.7574,0.0,20.0,20.0,20.0,1.0,rolling_pin_02s.jpg,0.0,clock_7_5.png,4.0,37,,,,,,,,,,,,,,,,,,,,,,,,,,,,,,,,
0.0,1.0,0.857415,0.0,21.0,21.0,21.0,1.0,lipstick_02s.jpg,0.0,clock_7_6.png,4.0,37,,,,,,,,,,,,,,,,,,,,,,,,,,,,,,,,
0.0,1.0,0.988805,0.0,22.0,22.0,22.0,1.0,incense_02s.jpg,0.0,clock_7_7.png,4.0,37,,,,,,,,,,,,,,,,,,,,,,,,,,,,,,,,
0.0,1.0,1.156045,0.0,23.0,23.0,23.0,1.0,rudder_02s.jpg,0.0,clock_6_1.png,5.0,37,,,,,,,,,,,,,,,,,,,,,,,,,,,,,,,,
0.0,1.0,0.637205,0.0,24.0,24.0,24.0,1.0,radio_09s.jpg,0.0,clock_6_2.png,5.0,37,,,,,,,,,,,,,,,,,,,,,,,,,,,,,,,,
0.0,1.0,0.606975,0.0,25.0,25.0,25.0,1.0,rooster_03s.jpg,0.0,clock_6_3.png,5.0,37,,,,,,,,,,,,,,,,,,,,,,,,,,,,,,,,
0.0,1.0,0.819425,0.0,26.0,26.0,26.0,1.0,surfboard_11s.jpg,0.0,clock_6_4.png,5.0,37,,,,,,,,,,,,,,,,,,,,,,,,,,,,,,,,
0.0,1.0,0.56818,0.0,27.0,27.0,27.0,1.0,perfume_06s.jpg,0.0,clock_6_5.png,5.0,37,,,,,,,,,,,,,,,,,,,,,,,,,,,,,,,,
0.0,1.0,1.17053,0.0,28.0,28.0,28.0,1.0,tortilla_06s.jpg,0.0,clock_6_6.png,5.0,37,,,,,,,,,,,,,,,,,,,,,,,,,,,,,,,,
0.0,1.0,1.402665,0.0,29.0,29.0,29.0,1.0,gingerbread_man_03s.jpg,0.0,clock_7_1.png,6.0,37,,,,,,,,,,,,,,,,,,,,,,,,,,,,,,,,
0.0,1.0,0.68509,0.0,30.0,30.0,30.0,1.0,tambourine_06s.jpg,0.0,clock_7_2.png,6.0,37,,,,,,,,,,,,,,,,,,,,,,,,,,,,,,,,
0.0,1.0,0.72008,0.0,31.0,31.0,31.0,1.0,pomegranate_04s.jpg,0.0,clock_7_3.png,6.0,37,,,,,,,,,,,,,,,,,,,,,,,,,,,,,,,,
0.0,1.0,0.706665,0.0,32.0,32.0,32.0,1.0,birdcage_08s.jpg,0.0,clock_7_4.png,6.0,37,,,,,,,,,,,,,,,,,,,,,,,,,,,,,,,,
0.0,1.0,0.769855,0.0,33.0,33.0,33.0,1.0,cushion_08s.jpg,0.0,clock_7_5.png,6.0,37,,,,,,,,,,,,,,,,,,,,,,,,,,,,,,,,
0.0,1.0,0.65574,0.0,34.0,34.0,34.0,1.0,puppet_01b.jpg,0.0,clock_7_6.png,6.0,37,,,,,,,,,,,,,,,,,,,,,,,,,,,,,,,,
0.0,1.0,0.662355,0.0,35.0,35.0,35.0,1.0,briefcase_03s.jpg,0.0,clock_7_7.png,6.0,37,,,,,,,,,,,,,,,,,,,,,,,,,,,,,,,,
,,,,,,,,,1.0,,,37,1.0,1.0,1.24563,0.0,0.0,0.0,0.0,1.0,scooter.jpg,air_pump_05s.jpg,,,,,,,,,,,,,,,,,,,,,,
,,,,,,,,,1.0,,,37,1.0,1.0,2.15658,0.0,1.0,1.0,1.0,1.0,lipstick_02s.jpg,radio_09s.jpg,,,,,,,,,,,,,,,,,,,,,,
,,,,,,,,,1.0,,,37,0.0,0.0,1.92362,0.0,2.0,2.0,2.0,1.0,incense_02s.jpg,rooster_03s.jpg,,,,,,,,,,,,,,,,,,,,,,
,,,,,,,,,1.0,,,37,0.0,0.0,1.77267,0.0,3.0,3.0,3.0,1.0,birdcage_08s.jpg,briefcase_03s.jpg,,,,,,,,,,,,,,,,,,,,,,
,,,,,,,,,0.0,,,37,1.0,0.0,1.10825,0.0,4.0,4.0,4.0,1.0,fossil_06s.jpg,giraffe_11s.jpg,,,,,,,,,,,,,,,,,,,,,,
,,,,,,,,,1.0,,,37,1.0,1.0,2.288185,0.0,5.0,5.0,5.0,1.0,mannequin_05s.jpg,crossbow_10s.jpg,,,,,,,,,,,,,,,,,,,,,,
,,,,,,,,,,,,37,,,,,,,,,,,0.0,1.0,1.0,1.0,1.0,clock_present_2_10.xlsx,clock_compare_task_2_10.xlsx,,,,,,,,,,,,,,,
0.0,1.0,0.850005,0.0,0.0,0.0,0.0,1.0,dynamite_01b.jpg,0.0,clock_6_1.png,1.0,37,,,,,,,,,,,,,,,,,,,,,,,,,,,,,,,,
1.0,1.0,0.86801,0.0,1.0,1.0,1.0,1.0,dynamite_01b.jpg,1.0,clock_6_2.png,1.0,37,,,,,,,,,,,,,,,,,,,,,,,,,,,,,,,,
1.0,1.0,0.754555,0.0,2.0,2.0,2.0,1.0,dynamite_01b.jpg,1.0,clock_6_3.png,1.0,37,,,,,,,,,,,,,,,,,,,,,,,,,,,,,,,,
1.0,1.0,2.30625,0.0,3.0,3.0,3.0,1.0,dynamite_01b.jpg,1.0,clock_6_4.png,1.0,37,,,,,,,,,,,,,,,,,,,,,,,,,,,,,,,,
0.0,1.0,1.302175,0.0,4.0,4.0,4.0,1.0,lava_02s.jpg,0.0,clock_6_5.png,1.0,37,,,,,,,,,,,,,,,,,,,,,,,,,,,,,,,,
1.0,1.0,1.41045,0.0,5.0,5.0,5.0,1.0,dynamite_01b.jpg,1.0,clock_6_6.png,1.0,37,,,,,,,,,,,,,,,,,,,,,,,,,,,,,,,,
0.0,1.0,1.203765,0.0,6.0,6.0,6.0,1.0,glue_01s.jpg,0.0,clock_7_1.png,2.0,37,,,,,,,,,,,,,,,,,,,,,,,,,,,,,,,,
0.0,1.0,1.16042,0.0,7.0,7.0,7.0,1.0,umbrella_15s.jpg,0.0,clock_7_2.png,2.0,37,,,,,,,,,,,,,,,,,,,,,,,,,,,,,,,,
0.0,1.0,0.839475,0.0,8.0,8.0,8.0,1.0,puppy_08s.jpg,0.0,clock_7_3.png,2.0,37,,,,,,,,,,,,,,,,,,,,,,,,,,,,,,,,
0.0,1.0,0.99452,0.0,9.0,9.0,9.0,1.0,lab_coat_11s.jpg,0.0,clock_7_4.png,2.0,37,,,,,,,,,,,,,,,,,,,,,,,,,,,,,,,,
0.0,1.0,0.86779,0.0,10.0,10.0,10.0,1.0,parachute_03s.jpg,0.0,clock_7_5.png,2.0,37,,,,,,,,,,,,,,,,,,,,,,,,,,,,,,,,
1.0,1.0,0.71202,0.0,11.0,11.0,11.0,1.0,parachute_03s.jpg,1.0,clock_7_6.png,2.0,37,,,,,,,,,,,,,,,,,,,,,,,,,,,,,,,,
0.0,1.0,0.86209,0.0,12.0,12.0,12.0,1.0,keyhole_03s.jpg,0.0,clock_7_7.png,2.0,37,,,,,,,,,,,,,,,,,,,,,,,,,,,,,,,,
0.0,1.0,0.658355,0.0,13.0,13.0,13.0,1.0,marshmallow_08s.jpg,0.0,clock_5_1.png,3.0,37,,,,,,,,,,,,,,,,,,,,,,,,,,,,,,,,
0.0,1.0,1.33619,0.0,14.0,14.0,14.0,1.0,undershirt_02s.jpg,0.0,clock_5_2.png,3.0,37,,,,,,,,,,,,,,,,,,,,,,,,,,,,,,,,
0.0,1.0,0.60942,0.0,15.0,15.0,15.0,1.0,sushi_08s.jpg,0.0,clock_5_3.png,3.0,37,,,,,,,,,,,,,,,,,,,,,,,,,,,,,,,,
0.0,1.0,0.842315,0.0,16.0,16.0,16.0,1.0,piggy_bank_02s.jpg,0.0,clock_5_4.png,3.0,37,,,,,,,,,,,,,,,,,,,,,,,,,,,,,,,,
1.0,1.0,0.851975,0.0,17.0,17.0,17.0,1.0,marshmallow_08s.jpg,1.0,clock_5_5.png,3.0,37,,,,,,,,,,,,,,,,,,,,,,,,,,,,,,,,
0.0,1.0,0.806315,0.0,18.0,18.0,18.0,1.0,syringe_02s.jpg,0.0,clock_7_1.png,4.0,37,,,,,,,,,,,,,,,,,,,,,,,,,,,,,,,,
0.0,1.0,0.721515,0.0,19.0,19.0,19.0,1.0,purse_05s.jpg,0.0,clock_7_2.png,4.0,37,,,,,,,,,,,,,,,,,,,,,,,,,,,,,,,,
0.0,1.0,1.07036,0.0,20.0,20.0,20.0,1.0,tongs_08s.jpg,0.0,clock_7_3.png,4.0,37,,,,,,,,,,,,,,,,,,,,,,,,,,,,,,,,
0.0,1.0,0.820605,0.0,21.0,21.0,21.0,1.0,pocketknife_12s.jpg,0.0,clock_7_4.png,4.0,37,,,,,,,,,,,,,,,,,,,,,,,,,,,,,,,,
0.0,1.0,0.603995,0.0,22.0,22.0,22.0,1.0,rope_16s.jpg,0.0,clock_7_5.png,4.0,37,,,,,,,,,,,,,,,,,,,,,,,,,,,,,,,,
0.0,1.0,0.80571,0.0,23.0,23.0,23.0,1.0,duck_01b.jpg,0.0,clock_7_6.png,4.0,37,,,,,,,,,,,,,,,,,,,,,,,,,,,,,,,,
0.0,1.0,0.639465,0.0,24.0,24.0,24.0,1.0,machete_06s.jpg,0.0,clock_7_7.png,4.0,37,,,,,,,,,,,,,,,,,,,,,,,,,,,,,,,,
0.0,1.0,0.57184,0.0,25.0,25.0,25.0,1.0,eggshell_14s.jpg,0.0,clock_5_1.png,5.0,37,,,,,,,,,,,,,,,,,,,,,,,,,,,,,,,,
0.0,1.0,0.57019,0.0,26.0,26.0,26.0,1.0,roulette_wheel_04s.jpg,0.0,clock_5_2.png,5.0,37,,,,,,,,,,,,,,,,,,,,,,,,,,,,,,,,
0.0,1.0,0.74867,0.0,27.0,27.0,27.0,1.0,tattoo_14s.jpg,0.0,clock_5_3.png,5.0,37,,,,,,,,,,,,,,,,,,,,,,,,,,,,,,,,
1.0,1.0,0.925225,0.0,28.0,28.0,28.0,1.0,roulette_wheel_04s.jpg,1.0,clock_5_4.png,5.0,37,,,,,,,,,,,,,,,,,,,,,,,,,,,,,,,,
1.0,1.0,0.85123,0.0,29.0,29.0,29.0,1.0,tattoo_14s.jpg,1.0,clock_5_5.png,5.0,37,,,,,,,,,,,,,,,,,,,,,,,,,,,,,,,,
0.0,1.0,0.88936,0.0,30.0,30.0,30.0,1.0,kite_04s.jpg,0.0,clock_6_1.png,6.0,37,,,,,,,,,,,,,,,,,,,,,,,,,,,,,,,,
0.0,1.0,0.991075,0.0,31.0,31.0,31.0,1.0,dirt_bike_11s.jpg,0.0,clock_6_2.png,6.0,37,,,,,,,,,,,,,,,,,,,,,,,,,,,,,,,,
1.0,1.0,0.937,0.0,32.0,32.0,32.0,1.0,kite_04s.jpg,1.0,clock_6_3.png,6.0,37,,,,,,,,,,,,,,,,,,,,,,,,,,,,,,,,
0.0,1.0,1.31705,0.0,33.0,33.0,33.0,1.0,tongs_08s.jpg,0.0,clock_6_4.png,6.0,37,,,,,,,,,,,,,,,,,,,,,,,,,,,,,,,,
0.0,1.0,1.60608,0.0,34.0,34.0,34.0,1.0,go-kart_10s.jpg,0.0,clock_6_5.png,6.0,37,,,,,,,,,,,,,,,,,,,,,,,,,,,,,,,,
0.0,1.0,0.80923,0.0,35.0,35.0,35.0,1.0,red_carpet_03s.jpg,0.0,clock_6_6.png,6.0,37,,,,,,,,,,,,,,,,,,,,,,,,,,,,,,,,
,,,,,,,,,0.0,,,37,0.0,1.0,3.131445,0.0,0.0,0.0,0.0,1.0,umbrella_15s.jpg,lava_02s.jpg,,,,,,,,,,,,,,,,,,,,,,
,,,,,,,,,0.0,,,37,1.0,0.0,1.642405,0.0,1.0,1.0,1.0,1.0,sushi_08s.jpg,keyhole_03s.jpg,,,,,,,,,,,,,,,,,,,,,,
,,,,,,,,,1.0,,,37,0.0,0.0,1.30388,0.0,2.0,2.0,2.0,1.0,piggy_bank_02s.jpg,purse_05s.jpg,,,,,,,,,,,,,,,,,,,,,,
,,,,,,,,,1.0,,,37,0.0,0.0,1.22386,0.0,3.0,3.0,3.0,1.0,glue_01s.jpg,lab_coat_11s.jpg,,,,,,,,,,,,,,,,,,,,,,
,,,,,,,,,1.0,,,37,1.0,1.0,1.449225,0.0,4.0,4.0,4.0,1.0,pocketknife_12s.jpg,machete_06s.jpg,,,,,,,,,,,,,,,,,,,,,,
,,,,,,,,,0.0,,,37,0.0,1.0,0.968785,0.0,5.0,5.0,5.0,1.0,go-kart_10s.jpg,dirt_bike_11s.jpg,,,,,,,,,,,,,,,,,,,,,,
,,,,,,,,,,,,37,,,,,,,,,,,0.0,2.0,2.0,2.0,1.0,clock_present_3_10.xlsx,clock_compare_task_3_10.xlsx,,,,,,,,,,,,,,,
0.0,1.0,0.97632,0.0,0.0,0.0,0.0,1.0,knitting_needle_04s.jpg,0.0,clock_5_1.png,1.0,37,,,,,,,,,,,,,,,,,,,,,,,,,,,,,,,,
1.0,1.0,0.92496,0.0,1.0,1.0,1.0,1.0,knitting_needle_04s.jpg,1.0,clock_5_2.png,1.0,37,,,,,,,,,,,,,,,,,,,,,,,,,,,,,,,,
1.0,1.0,0.462355,0.0,2.0,2.0,2.0,1.0,knitting_needle_04s.jpg,1.0,clock_5_3.png,1.0,37,,,,,,,,,,,,,,,,,,,,,,,,,,,,,,,,
0.0,1.0,1.511945,0.0,3.0,3.0,3.0,1.0,towel_rack_04s.jpg,0.0,clock_5_4.png,1.0,37,,,,,,,,,,,,,,,,,,,,,,,,,,,,,,,,
0.0,1.0,1.48973,0.0,4.0,4.0,4.0,1.0,stump_02s.jpg,0.0,clock_5_5.png,1.0,37,,,,,,,,,,,,,,,,,,,,,,,,,,,,,,,,
0.0,1.0,0.871965,0.0,5.0,5.0,5.0,1.0,pan_02s.jpg,0.0,clock_7_1.png,2.0,37,,,,,,,,,,,,,,,,,,,,,,,,,,,,,,,,
0.0,1.0,1.26837,0.0,6.0,6.0,6.0,1.0,knitting_needle_04s.jpg,0.0,clock_7_2.png,2.0,37,,,,,,,,,,,,,,,,,,,,,,,,,,,,,,,,
0.0,1.0,0.75929,0.0,7.0,7.0,7.0,1.0,lectern_08s.jpg,0.0,clock_7_3.png,2.0,37,,,,,,,,,,,,,,,,,,,,,,,,,,,,,,,,
0.0,1.0,0.87896,0.0,8.0,8.0,8.0,1.0,knot_01b.jpg,0.0,clock_7_4.png,2.0,37,,,,,,,,,,,,,,,,,,,,,,,,,,,,,,,,
0.0,1.0,1.683335,0.0,9.0,9.0,9.0,1.0,towel_rack_04s.jpg,0.0,clock_7_5.png,2.0,37,,,,,,,,,,,,,,,,,,,,,,,,,,,,,,,,
0.0,1.0,0.674515,0.0,10.0,10.0,10.0,1.0,rollerskate_03s.jpg,0.0,clock_7_6.png,2.0,37,,,,,,,,,,,,,,,,,,,,,,,,,,,,,,,,
0.0,1.0,0.800835,0.0,11.0,11.0,11.0,1.0,amber_04s.jpg,0.0,clock_7_7.png,2.0,37,,,,,,,,,,,,,,,,,,,,,,,,,,,,,,,,
0.0,1.0,0.789895,0.0,12.0,12.0,12.0,1.0,razor_blade_01b.jpg,0.0,clock_5_1.png,3.0,37,,,,,,,,,,,,,,,,,,,,,,,,,,,,,,,,
0.0,1.0,0.70418,0.0,13.0,13.0,13.0,1.0,sea_urchin_09s.jpg,0.0,clock_5_2.png,3.0,37,,,,,,,,,,,,,,,,,,,,,,,,,,,,,,,,
0.0,1.0,0.619245,0.0,14.0,14.0,14.0,1.0,toilet_07s.jpg,0.0,clock_5_3.png,3.0,37,,,,,,,,,,,,,,,,,,,,,,,,,,,,,,,,
0.0,1.0,0.6252,0.0,15.0,15.0,15.0,1.0,police_car_01s.jpg,0.0,clock_5_4.png,3.0,37,,,,,,,,,,,,,,,,,,,,,,,,,,,,,,,,
1.0,1.0,1.003565,0.0,16.0,16.0,16.0,1.0,police_car_01s.jpg,1.0,clock_5_5.png,3.0,37,,,,,,,,,,,,,,,,,,,,,,,,,,,,,,,,
0.0,1.0,0.75281,0.0,17.0,17.0,17.0,1.0,feather02.jpg,0.0,clock_6_1.png,4.0,37,,,,,,,,,,,,,,,,,,,,,,,,,,,,,,,,
0.0,1.0,0.8594,0.0,18.0,18.0,18.0,1.0,mushroom_10n.jpg,0.0,clock_6_2.png,4.0,37,,,,,,,,,,,,,,,,,,,,,,,,,,,,,,,,
0.0,1.0,0.771475,0.0,19.0,19.0,19.0,1.0,abacus_12s.jpg,0.0,clock_6_3.png,4.0,37,,,,,,,,,,,,,,,,,,,,,,,,,,,,,,,,
0.0,1.0,0.83674,0.0,20.0,20.0,20.0,1.0,hyena_16s.jpg,0.0,clock_6_4.png,4.0,37,,,,,,,,,,,,,,,,,,,,,,,,,,,,,,,,
0.0,1.0,0.8917,0.0,21.0,21.0,21.0,1.0,owl_15s.jpg,0.0,clock_6_5.png,4.0,37,,,,,,,,,,,,,,,,,,,,,,,,,,,,,,,,
1.0,1.0,0.898915,0.0,22.0,22.0,22.0,1.0,abacus_12s.jpg,1.0,clock_6_6.png,4.0,37,,,,,,,,,,,,,,,,,,,,,,,,,,,,,,,,
0.0,1.0,0.58667,0.0,23.0,23.0,23.0,1.0,ostrich_06s.jpg,0.0,clock_7_1.png,5.0,37,,,,,,,,,,,,,,,,,,,,,,,,,,,,,,,,
0.0,1.0,1.119055,0.0,24.0,24.0,24.0,1.0,candy_cane_06s.jpg,0.0,clock_7_2.png,5.0,37,,,,,,,,,,,,,,,,,,,,,,,,,,,,,,,,
1.0,1.0,1.279265,0.0,25.0,25.0,25.0,1.0,candy_cane_06s.jpg,1.0,clock_7_3.png,5.0,37,,,,,,,,,,,,,,,,,,,,,,,,,,,,,,,,
0.0,1.0,0.69405,0.0,26.0,26.0,26.0,1.0,sunflower_17s.jpg,0.0,clock_7_4.png,5.0,37,,,,,,,,,,,,,,,,,,,,,,,,,,,,,,,,
0.0,1.0,0.832955,0.0,27.0,27.0,27.0,1.0,paper_bag_12s.jpg,0.0,clock_7_5.png,5.0,37,,,,,,,,,,,,,,,,,,,,,,,,,,,,,,,,
0.0,1.0,0.69187,0.0,28.0,28.0,28.0,1.0,submarine_11n.jpg,0.0,clock_7_6.png,5.0,37,,,,,,,,,,,,,,,,,,,,,,,,,,,,,,,,
0.0,1.0,0.622645,0.0,29.0,29.0,29.0,1.0,pretzel_09s.jpg,0.0,clock_7_7.png,5.0,37,,,,,,,,,,,,,,,,,,,,,,,,,,,,,,,,
0.0,1.0,0.757435,0.0,30.0,30.0,30.0,1.0,potpourri_03s.jpg,0.0,clock_6_1.png,6.0,37,,,,,,,,,,,,,,,,,,,,,,,,,,,,,,,,
0.0,1.0,0.92037,0.0,31.0,31.0,31.0,1.0,clover_04s.jpg,0.0,clock_6_2.png,6.0,37,,,,,,,,,,,,,,,,,,,,,,,,,,,,,,,,
0.0,1.0,1.101805,0.0,32.0,32.0,32.0,1.0,sledgehammer_03s.jpg,0.0,clock_6_3.png,6.0,37,,,,,,,,,,,,,,,,,,,,,,,,,,,,,,,,
0.0,1.0,1.186845,0.0,33.0,33.0,33.0,1.0,aluminum_foil_08s.jpg,0.0,clock_6_4.png,6.0,37,,,,,,,,,,,,,,,,,,,,,,,,,,,,,,,,
0.0,1.0,1.34646,0.0,34.0,34.0,34.0,1.0,owl_15s.jpg,0.0,clock_6_5.png,6.0,37,,,,,,,,,,,,,,,,,,,,,,,,,,,,,,,,
0.0,1.0,1.41856,0.0,35.0,35.0,35.0,1.0,lamb_chop_07s.jpg,0.0,clock_6_6.png,6.0,37,,,,,,,,,,,,,,,,,,,,,,,,,,,,,,,,
,,,,,,,,,0.0,,,37,1.0,0.0,1.95082,0.0,0.0,0.0,0.0,1.0,clover_04s.jpg,submarine_11n.jpg,,,,,,,,,,,,,,,,,,,,,,
,,,,,,,,,1.0,,,37,1.0,1.0,1.489955,0.0,1.0,1.0,1.0,1.0,stump_02s.jpg,lectern_08s.jpg,,,,,,,,,,,,,,,,,,,,,,
,,,,,,,,,0.0,,,37,1.0,0.0,1.12113,0.0,2.0,2.0,2.0,1.0,sea_urchin_09s.jpg,rollerskate_03s.jpg,,,,,,,,,,,,,,,,,,,,,,
,,,,,,,,,1.0,,,37,0.0,0.0,1.05434,0.0,3.0,3.0,3.0,1.0,pan_02s.jpg,knot_01b.jpg,,,,,,,,,,,,,,,,,,,,,,
,,,,,,,,,1.0,,,37,0.0,0.0,1.205835,0.0,4.0,4.0,4.0,1.0,ostrich_06s.jpg,sunflower_17s.jpg,,,,,,,,,,,,,,,,,,,,,,
,,,,,,,,,0.0,,,37,0.0,1.0,1.152085,0.0,5.0,5.0,5.0,1.0,aluminum_foil_08s.jpg,potpourri_03s.jpg,,,,,,,,,,,,,,,,,,,,,,
,,,,,,,,,,,,37,,,,,,,,,,,0.0,3.0,3.0,3.0,1.0,clock_present_4_10.xlsx,clock_compare_task_4_10.xlsx,,,,,,,,,,,,,,,
0.0,1.0,1.295895,0.0,0.0,0.0,0.0,1.0,bathtub_23s.jpg,0.0,clock_7_1.png,1.0,37,,,,,,,,,,,,,,,,,,,,,,,,,,,,,,,,
1.0,1.0,0.60717,0.0,1.0,1.0,1.0,1.0,bathtub_23s.jpg,1.0,clock_7_2.png,1.0,37,,,,,,,,,,,,,,,,,,,,,,,,,,,,,,,,
1.0,1.0,0.525485,0.0,2.0,2.0,2.0,1.0,bathtub_23s.jpg,1.0,clock_7_3.png,1.0,37,,,,,,,,,,,,,,,,,,,,,,,,,,,,,,,,
1.0,1.0,0.48826,0.0,3.0,3.0,3.0,1.0,bathtub_23s.jpg,1.0,clock_7_4.png,1.0,37,,,,,,,,,,,,,,,,,,,,,,,,,,,,,,,,
1.0,1.0,0.502105,0.0,4.0,4.0,4.0,1.0,bathtub_23s.jpg,1.0,clock_7_5.png,1.0,37,,,,,,,,,,,,,,,,,,,,,,,,,,,,,,,,
1.0,1.0,0.67196,0.0,5.0,5.0,5.0,1.0,bathtub_23s.jpg,1.0,clock_7_6.png,1.0,37,,,,,,,,,,,,,,,,,,,,,,,,,,,,,,,,
1.0,1.0,0.63901,0.0,6.0,6.0,6.0,1.0,bathtub_23s.jpg,1.0,clock_7_7.png,1.0,37,,,,,,,,,,,,,,,,,,,,,,,,,,,,,,,,
0.0,1.0,1.090915,0.0,7.0,7.0,7.0,1.0,breadstick_08s.jpg,0.0,clock_7_1.png,2.0,37,,,,,,,,,,,,,,,,,,,,,,,,,,,,,,,,
0.0,1.0,1.10598,0.0,8.0,8.0,8.0,1.0,petri_dish_12s.jpg,0.0,clock_7_2.png,2.0,37,,,,,,,,,,,,,,,,,,,,,,,,,,,,,,,,
1.0,1.0,0.78886,0.0,9.0,9.0,9.0,1.0,petri_dish_12s.jpg,1.0,clock_7_3.png,2.0,37,,,,,,,,,,,,,,,,,,,,,,,,,,,,,,,,
0.0,1.0,0.852685,0.0,10.0,10.0,10.0,1.0,penlight_12s.jpg,0.0,clock_7_4.png,2.0,37,,,,,,,,,,,,,,,,,,,,,,,,,,,,,,,,
1.0,1.0,1.09084,0.0,11.0,11.0,11.0,1.0,breadstick_08s.jpg,1.0,clock_7_5.png,2.0,37,,,,,,,,,,,,,,,,,,,,,,,,,,,,,,,,
0.0,1.0,0.876855,0.0,12.0,12.0,12.0,1.0,blowfish_03s.jpg,0.0,clock_7_6.png,2.0,37,,,,,,,,,,,,,,,,,,,,,,,,,,,,,,,,
0.0,1.0,1.29146,0.0,13.0,13.0,13.0,1.0,mosquito_12s.jpg,0.0,clock_7_7.png,2.0,37,,,,,,,,,,,,,,,,,,,,,,,,,,,,,,,,
0.0,1.0,0.88795,0.0,14.0,14.0,14.0,1.0,tuxedo_01b.jpg,0.0,clock_6_1.png,3.0,37,,,,,,,,,,,,,,,,,,,,,,,,,,,,,,,,
0.0,1.0,0.951805,0.0,15.0,15.0,15.0,1.0,petri_dish_12s.jpg,0.0,clock_6_2.png,3.0,37,,,,,,,,,,,,,,,,,,,,,,,,,,,,,,,,
0.0,1.0,0.7585,0.0,16.0,16.0,16.0,1.0,raspberry_12s.jpg,0.0,clock_6_3.png,3.0,37,,,,,,,,,,,,,,,,,,,,,,,,,,,,,,,,
0.0,1.0,0.82173,0.0,17.0,17.0,17.0,1.0,pump_11s.jpg,0.0,clock_6_4.png,3.0,37,,,,,,,,,,,,,,,,,,,,,,,,,,,,,,,,
0.0,1.0,0.689105,0.0,18.0,18.0,18.0,1.0,omelet_07s.jpg,0.0,clock_6_5.png,3.0,37,,,,,,,,,,,,,,,,,,,,,,,,,,,,,,,,
0.0,1.0,0.95727,0.0,19.0,19.0,19.0,1.0,lasagna_06s.jpg,0.0,clock_6_6.png,3.0,37,,,,,,,,,,,,,,,,,,,,,,,,,,,,,,,,
0.0,1.0,0.65256,0.0,20.0,20.0,20.0,1.0,lip_gloss_06s.jpg,0.0,clock_5_1.png,4.0,37,,,,,,,,,,,,,,,,,,,,,,,,,,,,,,,,
0.0,1.0,0.719215,0.0,21.0,21.0,21.0,1.0,jigsaw_puzzle_11s.jpg,0.0,clock_5_2.png,4.0,37,,,,,,,,,,,,,,,,,,,,,,,,,,,,,,,,
0.0,1.0,1.284485,0.0,22.0,22.0,22.0,1.0,flask_04s.jpg,0.0,clock_5_3.png,4.0,37,,,,,,,,,,,,,,,,,,,,,,,,,,,,,,,,
0.0,1.0,1.203115,0.0,23.0,23.0,23.0,1.0,bathtub_23s.jpg,0.0,clock_5_4.png,4.0,37,,,,,,,,,,,,,,,,,,,,,,,,,,,,,,,,
0.0,1.0,0.889925,0.0,24.0,24.0,24.0,1.0,antenna_01b.jpg,0.0,clock_5_5.png,4.0,37,,,,,,,,,,,,,,,,,,,,,,,,,,,,,,,,
0.0,1.0,0.79169,0.0,25.0,25.0,25.0,1.0,chip_04s.jpg,0.0,clock_5_1.png,5.0,37,,,,,,,,,,,,,,,,,,,,,,,,,,,,,,,,
0.0,1.0,0.59453,0.0,26.0,26.0,26.0,1.0,kangaroo_02s.jpg,0.0,clock_5_2.png,5.0,37,,,,,,,,,,,,,,,,,,,,,,,,,,,,,,,,
1.0,1.0,0.94916,0.0,27.0,27.0,27.0,1.0,kangaroo_02s.jpg,1.0,clock_5_3.png,5.0,37,,,,,,,,,,,,,,,,,,,,,,,,,,,,,,,,
0.0,1.0,0.85273,0.0,28.0,28.0,28.0,1.0,tennis_ball_06s.jpg,0.0,clock_5_4.png,5.0,37,,,,,,,,,,,,,,,,,,,,,,,,,,,,,,,,
1.0,1.0,1.307045,0.0,29.0,29.0,29.0,1.0,tennis_ball_06s.jpg,1.0,clock_5_5.png,5.0,37,,,,,,,,,,,,,,,,,,,,,,,,,,,,,,,,
0.0,1.0,0.743635,0.0,30.0,30.0,30.0,1.0,mixer_12s.jpg,0.0,clock_6_1.png,6.0,37,,,,,,,,,,,,,,,,,,,,,,,,,,,,,,,,
0.0,1.0,0.68881,0.0,31.0,31.0,31.0,1.0,treasure_08s.jpg,0.0,clock_6_2.png,6.0,37,,,,,,,,,,,,,,,,,,,,,,,,,,,,,,,,
0.0,1.0,0.723495,0.0,32.0,32.0,32.0,1.0,toy_04s.jpg,0.0,clock_6_3.png,6.0,37,,,,,,,,,,,,,,,,,,,,,,,,,,,,,,,,
0.0,1.0,0.77012,0.0,33.0,33.0,33.0,1.0,muffin_12n.jpg,0.0,clock_6_4.png,6.0,37,,,,,,,,,,,,,,,,,,,,,,,,,,,,,,,,
0.0,1.0,0.609715,0.0,34.0,34.0,34.0,1.0,possum_09s.jpg,0.0,clock_6_5.png,6.0,37,,,,,,,,,,,,,,,,,,,,,,,,,,,,,,,,
0.0,1.0,0.683595,0.0,35.0,35.0,35.0,1.0,soda_fountain_03s.jpg,0.0,clock_6_6.png,6.0,37,,,,,,,,,,,,,,,,,,,,,,,,,,,,,,,,
,,,,,,,,,1.0,,,37,0.0,0.0,1.497795,0.0,0.0,0.0,0.0,1.0,flask_04s.jpg,chip_04s.jpg,,,,,,,,,,,,,,,,,,,,,,
,,,,,,,,,0.0,,,37,1.0,0.0,2.19143,0.0,1.0,1.0,1.0,1.0,lip_gloss_06s.jpg,pump_11s.jpg,,,,,,,,,,,,,,,,,,,,,,
,,,,,,,,,0.0,,,37,1.0,0.0,1.572865,0.0,2.0,2.0,2.0,1.0,jigsaw_puzzle_11s.jpg,omelet_07s.jpg,,,,,,,,,,,,,,,,,,,,,,
,,,,,,,,,1.0,,,37,0.0,0.0,1.06257,0.0,3.0,3.0,3.0,1.0,mixer_12s.jpg,muffin_12n.jpg,,,,,,,,,,,,,,,,,,,,,,
,,,,,,,,,0.0,,,37,1.0,0.0,1.20613,0.0,4.0,4.0,4.0,1.0,possum_09s.jpg,treasure_08s.jpg,,,,,,,,,,,,,,,,,,,,,,
,,,,,,,,,1.0,,,37,1.0,1.0,2.08635,0.0,5.0,5.0,5.0,1.0,toy_04s.jpg,soda_fountain_03s.jpg,,,,,,,,,,,,,,,,,,,,,,
,,,,,,,,,,,,37,,,,,,,,,,,0.0,4.0,4.0,4.0,1.0,clock_present_5_10.xlsx,clock_compare_task_5_10.xlsx,,,,,,,,,,,,,,,
0.0,1.0,0.762245,0.0,0.0,0.0,0.0,1.0,mattress_01s.jpg,0.0,clock_7_1.png,1.0,37,,,,,,,,,,,,,,,,,,,,,,,,,,,,,,,,
1.0,1.0,2.354465,0.0,1.0,1.0,1.0,1.0,mattress_01s.jpg,1.0,clock_7_2.png,1.0,37,,,,,,,,,,,,,,,,,,,,,,,,,,,,,,,,
0.0,1.0,1.37681,0.0,2.0,2.0,2.0,1.0,plaster_cast_13s.jpg,0.0,clock_7_3.png,1.0,37,,,,,,,,,,,,,,,,,,,,,,,,,,,,,,,,
0.0,1.0,1.036275,0.0,3.0,3.0,3.0,1.0,mussel_11s.jpg,0.0,clock_7_4.png,1.0,37,,,,,,,,,,,,,,,,,,,,,,,,,,,,,,,,
1.0,1.0,0.92184,0.0,4.0,4.0,4.0,1.0,plaster_cast_13s.jpg,1.0,clock_7_5.png,1.0,37,,,,,,,,,,,,,,,,,,,,,,,,,,,,,,,,
0.0,1.0,0.821985,0.0,5.0,5.0,5.0,1.0,ant_12s.jpg,0.0,clock_7_6.png,1.0,37,,,,,,,,,,,,,,,,,,,,,,,,,,,,,,,,
1.0,1.0,1.506945,0.0,6.0,6.0,6.0,1.0,mattress_01s.jpg,1.0,clock_7_7.png,1.0,37,,,,,,,,,,,,,,,,,,,,,,,,,,,,,,,,
0.0,1.0,1.32074,0.0,7.0,7.0,7.0,1.0,coffee_filter_10s.jpg,0.0,clock_6_1.png,2.0,37,,,,,,,,,,,,,,,,,,,,,,,,,,,,,,,,
0.0,1.0,0.87071,0.0,8.0,8.0,8.0,1.0,comic_book_02s.jpg,0.0,clock_6_2.png,2.0,37,,,,,,,,,,,,,,,,,,,,,,,,,,,,,,,,
0.0,1.0,0.918555,0.0,9.0,9.0,9.0,1.0,rocking_chair_05s.jpg,0.0,clock_6_3.png,2.0,37,,,,,,,,,,,,,,,,,,,,,,,,,,,,,,,,
0.0,1.0,1.083685,0.0,10.0,10.0,10.0,1.0,squirt_gun_03s.jpg,0.0,clock_6_4.png,2.0,37,,,,,,,,,,,,,,,,,,,,,,,,,,,,,,,,
0.0,1.0,0.800035,0.0,11.0,11.0,11.0,1.0,ice_pack_09s.jpg,0.0,clock_6_5.png,2.0,37,,,,,,,,,,,,,,,,,,,,,,,,,,,,,,,,
0.0,1.0,1.188,0.0,12.0,12.0,12.0,1.0,fox_13s.jpg,0.0,clock_6_6.png,2.0,37,,,,,,,,,,,,,,,,,,,,,,,,,,,,,,,,
0.0,1.0,0.85461,0.0,13.0,13.0,13.0,1.0,popcorn_09s.jpg,0.0,clock_6_1.png,3.0,37,,,,,,,,,,,,,,,,,,,,,,,,,,,,,,,,
0.0,1.0,0.559165,0.0,14.0,14.0,14.0,1.0,bowler_hat_10s.jpg,0.0,clock_6_2.png,3.0,37,,,,,,,,,,,,,,,,,,,,,,,,,,,,,,,,
0.0,1.0,0.977015,0.0,15.0,15.0,15.0,1.0,magnet_03s.jpg,0.0,clock_6_3.png,3.0,37,,,,,,,,,,,,,,,,,,,,,,,,,,,,,,,,
0.0,1.0,1.25573,0.0,16.0,16.0,16.0,1.0,tinsel_12s.jpg,0.0,clock_6_4.png,3.0,37,,,,,,,,,,,,,,,,,,,,,,,,,,,,,,,,
0.0,1.0,1.121505,0.0,17.0,17.0,17.0,1.0,kettle_08s.jpg,0.0,clock_6_5.png,3.0,37,,,,,,,,,,,,,,,,,,,,,,,,,,,,,,,,
0.0,1.0,0.591795,0.0,18.0,18.0,18.0,1.0,checkbook_11s.jpg,0.0,clock_6_6.png,3.0,37,,,,,,,,,,,,,,,,,,,,,,,,,,,,,,,,
0.0,1.0,0.77236,0.0,19.0,19.0,19.0,1.0,thumbtack_14s.jpg,0.0,clock_5_1.png,4.0,37,,,,,,,,,,,,,,,,,,,,,,,,,,,,,,,,
0.0,1.0,0.53902,0.0,20.0,20.0,20.0,1.0,turf_03s.jpg,0.0,clock_5_2.png,4.0,37,,,,,,,,,,,,,,,,,,,,,,,,,,,,,,,,
0.0,1.0,0.80261,0.0,21.0,21.0,21.0,1.0,peanut_butter_08s.jpg,0.0,clock_5_3.png,4.0,37,,,,,,,,,,,,,,,,,,,,,,,,,,,,,,,,
0.0,1.0,1.112045,0.0,22.0,22.0,22.0,1.0,lamb_04s.jpg,0.0,clock_5_4.png,4.0,37,,,,,,,,,,,,,,,,,,,,,,,,,,,,,,,,
0.0,1.0,0.935295,0.0,23.0,23.0,23.0,1.0,telephone_pole_05s.jpg,0.0,clock_5_5.png,4.0,37,,,,,,,,,,,,,,,,,,,,,,,,,,,,,,,,
0.0,1.0,0.68945,0.0,24.0,24.0,24.0,1.0,mascara_03s.jpg,0.0,clock_5_1.png,5.0,37,,,,,,,,,,,,,,,,,,,,,,,,,,,,,,,,
0.0,1.0,1.209875,0.0,25.0,25.0,25.0,1.0,prism_10s.jpg,0.0,clock_5_2.png,5.0,37,,,,,,,,,,,,,,,,,,,,,,,,,,,,,,,,
0.0,1.0,0.990845,0.0,26.0,26.0,26.0,1.0,puffin_19s.jpg,0.0,clock_5_3.png,5.0,37,,,,,,,,,,,,,,,,,,,,,,,,,,,,,,,,
0.0,1.0,0.87614,0.0,27.0,27.0,27.0,1.0,lid_10s.jpg,0.0,clock_5_4.png,5.0,37,,,,,,,,,,,,,,,,,,,,,,,,,,,,,,,,
0.0,1.0,0.9072,0.0,28.0,28.0,28.0,1.0,keyboard_05s.jpg,0.0,clock_5_5.png,5.0,37,,,,,,,,,,,,,,,,,,,,,,,,,,,,,,,,
0.0,1.0,0.57163,0.0,29.0,29.0,29.0,1.0,fire_pit_10s.jpg,0.0,clock_7_1.png,6.0,37,,,,,,,,,,,,,,,,,,,,,,,,,,,,,,,,
0.0,1.0,0.8041,0.0,30.0,30.0,30.0,1.0,ice_pack_09s.jpg,0.0,clock_7_2.png,6.0,37,,,,,,,,,,,,,,,,,,,,,,,,,,,,,,,,
0.0,1.0,0.867815,0.0,31.0,31.0,31.0,1.0,hydrant_10s.jpg,0.0,clock_7_3.png,6.0,37,,,,,,,,,,,,,,,,,,,,,,,,,,,,,,,,
1.0,1.0,0.817545,0.0,32.0,32.0,32.0,1.0,hydrant_10s.jpg,1.0,clock_7_4.png,6.0,37,,,,,,,,,,,,,,,,,,,,,,,,,,,,,,,,
0.0,1.0,0.8198,0.0,33.0,33.0,33.0,1.0,tuba_12s.jpg,0.0,clock_7_5.png,6.0,37,,,,,,,,,,,,,,,,,,,,,,,,,,,,,,,,
0.0,1.0,1.17536,0.0,34.0,34.0,34.0,1.0,tulip_02s.jpg,0.0,clock_7_6.png,6.0,37,,,,,,,,,,,,,,,,,,,,,,,,,,,,,,,,
0.0,1.0,0.76732,0.0,35.0,35.0,35.0,1.0,jetski_10s.jpg,0.0,clock_7_7.png,6.0,37,,,,,,,,,,,,,,,,,,,,,,,,,,,,,,,,
,,,,,,,,,0.0,,,37,1.0,0.0,1.36876,0.0,0.0,0.0,0.0,1.0,comic_book_02s.jpg,ant_12s.jpg,,,,,,,,,,,,,,,,,,,,,,
,,,,,,,,,1.0,,,37,0.0,0.0,1.069795,0.0,1.0,1.0,1.0,1.0,puffin_19s.jpg,fire_pit_10s.jpg,,,,,,,,,,,,,,,,,,,,,,
,,,,,,,,,0.0,,,37,0.0,1.0,1.524135,0.0,2.0,2.0,2.0,1.0,peanut_butter_08s.jpg,checkbook_11s.jpg,,,,,,,,,,,,,,,,,,,,,,
,,,,,,,,,0.0,,,37,0.0,1.0,1.078975,0.0,3.0,3.0,3.0,1.0,squirt_gun_03s.jpg,coffee_filter_10s.jpg,,,,,,,,,,,,,,,,,,,,,,
,,,,,,,,,0.0,,,37,1.0,0.0,1.10665,0.0,4.0,4.0,4.0,1.0,fox_13s.jpg,rocking_chair_05s.jpg,,,,,,,,,,,,,,,,,,,,,,
,,,,,,,,,0.0,,,37,1.0,0.0,1.04285,0.0,5.0,5.0,5.0,1.0,kettle_08s.jpg,bowler_hat_10s.jpg,,,,,,,,,,,,,,,,,,,,,,
0.0,1.0,1.33532,,,,,,jelly_bean_06s.jpg,0.0,clockno_up.jpg,1.0,37,,,,,,,,,,,,,,,,,,0.0,0.0,0.0,0.0,1.0,,,,,,,,,,
0.0,1.0,1.374175,,,,,,diving_board_07s.jpg,0.0,clockno_default.jpg,1.0,37,,,,,,,,,,,,,,,,,,0.0,1.0,1.0,1.0,1.0,,,,,,,,,,
1.0,1.0,1.1732,,,,,,jelly_bean_06s.jpg,1.0,clockno_default.jpg,1.0,37,,,,,,,,,,,,,,,,,,0.0,2.0,2.0,2.0,1.0,,,,,,,,,,
0.0,1.0,1.334585,,,,,,top_hat_11s.jpg,0.0,clockno_default.jpg,1.0,37,,,,,,,,,,,,,,,,,,0.0,3.0,3.0,3.0,1.0,,,,,,,,,,
0.0,1.0,0.78913,,,,,,olive_05s.jpg,0.0,clockno_default.jpg,1.0,37,,,,,,,,,,,,,,,,,,0.0,4.0,4.0,4.0,1.0,,,,,,,,,,
1.0,1.0,1.65968,,,,,,top_hat_11s.jpg,1.0,clockno_default.jpg,1.0,37,,,,,,,,,,,,,,,,,,0.0,5.0,5.0,5.0,1.0,,,,,,,,,,
0.0,1.0,1.011475,,,,,,blazer_02s.jpg,0.0,clockno_up.jpg,2.0,37,,,,,,,,,,,,,,,,,,0.0,6.0,6.0,6.0,1.0,,,,,,,,,,
0.0,1.0,1.49567,,,,,,top_hat_11s.jpg,0.0,clockno_default.jpg,2.0,37,,,,,,,,,,,,,,,,,,0.0,7.0,7.0,7.0,1.0,,,,,,,,,,
0.0,1.0,0.7529,,,,,,mango_09s.jpg,0.0,clockno_default.jpg,2.0,37,,,,,,,,,,,,,,,,,,0.0,8.0,8.0,8.0,1.0,,,,,,,,,,
0.0,1.0,0.853635,,,,,,badge_03s.jpg,0.0,clockno_default.jpg,2.0,37,,,,,,,,,,,,,,,,,,0.0,9.0,9.0,9.0,1.0,,,,,,,,,,
0.0,1.0,0.63555,,,,,,swing_set_15s.jpg,0.0,clockno_default.jpg,2.0,37,,,,,,,,,,,,,,,,,,0.0,10.0,10.0,10.0,1.0,,,,,,,,,,
0.0,1.0,0.621435,,,,,,pepper2_21s.jpg,0.0,clockno_up.jpg,3.0,37,,,,,,,,,,,,,,,,,,0.0,11.0,11.0,11.0,1.0,,,,,,,,,,
0.0,1.0,0.651745,,,,,,rosary_03s.jpg,0.0,clockno_default.jpg,3.0,37,,,,,,,,,,,,,,,,,,0.0,12.0,12.0,12.0,1.0,,,,,,,,,,
0.0,1.0,0.723965,,,,,,oil_02s.jpg,0.0,clockno_default.jpg,3.0,37,,,,,,,,,,,,,,,,,,0.0,13.0,13.0,13.0,1.0,,,,,,,,,,
0.0,1.0,0.67482,,,,,,swan_11s.jpg,0.0,clockno_default.jpg,3.0,37,,,,,,,,,,,,,,,,,,0.0,14.0,14.0,14.0,1.0,,,,,,,,,,
0.0,1.0,0.77361,,,,,,stamp1_11s.jpg,0.0,clockno_default.jpg,3.0,37,,,,,,,,,,,,,,,,,,0.0,15.0,15.0,15.0,1.0,,,,,,,,,,
0.0,1.0,0.686435,,,,,,contact_lens_15s.jpg,0.0,clockno_default.jpg,3.0,37,,,,,,,,,,,,,,,,,,0.0,16.0,16.0,16.0,1.0,,,,,,,,,,
0.0,1.0,0.676155,,,,,,pocket_watch_16s.jpg,0.0,clockno_default.jpg,3.0,37,,,,,,,,,,,,,,,,,,0.0,17.0,17.0,17.0,1.0,,,,,,,,,,
0.0,1.0,1.05677,,,,,,pie_08s.jpg,0.0,clockno_up.jpg,4.0,37,,,,,,,,,,,,,,,,,,0.0,18.0,18.0,18.0,1.0,,,,,,,,,,
0.0,1.0,0.641215,,,,,,moth_06n.jpg,0.0,clockno_default.jpg,4.0,37,,,,,,,,,,,,,,,,,,0.0,19.0,19.0,19.0,1.0,,,,,,,,,,
1.0,1.0,0.878105,,,,,,moth_06n.jpg,1.0,clockno_default.jpg,4.0,37,,,,,,,,,,,,,,,,,,0.0,20.0,20.0,20.0,1.0,,,,,,,,,,
1.0,1.0,0.65338,,,,,,moth_06n.jpg,1.0,clockno_default.jpg,4.0,37,,,,,,,,,,,,,,,,,,0.0,21.0,21.0,21.0,1.0,,,,,,,,,,
0.0,1.0,1.03957,,,,,,soccer_ball_12s.jpg,0.0,clockno_default.jpg,4.0,37,,,,,,,,,,,,,,,,,,0.0,22.0,22.0,22.0,1.0,,,,,,,,,,
0.0,1.0,1.07286,,,,,,lion_18s.jpg,0.0,clockno_default.jpg,4.0,37,,,,,,,,,,,,,,,,,,0.0,23.0,23.0,23.0,1.0,,,,,,,,,,
1.0,1.0,0.862835,,,,,,soccer_ball_12s.jpg,1.0,clockno_default.jpg,4.0,37,,,,,,,,,,,,,,,,,,0.0,24.0,24.0,24.0,1.0,,,,,,,,,,
0.0,1.0,1.385225,,,,,,tweezers_03s.jpg,0.0,clockno_up.jpg,5.0,37,,,,,,,,,,,,,,,,,,0.0,25.0,25.0,25.0,1.0,,,,,,,,,,
0.0,1.0,1.61964,,,,,,tape_06s.jpg,0.0,clockno_default.jpg,5.0,37,,,,,,,,,,,,,,,,,,0.0,26.0,26.0,26.0,1.0,,,,,,,,,,
0.0,1.0,0.69015,,,,,,olive_05s.jpg,0.0,clockno_default.jpg,5.0,37,,,,,,,,,,,,,,,,,,0.0,27.0,27.0,27.0,1.0,,,,,,,,,,
0.0,1.0,0.62259,,,,,,luggage_08s.jpg,0.0,clockno_default.jpg,5.0,37,,,,,,,,,,,,,,,,,,0.0,28.0,28.0,28.0,1.0,,,,,,,,,,
0.0,1.0,0.735265,,,,,,mailbox_11s.jpg,0.0,clockno_default.jpg,5.0,37,,,,,,,,,,,,,,,,,,0.0,29.0,29.0,29.0,1.0,,,,,,,,,,
0.0,1.0,0.706205,,,,,,denture_03s.jpg,0.0,clockno_up.jpg,6.0,37,,,,,,,,,,,,,,,,,,0.0,30.0,30.0,30.0,1.0,,,,,,,,,,
1.0,1.0,0.725115,,,,,,denture_03s.jpg,1.0,clockno_default.jpg,6.0,37,,,,,,,,,,,,,,,,,,0.0,31.0,31.0,31.0,1.0,,,,,,,,,,
0.0,1.0,0.851725,,,,,,megaphone_03s.jpg,0.0,clockno_default.jpg,6.0,37,,,,,,,,,,,,,,,,,,0.0,32.0,32.0,32.0,1.0,,,,,,,,,,
1.0,1.0,0.81126,,,,,,megaphone_03s.jpg,1.0,clockno_default.jpg,6.0,37,,,,,,,,,,,,,,,,,,0.0,33.0,33.0,33.0,1.0,,,,,,,,,,
0.0,1.0,0.737015,,,,,,basket_05s.jpg,0.0,clockno_default.jpg,6.0,37,,,,,,,,,,,,,,,,,,0.0,34.0,34.0,34.0,1.0,,,,,,,,,,
0.0,1.0,0.64462,,,,,,champagne_18s.jpg,0.0,clockno_default.jpg,6.0,37,,,,,,,,,,,,,,,,,,0.0,35.0,35.0,35.0,1.0,,,,,,,,,,
,,,,,,,,,1.0,,,37,1.0,1.0,1.449175,,,,,,mango_09s.jpg,pepper2_21s.jpg,,,,,,,,,,,,,0.0,0.0,0.0,0.0,1.0,,,,,
,,,,,,,,,1.0,,,37,0.0,0.0,1.655005,,,,,,swing_set_15s.jpg,oil_02s.jpg,,,,,,,,,,,,,0.0,1.0,1.0,1.0,1.0,,,,,
,,,,,,,,,0.0,,,37,0.0,1.0,1.356075,,,,,,pie_08s.jpg,stamp1_11s.jpg,,,,,,,,,,,,,0.0,2.0,2.0,2.0,1.0,,,,,
,,,,,,,,,0.0,,,37,0.0,1.0,1.053145,,,,,,pocket_watch_16s.jpg,swan_11s.jpg,,,,,,,,,,,,,0.0,3.0,3.0,3.0,1.0,,,,,
,,,,,,,,,0.0,,,37,0.0,1.0,1.40977,,,,,,luggage_08s.jpg,tweezers_03s.jpg,,,,,,,,,,,,,0.0,4.0,4.0,4.0,1.0,,,,,
,,,,,,,,,1.0,,,37,1.0,1.0,1.05299,,,,,,blazer_02s.jpg,badge_03s.jpg,,,,,,,,,,,,,0.0,5.0,5.0,5.0,1.0,,,,,
,,,,,,,,,,,,37,,,,,,,,,,,,,,,,clockno_present_1_10.xlsx,clockno_compare_task_1_10.xlsx,,,,,,,,,,,0.0,0.0,0.0,0.0,1.0
0.0,1.0,1.089965,,,,,,juicer2_06s.jpg,0.0,clockno_up.jpg,1.0,37,,,,,,,,,,,,,,,,,,0.0,0.0,0.0,0.0,1.0,,,,,,,,,,
1.0,1.0,1.01997,,,,,,juicer2_06s.jpg,1.0,clockno_default.jpg,1.0,37,,,,,,,,,,,,,,,,,,0.0,1.0,1.0,1.0,1.0,,,,,,,,,,
0.0,1.0,0.790145,,,,,,pipe1_10s.jpg,0.0,clockno_default.jpg,1.0,37,,,,,,,,,,,,,,,,,,0.0,2.0,2.0,2.0,1.0,,,,,,,,,,
0.0,1.0,0.6356,,,,,,key_07s.jpg,0.0,clockno_default.jpg,1.0,37,,,,,,,,,,,,,,,,,,0.0,3.0,3.0,3.0,1.0,,,,,,,,,,
1.0,1.0,1.45351,,,,,,pipe1_10s.jpg,1.0,clockno_default.jpg,1.0,37,,,,,,,,,,,,,,,,,,0.0,4.0,4.0,4.0,1.0,,,,,,,,,,
0.0,1.0,0.921605,,,,,,rug_09s.jpg,0.0,clockno_default.jpg,1.0,37,,,,,,,,,,,,,,,,,,0.0,5.0,5.0,5.0,1.0,,,,,,,,,,
0.0,1.0,0.9706,,,,,,fireworks_18s.jpg,0.0,clockno_default.jpg,1.0,37,,,,,,,,,,,,,,,,,,0.0,6.0,6.0,6.0,1.0,,,,,,,,,,
0.0,1.0,1.256685,,,,,,toilet_paper_12s.jpg,0.0,clockno_up.jpg,2.0,37,,,,,,,,,,,,,,,,,,0.0,7.0,7.0,7.0,1.0,,,,,,,,,,
0.0,1.0,0.90697,,,,,,coat_rack_01b.jpg,0.0,clockno_default.jpg,2.0,37,,,,,,,,,,,,,,,,,,0.0,8.0,8.0,8.0,1.0,,,,,,,,,,
0.0,1.0,1.05861,,,,,,jewel_01b.jpg,0.0,clockno_default.jpg,2.0,37,,,,,,,,,,,,,,,,,,0.0,9.0,9.0,9.0,1.0,,,,,,,,,,
0.0,1.0,1.16949,,,,,,stapler_01b.jpg,0.0,clockno_default.jpg,2.0,37,,,,,,,,,,,,,,,,,,0.0,10.0,10.0,10.0,1.0,,,,,,,,,,
0.0,1.0,0.61952,,,,,,mop_08s.jpg,0.0,clockno_default.jpg,2.0,37,,,,,,,,,,,,,,,,,,0.0,11.0,11.0,11.0,1.0,,,,,,,,,,
0.0,1.0,0.874105,,,,,,punch1_10s.jpg,0.0,clockno_default.jpg,2.0,37,,,,,,,,,,,,,,,,,,0.0,12.0,12.0,12.0,1.0,,,,,,,,,,
0.0,1.0,1.159565,,,,,,safety_pin_02s.jpg,0.0,clockno_up.jpg,3.0,37,,,,,,,,,,,,,,,,,,0.0,13.0,13.0,13.0,1.0,,,,,,,,,,
0.0,1.0,0.83699,,,,,,icemaker_10s.jpg,0.0,clockno_default.jpg,3.0,37,,,,,,,,,,,,,,,,,,0.0,14.0,14.0,14.0,1.0,,,,,,,,,,
0.0,1.0,1.58973,,,,,,loom_05s.jpg,0.0,clockno_default.jpg,3.0,37,,,,,,,,,,,,,,,,,,0.0,15.0,15.0,15.0,1.0,,,,,,,,,,
0.0,1.0,0.855805,,,,,,pipe1_10s.jpg,0.0,clockno_default.jpg,3.0,37,,,,,,,,,,,,,,,,,,0.0,16.0,16.0,16.0,1.0,,,,,,,,,,
0.0,1.0,0.62064,,,,,,pillow_03s.jpg,0.0,clockno_default.jpg,3.0,37,,,,,,,,,,,,,,,,,,0.0,17.0,17.0,17.0,1.0,,,,,,,,,,
0.0,1.0,0.888405,,,,,,punch2_09s.jpg,0.0,clockno_default.jpg,3.0,37,,,,,,,,,,,,,,,,,,0.0,18.0,18.0,18.0,1.0,,,,,,,,,,
0.0,1.0,1.156945,,,,,,ravioli_08s.jpg,0.0,clockno_up.jpg,4.0,37,,,,,,,,,,,,,,,,,,0.0,19.0,19.0,19.0,1.0,,,,,,,,,,
0.0,1.0,0.892895,,,,,,key_07s.jpg,0.0,clockno_default.jpg,4.0,37,,,,,,,,,,,,,,,,,,0.0,20.0,20.0,20.0,1.0,,,,,,,,,,
0.0,1.0,0.792285,,,,,,light_switch_02s.jpg,0.0,clockno_default.jpg,4.0,37,,,,,,,,,,,,,,,,,,0.0,21.0,21.0,21.0,1.0,,,,,,,,,,
0.0,1.0,0.722575,,,,,,birthday_cake_09s.jpg,0.0,clockno_default.jpg,4.0,37,,,,,,,,,,,,,,,,,,0.0,22.0,22.0,22.0,1.0,,,,,,,,,,
0.0,1.0,1.103745,,,,,,foam_03s.jpg,0.0,clockno_default.jpg,4.0,37,,,,,,,,,,,,,,,,,,0.0,23.0,23.0,23.0,1.0,,,,,,,,,,
0.0,1.0,1.290845,,,,,,meatball_13s.jpg,0.0,clockno_up.jpg,5.0,37,,,,,,,,,,,,,,,,,,0.0,24.0,24.0,24.0,1.0,,,,,,,,,,
0.0,1.0,0.800025,,,,,,screwdriver02a.jpg,0.0,clockno_default.jpg,5.0,37,,,,,,,,,,,,,,,,,,0.0,25.0,25.0,25.0,1.0,,,,,,,,,,
0.0,1.0,0.70509,,,,,,jewel_01b.jpg,0.0,clockno_default.jpg,5.0,37,,,,,,,,,,,,,,,,,,0.0,26.0,26.0,26.0,1.0,,,,,,,,,,
1.0,1.0,0.957715,,,,,,meatball_13s.jpg,1.0,clockno_default.jpg,5.0,37,,,,,,,,,,,,,,,,,,0.0,27.0,27.0,27.0,1.0,,,,,,,,,,
1.0,1.0,1.278865,,,,,,screwdriver02a.jpg,1.0,clockno_default.jpg,5.0,37,,,,,,,,,,,,,,,,,,0.0,28.0,28.0,28.0,1.0,,,,,,,,,,
0.0,1.0,0.911555,,,,,,jersey_02s.jpg,0.0,clockno_default.jpg,5.0,37,,,,,,,,,,,,,,,,,,0.0,29.0,29.0,29.0,1.0,,,,,,,,,,
0.0,1.0,1.08952,,,,,,jukebox_03n.jpg,0.0,clockno_default.jpg,5.0,37,,,,,,,,,,,,,,,,,,0.0,30.0,30.0,30.0,1.0,,,,,,,,,,
0.0,1.0,1.056385,,,,,,mousetrap_15n.jpg,0.0,clockno_up.jpg,6.0,37,,,,,,,,,,,,,,,,,,0.0,31.0,31.0,31.0,1.0,,,,,,,,,,
0.0,1.0,0.629105,,,,,,bank_06s.jpg,0.0,clockno_default.jpg,6.0,37,,,,,,,,,,,,,,,,,,0.0,32.0,32.0,32.0,1.0,,,,,,,,,,
0.0,1.0,0.802405,,,,,,laundry_basket_11s.jpg,0.0,clockno_default.jpg,6.0,37,,,,,,,,,,,,,,,,,,0.0,33.0,33.0,33.0,1.0,,,,,,,,,,
0.0,1.0,0.752355,,,,,,margarita_03s.jpg,0.0,clockno_default.jpg,6.0,37,,,,,,,,,,,,,,,,,,0.0,34.0,34.0,34.0,1.0,,,,,,,,,,
0.0,1.0,0.73771,,,,,,sundae_08s.jpg,0.0,clockno_default.jpg,6.0,37,,,,,,,,,,,,,,,,,,0.0,35.0,35.0,35.0,1.0,,,,,,,,,,
,,,,,,,,,1.0,,,37,1.0,1.0,1.61776,,,,,,jukebox_03n.jpg,laundry_basket_11s.jpg,,,,,,,,,,,,,0.0,0.0,0.0,0.0,1.0,,,,,
,,,,,,,,,0.0,,,37,0.0,1.0,1.68817,,,,,,coat_rack_01b.jpg,rug_09s.jpg,,,,,,,,,,,,,0.0,1.0,1.0,1.0,1.0,,,,,
,,,,,,,,,0.0,,,37,1.0,0.0,1.8043,,,,,,safety_pin_02s.jpg,stapler_01b.jpg,,,,,,,,,,,,,0.0,2.0,2.0,2.0,1.0,,,,,
,,,,,,,,,0.0,,,37,0.0,1.0,1.219085,,,,,,birthday_cake_09s.jpg,ravioli_08s.jpg,,,,,,,,,,,,,0.0,3.0,3.0,3.0,1.0,,,,,
,,,,,,,,,1.0,,,37,0.0,0.0,1.301505,,,,,,mousetrap_15n.jpg,margarita_03s.jpg,,,,,,,,,,,,,0.0,4.0,4.0,4.0,1.0,,,,,
,,,,,,,,,0.0,,,37,1.0,0.0,1.68799,,,,,,pillow_03s.jpg,icemaker_10s.jpg,,,,,,,,,,,,,0.0,5.0,5.0,5.0,1.0,,,,,
,,,,,,,,,,,,37,,,,,,,,,,,,,,,,clockno_present_2_10.xlsx,clockno_compare_task_2_10.xlsx,,,,,,,,,,,0.0,1.0,1.0,1.0,1.0
0.0,1.0,0.602465,,,,,,crayon_09s.jpg,0.0,clockno_up.jpg,1.0,37,,,,,,,,,,,,,,,,,,0.0,0.0,0.0,0.0,1.0,,,,,,,,,,
0.0,1.0,0.559555,,,,,,trident_07s.jpg,0.0,clockno_default.jpg,1.0,37,,,,,,,,,,,,,,,,,,0.0,1.0,1.0,1.0,1.0,,,,,,,,,,
0.0,1.0,0.909935,,,,,,paintbrush_04s.jpg,0.0,clockno_default.jpg,1.0,37,,,,,,,,,,,,,,,,,,0.0,2.0,2.0,2.0,1.0,,,,,,,,,,
1.0,1.0,0.80468,,,,,,paintbrush_04s.jpg,1.0,clockno_default.jpg,1.0,37,,,,,,,,,,,,,,,,,,0.0,3.0,3.0,3.0,1.0,,,,,,,,,,
1.0,1.0,0.762,,,,,,crayon_09s.jpg,1.0,clockno_default.jpg,1.0,37,,,,,,,,,,,,,,,,,,0.0,4.0,4.0,4.0,1.0,,,,,,,,,,
0.0,1.0,1.136075,,,,,,dashboard_02s.jpg,0.0,clockno_default.jpg,1.0,37,,,,,,,,,,,,,,,,,,0.0,5.0,5.0,5.0,1.0,,,,,,,,,,
0.0,1.0,1.16886,,,,,,laser_pointer_02s.jpg,0.0,clockno_default.jpg,1.0,37,,,,,,,,,,,,,,,,,,0.0,6.0,6.0,6.0,1.0,,,,,,,,,,
0.0,1.0,1.02219,,,,,,icicle_04s.jpg,0.0,clockno_up.jpg,2.0,37,,,,,,,,,,,,,,,,,,0.0,7.0,7.0,7.0,1.0,,,,,,,,,,
0.0,1.0,0.806845,,,,,,cereal_04s.jpg,0.0,clockno_default.jpg,2.0,37,,,,,,,,,,,,,,,,,,0.0,8.0,8.0,8.0,1.0,,,,,,,,,,
0.0,1.0,0.974555,,,,,,teabag_12s.jpg,0.0,clockno_default.jpg,2.0,37,,,,,,,,,,,,,,,,,,0.0,9.0,9.0,9.0,1.0,,,,,,,,,,
0.0,1.0,0.853195,,,,,,iron_13s.jpg,0.0,clockno_default.jpg,2.0,37,,,,,,,,,,,,,,,,,,0.0,10.0,10.0,10.0,1.0,,,,,,,,,,
0.0,0.0,0.772975,,,,,,teabag_12s.jpg,1.0,clockno_default.jpg,2.0,37,,,,,,,,,,,,,,,,,,0.0,11.0,11.0,11.0,1.0,,,,,,,,,,
1.0,1.0,0.871385,,,,,,cereal_04s.jpg,1.0,clockno_default.jpg,2.0,37,,,,,,,,,,,,,,,,,,0.0,12.0,12.0,12.0,1.0,,,,,,,,,,
0.0,1.0,1.48923,,,,,,coral_08s.jpg,0.0,clockno_up.jpg,3.0,37,,,,,,,,,,,,,,,,,,0.0,13.0,13.0,13.0,1.0,,,,,,,,,,
0.0,1.0,0.886775,,,,,,tape_measure_11s.jpg,0.0,clockno_default.jpg,3.0,37,,,,,,,,,,,,,,,,,,0.0,14.0,14.0,14.0,1.0,,,,,,,,,,
0.0,1.0,0.760815,,,,,,chocolate_01b.jpg,0.0,clockno_default.jpg,3.0,37,,,,,,,,,,,,,,,,,,0.0,15.0,15.0,15.0,1.0,,,,,,,,,,
0.0,1.0,0.97271,,,,,,iron_13s.jpg,0.0,clockno_default.jpg,3.0,37,,,,,,,,,,,,,,,,,,0.0,16.0,16.0,16.0,1.0,,,,,,,,,,
1.0,1.0,0.722895,,,,,,coral_08s.jpg,1.0,clockno_default.jpg,3.0,37,,,,,,,,,,,,,,,,,,0.0,17.0,17.0,17.0,1.0,,,,,,,,,,
0.0,1.0,1.15937,,,,,,turnstile_08s.jpg,0.0,clockno_up.jpg,4.0,37,,,,,,,,,,,,,,,,,,0.0,18.0,18.0,18.0,1.0,,,,,,,,,,
0.0,1.0,1.221585,,,,,,sparkler_02s.jpg,0.0,clockno_default.jpg,4.0,37,,,,,,,,,,,,,,,,,,0.0,19.0,19.0,19.0,1.0,,,,,,,,,,
0.0,1.0,0.98866,,,,,,inhaler_01b.jpg,0.0,clockno_default.jpg,4.0,37,,,,,,,,,,,,,,,,,,0.0,20.0,20.0,20.0,1.0,,,,,,,,,,
0.0,1.0,0.662075,,,,,,pencil02a.jpg,0.0,clockno_default.jpg,4.0,37,,,,,,,,,,,,,,,,,,0.0,21.0,21.0,21.0,1.0,,,,,,,,,,
0.0,1.0,0.672645,,,,,,bubble_01b.jpg,0.0,clockno_default.jpg,4.0,37,,,,,,,,,,,,,,,,,,0.0,22.0,22.0,22.0,1.0,,,,,,,,,,
0.0,1.0,0.587435,,,,,,emerald_02s.jpg,0.0,clockno_default.jpg,4.0,37,,,,,,,,,,,,,,,,,,0.0,23.0,23.0,23.0,1.0,,,,,,,,,,
0.0,1.0,0.740275,,,,,,insole_11s.jpg,0.0,clockno_up.jpg,5.0,37,,,,,,,,,,,,,,,,,,0.0,24.0,24.0,24.0,1.0,,,,,,,,,,
0.0,1.0,0.974745,,,,,,crayon_09s.jpg,0.0,clockno_default.jpg,5.0,37,,,,,,,,,,,,,,,,,,0.0,25.0,25.0,25.0,1.0,,,,,,,,,,
0.0,1.0,0.74465,,,,,,chocolate_01b.jpg,0.0,clockno_default.jpg,5.0,37,,,,,,,,,,,,,,,,,,0.0,26.0,26.0,26.0,1.0,,,,,,,,,,
0.0,1.0,0.844195,,,,,,boar_10s.jpg,0.0,clockno_default.jpg,5.0,37,,,,,,,,,,,,,,,,,,0.0,27.0,27.0,27.0,1.0,,,,,,,,,,
0.0,1.0,0.62194,,,,,,poinsettia_04s.jpg,0.0,clockno_default.jpg,5.0,37,,,,,,,,,,,,,,,,,,0.0,28.0,28.0,28.0,1.0,,,,,,,,,,
0.0,1.0,0.624995,,,,,,bean_06s.jpg,0.0,clockno_default.jpg,5.0,37,,,,,,,,,,,,,,,,,,0.0,29.0,29.0,29.0,1.0,,,,,,,,,,
0.0,1.0,0.88923,,,,,,stethoscope_01b.jpg,0.0,clockno_default.jpg,5.0,37,,,,,,,,,,,,,,,,,,0.0,30.0,30.0,30.0,1.0,,,,,,,,,,
0.0,1.0,1.070655,,,,,,rice_12s.jpg,0.0,clockno_up.jpg,6.0,37,,,,,,,,,,,,,,,,,,0.0,31.0,31.0,31.0,1.0,,,,,,,,,,
0.0,1.0,0.585555,,,,,,camcorder_10s.jpg,0.0,clockno_default.jpg,6.0,37,,,,,,,,,,,,,,,,,,0.0,32.0,32.0,32.0,1.0,,,,,,,,,,
0.0,1.0,1.0211,,,,,,glasses01a.jpg,0.0,clockno_default.jpg,6.0,37,,,,,,,,,,,,,,,,,,0.0,33.0,33.0,33.0,1.0,,,,,,,,,,
0.0,1.0,0.98584,,,,,,kayak_08s.jpg,0.0,clockno_default.jpg,6.0,37,,,,,,,,,,,,,,,,,,0.0,34.0,34.0,34.0,1.0,,,,,,,,,,
1.0,0.0,1.17286,,,,,,triangle_10s.jpg,0.0,clockno_default.jpg,6.0,37,,,,,,,,,,,,,,,,,,0.0,35.0,35.0,35.0,1.0,,,,,,,,,,
,,,,,,,,,1.0,,,37,1.0,1.0,1.899335,,,,,,poinsettia_04s.jpg,rice_12s.jpg,,,,,,,,,,,,,0.0,0.0,0.0,0.0,1.0,,,,,
,,,,,,,,,1.0,,,37,1.0,1.0,1.071225,,,,,,bean_06s.jpg,camcorder_10s.jpg,,,,,,,,,,,,,0.0,1.0,1.0,1.0,1.0,,,,,
,,,,,,,,,1.0,,,37,1.0,1.0,1.282515,,,,,,stethoscope_01b.jpg,glasses01a.jpg,,,,,,,,,,,,,0.0,2.0,2.0,2.0,1.0,,,,,
,,,,,,,,,1.0,,,37,0.0,0.0,0.943915,,,,,,sparkler_02s.jpg,bubble_01b.jpg,,,,,,,,,,,,,0.0,3.0,3.0,3.0,1.0,,,,,
,,,,,,,,,0.0,,,37,1.0,0.0,1.05363,,,,,,emerald_02s.jpg,inhaler_01b.jpg,,,,,,,,,,,,,0.0,4.0,4.0,4.0,1.0,,,,,
,,,,,,,,,0.0,,,37,1.0,0.0,1.55847,,,,,,pencil02a.jpg,turnstile_08s.jpg,,,,,,,,,,,,,0.0,5.0,5.0,5.0,1.0,,,,,
,,,,,,,,,,,,37,,,,,,,,,,,,,,,,clockno_present_3_10.xlsx,clockno_compare_task_3_10.xlsx,,,,,,,,,,,0.0,2.0,2.0,2.0,1.0
0.0,1.0,1.700505,,,,,,quad_04s.jpg,0.0,clockno_up.jpg,1.0,37,,,,,,,,,,,,,,,,,,0.0,0.0,0.0,0.0,1.0,,,,,,,,,,
1.0,1.0,1.161195,,,,,,quad_04s.jpg,1.0,clockno_default.jpg,1.0,37,,,,,,,,,,,,,,,,,,0.0,1.0,1.0,1.0,1.0,,,,,,,,,,
0.0,1.0,0.636315,,,,,,butter_14s.jpg,0.0,clockno_default.jpg,1.0,37,,,,,,,,,,,,,,,,,,0.0,2.0,2.0,2.0,1.0,,,,,,,,,,
0.0,1.0,0.75516,,,,,,cardinal_07s.jpg,0.0,clockno_default.jpg,1.0,37,,,,,,,,,,,,,,,,,,0.0,3.0,3.0,3.0,1.0,,,,,,,,,,
0.0,1.0,0.778985,,,,,,piano_13n.jpg,0.0,clockno_default.jpg,1.0,37,,,,,,,,,,,,,,,,,,0.0,4.0,4.0,4.0,1.0,,,,,,,,,,
0.0,1.0,0.85484,,,,,,sunglasses_11s.jpg,0.0,clockno_up.jpg,2.0,37,,,,,,,,,,,,,,,,,,0.0,5.0,5.0,5.0,1.0,,,,,,,,,,
0.0,1.0,0.80323,,,,,,piano_13n.jpg,0.0,clockno_default.jpg,2.0,37,,,,,,,,,,,,,,,,,,0.0,6.0,6.0,6.0,1.0,,,,,,,,,,
0.0,1.0,0.808415,,,,,,bacon_05s.jpg,0.0,clockno_default.jpg,2.0,37,,,,,,,,,,,,,,,,,,0.0,7.0,7.0,7.0,1.0,,,,,,,,,,
0.0,1.0,0.809505,,,,,,jet_15s.jpg,0.0,clockno_default.jpg,2.0,37,,,,,,,,,,,,,,,,,,0.0,8.0,8.0,8.0,1.0,,,,,,,,,,
1.0,1.0,0.86858,,,,,,jet_15s.jpg,1.0,clockno_default.jpg,2.0,37,,,,,,,,,,,,,,,,,,0.0,9.0,9.0,9.0,1.0,,,,,,,,,,
0.0,1.0,0.812905,,,,,,ukulele_02s.jpg,0.0,clockno_default.jpg,2.0,37,,,,,,,,,,,,,,,,,,0.0,10.0,10.0,10.0,1.0,,,,,,,,,,
0.0,0.0,1.701225,,,,,,jet_15s.jpg,1.0,clockno_default.jpg,2.0,37,,,,,,,,,,,,,,,,,,0.0,11.0,11.0,11.0,1.0,,,,,,,,,,
0.0,1.0,1.52158,,,,,,mask_09s.jpg,0.0,clockno_up.jpg,3.0,37,,,,,,,,,,,,,,,,,,0.0,12.0,12.0,12.0,1.0,,,,,,,,,,
0.0,1.0,0.87133,,,,,,treadmill_06s.jpg,0.0,clockno_default.jpg,3.0,37,,,,,,,,,,,,,,,,,,0.0,13.0,13.0,13.0,1.0,,,,,,,,,,
0.0,1.0,1.07431,,,,,,fondue_07s.jpg,0.0,clockno_default.jpg,3.0,37,,,,,,,,,,,,,,,,,,0.0,14.0,14.0,14.0,1.0,,,,,,,,,,
0.0,1.0,1.060385,,,,,,mold2_04s.jpg,0.0,clockno_default.jpg,3.0,37,,,,,,,,,,,,,,,,,,0.0,15.0,15.0,15.0,1.0,,,,,,,,,,
1.0,1.0,0.979535,,,,,,mold2_04s.jpg,1.0,clockno_default.jpg,3.0,37,,,,,,,,,,,,,,,,,,0.0,16.0,16.0,16.0,1.0,,,,,,,,,,
0.0,1.0,0.837365,,,,,,joystick_01b.jpg,0.0,clockno_up.jpg,4.0,37,,,,,,,,,,,,,,,,,,0.0,17.0,17.0,17.0,1.0,,,,,,,,,,
0.0,1.0,0.924805,,,,,,road_sign_05s.jpg,0.0,clockno_default.jpg,4.0,37,,,,,,,,,,,,,,,,,,0.0,18.0,18.0,18.0,1.0,,,,,,,,,,
0.0,1.0,0.62671,,,,,,rabbit_03s.jpg,0.0,clockno_default.jpg,4.0,37,,,,,,,,,,,,,,,,,,0.0,19.0,19.0,19.0,1.0,,,,,,,,,,
0.0,1.0,0.997595,,,,,,mold2_04s.jpg,0.0,clockno_default.jpg,4.0,37,,,,,,,,,,,,,,,,,,0.0,20.0,20.0,20.0,1.0,,,,,,,,,,
1.0,1.0,1.126715,,,,,,joystick_01b.jpg,1.0,clockno_default.jpg,4.0,37,,,,,,,,,,,,,,,,,,0.0,21.0,21.0,21.0,1.0,,,,,,,,,,
0.0,0.0,1.31002,,,,,,rabbit_03s.jpg,1.0,clockno_default.jpg,4.0,37,,,,,,,,,,,,,,,,,,0.0,22.0,22.0,22.0,1.0,,,,,,,,,,
0.0,1.0,1.139095,,,,,,cap_05s.jpg,0.0,clockno_up.jpg,5.0,37,,,,,,,,,,,,,,,,,,0.0,23.0,23.0,23.0,1.0,,,,,,,,,,
0.0,1.0,0.93887,,,,,,doily_13s.jpg,0.0,clockno_default.jpg,5.0,37,,,,,,,,,,,,,,,,,,0.0,24.0,24.0,24.0,1.0,,,,,,,,,,
0.0,1.0,2.03795,,,,,,ironing_board_07s.jpg,0.0,clockno_default.jpg,5.0,37,,,,,,,,,,,,,,,,,,0.0,25.0,25.0,25.0,1.0,,,,,,,,,,
1.0,1.0,1.460415,,,,,,doily_13s.jpg,1.0,clockno_default.jpg,5.0,37,,,,,,,,,,,,,,,,,,0.0,26.0,26.0,26.0,1.0,,,,,,,,,,
0.0,1.0,0.90805,,,,,,lavender_10s.jpg,0.0,clockno_default.jpg,5.0,37,,,,,,,,,,,,,,,,,,0.0,27.0,27.0,27.0,1.0,,,,,,,,,,
0.0,1.0,0.976605,,,,,,kilt_18s.jpg,0.0,clockno_default.jpg,5.0,37,,,,,,,,,,,,,,,,,,0.0,28.0,28.0,28.0,1.0,,,,,,,,,,
0.0,1.0,0.823345,,,,,,peach_04s.jpg,0.0,clockno_default.jpg,5.0,37,,,,,,,,,,,,,,,,,,0.0,29.0,29.0,29.0,1.0,,,,,,,,,,
0.0,1.0,1.089695,,,,,,espresso_01b.jpg,0.0,clockno_up.jpg,6.0,37,,,,,,,,,,,,,,,,,,0.0,30.0,30.0,30.0,1.0,,,,,,,,,,
0.0,1.0,1.19069,,,,,,coconut_08s.jpg,0.0,clockno_default.jpg,6.0,37,,,,,,,,,,,,,,,,,,0.0,31.0,31.0,31.0,1.0,,,,,,,,,,
0.0,1.0,0.91931,,,,,,slingshot_07s.jpg,0.0,clockno_default.jpg,6.0,37,,,,,,,,,,,,,,,,,,0.0,32.0,32.0,32.0,1.0,,,,,,,,,,
0.0,1.0,0.89199,,,,,,swordfish_05s.jpg,0.0,clockno_default.jpg,6.0,37,,,,,,,,,,,,,,,,,,0.0,33.0,33.0,33.0,1.0,,,,,,,,,,
0.0,1.0,0.628085,,,,,,tile_08s.jpg,0.0,clockno_default.jpg,6.0,37,,,,,,,,,,,,,,,,,,0.0,34.0,34.0,34.0,1.0,,,,,,,,,,
0.0,1.0,0.71841,,,,,,footprint_11s.jpg,0.0,clockno_default.jpg,6.0,37,,,,,,,,,,,,,,,,,,0.0,35.0,35.0,35.0,1.0,,,,,,,,,,
,,,,,,,,,0.0,,,37,1.0,0.0,1.07999,,,,,,sunglasses_11s.jpg,butter_14s.jpg,,,,,,,,,,,,,0.0,0.0,0.0,0.0,1.0,,,,,
,,,,,,,,,0.0,,,37,1.0,0.0,1.106665,,,,,,treadmill_06s.jpg,ukulele_02s.jpg,,,,,,,,,,,,,0.0,1.0,1.0,1.0,1.0,,,,,
,,,,,,,,,1.0,,,37,1.0,1.0,1.221275,,,,,,lavender_10s.jpg,espresso_01b.jpg,,,,,,,,,,,,,0.0,2.0,2.0,2.0,1.0,,,,,
,,,,,,,,,1.0,,,37,1.0,1.0,1.255805,,,,,,ironing_board_07s.jpg,kilt_18s.jpg,,,,,,,,,,,,,0.0,3.0,3.0,3.0,1.0,,,,,
,,,,,,,,,0.0,,,37,0.0,1.0,1.408715,,,,,,tile_08s.jpg,coconut_08s.jpg,,,,,,,,,,,,,0.0,4.0,4.0,4.0,1.0,,,,,
,,,,,,,,,0.0,,,37,0.0,1.0,1.413525,,,,,,footprint_11s.jpg,slingshot_07s.jpg,,,,,,,,,,,,,0.0,5.0,5.0,5.0,1.0,,,,,
,,,,,,,,,,,,37,,,,,,,,,,,,,,,,clockno_present_4_10.xlsx,clockno_compare_task_4_10.xlsx,,,,,,,,,,,0.0,3.0,3.0,3.0,1.0
0.0,1.0,1.316175,,,,,,pantyhose_07s.jpg,0.0,clockno_up.jpg,1.0,37,,,,,,,,,,,,,,,,,,0.0,0.0,0.0,0.0,1.0,,,,,,,,,,
0.0,1.0,0.8965,,,,,,chime_12s.jpg,0.0,clockno_default.jpg,1.0,37,,,,,,,,,,,,,,,,,,0.0,1.0,1.0,1.0,1.0,,,,,,,,,,
0.0,1.0,0.83645,,,,,,smoothie_09s.jpg,0.0,clockno_default.jpg,1.0,37,,,,,,,,,,,,,,,,,,0.0,2.0,2.0,2.0,1.0,,,,,,,,,,
0.0,1.0,1.078315,,,,,,tie_03s.jpg,0.0,clockno_default.jpg,1.0,37,,,,,,,,,,,,,,,,,,0.0,3.0,3.0,3.0,1.0,,,,,,,,,,
0.0,1.0,0.573645,,,,,,frame_06s.jpg,0.0,clockno_default.jpg,1.0,37,,,,,,,,,,,,,,,,,,0.0,4.0,4.0,4.0,1.0,,,,,,,,,,
0.0,1.0,0.906275,,,,,,memory_stick_11s.jpg,0.0,clockno_default.jpg,1.0,37,,,,,,,,,,,,,,,,,,0.0,5.0,5.0,5.0,1.0,,,,,,,,,,
0.0,1.0,1.036635,,,,,,limousine_12s.jpg,0.0,clockno_default.jpg,1.0,37,,,,,,,,,,,,,,,,,,0.0,6.0,6.0,6.0,1.0,,,,,,,,,,
0.0,1.0,0.98407,,,,,,pineapple_12s.jpg,0.0,clockno_up.jpg,2.0,37,,,,,,,,,,,,,,,,,,0.0,7.0,7.0,7.0,1.0,,,,,,,,,,
0.0,1.0,0.6888,,,,,,stopwatch_04s.jpg,0.0,clockno_default.jpg,2.0,37,,,,,,,,,,,,,,,,,,0.0,8.0,8.0,8.0,1.0,,,,,,,,,,
1.0,1.0,1.379825,,,,,,pineapple_12s.jpg,1.0,clockno_default.jpg,2.0,37,,,,,,,,,,,,,,,,,,0.0,9.0,9.0,9.0,1.0,,,,,,,,,,
0.0,1.0,0.80938,,,,,,squirrel_02s.jpg,0.0,clockno_default.jpg,2.0,37,,,,,,,,,,,,,,,,,,0.0,10.0,10.0,10.0,1.0,,,,,,,,,,
0.0,1.0,0.939375,,,,,,puddle_02s.jpg,0.0,clockno_default.jpg,2.0,37,,,,,,,,,,,,,,,,,,0.0,11.0,11.0,11.0,1.0,,,,,,,,,,
0.0,1.0,1.21795,,,,,,gas_mask_11s.jpg,0.0,clockno_default.jpg,2.0,37,,,,,,,,,,,,,,,,,,0.0,12.0,12.0,12.0,1.0,,,,,,,,,,
0.0,1.0,0.921905,,,,,,golf_club_03s.jpg,0.0,clockno_default.jpg,2.0,37,,,,,,,,,,,,,,,,,,0.0,13.0,13.0,13.0,1.0,,,,,,,,,,
0.0,1.0,0.787165,,,,,,rake_06s.jpg,0.0,clockno_up.jpg,3.0,37,,,,,,,,,,,,,,,,,,0.0,14.0,14.0,14.0,1.0,,,,,,,,,,
1.0,1.0,1.02911,,,,,,rake_06s.jpg,1.0,clockno_default.jpg,3.0,37,,,,,,,,,,,,,,,,,,0.0,15.0,15.0,15.0,1.0,,,,,,,,,,
0.0,1.0,0.807255,,,,,,snowman_02s.jpg,0.0,clockno_default.jpg,3.0,37,,,,,,,,,,,,,,,,,,0.0,16.0,16.0,16.0,1.0,,,,,,,,,,
0.0,1.0,0.672305,,,,,,buoy_04s.jpg,0.0,clockno_default.jpg,3.0,37,,,,,,,,,,,,,,,,,,0.0,17.0,17.0,17.0,1.0,,,,,,,,,,
0.0,1.0,0.72034,,,,,,crate_05s.jpg,0.0,clockno_default.jpg,3.0,37,,,,,,,,,,,,,,,,,,0.0,18.0,18.0,18.0,1.0,,,,,,,,,,
0.0,1.0,0.94862,,,,,,fork_04s.jpg,0.0,clockno_up.jpg,4.0,37,,,,,,,,,,,,,,,,,,0.0,19.0,19.0,19.0,1.0,,,,,,,,,,
1.0,1.0,0.655425,,,,,,fork_04s.jpg,1.0,clockno_default.jpg,4.0,37,,,,,,,,,,,,,,,,,,0.0,20.0,20.0,20.0,1.0,,,,,,,,,,
0.0,1.0,0.91524,,,,,,frog_09s.jpg,0.0,clockno_default.jpg,4.0,37,,,,,,,,,,,,,,,,,,0.0,21.0,21.0,21.0,1.0,,,,,,,,,,
0.0,1.0,0.91188,,,,,,flip_flop_03s.jpg,0.0,clockno_default.jpg,4.0,37,,,,,,,,,,,,,,,,,,0.0,22.0,22.0,22.0,1.0,,,,,,,,,,
0.0,1.0,0.853185,,,,,,lamp_08s.jpg,0.0,clockno_default.jpg,4.0,37,,,,,,,,,,,,,,,,,,0.0,23.0,23.0,23.0,1.0,,,,,,,,,,
0.0,1.0,0.82451,,,,,,playpen_11s.jpg,0.0,clockno_default.jpg,4.0,37,,,,,,,,,,,,,,,,,,0.0,24.0,24.0,24.0,1.0,,,,,,,,,,
0.0,1.0,1.16991,,,,,,crystal_ball_12s.jpg,0.0,clockno_up.jpg,5.0,37,,,,,,,,,,,,,,,,,,0.0,25.0,25.0,25.0,1.0,,,,,,,,,,
0.0,1.0,0.853885,,,,,,ram_05s.jpg,0.0,clockno_default.jpg,5.0,37,,,,,,,,,,,,,,,,,,0.0,26.0,26.0,26.0,1.0,,,,,,,,,,
0.0,1.0,1.108985,,,,,,teacup_07s.jpg,0.0,clockno_default.jpg,5.0,37,,,,,,,,,,,,,,,,,,0.0,27.0,27.0,27.0,1.0,,,,,,,,,,
0.0,1.0,0.9919,,,,,,beaker_01b.jpg,0.0,clockno_default.jpg,5.0,37,,,,,,,,,,,,,,,,,,0.0,28.0,28.0,28.0,1.0,,,,,,,,,,
1.0,1.0,1.536595,,,,,,ram_05s.jpg,1.0,clockno_default.jpg,5.0,37,,,,,,,,,,,,,,,,,,0.0,29.0,29.0,29.0,1.0,,,,,,,,,,
0.0,1.0,1.438465,,,,,,bottle_opener_11s.jpg,0.0,clockno_up.jpg,6.0,37,,,,,,,,,,,,,,,,,,0.0,30.0,30.0,30.0,1.0,,,,,,,,,,
0.0,1.0,1.16844,,,,,,pinwheel_06s.jpg,0.0,clockno_default.jpg,6.0,37,,,,,,,,,,,,,,,,,,0.0,31.0,31.0,31.0,1.0,,,,,,,,,,
0.0,1.0,0.53879,,,,,,penguin_16s.jpg,0.0,clockno_default.jpg,6.0,37,,,,,,,,,,,,,,,,,,0.0,32.0,32.0,32.0,1.0,,,,,,,,,,
0.0,1.0,0.772495,,,,,,peppermint_07s.jpg,0.0,clockno_default.jpg,6.0,37,,,,,,,,,,,,,,,,,,0.0,33.0,33.0,33.0,1.0,,,,,,,,,,
0.0,1.0,1.355825,,,,,,throne_11s.jpg,0.0,clockno_default.jpg,6.0,37,,,,,,,,,,,,,,,,,,0.0,34.0,34.0,34.0,1.0,,,,,,,,,,
0.0,1.0,1.158585,,,,,,chime_12s.jpg,0.0,clockno_default.jpg,6.0,37,,,,,,,,,,,,,,,,,,0.0,35.0,35.0,35.0,1.0,,,,,,,,,,
,,,,,,,,,1.0,,,37,1.0,1.0,1.38192,,,,,,golf_club_03s.jpg,snowman_02s.jpg,,,,,,,,,,,,,0.0,0.0,0.0,0.0,1.0,,,,,
,,,,,,,,,0.0,,,37,1.0,0.0,1.09453,,,,,,frog_09s.jpg,crate_05s.jpg,,,,,,,,,,,,,0.0,1.0,1.0,1.0,1.0,,,,,
,,,,,,,,,1.0,,,37,0.0,0.0,1.12673,,,,,,flip_flop_03s.jpg,crystal_ball_12s.jpg,,,,,,,,,,,,,0.0,2.0,2.0,2.0,1.0,,,,,
,,,,,,,,,0.0,,,37,1.0,0.0,0.66006,,,,,,tie_03s.jpg,pantyhose_07s.jpg,,,,,,,,,,,,,0.0,3.0,3.0,3.0,1.0,,,,,
,,,,,,,,,0.0,,,37,0.0,1.0,1.41314,,,,,,memory_stick_11s.jpg,smoothie_09s.jpg,,,,,,,,,,,,,0.0,4.0,4.0,4.0,1.0,,,,,
,,,,,,,,,0.0,,,37,1.0,0.0,0.82097,,,,,,puddle_02s.jpg,stopwatch_04s.jpg,,,,,,,,,,,,,0.0,5.0,5.0,5.0,1.0,,,,,
,,,,,,,,,,,,37,,,,,,,,,,,,,,,,clockno_present_5_10.xlsx,clockno_compare_task_5_10.xlsx,,,,,,,,,,,0.0,4.0,4.0,4.0,1.0
0.0,1.0,1.48344,,,,,,potholder_02s.jpg,0.0,clockno_up.jpg,1.0,37,,,,,,,,,,,,,,,,,,0.0,0.0,0.0,0.0,1.0,,,,,,,,,,
1.0,1.0,1.274655,,,,,,potholder_02s.jpg,1.0,clockno_default.jpg,1.0,37,,,,,,,,,,,,,,,,,,0.0,1.0,1.0,1.0,1.0,,,,,,,,,,
0.0,1.0,1.245445,,,,,,phone_01b.jpg,0.0,clockno_default.jpg,1.0,37,,,,,,,,,,,,,,,,,,0.0,2.0,2.0,2.0,1.0,,,,,,,,,,
1.0,1.0,1.935715,,,,,,potholder_02s.jpg,1.0,clockno_default.jpg,1.0,37,,,,,,,,,,,,,,,,,,0.0,3.0,3.0,3.0,1.0,,,,,,,,,,
1.0,1.0,1.8776,,,,,,phone_01b.jpg,1.0,clockno_default.jpg,1.0,37,,,,,,,,,,,,,,,,,,0.0,4.0,4.0,4.0,1.0,,,,,,,,,,
0.0,1.0,1.20508,,,,,,puck_06s.jpg,0.0,clockno_default.jpg,1.0,37,,,,,,,,,,,,,,,,,,0.0,5.0,5.0,5.0,1.0,,,,,,,,,,
0.0,1.0,0.918045,,,,,,bagel_15s.jpg,0.0,clockno_up.jpg,2.0,37,,,,,,,,,,,,,,,,,,0.0,6.0,6.0,6.0,1.0,,,,,,,,,,
1.0,1.0,1.75714,,,,,,bagel_15s.jpg,1.0,clockno_default.jpg,2.0,37,,,,,,,,,,,,,,,,,,0.0,7.0,7.0,7.0,1.0,,,,,,,,,,
0.0,1.0,1.33459,,,,,,puck_06s.jpg,0.0,clockno_default.jpg,2.0,37,,,,,,,,,,,,,,,,,,0.0,8.0,8.0,8.0,1.0,,,,,,,,,,
0.0,1.0,2.060155,,,,,,funnel_01b.jpg,0.0,clockno_default.jpg,2.0,37,,,,,,,,,,,,,,,,,,0.0,9.0,9.0,9.0,1.0,,,,,,,,,,
0.0,1.0,0.67191,,,,,,trumpet_06s.jpg,0.0,clockno_default.jpg,2.0,37,,,,,,,,,,,,,,,,,,0.0,10.0,10.0,10.0,1.0,,,,,,,,,,
0.0,1.0,1.023435,,,,,,outlet_10s.jpg,0.0,clockno_default.jpg,2.0,37,,,,,,,,,,,,,,,,,,0.0,11.0,11.0,11.0,1.0,,,,,,,,,,
0.0,1.0,0.89145,,,,,,reindeer_08s.jpg,0.0,clockno_default.jpg,2.0,37,,,,,,,,,,,,,,,,,,0.0,12.0,12.0,12.0,1.0,,,,,,,,,,
0.0,1.0,1.33757,,,,,,tablet_04s.jpg,0.0,clockno_up.jpg,3.0,37,,,,,,,,,,,,,,,,,,0.0,13.0,13.0,13.0,1.0,,,,,,,,,,
0.0,1.0,0.71164,,,,,,latte_06s.jpg,0.0,clockno_default.jpg,3.0,37,,,,,,,,,,,,,,,,,,0.0,14.0,14.0,14.0,1.0,,,,,,,,,,
1.0,1.0,1.15599,,,,,,latte_06s.jpg,1.0,clockno_default.jpg,3.0,37,,,,,,,,,,,,,,,,,,0.0,15.0,15.0,15.0,1.0,,,,,,,,,,
0.0,1.0,1.125455,,,,,,tomato_sauce_09s.jpg,0.0,clockno_default.jpg,3.0,37,,,,,,,,,,,,,,,,,,0.0,16.0,16.0,16.0,1.0,,,,,,,,,,
0.0,1.0,0.621975,,,,,,mitten_10s.jpg,0.0,clockno_default.jpg,3.0,37,,,,,,,,,,,,,,,,,,0.0,17.0,17.0,17.0,1.0,,,,,,,,,,
0.0,1.0,0.818655,,,,,,otter_05s.jpg,0.0,clockno_up.jpg,4.0,37,,,,,,,,,,,,,,,,,,0.0,18.0,18.0,18.0,1.0,,,,,,,,,,
0.0,1.0,0.86988,,,,,,puck_06s.jpg,0.0,clockno_default.jpg,4.0,37,,,,,,,,,,,,,,,,,,0.0,19.0,19.0,19.0,1.0,,,,,,,,,,
0.0,1.0,0.94161,,,,,,polar_bear_02s.jpg,0.0,clockno_default.jpg,4.0,37,,,,,,,,,,,,,,,,,,0.0,20.0,20.0,20.0,1.0,,,,,,,,,,
0.0,1.0,1.08948,,,,,,crab_16s.jpg,0.0,clockno_default.jpg,4.0,37,,,,,,,,,,,,,,,,,,0.0,21.0,21.0,21.0,1.0,,,,,,,,,,
0.0,1.0,1.50718,,,,,,bagel_15s.jpg,0.0,clockno_default.jpg,4.0,37,,,,,,,,,,,,,,,,,,0.0,22.0,22.0,22.0,1.0,,,,,,,,,,
0.0,1.0,1.008985,,,,,,radiator_05s.jpg,0.0,clockno_default.jpg,4.0,37,,,,,,,,,,,,,,,,,,0.0,23.0,23.0,23.0,1.0,,,,,,,,,,
0.0,1.0,2.3925,,,,,,polaroid_05s.jpg,0.0,clockno_up.jpg,5.0,37,,,,,,,,,,,,,,,,,,0.0,24.0,24.0,24.0,1.0,,,,,,,,,,
0.0,1.0,0.873445,,,,,,bee_20s.jpg,0.0,clockno_default.jpg,5.0,37,,,,,,,,,,,,,,,,,,0.0,25.0,25.0,25.0,1.0,,,,,,,,,,
0.0,1.0,0.90766,,,,,,swimming_pool_17s.jpg,0.0,clockno_default.jpg,5.0,37,,,,,,,,,,,,,,,,,,0.0,26.0,26.0,26.0,1.0,,,,,,,,,,
1.0,1.0,1.376065,,,,,,swimming_pool_17s.jpg,1.0,clockno_default.jpg,5.0,37,,,,,,,,,,,,,,,,,,0.0,27.0,27.0,27.0,1.0,,,,,,,,,,
0.0,1.0,1.261855,,,,,,fur_coat_11s.jpg,0.0,clockno_default.jpg,5.0,37,,,,,,,,,,,,,,,,,,0.0,28.0,28.0,28.0,1.0,,,,,,,,,,
0.0,1.0,1.078235,,,,,,projector_08s.jpg,0.0,clockno_default.jpg,5.0,37,,,,,,,,,,,,,,,,,,0.0,29.0,29.0,29.0,1.0,,,,,,,,,,
0.0,1.0,0.972395,,,,,,raft_09s.jpg,0.0,clockno_default.jpg,5.0,37,,,,,,,,,,,,,,,,,,0.0,30.0,30.0,30.0,1.0,,,,,,,,,,
0.0,1.0,1.021075,,,,,,microwave_02s.jpg,0.0,clockno_up.jpg,6.0,37,,,,,,,,,,,,,,,,,,0.0,31.0,31.0,31.0,1.0,,,,,,,,,,
0.0,1.0,0.719065,,,,,,bonsai_07s.jpg,0.0,clockno_default.jpg,6.0,37,,,,,,,,,,,,,,,,,,0.0,32.0,32.0,32.0,1.0,,,,,,,,,,
0.0,1.0,1.22315,,,,,,torch_02s.jpg,0.0,clockno_default.jpg,6.0,37,,,,,,,,,,,,,,,,,,0.0,33.0,33.0,33.0,1.0,,,,,,,,,,
0.0,1.0,1.10158,,,,,,rocket_02s.jpg,0.0,clockno_default.jpg,6.0,37,,,,,,,,,,,,,,,,,,0.0,34.0,34.0,34.0,1.0,,,,,,,,,,
1.0,1.0,1.268765,,,,,,rocket_02s.jpg,1.0,clockno_default.jpg,6.0,37,,,,,,,,,,,,,,,,,,0.0,35.0,35.0,35.0,1.0,,,,,,,,,,
,,,,,,,,,1.0,,,37,0.0,0.0,1.004035,,,,,,projector_08s.jpg,bonsai_07s.jpg,,,,,,,,,,,,,0.0,0.0,0.0,0.0,1.0,,,,,
,,,,,,,,,0.0,,,37,0.0,1.0,1.024025,,,,,,torch_02s.jpg,raft_09s.jpg,,,,,,,,,,,,,0.0,1.0,1.0,1.0,1.0,,,,,
,,,,,,,,,0.0,,,37,0.0,1.0,1.25984,,,,,,tablet_04s.jpg,trumpet_06s.jpg,,,,,,,,,,,,,0.0,2.0,2.0,2.0,1.0,,,,,
,,,,,,,,,0.0,,,37,0.0,1.0,1.11345,,,,,,reindeer_08s.jpg,funnel_01b.jpg,,,,,,,,,,,,,0.0,3.0,3.0,3.0,1.0,,,,,
,,,,,,,,,1.0,,,37,1.0,1.0,1.353105,,,,,,otter_05s.jpg,crab_16s.jpg,,,,,,,,,,,,,0.0,4.0,4.0,4.0,1.0,,,,,
,,,,,,,,,0.0,,,37,1.0,0.0,1.869455,,,,,,radiator_05s.jpg,polar_bear_02s.jpg,,,,,,,,,,,,,0.0,5.0,5.0,5.0,1.0,,,,,
