key_resp.keys,key_resp.corr,key_resp.rt,noclock_loop.thisRepN,noclock_loop.thisTrialN,noclock_loop.thisN,noclock_loop.thisIndex,noclock_loop.ran,pictures,answer,clock,segment,participant,key_resp_2.keys,key_resp_2.corr,key_resp_2.rt,noclock_loop2.thisRepN,noclock_loop2.thisTrialN,noclock_loop2.thisN,noclock_loop2.thisIndex,noclock_loop2.ran,item_a,item_b,noclock_condition.thisRepN,noclock_condition.thisTrialN,noclock_condition.thisN,noclock_condition.thisIndex,noclock_condition.ran,present,compare,present_segment.thisRepN,present_segment.thisTrialN,present_segment.thisN,present_segment.thisIndex,present_segment.ran,compare_segment.thisRepN,compare_segment.thisTrialN,compare_segment.thisN,compare_segment.thisIndex,compare_segment.ran,clock_conditions.thisRepN,clock_conditions.thisTrialN,clock_conditions.thisN,clock_conditions.thisIndex,clock_conditions.ran
0.0,1.0,1.356,0.0,0.0,0.0,0.0,1.0,breadstick_08s.jpg,0.0,clockno_up.jpg,1.0,32,,,,,,,,,,,,,,,,,,,,,,,,,,,,,,,,
0.0,1.0,1.134,0.0,1.0,1.0,1.0,1.0,sea_urchin_09s.jpg,0.0,clockno_default.jpg,1.0,32,,,,,,,,,,,,,,,,,,,,,,,,,,,,,,,,
1.0,1.0,0.666,0.0,2.0,2.0,2.0,1.0,breadstick_08s.jpg,1.0,clockno_default.jpg,1.0,32,,,,,,,,,,,,,,,,,,,,,,,,,,,,,,,,
1.0,1.0,0.934,0.0,3.0,3.0,3.0,1.0,sea_urchin_09s.jpg,1.0,clockno_default.jpg,1.0,32,,,,,,,,,,,,,,,,,,,,,,,,,,,,,,,,
0.0,1.0,0.825,0.0,4.0,4.0,4.0,1.0,saddle_06s.jpg,0.0,clockno_default.jpg,1.0,32,,,,,,,,,,,,,,,,,,,,,,,,,,,,,,,,
1.0,1.0,0.774,0.0,5.0,5.0,5.0,1.0,saddle_06s.jpg,1.0,clockno_default.jpg,1.0,32,,,,,,,,,,,,,,,,,,,,,,,,,,,,,,,,
0.0,1.0,1.133,0.0,6.0,6.0,6.0,1.0,mousetrap_15n.jpg,0.0,clockno_up.jpg,2.0,32,,,,,,,,,,,,,,,,,,,,,,,,,,,,,,,,
0.0,1.0,0.739,0.0,7.0,7.0,7.0,1.0,owl_15s.jpg,0.0,clockno_default.jpg,2.0,32,,,,,,,,,,,,,,,,,,,,,,,,,,,,,,,,
1.0,1.0,1.068,0.0,8.0,8.0,8.0,1.0,mousetrap_15n.jpg,1.0,clockno_default.jpg,2.0,32,,,,,,,,,,,,,,,,,,,,,,,,,,,,,,,,
1.0,1.0,0.808,0.0,9.0,9.0,9.0,1.0,owl_15s.jpg,1.0,clockno_default.jpg,2.0,32,,,,,,,,,,,,,,,,,,,,,,,,,,,,,,,,
1.0,1.0,0.739,0.0,10.0,10.0,10.0,1.0,owl_15s.jpg,1.0,clockno_default.jpg,2.0,32,,,,,,,,,,,,,,,,,,,,,,,,,,,,,,,,
0.0,1.0,1.007,0.0,11.0,11.0,11.0,1.0,popsicle_02s.jpg,0.0,clockno_default.jpg,2.0,32,,,,,,,,,,,,,,,,,,,,,,,,,,,,,,,,
0.0,1.0,1.073,0.0,12.0,12.0,12.0,1.0,screwdriver02a.jpg,0.0,clockno_default.jpg,2.0,32,,,,,,,,,,,,,,,,,,,,,,,,,,,,,,,,
0.0,1.0,0.849,0.0,13.0,13.0,13.0,1.0,paper_towel_03s.jpg,0.0,clockno_up.jpg,3.0,32,,,,,,,,,,,,,,,,,,,,,,,,,,,,,,,,
0.0,1.0,0.711,0.0,14.0,14.0,14.0,1.0,mug_06s.jpg,0.0,clockno_default.jpg,3.0,32,,,,,,,,,,,,,,,,,,,,,,,,,,,,,,,,
0.0,1.0,0.637,0.0,15.0,15.0,15.0,1.0,undershirt_02s.jpg,0.0,clockno_default.jpg,3.0,32,,,,,,,,,,,,,,,,,,,,,,,,,,,,,,,,
0.0,1.0,0.858,0.0,16.0,16.0,16.0,1.0,cape_11s.jpg,0.0,clockno_default.jpg,3.0,32,,,,,,,,,,,,,,,,,,,,,,,,,,,,,,,,
0.0,1.0,0.61,0.0,17.0,17.0,17.0,1.0,lamp_08s.jpg,0.0,clockno_default.jpg,3.0,32,,,,,,,,,,,,,,,,,,,,,,,,,,,,,,,,
0.0,1.0,1.087,0.0,18.0,18.0,18.0,1.0,padlock_07s.jpg,0.0,clockno_default.jpg,3.0,32,,,,,,,,,,,,,,,,,,,,,,,,,,,,,,,,
0.0,1.0,0.606,0.0,19.0,19.0,19.0,1.0,lab_coat_11s.jpg,0.0,clockno_default.jpg,3.0,32,,,,,,,,,,,,,,,,,,,,,,,,,,,,,,,,
0.0,1.0,0.524,0.0,20.0,20.0,20.0,1.0,badge_03s.jpg,0.0,clockno_up.jpg,4.0,32,,,,,,,,,,,,,,,,,,,,,,,,,,,,,,,,
0.0,1.0,0.665,0.0,21.0,21.0,21.0,1.0,go-kart_10s.jpg,0.0,clockno_default.jpg,4.0,32,,,,,,,,,,,,,,,,,,,,,,,,,,,,,,,,
0.0,1.0,0.458,0.0,22.0,22.0,22.0,1.0,parachute_03s.jpg,0.0,clockno_default.jpg,4.0,32,,,,,,,,,,,,,,,,,,,,,,,,,,,,,,,,
0.0,1.0,0.639,0.0,23.0,23.0,23.0,1.0,scooter.jpg,0.0,clockno_default.jpg,4.0,32,,,,,,,,,,,,,,,,,,,,,,,,,,,,,,,,
0.0,1.0,0.592,0.0,24.0,24.0,24.0,1.0,letter_opener_03s.jpg,0.0,clockno_default.jpg,4.0,32,,,,,,,,,,,,,,,,,,,,,,,,,,,,,,,,
1.0,1.0,0.802,0.0,25.0,25.0,25.0,1.0,parachute_03s.jpg,1.0,clockno_default.jpg,4.0,32,,,,,,,,,,,,,,,,,,,,,,,,,,,,,,,,
0.0,1.0,0.955,0.0,26.0,26.0,26.0,1.0,throne_11s.jpg,0.0,clockno_up.jpg,5.0,32,,,,,,,,,,,,,,,,,,,,,,,,,,,,,,,,
0.0,1.0,1.516,0.0,27.0,27.0,27.0,1.0,owl_15s.jpg,0.0,clockno_default.jpg,5.0,32,,,,,,,,,,,,,,,,,,,,,,,,,,,,,,,,
1.0,1.0,1.051,0.0,28.0,28.0,28.0,1.0,throne_11s.jpg,1.0,clockno_default.jpg,5.0,32,,,,,,,,,,,,,,,,,,,,,,,,,,,,,,,,
0.0,1.0,0.999,0.0,29.0,29.0,29.0,1.0,rocking_horse_03s.jpg,0.0,clockno_default.jpg,5.0,32,,,,,,,,,,,,,,,,,,,,,,,,,,,,,,,,
0.0,1.0,0.721,0.0,30.0,30.0,30.0,1.0,swordfish_05s.jpg,0.0,clockno_default.jpg,5.0,32,,,,,,,,,,,,,,,,,,,,,,,,,,,,,,,,
0.0,1.0,1.671,0.0,31.0,31.0,31.0,1.0,tupperware_09s.jpg,0.0,clockno_up.jpg,6.0,32,,,,,,,,,,,,,,,,,,,,,,,,,,,,,,,,
0.0,1.0,0.782,0.0,32.0,32.0,32.0,1.0,rocking_chair_05s.jpg,0.0,clockno_default.jpg,6.0,32,,,,,,,,,,,,,,,,,,,,,,,,,,,,,,,,
0.0,1.0,0.606,0.0,33.0,33.0,33.0,1.0,padlock_07s.jpg,0.0,clockno_default.jpg,6.0,32,,,,,,,,,,,,,,,,,,,,,,,,,,,,,,,,
0.0,1.0,0.61,0.0,34.0,34.0,34.0,1.0,machete_06s.jpg,0.0,clockno_default.jpg,6.0,32,,,,,,,,,,,,,,,,,,,,,,,,,,,,,,,,
1.0,1.0,0.998,0.0,35.0,35.0,35.0,1.0,tupperware_09s.jpg,1.0,clockno_default.jpg,6.0,32,,,,,,,,,,,,,,,,,,,,,,,,,,,,,,,,
,,,,,,,,,1.0,,,32,1.0,1.0,1.672,0.0,0.0,0.0,0.0,1.0,screwdriver02a.jpg,undershirt_02s.jpg,,,,,,,,,,,,,,,,,,,,,,
,,,,,,,,,0.0,,,32,0.0,1.0,2.023,0.0,1.0,1.0,1.0,1.0,rocking_chair_05s.jpg,rocking_horse_03s.jpg,,,,,,,,,,,,,,,,,,,,,,
,,,,,,,,,0.0,,,32,1.0,0.0,1.731,0.0,2.0,2.0,2.0,1.0,mug_06s.jpg,popsicle_02s.jpg,,,,,,,,,,,,,,,,,,,,,,
,,,,,,,,,1.0,,,32,1.0,1.0,3.934,0.0,3.0,3.0,3.0,1.0,paper_towel_03s.jpg,cape_11s.jpg,,,,,,,,,,,,,,,,,,,,,,
,,,,,,,,,1.0,,,32,1.0,1.0,1.525,0.0,4.0,4.0,4.0,1.0,go-kart_10s.jpg,letter_opener_03s.jpg,,,,,,,,,,,,,,,,,,,,,,
,,,,,,,,,0.0,,,32,1.0,0.0,1.917,0.0,5.0,5.0,5.0,1.0,scooter.jpg,badge_03s.jpg,,,,,,,,,,,,,,,,,,,,,,
,,,,,,,,,,,,32,,,,,,,,,,,0.0,0.0,0.0,0.0,1.0,clockno_present_1_8.xlsx,clockno_compare_task_1_8.xlsx,,,,,,,,,,,,,,,
0.0,1.0,1.466,0.0,0.0,0.0,0.0,1.0,towel_rack_04s.jpg,0.0,clockno_up.jpg,1.0,32,,,,,,,,,,,,,,,,,,,,,,,,,,,,,,,,
0.0,1.0,0.863,0.0,1.0,1.0,1.0,1.0,microwave_02s.jpg,0.0,clockno_default.jpg,1.0,32,,,,,,,,,,,,,,,,,,,,,,,,,,,,,,,,
0.0,1.0,0.582,0.0,2.0,2.0,2.0,1.0,quesadilla_07s.jpg,0.0,clockno_default.jpg,1.0,32,,,,,,,,,,,,,,,,,,,,,,,,,,,,,,,,
0.0,1.0,0.599,0.0,3.0,3.0,3.0,1.0,ring_03s.jpg,0.0,clockno_default.jpg,1.0,32,,,,,,,,,,,,,,,,,,,,,,,,,,,,,,,,
0.0,1.0,0.526,0.0,4.0,4.0,4.0,1.0,jalapeno_15s.jpg,0.0,clockno_default.jpg,1.0,32,,,,,,,,,,,,,,,,,,,,,,,,,,,,,,,,
0.0,1.0,0.539,0.0,5.0,5.0,5.0,1.0,rollerskate_03s.jpg,0.0,clockno_default.jpg,1.0,32,,,,,,,,,,,,,,,,,,,,,,,,,,,,,,,,
1.0,1.0,2.313,0.0,6.0,6.0,6.0,1.0,jalapeno_15s.jpg,1.0,clockno_default.jpg,1.0,32,,,,,,,,,,,,,,,,,,,,,,,,,,,,,,,,
0.0,1.0,0.669,0.0,7.0,7.0,7.0,1.0,thermostat_02s.jpg,0.0,clockno_up.jpg,2.0,32,,,,,,,,,,,,,,,,,,,,,,,,,,,,,,,,
1.0,1.0,1.234,0.0,8.0,8.0,8.0,1.0,thermostat_02s.jpg,1.0,clockno_default.jpg,2.0,32,,,,,,,,,,,,,,,,,,,,,,,,,,,,,,,,
0.0,1.0,1.075,0.0,9.0,9.0,9.0,1.0,pepper2_21s.jpg,0.0,clockno_default.jpg,2.0,32,,,,,,,,,,,,,,,,,,,,,,,,,,,,,,,,
0.0,1.0,0.667,0.0,10.0,10.0,10.0,1.0,lava_02s.jpg,0.0,clockno_default.jpg,2.0,32,,,,,,,,,,,,,,,,,,,,,,,,,,,,,,,,
0.0,1.0,0.587,0.0,11.0,11.0,11.0,1.0,butter_14s.jpg,0.0,clockno_default.jpg,2.0,32,,,,,,,,,,,,,,,,,,,,,,,,,,,,,,,,
0.0,1.0,0.731,0.0,12.0,12.0,12.0,1.0,hummingbird_05s.jpg,0.0,clockno_up.jpg,3.0,32,,,,,,,,,,,,,,,,,,,,,,,,,,,,,,,,
0.0,1.0,0.929,0.0,13.0,13.0,13.0,1.0,jalapeno_15s.jpg,0.0,clockno_default.jpg,3.0,32,,,,,,,,,,,,,,,,,,,,,,,,,,,,,,,,
0.0,1.0,0.564,0.0,14.0,14.0,14.0,1.0,stump_02s.jpg,0.0,clockno_default.jpg,3.0,32,,,,,,,,,,,,,,,,,,,,,,,,,,,,,,,,
0.0,1.0,0.542,0.0,15.0,15.0,15.0,1.0,luggage_08s.jpg,0.0,clockno_default.jpg,3.0,32,,,,,,,,,,,,,,,,,,,,,,,,,,,,,,,,
1.0,1.0,1.135,0.0,16.0,16.0,16.0,1.0,luggage_08s.jpg,1.0,clockno_default.jpg,3.0,32,,,,,,,,,,,,,,,,,,,,,,,,,,,,,,,,
0.0,1.0,0.736,0.0,17.0,17.0,17.0,1.0,pomegranate_04s.jpg,0.0,clockno_default.jpg,3.0,32,,,,,,,,,,,,,,,,,,,,,,,,,,,,,,,,
0.0,1.0,0.743,0.0,18.0,18.0,18.0,1.0,swing_set_15s.jpg,0.0,clockno_default.jpg,3.0,32,,,,,,,,,,,,,,,,,,,,,,,,,,,,,,,,
0.0,1.0,0.585,0.0,19.0,19.0,19.0,1.0,jigsaw_puzzle_11s.jpg,0.0,clockno_up.jpg,4.0,32,,,,,,,,,,,,,,,,,,,,,,,,,,,,,,,,
0.0,1.0,0.608,0.0,20.0,20.0,20.0,1.0,toilet_07s.jpg,0.0,clockno_default.jpg,4.0,32,,,,,,,,,,,,,,,,,,,,,,,,,,,,,,,,
0.0,1.0,0.751,0.0,21.0,21.0,21.0,1.0,turtleneck_11s.jpg,0.0,clockno_default.jpg,4.0,32,,,,,,,,,,,,,,,,,,,,,,,,,,,,,,,,
0.0,1.0,0.667,0.0,22.0,22.0,22.0,1.0,trident_07s.jpg,0.0,clockno_default.jpg,4.0,32,,,,,,,,,,,,,,,,,,,,,,,,,,,,,,,,
0.0,1.0,1.804,0.0,23.0,23.0,23.0,1.0,contact_lens_15s.jpg,0.0,clockno_default.jpg,4.0,32,,,,,,,,,,,,,,,,,,,,,,,,,,,,,,,,
0.0,1.0,0.866,0.0,24.0,24.0,24.0,1.0,plunger_08s.jpg,0.0,clockno_default.jpg,4.0,32,,,,,,,,,,,,,,,,,,,,,,,,,,,,,,,,
0.0,1.0,0.571,0.0,25.0,25.0,25.0,1.0,timer_03s.jpg,0.0,clockno_up.jpg,5.0,32,,,,,,,,,,,,,,,,,,,,,,,,,,,,,,,,
1.0,1.0,1.732,0.0,26.0,26.0,26.0,1.0,timer_03s.jpg,1.0,clockno_default.jpg,5.0,32,,,,,,,,,,,,,,,,,,,,,,,,,,,,,,,,
0.0,1.0,0.67,0.0,27.0,27.0,27.0,1.0,spacesuit_02s.jpg,0.0,clockno_default.jpg,5.0,32,,,,,,,,,,,,,,,,,,,,,,,,,,,,,,,,
0.0,1.0,0.466,0.0,28.0,28.0,28.0,1.0,roller_coaster_07s.jpg,0.0,clockno_default.jpg,5.0,32,,,,,,,,,,,,,,,,,,,,,,,,,,,,,,,,
0.0,1.0,0.642,0.0,29.0,29.0,29.0,1.0,pocketknife_12s.jpg,0.0,clockno_default.jpg,5.0,32,,,,,,,,,,,,,,,,,,,,,,,,,,,,,,,,
0.0,1.0,1.117,0.0,30.0,30.0,30.0,1.0,jewel_01b.jpg,0.0,clockno_up.jpg,6.0,32,,,,,,,,,,,,,,,,,,,,,,,,,,,,,,,,
0.0,1.0,0.702,0.0,31.0,31.0,31.0,1.0,harpoon.jpg,0.0,clockno_default.jpg,6.0,32,,,,,,,,,,,,,,,,,,,,,,,,,,,,,,,,
0.0,1.0,0.6,0.0,32.0,32.0,32.0,1.0,tinsel_12s.jpg,0.0,clockno_default.jpg,6.0,32,,,,,,,,,,,,,,,,,,,,,,,,,,,,,,,,
1.0,1.0,0.996,0.0,33.0,33.0,33.0,1.0,tinsel_12s.jpg,1.0,clockno_default.jpg,6.0,32,,,,,,,,,,,,,,,,,,,,,,,,,,,,,,,,
1.0,1.0,0.714,0.0,34.0,34.0,34.0,1.0,jewel_01b.jpg,1.0,clockno_default.jpg,6.0,32,,,,,,,,,,,,,,,,,,,,,,,,,,,,,,,,
0.0,1.0,1.176,0.0,35.0,35.0,35.0,1.0,submarine_11n.jpg,0.0,clockno_default.jpg,6.0,32,,,,,,,,,,,,,,,,,,,,,,,,,,,,,,,,
,,,,,,,,,1.0,,,32,0.0,0.0,2.878,0.0,0.0,0.0,0.0,1.0,pepper2_21s.jpg,hummingbird_05s.jpg,,,,,,,,,,,,,,,,,,,,,,
,,,,,,,,,0.0,,,32,0.0,1.0,1.599,0.0,1.0,1.0,1.0,1.0,harpoon.jpg,roller_coaster_07s.jpg,,,,,,,,,,,,,,,,,,,,,,
,,,,,,,,,1.0,,,32,1.0,1.0,1.531,0.0,2.0,2.0,2.0,1.0,butter_14s.jpg,stump_02s.jpg,,,,,,,,,,,,,,,,,,,,,,
,,,,,,,,,0.0,,,32,1.0,0.0,1.127,0.0,3.0,3.0,3.0,1.0,ring_03s.jpg,towel_rack_04s.jpg,,,,,,,,,,,,,,,,,,,,,,
,,,,,,,,,0.0,,,32,0.0,1.0,3.0,0.0,4.0,4.0,4.0,1.0,rollerskate_03s.jpg,quesadilla_07s.jpg,,,,,,,,,,,,,,,,,,,,,,
,,,,,,,,,0.0,,,32,1.0,0.0,1.685,0.0,5.0,5.0,5.0,1.0,trident_07s.jpg,jigsaw_puzzle_11s.jpg,,,,,,,,,,,,,,,,,,,,,,
,,,,,,,,,,,,32,,,,,,,,,,,0.0,1.0,1.0,1.0,1.0,clockno_present_2_8.xlsx,clockno_compare_task_2_8.xlsx,,,,,,,,,,,,,,,
0.0,1.0,0.936,0.0,0.0,0.0,0.0,1.0,peppermint_07s.jpg,0.0,clockno_up.jpg,1.0,32,,,,,,,,,,,,,,,,,,,,,,,,,,,,,,,,
0.0,1.0,0.739,0.0,1.0,1.0,1.0,1.0,teapot_03s.jpg,0.0,clockno_default.jpg,1.0,32,,,,,,,,,,,,,,,,,,,,,,,,,,,,,,,,
0.0,1.0,0.683,0.0,2.0,2.0,2.0,1.0,funnel_01b.jpg,0.0,clockno_default.jpg,1.0,32,,,,,,,,,,,,,,,,,,,,,,,,,,,,,,,,
0.0,1.0,0.474,0.0,3.0,3.0,3.0,1.0,incense_02s.jpg,0.0,clockno_default.jpg,1.0,32,,,,,,,,,,,,,,,,,,,,,,,,,,,,,,,,
1.0,1.0,0.673,0.0,4.0,4.0,4.0,1.0,teapot_03s.jpg,1.0,clockno_default.jpg,1.0,32,,,,,,,,,,,,,,,,,,,,,,,,,,,,,,,,
0.0,1.0,0.868,0.0,5.0,5.0,5.0,1.0,licorice_06s.jpg,0.0,clockno_up.jpg,2.0,32,,,,,,,,,,,,,,,,,,,,,,,,,,,,,,,,
0.0,1.0,1.881,0.0,6.0,6.0,6.0,1.0,sunglasses_11s.jpg,0.0,clockno_default.jpg,2.0,32,,,,,,,,,,,,,,,,,,,,,,,,,,,,,,,,
1.0,0.0,1.649,0.0,7.0,7.0,7.0,1.0,funnel_01b.jpg,0.0,clockno_default.jpg,2.0,32,,,,,,,,,,,,,,,,,,,,,,,,,,,,,,,,
0.0,1.0,1.087,0.0,8.0,8.0,8.0,1.0,rice_12s.jpg,0.0,clockno_default.jpg,2.0,32,,,,,,,,,,,,,,,,,,,,,,,,,,,,,,,,
1.0,1.0,0.802,0.0,9.0,9.0,9.0,1.0,rice_12s.jpg,1.0,clockno_default.jpg,2.0,32,,,,,,,,,,,,,,,,,,,,,,,,,,,,,,,,
0.0,1.0,0.8,0.0,10.0,10.0,10.0,1.0,emerald_02s.jpg,0.0,clockno_default.jpg,2.0,32,,,,,,,,,,,,,,,,,,,,,,,,,,,,,,,,
0.0,1.0,1.871,0.0,11.0,11.0,11.0,1.0,raccoon_02s.jpg,0.0,clockno_default.jpg,2.0,32,,,,,,,,,,,,,,,,,,,,,,,,,,,,,,,,
0.0,1.0,0.525,0.0,12.0,12.0,12.0,1.0,cushion_08s.jpg,0.0,clockno_up.jpg,3.0,32,,,,,,,,,,,,,,,,,,,,,,,,,,,,,,,,
0.0,1.0,0.966,0.0,13.0,13.0,13.0,1.0,tiger_06s.jpg,0.0,clockno_default.jpg,3.0,32,,,,,,,,,,,,,,,,,,,,,,,,,,,,,,,,
0.0,0.0,0.545,0.0,14.0,14.0,14.0,1.0,cushion_08s.jpg,1.0,clockno_default.jpg,3.0,32,,,,,,,,,,,,,,,,,,,,,,,,,,,,,,,,
0.0,1.0,0.789,0.0,15.0,15.0,15.0,1.0,stamp1_11s.jpg,0.0,clockno_default.jpg,3.0,32,,,,,,,,,,,,,,,,,,,,,,,,,,,,,,,,
0.0,1.0,0.655,0.0,16.0,16.0,16.0,1.0,cereal_04s.jpg,0.0,clockno_default.jpg,3.0,32,,,,,,,,,,,,,,,,,,,,,,,,,,,,,,,,
0.0,1.0,0.63,0.0,17.0,17.0,17.0,1.0,jersey_02s.jpg,0.0,clockno_up.jpg,4.0,32,,,,,,,,,,,,,,,,,,,,,,,,,,,,,,,,
0.0,1.0,0.668,0.0,18.0,18.0,18.0,1.0,tomato_sauce_09s.jpg,0.0,clockno_default.jpg,4.0,32,,,,,,,,,,,,,,,,,,,,,,,,,,,,,,,,
0.0,1.0,0.594,0.0,19.0,19.0,19.0,1.0,toad_09s.jpg,0.0,clockno_default.jpg,4.0,32,,,,,,,,,,,,,,,,,,,,,,,,,,,,,,,,
0.0,1.0,0.533,0.0,20.0,20.0,20.0,1.0,fire_pit_10s.jpg,0.0,clockno_default.jpg,4.0,32,,,,,,,,,,,,,,,,,,,,,,,,,,,,,,,,
0.0,1.0,0.927,0.0,21.0,21.0,21.0,1.0,keyhole_03s.jpg,0.0,clockno_default.jpg,4.0,32,,,,,,,,,,,,,,,,,,,,,,,,,,,,,,,,
0.0,1.0,1.178,0.0,22.0,22.0,22.0,1.0,comic_book_02s.jpg,0.0,clockno_default.jpg,4.0,32,,,,,,,,,,,,,,,,,,,,,,,,,,,,,,,,
0.0,1.0,0.92,0.0,23.0,23.0,23.0,1.0,pencil02a.jpg,0.0,clockno_up.jpg,5.0,32,,,,,,,,,,,,,,,,,,,,,,,,,,,,,,,,
0.0,1.0,0.602,0.0,24.0,24.0,24.0,1.0,punch2_09s.jpg,0.0,clockno_default.jpg,5.0,32,,,,,,,,,,,,,,,,,,,,,,,,,,,,,,,,
0.0,1.0,0.587,0.0,25.0,25.0,25.0,1.0,chime_12s.jpg,0.0,clockno_default.jpg,5.0,32,,,,,,,,,,,,,,,,,,,,,,,,,,,,,,,,
1.0,1.0,0.726,0.0,26.0,26.0,26.0,1.0,pencil02a.jpg,1.0,clockno_default.jpg,5.0,32,,,,,,,,,,,,,,,,,,,,,,,,,,,,,,,,
0.0,1.0,0.669,0.0,27.0,27.0,27.0,1.0,lip_gloss_06s.jpg,0.0,clockno_default.jpg,5.0,32,,,,,,,,,,,,,,,,,,,,,,,,,,,,,,,,
0.0,1.0,1.139,0.0,28.0,28.0,28.0,1.0,rocket_02s.jpg,0.0,clockno_default.jpg,5.0,32,,,,,,,,,,,,,,,,,,,,,,,,,,,,,,,,
0.0,0.0,1.203,0.0,29.0,29.0,29.0,1.0,punch2_09s.jpg,1.0,clockno_default.jpg,5.0,32,,,,,,,,,,,,,,,,,,,,,,,,,,,,,,,,
0.0,1.0,0.941,0.0,30.0,30.0,30.0,1.0,crate_05s.jpg,0.0,clockno_up.jpg,6.0,32,,,,,,,,,,,,,,,,,,,,,,,,,,,,,,,,
1.0,1.0,0.991,0.0,31.0,31.0,31.0,1.0,crate_05s.jpg,1.0,clockno_default.jpg,6.0,32,,,,,,,,,,,,,,,,,,,,,,,,,,,,,,,,
0.0,1.0,0.877,0.0,32.0,32.0,32.0,1.0,blazer_02s.jpg,0.0,clockno_default.jpg,6.0,32,,,,,,,,,,,,,,,,,,,,,,,,,,,,,,,,
0.0,1.0,0.732,0.0,33.0,33.0,33.0,1.0,fork_04s.jpg,0.0,clockno_default.jpg,6.0,32,,,,,,,,,,,,,,,,,,,,,,,,,,,,,,,,
0.0,1.0,0.54,0.0,34.0,34.0,34.0,1.0,target_11s.jpg,0.0,clockno_default.jpg,6.0,32,,,,,,,,,,,,,,,,,,,,,,,,,,,,,,,,
0.0,1.0,0.6,0.0,35.0,35.0,35.0,1.0,meatball_13s.jpg,0.0,clockno_default.jpg,6.0,32,,,,,,,,,,,,,,,,,,,,,,,,,,,,,,,,
,,,,,,,,,1.0,,,32,0.0,0.0,2.379,0.0,0.0,0.0,0.0,1.0,incense_02s.jpg,sunglasses_11s.jpg,,,,,,,,,,,,,,,,,,,,,,
,,,,,,,,,0.0,,,32,1.0,0.0,1.866,0.0,1.0,1.0,1.0,1.0,tiger_06s.jpg,emerald_02s.jpg,,,,,,,,,,,,,,,,,,,,,,
,,,,,,,,,1.0,,,32,1.0,1.0,1.287,0.0,2.0,2.0,2.0,1.0,stamp1_11s.jpg,tomato_sauce_09s.jpg,,,,,,,,,,,,,,,,,,,,,,
,,,,,,,,,0.0,,,32,0.0,1.0,2.068,0.0,3.0,3.0,3.0,1.0,fire_pit_10s.jpg,jersey_02s.jpg,,,,,,,,,,,,,,,,,,,,,,
,,,,,,,,,0.0,,,32,1.0,0.0,3.61,0.0,4.0,4.0,4.0,1.0,meatball_13s.jpg,blazer_02s.jpg,,,,,,,,,,,,,,,,,,,,,,
,,,,,,,,,0.0,,,32,1.0,0.0,1.601,0.0,5.0,5.0,5.0,1.0,rocket_02s.jpg,chime_12s.jpg,,,,,,,,,,,,,,,,,,,,,,
,,,,,,,,,,,,32,,,,,,,,,,,0.0,2.0,2.0,2.0,1.0,clockno_present_3_8.xlsx,clockno_compare_task_3_8.xlsx,,,,,,,,,,,,,,,
0.0,1.0,2.058,0.0,0.0,0.0,0.0,1.0,kangaroo_02s.jpg,0.0,clockno_up.jpg,1.0,32,,,,,,,,,,,,,,,,,,,,,,,,,,,,,,,,
1.0,1.0,1.74,0.0,1.0,1.0,1.0,1.0,kangaroo_02s.jpg,1.0,clockno_default.jpg,1.0,32,,,,,,,,,,,,,,,,,,,,,,,,,,,,,,,,
0.0,1.0,0.746,0.0,2.0,2.0,2.0,1.0,kettle_08s.jpg,0.0,clockno_default.jpg,1.0,32,,,,,,,,,,,,,,,,,,,,,,,,,,,,,,,,
0.0,1.0,0.536,0.0,3.0,3.0,3.0,1.0,cotton_candy_01b.jpg,0.0,clockno_default.jpg,1.0,32,,,,,,,,,,,,,,,,,,,,,,,,,,,,,,,,
1.0,1.0,0.72,0.0,4.0,4.0,4.0,1.0,kettle_08s.jpg,1.0,clockno_default.jpg,1.0,32,,,,,,,,,,,,,,,,,,,,,,,,,,,,,,,,
0.0,1.0,0.656,0.0,5.0,5.0,5.0,1.0,lamb_04s.jpg,0.0,clockno_default.jpg,1.0,32,,,,,,,,,,,,,,,,,,,,,,,,,,,,,,,,
0.0,1.0,1.8,0.0,6.0,6.0,6.0,1.0,checkbook_11s.jpg,0.0,clockno_up.jpg,2.0,32,,,,,,,,,,,,,,,,,,,,,,,,,,,,,,,,
0.0,1.0,0.665,0.0,7.0,7.0,7.0,1.0,gargoyle_08s.jpg,0.0,clockno_default.jpg,2.0,32,,,,,,,,,,,,,,,,,,,,,,,,,,,,,,,,
0.0,1.0,0.592,0.0,8.0,8.0,8.0,1.0,megaphone_03s.jpg,0.0,clockno_default.jpg,2.0,32,,,,,,,,,,,,,,,,,,,,,,,,,,,,,,,,
0.0,1.0,0.53,0.0,9.0,9.0,9.0,1.0,dirt_bike_11s.jpg,0.0,clockno_default.jpg,2.0,32,,,,,,,,,,,,,,,,,,,,,,,,,,,,,,,,
0.0,1.0,0.55,0.0,10.0,10.0,10.0,1.0,stamp2_08s.jpg,0.0,clockno_default.jpg,2.0,32,,,,,,,,,,,,,,,,,,,,,,,,,,,,,,,,
0.0,1.0,0.599,0.0,11.0,11.0,11.0,1.0,rope_16s.jpg,0.0,clockno_default.jpg,2.0,32,,,,,,,,,,,,,,,,,,,,,,,,,,,,,,,,
0.0,1.0,0.655,0.0,12.0,12.0,12.0,1.0,lamb_chop_07s.jpg,0.0,clockno_default.jpg,2.0,32,,,,,,,,,,,,,,,,,,,,,,,,,,,,,,,,
0.0,1.0,0.703,0.0,13.0,13.0,13.0,1.0,taxi_15s.jpg,0.0,clockno_up.jpg,3.0,32,,,,,,,,,,,,,,,,,,,,,,,,,,,,,,,,
0.0,1.0,2.273,0.0,14.0,14.0,14.0,1.0,recliner_02s.jpg,0.0,clockno_default.jpg,3.0,32,,,,,,,,,,,,,,,,,,,,,,,,,,,,,,,,
0.0,1.0,0.981,0.0,15.0,15.0,15.0,1.0,jelly_bean_06s.jpg,0.0,clockno_default.jpg,3.0,32,,,,,,,,,,,,,,,,,,,,,,,,,,,,,,,,
0.0,1.0,0.586,0.0,16.0,16.0,16.0,1.0,smoothie_09s.jpg,0.0,clockno_default.jpg,3.0,32,,,,,,,,,,,,,,,,,,,,,,,,,,,,,,,,
0.0,0.0,1.775,0.0,17.0,17.0,17.0,1.0,taxi_15s.jpg,1.0,clockno_default.jpg,3.0,32,,,,,,,,,,,,,,,,,,,,,,,,,,,,,,,,
1.0,1.0,1.022,0.0,18.0,18.0,18.0,1.0,taxi_15s.jpg,1.0,clockno_default.jpg,3.0,32,,,,,,,,,,,,,,,,,,,,,,,,,,,,,,,,
0.0,1.0,0.865,0.0,19.0,19.0,19.0,1.0,sushi_08s.jpg,0.0,clockno_default.jpg,3.0,32,,,,,,,,,,,,,,,,,,,,,,,,,,,,,,,,
0.0,1.0,1.004,0.0,20.0,20.0,20.0,1.0,penlight_12s.jpg,0.0,clockno_up.jpg,4.0,32,,,,,,,,,,,,,,,,,,,,,,,,,,,,,,,,
1.0,1.0,1.108,0.0,21.0,21.0,21.0,1.0,penlight_12s.jpg,1.0,clockno_default.jpg,4.0,32,,,,,,,,,,,,,,,,,,,,,,,,,,,,,,,,
1.0,1.0,1.009,0.0,22.0,22.0,22.0,1.0,penlight_12s.jpg,1.0,clockno_default.jpg,4.0,32,,,,,,,,,,,,,,,,,,,,,,,,,,,,,,,,
0.0,1.0,1.02,0.0,23.0,23.0,23.0,1.0,jet_15s.jpg,0.0,clockno_default.jpg,4.0,32,,,,,,,,,,,,,,,,,,,,,,,,,,,,,,,,
0.0,1.0,0.87,0.0,24.0,24.0,24.0,1.0,power_line_08s.jpg,0.0,clockno_default.jpg,4.0,32,,,,,,,,,,,,,,,,,,,,,,,,,,,,,,,,
0.0,1.0,1.644,0.0,25.0,25.0,25.0,1.0,orange_12s.jpg,0.0,clockno_up.jpg,5.0,32,,,,,,,,,,,,,,,,,,,,,,,,,,,,,,,,
0.0,1.0,0.666,0.0,26.0,26.0,26.0,1.0,fishhook_06s.jpg,0.0,clockno_default.jpg,5.0,32,,,,,,,,,,,,,,,,,,,,,,,,,,,,,,,,
0.0,1.0,0.594,0.0,27.0,27.0,27.0,1.0,crystal_ball_12s.jpg,0.0,clockno_default.jpg,5.0,32,,,,,,,,,,,,,,,,,,,,,,,,,,,,,,,,
0.0,1.0,0.881,0.0,28.0,28.0,28.0,1.0,taxi_15s.jpg,0.0,clockno_default.jpg,5.0,32,,,,,,,,,,,,,,,,,,,,,,,,,,,,,,,,
0.0,1.0,1.054,0.0,29.0,29.0,29.0,1.0,pineapple_12s.jpg,0.0,clockno_default.jpg,5.0,32,,,,,,,,,,,,,,,,,,,,,,,,,,,,,,,,
0.0,1.0,0.945,0.0,30.0,30.0,30.0,1.0,tulip_02s.jpg,0.0,clockno_default.jpg,5.0,32,,,,,,,,,,,,,,,,,,,,,,,,,,,,,,,,
0.0,1.0,1.333,0.0,31.0,31.0,31.0,1.0,tongs_08s.jpg,0.0,clockno_up.jpg,6.0,32,,,,,,,,,,,,,,,,,,,,,,,,,,,,,,,,
0.0,1.0,0.74,0.0,32.0,32.0,32.0,1.0,orchid_01b.jpg,0.0,clockno_default.jpg,6.0,32,,,,,,,,,,,,,,,,,,,,,,,,,,,,,,,,
1.0,1.0,0.872,0.0,33.0,33.0,33.0,1.0,tongs_08s.jpg,1.0,clockno_default.jpg,6.0,32,,,,,,,,,,,,,,,,,,,,,,,,,,,,,,,,
1.0,1.0,0.884,0.0,34.0,34.0,34.0,1.0,tongs_08s.jpg,1.0,clockno_default.jpg,6.0,32,,,,,,,,,,,,,,,,,,,,,,,,,,,,,,,,
1.0,1.0,0.731,0.0,35.0,35.0,35.0,1.0,orchid_01b.jpg,1.0,clockno_default.jpg,6.0,32,,,,,,,,,,,,,,,,,,,,,,,,,,,,,,,,
,,,,,,,,,1.0,,,32,1.0,1.0,1.59,0.0,0.0,0.0,0.0,1.0,cotton_candy_01b.jpg,checkbook_11s.jpg,,,,,,,,,,,,,,,,,,,,,,
,,,,,,,,,1.0,,,32,1.0,1.0,1.671,0.0,1.0,1.0,1.0,1.0,lamb_04s.jpg,megaphone_03s.jpg,,,,,,,,,,,,,,,,,,,,,,
,,,,,,,,,0.0,,,32,1.0,0.0,2.259,0.0,2.0,2.0,2.0,1.0,recliner_02s.jpg,rope_16s.jpg,,,,,,,,,,,,,,,,,,,,,,
,,,,,,,,,0.0,,,32,0.0,1.0,2.205,0.0,3.0,3.0,3.0,1.0,stamp2_08s.jpg,gargoyle_08s.jpg,,,,,,,,,,,,,,,,,,,,,,
,,,,,,,,,1.0,,,32,0.0,0.0,1.337,0.0,4.0,4.0,4.0,1.0,smoothie_09s.jpg,sushi_08s.jpg,,,,,,,,,,,,,,,,,,,,,,
,,,,,,,,,1.0,,,32,1.0,1.0,1.074,0.0,5.0,5.0,5.0,1.0,dirt_bike_11s.jpg,lamb_chop_07s.jpg,,,,,,,,,,,,,,,,,,,,,,
,,,,,,,,,,,,32,,,,,,,,,,,0.0,3.0,3.0,3.0,1.0,clockno_present_4_8.xlsx,clockno_compare_task_4_8.xlsx,,,,,,,,,,,,,,,
0.0,1.0,1.396,0.0,0.0,0.0,0.0,1.0,ice-cream_cone_06s.jpg,0.0,clockno_up.jpg,1.0,32,,,,,,,,,,,,,,,,,,,,,,,,,,,,,,,,
0.0,1.0,0.587,0.0,1.0,1.0,1.0,1.0,teabag_12s.jpg,0.0,clockno_default.jpg,1.0,32,,,,,,,,,,,,,,,,,,,,,,,,,,,,,,,,
0.0,1.0,0.472,0.0,2.0,2.0,2.0,1.0,giraffe_11s.jpg,0.0,clockno_default.jpg,1.0,32,,,,,,,,,,,,,,,,,,,,,,,,,,,,,,,,
0.0,1.0,0.531,0.0,3.0,3.0,3.0,1.0,ivy_12s.jpg,0.0,clockno_default.jpg,1.0,32,,,,,,,,,,,,,,,,,,,,,,,,,,,,,,,,
0.0,1.0,0.473,0.0,4.0,4.0,4.0,1.0,plug_08s.jpg,0.0,clockno_default.jpg,1.0,32,,,,,,,,,,,,,,,,,,,,,,,,,,,,,,,,
0.0,1.0,0.396,0.0,5.0,5.0,5.0,1.0,sparkler_02s.jpg,0.0,clockno_default.jpg,1.0,32,,,,,,,,,,,,,,,,,,,,,,,,,,,,,,,,
0.0,1.0,0.537,0.0,6.0,6.0,6.0,1.0,otter_05s.jpg,0.0,clockno_default.jpg,1.0,32,,,,,,,,,,,,,,,,,,,,,,,,,,,,,,,,
0.0,1.0,1.534,0.0,7.0,7.0,7.0,1.0,tie_03s.jpg,0.0,clockno_up.jpg,2.0,32,,,,,,,,,,,,,,,,,,,,,,,,,,,,,,,,
1.0,1.0,0.811,0.0,8.0,8.0,8.0,1.0,tie_03s.jpg,1.0,clockno_default.jpg,2.0,32,,,,,,,,,,,,,,,,,,,,,,,,,,,,,,,,
0.0,1.0,0.806,0.0,9.0,9.0,9.0,1.0,petri_dish_12s.jpg,0.0,clockno_default.jpg,2.0,32,,,,,,,,,,,,,,,,,,,,,,,,,,,,,,,,
0.0,1.0,0.746,0.0,10.0,10.0,10.0,1.0,squirrel_02s.jpg,0.0,clockno_default.jpg,2.0,32,,,,,,,,,,,,,,,,,,,,,,,,,,,,,,,,
0.0,1.0,1.53,0.0,11.0,11.0,11.0,1.0,ivy_12s.jpg,0.0,clockno_default.jpg,2.0,32,,,,,,,,,,,,,,,,,,,,,,,,,,,,,,,,
1.0,1.0,0.923,0.0,12.0,12.0,12.0,1.0,squirrel_02s.jpg,1.0,clockno_default.jpg,2.0,32,,,,,,,,,,,,,,,,,,,,,,,,,,,,,,,,
0.0,1.0,0.665,0.0,13.0,13.0,13.0,1.0,spider_web_03s.jpg,0.0,clockno_up.jpg,3.0,32,,,,,,,,,,,,,,,,,,,,,,,,,,,,,,,,
0.0,1.0,1.159,0.0,14.0,14.0,14.0,1.0,toaster_03s.jpg,0.0,clockno_default.jpg,3.0,32,,,,,,,,,,,,,,,,,,,,,,,,,,,,,,,,
0.0,1.0,1.188,0.0,15.0,15.0,15.0,1.0,thumbtack_14s.jpg,0.0,clockno_default.jpg,3.0,32,,,,,,,,,,,,,,,,,,,,,,,,,,,,,,,,
0.0,1.0,0.689,0.0,16.0,16.0,16.0,1.0,moth_06n.jpg,0.0,clockno_default.jpg,3.0,32,,,,,,,,,,,,,,,,,,,,,,,,,,,,,,,,
0.0,1.0,0.49,0.0,17.0,17.0,17.0,1.0,coral_08s.jpg,0.0,clockno_default.jpg,3.0,32,,,,,,,,,,,,,,,,,,,,,,,,,,,,,,,,
0.0,1.0,0.864,0.0,18.0,18.0,18.0,1.0,lamppost_09s.jpg,0.0,clockno_default.jpg,3.0,32,,,,,,,,,,,,,,,,,,,,,,,,,,,,,,,,
0.0,1.0,0.95,0.0,19.0,19.0,19.0,1.0,prism_10s.jpg,0.0,clockno_up.jpg,4.0,32,,,,,,,,,,,,,,,,,,,,,,,,,,,,,,,,
,0.0,,0.0,20.0,20.0,20.0,1.0,tie_03s.jpg,0.0,clockno_default.jpg,4.0,32,,,,,,,,,,,,,,,,,,,,,,,,,,,,,,,,
0.0,1.0,1.0,0.0,21.0,21.0,21.0,1.0,pumpkin_03s.jpg,0.0,clockno_default.jpg,4.0,32,,,,,,,,,,,,,,,,,,,,,,,,,,,,,,,,
1.0,1.0,0.816,0.0,22.0,22.0,22.0,1.0,pumpkin_03s.jpg,1.0,clockno_default.jpg,4.0,32,,,,,,,,,,,,,,,,,,,,,,,,,,,,,,,,
0.0,1.0,0.829,0.0,23.0,23.0,23.0,1.0,bacon_05s.jpg,0.0,clockno_default.jpg,4.0,32,,,,,,,,,,,,,,,,,,,,,,,,,,,,,,,,
0.0,1.0,1.082,0.0,24.0,24.0,24.0,1.0,mold2_04s.jpg,0.0,clockno_up.jpg,5.0,32,,,,,,,,,,,,,,,,,,,,,,,,,,,,,,,,
0.0,1.0,0.878,0.0,25.0,25.0,25.0,1.0,pumpkin_03s.jpg,0.0,clockno_default.jpg,5.0,32,,,,,,,,,,,,,,,,,,,,,,,,,,,,,,,,
0.0,1.0,0.599,0.0,26.0,26.0,26.0,1.0,police_car_01s.jpg,0.0,clockno_default.jpg,5.0,32,,,,,,,,,,,,,,,,,,,,,,,,,,,,,,,,
0.0,1.0,0.797,0.0,27.0,27.0,27.0,1.0,limousine_12s.jpg,0.0,clockno_default.jpg,5.0,32,,,,,,,,,,,,,,,,,,,,,,,,,,,,,,,,
0.0,1.0,0.69,0.0,28.0,28.0,28.0,1.0,pump_11s.jpg,0.0,clockno_default.jpg,5.0,32,,,,,,,,,,,,,,,,,,,,,,,,,,,,,,,,
0.0,1.0,0.672,0.0,29.0,29.0,29.0,1.0,raspberry_12s.jpg,0.0,clockno_default.jpg,5.0,32,,,,,,,,,,,,,,,,,,,,,,,,,,,,,,,,
0.0,1.0,1.8,0.0,30.0,30.0,30.0,1.0,bee_20s.jpg,0.0,clockno_default.jpg,5.0,32,,,,,,,,,,,,,,,,,,,,,,,,,,,,,,,,
0.0,1.0,0.835,0.0,31.0,31.0,31.0,1.0,machine_gun_09s.jpg,0.0,clockno_up.jpg,6.0,32,,,,,,,,,,,,,,,,,,,,,,,,,,,,,,,,
1.0,1.0,0.957,0.0,32.0,32.0,32.0,1.0,machine_gun_09s.jpg,1.0,clockno_default.jpg,6.0,32,,,,,,,,,,,,,,,,,,,,,,,,,,,,,,,,
0.0,1.0,1.327,0.0,33.0,33.0,33.0,1.0,boomerang_06s.jpg,0.0,clockno_default.jpg,6.0,32,,,,,,,,,,,,,,,,,,,,,,,,,,,,,,,,
0.0,1.0,0.538,0.0,34.0,34.0,34.0,1.0,roulette_wheel_04s.jpg,0.0,clockno_default.jpg,6.0,32,,,,,,,,,,,,,,,,,,,,,,,,,,,,,,,,
0.0,1.0,0.602,0.0,35.0,35.0,35.0,1.0,perfume_06s.jpg,0.0,clockno_default.jpg,6.0,32,,,,,,,,,,,,,,,,,,,,,,,,,,,,,,,,
,,,,,,,,,0.0,,,32,1.0,0.0,1.405,0.0,0.0,0.0,0.0,1.0,petri_dish_12s.jpg,otter_05s.jpg,,,,,,,,,,,,,,,,,,,,,,
,,,,,,,,,0.0,,,32,0.0,1.0,1.325,0.0,1.0,1.0,1.0,1.0,prism_10s.jpg,moth_06n.jpg,,,,,,,,,,,,,,,,,,,,,,
,,,,,,,,,1.0,,,32,1.0,1.0,2.138,0.0,2.0,2.0,2.0,1.0,bacon_05s.jpg,police_car_01s.jpg,,,,,,,,,,,,,,,,,,,,,,
,,,,,,,,,1.0,,,32,1.0,1.0,1.667,0.0,3.0,3.0,3.0,1.0,teabag_12s.jpg,plug_08s.jpg,,,,,,,,,,,,,,,,,,,,,,
,,,,,,,,,0.0,,,32,1.0,0.0,1.0,0.0,4.0,4.0,4.0,1.0,sparkler_02s.jpg,giraffe_11s.jpg,,,,,,,,,,,,,,,,,,,,,,
,,,,,,,,,0.0,,,32,0.0,1.0,1.351,0.0,5.0,5.0,5.0,1.0,coral_08s.jpg,toaster_03s.jpg,,,,,,,,,,,,,,,,,,,,,,
,,,,,,,,,,,,32,,,,,,,,,,,0.0,4.0,4.0,4.0,1.0,clockno_present_5_8.xlsx,clockno_compare_task_5_8.xlsx,,,,,,,,,,,,,,,
0.0,1.0,1.674,0.0,0.0,0.0,0.0,1.0,rooster_03s.jpg,0.0,clockno_up.jpg,1.0,32,,,,,,,,,,,,,,,,,,,,,,,,,,,,,,,,
1.0,1.0,0.75,0.0,1.0,1.0,1.0,1.0,rooster_03s.jpg,1.0,clockno_default.jpg,1.0,32,,,,,,,,,,,,,,,,,,,,,,,,,,,,,,,,
1.0,1.0,0.556,0.0,2.0,2.0,2.0,1.0,rooster_03s.jpg,1.0,clockno_default.jpg,1.0,32,,,,,,,,,,,,,,,,,,,,,,,,,,,,,,,,
0.0,1.0,0.612,0.0,3.0,3.0,3.0,1.0,birdcage_08s.jpg,0.0,clockno_default.jpg,1.0,32,,,,,,,,,,,,,,,,,,,,,,,,,,,,,,,,
1.0,1.0,0.818,0.0,4.0,4.0,4.0,1.0,birdcage_08s.jpg,1.0,clockno_default.jpg,1.0,32,,,,,,,,,,,,,,,,,,,,,,,,,,,,,,,,
0.0,1.0,0.601,0.0,5.0,5.0,5.0,1.0,bowler_hat_10s.jpg,0.0,clockno_default.jpg,1.0,32,,,,,,,,,,,,,,,,,,,,,,,,,,,,,,,,
0.0,1.0,0.735,0.0,6.0,6.0,6.0,1.0,potholder_02s.jpg,0.0,clockno_up.jpg,2.0,32,,,,,,,,,,,,,,,,,,,,,,,,,,,,,,,,
0.0,1.0,1.018,0.0,7.0,7.0,7.0,1.0,rooster_03s.jpg,0.0,clockno_default.jpg,2.0,32,,,,,,,,,,,,,,,,,,,,,,,,,,,,,,,,
0.0,1.0,0.607,0.0,8.0,8.0,8.0,1.0,mango_09s.jpg,0.0,clockno_default.jpg,2.0,32,,,,,,,,,,,,,,,,,,,,,,,,,,,,,,,,
0.0,0.0,0.958,0.0,9.0,9.0,9.0,1.0,rooster_03s.jpg,1.0,clockno_default.jpg,2.0,32,,,,,,,,,,,,,,,,,,,,,,,,,,,,,,,,
0.0,1.0,0.818,0.0,10.0,10.0,10.0,1.0,orangutan_03s.jpg,0.0,clockno_default.jpg,2.0,32,,,,,,,,,,,,,,,,,,,,,,,,,,,,,,,,
0.0,1.0,0.667,0.0,11.0,11.0,11.0,1.0,latch_15s.jpg,0.0,clockno_default.jpg,2.0,32,,,,,,,,,,,,,,,,,,,,,,,,,,,,,,,,
0.0,1.0,0.601,0.0,12.0,12.0,12.0,1.0,soccer_ball_12s.jpg,0.0,clockno_default.jpg,2.0,32,,,,,,,,,,,,,,,,,,,,,,,,,,,,,,,,
0.0,1.0,0.535,0.0,13.0,13.0,13.0,1.0,gear_07s.jpg,0.0,clockno_up.jpg,3.0,32,,,,,,,,,,,,,,,,,,,,,,,,,,,,,,,,
1.0,1.0,1.128,0.0,14.0,14.0,14.0,1.0,gear_07s.jpg,1.0,clockno_default.jpg,3.0,32,,,,,,,,,,,,,,,,,,,,,,,,,,,,,,,,
0.0,1.0,1.049,0.0,15.0,15.0,15.0,1.0,flip_flop_03s.jpg,0.0,clockno_default.jpg,3.0,32,,,,,,,,,,,,,,,,,,,,,,,,,,,,,,,,
0.0,1.0,0.576,0.0,16.0,16.0,16.0,1.0,coffee_filter_10s.jpg,0.0,clockno_default.jpg,3.0,32,,,,,,,,,,,,,,,,,,,,,,,,,,,,,,,,
1.0,1.0,0.915,0.0,17.0,17.0,17.0,1.0,coffee_filter_10s.jpg,1.0,clockno_default.jpg,3.0,32,,,,,,,,,,,,,,,,,,,,,,,,,,,,,,,,
0.0,1.0,1.074,0.0,18.0,18.0,18.0,1.0,golf_club_03s.jpg,0.0,clockno_up.jpg,4.0,32,,,,,,,,,,,,,,,,,,,,,,,,,,,,,,,,
0.0,1.0,0.733,0.0,19.0,19.0,19.0,1.0,icemaker_10s.jpg,0.0,clockno_default.jpg,4.0,32,,,,,,,,,,,,,,,,,,,,,,,,,,,,,,,,
0.0,1.0,0.6,0.0,20.0,20.0,20.0,1.0,sleeping_bag_12s.jpg,0.0,clockno_default.jpg,4.0,32,,,,,,,,,,,,,,,,,,,,,,,,,,,,,,,,
0.0,1.0,0.671,0.0,21.0,21.0,21.0,1.0,tape_06s.jpg,0.0,clockno_default.jpg,4.0,32,,,,,,,,,,,,,,,,,,,,,,,,,,,,,,,,
0.0,1.0,0.733,0.0,22.0,22.0,22.0,1.0,red_carpet_03s.jpg,0.0,clockno_default.jpg,4.0,32,,,,,,,,,,,,,,,,,,,,,,,,,,,,,,,,
1.0,1.0,0.807,0.0,23.0,23.0,23.0,1.0,red_carpet_03s.jpg,1.0,clockno_default.jpg,4.0,32,,,,,,,,,,,,,,,,,,,,,,,,,,,,,,,,
1.0,1.0,1.165,0.0,24.0,24.0,24.0,1.0,sleeping_bag_12s.jpg,1.0,clockno_default.jpg,4.0,32,,,,,,,,,,,,,,,,,,,,,,,,,,,,,,,,
0.0,1.0,0.74,0.0,25.0,25.0,25.0,1.0,quilt_03s.jpg,0.0,clockno_up.jpg,5.0,32,,,,,,,,,,,,,,,,,,,,,,,,,,,,,,,,
0.0,1.0,0.733,0.0,26.0,26.0,26.0,1.0,torch_02s.jpg,0.0,clockno_default.jpg,5.0,32,,,,,,,,,,,,,,,,,,,,,,,,,,,,,,,,
0.0,1.0,0.74,0.0,27.0,27.0,27.0,1.0,pancake_12s.jpg,0.0,clockno_default.jpg,5.0,32,,,,,,,,,,,,,,,,,,,,,,,,,,,,,,,,
0.0,1.0,0.668,0.0,28.0,28.0,28.0,1.0,umbrella_15s.jpg,0.0,clockno_default.jpg,5.0,32,,,,,,,,,,,,,,,,,,,,,,,,,,,,,,,,
0.0,1.0,1.065,0.0,29.0,29.0,29.0,1.0,measuring_cup_02s.jpg,0.0,clockno_default.jpg,5.0,32,,,,,,,,,,,,,,,,,,,,,,,,,,,,,,,,
0.0,1.0,0.665,0.0,30.0,30.0,30.0,1.0,briefcase_03s.jpg,0.0,clockno_up.jpg,6.0,32,,,,,,,,,,,,,,,,,,,,,,,,,,,,,,,,
0.0,1.0,0.885,0.0,31.0,31.0,31.0,1.0,birdcage_08s.jpg,0.0,clockno_default.jpg,6.0,32,,,,,,,,,,,,,,,,,,,,,,,,,,,,,,,,
0.0,1.0,0.631,0.0,32.0,32.0,32.0,1.0,trumpet_06s.jpg,0.0,clockno_default.jpg,6.0,32,,,,,,,,,,,,,,,,,,,,,,,,,,,,,,,,
0.0,1.0,0.662,0.0,33.0,33.0,33.0,1.0,pepper_mill_03s.jpg,0.0,clockno_default.jpg,6.0,32,,,,,,,,,,,,,,,,,,,,,,,,,,,,,,,,
0.0,1.0,0.595,0.0,34.0,34.0,34.0,1.0,turtle_08s.jpg,0.0,clockno_default.jpg,6.0,32,,,,,,,,,,,,,,,,,,,,,,,,,,,,,,,,
0.0,1.0,0.947,0.0,35.0,35.0,35.0,1.0,juicer1_08s.jpg,0.0,clockno_default.jpg,6.0,32,,,,,,,,,,,,,,,,,,,,,,,,,,,,,,,,
,,,,,,,,,1.0,,,32,1.0,1.0,1.633,0.0,0.0,0.0,0.0,1.0,soccer_ball_12s.jpg,flip_flop_03s.jpg,,,,,,,,,,,,,,,,,,,,,,
,,,,,,,,,1.0,,,32,1.0,1.0,2.171,0.0,1.0,1.0,1.0,1.0,bowler_hat_10s.jpg,mango_09s.jpg,,,,,,,,,,,,,,,,,,,,,,
,,,,,,,,,1.0,,,32,0.0,0.0,1.167,0.0,2.0,2.0,2.0,1.0,pancake_12s.jpg,briefcase_03s.jpg,,,,,,,,,,,,,,,,,,,,,,
,,,,,,,,,0.0,,,32,1.0,0.0,1.206,0.0,3.0,3.0,3.0,1.0,umbrella_15s.jpg,quilt_03s.jpg,,,,,,,,,,,,,,,,,,,,,,
,,,,,,,,,0.0,,,32,0.0,1.0,1.809,0.0,4.0,4.0,4.0,1.0,tape_06s.jpg,golf_club_03s.jpg,,,,,,,,,,,,,,,,,,,,,,
,,,,,,,,,1.0,,,32,1.0,1.0,1.467,0.0,5.0,5.0,5.0,1.0,torch_02s.jpg,measuring_cup_02s.jpg,,,,,,,,,,,,,,,,,,,,,,
0.0,1.0,1.333,,,,,,mixer_12s.jpg,0.0,clock_7_1.png,1.0,32,,,,,,,,,,,,,,,,,,0.0,0.0,0.0,0.0,1.0,,,,,,,,,,
0.0,1.0,0.934,,,,,,mushroom_10n.jpg,0.0,clock_7_2.png,1.0,32,,,,,,,,,,,,,,,,,,0.0,1.0,1.0,1.0,1.0,,,,,,,,,,
0.0,1.0,0.557,,,,,,ink_08s.jpg,0.0,clock_7_3.png,1.0,32,,,,,,,,,,,,,,,,,,0.0,2.0,2.0,2.0,1.0,,,,,,,,,,
0.0,1.0,0.8,,,,,,amber_04s.jpg,0.0,clock_7_4.png,1.0,32,,,,,,,,,,,,,,,,,,0.0,3.0,3.0,3.0,1.0,,,,,,,,,,
0.0,1.0,0.53,,,,,,glasses01a.jpg,0.0,clock_7_5.png,1.0,32,,,,,,,,,,,,,,,,,,0.0,4.0,4.0,4.0,1.0,,,,,,,,,,
0.0,1.0,0.532,,,,,,chip_04s.jpg,0.0,clock_7_6.png,1.0,32,,,,,,,,,,,,,,,,,,0.0,5.0,5.0,5.0,1.0,,,,,,,,,,
0.0,1.0,0.535,,,,,,kilt_18s.jpg,0.0,clock_7_7.png,1.0,32,,,,,,,,,,,,,,,,,,0.0,6.0,6.0,6.0,1.0,,,,,,,,,,
0.0,1.0,0.747,,,,,,film_03s.jpg,0.0,clock_6_1.png,2.0,32,,,,,,,,,,,,,,,,,,0.0,7.0,7.0,7.0,1.0,,,,,,,,,,
0.0,1.0,0.671,,,,,,footprint_11s.jpg,0.0,clock_6_2.png,2.0,32,,,,,,,,,,,,,,,,,,0.0,8.0,8.0,8.0,1.0,,,,,,,,,,
0.0,1.0,0.599,,,,,,teacup_07s.jpg,0.0,clock_6_3.png,2.0,32,,,,,,,,,,,,,,,,,,0.0,9.0,9.0,9.0,1.0,,,,,,,,,,
0.0,1.0,0.794,,,,,,razor_12s.jpg,0.0,clock_6_4.png,2.0,32,,,,,,,,,,,,,,,,,,0.0,10.0,10.0,10.0,1.0,,,,,,,,,,
0.0,1.0,0.6,,,,,,turkey_10s.jpg,0.0,clock_6_5.png,2.0,32,,,,,,,,,,,,,,,,,,0.0,11.0,11.0,11.0,1.0,,,,,,,,,,
0.0,1.0,0.673,,,,,,amber_04s.jpg,0.0,clock_6_6.png,2.0,32,,,,,,,,,,,,,,,,,,0.0,12.0,12.0,12.0,1.0,,,,,,,,,,
0.0,1.0,0.938,,,,,,lantern_04s.jpg,0.0,clock_7_1.png,3.0,32,,,,,,,,,,,,,,,,,,0.0,13.0,13.0,13.0,1.0,,,,,,,,,,
0.0,1.0,1.341,,,,,,film_03s.jpg,0.0,clock_7_2.png,3.0,32,,,,,,,,,,,,,,,,,,0.0,14.0,14.0,14.0,1.0,,,,,,,,,,
0.0,1.0,0.805,,,,,,kitten_07s.jpg,0.0,clock_7_3.png,3.0,32,,,,,,,,,,,,,,,,,,0.0,15.0,15.0,15.0,1.0,,,,,,,,,,
0.0,1.0,0.734,,,,,,mosquito_12s.jpg,0.0,clock_7_4.png,3.0,32,,,,,,,,,,,,,,,,,,0.0,16.0,16.0,16.0,1.0,,,,,,,,,,
0.0,1.0,0.827,,,,,,memory_stick_11s.jpg,0.0,clock_7_5.png,3.0,32,,,,,,,,,,,,,,,,,,0.0,17.0,17.0,17.0,1.0,,,,,,,,,,
0.0,1.0,1.007,,,,,,lipstick_02s.jpg,0.0,clock_7_6.png,3.0,32,,,,,,,,,,,,,,,,,,0.0,18.0,18.0,18.0,1.0,,,,,,,,,,
1.0,1.0,1.399,,,,,,kitten_07s.jpg,1.0,clock_7_7.png,3.0,32,,,,,,,,,,,,,,,,,,0.0,19.0,19.0,19.0,1.0,,,,,,,,,,
0.0,1.0,0.741,,,,,,mattress_01s.jpg,0.0,clock_5_1.png,4.0,32,,,,,,,,,,,,,,,,,,0.0,20.0,20.0,20.0,1.0,,,,,,,,,,
0.0,1.0,1.205,,,,,,fondue_07s.jpg,0.0,clock_5_2.png,4.0,32,,,,,,,,,,,,,,,,,,0.0,21.0,21.0,21.0,1.0,,,,,,,,,,
0.0,1.0,0.59,,,,,,espresso_01b.jpg,0.0,clock_5_3.png,4.0,32,,,,,,,,,,,,,,,,,,0.0,22.0,22.0,22.0,1.0,,,,,,,,,,
0.0,1.0,1.131,,,,,,tiara_05s.jpg,0.0,clock_5_4.png,4.0,32,,,,,,,,,,,,,,,,,,0.0,23.0,23.0,23.0,1.0,,,,,,,,,,
1.0,1.0,0.606,,,,,,espresso_01b.jpg,1.0,clock_5_5.png,4.0,32,,,,,,,,,,,,,,,,,,0.0,24.0,24.0,24.0,1.0,,,,,,,,,,
0.0,1.0,1.758,,,,,,flask_04s.jpg,0.0,clock_6_1.png,5.0,32,,,,,,,,,,,,,,,,,,0.0,25.0,25.0,25.0,1.0,,,,,,,,,,
0.0,1.0,0.941,,,,,,duck_01b.jpg,0.0,clock_6_2.png,5.0,32,,,,,,,,,,,,,,,,,,0.0,26.0,26.0,26.0,1.0,,,,,,,,,,
0.0,1.0,0.801,,,,,,ukulele_02s.jpg,0.0,clock_6_3.png,5.0,32,,,,,,,,,,,,,,,,,,0.0,27.0,27.0,27.0,1.0,,,,,,,,,,
0.0,1.0,0.738,,,,,,polaroid_05s.jpg,0.0,clock_6_4.png,5.0,32,,,,,,,,,,,,,,,,,,0.0,28.0,28.0,28.0,1.0,,,,,,,,,,
0.0,1.0,1.933,,,,,,kite_04s.jpg,0.0,clock_6_5.png,5.0,32,,,,,,,,,,,,,,,,,,0.0,29.0,29.0,29.0,1.0,,,,,,,,,,
1.0,1.0,0.797,,,,,,kite_04s.jpg,1.0,clock_6_6.png,5.0,32,,,,,,,,,,,,,,,,,,0.0,30.0,30.0,30.0,1.0,,,,,,,,,,
0.0,1.0,0.666,,,,,,denture_03s.jpg,0.0,clock_5_1.png,6.0,32,,,,,,,,,,,,,,,,,,0.0,31.0,31.0,31.0,1.0,,,,,,,,,,
0.0,1.0,0.801,,,,,,frog_09s.jpg,0.0,clock_5_2.png,6.0,32,,,,,,,,,,,,,,,,,,0.0,32.0,32.0,32.0,1.0,,,,,,,,,,
0.0,1.0,0.866,,,,,,diving_board_07s.jpg,0.0,clock_5_3.png,6.0,32,,,,,,,,,,,,,,,,,,0.0,33.0,33.0,33.0,1.0,,,,,,,,,,
1.0,1.0,0.868,,,,,,denture_03s.jpg,1.0,clock_5_4.png,6.0,32,,,,,,,,,,,,,,,,,,0.0,34.0,34.0,34.0,1.0,,,,,,,,,,
0.0,1.0,1.065,,,,,,telephone_pole_05s.jpg,0.0,clock_5_5.png,6.0,32,,,,,,,,,,,,,,,,,,0.0,35.0,35.0,35.0,1.0,,,,,,,,,,
,,,,,,,,,1.0,,,32,0.0,0.0,2.136,,,,,,kilt_18s.jpg,teacup_07s.jpg,,,,,,,,,,,,,0.0,0.0,0.0,0.0,1.0,,,,,
,,,,,,,,,1.0,,,32,0.0,0.0,1.087,,,,,,lipstick_02s.jpg,fondue_07s.jpg,,,,,,,,,,,,,0.0,1.0,1.0,1.0,1.0,,,,,
,,,,,,,,,0.0,,,32,1.0,0.0,1.634,,,,,,lantern_04s.jpg,razor_12s.jpg,,,,,,,,,,,,,0.0,2.0,2.0,2.0,1.0,,,,,
,,,,,,,,,0.0,,,32,0.0,1.0,1.277,,,,,,glasses01a.jpg,mushroom_10n.jpg,,,,,,,,,,,,,0.0,3.0,3.0,3.0,1.0,,,,,
,,,,,,,,,0.0,,,32,0.0,1.0,1.001,,,,,,polaroid_05s.jpg,flask_04s.jpg,,,,,,,,,,,,,0.0,4.0,4.0,4.0,1.0,,,,,
,,,,,,,,,1.0,,,32,1.0,1.0,1.531,,,,,,frog_09s.jpg,telephone_pole_05s.jpg,,,,,,,,,,,,,0.0,5.0,5.0,5.0,1.0,,,,,
,,,,,,,,,,,,32,,,,,,,,,,,,,,,,clock_present_1_8.xlsx,clock_compare_task_1_8.xlsx,,,,,,,,,,,0.0,0.0,0.0,0.0,1.0
0.0,1.0,1.339,,,,,,spatula04.jpg,0.0,clock_5_1.png,1.0,32,,,,,,,,,,,,,,,,,,0.0,0.0,0.0,0.0,1.0,,,,,,,,,,
0.0,1.0,1.684,,,,,,cardinal_07s.jpg,0.0,clock_5_2.png,1.0,32,,,,,,,,,,,,,,,,,,0.0,1.0,1.0,1.0,1.0,,,,,,,,,,
0.0,0.0,0.66,,,,,,spatula04.jpg,1.0,clock_5_3.png,1.0,32,,,,,,,,,,,,,,,,,,0.0,2.0,2.0,2.0,1.0,,,,,,,,,,
0.0,1.0,0.566,,,,,,fossil_06s.jpg,0.0,clock_5_4.png,1.0,32,,,,,,,,,,,,,,,,,,0.0,3.0,3.0,3.0,1.0,,,,,,,,,,
0.0,1.0,0.474,,,,,,lavender_10s.jpg,0.0,clock_5_5.png,1.0,32,,,,,,,,,,,,,,,,,,0.0,4.0,4.0,4.0,1.0,,,,,,,,,,
0.0,1.0,0.538,,,,,,dashboard_02s.jpg,0.0,clock_7_1.png,2.0,32,,,,,,,,,,,,,,,,,,0.0,5.0,5.0,5.0,1.0,,,,,,,,,,
1.0,1.0,0.602,,,,,,dashboard_02s.jpg,1.0,clock_7_2.png,2.0,32,,,,,,,,,,,,,,,,,,0.0,6.0,6.0,6.0,1.0,,,,,,,,,,
0.0,1.0,0.535,,,,,,rudder_02s.jpg,0.0,clock_7_3.png,2.0,32,,,,,,,,,,,,,,,,,,0.0,7.0,7.0,7.0,1.0,,,,,,,,,,
0.0,1.0,0.47,,,,,,loveseat_08s.jpg,0.0,clock_7_4.png,2.0,32,,,,,,,,,,,,,,,,,,0.0,8.0,8.0,8.0,1.0,,,,,,,,,,
0.0,1.0,0.604,,,,,,hydrant_10s.jpg,0.0,clock_7_5.png,2.0,32,,,,,,,,,,,,,,,,,,0.0,9.0,9.0,9.0,1.0,,,,,,,,,,
0.0,1.0,0.745,,,,,,seagull_01b.jpg,0.0,clock_7_6.png,2.0,32,,,,,,,,,,,,,,,,,,0.0,10.0,10.0,10.0,1.0,,,,,,,,,,
0.0,1.0,1.368,,,,,,cardinal_07s.jpg,0.0,clock_7_7.png,2.0,32,,,,,,,,,,,,,,,,,,0.0,11.0,11.0,11.0,1.0,,,,,,,,,,
0.0,1.0,0.884,,,,,,bottle_opener_11s.jpg,0.0,clock_5_1.png,3.0,32,,,,,,,,,,,,,,,,,,0.0,12.0,12.0,12.0,1.0,,,,,,,,,,
0.0,1.0,0.94,,,,,,mirror_12s.jpg,0.0,clock_5_2.png,3.0,32,,,,,,,,,,,,,,,,,,0.0,13.0,13.0,13.0,1.0,,,,,,,,,,
0.0,1.0,0.994,,,,,,candy_cane_06s.jpg,0.0,clock_5_3.png,3.0,32,,,,,,,,,,,,,,,,,,0.0,14.0,14.0,14.0,1.0,,,,,,,,,,
0.0,1.0,0.471,,,,,,aluminum_foil_08s.jpg,0.0,clock_5_4.png,3.0,32,,,,,,,,,,,,,,,,,,0.0,15.0,15.0,15.0,1.0,,,,,,,,,,
0.0,1.0,0.603,,,,,,latte_06s.jpg,0.0,clock_5_5.png,3.0,32,,,,,,,,,,,,,,,,,,0.0,16.0,16.0,16.0,1.0,,,,,,,,,,
0.0,1.0,1.015,,,,,,sledgehammer_03s.jpg,0.0,clock_6_1.png,4.0,32,,,,,,,,,,,,,,,,,,0.0,17.0,17.0,17.0,1.0,,,,,,,,,,
1.0,1.0,0.966,,,,,,sledgehammer_03s.jpg,1.0,clock_6_2.png,4.0,32,,,,,,,,,,,,,,,,,,0.0,18.0,18.0,18.0,1.0,,,,,,,,,,
0.0,1.0,0.812,,,,,,rosary_03s.jpg,0.0,clock_6_3.png,4.0,32,,,,,,,,,,,,,,,,,,0.0,19.0,19.0,19.0,1.0,,,,,,,,,,
0.0,1.0,0.869,,,,,,crossbow_10s.jpg,0.0,clock_6_4.png,4.0,32,,,,,,,,,,,,,,,,,,0.0,20.0,20.0,20.0,1.0,,,,,,,,,,
1.0,1.0,2.422,,,,,,rosary_03s.jpg,1.0,clock_6_5.png,4.0,32,,,,,,,,,,,,,,,,,,0.0,21.0,21.0,21.0,1.0,,,,,,,,,,
1.0,1.0,1.267,,,,,,sledgehammer_03s.jpg,1.0,clock_6_6.png,4.0,32,,,,,,,,,,,,,,,,,,0.0,22.0,22.0,22.0,1.0,,,,,,,,,,
0.0,1.0,1.07,,,,,,ticktacktoe_08s.jpg,0.0,clock_7_1.png,5.0,32,,,,,,,,,,,,,,,,,,0.0,23.0,23.0,23.0,1.0,,,,,,,,,,
0.0,1.0,0.8,,,,,,swimming_pool_17s.jpg,0.0,clock_7_2.png,5.0,32,,,,,,,,,,,,,,,,,,0.0,24.0,24.0,24.0,1.0,,,,,,,,,,
1.0,1.0,0.608,,,,,,swimming_pool_17s.jpg,1.0,clock_7_3.png,5.0,32,,,,,,,,,,,,,,,,,,0.0,25.0,25.0,25.0,1.0,,,,,,,,,,
0.0,1.0,0.851,,,,,,bagel_15s.jpg,0.0,clock_7_4.png,5.0,32,,,,,,,,,,,,,,,,,,0.0,26.0,26.0,26.0,1.0,,,,,,,,,,
0.0,1.0,1.13,,,,,,rosary_03s.jpg,0.0,clock_7_5.png,5.0,32,,,,,,,,,,,,,,,,,,0.0,27.0,27.0,27.0,1.0,,,,,,,,,,
0.0,1.0,1.068,,,,,,lavender_10s.jpg,0.0,clock_7_6.png,5.0,32,,,,,,,,,,,,,,,,,,0.0,28.0,28.0,28.0,1.0,,,,,,,,,,
0.0,1.0,1.466,,,,,,bean_06s.jpg,0.0,clock_7_7.png,5.0,32,,,,,,,,,,,,,,,,,,0.0,29.0,29.0,29.0,1.0,,,,,,,,,,
0.0,1.0,0.804,,,,,,radiator_05s.jpg,0.0,clock_6_1.png,6.0,32,,,,,,,,,,,,,,,,,,0.0,30.0,30.0,30.0,1.0,,,,,,,,,,
0.0,1.0,1.007,,,,,,ladle_04s.jpg,0.0,clock_6_2.png,6.0,32,,,,,,,,,,,,,,,,,,0.0,31.0,31.0,31.0,1.0,,,,,,,,,,
0.0,1.0,0.6,,,,,,beaker_01b.jpg,0.0,clock_6_3.png,6.0,32,,,,,,,,,,,,,,,,,,0.0,32.0,32.0,32.0,1.0,,,,,,,,,,
0.0,1.0,0.853,,,,,,sundae_08s.jpg,0.0,clock_6_4.png,6.0,32,,,,,,,,,,,,,,,,,,0.0,33.0,33.0,33.0,1.0,,,,,,,,,,
0.0,1.0,1.49,,,,,,frame_06s.jpg,0.0,clock_6_5.png,6.0,32,,,,,,,,,,,,,,,,,,0.0,34.0,34.0,34.0,1.0,,,,,,,,,,
0.0,1.0,0.673,,,,,,coat_rack_01b.jpg,0.0,clock_6_6.png,6.0,32,,,,,,,,,,,,,,,,,,0.0,35.0,35.0,35.0,1.0,,,,,,,,,,
,,,,,,,,,1.0,,,32,0.0,0.0,1.803,,,,,,hydrant_10s.jpg,bottle_opener_11s.jpg,,,,,,,,,,,,,0.0,0.0,0.0,0.0,1.0,,,,,
,,,,,,,,,0.0,,,32,0.0,1.0,1.263,,,,,,ticktacktoe_08s.jpg,crossbow_10s.jpg,,,,,,,,,,,,,0.0,1.0,1.0,1.0,1.0,,,,,
,,,,,,,,,1.0,,,32,1.0,1.0,1.201,,,,,,seagull_01b.jpg,mirror_12s.jpg,,,,,,,,,,,,,0.0,2.0,2.0,2.0,1.0,,,,,
,,,,,,,,,0.0,,,32,1.0,0.0,1.339,,,,,,sundae_08s.jpg,radiator_05s.jpg,,,,,,,,,,,,,0.0,3.0,3.0,3.0,1.0,,,,,
,,,,,,,,,0.0,,,32,0.0,1.0,1.884,,,,,,frame_06s.jpg,ladle_04s.jpg,,,,,,,,,,,,,0.0,4.0,4.0,4.0,1.0,,,,,
,,,,,,,,,0.0,,,32,0.0,1.0,1.333,,,,,,bean_06s.jpg,bagel_15s.jpg,,,,,,,,,,,,,0.0,5.0,5.0,5.0,1.0,,,,,
,,,,,,,,,,,,32,,,,,,,,,,,,,,,,clock_present_2_8.xlsx,clock_compare_task_2_8.xlsx,,,,,,,,,,,0.0,1.0,1.0,1.0,1.0
0.0,1.0,0.94,,,,,,blender_08s.jpg,0.0,clock_7_1.png,1.0,32,,,,,,,,,,,,,,,,,,0.0,0.0,0.0,0.0,1.0,,,,,,,,,,
0.0,1.0,0.474,,,,,,knot_01b.jpg,0.0,clock_7_2.png,1.0,32,,,,,,,,,,,,,,,,,,0.0,1.0,1.0,1.0,1.0,,,,,,,,,,
1.0,1.0,1.345,,,,,,blender_08s.jpg,1.0,clock_7_3.png,1.0,32,,,,,,,,,,,,,,,,,,0.0,2.0,2.0,2.0,1.0,,,,,,,,,,
1.0,1.0,0.672,,,,,,blender_08s.jpg,1.0,clock_7_4.png,1.0,32,,,,,,,,,,,,,,,,,,0.0,3.0,3.0,3.0,1.0,,,,,,,,,,
0.0,1.0,0.644,,,,,,joystick_01b.jpg,0.0,clock_7_5.png,1.0,32,,,,,,,,,,,,,,,,,,0.0,4.0,4.0,4.0,1.0,,,,,,,,,,
0.0,1.0,1.01,,,,,,tuxedo_01b.jpg,0.0,clock_7_6.png,1.0,32,,,,,,,,,,,,,,,,,,0.0,5.0,5.0,5.0,1.0,,,,,,,,,,
0.0,1.0,0.557,,,,,,lid_10s.jpg,0.0,clock_7_7.png,1.0,32,,,,,,,,,,,,,,,,,,0.0,6.0,6.0,6.0,1.0,,,,,,,,,,
0.0,1.0,1.201,,,,,,bubble_01b.jpg,0.0,clock_5_1.png,2.0,32,,,,,,,,,,,,,,,,,,0.0,7.0,7.0,7.0,1.0,,,,,,,,,,
0.0,1.0,0.74,,,,,,stopwatch_04s.jpg,0.0,clock_5_2.png,2.0,32,,,,,,,,,,,,,,,,,,0.0,8.0,8.0,8.0,1.0,,,,,,,,,,
0.0,1.0,0.601,,,,,,mud_13s.jpg,0.0,clock_5_3.png,2.0,32,,,,,,,,,,,,,,,,,,0.0,9.0,9.0,9.0,1.0,,,,,,,,,,
1.0,0.0,1.536,,,,,,joystick_01b.jpg,0.0,clock_5_4.png,2.0,32,,,,,,,,,,,,,,,,,,0.0,10.0,10.0,10.0,1.0,,,,,,,,,,
0.0,1.0,0.891,,,,,,printer_09s.jpg,0.0,clock_5_5.png,2.0,32,,,,,,,,,,,,,,,,,,0.0,11.0,11.0,11.0,1.0,,,,,,,,,,
0.0,1.0,0.822,,,,,,totem_pole_05s.jpg,0.0,clock_7_1.png,3.0,32,,,,,,,,,,,,,,,,,,0.0,12.0,12.0,12.0,1.0,,,,,,,,,,
0.0,1.0,0.872,,,,,,eiffeltower.jpg,0.0,clock_7_2.png,3.0,32,,,,,,,,,,,,,,,,,,0.0,13.0,13.0,13.0,1.0,,,,,,,,,,
0.0,1.0,1.289,,,,,,bathtub_23s.jpg,0.0,clock_7_3.png,3.0,32,,,,,,,,,,,,,,,,,,0.0,14.0,14.0,14.0,1.0,,,,,,,,,,
1.0,1.0,0.878,,,,,,eiffeltower.jpg,1.0,clock_7_4.png,3.0,32,,,,,,,,,,,,,,,,,,0.0,15.0,15.0,15.0,1.0,,,,,,,,,,
0.0,0.0,0.937,,,,,,totem_pole_05s.jpg,1.0,clock_7_5.png,3.0,32,,,,,,,,,,,,,,,,,,0.0,16.0,16.0,16.0,1.0,,,,,,,,,,
0.0,1.0,0.67,,,,,,jetski_10s.jpg,0.0,clock_7_6.png,3.0,32,,,,,,,,,,,,,,,,,,0.0,17.0,17.0,17.0,1.0,,,,,,,,,,
0.0,1.0,0.538,,,,,,pillbox_04s.jpg,0.0,clock_7_7.png,3.0,32,,,,,,,,,,,,,,,,,,0.0,18.0,18.0,18.0,1.0,,,,,,,,,,
0.0,1.0,0.968,,,,,,coconut_08s.jpg,0.0,clock_6_1.png,4.0,32,,,,,,,,,,,,,,,,,,0.0,19.0,19.0,19.0,1.0,,,,,,,,,,
0.0,1.0,0.69,,,,,,lid_10s.jpg,0.0,clock_6_2.png,4.0,32,,,,,,,,,,,,,,,,,,0.0,20.0,20.0,20.0,1.0,,,,,,,,,,
0.0,1.0,0.671,,,,,,inhaler_01b.jpg,0.0,clock_6_3.png,4.0,32,,,,,,,,,,,,,,,,,,0.0,21.0,21.0,21.0,1.0,,,,,,,,,,
0.0,1.0,1.001,,,,,,printer_09s.jpg,0.0,clock_6_4.png,4.0,32,,,,,,,,,,,,,,,,,,0.0,22.0,22.0,22.0,1.0,,,,,,,,,,
0.0,1.0,0.735,,,,,,trampoline_13s.jpg,0.0,clock_6_5.png,4.0,32,,,,,,,,,,,,,,,,,,0.0,23.0,23.0,23.0,1.0,,,,,,,,,,
0.0,1.0,0.532,,,,,,crab_16s.jpg,0.0,clock_6_6.png,4.0,32,,,,,,,,,,,,,,,,,,0.0,24.0,24.0,24.0,1.0,,,,,,,,,,
0.0,1.0,0.539,,,,,,thread_08s.jpg,0.0,clock_5_1.png,5.0,32,,,,,,,,,,,,,,,,,,0.0,25.0,25.0,25.0,1.0,,,,,,,,,,
0.0,1.0,1.017,,,,,,trampoline_13s.jpg,0.0,clock_5_2.png,5.0,32,,,,,,,,,,,,,,,,,,0.0,26.0,26.0,26.0,1.0,,,,,,,,,,
0.0,1.0,0.706,,,,,,jetski_10s.jpg,0.0,clock_5_3.png,5.0,32,,,,,,,,,,,,,,,,,,0.0,27.0,27.0,27.0,1.0,,,,,,,,,,
0.0,1.0,0.73,,,,,,turnstile_08s.jpg,0.0,clock_5_4.png,5.0,32,,,,,,,,,,,,,,,,,,0.0,28.0,28.0,28.0,1.0,,,,,,,,,,
0.0,1.0,0.689,,,,,,bonsai_07s.jpg,0.0,clock_5_5.png,5.0,32,,,,,,,,,,,,,,,,,,0.0,29.0,29.0,29.0,1.0,,,,,,,,,,
0.0,1.0,0.668,,,,,,surfboard_11s.jpg,0.0,clock_6_1.png,6.0,32,,,,,,,,,,,,,,,,,,0.0,30.0,30.0,30.0,1.0,,,,,,,,,,
0.0,1.0,0.795,,,,,,touchpad_11s.jpg,0.0,clock_6_2.png,6.0,32,,,,,,,,,,,,,,,,,,0.0,31.0,31.0,31.0,1.0,,,,,,,,,,
0.0,1.0,0.67,,,,,,tab_09s.jpg,0.0,clock_6_3.png,6.0,32,,,,,,,,,,,,,,,,,,0.0,32.0,32.0,32.0,1.0,,,,,,,,,,
0.0,1.0,0.661,,,,,,tambourine_06s.jpg,0.0,clock_6_4.png,6.0,32,,,,,,,,,,,,,,,,,,0.0,33.0,33.0,33.0,1.0,,,,,,,,,,
0.0,1.0,0.55,,,,,,tube_top_03s.jpg,0.0,clock_6_5.png,6.0,32,,,,,,,,,,,,,,,,,,0.0,34.0,34.0,34.0,1.0,,,,,,,,,,
0.0,1.0,0.755,,,,,,mud_13s.jpg,0.0,clock_6_6.png,6.0,32,,,,,,,,,,,,,,,,,,0.0,35.0,35.0,35.0,1.0,,,,,,,,,,
,,,,,,,,,1.0,,,32,0.0,0.0,1.935,,,,,,tuxedo_01b.jpg,stopwatch_04s.jpg,,,,,,,,,,,,,0.0,0.0,0.0,0.0,1.0,,,,,
,,,,,,,,,0.0,,,32,0.0,1.0,1.598,,,,,,tab_09s.jpg,bonsai_07s.jpg,,,,,,,,,,,,,0.0,1.0,1.0,1.0,1.0,,,,,
,,,,,,,,,0.0,,,32,1.0,0.0,1.267,,,,,,inhaler_01b.jpg,pillbox_04s.jpg,,,,,,,,,,,,,0.0,2.0,2.0,2.0,1.0,,,,,
,,,,,,,,,1.0,,,32,1.0,1.0,1.667,,,,,,surfboard_11s.jpg,tambourine_06s.jpg,,,,,,,,,,,,,0.0,3.0,3.0,3.0,1.0,,,,,
,,,,,,,,,0.0,,,32,0.0,1.0,1.224,,,,,,turnstile_08s.jpg,thread_08s.jpg,,,,,,,,,,,,,0.0,4.0,4.0,4.0,1.0,,,,,
,,,,,,,,,0.0,,,32,0.0,1.0,1.64,,,,,,tube_top_03s.jpg,touchpad_11s.jpg,,,,,,,,,,,,,0.0,5.0,5.0,5.0,1.0,,,,,
,,,,,,,,,,,,32,,,,,,,,,,,,,,,,clock_present_3_8.xlsx,clock_compare_task_3_8.xlsx,,,,,,,,,,,0.0,2.0,2.0,2.0,1.0
0.0,1.0,0.8,,,,,,rug_09s.jpg,0.0,clock_5_1.png,1.0,32,,,,,,,,,,,,,,,,,,0.0,0.0,0.0,0.0,1.0,,,,,,,,,,
1.0,1.0,1.601,,,,,,rug_09s.jpg,1.0,clock_5_2.png,1.0,32,,,,,,,,,,,,,,,,,,0.0,1.0,1.0,1.0,1.0,,,,,,,,,,
0.0,1.0,0.732,,,,,,pear_02s.jpg,0.0,clock_5_3.png,1.0,32,,,,,,,,,,,,,,,,,,0.0,2.0,2.0,2.0,1.0,,,,,,,,,,
1.0,1.0,0.949,,,,,,rug_09s.jpg,1.0,clock_5_4.png,1.0,32,,,,,,,,,,,,,,,,,,0.0,3.0,3.0,3.0,1.0,,,,,,,,,,
0.0,1.0,0.932,,,,,,lasagna_06s.jpg,0.0,clock_5_5.png,1.0,32,,,,,,,,,,,,,,,,,,0.0,4.0,4.0,4.0,1.0,,,,,,,,,,
0.0,1.0,0.707,,,,,,crayon_09s.jpg,0.0,clock_6_1.png,2.0,32,,,,,,,,,,,,,,,,,,0.0,5.0,5.0,5.0,1.0,,,,,,,,,,
0.0,1.0,1.268,,,,,,puppet_01b.jpg,0.0,clock_6_2.png,2.0,32,,,,,,,,,,,,,,,,,,0.0,6.0,6.0,6.0,1.0,,,,,,,,,,
0.0,1.0,0.534,,,,,,clover_04s.jpg,0.0,clock_6_3.png,2.0,32,,,,,,,,,,,,,,,,,,0.0,7.0,7.0,7.0,1.0,,,,,,,,,,
0.0,1.0,0.668,,,,,,eyedropper_12s.jpg,0.0,clock_6_4.png,2.0,32,,,,,,,,,,,,,,,,,,0.0,8.0,8.0,8.0,1.0,,,,,,,,,,
0.0,1.0,0.602,,,,,,compass_10n.jpg,0.0,clock_6_5.png,2.0,32,,,,,,,,,,,,,,,,,,0.0,9.0,9.0,9.0,1.0,,,,,,,,,,
0.0,1.0,0.877,,,,,,beard_16s.jpg,0.0,clock_6_6.png,2.0,32,,,,,,,,,,,,,,,,,,0.0,10.0,10.0,10.0,1.0,,,,,,,,,,
0.0,1.0,0.737,,,,,,paintbrush_04s.jpg,0.0,clock_7_1.png,3.0,32,,,,,,,,,,,,,,,,,,0.0,11.0,11.0,11.0,1.0,,,,,,,,,,
0.0,1.0,0.739,,,,,,typewriter_11s.jpg,0.0,clock_7_2.png,3.0,32,,,,,,,,,,,,,,,,,,0.0,12.0,12.0,12.0,1.0,,,,,,,,,,
0.0,1.0,0.825,,,,,,peach_04s.jpg,0.0,clock_7_3.png,3.0,32,,,,,,,,,,,,,,,,,,0.0,13.0,13.0,13.0,1.0,,,,,,,,,,
0.0,1.0,0.599,,,,,,punch1_10s.jpg,0.0,clock_7_4.png,3.0,32,,,,,,,,,,,,,,,,,,0.0,14.0,14.0,14.0,1.0,,,,,,,,,,
0.0,1.0,1.343,,,,,,glue_01s.jpg,0.0,clock_7_5.png,3.0,32,,,,,,,,,,,,,,,,,,0.0,15.0,15.0,15.0,1.0,,,,,,,,,,
0.0,1.0,0.996,,,,,,magnet_03s.jpg,0.0,clock_7_6.png,3.0,32,,,,,,,,,,,,,,,,,,0.0,16.0,16.0,16.0,1.0,,,,,,,,,,
0.0,1.0,0.948,,,,,,fur_coat_11s.jpg,0.0,clock_7_7.png,3.0,32,,,,,,,,,,,,,,,,,,0.0,17.0,17.0,17.0,1.0,,,,,,,,,,
0.0,1.0,0.876,,,,,,marker_05s.jpg,0.0,clock_7_1.png,4.0,32,,,,,,,,,,,,,,,,,,0.0,18.0,18.0,18.0,1.0,,,,,,,,,,
1.0,1.0,0.862,,,,,,marker_05s.jpg,1.0,clock_7_2.png,4.0,32,,,,,,,,,,,,,,,,,,0.0,19.0,19.0,19.0,1.0,,,,,,,,,,
0.0,1.0,0.835,,,,,,rug_09s.jpg,0.0,clock_7_3.png,4.0,32,,,,,,,,,,,,,,,,,,0.0,20.0,20.0,20.0,1.0,,,,,,,,,,
0.0,1.0,0.739,,,,,,abacus_12s.jpg,0.0,clock_7_4.png,4.0,32,,,,,,,,,,,,,,,,,,0.0,21.0,21.0,21.0,1.0,,,,,,,,,,
0.0,1.0,0.467,,,,,,toy_04s.jpg,0.0,clock_7_5.png,4.0,32,,,,,,,,,,,,,,,,,,0.0,22.0,22.0,22.0,1.0,,,,,,,,,,
0.0,1.0,0.529,,,,,,air_pump_05s.jpg,0.0,clock_7_6.png,4.0,32,,,,,,,,,,,,,,,,,,0.0,23.0,23.0,23.0,1.0,,,,,,,,,,
0.0,1.0,0.799,,,,,,rhubarb_03s.jpg,0.0,clock_7_7.png,4.0,32,,,,,,,,,,,,,,,,,,0.0,24.0,24.0,24.0,1.0,,,,,,,,,,
0.0,1.0,0.793,,,,,,boar_10s.jpg,0.0,clock_6_1.png,5.0,32,,,,,,,,,,,,,,,,,,0.0,25.0,25.0,25.0,1.0,,,,,,,,,,
0.0,1.0,1.006,,,,,,abacus_12s.jpg,0.0,clock_6_2.png,5.0,32,,,,,,,,,,,,,,,,,,0.0,26.0,26.0,26.0,1.0,,,,,,,,,,
0.0,1.0,0.936,,,,,,potpourri_03s.jpg,0.0,clock_6_3.png,5.0,32,,,,,,,,,,,,,,,,,,0.0,27.0,27.0,27.0,1.0,,,,,,,,,,
0.0,1.0,0.748,,,,,,typewriter_11s.jpg,0.0,clock_6_4.png,5.0,32,,,,,,,,,,,,,,,,,,0.0,28.0,28.0,28.0,1.0,,,,,,,,,,
0.0,1.0,0.795,,,,,,pea_11s.jpg,0.0,clock_6_5.png,5.0,32,,,,,,,,,,,,,,,,,,0.0,29.0,29.0,29.0,1.0,,,,,,,,,,
0.0,1.0,0.741,,,,,,polar_bear_02s.jpg,0.0,clock_6_6.png,5.0,32,,,,,,,,,,,,,,,,,,0.0,30.0,30.0,30.0,1.0,,,,,,,,,,
0.0,1.0,1.129,,,,,,laundry_basket_11s.jpg,0.0,clock_5_1.png,6.0,32,,,,,,,,,,,,,,,,,,0.0,31.0,31.0,31.0,1.0,,,,,,,,,,
0.0,1.0,1.276,,,,,,chopsticks_08s.jpg,0.0,clock_5_2.png,6.0,32,,,,,,,,,,,,,,,,,,0.0,32.0,32.0,32.0,1.0,,,,,,,,,,
1.0,1.0,0.93,,,,,,chopsticks_08s.jpg,1.0,clock_5_3.png,6.0,32,,,,,,,,,,,,,,,,,,0.0,33.0,33.0,33.0,1.0,,,,,,,,,,
0.0,1.0,1.06,,,,,,safety_pin_02s.jpg,0.0,clock_5_4.png,6.0,32,,,,,,,,,,,,,,,,,,0.0,34.0,34.0,34.0,1.0,,,,,,,,,,
0.0,1.0,0.783,,,,,,cobra_05s.jpg,0.0,clock_5_5.png,6.0,32,,,,,,,,,,,,,,,,,,0.0,35.0,35.0,35.0,1.0,,,,,,,,,,
,,,,,,,,,0.0,,,32,1.0,0.0,1.334,,,,,,boar_10s.jpg,toy_04s.jpg,,,,,,,,,,,,,0.0,0.0,0.0,0.0,1.0,,,,,
,,,,,,,,,0.0,,,32,1.0,0.0,2.29,,,,,,crayon_09s.jpg,pear_02s.jpg,,,,,,,,,,,,,0.0,1.0,1.0,1.0,1.0,,,,,
,,,,,,,,,1.0,,,32,0.0,0.0,1.36,,,,,,lasagna_06s.jpg,clover_04s.jpg,,,,,,,,,,,,,0.0,2.0,2.0,2.0,1.0,,,,,
,,,,,,,,,1.0,,,32,1.0,1.0,1.339,,,,,,puppet_01b.jpg,compass_10n.jpg,,,,,,,,,,,,,0.0,3.0,3.0,3.0,1.0,,,,,
,,,,,,,,,0.0,,,32,0.0,1.0,1.617,,,,,,fur_coat_11s.jpg,punch1_10s.jpg,,,,,,,,,,,,,0.0,4.0,4.0,4.0,1.0,,,,,
,,,,,,,,,1.0,,,32,1.0,1.0,1.268,,,,,,laundry_basket_11s.jpg,safety_pin_02s.jpg,,,,,,,,,,,,,0.0,5.0,5.0,5.0,1.0,,,,,
,,,,,,,,,,,,32,,,,,,,,,,,,,,,,clock_present_4_8.xlsx,clock_compare_task_4_8.xlsx,,,,,,,,,,,0.0,3.0,3.0,3.0,1.0
0.0,1.0,0.744,,,,,,projector_08s.jpg,0.0,clock_5_1.png,1.0,32,,,,,,,,,,,,,,,,,,0.0,0.0,0.0,0.0,1.0,,,,,,,,,,
0.0,1.0,0.535,,,,,,gingerbread_man_03s.jpg,0.0,clock_5_2.png,1.0,32,,,,,,,,,,,,,,,,,,0.0,1.0,1.0,1.0,1.0,,,,,,,,,,
1.0,1.0,0.678,,,,,,gingerbread_man_03s.jpg,1.0,clock_5_3.png,1.0,32,,,,,,,,,,,,,,,,,,0.0,2.0,2.0,2.0,1.0,,,,,,,,,,
1.0,1.0,0.872,,,,,,projector_08s.jpg,1.0,clock_5_4.png,1.0,32,,,,,,,,,,,,,,,,,,0.0,3.0,3.0,3.0,1.0,,,,,,,,,,
1.0,1.0,0.738,,,,,,projector_08s.jpg,1.0,clock_5_5.png,1.0,32,,,,,,,,,,,,,,,,,,0.0,4.0,4.0,4.0,1.0,,,,,,,,,,
0.0,1.0,0.805,,,,,,sunflower_17s.jpg,0.0,clock_5_1.png,2.0,32,,,,,,,,,,,,,,,,,,0.0,5.0,5.0,5.0,1.0,,,,,,,,,,
0.0,1.0,1.481,,,,,,gingerbread_man_03s.jpg,0.0,clock_5_2.png,2.0,32,,,,,,,,,,,,,,,,,,0.0,6.0,6.0,6.0,1.0,,,,,,,,,,
0.0,1.0,0.723,,,,,,puppy_08s.jpg,0.0,clock_5_3.png,2.0,32,,,,,,,,,,,,,,,,,,0.0,7.0,7.0,7.0,1.0,,,,,,,,,,
0.0,1.0,1.137,,,,,,quill_09s.jpg,0.0,clock_5_4.png,2.0,32,,,,,,,,,,,,,,,,,,0.0,8.0,8.0,8.0,1.0,,,,,,,,,,
0.0,1.0,1.559,,,,,,mascara_03s.jpg,0.0,clock_5_5.png,2.0,32,,,,,,,,,,,,,,,,,,0.0,9.0,9.0,9.0,1.0,,,,,,,,,,
0.0,1.0,1.673,,,,,,lifesaver_10s.jpg,0.0,clock_6_1.png,3.0,32,,,,,,,,,,,,,,,,,,0.0,10.0,10.0,10.0,1.0,,,,,,,,,,
,0.0,,,,,,,lollipop_08s.jpg,0.0,clock_6_2.png,3.0,32,,,,,,,,,,,,,,,,,,0.0,11.0,11.0,11.0,1.0,,,,,,,,,,
0.0,1.0,1.534,,,,,,stapler_01b.jpg,0.0,clock_6_3.png,3.0,32,,,,,,,,,,,,,,,,,,0.0,12.0,12.0,12.0,1.0,,,,,,,,,,
0.0,1.0,0.545,,,,,,panda_02s.jpg,0.0,clock_6_4.png,3.0,32,,,,,,,,,,,,,,,,,,0.0,13.0,13.0,13.0,1.0,,,,,,,,,,
0.0,1.0,0.494,,,,,,puddle_02s.jpg,0.0,clock_6_5.png,3.0,32,,,,,,,,,,,,,,,,,,0.0,14.0,14.0,14.0,1.0,,,,,,,,,,
0.0,0.0,0.933,,,,,,lifesaver_10s.jpg,1.0,clock_6_6.png,3.0,32,,,,,,,,,,,,,,,,,,0.0,15.0,15.0,15.0,1.0,,,,,,,,,,
0.0,1.0,1.131,,,,,,key_07s.jpg,0.0,clock_6_1.png,4.0,32,,,,,,,,,,,,,,,,,,0.0,16.0,16.0,16.0,1.0,,,,,,,,,,
0.0,1.0,1.001,,,,,,toilet_paper_12s.jpg,0.0,clock_6_2.png,4.0,32,,,,,,,,,,,,,,,,,,0.0,17.0,17.0,17.0,1.0,,,,,,,,,,
0.0,1.0,0.806,,,,,,doily_13s.jpg,0.0,clock_6_3.png,4.0,32,,,,,,,,,,,,,,,,,,0.0,18.0,18.0,18.0,1.0,,,,,,,,,,
0.0,1.0,0.796,,,,,,ginger_09s.jpg,0.0,clock_6_4.png,4.0,32,,,,,,,,,,,,,,,,,,0.0,19.0,19.0,19.0,1.0,,,,,,,,,,
0.0,1.0,0.672,,,,,,eggshell_14s.jpg,0.0,clock_6_5.png,4.0,32,,,,,,,,,,,,,,,,,,0.0,20.0,20.0,20.0,1.0,,,,,,,,,,
0.0,1.0,0.683,,,,,,refrigerator_07s.jpg,0.0,clock_6_6.png,4.0,32,,,,,,,,,,,,,,,,,,0.0,21.0,21.0,21.0,1.0,,,,,,,,,,
0.0,1.0,0.605,,,,,,oil_02s.jpg,0.0,clock_7_1.png,5.0,32,,,,,,,,,,,,,,,,,,0.0,22.0,22.0,22.0,1.0,,,,,,,,,,
1.0,1.0,0.868,,,,,,oil_02s.jpg,1.0,clock_7_2.png,5.0,32,,,,,,,,,,,,,,,,,,0.0,23.0,23.0,23.0,1.0,,,,,,,,,,
0.0,1.0,0.674,,,,,,fox_13s.jpg,0.0,clock_7_3.png,5.0,32,,,,,,,,,,,,,,,,,,0.0,24.0,24.0,24.0,1.0,,,,,,,,,,
0.0,1.0,0.536,,,,,,seahorse_13s.jpg,0.0,clock_7_4.png,5.0,32,,,,,,,,,,,,,,,,,,0.0,25.0,25.0,25.0,1.0,,,,,,,,,,
0.0,1.0,0.607,,,,,,triangle_10s.jpg,0.0,clock_7_5.png,5.0,32,,,,,,,,,,,,,,,,,,0.0,26.0,26.0,26.0,1.0,,,,,,,,,,
0.0,1.0,0.539,,,,,,popcorn_09s.jpg,0.0,clock_7_6.png,5.0,32,,,,,,,,,,,,,,,,,,0.0,27.0,27.0,27.0,1.0,,,,,,,,,,
1.0,1.0,1.66,,,,,,seahorse_13s.jpg,1.0,clock_7_7.png,5.0,32,,,,,,,,,,,,,,,,,,0.0,28.0,28.0,28.0,1.0,,,,,,,,,,
0.0,1.0,0.65,,,,,,leash_10s.jpg,0.0,clock_7_1.png,6.0,32,,,,,,,,,,,,,,,,,,0.0,29.0,29.0,29.0,1.0,,,,,,,,,,
0.0,0.0,0.54,,,,,,leash_10s.jpg,1.0,clock_7_2.png,6.0,32,,,,,,,,,,,,,,,,,,0.0,30.0,30.0,30.0,1.0,,,,,,,,,,
0.0,1.0,0.536,,,,,,mussel_11s.jpg,0.0,clock_7_3.png,6.0,32,,,,,,,,,,,,,,,,,,0.0,31.0,31.0,31.0,1.0,,,,,,,,,,
0.0,1.0,0.604,,,,,,tablet_04s.jpg,0.0,clock_7_4.png,6.0,32,,,,,,,,,,,,,,,,,,0.0,32.0,32.0,32.0,1.0,,,,,,,,,,
1.0,1.0,2.337,,,,,,leash_10s.jpg,1.0,clock_7_5.png,6.0,32,,,,,,,,,,,,,,,,,,0.0,33.0,33.0,33.0,1.0,,,,,,,,,,
1.0,1.0,1.205,,,,,,mussel_11s.jpg,1.0,clock_7_6.png,6.0,32,,,,,,,,,,,,,,,,,,0.0,34.0,34.0,34.0,1.0,,,,,,,,,,
1.0,1.0,0.532,,,,,,mussel_11s.jpg,1.0,clock_7_7.png,6.0,32,,,,,,,,,,,,,,,,,,0.0,35.0,35.0,35.0,1.0,,,,,,,,,,
,,,,,,,,,1.0,,,32,0.0,0.0,1.273,,,,,,mascara_03s.jpg,stapler_01b.jpg,,,,,,,,,,,,,0.0,0.0,0.0,0.0,1.0,,,,,
,,,,,,,,,1.0,,,32,1.0,1.0,1.061,,,,,,panda_02s.jpg,key_07s.jpg,,,,,,,,,,,,,0.0,1.0,1.0,1.0,1.0,,,,,
,,,,,,,,,1.0,,,32,1.0,1.0,1.409,,,,,,quill_09s.jpg,lollipop_08s.jpg,,,,,,,,,,,,,0.0,2.0,2.0,2.0,1.0,,,,,
,,,,,,,,,0.0,,,32,0.0,1.0,1.068,,,,,,eggshell_14s.jpg,toilet_paper_12s.jpg,,,,,,,,,,,,,0.0,3.0,3.0,3.0,1.0,,,,,
,,,,,,,,,0.0,,,32,1.0,0.0,1.485,,,,,,refrigerator_07s.jpg,doily_13s.jpg,,,,,,,,,,,,,0.0,4.0,4.0,4.0,1.0,,,,,
,,,,,,,,,1.0,,,32,1.0,1.0,1.063,,,,,,fox_13s.jpg,popcorn_09s.jpg,,,,,,,,,,,,,0.0,5.0,5.0,5.0,1.0,,,,,
,,,,,,,,,,,,32,,,,,,,,,,,,,,,,clock_present_5_8.xlsx,clock_compare_task_5_8.xlsx,,,,,,,,,,,0.0,4.0,4.0,4.0,1.0
0.0,1.0,1.412,,,,,,turf_03s.jpg,0.0,clock_5_1.png,1.0,32,,,,,,,,,,,,,,,,,,0.0,0.0,0.0,0.0,1.0,,,,,,,,,,
0.0,1.0,0.673,,,,,,spoon02a.jpg,0.0,clock_5_2.png,1.0,32,,,,,,,,,,,,,,,,,,0.0,1.0,1.0,1.0,1.0,,,,,,,,,,
0.0,1.0,0.402,,,,,,knitting_needle_04s.jpg,0.0,clock_5_3.png,1.0,32,,,,,,,,,,,,,,,,,,0.0,2.0,2.0,2.0,1.0,,,,,,,,,,
0.0,1.0,0.527,,,,,,syringe_02s.jpg,0.0,clock_5_4.png,1.0,32,,,,,,,,,,,,,,,,,,0.0,3.0,3.0,3.0,1.0,,,,,,,,,,
0.0,1.0,0.535,,,,,,ice_pack_09s.jpg,0.0,clock_5_5.png,1.0,32,,,,,,,,,,,,,,,,,,0.0,4.0,4.0,4.0,1.0,,,,,,,,,,
0.0,1.0,0.732,,,,,,blowfish_03s.jpg,0.0,clock_6_1.png,2.0,32,,,,,,,,,,,,,,,,,,0.0,5.0,5.0,5.0,1.0,,,,,,,,,,
0.0,0.0,0.529,,,,,,blowfish_03s.jpg,1.0,clock_6_2.png,2.0,32,,,,,,,,,,,,,,,,,,0.0,6.0,6.0,6.0,1.0,,,,,,,,,,
0.0,1.0,0.459,,,,,,tennis_ball_06s.jpg,0.0,clock_6_3.png,2.0,32,,,,,,,,,,,,,,,,,,0.0,7.0,7.0,7.0,1.0,,,,,,,,,,
0.0,1.0,0.621,,,,,,tripod_01b.jpg,0.0,clock_6_4.png,2.0,32,,,,,,,,,,,,,,,,,,0.0,8.0,8.0,8.0,1.0,,,,,,,,,,
0.0,1.0,0.466,,,,,,mannequin_05s.jpg,0.0,clock_6_5.png,2.0,32,,,,,,,,,,,,,,,,,,0.0,9.0,9.0,9.0,1.0,,,,,,,,,,
0.0,1.0,0.6,,,,,,margarita_03s.jpg,0.0,clock_6_6.png,2.0,32,,,,,,,,,,,,,,,,,,0.0,10.0,10.0,10.0,1.0,,,,,,,,,,
0.0,1.0,0.689,,,,,,light_switch_02s.jpg,0.0,clock_7_1.png,3.0,32,,,,,,,,,,,,,,,,,,0.0,11.0,11.0,11.0,1.0,,,,,,,,,,
0.0,1.0,0.672,,,,,,fire_alarm_05s.jpg,0.0,clock_7_2.png,3.0,32,,,,,,,,,,,,,,,,,,0.0,12.0,12.0,12.0,1.0,,,,,,,,,,
1.0,1.0,1.336,,,,,,fire_alarm_05s.jpg,1.0,clock_7_3.png,3.0,32,,,,,,,,,,,,,,,,,,0.0,13.0,13.0,13.0,1.0,,,,,,,,,,
1.0,1.0,1.289,,,,,,light_switch_02s.jpg,1.0,clock_7_4.png,3.0,32,,,,,,,,,,,,,,,,,,0.0,14.0,14.0,14.0,1.0,,,,,,,,,,
0.0,1.0,0.66,,,,,,iron_13s.jpg,0.0,clock_7_5.png,3.0,32,,,,,,,,,,,,,,,,,,0.0,15.0,15.0,15.0,1.0,,,,,,,,,,
0.0,1.0,0.734,,,,,,slingshot_07s.jpg,0.0,clock_7_6.png,3.0,32,,,,,,,,,,,,,,,,,,0.0,16.0,16.0,16.0,1.0,,,,,,,,,,
0.0,1.0,1.14,,,,,,plaster_cast_13s.jpg,0.0,clock_7_7.png,3.0,32,,,,,,,,,,,,,,,,,,0.0,17.0,17.0,17.0,1.0,,,,,,,,,,
0.0,1.0,0.801,,,,,,dynamite_01b.jpg,0.0,clock_6_1.png,4.0,32,,,,,,,,,,,,,,,,,,0.0,18.0,18.0,18.0,1.0,,,,,,,,,,
0.0,1.0,1.133,,,,,,radio_09s.jpg,0.0,clock_6_2.png,4.0,32,,,,,,,,,,,,,,,,,,0.0,19.0,19.0,19.0,1.0,,,,,,,,,,
1.0,0.0,0.801,,,,,,gong_02s.jpg,0.0,clock_6_3.png,4.0,32,,,,,,,,,,,,,,,,,,0.0,20.0,20.0,20.0,1.0,,,,,,,,,,
0.0,1.0,0.735,,,,,,phone_01b.jpg,0.0,clock_6_4.png,4.0,32,,,,,,,,,,,,,,,,,,0.0,21.0,21.0,21.0,1.0,,,,,,,,,,
0.0,1.0,0.774,,,,,,puck_06s.jpg,0.0,clock_6_5.png,4.0,32,,,,,,,,,,,,,,,,,,0.0,22.0,22.0,22.0,1.0,,,,,,,,,,
0.0,1.0,0.6,,,,,,fireworks_18s.jpg,0.0,clock_6_6.png,4.0,32,,,,,,,,,,,,,,,,,,0.0,23.0,23.0,23.0,1.0,,,,,,,,,,
0.0,1.0,0.598,,,,,,kayak_08s.jpg,0.0,clock_5_1.png,5.0,32,,,,,,,,,,,,,,,,,,0.0,24.0,24.0,24.0,1.0,,,,,,,,,,
0.0,1.0,0.666,,,,,,antenna_01b.jpg,0.0,clock_5_2.png,5.0,32,,,,,,,,,,,,,,,,,,0.0,25.0,25.0,25.0,1.0,,,,,,,,,,
0.0,1.0,0.804,,,,,,syringe_02s.jpg,0.0,clock_5_3.png,5.0,32,,,,,,,,,,,,,,,,,,0.0,26.0,26.0,26.0,1.0,,,,,,,,,,
1.0,1.0,1.731,,,,,,antenna_01b.jpg,1.0,clock_5_4.png,5.0,32,,,,,,,,,,,,,,,,,,0.0,27.0,27.0,27.0,1.0,,,,,,,,,,
0.0,1.0,0.935,,,,,,outlet_10s.jpg,0.0,clock_5_5.png,5.0,32,,,,,,,,,,,,,,,,,,0.0,28.0,28.0,28.0,1.0,,,,,,,,,,
0.0,1.0,0.805,,,,,,racehorse_03s.jpg,0.0,clock_7_1.png,6.0,32,,,,,,,,,,,,,,,,,,0.0,29.0,29.0,29.0,1.0,,,,,,,,,,
0.0,1.0,0.721,,,,,,lion_18s.jpg,0.0,clock_7_2.png,6.0,32,,,,,,,,,,,,,,,,,,0.0,30.0,30.0,30.0,1.0,,,,,,,,,,
0.0,1.0,0.598,,,,,,stingray_02s.jpg,0.0,clock_7_3.png,6.0,32,,,,,,,,,,,,,,,,,,0.0,31.0,31.0,31.0,1.0,,,,,,,,,,
1.0,1.0,0.933,,,,,,racehorse_03s.jpg,1.0,clock_7_4.png,6.0,32,,,,,,,,,,,,,,,,,,0.0,32.0,32.0,32.0,1.0,,,,,,,,,,
0.0,1.0,0.809,,,,,,swan_11s.jpg,0.0,clock_7_5.png,6.0,32,,,,,,,,,,,,,,,,,,0.0,33.0,33.0,33.0,1.0,,,,,,,,,,
0.0,1.0,0.797,,,,,,rabbit_03s.jpg,0.0,clock_7_6.png,6.0,32,,,,,,,,,,,,,,,,,,0.0,34.0,34.0,34.0,1.0,,,,,,,,,,
0.0,1.0,1.062,,,,,,pocket_watch_16s.jpg,0.0,clock_7_7.png,6.0,32,,,,,,,,,,,,,,,,,,0.0,35.0,35.0,35.0,1.0,,,,,,,,,,
,,,,,,,,,0.0,,,32,0.0,1.0,1.343,,,,,,dynamite_01b.jpg,iron_13s.jpg,,,,,,,,,,,,,0.0,0.0,0.0,0.0,1.0,,,,,
,,,,,,,,,0.0,,,32,1.0,0.0,1.196,,,,,,radio_09s.jpg,slingshot_07s.jpg,,,,,,,,,,,,,0.0,1.0,1.0,1.0,1.0,,,,,
,,,,,,,,,1.0,,,32,1.0,1.0,1.75,,,,,,plaster_cast_13s.jpg,gong_02s.jpg,,,,,,,,,,,,,0.0,2.0,2.0,2.0,1.0,,,,,
,,,,,,,,,0.0,,,32,1.0,0.0,1.333,,,,,,swan_11s.jpg,lion_18s.jpg,,,,,,,,,,,,,0.0,3.0,3.0,3.0,1.0,,,,,
,,,,,,,,,0.0,,,32,1.0,0.0,1.005,,,,,,ice_pack_09s.jpg,spoon02a.jpg,,,,,,,,,,,,,0.0,4.0,4.0,4.0,1.0,,,,,
,,,,,,,,,0.0,,,32,0.0,1.0,1.198,,,,,,margarita_03s.jpg,tennis_ball_06s.jpg,,,,,,,,,,,,,0.0,5.0,5.0,5.0,1.0,,,,,
