key_resp.keys,key_resp.corr,key_resp.rt,present_segment.thisRepN,present_segment.thisTrialN,present_segment.thisN,present_segment.thisIndex,present_segment.ran,pictures,answer,clock,segment,participant,key_resp_2.keys,key_resp_2.corr,key_resp_2.rt,compare_segment.thisRepN,compare_segment.thisTrialN,compare_segment.thisN,compare_segment.thisIndex,compare_segment.ran,item_a,item_b,clock_conditions.thisRepN,clock_conditions.thisTrialN,clock_conditions.thisN,clock_conditions.thisIndex,clock_conditions.ran,present,compare,noclock_present.thisRepN,noclock_present.thisTrialN,noclock_present.thisN,noclock_present.thisIndex,noclock_present.ran,noclock_compare.thisRepN,noclock_compare.thisTrialN,noclock_compare.thisN,noclock_compare.thisIndex,noclock_compare.ran,noclock_conditions.thisRepN,noclock_conditions.thisTrialN,noclock_conditions.thisN,noclock_conditions.thisIndex,noclock_conditions.ran
0.0,1.0,1.241,0.0,0.0,0.0,0.0,1.0,mixer_12s.jpg,0.0,clock_7_1.png,1.0,23,,,,,,,,,,,,,,,,,,,,,,,,,,,,,,,,
0.0,1.0,1.741,0.0,1.0,1.0,1.0,1.0,mushroom_10n.jpg,0.0,clock_7_2.png,1.0,23,,,,,,,,,,,,,,,,,,,,,,,,,,,,,,,,
0.0,1.0,1.163,0.0,2.0,2.0,2.0,1.0,ink_08s.jpg,0.0,clock_7_3.png,1.0,23,,,,,,,,,,,,,,,,,,,,,,,,,,,,,,,,
0.0,1.0,0.578,0.0,3.0,3.0,3.0,1.0,amber_04s.jpg,0.0,clock_7_4.png,1.0,23,,,,,,,,,,,,,,,,,,,,,,,,,,,,,,,,
0.0,1.0,0.668,0.0,4.0,4.0,4.0,1.0,glasses01a.jpg,0.0,clock_7_5.png,1.0,23,,,,,,,,,,,,,,,,,,,,,,,,,,,,,,,,
0.0,1.0,0.495,0.0,5.0,5.0,5.0,1.0,chip_04s.jpg,0.0,clock_7_6.png,1.0,23,,,,,,,,,,,,,,,,,,,,,,,,,,,,,,,,
0.0,1.0,0.509,0.0,6.0,6.0,6.0,1.0,kilt_18s.jpg,0.0,clock_7_7.png,1.0,23,,,,,,,,,,,,,,,,,,,,,,,,,,,,,,,,
0.0,1.0,0.608,0.0,7.0,7.0,7.0,1.0,film_03s.jpg,0.0,clock_6_1.png,2.0,23,,,,,,,,,,,,,,,,,,,,,,,,,,,,,,,,
0.0,1.0,0.617,0.0,8.0,8.0,8.0,1.0,footprint_11s.jpg,0.0,clock_6_2.png,2.0,23,,,,,,,,,,,,,,,,,,,,,,,,,,,,,,,,
0.0,1.0,0.746,0.0,9.0,9.0,9.0,1.0,teacup_07s.jpg,0.0,clock_6_3.png,2.0,23,,,,,,,,,,,,,,,,,,,,,,,,,,,,,,,,
0.0,1.0,0.501,0.0,10.0,10.0,10.0,1.0,razor_12s.jpg,0.0,clock_6_4.png,2.0,23,,,,,,,,,,,,,,,,,,,,,,,,,,,,,,,,
0.0,1.0,0.479,0.0,11.0,11.0,11.0,1.0,turkey_10s.jpg,0.0,clock_6_5.png,2.0,23,,,,,,,,,,,,,,,,,,,,,,,,,,,,,,,,
0.0,1.0,1.143,0.0,12.0,12.0,12.0,1.0,amber_04s.jpg,0.0,clock_6_6.png,2.0,23,,,,,,,,,,,,,,,,,,,,,,,,,,,,,,,,
0.0,1.0,0.461,0.0,13.0,13.0,13.0,1.0,lantern_04s.jpg,0.0,clock_7_1.png,3.0,23,,,,,,,,,,,,,,,,,,,,,,,,,,,,,,,,
0.0,1.0,1.163,0.0,14.0,14.0,14.0,1.0,film_03s.jpg,0.0,clock_7_2.png,3.0,23,,,,,,,,,,,,,,,,,,,,,,,,,,,,,,,,
0.0,1.0,0.528,0.0,15.0,15.0,15.0,1.0,kitten_07s.jpg,0.0,clock_7_3.png,3.0,23,,,,,,,,,,,,,,,,,,,,,,,,,,,,,,,,
0.0,1.0,0.587,0.0,16.0,16.0,16.0,1.0,mosquito_12s.jpg,0.0,clock_7_4.png,3.0,23,,,,,,,,,,,,,,,,,,,,,,,,,,,,,,,,
0.0,1.0,0.614,0.0,17.0,17.0,17.0,1.0,memory_stick_11s.jpg,0.0,clock_7_5.png,3.0,23,,,,,,,,,,,,,,,,,,,,,,,,,,,,,,,,
0.0,1.0,0.704,0.0,18.0,18.0,18.0,1.0,lipstick_02s.jpg,0.0,clock_7_6.png,3.0,23,,,,,,,,,,,,,,,,,,,,,,,,,,,,,,,,
1.0,1.0,0.78,0.0,19.0,19.0,19.0,1.0,kitten_07s.jpg,1.0,clock_7_7.png,3.0,23,,,,,,,,,,,,,,,,,,,,,,,,,,,,,,,,
0.0,1.0,1.804,0.0,20.0,20.0,20.0,1.0,mattress_01s.jpg,0.0,clock_5_1.png,4.0,23,,,,,,,,,,,,,,,,,,,,,,,,,,,,,,,,
0.0,1.0,0.644,0.0,21.0,21.0,21.0,1.0,fondue_07s.jpg,0.0,clock_5_2.png,4.0,23,,,,,,,,,,,,,,,,,,,,,,,,,,,,,,,,
0.0,1.0,0.635,0.0,22.0,22.0,22.0,1.0,espresso_01b.jpg,0.0,clock_5_3.png,4.0,23,,,,,,,,,,,,,,,,,,,,,,,,,,,,,,,,
0.0,1.0,0.696,0.0,23.0,23.0,23.0,1.0,tiara_05s.jpg,0.0,clock_5_4.png,4.0,23,,,,,,,,,,,,,,,,,,,,,,,,,,,,,,,,
1.0,1.0,0.903,0.0,24.0,24.0,24.0,1.0,espresso_01b.jpg,1.0,clock_5_5.png,4.0,23,,,,,,,,,,,,,,,,,,,,,,,,,,,,,,,,
0.0,1.0,1.416,0.0,25.0,25.0,25.0,1.0,flask_04s.jpg,0.0,clock_6_1.png,5.0,23,,,,,,,,,,,,,,,,,,,,,,,,,,,,,,,,
0.0,1.0,0.743,0.0,26.0,26.0,26.0,1.0,duck_01b.jpg,0.0,clock_6_2.png,5.0,23,,,,,,,,,,,,,,,,,,,,,,,,,,,,,,,,
0.0,1.0,0.911,0.0,27.0,27.0,27.0,1.0,ukulele_02s.jpg,0.0,clock_6_3.png,5.0,23,,,,,,,,,,,,,,,,,,,,,,,,,,,,,,,,
0.0,1.0,0.98,0.0,28.0,28.0,28.0,1.0,polaroid_05s.jpg,0.0,clock_6_4.png,5.0,23,,,,,,,,,,,,,,,,,,,,,,,,,,,,,,,,
0.0,1.0,0.511,0.0,29.0,29.0,29.0,1.0,kite_04s.jpg,0.0,clock_6_5.png,5.0,23,,,,,,,,,,,,,,,,,,,,,,,,,,,,,,,,
1.0,1.0,0.729,0.0,30.0,30.0,30.0,1.0,kite_04s.jpg,1.0,clock_6_6.png,5.0,23,,,,,,,,,,,,,,,,,,,,,,,,,,,,,,,,
0.0,1.0,0.466,0.0,31.0,31.0,31.0,1.0,denture_03s.jpg,0.0,clock_5_1.png,6.0,23,,,,,,,,,,,,,,,,,,,,,,,,,,,,,,,,
0.0,1.0,0.676,0.0,32.0,32.0,32.0,1.0,frog_09s.jpg,0.0,clock_5_2.png,6.0,23,,,,,,,,,,,,,,,,,,,,,,,,,,,,,,,,
0.0,1.0,0.671,0.0,33.0,33.0,33.0,1.0,diving_board_07s.jpg,0.0,clock_5_3.png,6.0,23,,,,,,,,,,,,,,,,,,,,,,,,,,,,,,,,
1.0,1.0,0.879,0.0,34.0,34.0,34.0,1.0,denture_03s.jpg,1.0,clock_5_4.png,6.0,23,,,,,,,,,,,,,,,,,,,,,,,,,,,,,,,,
0.0,1.0,0.931,0.0,35.0,35.0,35.0,1.0,telephone_pole_05s.jpg,0.0,clock_5_5.png,6.0,23,,,,,,,,,,,,,,,,,,,,,,,,,,,,,,,,
,,,,,,,,,1.0,,,23,1.0,1.0,3.197,0.0,0.0,0.0,0.0,1.0,kilt_18s.jpg,teacup_07s.jpg,,,,,,,,,,,,,,,,,,,,,,
,,,,,,,,,1.0,,,23,0.0,0.0,1.423,0.0,1.0,1.0,1.0,1.0,lipstick_02s.jpg,fondue_07s.jpg,,,,,,,,,,,,,,,,,,,,,,
,,,,,,,,,0.0,,,23,0.0,1.0,3.301,0.0,2.0,2.0,2.0,1.0,lantern_04s.jpg,razor_12s.jpg,,,,,,,,,,,,,,,,,,,,,,
,,,,,,,,,0.0,,,23,0.0,1.0,1.74,0.0,3.0,3.0,3.0,1.0,glasses01a.jpg,mushroom_10n.jpg,,,,,,,,,,,,,,,,,,,,,,
,,,,,,,,,0.0,,,23,1.0,0.0,1.697,0.0,4.0,4.0,4.0,1.0,polaroid_05s.jpg,flask_04s.jpg,,,,,,,,,,,,,,,,,,,,,,
,,,,,,,,,1.0,,,23,1.0,1.0,1.712,0.0,5.0,5.0,5.0,1.0,frog_09s.jpg,telephone_pole_05s.jpg,,,,,,,,,,,,,,,,,,,,,,
,,,,,,,,,,,,23,,,,,,,,,,,0.0,0.0,0.0,0.0,1.0,clock_present_1_8.xlsx,clock_compare_task_1_8.xlsx,,,,,,,,,,,,,,,
0.0,1.0,1.037,0.0,0.0,0.0,0.0,1.0,spatula04.jpg,0.0,clock_5_1.png,1.0,23,,,,,,,,,,,,,,,,,,,,,,,,,,,,,,,,
0.0,1.0,0.402,0.0,1.0,1.0,1.0,1.0,cardinal_07s.jpg,0.0,clock_5_2.png,1.0,23,,,,,,,,,,,,,,,,,,,,,,,,,,,,,,,,
1.0,1.0,0.756,0.0,2.0,2.0,2.0,1.0,spatula04.jpg,1.0,clock_5_3.png,1.0,23,,,,,,,,,,,,,,,,,,,,,,,,,,,,,,,,
0.0,1.0,0.627,0.0,3.0,3.0,3.0,1.0,fossil_06s.jpg,0.0,clock_5_4.png,1.0,23,,,,,,,,,,,,,,,,,,,,,,,,,,,,,,,,
0.0,1.0,0.628,0.0,4.0,4.0,4.0,1.0,lavender_10s.jpg,0.0,clock_5_5.png,1.0,23,,,,,,,,,,,,,,,,,,,,,,,,,,,,,,,,
0.0,1.0,0.53,0.0,5.0,5.0,5.0,1.0,dashboard_02s.jpg,0.0,clock_7_1.png,2.0,23,,,,,,,,,,,,,,,,,,,,,,,,,,,,,,,,
1.0,1.0,0.645,0.0,6.0,6.0,6.0,1.0,dashboard_02s.jpg,1.0,clock_7_2.png,2.0,23,,,,,,,,,,,,,,,,,,,,,,,,,,,,,,,,
0.0,1.0,0.533,0.0,7.0,7.0,7.0,1.0,rudder_02s.jpg,0.0,clock_7_3.png,2.0,23,,,,,,,,,,,,,,,,,,,,,,,,,,,,,,,,
0.0,1.0,0.579,0.0,8.0,8.0,8.0,1.0,loveseat_08s.jpg,0.0,clock_7_4.png,2.0,23,,,,,,,,,,,,,,,,,,,,,,,,,,,,,,,,
0.0,1.0,0.545,0.0,9.0,9.0,9.0,1.0,hydrant_10s.jpg,0.0,clock_7_5.png,2.0,23,,,,,,,,,,,,,,,,,,,,,,,,,,,,,,,,
0.0,1.0,0.535,0.0,10.0,10.0,10.0,1.0,seagull_01b.jpg,0.0,clock_7_6.png,2.0,23,,,,,,,,,,,,,,,,,,,,,,,,,,,,,,,,
1.0,0.0,0.887,0.0,11.0,11.0,11.0,1.0,cardinal_07s.jpg,0.0,clock_7_7.png,2.0,23,,,,,,,,,,,,,,,,,,,,,,,,,,,,,,,,
0.0,1.0,0.821,0.0,12.0,12.0,12.0,1.0,bottle_opener_11s.jpg,0.0,clock_5_1.png,3.0,23,,,,,,,,,,,,,,,,,,,,,,,,,,,,,,,,
0.0,1.0,0.713,0.0,13.0,13.0,13.0,1.0,mirror_12s.jpg,0.0,clock_5_2.png,3.0,23,,,,,,,,,,,,,,,,,,,,,,,,,,,,,,,,
0.0,1.0,0.628,0.0,14.0,14.0,14.0,1.0,candy_cane_06s.jpg,0.0,clock_5_3.png,3.0,23,,,,,,,,,,,,,,,,,,,,,,,,,,,,,,,,
0.0,1.0,0.913,0.0,15.0,15.0,15.0,1.0,aluminum_foil_08s.jpg,0.0,clock_5_4.png,3.0,23,,,,,,,,,,,,,,,,,,,,,,,,,,,,,,,,
0.0,1.0,0.748,0.0,16.0,16.0,16.0,1.0,latte_06s.jpg,0.0,clock_5_5.png,3.0,23,,,,,,,,,,,,,,,,,,,,,,,,,,,,,,,,
0.0,1.0,0.589,0.0,17.0,17.0,17.0,1.0,sledgehammer_03s.jpg,0.0,clock_6_1.png,4.0,23,,,,,,,,,,,,,,,,,,,,,,,,,,,,,,,,
1.0,1.0,0.569,0.0,18.0,18.0,18.0,1.0,sledgehammer_03s.jpg,1.0,clock_6_2.png,4.0,23,,,,,,,,,,,,,,,,,,,,,,,,,,,,,,,,
0.0,1.0,0.528,0.0,19.0,19.0,19.0,1.0,rosary_03s.jpg,0.0,clock_6_3.png,4.0,23,,,,,,,,,,,,,,,,,,,,,,,,,,,,,,,,
0.0,1.0,0.593,0.0,20.0,20.0,20.0,1.0,crossbow_10s.jpg,0.0,clock_6_4.png,4.0,23,,,,,,,,,,,,,,,,,,,,,,,,,,,,,,,,
1.0,1.0,0.897,0.0,21.0,21.0,21.0,1.0,rosary_03s.jpg,1.0,clock_6_5.png,4.0,23,,,,,,,,,,,,,,,,,,,,,,,,,,,,,,,,
1.0,1.0,0.587,0.0,22.0,22.0,22.0,1.0,sledgehammer_03s.jpg,1.0,clock_6_6.png,4.0,23,,,,,,,,,,,,,,,,,,,,,,,,,,,,,,,,
0.0,1.0,0.636,0.0,23.0,23.0,23.0,1.0,ticktacktoe_08s.jpg,0.0,clock_7_1.png,5.0,23,,,,,,,,,,,,,,,,,,,,,,,,,,,,,,,,
0.0,1.0,0.597,0.0,24.0,24.0,24.0,1.0,swimming_pool_17s.jpg,0.0,clock_7_2.png,5.0,23,,,,,,,,,,,,,,,,,,,,,,,,,,,,,,,,
1.0,1.0,0.905,0.0,25.0,25.0,25.0,1.0,swimming_pool_17s.jpg,1.0,clock_7_3.png,5.0,23,,,,,,,,,,,,,,,,,,,,,,,,,,,,,,,,
0.0,1.0,0.731,0.0,26.0,26.0,26.0,1.0,bagel_15s.jpg,0.0,clock_7_4.png,5.0,23,,,,,,,,,,,,,,,,,,,,,,,,,,,,,,,,
0.0,1.0,1.22,0.0,27.0,27.0,27.0,1.0,rosary_03s.jpg,0.0,clock_7_5.png,5.0,23,,,,,,,,,,,,,,,,,,,,,,,,,,,,,,,,
0.0,1.0,0.898,0.0,28.0,28.0,28.0,1.0,lavender_10s.jpg,0.0,clock_7_6.png,5.0,23,,,,,,,,,,,,,,,,,,,,,,,,,,,,,,,,
1.0,0.0,0.937,0.0,29.0,29.0,29.0,1.0,bean_06s.jpg,0.0,clock_7_7.png,5.0,23,,,,,,,,,,,,,,,,,,,,,,,,,,,,,,,,
0.0,1.0,0.863,0.0,30.0,30.0,30.0,1.0,radiator_05s.jpg,0.0,clock_6_1.png,6.0,23,,,,,,,,,,,,,,,,,,,,,,,,,,,,,,,,
0.0,1.0,0.629,0.0,31.0,31.0,31.0,1.0,ladle_04s.jpg,0.0,clock_6_2.png,6.0,23,,,,,,,,,,,,,,,,,,,,,,,,,,,,,,,,
0.0,1.0,0.496,0.0,32.0,32.0,32.0,1.0,beaker_01b.jpg,0.0,clock_6_3.png,6.0,23,,,,,,,,,,,,,,,,,,,,,,,,,,,,,,,,
0.0,1.0,0.448,0.0,33.0,33.0,33.0,1.0,sundae_08s.jpg,0.0,clock_6_4.png,6.0,23,,,,,,,,,,,,,,,,,,,,,,,,,,,,,,,,
0.0,1.0,0.543,0.0,34.0,34.0,34.0,1.0,frame_06s.jpg,0.0,clock_6_5.png,6.0,23,,,,,,,,,,,,,,,,,,,,,,,,,,,,,,,,
0.0,1.0,0.438,0.0,35.0,35.0,35.0,1.0,coat_rack_01b.jpg,0.0,clock_6_6.png,6.0,23,,,,,,,,,,,,,,,,,,,,,,,,,,,,,,,,
,,,,,,,,,1.0,,,23,1.0,1.0,2.851,0.0,0.0,0.0,0.0,1.0,hydrant_10s.jpg,bottle_opener_11s.jpg,,,,,,,,,,,,,,,,,,,,,,
,,,,,,,,,0.0,,,23,0.0,1.0,3.469,0.0,1.0,1.0,1.0,1.0,ticktacktoe_08s.jpg,crossbow_10s.jpg,,,,,,,,,,,,,,,,,,,,,,
,,,,,,,,,1.0,,,23,0.0,0.0,2.691,0.0,2.0,2.0,2.0,1.0,seagull_01b.jpg,mirror_12s.jpg,,,,,,,,,,,,,,,,,,,,,,
,,,,,,,,,0.0,,,23,0.0,1.0,2.139,0.0,3.0,3.0,3.0,1.0,sundae_08s.jpg,radiator_05s.jpg,,,,,,,,,,,,,,,,,,,,,,
,,,,,,,,,0.0,,,23,0.0,1.0,1.889,0.0,4.0,4.0,4.0,1.0,frame_06s.jpg,ladle_04s.jpg,,,,,,,,,,,,,,,,,,,,,,
,,,,,,,,,0.0,,,23,1.0,0.0,1.558,0.0,5.0,5.0,5.0,1.0,bean_06s.jpg,bagel_15s.jpg,,,,,,,,,,,,,,,,,,,,,,
,,,,,,,,,,,,23,,,,,,,,,,,0.0,1.0,1.0,1.0,1.0,clock_present_2_8.xlsx,clock_compare_task_2_8.xlsx,,,,,,,,,,,,,,,
0.0,1.0,1.318,0.0,0.0,0.0,0.0,1.0,blender_08s.jpg,0.0,clock_7_1.png,1.0,23,,,,,,,,,,,,,,,,,,,,,,,,,,,,,,,,
0.0,1.0,1.02,0.0,1.0,1.0,1.0,1.0,knot_01b.jpg,0.0,clock_7_2.png,1.0,23,,,,,,,,,,,,,,,,,,,,,,,,,,,,,,,,
1.0,1.0,1.088,0.0,2.0,2.0,2.0,1.0,blender_08s.jpg,1.0,clock_7_3.png,1.0,23,,,,,,,,,,,,,,,,,,,,,,,,,,,,,,,,
1.0,1.0,0.483,0.0,3.0,3.0,3.0,1.0,blender_08s.jpg,1.0,clock_7_4.png,1.0,23,,,,,,,,,,,,,,,,,,,,,,,,,,,,,,,,
0.0,1.0,0.629,0.0,4.0,4.0,4.0,1.0,joystick_01b.jpg,0.0,clock_7_5.png,1.0,23,,,,,,,,,,,,,,,,,,,,,,,,,,,,,,,,
0.0,1.0,0.552,0.0,5.0,5.0,5.0,1.0,tuxedo_01b.jpg,0.0,clock_7_6.png,1.0,23,,,,,,,,,,,,,,,,,,,,,,,,,,,,,,,,
0.0,1.0,0.62,0.0,6.0,6.0,6.0,1.0,lid_10s.jpg,0.0,clock_7_7.png,1.0,23,,,,,,,,,,,,,,,,,,,,,,,,,,,,,,,,
0.0,1.0,0.813,0.0,7.0,7.0,7.0,1.0,bubble_01b.jpg,0.0,clock_5_1.png,2.0,23,,,,,,,,,,,,,,,,,,,,,,,,,,,,,,,,
0.0,1.0,0.871,0.0,8.0,8.0,8.0,1.0,stopwatch_04s.jpg,0.0,clock_5_2.png,2.0,23,,,,,,,,,,,,,,,,,,,,,,,,,,,,,,,,
0.0,1.0,0.765,0.0,9.0,9.0,9.0,1.0,mud_13s.jpg,0.0,clock_5_3.png,2.0,23,,,,,,,,,,,,,,,,,,,,,,,,,,,,,,,,
0.0,1.0,0.63,0.0,10.0,10.0,10.0,1.0,joystick_01b.jpg,0.0,clock_5_4.png,2.0,23,,,,,,,,,,,,,,,,,,,,,,,,,,,,,,,,
0.0,1.0,0.629,0.0,11.0,11.0,11.0,1.0,printer_09s.jpg,0.0,clock_5_5.png,2.0,23,,,,,,,,,,,,,,,,,,,,,,,,,,,,,,,,
0.0,1.0,0.604,0.0,12.0,12.0,12.0,1.0,totem_pole_05s.jpg,0.0,clock_7_1.png,3.0,23,,,,,,,,,,,,,,,,,,,,,,,,,,,,,,,,
0.0,1.0,0.486,0.0,13.0,13.0,13.0,1.0,eiffeltower.jpg,0.0,clock_7_2.png,3.0,23,,,,,,,,,,,,,,,,,,,,,,,,,,,,,,,,
0.0,1.0,0.488,0.0,14.0,14.0,14.0,1.0,bathtub_23s.jpg,0.0,clock_7_3.png,3.0,23,,,,,,,,,,,,,,,,,,,,,,,,,,,,,,,,
1.0,1.0,1.05,0.0,15.0,15.0,15.0,1.0,eiffeltower.jpg,1.0,clock_7_4.png,3.0,23,,,,,,,,,,,,,,,,,,,,,,,,,,,,,,,,
1.0,1.0,0.772,0.0,16.0,16.0,16.0,1.0,totem_pole_05s.jpg,1.0,clock_7_5.png,3.0,23,,,,,,,,,,,,,,,,,,,,,,,,,,,,,,,,
0.0,1.0,0.791,0.0,17.0,17.0,17.0,1.0,jetski_10s.jpg,0.0,clock_7_6.png,3.0,23,,,,,,,,,,,,,,,,,,,,,,,,,,,,,,,,
0.0,1.0,0.454,0.0,18.0,18.0,18.0,1.0,pillbox_04s.jpg,0.0,clock_7_7.png,3.0,23,,,,,,,,,,,,,,,,,,,,,,,,,,,,,,,,
0.0,1.0,0.497,0.0,19.0,19.0,19.0,1.0,coconut_08s.jpg,0.0,clock_6_1.png,4.0,23,,,,,,,,,,,,,,,,,,,,,,,,,,,,,,,,
0.0,1.0,0.95,0.0,20.0,20.0,20.0,1.0,lid_10s.jpg,0.0,clock_6_2.png,4.0,23,,,,,,,,,,,,,,,,,,,,,,,,,,,,,,,,
0.0,1.0,0.681,0.0,21.0,21.0,21.0,1.0,inhaler_01b.jpg,0.0,clock_6_3.png,4.0,23,,,,,,,,,,,,,,,,,,,,,,,,,,,,,,,,
0.0,1.0,0.515,0.0,22.0,22.0,22.0,1.0,printer_09s.jpg,0.0,clock_6_4.png,4.0,23,,,,,,,,,,,,,,,,,,,,,,,,,,,,,,,,
0.0,1.0,0.87,0.0,23.0,23.0,23.0,1.0,trampoline_13s.jpg,0.0,clock_6_5.png,4.0,23,,,,,,,,,,,,,,,,,,,,,,,,,,,,,,,,
0.0,1.0,0.647,0.0,24.0,24.0,24.0,1.0,crab_16s.jpg,0.0,clock_6_6.png,4.0,23,,,,,,,,,,,,,,,,,,,,,,,,,,,,,,,,
0.0,1.0,0.613,0.0,25.0,25.0,25.0,1.0,thread_08s.jpg,0.0,clock_5_1.png,5.0,23,,,,,,,,,,,,,,,,,,,,,,,,,,,,,,,,
0.0,1.0,1.081,0.0,26.0,26.0,26.0,1.0,trampoline_13s.jpg,0.0,clock_5_2.png,5.0,23,,,,,,,,,,,,,,,,,,,,,,,,,,,,,,,,
0.0,1.0,0.996,0.0,27.0,27.0,27.0,1.0,jetski_10s.jpg,0.0,clock_5_3.png,5.0,23,,,,,,,,,,,,,,,,,,,,,,,,,,,,,,,,
0.0,1.0,0.656,0.0,28.0,28.0,28.0,1.0,turnstile_08s.jpg,0.0,clock_5_4.png,5.0,23,,,,,,,,,,,,,,,,,,,,,,,,,,,,,,,,
0.0,1.0,0.933,0.0,29.0,29.0,29.0,1.0,bonsai_07s.jpg,0.0,clock_5_5.png,5.0,23,,,,,,,,,,,,,,,,,,,,,,,,,,,,,,,,
0.0,1.0,0.513,0.0,30.0,30.0,30.0,1.0,surfboard_11s.jpg,0.0,clock_6_1.png,6.0,23,,,,,,,,,,,,,,,,,,,,,,,,,,,,,,,,
0.0,1.0,0.587,0.0,31.0,31.0,31.0,1.0,touchpad_11s.jpg,0.0,clock_6_2.png,6.0,23,,,,,,,,,,,,,,,,,,,,,,,,,,,,,,,,
0.0,1.0,0.579,0.0,32.0,32.0,32.0,1.0,tab_09s.jpg,0.0,clock_6_3.png,6.0,23,,,,,,,,,,,,,,,,,,,,,,,,,,,,,,,,
0.0,1.0,0.566,0.0,33.0,33.0,33.0,1.0,tambourine_06s.jpg,0.0,clock_6_4.png,6.0,23,,,,,,,,,,,,,,,,,,,,,,,,,,,,,,,,
0.0,1.0,0.646,0.0,34.0,34.0,34.0,1.0,tube_top_03s.jpg,0.0,clock_6_5.png,6.0,23,,,,,,,,,,,,,,,,,,,,,,,,,,,,,,,,
0.0,1.0,0.633,0.0,35.0,35.0,35.0,1.0,mud_13s.jpg,0.0,clock_6_6.png,6.0,23,,,,,,,,,,,,,,,,,,,,,,,,,,,,,,,,
,,,,,,,,,1.0,,,23,0.0,0.0,1.949,0.0,0.0,0.0,0.0,1.0,tuxedo_01b.jpg,stopwatch_04s.jpg,,,,,,,,,,,,,,,,,,,,,,
,,,,,,,,,0.0,,,23,1.0,0.0,1.44,0.0,1.0,1.0,1.0,1.0,tab_09s.jpg,bonsai_07s.jpg,,,,,,,,,,,,,,,,,,,,,,
,,,,,,,,,0.0,,,23,1.0,0.0,1.549,0.0,2.0,2.0,2.0,1.0,inhaler_01b.jpg,pillbox_04s.jpg,,,,,,,,,,,,,,,,,,,,,,
,,,,,,,,,1.0,,,23,0.0,0.0,1.188,0.0,3.0,3.0,3.0,1.0,surfboard_11s.jpg,tambourine_06s.jpg,,,,,,,,,,,,,,,,,,,,,,
,,,,,,,,,0.0,,,23,1.0,0.0,2.174,0.0,4.0,4.0,4.0,1.0,turnstile_08s.jpg,thread_08s.jpg,,,,,,,,,,,,,,,,,,,,,,
,,,,,,,,,0.0,,,23,0.0,1.0,1.164,0.0,5.0,5.0,5.0,1.0,tube_top_03s.jpg,touchpad_11s.jpg,,,,,,,,,,,,,,,,,,,,,,
,,,,,,,,,,,,23,,,,,,,,,,,0.0,2.0,2.0,2.0,1.0,clock_present_3_8.xlsx,clock_compare_task_3_8.xlsx,,,,,,,,,,,,,,,
0.0,1.0,0.946,0.0,0.0,0.0,0.0,1.0,rug_09s.jpg,0.0,clock_5_1.png,1.0,23,,,,,,,,,,,,,,,,,,,,,,,,,,,,,,,,
1.0,1.0,0.832,0.0,1.0,1.0,1.0,1.0,rug_09s.jpg,1.0,clock_5_2.png,1.0,23,,,,,,,,,,,,,,,,,,,,,,,,,,,,,,,,
0.0,1.0,1.716,0.0,2.0,2.0,2.0,1.0,pear_02s.jpg,0.0,clock_5_3.png,1.0,23,,,,,,,,,,,,,,,,,,,,,,,,,,,,,,,,
1.0,1.0,0.746,0.0,3.0,3.0,3.0,1.0,rug_09s.jpg,1.0,clock_5_4.png,1.0,23,,,,,,,,,,,,,,,,,,,,,,,,,,,,,,,,
0.0,1.0,0.655,0.0,4.0,4.0,4.0,1.0,lasagna_06s.jpg,0.0,clock_5_5.png,1.0,23,,,,,,,,,,,,,,,,,,,,,,,,,,,,,,,,
0.0,1.0,0.834,0.0,5.0,5.0,5.0,1.0,crayon_09s.jpg,0.0,clock_6_1.png,2.0,23,,,,,,,,,,,,,,,,,,,,,,,,,,,,,,,,
0.0,1.0,0.629,0.0,6.0,6.0,6.0,1.0,puppet_01b.jpg,0.0,clock_6_2.png,2.0,23,,,,,,,,,,,,,,,,,,,,,,,,,,,,,,,,
0.0,1.0,0.514,0.0,7.0,7.0,7.0,1.0,clover_04s.jpg,0.0,clock_6_3.png,2.0,23,,,,,,,,,,,,,,,,,,,,,,,,,,,,,,,,
0.0,1.0,0.604,0.0,8.0,8.0,8.0,1.0,eyedropper_12s.jpg,0.0,clock_6_4.png,2.0,23,,,,,,,,,,,,,,,,,,,,,,,,,,,,,,,,
0.0,1.0,0.396,0.0,9.0,9.0,9.0,1.0,compass_10n.jpg,0.0,clock_6_5.png,2.0,23,,,,,,,,,,,,,,,,,,,,,,,,,,,,,,,,
0.0,1.0,0.47,0.0,10.0,10.0,10.0,1.0,beard_16s.jpg,0.0,clock_6_6.png,2.0,23,,,,,,,,,,,,,,,,,,,,,,,,,,,,,,,,
0.0,1.0,0.282,0.0,11.0,11.0,11.0,1.0,paintbrush_04s.jpg,0.0,clock_7_1.png,3.0,23,,,,,,,,,,,,,,,,,,,,,,,,,,,,,,,,
,0.0,,0.0,12.0,12.0,12.0,1.0,typewriter_11s.jpg,0.0,clock_7_2.png,3.0,23,,,,,,,,,,,,,,,,,,,,,,,,,,,,,,,,
0.0,1.0,0.461,0.0,13.0,13.0,13.0,1.0,peach_04s.jpg,0.0,clock_7_3.png,3.0,23,,,,,,,,,,,,,,,,,,,,,,,,,,,,,,,,
0.0,1.0,0.479,0.0,14.0,14.0,14.0,1.0,punch1_10s.jpg,0.0,clock_7_4.png,3.0,23,,,,,,,,,,,,,,,,,,,,,,,,,,,,,,,,
0.0,1.0,0.439,0.0,15.0,15.0,15.0,1.0,glue_01s.jpg,0.0,clock_7_5.png,3.0,23,,,,,,,,,,,,,,,,,,,,,,,,,,,,,,,,
0.0,1.0,0.53,0.0,16.0,16.0,16.0,1.0,magnet_03s.jpg,0.0,clock_7_6.png,3.0,23,,,,,,,,,,,,,,,,,,,,,,,,,,,,,,,,
0.0,1.0,0.448,0.0,17.0,17.0,17.0,1.0,fur_coat_11s.jpg,0.0,clock_7_7.png,3.0,23,,,,,,,,,,,,,,,,,,,,,,,,,,,,,,,,
0.0,1.0,0.491,0.0,18.0,18.0,18.0,1.0,marker_05s.jpg,0.0,clock_7_1.png,4.0,23,,,,,,,,,,,,,,,,,,,,,,,,,,,,,,,,
1.0,1.0,0.784,0.0,19.0,19.0,19.0,1.0,marker_05s.jpg,1.0,clock_7_2.png,4.0,23,,,,,,,,,,,,,,,,,,,,,,,,,,,,,,,,
0.0,1.0,0.766,0.0,20.0,20.0,20.0,1.0,rug_09s.jpg,0.0,clock_7_3.png,4.0,23,,,,,,,,,,,,,,,,,,,,,,,,,,,,,,,,
0.0,1.0,0.761,0.0,21.0,21.0,21.0,1.0,abacus_12s.jpg,0.0,clock_7_4.png,4.0,23,,,,,,,,,,,,,,,,,,,,,,,,,,,,,,,,
0.0,1.0,0.565,0.0,22.0,22.0,22.0,1.0,toy_04s.jpg,0.0,clock_7_5.png,4.0,23,,,,,,,,,,,,,,,,,,,,,,,,,,,,,,,,
0.0,1.0,0.521,0.0,23.0,23.0,23.0,1.0,air_pump_05s.jpg,0.0,clock_7_6.png,4.0,23,,,,,,,,,,,,,,,,,,,,,,,,,,,,,,,,
0.0,1.0,0.598,0.0,24.0,24.0,24.0,1.0,rhubarb_03s.jpg,0.0,clock_7_7.png,4.0,23,,,,,,,,,,,,,,,,,,,,,,,,,,,,,,,,
0.0,1.0,0.729,0.0,25.0,25.0,25.0,1.0,boar_10s.jpg,0.0,clock_6_1.png,5.0,23,,,,,,,,,,,,,,,,,,,,,,,,,,,,,,,,
0.0,1.0,0.696,0.0,26.0,26.0,26.0,1.0,abacus_12s.jpg,0.0,clock_6_2.png,5.0,23,,,,,,,,,,,,,,,,,,,,,,,,,,,,,,,,
0.0,1.0,0.614,0.0,27.0,27.0,27.0,1.0,potpourri_03s.jpg,0.0,clock_6_3.png,5.0,23,,,,,,,,,,,,,,,,,,,,,,,,,,,,,,,,
0.0,1.0,0.764,0.0,28.0,28.0,28.0,1.0,typewriter_11s.jpg,0.0,clock_6_4.png,5.0,23,,,,,,,,,,,,,,,,,,,,,,,,,,,,,,,,
0.0,1.0,1.199,0.0,29.0,29.0,29.0,1.0,pea_11s.jpg,0.0,clock_6_5.png,5.0,23,,,,,,,,,,,,,,,,,,,,,,,,,,,,,,,,
0.0,1.0,0.581,0.0,30.0,30.0,30.0,1.0,polar_bear_02s.jpg,0.0,clock_6_6.png,5.0,23,,,,,,,,,,,,,,,,,,,,,,,,,,,,,,,,
0.0,1.0,0.512,0.0,31.0,31.0,31.0,1.0,laundry_basket_11s.jpg,0.0,clock_5_1.png,6.0,23,,,,,,,,,,,,,,,,,,,,,,,,,,,,,,,,
0.0,1.0,0.948,0.0,32.0,32.0,32.0,1.0,chopsticks_08s.jpg,0.0,clock_5_2.png,6.0,23,,,,,,,,,,,,,,,,,,,,,,,,,,,,,,,,
0.0,0.0,0.391,0.0,33.0,33.0,33.0,1.0,chopsticks_08s.jpg,1.0,clock_5_3.png,6.0,23,,,,,,,,,,,,,,,,,,,,,,,,,,,,,,,,
0.0,1.0,1.733,0.0,34.0,34.0,34.0,1.0,safety_pin_02s.jpg,0.0,clock_5_4.png,6.0,23,,,,,,,,,,,,,,,,,,,,,,,,,,,,,,,,
0.0,1.0,0.758,0.0,35.0,35.0,35.0,1.0,cobra_05s.jpg,0.0,clock_5_5.png,6.0,23,,,,,,,,,,,,,,,,,,,,,,,,,,,,,,,,
,,,,,,,,,0.0,,,23,1.0,0.0,1.92,0.0,0.0,0.0,0.0,1.0,boar_10s.jpg,toy_04s.jpg,,,,,,,,,,,,,,,,,,,,,,
,,,,,,,,,0.0,,,23,0.0,1.0,4.18,0.0,1.0,1.0,1.0,1.0,crayon_09s.jpg,pear_02s.jpg,,,,,,,,,,,,,,,,,,,,,,
,,,,,,,,,1.0,,,23,1.0,1.0,1.399,0.0,2.0,2.0,2.0,1.0,lasagna_06s.jpg,clover_04s.jpg,,,,,,,,,,,,,,,,,,,,,,
,,,,,,,,,1.0,,,23,1.0,1.0,1.017,0.0,3.0,3.0,3.0,1.0,puppet_01b.jpg,compass_10n.jpg,,,,,,,,,,,,,,,,,,,,,,
,,,,,,,,,0.0,,,23,0.0,1.0,1.388,0.0,4.0,4.0,4.0,1.0,fur_coat_11s.jpg,punch1_10s.jpg,,,,,,,,,,,,,,,,,,,,,,
,,,,,,,,,1.0,,,23,0.0,0.0,1.706,0.0,5.0,5.0,5.0,1.0,laundry_basket_11s.jpg,safety_pin_02s.jpg,,,,,,,,,,,,,,,,,,,,,,
,,,,,,,,,,,,23,,,,,,,,,,,0.0,3.0,3.0,3.0,1.0,clock_present_4_8.xlsx,clock_compare_task_4_8.xlsx,,,,,,,,,,,,,,,
0.0,1.0,1.18,0.0,0.0,0.0,0.0,1.0,projector_08s.jpg,0.0,clock_5_1.png,1.0,23,,,,,,,,,,,,,,,,,,,,,,,,,,,,,,,,
0.0,1.0,0.71,0.0,1.0,1.0,1.0,1.0,gingerbread_man_03s.jpg,0.0,clock_5_2.png,1.0,23,,,,,,,,,,,,,,,,,,,,,,,,,,,,,,,,
0.0,0.0,0.513,0.0,2.0,2.0,2.0,1.0,gingerbread_man_03s.jpg,1.0,clock_5_3.png,1.0,23,,,,,,,,,,,,,,,,,,,,,,,,,,,,,,,,
1.0,1.0,1.073,0.0,3.0,3.0,3.0,1.0,projector_08s.jpg,1.0,clock_5_4.png,1.0,23,,,,,,,,,,,,,,,,,,,,,,,,,,,,,,,,
1.0,1.0,0.823,0.0,4.0,4.0,4.0,1.0,projector_08s.jpg,1.0,clock_5_5.png,1.0,23,,,,,,,,,,,,,,,,,,,,,,,,,,,,,,,,
0.0,1.0,0.68,0.0,5.0,5.0,5.0,1.0,sunflower_17s.jpg,0.0,clock_5_1.png,2.0,23,,,,,,,,,,,,,,,,,,,,,,,,,,,,,,,,
0.0,1.0,1.022,0.0,6.0,6.0,6.0,1.0,gingerbread_man_03s.jpg,0.0,clock_5_2.png,2.0,23,,,,,,,,,,,,,,,,,,,,,,,,,,,,,,,,
0.0,1.0,0.97,0.0,7.0,7.0,7.0,1.0,puppy_08s.jpg,0.0,clock_5_3.png,2.0,23,,,,,,,,,,,,,,,,,,,,,,,,,,,,,,,,
0.0,1.0,0.615,0.0,8.0,8.0,8.0,1.0,quill_09s.jpg,0.0,clock_5_4.png,2.0,23,,,,,,,,,,,,,,,,,,,,,,,,,,,,,,,,
0.0,1.0,0.629,0.0,9.0,9.0,9.0,1.0,mascara_03s.jpg,0.0,clock_5_5.png,2.0,23,,,,,,,,,,,,,,,,,,,,,,,,,,,,,,,,
0.0,1.0,0.585,0.0,10.0,10.0,10.0,1.0,lifesaver_10s.jpg,0.0,clock_6_1.png,3.0,23,,,,,,,,,,,,,,,,,,,,,,,,,,,,,,,,
0.0,1.0,0.529,0.0,11.0,11.0,11.0,1.0,lollipop_08s.jpg,0.0,clock_6_2.png,3.0,23,,,,,,,,,,,,,,,,,,,,,,,,,,,,,,,,
0.0,1.0,0.579,0.0,12.0,12.0,12.0,1.0,stapler_01b.jpg,0.0,clock_6_3.png,3.0,23,,,,,,,,,,,,,,,,,,,,,,,,,,,,,,,,
0.0,1.0,0.577,0.0,13.0,13.0,13.0,1.0,panda_02s.jpg,0.0,clock_6_4.png,3.0,23,,,,,,,,,,,,,,,,,,,,,,,,,,,,,,,,
0.0,1.0,0.398,0.0,14.0,14.0,14.0,1.0,puddle_02s.jpg,0.0,clock_6_5.png,3.0,23,,,,,,,,,,,,,,,,,,,,,,,,,,,,,,,,
0.0,0.0,0.34,0.0,15.0,15.0,15.0,1.0,lifesaver_10s.jpg,1.0,clock_6_6.png,3.0,23,,,,,,,,,,,,,,,,,,,,,,,,,,,,,,,,
0.0,1.0,0.654,0.0,16.0,16.0,16.0,1.0,key_07s.jpg,0.0,clock_6_1.png,4.0,23,,,,,,,,,,,,,,,,,,,,,,,,,,,,,,,,
0.0,1.0,0.432,0.0,17.0,17.0,17.0,1.0,toilet_paper_12s.jpg,0.0,clock_6_2.png,4.0,23,,,,,,,,,,,,,,,,,,,,,,,,,,,,,,,,
0.0,1.0,0.449,0.0,18.0,18.0,18.0,1.0,doily_13s.jpg,0.0,clock_6_3.png,4.0,23,,,,,,,,,,,,,,,,,,,,,,,,,,,,,,,,
0.0,1.0,0.661,0.0,19.0,19.0,19.0,1.0,ginger_09s.jpg,0.0,clock_6_4.png,4.0,23,,,,,,,,,,,,,,,,,,,,,,,,,,,,,,,,
0.0,1.0,0.584,0.0,20.0,20.0,20.0,1.0,eggshell_14s.jpg,0.0,clock_6_5.png,4.0,23,,,,,,,,,,,,,,,,,,,,,,,,,,,,,,,,
0.0,1.0,0.525,0.0,21.0,21.0,21.0,1.0,refrigerator_07s.jpg,0.0,clock_6_6.png,4.0,23,,,,,,,,,,,,,,,,,,,,,,,,,,,,,,,,
0.0,1.0,0.487,0.0,22.0,22.0,22.0,1.0,oil_02s.jpg,0.0,clock_7_1.png,5.0,23,,,,,,,,,,,,,,,,,,,,,,,,,,,,,,,,
1.0,1.0,0.888,0.0,23.0,23.0,23.0,1.0,oil_02s.jpg,1.0,clock_7_2.png,5.0,23,,,,,,,,,,,,,,,,,,,,,,,,,,,,,,,,
0.0,1.0,0.664,0.0,24.0,24.0,24.0,1.0,fox_13s.jpg,0.0,clock_7_3.png,5.0,23,,,,,,,,,,,,,,,,,,,,,,,,,,,,,,,,
0.0,1.0,0.86,0.0,25.0,25.0,25.0,1.0,seahorse_13s.jpg,0.0,clock_7_4.png,5.0,23,,,,,,,,,,,,,,,,,,,,,,,,,,,,,,,,
0.0,1.0,1.087,0.0,26.0,26.0,26.0,1.0,triangle_10s.jpg,0.0,clock_7_5.png,5.0,23,,,,,,,,,,,,,,,,,,,,,,,,,,,,,,,,
0.0,1.0,0.598,0.0,27.0,27.0,27.0,1.0,popcorn_09s.jpg,0.0,clock_7_6.png,5.0,23,,,,,,,,,,,,,,,,,,,,,,,,,,,,,,,,
1.0,1.0,0.917,0.0,28.0,28.0,28.0,1.0,seahorse_13s.jpg,1.0,clock_7_7.png,5.0,23,,,,,,,,,,,,,,,,,,,,,,,,,,,,,,,,
0.0,1.0,0.679,0.0,29.0,29.0,29.0,1.0,leash_10s.jpg,0.0,clock_7_1.png,6.0,23,,,,,,,,,,,,,,,,,,,,,,,,,,,,,,,,
1.0,1.0,0.765,0.0,30.0,30.0,30.0,1.0,leash_10s.jpg,1.0,clock_7_2.png,6.0,23,,,,,,,,,,,,,,,,,,,,,,,,,,,,,,,,
0.0,1.0,0.588,0.0,31.0,31.0,31.0,1.0,mussel_11s.jpg,0.0,clock_7_3.png,6.0,23,,,,,,,,,,,,,,,,,,,,,,,,,,,,,,,,
0.0,1.0,0.595,0.0,32.0,32.0,32.0,1.0,tablet_04s.jpg,0.0,clock_7_4.png,6.0,23,,,,,,,,,,,,,,,,,,,,,,,,,,,,,,,,
1.0,1.0,0.747,0.0,33.0,33.0,33.0,1.0,leash_10s.jpg,1.0,clock_7_5.png,6.0,23,,,,,,,,,,,,,,,,,,,,,,,,,,,,,,,,
1.0,1.0,0.79,0.0,34.0,34.0,34.0,1.0,mussel_11s.jpg,1.0,clock_7_6.png,6.0,23,,,,,,,,,,,,,,,,,,,,,,,,,,,,,,,,
1.0,1.0,0.681,0.0,35.0,35.0,35.0,1.0,mussel_11s.jpg,1.0,clock_7_7.png,6.0,23,,,,,,,,,,,,,,,,,,,,,,,,,,,,,,,,
,,,,,,,,,1.0,,,23,1.0,1.0,2.12,0.0,0.0,0.0,0.0,1.0,mascara_03s.jpg,stapler_01b.jpg,,,,,,,,,,,,,,,,,,,,,,
,,,,,,,,,1.0,,,23,0.0,0.0,2.372,0.0,1.0,1.0,1.0,1.0,panda_02s.jpg,key_07s.jpg,,,,,,,,,,,,,,,,,,,,,,
,,,,,,,,,1.0,,,23,1.0,1.0,1.824,0.0,2.0,2.0,2.0,1.0,quill_09s.jpg,lollipop_08s.jpg,,,,,,,,,,,,,,,,,,,,,,
,,,,,,,,,0.0,,,23,0.0,1.0,1.312,0.0,3.0,3.0,3.0,1.0,eggshell_14s.jpg,toilet_paper_12s.jpg,,,,,,,,,,,,,,,,,,,,,,
,,,,,,,,,0.0,,,23,0.0,1.0,1.023,0.0,4.0,4.0,4.0,1.0,refrigerator_07s.jpg,doily_13s.jpg,,,,,,,,,,,,,,,,,,,,,,
,,,,,,,,,1.0,,,23,1.0,1.0,1.989,0.0,5.0,5.0,5.0,1.0,fox_13s.jpg,popcorn_09s.jpg,,,,,,,,,,,,,,,,,,,,,,
,,,,,,,,,,,,23,,,,,,,,,,,0.0,4.0,4.0,4.0,1.0,clock_present_5_8.xlsx,clock_compare_task_5_8.xlsx,,,,,,,,,,,,,,,
0.0,1.0,1.07,0.0,0.0,0.0,0.0,1.0,turf_03s.jpg,0.0,clock_5_1.png,1.0,23,,,,,,,,,,,,,,,,,,,,,,,,,,,,,,,,
0.0,1.0,1.013,0.0,1.0,1.0,1.0,1.0,spoon02a.jpg,0.0,clock_5_2.png,1.0,23,,,,,,,,,,,,,,,,,,,,,,,,,,,,,,,,
0.0,1.0,0.564,0.0,2.0,2.0,2.0,1.0,knitting_needle_04s.jpg,0.0,clock_5_3.png,1.0,23,,,,,,,,,,,,,,,,,,,,,,,,,,,,,,,,
0.0,1.0,0.732,0.0,3.0,3.0,3.0,1.0,syringe_02s.jpg,0.0,clock_5_4.png,1.0,23,,,,,,,,,,,,,,,,,,,,,,,,,,,,,,,,
0.0,1.0,1.221,0.0,4.0,4.0,4.0,1.0,ice_pack_09s.jpg,0.0,clock_5_5.png,1.0,23,,,,,,,,,,,,,,,,,,,,,,,,,,,,,,,,
,0.0,,0.0,5.0,5.0,5.0,1.0,blowfish_03s.jpg,0.0,clock_6_1.png,2.0,23,,,,,,,,,,,,,,,,,,,,,,,,,,,,,,,,
0.0,0.0,1.131,0.0,6.0,6.0,6.0,1.0,blowfish_03s.jpg,1.0,clock_6_2.png,2.0,23,,,,,,,,,,,,,,,,,,,,,,,,,,,,,,,,
0.0,1.0,0.539,0.0,7.0,7.0,7.0,1.0,tennis_ball_06s.jpg,0.0,clock_6_3.png,2.0,23,,,,,,,,,,,,,,,,,,,,,,,,,,,,,,,,
0.0,1.0,0.504,0.0,8.0,8.0,8.0,1.0,tripod_01b.jpg,0.0,clock_6_4.png,2.0,23,,,,,,,,,,,,,,,,,,,,,,,,,,,,,,,,
0.0,1.0,0.573,0.0,9.0,9.0,9.0,1.0,mannequin_05s.jpg,0.0,clock_6_5.png,2.0,23,,,,,,,,,,,,,,,,,,,,,,,,,,,,,,,,
0.0,1.0,0.496,0.0,10.0,10.0,10.0,1.0,margarita_03s.jpg,0.0,clock_6_6.png,2.0,23,,,,,,,,,,,,,,,,,,,,,,,,,,,,,,,,
0.0,1.0,0.755,0.0,11.0,11.0,11.0,1.0,light_switch_02s.jpg,0.0,clock_7_1.png,3.0,23,,,,,,,,,,,,,,,,,,,,,,,,,,,,,,,,
0.0,1.0,0.762,0.0,12.0,12.0,12.0,1.0,fire_alarm_05s.jpg,0.0,clock_7_2.png,3.0,23,,,,,,,,,,,,,,,,,,,,,,,,,,,,,,,,
1.0,1.0,1.566,0.0,13.0,13.0,13.0,1.0,fire_alarm_05s.jpg,1.0,clock_7_3.png,3.0,23,,,,,,,,,,,,,,,,,,,,,,,,,,,,,,,,
1.0,1.0,1.039,0.0,14.0,14.0,14.0,1.0,light_switch_02s.jpg,1.0,clock_7_4.png,3.0,23,,,,,,,,,,,,,,,,,,,,,,,,,,,,,,,,
0.0,1.0,1.097,0.0,15.0,15.0,15.0,1.0,iron_13s.jpg,0.0,clock_7_5.png,3.0,23,,,,,,,,,,,,,,,,,,,,,,,,,,,,,,,,
0.0,1.0,0.652,0.0,16.0,16.0,16.0,1.0,slingshot_07s.jpg,0.0,clock_7_6.png,3.0,23,,,,,,,,,,,,,,,,,,,,,,,,,,,,,,,,
0.0,1.0,0.572,0.0,17.0,17.0,17.0,1.0,plaster_cast_13s.jpg,0.0,clock_7_7.png,3.0,23,,,,,,,,,,,,,,,,,,,,,,,,,,,,,,,,
0.0,1.0,0.537,0.0,18.0,18.0,18.0,1.0,dynamite_01b.jpg,0.0,clock_6_1.png,4.0,23,,,,,,,,,,,,,,,,,,,,,,,,,,,,,,,,
0.0,1.0,0.53,0.0,19.0,19.0,19.0,1.0,radio_09s.jpg,0.0,clock_6_2.png,4.0,23,,,,,,,,,,,,,,,,,,,,,,,,,,,,,,,,
0.0,1.0,0.467,0.0,20.0,20.0,20.0,1.0,gong_02s.jpg,0.0,clock_6_3.png,4.0,23,,,,,,,,,,,,,,,,,,,,,,,,,,,,,,,,
0.0,1.0,0.544,0.0,21.0,21.0,21.0,1.0,phone_01b.jpg,0.0,clock_6_4.png,4.0,23,,,,,,,,,,,,,,,,,,,,,,,,,,,,,,,,
0.0,1.0,1.034,0.0,22.0,22.0,22.0,1.0,puck_06s.jpg,0.0,clock_6_5.png,4.0,23,,,,,,,,,,,,,,,,,,,,,,,,,,,,,,,,
0.0,1.0,0.453,0.0,23.0,23.0,23.0,1.0,fireworks_18s.jpg,0.0,clock_6_6.png,4.0,23,,,,,,,,,,,,,,,,,,,,,,,,,,,,,,,,
0.0,1.0,0.587,0.0,24.0,24.0,24.0,1.0,kayak_08s.jpg,0.0,clock_5_1.png,5.0,23,,,,,,,,,,,,,,,,,,,,,,,,,,,,,,,,
0.0,1.0,0.479,0.0,25.0,25.0,25.0,1.0,antenna_01b.jpg,0.0,clock_5_2.png,5.0,23,,,,,,,,,,,,,,,,,,,,,,,,,,,,,,,,
0.0,1.0,0.414,0.0,26.0,26.0,26.0,1.0,syringe_02s.jpg,0.0,clock_5_3.png,5.0,23,,,,,,,,,,,,,,,,,,,,,,,,,,,,,,,,
1.0,1.0,0.739,0.0,27.0,27.0,27.0,1.0,antenna_01b.jpg,1.0,clock_5_4.png,5.0,23,,,,,,,,,,,,,,,,,,,,,,,,,,,,,,,,
0.0,1.0,0.813,0.0,28.0,28.0,28.0,1.0,outlet_10s.jpg,0.0,clock_5_5.png,5.0,23,,,,,,,,,,,,,,,,,,,,,,,,,,,,,,,,
0.0,1.0,0.729,0.0,29.0,29.0,29.0,1.0,racehorse_03s.jpg,0.0,clock_7_1.png,6.0,23,,,,,,,,,,,,,,,,,,,,,,,,,,,,,,,,
0.0,1.0,0.465,0.0,30.0,30.0,30.0,1.0,lion_18s.jpg,0.0,clock_7_2.png,6.0,23,,,,,,,,,,,,,,,,,,,,,,,,,,,,,,,,
0.0,1.0,0.746,0.0,31.0,31.0,31.0,1.0,stingray_02s.jpg,0.0,clock_7_3.png,6.0,23,,,,,,,,,,,,,,,,,,,,,,,,,,,,,,,,
0.0,0.0,0.766,0.0,32.0,32.0,32.0,1.0,racehorse_03s.jpg,1.0,clock_7_4.png,6.0,23,,,,,,,,,,,,,,,,,,,,,,,,,,,,,,,,
0.0,1.0,0.717,0.0,33.0,33.0,33.0,1.0,swan_11s.jpg,0.0,clock_7_5.png,6.0,23,,,,,,,,,,,,,,,,,,,,,,,,,,,,,,,,
0.0,1.0,0.603,0.0,34.0,34.0,34.0,1.0,rabbit_03s.jpg,0.0,clock_7_6.png,6.0,23,,,,,,,,,,,,,,,,,,,,,,,,,,,,,,,,
0.0,1.0,0.536,0.0,35.0,35.0,35.0,1.0,pocket_watch_16s.jpg,0.0,clock_7_7.png,6.0,23,,,,,,,,,,,,,,,,,,,,,,,,,,,,,,,,
,,,,,,,,,0.0,,,23,1.0,0.0,1.264,0.0,0.0,0.0,0.0,1.0,dynamite_01b.jpg,iron_13s.jpg,,,,,,,,,,,,,,,,,,,,,,
,,,,,,,,,0.0,,,23,0.0,1.0,1.614,0.0,1.0,1.0,1.0,1.0,radio_09s.jpg,slingshot_07s.jpg,,,,,,,,,,,,,,,,,,,,,,
,,,,,,,,,1.0,,,23,0.0,0.0,1.315,0.0,2.0,2.0,2.0,1.0,plaster_cast_13s.jpg,gong_02s.jpg,,,,,,,,,,,,,,,,,,,,,,
,,,,,,,,,0.0,,,23,0.0,1.0,3.556,0.0,3.0,3.0,3.0,1.0,swan_11s.jpg,lion_18s.jpg,,,,,,,,,,,,,,,,,,,,,,
,,,,,,,,,0.0,,,23,0.0,1.0,1.132,0.0,4.0,4.0,4.0,1.0,ice_pack_09s.jpg,spoon02a.jpg,,,,,,,,,,,,,,,,,,,,,,
,,,,,,,,,0.0,,,23,0.0,1.0,2.316,0.0,5.0,5.0,5.0,1.0,margarita_03s.jpg,tennis_ball_06s.jpg,,,,,,,,,,,,,,,,,,,,,,
0.0,1.0,1.386,,,,,,breadstick_08s.jpg,0.0,clockno_up.jpg,1.0,23,,,,,,,,,,,,,,,,,,0.0,0.0,0.0,0.0,1.0,,,,,,,,,,
0.0,1.0,1.052,,,,,,sea_urchin_09s.jpg,0.0,clockno_default.jpg,1.0,23,,,,,,,,,,,,,,,,,,0.0,1.0,1.0,1.0,1.0,,,,,,,,,,
1.0,1.0,0.772,,,,,,breadstick_08s.jpg,1.0,clockno_default.jpg,1.0,23,,,,,,,,,,,,,,,,,,0.0,2.0,2.0,2.0,1.0,,,,,,,,,,
1.0,1.0,0.829,,,,,,sea_urchin_09s.jpg,1.0,clockno_default.jpg,1.0,23,,,,,,,,,,,,,,,,,,0.0,3.0,3.0,3.0,1.0,,,,,,,,,,
0.0,1.0,0.737,,,,,,saddle_06s.jpg,0.0,clockno_default.jpg,1.0,23,,,,,,,,,,,,,,,,,,0.0,4.0,4.0,4.0,1.0,,,,,,,,,,
1.0,1.0,0.963,,,,,,saddle_06s.jpg,1.0,clockno_default.jpg,1.0,23,,,,,,,,,,,,,,,,,,0.0,5.0,5.0,5.0,1.0,,,,,,,,,,
0.0,1.0,0.644,,,,,,mousetrap_15n.jpg,0.0,clockno_up.jpg,2.0,23,,,,,,,,,,,,,,,,,,0.0,6.0,6.0,6.0,1.0,,,,,,,,,,
0.0,1.0,0.628,,,,,,owl_15s.jpg,0.0,clockno_default.jpg,2.0,23,,,,,,,,,,,,,,,,,,0.0,7.0,7.0,7.0,1.0,,,,,,,,,,
1.0,1.0,0.449,,,,,,mousetrap_15n.jpg,1.0,clockno_default.jpg,2.0,23,,,,,,,,,,,,,,,,,,0.0,8.0,8.0,8.0,1.0,,,,,,,,,,
1.0,1.0,0.673,,,,,,owl_15s.jpg,1.0,clockno_default.jpg,2.0,23,,,,,,,,,,,,,,,,,,0.0,9.0,9.0,9.0,1.0,,,,,,,,,,
1.0,1.0,0.609,,,,,,owl_15s.jpg,1.0,clockno_default.jpg,2.0,23,,,,,,,,,,,,,,,,,,0.0,10.0,10.0,10.0,1.0,,,,,,,,,,
1.0,0.0,0.905,,,,,,popsicle_02s.jpg,0.0,clockno_default.jpg,2.0,23,,,,,,,,,,,,,,,,,,0.0,11.0,11.0,11.0,1.0,,,,,,,,,,
0.0,1.0,0.76,,,,,,screwdriver02a.jpg,0.0,clockno_default.jpg,2.0,23,,,,,,,,,,,,,,,,,,0.0,12.0,12.0,12.0,1.0,,,,,,,,,,
0.0,1.0,0.628,,,,,,paper_towel_03s.jpg,0.0,clockno_up.jpg,3.0,23,,,,,,,,,,,,,,,,,,0.0,13.0,13.0,13.0,1.0,,,,,,,,,,
0.0,1.0,0.885,,,,,,mug_06s.jpg,0.0,clockno_default.jpg,3.0,23,,,,,,,,,,,,,,,,,,0.0,14.0,14.0,14.0,1.0,,,,,,,,,,
0.0,1.0,0.612,,,,,,undershirt_02s.jpg,0.0,clockno_default.jpg,3.0,23,,,,,,,,,,,,,,,,,,0.0,15.0,15.0,15.0,1.0,,,,,,,,,,
0.0,1.0,0.695,,,,,,cape_11s.jpg,0.0,clockno_default.jpg,3.0,23,,,,,,,,,,,,,,,,,,0.0,16.0,16.0,16.0,1.0,,,,,,,,,,
0.0,1.0,0.444,,,,,,lamp_08s.jpg,0.0,clockno_default.jpg,3.0,23,,,,,,,,,,,,,,,,,,0.0,17.0,17.0,17.0,1.0,,,,,,,,,,
0.0,1.0,0.439,,,,,,padlock_07s.jpg,0.0,clockno_default.jpg,3.0,23,,,,,,,,,,,,,,,,,,0.0,18.0,18.0,18.0,1.0,,,,,,,,,,
0.0,1.0,0.604,,,,,,lab_coat_11s.jpg,0.0,clockno_default.jpg,3.0,23,,,,,,,,,,,,,,,,,,0.0,19.0,19.0,19.0,1.0,,,,,,,,,,
0.0,1.0,1.271,,,,,,badge_03s.jpg,0.0,clockno_up.jpg,4.0,23,,,,,,,,,,,,,,,,,,0.0,20.0,20.0,20.0,1.0,,,,,,,,,,
0.0,1.0,0.571,,,,,,go-kart_10s.jpg,0.0,clockno_default.jpg,4.0,23,,,,,,,,,,,,,,,,,,0.0,21.0,21.0,21.0,1.0,,,,,,,,,,
0.0,1.0,0.529,,,,,,parachute_03s.jpg,0.0,clockno_default.jpg,4.0,23,,,,,,,,,,,,,,,,,,0.0,22.0,22.0,22.0,1.0,,,,,,,,,,
0.0,1.0,0.629,,,,,,scooter.jpg,0.0,clockno_default.jpg,4.0,23,,,,,,,,,,,,,,,,,,0.0,23.0,23.0,23.0,1.0,,,,,,,,,,
0.0,1.0,0.697,,,,,,letter_opener_03s.jpg,0.0,clockno_default.jpg,4.0,23,,,,,,,,,,,,,,,,,,0.0,24.0,24.0,24.0,1.0,,,,,,,,,,
1.0,1.0,0.813,,,,,,parachute_03s.jpg,1.0,clockno_default.jpg,4.0,23,,,,,,,,,,,,,,,,,,0.0,25.0,25.0,25.0,1.0,,,,,,,,,,
0.0,1.0,1.053,,,,,,throne_11s.jpg,0.0,clockno_up.jpg,5.0,23,,,,,,,,,,,,,,,,,,0.0,26.0,26.0,26.0,1.0,,,,,,,,,,
0.0,1.0,0.463,,,,,,owl_15s.jpg,0.0,clockno_default.jpg,5.0,23,,,,,,,,,,,,,,,,,,0.0,27.0,27.0,27.0,1.0,,,,,,,,,,
0.0,0.0,1.68,,,,,,throne_11s.jpg,1.0,clockno_default.jpg,5.0,23,,,,,,,,,,,,,,,,,,0.0,28.0,28.0,28.0,1.0,,,,,,,,,,
0.0,1.0,0.581,,,,,,rocking_horse_03s.jpg,0.0,clockno_default.jpg,5.0,23,,,,,,,,,,,,,,,,,,0.0,29.0,29.0,29.0,1.0,,,,,,,,,,
0.0,1.0,0.841,,,,,,swordfish_05s.jpg,0.0,clockno_default.jpg,5.0,23,,,,,,,,,,,,,,,,,,0.0,30.0,30.0,30.0,1.0,,,,,,,,,,
0.0,1.0,0.654,,,,,,tupperware_09s.jpg,0.0,clockno_up.jpg,6.0,23,,,,,,,,,,,,,,,,,,0.0,31.0,31.0,31.0,1.0,,,,,,,,,,
0.0,1.0,0.513,,,,,,rocking_chair_05s.jpg,0.0,clockno_default.jpg,6.0,23,,,,,,,,,,,,,,,,,,0.0,32.0,32.0,32.0,1.0,,,,,,,,,,
0.0,1.0,0.963,,,,,,padlock_07s.jpg,0.0,clockno_default.jpg,6.0,23,,,,,,,,,,,,,,,,,,0.0,33.0,33.0,33.0,1.0,,,,,,,,,,
0.0,1.0,0.811,,,,,,machete_06s.jpg,0.0,clockno_default.jpg,6.0,23,,,,,,,,,,,,,,,,,,0.0,34.0,34.0,34.0,1.0,,,,,,,,,,
0.0,0.0,1.313,,,,,,tupperware_09s.jpg,1.0,clockno_default.jpg,6.0,23,,,,,,,,,,,,,,,,,,0.0,35.0,35.0,35.0,1.0,,,,,,,,,,
,,,,,,,,,1.0,,,23,1.0,1.0,1.448,,,,,,screwdriver02a.jpg,undershirt_02s.jpg,,,,,,,,,,,,,0.0,0.0,0.0,0.0,1.0,,,,,
,,,,,,,,,0.0,,,23,0.0,1.0,1.091,,,,,,rocking_chair_05s.jpg,rocking_horse_03s.jpg,,,,,,,,,,,,,0.0,1.0,1.0,1.0,1.0,,,,,
,,,,,,,,,0.0,,,23,0.0,1.0,1.483,,,,,,mug_06s.jpg,popsicle_02s.jpg,,,,,,,,,,,,,0.0,2.0,2.0,2.0,1.0,,,,,
,,,,,,,,,1.0,,,23,1.0,1.0,1.673,,,,,,paper_towel_03s.jpg,cape_11s.jpg,,,,,,,,,,,,,0.0,3.0,3.0,3.0,1.0,,,,,
,,,,,,,,,1.0,,,23,1.0,1.0,1.974,,,,,,go-kart_10s.jpg,letter_opener_03s.jpg,,,,,,,,,,,,,0.0,4.0,4.0,4.0,1.0,,,,,
,,,,,,,,,0.0,,,23,1.0,0.0,1.647,,,,,,scooter.jpg,badge_03s.jpg,,,,,,,,,,,,,0.0,5.0,5.0,5.0,1.0,,,,,
,,,,,,,,,,,,23,,,,,,,,,,,,,,,,clockno_present_1_8.xlsx,clockno_compare_task_1_8.xlsx,,,,,,,,,,,0.0,0.0,0.0,0.0,1.0
0.0,1.0,1.64,,,,,,towel_rack_04s.jpg,0.0,clockno_up.jpg,1.0,23,,,,,,,,,,,,,,,,,,0.0,0.0,0.0,0.0,1.0,,,,,,,,,,
0.0,1.0,0.647,,,,,,microwave_02s.jpg,0.0,clockno_default.jpg,1.0,23,,,,,,,,,,,,,,,,,,0.0,1.0,1.0,1.0,1.0,,,,,,,,,,
0.0,1.0,0.5,,,,,,quesadilla_07s.jpg,0.0,clockno_default.jpg,1.0,23,,,,,,,,,,,,,,,,,,0.0,2.0,2.0,2.0,1.0,,,,,,,,,,
0.0,1.0,0.634,,,,,,ring_03s.jpg,0.0,clockno_default.jpg,1.0,23,,,,,,,,,,,,,,,,,,0.0,3.0,3.0,3.0,1.0,,,,,,,,,,
0.0,1.0,0.773,,,,,,jalapeno_15s.jpg,0.0,clockno_default.jpg,1.0,23,,,,,,,,,,,,,,,,,,0.0,4.0,4.0,4.0,1.0,,,,,,,,,,
0.0,1.0,0.654,,,,,,rollerskate_03s.jpg,0.0,clockno_default.jpg,1.0,23,,,,,,,,,,,,,,,,,,0.0,5.0,5.0,5.0,1.0,,,,,,,,,,
1.0,1.0,0.701,,,,,,jalapeno_15s.jpg,1.0,clockno_default.jpg,1.0,23,,,,,,,,,,,,,,,,,,0.0,6.0,6.0,6.0,1.0,,,,,,,,,,
0.0,1.0,0.894,,,,,,thermostat_02s.jpg,0.0,clockno_up.jpg,2.0,23,,,,,,,,,,,,,,,,,,0.0,7.0,7.0,7.0,1.0,,,,,,,,,,
0.0,0.0,0.713,,,,,,thermostat_02s.jpg,1.0,clockno_default.jpg,2.0,23,,,,,,,,,,,,,,,,,,0.0,8.0,8.0,8.0,1.0,,,,,,,,,,
0.0,1.0,0.962,,,,,,pepper2_21s.jpg,0.0,clockno_default.jpg,2.0,23,,,,,,,,,,,,,,,,,,0.0,9.0,9.0,9.0,1.0,,,,,,,,,,
0.0,1.0,0.845,,,,,,lava_02s.jpg,0.0,clockno_default.jpg,2.0,23,,,,,,,,,,,,,,,,,,0.0,10.0,10.0,10.0,1.0,,,,,,,,,,
0.0,1.0,0.61,,,,,,butter_14s.jpg,0.0,clockno_default.jpg,2.0,23,,,,,,,,,,,,,,,,,,0.0,11.0,11.0,11.0,1.0,,,,,,,,,,
0.0,1.0,0.712,,,,,,hummingbird_05s.jpg,0.0,clockno_up.jpg,3.0,23,,,,,,,,,,,,,,,,,,0.0,12.0,12.0,12.0,1.0,,,,,,,,,,
0.0,1.0,0.738,,,,,,jalapeno_15s.jpg,0.0,clockno_default.jpg,3.0,23,,,,,,,,,,,,,,,,,,0.0,13.0,13.0,13.0,1.0,,,,,,,,,,
0.0,1.0,0.804,,,,,,stump_02s.jpg,0.0,clockno_default.jpg,3.0,23,,,,,,,,,,,,,,,,,,0.0,14.0,14.0,14.0,1.0,,,,,,,,,,
0.0,1.0,1.09,,,,,,luggage_08s.jpg,0.0,clockno_default.jpg,3.0,23,,,,,,,,,,,,,,,,,,0.0,15.0,15.0,15.0,1.0,,,,,,,,,,
0.0,0.0,0.823,,,,,,luggage_08s.jpg,1.0,clockno_default.jpg,3.0,23,,,,,,,,,,,,,,,,,,0.0,16.0,16.0,16.0,1.0,,,,,,,,,,
0.0,1.0,0.753,,,,,,pomegranate_04s.jpg,0.0,clockno_default.jpg,3.0,23,,,,,,,,,,,,,,,,,,0.0,17.0,17.0,17.0,1.0,,,,,,,,,,
0.0,1.0,0.638,,,,,,swing_set_15s.jpg,0.0,clockno_default.jpg,3.0,23,,,,,,,,,,,,,,,,,,0.0,18.0,18.0,18.0,1.0,,,,,,,,,,
0.0,1.0,0.847,,,,,,jigsaw_puzzle_11s.jpg,0.0,clockno_up.jpg,4.0,23,,,,,,,,,,,,,,,,,,0.0,19.0,19.0,19.0,1.0,,,,,,,,,,
0.0,1.0,0.871,,,,,,toilet_07s.jpg,0.0,clockno_default.jpg,4.0,23,,,,,,,,,,,,,,,,,,0.0,20.0,20.0,20.0,1.0,,,,,,,,,,
0.0,1.0,0.804,,,,,,turtleneck_11s.jpg,0.0,clockno_default.jpg,4.0,23,,,,,,,,,,,,,,,,,,0.0,21.0,21.0,21.0,1.0,,,,,,,,,,
0.0,1.0,0.864,,,,,,trident_07s.jpg,0.0,clockno_default.jpg,4.0,23,,,,,,,,,,,,,,,,,,0.0,22.0,22.0,22.0,1.0,,,,,,,,,,
0.0,1.0,0.963,,,,,,contact_lens_15s.jpg,0.0,clockno_default.jpg,4.0,23,,,,,,,,,,,,,,,,,,0.0,23.0,23.0,23.0,1.0,,,,,,,,,,
0.0,1.0,0.645,,,,,,plunger_08s.jpg,0.0,clockno_default.jpg,4.0,23,,,,,,,,,,,,,,,,,,0.0,24.0,24.0,24.0,1.0,,,,,,,,,,
0.0,1.0,0.571,,,,,,timer_03s.jpg,0.0,clockno_up.jpg,5.0,23,,,,,,,,,,,,,,,,,,0.0,25.0,25.0,25.0,1.0,,,,,,,,,,
1.0,1.0,0.755,,,,,,timer_03s.jpg,1.0,clockno_default.jpg,5.0,23,,,,,,,,,,,,,,,,,,0.0,26.0,26.0,26.0,1.0,,,,,,,,,,
0.0,1.0,0.381,,,,,,spacesuit_02s.jpg,0.0,clockno_default.jpg,5.0,23,,,,,,,,,,,,,,,,,,0.0,27.0,27.0,27.0,1.0,,,,,,,,,,
0.0,1.0,0.513,,,,,,roller_coaster_07s.jpg,0.0,clockno_default.jpg,5.0,23,,,,,,,,,,,,,,,,,,0.0,28.0,28.0,28.0,1.0,,,,,,,,,,
0.0,1.0,0.737,,,,,,pocketknife_12s.jpg,0.0,clockno_default.jpg,5.0,23,,,,,,,,,,,,,,,,,,0.0,29.0,29.0,29.0,1.0,,,,,,,,,,
0.0,1.0,0.498,,,,,,jewel_01b.jpg,0.0,clockno_up.jpg,6.0,23,,,,,,,,,,,,,,,,,,0.0,30.0,30.0,30.0,1.0,,,,,,,,,,
0.0,1.0,0.537,,,,,,harpoon.jpg,0.0,clockno_default.jpg,6.0,23,,,,,,,,,,,,,,,,,,0.0,31.0,31.0,31.0,1.0,,,,,,,,,,
0.0,1.0,0.621,,,,,,tinsel_12s.jpg,0.0,clockno_default.jpg,6.0,23,,,,,,,,,,,,,,,,,,0.0,32.0,32.0,32.0,1.0,,,,,,,,,,
0.0,0.0,0.828,,,,,,tinsel_12s.jpg,1.0,clockno_default.jpg,6.0,23,,,,,,,,,,,,,,,,,,0.0,33.0,33.0,33.0,1.0,,,,,,,,,,
0.0,0.0,0.418,,,,,,jewel_01b.jpg,1.0,clockno_default.jpg,6.0,23,,,,,,,,,,,,,,,,,,0.0,34.0,34.0,34.0,1.0,,,,,,,,,,
0.0,1.0,0.764,,,,,,submarine_11n.jpg,0.0,clockno_default.jpg,6.0,23,,,,,,,,,,,,,,,,,,0.0,35.0,35.0,35.0,1.0,,,,,,,,,,
,,,,,,,,,1.0,,,23,1.0,1.0,1.512,,,,,,pepper2_21s.jpg,hummingbird_05s.jpg,,,,,,,,,,,,,0.0,0.0,0.0,0.0,1.0,,,,,
,,,,,,,,,0.0,,,23,0.0,1.0,1.726,,,,,,harpoon.jpg,roller_coaster_07s.jpg,,,,,,,,,,,,,0.0,1.0,1.0,1.0,1.0,,,,,
,,,,,,,,,1.0,,,23,0.0,0.0,1.325,,,,,,butter_14s.jpg,stump_02s.jpg,,,,,,,,,,,,,0.0,2.0,2.0,2.0,1.0,,,,,
,,,,,,,,,0.0,,,23,0.0,1.0,1.422,,,,,,ring_03s.jpg,towel_rack_04s.jpg,,,,,,,,,,,,,0.0,3.0,3.0,3.0,1.0,,,,,
,,,,,,,,,0.0,,,23,0.0,1.0,1.691,,,,,,rollerskate_03s.jpg,quesadilla_07s.jpg,,,,,,,,,,,,,0.0,4.0,4.0,4.0,1.0,,,,,
,,,,,,,,,0.0,,,23,0.0,1.0,6.506,,,,,,trident_07s.jpg,jigsaw_puzzle_11s.jpg,,,,,,,,,,,,,0.0,5.0,5.0,5.0,1.0,,,,,
,,,,,,,,,,,,23,,,,,,,,,,,,,,,,clockno_present_2_8.xlsx,clockno_compare_task_2_8.xlsx,,,,,,,,,,,0.0,1.0,1.0,1.0,1.0
0.0,1.0,1.01,,,,,,peppermint_07s.jpg,0.0,clockno_up.jpg,1.0,23,,,,,,,,,,,,,,,,,,0.0,0.0,0.0,0.0,1.0,,,,,,,,,,
0.0,1.0,0.695,,,,,,teapot_03s.jpg,0.0,clockno_default.jpg,1.0,23,,,,,,,,,,,,,,,,,,0.0,1.0,1.0,1.0,1.0,,,,,,,,,,
0.0,1.0,0.494,,,,,,funnel_01b.jpg,0.0,clockno_default.jpg,1.0,23,,,,,,,,,,,,,,,,,,0.0,2.0,2.0,2.0,1.0,,,,,,,,,,
0.0,1.0,0.671,,,,,,incense_02s.jpg,0.0,clockno_default.jpg,1.0,23,,,,,,,,,,,,,,,,,,0.0,3.0,3.0,3.0,1.0,,,,,,,,,,
0.0,0.0,0.749,,,,,,teapot_03s.jpg,1.0,clockno_default.jpg,1.0,23,,,,,,,,,,,,,,,,,,0.0,4.0,4.0,4.0,1.0,,,,,,,,,,
0.0,1.0,0.637,,,,,,licorice_06s.jpg,0.0,clockno_up.jpg,2.0,23,,,,,,,,,,,,,,,,,,0.0,5.0,5.0,5.0,1.0,,,,,,,,,,
0.0,1.0,0.714,,,,,,sunglasses_11s.jpg,0.0,clockno_default.jpg,2.0,23,,,,,,,,,,,,,,,,,,0.0,6.0,6.0,6.0,1.0,,,,,,,,,,
1.0,0.0,1.201,,,,,,funnel_01b.jpg,0.0,clockno_default.jpg,2.0,23,,,,,,,,,,,,,,,,,,0.0,7.0,7.0,7.0,1.0,,,,,,,,,,
0.0,1.0,0.664,,,,,,rice_12s.jpg,0.0,clockno_default.jpg,2.0,23,,,,,,,,,,,,,,,,,,0.0,8.0,8.0,8.0,1.0,,,,,,,,,,
1.0,1.0,0.831,,,,,,rice_12s.jpg,1.0,clockno_default.jpg,2.0,23,,,,,,,,,,,,,,,,,,0.0,9.0,9.0,9.0,1.0,,,,,,,,,,
0.0,1.0,0.748,,,,,,emerald_02s.jpg,0.0,clockno_default.jpg,2.0,23,,,,,,,,,,,,,,,,,,0.0,10.0,10.0,10.0,1.0,,,,,,,,,,
0.0,1.0,0.855,,,,,,raccoon_02s.jpg,0.0,clockno_default.jpg,2.0,23,,,,,,,,,,,,,,,,,,0.0,11.0,11.0,11.0,1.0,,,,,,,,,,
0.0,1.0,0.714,,,,,,cushion_08s.jpg,0.0,clockno_up.jpg,3.0,23,,,,,,,,,,,,,,,,,,0.0,12.0,12.0,12.0,1.0,,,,,,,,,,
0.0,1.0,2.178,,,,,,tiger_06s.jpg,0.0,clockno_default.jpg,3.0,23,,,,,,,,,,,,,,,,,,0.0,13.0,13.0,13.0,1.0,,,,,,,,,,
0.0,0.0,1.697,,,,,,cushion_08s.jpg,1.0,clockno_default.jpg,3.0,23,,,,,,,,,,,,,,,,,,0.0,14.0,14.0,14.0,1.0,,,,,,,,,,
0.0,1.0,0.895,,,,,,stamp1_11s.jpg,0.0,clockno_default.jpg,3.0,23,,,,,,,,,,,,,,,,,,0.0,15.0,15.0,15.0,1.0,,,,,,,,,,
0.0,1.0,1.046,,,,,,cereal_04s.jpg,0.0,clockno_default.jpg,3.0,23,,,,,,,,,,,,,,,,,,0.0,16.0,16.0,16.0,1.0,,,,,,,,,,
0.0,1.0,0.878,,,,,,jersey_02s.jpg,0.0,clockno_up.jpg,4.0,23,,,,,,,,,,,,,,,,,,0.0,17.0,17.0,17.0,1.0,,,,,,,,,,
0.0,1.0,0.527,,,,,,tomato_sauce_09s.jpg,0.0,clockno_default.jpg,4.0,23,,,,,,,,,,,,,,,,,,0.0,18.0,18.0,18.0,1.0,,,,,,,,,,
,0.0,,,,,,,toad_09s.jpg,0.0,clockno_default.jpg,4.0,23,,,,,,,,,,,,,,,,,,0.0,19.0,19.0,19.0,1.0,,,,,,,,,,
0.0,1.0,0.563,,,,,,fire_pit_10s.jpg,0.0,clockno_default.jpg,4.0,23,,,,,,,,,,,,,,,,,,0.0,20.0,20.0,20.0,1.0,,,,,,,,,,
0.0,1.0,0.478,,,,,,keyhole_03s.jpg,0.0,clockno_default.jpg,4.0,23,,,,,,,,,,,,,,,,,,0.0,21.0,21.0,21.0,1.0,,,,,,,,,,
0.0,1.0,0.461,,,,,,comic_book_02s.jpg,0.0,clockno_default.jpg,4.0,23,,,,,,,,,,,,,,,,,,0.0,22.0,22.0,22.0,1.0,,,,,,,,,,
0.0,1.0,0.42,,,,,,pencil02a.jpg,0.0,clockno_up.jpg,5.0,23,,,,,,,,,,,,,,,,,,0.0,23.0,23.0,23.0,1.0,,,,,,,,,,
0.0,1.0,0.563,,,,,,punch2_09s.jpg,0.0,clockno_default.jpg,5.0,23,,,,,,,,,,,,,,,,,,0.0,24.0,24.0,24.0,1.0,,,,,,,,,,
0.0,1.0,0.381,,,,,,chime_12s.jpg,0.0,clockno_default.jpg,5.0,23,,,,,,,,,,,,,,,,,,0.0,25.0,25.0,25.0,1.0,,,,,,,,,,
0.0,0.0,0.489,,,,,,pencil02a.jpg,1.0,clockno_default.jpg,5.0,23,,,,,,,,,,,,,,,,,,0.0,26.0,26.0,26.0,1.0,,,,,,,,,,
0.0,1.0,0.513,,,,,,lip_gloss_06s.jpg,0.0,clockno_default.jpg,5.0,23,,,,,,,,,,,,,,,,,,0.0,27.0,27.0,27.0,1.0,,,,,,,,,,
0.0,1.0,0.448,,,,,,rocket_02s.jpg,0.0,clockno_default.jpg,5.0,23,,,,,,,,,,,,,,,,,,0.0,28.0,28.0,28.0,1.0,,,,,,,,,,
0.0,0.0,0.524,,,,,,punch2_09s.jpg,1.0,clockno_default.jpg,5.0,23,,,,,,,,,,,,,,,,,,0.0,29.0,29.0,29.0,1.0,,,,,,,,,,
0.0,1.0,0.394,,,,,,crate_05s.jpg,0.0,clockno_up.jpg,6.0,23,,,,,,,,,,,,,,,,,,0.0,30.0,30.0,30.0,1.0,,,,,,,,,,
1.0,1.0,0.792,,,,,,crate_05s.jpg,1.0,clockno_default.jpg,6.0,23,,,,,,,,,,,,,,,,,,0.0,31.0,31.0,31.0,1.0,,,,,,,,,,
0.0,1.0,0.769,,,,,,blazer_02s.jpg,0.0,clockno_default.jpg,6.0,23,,,,,,,,,,,,,,,,,,0.0,32.0,32.0,32.0,1.0,,,,,,,,,,
0.0,1.0,0.695,,,,,,fork_04s.jpg,0.0,clockno_default.jpg,6.0,23,,,,,,,,,,,,,,,,,,0.0,33.0,33.0,33.0,1.0,,,,,,,,,,
0.0,1.0,0.864,,,,,,target_11s.jpg,0.0,clockno_default.jpg,6.0,23,,,,,,,,,,,,,,,,,,0.0,34.0,34.0,34.0,1.0,,,,,,,,,,
0.0,1.0,0.73,,,,,,meatball_13s.jpg,0.0,clockno_default.jpg,6.0,23,,,,,,,,,,,,,,,,,,0.0,35.0,35.0,35.0,1.0,,,,,,,,,,
,,,,,,,,,1.0,,,23,1.0,1.0,2.142,,,,,,incense_02s.jpg,sunglasses_11s.jpg,,,,,,,,,,,,,0.0,0.0,0.0,0.0,1.0,,,,,
,,,,,,,,,0.0,,,23,0.0,1.0,1.483,,,,,,tiger_06s.jpg,emerald_02s.jpg,,,,,,,,,,,,,0.0,1.0,1.0,1.0,1.0,,,,,
,,,,,,,,,1.0,,,23,1.0,1.0,0.955,,,,,,stamp1_11s.jpg,tomato_sauce_09s.jpg,,,,,,,,,,,,,0.0,2.0,2.0,2.0,1.0,,,,,
,,,,,,,,,0.0,,,23,1.0,0.0,1.489,,,,,,fire_pit_10s.jpg,jersey_02s.jpg,,,,,,,,,,,,,0.0,3.0,3.0,3.0,1.0,,,,,
,,,,,,,,,0.0,,,23,1.0,0.0,1.764,,,,,,meatball_13s.jpg,blazer_02s.jpg,,,,,,,,,,,,,0.0,4.0,4.0,4.0,1.0,,,,,
,,,,,,,,,0.0,,,23,1.0,0.0,1.865,,,,,,rocket_02s.jpg,chime_12s.jpg,,,,,,,,,,,,,0.0,5.0,5.0,5.0,1.0,,,,,
,,,,,,,,,,,,23,,,,,,,,,,,,,,,,clockno_present_3_8.xlsx,clockno_compare_task_3_8.xlsx,,,,,,,,,,,0.0,2.0,2.0,2.0,1.0
0.0,1.0,1.421,,,,,,kangaroo_02s.jpg,0.0,clockno_up.jpg,1.0,23,,,,,,,,,,,,,,,,,,0.0,0.0,0.0,0.0,1.0,,,,,,,,,,
1.0,1.0,0.856,,,,,,kangaroo_02s.jpg,1.0,clockno_default.jpg,1.0,23,,,,,,,,,,,,,,,,,,0.0,1.0,1.0,1.0,1.0,,,,,,,,,,
0.0,1.0,0.645,,,,,,kettle_08s.jpg,0.0,clockno_default.jpg,1.0,23,,,,,,,,,,,,,,,,,,0.0,2.0,2.0,2.0,1.0,,,,,,,,,,
0.0,1.0,0.639,,,,,,cotton_candy_01b.jpg,0.0,clockno_default.jpg,1.0,23,,,,,,,,,,,,,,,,,,0.0,3.0,3.0,3.0,1.0,,,,,,,,,,
1.0,1.0,1.547,,,,,,kettle_08s.jpg,1.0,clockno_default.jpg,1.0,23,,,,,,,,,,,,,,,,,,0.0,4.0,4.0,4.0,1.0,,,,,,,,,,
0.0,1.0,0.981,,,,,,lamb_04s.jpg,0.0,clockno_default.jpg,1.0,23,,,,,,,,,,,,,,,,,,0.0,5.0,5.0,5.0,1.0,,,,,,,,,,
0.0,1.0,0.937,,,,,,checkbook_11s.jpg,0.0,clockno_up.jpg,2.0,23,,,,,,,,,,,,,,,,,,0.0,6.0,6.0,6.0,1.0,,,,,,,,,,
0.0,1.0,0.896,,,,,,gargoyle_08s.jpg,0.0,clockno_default.jpg,2.0,23,,,,,,,,,,,,,,,,,,0.0,7.0,7.0,7.0,1.0,,,,,,,,,,
0.0,1.0,0.502,,,,,,megaphone_03s.jpg,0.0,clockno_default.jpg,2.0,23,,,,,,,,,,,,,,,,,,0.0,8.0,8.0,8.0,1.0,,,,,,,,,,
0.0,1.0,0.666,,,,,,dirt_bike_11s.jpg,0.0,clockno_default.jpg,2.0,23,,,,,,,,,,,,,,,,,,0.0,9.0,9.0,9.0,1.0,,,,,,,,,,
0.0,1.0,0.45,,,,,,stamp2_08s.jpg,0.0,clockno_default.jpg,2.0,23,,,,,,,,,,,,,,,,,,0.0,10.0,10.0,10.0,1.0,,,,,,,,,,
0.0,1.0,0.963,,,,,,rope_16s.jpg,0.0,clockno_default.jpg,2.0,23,,,,,,,,,,,,,,,,,,0.0,11.0,11.0,11.0,1.0,,,,,,,,,,
0.0,1.0,0.548,,,,,,lamb_chop_07s.jpg,0.0,clockno_default.jpg,2.0,23,,,,,,,,,,,,,,,,,,0.0,12.0,12.0,12.0,1.0,,,,,,,,,,
0.0,1.0,0.571,,,,,,taxi_15s.jpg,0.0,clockno_up.jpg,3.0,23,,,,,,,,,,,,,,,,,,0.0,13.0,13.0,13.0,1.0,,,,,,,,,,
0.0,1.0,0.511,,,,,,recliner_02s.jpg,0.0,clockno_default.jpg,3.0,23,,,,,,,,,,,,,,,,,,0.0,14.0,14.0,14.0,1.0,,,,,,,,,,
0.0,1.0,0.549,,,,,,jelly_bean_06s.jpg,0.0,clockno_default.jpg,3.0,23,,,,,,,,,,,,,,,,,,0.0,15.0,15.0,15.0,1.0,,,,,,,,,,
0.0,1.0,0.553,,,,,,smoothie_09s.jpg,0.0,clockno_default.jpg,3.0,23,,,,,,,,,,,,,,,,,,0.0,16.0,16.0,16.0,1.0,,,,,,,,,,
0.0,0.0,0.681,,,,,,taxi_15s.jpg,1.0,clockno_default.jpg,3.0,23,,,,,,,,,,,,,,,,,,0.0,17.0,17.0,17.0,1.0,,,,,,,,,,
1.0,1.0,0.567,,,,,,taxi_15s.jpg,1.0,clockno_default.jpg,3.0,23,,,,,,,,,,,,,,,,,,0.0,18.0,18.0,18.0,1.0,,,,,,,,,,
0.0,1.0,0.611,,,,,,sushi_08s.jpg,0.0,clockno_default.jpg,3.0,23,,,,,,,,,,,,,,,,,,0.0,19.0,19.0,19.0,1.0,,,,,,,,,,
0.0,1.0,0.613,,,,,,penlight_12s.jpg,0.0,clockno_up.jpg,4.0,23,,,,,,,,,,,,,,,,,,0.0,20.0,20.0,20.0,1.0,,,,,,,,,,
1.0,1.0,0.821,,,,,,penlight_12s.jpg,1.0,clockno_default.jpg,4.0,23,,,,,,,,,,,,,,,,,,0.0,21.0,21.0,21.0,1.0,,,,,,,,,,
1.0,1.0,0.854,,,,,,penlight_12s.jpg,1.0,clockno_default.jpg,4.0,23,,,,,,,,,,,,,,,,,,0.0,22.0,22.0,22.0,1.0,,,,,,,,,,
0.0,1.0,0.593,,,,,,jet_15s.jpg,0.0,clockno_default.jpg,4.0,23,,,,,,,,,,,,,,,,,,0.0,23.0,23.0,23.0,1.0,,,,,,,,,,
0.0,1.0,0.797,,,,,,power_line_08s.jpg,0.0,clockno_default.jpg,4.0,23,,,,,,,,,,,,,,,,,,0.0,24.0,24.0,24.0,1.0,,,,,,,,,,
0.0,1.0,0.512,,,,,,orange_12s.jpg,0.0,clockno_up.jpg,5.0,23,,,,,,,,,,,,,,,,,,0.0,25.0,25.0,25.0,1.0,,,,,,,,,,
0.0,1.0,0.446,,,,,,fishhook_06s.jpg,0.0,clockno_default.jpg,5.0,23,,,,,,,,,,,,,,,,,,0.0,26.0,26.0,26.0,1.0,,,,,,,,,,
0.0,1.0,0.482,,,,,,crystal_ball_12s.jpg,0.0,clockno_default.jpg,5.0,23,,,,,,,,,,,,,,,,,,0.0,27.0,27.0,27.0,1.0,,,,,,,,,,
0.0,1.0,0.83,,,,,,taxi_15s.jpg,0.0,clockno_default.jpg,5.0,23,,,,,,,,,,,,,,,,,,0.0,28.0,28.0,28.0,1.0,,,,,,,,,,
0.0,1.0,0.718,,,,,,pineapple_12s.jpg,0.0,clockno_default.jpg,5.0,23,,,,,,,,,,,,,,,,,,0.0,29.0,29.0,29.0,1.0,,,,,,,,,,
0.0,1.0,0.477,,,,,,tulip_02s.jpg,0.0,clockno_default.jpg,5.0,23,,,,,,,,,,,,,,,,,,0.0,30.0,30.0,30.0,1.0,,,,,,,,,,
0.0,1.0,0.504,,,,,,tongs_08s.jpg,0.0,clockno_up.jpg,6.0,23,,,,,,,,,,,,,,,,,,0.0,31.0,31.0,31.0,1.0,,,,,,,,,,
0.0,1.0,0.438,,,,,,orchid_01b.jpg,0.0,clockno_default.jpg,6.0,23,,,,,,,,,,,,,,,,,,0.0,32.0,32.0,32.0,1.0,,,,,,,,,,
1.0,1.0,0.997,,,,,,tongs_08s.jpg,1.0,clockno_default.jpg,6.0,23,,,,,,,,,,,,,,,,,,0.0,33.0,33.0,33.0,1.0,,,,,,,,,,
0.0,0.0,1.105,,,,,,tongs_08s.jpg,1.0,clockno_default.jpg,6.0,23,,,,,,,,,,,,,,,,,,0.0,34.0,34.0,34.0,1.0,,,,,,,,,,
0.0,0.0,0.981,,,,,,orchid_01b.jpg,1.0,clockno_default.jpg,6.0,23,,,,,,,,,,,,,,,,,,0.0,35.0,35.0,35.0,1.0,,,,,,,,,,
,,,,,,,,,1.0,,,23,0.0,0.0,1.352,,,,,,cotton_candy_01b.jpg,checkbook_11s.jpg,,,,,,,,,,,,,0.0,0.0,0.0,0.0,1.0,,,,,
,,,,,,,,,1.0,,,23,0.0,0.0,1.734,,,,,,lamb_04s.jpg,megaphone_03s.jpg,,,,,,,,,,,,,0.0,1.0,1.0,1.0,1.0,,,,,
,,,,,,,,,0.0,,,23,0.0,1.0,1.739,,,,,,recliner_02s.jpg,rope_16s.jpg,,,,,,,,,,,,,0.0,2.0,2.0,2.0,1.0,,,,,
,,,,,,,,,0.0,,,23,1.0,0.0,1.95,,,,,,stamp2_08s.jpg,gargoyle_08s.jpg,,,,,,,,,,,,,0.0,3.0,3.0,3.0,1.0,,,,,
,,,,,,,,,1.0,,,23,1.0,1.0,1.88,,,,,,smoothie_09s.jpg,sushi_08s.jpg,,,,,,,,,,,,,0.0,4.0,4.0,4.0,1.0,,,,,
,,,,,,,,,1.0,,,23,0.0,0.0,1.563,,,,,,dirt_bike_11s.jpg,lamb_chop_07s.jpg,,,,,,,,,,,,,0.0,5.0,5.0,5.0,1.0,,,,,
,,,,,,,,,,,,23,,,,,,,,,,,,,,,,clockno_present_4_8.xlsx,clockno_compare_task_4_8.xlsx,,,,,,,,,,,0.0,3.0,3.0,3.0,1.0
0.0,1.0,0.934,,,,,,ice-cream_cone_06s.jpg,0.0,clockno_up.jpg,1.0,23,,,,,,,,,,,,,,,,,,0.0,0.0,0.0,0.0,1.0,,,,,,,,,,
0.0,1.0,0.481,,,,,,teabag_12s.jpg,0.0,clockno_default.jpg,1.0,23,,,,,,,,,,,,,,,,,,0.0,1.0,1.0,1.0,1.0,,,,,,,,,,
0.0,1.0,0.391,,,,,,giraffe_11s.jpg,0.0,clockno_default.jpg,1.0,23,,,,,,,,,,,,,,,,,,0.0,2.0,2.0,2.0,1.0,,,,,,,,,,
0.0,1.0,0.3,,,,,,ivy_12s.jpg,0.0,clockno_default.jpg,1.0,23,,,,,,,,,,,,,,,,,,0.0,3.0,3.0,3.0,1.0,,,,,,,,,,
0.0,1.0,0.363,,,,,,plug_08s.jpg,0.0,clockno_default.jpg,1.0,23,,,,,,,,,,,,,,,,,,0.0,4.0,4.0,4.0,1.0,,,,,,,,,,
0.0,1.0,0.637,,,,,,sparkler_02s.jpg,0.0,clockno_default.jpg,1.0,23,,,,,,,,,,,,,,,,,,0.0,5.0,5.0,5.0,1.0,,,,,,,,,,
0.0,1.0,0.661,,,,,,otter_05s.jpg,0.0,clockno_default.jpg,1.0,23,,,,,,,,,,,,,,,,,,0.0,6.0,6.0,6.0,1.0,,,,,,,,,,
0.0,1.0,0.506,,,,,,tie_03s.jpg,0.0,clockno_up.jpg,2.0,23,,,,,,,,,,,,,,,,,,0.0,7.0,7.0,7.0,1.0,,,,,,,,,,
0.0,0.0,0.73,,,,,,tie_03s.jpg,1.0,clockno_default.jpg,2.0,23,,,,,,,,,,,,,,,,,,0.0,8.0,8.0,8.0,1.0,,,,,,,,,,
0.0,1.0,2.133,,,,,,petri_dish_12s.jpg,0.0,clockno_default.jpg,2.0,23,,,,,,,,,,,,,,,,,,0.0,9.0,9.0,9.0,1.0,,,,,,,,,,
0.0,1.0,0.536,,,,,,squirrel_02s.jpg,0.0,clockno_default.jpg,2.0,23,,,,,,,,,,,,,,,,,,0.0,10.0,10.0,10.0,1.0,,,,,,,,,,
0.0,1.0,0.899,,,,,,ivy_12s.jpg,0.0,clockno_default.jpg,2.0,23,,,,,,,,,,,,,,,,,,0.0,11.0,11.0,11.0,1.0,,,,,,,,,,
1.0,1.0,1.179,,,,,,squirrel_02s.jpg,1.0,clockno_default.jpg,2.0,23,,,,,,,,,,,,,,,,,,0.0,12.0,12.0,12.0,1.0,,,,,,,,,,
0.0,1.0,0.82,,,,,,spider_web_03s.jpg,0.0,clockno_up.jpg,3.0,23,,,,,,,,,,,,,,,,,,0.0,13.0,13.0,13.0,1.0,,,,,,,,,,
0.0,1.0,0.77,,,,,,toaster_03s.jpg,0.0,clockno_default.jpg,3.0,23,,,,,,,,,,,,,,,,,,0.0,14.0,14.0,14.0,1.0,,,,,,,,,,
0.0,1.0,0.786,,,,,,thumbtack_14s.jpg,0.0,clockno_default.jpg,3.0,23,,,,,,,,,,,,,,,,,,0.0,15.0,15.0,15.0,1.0,,,,,,,,,,
0.0,1.0,0.731,,,,,,moth_06n.jpg,0.0,clockno_default.jpg,3.0,23,,,,,,,,,,,,,,,,,,0.0,16.0,16.0,16.0,1.0,,,,,,,,,,
0.0,1.0,0.81,,,,,,coral_08s.jpg,0.0,clockno_default.jpg,3.0,23,,,,,,,,,,,,,,,,,,0.0,17.0,17.0,17.0,1.0,,,,,,,,,,
0.0,1.0,0.465,,,,,,lamppost_09s.jpg,0.0,clockno_default.jpg,3.0,23,,,,,,,,,,,,,,,,,,0.0,18.0,18.0,18.0,1.0,,,,,,,,,,
0.0,1.0,0.647,,,,,,prism_10s.jpg,0.0,clockno_up.jpg,4.0,23,,,,,,,,,,,,,,,,,,0.0,19.0,19.0,19.0,1.0,,,,,,,,,,
0.0,1.0,0.856,,,,,,tie_03s.jpg,0.0,clockno_default.jpg,4.0,23,,,,,,,,,,,,,,,,,,0.0,20.0,20.0,20.0,1.0,,,,,,,,,,
0.0,1.0,0.835,,,,,,pumpkin_03s.jpg,0.0,clockno_default.jpg,4.0,23,,,,,,,,,,,,,,,,,,0.0,21.0,21.0,21.0,1.0,,,,,,,,,,
1.0,1.0,0.555,,,,,,pumpkin_03s.jpg,1.0,clockno_default.jpg,4.0,23,,,,,,,,,,,,,,,,,,0.0,22.0,22.0,22.0,1.0,,,,,,,,,,
0.0,1.0,0.848,,,,,,bacon_05s.jpg,0.0,clockno_default.jpg,4.0,23,,,,,,,,,,,,,,,,,,0.0,23.0,23.0,23.0,1.0,,,,,,,,,,
0.0,1.0,0.721,,,,,,mold2_04s.jpg,0.0,clockno_up.jpg,5.0,23,,,,,,,,,,,,,,,,,,0.0,24.0,24.0,24.0,1.0,,,,,,,,,,
0.0,1.0,0.772,,,,,,pumpkin_03s.jpg,0.0,clockno_default.jpg,5.0,23,,,,,,,,,,,,,,,,,,0.0,25.0,25.0,25.0,1.0,,,,,,,,,,
0.0,1.0,0.786,,,,,,police_car_01s.jpg,0.0,clockno_default.jpg,5.0,23,,,,,,,,,,,,,,,,,,0.0,26.0,26.0,26.0,1.0,,,,,,,,,,
0.0,1.0,2.345,,,,,,limousine_12s.jpg,0.0,clockno_default.jpg,5.0,23,,,,,,,,,,,,,,,,,,0.0,27.0,27.0,27.0,1.0,,,,,,,,,,
0.0,1.0,0.479,,,,,,pump_11s.jpg,0.0,clockno_default.jpg,5.0,23,,,,,,,,,,,,,,,,,,0.0,28.0,28.0,28.0,1.0,,,,,,,,,,
0.0,1.0,0.572,,,,,,raspberry_12s.jpg,0.0,clockno_default.jpg,5.0,23,,,,,,,,,,,,,,,,,,0.0,29.0,29.0,29.0,1.0,,,,,,,,,,
0.0,1.0,0.357,,,,,,bee_20s.jpg,0.0,clockno_default.jpg,5.0,23,,,,,,,,,,,,,,,,,,0.0,30.0,30.0,30.0,1.0,,,,,,,,,,
0.0,1.0,0.613,,,,,,machine_gun_09s.jpg,0.0,clockno_up.jpg,6.0,23,,,,,,,,,,,,,,,,,,0.0,31.0,31.0,31.0,1.0,,,,,,,,,,
1.0,1.0,1.457,,,,,,machine_gun_09s.jpg,1.0,clockno_default.jpg,6.0,23,,,,,,,,,,,,,,,,,,0.0,32.0,32.0,32.0,1.0,,,,,,,,,,
0.0,1.0,0.982,,,,,,boomerang_06s.jpg,0.0,clockno_default.jpg,6.0,23,,,,,,,,,,,,,,,,,,0.0,33.0,33.0,33.0,1.0,,,,,,,,,,
0.0,1.0,0.663,,,,,,roulette_wheel_04s.jpg,0.0,clockno_default.jpg,6.0,23,,,,,,,,,,,,,,,,,,0.0,34.0,34.0,34.0,1.0,,,,,,,,,,
0.0,1.0,0.636,,,,,,perfume_06s.jpg,0.0,clockno_default.jpg,6.0,23,,,,,,,,,,,,,,,,,,0.0,35.0,35.0,35.0,1.0,,,,,,,,,,
,,,,,,,,,0.0,,,23,1.0,0.0,2.252,,,,,,petri_dish_12s.jpg,otter_05s.jpg,,,,,,,,,,,,,0.0,0.0,0.0,0.0,1.0,,,,,
,,,,,,,,,0.0,,,23,0.0,1.0,1.346,,,,,,prism_10s.jpg,moth_06n.jpg,,,,,,,,,,,,,0.0,1.0,1.0,1.0,1.0,,,,,
,,,,,,,,,1.0,,,23,1.0,1.0,2.347,,,,,,bacon_05s.jpg,police_car_01s.jpg,,,,,,,,,,,,,0.0,2.0,2.0,2.0,1.0,,,,,
,,,,,,,,,1.0,,,23,1.0,1.0,1.415,,,,,,teabag_12s.jpg,plug_08s.jpg,,,,,,,,,,,,,0.0,3.0,3.0,3.0,1.0,,,,,
,,,,,,,,,0.0,,,23,1.0,0.0,1.081,,,,,,sparkler_02s.jpg,giraffe_11s.jpg,,,,,,,,,,,,,0.0,4.0,4.0,4.0,1.0,,,,,
,,,,,,,,,0.0,,,23,0.0,1.0,1.639,,,,,,coral_08s.jpg,toaster_03s.jpg,,,,,,,,,,,,,0.0,5.0,5.0,5.0,1.0,,,,,
,,,,,,,,,,,,23,,,,,,,,,,,,,,,,clockno_present_5_8.xlsx,clockno_compare_task_5_8.xlsx,,,,,,,,,,,0.0,4.0,4.0,4.0,1.0
0.0,1.0,0.48,,,,,,rooster_03s.jpg,0.0,clockno_up.jpg,1.0,23,,,,,,,,,,,,,,,,,,0.0,0.0,0.0,0.0,1.0,,,,,,,,,,
0.0,0.0,0.447,,,,,,rooster_03s.jpg,1.0,clockno_default.jpg,1.0,23,,,,,,,,,,,,,,,,,,0.0,1.0,1.0,1.0,1.0,,,,,,,,,,
1.0,1.0,0.581,,,,,,rooster_03s.jpg,1.0,clockno_default.jpg,1.0,23,,,,,,,,,,,,,,,,,,0.0,2.0,2.0,2.0,1.0,,,,,,,,,,
0.0,1.0,0.603,,,,,,birdcage_08s.jpg,0.0,clockno_default.jpg,1.0,23,,,,,,,,,,,,,,,,,,0.0,3.0,3.0,3.0,1.0,,,,,,,,,,
1.0,1.0,0.7,,,,,,birdcage_08s.jpg,1.0,clockno_default.jpg,1.0,23,,,,,,,,,,,,,,,,,,0.0,4.0,4.0,4.0,1.0,,,,,,,,,,
0.0,1.0,1.229,,,,,,bowler_hat_10s.jpg,0.0,clockno_default.jpg,1.0,23,,,,,,,,,,,,,,,,,,0.0,5.0,5.0,5.0,1.0,,,,,,,,,,
0.0,1.0,0.687,,,,,,potholder_02s.jpg,0.0,clockno_up.jpg,2.0,23,,,,,,,,,,,,,,,,,,0.0,6.0,6.0,6.0,1.0,,,,,,,,,,
0.0,1.0,0.89,,,,,,rooster_03s.jpg,0.0,clockno_default.jpg,2.0,23,,,,,,,,,,,,,,,,,,0.0,7.0,7.0,7.0,1.0,,,,,,,,,,
0.0,1.0,0.696,,,,,,mango_09s.jpg,0.0,clockno_default.jpg,2.0,23,,,,,,,,,,,,,,,,,,0.0,8.0,8.0,8.0,1.0,,,,,,,,,,
0.0,0.0,0.812,,,,,,rooster_03s.jpg,1.0,clockno_default.jpg,2.0,23,,,,,,,,,,,,,,,,,,0.0,9.0,9.0,9.0,1.0,,,,,,,,,,
0.0,1.0,0.781,,,,,,orangutan_03s.jpg,0.0,clockno_default.jpg,2.0,23,,,,,,,,,,,,,,,,,,0.0,10.0,10.0,10.0,1.0,,,,,,,,,,
0.0,1.0,0.679,,,,,,latch_15s.jpg,0.0,clockno_default.jpg,2.0,23,,,,,,,,,,,,,,,,,,0.0,11.0,11.0,11.0,1.0,,,,,,,,,,
0.0,1.0,0.513,,,,,,soccer_ball_12s.jpg,0.0,clockno_default.jpg,2.0,23,,,,,,,,,,,,,,,,,,0.0,12.0,12.0,12.0,1.0,,,,,,,,,,
0.0,1.0,0.93,,,,,,gear_07s.jpg,0.0,clockno_up.jpg,3.0,23,,,,,,,,,,,,,,,,,,0.0,13.0,13.0,13.0,1.0,,,,,,,,,,
1.0,1.0,0.706,,,,,,gear_07s.jpg,1.0,clockno_default.jpg,3.0,23,,,,,,,,,,,,,,,,,,0.0,14.0,14.0,14.0,1.0,,,,,,,,,,
0.0,1.0,0.864,,,,,,flip_flop_03s.jpg,0.0,clockno_default.jpg,3.0,23,,,,,,,,,,,,,,,,,,0.0,15.0,15.0,15.0,1.0,,,,,,,,,,
0.0,1.0,0.612,,,,,,coffee_filter_10s.jpg,0.0,clockno_default.jpg,3.0,23,,,,,,,,,,,,,,,,,,0.0,16.0,16.0,16.0,1.0,,,,,,,,,,
1.0,1.0,0.991,,,,,,coffee_filter_10s.jpg,1.0,clockno_default.jpg,3.0,23,,,,,,,,,,,,,,,,,,0.0,17.0,17.0,17.0,1.0,,,,,,,,,,
0.0,1.0,0.799,,,,,,golf_club_03s.jpg,0.0,clockno_up.jpg,4.0,23,,,,,,,,,,,,,,,,,,0.0,18.0,18.0,18.0,1.0,,,,,,,,,,
0.0,1.0,0.944,,,,,,icemaker_10s.jpg,0.0,clockno_default.jpg,4.0,23,,,,,,,,,,,,,,,,,,0.0,19.0,19.0,19.0,1.0,,,,,,,,,,
0.0,1.0,0.83,,,,,,sleeping_bag_12s.jpg,0.0,clockno_default.jpg,4.0,23,,,,,,,,,,,,,,,,,,0.0,20.0,20.0,20.0,1.0,,,,,,,,,,
0.0,1.0,0.504,,,,,,tape_06s.jpg,0.0,clockno_default.jpg,4.0,23,,,,,,,,,,,,,,,,,,0.0,21.0,21.0,21.0,1.0,,,,,,,,,,
0.0,1.0,0.787,,,,,,red_carpet_03s.jpg,0.0,clockno_default.jpg,4.0,23,,,,,,,,,,,,,,,,,,0.0,22.0,22.0,22.0,1.0,,,,,,,,,,
1.0,1.0,0.904,,,,,,red_carpet_03s.jpg,1.0,clockno_default.jpg,4.0,23,,,,,,,,,,,,,,,,,,0.0,23.0,23.0,23.0,1.0,,,,,,,,,,
0.0,0.0,1.25,,,,,,sleeping_bag_12s.jpg,1.0,clockno_default.jpg,4.0,23,,,,,,,,,,,,,,,,,,0.0,24.0,24.0,24.0,1.0,,,,,,,,,,
0.0,1.0,0.937,,,,,,quilt_03s.jpg,0.0,clockno_up.jpg,5.0,23,,,,,,,,,,,,,,,,,,0.0,25.0,25.0,25.0,1.0,,,,,,,,,,
0.0,1.0,0.597,,,,,,torch_02s.jpg,0.0,clockno_default.jpg,5.0,23,,,,,,,,,,,,,,,,,,0.0,26.0,26.0,26.0,1.0,,,,,,,,,,
0.0,1.0,0.496,,,,,,pancake_12s.jpg,0.0,clockno_default.jpg,5.0,23,,,,,,,,,,,,,,,,,,0.0,27.0,27.0,27.0,1.0,,,,,,,,,,
0.0,1.0,0.635,,,,,,umbrella_15s.jpg,0.0,clockno_default.jpg,5.0,23,,,,,,,,,,,,,,,,,,0.0,28.0,28.0,28.0,1.0,,,,,,,,,,
0.0,1.0,0.466,,,,,,measuring_cup_02s.jpg,0.0,clockno_default.jpg,5.0,23,,,,,,,,,,,,,,,,,,0.0,29.0,29.0,29.0,1.0,,,,,,,,,,
0.0,1.0,0.58,,,,,,briefcase_03s.jpg,0.0,clockno_up.jpg,6.0,23,,,,,,,,,,,,,,,,,,0.0,30.0,30.0,30.0,1.0,,,,,,,,,,
0.0,1.0,0.797,,,,,,birdcage_08s.jpg,0.0,clockno_default.jpg,6.0,23,,,,,,,,,,,,,,,,,,0.0,31.0,31.0,31.0,1.0,,,,,,,,,,
0.0,1.0,0.538,,,,,,trumpet_06s.jpg,0.0,clockno_default.jpg,6.0,23,,,,,,,,,,,,,,,,,,0.0,32.0,32.0,32.0,1.0,,,,,,,,,,
0.0,1.0,0.844,,,,,,pepper_mill_03s.jpg,0.0,clockno_default.jpg,6.0,23,,,,,,,,,,,,,,,,,,0.0,33.0,33.0,33.0,1.0,,,,,,,,,,
0.0,1.0,0.53,,,,,,turtle_08s.jpg,0.0,clockno_default.jpg,6.0,23,,,,,,,,,,,,,,,,,,0.0,34.0,34.0,34.0,1.0,,,,,,,,,,
0.0,1.0,0.902,,,,,,juicer1_08s.jpg,0.0,clockno_default.jpg,6.0,23,,,,,,,,,,,,,,,,,,0.0,35.0,35.0,35.0,1.0,,,,,,,,,,
,,,,,,,,,1.0,,,23,0.0,0.0,1.213,,,,,,soccer_ball_12s.jpg,flip_flop_03s.jpg,,,,,,,,,,,,,0.0,0.0,0.0,0.0,1.0,,,,,
,,,,,,,,,1.0,,,23,1.0,1.0,1.337,,,,,,bowler_hat_10s.jpg,mango_09s.jpg,,,,,,,,,,,,,0.0,1.0,1.0,1.0,1.0,,,,,
,,,,,,,,,1.0,,,23,1.0,1.0,1.726,,,,,,pancake_12s.jpg,briefcase_03s.jpg,,,,,,,,,,,,,0.0,2.0,2.0,2.0,1.0,,,,,
,,,,,,,,,0.0,,,23,1.0,0.0,1.372,,,,,,umbrella_15s.jpg,quilt_03s.jpg,,,,,,,,,,,,,0.0,3.0,3.0,3.0,1.0,,,,,
,,,,,,,,,0.0,,,23,1.0,0.0,1.658,,,,,,tape_06s.jpg,golf_club_03s.jpg,,,,,,,,,,,,,0.0,4.0,4.0,4.0,1.0,,,,,
,,,,,,,,,1.0,,,23,1.0,1.0,0.96,,,,,,torch_02s.jpg,measuring_cup_02s.jpg,,,,,,,,,,,,,0.0,5.0,5.0,5.0,1.0,,,,,
