key_resp.keys,key_resp.corr,key_resp.rt,noclock_loop.thisRepN,noclock_loop.thisTrialN,noclock_loop.thisN,noclock_loop.thisIndex,noclock_loop.ran,pictures,answer,clock,segment,participant,key_resp_2.keys,key_resp_2.corr,key_resp_2.rt,noclock_loop2.thisRepN,noclock_loop2.thisTrialN,noclock_loop2.thisN,noclock_loop2.thisIndex,noclock_loop2.ran,item_a,item_b,noclock_condition.thisRepN,noclock_condition.thisTrialN,noclock_condition.thisN,noclock_condition.thisIndex,noclock_condition.ran,present,compare,present_segment.thisRepN,present_segment.thisTrialN,present_segment.thisN,present_segment.thisIndex,present_segment.ran,compare_segment.thisRepN,compare_segment.thisTrialN,compare_segment.thisN,compare_segment.thisIndex,compare_segment.ran,clock_conditions.thisRepN,clock_conditions.thisTrialN,clock_conditions.thisN,clock_conditions.thisIndex,clock_conditions.ran
0.0,1.0,1.072825,0.0,0.0,0.0,0.0,1.0,tube_top_03s.jpg,0.0,clockno_up.jpg,1.0,54,,,,,,,,,,,,,,,,,,,,,,,,,,,,,,,,
1.0,1.0,1.375505,0.0,1.0,1.0,1.0,1.0,tube_top_03s.jpg,1.0,clockno_default.jpg,1.0,54,,,,,,,,,,,,,,,,,,,,,,,,,,,,,,,,
0.0,1.0,1.19567,0.0,2.0,2.0,2.0,1.0,piggy_bank_02s.jpg,0.0,clockno_default.jpg,1.0,54,,,,,,,,,,,,,,,,,,,,,,,,,,,,,,,,
1.0,0.0,1.05457,0.0,3.0,3.0,3.0,1.0,peach_04s.jpg,0.0,clockno_default.jpg,1.0,54,,,,,,,,,,,,,,,,,,,,,,,,,,,,,,,,
0.0,1.0,0.996565,0.0,4.0,4.0,4.0,1.0,petri_dish_12s.jpg,0.0,clockno_default.jpg,1.0,54,,,,,,,,,,,,,,,,,,,,,,,,,,,,,,,,
1.0,0.0,1.20223,0.0,5.0,5.0,5.0,1.0,memory_stick_11s.jpg,0.0,clockno_default.jpg,1.0,54,,,,,,,,,,,,,,,,,,,,,,,,,,,,,,,,
0.0,0.0,0.659915,0.0,6.0,6.0,6.0,1.0,piggy_bank_02s.jpg,1.0,clockno_default.jpg,1.0,54,,,,,,,,,,,,,,,,,,,,,,,,,,,,,,,,
1.0,0.0,0.62632,0.0,7.0,7.0,7.0,1.0,tweezers_03s.jpg,0.0,clockno_up.jpg,2.0,54,,,,,,,,,,,,,,,,,,,,,,,,,,,,,,,,
,0.0,,0.0,8.0,8.0,8.0,1.0,coffee_filter_10s.jpg,0.0,clockno_default.jpg,2.0,54,,,,,,,,,,,,,,,,,,,,,,,,,,,,,,,,
,0.0,,0.0,9.0,9.0,9.0,1.0,tambourine_06s.jpg,0.0,clockno_default.jpg,2.0,54,,,,,,,,,,,,,,,,,,,,,,,,,,,,,,,,
,0.0,,0.0,10.0,10.0,10.0,1.0,ukulele_02s.jpg,0.0,clockno_default.jpg,2.0,54,,,,,,,,,,,,,,,,,,,,,,,,,,,,,,,,
,0.0,,0.0,11.0,11.0,11.0,1.0,towel_rack_04s.jpg,0.0,clockno_default.jpg,2.0,54,,,,,,,,,,,,,,,,,,,,,,,,,,,,,,,,
,0.0,,0.0,12.0,12.0,12.0,1.0,ravioli_08s.jpg,0.0,clockno_up.jpg,3.0,54,,,,,,,,,,,,,,,,,,,,,,,,,,,,,,,,
,0.0,,0.0,13.0,13.0,13.0,1.0,ravioli_08s.jpg,1.0,clockno_default.jpg,3.0,54,,,,,,,,,,,,,,,,,,,,,,,,,,,,,,,,
,0.0,,0.0,14.0,14.0,14.0,1.0,peanut_butter_08s.jpg,0.0,clockno_default.jpg,3.0,54,,,,,,,,,,,,,,,,,,,,,,,,,,,,,,,,
,0.0,,0.0,15.0,15.0,15.0,1.0,sledgehammer_03s.jpg,0.0,clockno_default.jpg,3.0,54,,,,,,,,,,,,,,,,,,,,,,,,,,,,,,,,
,0.0,,0.0,16.0,16.0,16.0,1.0,syringe_02s.jpg,0.0,clockno_default.jpg,3.0,54,,,,,,,,,,,,,,,,,,,,,,,,,,,,,,,,
,0.0,,0.0,17.0,17.0,17.0,1.0,quilt_03s.jpg,0.0,clockno_default.jpg,3.0,54,,,,,,,,,,,,,,,,,,,,,,,,,,,,,,,,
,0.0,,0.0,18.0,18.0,18.0,1.0,syringe_02s.jpg,1.0,clockno_default.jpg,3.0,54,,,,,,,,,,,,,,,,,,,,,,,,,,,,,,,,
,0.0,,0.0,19.0,19.0,19.0,1.0,radiator_05s.jpg,0.0,clockno_up.jpg,4.0,54,,,,,,,,,,,,,,,,,,,,,,,,,,,,,,,,
,0.0,,0.0,20.0,20.0,20.0,1.0,jelly_bean_06s.jpg,0.0,clockno_default.jpg,4.0,54,,,,,,,,,,,,,,,,,,,,,,,,,,,,,,,,
,0.0,,0.0,21.0,21.0,21.0,1.0,top_hat_11s.jpg,0.0,clockno_default.jpg,4.0,54,,,,,,,,,,,,,,,,,,,,,,,,,,,,,,,,
,0.0,,0.0,22.0,22.0,22.0,1.0,radiator_05s.jpg,1.0,clockno_default.jpg,4.0,54,,,,,,,,,,,,,,,,,,,,,,,,,,,,,,,,
,0.0,,0.0,23.0,23.0,23.0,1.0,contact_lens_15s.jpg,0.0,clockno_default.jpg,4.0,54,,,,,,,,,,,,,,,,,,,,,,,,,,,,,,,,
0.0,1.0,2.428865,0.0,24.0,24.0,24.0,1.0,rake_06s.jpg,0.0,clockno_default.jpg,4.0,54,,,,,,,,,,,,,,,,,,,,,,,,,,,,,,,,
0.0,1.0,2.335025,0.0,25.0,25.0,25.0,1.0,surfboard_11s.jpg,0.0,clockno_up.jpg,5.0,54,,,,,,,,,,,,,,,,,,,,,,,,,,,,,,,,
0.0,1.0,0.940355,0.0,26.0,26.0,26.0,1.0,toy_04s.jpg,0.0,clockno_default.jpg,5.0,54,,,,,,,,,,,,,,,,,,,,,,,,,,,,,,,,
,0.0,,0.0,27.0,27.0,27.0,1.0,raccoon_02s.jpg,0.0,clockno_default.jpg,5.0,54,,,,,,,,,,,,,,,,,,,,,,,,,,,,,,,,
0.0,1.0,2.46248,0.0,28.0,28.0,28.0,1.0,phone_01b.jpg,0.0,clockno_default.jpg,5.0,54,,,,,,,,,,,,,,,,,,,,,,,,,,,,,,,,
0.0,1.0,2.343075,0.0,29.0,29.0,29.0,1.0,ukulele_02s.jpg,0.0,clockno_default.jpg,5.0,54,,,,,,,,,,,,,,,,,,,,,,,,,,,,,,,,
0.0,1.0,2.413045,0.0,30.0,30.0,30.0,1.0,raft_09s.jpg,0.0,clockno_default.jpg,5.0,54,,,,,,,,,,,,,,,,,,,,,,,,,,,,,,,,
,0.0,,0.0,31.0,31.0,31.0,1.0,kettle_08s.jpg,0.0,clockno_up.jpg,6.0,54,,,,,,,,,,,,,,,,,,,,,,,,,,,,,,,,
0.0,1.0,2.341895,0.0,32.0,32.0,32.0,1.0,target_11s.jpg,0.0,clockno_default.jpg,6.0,54,,,,,,,,,,,,,,,,,,,,,,,,,,,,,,,,
0.0,1.0,2.025465,0.0,33.0,33.0,33.0,1.0,icicle_04s.jpg,0.0,clockno_default.jpg,6.0,54,,,,,,,,,,,,,,,,,,,,,,,,,,,,,,,,
0.0,1.0,1.7916,0.0,34.0,34.0,34.0,1.0,timer_03s.jpg,0.0,clockno_default.jpg,6.0,54,,,,,,,,,,,,,,,,,,,,,,,,,,,,,,,,
0.0,0.0,2.176035,0.0,35.0,35.0,35.0,1.0,timer_03s.jpg,1.0,clockno_default.jpg,6.0,54,,,,,,,,,,,,,,,,,,,,,,,,,,,,,,,,
,,,,,,,,,0.0,,,54,1.0,0.0,1.480465,0.0,0.0,0.0,0.0,1.0,tweezers_03s.jpg,petri_dish_12s.jpg,,,,,,,,,,,,,,,,,,,,,,
,,,,,,,,,1.0,,,54,1.0,1.0,0.150015,0.0,1.0,1.0,1.0,1.0,memory_stick_11s.jpg,coffee_filter_10s.jpg,,,,,,,,,,,,,,,,,,,,,,
,,,,,,,,,0.0,,,54,0.0,1.0,1.08305,0.0,2.0,2.0,2.0,1.0,toy_04s.jpg,contact_lens_15s.jpg,,,,,,,,,,,,,,,,,,,,,,
,,,,,,,,,0.0,,,54,0.0,1.0,0.65016,0.0,3.0,3.0,3.0,1.0,rake_06s.jpg,top_hat_11s.jpg,,,,,,,,,,,,,,,,,,,,,,
,,,,,,,,,0.0,,,54,1.0,0.0,0.22538,0.0,4.0,4.0,4.0,1.0,phone_01b.jpg,surfboard_11s.jpg,,,,,,,,,,,,,,,,,,,,,,
,,,,,,,,,1.0,,,54,0.0,0.0,0.138055,0.0,5.0,5.0,5.0,1.0,peanut_butter_08s.jpg,quilt_03s.jpg,,,,,,,,,,,,,,,,,,,,,,
,,,,,,,,,,,,54,,,,,,,,,,,0.0,0.0,0.0,0.0,1.0,clockno_present_1_16.xlsx,clockno_compare_task_1_16.xlsx,,,,,,,,,,,,,,,
0.0,1.0,2.45062,0.0,0.0,0.0,0.0,1.0,juicer2_06s.jpg,0.0,clockno_up.jpg,1.0,54,,,,,,,,,,,,,,,,,,,,,,,,,,,,,,,,
0.0,1.0,0.613615,0.0,1.0,1.0,1.0,1.0,potholder_02s.jpg,0.0,clockno_default.jpg,1.0,54,,,,,,,,,,,,,,,,,,,,,,,,,,,,,,,,
0.0,1.0,2.3505,0.0,2.0,2.0,2.0,1.0,pencil02a.jpg,0.0,clockno_default.jpg,1.0,54,,,,,,,,,,,,,,,,,,,,,,,,,,,,,,,,
0.0,1.0,0.795285,0.0,3.0,3.0,3.0,1.0,chopsticks_08s.jpg,0.0,clockno_default.jpg,1.0,54,,,,,,,,,,,,,,,,,,,,,,,,,,,,,,,,
0.0,0.0,0.333405,0.0,4.0,4.0,4.0,1.0,potholder_02s.jpg,1.0,clockno_default.jpg,1.0,54,,,,,,,,,,,,,,,,,,,,,,,,,,,,,,,,
,0.0,,0.0,5.0,5.0,5.0,1.0,fondue_07s.jpg,0.0,clockno_up.jpg,2.0,54,,,,,,,,,,,,,,,,,,,,,,,,,,,,,,,,
0.0,1.0,0.373335,0.0,6.0,6.0,6.0,1.0,pillbox_04s.jpg,0.0,clockno_default.jpg,2.0,54,,,,,,,,,,,,,,,,,,,,,,,,,,,,,,,,
0.0,1.0,2.412375,0.0,7.0,7.0,7.0,1.0,pumpkin_03s.jpg,0.0,clockno_default.jpg,2.0,54,,,,,,,,,,,,,,,,,,,,,,,,,,,,,,,,
,0.0,,0.0,8.0,8.0,8.0,1.0,cardinal_07s.jpg,0.0,clockno_default.jpg,2.0,54,,,,,,,,,,,,,,,,,,,,,,,,,,,,,,,,
0.0,1.0,0.72071,0.0,9.0,9.0,9.0,1.0,swordfish_05s.jpg,0.0,clockno_default.jpg,2.0,54,,,,,,,,,,,,,,,,,,,,,,,,,,,,,,,,
0.0,1.0,2.38239,0.0,10.0,10.0,10.0,1.0,turkey_10s.jpg,0.0,clockno_up.jpg,3.0,54,,,,,,,,,,,,,,,,,,,,,,,,,,,,,,,,
,0.0,,0.0,11.0,11.0,11.0,1.0,road_sign_05s.jpg,0.0,clockno_default.jpg,3.0,54,,,,,,,,,,,,,,,,,,,,,,,,,,,,,,,,
0.0,0.0,2.461945,0.0,12.0,12.0,12.0,1.0,road_sign_05s.jpg,1.0,clockno_default.jpg,3.0,54,,,,,,,,,,,,,,,,,,,,,,,,,,,,,,,,
0.0,1.0,2.464135,0.0,13.0,13.0,13.0,1.0,rhubarb_03s.jpg,0.0,clockno_default.jpg,3.0,54,,,,,,,,,,,,,,,,,,,,,,,,,,,,,,,,
0.0,1.0,1.57169,0.0,14.0,14.0,14.0,1.0,ivy_12s.jpg,0.0,clockno_default.jpg,3.0,54,,,,,,,,,,,,,,,,,,,,,,,,,,,,,,,,
,0.0,,0.0,15.0,15.0,15.0,1.0,boar_10s.jpg,0.0,clockno_default.jpg,3.0,54,,,,,,,,,,,,,,,,,,,,,,,,,,,,,,,,
,0.0,,0.0,16.0,16.0,16.0,1.0,mango_09s.jpg,0.0,clockno_up.jpg,4.0,54,,,,,,,,,,,,,,,,,,,,,,,,,,,,,,,,
,0.0,,0.0,17.0,17.0,17.0,1.0,feather02.jpg,0.0,clockno_default.jpg,4.0,54,,,,,,,,,,,,,,,,,,,,,,,,,,,,,,,,
0.0,1.0,0.904465,0.0,18.0,18.0,18.0,1.0,pumpkin_03s.jpg,0.0,clockno_default.jpg,4.0,54,,,,,,,,,,,,,,,,,,,,,,,,,,,,,,,,
,0.0,,0.0,19.0,19.0,19.0,1.0,giraffe_11s.jpg,0.0,clockno_default.jpg,4.0,54,,,,,,,,,,,,,,,,,,,,,,,,,,,,,,,,
,0.0,,0.0,20.0,20.0,20.0,1.0,meatball_13s.jpg,0.0,clockno_default.jpg,4.0,54,,,,,,,,,,,,,,,,,,,,,,,,,,,,,,,,
0.0,1.0,1.381505,0.0,21.0,21.0,21.0,1.0,turkey_10s.jpg,0.0,clockno_default.jpg,4.0,54,,,,,,,,,,,,,,,,,,,,,,,,,,,,,,,,
0.0,1.0,1.51367,0.0,22.0,22.0,22.0,1.0,stump_02s.jpg,0.0,clockno_up.jpg,5.0,54,,,,,,,,,,,,,,,,,,,,,,,,,,,,,,,,
0.0,1.0,2.109395,0.0,23.0,23.0,23.0,1.0,ostrich_06s.jpg,0.0,clockno_default.jpg,5.0,54,,,,,,,,,,,,,,,,,,,,,,,,,,,,,,,,
0.0,1.0,0.377925,0.0,24.0,24.0,24.0,1.0,amber_04s.jpg,0.0,clockno_default.jpg,5.0,54,,,,,,,,,,,,,,,,,,,,,,,,,,,,,,,,
,0.0,,0.0,25.0,25.0,25.0,1.0,blender_08s.jpg,0.0,clockno_default.jpg,5.0,54,,,,,,,,,,,,,,,,,,,,,,,,,,,,,,,,
0.0,1.0,0.861245,0.0,26.0,26.0,26.0,1.0,trumpet_06s.jpg,0.0,clockno_default.jpg,5.0,54,,,,,,,,,,,,,,,,,,,,,,,,,,,,,,,,
,0.0,,0.0,27.0,27.0,27.0,1.0,ivy_12s.jpg,0.0,clockno_default.jpg,5.0,54,,,,,,,,,,,,,,,,,,,,,,,,,,,,,,,,
,0.0,,0.0,28.0,28.0,28.0,1.0,ironing_board_07s.jpg,0.0,clockno_default.jpg,5.0,54,,,,,,,,,,,,,,,,,,,,,,,,,,,,,,,,
0.0,1.0,0.7164,0.0,29.0,29.0,29.0,1.0,lavender_10s.jpg,0.0,clockno_up.jpg,6.0,54,,,,,,,,,,,,,,,,,,,,,,,,,,,,,,,,
0.0,1.0,0.45119,0.0,30.0,30.0,30.0,1.0,pea_11s.jpg,0.0,clockno_default.jpg,6.0,54,,,,,,,,,,,,,,,,,,,,,,,,,,,,,,,,
0.0,1.0,0.415395,0.0,31.0,31.0,31.0,1.0,sundae_08s.jpg,0.0,clockno_default.jpg,6.0,54,,,,,,,,,,,,,,,,,,,,,,,,,,,,,,,,
,0.0,,0.0,32.0,32.0,32.0,1.0,champagne_18s.jpg,0.0,clockno_default.jpg,6.0,54,,,,,,,,,,,,,,,,,,,,,,,,,,,,,,,,
,0.0,,0.0,33.0,33.0,33.0,1.0,turtle_08s.jpg,0.0,clockno_default.jpg,6.0,54,,,,,,,,,,,,,,,,,,,,,,,,,,,,,,,,
,0.0,,0.0,34.0,34.0,34.0,1.0,gargoyle_08s.jpg,0.0,clockno_default.jpg,6.0,54,,,,,,,,,,,,,,,,,,,,,,,,,,,,,,,,
,0.0,,0.0,35.0,35.0,35.0,1.0,crate_05s.jpg,0.0,clockno_default.jpg,6.0,54,,,,,,,,,,,,,,,,,,,,,,,,,,,,,,,,
,,,,,,,,,1.0,,,54,0.0,0.0,1.017445,0.0,0.0,0.0,0.0,1.0,pencil02a.jpg,fondue_07s.jpg,,,,,,,,,,,,,,,,,,,,,,
,,,,,,,,,0.0,,,54,1.0,0.0,1.21656,0.0,1.0,1.0,1.0,1.0,mango_09s.jpg,rhubarb_03s.jpg,,,,,,,,,,,,,,,,,,,,,,
,,,,,,,,,1.0,,,54,0.0,0.0,0.249885,0.0,2.0,2.0,2.0,1.0,chopsticks_08s.jpg,pillbox_04s.jpg,,,,,,,,,,,,,,,,,,,,,,
,,,,,,,,,0.0,,,54,0.0,1.0,0.272305,0.0,3.0,3.0,3.0,1.0,turtle_08s.jpg,pea_11s.jpg,,,,,,,,,,,,,,,,,,,,,,
,,,,,,,,,0.0,,,54,0.0,1.0,0.167095,0.0,4.0,4.0,4.0,1.0,crate_05s.jpg,champagne_18s.jpg,,,,,,,,,,,,,,,,,,,,,,
,,,,,,,,,0.0,,,54,0.0,1.0,0.36859,0.0,5.0,5.0,5.0,1.0,meatball_13s.jpg,feather02.jpg,,,,,,,,,,,,,,,,,,,,,,
,,,,,,,,,,,,54,,,,,,,,,,,0.0,1.0,1.0,1.0,1.0,clockno_present_2_16.xlsx,clockno_compare_task_2_16.xlsx,,,,,,,,,,,,,,,
0.0,1.0,0.934705,0.0,0.0,0.0,0.0,1.0,magnet_03s.jpg,0.0,clockno_up.jpg,1.0,54,,,,,,,,,,,,,,,,,,,,,,,,,,,,,,,,
0.0,1.0,0.461115,0.0,1.0,1.0,1.0,1.0,luggage_08s.jpg,0.0,clockno_default.jpg,1.0,54,,,,,,,,,,,,,,,,,,,,,,,,,,,,,,,,
0.0,1.0,1.97,0.0,2.0,2.0,2.0,1.0,fountain_pen_06s.jpg,0.0,clockno_default.jpg,1.0,54,,,,,,,,,,,,,,,,,,,,,,,,,,,,,,,,
0.0,1.0,1.348025,0.0,3.0,3.0,3.0,1.0,fur_coat_11s.jpg,0.0,clockno_default.jpg,1.0,54,,,,,,,,,,,,,,,,,,,,,,,,,,,,,,,,
0.0,1.0,1.609235,0.0,4.0,4.0,4.0,1.0,ladder_15s.jpg,0.0,clockno_default.jpg,1.0,54,,,,,,,,,,,,,,,,,,,,,,,,,,,,,,,,
0.0,1.0,0.69629,0.0,5.0,5.0,5.0,1.0,mushroom_10n.jpg,0.0,clockno_default.jpg,1.0,54,,,,,,,,,,,,,,,,,,,,,,,,,,,,,,,,
0.0,1.0,0.48689,0.0,6.0,6.0,6.0,1.0,milk_02s.jpg,0.0,clockno_up.jpg,2.0,54,,,,,,,,,,,,,,,,,,,,,,,,,,,,,,,,
0.0,1.0,0.246905,0.0,7.0,7.0,7.0,1.0,fork_04s.jpg,0.0,clockno_default.jpg,2.0,54,,,,,,,,,,,,,,,,,,,,,,,,,,,,,,,,
,0.0,,0.0,8.0,8.0,8.0,1.0,bank_06s.jpg,0.0,clockno_default.jpg,2.0,54,,,,,,,,,,,,,,,,,,,,,,,,,,,,,,,,
0.0,1.0,0.43696,0.0,9.0,9.0,9.0,1.0,paintbrush_04s.jpg,0.0,clockno_default.jpg,2.0,54,,,,,,,,,,,,,,,,,,,,,,,,,,,,,,,,
0.0,0.0,0.454345,0.0,10.0,10.0,10.0,1.0,fork_04s.jpg,1.0,clockno_default.jpg,2.0,54,,,,,,,,,,,,,,,,,,,,,,,,,,,,,,,,
0.0,1.0,0.70814,0.0,11.0,11.0,11.0,1.0,fireworks_18s.jpg,0.0,clockno_up.jpg,3.0,54,,,,,,,,,,,,,,,,,,,,,,,,,,,,,,,,
0.0,0.0,0.812495,0.0,12.0,12.0,12.0,1.0,fireworks_18s.jpg,1.0,clockno_default.jpg,3.0,54,,,,,,,,,,,,,,,,,,,,,,,,,,,,,,,,
,0.0,,0.0,13.0,13.0,13.0,1.0,fireworks_18s.jpg,1.0,clockno_default.jpg,3.0,54,,,,,,,,,,,,,,,,,,,,,,,,,,,,,,,,
,0.0,,0.0,14.0,14.0,14.0,1.0,outlet_10s.jpg,0.0,clockno_default.jpg,3.0,54,,,,,,,,,,,,,,,,,,,,,,,,,,,,,,,,
0.0,1.0,1.583285,0.0,15.0,15.0,15.0,1.0,olive_05s.jpg,0.0,clockno_default.jpg,3.0,54,,,,,,,,,,,,,,,,,,,,,,,,,,,,,,,,
0.0,1.0,0.42699,0.0,16.0,16.0,16.0,1.0,toaster_03s.jpg,0.0,clockno_default.jpg,3.0,54,,,,,,,,,,,,,,,,,,,,,,,,,,,,,,,,
0.0,1.0,1.015045,0.0,17.0,17.0,17.0,1.0,kitten_07s.jpg,0.0,clockno_default.jpg,3.0,54,,,,,,,,,,,,,,,,,,,,,,,,,,,,,,,,
0.0,1.0,0.865395,0.0,18.0,18.0,18.0,1.0,soda_fountain_03s.jpg,0.0,clockno_up.jpg,4.0,54,,,,,,,,,,,,,,,,,,,,,,,,,,,,,,,,
0.0,1.0,0.613215,0.0,19.0,19.0,19.0,1.0,paper_bag_12s.jpg,0.0,clockno_default.jpg,4.0,54,,,,,,,,,,,,,,,,,,,,,,,,,,,,,,,,
0.0,1.0,0.33595,0.0,20.0,20.0,20.0,1.0,frame_06s.jpg,0.0,clockno_default.jpg,4.0,54,,,,,,,,,,,,,,,,,,,,,,,,,,,,,,,,
0.0,1.0,0.405825,0.0,21.0,21.0,21.0,1.0,mold2_04s.jpg,0.0,clockno_default.jpg,4.0,54,,,,,,,,,,,,,,,,,,,,,,,,,,,,,,,,
0.0,1.0,0.45729,0.0,22.0,22.0,22.0,1.0,tupperware_09s.jpg,0.0,clockno_default.jpg,4.0,54,,,,,,,,,,,,,,,,,,,,,,,,,,,,,,,,
0.0,1.0,0.510605,0.0,23.0,23.0,23.0,1.0,eggshell_14s.jpg,0.0,clockno_default.jpg,4.0,54,,,,,,,,,,,,,,,,,,,,,,,,,,,,,,,,
0.0,1.0,0.65021,0.0,24.0,24.0,24.0,1.0,antenna_01b.jpg,0.0,clockno_up.jpg,5.0,54,,,,,,,,,,,,,,,,,,,,,,,,,,,,,,,,
0.0,0.0,1.60478,0.0,25.0,25.0,25.0,1.0,antenna_01b.jpg,1.0,clockno_default.jpg,5.0,54,,,,,,,,,,,,,,,,,,,,,,,,,,,,,,,,
0.0,1.0,0.84467,0.0,26.0,26.0,26.0,1.0,padlock_07s.jpg,0.0,clockno_default.jpg,5.0,54,,,,,,,,,,,,,,,,,,,,,,,,,,,,,,,,
0.0,1.0,2.015225,0.0,27.0,27.0,27.0,1.0,pocket_watch_16s.jpg,0.0,clockno_default.jpg,5.0,54,,,,,,,,,,,,,,,,,,,,,,,,,,,,,,,,
,0.0,,0.0,28.0,28.0,28.0,1.0,bank_06s.jpg,0.0,clockno_default.jpg,5.0,54,,,,,,,,,,,,,,,,,,,,,,,,,,,,,,,,
0.0,1.0,1.480575,0.0,29.0,29.0,29.0,1.0,incense_02s.jpg,0.0,clockno_up.jpg,6.0,54,,,,,,,,,,,,,,,,,,,,,,,,,,,,,,,,
0.0,1.0,1.21905,0.0,30.0,30.0,30.0,1.0,bagel_15s.jpg,0.0,clockno_default.jpg,6.0,54,,,,,,,,,,,,,,,,,,,,,,,,,,,,,,,,
,0.0,,0.0,31.0,31.0,31.0,1.0,milk_02s.jpg,0.0,clockno_default.jpg,6.0,54,,,,,,,,,,,,,,,,,,,,,,,,,,,,,,,,
,0.0,,0.0,32.0,32.0,32.0,1.0,iron_13s.jpg,0.0,clockno_default.jpg,6.0,54,,,,,,,,,,,,,,,,,,,,,,,,,,,,,,,,
0.0,1.0,1.734405,0.0,33.0,33.0,33.0,1.0,duck_01b.jpg,0.0,clockno_default.jpg,6.0,54,,,,,,,,,,,,,,,,,,,,,,,,,,,,,,,,
0.0,1.0,1.08468,0.0,34.0,34.0,34.0,1.0,rooster_03s.jpg,0.0,clockno_default.jpg,6.0,54,,,,,,,,,,,,,,,,,,,,,,,,,,,,,,,,
0.0,1.0,0.788105,0.0,35.0,35.0,35.0,1.0,sugar_cube_11s.jpg,0.0,clockno_default.jpg,6.0,54,,,,,,,,,,,,,,,,,,,,,,,,,,,,,,,,
,,,,,,,,,0.0,,,54,0.0,1.0,0.420555,0.0,0.0,0.0,0.0,1.0,soda_fountain_03s.jpg,olive_05s.jpg,,,,,,,,,,,,,,,,,,,,,,
,,,,,,,,,1.0,,,54,0.0,0.0,0.065455,0.0,1.0,1.0,1.0,1.0,toaster_03s.jpg,paper_bag_12s.jpg,,,,,,,,,,,,,,,,,,,,,,
,,,,,,,,,1.0,,,54,0.0,0.0,0.001115,0.0,2.0,2.0,2.0,1.0,eggshell_14s.jpg,padlock_07s.jpg,,,,,,,,,,,,,,,,,,,,,,
,,,,,,,,,1.0,,,54,0.0,0.0,0.00092,0.0,3.0,3.0,3.0,1.0,magnet_03s.jpg,fur_coat_11s.jpg,,,,,,,,,,,,,,,,,,,,,,
,,,,,,,,,0.0,,,54,0.0,1.0,0.03121,0.0,4.0,4.0,4.0,1.0,ladder_15s.jpg,luggage_08s.jpg,,,,,,,,,,,,,,,,,,,,,,
,,,,,,,,,0.0,,,54,0.0,1.0,0.037345,0.0,5.0,5.0,5.0,1.0,mushroom_10n.jpg,fountain_pen_06s.jpg,,,,,,,,,,,,,,,,,,,,,,
,,,,,,,,,,,,54,,,,,,,,,,,0.0,2.0,2.0,2.0,1.0,clockno_present_3_16.xlsx,clockno_compare_task_3_16.xlsx,,,,,,,,,,,,,,,
0.0,1.0,0.5492,0.0,0.0,0.0,0.0,1.0,insole_11s.jpg,0.0,clockno_up.jpg,1.0,54,,,,,,,,,,,,,,,,,,,,,,,,,,,,,,,,
0.0,1.0,2.24715,0.0,1.0,1.0,1.0,1.0,teapot_03s.jpg,0.0,clockno_default.jpg,1.0,54,,,,,,,,,,,,,,,,,,,,,,,,,,,,,,,,
0.0,1.0,1.73291,0.0,2.0,2.0,2.0,1.0,orange_12s.jpg,0.0,clockno_default.jpg,1.0,54,,,,,,,,,,,,,,,,,,,,,,,,,,,,,,,,
,0.0,,0.0,3.0,3.0,3.0,1.0,insole_11s.jpg,1.0,clockno_default.jpg,1.0,54,,,,,,,,,,,,,,,,,,,,,,,,,,,,,,,,
0.0,1.0,0.5349,0.0,4.0,4.0,4.0,1.0,jersey_02s.jpg,0.0,clockno_default.jpg,1.0,54,,,,,,,,,,,,,,,,,,,,,,,,,,,,,,,,
0.0,1.0,0.61951,0.0,5.0,5.0,5.0,1.0,dashboard_02s.jpg,0.0,clockno_up.jpg,2.0,54,,,,,,,,,,,,,,,,,,,,,,,,,,,,,,,,
0.0,1.0,1.122805,0.0,6.0,6.0,6.0,1.0,harpoon.jpg,0.0,clockno_default.jpg,2.0,54,,,,,,,,,,,,,,,,,,,,,,,,,,,,,,,,
0.0,1.0,1.220425,0.0,7.0,7.0,7.0,1.0,kilt_18s.jpg,0.0,clockno_default.jpg,2.0,54,,,,,,,,,,,,,,,,,,,,,,,,,,,,,,,,
0.0,1.0,0.730205,0.0,8.0,8.0,8.0,1.0,bowler_hat_10s.jpg,0.0,clockno_default.jpg,2.0,54,,,,,,,,,,,,,,,,,,,,,,,,,,,,,,,,
0.0,1.0,0.8309,0.0,9.0,9.0,9.0,1.0,light_switch_02s.jpg,0.0,clockno_default.jpg,2.0,54,,,,,,,,,,,,,,,,,,,,,,,,,,,,,,,,
0.0,1.0,0.646665,0.0,10.0,10.0,10.0,1.0,mirror_12s.jpg,0.0,clockno_up.jpg,3.0,54,,,,,,,,,,,,,,,,,,,,,,,,,,,,,,,,
0.0,1.0,0.65881,0.0,11.0,11.0,11.0,1.0,raspberry_12s.jpg,0.0,clockno_default.jpg,3.0,54,,,,,,,,,,,,,,,,,,,,,,,,,,,,,,,,
0.0,1.0,0.916955,0.0,12.0,12.0,12.0,1.0,gas_mask_11s.jpg,0.0,clockno_default.jpg,3.0,54,,,,,,,,,,,,,,,,,,,,,,,,,,,,,,,,
,0.0,,0.0,13.0,13.0,13.0,1.0,teacup_07s.jpg,0.0,clockno_default.jpg,3.0,54,,,,,,,,,,,,,,,,,,,,,,,,,,,,,,,,
,0.0,,0.0,14.0,14.0,14.0,1.0,icemaker_10s.jpg,0.0,clockno_default.jpg,3.0,54,,,,,,,,,,,,,,,,,,,,,,,,,,,,,,,,
,0.0,,0.0,15.0,15.0,15.0,1.0,pacifier_09s.jpg,0.0,clockno_default.jpg,3.0,54,,,,,,,,,,,,,,,,,,,,,,,,,,,,,,,,
0.0,1.0,1.094455,0.0,16.0,16.0,16.0,1.0,pepper_mill_03s.jpg,0.0,clockno_default.jpg,3.0,54,,,,,,,,,,,,,,,,,,,,,,,,,,,,,,,,
0.0,1.0,1.023975,0.0,17.0,17.0,17.0,1.0,juicer1_08s.jpg,0.0,clockno_up.jpg,4.0,54,,,,,,,,,,,,,,,,,,,,,,,,,,,,,,,,
0.0,1.0,1.425985,0.0,18.0,18.0,18.0,1.0,lion_18s.jpg,0.0,clockno_default.jpg,4.0,54,,,,,,,,,,,,,,,,,,,,,,,,,,,,,,,,
0.0,1.0,1.86856,0.0,19.0,19.0,19.0,1.0,rocking_chair_05s.jpg,0.0,clockno_default.jpg,4.0,54,,,,,,,,,,,,,,,,,,,,,,,,,,,,,,,,
0.0,1.0,0.52129,0.0,20.0,20.0,20.0,1.0,beaker_01b.jpg,0.0,clockno_default.jpg,4.0,54,,,,,,,,,,,,,,,,,,,,,,,,,,,,,,,,
0.0,1.0,0.75402,0.0,21.0,21.0,21.0,1.0,leotard_08s.jpg,0.0,clockno_default.jpg,4.0,54,,,,,,,,,,,,,,,,,,,,,,,,,,,,,,,,
0.0,1.0,0.86945,0.0,22.0,22.0,22.0,1.0,puppet_01b.jpg,0.0,clockno_default.jpg,4.0,54,,,,,,,,,,,,,,,,,,,,,,,,,,,,,,,,
0.0,1.0,0.371645,0.0,23.0,23.0,23.0,1.0,soccer_ball_12s.jpg,0.0,clockno_up.jpg,5.0,54,,,,,,,,,,,,,,,,,,,,,,,,,,,,,,,,
,0.0,,0.0,24.0,24.0,24.0,1.0,fox_13s.jpg,0.0,clockno_default.jpg,5.0,54,,,,,,,,,,,,,,,,,,,,,,,,,,,,,,,,
,0.0,,0.0,25.0,25.0,25.0,1.0,birthday_cake_09s.jpg,0.0,clockno_default.jpg,5.0,54,,,,,,,,,,,,,,,,,,,,,,,,,,,,,,,,
,0.0,,0.0,26.0,26.0,26.0,1.0,sushi_08s.jpg,0.0,clockno_default.jpg,5.0,54,,,,,,,,,,,,,,,,,,,,,,,,,,,,,,,,
,0.0,,0.0,27.0,27.0,27.0,1.0,sparkler_02s.jpg,0.0,clockno_default.jpg,5.0,54,,,,,,,,,,,,,,,,,,,,,,,,,,,,,,,,
,0.0,,0.0,28.0,28.0,28.0,1.0,dashboard_02s.jpg,0.0,clockno_default.jpg,5.0,54,,,,,,,,,,,,,,,,,,,,,,,,,,,,,,,,
,0.0,,0.0,29.0,29.0,29.0,1.0,lizard_10n.jpg,0.0,clockno_up.jpg,6.0,54,,,,,,,,,,,,,,,,,,,,,,,,,,,,,,,,
,0.0,,0.0,30.0,30.0,30.0,1.0,purse_05s.jpg,0.0,clockno_default.jpg,6.0,54,,,,,,,,,,,,,,,,,,,,,,,,,,,,,,,,
0.0,1.0,1.573055,0.0,31.0,31.0,31.0,1.0,owl_15s.jpg,0.0,clockno_default.jpg,6.0,54,,,,,,,,,,,,,,,,,,,,,,,,,,,,,,,,
0.0,1.0,0.606735,0.0,32.0,32.0,32.0,1.0,cobra_05s.jpg,0.0,clockno_default.jpg,6.0,54,,,,,,,,,,,,,,,,,,,,,,,,,,,,,,,,
0.0,0.0,1.684795,0.0,33.0,33.0,33.0,1.0,owl_15s.jpg,1.0,clockno_default.jpg,6.0,54,,,,,,,,,,,,,,,,,,,,,,,,,,,,,,,,
0.0,1.0,0.889565,0.0,34.0,34.0,34.0,1.0,pomegranate_04s.jpg,0.0,clockno_default.jpg,6.0,54,,,,,,,,,,,,,,,,,,,,,,,,,,,,,,,,
0.0,1.0,0.804565,0.0,35.0,35.0,35.0,1.0,plug_08s.jpg,0.0,clockno_default.jpg,6.0,54,,,,,,,,,,,,,,,,,,,,,,,,,,,,,,,,
,,,,,,,,,0.0,,,54,0.0,1.0,0.24944,0.0,0.0,0.0,0.0,1.0,kilt_18s.jpg,jersey_02s.jpg,,,,,,,,,,,,,,,,,,,,,,
,,,,,,,,,0.0,,,54,0.0,1.0,0.014315,0.0,1.0,1.0,1.0,1.0,raspberry_12s.jpg,bowler_hat_10s.jpg,,,,,,,,,,,,,,,,,,,,,,
,,,,,,,,,0.0,,,54,0.0,1.0,0.032725,0.0,2.0,2.0,2.0,1.0,birthday_cake_09s.jpg,puppet_01b.jpg,,,,,,,,,,,,,,,,,,,,,,
,,,,,,,,,0.0,,,54,0.0,1.0,0.02234,0.0,3.0,3.0,3.0,1.0,plug_08s.jpg,cobra_05s.jpg,,,,,,,,,,,,,,,,,,,,,,
,,,,,,,,,0.0,,,54,0.0,1.0,0.06546,0.0,4.0,4.0,4.0,1.0,light_switch_02s.jpg,harpoon.jpg,,,,,,,,,,,,,,,,,,,,,,
,,,,,,,,,1.0,,,54,0.0,0.0,0.060125,0.0,5.0,5.0,5.0,1.0,mirror_12s.jpg,teacup_07s.jpg,,,,,,,,,,,,,,,,,,,,,,
,,,,,,,,,,,,54,,,,,,,,,,,0.0,3.0,3.0,3.0,1.0,clockno_present_4_16.xlsx,clockno_compare_task_4_16.xlsx,,,,,,,,,,,,,,,
0.0,1.0,0.271555,0.0,0.0,0.0,0.0,1.0,film_03s.jpg,0.0,clockno_up.jpg,1.0,54,,,,,,,,,,,,,,,,,,,,,,,,,,,,,,,,
,0.0,,0.0,1.0,1.0,1.0,1.0,stopwatch_04s.jpg,0.0,clockno_default.jpg,1.0,54,,,,,,,,,,,,,,,,,,,,,,,,,,,,,,,,
0.0,1.0,0.6649,0.0,2.0,2.0,2.0,1.0,pepper2_21s.jpg,0.0,clockno_default.jpg,1.0,54,,,,,,,,,,,,,,,,,,,,,,,,,,,,,,,,
0.0,0.0,1.473625,0.0,3.0,3.0,3.0,1.0,film_03s.jpg,1.0,clockno_default.jpg,1.0,54,,,,,,,,,,,,,,,,,,,,,,,,,,,,,,,,
0.0,0.0,1.13941,0.0,4.0,4.0,4.0,1.0,film_03s.jpg,1.0,clockno_default.jpg,1.0,54,,,,,,,,,,,,,,,,,,,,,,,,,,,,,,,,
0.0,1.0,2.33592,0.0,5.0,5.0,5.0,1.0,ginger_09s.jpg,0.0,clockno_default.jpg,1.0,54,,,,,,,,,,,,,,,,,,,,,,,,,,,,,,,,
0.0,0.0,1.72367,0.0,6.0,6.0,6.0,1.0,pepper2_21s.jpg,1.0,clockno_default.jpg,1.0,54,,,,,,,,,,,,,,,,,,,,,,,,,,,,,,,,
0.0,1.0,2.19931,0.0,7.0,7.0,7.0,1.0,puffin_19s.jpg,0.0,clockno_up.jpg,2.0,54,,,,,,,,,,,,,,,,,,,,,,,,,,,,,,,,
0.0,1.0,0.79241,0.0,8.0,8.0,8.0,1.0,golf_club_03s.jpg,0.0,clockno_default.jpg,2.0,54,,,,,,,,,,,,,,,,,,,,,,,,,,,,,,,,
,0.0,,0.0,9.0,9.0,9.0,1.0,crab_16s.jpg,0.0,clockno_default.jpg,2.0,54,,,,,,,,,,,,,,,,,,,,,,,,,,,,,,,,
,0.0,,0.0,10.0,10.0,10.0,1.0,bathtub_23s.jpg,0.0,clockno_default.jpg,2.0,54,,,,,,,,,,,,,,,,,,,,,,,,,,,,,,,,
,0.0,,0.0,11.0,11.0,11.0,1.0,crab_16s.jpg,1.0,clockno_default.jpg,2.0,54,,,,,,,,,,,,,,,,,,,,,,,,,,,,,,,,
0.0,1.0,1.523975,0.0,12.0,12.0,12.0,1.0,pancake_12s.jpg,0.0,clockno_default.jpg,2.0,54,,,,,,,,,,,,,,,,,,,,,,,,,,,,,,,,
,0.0,,0.0,13.0,13.0,13.0,1.0,lamb_04s.jpg,0.0,clockno_up.jpg,3.0,54,,,,,,,,,,,,,,,,,,,,,,,,,,,,,,,,
,0.0,,0.0,14.0,14.0,14.0,1.0,ladle_04s.jpg,0.0,clockno_default.jpg,3.0,54,,,,,,,,,,,,,,,,,,,,,,,,,,,,,,,,
0.0,1.0,1.685625,0.0,15.0,15.0,15.0,1.0,popsicle_02s.jpg,0.0,clockno_default.jpg,3.0,54,,,,,,,,,,,,,,,,,,,,,,,,,,,,,,,,
0.0,1.0,0.611955,0.0,16.0,16.0,16.0,1.0,eiffeltower.jpg,0.0,clockno_default.jpg,3.0,54,,,,,,,,,,,,,,,,,,,,,,,,,,,,,,,,
,0.0,,0.0,17.0,17.0,17.0,1.0,rolling_pin_02s.jpg,0.0,clockno_default.jpg,3.0,54,,,,,,,,,,,,,,,,,,,,,,,,,,,,,,,,
,0.0,,0.0,18.0,18.0,18.0,1.0,lantern_04s.jpg,0.0,clockno_up.jpg,4.0,54,,,,,,,,,,,,,,,,,,,,,,,,,,,,,,,,
,0.0,,0.0,19.0,19.0,19.0,1.0,telephone_pole_05s.jpg,0.0,clockno_default.jpg,4.0,54,,,,,,,,,,,,,,,,,,,,,,,,,,,,,,,,
0.0,0.0,1.699805,0.0,20.0,20.0,20.0,1.0,lantern_04s.jpg,1.0,clockno_default.jpg,4.0,54,,,,,,,,,,,,,,,,,,,,,,,,,,,,,,,,
0.0,1.0,2.279185,0.0,21.0,21.0,21.0,1.0,seahorse_13s.jpg,0.0,clockno_default.jpg,4.0,54,,,,,,,,,,,,,,,,,,,,,,,,,,,,,,,,
0.0,1.0,2.341255,0.0,22.0,22.0,22.0,1.0,ruby_15s.jpg,0.0,clockno_default.jpg,4.0,54,,,,,,,,,,,,,,,,,,,,,,,,,,,,,,,,
0.0,1.0,2.13096,0.0,23.0,23.0,23.0,1.0,machete_06s.jpg,0.0,clockno_up.jpg,5.0,54,,,,,,,,,,,,,,,,,,,,,,,,,,,,,,,,
,0.0,,0.0,24.0,24.0,24.0,1.0,dirt_bike_11s.jpg,0.0,clockno_default.jpg,5.0,54,,,,,,,,,,,,,,,,,,,,,,,,,,,,,,,,
,0.0,,0.0,25.0,25.0,25.0,1.0,tuxedo_01b.jpg,0.0,clockno_default.jpg,5.0,54,,,,,,,,,,,,,,,,,,,,,,,,,,,,,,,,
,0.0,,0.0,26.0,26.0,26.0,1.0,mascara_03s.jpg,0.0,clockno_default.jpg,5.0,54,,,,,,,,,,,,,,,,,,,,,,,,,,,,,,,,
,0.0,,0.0,27.0,27.0,27.0,1.0,puddle_02s.jpg,0.0,clockno_default.jpg,5.0,54,,,,,,,,,,,,,,,,,,,,,,,,,,,,,,,,
,0.0,,0.0,28.0,28.0,28.0,1.0,lantern_04s.jpg,0.0,clockno_default.jpg,5.0,54,,,,,,,,,,,,,,,,,,,,,,,,,,,,,,,,
0.0,1.0,0.75697,0.0,29.0,29.0,29.0,1.0,pump_11s.jpg,0.0,clockno_up.jpg,6.0,54,,,,,,,,,,,,,,,,,,,,,,,,,,,,,,,,
0.0,1.0,2.443835,0.0,30.0,30.0,30.0,1.0,machine_gun_09s.jpg,0.0,clockno_default.jpg,6.0,54,,,,,,,,,,,,,,,,,,,,,,,,,,,,,,,,
0.0,1.0,1.506745,0.0,31.0,31.0,31.0,1.0,mitten_10s.jpg,0.0,clockno_default.jpg,6.0,54,,,,,,,,,,,,,,,,,,,,,,,,,,,,,,,,
,0.0,,0.0,32.0,32.0,32.0,1.0,joystick_01b.jpg,0.0,clockno_default.jpg,6.0,54,,,,,,,,,,,,,,,,,,,,,,,,,,,,,,,,
0.0,1.0,1.989,0.0,33.0,33.0,33.0,1.0,rice_12s.jpg,0.0,clockno_default.jpg,6.0,54,,,,,,,,,,,,,,,,,,,,,,,,,,,,,,,,
0.0,1.0,2.27594,0.0,34.0,34.0,34.0,1.0,lifesaver_10s.jpg,0.0,clockno_default.jpg,6.0,54,,,,,,,,,,,,,,,,,,,,,,,,,,,,,,,,
0.0,1.0,1.78839,0.0,35.0,35.0,35.0,1.0,lamp_08s.jpg,0.0,clockno_default.jpg,6.0,54,,,,,,,,,,,,,,,,,,,,,,,,,,,,,,,,
,,,,,,,,,0.0,,,54,0.0,1.0,0.25935,0.0,0.0,0.0,0.0,1.0,golf_club_03s.jpg,ginger_09s.jpg,,,,,,,,,,,,,,,,,,,,,,
,,,,,,,,,0.0,,,54,0.0,1.0,0.131845,0.0,1.0,1.0,1.0,1.0,popsicle_02s.jpg,pancake_12s.jpg,,,,,,,,,,,,,,,,,,,,,,
,,,,,,,,,1.0,,,54,0.0,0.0,0.1157,0.0,2.0,2.0,2.0,1.0,seahorse_13s.jpg,dirt_bike_11s.jpg,,,,,,,,,,,,,,,,,,,,,,
,,,,,,,,,1.0,,,54,0.0,0.0,0.16127,0.0,3.0,3.0,3.0,1.0,ladle_04s.jpg,rolling_pin_02s.jpg,,,,,,,,,,,,,,,,,,,,,,
,,,,,,,,,1.0,,,54,0.0,0.0,0.070735,0.0,4.0,4.0,4.0,1.0,mitten_10s.jpg,lifesaver_10s.jpg,,,,,,,,,,,,,,,,,,,,,,
,,,,,,,,,0.0,,,54,0.0,1.0,0.070375,0.0,5.0,5.0,5.0,1.0,lamp_08s.jpg,joystick_01b.jpg,,,,,,,,,,,,,,,,,,,,,,
,,,,,,,,,,,,54,,,,,,,,,,,0.0,4.0,4.0,4.0,1.0,clockno_present_5_16.xlsx,clockno_compare_task_5_16.xlsx,,,,,,,,,,,,,,,
0.0,1.0,1.507715,0.0,0.0,0.0,0.0,1.0,seagull_01b.jpg,0.0,clockno_up.jpg,1.0,54,,,,,,,,,,,,,,,,,,,,,,,,,,,,,,,,
,0.0,,0.0,1.0,1.0,1.0,1.0,denture_03s.jpg,0.0,clockno_default.jpg,1.0,54,,,,,,,,,,,,,,,,,,,,,,,,,,,,,,,,
0.0,0.0,1.76485,0.0,2.0,2.0,2.0,1.0,seagull_01b.jpg,1.0,clockno_default.jpg,1.0,54,,,,,,,,,,,,,,,,,,,,,,,,,,,,,,,,
0.0,0.0,2.0909,0.0,3.0,3.0,3.0,1.0,seagull_01b.jpg,1.0,clockno_default.jpg,1.0,54,,,,,,,,,,,,,,,,,,,,,,,,,,,,,,,,
0.0,0.0,2.18351,0.0,4.0,4.0,4.0,1.0,seagull_01b.jpg,1.0,clockno_default.jpg,1.0,54,,,,,,,,,,,,,,,,,,,,,,,,,,,,,,,,
0.0,1.0,0.67439,0.0,5.0,5.0,5.0,1.0,knitting_needle_04s.jpg,0.0,clockno_default.jpg,1.0,54,,,,,,,,,,,,,,,,,,,,,,,,,,,,,,,,
0.0,1.0,1.47385,0.0,6.0,6.0,6.0,1.0,birdcage_08s.jpg,0.0,clockno_default.jpg,1.0,54,,,,,,,,,,,,,,,,,,,,,,,,,,,,,,,,
,0.0,,0.0,7.0,7.0,7.0,1.0,pie_08s.jpg,0.0,clockno_up.jpg,2.0,54,,,,,,,,,,,,,,,,,,,,,,,,,,,,,,,,
,0.0,,0.0,8.0,8.0,8.0,1.0,glasses01a.jpg,0.0,clockno_default.jpg,2.0,54,,,,,,,,,,,,,,,,,,,,,,,,,,,,,,,,
0.0,1.0,1.56587,0.0,9.0,9.0,9.0,1.0,onion_10s.jpg,0.0,clockno_default.jpg,2.0,54,,,,,,,,,,,,,,,,,,,,,,,,,,,,,,,,
,0.0,,0.0,10.0,10.0,10.0,1.0,seagull_01b.jpg,0.0,clockno_default.jpg,2.0,54,,,,,,,,,,,,,,,,,,,,,,,,,,,,,,,,
0.0,1.0,2.427385,0.0,11.0,11.0,11.0,1.0,tortilla_06s.jpg,0.0,clockno_default.jpg,2.0,54,,,,,,,,,,,,,,,,,,,,,,,,,,,,,,,,
0.0,1.0,1.65848,0.0,12.0,12.0,12.0,1.0,panda_02s.jpg,0.0,clockno_up.jpg,3.0,54,,,,,,,,,,,,,,,,,,,,,,,,,,,,,,,,
0.0,1.0,2.183265,0.0,13.0,13.0,13.0,1.0,lipstick_02s.jpg,0.0,clockno_default.jpg,3.0,54,,,,,,,,,,,,,,,,,,,,,,,,,,,,,,,,
,0.0,,0.0,14.0,14.0,14.0,1.0,lipstick_02s.jpg,1.0,clockno_default.jpg,3.0,54,,,,,,,,,,,,,,,,,,,,,,,,,,,,,,,,
0.0,1.0,1.61787,0.0,15.0,15.0,15.0,1.0,chime_12s.jpg,0.0,clockno_default.jpg,3.0,54,,,,,,,,,,,,,,,,,,,,,,,,,,,,,,,,
0.0,0.0,1.08854,0.0,16.0,16.0,16.0,1.0,panda_02s.jpg,1.0,clockno_default.jpg,3.0,54,,,,,,,,,,,,,,,,,,,,,,,,,,,,,,,,
0.0,1.0,0.03628,0.0,17.0,17.0,17.0,1.0,mug_06s.jpg,0.0,clockno_default.jpg,3.0,54,,,,,,,,,,,,,,,,,,,,,,,,,,,,,,,,
0.0,1.0,0.637235,0.0,18.0,18.0,18.0,1.0,pie_08s.jpg,0.0,clockno_default.jpg,3.0,54,,,,,,,,,,,,,,,,,,,,,,,,,,,,,,,,
,0.0,,0.0,19.0,19.0,19.0,1.0,latch_15s.jpg,0.0,clockno_up.jpg,4.0,54,,,,,,,,,,,,,,,,,,,,,,,,,,,,,,,,
0.0,0.0,0.70678,0.0,20.0,20.0,20.0,1.0,latch_15s.jpg,1.0,clockno_default.jpg,4.0,54,,,,,,,,,,,,,,,,,,,,,,,,,,,,,,,,
0.0,1.0,0.64798,0.0,21.0,21.0,21.0,1.0,camcorder_10s.jpg,0.0,clockno_default.jpg,4.0,54,,,,,,,,,,,,,,,,,,,,,,,,,,,,,,,,
,0.0,,0.0,22.0,22.0,22.0,1.0,kimono_13s.jpg,0.0,clockno_default.jpg,4.0,54,,,,,,,,,,,,,,,,,,,,,,,,,,,,,,,,
,0.0,,0.0,23.0,23.0,23.0,1.0,kimono_13s.jpg,1.0,clockno_default.jpg,4.0,54,,,,,,,,,,,,,,,,,,,,,,,,,,,,,,,,
,0.0,,0.0,24.0,24.0,24.0,1.0,bee_20s.jpg,0.0,clockno_up.jpg,5.0,54,,,,,,,,,,,,,,,,,,,,,,,,,,,,,,,,
,0.0,,0.0,25.0,25.0,25.0,1.0,saddle_06s.jpg,0.0,clockno_default.jpg,5.0,54,,,,,,,,,,,,,,,,,,,,,,,,,,,,,,,,
,0.0,,0.0,26.0,26.0,26.0,1.0,fire_alarm_05s.jpg,0.0,clockno_default.jpg,5.0,54,,,,,,,,,,,,,,,,,,,,,,,,,,,,,,,,
0.0,1.0,2.2194,0.0,27.0,27.0,27.0,1.0,ram_05s.jpg,0.0,clockno_default.jpg,5.0,54,,,,,,,,,,,,,,,,,,,,,,,,,,,,,,,,
,0.0,,0.0,28.0,28.0,28.0,1.0,coral_08s.jpg,0.0,clockno_default.jpg,5.0,54,,,,,,,,,,,,,,,,,,,,,,,,,,,,,,,,
,0.0,,0.0,29.0,29.0,29.0,1.0,roller_coaster_07s.jpg,0.0,clockno_default.jpg,5.0,54,,,,,,,,,,,,,,,,,,,,,,,,,,,,,,,,
,0.0,,0.0,30.0,30.0,30.0,1.0,playpen_11s.jpg,0.0,clockno_up.jpg,6.0,54,,,,,,,,,,,,,,,,,,,,,,,,,,,,,,,,
,0.0,,0.0,31.0,31.0,31.0,1.0,mask_09s.jpg,0.0,clockno_default.jpg,6.0,54,,,,,,,,,,,,,,,,,,,,,,,,,,,,,,,,
,0.0,,0.0,32.0,32.0,32.0,1.0,mask_09s.jpg,1.0,clockno_default.jpg,6.0,54,,,,,,,,,,,,,,,,,,,,,,,,,,,,,,,,
,0.0,,0.0,33.0,33.0,33.0,1.0,turf_03s.jpg,0.0,clockno_default.jpg,6.0,54,,,,,,,,,,,,,,,,,,,,,,,,,,,,,,,,
,0.0,,0.0,34.0,34.0,34.0,1.0,go-kart_10s.jpg,0.0,clockno_default.jpg,6.0,54,,,,,,,,,,,,,,,,,,,,,,,,,,,,,,,,
0.0,1.0,1.38412,0.0,35.0,35.0,35.0,1.0,polaroid_05s.jpg,0.0,clockno_default.jpg,6.0,54,,,,,,,,,,,,,,,,,,,,,,,,,,,,,,,,
,,,,,,,,,1.0,,,54,0.0,0.0,0.11623,0.0,0.0,0.0,0.0,1.0,birdcage_08s.jpg,onion_10s.jpg,,,,,,,,,,,,,,,,,,,,,,
,,,,,,,,,0.0,,,54,0.0,1.0,0.0172,0.0,1.0,1.0,1.0,1.0,glasses01a.jpg,knitting_needle_04s.jpg,,,,,,,,,,,,,,,,,,,,,,
,,,,,,,,,0.0,,,54,0.0,1.0,0.099465,0.0,2.0,2.0,2.0,1.0,bee_20s.jpg,camcorder_10s.jpg,,,,,,,,,,,,,,,,,,,,,,
,,,,,,,,,0.0,,,54,0.0,1.0,0.10111,0.0,3.0,3.0,3.0,1.0,coral_08s.jpg,saddle_06s.jpg,,,,,,,,,,,,,,,,,,,,,,
,,,,,,,,,1.0,,,54,0.0,0.0,0.068335,0.0,4.0,4.0,4.0,1.0,fire_alarm_05s.jpg,roller_coaster_07s.jpg,,,,,,,,,,,,,,,,,,,,,,
,,,,,,,,,0.0,,,54,0.0,1.0,0.13391,0.0,5.0,5.0,5.0,1.0,turf_03s.jpg,playpen_11s.jpg,,,,,,,,,,,,,,,,,,,,,,
0.0,1.0,0.85306,,,,,,prism_10s.jpg,0.0,clock_5_1.png,1.0,54,,,,,,,,,,,,,,,,,,0.0,0.0,0.0,0.0,1.0,,,,,,,,,,
0.0,1.0,1.618065,,,,,,snowman_02s.jpg,0.0,clock_5_2.png,1.0,54,,,,,,,,,,,,,,,,,,0.0,1.0,1.0,1.0,1.0,,,,,,,,,,
0.0,1.0,0.86926,,,,,,safety_pin_02s.jpg,0.0,clock_5_3.png,1.0,54,,,,,,,,,,,,,,,,,,0.0,2.0,2.0,2.0,1.0,,,,,,,,,,
0.0,0.0,0.750015,,,,,,prism_10s.jpg,1.0,clock_5_4.png,1.0,54,,,,,,,,,,,,,,,,,,0.0,3.0,3.0,3.0,1.0,,,,,,,,,,
0.0,1.0,0.13377,,,,,,peppermint_07s.jpg,0.0,clock_5_5.png,1.0,54,,,,,,,,,,,,,,,,,,0.0,4.0,4.0,4.0,1.0,,,,,,,,,,
,0.0,,,,,,,radio_09s.jpg,0.0,clock_6_1.png,2.0,54,,,,,,,,,,,,,,,,,,0.0,5.0,5.0,5.0,1.0,,,,,,,,,,
0.0,1.0,0.938775,,,,,,tablet_04s.jpg,0.0,clock_6_2.png,2.0,54,,,,,,,,,,,,,,,,,,0.0,6.0,6.0,6.0,1.0,,,,,,,,,,
0.0,1.0,0.459355,,,,,,sleeping_bag_12s.jpg,0.0,clock_6_3.png,2.0,54,,,,,,,,,,,,,,,,,,0.0,7.0,7.0,7.0,1.0,,,,,,,,,,
,0.0,,,,,,,racehorse_03s.jpg,0.0,clock_6_4.png,2.0,54,,,,,,,,,,,,,,,,,,0.0,8.0,8.0,8.0,1.0,,,,,,,,,,
0.0,1.0,2.17012,,,,,,peppermint_07s.jpg,0.0,clock_6_5.png,2.0,54,,,,,,,,,,,,,,,,,,0.0,9.0,9.0,9.0,1.0,,,,,,,,,,
0.0,1.0,0.61937,,,,,,jukebox_03n.jpg,0.0,clock_6_6.png,2.0,54,,,,,,,,,,,,,,,,,,0.0,10.0,10.0,10.0,1.0,,,,,,,,,,
,0.0,,,,,,,moth_06n.jpg,0.0,clock_6_1.png,3.0,54,,,,,,,,,,,,,,,,,,0.0,11.0,11.0,11.0,1.0,,,,,,,,,,
,0.0,,,,,,,ant_12s.jpg,0.0,clock_6_2.png,3.0,54,,,,,,,,,,,,,,,,,,0.0,12.0,12.0,12.0,1.0,,,,,,,,,,
0.0,1.0,2.23211,,,,,,chocolate_01b.jpg,0.0,clock_6_3.png,3.0,54,,,,,,,,,,,,,,,,,,0.0,13.0,13.0,13.0,1.0,,,,,,,,,,
0.0,1.0,1.519315,,,,,,puck_06s.jpg,0.0,clock_6_4.png,3.0,54,,,,,,,,,,,,,,,,,,0.0,14.0,14.0,14.0,1.0,,,,,,,,,,
0.0,0.0,0.21836,,,,,,chocolate_01b.jpg,1.0,clock_6_5.png,3.0,54,,,,,,,,,,,,,,,,,,0.0,15.0,15.0,15.0,1.0,,,,,,,,,,
,0.0,,,,,,,orchid_01b.jpg,0.0,clock_6_6.png,3.0,54,,,,,,,,,,,,,,,,,,0.0,16.0,16.0,16.0,1.0,,,,,,,,,,
,0.0,,,,,,,pillow_03s.jpg,0.0,clock_7_1.png,4.0,54,,,,,,,,,,,,,,,,,,0.0,17.0,17.0,17.0,1.0,,,,,,,,,,
,0.0,,,,,,,pillow_03s.jpg,1.0,clock_7_2.png,4.0,54,,,,,,,,,,,,,,,,,,0.0,18.0,18.0,18.0,1.0,,,,,,,,,,
0.0,1.0,1.368715,,,,,,loom_05s.jpg,0.0,clock_7_3.png,4.0,54,,,,,,,,,,,,,,,,,,0.0,19.0,19.0,19.0,1.0,,,,,,,,,,
,0.0,,,,,,,kangaroo_02s.jpg,0.0,clock_7_4.png,4.0,54,,,,,,,,,,,,,,,,,,0.0,20.0,20.0,20.0,1.0,,,,,,,,,,
0.0,1.0,1.90105,,,,,,plunger_08s.jpg,0.0,clock_7_5.png,4.0,54,,,,,,,,,,,,,,,,,,0.0,21.0,21.0,21.0,1.0,,,,,,,,,,
0.0,1.0,0.98497,,,,,,refrigerator_07s.jpg,0.0,clock_7_6.png,4.0,54,,,,,,,,,,,,,,,,,,0.0,22.0,22.0,22.0,1.0,,,,,,,,,,
0.0,1.0,0.76715,,,,,,mousetrap_15n.jpg,0.0,clock_7_7.png,4.0,54,,,,,,,,,,,,,,,,,,0.0,23.0,23.0,23.0,1.0,,,,,,,,,,
0.0,1.0,0.19954,,,,,,margarita_03s.jpg,0.0,clock_5_1.png,5.0,54,,,,,,,,,,,,,,,,,,0.0,24.0,24.0,24.0,1.0,,,,,,,,,,
,0.0,,,,,,,plaster_cast_13s.jpg,0.0,clock_5_2.png,5.0,54,,,,,,,,,,,,,,,,,,0.0,25.0,25.0,25.0,1.0,,,,,,,,,,
,0.0,,,,,,,radio_09s.jpg,0.0,clock_5_3.png,5.0,54,,,,,,,,,,,,,,,,,,0.0,26.0,26.0,26.0,1.0,,,,,,,,,,
0.0,1.0,1.49456,,,,,,footprint_11s.jpg,0.0,clock_5_4.png,5.0,54,,,,,,,,,,,,,,,,,,0.0,27.0,27.0,27.0,1.0,,,,,,,,,,
0.0,1.0,2.185235,,,,,,ant_12s.jpg,0.0,clock_5_5.png,5.0,54,,,,,,,,,,,,,,,,,,0.0,28.0,28.0,28.0,1.0,,,,,,,,,,
,0.0,,,,,,,tiger_06s.jpg,0.0,clock_7_1.png,6.0,54,,,,,,,,,,,,,,,,,,0.0,29.0,29.0,29.0,1.0,,,,,,,,,,
,0.0,,,,,,,fishhook_06s.jpg,0.0,clock_7_2.png,6.0,54,,,,,,,,,,,,,,,,,,0.0,30.0,30.0,30.0,1.0,,,,,,,,,,
,0.0,,,,,,,poinsettia_04s.jpg,0.0,clock_7_3.png,6.0,54,,,,,,,,,,,,,,,,,,0.0,31.0,31.0,31.0,1.0,,,,,,,,,,
0.0,0.0,1.152915,,,,,,tiger_06s.jpg,1.0,clock_7_4.png,6.0,54,,,,,,,,,,,,,,,,,,0.0,32.0,32.0,32.0,1.0,,,,,,,,,,
0.0,1.0,0.505505,,,,,,limousine_12s.jpg,0.0,clock_7_5.png,6.0,54,,,,,,,,,,,,,,,,,,0.0,33.0,33.0,33.0,1.0,,,,,,,,,,
,0.0,,,,,,,submarine_11n.jpg,0.0,clock_7_6.png,6.0,54,,,,,,,,,,,,,,,,,,0.0,34.0,34.0,34.0,1.0,,,,,,,,,,
0.0,1.0,2.12118,,,,,,quill_09s.jpg,0.0,clock_7_7.png,6.0,54,,,,,,,,,,,,,,,,,,0.0,35.0,35.0,35.0,1.0,,,,,,,,,,
,,,,,,,,,0.0,,,54,0.0,1.0,0.269395,,,,,,moth_06n.jpg,racehorse_03s.jpg,,,,,,,,,,,,,0.0,0.0,0.0,0.0,1.0,,,,,
,,,,,,,,,1.0,,,54,0.0,0.0,0.02618,,,,,,orchid_01b.jpg,loom_05s.jpg,,,,,,,,,,,,,0.0,1.0,1.0,1.0,1.0,,,,,
,,,,,,,,,0.0,,,54,0.0,1.0,0.00091,,,,,,margarita_03s.jpg,plunger_08s.jpg,,,,,,,,,,,,,0.0,2.0,2.0,2.0,1.0,,,,,
,,,,,,,,,1.0,,,54,0.0,0.0,0.049955,,,,,,sleeping_bag_12s.jpg,jukebox_03n.jpg,,,,,,,,,,,,,0.0,3.0,3.0,3.0,1.0,,,,,
,,,,,,,,,1.0,,,54,0.0,0.0,0.002975,,,,,,kangaroo_02s.jpg,mousetrap_15n.jpg,,,,,,,,,,,,,0.0,4.0,4.0,4.0,1.0,,,,,
,,,,,,,,,0.0,,,54,0.0,1.0,0.047345,,,,,,submarine_11n.jpg,poinsettia_04s.jpg,,,,,,,,,,,,,0.0,5.0,5.0,5.0,1.0,,,,,
,,,,,,,,,,,,54,,,,,,,,,,,,,,,,clock_present_1_16.xlsx,clock_compare_task_1_16.xlsx,,,,,,,,,,,0.0,0.0,0.0,0.0,1.0
0.0,1.0,0.958905,,,,,,metronome_03s.jpg,0.0,clock_5_1.png,1.0,54,,,,,,,,,,,,,,,,,,0.0,0.0,0.0,0.0,1.0,,,,,,,,,,
0.0,1.0,0.4802,,,,,,cereal_04s.jpg,0.0,clock_5_2.png,1.0,54,,,,,,,,,,,,,,,,,,0.0,1.0,1.0,1.0,1.0,,,,,,,,,,
0.0,1.0,2.37065,,,,,,tripod_01b.jpg,0.0,clock_5_3.png,1.0,54,,,,,,,,,,,,,,,,,,0.0,2.0,2.0,2.0,1.0,,,,,,,,,,
0.0,1.0,1.482005,,,,,,thermostat_02s.jpg,0.0,clock_5_4.png,1.0,54,,,,,,,,,,,,,,,,,,0.0,3.0,3.0,3.0,1.0,,,,,,,,,,
0.0,1.0,1.366015,,,,,,jalapeno_15s.jpg,0.0,clock_5_5.png,1.0,54,,,,,,,,,,,,,,,,,,0.0,4.0,4.0,4.0,1.0,,,,,,,,,,
0.0,1.0,2.469775,,,,,,aluminum_foil_08s.jpg,0.0,clock_6_1.png,2.0,54,,,,,,,,,,,,,,,,,,0.0,5.0,5.0,5.0,1.0,,,,,,,,,,
0.0,1.0,2.25434,,,,,,medal_04s.jpg,0.0,clock_6_2.png,2.0,54,,,,,,,,,,,,,,,,,,0.0,6.0,6.0,6.0,1.0,,,,,,,,,,
0.0,1.0,2.45281,,,,,,flip_flop_03s.jpg,0.0,clock_6_3.png,2.0,54,,,,,,,,,,,,,,,,,,0.0,7.0,7.0,7.0,1.0,,,,,,,,,,
0.0,1.0,2.459595,,,,,,orangutan_03s.jpg,0.0,clock_6_4.png,2.0,54,,,,,,,,,,,,,,,,,,0.0,8.0,8.0,8.0,1.0,,,,,,,,,,
0.0,1.0,2.44297,,,,,,otter_05s.jpg,0.0,clock_6_5.png,2.0,54,,,,,,,,,,,,,,,,,,0.0,9.0,9.0,9.0,1.0,,,,,,,,,,
0.0,1.0,2.332575,,,,,,polar_bear_02s.jpg,0.0,clock_6_6.png,2.0,54,,,,,,,,,,,,,,,,,,0.0,10.0,10.0,10.0,1.0,,,,,,,,,,
0.0,1.0,2.21551,,,,,,pocketknife_12s.jpg,0.0,clock_7_1.png,3.0,54,,,,,,,,,,,,,,,,,,0.0,11.0,11.0,11.0,1.0,,,,,,,,,,
0.0,0.0,1.22756,,,,,,pocketknife_12s.jpg,1.0,clock_7_2.png,3.0,54,,,,,,,,,,,,,,,,,,0.0,12.0,12.0,12.0,1.0,,,,,,,,,,
,0.0,,,,,,,tulip_02s.jpg,0.0,clock_7_3.png,3.0,54,,,,,,,,,,,,,,,,,,0.0,13.0,13.0,13.0,1.0,,,,,,,,,,
,0.0,,,,,,,lamb_chop_07s.jpg,0.0,clock_7_4.png,3.0,54,,,,,,,,,,,,,,,,,,0.0,14.0,14.0,14.0,1.0,,,,,,,,,,
0.0,1.0,2.386055,,,,,,tape_measure_11s.jpg,0.0,clock_7_5.png,3.0,54,,,,,,,,,,,,,,,,,,0.0,15.0,15.0,15.0,1.0,,,,,,,,,,
0.0,0.0,1.802375,,,,,,pocketknife_12s.jpg,1.0,clock_7_6.png,3.0,54,,,,,,,,,,,,,,,,,,0.0,16.0,16.0,16.0,1.0,,,,,,,,,,
0.0,1.0,2.020175,,,,,,pear_02s.jpg,0.0,clock_7_7.png,3.0,54,,,,,,,,,,,,,,,,,,0.0,17.0,17.0,17.0,1.0,,,,,,,,,,
,0.0,,,,,,,lectern_08s.jpg,0.0,clock_6_1.png,4.0,54,,,,,,,,,,,,,,,,,,0.0,18.0,18.0,18.0,1.0,,,,,,,,,,
0.0,1.0,0.700995,,,,,,pineapple_12s.jpg,0.0,clock_6_2.png,4.0,54,,,,,,,,,,,,,,,,,,0.0,19.0,19.0,19.0,1.0,,,,,,,,,,
,0.0,,,,,,,stamp1_11s.jpg,0.0,clock_6_3.png,4.0,54,,,,,,,,,,,,,,,,,,0.0,20.0,20.0,20.0,1.0,,,,,,,,,,
0.0,1.0,1.880885,,,,,,boomerang_06s.jpg,0.0,clock_6_4.png,4.0,54,,,,,,,,,,,,,,,,,,0.0,21.0,21.0,21.0,1.0,,,,,,,,,,
,0.0,,,,,,,screwdriver02a.jpg,0.0,clock_6_5.png,4.0,54,,,,,,,,,,,,,,,,,,0.0,22.0,22.0,22.0,1.0,,,,,,,,,,
,0.0,,,,,,,solar_panel_02s.jpg,0.0,clock_6_6.png,4.0,54,,,,,,,,,,,,,,,,,,0.0,23.0,23.0,23.0,1.0,,,,,,,,,,
,0.0,,,,,,,tile_08s.jpg,0.0,clock_5_1.png,5.0,54,,,,,,,,,,,,,,,,,,0.0,24.0,24.0,24.0,1.0,,,,,,,,,,
,0.0,,,,,,,roulette_wheel_04s.jpg,0.0,clock_5_2.png,5.0,54,,,,,,,,,,,,,,,,,,0.0,25.0,25.0,25.0,1.0,,,,,,,,,,
,0.0,,,,,,,lid_10s.jpg,0.0,clock_5_3.png,5.0,54,,,,,,,,,,,,,,,,,,0.0,26.0,26.0,26.0,1.0,,,,,,,,,,
,0.0,,,,,,,pineapple_12s.jpg,0.0,clock_5_4.png,5.0,54,,,,,,,,,,,,,,,,,,0.0,27.0,27.0,27.0,1.0,,,,,,,,,,
,0.0,,,,,,,potpourri_03s.jpg,0.0,clock_5_5.png,5.0,54,,,,,,,,,,,,,,,,,,0.0,28.0,28.0,28.0,1.0,,,,,,,,,,
0.0,1.0,1.535195,,,,,,measuring_cup_02s.jpg,0.0,clock_7_1.png,6.0,54,,,,,,,,,,,,,,,,,,0.0,29.0,29.0,29.0,1.0,,,,,,,,,,
0.0,1.0,1.28717,,,,,,kite_04s.jpg,0.0,clock_7_2.png,6.0,54,,,,,,,,,,,,,,,,,,0.0,30.0,30.0,30.0,1.0,,,,,,,,,,
0.0,1.0,2.470135,,,,,,solar_panel_02s.jpg,0.0,clock_7_3.png,6.0,54,,,,,,,,,,,,,,,,,,0.0,31.0,31.0,31.0,1.0,,,,,,,,,,
0.0,1.0,2.219735,,,,,,piano_13n.jpg,0.0,clock_7_4.png,6.0,54,,,,,,,,,,,,,,,,,,0.0,32.0,32.0,32.0,1.0,,,,,,,,,,
0.0,1.0,1.886505,,,,,,sea_urchin_09s.jpg,0.0,clock_7_5.png,6.0,54,,,,,,,,,,,,,,,,,,0.0,33.0,33.0,33.0,1.0,,,,,,,,,,
0.0,1.0,1.986265,,,,,,thermostat_02s.jpg,0.0,clock_7_6.png,6.0,54,,,,,,,,,,,,,,,,,,0.0,34.0,34.0,34.0,1.0,,,,,,,,,,
0.0,1.0,2.402865,,,,,,stapler_01b.jpg,0.0,clock_7_7.png,6.0,54,,,,,,,,,,,,,,,,,,0.0,35.0,35.0,35.0,1.0,,,,,,,,,,
,,,,,,,,,0.0,,,54,0.0,1.0,0.26793,,,,,,aluminum_foil_08s.jpg,tripod_01b.jpg,,,,,,,,,,,,,0.0,0.0,0.0,0.0,1.0,,,,,
,,,,,,,,,0.0,,,54,0.0,1.0,0.016055,,,,,,tulip_02s.jpg,polar_bear_02s.jpg,,,,,,,,,,,,,0.0,1.0,1.0,1.0,1.0,,,,,
,,,,,,,,,1.0,,,54,0.0,0.0,0.017235,,,,,,tape_measure_11s.jpg,lectern_08s.jpg,,,,,,,,,,,,,0.0,2.0,2.0,2.0,1.0,,,,,
,,,,,,,,,1.0,,,54,0.0,0.0,0.019735,,,,,,medal_04s.jpg,otter_05s.jpg,,,,,,,,,,,,,0.0,3.0,3.0,3.0,1.0,,,,,
,,,,,,,,,1.0,,,54,0.0,0.0,0.11675,,,,,,kite_04s.jpg,sea_urchin_09s.jpg,,,,,,,,,,,,,0.0,4.0,4.0,4.0,1.0,,,,,
,,,,,,,,,1.0,,,54,0.0,0.0,0.300595,,,,,,piano_13n.jpg,stapler_01b.jpg,,,,,,,,,,,,,0.0,5.0,5.0,5.0,1.0,,,,,
,,,,,,,,,,,,54,,,,,,,,,,,,,,,,clock_present_2_16.xlsx,clock_compare_task_2_16.xlsx,,,,,,,,,,,0.0,1.0,1.0,1.0,1.0
0.0,1.0,0.73509,,,,,,trampoline_13s.jpg,0.0,clock_5_1.png,1.0,54,,,,,,,,,,,,,,,,,,0.0,0.0,0.0,0.0,1.0,,,,,,,,,,
0.0,1.0,0.70489,,,,,,ice_pack_09s.jpg,0.0,clock_5_2.png,1.0,54,,,,,,,,,,,,,,,,,,0.0,1.0,1.0,1.0,1.0,,,,,,,,,,
0.0,1.0,1.752225,,,,,,printer_09s.jpg,0.0,clock_5_3.png,1.0,54,,,,,,,,,,,,,,,,,,0.0,2.0,2.0,2.0,1.0,,,,,,,,,,
0.0,0.0,2.41936,,,,,,ice_pack_09s.jpg,1.0,clock_5_4.png,1.0,54,,,,,,,,,,,,,,,,,,0.0,3.0,3.0,3.0,1.0,,,,,,,,,,
,0.0,,,,,,,koala_13s.jpg,0.0,clock_5_5.png,1.0,54,,,,,,,,,,,,,,,,,,0.0,4.0,4.0,4.0,1.0,,,,,,,,,,
0.0,1.0,2.146075,,,,,,key_07s.jpg,0.0,clock_5_1.png,2.0,54,,,,,,,,,,,,,,,,,,0.0,5.0,5.0,5.0,1.0,,,,,,,,,,
0.0,1.0,1.3069,,,,,,lamppost_09s.jpg,0.0,clock_5_2.png,2.0,54,,,,,,,,,,,,,,,,,,0.0,6.0,6.0,6.0,1.0,,,,,,,,,,
0.0,1.0,1.183505,,,,,,jigsaw_puzzle_11s.jpg,0.0,clock_5_3.png,2.0,54,,,,,,,,,,,,,,,,,,0.0,7.0,7.0,7.0,1.0,,,,,,,,,,
0.0,1.0,2.298195,,,,,,pantyhose_07s.jpg,0.0,clock_5_4.png,2.0,54,,,,,,,,,,,,,,,,,,0.0,8.0,8.0,8.0,1.0,,,,,,,,,,
0.0,1.0,2.13622,,,,,,typewriter_11s.jpg,0.0,clock_5_5.png,2.0,54,,,,,,,,,,,,,,,,,,0.0,9.0,9.0,9.0,1.0,,,,,,,,,,
0.0,1.0,1.55929,,,,,,rocking_horse_03s.jpg,0.0,clock_7_1.png,3.0,54,,,,,,,,,,,,,,,,,,0.0,10.0,10.0,10.0,1.0,,,,,,,,,,
0.0,0.0,0.53452,,,,,,rocking_horse_03s.jpg,1.0,clock_7_2.png,3.0,54,,,,,,,,,,,,,,,,,,0.0,11.0,11.0,11.0,1.0,,,,,,,,,,
0.0,1.0,1.915775,,,,,,spider_web_03s.jpg,0.0,clock_7_3.png,3.0,54,,,,,,,,,,,,,,,,,,0.0,12.0,12.0,12.0,1.0,,,,,,,,,,
,0.0,,,,,,,hydrant_10s.jpg,0.0,clock_7_4.png,3.0,54,,,,,,,,,,,,,,,,,,0.0,13.0,13.0,13.0,1.0,,,,,,,,,,
0.0,1.0,0.601065,,,,,,recliner_02s.jpg,0.0,clock_7_5.png,3.0,54,,,,,,,,,,,,,,,,,,0.0,14.0,14.0,14.0,1.0,,,,,,,,,,
,0.0,,,,,,,pantyhose_07s.jpg,0.0,clock_7_6.png,3.0,54,,,,,,,,,,,,,,,,,,0.0,15.0,15.0,15.0,1.0,,,,,,,,,,
0.0,1.0,2.30376,,,,,,mosquito_12s.jpg,0.0,clock_7_7.png,3.0,54,,,,,,,,,,,,,,,,,,0.0,16.0,16.0,16.0,1.0,,,,,,,,,,
0.0,1.0,2.135655,,,,,,pan_02s.jpg,0.0,clock_7_1.png,4.0,54,,,,,,,,,,,,,,,,,,0.0,17.0,17.0,17.0,1.0,,,,,,,,,,
0.0,1.0,1.519935,,,,,,rope_16s.jpg,0.0,clock_7_2.png,4.0,54,,,,,,,,,,,,,,,,,,0.0,18.0,18.0,18.0,1.0,,,,,,,,,,
0.0,1.0,2.152795,,,,,,diving_board_07s.jpg,0.0,clock_7_3.png,4.0,54,,,,,,,,,,,,,,,,,,0.0,19.0,19.0,19.0,1.0,,,,,,,,,,
,0.0,,,,,,,lamppost_09s.jpg,0.0,clock_7_4.png,4.0,54,,,,,,,,,,,,,,,,,,0.0,20.0,20.0,20.0,1.0,,,,,,,,,,
0.0,1.0,2.439115,,,,,,tape_06s.jpg,0.0,clock_7_5.png,4.0,54,,,,,,,,,,,,,,,,,,0.0,21.0,21.0,21.0,1.0,,,,,,,,,,
0.0,1.0,2.0342,,,,,,keyhole_03s.jpg,0.0,clock_7_6.png,4.0,54,,,,,,,,,,,,,,,,,,0.0,22.0,22.0,22.0,1.0,,,,,,,,,,
0.0,1.0,1.19467,,,,,,compass_10n.jpg,0.0,clock_7_7.png,4.0,54,,,,,,,,,,,,,,,,,,0.0,23.0,23.0,23.0,1.0,,,,,,,,,,
0.0,1.0,1.54435,,,,,,coconut_08s.jpg,0.0,clock_6_1.png,5.0,54,,,,,,,,,,,,,,,,,,0.0,24.0,24.0,24.0,1.0,,,,,,,,,,
0.0,1.0,0.52757,,,,,,bolo_tie_08s.jpg,0.0,clock_6_2.png,5.0,54,,,,,,,,,,,,,,,,,,0.0,25.0,25.0,25.0,1.0,,,,,,,,,,
,0.0,,,,,,,frog_09s.jpg,0.0,clock_6_3.png,5.0,54,,,,,,,,,,,,,,,,,,0.0,26.0,26.0,26.0,1.0,,,,,,,,,,
,0.0,,,,,,,mop_08s.jpg,0.0,clock_6_4.png,5.0,54,,,,,,,,,,,,,,,,,,0.0,27.0,27.0,27.0,1.0,,,,,,,,,,
,0.0,,,,,,,jewel_01b.jpg,0.0,clock_6_5.png,5.0,54,,,,,,,,,,,,,,,,,,0.0,28.0,28.0,28.0,1.0,,,,,,,,,,
,0.0,,,,,,,mop_08s.jpg,1.0,clock_6_6.png,5.0,54,,,,,,,,,,,,,,,,,,0.0,29.0,29.0,29.0,1.0,,,,,,,,,,
0.0,1.0,2.407155,,,,,,leash_10s.jpg,0.0,clock_6_1.png,6.0,54,,,,,,,,,,,,,,,,,,0.0,30.0,30.0,30.0,1.0,,,,,,,,,,
,0.0,,,,,,,leash_10s.jpg,1.0,clock_6_2.png,6.0,54,,,,,,,,,,,,,,,,,,0.0,31.0,31.0,31.0,1.0,,,,,,,,,,
,0.0,,,,,,,leash_10s.jpg,1.0,clock_6_3.png,6.0,54,,,,,,,,,,,,,,,,,,0.0,32.0,32.0,32.0,1.0,,,,,,,,,,
,0.0,,,,,,,abacus_12s.jpg,0.0,clock_6_4.png,6.0,54,,,,,,,,,,,,,,,,,,0.0,33.0,33.0,33.0,1.0,,,,,,,,,,
,0.0,,,,,,,compass_10n.jpg,0.0,clock_6_5.png,6.0,54,,,,,,,,,,,,,,,,,,0.0,34.0,34.0,34.0,1.0,,,,,,,,,,
,0.0,,,,,,,marker_05s.jpg,0.0,clock_6_6.png,6.0,54,,,,,,,,,,,,,,,,,,0.0,35.0,35.0,35.0,1.0,,,,,,,,,,
,,,,,,,,,1.0,,,54,0.0,0.0,0.69693,,,,,,printer_09s.jpg,key_07s.jpg,,,,,,,,,,,,,0.0,0.0,0.0,0.0,1.0,,,,,
,,,,,,,,,1.0,,,54,0.0,0.0,0.01959,,,,,,koala_13s.jpg,jigsaw_puzzle_11s.jpg,,,,,,,,,,,,,0.0,1.0,1.0,1.0,1.0,,,,,
,,,,,,,,,0.0,,,54,0.0,1.0,0.006025,,,,,,spider_web_03s.jpg,typewriter_11s.jpg,,,,,,,,,,,,,0.0,2.0,2.0,2.0,1.0,,,,,
,,,,,,,,,0.0,,,54,0.0,1.0,0.02075,,,,,,mosquito_12s.jpg,hydrant_10s.jpg,,,,,,,,,,,,,0.0,3.0,3.0,3.0,1.0,,,,,
,,,,,,,,,0.0,,,54,0.0,1.0,0.031195,,,,,,tape_06s.jpg,rope_16s.jpg,,,,,,,,,,,,,0.0,4.0,4.0,4.0,1.0,,,,,
,,,,,,,,,0.0,,,54,0.0,1.0,0.0512,,,,,,jewel_01b.jpg,bolo_tie_08s.jpg,,,,,,,,,,,,,0.0,5.0,5.0,5.0,1.0,,,,,
,,,,,,,,,,,,54,,,,,,,,,,,,,,,,clock_present_3_16.xlsx,clock_compare_task_3_16.xlsx,,,,,,,,,,,0.0,2.0,2.0,2.0,1.0
0.0,1.0,1.59444,,,,,,mud_13s.jpg,0.0,clock_5_1.png,1.0,54,,,,,,,,,,,,,,,,,,0.0,0.0,0.0,0.0,1.0,,,,,,,,,,
0.0,1.0,2.398715,,,,,,mannequin_05s.jpg,0.0,clock_5_2.png,1.0,54,,,,,,,,,,,,,,,,,,0.0,1.0,1.0,1.0,1.0,,,,,,,,,,
0.0,1.0,0.954115,,,,,,turtleneck_11s.jpg,0.0,clock_5_3.png,1.0,54,,,,,,,,,,,,,,,,,,0.0,2.0,2.0,2.0,1.0,,,,,,,,,,
0.0,1.0,0.315125,,,,,,umbrella_15s.jpg,0.0,clock_5_4.png,1.0,54,,,,,,,,,,,,,,,,,,0.0,3.0,3.0,3.0,1.0,,,,,,,,,,
,0.0,,,,,,,mannequin_05s.jpg,1.0,clock_5_5.png,1.0,54,,,,,,,,,,,,,,,,,,0.0,4.0,4.0,4.0,1.0,,,,,,,,,,
,0.0,,,,,,,quad_04s.jpg,0.0,clock_7_1.png,2.0,54,,,,,,,,,,,,,,,,,,0.0,5.0,5.0,5.0,1.0,,,,,,,,,,
,0.0,,,,,,,inhaler_01b.jpg,0.0,clock_7_2.png,2.0,54,,,,,,,,,,,,,,,,,,0.0,6.0,6.0,6.0,1.0,,,,,,,,,,
,0.0,,,,,,,lollipop_08s.jpg,0.0,clock_7_3.png,2.0,54,,,,,,,,,,,,,,,,,,0.0,7.0,7.0,7.0,1.0,,,,,,,,,,
0.0,1.0,1.794275,,,,,,rocket_02s.jpg,0.0,clock_7_4.png,2.0,54,,,,,,,,,,,,,,,,,,0.0,8.0,8.0,8.0,1.0,,,,,,,,,,
0.0,1.0,0.68188,,,,,,spacesuit_02s.jpg,0.0,clock_7_5.png,2.0,54,,,,,,,,,,,,,,,,,,0.0,9.0,9.0,9.0,1.0,,,,,,,,,,
0.0,1.0,1.99328,,,,,,quesadilla_07s.jpg,0.0,clock_7_6.png,2.0,54,,,,,,,,,,,,,,,,,,0.0,10.0,10.0,10.0,1.0,,,,,,,,,,
,0.0,,,,,,,punch1_10s.jpg,0.0,clock_7_7.png,2.0,54,,,,,,,,,,,,,,,,,,0.0,11.0,11.0,11.0,1.0,,,,,,,,,,
0.0,1.0,2.24485,,,,,,swimming_pool_17s.jpg,0.0,clock_5_1.png,3.0,54,,,,,,,,,,,,,,,,,,0.0,12.0,12.0,12.0,1.0,,,,,,,,,,
0.0,1.0,1.74021,,,,,,espresso_01b.jpg,0.0,clock_5_2.png,3.0,54,,,,,,,,,,,,,,,,,,0.0,13.0,13.0,13.0,1.0,,,,,,,,,,
0.0,1.0,1.781755,,,,,,torch_02s.jpg,0.0,clock_5_3.png,3.0,54,,,,,,,,,,,,,,,,,,0.0,14.0,14.0,14.0,1.0,,,,,,,,,,
0.0,1.0,0.521085,,,,,,spacesuit_02s.jpg,0.0,clock_5_4.png,3.0,54,,,,,,,,,,,,,,,,,,0.0,15.0,15.0,15.0,1.0,,,,,,,,,,
0.0,1.0,1.26419,,,,,,pipe1_10s.jpg,0.0,clock_5_5.png,3.0,54,,,,,,,,,,,,,,,,,,0.0,16.0,16.0,16.0,1.0,,,,,,,,,,
0.0,1.0,0.58889,,,,,,hummingbird_05s.jpg,0.0,clock_6_1.png,4.0,54,,,,,,,,,,,,,,,,,,0.0,17.0,17.0,17.0,1.0,,,,,,,,,,
0.0,1.0,0.552225,,,,,,scooter.jpg,0.0,clock_6_2.png,4.0,54,,,,,,,,,,,,,,,,,,0.0,18.0,18.0,18.0,1.0,,,,,,,,,,
0.0,1.0,1.38868,,,,,,sunglasses_11s.jpg,0.0,clock_6_3.png,4.0,54,,,,,,,,,,,,,,,,,,0.0,19.0,19.0,19.0,1.0,,,,,,,,,,
0.0,0.0,1.79886,,,,,,hummingbird_05s.jpg,1.0,clock_6_4.png,4.0,54,,,,,,,,,,,,,,,,,,0.0,20.0,20.0,20.0,1.0,,,,,,,,,,
0.0,1.0,2.463475,,,,,,ice-cream_cone_06s.jpg,0.0,clock_6_5.png,4.0,54,,,,,,,,,,,,,,,,,,0.0,21.0,21.0,21.0,1.0,,,,,,,,,,
0.0,1.0,0.834455,,,,,,ink_08s.jpg,0.0,clock_6_6.png,4.0,54,,,,,,,,,,,,,,,,,,0.0,22.0,22.0,22.0,1.0,,,,,,,,,,
0.0,1.0,1.05481,,,,,,butter_14s.jpg,0.0,clock_6_1.png,5.0,54,,,,,,,,,,,,,,,,,,0.0,23.0,23.0,23.0,1.0,,,,,,,,,,
0.0,1.0,2.35255,,,,,,ink_08s.jpg,0.0,clock_6_2.png,5.0,54,,,,,,,,,,,,,,,,,,0.0,24.0,24.0,24.0,1.0,,,,,,,,,,
0.0,1.0,1.894045,,,,,,foam_03s.jpg,0.0,clock_6_3.png,5.0,54,,,,,,,,,,,,,,,,,,0.0,25.0,25.0,25.0,1.0,,,,,,,,,,
0.0,1.0,2.25725,,,,,,lava_02s.jpg,0.0,clock_6_4.png,5.0,54,,,,,,,,,,,,,,,,,,0.0,26.0,26.0,26.0,1.0,,,,,,,,,,
0.0,1.0,1.438975,,,,,,rudder_02s.jpg,0.0,clock_6_5.png,5.0,54,,,,,,,,,,,,,,,,,,0.0,27.0,27.0,27.0,1.0,,,,,,,,,,
0.0,1.0,2.02407,,,,,,tab_09s.jpg,0.0,clock_6_6.png,5.0,54,,,,,,,,,,,,,,,,,,0.0,28.0,28.0,28.0,1.0,,,,,,,,,,
0.0,1.0,2.356495,,,,,,lemonade_04s.jpg,0.0,clock_7_1.png,6.0,54,,,,,,,,,,,,,,,,,,0.0,29.0,29.0,29.0,1.0,,,,,,,,,,
0.0,1.0,1.73589,,,,,,lollipop_08s.jpg,0.0,clock_7_2.png,6.0,54,,,,,,,,,,,,,,,,,,0.0,30.0,30.0,30.0,1.0,,,,,,,,,,
0.0,1.0,2.32304,,,,,,teabag_12s.jpg,0.0,clock_7_3.png,6.0,54,,,,,,,,,,,,,,,,,,0.0,31.0,31.0,31.0,1.0,,,,,,,,,,
0.0,1.0,0.737575,,,,,,sunglasses_11s.jpg,0.0,clock_7_4.png,6.0,54,,,,,,,,,,,,,,,,,,0.0,32.0,32.0,32.0,1.0,,,,,,,,,,
0.0,0.0,0.50584,,,,,,lemonade_04s.jpg,1.0,clock_7_5.png,6.0,54,,,,,,,,,,,,,,,,,,0.0,33.0,33.0,33.0,1.0,,,,,,,,,,
,0.0,,,,,,,fire_pit_10s.jpg,0.0,clock_7_6.png,6.0,54,,,,,,,,,,,,,,,,,,0.0,34.0,34.0,34.0,1.0,,,,,,,,,,
0.0,1.0,0.612815,,,,,,crayon_09s.jpg,0.0,clock_7_7.png,6.0,54,,,,,,,,,,,,,,,,,,0.0,35.0,35.0,35.0,1.0,,,,,,,,,,
,,,,,,,,,0.0,,,54,0.0,1.0,0.1713,,,,,,quad_04s.jpg,turtleneck_11s.jpg,,,,,,,,,,,,,0.0,0.0,0.0,0.0,1.0,,,,,
,,,,,,,,,1.0,,,54,0.0,0.0,0.03113,,,,,,umbrella_15s.jpg,inhaler_01b.jpg,,,,,,,,,,,,,0.0,1.0,1.0,1.0,1.0,,,,,
,,,,,,,,,1.0,,,54,0.0,0.0,0.148715,,,,,,quesadilla_07s.jpg,espresso_01b.jpg,,,,,,,,,,,,,0.0,2.0,2.0,2.0,1.0,,,,,
,,,,,,,,,1.0,,,54,0.0,0.0,0.0019,,,,,,scooter.jpg,ice-cream_cone_06s.jpg,,,,,,,,,,,,,0.0,3.0,3.0,3.0,1.0,,,,,
,,,,,,,,,1.0,,,54,0.0,0.0,0.017755,,,,,,butter_14s.jpg,lava_02s.jpg,,,,,,,,,,,,,0.0,4.0,4.0,4.0,1.0,,,,,
,,,,,,,,,1.0,,,54,0.0,0.0,0.00462,,,,,,rocket_02s.jpg,punch1_10s.jpg,,,,,,,,,,,,,0.0,5.0,5.0,5.0,1.0,,,,,
,,,,,,,,,,,,54,,,,,,,,,,,,,,,,clock_present_4_16.xlsx,clock_compare_task_4_16.xlsx,,,,,,,,,,,0.0,3.0,3.0,3.0,1.0
0.0,1.0,0.626695,,,,,,clover_04s.jpg,0.0,clock_6_1.png,1.0,54,,,,,,,,,,,,,,,,,,0.0,0.0,0.0,0.0,1.0,,,,,,,,,,
0.0,1.0,0.480155,,,,,,kayak_08s.jpg,0.0,clock_6_2.png,1.0,54,,,,,,,,,,,,,,,,,,0.0,1.0,1.0,1.0,1.0,,,,,,,,,,
0.0,1.0,1.455425,,,,,,toothpaste_12s.jpg,0.0,clock_6_3.png,1.0,54,,,,,,,,,,,,,,,,,,0.0,2.0,2.0,2.0,1.0,,,,,,,,,,
0.0,0.0,1.34197,,,,,,kayak_08s.jpg,1.0,clock_6_4.png,1.0,54,,,,,,,,,,,,,,,,,,0.0,3.0,3.0,3.0,1.0,,,,,,,,,,
0.0,0.0,0.62145,,,,,,clover_04s.jpg,1.0,clock_6_5.png,1.0,54,,,,,,,,,,,,,,,,,,0.0,4.0,4.0,4.0,1.0,,,,,,,,,,
0.0,1.0,1.22328,,,,,,bonsai_07s.jpg,0.0,clock_6_6.png,1.0,54,,,,,,,,,,,,,,,,,,0.0,5.0,5.0,5.0,1.0,,,,,,,,,,
0.0,1.0,0.52027,,,,,,comic_book_02s.jpg,0.0,clock_5_1.png,2.0,54,,,,,,,,,,,,,,,,,,0.0,6.0,6.0,6.0,1.0,,,,,,,,,,
0.0,1.0,1.053795,,,,,,penlight_12s.jpg,0.0,clock_5_2.png,2.0,54,,,,,,,,,,,,,,,,,,0.0,7.0,7.0,7.0,1.0,,,,,,,,,,
0.0,1.0,1.073115,,,,,,emerald_02s.jpg,0.0,clock_5_3.png,2.0,54,,,,,,,,,,,,,,,,,,0.0,8.0,8.0,8.0,1.0,,,,,,,,,,
0.0,1.0,1.96635,,,,,,mussel_11s.jpg,0.0,clock_5_4.png,2.0,54,,,,,,,,,,,,,,,,,,0.0,9.0,9.0,9.0,1.0,,,,,,,,,,
0.0,1.0,2.25808,,,,,,rock_08s.jpg,0.0,clock_5_5.png,2.0,54,,,,,,,,,,,,,,,,,,0.0,10.0,10.0,10.0,1.0,,,,,,,,,,
0.0,1.0,1.9161,,,,,,toilet_paper_12s.jpg,0.0,clock_6_1.png,3.0,54,,,,,,,,,,,,,,,,,,0.0,11.0,11.0,11.0,1.0,,,,,,,,,,
0.0,1.0,1.111405,,,,,,microwave_02s.jpg,0.0,clock_6_2.png,3.0,54,,,,,,,,,,,,,,,,,,0.0,12.0,12.0,12.0,1.0,,,,,,,,,,
0.0,0.0,1.014485,,,,,,toilet_paper_12s.jpg,1.0,clock_6_3.png,3.0,54,,,,,,,,,,,,,,,,,,0.0,13.0,13.0,13.0,1.0,,,,,,,,,,
0.0,1.0,0.28948,,,,,,mattress_01s.jpg,0.0,clock_6_4.png,3.0,54,,,,,,,,,,,,,,,,,,0.0,14.0,14.0,14.0,1.0,,,,,,,,,,
0.0,1.0,1.72503,,,,,,cushion_08s.jpg,0.0,clock_6_5.png,3.0,54,,,,,,,,,,,,,,,,,,0.0,15.0,15.0,15.0,1.0,,,,,,,,,,
,0.0,,,,,,,rhinoceros_02s.jpg,0.0,clock_6_6.png,3.0,54,,,,,,,,,,,,,,,,,,0.0,16.0,16.0,16.0,1.0,,,,,,,,,,
,0.0,,,,,,,latte_06s.jpg,0.0,clock_5_1.png,4.0,54,,,,,,,,,,,,,,,,,,0.0,17.0,17.0,17.0,1.0,,,,,,,,,,
,0.0,,,,,,,projector_08s.jpg,0.0,clock_5_2.png,4.0,54,,,,,,,,,,,,,,,,,,0.0,18.0,18.0,18.0,1.0,,,,,,,,,,
,0.0,,,,,,,rollerskate_03s.jpg,0.0,clock_5_3.png,4.0,54,,,,,,,,,,,,,,,,,,0.0,19.0,19.0,19.0,1.0,,,,,,,,,,
,0.0,,,,,,,latte_06s.jpg,1.0,clock_5_4.png,4.0,54,,,,,,,,,,,,,,,,,,0.0,20.0,20.0,20.0,1.0,,,,,,,,,,
1.0,0.0,0.452785,,,,,,pincushion_10s.jpg,0.0,clock_5_5.png,4.0,54,,,,,,,,,,,,,,,,,,0.0,21.0,21.0,21.0,1.0,,,,,,,,,,
,0.0,,,,,,,tuba_12s.jpg,0.0,clock_7_1.png,5.0,54,,,,,,,,,,,,,,,,,,0.0,22.0,22.0,22.0,1.0,,,,,,,,,,
,0.0,,,,,,,cucumber_07s.jpg,0.0,clock_7_2.png,5.0,54,,,,,,,,,,,,,,,,,,0.0,23.0,23.0,23.0,1.0,,,,,,,,,,
,0.0,,,,,,,treasure_08s.jpg,0.0,clock_7_3.png,5.0,54,,,,,,,,,,,,,,,,,,0.0,24.0,24.0,24.0,1.0,,,,,,,,,,
0.0,0.0,0.85277,,,,,,cucumber_07s.jpg,1.0,clock_7_4.png,5.0,54,,,,,,,,,,,,,,,,,,0.0,25.0,25.0,25.0,1.0,,,,,,,,,,
,0.0,,,,,,,razor_12s.jpg,0.0,clock_7_5.png,5.0,54,,,,,,,,,,,,,,,,,,0.0,26.0,26.0,26.0,1.0,,,,,,,,,,
0.0,1.0,0.38111,,,,,,sunflower_17s.jpg,0.0,clock_7_6.png,5.0,54,,,,,,,,,,,,,,,,,,0.0,27.0,27.0,27.0,1.0,,,,,,,,,,
0.0,1.0,0.620315,,,,,,basket_05s.jpg,0.0,clock_7_7.png,5.0,54,,,,,,,,,,,,,,,,,,0.0,28.0,28.0,28.0,1.0,,,,,,,,,,
,0.0,,,,,,,breadstick_08s.jpg,0.0,clock_7_1.png,6.0,54,,,,,,,,,,,,,,,,,,0.0,29.0,29.0,29.0,1.0,,,,,,,,,,
,0.0,,,,,,,breadstick_08s.jpg,1.0,clock_7_2.png,6.0,54,,,,,,,,,,,,,,,,,,0.0,30.0,30.0,30.0,1.0,,,,,,,,,,
0.0,0.0,1.102205,,,,,,breadstick_08s.jpg,1.0,clock_7_3.png,6.0,54,,,,,,,,,,,,,,,,,,0.0,31.0,31.0,31.0,1.0,,,,,,,,,,
,0.0,,,,,,,gingerbread_man_03s.jpg,0.0,clock_7_4.png,6.0,54,,,,,,,,,,,,,,,,,,0.0,32.0,32.0,32.0,1.0,,,,,,,,,,
0.0,1.0,0.332155,,,,,,laser_pointer_02s.jpg,0.0,clock_7_5.png,6.0,54,,,,,,,,,,,,,,,,,,0.0,33.0,33.0,33.0,1.0,,,,,,,,,,
0.0,1.0,0.582665,,,,,,marshmallow_08s.jpg,0.0,clock_7_6.png,6.0,54,,,,,,,,,,,,,,,,,,0.0,34.0,34.0,34.0,1.0,,,,,,,,,,
,0.0,,,,,,,breadstick_08s.jpg,1.0,clock_7_7.png,6.0,54,,,,,,,,,,,,,,,,,,0.0,35.0,35.0,35.0,1.0,,,,,,,,,,
,,,,,,,,,1.0,,,54,0.0,0.0,0.333515,,,,,,rhinoceros_02s.jpg,rollerskate_03s.jpg,,,,,,,,,,,,,0.0,0.0,0.0,0.0,1.0,,,,,
,,,,,,,,,0.0,,,54,0.0,1.0,0.066635,,,,,,emerald_02s.jpg,bonsai_07s.jpg,,,,,,,,,,,,,0.0,1.0,1.0,1.0,1.0,,,,,
,,,,,,,,,0.0,,,54,0.0,1.0,0.26752,,,,,,microwave_02s.jpg,mussel_11s.jpg,,,,,,,,,,,,,0.0,2.0,2.0,2.0,1.0,,,,,
,,,,,,,,,0.0,,,54,0.0,1.0,0.25161,,,,,,rock_08s.jpg,penlight_12s.jpg,,,,,,,,,,,,,0.0,3.0,3.0,3.0,1.0,,,,,
,,,,,,,,,1.0,,,54,0.0,0.0,0.167335,,,,,,treasure_08s.jpg,sunflower_17s.jpg,,,,,,,,,,,,,0.0,4.0,4.0,4.0,1.0,,,,,
,,,,,,,,,1.0,,,54,0.0,0.0,0.05008,,,,,,projector_08s.jpg,pincushion_10s.jpg,,,,,,,,,,,,,0.0,5.0,5.0,5.0,1.0,,,,,
,,,,,,,,,,,,54,,,,,,,,,,,,,,,,clock_present_5_16.xlsx,clock_compare_task_5_16.xlsx,,,,,,,,,,,0.0,4.0,4.0,4.0,1.0
0.0,1.0,1.018435,,,,,,buoy_04s.jpg,0.0,clock_5_1.png,1.0,54,,,,,,,,,,,,,,,,,,0.0,0.0,0.0,0.0,1.0,,,,,,,,,,
0.0,1.0,0.89018,,,,,,punch2_09s.jpg,0.0,clock_5_2.png,1.0,54,,,,,,,,,,,,,,,,,,0.0,1.0,1.0,1.0,1.0,,,,,,,,,,
0.0,1.0,1.316795,,,,,,rosary_03s.jpg,0.0,clock_5_3.png,1.0,54,,,,,,,,,,,,,,,,,,0.0,2.0,2.0,2.0,1.0,,,,,,,,,,
,0.0,,,,,,,toad_09s.jpg,0.0,clock_5_4.png,1.0,54,,,,,,,,,,,,,,,,,,0.0,3.0,3.0,3.0,1.0,,,,,,,,,,
0.0,1.0,2.435465,,,,,,lab_coat_11s.jpg,0.0,clock_5_5.png,1.0,54,,,,,,,,,,,,,,,,,,0.0,4.0,4.0,4.0,1.0,,,,,,,,,,
0.0,1.0,2.219565,,,,,,swing_set_15s.jpg,0.0,clock_5_1.png,2.0,54,,,,,,,,,,,,,,,,,,0.0,5.0,5.0,5.0,1.0,,,,,,,,,,
0.0,0.0,1.62005,,,,,,swing_set_15s.jpg,1.0,clock_5_2.png,2.0,54,,,,,,,,,,,,,,,,,,0.0,6.0,6.0,6.0,1.0,,,,,,,,,,
0.0,0.0,0.602875,,,,,,swing_set_15s.jpg,1.0,clock_5_3.png,2.0,54,,,,,,,,,,,,,,,,,,0.0,7.0,7.0,7.0,1.0,,,,,,,,,,
1.0,1.0,2.06987,,,,,,swing_set_15s.jpg,1.0,clock_5_4.png,2.0,54,,,,,,,,,,,,,,,,,,0.0,8.0,8.0,8.0,1.0,,,,,,,,,,
1.0,0.0,1.95264,,,,,,tennis_ball_06s.jpg,0.0,clock_5_5.png,2.0,54,,,,,,,,,,,,,,,,,,0.0,9.0,9.0,9.0,1.0,,,,,,,,,,
0.0,1.0,0.750805,,,,,,powder_07s.jpg,0.0,clock_6_1.png,3.0,54,,,,,,,,,,,,,,,,,,0.0,10.0,10.0,10.0,1.0,,,,,,,,,,
0.0,1.0,1.951545,,,,,,tattoo_14s.jpg,0.0,clock_6_2.png,3.0,54,,,,,,,,,,,,,,,,,,0.0,11.0,11.0,11.0,1.0,,,,,,,,,,
0.0,1.0,1.60324,,,,,,cape_11s.jpg,0.0,clock_6_3.png,3.0,54,,,,,,,,,,,,,,,,,,0.0,12.0,12.0,12.0,1.0,,,,,,,,,,
0.0,1.0,2.40306,,,,,,turnstile_08s.jpg,0.0,clock_6_4.png,3.0,54,,,,,,,,,,,,,,,,,,0.0,13.0,13.0,13.0,1.0,,,,,,,,,,
0.0,0.0,1.65134,,,,,,cape_11s.jpg,1.0,clock_6_5.png,3.0,54,,,,,,,,,,,,,,,,,,0.0,14.0,14.0,14.0,1.0,,,,,,,,,,
0.0,1.0,1.91992,,,,,,loveseat_08s.jpg,0.0,clock_6_6.png,3.0,54,,,,,,,,,,,,,,,,,,0.0,15.0,15.0,15.0,1.0,,,,,,,,,,
0.0,1.0,0.567785,,,,,,swan_11s.jpg,0.0,clock_6_1.png,4.0,54,,,,,,,,,,,,,,,,,,0.0,16.0,16.0,16.0,1.0,,,,,,,,,,
0.0,1.0,1.135465,,,,,,totem_pole_05s.jpg,0.0,clock_6_2.png,4.0,54,,,,,,,,,,,,,,,,,,0.0,17.0,17.0,17.0,1.0,,,,,,,,,,
0.0,1.0,0.933835,,,,,,lip_gloss_06s.jpg,0.0,clock_6_3.png,4.0,54,,,,,,,,,,,,,,,,,,0.0,18.0,18.0,18.0,1.0,,,,,,,,,,
0.0,1.0,0.868565,,,,,,toad_09s.jpg,0.0,clock_6_4.png,4.0,54,,,,,,,,,,,,,,,,,,0.0,19.0,19.0,19.0,1.0,,,,,,,,,,
0.0,1.0,0.71816,,,,,,ring_03s.jpg,0.0,clock_6_5.png,4.0,54,,,,,,,,,,,,,,,,,,0.0,20.0,20.0,20.0,1.0,,,,,,,,,,
0.0,1.0,1.384985,,,,,,powder_07s.jpg,0.0,clock_6_6.png,4.0,54,,,,,,,,,,,,,,,,,,0.0,21.0,21.0,21.0,1.0,,,,,,,,,,
0.0,1.0,0.485255,,,,,,taxi_15s.jpg,0.0,clock_7_1.png,5.0,54,,,,,,,,,,,,,,,,,,0.0,22.0,22.0,22.0,1.0,,,,,,,,,,
0.0,0.0,2.019635,,,,,,taxi_15s.jpg,1.0,clock_7_2.png,5.0,54,,,,,,,,,,,,,,,,,,0.0,23.0,23.0,23.0,1.0,,,,,,,,,,
,0.0,,,,,,,gazelle_10s.jpg,0.0,clock_7_3.png,5.0,54,,,,,,,,,,,,,,,,,,0.0,24.0,24.0,24.0,1.0,,,,,,,,,,
,0.0,,,,,,,thumbtack_14s.jpg,0.0,clock_7_4.png,5.0,54,,,,,,,,,,,,,,,,,,0.0,25.0,25.0,25.0,1.0,,,,,,,,,,
0.0,1.0,0.450985,,,,,,hyena_16s.jpg,0.0,clock_7_5.png,5.0,54,,,,,,,,,,,,,,,,,,0.0,26.0,26.0,26.0,1.0,,,,,,,,,,
0.0,1.0,0.66859,,,,,,badge_03s.jpg,0.0,clock_7_6.png,5.0,54,,,,,,,,,,,,,,,,,,0.0,27.0,27.0,27.0,1.0,,,,,,,,,,
0.0,1.0,0.66715,,,,,,blazer_02s.jpg,0.0,clock_7_7.png,5.0,54,,,,,,,,,,,,,,,,,,0.0,28.0,28.0,28.0,1.0,,,,,,,,,,
,0.0,,,,,,,blowfish_03s.jpg,0.0,clock_7_1.png,6.0,54,,,,,,,,,,,,,,,,,,0.0,29.0,29.0,29.0,1.0,,,,,,,,,,
0.0,1.0,0.801205,,,,,,licorice_06s.jpg,0.0,clock_7_2.png,6.0,54,,,,,,,,,,,,,,,,,,0.0,30.0,30.0,30.0,1.0,,,,,,,,,,
0.0,1.0,1.802585,,,,,,checkbook_11s.jpg,0.0,clock_7_3.png,6.0,54,,,,,,,,,,,,,,,,,,0.0,31.0,31.0,31.0,1.0,,,,,,,,,,
0.0,1.0,0.15047,,,,,,reindeer_08s.jpg,0.0,clock_7_4.png,6.0,54,,,,,,,,,,,,,,,,,,0.0,32.0,32.0,32.0,1.0,,,,,,,,,,
0.0,1.0,0.035065,,,,,,doily_13s.jpg,0.0,clock_7_5.png,6.0,54,,,,,,,,,,,,,,,,,,0.0,33.0,33.0,33.0,1.0,,,,,,,,,,
,0.0,,,,,,,possum_09s.jpg,0.0,clock_7_6.png,6.0,54,,,,,,,,,,,,,,,,,,0.0,34.0,34.0,34.0,1.0,,,,,,,,,,
0.0,1.0,2.286855,,,,,,keyboard_05s.jpg,0.0,clock_7_7.png,6.0,54,,,,,,,,,,,,,,,,,,0.0,35.0,35.0,35.0,1.0,,,,,,,,,,
,,,,,,,,,1.0,,,54,0.0,0.0,0.28381,,,,,,turnstile_08s.jpg,swan_11s.jpg,,,,,,,,,,,,,0.0,0.0,0.0,0.0,1.0,,,,,
,,,,,,,,,1.0,,,54,0.0,0.0,0.017425,,,,,,loveseat_08s.jpg,lip_gloss_06s.jpg,,,,,,,,,,,,,0.0,1.0,1.0,1.0,1.0,,,,,
,,,,,,,,,1.0,,,54,0.0,0.0,0.00095,,,,,,hyena_16s.jpg,blowfish_03s.jpg,,,,,,,,,,,,,0.0,2.0,2.0,2.0,1.0,,,,,
,,,,,,,,,0.0,,,54,0.0,1.0,0.01687,,,,,,lab_coat_11s.jpg,punch2_09s.jpg,,,,,,,,,,,,,0.0,3.0,3.0,3.0,1.0,,,,,
,,,,,,,,,0.0,,,54,0.0,1.0,0.0148,,,,,,ring_03s.jpg,totem_pole_05s.jpg,,,,,,,,,,,,,0.0,4.0,4.0,4.0,1.0,,,,,
,,,,,,,,,0.0,,,54,0.0,1.0,0.0346,,,,,,keyboard_05s.jpg,reindeer_08s.jpg,,,,,,,,,,,,,0.0,5.0,5.0,5.0,1.0,,,,,
