key_resp.keys,key_resp.corr,key_resp.rt,noclock_loop.thisRepN,noclock_loop.thisTrialN,noclock_loop.thisN,noclock_loop.thisIndex,noclock_loop.ran,pictures,answer,clock,segment,participant,key_resp_2.keys,key_resp_2.corr,key_resp_2.rt,noclock_loop2.thisRepN,noclock_loop2.thisTrialN,noclock_loop2.thisN,noclock_loop2.thisIndex,noclock_loop2.ran,item_a,item_b,noclock_condition.thisRepN,noclock_condition.thisTrialN,noclock_condition.thisN,noclock_condition.thisIndex,noclock_condition.ran,present,compare,present_segment.thisRepN,present_segment.thisTrialN,present_segment.thisN,present_segment.thisIndex,present_segment.ran,compare_segment.thisRepN,compare_segment.thisTrialN,compare_segment.thisN,compare_segment.thisIndex,compare_segment.ran,clock_conditions.thisRepN,clock_conditions.thisTrialN,clock_conditions.thisN,clock_conditions.thisIndex,clock_conditions.ran
0.0,1.0,1.588705,0.0,0.0,0.0,0.0,1.0,lasagna_06s.jpg,0.0,clockno_up.jpg,1.0,0,,,,,,,,,,,,,,,,,,,,,,,,,,,,,,,,
0.0,1.0,0.91943,0.0,1.0,1.0,1.0,1.0,kitten_07s.jpg,0.0,clockno_default.jpg,1.0,0,,,,,,,,,,,,,,,,,,,,,,,,,,,,,,,,
0.0,1.0,0.456645,0.0,2.0,2.0,2.0,1.0,dashboard_02s.jpg,0.0,clockno_default.jpg,1.0,0,,,,,,,,,,,,,,,,,,,,,,,,,,,,,,,,
0.0,1.0,0.47819,0.0,3.0,3.0,3.0,1.0,tattoo_14s.jpg,0.0,clockno_default.jpg,1.0,0,,,,,,,,,,,,,,,,,,,,,,,,,,,,,,,,
0.0,1.0,0.699625,0.0,4.0,4.0,4.0,1.0,razor_12s.jpg,0.0,clockno_default.jpg,1.0,0,,,,,,,,,,,,,,,,,,,,,,,,,,,,,,,,
0.0,1.0,0.54829,0.0,5.0,5.0,5.0,1.0,pumpkin_03s.jpg,0.0,clockno_default.jpg,1.0,0,,,,,,,,,,,,,,,,,,,,,,,,,,,,,,,,
0.0,1.0,0.539735,0.0,6.0,6.0,6.0,1.0,doily_13s.jpg,0.0,clockno_default.jpg,1.0,0,,,,,,,,,,,,,,,,,,,,,,,,,,,,,,,,
0.0,1.0,1.056955,0.0,7.0,7.0,7.0,1.0,lollipop_08s.jpg,0.0,clockno_up.jpg,2.0,0,,,,,,,,,,,,,,,,,,,,,,,,,,,,,,,,
0.0,1.0,0.47925,0.0,8.0,8.0,8.0,1.0,measuring_cup_02s.jpg,0.0,clockno_default.jpg,2.0,0,,,,,,,,,,,,,,,,,,,,,,,,,,,,,,,,
0.0,1.0,0.88283,0.0,9.0,9.0,9.0,1.0,puffin_19s.jpg,0.0,clockno_default.jpg,2.0,0,,,,,,,,,,,,,,,,,,,,,,,,,,,,,,,,
0.0,1.0,0.46103,0.0,10.0,10.0,10.0,1.0,ukulele_02s.jpg,0.0,clockno_default.jpg,2.0,0,,,,,,,,,,,,,,,,,,,,,,,,,,,,,,,,
0.0,1.0,0.70648,0.0,11.0,11.0,11.0,1.0,plunger_08s.jpg,0.0,clockno_default.jpg,2.0,0,,,,,,,,,,,,,,,,,,,,,,,,,,,,,,,,
1.0,1.0,1.025165,0.0,12.0,12.0,12.0,1.0,plunger_08s.jpg,1.0,clockno_default.jpg,2.0,0,,,,,,,,,,,,,,,,,,,,,,,,,,,,,,,,
0.0,1.0,0.673635,0.0,13.0,13.0,13.0,1.0,tupperware_09s.jpg,0.0,clockno_up.jpg,3.0,0,,,,,,,,,,,,,,,,,,,,,,,,,,,,,,,,
1.0,1.0,0.7755,0.0,14.0,14.0,14.0,1.0,tupperware_09s.jpg,1.0,clockno_default.jpg,3.0,0,,,,,,,,,,,,,,,,,,,,,,,,,,,,,,,,
1.0,0.0,1.42705,0.0,15.0,15.0,15.0,1.0,puffin_19s.jpg,0.0,clockno_default.jpg,3.0,0,,,,,,,,,,,,,,,,,,,,,,,,,,,,,,,,
1.0,1.0,1.00237,0.0,16.0,16.0,16.0,1.0,tupperware_09s.jpg,1.0,clockno_default.jpg,3.0,0,,,,,,,,,,,,,,,,,,,,,,,,,,,,,,,,
0.0,1.0,1.17231,0.0,17.0,17.0,17.0,1.0,thread_08s.jpg,0.0,clockno_default.jpg,3.0,0,,,,,,,,,,,,,,,,,,,,,,,,,,,,,,,,
0.0,1.0,0.91921,0.0,18.0,18.0,18.0,1.0,knot_01b.jpg,0.0,clockno_default.jpg,3.0,0,,,,,,,,,,,,,,,,,,,,,,,,,,,,,,,,
0.0,1.0,0.874525,0.0,19.0,19.0,19.0,1.0,tulip_02s.jpg,0.0,clockno_up.jpg,4.0,0,,,,,,,,,,,,,,,,,,,,,,,,,,,,,,,,
0.0,1.0,0.853375,0.0,20.0,20.0,20.0,1.0,oil_02s.jpg,0.0,clockno_default.jpg,4.0,0,,,,,,,,,,,,,,,,,,,,,,,,,,,,,,,,
0.0,1.0,1.496435,0.0,21.0,21.0,21.0,1.0,luggage_08s.jpg,0.0,clockno_default.jpg,4.0,0,,,,,,,,,,,,,,,,,,,,,,,,,,,,,,,,
0.0,1.0,0.65926,0.0,22.0,22.0,22.0,1.0,treasure_08s.jpg,0.0,clockno_default.jpg,4.0,0,,,,,,,,,,,,,,,,,,,,,,,,,,,,,,,,
0.0,1.0,1.04589,0.0,23.0,23.0,23.0,1.0,mango_09s.jpg,0.0,clockno_default.jpg,4.0,0,,,,,,,,,,,,,,,,,,,,,,,,,,,,,,,,
0.0,1.0,0.755955,0.0,24.0,24.0,24.0,1.0,printer_09s.jpg,0.0,clockno_default.jpg,4.0,0,,,,,,,,,,,,,,,,,,,,,,,,,,,,,,,,
0.0,1.0,0.684405,0.0,25.0,25.0,25.0,1.0,pump_11s.jpg,0.0,clockno_default.jpg,4.0,0,,,,,,,,,,,,,,,,,,,,,,,,,,,,,,,,
0.0,1.0,1.04785,0.0,26.0,26.0,26.0,1.0,sugar_cube_11s.jpg,0.0,clockno_up.jpg,5.0,0,,,,,,,,,,,,,,,,,,,,,,,,,,,,,,,,
0.0,1.0,0.522885,0.0,27.0,27.0,27.0,1.0,cotton_candy_01b.jpg,0.0,clockno_default.jpg,5.0,0,,,,,,,,,,,,,,,,,,,,,,,,,,,,,,,,
1.0,0.0,1.56232,0.0,28.0,28.0,28.0,1.0,treasure_08s.jpg,0.0,clockno_default.jpg,5.0,0,,,,,,,,,,,,,,,,,,,,,,,,,,,,,,,,
1.0,1.0,1.092025,0.0,29.0,29.0,29.0,1.0,cotton_candy_01b.jpg,1.0,clockno_default.jpg,5.0,0,,,,,,,,,,,,,,,,,,,,,,,,,,,,,,,,
0.0,1.0,0.860695,0.0,30.0,30.0,30.0,1.0,popsicle_02s.jpg,0.0,clockno_default.jpg,5.0,0,,,,,,,,,,,,,,,,,,,,,,,,,,,,,,,,
0.0,1.0,1.168735,0.0,31.0,31.0,31.0,1.0,polar_bear_02s.jpg,0.0,clockno_up.jpg,6.0,0,,,,,,,,,,,,,,,,,,,,,,,,,,,,,,,,
0.0,1.0,0.746375,0.0,32.0,32.0,32.0,1.0,leash_10s.jpg,0.0,clockno_default.jpg,6.0,0,,,,,,,,,,,,,,,,,,,,,,,,,,,,,,,,
0.0,1.0,1.480315,0.0,33.0,33.0,33.0,1.0,rocking_horse_03s.jpg,0.0,clockno_default.jpg,6.0,0,,,,,,,,,,,,,,,,,,,,,,,,,,,,,,,,
1.0,1.0,1.786595,0.0,34.0,34.0,34.0,1.0,leash_10s.jpg,1.0,clockno_default.jpg,6.0,0,,,,,,,,,,,,,,,,,,,,,,,,,,,,,,,,
1.0,1.0,0.749235,0.0,35.0,35.0,35.0,1.0,leash_10s.jpg,1.0,clockno_default.jpg,6.0,0,,,,,,,,,,,,,,,,,,,,,,,,,,,,,,,,
,,,,,,,,,1.0,,,0,1.0,1.0,1.922655,0.0,0.0,0.0,0.0,1.0,popsicle_02s.jpg,rocking_horse_03s.jpg,,,,,,,,,,,,,,,,,,,,,,
,,,,,,,,,1.0,,,0,0.0,0.0,1.63914,0.0,1.0,1.0,1.0,1.0,pumpkin_03s.jpg,measuring_cup_02s.jpg,,,,,,,,,,,,,,,,,,,,,,
,,,,,,,,,1.0,,,0,1.0,1.0,1.415075,0.0,2.0,2.0,2.0,1.0,thread_08s.jpg,oil_02s.jpg,,,,,,,,,,,,,,,,,,,,,,
,,,,,,,,,1.0,,,0,0.0,0.0,1.63199,0.0,3.0,3.0,3.0,1.0,lasagna_06s.jpg,tattoo_14s.jpg,,,,,,,,,,,,,,,,,,,,,,
,,,,,,,,,1.0,,,0,1.0,1.0,1.17565,0.0,4.0,4.0,4.0,1.0,kitten_07s.jpg,razor_12s.jpg,,,,,,,,,,,,,,,,,,,,,,
,,,,,,,,,1.0,,,0,1.0,1.0,1.396795,0.0,5.0,5.0,5.0,1.0,lollipop_08s.jpg,ukulele_02s.jpg,,,,,,,,,,,,,,,,,,,,,,
,,,,,,,,,,,,0,,,,,,,,,,,0.0,0.0,0.0,0.0,1.0,clockno_present_1_15.xlsx,clockno_compare_task_1_15.xlsx,,,,,,,,,,,,,,,
0.0,1.0,0.733505,0.0,0.0,0.0,0.0,1.0,teapot_03s.jpg,0.0,clockno_up.jpg,1.0,0,,,,,,,,,,,,,,,,,,,,,,,,,,,,,,,,
0.0,1.0,0.67569,0.0,1.0,1.0,1.0,1.0,ticktacktoe_08s.jpg,0.0,clockno_default.jpg,1.0,0,,,,,,,,,,,,,,,,,,,,,,,,,,,,,,,,
0.0,1.0,0.63977,0.0,2.0,2.0,2.0,1.0,espresso_01b.jpg,0.0,clockno_default.jpg,1.0,0,,,,,,,,,,,,,,,,,,,,,,,,,,,,,,,,
0.0,1.0,0.56477,0.0,3.0,3.0,3.0,1.0,smoothie_09s.jpg,0.0,clockno_default.jpg,1.0,0,,,,,,,,,,,,,,,,,,,,,,,,,,,,,,,,
1.0,1.0,0.7711,0.0,4.0,4.0,4.0,1.0,espresso_01b.jpg,1.0,clockno_default.jpg,1.0,0,,,,,,,,,,,,,,,,,,,,,,,,,,,,,,,,
0.0,1.0,0.636025,0.0,5.0,5.0,5.0,1.0,latte_06s.jpg,0.0,clockno_default.jpg,1.0,0,,,,,,,,,,,,,,,,,,,,,,,,,,,,,,,,
1.0,1.0,1.53732,0.0,6.0,6.0,6.0,1.0,smoothie_09s.jpg,1.0,clockno_default.jpg,1.0,0,,,,,,,,,,,,,,,,,,,,,,,,,,,,,,,,
0.0,1.0,0.64293,0.0,7.0,7.0,7.0,1.0,milk_02s.jpg,0.0,clockno_up.jpg,2.0,0,,,,,,,,,,,,,,,,,,,,,,,,,,,,,,,,
0.0,1.0,0.950675,0.0,8.0,8.0,8.0,1.0,teapot_03s.jpg,0.0,clockno_default.jpg,2.0,0,,,,,,,,,,,,,,,,,,,,,,,,,,,,,,,,
0.0,1.0,0.55946,0.0,9.0,9.0,9.0,1.0,koala_13s.jpg,0.0,clockno_default.jpg,2.0,0,,,,,,,,,,,,,,,,,,,,,,,,,,,,,,,,
0.0,1.0,0.53118,0.0,10.0,10.0,10.0,1.0,machete_06s.jpg,0.0,clockno_default.jpg,2.0,0,,,,,,,,,,,,,,,,,,,,,,,,,,,,,,,,
1.0,1.0,1.36143,0.0,11.0,11.0,11.0,1.0,teapot_03s.jpg,1.0,clockno_default.jpg,2.0,0,,,,,,,,,,,,,,,,,,,,,,,,,,,,,,,,
0.0,1.0,1.16921,0.0,12.0,12.0,12.0,1.0,mascara_03s.jpg,0.0,clockno_default.jpg,2.0,0,,,,,,,,,,,,,,,,,,,,,,,,,,,,,,,,
0.0,1.0,1.07634,0.0,13.0,13.0,13.0,1.0,hydrant_10s.jpg,0.0,clockno_up.jpg,3.0,0,,,,,,,,,,,,,,,,,,,,,,,,,,,,,,,,
0.0,1.0,0.86374,0.0,14.0,14.0,14.0,1.0,feather02.jpg,0.0,clockno_default.jpg,3.0,0,,,,,,,,,,,,,,,,,,,,,,,,,,,,,,,,
0.0,1.0,0.860245,0.0,15.0,15.0,15.0,1.0,fox_13s.jpg,0.0,clockno_default.jpg,3.0,0,,,,,,,,,,,,,,,,,,,,,,,,,,,,,,,,
0.0,1.0,0.67691,0.0,16.0,16.0,16.0,1.0,thermostat_02s.jpg,0.0,clockno_default.jpg,3.0,0,,,,,,,,,,,,,,,,,,,,,,,,,,,,,,,,
0.0,1.0,0.74078,0.0,17.0,17.0,17.0,1.0,possum_09s.jpg,0.0,clockno_default.jpg,3.0,0,,,,,,,,,,,,,,,,,,,,,,,,,,,,,,,,
0.0,1.0,0.826745,0.0,18.0,18.0,18.0,1.0,memory_stick_11s.jpg,0.0,clockno_up.jpg,4.0,0,,,,,,,,,,,,,,,,,,,,,,,,,,,,,,,,
1.0,1.0,1.2973,0.0,19.0,19.0,19.0,1.0,memory_stick_11s.jpg,1.0,clockno_default.jpg,4.0,0,,,,,,,,,,,,,,,,,,,,,,,,,,,,,,,,
0.0,1.0,0.84399,0.0,20.0,20.0,20.0,1.0,mascara_03s.jpg,0.0,clockno_default.jpg,4.0,0,,,,,,,,,,,,,,,,,,,,,,,,,,,,,,,,
0.0,1.0,0.52535,0.0,21.0,21.0,21.0,1.0,ice-cream_cone_06s.jpg,0.0,clockno_default.jpg,4.0,0,,,,,,,,,,,,,,,,,,,,,,,,,,,,,,,,
0.0,1.0,0.52356,0.0,22.0,22.0,22.0,1.0,cucumber_07s.jpg,0.0,clockno_default.jpg,4.0,0,,,,,,,,,,,,,,,,,,,,,,,,,,,,,,,,
0.0,1.0,0.834065,0.0,23.0,23.0,23.0,1.0,punch1_10s.jpg,0.0,clockno_default.jpg,4.0,0,,,,,,,,,,,,,,,,,,,,,,,,,,,,,,,,
0.0,1.0,0.93619,0.0,24.0,24.0,24.0,1.0,fondue_07s.jpg,0.0,clockno_up.jpg,5.0,0,,,,,,,,,,,,,,,,,,,,,,,,,,,,,,,,
0.0,1.0,0.54613,0.0,25.0,25.0,25.0,1.0,kangaroo_02s.jpg,0.0,clockno_default.jpg,5.0,0,,,,,,,,,,,,,,,,,,,,,,,,,,,,,,,,
0.0,1.0,0.642475,0.0,26.0,26.0,26.0,1.0,teacup_07s.jpg,0.0,clockno_default.jpg,5.0,0,,,,,,,,,,,,,,,,,,,,,,,,,,,,,,,,
0.0,1.0,0.75197,0.0,27.0,27.0,27.0,1.0,lid_10s.jpg,0.0,clockno_default.jpg,5.0,0,,,,,,,,,,,,,,,,,,,,,,,,,,,,,,,,
0.0,1.0,0.573935,0.0,28.0,28.0,28.0,1.0,pear_02s.jpg,0.0,clockno_default.jpg,5.0,0,,,,,,,,,,,,,,,,,,,,,,,,,,,,,,,,
0.0,1.0,0.59311,0.0,29.0,29.0,29.0,1.0,pacifier_09s.jpg,0.0,clockno_up.jpg,6.0,0,,,,,,,,,,,,,,,,,,,,,,,,,,,,,,,,
0.0,1.0,0.707125,0.0,30.0,30.0,30.0,1.0,raspberry_12s.jpg,0.0,clockno_default.jpg,6.0,0,,,,,,,,,,,,,,,,,,,,,,,,,,,,,,,,
1.0,1.0,1.576875,0.0,31.0,31.0,31.0,1.0,pacifier_09s.jpg,1.0,clockno_default.jpg,6.0,0,,,,,,,,,,,,,,,,,,,,,,,,,,,,,,,,
1.0,1.0,0.72478,0.0,32.0,32.0,32.0,1.0,raspberry_12s.jpg,1.0,clockno_default.jpg,6.0,0,,,,,,,,,,,,,,,,,,,,,,,,,,,,,,,,
1.0,1.0,0.644335,0.0,33.0,33.0,33.0,1.0,raspberry_12s.jpg,1.0,clockno_default.jpg,6.0,0,,,,,,,,,,,,,,,,,,,,,,,,,,,,,,,,
1.0,1.0,1.23151,0.0,34.0,34.0,34.0,1.0,pacifier_09s.jpg,1.0,clockno_default.jpg,6.0,0,,,,,,,,,,,,,,,,,,,,,,,,,,,,,,,,
0.0,1.0,0.91111,0.0,35.0,35.0,35.0,1.0,cereal_04s.jpg,0.0,clockno_default.jpg,6.0,0,,,,,,,,,,,,,,,,,,,,,,,,,,,,,,,,
,,,,,,,,,0.0,,,0,1.0,0.0,2.17537,0.0,0.0,0.0,0.0,1.0,teacup_07s.jpg,punch1_10s.jpg,,,,,,,,,,,,,,,,,,,,,,
,,,,,,,,,1.0,,,0,0.0,0.0,2.181005,0.0,1.0,1.0,1.0,1.0,ice-cream_cone_06s.jpg,fondue_07s.jpg,,,,,,,,,,,,,,,,,,,,,,
,,,,,,,,,1.0,,,0,1.0,1.0,3.407795,0.0,2.0,2.0,2.0,1.0,cucumber_07s.jpg,kangaroo_02s.jpg,,,,,,,,,,,,,,,,,,,,,,
,,,,,,,,,0.0,,,0,1.0,0.0,2.032915,0.0,3.0,3.0,3.0,1.0,possum_09s.jpg,feather02.jpg,,,,,,,,,,,,,,,,,,,,,,
,,,,,,,,,1.0,,,0,1.0,1.0,2.58157,0.0,4.0,4.0,4.0,1.0,milk_02s.jpg,machete_06s.jpg,,,,,,,,,,,,,,,,,,,,,,
,,,,,,,,,1.0,,,0,0.0,0.0,2.93696,0.0,5.0,5.0,5.0,1.0,hydrant_10s.jpg,thermostat_02s.jpg,,,,,,,,,,,,,,,,,,,,,,
,,,,,,,,,,,,0,,,,,,,,,,,0.0,1.0,1.0,1.0,1.0,clockno_present_2_15.xlsx,clockno_compare_task_2_15.xlsx,,,,,,,,,,,,,,,
0.0,1.0,1.366885,0.0,0.0,0.0,0.0,1.0,soda_fountain_03s.jpg,0.0,clockno_up.jpg,1.0,0,,,,,,,,,,,,,,,,,,,,,,,,,,,,,,,,
0.0,1.0,1.02322,0.0,1.0,1.0,1.0,1.0,playpen_11s.jpg,0.0,clockno_default.jpg,1.0,0,,,,,,,,,,,,,,,,,,,,,,,,,,,,,,,,
0.0,1.0,0.90665,0.0,2.0,2.0,2.0,1.0,spatula04.jpg,0.0,clockno_default.jpg,1.0,0,,,,,,,,,,,,,,,,,,,,,,,,,,,,,,,,
0.0,1.0,0.84223,0.0,3.0,3.0,3.0,1.0,mitten_10s.jpg,0.0,clockno_default.jpg,1.0,0,,,,,,,,,,,,,,,,,,,,,,,,,,,,,,,,
1.0,1.0,0.98429,0.0,4.0,4.0,4.0,1.0,playpen_11s.jpg,1.0,clockno_default.jpg,1.0,0,,,,,,,,,,,,,,,,,,,,,,,,,,,,,,,,
0.0,1.0,0.724465,0.0,5.0,5.0,5.0,1.0,icemaker_10s.jpg,0.0,clockno_up.jpg,2.0,0,,,,,,,,,,,,,,,,,,,,,,,,,,,,,,,,
0.0,1.0,0.762345,0.0,6.0,6.0,6.0,1.0,teabag_12s.jpg,0.0,clockno_default.jpg,2.0,0,,,,,,,,,,,,,,,,,,,,,,,,,,,,,,,,
0.0,1.0,0.527745,0.0,7.0,7.0,7.0,1.0,trumpet_06s.jpg,0.0,clockno_default.jpg,2.0,0,,,,,,,,,,,,,,,,,,,,,,,,,,,,,,,,
0.0,1.0,0.62573,0.0,8.0,8.0,8.0,1.0,tweezers_03s.jpg,0.0,clockno_default.jpg,2.0,0,,,,,,,,,,,,,,,,,,,,,,,,,,,,,,,,
0.0,1.0,1.56754,0.0,9.0,9.0,9.0,1.0,spatula04.jpg,0.0,clockno_default.jpg,2.0,0,,,,,,,,,,,,,,,,,,,,,,,,,,,,,,,,
0.0,1.0,0.864645,0.0,10.0,10.0,10.0,1.0,clover_04s.jpg,0.0,clockno_default.jpg,2.0,0,,,,,,,,,,,,,,,,,,,,,,,,,,,,,,,,
0.0,1.0,0.721635,0.0,11.0,11.0,11.0,1.0,ivy_12s.jpg,0.0,clockno_default.jpg,2.0,0,,,,,,,,,,,,,,,,,,,,,,,,,,,,,,,,
0.0,1.0,0.79886,0.0,12.0,12.0,12.0,1.0,marshmallow_08s.jpg,0.0,clockno_up.jpg,3.0,0,,,,,,,,,,,,,,,,,,,,,,,,,,,,,,,,
0.0,1.0,0.66472,0.0,13.0,13.0,13.0,1.0,eiffeltower.jpg,0.0,clockno_default.jpg,3.0,0,,,,,,,,,,,,,,,,,,,,,,,,,,,,,,,,
0.0,1.0,0.669405,0.0,14.0,14.0,14.0,1.0,exhaust_pipe_10s.jpg,0.0,clockno_default.jpg,3.0,0,,,,,,,,,,,,,,,,,,,,,,,,,,,,,,,,
0.0,1.0,0.64061,0.0,15.0,15.0,15.0,1.0,rock_08s.jpg,0.0,clockno_default.jpg,3.0,0,,,,,,,,,,,,,,,,,,,,,,,,,,,,,,,,
0.0,1.0,0.62721,0.0,16.0,16.0,16.0,1.0,aluminum_foil_08s.jpg,0.0,clockno_default.jpg,3.0,0,,,,,,,,,,,,,,,,,,,,,,,,,,,,,,,,
0.0,1.0,0.766485,0.0,17.0,17.0,17.0,1.0,diving_board_07s.jpg,0.0,clockno_up.jpg,4.0,0,,,,,,,,,,,,,,,,,,,,,,,,,,,,,,,,
0.0,1.0,0.698405,0.0,18.0,18.0,18.0,1.0,checkbook_11s.jpg,0.0,clockno_default.jpg,4.0,0,,,,,,,,,,,,,,,,,,,,,,,,,,,,,,,,
0.0,1.0,1.007605,0.0,19.0,19.0,19.0,1.0,quill_09s.jpg,0.0,clockno_default.jpg,4.0,0,,,,,,,,,,,,,,,,,,,,,,,,,,,,,,,,
0.0,1.0,0.741765,0.0,20.0,20.0,20.0,1.0,radio_09s.jpg,0.0,clockno_default.jpg,4.0,0,,,,,,,,,,,,,,,,,,,,,,,,,,,,,,,,
1.0,1.0,1.59431,0.0,21.0,21.0,21.0,1.0,radio_09s.jpg,1.0,clockno_default.jpg,4.0,0,,,,,,,,,,,,,,,,,,,,,,,,,,,,,,,,
0.0,1.0,1.26092,0.0,22.0,22.0,22.0,1.0,onion_10s.jpg,0.0,clockno_default.jpg,4.0,0,,,,,,,,,,,,,,,,,,,,,,,,,,,,,,,,
0.0,1.0,0.854135,0.0,23.0,23.0,23.0,1.0,money_07s.jpg,0.0,clockno_up.jpg,5.0,0,,,,,,,,,,,,,,,,,,,,,,,,,,,,,,,,
0.0,1.0,0.836765,0.0,24.0,24.0,24.0,1.0,paintbrush_04s.jpg,0.0,clockno_default.jpg,5.0,0,,,,,,,,,,,,,,,,,,,,,,,,,,,,,,,,
1.0,1.0,0.945215,0.0,25.0,25.0,25.0,1.0,money_07s.jpg,1.0,clockno_default.jpg,5.0,0,,,,,,,,,,,,,,,,,,,,,,,,,,,,,,,,
0.0,1.0,1.04288,0.0,26.0,26.0,26.0,1.0,surfboard_11s.jpg,0.0,clockno_default.jpg,5.0,0,,,,,,,,,,,,,,,,,,,,,,,,,,,,,,,,
1.0,1.0,1.060025,0.0,27.0,27.0,27.0,1.0,money_07s.jpg,1.0,clockno_default.jpg,5.0,0,,,,,,,,,,,,,,,,,,,,,,,,,,,,,,,,
0.0,1.0,1.00686,0.0,28.0,28.0,28.0,1.0,coffee_filter_10s.jpg,0.0,clockno_default.jpg,5.0,0,,,,,,,,,,,,,,,,,,,,,,,,,,,,,,,,
0.0,1.0,0.87615,0.0,29.0,29.0,29.0,1.0,radiator_05s.jpg,0.0,clockno_default.jpg,5.0,0,,,,,,,,,,,,,,,,,,,,,,,,,,,,,,,,
0.0,1.0,2.44257,0.0,30.0,30.0,30.0,1.0,birdcage_08s.jpg,0.0,clockno_up.jpg,6.0,0,,,,,,,,,,,,,,,,,,,,,,,,,,,,,,,,
0.0,1.0,0.58002,0.0,31.0,31.0,31.0,1.0,peach_04s.jpg,0.0,clockno_default.jpg,6.0,0,,,,,,,,,,,,,,,,,,,,,,,,,,,,,,,,
0.0,1.0,0.780815,0.0,32.0,32.0,32.0,1.0,crab_16s.jpg,0.0,clockno_default.jpg,6.0,0,,,,,,,,,,,,,,,,,,,,,,,,,,,,,,,,
0.0,1.0,0.66194,0.0,33.0,33.0,33.0,1.0,penguin_16s.jpg,0.0,clockno_default.jpg,6.0,0,,,,,,,,,,,,,,,,,,,,,,,,,,,,,,,,
0.0,1.0,0.689805,0.0,34.0,34.0,34.0,1.0,stethoscope_01b.jpg,0.0,clockno_default.jpg,6.0,0,,,,,,,,,,,,,,,,,,,,,,,,,,,,,,,,
0.0,1.0,0.908825,0.0,35.0,35.0,35.0,1.0,puppet_01b.jpg,0.0,clockno_default.jpg,6.0,0,,,,,,,,,,,,,,,,,,,,,,,,,,,,,,,,
,,,,,,,,,1.0,,,0,1.0,1.0,1.84036,0.0,0.0,0.0,0.0,1.0,exhaust_pipe_10s.jpg,diving_board_07s.jpg,,,,,,,,,,,,,,,,,,,,,,
,,,,,,,,,0.0,,,0,0.0,1.0,3.632345,0.0,1.0,1.0,1.0,1.0,teabag_12s.jpg,mitten_10s.jpg,,,,,,,,,,,,,,,,,,,,,,
,,,,,,,,,0.0,,,0,0.0,1.0,1.98044,0.0,2.0,2.0,2.0,1.0,checkbook_11s.jpg,rock_08s.jpg,,,,,,,,,,,,,,,,,,,,,,
,,,,,,,,,0.0,,,0,0.0,1.0,2.130995,0.0,3.0,3.0,3.0,1.0,tweezers_03s.jpg,icemaker_10s.jpg,,,,,,,,,,,,,,,,,,,,,,
,,,,,,,,,1.0,,,0,0.0,0.0,3.80969,0.0,4.0,4.0,4.0,1.0,birdcage_08s.jpg,penguin_16s.jpg,,,,,,,,,,,,,,,,,,,,,,
,,,,,,,,,0.0,,,0,1.0,0.0,3.280795,0.0,5.0,5.0,5.0,1.0,clover_04s.jpg,trumpet_06s.jpg,,,,,,,,,,,,,,,,,,,,,,
,,,,,,,,,,,,0,,,,,,,,,,,0.0,2.0,2.0,2.0,1.0,clockno_present_3_15.xlsx,clockno_compare_task_3_15.xlsx,,,,,,,,,,,,,,,
0.0,1.0,1.234075,0.0,0.0,0.0,0.0,1.0,mosquito_12s.jpg,0.0,clockno_up.jpg,1.0,0,,,,,,,,,,,,,,,,,,,,,,,,,,,,,,,,
0.0,1.0,0.730825,0.0,1.0,1.0,1.0,1.0,pocketknife_12s.jpg,0.0,clockno_default.jpg,1.0,0,,,,,,,,,,,,,,,,,,,,,,,,,,,,,,,,
0.0,1.0,1.31274,0.0,2.0,2.0,2.0,1.0,timer_03s.jpg,0.0,clockno_default.jpg,1.0,0,,,,,,,,,,,,,,,,,,,,,,,,,,,,,,,,
1.0,1.0,1.50714,0.0,3.0,3.0,3.0,1.0,mosquito_12s.jpg,1.0,clockno_default.jpg,1.0,0,,,,,,,,,,,,,,,,,,,,,,,,,,,,,,,,
0.0,1.0,0.77159,0.0,4.0,4.0,4.0,1.0,rhinoceros_02s.jpg,0.0,clockno_default.jpg,1.0,0,,,,,,,,,,,,,,,,,,,,,,,,,,,,,,,,
0.0,1.0,0.78546,0.0,5.0,5.0,5.0,1.0,spacesuit_02s.jpg,0.0,clockno_default.jpg,1.0,0,,,,,,,,,,,,,,,,,,,,,,,,,,,,,,,,
0.0,1.0,0.739165,0.0,6.0,6.0,6.0,1.0,lamb_chop_07s.jpg,0.0,clockno_default.jpg,1.0,0,,,,,,,,,,,,,,,,,,,,,,,,,,,,,,,,
0.0,1.0,0.74162,0.0,7.0,7.0,7.0,1.0,piano_13n.jpg,0.0,clockno_up.jpg,2.0,0,,,,,,,,,,,,,,,,,,,,,,,,,,,,,,,,
1.0,1.0,1.62852,0.0,8.0,8.0,8.0,1.0,piano_13n.jpg,1.0,clockno_default.jpg,2.0,0,,,,,,,,,,,,,,,,,,,,,,,,,,,,,,,,
0.0,1.0,0.92344,0.0,9.0,9.0,9.0,1.0,lemonade_04s.jpg,0.0,clockno_default.jpg,2.0,0,,,,,,,,,,,,,,,,,,,,,,,,,,,,,,,,
0.0,1.0,1.512885,0.0,10.0,10.0,10.0,1.0,lip_gloss_06s.jpg,0.0,clockno_default.jpg,2.0,0,,,,,,,,,,,,,,,,,,,,,,,,,,,,,,,,
1.0,1.0,1.155805,0.0,11.0,11.0,11.0,1.0,lemonade_04s.jpg,1.0,clockno_default.jpg,2.0,0,,,,,,,,,,,,,,,,,,,,,,,,,,,,,,,,
0.0,1.0,0.796095,0.0,12.0,12.0,12.0,1.0,popcorn_09s.jpg,0.0,clockno_up.jpg,3.0,0,,,,,,,,,,,,,,,,,,,,,,,,,,,,,,,,
0.0,1.0,0.73303,0.0,13.0,13.0,13.0,1.0,tuxedo_01b.jpg,0.0,clockno_default.jpg,3.0,0,,,,,,,,,,,,,,,,,,,,,,,,,,,,,,,,
0.0,1.0,0.882625,0.0,14.0,14.0,14.0,1.0,key_07s.jpg,0.0,clockno_default.jpg,3.0,0,,,,,,,,,,,,,,,,,,,,,,,,,,,,,,,,
0.0,1.0,0.74487,0.0,15.0,15.0,15.0,1.0,blowfish_03s.jpg,0.0,clockno_default.jpg,3.0,0,,,,,,,,,,,,,,,,,,,,,,,,,,,,,,,,
1.0,1.0,1.5704,0.0,16.0,16.0,16.0,1.0,popcorn_09s.jpg,1.0,clockno_default.jpg,3.0,0,,,,,,,,,,,,,,,,,,,,,,,,,,,,,,,,
0.0,1.0,1.16628,0.0,17.0,17.0,17.0,1.0,mirror_12s.jpg,0.0,clockno_default.jpg,3.0,0,,,,,,,,,,,,,,,,,,,,,,,,,,,,,,,,
0.0,1.0,0.753385,0.0,18.0,18.0,18.0,1.0,trident_07s.jpg,0.0,clockno_up.jpg,4.0,0,,,,,,,,,,,,,,,,,,,,,,,,,,,,,,,,
0.0,1.0,1.22589,0.0,19.0,19.0,19.0,1.0,knitting_needle_04s.jpg,0.0,clockno_default.jpg,4.0,0,,,,,,,,,,,,,,,,,,,,,,,,,,,,,,,,
0.0,1.0,1.51339,0.0,20.0,20.0,20.0,1.0,orangutan_03s.jpg,0.0,clockno_default.jpg,4.0,0,,,,,,,,,,,,,,,,,,,,,,,,,,,,,,,,
0.0,1.0,0.702665,0.0,21.0,21.0,21.0,1.0,spoon02a.jpg,0.0,clockno_default.jpg,4.0,0,,,,,,,,,,,,,,,,,,,,,,,,,,,,,,,,
0.0,1.0,0.71775,0.0,22.0,22.0,22.0,1.0,mushroom_10n.jpg,0.0,clockno_default.jpg,4.0,0,,,,,,,,,,,,,,,,,,,,,,,,,,,,,,,,
0.0,1.0,0.64887,0.0,23.0,23.0,23.0,1.0,owl_15s.jpg,0.0,clockno_up.jpg,5.0,0,,,,,,,,,,,,,,,,,,,,,,,,,,,,,,,,
0.0,1.0,0.7849,0.0,24.0,24.0,24.0,1.0,racehorse_03s.jpg,0.0,clockno_default.jpg,5.0,0,,,,,,,,,,,,,,,,,,,,,,,,,,,,,,,,
0.0,1.0,2.20906,0.0,25.0,25.0,25.0,1.0,dirt_bike_11s.jpg,0.0,clockno_default.jpg,5.0,0,,,,,,,,,,,,,,,,,,,,,,,,,,,,,,,,
0.0,1.0,1.47125,0.0,26.0,26.0,26.0,1.0,plaster_cast_13s.jpg,0.0,clockno_default.jpg,5.0,0,,,,,,,,,,,,,,,,,,,,,,,,,,,,,,,,
1.0,1.0,0.952525,0.0,27.0,27.0,27.0,1.0,racehorse_03s.jpg,1.0,clockno_default.jpg,5.0,0,,,,,,,,,,,,,,,,,,,,,,,,,,,,,,,,
0.0,1.0,0.82377,0.0,28.0,28.0,28.0,1.0,spacesuit_02s.jpg,0.0,clockno_default.jpg,5.0,0,,,,,,,,,,,,,,,,,,,,,,,,,,,,,,,,
0.0,1.0,0.907745,0.0,29.0,29.0,29.0,1.0,slingshot_07s.jpg,0.0,clockno_up.jpg,6.0,0,,,,,,,,,,,,,,,,,,,,,,,,,,,,,,,,
0.0,1.0,0.762355,0.0,30.0,30.0,30.0,1.0,potholder_02s.jpg,0.0,clockno_default.jpg,6.0,0,,,,,,,,,,,,,,,,,,,,,,,,,,,,,,,,
0.0,1.0,1.20227,0.0,31.0,31.0,31.0,1.0,squirrel_02s.jpg,0.0,clockno_default.jpg,6.0,0,,,,,,,,,,,,,,,,,,,,,,,,,,,,,,,,
0.0,1.0,0.68538,0.0,32.0,32.0,32.0,1.0,outlet_10s.jpg,0.0,clockno_default.jpg,6.0,0,,,,,,,,,,,,,,,,,,,,,,,,,,,,,,,,
0.0,1.0,1.024205,0.0,33.0,33.0,33.0,1.0,potpourri_03s.jpg,0.0,clockno_default.jpg,6.0,0,,,,,,,,,,,,,,,,,,,,,,,,,,,,,,,,
0.0,1.0,0.644855,0.0,34.0,34.0,34.0,1.0,margarita_03s.jpg,0.0,clockno_default.jpg,6.0,0,,,,,,,,,,,,,,,,,,,,,,,,,,,,,,,,
1.0,1.0,1.62319,0.0,35.0,35.0,35.0,1.0,outlet_10s.jpg,1.0,clockno_default.jpg,6.0,0,,,,,,,,,,,,,,,,,,,,,,,,,,,,,,,,
,,,,,,,,,1.0,,,0,1.0,1.0,4.08729,0.0,0.0,0.0,0.0,1.0,lip_gloss_06s.jpg,tuxedo_01b.jpg,,,,,,,,,,,,,,,,,,,,,,
,,,,,,,,,1.0,,,0,1.0,1.0,1.568995,0.0,1.0,1.0,1.0,1.0,blowfish_03s.jpg,trident_07s.jpg,,,,,,,,,,,,,,,,,,,,,,
,,,,,,,,,0.0,,,0,1.0,0.0,3.77074,0.0,2.0,2.0,2.0,1.0,orangutan_03s.jpg,mirror_12s.jpg,,,,,,,,,,,,,,,,,,,,,,
,,,,,,,,,1.0,,,0,0.0,0.0,2.00173,0.0,3.0,3.0,3.0,1.0,pocketknife_12s.jpg,rhinoceros_02s.jpg,,,,,,,,,,,,,,,,,,,,,,
,,,,,,,,,1.0,,,0,1.0,1.0,1.700025,0.0,4.0,4.0,4.0,1.0,potholder_02s.jpg,potpourri_03s.jpg,,,,,,,,,,,,,,,,,,,,,,
,,,,,,,,,1.0,,,0,1.0,1.0,1.55103,0.0,5.0,5.0,5.0,1.0,squirrel_02s.jpg,margarita_03s.jpg,,,,,,,,,,,,,,,,,,,,,,
,,,,,,,,,,,,0,,,,,,,,,,,0.0,3.0,3.0,3.0,1.0,clockno_present_4_15.xlsx,clockno_compare_task_4_15.xlsx,,,,,,,,,,,,,,,
0.0,1.0,0.80099,0.0,0.0,0.0,0.0,1.0,piggy_bank_02s.jpg,0.0,clockno_up.jpg,1.0,0,,,,,,,,,,,,,,,,,,,,,,,,,,,,,,,,
0.0,1.0,0.711255,0.0,1.0,1.0,1.0,1.0,quesadilla_07s.jpg,0.0,clockno_default.jpg,1.0,0,,,,,,,,,,,,,,,,,,,,,,,,,,,,,,,,
1.0,1.0,0.779075,0.0,2.0,2.0,2.0,1.0,quesadilla_07s.jpg,1.0,clockno_default.jpg,1.0,0,,,,,,,,,,,,,,,,,,,,,,,,,,,,,,,,
0.0,1.0,0.94998,0.0,3.0,3.0,3.0,1.0,turtle_08s.jpg,0.0,clockno_default.jpg,1.0,0,,,,,,,,,,,,,,,,,,,,,,,,,,,,,,,,
1.0,1.0,1.10968,0.0,4.0,4.0,4.0,1.0,quesadilla_07s.jpg,1.0,clockno_default.jpg,1.0,0,,,,,,,,,,,,,,,,,,,,,,,,,,,,,,,,
0.0,1.0,1.425085,0.0,5.0,5.0,5.0,1.0,pie_08s.jpg,0.0,clockno_default.jpg,1.0,0,,,,,,,,,,,,,,,,,,,,,,,,,,,,,,,,
1.0,1.0,2.081915,0.0,6.0,6.0,6.0,1.0,quesadilla_07s.jpg,1.0,clockno_default.jpg,1.0,0,,,,,,,,,,,,,,,,,,,,,,,,,,,,,,,,
0.0,1.0,2.14878,0.0,7.0,7.0,7.0,1.0,coral_08s.jpg,0.0,clockno_up.jpg,2.0,0,,,,,,,,,,,,,,,,,,,,,,,,,,,,,,,,
0.0,1.0,2.12994,0.0,8.0,8.0,8.0,1.0,bottle_opener_11s.jpg,0.0,clockno_default.jpg,2.0,0,,,,,,,,,,,,,,,,,,,,,,,,,,,,,,,,
0.0,1.0,0.85519,0.0,9.0,9.0,9.0,1.0,solar_panel_02s.jpg,0.0,clockno_default.jpg,2.0,0,,,,,,,,,,,,,,,,,,,,,,,,,,,,,,,,
0.0,1.0,0.71052,0.0,10.0,10.0,10.0,1.0,sunglasses_11s.jpg,0.0,clockno_default.jpg,2.0,0,,,,,,,,,,,,,,,,,,,,,,,,,,,,,,,,
0.0,1.0,0.662255,0.0,11.0,11.0,11.0,1.0,lamppost_09s.jpg,0.0,clockno_default.jpg,2.0,0,,,,,,,,,,,,,,,,,,,,,,,,,,,,,,,,
0.0,1.0,0.68785,0.0,12.0,12.0,12.0,1.0,pineapple_12s.jpg,0.0,clockno_up.jpg,3.0,0,,,,,,,,,,,,,,,,,,,,,,,,,,,,,,,,
0.0,1.0,0.799825,0.0,13.0,13.0,13.0,1.0,pretzel_09s.jpg,0.0,clockno_default.jpg,3.0,0,,,,,,,,,,,,,,,,,,,,,,,,,,,,,,,,
0.0,1.0,0.52292,0.0,14.0,14.0,14.0,1.0,fire_pit_10s.jpg,0.0,clockno_default.jpg,3.0,0,,,,,,,,,,,,,,,,,,,,,,,,,,,,,,,,
0.0,1.0,0.60165,0.0,15.0,15.0,15.0,1.0,microwave_02s.jpg,0.0,clockno_default.jpg,3.0,0,,,,,,,,,,,,,,,,,,,,,,,,,,,,,,,,
0.0,1.0,0.981405,0.0,16.0,16.0,16.0,1.0,dynamite_01b.jpg,0.0,clockno_default.jpg,3.0,0,,,,,,,,,,,,,,,,,,,,,,,,,,,,,,,,
0.0,1.0,1.011505,0.0,17.0,17.0,17.0,1.0,megaphone_03s.jpg,0.0,clockno_default.jpg,3.0,0,,,,,,,,,,,,,,,,,,,,,,,,,,,,,,,,
0.0,1.0,0.6016,0.0,18.0,18.0,18.0,1.0,tortilla_06s.jpg,0.0,clockno_up.jpg,4.0,0,,,,,,,,,,,,,,,,,,,,,,,,,,,,,,,,
1.0,1.0,1.46789,0.0,19.0,19.0,19.0,1.0,tortilla_06s.jpg,1.0,clockno_default.jpg,4.0,0,,,,,,,,,,,,,,,,,,,,,,,,,,,,,,,,
0.0,1.0,0.793815,0.0,20.0,20.0,20.0,1.0,mud_13s.jpg,0.0,clockno_default.jpg,4.0,0,,,,,,,,,,,,,,,,,,,,,,,,,,,,,,,,
0.0,1.0,0.637055,0.0,21.0,21.0,21.0,1.0,toilet_paper_12s.jpg,0.0,clockno_default.jpg,4.0,0,,,,,,,,,,,,,,,,,,,,,,,,,,,,,,,,
0.0,1.0,0.74881,0.0,22.0,22.0,22.0,1.0,go-kart_10s.jpg,0.0,clockno_default.jpg,4.0,0,,,,,,,,,,,,,,,,,,,,,,,,,,,,,,,,
0.0,1.0,0.72758,0.0,23.0,23.0,23.0,1.0,magnet_03s.jpg,0.0,clockno_up.jpg,5.0,0,,,,,,,,,,,,,,,,,,,,,,,,,,,,,,,,
1.0,1.0,0.67302,0.0,24.0,24.0,24.0,1.0,magnet_03s.jpg,1.0,clockno_default.jpg,5.0,0,,,,,,,,,,,,,,,,,,,,,,,,,,,,,,,,
1.0,1.0,1.410855,0.0,25.0,25.0,25.0,1.0,magnet_03s.jpg,1.0,clockno_default.jpg,5.0,0,,,,,,,,,,,,,,,,,,,,,,,,,,,,,,,,
0.0,1.0,1.76077,0.0,26.0,26.0,26.0,1.0,phone_01b.jpg,0.0,clockno_default.jpg,5.0,0,,,,,,,,,,,,,,,,,,,,,,,,,,,,,,,,
0.0,1.0,1.343425,0.0,27.0,27.0,27.0,1.0,duck_01b.jpg,0.0,clockno_default.jpg,5.0,0,,,,,,,,,,,,,,,,,,,,,,,,,,,,,,,,
0.0,1.0,0.895955,0.0,28.0,28.0,28.0,1.0,lamppost_09s.jpg,0.0,clockno_default.jpg,5.0,0,,,,,,,,,,,,,,,,,,,,,,,,,,,,,,,,
0.0,1.0,0.780775,0.0,29.0,29.0,29.0,1.0,mussel_11s.jpg,0.0,clockno_up.jpg,6.0,0,,,,,,,,,,,,,,,,,,,,,,,,,,,,,,,,
0.0,1.0,1.082725,0.0,30.0,30.0,30.0,1.0,sundae_08s.jpg,0.0,clockno_default.jpg,6.0,0,,,,,,,,,,,,,,,,,,,,,,,,,,,,,,,,
0.0,1.0,1.68355,0.0,31.0,31.0,31.0,1.0,telephone_pole_05s.jpg,0.0,clockno_default.jpg,6.0,0,,,,,,,,,,,,,,,,,,,,,,,,,,,,,,,,
0.0,1.0,0.675875,0.0,32.0,32.0,32.0,1.0,basket_05s.jpg,0.0,clockno_default.jpg,6.0,0,,,,,,,,,,,,,,,,,,,,,,,,,,,,,,,,
0.0,1.0,2.30921,0.0,33.0,33.0,33.0,1.0,turtle_08s.jpg,0.0,clockno_default.jpg,6.0,0,,,,,,,,,,,,,,,,,,,,,,,,,,,,,,,,
0.0,1.0,0.83705,0.0,34.0,34.0,34.0,1.0,otter_05s.jpg,0.0,clockno_default.jpg,6.0,0,,,,,,,,,,,,,,,,,,,,,,,,,,,,,,,,
1.0,1.0,0.658865,0.0,35.0,35.0,35.0,1.0,otter_05s.jpg,1.0,clockno_default.jpg,6.0,0,,,,,,,,,,,,,,,,,,,,,,,,,,,,,,,,
,,,,,,,,,1.0,,,0,1.0,1.0,1.85536,0.0,0.0,0.0,0.0,1.0,pie_08s.jpg,bottle_opener_11s.jpg,,,,,,,,,,,,,,,,,,,,,,
,,,,,,,,,0.0,,,0,1.0,0.0,2.174455,0.0,1.0,1.0,1.0,1.0,sundae_08s.jpg,duck_01b.jpg,,,,,,,,,,,,,,,,,,,,,,
,,,,,,,,,1.0,,,0,1.0,1.0,1.745035,0.0,2.0,2.0,2.0,1.0,solar_panel_02s.jpg,pineapple_12s.jpg,,,,,,,,,,,,,,,,,,,,,,
,,,,,,,,,1.0,,,0,1.0,1.0,1.57005,0.0,3.0,3.0,3.0,1.0,coral_08s.jpg,sunglasses_11s.jpg,,,,,,,,,,,,,,,,,,,,,,
,,,,,,,,,0.0,,,0,0.0,1.0,2.7201,0.0,4.0,4.0,4.0,1.0,dynamite_01b.jpg,pretzel_09s.jpg,,,,,,,,,,,,,,,,,,,,,,
,,,,,,,,,1.0,,,0,0.0,0.0,4.353585,0.0,5.0,5.0,5.0,1.0,fire_pit_10s.jpg,megaphone_03s.jpg,,,,,,,,,,,,,,,,,,,,,,
,,,,,,,,,,,,0,,,,,,,,,,,0.0,4.0,4.0,4.0,1.0,clockno_present_5_15.xlsx,clockno_compare_task_5_15.xlsx,,,,,,,,,,,,,,,
0.0,1.0,2.101535,0.0,0.0,0.0,0.0,1.0,mattress_01s.jpg,0.0,clockno_up.jpg,1.0,0,,,,,,,,,,,,,,,,,,,,,,,,,,,,,,,,
0.0,1.0,0.702935,0.0,1.0,1.0,1.0,1.0,ravioli_08s.jpg,0.0,clockno_default.jpg,1.0,0,,,,,,,,,,,,,,,,,,,,,,,,,,,,,,,,
0.0,1.0,0.46503,0.0,2.0,2.0,2.0,1.0,tambourine_06s.jpg,0.0,clockno_default.jpg,1.0,0,,,,,,,,,,,,,,,,,,,,,,,,,,,,,,,,
0.0,1.0,0.720235,0.0,3.0,3.0,3.0,1.0,ram_05s.jpg,0.0,clockno_default.jpg,1.0,0,,,,,,,,,,,,,,,,,,,,,,,,,,,,,,,,
1.0,1.0,0.752575,0.0,4.0,4.0,4.0,1.0,ram_05s.jpg,1.0,clockno_default.jpg,1.0,0,,,,,,,,,,,,,,,,,,,,,,,,,,,,,,,,
1.0,1.0,1.229255,0.0,5.0,5.0,5.0,1.0,mattress_01s.jpg,1.0,clockno_default.jpg,1.0,0,,,,,,,,,,,,,,,,,,,,,,,,,,,,,,,,
0.0,1.0,1.840495,0.0,6.0,6.0,6.0,1.0,panda_02s.jpg,0.0,clockno_default.jpg,1.0,0,,,,,,,,,,,,,,,,,,,,,,,,,,,,,,,,
0.0,1.0,1.36732,0.0,7.0,7.0,7.0,1.0,mailbox_11s.jpg,0.0,clockno_up.jpg,2.0,0,,,,,,,,,,,,,,,,,,,,,,,,,,,,,,,,
0.0,1.0,0.67442,0.0,8.0,8.0,8.0,1.0,air_pump_05s.jpg,0.0,clockno_default.jpg,2.0,0,,,,,,,,,,,,,,,,,,,,,,,,,,,,,,,,
1.0,1.0,0.824905,0.0,9.0,9.0,9.0,1.0,air_pump_05s.jpg,1.0,clockno_default.jpg,2.0,0,,,,,,,,,,,,,,,,,,,,,,,,,,,,,,,,
0.0,1.0,0.64946,0.0,10.0,10.0,10.0,1.0,thorn_13s.jpg,0.0,clockno_default.jpg,2.0,0,,,,,,,,,,,,,,,,,,,,,,,,,,,,,,,,
0.0,1.0,0.679855,0.0,11.0,11.0,11.0,1.0,kite_04s.jpg,0.0,clockno_default.jpg,2.0,0,,,,,,,,,,,,,,,,,,,,,,,,,,,,,,,,
1.0,1.0,1.18902,0.0,12.0,12.0,12.0,1.0,mailbox_11s.jpg,1.0,clockno_default.jpg,2.0,0,,,,,,,,,,,,,,,,,,,,,,,,,,,,,,,,
0.0,1.0,1.095215,0.0,13.0,13.0,13.0,1.0,lamp_08s.jpg,0.0,clockno_up.jpg,3.0,0,,,,,,,,,,,,,,,,,,,,,,,,,,,,,,,,
0.0,1.0,1.529195,0.0,14.0,14.0,14.0,1.0,smokingpipe.jpg,0.0,clockno_default.jpg,3.0,0,,,,,,,,,,,,,,,,,,,,,,,,,,,,,,,,
0.0,1.0,1.21915,0.0,15.0,15.0,15.0,1.0,swing_set_15s.jpg,0.0,clockno_default.jpg,3.0,0,,,,,,,,,,,,,,,,,,,,,,,,,,,,,,,,
0.0,1.0,0.994865,0.0,16.0,16.0,16.0,1.0,torch_02s.jpg,0.0,clockno_default.jpg,3.0,0,,,,,,,,,,,,,,,,,,,,,,,,,,,,,,,,
0.0,1.0,0.997755,0.0,17.0,17.0,17.0,1.0,police_car_01s.jpg,0.0,clockno_default.jpg,3.0,0,,,,,,,,,,,,,,,,,,,,,,,,,,,,,,,,
1.0,1.0,1.471585,0.0,18.0,18.0,18.0,1.0,police_car_01s.jpg,1.0,clockno_default.jpg,3.0,0,,,,,,,,,,,,,,,,,,,,,,,,,,,,,,,,
0.0,1.0,0.748805,0.0,19.0,19.0,19.0,1.0,pocket_watch_16s.jpg,0.0,clockno_default.jpg,3.0,0,,,,,,,,,,,,,,,,,,,,,,,,,,,,,,,,
0.0,1.0,0.70724,0.0,20.0,20.0,20.0,1.0,totem_pole_05s.jpg,0.0,clockno_up.jpg,4.0,0,,,,,,,,,,,,,,,,,,,,,,,,,,,,,,,,
0.0,1.0,0.52557,0.0,21.0,21.0,21.0,1.0,toad_09s.jpg,0.0,clockno_default.jpg,4.0,0,,,,,,,,,,,,,,,,,,,,,,,,,,,,,,,,
0.0,1.0,0.822235,0.0,22.0,22.0,22.0,1.0,typewriter_11s.jpg,0.0,clockno_default.jpg,4.0,0,,,,,,,,,,,,,,,,,,,,,,,,,,,,,,,,
0.0,1.0,0.59404,0.0,23.0,23.0,23.0,1.0,camcorder_10s.jpg,0.0,clockno_default.jpg,4.0,0,,,,,,,,,,,,,,,,,,,,,,,,,,,,,,,,
1.0,0.0,1.594545,0.0,24.0,24.0,24.0,1.0,torch_02s.jpg,0.0,clockno_default.jpg,4.0,0,,,,,,,,,,,,,,,,,,,,,,,,,,,,,,,,
0.0,1.0,0.783555,0.0,25.0,25.0,25.0,1.0,kettle_08s.jpg,0.0,clockno_default.jpg,4.0,0,,,,,,,,,,,,,,,,,,,,,,,,,,,,,,,,
0.0,1.0,0.69568,0.0,26.0,26.0,26.0,1.0,comic_book_02s.jpg,0.0,clockno_up.jpg,5.0,0,,,,,,,,,,,,,,,,,,,,,,,,,,,,,,,,
0.0,1.0,0.663855,0.0,27.0,27.0,27.0,1.0,binder_21s.jpg,0.0,clockno_default.jpg,5.0,0,,,,,,,,,,,,,,,,,,,,,,,,,,,,,,,,
0.0,1.0,1.814405,0.0,28.0,28.0,28.0,1.0,inhaler_01b.jpg,0.0,clockno_default.jpg,5.0,0,,,,,,,,,,,,,,,,,,,,,,,,,,,,,,,,
0.0,1.0,1.132955,0.0,29.0,29.0,29.0,1.0,abacus_12s.jpg,0.0,clockno_default.jpg,5.0,0,,,,,,,,,,,,,,,,,,,,,,,,,,,,,,,,
0.0,1.0,1.00297,0.0,30.0,30.0,30.0,1.0,hummingbird_05s.jpg,0.0,clockno_default.jpg,5.0,0,,,,,,,,,,,,,,,,,,,,,,,,,,,,,,,,
0.0,1.0,1.333265,0.0,31.0,31.0,31.0,1.0,polaroid_05s.jpg,0.0,clockno_up.jpg,6.0,0,,,,,,,,,,,,,,,,,,,,,,,,,,,,,,,,
0.0,1.0,1.15627,0.0,32.0,32.0,32.0,1.0,rosary_03s.jpg,0.0,clockno_default.jpg,6.0,0,,,,,,,,,,,,,,,,,,,,,,,,,,,,,,,,
0.0,1.0,0.734045,0.0,33.0,33.0,33.0,1.0,raft_09s.jpg,0.0,clockno_default.jpg,6.0,0,,,,,,,,,,,,,,,,,,,,,,,,,,,,,,,,
0.0,0.0,0.95197,0.0,34.0,34.0,34.0,1.0,polaroid_05s.jpg,1.0,clockno_default.jpg,6.0,0,,,,,,,,,,,,,,,,,,,,,,,,,,,,,,,,
1.0,1.0,1.299005,0.0,35.0,35.0,35.0,1.0,raft_09s.jpg,1.0,clockno_default.jpg,6.0,0,,,,,,,,,,,,,,,,,,,,,,,,,,,,,,,,
,,,,,,,,,1.0,,,0,1.0,1.0,3.301095,0.0,0.0,0.0,0.0,1.0,thorn_13s.jpg,lamp_08s.jpg,,,,,,,,,,,,,,,,,,,,,,
,,,,,,,,,0.0,,,0,0.0,1.0,1.99963,0.0,1.0,1.0,1.0,1.0,smokingpipe.jpg,kite_04s.jpg,,,,,,,,,,,,,,,,,,,,,,
,,,,,,,,,1.0,,,0,0.0,0.0,1.7033,0.0,2.0,2.0,2.0,1.0,pocket_watch_16s.jpg,typewriter_11s.jpg,,,,,,,,,,,,,,,,,,,,,,
,,,,,,,,,0.0,,,0,1.0,0.0,1.20723,0.0,3.0,3.0,3.0,1.0,hummingbird_05s.jpg,binder_21s.jpg,,,,,,,,,,,,,,,,,,,,,,
,,,,,,,,,0.0,,,0,1.0,0.0,2.136615,0.0,4.0,4.0,4.0,1.0,camcorder_10s.jpg,totem_pole_05s.jpg,,,,,,,,,,,,,,,,,,,,,,
,,,,,,,,,1.0,,,0,0.0,0.0,1.66666,0.0,5.0,5.0,5.0,1.0,comic_book_02s.jpg,abacus_12s.jpg,,,,,,,,,,,,,,,,,,,,,,
0.0,1.0,1.452015,,,,,,jetski_10s.jpg,0.0,clock_7_1.png,1.0,0,,,,,,,,,,,,,,,,,,0.0,0.0,0.0,0.0,1.0,,,,,,,,,,
0.0,1.0,0.948895,,,,,,padlock_07s.jpg,0.0,clock_7_2.png,1.0,0,,,,,,,,,,,,,,,,,,0.0,1.0,1.0,1.0,1.0,,,,,,,,,,
0.0,1.0,0.69003,,,,,,antenna_01b.jpg,0.0,clock_7_3.png,1.0,0,,,,,,,,,,,,,,,,,,0.0,2.0,2.0,2.0,1.0,,,,,,,,,,
0.0,1.0,0.65302,,,,,,rhubarb_03s.jpg,0.0,clock_7_4.png,1.0,0,,,,,,,,,,,,,,,,,,0.0,3.0,3.0,3.0,1.0,,,,,,,,,,
1.0,1.0,1.02161,,,,,,jetski_10s.jpg,1.0,clock_7_5.png,1.0,0,,,,,,,,,,,,,,,,,,0.0,4.0,4.0,4.0,1.0,,,,,,,,,,
0.0,1.0,1.03968,,,,,,juicer2_06s.jpg,0.0,clock_7_6.png,1.0,0,,,,,,,,,,,,,,,,,,0.0,5.0,5.0,5.0,1.0,,,,,,,,,,
1.0,1.0,1.157025,,,,,,padlock_07s.jpg,1.0,clock_7_7.png,1.0,0,,,,,,,,,,,,,,,,,,0.0,6.0,6.0,6.0,1.0,,,,,,,,,,
0.0,1.0,0.593235,,,,,,insole_11s.jpg,0.0,clock_5_1.png,2.0,0,,,,,,,,,,,,,,,,,,0.0,7.0,7.0,7.0,1.0,,,,,,,,,,
0.0,1.0,1.013845,,,,,,antenna_01b.jpg,0.0,clock_5_2.png,2.0,0,,,,,,,,,,,,,,,,,,0.0,8.0,8.0,8.0,1.0,,,,,,,,,,
0.0,1.0,0.915075,,,,,,stingray_02s.jpg,0.0,clock_5_3.png,2.0,0,,,,,,,,,,,,,,,,,,0.0,9.0,9.0,9.0,1.0,,,,,,,,,,
0.0,1.0,0.497215,,,,,,lectern_08s.jpg,0.0,clock_5_4.png,2.0,0,,,,,,,,,,,,,,,,,,0.0,10.0,10.0,10.0,1.0,,,,,,,,,,
0.0,1.0,0.58414,,,,,,briefcase_03s.jpg,0.0,clock_5_5.png,2.0,0,,,,,,,,,,,,,,,,,,0.0,11.0,11.0,11.0,1.0,,,,,,,,,,
0.0,1.0,0.57396,,,,,,pepper_mill_03s.jpg,0.0,clock_6_1.png,3.0,0,,,,,,,,,,,,,,,,,,0.0,12.0,12.0,12.0,1.0,,,,,,,,,,
0.0,1.0,0.53633,,,,,,light_switch_02s.jpg,0.0,clock_6_2.png,3.0,0,,,,,,,,,,,,,,,,,,0.0,13.0,13.0,13.0,1.0,,,,,,,,,,
0.0,1.0,0.76002,,,,,,lava_02s.jpg,0.0,clock_6_3.png,3.0,0,,,,,,,,,,,,,,,,,,0.0,14.0,14.0,14.0,1.0,,,,,,,,,,
0.0,1.0,0.962335,,,,,,moth_06n.jpg,0.0,clock_6_4.png,3.0,0,,,,,,,,,,,,,,,,,,0.0,15.0,15.0,15.0,1.0,,,,,,,,,,
0.0,1.0,0.655365,,,,,,pincushion_10s.jpg,0.0,clock_6_5.png,3.0,0,,,,,,,,,,,,,,,,,,0.0,16.0,16.0,16.0,1.0,,,,,,,,,,
0.0,1.0,0.64824,,,,,,quad_04s.jpg,0.0,clock_6_6.png,3.0,0,,,,,,,,,,,,,,,,,,0.0,17.0,17.0,17.0,1.0,,,,,,,,,,
0.0,1.0,0.574615,,,,,,keyhole_03s.jpg,0.0,clock_6_1.png,4.0,0,,,,,,,,,,,,,,,,,,0.0,18.0,18.0,18.0,1.0,,,,,,,,,,
0.0,1.0,0.85069,,,,,,trampoline_13s.jpg,0.0,clock_6_2.png,4.0,0,,,,,,,,,,,,,,,,,,0.0,19.0,19.0,19.0,1.0,,,,,,,,,,
0.0,1.0,1.201605,,,,,,lectern_08s.jpg,0.0,clock_6_3.png,4.0,0,,,,,,,,,,,,,,,,,,0.0,20.0,20.0,20.0,1.0,,,,,,,,,,
0.0,1.0,0.848895,,,,,,fork_04s.jpg,0.0,clock_6_4.png,4.0,0,,,,,,,,,,,,,,,,,,0.0,21.0,21.0,21.0,1.0,,,,,,,,,,
0.0,1.0,0.831195,,,,,,petri_dish_12s.jpg,0.0,clock_6_5.png,4.0,0,,,,,,,,,,,,,,,,,,0.0,22.0,22.0,22.0,1.0,,,,,,,,,,
1.0,1.0,1.689665,,,,,,petri_dish_12s.jpg,1.0,clock_6_6.png,4.0,0,,,,,,,,,,,,,,,,,,0.0,23.0,23.0,23.0,1.0,,,,,,,,,,
,0.0,,,,,,,metronome_03s.jpg,0.0,clock_7_1.png,5.0,0,,,,,,,,,,,,,,,,,,0.0,24.0,24.0,24.0,1.0,,,,,,,,,,
0.0,1.0,0.9945,,,,,,tiara_05s.jpg,0.0,clock_7_2.png,5.0,0,,,,,,,,,,,,,,,,,,0.0,25.0,25.0,25.0,1.0,,,,,,,,,,
0.0,1.0,0.878565,,,,,,undershirt_02s.jpg,0.0,clock_7_3.png,5.0,0,,,,,,,,,,,,,,,,,,0.0,26.0,26.0,26.0,1.0,,,,,,,,,,
0.0,1.0,0.85053,,,,,,tripod_01b.jpg,0.0,clock_7_4.png,5.0,0,,,,,,,,,,,,,,,,,,0.0,27.0,27.0,27.0,1.0,,,,,,,,,,
0.0,1.0,0.70594,,,,,,parachute_03s.jpg,0.0,clock_7_5.png,5.0,0,,,,,,,,,,,,,,,,,,0.0,28.0,28.0,28.0,1.0,,,,,,,,,,
0.0,1.0,0.756075,,,,,,jelly_bean_06s.jpg,0.0,clock_7_6.png,5.0,0,,,,,,,,,,,,,,,,,,0.0,29.0,29.0,29.0,1.0,,,,,,,,,,
0.0,1.0,1.21644,,,,,,stamp1_11s.jpg,0.0,clock_7_7.png,5.0,0,,,,,,,,,,,,,,,,,,0.0,30.0,30.0,30.0,1.0,,,,,,,,,,
0.0,1.0,1.01925,,,,,,throne_11s.jpg,0.0,clock_5_1.png,6.0,0,,,,,,,,,,,,,,,,,,0.0,31.0,31.0,31.0,1.0,,,,,,,,,,
0.0,1.0,0.761305,,,,,,ice_pack_09s.jpg,0.0,clock_5_2.png,6.0,0,,,,,,,,,,,,,,,,,,0.0,32.0,32.0,32.0,1.0,,,,,,,,,,
0.0,1.0,0.8935,,,,,,latch_15s.jpg,0.0,clock_5_3.png,6.0,0,,,,,,,,,,,,,,,,,,0.0,33.0,33.0,33.0,1.0,,,,,,,,,,
0.0,1.0,0.6729,,,,,,eggshell_14s.jpg,0.0,clock_5_4.png,6.0,0,,,,,,,,,,,,,,,,,,0.0,34.0,34.0,34.0,1.0,,,,,,,,,,
0.0,1.0,1.10837,,,,,,lifesaver_10s.jpg,0.0,clock_5_5.png,6.0,0,,,,,,,,,,,,,,,,,,0.0,35.0,35.0,35.0,1.0,,,,,,,,,,
,,,,,,,,,1.0,,,0,1.0,1.0,3.015955,,,,,,stingray_02s.jpg,pepper_mill_03s.jpg,,,,,,,,,,,,,0.0,0.0,0.0,0.0,1.0,,,,,
,,,,,,,,,1.0,,,0,1.0,1.0,2.16717,,,,,,briefcase_03s.jpg,lava_02s.jpg,,,,,,,,,,,,,0.0,1.0,1.0,1.0,1.0,,,,,
,,,,,,,,,0.0,,,0,1.0,0.0,2.422035,,,,,,trampoline_13s.jpg,pincushion_10s.jpg,,,,,,,,,,,,,0.0,2.0,2.0,2.0,1.0,,,,,
,,,,,,,,,0.0,,,0,0.0,1.0,2.02778,,,,,,tripod_01b.jpg,metronome_03s.jpg,,,,,,,,,,,,,0.0,3.0,3.0,3.0,1.0,,,,,
,,,,,,,,,0.0,,,0,0.0,1.0,1.602,,,,,,parachute_03s.jpg,tiara_05s.jpg,,,,,,,,,,,,,0.0,4.0,4.0,4.0,1.0,,,,,
,,,,,,,,,0.0,,,0,0.0,1.0,1.62213,,,,,,jelly_bean_06s.jpg,undershirt_02s.jpg,,,,,,,,,,,,,0.0,5.0,5.0,5.0,1.0,,,,,
,,,,,,,,,,,,0,,,,,,,,,,,,,,,,clock_present_1_15.xlsx,clock_compare_task_1_15.xlsx,,,,,,,,,,,0.0,0.0,0.0,0.0,1.0
0.0,1.0,2.122945,,,,,,target_11s.jpg,0.0,clock_6_1.png,1.0,0,,,,,,,,,,,,,,,,,,0.0,0.0,0.0,0.0,1.0,,,,,,,,,,
0.0,1.0,1.052135,,,,,,olive_05s.jpg,0.0,clock_6_2.png,1.0,0,,,,,,,,,,,,,,,,,,0.0,1.0,1.0,1.0,1.0,,,,,,,,,,
1.0,1.0,1.157595,,,,,,olive_05s.jpg,1.0,clock_6_3.png,1.0,0,,,,,,,,,,,,,,,,,,0.0,2.0,2.0,2.0,1.0,,,,,,,,,,
0.0,1.0,0.609065,,,,,,licorice_06s.jpg,0.0,clock_6_4.png,1.0,0,,,,,,,,,,,,,,,,,,0.0,3.0,3.0,3.0,1.0,,,,,,,,,,
0.0,1.0,0.880005,,,,,,sledgehammer_03s.jpg,0.0,clock_6_5.png,1.0,0,,,,,,,,,,,,,,,,,,0.0,4.0,4.0,4.0,1.0,,,,,,,,,,
0.0,1.0,1.921785,,,,,,fur_coat_11s.jpg,0.0,clock_6_6.png,1.0,0,,,,,,,,,,,,,,,,,,0.0,5.0,5.0,5.0,1.0,,,,,,,,,,
0.0,1.0,0.748995,,,,,,rocket_02s.jpg,0.0,clock_6_1.png,2.0,0,,,,,,,,,,,,,,,,,,0.0,6.0,6.0,6.0,1.0,,,,,,,,,,
,0.0,,,,,,,rocket_02s.jpg,1.0,clock_6_2.png,2.0,0,,,,,,,,,,,,,,,,,,0.0,7.0,7.0,7.0,1.0,,,,,,,,,,
1.0,1.0,0.820005,,,,,,rocket_02s.jpg,1.0,clock_6_3.png,2.0,0,,,,,,,,,,,,,,,,,,0.0,8.0,8.0,8.0,1.0,,,,,,,,,,
1.0,1.0,0.69869,,,,,,rocket_02s.jpg,1.0,clock_6_4.png,2.0,0,,,,,,,,,,,,,,,,,,0.0,9.0,9.0,9.0,1.0,,,,,,,,,,
0.0,1.0,0.566625,,,,,,rug_09s.jpg,0.0,clock_6_5.png,2.0,0,,,,,,,,,,,,,,,,,,0.0,10.0,10.0,10.0,1.0,,,,,,,,,,
0.0,1.0,1.139555,,,,,,peanut_butter_08s.jpg,0.0,clock_6_6.png,2.0,0,,,,,,,,,,,,,,,,,,0.0,11.0,11.0,11.0,1.0,,,,,,,,,,
0.0,1.0,1.828865,,,,,,tie_03s.jpg,0.0,clock_7_1.png,3.0,0,,,,,,,,,,,,,,,,,,0.0,12.0,12.0,12.0,1.0,,,,,,,,,,
0.0,1.0,0.564705,,,,,,pillow_03s.jpg,0.0,clock_7_2.png,3.0,0,,,,,,,,,,,,,,,,,,0.0,13.0,13.0,13.0,1.0,,,,,,,,,,
1.0,1.0,0.77875,,,,,,pillow_03s.jpg,1.0,clock_7_3.png,3.0,0,,,,,,,,,,,,,,,,,,0.0,14.0,14.0,14.0,1.0,,,,,,,,,,
0.0,1.0,0.477075,,,,,,beaker_01b.jpg,0.0,clock_7_4.png,3.0,0,,,,,,,,,,,,,,,,,,0.0,15.0,15.0,15.0,1.0,,,,,,,,,,
0.0,1.0,0.529095,,,,,,saddle_06s.jpg,0.0,clock_7_5.png,3.0,0,,,,,,,,,,,,,,,,,,0.0,16.0,16.0,16.0,1.0,,,,,,,,,,
0.0,1.0,0.531845,,,,,,harpoon.jpg,0.0,clock_7_6.png,3.0,0,,,,,,,,,,,,,,,,,,0.0,17.0,17.0,17.0,1.0,,,,,,,,,,
0.0,1.0,0.53799,,,,,,poinsettia_04s.jpg,0.0,clock_7_7.png,3.0,0,,,,,,,,,,,,,,,,,,0.0,18.0,18.0,18.0,1.0,,,,,,,,,,
0.0,1.0,0.738185,,,,,,peeler_06s.jpg,0.0,clock_5_1.png,4.0,0,,,,,,,,,,,,,,,,,,0.0,19.0,19.0,19.0,1.0,,,,,,,,,,
0.0,1.0,0.557995,,,,,,laundry_basket_11s.jpg,0.0,clock_5_2.png,4.0,0,,,,,,,,,,,,,,,,,,0.0,20.0,20.0,20.0,1.0,,,,,,,,,,
0.0,1.0,0.714665,,,,,,blender_08s.jpg,0.0,clock_5_3.png,4.0,0,,,,,,,,,,,,,,,,,,0.0,21.0,21.0,21.0,1.0,,,,,,,,,,
1.0,1.0,1.6117,,,,,,peeler_06s.jpg,1.0,clock_5_4.png,4.0,0,,,,,,,,,,,,,,,,,,0.0,22.0,22.0,22.0,1.0,,,,,,,,,,
0.0,1.0,0.935085,,,,,,puppy_08s.jpg,0.0,clock_5_5.png,4.0,0,,,,,,,,,,,,,,,,,,0.0,23.0,23.0,23.0,1.0,,,,,,,,,,
0.0,1.0,1.795185,,,,,,frog_09s.jpg,0.0,clock_5_1.png,5.0,0,,,,,,,,,,,,,,,,,,0.0,24.0,24.0,24.0,1.0,,,,,,,,,,
0.0,1.0,1.41237,,,,,,mousetrap_15n.jpg,0.0,clock_5_2.png,5.0,0,,,,,,,,,,,,,,,,,,0.0,25.0,25.0,25.0,1.0,,,,,,,,,,
0.0,1.0,1.071235,,,,,,candy_cane_06s.jpg,0.0,clock_5_3.png,5.0,0,,,,,,,,,,,,,,,,,,0.0,26.0,26.0,26.0,1.0,,,,,,,,,,
0.0,1.0,0.46054,,,,,,jewel_01b.jpg,0.0,clock_5_4.png,5.0,0,,,,,,,,,,,,,,,,,,0.0,27.0,27.0,27.0,1.0,,,,,,,,,,
0.0,1.0,0.610935,,,,,,bolo_tie_08s.jpg,0.0,clock_5_5.png,5.0,0,,,,,,,,,,,,,,,,,,0.0,28.0,28.0,28.0,1.0,,,,,,,,,,
0.0,1.0,0.409205,,,,,,paper_towel_03s.jpg,0.0,clock_7_1.png,6.0,0,,,,,,,,,,,,,,,,,,0.0,29.0,29.0,29.0,1.0,,,,,,,,,,
1.0,1.0,1.41497,,,,,,paper_towel_03s.jpg,1.0,clock_7_2.png,6.0,0,,,,,,,,,,,,,,,,,,0.0,30.0,30.0,30.0,1.0,,,,,,,,,,
0.0,1.0,1.342085,,,,,,crossbow_10s.jpg,0.0,clock_7_3.png,6.0,0,,,,,,,,,,,,,,,,,,0.0,31.0,31.0,31.0,1.0,,,,,,,,,,
0.0,1.0,1.18556,,,,,,golf_club_03s.jpg,0.0,clock_7_4.png,6.0,0,,,,,,,,,,,,,,,,,,0.0,32.0,32.0,32.0,1.0,,,,,,,,,,
0.0,1.0,0.662645,,,,,,ring_03s.jpg,0.0,clock_7_5.png,6.0,0,,,,,,,,,,,,,,,,,,0.0,33.0,33.0,33.0,1.0,,,,,,,,,,
0.0,1.0,0.843115,,,,,,roller_coaster_07s.jpg,0.0,clock_7_6.png,6.0,0,,,,,,,,,,,,,,,,,,0.0,34.0,34.0,34.0,1.0,,,,,,,,,,
0.0,1.0,0.67912,,,,,,syringe_02s.jpg,0.0,clock_7_7.png,6.0,0,,,,,,,,,,,,,,,,,,0.0,35.0,35.0,35.0,1.0,,,,,,,,,,
,,,,,,,,,0.0,,,0,1.0,0.0,5.240495,,,,,,laundry_basket_11s.jpg,harpoon.jpg,,,,,,,,,,,,,0.0,0.0,0.0,0.0,1.0,,,,,
,,,,,,,,,1.0,,,0,1.0,1.0,1.81392,,,,,,poinsettia_04s.jpg,blender_08s.jpg,,,,,,,,,,,,,0.0,1.0,1.0,1.0,1.0,,,,,
,,,,,,,,,1.0,,,0,1.0,1.0,2.37955,,,,,,puppy_08s.jpg,candy_cane_06s.jpg,,,,,,,,,,,,,0.0,2.0,2.0,2.0,1.0,,,,,
,,,,,,,,,1.0,,,0,0.0,0.0,1.3775,,,,,,target_11s.jpg,licorice_06s.jpg,,,,,,,,,,,,,0.0,3.0,3.0,3.0,1.0,,,,,
,,,,,,,,,0.0,,,0,1.0,0.0,2.985865,,,,,,beaker_01b.jpg,tie_03s.jpg,,,,,,,,,,,,,0.0,4.0,4.0,4.0,1.0,,,,,
,,,,,,,,,1.0,,,0,0.0,0.0,2.141415,,,,,,golf_club_03s.jpg,syringe_02s.jpg,,,,,,,,,,,,,0.0,5.0,5.0,5.0,1.0,,,,,
,,,,,,,,,,,,0,,,,,,,,,,,,,,,,clock_present_2_15.xlsx,clock_compare_task_2_15.xlsx,,,,,,,,,,,0.0,1.0,1.0,1.0,1.0
0.0,1.0,0.80319,,,,,,squirt_gun_03s.jpg,0.0,clock_6_1.png,1.0,0,,,,,,,,,,,,,,,,,,0.0,0.0,0.0,0.0,1.0,,,,,,,,,,
0.0,1.0,0.69118,,,,,,omelet_07s.jpg,0.0,clock_6_2.png,1.0,0,,,,,,,,,,,,,,,,,,0.0,1.0,1.0,1.0,1.0,,,,,,,,,,
0.0,1.0,0.56703,,,,,,quilt_03s.jpg,0.0,clock_6_3.png,1.0,0,,,,,,,,,,,,,,,,,,0.0,2.0,2.0,2.0,1.0,,,,,,,,,,
0.0,1.0,0.61082,,,,,,muffin_12n.jpg,0.0,clock_6_4.png,1.0,0,,,,,,,,,,,,,,,,,,0.0,3.0,3.0,3.0,1.0,,,,,,,,,,
0.0,1.0,0.553615,,,,,,orange_12s.jpg,0.0,clock_6_5.png,1.0,0,,,,,,,,,,,,,,,,,,0.0,4.0,4.0,4.0,1.0,,,,,,,,,,
1.0,1.0,1.34673,,,,,,squirt_gun_03s.jpg,1.0,clock_6_6.png,1.0,0,,,,,,,,,,,,,,,,,,0.0,5.0,5.0,5.0,1.0,,,,,,,,,,
0.0,1.0,0.549,,,,,,spider_web_03s.jpg,0.0,clock_7_1.png,2.0,0,,,,,,,,,,,,,,,,,,0.0,6.0,6.0,6.0,1.0,,,,,,,,,,
1.0,1.0,0.8103,,,,,,spider_web_03s.jpg,1.0,clock_7_2.png,2.0,0,,,,,,,,,,,,,,,,,,0.0,7.0,7.0,7.0,1.0,,,,,,,,,,
0.0,1.0,0.864395,,,,,,muffin_12n.jpg,0.0,clock_7_3.png,2.0,0,,,,,,,,,,,,,,,,,,0.0,8.0,8.0,8.0,1.0,,,,,,,,,,
1.0,1.0,1.36499,,,,,,muffin_12n.jpg,1.0,clock_7_4.png,2.0,0,,,,,,,,,,,,,,,,,,0.0,9.0,9.0,9.0,1.0,,,,,,,,,,
0.0,1.0,1.48189,,,,,,boar_10s.jpg,0.0,clock_7_5.png,2.0,0,,,,,,,,,,,,,,,,,,0.0,10.0,10.0,10.0,1.0,,,,,,,,,,
0.0,1.0,0.89925,,,,,,tongs_08s.jpg,0.0,clock_7_6.png,2.0,0,,,,,,,,,,,,,,,,,,0.0,11.0,11.0,11.0,1.0,,,,,,,,,,
0.0,1.0,0.67915,,,,,,toaster_03s.jpg,0.0,clock_7_7.png,2.0,0,,,,,,,,,,,,,,,,,,0.0,12.0,12.0,12.0,1.0,,,,,,,,,,
0.0,1.0,0.636865,,,,,,bacon_05s.jpg,0.0,clock_5_1.png,3.0,0,,,,,,,,,,,,,,,,,,0.0,13.0,13.0,13.0,1.0,,,,,,,,,,
0.0,1.0,0.659745,,,,,,letter_opener_03s.jpg,0.0,clock_5_2.png,3.0,0,,,,,,,,,,,,,,,,,,0.0,14.0,14.0,14.0,1.0,,,,,,,,,,
0.0,1.0,0.632665,,,,,,pipe1_10s.jpg,0.0,clock_5_3.png,3.0,0,,,,,,,,,,,,,,,,,,0.0,15.0,15.0,15.0,1.0,,,,,,,,,,
0.0,1.0,0.545355,,,,,,red_carpet_03s.jpg,0.0,clock_5_4.png,3.0,0,,,,,,,,,,,,,,,,,,0.0,16.0,16.0,16.0,1.0,,,,,,,,,,
1.0,1.0,1.254435,,,,,,pipe1_10s.jpg,1.0,clock_5_5.png,3.0,0,,,,,,,,,,,,,,,,,,0.0,17.0,17.0,17.0,1.0,,,,,,,,,,
0.0,1.0,1.053855,,,,,,fountain_pen_06s.jpg,0.0,clock_5_1.png,4.0,0,,,,,,,,,,,,,,,,,,0.0,18.0,18.0,18.0,1.0,,,,,,,,,,
0.0,1.0,1.62146,,,,,,kimono_13s.jpg,0.0,clock_5_2.png,4.0,0,,,,,,,,,,,,,,,,,,0.0,19.0,19.0,19.0,1.0,,,,,,,,,,
0.0,1.0,0.78425,,,,,,bagel_15s.jpg,0.0,clock_5_3.png,4.0,0,,,,,,,,,,,,,,,,,,0.0,20.0,20.0,20.0,1.0,,,,,,,,,,
0.0,1.0,1.43857,,,,,,marker_05s.jpg,0.0,clock_5_4.png,4.0,0,,,,,,,,,,,,,,,,,,0.0,21.0,21.0,21.0,1.0,,,,,,,,,,
0.0,1.0,0.77035,,,,,,chopsticks_08s.jpg,0.0,clock_5_5.png,4.0,0,,,,,,,,,,,,,,,,,,0.0,22.0,22.0,22.0,1.0,,,,,,,,,,
0.0,1.0,0.53862,,,,,,toy_04s.jpg,0.0,clock_6_1.png,5.0,0,,,,,,,,,,,,,,,,,,0.0,23.0,23.0,23.0,1.0,,,,,,,,,,
1.0,1.0,1.557815,,,,,,toy_04s.jpg,1.0,clock_6_2.png,5.0,0,,,,,,,,,,,,,,,,,,0.0,24.0,24.0,24.0,1.0,,,,,,,,,,
0.0,1.0,1.748375,,,,,,swordfish_05s.jpg,0.0,clock_6_3.png,5.0,0,,,,,,,,,,,,,,,,,,0.0,25.0,25.0,25.0,1.0,,,,,,,,,,
0.0,1.0,0.563015,,,,,,snowman_02s.jpg,0.0,clock_6_4.png,5.0,0,,,,,,,,,,,,,,,,,,0.0,26.0,26.0,26.0,1.0,,,,,,,,,,
1.0,1.0,0.863385,,,,,,snowman_02s.jpg,1.0,clock_6_5.png,5.0,0,,,,,,,,,,,,,,,,,,0.0,27.0,27.0,27.0,1.0,,,,,,,,,,
1.0,1.0,1.206375,,,,,,swordfish_05s.jpg,1.0,clock_6_6.png,5.0,0,,,,,,,,,,,,,,,,,,0.0,28.0,28.0,28.0,1.0,,,,,,,,,,
0.0,1.0,0.643785,,,,,,kayak_08s.jpg,0.0,clock_7_1.png,6.0,0,,,,,,,,,,,,,,,,,,0.0,29.0,29.0,29.0,1.0,,,,,,,,,,
0.0,1.0,1.41638,,,,,,emerald_02s.jpg,0.0,clock_7_2.png,6.0,0,,,,,,,,,,,,,,,,,,0.0,30.0,30.0,30.0,1.0,,,,,,,,,,
0.0,1.0,0.904615,,,,,,fireworks_18s.jpg,0.0,clock_7_3.png,6.0,0,,,,,,,,,,,,,,,,,,0.0,31.0,31.0,31.0,1.0,,,,,,,,,,
0.0,1.0,1.228205,,,,,,lipstick_02s.jpg,0.0,clock_7_4.png,6.0,0,,,,,,,,,,,,,,,,,,0.0,32.0,32.0,32.0,1.0,,,,,,,,,,
0.0,0.0,1.12058,,,,,,fireworks_18s.jpg,1.0,clock_7_5.png,6.0,0,,,,,,,,,,,,,,,,,,0.0,33.0,33.0,33.0,1.0,,,,,,,,,,
0.0,0.0,1.015495,,,,,,kayak_08s.jpg,1.0,clock_7_6.png,6.0,0,,,,,,,,,,,,,,,,,,0.0,34.0,34.0,34.0,1.0,,,,,,,,,,
0.0,1.0,0.548565,,,,,,stump_02s.jpg,0.0,clock_7_7.png,6.0,0,,,,,,,,,,,,,,,,,,0.0,35.0,35.0,35.0,1.0,,,,,,,,,,
,,,,,,,,,0.0,,,0,1.0,0.0,2.827205,,,,,,letter_opener_03s.jpg,tongs_08s.jpg,,,,,,,,,,,,,0.0,0.0,0.0,0.0,1.0,,,,,
,,,,,,,,,1.0,,,0,0.0,0.0,1.97436,,,,,,boar_10s.jpg,bacon_05s.jpg,,,,,,,,,,,,,0.0,1.0,1.0,1.0,1.0,,,,,
,,,,,,,,,1.0,,,0,1.0,1.0,1.732225,,,,,,red_carpet_03s.jpg,kimono_13s.jpg,,,,,,,,,,,,,0.0,2.0,2.0,2.0,1.0,,,,,
,,,,,,,,,0.0,,,0,0.0,1.0,2.07157,,,,,,orange_12s.jpg,omelet_07s.jpg,,,,,,,,,,,,,0.0,3.0,3.0,3.0,1.0,,,,,
,,,,,,,,,0.0,,,0,1.0,0.0,2.185055,,,,,,marker_05s.jpg,fountain_pen_06s.jpg,,,,,,,,,,,,,0.0,4.0,4.0,4.0,1.0,,,,,
,,,,,,,,,0.0,,,0,0.0,1.0,1.41319,,,,,,stump_02s.jpg,lipstick_02s.jpg,,,,,,,,,,,,,0.0,5.0,5.0,5.0,1.0,,,,,
,,,,,,,,,,,,0,,,,,,,,,,,,,,,,clock_present_3_15.xlsx,clock_compare_task_3_15.xlsx,,,,,,,,,,,0.0,2.0,2.0,2.0,1.0
0.0,1.0,1.9039,,,,,,refrigerator_07s.jpg,0.0,clock_6_1.png,1.0,0,,,,,,,,,,,,,,,,,,0.0,0.0,0.0,0.0,1.0,,,,,,,,,,
0.0,1.0,0.877555,,,,,,pencil02a.jpg,0.0,clock_6_2.png,1.0,0,,,,,,,,,,,,,,,,,,0.0,1.0,1.0,1.0,1.0,,,,,,,,,,
0.0,1.0,0.801935,,,,,,crystal_ball_12s.jpg,0.0,clock_6_3.png,1.0,0,,,,,,,,,,,,,,,,,,0.0,2.0,2.0,2.0,1.0,,,,,,,,,,
0.0,1.0,0.77086,,,,,,compass_10n.jpg,0.0,clock_6_4.png,1.0,0,,,,,,,,,,,,,,,,,,0.0,3.0,3.0,3.0,1.0,,,,,,,,,,
0.0,1.0,1.689125,,,,,,kilt_18s.jpg,0.0,clock_6_5.png,1.0,0,,,,,,,,,,,,,,,,,,0.0,4.0,4.0,4.0,1.0,,,,,,,,,,
0.0,1.0,0.666485,,,,,,coat_rack_01b.jpg,0.0,clock_6_6.png,1.0,0,,,,,,,,,,,,,,,,,,0.0,5.0,5.0,5.0,1.0,,,,,,,,,,
0.0,1.0,1.47374,,,,,,prism_10s.jpg,0.0,clock_5_1.png,2.0,0,,,,,,,,,,,,,,,,,,0.0,6.0,6.0,6.0,1.0,,,,,,,,,,
1.0,1.0,1.687155,,,,,,prism_10s.jpg,1.0,clock_5_2.png,2.0,0,,,,,,,,,,,,,,,,,,0.0,7.0,7.0,7.0,1.0,,,,,,,,,,
0.0,1.0,0.645495,,,,,,purse_05s.jpg,0.0,clock_5_3.png,2.0,0,,,,,,,,,,,,,,,,,,0.0,8.0,8.0,8.0,1.0,,,,,,,,,,
0.0,1.0,1.2514,,,,,,refrigerator_07s.jpg,0.0,clock_5_4.png,2.0,0,,,,,,,,,,,,,,,,,,0.0,9.0,9.0,9.0,1.0,,,,,,,,,,
0.0,1.0,0.69633,,,,,,lamb_04s.jpg,0.0,clock_5_5.png,2.0,0,,,,,,,,,,,,,,,,,,0.0,10.0,10.0,10.0,1.0,,,,,,,,,,
0.0,1.0,0.55008,,,,,,leotard_08s.jpg,0.0,clock_6_1.png,3.0,0,,,,,,,,,,,,,,,,,,0.0,11.0,11.0,11.0,1.0,,,,,,,,,,
0.0,1.0,0.946105,,,,,,lavender_10s.jpg,0.0,clock_6_2.png,3.0,0,,,,,,,,,,,,,,,,,,0.0,12.0,12.0,12.0,1.0,,,,,,,,,,
0.0,1.0,0.707675,,,,,,bean_06s.jpg,0.0,clock_6_3.png,3.0,0,,,,,,,,,,,,,,,,,,0.0,13.0,13.0,13.0,1.0,,,,,,,,,,
0.0,1.0,0.629505,,,,,,puddle_02s.jpg,0.0,clock_6_4.png,3.0,0,,,,,,,,,,,,,,,,,,0.0,14.0,14.0,14.0,1.0,,,,,,,,,,
0.0,1.0,0.87937,,,,,,pencil02a.jpg,0.0,clock_6_5.png,3.0,0,,,,,,,,,,,,,,,,,,0.0,15.0,15.0,15.0,1.0,,,,,,,,,,
0.0,1.0,1.482395,,,,,,medal_04s.jpg,0.0,clock_6_6.png,3.0,0,,,,,,,,,,,,,,,,,,0.0,16.0,16.0,16.0,1.0,,,,,,,,,,
0.0,1.0,0.53835,,,,,,lion_18s.jpg,0.0,clock_7_1.png,4.0,0,,,,,,,,,,,,,,,,,,0.0,17.0,17.0,17.0,1.0,,,,,,,,,,
0.0,1.0,0.48309,,,,,,treadmill_06s.jpg,0.0,clock_7_2.png,4.0,0,,,,,,,,,,,,,,,,,,0.0,18.0,18.0,18.0,1.0,,,,,,,,,,
0.0,1.0,0.582925,,,,,,mold2_04s.jpg,0.0,clock_7_3.png,4.0,0,,,,,,,,,,,,,,,,,,0.0,19.0,19.0,19.0,1.0,,,,,,,,,,
0.0,1.0,1.0284,,,,,,pan_02s.jpg,0.0,clock_7_4.png,4.0,0,,,,,,,,,,,,,,,,,,0.0,20.0,20.0,20.0,1.0,,,,,,,,,,
0.0,1.0,0.889265,,,,,,reindeer_08s.jpg,0.0,clock_7_5.png,4.0,0,,,,,,,,,,,,,,,,,,0.0,21.0,21.0,21.0,1.0,,,,,,,,,,
0.0,1.0,0.73145,,,,,,top_hat_11s.jpg,0.0,clock_7_6.png,4.0,0,,,,,,,,,,,,,,,,,,0.0,22.0,22.0,22.0,1.0,,,,,,,,,,
1.0,1.0,1.845795,,,,,,treadmill_06s.jpg,1.0,clock_7_7.png,4.0,0,,,,,,,,,,,,,,,,,,0.0,23.0,23.0,23.0,1.0,,,,,,,,,,
0.0,1.0,1.856805,,,,,,sea_urchin_09s.jpg,0.0,clock_7_1.png,5.0,0,,,,,,,,,,,,,,,,,,0.0,24.0,24.0,24.0,1.0,,,,,,,,,,
0.0,1.0,1.12372,,,,,,breadstick_08s.jpg,0.0,clock_7_2.png,5.0,0,,,,,,,,,,,,,,,,,,0.0,25.0,25.0,25.0,1.0,,,,,,,,,,
0.0,1.0,1.308885,,,,,,rabbit_03s.jpg,0.0,clock_7_3.png,5.0,0,,,,,,,,,,,,,,,,,,0.0,26.0,26.0,26.0,1.0,,,,,,,,,,
1.0,1.0,0.864595,,,,,,sea_urchin_09s.jpg,1.0,clock_7_4.png,5.0,0,,,,,,,,,,,,,,,,,,0.0,27.0,27.0,27.0,1.0,,,,,,,,,,
1.0,1.0,0.66245,,,,,,sea_urchin_09s.jpg,1.0,clock_7_5.png,5.0,0,,,,,,,,,,,,,,,,,,0.0,28.0,28.0,28.0,1.0,,,,,,,,,,
0.0,1.0,0.566775,,,,,,bee_20s.jpg,0.0,clock_7_6.png,5.0,0,,,,,,,,,,,,,,,,,,0.0,29.0,29.0,29.0,1.0,,,,,,,,,,
1.0,1.0,1.11809,,,,,,sea_urchin_09s.jpg,1.0,clock_7_7.png,5.0,0,,,,,,,,,,,,,,,,,,0.0,30.0,30.0,30.0,1.0,,,,,,,,,,
0.0,1.0,0.83009,,,,,,pantyhose_07s.jpg,0.0,clock_5_1.png,6.0,0,,,,,,,,,,,,,,,,,,0.0,31.0,31.0,31.0,1.0,,,,,,,,,,
1.0,1.0,2.240935,,,,,,pantyhose_07s.jpg,1.0,clock_5_2.png,6.0,0,,,,,,,,,,,,,,,,,,0.0,32.0,32.0,32.0,1.0,,,,,,,,,,
0.0,1.0,0.844635,,,,,,birthday_cake_09s.jpg,0.0,clock_5_3.png,6.0,0,,,,,,,,,,,,,,,,,,0.0,33.0,33.0,33.0,1.0,,,,,,,,,,
0.0,1.0,0.64652,,,,,,rooster_03s.jpg,0.0,clock_5_4.png,6.0,0,,,,,,,,,,,,,,,,,,0.0,34.0,34.0,34.0,1.0,,,,,,,,,,
1.0,1.0,0.990995,,,,,,rooster_03s.jpg,1.0,clock_5_5.png,6.0,0,,,,,,,,,,,,,,,,,,0.0,35.0,35.0,35.0,1.0,,,,,,,,,,
,,,,,,,,,0.0,,,0,0.0,1.0,3.905295,,,,,,purse_05s.jpg,coat_rack_01b.jpg,,,,,,,,,,,,,0.0,0.0,0.0,0.0,1.0,,,,,
,,,,,,,,,0.0,,,0,0.0,1.0,1.39997,,,,,,bean_06s.jpg,lamb_04s.jpg,,,,,,,,,,,,,0.0,1.0,1.0,1.0,1.0,,,,,
,,,,,,,,,1.0,,,0,0.0,0.0,1.92776,,,,,,top_hat_11s.jpg,breadstick_08s.jpg,,,,,,,,,,,,,0.0,2.0,2.0,2.0,1.0,,,,,
,,,,,,,,,1.0,,,0,0.0,0.0,1.381455,,,,,,rabbit_03s.jpg,bee_20s.jpg,,,,,,,,,,,,,0.0,3.0,3.0,3.0,1.0,,,,,
,,,,,,,,,0.0,,,0,1.0,0.0,3.58206,,,,,,pan_02s.jpg,lion_18s.jpg,,,,,,,,,,,,,0.0,4.0,4.0,4.0,1.0,,,,,
,,,,,,,,,0.0,,,0,1.0,0.0,3.973565,,,,,,puddle_02s.jpg,leotard_08s.jpg,,,,,,,,,,,,,0.0,5.0,5.0,5.0,1.0,,,,,
,,,,,,,,,,,,0,,,,,,,,,,,,,,,,clock_present_4_15.xlsx,clock_compare_task_4_15.xlsx,,,,,,,,,,,0.0,3.0,3.0,3.0,1.0
0.0,1.0,0.769295,,,,,,bowler_hat_10s.jpg,0.0,clock_7_1.png,1.0,0,,,,,,,,,,,,,,,,,,0.0,0.0,0.0,0.0,1.0,,,,,,,,,,
0.0,1.0,1.839375,,,,,,denture_03s.jpg,0.0,clock_7_2.png,1.0,0,,,,,,,,,,,,,,,,,,0.0,1.0,1.0,1.0,1.0,,,,,,,,,,
0.0,1.0,0.77026,,,,,,road_sign_05s.jpg,0.0,clock_7_3.png,1.0,0,,,,,,,,,,,,,,,,,,0.0,2.0,2.0,2.0,1.0,,,,,,,,,,
1.0,1.0,1.56085,,,,,,road_sign_05s.jpg,1.0,clock_7_4.png,1.0,0,,,,,,,,,,,,,,,,,,0.0,3.0,3.0,3.0,1.0,,,,,,,,,,
0.0,1.0,0.88074,,,,,,keyboard_05s.jpg,0.0,clock_7_5.png,1.0,0,,,,,,,,,,,,,,,,,,0.0,4.0,4.0,4.0,1.0,,,,,,,,,,
1.0,1.0,1.55498,,,,,,keyboard_05s.jpg,1.0,clock_7_6.png,1.0,0,,,,,,,,,,,,,,,,,,0.0,5.0,5.0,5.0,1.0,,,,,,,,,,
0.0,1.0,0.93475,,,,,,pinwheel_06s.jpg,0.0,clock_7_7.png,1.0,0,,,,,,,,,,,,,,,,,,0.0,6.0,6.0,6.0,1.0,,,,,,,,,,
0.0,1.0,0.76931,,,,,,giraffe_11s.jpg,0.0,clock_6_1.png,2.0,0,,,,,,,,,,,,,,,,,,0.0,7.0,7.0,7.0,1.0,,,,,,,,,,
0.0,1.0,0.66202,,,,,,scooter.jpg,0.0,clock_6_2.png,2.0,0,,,,,,,,,,,,,,,,,,0.0,8.0,8.0,8.0,1.0,,,,,,,,,,
0.0,1.0,0.86818,,,,,,turkey_10s.jpg,0.0,clock_6_3.png,2.0,0,,,,,,,,,,,,,,,,,,0.0,9.0,9.0,9.0,1.0,,,,,,,,,,
0.0,1.0,0.74431,,,,,,bubble_01b.jpg,0.0,clock_6_4.png,2.0,0,,,,,,,,,,,,,,,,,,0.0,10.0,10.0,10.0,1.0,,,,,,,,,,
0.0,1.0,0.71678,,,,,,mixer_12s.jpg,0.0,clock_6_5.png,2.0,0,,,,,,,,,,,,,,,,,,0.0,11.0,11.0,11.0,1.0,,,,,,,,,,
0.0,1.0,1.01229,,,,,,gear_07s.jpg,0.0,clock_6_6.png,2.0,0,,,,,,,,,,,,,,,,,,0.0,12.0,12.0,12.0,1.0,,,,,,,,,,
0.0,1.0,0.927505,,,,,,mannequin_05s.jpg,0.0,clock_6_1.png,3.0,0,,,,,,,,,,,,,,,,,,0.0,13.0,13.0,13.0,1.0,,,,,,,,,,
0.0,1.0,0.852515,,,,,,cap_05s.jpg,0.0,clock_6_2.png,3.0,0,,,,,,,,,,,,,,,,,,0.0,14.0,14.0,14.0,1.0,,,,,,,,,,
0.0,1.0,1.400665,,,,,,gazelle_10s.jpg,0.0,clock_6_3.png,3.0,0,,,,,,,,,,,,,,,,,,0.0,15.0,15.0,15.0,1.0,,,,,,,,,,
1.0,1.0,1.726565,,,,,,gazelle_10s.jpg,1.0,clock_6_4.png,3.0,0,,,,,,,,,,,,,,,,,,0.0,16.0,16.0,16.0,1.0,,,,,,,,,,
0.0,1.0,1.89087,,,,,,projector_08s.jpg,0.0,clock_6_5.png,3.0,0,,,,,,,,,,,,,,,,,,0.0,17.0,17.0,17.0,1.0,,,,,,,,,,
0.0,0.0,1.10089,,,,,,mannequin_05s.jpg,1.0,clock_6_6.png,3.0,0,,,,,,,,,,,,,,,,,,0.0,18.0,18.0,18.0,1.0,,,,,,,,,,
0.0,1.0,1.29564,,,,,,fishhook_06s.jpg,0.0,clock_5_1.png,4.0,0,,,,,,,,,,,,,,,,,,0.0,19.0,19.0,19.0,1.0,,,,,,,,,,
0.0,1.0,1.34402,,,,,,buoy_04s.jpg,0.0,clock_5_2.png,4.0,0,,,,,,,,,,,,,,,,,,0.0,20.0,20.0,20.0,1.0,,,,,,,,,,
0.0,1.0,0.8346,,,,,,ant_12s.jpg,0.0,clock_5_3.png,4.0,0,,,,,,,,,,,,,,,,,,0.0,21.0,21.0,21.0,1.0,,,,,,,,,,
0.0,1.0,0.593095,,,,,,tab_09s.jpg,0.0,clock_5_4.png,4.0,0,,,,,,,,,,,,,,,,,,0.0,22.0,22.0,22.0,1.0,,,,,,,,,,
0.0,1.0,0.58284,,,,,,footprint_11s.jpg,0.0,clock_5_5.png,4.0,0,,,,,,,,,,,,,,,,,,0.0,23.0,23.0,23.0,1.0,,,,,,,,,,
0.0,1.0,1.06204,,,,,,blazer_02s.jpg,0.0,clock_7_1.png,5.0,0,,,,,,,,,,,,,,,,,,0.0,24.0,24.0,24.0,1.0,,,,,,,,,,
0.0,1.0,0.651505,,,,,,eyedropper_12s.jpg,0.0,clock_7_2.png,5.0,0,,,,,,,,,,,,,,,,,,0.0,25.0,25.0,25.0,1.0,,,,,,,,,,
0.0,1.0,1.10095,,,,,,bowler_hat_10s.jpg,0.0,clock_7_3.png,5.0,0,,,,,,,,,,,,,,,,,,0.0,26.0,26.0,26.0,1.0,,,,,,,,,,
0.0,0.0,0.87398,,,,,,eyedropper_12s.jpg,1.0,clock_7_4.png,5.0,0,,,,,,,,,,,,,,,,,,0.0,27.0,27.0,27.0,1.0,,,,,,,,,,
0.0,1.0,0.523465,,,,,,incense_02s.jpg,0.0,clock_7_5.png,5.0,0,,,,,,,,,,,,,,,,,,0.0,28.0,28.0,28.0,1.0,,,,,,,,,,
0.0,1.0,0.73256,,,,,,loom_05s.jpg,0.0,clock_7_6.png,5.0,0,,,,,,,,,,,,,,,,,,0.0,29.0,29.0,29.0,1.0,,,,,,,,,,
0.0,1.0,1.44633,,,,,,cape_11s.jpg,0.0,clock_7_7.png,5.0,0,,,,,,,,,,,,,,,,,,0.0,30.0,30.0,30.0,1.0,,,,,,,,,,
0.0,1.0,1.4316,,,,,,coconut_08s.jpg,0.0,clock_5_1.png,6.0,0,,,,,,,,,,,,,,,,,,0.0,31.0,31.0,31.0,1.0,,,,,,,,,,
0.0,1.0,0.853265,,,,,,road_sign_05s.jpg,0.0,clock_5_2.png,6.0,0,,,,,,,,,,,,,,,,,,0.0,32.0,32.0,32.0,1.0,,,,,,,,,,
0.0,1.0,0.572745,,,,,,screwdriver02a.jpg,0.0,clock_5_3.png,6.0,0,,,,,,,,,,,,,,,,,,0.0,33.0,33.0,33.0,1.0,,,,,,,,,,
0.0,1.0,1.269365,,,,,,turnstile_08s.jpg,0.0,clock_5_4.png,6.0,0,,,,,,,,,,,,,,,,,,0.0,34.0,34.0,34.0,1.0,,,,,,,,,,
0.0,1.0,0.719495,,,,,,peppermint_07s.jpg,0.0,clock_5_5.png,6.0,0,,,,,,,,,,,,,,,,,,0.0,35.0,35.0,35.0,1.0,,,,,,,,,,
,,,,,,,,,1.0,,,0,1.0,1.0,1.767775,,,,,,ant_12s.jpg,blazer_02s.jpg,,,,,,,,,,,,,0.0,0.0,0.0,0.0,1.0,,,,,
,,,,,,,,,1.0,,,0,1.0,1.0,1.85604,,,,,,cape_11s.jpg,screwdriver02a.jpg,,,,,,,,,,,,,0.0,1.0,1.0,1.0,1.0,,,,,
,,,,,,,,,1.0,,,0,1.0,1.0,2.103635,,,,,,pinwheel_06s.jpg,turkey_10s.jpg,,,,,,,,,,,,,0.0,2.0,2.0,2.0,1.0,,,,,
,,,,,,,,,1.0,,,0,0.0,0.0,1.902475,,,,,,giraffe_11s.jpg,bubble_01b.jpg,,,,,,,,,,,,,0.0,3.0,3.0,3.0,1.0,,,,,
,,,,,,,,,0.0,,,0,1.0,0.0,1.530895,,,,,,tab_09s.jpg,fishhook_06s.jpg,,,,,,,,,,,,,0.0,4.0,4.0,4.0,1.0,,,,,
,,,,,,,,,0.0,,,0,1.0,0.0,2.0836,,,,,,mixer_12s.jpg,scooter.jpg,,,,,,,,,,,,,0.0,5.0,5.0,5.0,1.0,,,,,
,,,,,,,,,,,,0,,,,,,,,,,,,,,,,clock_present_5_15.xlsx,clock_compare_task_5_15.xlsx,,,,,,,,,,,0.0,4.0,4.0,4.0,1.0
0.0,1.0,1.36053,,,,,,glue_01s.jpg,0.0,clock_7_1.png,1.0,0,,,,,,,,,,,,,,,,,,0.0,0.0,0.0,0.0,1.0,,,,,,,,,,
1.0,1.0,0.836795,,,,,,glue_01s.jpg,1.0,clock_7_2.png,1.0,0,,,,,,,,,,,,,,,,,,0.0,1.0,1.0,1.0,1.0,,,,,,,,,,
0.0,1.0,0.455955,,,,,,tape_06s.jpg,0.0,clock_7_3.png,1.0,0,,,,,,,,,,,,,,,,,,0.0,2.0,2.0,2.0,1.0,,,,,,,,,,
1.0,1.0,0.929845,,,,,,glue_01s.jpg,1.0,clock_7_4.png,1.0,0,,,,,,,,,,,,,,,,,,0.0,3.0,3.0,3.0,1.0,,,,,,,,,,
1.0,1.0,1.200535,,,,,,glue_01s.jpg,1.0,clock_7_5.png,1.0,0,,,,,,,,,,,,,,,,,,0.0,4.0,4.0,4.0,1.0,,,,,,,,,,
0.0,1.0,0.51095,,,,,,powder_07s.jpg,0.0,clock_7_6.png,1.0,0,,,,,,,,,,,,,,,,,,0.0,5.0,5.0,5.0,1.0,,,,,,,,,,
0.0,1.0,0.605905,,,,,,swan_11s.jpg,0.0,clock_7_7.png,1.0,0,,,,,,,,,,,,,,,,,,0.0,6.0,6.0,6.0,1.0,,,,,,,,,,
0.0,1.0,0.658915,,,,,,badge_03s.jpg,0.0,clock_5_1.png,2.0,0,,,,,,,,,,,,,,,,,,0.0,7.0,7.0,7.0,1.0,,,,,,,,,,
0.0,1.0,0.857295,,,,,,turf_03s.jpg,0.0,clock_5_2.png,2.0,0,,,,,,,,,,,,,,,,,,0.0,8.0,8.0,8.0,1.0,,,,,,,,,,
0.0,1.0,1.00528,,,,,,stapler_01b.jpg,0.0,clock_5_3.png,2.0,0,,,,,,,,,,,,,,,,,,0.0,9.0,9.0,9.0,1.0,,,,,,,,,,
0.0,1.0,0.63466,,,,,,taxi_15s.jpg,0.0,clock_5_4.png,2.0,0,,,,,,,,,,,,,,,,,,0.0,10.0,10.0,10.0,1.0,,,,,,,,,,
1.0,1.0,1.574165,,,,,,turf_03s.jpg,1.0,clock_5_5.png,2.0,0,,,,,,,,,,,,,,,,,,0.0,11.0,11.0,11.0,1.0,,,,,,,,,,
0.0,1.0,1.39089,,,,,,turtleneck_11s.jpg,0.0,clock_5_1.png,3.0,0,,,,,,,,,,,,,,,,,,0.0,12.0,12.0,12.0,1.0,,,,,,,,,,
0.0,1.0,0.76523,,,,,,safety_pin_02s.jpg,0.0,clock_5_2.png,3.0,0,,,,,,,,,,,,,,,,,,0.0,13.0,13.0,13.0,1.0,,,,,,,,,,
0.0,1.0,0.84801,,,,,,powder_07s.jpg,0.0,clock_5_3.png,3.0,0,,,,,,,,,,,,,,,,,,0.0,14.0,14.0,14.0,1.0,,,,,,,,,,
0.0,1.0,0.73662,,,,,,lizard_10n.jpg,0.0,clock_5_4.png,3.0,0,,,,,,,,,,,,,,,,,,0.0,15.0,15.0,15.0,1.0,,,,,,,,,,
0.0,1.0,0.673595,,,,,,crate_05s.jpg,0.0,clock_5_5.png,3.0,0,,,,,,,,,,,,,,,,,,0.0,16.0,16.0,16.0,1.0,,,,,,,,,,
0.0,1.0,0.718005,,,,,,tablet_04s.jpg,0.0,clock_7_1.png,4.0,0,,,,,,,,,,,,,,,,,,0.0,17.0,17.0,17.0,1.0,,,,,,,,,,
0.0,1.0,1.19477,,,,,,rudder_02s.jpg,0.0,clock_7_2.png,4.0,0,,,,,,,,,,,,,,,,,,0.0,18.0,18.0,18.0,1.0,,,,,,,,,,
0.0,1.0,0.96865,,,,,,lizard_10n.jpg,0.0,clock_7_3.png,4.0,0,,,,,,,,,,,,,,,,,,0.0,19.0,19.0,19.0,1.0,,,,,,,,,,
0.0,1.0,0.61513,,,,,,limousine_12s.jpg,0.0,clock_7_4.png,4.0,0,,,,,,,,,,,,,,,,,,0.0,20.0,20.0,20.0,1.0,,,,,,,,,,
0.0,1.0,0.689945,,,,,,sleeping_bag_12s.jpg,0.0,clock_7_5.png,4.0,0,,,,,,,,,,,,,,,,,,0.0,21.0,21.0,21.0,1.0,,,,,,,,,,
0.0,1.0,0.717465,,,,,,tennis_ball_06s.jpg,0.0,clock_7_6.png,4.0,0,,,,,,,,,,,,,,,,,,0.0,22.0,22.0,22.0,1.0,,,,,,,,,,
0.0,1.0,1.16385,,,,,,pea_11s.jpg,0.0,clock_7_7.png,4.0,0,,,,,,,,,,,,,,,,,,0.0,23.0,23.0,23.0,1.0,,,,,,,,,,
0.0,1.0,0.51535,,,,,,tile_08s.jpg,0.0,clock_6_1.png,5.0,0,,,,,,,,,,,,,,,,,,0.0,24.0,24.0,24.0,1.0,,,,,,,,,,
0.0,1.0,0.78024,,,,,,paper_bag_12s.jpg,0.0,clock_6_2.png,5.0,0,,,,,,,,,,,,,,,,,,0.0,25.0,25.0,25.0,1.0,,,,,,,,,,
0.0,1.0,1.61376,,,,,,umbrella_15s.jpg,0.0,clock_6_3.png,5.0,0,,,,,,,,,,,,,,,,,,0.0,26.0,26.0,26.0,1.0,,,,,,,,,,
1.0,1.0,0.898865,,,,,,umbrella_15s.jpg,1.0,clock_6_4.png,5.0,0,,,,,,,,,,,,,,,,,,0.0,27.0,27.0,27.0,1.0,,,,,,,,,,
0.0,1.0,0.62672,,,,,,bank_06s.jpg,0.0,clock_6_5.png,5.0,0,,,,,,,,,,,,,,,,,,0.0,28.0,28.0,28.0,1.0,,,,,,,,,,
1.0,1.0,1.22479,,,,,,bank_06s.jpg,1.0,clock_6_6.png,5.0,0,,,,,,,,,,,,,,,,,,0.0,29.0,29.0,29.0,1.0,,,,,,,,,,
0.0,1.0,0.967805,,,,,,crayon_09s.jpg,0.0,clock_6_1.png,6.0,0,,,,,,,,,,,,,,,,,,0.0,30.0,30.0,30.0,1.0,,,,,,,,,,
0.0,1.0,0.79851,,,,,,amber_04s.jpg,0.0,clock_6_2.png,6.0,0,,,,,,,,,,,,,,,,,,0.0,31.0,31.0,31.0,1.0,,,,,,,,,,
0.0,1.0,0.63788,,,,,,towel_rack_04s.jpg,0.0,clock_6_3.png,6.0,0,,,,,,,,,,,,,,,,,,0.0,32.0,32.0,32.0,1.0,,,,,,,,,,
0.0,1.0,0.854945,,,,,,puck_06s.jpg,0.0,clock_6_4.png,6.0,0,,,,,,,,,,,,,,,,,,0.0,33.0,33.0,33.0,1.0,,,,,,,,,,
0.0,1.0,0.62127,,,,,,iron_13s.jpg,0.0,clock_6_5.png,6.0,0,,,,,,,,,,,,,,,,,,0.0,34.0,34.0,34.0,1.0,,,,,,,,,,
0.0,1.0,0.710445,,,,,,rocking_chair_05s.jpg,0.0,clock_6_6.png,6.0,0,,,,,,,,,,,,,,,,,,0.0,35.0,35.0,35.0,1.0,,,,,,,,,,
,,,,,,,,,0.0,,,0,0.0,1.0,1.807485,,,,,,stapler_01b.jpg,swan_11s.jpg,,,,,,,,,,,,,0.0,0.0,0.0,0.0,1.0,,,,,
,,,,,,,,,1.0,,,0,1.0,1.0,1.09897,,,,,,tennis_ball_06s.jpg,paper_bag_12s.jpg,,,,,,,,,,,,,0.0,1.0,1.0,1.0,1.0,,,,,
,,,,,,,,,0.0,,,0,1.0,0.0,1.86192,,,,,,tile_08s.jpg,sleeping_bag_12s.jpg,,,,,,,,,,,,,0.0,2.0,2.0,2.0,1.0,,,,,
,,,,,,,,,1.0,,,0,1.0,1.0,1.79014,,,,,,tablet_04s.jpg,limousine_12s.jpg,,,,,,,,,,,,,0.0,3.0,3.0,3.0,1.0,,,,,
,,,,,,,,,1.0,,,0,1.0,1.0,2.23885,,,,,,crayon_09s.jpg,puck_06s.jpg,,,,,,,,,,,,,0.0,4.0,4.0,4.0,1.0,,,,,
,,,,,,,,,1.0,,,0,1.0,1.0,2.02293,,,,,,amber_04s.jpg,iron_13s.jpg,,,,,,,,,,,,,0.0,5.0,5.0,5.0,1.0,,,,,
