key_resp.keys,key_resp.corr,key_resp.rt,noclock_loop.thisRepN,noclock_loop.thisTrialN,noclock_loop.thisN,noclock_loop.thisIndex,noclock_loop.ran,pictures,answer,clock,segment,participant,key_resp_2.keys,key_resp_2.corr,key_resp_2.rt,noclock_loop2.thisRepN,noclock_loop2.thisTrialN,noclock_loop2.thisN,noclock_loop2.thisIndex,noclock_loop2.ran,item_a,item_b,noclock_condition.thisRepN,noclock_condition.thisTrialN,noclock_condition.thisN,noclock_condition.thisIndex,noclock_condition.ran,present,compare,present_segment.thisRepN,present_segment.thisTrialN,present_segment.thisN,present_segment.thisIndex,present_segment.ran,compare_segment.thisRepN,compare_segment.thisTrialN,compare_segment.thisN,compare_segment.thisIndex,compare_segment.ran,clock_conditions.thisRepN,clock_conditions.thisTrialN,clock_conditions.thisN,clock_conditions.thisIndex,clock_conditions.ran
0.0,1.0,1.089,0.0,0.0,0.0,0.0,1.0,stamp1_11s.jpg,0.0,clockno_up.jpg,1.0,61,,,,,,,,,,,,,,,,,,,,,,,,,,,,,,,,
0.0,0.0,1.714,0.0,1.0,1.0,1.0,1.0,stamp1_11s.jpg,1.0,clockno_default.jpg,1.0,61,,,,,,,,,,,,,,,,,,,,,,,,,,,,,,,,
0.0,1.0,1.506,0.0,2.0,2.0,2.0,1.0,bacon_05s.jpg,0.0,clockno_default.jpg,1.0,61,,,,,,,,,,,,,,,,,,,,,,,,,,,,,,,,
0.0,1.0,1.23,0.0,3.0,3.0,3.0,1.0,owl_15s.jpg,0.0,clockno_default.jpg,1.0,61,,,,,,,,,,,,,,,,,,,,,,,,,,,,,,,,
1.0,1.0,1.069,0.0,4.0,4.0,4.0,1.0,owl_15s.jpg,1.0,clockno_default.jpg,1.0,61,,,,,,,,,,,,,,,,,,,,,,,,,,,,,,,,
0.0,1.0,1.171,0.0,5.0,5.0,5.0,1.0,eiffeltower.jpg,0.0,clockno_up.jpg,2.0,61,,,,,,,,,,,,,,,,,,,,,,,,,,,,,,,,
0.0,1.0,1.004,0.0,6.0,6.0,6.0,1.0,film_03s.jpg,0.0,clockno_default.jpg,2.0,61,,,,,,,,,,,,,,,,,,,,,,,,,,,,,,,,
1.0,1.0,0.82,0.0,7.0,7.0,7.0,1.0,eiffeltower.jpg,1.0,clockno_default.jpg,2.0,61,,,,,,,,,,,,,,,,,,,,,,,,,,,,,,,,
0.0,1.0,1.15,0.0,8.0,8.0,8.0,1.0,abacus_12s.jpg,0.0,clockno_default.jpg,2.0,61,,,,,,,,,,,,,,,,,,,,,,,,,,,,,,,,
1.0,1.0,0.918,0.0,9.0,9.0,9.0,1.0,eiffeltower.jpg,1.0,clockno_default.jpg,2.0,61,,,,,,,,,,,,,,,,,,,,,,,,,,,,,,,,
0.0,1.0,1.599,0.0,10.0,10.0,10.0,1.0,ram_05s.jpg,0.0,clockno_up.jpg,3.0,61,,,,,,,,,,,,,,,,,,,,,,,,,,,,,,,,
0.0,1.0,1.367,0.0,11.0,11.0,11.0,1.0,fox_13s.jpg,0.0,clockno_default.jpg,3.0,61,,,,,,,,,,,,,,,,,,,,,,,,,,,,,,,,
0.0,1.0,1.542,0.0,12.0,12.0,12.0,1.0,triangle_10s.jpg,0.0,clockno_default.jpg,3.0,61,,,,,,,,,,,,,,,,,,,,,,,,,,,,,,,,
0.0,1.0,1.006,0.0,13.0,13.0,13.0,1.0,key_07s.jpg,0.0,clockno_default.jpg,3.0,61,,,,,,,,,,,,,,,,,,,,,,,,,,,,,,,,
0.0,1.0,1.216,0.0,14.0,14.0,14.0,1.0,plaster_cast_13s.jpg,0.0,clockno_default.jpg,3.0,61,,,,,,,,,,,,,,,,,,,,,,,,,,,,,,,,
0.0,1.0,1.039,0.0,15.0,15.0,15.0,1.0,fishhook_06s.jpg,0.0,clockno_default.jpg,3.0,61,,,,,,,,,,,,,,,,,,,,,,,,,,,,,,,,
0.0,1.0,1.207,0.0,16.0,16.0,16.0,1.0,poinsettia_04s.jpg,0.0,clockno_default.jpg,3.0,61,,,,,,,,,,,,,,,,,,,,,,,,,,,,,,,,
0.0,1.0,1.544,0.0,17.0,17.0,17.0,1.0,teacup_07s.jpg,0.0,clockno_up.jpg,4.0,61,,,,,,,,,,,,,,,,,,,,,,,,,,,,,,,,
0.0,1.0,1.206,0.0,18.0,18.0,18.0,1.0,rabbit_03s.jpg,0.0,clockno_default.jpg,4.0,61,,,,,,,,,,,,,,,,,,,,,,,,,,,,,,,,
1.0,1.0,1.535,0.0,19.0,19.0,19.0,1.0,rabbit_03s.jpg,1.0,clockno_default.jpg,4.0,61,,,,,,,,,,,,,,,,,,,,,,,,,,,,,,,,
0.0,1.0,0.945,0.0,20.0,20.0,20.0,1.0,powder_07s.jpg,0.0,clockno_default.jpg,4.0,61,,,,,,,,,,,,,,,,,,,,,,,,,,,,,,,,
0.0,1.0,1.051,0.0,21.0,21.0,21.0,1.0,gas_mask_11s.jpg,0.0,clockno_default.jpg,4.0,61,,,,,,,,,,,,,,,,,,,,,,,,,,,,,,,,
0.0,1.0,1.12,0.0,22.0,22.0,22.0,1.0,loveseat_08s.jpg,0.0,clockno_default.jpg,4.0,61,,,,,,,,,,,,,,,,,,,,,,,,,,,,,,,,
0.0,1.0,1.162,0.0,23.0,23.0,23.0,1.0,pan_02s.jpg,0.0,clockno_up.jpg,5.0,61,,,,,,,,,,,,,,,,,,,,,,,,,,,,,,,,
0.0,1.0,0.873,0.0,24.0,24.0,24.0,1.0,mirror_12s.jpg,0.0,clockno_default.jpg,5.0,61,,,,,,,,,,,,,,,,,,,,,,,,,,,,,,,,
0.0,1.0,0.884,0.0,25.0,25.0,25.0,1.0,puppy_08s.jpg,0.0,clockno_default.jpg,5.0,61,,,,,,,,,,,,,,,,,,,,,,,,,,,,,,,,
0.0,1.0,1.537,0.0,26.0,26.0,26.0,1.0,laser_pointer_02s.jpg,0.0,clockno_default.jpg,5.0,61,,,,,,,,,,,,,,,,,,,,,,,,,,,,,,,,
1.0,1.0,1.05,0.0,27.0,27.0,27.0,1.0,puppy_08s.jpg,1.0,clockno_default.jpg,5.0,61,,,,,,,,,,,,,,,,,,,,,,,,,,,,,,,,
0.0,1.0,1.134,0.0,28.0,28.0,28.0,1.0,tablet_04s.jpg,0.0,clockno_default.jpg,5.0,61,,,,,,,,,,,,,,,,,,,,,,,,,,,,,,,,
0.0,1.0,0.922,0.0,29.0,29.0,29.0,1.0,jewel_01b.jpg,0.0,clockno_default.jpg,5.0,61,,,,,,,,,,,,,,,,,,,,,,,,,,,,,,,,
0.0,1.0,1.075,0.0,30.0,30.0,30.0,1.0,crystal_ball_12s.jpg,0.0,clockno_up.jpg,6.0,61,,,,,,,,,,,,,,,,,,,,,,,,,,,,,,,,
0.0,1.0,1.052,0.0,31.0,31.0,31.0,1.0,mud_13s.jpg,0.0,clockno_default.jpg,6.0,61,,,,,,,,,,,,,,,,,,,,,,,,,,,,,,,,
0.0,1.0,0.827,0.0,32.0,32.0,32.0,1.0,bee_20s.jpg,0.0,clockno_default.jpg,6.0,61,,,,,,,,,,,,,,,,,,,,,,,,,,,,,,,,
1.0,1.0,1.14,0.0,33.0,33.0,33.0,1.0,mud_13s.jpg,1.0,clockno_default.jpg,6.0,61,,,,,,,,,,,,,,,,,,,,,,,,,,,,,,,,
0.0,1.0,0.8,0.0,34.0,34.0,34.0,1.0,glue_01s.jpg,0.0,clockno_default.jpg,6.0,61,,,,,,,,,,,,,,,,,,,,,,,,,,,,,,,,
0.0,1.0,0.883,0.0,35.0,35.0,35.0,1.0,potpourri_03s.jpg,0.0,clockno_default.jpg,6.0,61,,,,,,,,,,,,,,,,,,,,,,,,,,,,,,,,
,,,,,,,,,0.0,,,61,1.0,0.0,2.1,0.0,0.0,0.0,0.0,1.0,mirror_12s.jpg,gas_mask_11s.jpg,,,,,,,,,,,,,,,,,,,,,,
,,,,,,,,,0.0,,,61,0.0,1.0,2.422,0.0,1.0,1.0,1.0,1.0,fox_13s.jpg,abacus_12s.jpg,,,,,,,,,,,,,,,,,,,,,,
,,,,,,,,,1.0,,,61,0.0,0.0,2.072,0.0,2.0,2.0,2.0,1.0,plaster_cast_13s.jpg,teacup_07s.jpg,,,,,,,,,,,,,,,,,,,,,,
,,,,,,,,,1.0,,,61,1.0,1.0,4.9,0.0,3.0,3.0,3.0,1.0,ram_05s.jpg,key_07s.jpg,,,,,,,,,,,,,,,,,,,,,,
,,,,,,,,,0.0,,,61,0.0,1.0,2.538,0.0,4.0,4.0,4.0,1.0,fishhook_06s.jpg,triangle_10s.jpg,,,,,,,,,,,,,,,,,,,,,,
,,,,,,,,,1.0,,,61,1.0,1.0,4.317,0.0,5.0,5.0,5.0,1.0,pan_02s.jpg,laser_pointer_02s.jpg,,,,,,,,,,,,,,,,,,,,,,
,,,,,,,,,,,,61,,,,,,,,,,,0.0,0.0,0.0,0.0,1.0,clockno_present_1_17.xlsx,clockno_compare_task_1_17.xlsx,,,,,,,,,,,,,,,
0.0,1.0,1.091,0.0,0.0,0.0,0.0,1.0,rope_16s.jpg,0.0,clockno_up.jpg,1.0,61,,,,,,,,,,,,,,,,,,,,,,,,,,,,,,,,
0.0,1.0,1.167,0.0,1.0,1.0,1.0,1.0,stopwatch_04s.jpg,0.0,clockno_default.jpg,1.0,61,,,,,,,,,,,,,,,,,,,,,,,,,,,,,,,,
1.0,1.0,0.819,0.0,2.0,2.0,2.0,1.0,rope_16s.jpg,1.0,clockno_default.jpg,1.0,61,,,,,,,,,,,,,,,,,,,,,,,,,,,,,,,,
0.0,1.0,1.002,0.0,3.0,3.0,3.0,1.0,milk_02s.jpg,0.0,clockno_default.jpg,1.0,61,,,,,,,,,,,,,,,,,,,,,,,,,,,,,,,,
1.0,1.0,1.388,0.0,4.0,4.0,4.0,1.0,milk_02s.jpg,1.0,clockno_default.jpg,1.0,61,,,,,,,,,,,,,,,,,,,,,,,,,,,,,,,,
0.0,1.0,1.187,0.0,5.0,5.0,5.0,1.0,bathtub_23s.jpg,0.0,clockno_up.jpg,2.0,61,,,,,,,,,,,,,,,,,,,,,,,,,,,,,,,,
1.0,1.0,1.083,0.0,6.0,6.0,6.0,1.0,bathtub_23s.jpg,1.0,clockno_default.jpg,2.0,61,,,,,,,,,,,,,,,,,,,,,,,,,,,,,,,,
0.0,1.0,0.9,0.0,7.0,7.0,7.0,1.0,playpen_11s.jpg,0.0,clockno_default.jpg,2.0,61,,,,,,,,,,,,,,,,,,,,,,,,,,,,,,,,
0.0,1.0,0.885,0.0,8.0,8.0,8.0,1.0,fork_04s.jpg,0.0,clockno_default.jpg,2.0,61,,,,,,,,,,,,,,,,,,,,,,,,,,,,,,,,
0.0,1.0,1.356,0.0,9.0,9.0,9.0,1.0,milk_02s.jpg,0.0,clockno_default.jpg,2.0,61,,,,,,,,,,,,,,,,,,,,,,,,,,,,,,,,
0.0,1.0,1.422,0.0,10.0,10.0,10.0,1.0,orchid_01b.jpg,0.0,clockno_default.jpg,2.0,61,,,,,,,,,,,,,,,,,,,,,,,,,,,,,,,,
0.0,1.0,1.033,0.0,11.0,11.0,11.0,1.0,tiger_06s.jpg,0.0,clockno_default.jpg,2.0,61,,,,,,,,,,,,,,,,,,,,,,,,,,,,,,,,
0.0,1.0,1.067,0.0,12.0,12.0,12.0,1.0,toad_09s.jpg,0.0,clockno_up.jpg,3.0,61,,,,,,,,,,,,,,,,,,,,,,,,,,,,,,,,
0.0,1.0,1.237,0.0,13.0,13.0,13.0,1.0,keyhole_03s.jpg,0.0,clockno_default.jpg,3.0,61,,,,,,,,,,,,,,,,,,,,,,,,,,,,,,,,
0.0,1.0,1.021,0.0,14.0,14.0,14.0,1.0,roulette_wheel_04s.jpg,0.0,clockno_default.jpg,3.0,61,,,,,,,,,,,,,,,,,,,,,,,,,,,,,,,,
0.0,1.0,1.068,0.0,15.0,15.0,15.0,1.0,lid_10s.jpg,0.0,clockno_default.jpg,3.0,61,,,,,,,,,,,,,,,,,,,,,,,,,,,,,,,,
0.0,1.0,1.141,0.0,16.0,16.0,16.0,1.0,exhaust_pipe_10s.jpg,0.0,clockno_default.jpg,3.0,61,,,,,,,,,,,,,,,,,,,,,,,,,,,,,,,,
0.0,1.0,0.95,0.0,17.0,17.0,17.0,1.0,sugar_cube_11s.jpg,0.0,clockno_default.jpg,3.0,61,,,,,,,,,,,,,,,,,,,,,,,,,,,,,,,,
0.0,1.0,1.069,0.0,18.0,18.0,18.0,1.0,rooster_03s.jpg,0.0,clockno_up.jpg,4.0,61,,,,,,,,,,,,,,,,,,,,,,,,,,,,,,,,
0.0,1.0,0.886,0.0,19.0,19.0,19.0,1.0,fire_alarm_05s.jpg,0.0,clockno_default.jpg,4.0,61,,,,,,,,,,,,,,,,,,,,,,,,,,,,,,,,
0.0,1.0,1.286,0.0,20.0,20.0,20.0,1.0,playpen_11s.jpg,0.0,clockno_default.jpg,4.0,61,,,,,,,,,,,,,,,,,,,,,,,,,,,,,,,,
0.0,1.0,1.066,0.0,21.0,21.0,21.0,1.0,keyhole_03s.jpg,0.0,clockno_default.jpg,4.0,61,,,,,,,,,,,,,,,,,,,,,,,,,,,,,,,,
1.0,1.0,1.033,0.0,22.0,22.0,22.0,1.0,keyhole_03s.jpg,1.0,clockno_default.jpg,4.0,61,,,,,,,,,,,,,,,,,,,,,,,,,,,,,,,,
0.0,1.0,0.934,0.0,23.0,23.0,23.0,1.0,mosquito_12s.jpg,0.0,clockno_default.jpg,4.0,61,,,,,,,,,,,,,,,,,,,,,,,,,,,,,,,,
0.0,1.0,1.007,0.0,24.0,24.0,24.0,1.0,light_switch_02s.jpg,0.0,clockno_default.jpg,4.0,61,,,,,,,,,,,,,,,,,,,,,,,,,,,,,,,,
0.0,1.0,1.271,0.0,25.0,25.0,25.0,1.0,koala_13s.jpg,0.0,clockno_up.jpg,5.0,61,,,,,,,,,,,,,,,,,,,,,,,,,,,,,,,,
0.0,1.0,0.767,0.0,26.0,26.0,26.0,1.0,leash_10s.jpg,0.0,clockno_default.jpg,5.0,61,,,,,,,,,,,,,,,,,,,,,,,,,,,,,,,,
0.0,1.0,0.684,0.0,27.0,27.0,27.0,1.0,sunglasses_11s.jpg,0.0,clockno_default.jpg,5.0,61,,,,,,,,,,,,,,,,,,,,,,,,,,,,,,,,
1.0,1.0,0.839,0.0,28.0,28.0,28.0,1.0,sunglasses_11s.jpg,1.0,clockno_default.jpg,5.0,61,,,,,,,,,,,,,,,,,,,,,,,,,,,,,,,,
0.0,1.0,0.935,0.0,29.0,29.0,29.0,1.0,insole_11s.jpg,0.0,clockno_default.jpg,5.0,61,,,,,,,,,,,,,,,,,,,,,,,,,,,,,,,,
0.0,1.0,1.151,0.0,30.0,30.0,30.0,1.0,juicer2_06s.jpg,0.0,clockno_default.jpg,5.0,61,,,,,,,,,,,,,,,,,,,,,,,,,,,,,,,,
0.0,1.0,1.166,0.0,31.0,31.0,31.0,1.0,stethoscope_01b.jpg,0.0,clockno_up.jpg,6.0,61,,,,,,,,,,,,,,,,,,,,,,,,,,,,,,,,
0.0,1.0,0.936,0.0,32.0,32.0,32.0,1.0,torch_02s.jpg,0.0,clockno_default.jpg,6.0,61,,,,,,,,,,,,,,,,,,,,,,,,,,,,,,,,
0.0,1.0,0.984,0.0,33.0,33.0,33.0,1.0,duck_01b.jpg,0.0,clockno_default.jpg,6.0,61,,,,,,,,,,,,,,,,,,,,,,,,,,,,,,,,
0.0,1.0,0.826,0.0,34.0,34.0,34.0,1.0,jigsaw_puzzle_11s.jpg,0.0,clockno_default.jpg,6.0,61,,,,,,,,,,,,,,,,,,,,,,,,,,,,,,,,
0.0,1.0,1.04,0.0,35.0,35.0,35.0,1.0,mop_08s.jpg,0.0,clockno_default.jpg,6.0,61,,,,,,,,,,,,,,,,,,,,,,,,,,,,,,,,
,,,,,,,,,0.0,,,61,0.0,1.0,11.712,0.0,0.0,0.0,0.0,1.0,fire_alarm_05s.jpg,exhaust_pipe_10s.jpg,,,,,,,,,,,,,,,,,,,,,,
,,,,,,,,,1.0,,,61,0.0,0.0,7.466,0.0,1.0,1.0,1.0,1.0,juicer2_06s.jpg,duck_01b.jpg,,,,,,,,,,,,,,,,,,,,,,
,,,,,,,,,1.0,,,61,0.0,0.0,1.983,0.0,2.0,2.0,2.0,1.0,lid_10s.jpg,rooster_03s.jpg,,,,,,,,,,,,,,,,,,,,,,
,,,,,,,,,1.0,,,61,0.0,0.0,4.274,0.0,3.0,3.0,3.0,1.0,stethoscope_01b.jpg,jigsaw_puzzle_11s.jpg,,,,,,,,,,,,,,,,,,,,,,
,,,,,,,,,0.0,,,61,1.0,0.0,14.323,0.0,4.0,4.0,4.0,1.0,tiger_06s.jpg,fork_04s.jpg,,,,,,,,,,,,,,,,,,,,,,
,,,,,,,,,0.0,,,61,1.0,0.0,1.917,0.0,5.0,5.0,5.0,1.0,sugar_cube_11s.jpg,roulette_wheel_04s.jpg,,,,,,,,,,,,,,,,,,,,,,
,,,,,,,,,,,,61,,,,,,,,,,,0.0,1.0,1.0,1.0,1.0,clockno_present_2_17.xlsx,clockno_compare_task_2_17.xlsx,,,,,,,,,,,,,,,
0.0,1.0,1.067,0.0,0.0,0.0,0.0,1.0,fossil_06s.jpg,0.0,clockno_up.jpg,1.0,61,,,,,,,,,,,,,,,,,,,,,,,,,,,,,,,,
0.0,1.0,0.908,0.0,1.0,1.0,1.0,1.0,ladle_04s.jpg,0.0,clockno_default.jpg,1.0,61,,,,,,,,,,,,,,,,,,,,,,,,,,,,,,,,
0.0,1.0,0.749,0.0,2.0,2.0,2.0,1.0,moth_06n.jpg,0.0,clockno_default.jpg,1.0,61,,,,,,,,,,,,,,,,,,,,,,,,,,,,,,,,
0.0,1.0,1.092,0.0,3.0,3.0,3.0,1.0,magnet_03s.jpg,0.0,clockno_default.jpg,1.0,61,,,,,,,,,,,,,,,,,,,,,,,,,,,,,,,,
1.0,1.0,1.205,0.0,4.0,4.0,4.0,1.0,fossil_06s.jpg,1.0,clockno_default.jpg,1.0,61,,,,,,,,,,,,,,,,,,,,,,,,,,,,,,,,
0.0,1.0,1.542,0.0,5.0,5.0,5.0,1.0,joystick_01b.jpg,0.0,clockno_up.jpg,2.0,61,,,,,,,,,,,,,,,,,,,,,,,,,,,,,,,,
0.0,1.0,1.122,0.0,6.0,6.0,6.0,1.0,giraffe_11s.jpg,0.0,clockno_default.jpg,2.0,61,,,,,,,,,,,,,,,,,,,,,,,,,,,,,,,,
0.0,1.0,1.583,0.0,7.0,7.0,7.0,1.0,money_07s.jpg,0.0,clockno_default.jpg,2.0,61,,,,,,,,,,,,,,,,,,,,,,,,,,,,,,,,
0.0,1.0,0.934,0.0,8.0,8.0,8.0,1.0,lemonade_04s.jpg,0.0,clockno_default.jpg,2.0,61,,,,,,,,,,,,,,,,,,,,,,,,,,,,,,,,
0.0,1.0,1.42,0.0,9.0,9.0,9.0,1.0,fossil_06s.jpg,0.0,clockno_default.jpg,2.0,61,,,,,,,,,,,,,,,,,,,,,,,,,,,,,,,,
0.0,1.0,0.916,0.0,10.0,10.0,10.0,1.0,lectern_08s.jpg,0.0,clockno_default.jpg,2.0,61,,,,,,,,,,,,,,,,,,,,,,,,,,,,,,,,
0.0,1.0,1.269,0.0,11.0,11.0,11.0,1.0,bottle_opener_11s.jpg,0.0,clockno_up.jpg,3.0,61,,,,,,,,,,,,,,,,,,,,,,,,,,,,,,,,
0.0,1.0,0.934,0.0,12.0,12.0,12.0,1.0,pie_08s.jpg,0.0,clockno_default.jpg,3.0,61,,,,,,,,,,,,,,,,,,,,,,,,,,,,,,,,
0.0,1.0,0.893,0.0,13.0,13.0,13.0,1.0,ivy_12s.jpg,0.0,clockno_default.jpg,3.0,61,,,,,,,,,,,,,,,,,,,,,,,,,,,,,,,,
0.0,1.0,1.066,0.0,14.0,14.0,14.0,1.0,fossil_06s.jpg,0.0,clockno_default.jpg,3.0,61,,,,,,,,,,,,,,,,,,,,,,,,,,,,,,,,
0.0,1.0,0.949,0.0,15.0,15.0,15.0,1.0,thermostat_02s.jpg,0.0,clockno_default.jpg,3.0,61,,,,,,,,,,,,,,,,,,,,,,,,,,,,,,,,
0.0,1.0,1.023,0.0,16.0,16.0,16.0,1.0,plunger_08s.jpg,0.0,clockno_default.jpg,3.0,61,,,,,,,,,,,,,,,,,,,,,,,,,,,,,,,,
0.0,1.0,1.055,0.0,17.0,17.0,17.0,1.0,pepper_mill_03s.jpg,0.0,clockno_default.jpg,3.0,61,,,,,,,,,,,,,,,,,,,,,,,,,,,,,,,,
0.0,1.0,1.119,0.0,18.0,18.0,18.0,1.0,penguin_16s.jpg,0.0,clockno_up.jpg,4.0,61,,,,,,,,,,,,,,,,,,,,,,,,,,,,,,,,
0.0,1.0,0.927,0.0,19.0,19.0,19.0,1.0,turtle_08s.jpg,0.0,clockno_default.jpg,4.0,61,,,,,,,,,,,,,,,,,,,,,,,,,,,,,,,,
0.0,1.0,0.951,0.0,20.0,20.0,20.0,1.0,onion_10s.jpg,0.0,clockno_default.jpg,4.0,61,,,,,,,,,,,,,,,,,,,,,,,,,,,,,,,,
0.0,1.0,1.533,0.0,21.0,21.0,21.0,1.0,bottle_opener_11s.jpg,0.0,clockno_default.jpg,4.0,61,,,,,,,,,,,,,,,,,,,,,,,,,,,,,,,,
0.0,1.0,0.933,0.0,22.0,22.0,22.0,1.0,lava_02s.jpg,0.0,clockno_default.jpg,4.0,61,,,,,,,,,,,,,,,,,,,,,,,,,,,,,,,,
0.0,1.0,0.841,0.0,23.0,23.0,23.0,1.0,pillow_03s.jpg,0.0,clockno_default.jpg,4.0,61,,,,,,,,,,,,,,,,,,,,,,,,,,,,,,,,
0.0,1.0,1.435,0.0,24.0,24.0,24.0,1.0,ink_08s.jpg,0.0,clockno_up.jpg,5.0,61,,,,,,,,,,,,,,,,,,,,,,,,,,,,,,,,
0.0,1.0,1.152,0.0,25.0,25.0,25.0,1.0,juicer1_08s.jpg,0.0,clockno_default.jpg,5.0,61,,,,,,,,,,,,,,,,,,,,,,,,,,,,,,,,
0.0,1.0,0.917,0.0,26.0,26.0,26.0,1.0,crate_05s.jpg,0.0,clockno_default.jpg,5.0,61,,,,,,,,,,,,,,,,,,,,,,,,,,,,,,,,
0.0,1.0,0.888,0.0,27.0,27.0,27.0,1.0,gargoyle_08s.jpg,0.0,clockno_default.jpg,5.0,61,,,,,,,,,,,,,,,,,,,,,,,,,,,,,,,,
0.0,1.0,0.826,0.0,28.0,28.0,28.0,1.0,basket_05s.jpg,0.0,clockno_default.jpg,5.0,61,,,,,,,,,,,,,,,,,,,,,,,,,,,,,,,,
0.0,1.0,1.1,0.0,29.0,29.0,29.0,1.0,pepper_mill_03s.jpg,0.0,clockno_default.jpg,5.0,61,,,,,,,,,,,,,,,,,,,,,,,,,,,,,,,,
0.0,1.0,1.284,0.0,30.0,30.0,30.0,1.0,penguin_16s.jpg,0.0,clockno_default.jpg,5.0,61,,,,,,,,,,,,,,,,,,,,,,,,,,,,,,,,
0.0,1.0,1.05,0.0,31.0,31.0,31.0,1.0,quill_09s.jpg,0.0,clockno_up.jpg,6.0,61,,,,,,,,,,,,,,,,,,,,,,,,,,,,,,,,
0.0,1.0,0.873,0.0,32.0,32.0,32.0,1.0,roller_coaster_07s.jpg,0.0,clockno_default.jpg,6.0,61,,,,,,,,,,,,,,,,,,,,,,,,,,,,,,,,
1.0,1.0,1.133,0.0,33.0,33.0,33.0,1.0,roller_coaster_07s.jpg,1.0,clockno_default.jpg,6.0,61,,,,,,,,,,,,,,,,,,,,,,,,,,,,,,,,
0.0,1.0,0.841,0.0,34.0,34.0,34.0,1.0,peppermint_07s.jpg,0.0,clockno_default.jpg,6.0,61,,,,,,,,,,,,,,,,,,,,,,,,,,,,,,,,
1.0,1.0,1.689,0.0,35.0,35.0,35.0,1.0,quill_09s.jpg,1.0,clockno_default.jpg,6.0,61,,,,,,,,,,,,,,,,,,,,,,,,,,,,,,,,
,,,,,,,,,1.0,,,61,0.0,0.0,7.946,0.0,0.0,0.0,0.0,1.0,magnet_03s.jpg,giraffe_11s.jpg,,,,,,,,,,,,,,,,,,,,,,
,,,,,,,,,0.0,,,61,0.0,1.0,4.834,0.0,1.0,1.0,1.0,1.0,joystick_01b.jpg,moth_06n.jpg,,,,,,,,,,,,,,,,,,,,,,
,,,,,,,,,1.0,,,61,1.0,1.0,2.505,0.0,2.0,2.0,2.0,1.0,pillow_03s.jpg,crate_05s.jpg,,,,,,,,,,,,,,,,,,,,,,
,,,,,,,,,1.0,,,61,0.0,0.0,4.199,0.0,3.0,3.0,3.0,1.0,pie_08s.jpg,thermostat_02s.jpg,,,,,,,,,,,,,,,,,,,,,,
,,,,,,,,,0.0,,,61,1.0,0.0,4.67,0.0,4.0,4.0,4.0,1.0,gargoyle_08s.jpg,ink_08s.jpg,,,,,,,,,,,,,,,,,,,,,,
,,,,,,,,,0.0,,,61,0.0,1.0,1.685,0.0,5.0,5.0,5.0,1.0,lectern_08s.jpg,money_07s.jpg,,,,,,,,,,,,,,,,,,,,,,
,,,,,,,,,,,,61,,,,,,,,,,,0.0,2.0,2.0,2.0,1.0,clockno_present_3_17.xlsx,clockno_compare_task_3_17.xlsx,,,,,,,,,,,,,,,
0.0,1.0,0.85,0.0,0.0,0.0,0.0,1.0,luggage_08s.jpg,0.0,clockno_up.jpg,1.0,61,,,,,,,,,,,,,,,,,,,,,,,,,,,,,,,,
0.0,1.0,0.785,0.0,1.0,1.0,1.0,1.0,lamp_08s.jpg,0.0,clockno_default.jpg,1.0,61,,,,,,,,,,,,,,,,,,,,,,,,,,,,,,,,
0.0,1.0,0.85,0.0,2.0,2.0,2.0,1.0,paper_towel_03s.jpg,0.0,clockno_default.jpg,1.0,61,,,,,,,,,,,,,,,,,,,,,,,,,,,,,,,,
0.0,1.0,0.81,0.0,3.0,3.0,3.0,1.0,jalapeno_15s.jpg,0.0,clockno_default.jpg,1.0,61,,,,,,,,,,,,,,,,,,,,,,,,,,,,,,,,
0.0,1.0,0.857,0.0,4.0,4.0,4.0,1.0,sledgehammer_03s.jpg,0.0,clockno_default.jpg,1.0,61,,,,,,,,,,,,,,,,,,,,,,,,,,,,,,,,
0.0,1.0,0.899,0.0,5.0,5.0,5.0,1.0,memory_stick_11s.jpg,0.0,clockno_default.jpg,1.0,61,,,,,,,,,,,,,,,,,,,,,,,,,,,,,,,,
0.0,1.0,1.193,0.0,6.0,6.0,6.0,1.0,thorn_13s.jpg,0.0,clockno_up.jpg,2.0,61,,,,,,,,,,,,,,,,,,,,,,,,,,,,,,,,
1.0,1.0,1.489,0.0,7.0,7.0,7.0,1.0,thorn_13s.jpg,1.0,clockno_default.jpg,2.0,61,,,,,,,,,,,,,,,,,,,,,,,,,,,,,,,,
0.0,1.0,0.842,0.0,8.0,8.0,8.0,1.0,butter_14s.jpg,0.0,clockno_default.jpg,2.0,61,,,,,,,,,,,,,,,,,,,,,,,,,,,,,,,,
0.0,1.0,1.183,0.0,9.0,9.0,9.0,1.0,mug_06s.jpg,0.0,clockno_default.jpg,2.0,61,,,,,,,,,,,,,,,,,,,,,,,,,,,,,,,,
0.0,1.0,0.85,0.0,10.0,10.0,10.0,1.0,gingerbread_man_03s.jpg,0.0,clockno_default.jpg,2.0,61,,,,,,,,,,,,,,,,,,,,,,,,,,,,,,,,
0.0,1.0,0.916,0.0,11.0,11.0,11.0,1.0,paper_bag_12s.jpg,0.0,clockno_up.jpg,3.0,61,,,,,,,,,,,,,,,,,,,,,,,,,,,,,,,,
0.0,1.0,0.749,0.0,12.0,12.0,12.0,1.0,machete_06s.jpg,0.0,clockno_default.jpg,3.0,61,,,,,,,,,,,,,,,,,,,,,,,,,,,,,,,,
0.0,1.0,0.916,0.0,13.0,13.0,13.0,1.0,quad_04s.jpg,0.0,clockno_default.jpg,3.0,61,,,,,,,,,,,,,,,,,,,,,,,,,,,,,,,,
0.0,1.0,0.803,0.0,14.0,14.0,14.0,1.0,amber_04s.jpg,0.0,clockno_default.jpg,3.0,61,,,,,,,,,,,,,,,,,,,,,,,,,,,,,,,,
0.0,1.0,1.268,0.0,15.0,15.0,15.0,1.0,mold2_04s.jpg,0.0,clockno_default.jpg,3.0,61,,,,,,,,,,,,,,,,,,,,,,,,,,,,,,,,
0.0,1.0,0.987,0.0,16.0,16.0,16.0,1.0,plug_08s.jpg,0.0,clockno_default.jpg,3.0,61,,,,,,,,,,,,,,,,,,,,,,,,,,,,,,,,
0.0,1.0,1.032,0.0,17.0,17.0,17.0,1.0,ticktacktoe_08s.jpg,0.0,clockno_up.jpg,4.0,61,,,,,,,,,,,,,,,,,,,,,,,,,,,,,,,,
0.0,1.0,1.075,0.0,18.0,18.0,18.0,1.0,tape_measure_11s.jpg,0.0,clockno_default.jpg,4.0,61,,,,,,,,,,,,,,,,,,,,,,,,,,,,,,,,
0.0,1.0,1.452,0.0,19.0,19.0,19.0,1.0,cape_11s.jpg,0.0,clockno_default.jpg,4.0,61,,,,,,,,,,,,,,,,,,,,,,,,,,,,,,,,
1.0,1.0,1.092,0.0,20.0,20.0,20.0,1.0,tape_measure_11s.jpg,1.0,clockno_default.jpg,4.0,61,,,,,,,,,,,,,,,,,,,,,,,,,,,,,,,,
0.0,1.0,1.306,0.0,21.0,21.0,21.0,1.0,machete_06s.jpg,0.0,clockno_default.jpg,4.0,61,,,,,,,,,,,,,,,,,,,,,,,,,,,,,,,,
0.0,1.0,1.15,0.0,22.0,22.0,22.0,1.0,bowler_hat_10s.jpg,0.0,clockno_default.jpg,4.0,61,,,,,,,,,,,,,,,,,,,,,,,,,,,,,,,,
0.0,1.0,1.053,0.0,23.0,23.0,23.0,1.0,punch2_09s.jpg,0.0,clockno_default.jpg,4.0,61,,,,,,,,,,,,,,,,,,,,,,,,,,,,,,,,
0.0,1.0,1.066,0.0,24.0,24.0,24.0,1.0,blowfish_03s.jpg,0.0,clockno_up.jpg,5.0,61,,,,,,,,,,,,,,,,,,,,,,,,,,,,,,,,
0.0,1.0,1.318,0.0,25.0,25.0,25.0,1.0,plug_08s.jpg,0.0,clockno_default.jpg,5.0,61,,,,,,,,,,,,,,,,,,,,,,,,,,,,,,,,
0.0,1.0,0.789,0.0,26.0,26.0,26.0,1.0,icemaker_10s.jpg,0.0,clockno_default.jpg,5.0,61,,,,,,,,,,,,,,,,,,,,,,,,,,,,,,,,
0.0,1.0,0.917,0.0,27.0,27.0,27.0,1.0,cucumber_07s.jpg,0.0,clockno_default.jpg,5.0,61,,,,,,,,,,,,,,,,,,,,,,,,,,,,,,,,
0.0,1.0,1.032,0.0,28.0,28.0,28.0,1.0,jetski_10s.jpg,0.0,clockno_default.jpg,5.0,61,,,,,,,,,,,,,,,,,,,,,,,,,,,,,,,,
0.0,1.0,0.935,0.0,29.0,29.0,29.0,1.0,glasses01a.jpg,0.0,clockno_default.jpg,5.0,61,,,,,,,,,,,,,,,,,,,,,,,,,,,,,,,,
0.0,1.0,1.127,0.0,30.0,30.0,30.0,1.0,kitten_07s.jpg,0.0,clockno_default.jpg,5.0,61,,,,,,,,,,,,,,,,,,,,,,,,,,,,,,,,
0.0,1.0,0.99,0.0,31.0,31.0,31.0,1.0,taxi_15s.jpg,0.0,clockno_up.jpg,6.0,61,,,,,,,,,,,,,,,,,,,,,,,,,,,,,,,,
0.0,1.0,0.699,0.0,32.0,32.0,32.0,1.0,lifesaver_10s.jpg,0.0,clockno_default.jpg,6.0,61,,,,,,,,,,,,,,,,,,,,,,,,,,,,,,,,
0.0,1.0,0.751,0.0,33.0,33.0,33.0,1.0,power_line_08s.jpg,0.0,clockno_default.jpg,6.0,61,,,,,,,,,,,,,,,,,,,,,,,,,,,,,,,,
0.0,1.0,0.791,0.0,34.0,34.0,34.0,1.0,lasagna_06s.jpg,0.0,clockno_default.jpg,6.0,61,,,,,,,,,,,,,,,,,,,,,,,,,,,,,,,,
0.0,0.0,1.168,0.0,35.0,35.0,35.0,1.0,lifesaver_10s.jpg,1.0,clockno_default.jpg,6.0,61,,,,,,,,,,,,,,,,,,,,,,,,,,,,,,,,
,,,,,,,,,1.0,,,61,1.0,1.0,8.781,0.0,0.0,0.0,0.0,1.0,gingerbread_man_03s.jpg,quad_04s.jpg,,,,,,,,,,,,,,,,,,,,,,
,,,,,,,,,1.0,,,61,1.0,1.0,2.985,0.0,1.0,1.0,1.0,1.0,memory_stick_11s.jpg,butter_14s.jpg,,,,,,,,,,,,,,,,,,,,,,
,,,,,,,,,0.0,,,61,0.0,1.0,2.667,0.0,2.0,2.0,2.0,1.0,ticktacktoe_08s.jpg,amber_04s.jpg,,,,,,,,,,,,,,,,,,,,,,
,,,,,,,,,1.0,,,61,0.0,0.0,2.27,0.0,3.0,3.0,3.0,1.0,luggage_08s.jpg,jalapeno_15s.jpg,,,,,,,,,,,,,,,,,,,,,,
,,,,,,,,,0.0,,,61,0.0,1.0,4.19,0.0,4.0,4.0,4.0,1.0,sledgehammer_03s.jpg,lamp_08s.jpg,,,,,,,,,,,,,,,,,,,,,,
,,,,,,,,,0.0,,,61,0.0,1.0,2.617,0.0,5.0,5.0,5.0,1.0,bowler_hat_10s.jpg,cape_11s.jpg,,,,,,,,,,,,,,,,,,,,,,
,,,,,,,,,,,,61,,,,,,,,,,,0.0,3.0,3.0,3.0,1.0,clockno_present_4_17.xlsx,clockno_compare_task_4_17.xlsx,,,,,,,,,,,,,,,
0.0,1.0,0.813,0.0,0.0,0.0,0.0,1.0,puck_06s.jpg,0.0,clockno_up.jpg,1.0,61,,,,,,,,,,,,,,,,,,,,,,,,,,,,,,,,
1.0,1.0,0.951,0.0,1.0,1.0,1.0,1.0,puck_06s.jpg,1.0,clockno_default.jpg,1.0,61,,,,,,,,,,,,,,,,,,,,,,,,,,,,,,,,
0.0,1.0,0.991,0.0,2.0,2.0,2.0,1.0,mannequin_05s.jpg,0.0,clockno_default.jpg,1.0,61,,,,,,,,,,,,,,,,,,,,,,,,,,,,,,,,
0.0,1.0,1.3,0.0,3.0,3.0,3.0,1.0,rhinoceros_02s.jpg,0.0,clockno_default.jpg,1.0,61,,,,,,,,,,,,,,,,,,,,,,,,,,,,,,,,
1.0,1.0,1.05,0.0,4.0,4.0,4.0,1.0,rhinoceros_02s.jpg,1.0,clockno_default.jpg,1.0,61,,,,,,,,,,,,,,,,,,,,,,,,,,,,,,,,
0.0,1.0,0.933,0.0,5.0,5.0,5.0,1.0,megaphone_03s.jpg,0.0,clockno_default.jpg,1.0,61,,,,,,,,,,,,,,,,,,,,,,,,,,,,,,,,
0.0,1.0,0.887,0.0,6.0,6.0,6.0,1.0,tulip_02s.jpg,0.0,clockno_up.jpg,2.0,61,,,,,,,,,,,,,,,,,,,,,,,,,,,,,,,,
0.0,1.0,0.633,0.0,7.0,7.0,7.0,1.0,smoothie_09s.jpg,0.0,clockno_default.jpg,2.0,61,,,,,,,,,,,,,,,,,,,,,,,,,,,,,,,,
1.0,1.0,0.719,0.0,8.0,8.0,8.0,1.0,smoothie_09s.jpg,1.0,clockno_default.jpg,2.0,61,,,,,,,,,,,,,,,,,,,,,,,,,,,,,,,,
0.0,1.0,1.284,0.0,9.0,9.0,9.0,1.0,mannequin_05s.jpg,0.0,clockno_default.jpg,2.0,61,,,,,,,,,,,,,,,,,,,,,,,,,,,,,,,,
0.0,1.0,0.808,0.0,10.0,10.0,10.0,1.0,mascara_03s.jpg,0.0,clockno_default.jpg,2.0,61,,,,,,,,,,,,,,,,,,,,,,,,,,,,,,,,
0.0,1.0,0.968,0.0,11.0,11.0,11.0,1.0,badge_03s.jpg,0.0,clockno_default.jpg,2.0,61,,,,,,,,,,,,,,,,,,,,,,,,,,,,,,,,
0.0,1.0,0.984,0.0,12.0,12.0,12.0,1.0,megaphone_03s.jpg,0.0,clockno_default.jpg,2.0,61,,,,,,,,,,,,,,,,,,,,,,,,,,,,,,,,
0.0,1.0,0.932,0.0,13.0,13.0,13.0,1.0,latch_15s.jpg,0.0,clockno_up.jpg,3.0,61,,,,,,,,,,,,,,,,,,,,,,,,,,,,,,,,
0.0,1.0,0.706,0.0,14.0,14.0,14.0,1.0,pipe1_10s.jpg,0.0,clockno_default.jpg,3.0,61,,,,,,,,,,,,,,,,,,,,,,,,,,,,,,,,
0.0,1.0,0.767,0.0,15.0,15.0,15.0,1.0,fire_pit_10s.jpg,0.0,clockno_default.jpg,3.0,61,,,,,,,,,,,,,,,,,,,,,,,,,,,,,,,,
0.0,1.0,0.794,0.0,16.0,16.0,16.0,1.0,pump_11s.jpg,0.0,clockno_default.jpg,3.0,61,,,,,,,,,,,,,,,,,,,,,,,,,,,,,,,,
0.0,1.0,0.689,0.0,17.0,17.0,17.0,1.0,puppet_01b.jpg,0.0,clockno_default.jpg,3.0,61,,,,,,,,,,,,,,,,,,,,,,,,,,,,,,,,
0.0,1.0,1.183,0.0,18.0,18.0,18.0,1.0,rhinoceros_02s.jpg,0.0,clockno_default.jpg,3.0,61,,,,,,,,,,,,,,,,,,,,,,,,,,,,,,,,
0.0,1.0,0.872,0.0,19.0,19.0,19.0,1.0,camcorder_10s.jpg,0.0,clockno_default.jpg,3.0,61,,,,,,,,,,,,,,,,,,,,,,,,,,,,,,,,
0.0,1.0,0.971,0.0,20.0,20.0,20.0,1.0,blender_08s.jpg,0.0,clockno_up.jpg,4.0,61,,,,,,,,,,,,,,,,,,,,,,,,,,,,,,,,
0.0,1.0,0.658,0.0,21.0,21.0,21.0,1.0,scooter.jpg,0.0,clockno_default.jpg,4.0,61,,,,,,,,,,,,,,,,,,,,,,,,,,,,,,,,
0.0,1.0,0.668,0.0,22.0,22.0,22.0,1.0,rocking_horse_03s.jpg,0.0,clockno_default.jpg,4.0,61,,,,,,,,,,,,,,,,,,,,,,,,,,,,,,,,
1.0,1.0,0.988,0.0,23.0,23.0,23.0,1.0,blender_08s.jpg,1.0,clockno_default.jpg,4.0,61,,,,,,,,,,,,,,,,,,,,,,,,,,,,,,,,
0.0,1.0,0.803,0.0,24.0,24.0,24.0,1.0,kayak_08s.jpg,0.0,clockno_default.jpg,4.0,61,,,,,,,,,,,,,,,,,,,,,,,,,,,,,,,,
0.0,1.0,1.26,0.0,25.0,25.0,25.0,1.0,radio_09s.jpg,0.0,clockno_up.jpg,5.0,61,,,,,,,,,,,,,,,,,,,,,,,,,,,,,,,,
1.0,1.0,0.932,0.0,26.0,26.0,26.0,1.0,radio_09s.jpg,1.0,clockno_default.jpg,5.0,61,,,,,,,,,,,,,,,,,,,,,,,,,,,,,,,,
0.0,1.0,0.715,0.0,27.0,27.0,27.0,1.0,coffee_filter_10s.jpg,0.0,clockno_default.jpg,5.0,61,,,,,,,,,,,,,,,,,,,,,,,,,,,,,,,,
0.0,1.0,0.755,0.0,28.0,28.0,28.0,1.0,toilet_07s.jpg,0.0,clockno_default.jpg,5.0,61,,,,,,,,,,,,,,,,,,,,,,,,,,,,,,,,
0.0,1.0,0.738,0.0,29.0,29.0,29.0,1.0,mitten_10s.jpg,0.0,clockno_default.jpg,5.0,61,,,,,,,,,,,,,,,,,,,,,,,,,,,,,,,,
0.0,1.0,0.755,0.0,30.0,30.0,30.0,1.0,dynamite_01b.jpg,0.0,clockno_up.jpg,6.0,61,,,,,,,,,,,,,,,,,,,,,,,,,,,,,,,,
0.0,1.0,1.399,0.0,31.0,31.0,31.0,1.0,mask_09s.jpg,0.0,clockno_default.jpg,6.0,61,,,,,,,,,,,,,,,,,,,,,,,,,,,,,,,,
0.0,1.0,1.249,0.0,32.0,32.0,32.0,1.0,scooter.jpg,0.0,clockno_default.jpg,6.0,61,,,,,,,,,,,,,,,,,,,,,,,,,,,,,,,,
0.0,1.0,0.909,0.0,33.0,33.0,33.0,1.0,tambourine_06s.jpg,0.0,clockno_default.jpg,6.0,61,,,,,,,,,,,,,,,,,,,,,,,,,,,,,,,,
0.0,1.0,0.949,0.0,34.0,34.0,34.0,1.0,top_hat_11s.jpg,0.0,clockno_default.jpg,6.0,61,,,,,,,,,,,,,,,,,,,,,,,,,,,,,,,,
0.0,1.0,0.933,0.0,35.0,35.0,35.0,1.0,outlet_10s.jpg,0.0,clockno_default.jpg,6.0,61,,,,,,,,,,,,,,,,,,,,,,,,,,,,,,,,
,,,,,,,,,1.0,,,61,1.0,1.0,3.705,0.0,0.0,0.0,0.0,1.0,kayak_08s.jpg,coffee_filter_10s.jpg,,,,,,,,,,,,,,,,,,,,,,
,,,,,,,,,0.0,,,61,1.0,0.0,4.501,0.0,1.0,1.0,1.0,1.0,latch_15s.jpg,mascara_03s.jpg,,,,,,,,,,,,,,,,,,,,,,
,,,,,,,,,0.0,,,61,1.0,0.0,6.349,0.0,2.0,2.0,2.0,1.0,pipe1_10s.jpg,badge_03s.jpg,,,,,,,,,,,,,,,,,,,,,,
,,,,,,,,,1.0,,,61,1.0,1.0,3.403,0.0,3.0,3.0,3.0,1.0,pump_11s.jpg,camcorder_10s.jpg,,,,,,,,,,,,,,,,,,,,,,
,,,,,,,,,0.0,,,61,1.0,0.0,1.951,0.0,4.0,4.0,4.0,1.0,tambourine_06s.jpg,dynamite_01b.jpg,,,,,,,,,,,,,,,,,,,,,,
,,,,,,,,,0.0,,,61,0.0,1.0,1.659,0.0,5.0,5.0,5.0,1.0,top_hat_11s.jpg,mask_09s.jpg,,,,,,,,,,,,,,,,,,,,,,
,,,,,,,,,,,,61,,,,,,,,,,,0.0,4.0,4.0,4.0,1.0,clockno_present_5_17.xlsx,clockno_compare_task_5_17.xlsx,,,,,,,,,,,,,,,
0.0,1.0,1.051,0.0,0.0,0.0,0.0,1.0,refrigerator_07s.jpg,0.0,clockno_up.jpg,1.0,61,,,,,,,,,,,,,,,,,,,,,,,,,,,,,,,,
0.0,1.0,0.801,0.0,1.0,1.0,1.0,1.0,blazer_02s.jpg,0.0,clockno_default.jpg,1.0,61,,,,,,,,,,,,,,,,,,,,,,,,,,,,,,,,
0.0,1.0,0.705,0.0,2.0,2.0,2.0,1.0,rudder_02s.jpg,0.0,clockno_default.jpg,1.0,61,,,,,,,,,,,,,,,,,,,,,,,,,,,,,,,,
0.0,1.0,0.688,0.0,3.0,3.0,3.0,1.0,comic_book_02s.jpg,0.0,clockno_default.jpg,1.0,61,,,,,,,,,,,,,,,,,,,,,,,,,,,,,,,,
1.0,1.0,0.904,0.0,4.0,4.0,4.0,1.0,comic_book_02s.jpg,1.0,clockno_default.jpg,1.0,61,,,,,,,,,,,,,,,,,,,,,,,,,,,,,,,,
0.0,1.0,1.025,0.0,5.0,5.0,5.0,1.0,trident_07s.jpg,0.0,clockno_up.jpg,2.0,61,,,,,,,,,,,,,,,,,,,,,,,,,,,,,,,,
0.0,1.0,0.53,0.0,6.0,6.0,6.0,1.0,candy_cane_06s.jpg,0.0,clockno_default.jpg,2.0,61,,,,,,,,,,,,,,,,,,,,,,,,,,,,,,,,
0.0,1.0,0.667,0.0,7.0,7.0,7.0,1.0,quilt_03s.jpg,0.0,clockno_default.jpg,2.0,61,,,,,,,,,,,,,,,,,,,,,,,,,,,,,,,,
0.0,1.0,0.722,0.0,8.0,8.0,8.0,1.0,teapot_03s.jpg,0.0,clockno_default.jpg,2.0,61,,,,,,,,,,,,,,,,,,,,,,,,,,,,,,,,
1.0,1.0,0.803,0.0,9.0,9.0,9.0,1.0,teapot_03s.jpg,1.0,clockno_default.jpg,2.0,61,,,,,,,,,,,,,,,,,,,,,,,,,,,,,,,,
0.0,1.0,0.866,0.0,10.0,10.0,10.0,1.0,telephone_pole_05s.jpg,0.0,clockno_default.jpg,2.0,61,,,,,,,,,,,,,,,,,,,,,,,,,,,,,,,,
0.0,1.0,0.851,0.0,11.0,11.0,11.0,1.0,rolling_pin_02s.jpg,0.0,clockno_default.jpg,2.0,61,,,,,,,,,,,,,,,,,,,,,,,,,,,,,,,,
0.0,1.0,0.785,0.0,12.0,12.0,12.0,1.0,tuba_12s.jpg,0.0,clockno_up.jpg,3.0,61,,,,,,,,,,,,,,,,,,,,,,,,,,,,,,,,
0.0,1.0,0.7,0.0,13.0,13.0,13.0,1.0,smokingpipe.jpg,0.0,clockno_default.jpg,3.0,61,,,,,,,,,,,,,,,,,,,,,,,,,,,,,,,,
0.0,1.0,0.66,0.0,14.0,14.0,14.0,1.0,panda_02s.jpg,0.0,clockno_default.jpg,3.0,61,,,,,,,,,,,,,,,,,,,,,,,,,,,,,,,,
0.0,1.0,1.4,0.0,15.0,15.0,15.0,1.0,sleeping_bag_12s.jpg,0.0,clockno_default.jpg,3.0,61,,,,,,,,,,,,,,,,,,,,,,,,,,,,,,,,
0.0,1.0,0.816,0.0,16.0,16.0,16.0,1.0,stamp2_08s.jpg,0.0,clockno_default.jpg,3.0,61,,,,,,,,,,,,,,,,,,,,,,,,,,,,,,,,
0.0,1.0,0.8,0.0,17.0,17.0,17.0,1.0,kite_04s.jpg,0.0,clockno_up.jpg,4.0,61,,,,,,,,,,,,,,,,,,,,,,,,,,,,,,,,
0.0,1.0,0.982,0.0,18.0,18.0,18.0,1.0,rocking_chair_05s.jpg,0.0,clockno_default.jpg,4.0,61,,,,,,,,,,,,,,,,,,,,,,,,,,,,,,,,
0.0,1.0,0.804,0.0,19.0,19.0,19.0,1.0,marker_05s.jpg,0.0,clockno_default.jpg,4.0,61,,,,,,,,,,,,,,,,,,,,,,,,,,,,,,,,
0.0,1.0,0.71,0.0,20.0,20.0,20.0,1.0,chip_04s.jpg,0.0,clockno_default.jpg,4.0,61,,,,,,,,,,,,,,,,,,,,,,,,,,,,,,,,
0.0,1.0,0.724,0.0,21.0,21.0,21.0,1.0,pretzel_09s.jpg,0.0,clockno_default.jpg,4.0,61,,,,,,,,,,,,,,,,,,,,,,,,,,,,,,,,
0.0,1.0,0.866,0.0,22.0,22.0,22.0,1.0,swimming_pool_17s.jpg,0.0,clockno_default.jpg,4.0,61,,,,,,,,,,,,,,,,,,,,,,,,,,,,,,,,
0.0,1.0,0.908,0.0,23.0,23.0,23.0,1.0,spacesuit_02s.jpg,0.0,clockno_up.jpg,5.0,61,,,,,,,,,,,,,,,,,,,,,,,,,,,,,,,,
0.0,1.0,0.666,0.0,24.0,24.0,24.0,1.0,letter_opener_03s.jpg,0.0,clockno_default.jpg,5.0,61,,,,,,,,,,,,,,,,,,,,,,,,,,,,,,,,
0.0,1.0,0.816,0.0,25.0,25.0,25.0,1.0,cotton_candy_01b.jpg,0.0,clockno_default.jpg,5.0,61,,,,,,,,,,,,,,,,,,,,,,,,,,,,,,,,
0.0,1.0,0.726,0.0,26.0,26.0,26.0,1.0,spatula04.jpg,0.0,clockno_default.jpg,5.0,61,,,,,,,,,,,,,,,,,,,,,,,,,,,,,,,,
1.0,1.0,1.367,0.0,27.0,27.0,27.0,1.0,cotton_candy_01b.jpg,1.0,clockno_default.jpg,5.0,61,,,,,,,,,,,,,,,,,,,,,,,,,,,,,,,,
0.0,1.0,0.699,0.0,28.0,28.0,28.0,1.0,boomerang_06s.jpg,0.0,clockno_default.jpg,5.0,61,,,,,,,,,,,,,,,,,,,,,,,,,,,,,,,,
0.0,1.0,0.92,0.0,29.0,29.0,29.0,1.0,sea_urchin_09s.jpg,0.0,clockno_up.jpg,6.0,61,,,,,,,,,,,,,,,,,,,,,,,,,,,,,,,,
0.0,1.0,0.758,0.0,30.0,30.0,30.0,1.0,slingshot_07s.jpg,0.0,clockno_default.jpg,6.0,61,,,,,,,,,,,,,,,,,,,,,,,,,,,,,,,,
0.0,1.0,0.601,0.0,31.0,31.0,31.0,1.0,toilet_paper_12s.jpg,0.0,clockno_default.jpg,6.0,61,,,,,,,,,,,,,,,,,,,,,,,,,,,,,,,,
0.0,1.0,0.734,0.0,32.0,32.0,32.0,1.0,polaroid_05s.jpg,0.0,clockno_default.jpg,6.0,61,,,,,,,,,,,,,,,,,,,,,,,,,,,,,,,,
0.0,1.0,0.67,0.0,33.0,33.0,33.0,1.0,cardinal_07s.jpg,0.0,clockno_default.jpg,6.0,61,,,,,,,,,,,,,,,,,,,,,,,,,,,,,,,,
0.0,1.0,0.688,0.0,34.0,34.0,34.0,1.0,eggshell_14s.jpg,0.0,clockno_default.jpg,6.0,61,,,,,,,,,,,,,,,,,,,,,,,,,,,,,,,,
0.0,1.0,1.185,0.0,35.0,35.0,35.0,1.0,puddle_02s.jpg,0.0,clockno_default.jpg,6.0,61,,,,,,,,,,,,,,,,,,,,,,,,,,,,,,,,
,,,,,,,,,0.0,,,61,0.0,1.0,3.019,0.0,0.0,0.0,0.0,1.0,trident_07s.jpg,rudder_02s.jpg,,,,,,,,,,,,,,,,,,,,,,
,,,,,,,,,0.0,,,61,0.0,1.0,9.017,0.0,1.0,1.0,1.0,1.0,panda_02s.jpg,rolling_pin_02s.jpg,,,,,,,,,,,,,,,,,,,,,,
,,,,,,,,,1.0,,,61,0.0,0.0,2.068,0.0,2.0,2.0,2.0,1.0,pretzel_09s.jpg,letter_opener_03s.jpg,,,,,,,,,,,,,,,,,,,,,,
,,,,,,,,,1.0,,,61,0.0,0.0,3.016,0.0,3.0,3.0,3.0,1.0,slingshot_07s.jpg,cardinal_07s.jpg,,,,,,,,,,,,,,,,,,,,,,
,,,,,,,,,1.0,,,61,1.0,1.0,3.106,0.0,4.0,4.0,4.0,1.0,polaroid_05s.jpg,puddle_02s.jpg,,,,,,,,,,,,,,,,,,,,,,
,,,,,,,,,0.0,,,61,0.0,1.0,3.249,0.0,5.0,5.0,5.0,1.0,telephone_pole_05s.jpg,quilt_03s.jpg,,,,,,,,,,,,,,,,,,,,,,
0.0,1.0,1.41,,,,,,racehorse_03s.jpg,0.0,clock_6_1.png,1.0,61,,,,,,,,,,,,,,,,,,0.0,0.0,0.0,0.0,1.0,,,,,,,,,,
1.0,1.0,0.932,,,,,,racehorse_03s.jpg,1.0,clock_6_2.png,1.0,61,,,,,,,,,,,,,,,,,,0.0,1.0,1.0,1.0,1.0,,,,,,,,,,
0.0,1.0,0.732,,,,,,ravioli_08s.jpg,0.0,clock_6_3.png,1.0,61,,,,,,,,,,,,,,,,,,0.0,2.0,2.0,2.0,1.0,,,,,,,,,,
1.0,1.0,0.904,,,,,,racehorse_03s.jpg,1.0,clock_6_4.png,1.0,61,,,,,,,,,,,,,,,,,,0.0,3.0,3.0,3.0,1.0,,,,,,,,,,
0.0,1.0,0.807,,,,,,swing_set_15s.jpg,0.0,clock_6_5.png,1.0,61,,,,,,,,,,,,,,,,,,0.0,4.0,4.0,4.0,1.0,,,,,,,,,,
1.0,1.0,1.534,,,,,,swing_set_15s.jpg,1.0,clock_6_6.png,1.0,61,,,,,,,,,,,,,,,,,,0.0,5.0,5.0,5.0,1.0,,,,,,,,,,
0.0,1.0,0.817,,,,,,ruby_15s.jpg,0.0,clock_7_1.png,2.0,61,,,,,,,,,,,,,,,,,,0.0,6.0,6.0,6.0,1.0,,,,,,,,,,
0.0,1.0,0.765,,,,,,loom_05s.jpg,0.0,clock_7_2.png,2.0,61,,,,,,,,,,,,,,,,,,0.0,7.0,7.0,7.0,1.0,,,,,,,,,,
0.0,1.0,1.304,,,,,,pocket_watch_16s.jpg,0.0,clock_7_3.png,2.0,61,,,,,,,,,,,,,,,,,,0.0,8.0,8.0,8.0,1.0,,,,,,,,,,
0.0,1.0,0.818,,,,,,peanut_butter_08s.jpg,0.0,clock_7_4.png,2.0,61,,,,,,,,,,,,,,,,,,0.0,9.0,9.0,9.0,1.0,,,,,,,,,,
0.0,1.0,0.748,,,,,,piano_13n.jpg,0.0,clock_7_5.png,2.0,61,,,,,,,,,,,,,,,,,,0.0,10.0,10.0,10.0,1.0,,,,,,,,,,
0.0,1.0,1.099,,,,,,emerald_02s.jpg,0.0,clock_7_6.png,2.0,61,,,,,,,,,,,,,,,,,,0.0,11.0,11.0,11.0,1.0,,,,,,,,,,
0.0,1.0,1.075,,,,,,swing_set_15s.jpg,0.0,clock_7_7.png,2.0,61,,,,,,,,,,,,,,,,,,0.0,12.0,12.0,12.0,1.0,,,,,,,,,,
0.0,1.0,1.184,,,,,,gong_02s.jpg,0.0,clock_5_1.png,3.0,61,,,,,,,,,,,,,,,,,,0.0,13.0,13.0,13.0,1.0,,,,,,,,,,
0.0,1.0,0.8,,,,,,turf_03s.jpg,0.0,clock_5_2.png,3.0,61,,,,,,,,,,,,,,,,,,0.0,14.0,14.0,14.0,1.0,,,,,,,,,,
0.0,1.0,0.641,,,,,,tie_03s.jpg,0.0,clock_5_3.png,3.0,61,,,,,,,,,,,,,,,,,,0.0,15.0,15.0,15.0,1.0,,,,,,,,,,
0.0,1.0,0.667,,,,,,swan_11s.jpg,0.0,clock_5_4.png,3.0,61,,,,,,,,,,,,,,,,,,0.0,16.0,16.0,16.0,1.0,,,,,,,,,,
0.0,1.0,0.715,,,,,,margarita_03s.jpg,0.0,clock_5_5.png,3.0,61,,,,,,,,,,,,,,,,,,0.0,17.0,17.0,17.0,1.0,,,,,,,,,,
0.0,1.0,1.034,,,,,,denture_03s.jpg,0.0,clock_5_1.png,4.0,61,,,,,,,,,,,,,,,,,,0.0,18.0,18.0,18.0,1.0,,,,,,,,,,
0.0,1.0,0.717,,,,,,pincushion_10s.jpg,0.0,clock_5_2.png,4.0,61,,,,,,,,,,,,,,,,,,0.0,19.0,19.0,19.0,1.0,,,,,,,,,,
0.0,1.0,0.633,,,,,,lavender_10s.jpg,0.0,clock_5_3.png,4.0,61,,,,,,,,,,,,,,,,,,0.0,20.0,20.0,20.0,1.0,,,,,,,,,,
0.0,1.0,0.668,,,,,,treadmill_06s.jpg,0.0,clock_5_4.png,4.0,61,,,,,,,,,,,,,,,,,,0.0,21.0,21.0,21.0,1.0,,,,,,,,,,
0.0,1.0,0.933,,,,,,seagull_01b.jpg,0.0,clock_5_5.png,4.0,61,,,,,,,,,,,,,,,,,,0.0,22.0,22.0,22.0,1.0,,,,,,,,,,
0.0,1.0,0.766,,,,,,omelet_07s.jpg,0.0,clock_6_1.png,5.0,61,,,,,,,,,,,,,,,,,,0.0,23.0,23.0,23.0,1.0,,,,,,,,,,
0.0,1.0,0.65,,,,,,pear_02s.jpg,0.0,clock_6_2.png,5.0,61,,,,,,,,,,,,,,,,,,0.0,24.0,24.0,24.0,1.0,,,,,,,,,,
0.0,1.0,0.556,,,,,,knitting_needle_04s.jpg,0.0,clock_6_3.png,5.0,61,,,,,,,,,,,,,,,,,,0.0,25.0,25.0,25.0,1.0,,,,,,,,,,
0.0,1.0,0.925,,,,,,loom_05s.jpg,0.0,clock_6_4.png,5.0,61,,,,,,,,,,,,,,,,,,0.0,26.0,26.0,26.0,1.0,,,,,,,,,,
1.0,1.0,1.069,,,,,,omelet_07s.jpg,1.0,clock_6_5.png,5.0,61,,,,,,,,,,,,,,,,,,0.0,27.0,27.0,27.0,1.0,,,,,,,,,,
0.0,1.0,0.733,,,,,,beaker_01b.jpg,0.0,clock_6_6.png,5.0,61,,,,,,,,,,,,,,,,,,0.0,28.0,28.0,28.0,1.0,,,,,,,,,,
0.0,1.0,0.956,,,,,,ginger_09s.jpg,0.0,clock_7_1.png,6.0,61,,,,,,,,,,,,,,,,,,0.0,29.0,29.0,29.0,1.0,,,,,,,,,,
0.0,1.0,0.837,,,,,,kilt_18s.jpg,0.0,clock_7_2.png,6.0,61,,,,,,,,,,,,,,,,,,0.0,30.0,30.0,30.0,1.0,,,,,,,,,,
1.0,1.0,1.067,,,,,,ginger_09s.jpg,1.0,clock_7_3.png,6.0,61,,,,,,,,,,,,,,,,,,0.0,31.0,31.0,31.0,1.0,,,,,,,,,,
1.0,1.0,1.017,,,,,,ginger_09s.jpg,1.0,clock_7_4.png,6.0,61,,,,,,,,,,,,,,,,,,0.0,32.0,32.0,32.0,1.0,,,,,,,,,,
0.0,0.0,0.822,,,,,,kilt_18s.jpg,1.0,clock_7_5.png,6.0,61,,,,,,,,,,,,,,,,,,0.0,33.0,33.0,33.0,1.0,,,,,,,,,,
0.0,1.0,1.199,,,,,,raccoon_02s.jpg,0.0,clock_7_6.png,6.0,61,,,,,,,,,,,,,,,,,,0.0,34.0,34.0,34.0,1.0,,,,,,,,,,
0.0,1.0,0.816,,,,,,mixer_12s.jpg,0.0,clock_7_7.png,6.0,61,,,,,,,,,,,,,,,,,,0.0,35.0,35.0,35.0,1.0,,,,,,,,,,
,,,,,,,,,1.0,,,61,1.0,1.0,11.547,,,,,,piano_13n.jpg,gong_02s.jpg,,,,,,,,,,,,,0.0,0.0,0.0,0.0,1.0,,,,,
,,,,,,,,,1.0,,,61,1.0,1.0,5.55,,,,,,tie_03s.jpg,denture_03s.jpg,,,,,,,,,,,,,0.0,1.0,1.0,1.0,1.0,,,,,
,,,,,,,,,1.0,,,61,0.0,0.0,5.158,,,,,,margarita_03s.jpg,lavender_10s.jpg,,,,,,,,,,,,,0.0,2.0,2.0,2.0,1.0,,,,,
,,,,,,,,,1.0,,,61,0.0,0.0,2.967,,,,,,ruby_15s.jpg,peanut_butter_08s.jpg,,,,,,,,,,,,,0.0,3.0,3.0,3.0,1.0,,,,,
,,,,,,,,,1.0,,,61,0.0,0.0,8.165,,,,,,pocket_watch_16s.jpg,emerald_02s.jpg,,,,,,,,,,,,,0.0,4.0,4.0,4.0,1.0,,,,,
,,,,,,,,,1.0,,,61,1.0,1.0,1.687,,,,,,knitting_needle_04s.jpg,beaker_01b.jpg,,,,,,,,,,,,,0.0,5.0,5.0,5.0,1.0,,,,,
,,,,,,,,,,,,61,,,,,,,,,,,,,,,,clock_present_1_17.xlsx,clock_compare_task_1_17.xlsx,,,,,,,,,,,0.0,0.0,0.0,0.0,1.0
0.0,1.0,0.812,,,,,,polar_bear_02s.jpg,0.0,clock_6_1.png,1.0,61,,,,,,,,,,,,,,,,,,0.0,0.0,0.0,0.0,1.0,,,,,,,,,,
0.0,1.0,0.719,,,,,,radiator_05s.jpg,0.0,clock_6_2.png,1.0,61,,,,,,,,,,,,,,,,,,0.0,1.0,1.0,1.0,1.0,,,,,,,,,,
0.0,1.0,0.834,,,,,,target_11s.jpg,0.0,clock_6_3.png,1.0,61,,,,,,,,,,,,,,,,,,0.0,2.0,2.0,2.0,1.0,,,,,,,,,,
1.0,1.0,0.984,,,,,,polar_bear_02s.jpg,1.0,clock_6_4.png,1.0,61,,,,,,,,,,,,,,,,,,0.0,3.0,3.0,3.0,1.0,,,,,,,,,,
0.0,1.0,0.735,,,,,,sundae_08s.jpg,0.0,clock_6_5.png,1.0,61,,,,,,,,,,,,,,,,,,0.0,4.0,4.0,4.0,1.0,,,,,,,,,,
1.0,1.0,1.056,,,,,,polar_bear_02s.jpg,1.0,clock_6_6.png,1.0,61,,,,,,,,,,,,,,,,,,0.0,5.0,5.0,5.0,1.0,,,,,,,,,,
0.0,1.0,0.704,,,,,,flask_04s.jpg,0.0,clock_7_1.png,2.0,61,,,,,,,,,,,,,,,,,,0.0,6.0,6.0,6.0,1.0,,,,,,,,,,
1.0,1.0,0.856,,,,,,flask_04s.jpg,1.0,clock_7_2.png,2.0,61,,,,,,,,,,,,,,,,,,0.0,7.0,7.0,7.0,1.0,,,,,,,,,,
0.0,1.0,1.317,,,,,,rake_06s.jpg,0.0,clock_7_3.png,2.0,61,,,,,,,,,,,,,,,,,,0.0,8.0,8.0,8.0,1.0,,,,,,,,,,
1.0,1.0,0.985,,,,,,flask_04s.jpg,1.0,clock_7_4.png,2.0,61,,,,,,,,,,,,,,,,,,0.0,9.0,9.0,9.0,1.0,,,,,,,,,,
0.0,1.0,1.067,,,,,,cap_05s.jpg,0.0,clock_7_5.png,2.0,61,,,,,,,,,,,,,,,,,,0.0,10.0,10.0,10.0,1.0,,,,,,,,,,
1.0,1.0,1.424,,,,,,rake_06s.jpg,1.0,clock_7_6.png,2.0,61,,,,,,,,,,,,,,,,,,0.0,11.0,11.0,11.0,1.0,,,,,,,,,,
0.0,1.0,1.101,,,,,,marshmallow_08s.jpg,0.0,clock_7_7.png,2.0,61,,,,,,,,,,,,,,,,,,0.0,12.0,12.0,12.0,1.0,,,,,,,,,,
0.0,1.0,1.186,,,,,,padlock_07s.jpg,0.0,clock_5_1.png,3.0,61,,,,,,,,,,,,,,,,,,0.0,13.0,13.0,13.0,1.0,,,,,,,,,,
0.0,1.0,1.366,,,,,,rake_06s.jpg,0.0,clock_5_2.png,3.0,61,,,,,,,,,,,,,,,,,,0.0,14.0,14.0,14.0,1.0,,,,,,,,,,
0.0,1.0,0.834,,,,,,hydrant_10s.jpg,0.0,clock_5_3.png,3.0,61,,,,,,,,,,,,,,,,,,0.0,15.0,15.0,15.0,1.0,,,,,,,,,,
0.0,1.0,0.786,,,,,,petri_dish_12s.jpg,0.0,clock_5_4.png,3.0,61,,,,,,,,,,,,,,,,,,0.0,16.0,16.0,16.0,1.0,,,,,,,,,,
0.0,1.0,0.954,,,,,,soda_fountain_03s.jpg,0.0,clock_5_5.png,3.0,61,,,,,,,,,,,,,,,,,,0.0,17.0,17.0,17.0,1.0,,,,,,,,,,
0.0,1.0,0.85,,,,,,boar_10s.jpg,0.0,clock_6_1.png,4.0,61,,,,,,,,,,,,,,,,,,0.0,18.0,18.0,18.0,1.0,,,,,,,,,,
0.0,1.0,0.951,,,,,,rocket_02s.jpg,0.0,clock_6_2.png,4.0,61,,,,,,,,,,,,,,,,,,0.0,19.0,19.0,19.0,1.0,,,,,,,,,,
0.0,1.0,0.97,,,,,,knot_01b.jpg,0.0,clock_6_3.png,4.0,61,,,,,,,,,,,,,,,,,,0.0,20.0,20.0,20.0,1.0,,,,,,,,,,
0.0,1.0,0.835,,,,,,tab_09s.jpg,0.0,clock_6_4.png,4.0,61,,,,,,,,,,,,,,,,,,0.0,21.0,21.0,21.0,1.0,,,,,,,,,,
0.0,1.0,0.955,,,,,,lipstick_02s.jpg,0.0,clock_6_5.png,4.0,61,,,,,,,,,,,,,,,,,,0.0,22.0,22.0,22.0,1.0,,,,,,,,,,
0.0,1.0,0.803,,,,,,jersey_02s.jpg,0.0,clock_6_6.png,4.0,61,,,,,,,,,,,,,,,,,,0.0,23.0,23.0,23.0,1.0,,,,,,,,,,
0.0,1.0,0.883,,,,,,ostrich_06s.jpg,0.0,clock_5_1.png,5.0,61,,,,,,,,,,,,,,,,,,0.0,24.0,24.0,24.0,1.0,,,,,,,,,,
0.0,1.0,0.668,,,,,,jukebox_03n.jpg,0.0,clock_5_2.png,5.0,61,,,,,,,,,,,,,,,,,,0.0,25.0,25.0,25.0,1.0,,,,,,,,,,
0.0,1.0,0.676,,,,,,umbrella_15s.jpg,0.0,clock_5_3.png,5.0,61,,,,,,,,,,,,,,,,,,0.0,26.0,26.0,26.0,1.0,,,,,,,,,,
0.0,1.0,0.804,,,,,,machine_gun_09s.jpg,0.0,clock_5_4.png,5.0,61,,,,,,,,,,,,,,,,,,0.0,27.0,27.0,27.0,1.0,,,,,,,,,,
0.0,1.0,1.051,,,,,,inhaler_01b.jpg,0.0,clock_5_5.png,5.0,61,,,,,,,,,,,,,,,,,,0.0,28.0,28.0,28.0,1.0,,,,,,,,,,
0.0,1.0,1.066,,,,,,screwdriver02a.jpg,0.0,clock_7_1.png,6.0,61,,,,,,,,,,,,,,,,,,0.0,29.0,29.0,29.0,1.0,,,,,,,,,,
0.0,1.0,0.636,,,,,,thread_08s.jpg,0.0,clock_7_2.png,6.0,61,,,,,,,,,,,,,,,,,,0.0,30.0,30.0,30.0,1.0,,,,,,,,,,
0.0,1.0,0.685,,,,,,ironing_board_07s.jpg,0.0,clock_7_3.png,6.0,61,,,,,,,,,,,,,,,,,,0.0,31.0,31.0,31.0,1.0,,,,,,,,,,
0.0,1.0,0.75,,,,,,lip_gloss_06s.jpg,0.0,clock_7_4.png,6.0,61,,,,,,,,,,,,,,,,,,0.0,32.0,32.0,32.0,1.0,,,,,,,,,,
0.0,1.0,0.702,,,,,,espresso_01b.jpg,0.0,clock_7_5.png,6.0,61,,,,,,,,,,,,,,,,,,0.0,33.0,33.0,33.0,1.0,,,,,,,,,,
0.0,1.0,0.866,,,,,,checkbook_11s.jpg,0.0,clock_7_6.png,6.0,61,,,,,,,,,,,,,,,,,,0.0,34.0,34.0,34.0,1.0,,,,,,,,,,
0.0,1.0,0.733,,,,,,rollerskate_03s.jpg,0.0,clock_7_7.png,6.0,61,,,,,,,,,,,,,,,,,,0.0,35.0,35.0,35.0,1.0,,,,,,,,,,
,,,,,,,,,0.0,,,61,0.0,1.0,5.316,,,,,,hydrant_10s.jpg,marshmallow_08s.jpg,,,,,,,,,,,,,0.0,0.0,0.0,0.0,1.0,,,,,
,,,,,,,,,1.0,,,61,0.0,0.0,10.542,,,,,,cap_05s.jpg,padlock_07s.jpg,,,,,,,,,,,,,0.0,1.0,1.0,1.0,1.0,,,,,
,,,,,,,,,0.0,,,61,0.0,1.0,2.399,,,,,,knot_01b.jpg,soda_fountain_03s.jpg,,,,,,,,,,,,,0.0,2.0,2.0,2.0,1.0,,,,,
,,,,,,,,,0.0,,,61,0.0,1.0,4.882,,,,,,sundae_08s.jpg,radiator_05s.jpg,,,,,,,,,,,,,0.0,3.0,3.0,3.0,1.0,,,,,
,,,,,,,,,0.0,,,61,0.0,1.0,3.393,,,,,,rollerskate_03s.jpg,lip_gloss_06s.jpg,,,,,,,,,,,,,0.0,4.0,4.0,4.0,1.0,,,,,
,,,,,,,,,0.0,,,61,1.0,0.0,1.894,,,,,,espresso_01b.jpg,thread_08s.jpg,,,,,,,,,,,,,0.0,5.0,5.0,5.0,1.0,,,,,
,,,,,,,,,,,,61,,,,,,,,,,,,,,,,clock_present_2_17.xlsx,clock_compare_task_2_17.xlsx,,,,,,,,,,,0.0,1.0,1.0,1.0,1.0
0.0,1.0,1.45,,,,,,tripod_01b.jpg,0.0,clock_6_1.png,1.0,61,,,,,,,,,,,,,,,,,,0.0,0.0,0.0,0.0,1.0,,,,,,,,,,
0.0,1.0,0.733,,,,,,doily_13s.jpg,0.0,clock_6_2.png,1.0,61,,,,,,,,,,,,,,,,,,0.0,1.0,1.0,1.0,1.0,,,,,,,,,,
0.0,1.0,0.699,,,,,,sushi_08s.jpg,0.0,clock_6_3.png,1.0,61,,,,,,,,,,,,,,,,,,0.0,2.0,2.0,2.0,1.0,,,,,,,,,,
0.0,1.0,0.634,,,,,,bubble_01b.jpg,0.0,clock_6_4.png,1.0,61,,,,,,,,,,,,,,,,,,0.0,3.0,3.0,3.0,1.0,,,,,,,,,,
0.0,1.0,0.658,,,,,,swordfish_05s.jpg,0.0,clock_6_5.png,1.0,61,,,,,,,,,,,,,,,,,,0.0,4.0,4.0,4.0,1.0,,,,,,,,,,
0.0,1.0,0.771,,,,,,keyboard_05s.jpg,0.0,clock_6_6.png,1.0,61,,,,,,,,,,,,,,,,,,0.0,5.0,5.0,5.0,1.0,,,,,,,,,,
0.0,1.0,0.722,,,,,,perfume_06s.jpg,0.0,clock_7_1.png,2.0,61,,,,,,,,,,,,,,,,,,0.0,6.0,6.0,6.0,1.0,,,,,,,,,,
0.0,1.0,0.6,,,,,,mango_09s.jpg,0.0,clock_7_2.png,2.0,61,,,,,,,,,,,,,,,,,,0.0,7.0,7.0,7.0,1.0,,,,,,,,,,
0.0,1.0,0.555,,,,,,tube_top_03s.jpg,0.0,clock_7_3.png,2.0,61,,,,,,,,,,,,,,,,,,0.0,8.0,8.0,8.0,1.0,,,,,,,,,,
0.0,1.0,0.692,,,,,,birdcage_08s.jpg,0.0,clock_7_4.png,2.0,61,,,,,,,,,,,,,,,,,,0.0,9.0,9.0,9.0,1.0,,,,,,,,,,
0.0,1.0,0.866,,,,,,typewriter_11s.jpg,0.0,clock_7_5.png,2.0,61,,,,,,,,,,,,,,,,,,0.0,10.0,10.0,10.0,1.0,,,,,,,,,,
0.0,1.0,0.708,,,,,,rug_09s.jpg,0.0,clock_7_6.png,2.0,61,,,,,,,,,,,,,,,,,,0.0,11.0,11.0,11.0,1.0,,,,,,,,,,
0.0,1.0,1.233,,,,,,sushi_08s.jpg,0.0,clock_7_7.png,2.0,61,,,,,,,,,,,,,,,,,,0.0,12.0,12.0,12.0,1.0,,,,,,,,,,
0.0,1.0,0.772,,,,,,puffin_19s.jpg,0.0,clock_6_1.png,3.0,61,,,,,,,,,,,,,,,,,,0.0,13.0,13.0,13.0,1.0,,,,,,,,,,
0.0,1.0,0.733,,,,,,orange_12s.jpg,0.0,clock_6_2.png,3.0,61,,,,,,,,,,,,,,,,,,0.0,14.0,14.0,14.0,1.0,,,,,,,,,,
0.0,1.0,0.668,,,,,,iron_13s.jpg,0.0,clock_6_3.png,3.0,61,,,,,,,,,,,,,,,,,,0.0,15.0,15.0,15.0,1.0,,,,,,,,,,
1.0,1.0,1.021,,,,,,puffin_19s.jpg,1.0,clock_6_4.png,3.0,61,,,,,,,,,,,,,,,,,,0.0,16.0,16.0,16.0,1.0,,,,,,,,,,
0.0,1.0,1.318,,,,,,punch1_10s.jpg,0.0,clock_6_5.png,3.0,61,,,,,,,,,,,,,,,,,,0.0,17.0,17.0,17.0,1.0,,,,,,,,,,
0.0,1.0,1.221,,,,,,penlight_12s.jpg,0.0,clock_6_6.png,3.0,61,,,,,,,,,,,,,,,,,,0.0,18.0,18.0,18.0,1.0,,,,,,,,,,
0.0,1.0,0.9,,,,,,crossbow_10s.jpg,0.0,clock_5_1.png,4.0,61,,,,,,,,,,,,,,,,,,0.0,19.0,19.0,19.0,1.0,,,,,,,,,,
0.0,1.0,0.623,,,,,,diving_board_07s.jpg,0.0,clock_5_2.png,4.0,61,,,,,,,,,,,,,,,,,,0.0,20.0,20.0,20.0,1.0,,,,,,,,,,
1.0,1.0,1.467,,,,,,diving_board_07s.jpg,1.0,clock_5_3.png,4.0,61,,,,,,,,,,,,,,,,,,0.0,21.0,21.0,21.0,1.0,,,,,,,,,,
0.0,1.0,0.684,,,,,,eyedropper_12s.jpg,0.0,clock_5_4.png,4.0,61,,,,,,,,,,,,,,,,,,0.0,22.0,22.0,22.0,1.0,,,,,,,,,,
0.0,1.0,0.775,,,,,,reindeer_08s.jpg,0.0,clock_5_5.png,4.0,61,,,,,,,,,,,,,,,,,,0.0,23.0,23.0,23.0,1.0,,,,,,,,,,
0.0,1.0,1.118,,,,,,stapler_01b.jpg,0.0,clock_7_1.png,5.0,61,,,,,,,,,,,,,,,,,,0.0,24.0,24.0,24.0,1.0,,,,,,,,,,
1.0,1.0,0.808,,,,,,stapler_01b.jpg,1.0,clock_7_2.png,5.0,61,,,,,,,,,,,,,,,,,,0.0,25.0,25.0,25.0,1.0,,,,,,,,,,
1.0,1.0,0.768,,,,,,stapler_01b.jpg,1.0,clock_7_3.png,5.0,61,,,,,,,,,,,,,,,,,,0.0,26.0,26.0,26.0,1.0,,,,,,,,,,
0.0,1.0,0.784,,,,,,fountain_pen_06s.jpg,0.0,clock_7_4.png,5.0,61,,,,,,,,,,,,,,,,,,0.0,27.0,27.0,27.0,1.0,,,,,,,,,,
0.0,1.0,1.375,,,,,,toaster_03s.jpg,0.0,clock_7_5.png,5.0,61,,,,,,,,,,,,,,,,,,0.0,28.0,28.0,28.0,1.0,,,,,,,,,,
0.0,1.0,1.251,,,,,,sushi_08s.jpg,0.0,clock_7_6.png,5.0,61,,,,,,,,,,,,,,,,,,0.0,29.0,29.0,29.0,1.0,,,,,,,,,,
0.0,1.0,0.968,,,,,,chocolate_01b.jpg,0.0,clock_7_7.png,5.0,61,,,,,,,,,,,,,,,,,,0.0,30.0,30.0,30.0,1.0,,,,,,,,,,
0.0,1.0,1.04,,,,,,microwave_02s.jpg,0.0,clock_5_1.png,6.0,61,,,,,,,,,,,,,,,,,,0.0,31.0,31.0,31.0,1.0,,,,,,,,,,
0.0,1.0,0.684,,,,,,champagne_18s.jpg,0.0,clock_5_2.png,6.0,61,,,,,,,,,,,,,,,,,,0.0,32.0,32.0,32.0,1.0,,,,,,,,,,
0.0,1.0,0.64,,,,,,phone_01b.jpg,0.0,clock_5_3.png,6.0,61,,,,,,,,,,,,,,,,,,0.0,33.0,33.0,33.0,1.0,,,,,,,,,,
1.0,1.0,1.122,,,,,,phone_01b.jpg,1.0,clock_5_4.png,6.0,61,,,,,,,,,,,,,,,,,,0.0,34.0,34.0,34.0,1.0,,,,,,,,,,
0.0,1.0,0.884,,,,,,perfume_06s.jpg,0.0,clock_5_5.png,6.0,61,,,,,,,,,,,,,,,,,,0.0,35.0,35.0,35.0,1.0,,,,,,,,,,
,,,,,,,,,0.0,,,61,1.0,0.0,4.411,,,,,,microwave_02s.jpg,toaster_03s.jpg,,,,,,,,,,,,,0.0,0.0,0.0,0.0,1.0,,,,,
,,,,,,,,,1.0,,,61,1.0,1.0,5.132,,,,,,keyboard_05s.jpg,tube_top_03s.jpg,,,,,,,,,,,,,0.0,1.0,1.0,1.0,1.0,,,,,
,,,,,,,,,0.0,,,61,1.0,0.0,2.517,,,,,,mango_09s.jpg,swordfish_05s.jpg,,,,,,,,,,,,,0.0,2.0,2.0,2.0,1.0,,,,,
,,,,,,,,,1.0,,,61,1.0,1.0,3.789,,,,,,tripod_01b.jpg,bubble_01b.jpg,,,,,,,,,,,,,0.0,3.0,3.0,3.0,1.0,,,,,
,,,,,,,,,1.0,,,61,1.0,1.0,2.706,,,,,,iron_13s.jpg,penlight_12s.jpg,,,,,,,,,,,,,0.0,4.0,4.0,4.0,1.0,,,,,
,,,,,,,,,0.0,,,61,0.0,1.0,3.608,,,,,,eyedropper_12s.jpg,crossbow_10s.jpg,,,,,,,,,,,,,0.0,5.0,5.0,5.0,1.0,,,,,
,,,,,,,,,,,,61,,,,,,,,,,,,,,,,clock_present_3_17.xlsx,clock_compare_task_3_17.xlsx,,,,,,,,,,,0.0,2.0,2.0,2.0,1.0
0.0,1.0,0.862,,,,,,aluminum_foil_08s.jpg,0.0,clock_5_1.png,1.0,61,,,,,,,,,,,,,,,,,,0.0,0.0,0.0,0.0,1.0,,,,,,,,,,
0.0,1.0,0.756,,,,,,kimono_13s.jpg,0.0,clock_5_2.png,1.0,61,,,,,,,,,,,,,,,,,,0.0,1.0,1.0,1.0,1.0,,,,,,,,,,
0.0,0.0,1.867,,,,,,aluminum_foil_08s.jpg,1.0,clock_5_3.png,1.0,61,,,,,,,,,,,,,,,,,,0.0,2.0,2.0,2.0,1.0,,,,,,,,,,
0.0,1.0,1.383,,,,,,air_pump_05s.jpg,0.0,clock_5_4.png,1.0,61,,,,,,,,,,,,,,,,,,0.0,3.0,3.0,3.0,1.0,,,,,,,,,,
0.0,1.0,1.222,,,,,,submarine_11n.jpg,0.0,clock_5_5.png,1.0,61,,,,,,,,,,,,,,,,,,0.0,4.0,4.0,4.0,1.0,,,,,,,,,,
0.0,1.0,0.713,,,,,,totem_pole_05s.jpg,0.0,clock_5_1.png,2.0,61,,,,,,,,,,,,,,,,,,0.0,5.0,5.0,5.0,1.0,,,,,,,,,,
0.0,1.0,0.683,,,,,,mattress_01s.jpg,0.0,clock_5_2.png,2.0,61,,,,,,,,,,,,,,,,,,0.0,6.0,6.0,6.0,1.0,,,,,,,,,,
1.0,1.0,1.034,,,,,,totem_pole_05s.jpg,1.0,clock_5_3.png,2.0,61,,,,,,,,,,,,,,,,,,0.0,7.0,7.0,7.0,1.0,,,,,,,,,,
0.0,1.0,0.87,,,,,,stump_02s.jpg,0.0,clock_5_4.png,2.0,61,,,,,,,,,,,,,,,,,,0.0,8.0,8.0,8.0,1.0,,,,,,,,,,
1.0,1.0,1.085,,,,,,mattress_01s.jpg,1.0,clock_5_5.png,2.0,61,,,,,,,,,,,,,,,,,,0.0,9.0,9.0,9.0,1.0,,,,,,,,,,
0.0,1.0,1.066,,,,,,pantyhose_07s.jpg,0.0,clock_7_1.png,3.0,61,,,,,,,,,,,,,,,,,,0.0,10.0,10.0,10.0,1.0,,,,,,,,,,
0.0,1.0,1.176,,,,,,olive_05s.jpg,0.0,clock_7_2.png,3.0,61,,,,,,,,,,,,,,,,,,0.0,11.0,11.0,11.0,1.0,,,,,,,,,,
0.0,1.0,1.054,,,,,,ukulele_02s.jpg,0.0,clock_7_3.png,3.0,61,,,,,,,,,,,,,,,,,,0.0,12.0,12.0,12.0,1.0,,,,,,,,,,
0.0,1.0,1.701,,,,,,dashboard_02s.jpg,0.0,clock_7_4.png,3.0,61,,,,,,,,,,,,,,,,,,0.0,13.0,13.0,13.0,1.0,,,,,,,,,,
0.0,1.0,1.567,,,,,,toy_04s.jpg,0.0,clock_7_5.png,3.0,61,,,,,,,,,,,,,,,,,,0.0,14.0,14.0,14.0,1.0,,,,,,,,,,
1.0,1.0,0.967,,,,,,ukulele_02s.jpg,1.0,clock_7_6.png,3.0,61,,,,,,,,,,,,,,,,,,0.0,15.0,15.0,15.0,1.0,,,,,,,,,,
0.0,1.0,1.033,,,,,,squirrel_02s.jpg,0.0,clock_7_7.png,3.0,61,,,,,,,,,,,,,,,,,,0.0,16.0,16.0,16.0,1.0,,,,,,,,,,
0.0,1.0,0.733,,,,,,tweezers_03s.jpg,0.0,clock_6_1.png,4.0,61,,,,,,,,,,,,,,,,,,0.0,17.0,17.0,17.0,1.0,,,,,,,,,,
0.0,1.0,0.656,,,,,,lantern_04s.jpg,0.0,clock_6_2.png,4.0,61,,,,,,,,,,,,,,,,,,0.0,18.0,18.0,18.0,1.0,,,,,,,,,,
0.0,1.0,0.916,,,,,,lab_coat_11s.jpg,0.0,clock_6_3.png,4.0,61,,,,,,,,,,,,,,,,,,0.0,19.0,19.0,19.0,1.0,,,,,,,,,,
0.0,1.0,0.833,,,,,,bank_06s.jpg,0.0,clock_6_4.png,4.0,61,,,,,,,,,,,,,,,,,,0.0,20.0,20.0,20.0,1.0,,,,,,,,,,
1.0,1.0,1.115,,,,,,bank_06s.jpg,1.0,clock_6_5.png,4.0,61,,,,,,,,,,,,,,,,,,0.0,21.0,21.0,21.0,1.0,,,,,,,,,,
0.0,1.0,0.809,,,,,,medal_04s.jpg,0.0,clock_6_6.png,4.0,61,,,,,,,,,,,,,,,,,,0.0,22.0,22.0,22.0,1.0,,,,,,,,,,
0.0,1.0,0.783,,,,,,prism_10s.jpg,0.0,clock_6_1.png,5.0,61,,,,,,,,,,,,,,,,,,0.0,23.0,23.0,23.0,1.0,,,,,,,,,,
0.0,1.0,0.643,,,,,,rock_08s.jpg,0.0,clock_6_2.png,5.0,61,,,,,,,,,,,,,,,,,,0.0,24.0,24.0,24.0,1.0,,,,,,,,,,
1.0,1.0,0.933,,,,,,rock_08s.jpg,1.0,clock_6_3.png,5.0,61,,,,,,,,,,,,,,,,,,0.0,25.0,25.0,25.0,1.0,,,,,,,,,,
1.0,1.0,1.2,,,,,,prism_10s.jpg,1.0,clock_6_4.png,5.0,61,,,,,,,,,,,,,,,,,,0.0,26.0,26.0,26.0,1.0,,,,,,,,,,
0.0,1.0,1.219,,,,,,aluminum_foil_08s.jpg,0.0,clock_6_5.png,5.0,61,,,,,,,,,,,,,,,,,,0.0,27.0,27.0,27.0,1.0,,,,,,,,,,
0.0,1.0,1.019,,,,,,coconut_08s.jpg,0.0,clock_6_6.png,5.0,61,,,,,,,,,,,,,,,,,,0.0,28.0,28.0,28.0,1.0,,,,,,,,,,
0.0,1.0,0.816,,,,,,mousetrap_15n.jpg,0.0,clock_7_1.png,6.0,61,,,,,,,,,,,,,,,,,,0.0,29.0,29.0,29.0,1.0,,,,,,,,,,
0.0,1.0,0.683,,,,,,pinwheel_06s.jpg,0.0,clock_7_2.png,6.0,61,,,,,,,,,,,,,,,,,,0.0,30.0,30.0,30.0,1.0,,,,,,,,,,
0.0,1.0,0.817,,,,,,compass_10n.jpg,0.0,clock_7_3.png,6.0,61,,,,,,,,,,,,,,,,,,0.0,31.0,31.0,31.0,1.0,,,,,,,,,,
0.0,1.0,0.818,,,,,,fireworks_18s.jpg,0.0,clock_7_4.png,6.0,61,,,,,,,,,,,,,,,,,,0.0,32.0,32.0,32.0,1.0,,,,,,,,,,
0.0,1.0,0.765,,,,,,muffin_12n.jpg,0.0,clock_7_5.png,6.0,61,,,,,,,,,,,,,,,,,,0.0,33.0,33.0,33.0,1.0,,,,,,,,,,
1.0,1.0,1.05,,,,,,compass_10n.jpg,1.0,clock_7_6.png,6.0,61,,,,,,,,,,,,,,,,,,0.0,34.0,34.0,34.0,1.0,,,,,,,,,,
0.0,1.0,1.156,,,,,,totem_pole_05s.jpg,0.0,clock_7_7.png,6.0,61,,,,,,,,,,,,,,,,,,0.0,35.0,35.0,35.0,1.0,,,,,,,,,,
,,,,,,,,,1.0,,,61,1.0,1.0,12.697,,,,,,stump_02s.jpg,olive_05s.jpg,,,,,,,,,,,,,0.0,0.0,0.0,0.0,1.0,,,,,
,,,,,,,,,0.0,,,61,0.0,1.0,4.133,,,,,,tweezers_03s.jpg,toy_04s.jpg,,,,,,,,,,,,,0.0,1.0,1.0,1.0,1.0,,,,,
,,,,,,,,,0.0,,,61,1.0,0.0,5.932,,,,,,lab_coat_11s.jpg,squirrel_02s.jpg,,,,,,,,,,,,,0.0,2.0,2.0,2.0,1.0,,,,,
,,,,,,,,,1.0,,,61,1.0,1.0,4.349,,,,,,kimono_13s.jpg,submarine_11n.jpg,,,,,,,,,,,,,0.0,3.0,3.0,3.0,1.0,,,,,
,,,,,,,,,1.0,,,61,0.0,0.0,3.515,,,,,,pantyhose_07s.jpg,dashboard_02s.jpg,,,,,,,,,,,,,0.0,4.0,4.0,4.0,1.0,,,,,
,,,,,,,,,0.0,,,61,0.0,1.0,2.018,,,,,,fireworks_18s.jpg,mousetrap_15n.jpg,,,,,,,,,,,,,0.0,5.0,5.0,5.0,1.0,,,,,
,,,,,,,,,,,,61,,,,,,,,,,,,,,,,clock_present_4_17.xlsx,clock_compare_task_4_17.xlsx,,,,,,,,,,,0.0,3.0,3.0,3.0,1.0
0.0,1.0,0.615,,,,,,timer_03s.jpg,0.0,clock_6_1.png,1.0,61,,,,,,,,,,,,,,,,,,0.0,0.0,0.0,0.0,1.0,,,,,,,,,,
0.0,1.0,0.693,,,,,,cobra_05s.jpg,0.0,clock_6_2.png,1.0,61,,,,,,,,,,,,,,,,,,0.0,1.0,1.0,1.0,1.0,,,,,,,,,,
0.0,1.0,0.85,,,,,,lizard_10n.jpg,0.0,clock_6_3.png,1.0,61,,,,,,,,,,,,,,,,,,0.0,2.0,2.0,2.0,1.0,,,,,,,,,,
1.0,1.0,1.204,,,,,,cobra_05s.jpg,1.0,clock_6_4.png,1.0,61,,,,,,,,,,,,,,,,,,0.0,3.0,3.0,3.0,1.0,,,,,,,,,,
0.0,1.0,0.883,,,,,,teabag_12s.jpg,0.0,clock_6_5.png,1.0,61,,,,,,,,,,,,,,,,,,0.0,4.0,4.0,4.0,1.0,,,,,,,,,,
1.0,1.0,1.326,,,,,,timer_03s.jpg,1.0,clock_6_6.png,1.0,61,,,,,,,,,,,,,,,,,,0.0,5.0,5.0,5.0,1.0,,,,,,,,,,
0.0,1.0,0.67,,,,,,tile_08s.jpg,0.0,clock_6_1.png,2.0,61,,,,,,,,,,,,,,,,,,0.0,6.0,6.0,6.0,1.0,,,,,,,,,,
0.0,1.0,0.65,,,,,,undershirt_02s.jpg,0.0,clock_6_2.png,2.0,61,,,,,,,,,,,,,,,,,,0.0,7.0,7.0,7.0,1.0,,,,,,,,,,
0.0,1.0,0.766,,,,,,surfboard_11s.jpg,0.0,clock_6_3.png,2.0,61,,,,,,,,,,,,,,,,,,0.0,8.0,8.0,8.0,1.0,,,,,,,,,,
0.0,1.0,0.817,,,,,,chime_12s.jpg,0.0,clock_6_4.png,2.0,61,,,,,,,,,,,,,,,,,,0.0,9.0,9.0,9.0,1.0,,,,,,,,,,
1.0,1.0,1.238,,,,,,surfboard_11s.jpg,1.0,clock_6_5.png,2.0,61,,,,,,,,,,,,,,,,,,0.0,10.0,10.0,10.0,1.0,,,,,,,,,,
0.0,1.0,0.759,,,,,,crab_16s.jpg,0.0,clock_6_6.png,2.0,61,,,,,,,,,,,,,,,,,,0.0,11.0,11.0,11.0,1.0,,,,,,,,,,
0.0,1.0,0.783,,,,,,frog_09s.jpg,0.0,clock_5_1.png,3.0,61,,,,,,,,,,,,,,,,,,0.0,12.0,12.0,12.0,1.0,,,,,,,,,,
0.0,1.0,0.886,,,,,,squirt_gun_03s.jpg,0.0,clock_5_2.png,3.0,61,,,,,,,,,,,,,,,,,,0.0,13.0,13.0,13.0,1.0,,,,,,,,,,
0.0,1.0,1.27,,,,,,undershirt_02s.jpg,0.0,clock_5_3.png,3.0,61,,,,,,,,,,,,,,,,,,0.0,14.0,14.0,14.0,1.0,,,,,,,,,,
0.0,1.0,0.79,,,,,,razor_blade_01b.jpg,0.0,clock_5_4.png,3.0,61,,,,,,,,,,,,,,,,,,0.0,15.0,15.0,15.0,1.0,,,,,,,,,,
0.0,1.0,0.992,,,,,,teabag_12s.jpg,0.0,clock_5_5.png,3.0,61,,,,,,,,,,,,,,,,,,0.0,16.0,16.0,16.0,1.0,,,,,,,,,,
0.0,1.0,0.64,,,,,,fur_coat_11s.jpg,0.0,clock_7_1.png,4.0,61,,,,,,,,,,,,,,,,,,0.0,17.0,17.0,17.0,1.0,,,,,,,,,,
1.0,1.0,0.992,,,,,,fur_coat_11s.jpg,1.0,clock_7_2.png,4.0,61,,,,,,,,,,,,,,,,,,0.0,18.0,18.0,18.0,1.0,,,,,,,,,,
0.0,1.0,1.351,,,,,,mushroom_10n.jpg,0.0,clock_7_3.png,4.0,61,,,,,,,,,,,,,,,,,,0.0,19.0,19.0,19.0,1.0,,,,,,,,,,
0.0,1.0,0.883,,,,,,snowman_02s.jpg,0.0,clock_7_4.png,4.0,61,,,,,,,,,,,,,,,,,,0.0,20.0,20.0,20.0,1.0,,,,,,,,,,
1.0,1.0,0.784,,,,,,snowman_02s.jpg,1.0,clock_7_5.png,4.0,61,,,,,,,,,,,,,,,,,,0.0,21.0,21.0,21.0,1.0,,,,,,,,,,
0.0,1.0,0.966,,,,,,safety_pin_02s.jpg,0.0,clock_7_6.png,4.0,61,,,,,,,,,,,,,,,,,,0.0,22.0,22.0,22.0,1.0,,,,,,,,,,
0.0,1.0,1.305,,,,,,surfboard_11s.jpg,0.0,clock_7_7.png,4.0,61,,,,,,,,,,,,,,,,,,0.0,23.0,23.0,23.0,1.0,,,,,,,,,,
0.0,1.0,0.721,,,,,,oil_02s.jpg,0.0,clock_7_1.png,5.0,61,,,,,,,,,,,,,,,,,,0.0,24.0,24.0,24.0,1.0,,,,,,,,,,
0.0,1.0,0.785,,,,,,ice-cream_cone_06s.jpg,0.0,clock_7_2.png,5.0,61,,,,,,,,,,,,,,,,,,0.0,25.0,25.0,25.0,1.0,,,,,,,,,,
0.0,1.0,0.737,,,,,,tennis_ball_06s.jpg,0.0,clock_7_3.png,5.0,61,,,,,,,,,,,,,,,,,,0.0,26.0,26.0,26.0,1.0,,,,,,,,,,
0.0,1.0,0.684,,,,,,pencil_sharpener_09n.jpg,0.0,clock_7_4.png,5.0,61,,,,,,,,,,,,,,,,,,0.0,27.0,27.0,27.0,1.0,,,,,,,,,,
0.0,1.0,0.706,,,,,,pumpkin_03s.jpg,0.0,clock_7_5.png,5.0,61,,,,,,,,,,,,,,,,,,0.0,28.0,28.0,28.0,1.0,,,,,,,,,,
0.0,1.0,0.817,,,,,,ring_03s.jpg,0.0,clock_7_6.png,5.0,61,,,,,,,,,,,,,,,,,,0.0,29.0,29.0,29.0,1.0,,,,,,,,,,
0.0,1.0,0.75,,,,,,police_car_01s.jpg,0.0,clock_7_7.png,5.0,61,,,,,,,,,,,,,,,,,,0.0,30.0,30.0,30.0,1.0,,,,,,,,,,
0.0,1.0,0.852,,,,,,bolo_tie_08s.jpg,0.0,clock_5_1.png,6.0,61,,,,,,,,,,,,,,,,,,0.0,31.0,31.0,31.0,1.0,,,,,,,,,,
0.0,1.0,0.749,,,,,,jelly_bean_06s.jpg,0.0,clock_5_2.png,6.0,61,,,,,,,,,,,,,,,,,,0.0,32.0,32.0,32.0,1.0,,,,,,,,,,
0.0,1.0,0.706,,,,,,pencil02a.jpg,0.0,clock_5_3.png,6.0,61,,,,,,,,,,,,,,,,,,0.0,33.0,33.0,33.0,1.0,,,,,,,,,,
0.0,1.0,0.999,,,,,,lizard_10n.jpg,0.0,clock_5_4.png,6.0,61,,,,,,,,,,,,,,,,,,0.0,34.0,34.0,34.0,1.0,,,,,,,,,,
0.0,1.0,0.923,,,,,,pepper2_21s.jpg,0.0,clock_5_5.png,6.0,61,,,,,,,,,,,,,,,,,,0.0,35.0,35.0,35.0,1.0,,,,,,,,,,
,,,,,,,,,0.0,,,61,0.0,1.0,3.32,,,,,,bolo_tie_08s.jpg,pumpkin_03s.jpg,,,,,,,,,,,,,0.0,0.0,0.0,0.0,1.0,,,,,
,,,,,,,,,1.0,,,61,1.0,1.0,8.548,,,,,,police_car_01s.jpg,pencil02a.jpg,,,,,,,,,,,,,0.0,1.0,1.0,1.0,1.0,,,,,
,,,,,,,,,1.0,,,61,1.0,1.0,3.449,,,,,,chime_12s.jpg,frog_09s.jpg,,,,,,,,,,,,,0.0,2.0,2.0,2.0,1.0,,,,,
,,,,,,,,,0.0,,,61,0.0,1.0,2.49,,,,,,pencil_sharpener_09n.jpg,oil_02s.jpg,,,,,,,,,,,,,0.0,3.0,3.0,3.0,1.0,,,,,
,,,,,,,,,0.0,,,61,0.0,1.0,2.808,,,,,,safety_pin_02s.jpg,mushroom_10n.jpg,,,,,,,,,,,,,0.0,4.0,4.0,4.0,1.0,,,,,
,,,,,,,,,0.0,,,61,0.0,1.0,2.066,,,,,,ring_03s.jpg,tennis_ball_06s.jpg,,,,,,,,,,,,,0.0,5.0,5.0,5.0,1.0,,,,,
,,,,,,,,,,,,61,,,,,,,,,,,,,,,,clock_present_5_17.xlsx,clock_compare_task_5_17.xlsx,,,,,,,,,,,0.0,4.0,4.0,4.0,1.0
0.0,1.0,0.788,,,,,,recliner_02s.jpg,0.0,clock_6_1.png,1.0,61,,,,,,,,,,,,,,,,,,0.0,0.0,0.0,0.0,1.0,,,,,,,,,,
0.0,1.0,0.825,,,,,,purse_05s.jpg,0.0,clock_6_2.png,1.0,61,,,,,,,,,,,,,,,,,,0.0,1.0,1.0,1.0,1.0,,,,,,,,,,
0.0,1.0,0.785,,,,,,treasure_08s.jpg,0.0,clock_6_3.png,1.0,61,,,,,,,,,,,,,,,,,,0.0,2.0,2.0,2.0,1.0,,,,,,,,,,
0.0,1.0,0.934,,,,,,tongs_08s.jpg,0.0,clock_6_4.png,1.0,61,,,,,,,,,,,,,,,,,,0.0,3.0,3.0,3.0,1.0,,,,,,,,,,
1.0,1.0,1.167,,,,,,tongs_08s.jpg,1.0,clock_6_5.png,1.0,61,,,,,,,,,,,,,,,,,,0.0,4.0,4.0,4.0,1.0,,,,,,,,,,
0.0,1.0,1.014,,,,,,feather02.jpg,0.0,clock_6_6.png,1.0,61,,,,,,,,,,,,,,,,,,0.0,5.0,5.0,5.0,1.0,,,,,,,,,,
0.0,1.0,1.018,,,,,,pocketknife_12s.jpg,0.0,clock_7_1.png,2.0,61,,,,,,,,,,,,,,,,,,0.0,6.0,6.0,6.0,1.0,,,,,,,,,,
0.0,1.0,0.658,,,,,,bagel_15s.jpg,0.0,clock_7_2.png,2.0,61,,,,,,,,,,,,,,,,,,0.0,7.0,7.0,7.0,1.0,,,,,,,,,,
0.0,1.0,1.075,,,,,,turtleneck_11s.jpg,0.0,clock_7_3.png,2.0,61,,,,,,,,,,,,,,,,,,0.0,8.0,8.0,8.0,1.0,,,,,,,,,,
1.0,1.0,1.017,,,,,,turtleneck_11s.jpg,1.0,clock_7_4.png,2.0,61,,,,,,,,,,,,,,,,,,0.0,9.0,9.0,9.0,1.0,,,,,,,,,,
0.0,1.0,0.965,,,,,,kangaroo_02s.jpg,0.0,clock_7_5.png,2.0,61,,,,,,,,,,,,,,,,,,0.0,10.0,10.0,10.0,1.0,,,,,,,,,,
1.0,1.0,1.107,,,,,,turtleneck_11s.jpg,1.0,clock_7_6.png,2.0,61,,,,,,,,,,,,,,,,,,0.0,11.0,11.0,11.0,1.0,,,,,,,,,,
0.0,1.0,1.383,,,,,,tongs_08s.jpg,0.0,clock_7_7.png,2.0,61,,,,,,,,,,,,,,,,,,0.0,12.0,12.0,12.0,1.0,,,,,,,,,,
0.0,1.0,0.8,,,,,,incense_02s.jpg,0.0,clock_6_1.png,3.0,61,,,,,,,,,,,,,,,,,,0.0,13.0,13.0,13.0,1.0,,,,,,,,,,
0.0,1.0,0.756,,,,,,peeler_06s.jpg,0.0,clock_6_2.png,3.0,61,,,,,,,,,,,,,,,,,,0.0,14.0,14.0,14.0,1.0,,,,,,,,,,
0.0,1.0,0.82,,,,,,lollipop_08s.jpg,0.0,clock_6_3.png,3.0,61,,,,,,,,,,,,,,,,,,0.0,15.0,15.0,15.0,1.0,,,,,,,,,,
0.0,1.0,0.788,,,,,,soccer_ball_12s.jpg,0.0,clock_6_4.png,3.0,61,,,,,,,,,,,,,,,,,,0.0,16.0,16.0,16.0,1.0,,,,,,,,,,
0.0,1.0,0.852,,,,,,parachute_03s.jpg,0.0,clock_6_5.png,3.0,61,,,,,,,,,,,,,,,,,,0.0,17.0,17.0,17.0,1.0,,,,,,,,,,
0.0,1.0,0.917,,,,,,pillbox_04s.jpg,0.0,clock_6_6.png,3.0,61,,,,,,,,,,,,,,,,,,0.0,18.0,18.0,18.0,1.0,,,,,,,,,,
0.0,1.0,0.767,,,,,,solar_panel_02s.jpg,0.0,clock_5_1.png,4.0,61,,,,,,,,,,,,,,,,,,0.0,19.0,19.0,19.0,1.0,,,,,,,,,,
0.0,1.0,0.664,,,,,,pomegranate_04s.jpg,0.0,clock_5_2.png,4.0,61,,,,,,,,,,,,,,,,,,0.0,20.0,20.0,20.0,1.0,,,,,,,,,,
0.0,1.0,0.649,,,,,,kettle_08s.jpg,0.0,clock_5_3.png,4.0,61,,,,,,,,,,,,,,,,,,0.0,21.0,21.0,21.0,1.0,,,,,,,,,,
1.0,1.0,1.086,,,,,,solar_panel_02s.jpg,1.0,clock_5_4.png,4.0,61,,,,,,,,,,,,,,,,,,0.0,22.0,22.0,22.0,1.0,,,,,,,,,,
0.0,1.0,1.15,,,,,,lollipop_08s.jpg,0.0,clock_5_5.png,4.0,61,,,,,,,,,,,,,,,,,,0.0,23.0,23.0,23.0,1.0,,,,,,,,,,
0.0,1.0,0.791,,,,,,hummingbird_05s.jpg,0.0,clock_5_1.png,5.0,61,,,,,,,,,,,,,,,,,,0.0,24.0,24.0,24.0,1.0,,,,,,,,,,
0.0,1.0,0.79,,,,,,quesadilla_07s.jpg,0.0,clock_5_2.png,5.0,61,,,,,,,,,,,,,,,,,,0.0,25.0,25.0,25.0,1.0,,,,,,,,,,
0.0,1.0,0.919,,,,,,jet_15s.jpg,0.0,clock_5_3.png,5.0,61,,,,,,,,,,,,,,,,,,0.0,26.0,26.0,26.0,1.0,,,,,,,,,,
1.0,1.0,1.016,,,,,,quesadilla_07s.jpg,1.0,clock_5_4.png,5.0,61,,,,,,,,,,,,,,,,,,0.0,27.0,27.0,27.0,1.0,,,,,,,,,,
0.0,1.0,0.883,,,,,,soccer_ball_12s.jpg,0.0,clock_5_5.png,5.0,61,,,,,,,,,,,,,,,,,,0.0,28.0,28.0,28.0,1.0,,,,,,,,,,
0.0,1.0,1.72,,,,,,tomato_sauce_09s.jpg,0.0,clock_7_1.png,6.0,61,,,,,,,,,,,,,,,,,,0.0,29.0,29.0,29.0,1.0,,,,,,,,,,
0.0,1.0,0.792,,,,,,tiara_05s.jpg,0.0,clock_7_2.png,6.0,61,,,,,,,,,,,,,,,,,,0.0,30.0,30.0,30.0,1.0,,,,,,,,,,
0.0,1.0,1.0,,,,,,binder_21s.jpg,0.0,clock_7_3.png,6.0,61,,,,,,,,,,,,,,,,,,0.0,31.0,31.0,31.0,1.0,,,,,,,,,,
0.0,1.0,1.152,,,,,,printer_09s.jpg,0.0,clock_7_4.png,6.0,61,,,,,,,,,,,,,,,,,,0.0,32.0,32.0,32.0,1.0,,,,,,,,,,
0.0,1.0,1.087,,,,,,hyena_16s.jpg,0.0,clock_7_5.png,6.0,61,,,,,,,,,,,,,,,,,,0.0,33.0,33.0,33.0,1.0,,,,,,,,,,
0.0,1.0,0.823,,,,,,cushion_08s.jpg,0.0,clock_7_6.png,6.0,61,,,,,,,,,,,,,,,,,,0.0,34.0,34.0,34.0,1.0,,,,,,,,,,
0.0,1.0,0.769,,,,,,towel_rack_04s.jpg,0.0,clock_7_7.png,6.0,61,,,,,,,,,,,,,,,,,,0.0,35.0,35.0,35.0,1.0,,,,,,,,,,
,,,,,,,,,0.0,,,61,0.0,1.0,6.162,,,,,,kettle_08s.jpg,pillbox_04s.jpg,,,,,,,,,,,,,0.0,0.0,0.0,0.0,1.0,,,,,
,,,,,,,,,0.0,,,61,0.0,1.0,8.333,,,,,,incense_02s.jpg,kangaroo_02s.jpg,,,,,,,,,,,,,0.0,1.0,1.0,1.0,1.0,,,,,
,,,,,,,,,0.0,,,61,1.0,0.0,2.44,,,,,,pomegranate_04s.jpg,parachute_03s.jpg,,,,,,,,,,,,,0.0,2.0,2.0,2.0,1.0,,,,,
,,,,,,,,,1.0,,,61,1.0,1.0,1.803,,,,,,treasure_08s.jpg,feather02.jpg,,,,,,,,,,,,,0.0,3.0,3.0,3.0,1.0,,,,,
,,,,,,,,,0.0,,,61,0.0,1.0,3.574,,,,,,hyena_16s.jpg,tiara_05s.jpg,,,,,,,,,,,,,0.0,4.0,4.0,4.0,1.0,,,,,
,,,,,,,,,1.0,,,61,1.0,1.0,3.555,,,,,,binder_21s.jpg,cushion_08s.jpg,,,,,,,,,,,,,0.0,5.0,5.0,5.0,1.0,,,,,
