key_resp.keys,key_resp.corr,key_resp.rt,present_segment.thisRepN,present_segment.thisTrialN,present_segment.thisN,present_segment.thisIndex,present_segment.ran,pictures,answer,clock,segment,participant,key_resp_2.keys,key_resp_2.corr,key_resp_2.rt,compare_segment.thisRepN,compare_segment.thisTrialN,compare_segment.thisN,compare_segment.thisIndex,compare_segment.ran,item_a,item_b,clock_conditions.thisRepN,clock_conditions.thisTrialN,clock_conditions.thisN,clock_conditions.thisIndex,clock_conditions.ran,present,compare,noclock_present.thisRepN,noclock_present.thisTrialN,noclock_present.thisN,noclock_present.thisIndex,noclock_present.ran,noclock_compare.thisRepN,noclock_compare.thisTrialN,noclock_compare.thisN,noclock_compare.thisIndex,noclock_compare.ran,noclock_conditions.thisRepN,noclock_conditions.thisTrialN,noclock_conditions.thisN,noclock_conditions.thisIndex,noclock_conditions.ran
0.0,1.0,1.626365,0.0,0.0,0.0,0.0,1.0,printer_09s.jpg,0.0,clock_6_1.png,1.0,1,,,,,,,,,,,,,,,,,,,,,,,,,,,,,,,,
0.0,1.0,0.833265,0.0,1.0,1.0,1.0,1.0,rope_16s.jpg,0.0,clock_6_2.png,1.0,1,,,,,,,,,,,,,,,,,,,,,,,,,,,,,,,,
0.0,1.0,0.827685,0.0,2.0,2.0,2.0,1.0,lion_18s.jpg,0.0,clock_6_3.png,1.0,1,,,,,,,,,,,,,,,,,,,,,,,,,,,,,,,,
0.0,1.0,0.787155,0.0,3.0,3.0,3.0,1.0,rabbit_03s.jpg,0.0,clock_6_4.png,1.0,1,,,,,,,,,,,,,,,,,,,,,,,,,,,,,,,,
0.0,1.0,0.95655,0.0,4.0,4.0,4.0,1.0,boomerang_06s.jpg,0.0,clock_6_5.png,1.0,1,,,,,,,,,,,,,,,,,,,,,,,,,,,,,,,,
1.0,1.0,1.17891,0.0,5.0,5.0,5.0,1.0,lion_18s.jpg,1.0,clock_6_6.png,1.0,1,,,,,,,,,,,,,,,,,,,,,,,,,,,,,,,,
0.0,1.0,1.00824,0.0,6.0,6.0,6.0,1.0,pillbox_04s.jpg,0.0,clock_7_1.png,2.0,1,,,,,,,,,,,,,,,,,,,,,,,,,,,,,,,,
0.0,1.0,1.04623,0.0,7.0,7.0,7.0,1.0,blowfish_03s.jpg,0.0,clock_7_2.png,2.0,1,,,,,,,,,,,,,,,,,,,,,,,,,,,,,,,,
0.0,1.0,2.20407,0.0,8.0,8.0,8.0,1.0,rhubarb_03s.jpg,0.0,clock_7_3.png,2.0,1,,,,,,,,,,,,,,,,,,,,,,,,,,,,,,,,
0.0,1.0,1.054145,0.0,9.0,9.0,9.0,1.0,torch_02s.jpg,0.0,clock_7_4.png,2.0,1,,,,,,,,,,,,,,,,,,,,,,,,,,,,,,,,
1.0,1.0,0.977265,0.0,10.0,10.0,10.0,1.0,rhubarb_03s.jpg,1.0,clock_7_5.png,2.0,1,,,,,,,,,,,,,,,,,,,,,,,,,,,,,,,,
0.0,1.0,0.79015,0.0,11.0,11.0,11.0,1.0,tablet_04s.jpg,0.0,clock_7_6.png,2.0,1,,,,,,,,,,,,,,,,,,,,,,,,,,,,,,,,
0.0,1.0,0.92256,0.0,12.0,12.0,12.0,1.0,mop_08s.jpg,0.0,clock_7_7.png,2.0,1,,,,,,,,,,,,,,,,,,,,,,,,,,,,,,,,
0.0,1.0,1.127275,0.0,13.0,13.0,13.0,1.0,mirror_12s.jpg,0.0,clock_5_1.png,3.0,1,,,,,,,,,,,,,,,,,,,,,,,,,,,,,,,,
0.0,1.0,1.32795,0.0,14.0,14.0,14.0,1.0,torch_02s.jpg,0.0,clock_5_2.png,3.0,1,,,,,,,,,,,,,,,,,,,,,,,,,,,,,,,,
0.0,1.0,0.98923,0.0,15.0,15.0,15.0,1.0,compass_10n.jpg,0.0,clock_5_3.png,3.0,1,,,,,,,,,,,,,,,,,,,,,,,,,,,,,,,,
0.0,1.0,1.011165,0.0,16.0,16.0,16.0,1.0,peppermint_07s.jpg,0.0,clock_5_4.png,3.0,1,,,,,,,,,,,,,,,,,,,,,,,,,,,,,,,,
0.0,1.0,0.78836,0.0,17.0,17.0,17.0,1.0,surfboard_11s.jpg,0.0,clock_5_5.png,3.0,1,,,,,,,,,,,,,,,,,,,,,,,,,,,,,,,,
0.0,1.0,0.99141,0.0,18.0,18.0,18.0,1.0,microwave_02s.jpg,0.0,clock_5_1.png,4.0,1,,,,,,,,,,,,,,,,,,,,,,,,,,,,,,,,
0.0,1.0,0.74418,0.0,19.0,19.0,19.0,1.0,pumpkin_03s.jpg,0.0,clock_5_2.png,4.0,1,,,,,,,,,,,,,,,,,,,,,,,,,,,,,,,,
0.0,1.0,1.14915,0.0,20.0,20.0,20.0,1.0,rhubarb_03s.jpg,0.0,clock_5_3.png,4.0,1,,,,,,,,,,,,,,,,,,,,,,,,,,,,,,,,
0.0,1.0,0.926525,0.0,21.0,21.0,21.0,1.0,metronome_03s.jpg,0.0,clock_5_4.png,4.0,1,,,,,,,,,,,,,,,,,,,,,,,,,,,,,,,,
0.0,1.0,0.86903,0.0,22.0,22.0,22.0,1.0,cardinal_07s.jpg,0.0,clock_5_5.png,4.0,1,,,,,,,,,,,,,,,,,,,,,,,,,,,,,,,,
0.0,1.0,1.7639,0.0,23.0,23.0,23.0,1.0,quesadilla_07s.jpg,0.0,clock_6_1.png,5.0,1,,,,,,,,,,,,,,,,,,,,,,,,,,,,,,,,
0.0,1.0,0.87415,0.0,24.0,24.0,24.0,1.0,bonsai_07s.jpg,0.0,clock_6_2.png,5.0,1,,,,,,,,,,,,,,,,,,,,,,,,,,,,,,,,
0.0,1.0,1.068035,0.0,25.0,25.0,25.0,1.0,lion_18s.jpg,0.0,clock_6_3.png,5.0,1,,,,,,,,,,,,,,,,,,,,,,,,,,,,,,,,
0.0,1.0,0.856165,0.0,26.0,26.0,26.0,1.0,fire_pit_10s.jpg,0.0,clock_6_4.png,5.0,1,,,,,,,,,,,,,,,,,,,,,,,,,,,,,,,,
0.0,1.0,1.05716,0.0,27.0,27.0,27.0,1.0,peppermint_07s.jpg,0.0,clock_6_5.png,5.0,1,,,,,,,,,,,,,,,,,,,,,,,,,,,,,,,,
1.0,1.0,1.37566,0.0,28.0,28.0,28.0,1.0,bonsai_07s.jpg,1.0,clock_6_6.png,5.0,1,,,,,,,,,,,,,,,,,,,,,,,,,,,,,,,,
0.0,1.0,0.85272,0.0,29.0,29.0,29.0,1.0,potholder_02s.jpg,0.0,clock_7_1.png,6.0,1,,,,,,,,,,,,,,,,,,,,,,,,,,,,,,,,
0.0,1.0,0.90312,0.0,30.0,30.0,30.0,1.0,amber_04s.jpg,0.0,clock_7_2.png,6.0,1,,,,,,,,,,,,,,,,,,,,,,,,,,,,,,,,
0.0,1.0,1.02823,0.0,31.0,31.0,31.0,1.0,doily_13s.jpg,0.0,clock_7_3.png,6.0,1,,,,,,,,,,,,,,,,,,,,,,,,,,,,,,,,
0.0,1.0,0.824975,0.0,32.0,32.0,32.0,1.0,champagne_18s.jpg,0.0,clock_7_4.png,6.0,1,,,,,,,,,,,,,,,,,,,,,,,,,,,,,,,,
1.0,1.0,0.88307,0.0,33.0,33.0,33.0,1.0,champagne_18s.jpg,1.0,clock_7_5.png,6.0,1,,,,,,,,,,,,,,,,,,,,,,,,,,,,,,,,
1.0,1.0,1.09401,0.0,34.0,34.0,34.0,1.0,doily_13s.jpg,1.0,clock_7_6.png,6.0,1,,,,,,,,,,,,,,,,,,,,,,,,,,,,,,,,
0.0,1.0,0.990105,0.0,35.0,35.0,35.0,1.0,ice_pack_09s.jpg,0.0,clock_7_7.png,6.0,1,,,,,,,,,,,,,,,,,,,,,,,,,,,,,,,,
,,,,,,,,,0.0,,,1,0.0,1.0,2.62992,0.0,0.0,0.0,0.0,1.0,compass_10n.jpg,mop_08s.jpg,,,,,,,,,,,,,,,,,,,,,,
,,,,,,,,,1.0,,,1,0.0,0.0,5.214705,0.0,1.0,1.0,1.0,1.0,rabbit_03s.jpg,pillbox_04s.jpg,,,,,,,,,,,,,,,,,,,,,,
,,,,,,,,,0.0,,,1,1.0,0.0,3.41085,0.0,2.0,2.0,2.0,1.0,blowfish_03s.jpg,boomerang_06s.jpg,,,,,,,,,,,,,,,,,,,,,,
,,,,,,,,,1.0,,,1,1.0,1.0,2.254025,0.0,3.0,3.0,3.0,1.0,pumpkin_03s.jpg,cardinal_07s.jpg,,,,,,,,,,,,,,,,,,,,,,
,,,,,,,,,0.0,,,1,0.0,1.0,2.128665,0.0,4.0,4.0,4.0,1.0,metronome_03s.jpg,microwave_02s.jpg,,,,,,,,,,,,,,,,,,,,,,
,,,,,,,,,0.0,,,1,0.0,1.0,3.87595,0.0,5.0,5.0,5.0,1.0,fire_pit_10s.jpg,quesadilla_07s.jpg,,,,,,,,,,,,,,,,,,,,,,
,,,,,,,,,,,,1,,,,,,,,,,,0.0,0.0,0.0,0.0,1.0,clock_present_1_18.xlsx,clock_compare_task_1_18.xlsx,,,,,,,,,,,,,,,
,0.0,,0.0,0.0,0.0,0.0,1.0,thorn_13s.jpg,0.0,clock_7_1.png,1.0,1,,,,,,,,,,,,,,,,,,,,,,,,,,,,,,,,
0.0,1.0,1.184345,0.0,1.0,1.0,1.0,1.0,lamppost_09s.jpg,0.0,clock_7_2.png,1.0,1,,,,,,,,,,,,,,,,,,,,,,,,,,,,,,,,
0.0,1.0,0.692945,0.0,2.0,2.0,2.0,1.0,crystal_ball_12s.jpg,0.0,clock_7_3.png,1.0,1,,,,,,,,,,,,,,,,,,,,,,,,,,,,,,,,
0.0,1.0,0.65075,0.0,3.0,3.0,3.0,1.0,bean_06s.jpg,0.0,clock_7_4.png,1.0,1,,,,,,,,,,,,,,,,,,,,,,,,,,,,,,,,
0.0,1.0,0.94696,0.0,4.0,4.0,4.0,1.0,fossil_06s.jpg,0.0,clock_7_5.png,1.0,1,,,,,,,,,,,,,,,,,,,,,,,,,,,,,,,,
0.0,1.0,0.658265,0.0,5.0,5.0,5.0,1.0,keyhole_03s.jpg,0.0,clock_7_6.png,1.0,1,,,,,,,,,,,,,,,,,,,,,,,,,,,,,,,,
1.0,1.0,0.779995,0.0,6.0,6.0,6.0,1.0,fossil_06s.jpg,1.0,clock_7_7.png,1.0,1,,,,,,,,,,,,,,,,,,,,,,,,,,,,,,,,
0.0,1.0,0.694695,0.0,7.0,7.0,7.0,1.0,eggshell_14s.jpg,0.0,clock_6_1.png,2.0,1,,,,,,,,,,,,,,,,,,,,,,,,,,,,,,,,
0.0,1.0,1.029285,0.0,8.0,8.0,8.0,1.0,crystal_ball_12s.jpg,0.0,clock_6_2.png,2.0,1,,,,,,,,,,,,,,,,,,,,,,,,,,,,,,,,
0.0,1.0,0.715675,0.0,9.0,9.0,9.0,1.0,lamp_08s.jpg,0.0,clock_6_3.png,2.0,1,,,,,,,,,,,,,,,,,,,,,,,,,,,,,,,,
0.0,1.0,0.71683,0.0,10.0,10.0,10.0,1.0,limousine_12s.jpg,0.0,clock_6_4.png,2.0,1,,,,,,,,,,,,,,,,,,,,,,,,,,,,,,,,
1.0,1.0,0.86258,0.0,11.0,11.0,11.0,1.0,limousine_12s.jpg,1.0,clock_6_5.png,2.0,1,,,,,,,,,,,,,,,,,,,,,,,,,,,,,,,,
0.0,1.0,0.857595,0.0,12.0,12.0,12.0,1.0,fur_coat_11s.jpg,0.0,clock_6_6.png,2.0,1,,,,,,,,,,,,,,,,,,,,,,,,,,,,,,,,
0.0,1.0,0.81197,0.0,13.0,13.0,13.0,1.0,meatball_13s.jpg,0.0,clock_6_1.png,3.0,1,,,,,,,,,,,,,,,,,,,,,,,,,,,,,,,,
0.0,1.0,0.663865,0.0,14.0,14.0,14.0,1.0,kitten_07s.jpg,0.0,clock_6_2.png,3.0,1,,,,,,,,,,,,,,,,,,,,,,,,,,,,,,,,
0.0,1.0,0.668605,0.0,15.0,15.0,15.0,1.0,radiator_05s.jpg,0.0,clock_6_3.png,3.0,1,,,,,,,,,,,,,,,,,,,,,,,,,,,,,,,,
0.0,1.0,0.888755,0.0,16.0,16.0,16.0,1.0,bacon_05s.jpg,0.0,clock_6_4.png,3.0,1,,,,,,,,,,,,,,,,,,,,,,,,,,,,,,,,
0.0,1.0,0.809125,0.0,17.0,17.0,17.0,1.0,turtleneck_11s.jpg,0.0,clock_6_5.png,3.0,1,,,,,,,,,,,,,,,,,,,,,,,,,,,,,,,,
0.0,1.0,0.804015,0.0,18.0,18.0,18.0,1.0,pea_11s.jpg,0.0,clock_6_6.png,3.0,1,,,,,,,,,,,,,,,,,,,,,,,,,,,,,,,,
0.0,1.0,0.67606,0.0,19.0,19.0,19.0,1.0,submarine_11n.jpg,0.0,clock_5_1.png,4.0,1,,,,,,,,,,,,,,,,,,,,,,,,,,,,,,,,
0.0,1.0,0.632555,0.0,20.0,20.0,20.0,1.0,phone_01b.jpg,0.0,clock_5_2.png,4.0,1,,,,,,,,,,,,,,,,,,,,,,,,,,,,,,,,
0.0,1.0,0.66166,0.0,21.0,21.0,21.0,1.0,rhinoceros_02s.jpg,0.0,clock_5_3.png,4.0,1,,,,,,,,,,,,,,,,,,,,,,,,,,,,,,,,
0.0,1.0,0.705395,0.0,22.0,22.0,22.0,1.0,spider_web_03s.jpg,0.0,clock_5_4.png,4.0,1,,,,,,,,,,,,,,,,,,,,,,,,,,,,,,,,
0.0,1.0,0.71573,0.0,23.0,23.0,23.0,1.0,reindeer_08s.jpg,0.0,clock_5_5.png,4.0,1,,,,,,,,,,,,,,,,,,,,,,,,,,,,,,,,
0.0,1.0,0.81187,0.0,24.0,24.0,24.0,1.0,jewel_01b.jpg,0.0,clock_5_1.png,5.0,1,,,,,,,,,,,,,,,,,,,,,,,,,,,,,,,,
0.0,1.0,0.758175,0.0,25.0,25.0,25.0,1.0,cap_05s.jpg,0.0,clock_5_2.png,5.0,1,,,,,,,,,,,,,,,,,,,,,,,,,,,,,,,,
0.0,1.0,0.72582,0.0,26.0,26.0,26.0,1.0,cape_11s.jpg,0.0,clock_5_3.png,5.0,1,,,,,,,,,,,,,,,,,,,,,,,,,,,,,,,,
0.0,1.0,0.64554,0.0,27.0,27.0,27.0,1.0,giraffe_11s.jpg,0.0,clock_5_4.png,5.0,1,,,,,,,,,,,,,,,,,,,,,,,,,,,,,,,,
0.0,1.0,1.1922,0.0,28.0,28.0,28.0,1.0,kitten_07s.jpg,0.0,clock_5_5.png,5.0,1,,,,,,,,,,,,,,,,,,,,,,,,,,,,,,,,
0.0,1.0,0.70951,0.0,29.0,29.0,29.0,1.0,sparkler_02s.jpg,0.0,clock_7_1.png,6.0,1,,,,,,,,,,,,,,,,,,,,,,,,,,,,,,,,
1.0,1.0,1.055135,0.0,30.0,30.0,30.0,1.0,sparkler_02s.jpg,1.0,clock_7_2.png,6.0,1,,,,,,,,,,,,,,,,,,,,,,,,,,,,,,,,
0.0,1.0,0.88519,0.0,31.0,31.0,31.0,1.0,bee_20s.jpg,0.0,clock_7_3.png,6.0,1,,,,,,,,,,,,,,,,,,,,,,,,,,,,,,,,
0.0,1.0,1.28033,0.0,32.0,32.0,32.0,1.0,jetski_10s.jpg,0.0,clock_7_4.png,6.0,1,,,,,,,,,,,,,,,,,,,,,,,,,,,,,,,,
0.0,1.0,0.764785,0.0,33.0,33.0,33.0,1.0,pear_02s.jpg,0.0,clock_7_5.png,6.0,1,,,,,,,,,,,,,,,,,,,,,,,,,,,,,,,,
0.0,1.0,0.826085,0.0,34.0,34.0,34.0,1.0,kilt_18s.jpg,0.0,clock_7_6.png,6.0,1,,,,,,,,,,,,,,,,,,,,,,,,,,,,,,,,
0.0,1.0,1.182205,0.0,35.0,35.0,35.0,1.0,bacon_05s.jpg,0.0,clock_7_7.png,6.0,1,,,,,,,,,,,,,,,,,,,,,,,,,,,,,,,,
,,,,,,,,,1.0,,,1,0.0,0.0,1.963515,0.0,0.0,0.0,0.0,1.0,turtleneck_11s.jpg,phone_01b.jpg,,,,,,,,,,,,,,,,,,,,,,
,,,,,,,,,0.0,,,1,0.0,1.0,1.49612,0.0,1.0,1.0,1.0,1.0,rhinoceros_02s.jpg,pea_11s.jpg,,,,,,,,,,,,,,,,,,,,,,
,,,,,,,,,1.0,,,1,1.0,1.0,2.18119,0.0,2.0,2.0,2.0,1.0,spider_web_03s.jpg,cap_05s.jpg,,,,,,,,,,,,,,,,,,,,,,
,,,,,,,,,0.0,,,1,1.0,0.0,1.12851,0.0,3.0,3.0,3.0,1.0,bean_06s.jpg,thorn_13s.jpg,,,,,,,,,,,,,,,,,,,,,,
,,,,,,,,,0.0,,,1,0.0,1.0,1.39687,0.0,4.0,4.0,4.0,1.0,kilt_18s.jpg,bee_20s.jpg,,,,,,,,,,,,,,,,,,,,,,
,,,,,,,,,0.0,,,1,0.0,1.0,1.994025,0.0,5.0,5.0,5.0,1.0,fur_coat_11s.jpg,lamp_08s.jpg,,,,,,,,,,,,,,,,,,,,,,
,,,,,,,,,,,,1,,,,,,,,,,,0.0,1.0,1.0,1.0,1.0,clock_present_2_18.xlsx,clock_compare_task_2_18.xlsx,,,,,,,,,,,,,,,
0.0,1.0,1.432745,0.0,0.0,0.0,0.0,1.0,thermostat_02s.jpg,0.0,clock_7_1.png,1.0,1,,,,,,,,,,,,,,,,,,,,,,,,,,,,,,,,
1.0,1.0,1.22723,0.0,1.0,1.0,1.0,1.0,thermostat_02s.jpg,1.0,clock_7_2.png,1.0,1,,,,,,,,,,,,,,,,,,,,,,,,,,,,,,,,
0.0,1.0,1.433655,0.0,2.0,2.0,2.0,1.0,raft_09s.jpg,0.0,clock_7_3.png,1.0,1,,,,,,,,,,,,,,,,,,,,,,,,,,,,,,,,
0.0,1.0,0.71947,0.0,3.0,3.0,3.0,1.0,magnet_03s.jpg,0.0,clock_7_4.png,1.0,1,,,,,,,,,,,,,,,,,,,,,,,,,,,,,,,,
1.0,1.0,0.941575,0.0,4.0,4.0,4.0,1.0,raft_09s.jpg,1.0,clock_7_5.png,1.0,1,,,,,,,,,,,,,,,,,,,,,,,,,,,,,,,,
0.0,1.0,0.60959,0.0,5.0,5.0,5.0,1.0,duck_01b.jpg,0.0,clock_7_6.png,1.0,1,,,,,,,,,,,,,,,,,,,,,,,,,,,,,,,,
0.0,1.0,0.816085,0.0,6.0,6.0,6.0,1.0,ring_03s.jpg,0.0,clock_7_7.png,1.0,1,,,,,,,,,,,,,,,,,,,,,,,,,,,,,,,,
0.0,1.0,0.93699,0.0,7.0,7.0,7.0,1.0,lectern_08s.jpg,0.0,clock_6_1.png,2.0,1,,,,,,,,,,,,,,,,,,,,,,,,,,,,,,,,
0.0,1.0,0.7859,0.0,8.0,8.0,8.0,1.0,orange_12s.jpg,0.0,clock_6_2.png,2.0,1,,,,,,,,,,,,,,,,,,,,,,,,,,,,,,,,
0.0,1.0,0.77298,0.0,9.0,9.0,9.0,1.0,swan_11s.jpg,0.0,clock_6_3.png,2.0,1,,,,,,,,,,,,,,,,,,,,,,,,,,,,,,,,
0.0,1.0,0.88726,0.0,10.0,10.0,10.0,1.0,seahorse_13s.jpg,0.0,clock_6_4.png,2.0,1,,,,,,,,,,,,,,,,,,,,,,,,,,,,,,,,
0.0,1.0,0.73787,0.0,11.0,11.0,11.0,1.0,mosquito_12s.jpg,0.0,clock_6_5.png,2.0,1,,,,,,,,,,,,,,,,,,,,,,,,,,,,,,,,
0.0,1.0,0.945765,0.0,12.0,12.0,12.0,1.0,leash_10s.jpg,0.0,clock_6_6.png,2.0,1,,,,,,,,,,,,,,,,,,,,,,,,,,,,,,,,
0.0,1.0,1.099315,0.0,13.0,13.0,13.0,1.0,rudder_02s.jpg,0.0,clock_5_1.png,3.0,1,,,,,,,,,,,,,,,,,,,,,,,,,,,,,,,,
0.0,1.0,0.81729,0.0,14.0,14.0,14.0,1.0,quilt_03s.jpg,0.0,clock_5_2.png,3.0,1,,,,,,,,,,,,,,,,,,,,,,,,,,,,,,,,
0.0,1.0,1.14362,0.0,15.0,15.0,15.0,1.0,peach_04s.jpg,0.0,clock_5_3.png,3.0,1,,,,,,,,,,,,,,,,,,,,,,,,,,,,,,,,
1.0,1.0,0.92909,0.0,16.0,16.0,16.0,1.0,quilt_03s.jpg,1.0,clock_5_4.png,3.0,1,,,,,,,,,,,,,,,,,,,,,,,,,,,,,,,,
0.0,1.0,0.737095,0.0,17.0,17.0,17.0,1.0,roller_coaster_07s.jpg,0.0,clock_5_5.png,3.0,1,,,,,,,,,,,,,,,,,,,,,,,,,,,,,,,,
0.0,1.0,1.476825,0.0,18.0,18.0,18.0,1.0,gargoyle_08s.jpg,0.0,clock_6_1.png,4.0,1,,,,,,,,,,,,,,,,,,,,,,,,,,,,,,,,
0.0,1.0,1.55861,0.0,19.0,19.0,19.0,1.0,rudder_02s.jpg,0.0,clock_6_2.png,4.0,1,,,,,,,,,,,,,,,,,,,,,,,,,,,,,,,,
0.0,1.0,0.77344,0.0,20.0,20.0,20.0,1.0,mannequin_05s.jpg,0.0,clock_6_3.png,4.0,1,,,,,,,,,,,,,,,,,,,,,,,,,,,,,,,,
0.0,1.0,1.082585,0.0,21.0,21.0,21.0,1.0,machete_06s.jpg,0.0,clock_6_4.png,4.0,1,,,,,,,,,,,,,,,,,,,,,,,,,,,,,,,,
0.0,1.0,0.7793,0.0,22.0,22.0,22.0,1.0,mailbox_11s.jpg,0.0,clock_6_5.png,4.0,1,,,,,,,,,,,,,,,,,,,,,,,,,,,,,,,,
0.0,1.0,0.698395,0.0,23.0,23.0,23.0,1.0,ruby_15s.jpg,0.0,clock_6_6.png,4.0,1,,,,,,,,,,,,,,,,,,,,,,,,,,,,,,,,
0.0,1.0,0.756785,0.0,24.0,24.0,24.0,1.0,glasses01a.jpg,0.0,clock_7_1.png,5.0,1,,,,,,,,,,,,,,,,,,,,,,,,,,,,,,,,
1.0,1.0,1.492245,0.0,25.0,25.0,25.0,1.0,glasses01a.jpg,1.0,clock_7_2.png,5.0,1,,,,,,,,,,,,,,,,,,,,,,,,,,,,,,,,
1.0,1.0,0.79778,0.0,26.0,26.0,26.0,1.0,glasses01a.jpg,1.0,clock_7_3.png,5.0,1,,,,,,,,,,,,,,,,,,,,,,,,,,,,,,,,
0.0,1.0,0.64125,0.0,27.0,27.0,27.0,1.0,rolling_pin_02s.jpg,0.0,clock_7_4.png,5.0,1,,,,,,,,,,,,,,,,,,,,,,,,,,,,,,,,
0.0,1.0,0.924815,0.0,28.0,28.0,28.0,1.0,scooter.jpg,0.0,clock_7_5.png,5.0,1,,,,,,,,,,,,,,,,,,,,,,,,,,,,,,,,
0.0,1.0,0.998185,0.0,29.0,29.0,29.0,1.0,puffin_19s.jpg,0.0,clock_7_6.png,5.0,1,,,,,,,,,,,,,,,,,,,,,,,,,,,,,,,,
0.0,1.0,0.82768,0.0,30.0,30.0,30.0,1.0,roulette_wheel_04s.jpg,0.0,clock_7_7.png,5.0,1,,,,,,,,,,,,,,,,,,,,,,,,,,,,,,,,
0.0,1.0,0.854295,0.0,31.0,31.0,31.0,1.0,crab_16s.jpg,0.0,clock_5_1.png,6.0,1,,,,,,,,,,,,,,,,,,,,,,,,,,,,,,,,
1.0,1.0,0.86719,0.0,32.0,32.0,32.0,1.0,crab_16s.jpg,1.0,clock_5_2.png,6.0,1,,,,,,,,,,,,,,,,,,,,,,,,,,,,,,,,
0.0,1.0,0.815285,0.0,33.0,33.0,33.0,1.0,timer_03s.jpg,0.0,clock_5_3.png,6.0,1,,,,,,,,,,,,,,,,,,,,,,,,,,,,,,,,
0.0,1.0,0.757175,0.0,34.0,34.0,34.0,1.0,paper_towel_03s.jpg,0.0,clock_5_4.png,6.0,1,,,,,,,,,,,,,,,,,,,,,,,,,,,,,,,,
0.0,1.0,1.19521,0.0,35.0,35.0,35.0,1.0,orange_12s.jpg,0.0,clock_5_5.png,6.0,1,,,,,,,,,,,,,,,,,,,,,,,,,,,,,,,,
,,,,,,,,,1.0,,,1,1.0,1.0,3.00457,0.0,0.0,0.0,0.0,1.0,leash_10s.jpg,peach_04s.jpg,,,,,,,,,,,,,,,,,,,,,,
,,,,,,,,,0.0,,,1,1.0,0.0,1.647685,0.0,1.0,1.0,1.0,1.0,mannequin_05s.jpg,roller_coaster_07s.jpg,,,,,,,,,,,,,,,,,,,,,,
,,,,,,,,,0.0,,,1,0.0,1.0,1.883885,0.0,2.0,2.0,2.0,1.0,timer_03s.jpg,roulette_wheel_04s.jpg,,,,,,,,,,,,,,,,,,,,,,
,,,,,,,,,0.0,,,1,1.0,0.0,2.02741,0.0,3.0,3.0,3.0,1.0,seahorse_13s.jpg,lectern_08s.jpg,,,,,,,,,,,,,,,,,,,,,,
,,,,,,,,,0.0,,,1,0.0,1.0,1.056675,0.0,4.0,4.0,4.0,1.0,ring_03s.jpg,magnet_03s.jpg,,,,,,,,,,,,,,,,,,,,,,
,,,,,,,,,0.0,,,1,0.0,1.0,1.947265,0.0,5.0,5.0,5.0,1.0,machete_06s.jpg,gargoyle_08s.jpg,,,,,,,,,,,,,,,,,,,,,,
,,,,,,,,,,,,1,,,,,,,,,,,0.0,2.0,2.0,2.0,1.0,clock_present_3_18.xlsx,clock_compare_task_3_18.xlsx,,,,,,,,,,,,,,,
0.0,1.0,1.59042,0.0,0.0,0.0,0.0,1.0,peeler_06s.jpg,0.0,clock_6_1.png,1.0,1,,,,,,,,,,,,,,,,,,,,,,,,,,,,,,,,
0.0,1.0,0.79569,0.0,1.0,1.0,1.0,1.0,flip_flop_03s.jpg,0.0,clock_6_2.png,1.0,1,,,,,,,,,,,,,,,,,,,,,,,,,,,,,,,,
1.0,1.0,0.68176,0.0,2.0,2.0,2.0,1.0,flip_flop_03s.jpg,1.0,clock_6_3.png,1.0,1,,,,,,,,,,,,,,,,,,,,,,,,,,,,,,,,
0.0,1.0,0.90659,0.0,3.0,3.0,3.0,1.0,orchid_01b.jpg,0.0,clock_6_4.png,1.0,1,,,,,,,,,,,,,,,,,,,,,,,,,,,,,,,,
1.0,1.0,1.657575,0.0,4.0,4.0,4.0,1.0,peeler_06s.jpg,1.0,clock_6_5.png,1.0,1,,,,,,,,,,,,,,,,,,,,,,,,,,,,,,,,
0.0,1.0,0.74048,0.0,5.0,5.0,5.0,1.0,machine_gun_09s.jpg,0.0,clock_6_6.png,1.0,1,,,,,,,,,,,,,,,,,,,,,,,,,,,,,,,,
0.0,1.0,0.90397,0.0,6.0,6.0,6.0,1.0,tattoo_14s.jpg,0.0,clock_5_1.png,2.0,1,,,,,,,,,,,,,,,,,,,,,,,,,,,,,,,,
1.0,1.0,1.076315,0.0,7.0,7.0,7.0,1.0,tattoo_14s.jpg,1.0,clock_5_2.png,2.0,1,,,,,,,,,,,,,,,,,,,,,,,,,,,,,,,,
0.0,1.0,0.82118,0.0,8.0,8.0,8.0,1.0,bolo_tie_08s.jpg,0.0,clock_5_3.png,2.0,1,,,,,,,,,,,,,,,,,,,,,,,,,,,,,,,,
0.0,1.0,0.88969,0.0,9.0,9.0,9.0,1.0,petri_dish_12s.jpg,0.0,clock_5_4.png,2.0,1,,,,,,,,,,,,,,,,,,,,,,,,,,,,,,,,
0.0,1.0,0.768905,0.0,10.0,10.0,10.0,1.0,mushroom_10n.jpg,0.0,clock_5_5.png,2.0,1,,,,,,,,,,,,,,,,,,,,,,,,,,,,,,,,
0.0,1.0,1.172215,0.0,11.0,11.0,11.0,1.0,tape_06s.jpg,0.0,clock_7_1.png,3.0,1,,,,,,,,,,,,,,,,,,,,,,,,,,,,,,,,
1.0,1.0,0.925125,0.0,12.0,12.0,12.0,1.0,tape_06s.jpg,1.0,clock_7_2.png,3.0,1,,,,,,,,,,,,,,,,,,,,,,,,,,,,,,,,
1.0,1.0,0.570345,0.0,13.0,13.0,13.0,1.0,tape_06s.jpg,1.0,clock_7_3.png,3.0,1,,,,,,,,,,,,,,,,,,,,,,,,,,,,,,,,
0.0,1.0,0.74454,0.0,14.0,14.0,14.0,1.0,rug_09s.jpg,0.0,clock_7_4.png,3.0,1,,,,,,,,,,,,,,,,,,,,,,,,,,,,,,,,
0.0,1.0,0.695215,0.0,15.0,15.0,15.0,1.0,teabag_12s.jpg,0.0,clock_7_5.png,3.0,1,,,,,,,,,,,,,,,,,,,,,,,,,,,,,,,,
0.0,1.0,0.884945,0.0,16.0,16.0,16.0,1.0,jet_15s.jpg,0.0,clock_7_6.png,3.0,1,,,,,,,,,,,,,,,,,,,,,,,,,,,,,,,,
0.0,1.0,0.75722,0.0,17.0,17.0,17.0,1.0,throne_11s.jpg,0.0,clock_7_7.png,3.0,1,,,,,,,,,,,,,,,,,,,,,,,,,,,,,,,,
0.0,1.0,0.89693,0.0,18.0,18.0,18.0,1.0,padlock_07s.jpg,0.0,clock_5_1.png,4.0,1,,,,,,,,,,,,,,,,,,,,,,,,,,,,,,,,
1.0,1.0,1.002905,0.0,19.0,19.0,19.0,1.0,padlock_07s.jpg,1.0,clock_5_2.png,4.0,1,,,,,,,,,,,,,,,,,,,,,,,,,,,,,,,,
0.0,1.0,0.665515,0.0,20.0,20.0,20.0,1.0,purse_05s.jpg,0.0,clock_5_3.png,4.0,1,,,,,,,,,,,,,,,,,,,,,,,,,,,,,,,,
0.0,1.0,1.143135,0.0,21.0,21.0,21.0,1.0,snowman_02s.jpg,0.0,clock_5_4.png,4.0,1,,,,,,,,,,,,,,,,,,,,,,,,,,,,,,,,
1.0,1.0,2.05992,0.0,22.0,22.0,22.0,1.0,purse_05s.jpg,1.0,clock_5_5.png,4.0,1,,,,,,,,,,,,,,,,,,,,,,,,,,,,,,,,
0.0,1.0,0.77277,0.0,23.0,23.0,23.0,1.0,cotton_candy_01b.jpg,0.0,clock_6_1.png,5.0,1,,,,,,,,,,,,,,,,,,,,,,,,,,,,,,,,
0.0,1.0,0.694925,0.0,24.0,24.0,24.0,1.0,lollipop_08s.jpg,0.0,clock_6_2.png,5.0,1,,,,,,,,,,,,,,,,,,,,,,,,,,,,,,,,
0.0,1.0,0.71903,0.0,25.0,25.0,25.0,1.0,birthday_cake_09s.jpg,0.0,clock_6_3.png,5.0,1,,,,,,,,,,,,,,,,,,,,,,,,,,,,,,,,
0.0,1.0,0.85965,0.0,26.0,26.0,26.0,1.0,pipe1_10s.jpg,0.0,clock_6_4.png,5.0,1,,,,,,,,,,,,,,,,,,,,,,,,,,,,,,,,
0.0,1.0,0.790545,0.0,27.0,27.0,27.0,1.0,totem_pole_05s.jpg,0.0,clock_6_5.png,5.0,1,,,,,,,,,,,,,,,,,,,,,,,,,,,,,,,,
0.0,1.0,0.73619,0.0,28.0,28.0,28.0,1.0,teapot_03s.jpg,0.0,clock_6_6.png,5.0,1,,,,,,,,,,,,,,,,,,,,,,,,,,,,,,,,
0.0,1.0,1.29728,0.0,29.0,29.0,29.0,1.0,polaroid_05s.jpg,0.0,clock_7_1.png,6.0,1,,,,,,,,,,,,,,,,,,,,,,,,,,,,,,,,
0.0,1.0,0.806675,0.0,30.0,30.0,30.0,1.0,marker_05s.jpg,0.0,clock_7_2.png,6.0,1,,,,,,,,,,,,,,,,,,,,,,,,,,,,,,,,
0.0,1.0,0.899085,0.0,31.0,31.0,31.0,1.0,pacifier_09s.jpg,0.0,clock_7_3.png,6.0,1,,,,,,,,,,,,,,,,,,,,,,,,,,,,,,,,
0.0,1.0,0.8504,0.0,32.0,32.0,32.0,1.0,comic_book_02s.jpg,0.0,clock_7_4.png,6.0,1,,,,,,,,,,,,,,,,,,,,,,,,,,,,,,,,
0.0,1.0,0.72594,0.0,33.0,33.0,33.0,1.0,telephone_pole_05s.jpg,0.0,clock_7_5.png,6.0,1,,,,,,,,,,,,,,,,,,,,,,,,,,,,,,,,
0.0,1.0,0.756345,0.0,34.0,34.0,34.0,1.0,turnstile_08s.jpg,0.0,clock_7_6.png,6.0,1,,,,,,,,,,,,,,,,,,,,,,,,,,,,,,,,
0.0,1.0,0.746045,0.0,35.0,35.0,35.0,1.0,jersey_02s.jpg,0.0,clock_7_7.png,6.0,1,,,,,,,,,,,,,,,,,,,,,,,,,,,,,,,,
,,,,,,,,,0.0,,,1,0.0,1.0,2.118245,0.0,0.0,0.0,0.0,1.0,bolo_tie_08s.jpg,machine_gun_09s.jpg,,,,,,,,,,,,,,,,,,,,,,
,,,,,,,,,0.0,,,1,0.0,1.0,1.82824,0.0,1.0,1.0,1.0,1.0,lollipop_08s.jpg,snowman_02s.jpg,,,,,,,,,,,,,,,,,,,,,,
,,,,,,,,,1.0,,,1,0.0,0.0,2.174795,0.0,2.0,2.0,2.0,1.0,pipe1_10s.jpg,polaroid_05s.jpg,,,,,,,,,,,,,,,,,,,,,,
,,,,,,,,,1.0,,,1,1.0,1.0,1.498,0.0,3.0,3.0,3.0,1.0,rug_09s.jpg,throne_11s.jpg,,,,,,,,,,,,,,,,,,,,,,
,,,,,,,,,0.0,,,1,1.0,0.0,1.754795,0.0,4.0,4.0,4.0,1.0,jersey_02s.jpg,comic_book_02s.jpg,,,,,,,,,,,,,,,,,,,,,,
,,,,,,,,,0.0,,,1,1.0,0.0,1.70903,0.0,5.0,5.0,5.0,1.0,teapot_03s.jpg,birthday_cake_09s.jpg,,,,,,,,,,,,,,,,,,,,,,
,,,,,,,,,,,,1,,,,,,,,,,,0.0,3.0,3.0,3.0,1.0,clock_present_4_18.xlsx,clock_compare_task_4_18.xlsx,,,,,,,,,,,,,,,
0.0,1.0,1.1015,0.0,0.0,0.0,0.0,1.0,plunger_08s.jpg,0.0,clock_7_1.png,1.0,1,,,,,,,,,,,,,,,,,,,,,,,,,,,,,,,,
0.0,1.0,0.740855,0.0,1.0,1.0,1.0,1.0,footprint_11s.jpg,0.0,clock_7_2.png,1.0,1,,,,,,,,,,,,,,,,,,,,,,,,,,,,,,,,
1.0,1.0,0.83494,0.0,2.0,2.0,2.0,1.0,plunger_08s.jpg,1.0,clock_7_3.png,1.0,1,,,,,,,,,,,,,,,,,,,,,,,,,,,,,,,,
0.0,1.0,0.73908,0.0,3.0,3.0,3.0,1.0,pepper2_21s.jpg,0.0,clock_7_4.png,1.0,1,,,,,,,,,,,,,,,,,,,,,,,,,,,,,,,,
0.0,1.0,0.84495,0.0,4.0,4.0,4.0,1.0,mitten_10s.jpg,0.0,clock_7_5.png,1.0,1,,,,,,,,,,,,,,,,,,,,,,,,,,,,,,,,
0.0,1.0,0.89708,0.0,5.0,5.0,5.0,1.0,dynamite_01b.jpg,0.0,clock_7_6.png,1.0,1,,,,,,,,,,,,,,,,,,,,,,,,,,,,,,,,
0.0,1.0,0.77043,0.0,6.0,6.0,6.0,1.0,recliner_02s.jpg,0.0,clock_7_7.png,1.0,1,,,,,,,,,,,,,,,,,,,,,,,,,,,,,,,,
0.0,1.0,1.39168,0.0,7.0,7.0,7.0,1.0,crossbow_10s.jpg,0.0,clock_7_1.png,2.0,1,,,,,,,,,,,,,,,,,,,,,,,,,,,,,,,,
0.0,1.0,0.88821,0.0,8.0,8.0,8.0,1.0,fondue_07s.jpg,0.0,clock_7_2.png,2.0,1,,,,,,,,,,,,,,,,,,,,,,,,,,,,,,,,
0.0,1.0,0.97356,0.0,9.0,9.0,9.0,1.0,sushi_08s.jpg,0.0,clock_7_3.png,2.0,1,,,,,,,,,,,,,,,,,,,,,,,,,,,,,,,,
1.0,1.0,0.97788,0.0,10.0,10.0,10.0,1.0,fondue_07s.jpg,1.0,clock_7_4.png,2.0,1,,,,,,,,,,,,,,,,,,,,,,,,,,,,,,,,
0.0,1.0,0.65247,0.0,11.0,11.0,11.0,1.0,tiara_05s.jpg,0.0,clock_7_5.png,2.0,1,,,,,,,,,,,,,,,,,,,,,,,,,,,,,,,,
0.0,1.0,0.97807,0.0,12.0,12.0,12.0,1.0,contact_lens_15s.jpg,0.0,clock_7_6.png,2.0,1,,,,,,,,,,,,,,,,,,,,,,,,,,,,,,,,
0.0,1.0,1.327145,0.0,13.0,13.0,13.0,1.0,plunger_08s.jpg,0.0,clock_7_7.png,2.0,1,,,,,,,,,,,,,,,,,,,,,,,,,,,,,,,,
0.0,1.0,0.87484,0.0,14.0,14.0,14.0,1.0,polar_bear_02s.jpg,0.0,clock_5_1.png,3.0,1,,,,,,,,,,,,,,,,,,,,,,,,,,,,,,,,
0.0,1.0,0.901385,0.0,15.0,15.0,15.0,1.0,cereal_04s.jpg,0.0,clock_5_2.png,3.0,1,,,,,,,,,,,,,,,,,,,,,,,,,,,,,,,,
0.0,1.0,0.94186,0.0,16.0,16.0,16.0,1.0,hummingbird_05s.jpg,0.0,clock_5_3.png,3.0,1,,,,,,,,,,,,,,,,,,,,,,,,,,,,,,,,
1.0,1.0,1.54549,0.0,17.0,17.0,17.0,1.0,polar_bear_02s.jpg,1.0,clock_5_4.png,3.0,1,,,,,,,,,,,,,,,,,,,,,,,,,,,,,,,,
0.0,1.0,1.179165,0.0,18.0,18.0,18.0,1.0,omelet_07s.jpg,0.0,clock_5_5.png,3.0,1,,,,,,,,,,,,,,,,,,,,,,,,,,,,,,,,
0.0,1.0,1.924675,0.0,19.0,19.0,19.0,1.0,buoy_04s.jpg,0.0,clock_6_1.png,4.0,1,,,,,,,,,,,,,,,,,,,,,,,,,,,,,,,,
0.0,1.0,1.09905,0.0,20.0,20.0,20.0,1.0,dynamite_01b.jpg,0.0,clock_6_2.png,4.0,1,,,,,,,,,,,,,,,,,,,,,,,,,,,,,,,,
0.0,1.0,0.939485,0.0,21.0,21.0,21.0,1.0,peanut_butter_08s.jpg,0.0,clock_6_3.png,4.0,1,,,,,,,,,,,,,,,,,,,,,,,,,,,,,,,,
1.0,1.0,1.15647,0.0,22.0,22.0,22.0,1.0,buoy_04s.jpg,1.0,clock_6_4.png,4.0,1,,,,,,,,,,,,,,,,,,,,,,,,,,,,,,,,
0.0,1.0,0.97479,0.0,23.0,23.0,23.0,1.0,tripod_01b.jpg,0.0,clock_6_5.png,4.0,1,,,,,,,,,,,,,,,,,,,,,,,,,,,,,,,,
1.0,1.0,1.00668,0.0,24.0,24.0,24.0,1.0,tripod_01b.jpg,1.0,clock_6_6.png,4.0,1,,,,,,,,,,,,,,,,,,,,,,,,,,,,,,,,
0.0,1.0,0.71126,0.0,25.0,25.0,25.0,1.0,spoon02a.jpg,0.0,clock_5_1.png,5.0,1,,,,,,,,,,,,,,,,,,,,,,,,,,,,,,,,
0.0,1.0,0.797245,0.0,26.0,26.0,26.0,1.0,spatula04.jpg,0.0,clock_5_2.png,5.0,1,,,,,,,,,,,,,,,,,,,,,,,,,,,,,,,,
0.0,1.0,0.71998,0.0,27.0,27.0,27.0,1.0,sugar_cube_11s.jpg,0.0,clock_5_3.png,5.0,1,,,,,,,,,,,,,,,,,,,,,,,,,,,,,,,,
0.0,1.0,0.62354,0.0,28.0,28.0,28.0,1.0,recliner_02s.jpg,0.0,clock_5_4.png,5.0,1,,,,,,,,,,,,,,,,,,,,,,,,,,,,,,,,
0.0,1.0,0.83796,0.0,29.0,29.0,29.0,1.0,stethoscope_01b.jpg,0.0,clock_5_5.png,5.0,1,,,,,,,,,,,,,,,,,,,,,,,,,,,,,,,,
0.0,1.0,0.960345,0.0,30.0,30.0,30.0,1.0,coconut_08s.jpg,0.0,clock_6_1.png,6.0,1,,,,,,,,,,,,,,,,,,,,,,,,,,,,,,,,
0.0,1.0,0.86461,0.0,31.0,31.0,31.0,1.0,pocketknife_12s.jpg,0.0,clock_6_2.png,6.0,1,,,,,,,,,,,,,,,,,,,,,,,,,,,,,,,,
0.0,1.0,0.714695,0.0,32.0,32.0,32.0,1.0,jigsaw_puzzle_11s.jpg,0.0,clock_6_3.png,6.0,1,,,,,,,,,,,,,,,,,,,,,,,,,,,,,,,,
0.0,1.0,0.84134,0.0,33.0,33.0,33.0,1.0,denture_03s.jpg,0.0,clock_6_4.png,6.0,1,,,,,,,,,,,,,,,,,,,,,,,,,,,,,,,,
0.0,1.0,0.69836,0.0,34.0,34.0,34.0,1.0,mask_09s.jpg,0.0,clock_6_5.png,6.0,1,,,,,,,,,,,,,,,,,,,,,,,,,,,,,,,,
0.0,1.0,0.862675,0.0,35.0,35.0,35.0,1.0,ivy_12s.jpg,0.0,clock_6_6.png,6.0,1,,,,,,,,,,,,,,,,,,,,,,,,,,,,,,,,
,,,,,,,,,0.0,,,1,0.0,1.0,1.895285,0.0,0.0,0.0,0.0,1.0,crossbow_10s.jpg,mitten_10s.jpg,,,,,,,,,,,,,,,,,,,,,,
,,,,,,,,,0.0,,,1,0.0,1.0,1.32808,0.0,1.0,1.0,1.0,1.0,peanut_butter_08s.jpg,omelet_07s.jpg,,,,,,,,,,,,,,,,,,,,,,
,,,,,,,,,1.0,,,1,0.0,0.0,1.11596,0.0,2.0,2.0,2.0,1.0,sugar_cube_11s.jpg,coconut_08s.jpg,,,,,,,,,,,,,,,,,,,,,,
,,,,,,,,,1.0,,,1,0.0,0.0,1.53903,0.0,3.0,3.0,3.0,1.0,pocketknife_12s.jpg,mask_09s.jpg,,,,,,,,,,,,,,,,,,,,,,
,,,,,,,,,0.0,,,1,1.0,0.0,1.47691,0.0,4.0,4.0,4.0,1.0,contact_lens_15s.jpg,sushi_08s.jpg,,,,,,,,,,,,,,,,,,,,,,
,,,,,,,,,0.0,,,1,0.0,1.0,1.36052,0.0,5.0,5.0,5.0,1.0,stethoscope_01b.jpg,spatula04.jpg,,,,,,,,,,,,,,,,,,,,,,
,,,,,,,,,,,,1,,,,,,,,,,,0.0,4.0,4.0,4.0,1.0,clock_present_5_18.xlsx,clock_compare_task_5_18.xlsx,,,,,,,,,,,,,,,
0.0,1.0,1.1961,0.0,0.0,0.0,0.0,1.0,kite_04s.jpg,0.0,clock_5_1.png,1.0,1,,,,,,,,,,,,,,,,,,,,,,,,,,,,,,,,
0.0,1.0,0.80019,0.0,1.0,1.0,1.0,1.0,pretzel_09s.jpg,0.0,clock_5_2.png,1.0,1,,,,,,,,,,,,,,,,,,,,,,,,,,,,,,,,
0.0,1.0,0.862915,0.0,2.0,2.0,2.0,1.0,diving_board_07s.jpg,0.0,clock_5_3.png,1.0,1,,,,,,,,,,,,,,,,,,,,,,,,,,,,,,,,
0.0,1.0,0.87583,0.0,3.0,3.0,3.0,1.0,prism_10s.jpg,0.0,clock_5_4.png,1.0,1,,,,,,,,,,,,,,,,,,,,,,,,,,,,,,,,
0.0,1.0,1.06776,0.0,4.0,4.0,4.0,1.0,plug_08s.jpg,0.0,clock_5_5.png,1.0,1,,,,,,,,,,,,,,,,,,,,,,,,,,,,,,,,
0.0,1.0,0.973875,0.0,5.0,5.0,5.0,1.0,antenna_01b.jpg,0.0,clock_7_1.png,2.0,1,,,,,,,,,,,,,,,,,,,,,,,,,,,,,,,,
0.0,1.0,1.081945,0.0,6.0,6.0,6.0,1.0,pretzel_09s.jpg,0.0,clock_7_2.png,2.0,1,,,,,,,,,,,,,,,,,,,,,,,,,,,,,,,,
0.0,1.0,0.67031,0.0,7.0,7.0,7.0,1.0,mug_06s.jpg,0.0,clock_7_3.png,2.0,1,,,,,,,,,,,,,,,,,,,,,,,,,,,,,,,,
1.0,1.0,1.20631,0.0,8.0,8.0,8.0,1.0,antenna_01b.jpg,1.0,clock_7_4.png,2.0,1,,,,,,,,,,,,,,,,,,,,,,,,,,,,,,,,
0.0,1.0,0.72252,0.0,9.0,9.0,9.0,1.0,sledgehammer_03s.jpg,0.0,clock_7_5.png,2.0,1,,,,,,,,,,,,,,,,,,,,,,,,,,,,,,,,
0.0,1.0,1.15187,0.0,10.0,10.0,10.0,1.0,plug_08s.jpg,0.0,clock_7_6.png,2.0,1,,,,,,,,,,,,,,,,,,,,,,,,,,,,,,,,
0.0,1.0,0.946755,0.0,11.0,11.0,11.0,1.0,gas_mask_11s.jpg,0.0,clock_7_7.png,2.0,1,,,,,,,,,,,,,,,,,,,,,,,,,,,,,,,,
0.0,1.0,0.86199,0.0,12.0,12.0,12.0,1.0,coat_rack_01b.jpg,0.0,clock_7_1.png,3.0,1,,,,,,,,,,,,,,,,,,,,,,,,,,,,,,,,
0.0,1.0,0.63051,0.0,13.0,13.0,13.0,1.0,ladle_04s.jpg,0.0,clock_7_2.png,3.0,1,,,,,,,,,,,,,,,,,,,,,,,,,,,,,,,,
0.0,1.0,0.916415,0.0,14.0,14.0,14.0,1.0,fishhook_06s.jpg,0.0,clock_7_3.png,3.0,1,,,,,,,,,,,,,,,,,,,,,,,,,,,,,,,,
0.0,1.0,0.904065,0.0,15.0,15.0,15.0,1.0,camcorder_10s.jpg,0.0,clock_7_4.png,3.0,1,,,,,,,,,,,,,,,,,,,,,,,,,,,,,,,,
0.0,1.0,0.789585,0.0,16.0,16.0,16.0,1.0,koala_13s.jpg,0.0,clock_7_5.png,3.0,1,,,,,,,,,,,,,,,,,,,,,,,,,,,,,,,,
0.0,1.0,0.77235,0.0,17.0,17.0,17.0,1.0,treadmill_06s.jpg,0.0,clock_7_6.png,3.0,1,,,,,,,,,,,,,,,,,,,,,,,,,,,,,,,,
0.0,1.0,0.891825,0.0,18.0,18.0,18.0,1.0,jukebox_03n.jpg,0.0,clock_7_7.png,3.0,1,,,,,,,,,,,,,,,,,,,,,,,,,,,,,,,,
0.0,1.0,1.180785,0.0,19.0,19.0,19.0,1.0,trident_07s.jpg,0.0,clock_6_1.png,4.0,1,,,,,,,,,,,,,,,,,,,,,,,,,,,,,,,,
0.0,1.0,0.637405,0.0,20.0,20.0,20.0,1.0,loveseat_08s.jpg,0.0,clock_6_2.png,4.0,1,,,,,,,,,,,,,,,,,,,,,,,,,,,,,,,,
0.0,1.0,0.71269,0.0,21.0,21.0,21.0,1.0,muffin_12n.jpg,0.0,clock_6_3.png,4.0,1,,,,,,,,,,,,,,,,,,,,,,,,,,,,,,,,
0.0,1.0,0.69401,0.0,22.0,22.0,22.0,1.0,squirrel_02s.jpg,0.0,clock_6_4.png,4.0,1,,,,,,,,,,,,,,,,,,,,,,,,,,,,,,,,
0.0,1.0,1.03747,0.0,23.0,23.0,23.0,1.0,gas_mask_11s.jpg,0.0,clock_6_5.png,4.0,1,,,,,,,,,,,,,,,,,,,,,,,,,,,,,,,,
0.0,1.0,0.69918,0.0,24.0,24.0,24.0,1.0,birdcage_08s.jpg,0.0,clock_6_6.png,4.0,1,,,,,,,,,,,,,,,,,,,,,,,,,,,,,,,,
0.0,1.0,1.72351,0.0,25.0,25.0,25.0,1.0,sea_urchin_09s.jpg,0.0,clock_5_1.png,5.0,1,,,,,,,,,,,,,,,,,,,,,,,,,,,,,,,,
0.0,1.0,0.776035,0.0,26.0,26.0,26.0,1.0,lizard_10n.jpg,0.0,clock_5_2.png,5.0,1,,,,,,,,,,,,,,,,,,,,,,,,,,,,,,,,
0.0,1.0,0.705645,0.0,27.0,27.0,27.0,1.0,refrigerator_07s.jpg,0.0,clock_5_3.png,5.0,1,,,,,,,,,,,,,,,,,,,,,,,,,,,,,,,,
0.0,1.0,0.78072,0.0,28.0,28.0,28.0,1.0,toilet_paper_12s.jpg,0.0,clock_5_4.png,5.0,1,,,,,,,,,,,,,,,,,,,,,,,,,,,,,,,,
0.0,1.0,1.05884,0.0,29.0,29.0,29.0,1.0,pantyhose_07s.jpg,0.0,clock_5_5.png,5.0,1,,,,,,,,,,,,,,,,,,,,,,,,,,,,,,,,
0.0,1.0,0.72905,0.0,30.0,30.0,30.0,1.0,screwdriver02a.jpg,0.0,clock_6_1.png,6.0,1,,,,,,,,,,,,,,,,,,,,,,,,,,,,,,,,
0.0,1.0,0.659545,0.0,31.0,31.0,31.0,1.0,toaster_03s.jpg,0.0,clock_6_2.png,6.0,1,,,,,,,,,,,,,,,,,,,,,,,,,,,,,,,,
0.0,1.0,0.673425,0.0,32.0,32.0,32.0,1.0,toad_09s.jpg,0.0,clock_6_3.png,6.0,1,,,,,,,,,,,,,,,,,,,,,,,,,,,,,,,,
0.0,1.0,0.714205,0.0,33.0,33.0,33.0,1.0,pincushion_10s.jpg,0.0,clock_6_4.png,6.0,1,,,,,,,,,,,,,,,,,,,,,,,,,,,,,,,,
1.0,1.0,1.4275,0.0,34.0,34.0,34.0,1.0,screwdriver02a.jpg,1.0,clock_6_5.png,6.0,1,,,,,,,,,,,,,,,,,,,,,,,,,,,,,,,,
0.0,1.0,0.944685,0.0,35.0,35.0,35.0,1.0,coat_rack_01b.jpg,0.0,clock_6_6.png,6.0,1,,,,,,,,,,,,,,,,,,,,,,,,,,,,,,,,
,,,,,,,,,0.0,,,1,0.0,1.0,1.89863,0.0,0.0,0.0,0.0,1.0,loveseat_08s.jpg,treadmill_06s.jpg,,,,,,,,,,,,,,,,,,,,,,
,,,,,,,,,1.0,,,1,1.0,1.0,1.414,0.0,1.0,1.0,1.0,1.0,birdcage_08s.jpg,refrigerator_07s.jpg,,,,,,,,,,,,,,,,,,,,,,
,,,,,,,,,0.0,,,1,1.0,0.0,1.39366,0.0,2.0,2.0,2.0,1.0,toaster_03s.jpg,toilet_paper_12s.jpg,,,,,,,,,,,,,,,,,,,,,,
,,,,,,,,,0.0,,,1,1.0,0.0,1.717745,0.0,3.0,3.0,3.0,1.0,prism_10s.jpg,kite_04s.jpg,,,,,,,,,,,,,,,,,,,,,,
,,,,,,,,,1.0,,,1,0.0,0.0,0.01998,0.0,4.0,4.0,4.0,1.0,ladle_04s.jpg,koala_13s.jpg,,,,,,,,,,,,,,,,,,,,,,
,,,,,,,,,1.0,,,1,1.0,1.0,1.329005,0.0,5.0,5.0,5.0,1.0,camcorder_10s.jpg,jukebox_03n.jpg,,,,,,,,,,,,,,,,,,,,,,
0.0,1.0,1.200905,,,,,,marshmallow_08s.jpg,0.0,clockno_up.jpg,1.0,1,,,,,,,,,,,,,,,,,,0.0,0.0,0.0,0.0,1.0,,,,,,,,,,
0.0,1.0,0.900485,,,,,,exhaust_pipe_10s.jpg,0.0,clockno_default.jpg,1.0,1,,,,,,,,,,,,,,,,,,0.0,1.0,1.0,1.0,1.0,,,,,,,,,,
0.0,1.0,1.095585,,,,,,olive_05s.jpg,0.0,clockno_default.jpg,1.0,1,,,,,,,,,,,,,,,,,,0.0,2.0,2.0,2.0,1.0,,,,,,,,,,
0.0,1.0,1.47412,,,,,,chime_12s.jpg,0.0,clockno_default.jpg,1.0,1,,,,,,,,,,,,,,,,,,0.0,3.0,3.0,3.0,1.0,,,,,,,,,,
0.0,1.0,0.66144,,,,,,safety_pin_02s.jpg,0.0,clockno_default.jpg,1.0,1,,,,,,,,,,,,,,,,,,0.0,4.0,4.0,4.0,1.0,,,,,,,,,,
0.0,1.0,0.73426,,,,,,squirt_gun_03s.jpg,0.0,clockno_default.jpg,1.0,1,,,,,,,,,,,,,,,,,,0.0,5.0,5.0,5.0,1.0,,,,,,,,,,
0.0,1.0,0.616055,,,,,,seagull_01b.jpg,0.0,clockno_default.jpg,1.0,1,,,,,,,,,,,,,,,,,,0.0,6.0,6.0,6.0,1.0,,,,,,,,,,
0.0,1.0,0.74616,,,,,,sunflower_17s.jpg,0.0,clockno_up.jpg,2.0,1,,,,,,,,,,,,,,,,,,0.0,7.0,7.0,7.0,1.0,,,,,,,,,,
0.0,1.0,0.992075,,,,,,tile_08s.jpg,0.0,clockno_default.jpg,2.0,1,,,,,,,,,,,,,,,,,,0.0,8.0,8.0,8.0,1.0,,,,,,,,,,
0.0,1.0,0.796235,,,,,,butter_14s.jpg,0.0,clockno_default.jpg,2.0,1,,,,,,,,,,,,,,,,,,0.0,9.0,9.0,9.0,1.0,,,,,,,,,,
1.0,1.0,1.762945,,,,,,butter_14s.jpg,1.0,clockno_default.jpg,2.0,1,,,,,,,,,,,,,,,,,,0.0,10.0,10.0,10.0,1.0,,,,,,,,,,
0.0,1.0,1.123825,,,,,,safety_pin_02s.jpg,0.0,clockno_default.jpg,2.0,1,,,,,,,,,,,,,,,,,,0.0,11.0,11.0,11.0,1.0,,,,,,,,,,
0.0,1.0,0.724545,,,,,,owl_15s.jpg,0.0,clockno_default.jpg,2.0,1,,,,,,,,,,,,,,,,,,0.0,12.0,12.0,12.0,1.0,,,,,,,,,,
0.0,1.0,0.82522,,,,,,trampoline_13s.jpg,0.0,clockno_up.jpg,3.0,1,,,,,,,,,,,,,,,,,,0.0,13.0,13.0,13.0,1.0,,,,,,,,,,
0.0,1.0,0.889245,,,,,,penguin_16s.jpg,0.0,clockno_default.jpg,3.0,1,,,,,,,,,,,,,,,,,,0.0,14.0,14.0,14.0,1.0,,,,,,,,,,
0.0,1.0,0.692425,,,,,,espresso_01b.jpg,0.0,clockno_default.jpg,3.0,1,,,,,,,,,,,,,,,,,,0.0,15.0,15.0,15.0,1.0,,,,,,,,,,
0.0,1.0,0.822845,,,,,,smokingpipe.jpg,0.0,clockno_default.jpg,3.0,1,,,,,,,,,,,,,,,,,,0.0,16.0,16.0,16.0,1.0,,,,,,,,,,
0.0,1.0,0.99663,,,,,,ginger_09s.jpg,0.0,clockno_default.jpg,3.0,1,,,,,,,,,,,,,,,,,,0.0,17.0,17.0,17.0,1.0,,,,,,,,,,
0.0,1.0,0.79044,,,,,,lamb_04s.jpg,0.0,clockno_default.jpg,3.0,1,,,,,,,,,,,,,,,,,,0.0,18.0,18.0,18.0,1.0,,,,,,,,,,
0.0,1.0,0.873605,,,,,,tortilla_06s.jpg,0.0,clockno_default.jpg,3.0,1,,,,,,,,,,,,,,,,,,0.0,19.0,19.0,19.0,1.0,,,,,,,,,,
0.0,1.0,0.9103,,,,,,medal_04s.jpg,0.0,clockno_up.jpg,4.0,1,,,,,,,,,,,,,,,,,,0.0,20.0,20.0,20.0,1.0,,,,,,,,,,
0.0,1.0,0.814705,,,,,,laser_pointer_02s.jpg,0.0,clockno_default.jpg,4.0,1,,,,,,,,,,,,,,,,,,0.0,21.0,21.0,21.0,1.0,,,,,,,,,,
0.0,1.0,0.955025,,,,,,mango_09s.jpg,0.0,clockno_default.jpg,4.0,1,,,,,,,,,,,,,,,,,,0.0,22.0,22.0,22.0,1.0,,,,,,,,,,
1.0,1.0,1.13274,,,,,,medal_04s.jpg,1.0,clockno_default.jpg,4.0,1,,,,,,,,,,,,,,,,,,0.0,23.0,23.0,23.0,1.0,,,,,,,,,,
0.0,1.0,0.82855,,,,,,fire_alarm_05s.jpg,0.0,clockno_default.jpg,4.0,1,,,,,,,,,,,,,,,,,,0.0,24.0,24.0,24.0,1.0,,,,,,,,,,
0.0,1.0,0.86364,,,,,,tape_measure_11s.jpg,0.0,clockno_up.jpg,5.0,1,,,,,,,,,,,,,,,,,,0.0,25.0,25.0,25.0,1.0,,,,,,,,,,
0.0,1.0,0.7547,,,,,,piano_13n.jpg,0.0,clockno_default.jpg,5.0,1,,,,,,,,,,,,,,,,,,0.0,26.0,26.0,26.0,1.0,,,,,,,,,,
0.0,1.0,0.868355,,,,,,harpoon.jpg,0.0,clockno_default.jpg,5.0,1,,,,,,,,,,,,,,,,,,0.0,27.0,27.0,27.0,1.0,,,,,,,,,,
0.0,1.0,0.839,,,,,,lemonade_04s.jpg,0.0,clockno_default.jpg,5.0,1,,,,,,,,,,,,,,,,,,0.0,28.0,28.0,28.0,1.0,,,,,,,,,,
0.0,1.0,1.11795,,,,,,thumbtack_14s.jpg,0.0,clockno_default.jpg,5.0,1,,,,,,,,,,,,,,,,,,0.0,29.0,29.0,29.0,1.0,,,,,,,,,,
0.0,1.0,0.918535,,,,,,ink_08s.jpg,0.0,clockno_default.jpg,5.0,1,,,,,,,,,,,,,,,,,,0.0,30.0,30.0,30.0,1.0,,,,,,,,,,
0.0,1.0,0.985485,,,,,,pencil_sharpener_09n.jpg,0.0,clockno_up.jpg,6.0,1,,,,,,,,,,,,,,,,,,0.0,31.0,31.0,31.0,1.0,,,,,,,,,,
0.0,1.0,1.015915,,,,,,hydrant_10s.jpg,0.0,clockno_default.jpg,6.0,1,,,,,,,,,,,,,,,,,,0.0,32.0,32.0,32.0,1.0,,,,,,,,,,
0.0,1.0,1.02885,,,,,,punch1_10s.jpg,0.0,clockno_default.jpg,6.0,1,,,,,,,,,,,,,,,,,,0.0,33.0,33.0,33.0,1.0,,,,,,,,,,
0.0,1.0,1.14286,,,,,,crayon_09s.jpg,0.0,clockno_default.jpg,6.0,1,,,,,,,,,,,,,,,,,,0.0,34.0,34.0,34.0,1.0,,,,,,,,,,
1.0,1.0,0.948395,,,,,,punch1_10s.jpg,1.0,clockno_default.jpg,6.0,1,,,,,,,,,,,,,,,,,,0.0,35.0,35.0,35.0,1.0,,,,,,,,,,
,,,,,,,,,0.0,,,1,1.0,0.0,1.674045,,,,,,tile_08s.jpg,squirt_gun_03s.jpg,,,,,,,,,,,,,0.0,0.0,0.0,0.0,1.0,,,,,
,,,,,,,,,0.0,,,1,1.0,0.0,1.538025,,,,,,espresso_01b.jpg,owl_15s.jpg,,,,,,,,,,,,,0.0,1.0,1.0,1.0,1.0,,,,,
,,,,,,,,,1.0,,,1,1.0,1.0,1.4132,,,,,,tortilla_06s.jpg,mango_09s.jpg,,,,,,,,,,,,,0.0,2.0,2.0,2.0,1.0,,,,,
,,,,,,,,,0.0,,,1,0.0,1.0,1.232425,,,,,,chime_12s.jpg,marshmallow_08s.jpg,,,,,,,,,,,,,0.0,3.0,3.0,3.0,1.0,,,,,
,,,,,,,,,1.0,,,1,1.0,1.0,1.13129,,,,,,trampoline_13s.jpg,smokingpipe.jpg,,,,,,,,,,,,,0.0,4.0,4.0,4.0,1.0,,,,,
,,,,,,,,,1.0,,,1,1.0,1.0,1.20936,,,,,,penguin_16s.jpg,ginger_09s.jpg,,,,,,,,,,,,,0.0,5.0,5.0,5.0,1.0,,,,,
,,,,,,,,,,,,1,,,,,,,,,,,,,,,,clockno_present_1_18.xlsx,clockno_compare_task_1_18.xlsx,,,,,,,,,,,0.0,0.0,0.0,0.0,1.0
0.0,1.0,1.82717,,,,,,potpourri_03s.jpg,0.0,clockno_up.jpg,1.0,1,,,,,,,,,,,,,,,,,,0.0,0.0,0.0,0.0,1.0,,,,,,,,,,
0.0,1.0,0.82658,,,,,,chopsticks_08s.jpg,0.0,clockno_default.jpg,1.0,1,,,,,,,,,,,,,,,,,,0.0,1.0,1.0,1.0,1.0,,,,,,,,,,
0.0,1.0,0.81314,,,,,,slingshot_07s.jpg,0.0,clockno_default.jpg,1.0,1,,,,,,,,,,,,,,,,,,0.0,2.0,2.0,2.0,1.0,,,,,,,,,,
0.0,1.0,0.78912,,,,,,lid_10s.jpg,0.0,clockno_default.jpg,1.0,1,,,,,,,,,,,,,,,,,,0.0,3.0,3.0,3.0,1.0,,,,,,,,,,
0.0,1.0,0.680835,,,,,,bagel_15s.jpg,0.0,clockno_default.jpg,1.0,1,,,,,,,,,,,,,,,,,,0.0,4.0,4.0,4.0,1.0,,,,,,,,,,
1.0,1.0,1.030285,,,,,,potpourri_03s.jpg,1.0,clockno_default.jpg,1.0,1,,,,,,,,,,,,,,,,,,0.0,5.0,5.0,5.0,1.0,,,,,,,,,,
0.0,1.0,0.92591,,,,,,clover_04s.jpg,0.0,clockno_up.jpg,2.0,1,,,,,,,,,,,,,,,,,,0.0,6.0,6.0,6.0,1.0,,,,,,,,,,
0.0,1.0,0.71389,,,,,,dashboard_02s.jpg,0.0,clockno_default.jpg,2.0,1,,,,,,,,,,,,,,,,,,0.0,7.0,7.0,7.0,1.0,,,,,,,,,,
1.0,1.0,0.8253,,,,,,dashboard_02s.jpg,1.0,clockno_default.jpg,2.0,1,,,,,,,,,,,,,,,,,,0.0,8.0,8.0,8.0,1.0,,,,,,,,,,
0.0,1.0,0.82924,,,,,,soccer_ball_12s.jpg,0.0,clockno_default.jpg,2.0,1,,,,,,,,,,,,,,,,,,0.0,9.0,9.0,9.0,1.0,,,,,,,,,,
0.0,1.0,1.012345,,,,,,lava_02s.jpg,0.0,clockno_default.jpg,2.0,1,,,,,,,,,,,,,,,,,,0.0,10.0,10.0,10.0,1.0,,,,,,,,,,
1.0,1.0,1.075105,,,,,,dashboard_02s.jpg,1.0,clockno_default.jpg,2.0,1,,,,,,,,,,,,,,,,,,0.0,11.0,11.0,11.0,1.0,,,,,,,,,,
0.0,1.0,0.95553,,,,,,thread_08s.jpg,0.0,clockno_default.jpg,2.0,1,,,,,,,,,,,,,,,,,,0.0,12.0,12.0,12.0,1.0,,,,,,,,,,
0.0,1.0,0.68198,,,,,,bowler_hat_10s.jpg,0.0,clockno_up.jpg,3.0,1,,,,,,,,,,,,,,,,,,0.0,13.0,13.0,13.0,1.0,,,,,,,,,,
0.0,1.0,1.115115,,,,,,paintbrush_04s.jpg,0.0,clockno_default.jpg,3.0,1,,,,,,,,,,,,,,,,,,0.0,14.0,14.0,14.0,1.0,,,,,,,,,,
0.0,1.0,0.73688,,,,,,rollerskate_03s.jpg,0.0,clockno_default.jpg,3.0,1,,,,,,,,,,,,,,,,,,0.0,15.0,15.0,15.0,1.0,,,,,,,,,,
0.0,1.0,1.167665,,,,,,slingshot_07s.jpg,0.0,clockno_default.jpg,3.0,1,,,,,,,,,,,,,,,,,,0.0,16.0,16.0,16.0,1.0,,,,,,,,,,
0.0,1.0,1.239425,,,,,,clover_04s.jpg,0.0,clockno_default.jpg,3.0,1,,,,,,,,,,,,,,,,,,0.0,17.0,17.0,17.0,1.0,,,,,,,,,,
0.0,1.0,1.11231,,,,,,otter_05s.jpg,0.0,clockno_up.jpg,4.0,1,,,,,,,,,,,,,,,,,,0.0,18.0,18.0,18.0,1.0,,,,,,,,,,
0.0,1.0,0.64026,,,,,,teacup_07s.jpg,0.0,clockno_default.jpg,4.0,1,,,,,,,,,,,,,,,,,,0.0,19.0,19.0,19.0,1.0,,,,,,,,,,
0.0,1.0,0.98121,,,,,,joystick_01b.jpg,0.0,clockno_default.jpg,4.0,1,,,,,,,,,,,,,,,,,,0.0,20.0,20.0,20.0,1.0,,,,,,,,,,
0.0,1.0,1.08753,,,,,,paintbrush_04s.jpg,0.0,clockno_default.jpg,4.0,1,,,,,,,,,,,,,,,,,,0.0,21.0,21.0,21.0,1.0,,,,,,,,,,
1.0,1.0,0.991605,,,,,,joystick_01b.jpg,1.0,clockno_default.jpg,4.0,1,,,,,,,,,,,,,,,,,,0.0,22.0,22.0,22.0,1.0,,,,,,,,,,
0.0,1.0,1.099885,,,,,,flask_04s.jpg,0.0,clockno_up.jpg,5.0,1,,,,,,,,,,,,,,,,,,0.0,23.0,23.0,23.0,1.0,,,,,,,,,,
0.0,1.0,0.69581,,,,,,stapler_01b.jpg,0.0,clockno_default.jpg,5.0,1,,,,,,,,,,,,,,,,,,0.0,24.0,24.0,24.0,1.0,,,,,,,,,,
1.0,1.0,0.9882,,,,,,flask_04s.jpg,1.0,clockno_default.jpg,5.0,1,,,,,,,,,,,,,,,,,,0.0,25.0,25.0,25.0,1.0,,,,,,,,,,
0.0,1.0,0.76004,,,,,,kettle_08s.jpg,0.0,clockno_default.jpg,5.0,1,,,,,,,,,,,,,,,,,,0.0,26.0,26.0,26.0,1.0,,,,,,,,,,
0.0,1.0,0.68364,,,,,,playpen_11s.jpg,0.0,clockno_default.jpg,5.0,1,,,,,,,,,,,,,,,,,,0.0,27.0,27.0,27.0,1.0,,,,,,,,,,
0.0,1.0,0.732115,,,,,,red_carpet_03s.jpg,0.0,clockno_default.jpg,5.0,1,,,,,,,,,,,,,,,,,,0.0,28.0,28.0,28.0,1.0,,,,,,,,,,
1.0,1.0,2.25332,,,,,,kettle_08s.jpg,1.0,clockno_default.jpg,5.0,1,,,,,,,,,,,,,,,,,,0.0,29.0,29.0,29.0,1.0,,,,,,,,,,
0.0,1.0,1.029435,,,,,,oil_02s.jpg,0.0,clockno_up.jpg,6.0,1,,,,,,,,,,,,,,,,,,0.0,30.0,30.0,30.0,1.0,,,,,,,,,,
0.0,1.0,1.039085,,,,,,flask_04s.jpg,0.0,clockno_default.jpg,6.0,1,,,,,,,,,,,,,,,,,,0.0,31.0,31.0,31.0,1.0,,,,,,,,,,
0.0,1.0,0.66045,,,,,,bottle_opener_11s.jpg,0.0,clockno_default.jpg,6.0,1,,,,,,,,,,,,,,,,,,0.0,32.0,32.0,32.0,1.0,,,,,,,,,,
0.0,1.0,0.81878,,,,,,tuba_12s.jpg,0.0,clockno_default.jpg,6.0,1,,,,,,,,,,,,,,,,,,0.0,33.0,33.0,33.0,1.0,,,,,,,,,,
0.0,1.0,0.67294,,,,,,lifesaver_10s.jpg,0.0,clockno_default.jpg,6.0,1,,,,,,,,,,,,,,,,,,0.0,34.0,34.0,34.0,1.0,,,,,,,,,,
0.0,1.0,0.62496,,,,,,rocking_horse_03s.jpg,0.0,clockno_default.jpg,6.0,1,,,,,,,,,,,,,,,,,,0.0,35.0,35.0,35.0,1.0,,,,,,,,,,
,,,,,,,,,1.0,,,1,1.0,1.0,3.05784,,,,,,lava_02s.jpg,bowler_hat_10s.jpg,,,,,,,,,,,,,0.0,0.0,0.0,0.0,1.0,,,,,
,,,,,,,,,0.0,,,1,0.0,1.0,1.962825,,,,,,otter_05s.jpg,rollerskate_03s.jpg,,,,,,,,,,,,,0.0,1.0,1.0,1.0,1.0,,,,,
,,,,,,,,,1.0,,,1,1.0,1.0,1.511405,,,,,,playpen_11s.jpg,oil_02s.jpg,,,,,,,,,,,,,0.0,2.0,2.0,2.0,1.0,,,,,
,,,,,,,,,1.0,,,1,0.0,0.0,1.512165,,,,,,chopsticks_08s.jpg,bagel_15s.jpg,,,,,,,,,,,,,0.0,3.0,3.0,3.0,1.0,,,,,
,,,,,,,,,1.0,,,1,1.0,1.0,1.294285,,,,,,bottle_opener_11s.jpg,rocking_horse_03s.jpg,,,,,,,,,,,,,0.0,4.0,4.0,4.0,1.0,,,,,
,,,,,,,,,0.0,,,1,0.0,1.0,1.253875,,,,,,thread_08s.jpg,soccer_ball_12s.jpg,,,,,,,,,,,,,0.0,5.0,5.0,5.0,1.0,,,,,
,,,,,,,,,,,,1,,,,,,,,,,,,,,,,clockno_present_2_18.xlsx,clockno_compare_task_2_18.xlsx,,,,,,,,,,,0.0,1.0,1.0,1.0,1.0
0.0,1.0,1.147655,,,,,,tiger_06s.jpg,0.0,clockno_up.jpg,1.0,1,,,,,,,,,,,,,,,,,,0.0,0.0,0.0,0.0,1.0,,,,,,,,,,
0.0,1.0,0.84346,,,,,,kayak_08s.jpg,0.0,clockno_default.jpg,1.0,1,,,,,,,,,,,,,,,,,,0.0,1.0,1.0,1.0,1.0,,,,,,,,,,
0.0,1.0,1.241525,,,,,,ironing_board_07s.jpg,0.0,clockno_default.jpg,1.0,1,,,,,,,,,,,,,,,,,,0.0,2.0,2.0,2.0,1.0,,,,,,,,,,
0.0,1.0,0.848285,,,,,,lavender_10s.jpg,0.0,clockno_default.jpg,1.0,1,,,,,,,,,,,,,,,,,,0.0,3.0,3.0,3.0,1.0,,,,,,,,,,
0.0,1.0,0.58328,,,,,,onion_10s.jpg,0.0,clockno_default.jpg,1.0,1,,,,,,,,,,,,,,,,,,0.0,4.0,4.0,4.0,1.0,,,,,,,,,,
0.0,1.0,0.70589,,,,,,fireworks_18s.jpg,0.0,clockno_up.jpg,2.0,1,,,,,,,,,,,,,,,,,,0.0,5.0,5.0,5.0,1.0,,,,,,,,,,
0.0,1.0,0.649595,,,,,,fork_04s.jpg,0.0,clockno_default.jpg,2.0,1,,,,,,,,,,,,,,,,,,0.0,6.0,6.0,6.0,1.0,,,,,,,,,,
0.0,1.0,0.645365,,,,,,lantern_04s.jpg,0.0,clockno_default.jpg,2.0,1,,,,,,,,,,,,,,,,,,0.0,7.0,7.0,7.0,1.0,,,,,,,,,,
1.0,1.0,0.97453,,,,,,lantern_04s.jpg,1.0,clockno_default.jpg,2.0,1,,,,,,,,,,,,,,,,,,0.0,8.0,8.0,8.0,1.0,,,,,,,,,,
0.0,1.0,0.80023,,,,,,projector_08s.jpg,0.0,clockno_default.jpg,2.0,1,,,,,,,,,,,,,,,,,,0.0,9.0,9.0,9.0,1.0,,,,,,,,,,
0.0,1.0,0.92216,,,,,,glue_01s.jpg,0.0,clockno_up.jpg,3.0,1,,,,,,,,,,,,,,,,,,0.0,10.0,10.0,10.0,1.0,,,,,,,,,,
0.0,1.0,0.912605,,,,,,milk_02s.jpg,0.0,clockno_default.jpg,3.0,1,,,,,,,,,,,,,,,,,,0.0,11.0,11.0,11.0,1.0,,,,,,,,,,
0.0,1.0,1.074165,,,,,,coral_08s.jpg,0.0,clockno_default.jpg,3.0,1,,,,,,,,,,,,,,,,,,0.0,12.0,12.0,12.0,1.0,,,,,,,,,,
0.0,1.0,0.72383,,,,,,ladder_15s.jpg,0.0,clockno_default.jpg,3.0,1,,,,,,,,,,,,,,,,,,0.0,13.0,13.0,13.0,1.0,,,,,,,,,,
0.0,1.0,1.00846,,,,,,margarita_03s.jpg,0.0,clockno_default.jpg,3.0,1,,,,,,,,,,,,,,,,,,0.0,14.0,14.0,14.0,1.0,,,,,,,,,,
0.0,1.0,1.018055,,,,,,onion_10s.jpg,0.0,clockno_default.jpg,3.0,1,,,,,,,,,,,,,,,,,,0.0,15.0,15.0,15.0,1.0,,,,,,,,,,
0.0,1.0,0.82272,,,,,,pan_02s.jpg,0.0,clockno_default.jpg,3.0,1,,,,,,,,,,,,,,,,,,0.0,16.0,16.0,16.0,1.0,,,,,,,,,,
0.0,1.0,0.940795,,,,,,perfume_06s.jpg,0.0,clockno_up.jpg,4.0,1,,,,,,,,,,,,,,,,,,0.0,17.0,17.0,17.0,1.0,,,,,,,,,,
0.0,1.0,0.706965,,,,,,puddle_02s.jpg,0.0,clockno_default.jpg,4.0,1,,,,,,,,,,,,,,,,,,0.0,18.0,18.0,18.0,1.0,,,,,,,,,,
0.0,1.0,0.891275,,,,,,margarita_03s.jpg,0.0,clockno_default.jpg,4.0,1,,,,,,,,,,,,,,,,,,0.0,19.0,19.0,19.0,1.0,,,,,,,,,,
0.0,1.0,0.643585,,,,,,luggage_08s.jpg,0.0,clockno_default.jpg,4.0,1,,,,,,,,,,,,,,,,,,0.0,20.0,20.0,20.0,1.0,,,,,,,,,,
0.0,1.0,0.944025,,,,,,letter_opener_03s.jpg,0.0,clockno_default.jpg,4.0,1,,,,,,,,,,,,,,,,,,0.0,21.0,21.0,21.0,1.0,,,,,,,,,,
0.0,1.0,0.95319,,,,,,top_hat_11s.jpg,0.0,clockno_default.jpg,4.0,1,,,,,,,,,,,,,,,,,,0.0,22.0,22.0,22.0,1.0,,,,,,,,,,
0.0,1.0,0.716075,,,,,,turkey_10s.jpg,0.0,clockno_default.jpg,4.0,1,,,,,,,,,,,,,,,,,,0.0,23.0,23.0,23.0,1.0,,,,,,,,,,
0.0,1.0,0.928965,,,,,,inhaler_01b.jpg,0.0,clockno_up.jpg,5.0,1,,,,,,,,,,,,,,,,,,0.0,24.0,24.0,24.0,1.0,,,,,,,,,,
0.0,1.0,0.631335,,,,,,swing_set_15s.jpg,0.0,clockno_default.jpg,5.0,1,,,,,,,,,,,,,,,,,,0.0,25.0,25.0,25.0,1.0,,,,,,,,,,
0.0,1.0,0.716915,,,,,,memory_stick_11s.jpg,0.0,clockno_default.jpg,5.0,1,,,,,,,,,,,,,,,,,,0.0,26.0,26.0,26.0,1.0,,,,,,,,,,
1.0,1.0,1.28227,,,,,,inhaler_01b.jpg,1.0,clockno_default.jpg,5.0,1,,,,,,,,,,,,,,,,,,0.0,27.0,27.0,27.0,1.0,,,,,,,,,,
0.0,1.0,0.654305,,,,,,gingerbread_man_03s.jpg,0.0,clockno_default.jpg,5.0,1,,,,,,,,,,,,,,,,,,0.0,28.0,28.0,28.0,1.0,,,,,,,,,,
0.0,1.0,0.81911,,,,,,cushion_08s.jpg,0.0,clockno_default.jpg,5.0,1,,,,,,,,,,,,,,,,,,0.0,29.0,29.0,29.0,1.0,,,,,,,,,,
0.0,1.0,0.983865,,,,,,aluminum_foil_08s.jpg,0.0,clockno_up.jpg,6.0,1,,,,,,,,,,,,,,,,,,0.0,30.0,30.0,30.0,1.0,,,,,,,,,,
0.0,1.0,0.657845,,,,,,sleeping_bag_12s.jpg,0.0,clockno_default.jpg,6.0,1,,,,,,,,,,,,,,,,,,0.0,31.0,31.0,31.0,1.0,,,,,,,,,,
0.0,1.0,0.62555,,,,,,rock_08s.jpg,0.0,clockno_default.jpg,6.0,1,,,,,,,,,,,,,,,,,,0.0,32.0,32.0,32.0,1.0,,,,,,,,,,
0.0,1.0,0.64067,,,,,,stump_02s.jpg,0.0,clockno_default.jpg,6.0,1,,,,,,,,,,,,,,,,,,0.0,33.0,33.0,33.0,1.0,,,,,,,,,,
0.0,1.0,0.717715,,,,,,road_sign_05s.jpg,0.0,clockno_default.jpg,6.0,1,,,,,,,,,,,,,,,,,,0.0,34.0,34.0,34.0,1.0,,,,,,,,,,
0.0,1.0,0.957395,,,,,,tiger_06s.jpg,0.0,clockno_default.jpg,6.0,1,,,,,,,,,,,,,,,,,,0.0,35.0,35.0,35.0,1.0,,,,,,,,,,
,,,,,,,,,0.0,,,1,0.0,1.0,1.57814,,,,,,fireworks_18s.jpg,ironing_board_07s.jpg,,,,,,,,,,,,,0.0,0.0,0.0,0.0,1.0,,,,,
,,,,,,,,,0.0,,,1,0.0,1.0,1.34511,,,,,,fork_04s.jpg,lavender_10s.jpg,,,,,,,,,,,,,0.0,1.0,1.0,1.0,1.0,,,,,
,,,,,,,,,0.0,,,1,1.0,0.0,1.54699,,,,,,coral_08s.jpg,projector_08s.jpg,,,,,,,,,,,,,0.0,2.0,2.0,2.0,1.0,,,,,
,,,,,,,,,0.0,,,1,1.0,0.0,1.54317,,,,,,ladder_15s.jpg,glue_01s.jpg,,,,,,,,,,,,,0.0,3.0,3.0,3.0,1.0,,,,,
,,,,,,,,,0.0,,,1,1.0,0.0,1.51441,,,,,,luggage_08s.jpg,perfume_06s.jpg,,,,,,,,,,,,,0.0,4.0,4.0,4.0,1.0,,,,,
,,,,,,,,,1.0,,,1,1.0,1.0,1.497335,,,,,,puddle_02s.jpg,letter_opener_03s.jpg,,,,,,,,,,,,,0.0,5.0,5.0,5.0,1.0,,,,,
,,,,,,,,,,,,1,,,,,,,,,,,,,,,,clockno_present_3_18.xlsx,clockno_compare_task_3_18.xlsx,,,,,,,,,,,0.0,2.0,2.0,2.0,1.0
0.0,1.0,0.835435,,,,,,pie_08s.jpg,0.0,clockno_up.jpg,1.0,1,,,,,,,,,,,,,,,,,,0.0,0.0,0.0,0.0,1.0,,,,,,,,,,
0.0,1.0,0.774365,,,,,,tab_09s.jpg,0.0,clockno_default.jpg,1.0,1,,,,,,,,,,,,,,,,,,0.0,1.0,1.0,1.0,1.0,,,,,,,,,,
0.0,1.0,0.667055,,,,,,umbrella_15s.jpg,0.0,clockno_default.jpg,1.0,1,,,,,,,,,,,,,,,,,,0.0,2.0,2.0,2.0,1.0,,,,,,,,,,
1.0,1.0,0.83032,,,,,,tab_09s.jpg,1.0,clockno_default.jpg,1.0,1,,,,,,,,,,,,,,,,,,0.0,3.0,3.0,3.0,1.0,,,,,,,,,,
0.0,1.0,0.8944,,,,,,quad_04s.jpg,0.0,clockno_default.jpg,1.0,1,,,,,,,,,,,,,,,,,,0.0,4.0,4.0,4.0,1.0,,,,,,,,,,
0.0,1.0,0.71185,,,,,,racehorse_03s.jpg,0.0,clockno_default.jpg,1.0,1,,,,,,,,,,,,,,,,,,0.0,5.0,5.0,5.0,1.0,,,,,,,,,,
0.0,1.0,1.0412,,,,,,jelly_bean_06s.jpg,0.0,clockno_up.jpg,2.0,1,,,,,,,,,,,,,,,,,,0.0,6.0,6.0,6.0,1.0,,,,,,,,,,
0.0,1.0,0.512505,,,,,,key_07s.jpg,0.0,clockno_default.jpg,2.0,1,,,,,,,,,,,,,,,,,,0.0,7.0,7.0,7.0,1.0,,,,,,,,,,
0.0,1.0,0.623495,,,,,,target_11s.jpg,0.0,clockno_default.jpg,2.0,1,,,,,,,,,,,,,,,,,,0.0,8.0,8.0,8.0,1.0,,,,,,,,,,
0.0,1.0,0.845505,,,,,,air_pump_05s.jpg,0.0,clockno_default.jpg,2.0,1,,,,,,,,,,,,,,,,,,0.0,9.0,9.0,9.0,1.0,,,,,,,,,,
0.0,1.0,0.641265,,,,,,paper_bag_12s.jpg,0.0,clockno_default.jpg,2.0,1,,,,,,,,,,,,,,,,,,0.0,10.0,10.0,10.0,1.0,,,,,,,,,,
0.0,1.0,0.648745,,,,,,frame_06s.jpg,0.0,clockno_default.jpg,2.0,1,,,,,,,,,,,,,,,,,,0.0,11.0,11.0,11.0,1.0,,,,,,,,,,
0.0,1.0,0.71521,,,,,,tambourine_06s.jpg,0.0,clockno_default.jpg,2.0,1,,,,,,,,,,,,,,,,,,0.0,12.0,12.0,12.0,1.0,,,,,,,,,,
0.0,1.0,1.01285,,,,,,crate_05s.jpg,0.0,clockno_up.jpg,3.0,1,,,,,,,,,,,,,,,,,,0.0,13.0,13.0,13.0,1.0,,,,,,,,,,
0.0,1.0,0.89008,,,,,,chip_04s.jpg,0.0,clockno_default.jpg,3.0,1,,,,,,,,,,,,,,,,,,0.0,14.0,14.0,14.0,1.0,,,,,,,,,,
0.0,1.0,0.777485,,,,,,lipstick_02s.jpg,0.0,clockno_default.jpg,3.0,1,,,,,,,,,,,,,,,,,,0.0,15.0,15.0,15.0,1.0,,,,,,,,,,
0.0,1.0,0.85046,,,,,,go-kart_10s.jpg,0.0,clockno_default.jpg,3.0,1,,,,,,,,,,,,,,,,,,0.0,16.0,16.0,16.0,1.0,,,,,,,,,,
1.0,1.0,1.416055,,,,,,crate_05s.jpg,1.0,clockno_default.jpg,3.0,1,,,,,,,,,,,,,,,,,,0.0,17.0,17.0,17.0,1.0,,,,,,,,,,
0.0,1.0,0.956465,,,,,,ravioli_08s.jpg,0.0,clockno_default.jpg,3.0,1,,,,,,,,,,,,,,,,,,0.0,18.0,18.0,18.0,1.0,,,,,,,,,,
0.0,1.0,0.793635,,,,,,latch_15s.jpg,0.0,clockno_default.jpg,3.0,1,,,,,,,,,,,,,,,,,,0.0,19.0,19.0,19.0,1.0,,,,,,,,,,
0.0,1.0,0.614295,,,,,,tulip_02s.jpg,0.0,clockno_up.jpg,4.0,1,,,,,,,,,,,,,,,,,,0.0,20.0,20.0,20.0,1.0,,,,,,,,,,
0.0,1.0,0.782015,,,,,,foam_03s.jpg,0.0,clockno_default.jpg,4.0,1,,,,,,,,,,,,,,,,,,0.0,21.0,21.0,21.0,1.0,,,,,,,,,,
0.0,1.0,0.887305,,,,,,leotard_08s.jpg,0.0,clockno_default.jpg,4.0,1,,,,,,,,,,,,,,,,,,0.0,22.0,22.0,22.0,1.0,,,,,,,,,,
0.0,1.0,1.04292,,,,,,blender_08s.jpg,0.0,clockno_default.jpg,4.0,1,,,,,,,,,,,,,,,,,,0.0,23.0,23.0,23.0,1.0,,,,,,,,,,
1.0,1.0,0.943995,,,,,,leotard_08s.jpg,1.0,clockno_default.jpg,4.0,1,,,,,,,,,,,,,,,,,,0.0,24.0,24.0,24.0,1.0,,,,,,,,,,
0.0,1.0,0.774705,,,,,,tuxedo_01b.jpg,0.0,clockno_default.jpg,4.0,1,,,,,,,,,,,,,,,,,,0.0,25.0,25.0,25.0,1.0,,,,,,,,,,
0.0,1.0,1.109015,,,,,,sunglasses_11s.jpg,0.0,clockno_up.jpg,5.0,1,,,,,,,,,,,,,,,,,,0.0,26.0,26.0,26.0,1.0,,,,,,,,,,
0.0,1.0,0.819535,,,,,,tweezers_03s.jpg,0.0,clockno_default.jpg,5.0,1,,,,,,,,,,,,,,,,,,0.0,27.0,27.0,27.0,1.0,,,,,,,,,,
0.0,1.0,0.82701,,,,,,kimono_13s.jpg,0.0,clockno_default.jpg,5.0,1,,,,,,,,,,,,,,,,,,0.0,28.0,28.0,28.0,1.0,,,,,,,,,,
0.0,1.0,0.65749,,,,,,pineapple_12s.jpg,0.0,clockno_default.jpg,5.0,1,,,,,,,,,,,,,,,,,,0.0,29.0,29.0,29.0,1.0,,,,,,,,,,
0.0,1.0,0.59773,,,,,,measuring_cup_02s.jpg,0.0,clockno_default.jpg,5.0,1,,,,,,,,,,,,,,,,,,0.0,30.0,30.0,30.0,1.0,,,,,,,,,,
0.0,1.0,0.55751,,,,,,ant_12s.jpg,0.0,clockno_up.jpg,6.0,1,,,,,,,,,,,,,,,,,,0.0,31.0,31.0,31.0,1.0,,,,,,,,,,
0.0,1.0,1.03743,,,,,,measuring_cup_02s.jpg,0.0,clockno_default.jpg,6.0,1,,,,,,,,,,,,,,,,,,0.0,32.0,32.0,32.0,1.0,,,,,,,,,,
0.0,1.0,0.82562,,,,,,stamp1_11s.jpg,0.0,clockno_default.jpg,6.0,1,,,,,,,,,,,,,,,,,,0.0,33.0,33.0,33.0,1.0,,,,,,,,,,
0.0,1.0,0.69019,,,,,,cucumber_07s.jpg,0.0,clockno_default.jpg,6.0,1,,,,,,,,,,,,,,,,,,0.0,34.0,34.0,34.0,1.0,,,,,,,,,,
0.0,1.0,0.87371,,,,,,panda_02s.jpg,0.0,clockno_default.jpg,6.0,1,,,,,,,,,,,,,,,,,,0.0,35.0,35.0,35.0,1.0,,,,,,,,,,
,,,,,,,,,0.0,,,1,1.0,0.0,1.18048,,,,,,kimono_13s.jpg,tuxedo_01b.jpg,,,,,,,,,,,,,0.0,0.0,0.0,0.0,1.0,,,,,
,,,,,,,,,0.0,,,1,1.0,0.0,1.395095,,,,,,key_07s.jpg,quad_04s.jpg,,,,,,,,,,,,,0.0,1.0,1.0,1.0,1.0,,,,,
,,,,,,,,,0.0,,,1,0.0,1.0,1.080535,,,,,,chip_04s.jpg,frame_06s.jpg,,,,,,,,,,,,,0.0,2.0,2.0,2.0,1.0,,,,,
,,,,,,,,,1.0,,,1,0.0,0.0,1.44673,,,,,,jelly_bean_06s.jpg,air_pump_05s.jpg,,,,,,,,,,,,,0.0,3.0,3.0,3.0,1.0,,,,,
,,,,,,,,,0.0,,,1,1.0,0.0,1.42328,,,,,,latch_15s.jpg,go-kart_10s.jpg,,,,,,,,,,,,,0.0,4.0,4.0,4.0,1.0,,,,,
,,,,,,,,,0.0,,,1,0.0,1.0,1.085415,,,,,,racehorse_03s.jpg,umbrella_15s.jpg,,,,,,,,,,,,,0.0,5.0,5.0,5.0,1.0,,,,,
,,,,,,,,,,,,1,,,,,,,,,,,,,,,,clockno_present_4_18.xlsx,clockno_compare_task_4_18.xlsx,,,,,,,,,,,0.0,3.0,3.0,3.0,1.0
0.0,1.0,1.48092,,,,,,swimming_pool_17s.jpg,0.0,clockno_up.jpg,1.0,1,,,,,,,,,,,,,,,,,,0.0,0.0,0.0,0.0,1.0,,,,,,,,,,
1.0,1.0,0.85771,,,,,,swimming_pool_17s.jpg,1.0,clockno_default.jpg,1.0,1,,,,,,,,,,,,,,,,,,0.0,1.0,1.0,1.0,1.0,,,,,,,,,,
0.0,1.0,0.7917,,,,,,poinsettia_04s.jpg,0.0,clockno_default.jpg,1.0,1,,,,,,,,,,,,,,,,,,0.0,2.0,2.0,2.0,1.0,,,,,,,,,,
0.0,1.0,0.685045,,,,,,toilet_07s.jpg,0.0,clockno_default.jpg,1.0,1,,,,,,,,,,,,,,,,,,0.0,3.0,3.0,3.0,1.0,,,,,,,,,,
0.0,1.0,0.798375,,,,,,razor_12s.jpg,0.0,clockno_default.jpg,1.0,1,,,,,,,,,,,,,,,,,,0.0,4.0,4.0,4.0,1.0,,,,,,,,,,
0.0,1.0,0.977215,,,,,,bathtub_23s.jpg,0.0,clockno_default.jpg,1.0,1,,,,,,,,,,,,,,,,,,0.0,5.0,5.0,5.0,1.0,,,,,,,,,,
0.0,1.0,0.83887,,,,,,raccoon_02s.jpg,0.0,clockno_default.jpg,1.0,1,,,,,,,,,,,,,,,,,,0.0,6.0,6.0,6.0,1.0,,,,,,,,,,
0.0,1.0,1.03766,,,,,,gazelle_10s.jpg,0.0,clockno_up.jpg,2.0,1,,,,,,,,,,,,,,,,,,0.0,7.0,7.0,7.0,1.0,,,,,,,,,,
0.0,1.0,0.81024,,,,,,mud_13s.jpg,0.0,clockno_default.jpg,2.0,1,,,,,,,,,,,,,,,,,,0.0,8.0,8.0,8.0,1.0,,,,,,,,,,
0.0,1.0,0.732495,,,,,,raspberry_12s.jpg,0.0,clockno_default.jpg,2.0,1,,,,,,,,,,,,,,,,,,0.0,9.0,9.0,9.0,1.0,,,,,,,,,,
0.0,1.0,0.738815,,,,,,typewriter_11s.jpg,0.0,clockno_default.jpg,2.0,1,,,,,,,,,,,,,,,,,,0.0,10.0,10.0,10.0,1.0,,,,,,,,,,
0.0,1.0,0.73195,,,,,,golf_club_03s.jpg,0.0,clockno_default.jpg,2.0,1,,,,,,,,,,,,,,,,,,0.0,11.0,11.0,11.0,1.0,,,,,,,,,,
1.0,1.0,0.855985,,,,,,typewriter_11s.jpg,1.0,clockno_default.jpg,2.0,1,,,,,,,,,,,,,,,,,,0.0,12.0,12.0,12.0,1.0,,,,,,,,,,
0.0,1.0,0.843935,,,,,,beard_16s.jpg,0.0,clockno_default.jpg,2.0,1,,,,,,,,,,,,,,,,,,0.0,13.0,13.0,13.0,1.0,,,,,,,,,,
0.0,1.0,0.71092,,,,,,punch2_09s.jpg,0.0,clockno_up.jpg,3.0,1,,,,,,,,,,,,,,,,,,0.0,14.0,14.0,14.0,1.0,,,,,,,,,,
0.0,1.0,0.82446,,,,,,treasure_08s.jpg,0.0,clockno_default.jpg,3.0,1,,,,,,,,,,,,,,,,,,0.0,15.0,15.0,15.0,1.0,,,,,,,,,,
0.0,1.0,0.81506,,,,,,film_03s.jpg,0.0,clockno_default.jpg,3.0,1,,,,,,,,,,,,,,,,,,0.0,16.0,16.0,16.0,1.0,,,,,,,,,,
0.0,1.0,0.65258,,,,,,mixer_12s.jpg,0.0,clockno_default.jpg,3.0,1,,,,,,,,,,,,,,,,,,0.0,17.0,17.0,17.0,1.0,,,,,,,,,,
0.0,1.0,0.57812,,,,,,poinsettia_04s.jpg,0.0,clockno_default.jpg,3.0,1,,,,,,,,,,,,,,,,,,0.0,18.0,18.0,18.0,1.0,,,,,,,,,,
0.0,1.0,0.608245,,,,,,radio_09s.jpg,0.0,clockno_default.jpg,3.0,1,,,,,,,,,,,,,,,,,,0.0,19.0,19.0,19.0,1.0,,,,,,,,,,
0.0,1.0,0.64482,,,,,,possum_09s.jpg,0.0,clockno_up.jpg,4.0,1,,,,,,,,,,,,,,,,,,0.0,20.0,20.0,20.0,1.0,,,,,,,,,,
0.0,1.0,0.892815,,,,,,ram_05s.jpg,0.0,clockno_default.jpg,4.0,1,,,,,,,,,,,,,,,,,,0.0,21.0,21.0,21.0,1.0,,,,,,,,,,
0.0,1.0,0.875995,,,,,,gear_07s.jpg,0.0,clockno_default.jpg,4.0,1,,,,,,,,,,,,,,,,,,0.0,22.0,22.0,22.0,1.0,,,,,,,,,,
0.0,1.0,0.85355,,,,,,orangutan_03s.jpg,0.0,clockno_default.jpg,4.0,1,,,,,,,,,,,,,,,,,,0.0,23.0,23.0,23.0,1.0,,,,,,,,,,
0.0,1.0,0.85298,,,,,,hyena_16s.jpg,0.0,clockno_default.jpg,4.0,1,,,,,,,,,,,,,,,,,,0.0,24.0,24.0,24.0,1.0,,,,,,,,,,
0.0,1.0,1.098535,,,,,,puck_06s.jpg,0.0,clockno_up.jpg,5.0,1,,,,,,,,,,,,,,,,,,0.0,25.0,25.0,25.0,1.0,,,,,,,,,,
0.0,1.0,0.929315,,,,,,golf_club_03s.jpg,0.0,clockno_default.jpg,5.0,1,,,,,,,,,,,,,,,,,,0.0,26.0,26.0,26.0,1.0,,,,,,,,,,
0.0,1.0,1.0828,,,,,,stingray_02s.jpg,0.0,clockno_default.jpg,5.0,1,,,,,,,,,,,,,,,,,,0.0,27.0,27.0,27.0,1.0,,,,,,,,,,
1.0,1.0,0.753635,,,,,,stingray_02s.jpg,1.0,clockno_default.jpg,5.0,1,,,,,,,,,,,,,,,,,,0.0,28.0,28.0,28.0,1.0,,,,,,,,,,
0.0,1.0,0.940905,,,,,,chalice_10s.jpg,0.0,clockno_default.jpg,5.0,1,,,,,,,,,,,,,,,,,,0.0,29.0,29.0,29.0,1.0,,,,,,,,,,
0.0,1.0,1.02492,,,,,,pepper_mill_03s.jpg,0.0,clockno_up.jpg,6.0,1,,,,,,,,,,,,,,,,,,0.0,30.0,30.0,30.0,1.0,,,,,,,,,,
0.0,1.0,0.788255,,,,,,parachute_03s.jpg,0.0,clockno_default.jpg,6.0,1,,,,,,,,,,,,,,,,,,0.0,31.0,31.0,31.0,1.0,,,,,,,,,,
0.0,1.0,0.74811,,,,,,pinwheel_06s.jpg,0.0,clockno_default.jpg,6.0,1,,,,,,,,,,,,,,,,,,0.0,32.0,32.0,32.0,1.0,,,,,,,,,,
0.0,1.0,0.66126,,,,,,iron_13s.jpg,0.0,clockno_default.jpg,6.0,1,,,,,,,,,,,,,,,,,,0.0,33.0,33.0,33.0,1.0,,,,,,,,,,
0.0,0.0,0.96935,,,,,,pepper_mill_03s.jpg,1.0,clockno_default.jpg,6.0,1,,,,,,,,,,,,,,,,,,0.0,34.0,34.0,34.0,1.0,,,,,,,,,,
0.0,1.0,0.65788,,,,,,basket_05s.jpg,0.0,clockno_default.jpg,6.0,1,,,,,,,,,,,,,,,,,,0.0,35.0,35.0,35.0,1.0,,,,,,,,,,
,,,,,,,,,1.0,,,1,0.0,0.0,1.89091,,,,,,razor_12s.jpg,gazelle_10s.jpg,,,,,,,,,,,,,0.0,0.0,0.0,0.0,1.0,,,,,
,,,,,,,,,0.0,,,1,0.0,1.0,1.385025,,,,,,mud_13s.jpg,bathtub_23s.jpg,,,,,,,,,,,,,0.0,1.0,1.0,1.0,1.0,,,,,
,,,,,,,,,1.0,,,1,0.0,0.0,1.44568,,,,,,gear_07s.jpg,puck_06s.jpg,,,,,,,,,,,,,0.0,2.0,2.0,2.0,1.0,,,,,
,,,,,,,,,0.0,,,1,1.0,0.0,1.567975,,,,,,hyena_16s.jpg,ram_05s.jpg,,,,,,,,,,,,,0.0,3.0,3.0,3.0,1.0,,,,,
,,,,,,,,,1.0,,,1,1.0,1.0,1.13528,,,,,,toilet_07s.jpg,raccoon_02s.jpg,,,,,,,,,,,,,0.0,4.0,4.0,4.0,1.0,,,,,
,,,,,,,,,0.0,,,1,1.0,0.0,1.600425,,,,,,mixer_12s.jpg,punch2_09s.jpg,,,,,,,,,,,,,0.0,5.0,5.0,5.0,1.0,,,,,
,,,,,,,,,,,,1,,,,,,,,,,,,,,,,clockno_present_5_18.xlsx,clockno_compare_task_5_18.xlsx,,,,,,,,,,,0.0,4.0,4.0,4.0,1.0
0.0,1.0,1.29731,,,,,,spacesuit_02s.jpg,0.0,clockno_up.jpg,1.0,1,,,,,,,,,,,,,,,,,,0.0,0.0,0.0,0.0,1.0,,,,,,,,,,
0.0,1.0,0.767815,,,,,,megaphone_03s.jpg,0.0,clockno_default.jpg,1.0,1,,,,,,,,,,,,,,,,,,0.0,1.0,1.0,1.0,1.0,,,,,,,,,,
0.0,1.0,0.78985,,,,,,power_line_08s.jpg,0.0,clockno_default.jpg,1.0,1,,,,,,,,,,,,,,,,,,0.0,2.0,2.0,2.0,1.0,,,,,,,,,,
0.0,1.0,0.67231,,,,,,insole_11s.jpg,0.0,clockno_default.jpg,1.0,1,,,,,,,,,,,,,,,,,,0.0,3.0,3.0,3.0,1.0,,,,,,,,,,
0.0,1.0,0.70642,,,,,,turtle_08s.jpg,0.0,clockno_default.jpg,1.0,1,,,,,,,,,,,,,,,,,,0.0,4.0,4.0,4.0,1.0,,,,,,,,,,
0.0,1.0,1.316665,,,,,,checkbook_11s.jpg,0.0,clockno_up.jpg,2.0,1,,,,,,,,,,,,,,,,,,0.0,5.0,5.0,5.0,1.0,,,,,,,,,,
0.0,1.0,0.676545,,,,,,sundae_08s.jpg,0.0,clockno_default.jpg,2.0,1,,,,,,,,,,,,,,,,,,0.0,6.0,6.0,6.0,1.0,,,,,,,,,,
0.0,1.0,0.56266,,,,,,puppet_01b.jpg,0.0,clockno_default.jpg,2.0,1,,,,,,,,,,,,,,,,,,0.0,7.0,7.0,7.0,1.0,,,,,,,,,,
0.0,1.0,0.76036,,,,,,spacesuit_02s.jpg,0.0,clockno_default.jpg,2.0,1,,,,,,,,,,,,,,,,,,0.0,8.0,8.0,8.0,1.0,,,,,,,,,,
0.0,1.0,0.85059,,,,,,popsicle_02s.jpg,0.0,clockno_default.jpg,2.0,1,,,,,,,,,,,,,,,,,,0.0,9.0,9.0,9.0,1.0,,,,,,,,,,
0.0,1.0,0.867505,,,,,,tinsel_12s.jpg,0.0,clockno_default.jpg,2.0,1,,,,,,,,,,,,,,,,,,0.0,10.0,10.0,10.0,1.0,,,,,,,,,,
0.0,1.0,0.89118,,,,,,saddle_06s.jpg,0.0,clockno_up.jpg,3.0,1,,,,,,,,,,,,,,,,,,0.0,11.0,11.0,11.0,1.0,,,,,,,,,,
0.0,1.0,0.589765,,,,,,tomato_sauce_09s.jpg,0.0,clockno_default.jpg,3.0,1,,,,,,,,,,,,,,,,,,0.0,12.0,12.0,12.0,1.0,,,,,,,,,,
0.0,1.0,0.56405,,,,,,laundry_basket_11s.jpg,0.0,clockno_default.jpg,3.0,1,,,,,,,,,,,,,,,,,,0.0,13.0,13.0,13.0,1.0,,,,,,,,,,
0.0,1.0,0.85131,,,,,,knitting_needle_04s.jpg,0.0,clockno_default.jpg,3.0,1,,,,,,,,,,,,,,,,,,0.0,14.0,14.0,14.0,1.0,,,,,,,,,,
1.0,1.0,1.27753,,,,,,tomato_sauce_09s.jpg,1.0,clockno_default.jpg,3.0,1,,,,,,,,,,,,,,,,,,0.0,15.0,15.0,15.0,1.0,,,,,,,,,,
0.0,1.0,0.68906,,,,,,moth_06n.jpg,0.0,clockno_up.jpg,4.0,1,,,,,,,,,,,,,,,,,,0.0,16.0,16.0,16.0,1.0,,,,,,,,,,
1.0,1.0,0.964235,,,,,,moth_06n.jpg,1.0,clockno_default.jpg,4.0,1,,,,,,,,,,,,,,,,,,0.0,17.0,17.0,17.0,1.0,,,,,,,,,,
0.0,1.0,0.69487,,,,,,tube_top_03s.jpg,0.0,clockno_default.jpg,4.0,1,,,,,,,,,,,,,,,,,,0.0,18.0,18.0,18.0,1.0,,,,,,,,,,
0.0,1.0,0.862235,,,,,,juicer1_08s.jpg,0.0,clockno_default.jpg,4.0,1,,,,,,,,,,,,,,,,,,0.0,19.0,19.0,19.0,1.0,,,,,,,,,,
0.0,1.0,1.00835,,,,,,plaster_cast_13s.jpg,0.0,clockno_default.jpg,4.0,1,,,,,,,,,,,,,,,,,,0.0,20.0,20.0,20.0,1.0,,,,,,,,,,
0.0,1.0,0.823395,,,,,,knot_01b.jpg,0.0,clockno_default.jpg,4.0,1,,,,,,,,,,,,,,,,,,0.0,21.0,21.0,21.0,1.0,,,,,,,,,,
0.0,1.0,0.954465,,,,,,insole_11s.jpg,0.0,clockno_default.jpg,4.0,1,,,,,,,,,,,,,,,,,,0.0,22.0,22.0,22.0,1.0,,,,,,,,,,
0.0,1.0,0.885125,,,,,,frog_09s.jpg,0.0,clockno_up.jpg,5.0,1,,,,,,,,,,,,,,,,,,0.0,23.0,23.0,23.0,1.0,,,,,,,,,,
1.0,1.0,0.838775,,,,,,frog_09s.jpg,1.0,clockno_default.jpg,5.0,1,,,,,,,,,,,,,,,,,,0.0,24.0,24.0,24.0,1.0,,,,,,,,,,
0.0,1.0,0.657435,,,,,,icicle_04s.jpg,0.0,clockno_default.jpg,5.0,1,,,,,,,,,,,,,,,,,,0.0,25.0,25.0,25.0,1.0,,,,,,,,,,
0.0,1.0,0.57624,,,,,,trumpet_06s.jpg,0.0,clockno_default.jpg,5.0,1,,,,,,,,,,,,,,,,,,0.0,26.0,26.0,26.0,1.0,,,,,,,,,,
0.0,1.0,0.70562,,,,,,touchpad_11s.jpg,0.0,clockno_default.jpg,5.0,1,,,,,,,,,,,,,,,,,,0.0,27.0,27.0,27.0,1.0,,,,,,,,,,
1.0,1.0,0.82048,,,,,,trumpet_06s.jpg,1.0,clockno_default.jpg,5.0,1,,,,,,,,,,,,,,,,,,0.0,28.0,28.0,28.0,1.0,,,,,,,,,,
0.0,1.0,0.79789,,,,,,lamb_chop_07s.jpg,0.0,clockno_up.jpg,6.0,1,,,,,,,,,,,,,,,,,,0.0,29.0,29.0,29.0,1.0,,,,,,,,,,
0.0,1.0,0.794365,,,,,,rocket_02s.jpg,0.0,clockno_default.jpg,6.0,1,,,,,,,,,,,,,,,,,,0.0,30.0,30.0,30.0,1.0,,,,,,,,,,
0.0,1.0,0.895245,,,,,,candy_cane_06s.jpg,0.0,clockno_default.jpg,6.0,1,,,,,,,,,,,,,,,,,,0.0,31.0,31.0,31.0,1.0,,,,,,,,,,
0.0,1.0,0.726805,,,,,,coffee_filter_10s.jpg,0.0,clockno_default.jpg,6.0,1,,,,,,,,,,,,,,,,,,0.0,32.0,32.0,32.0,1.0,,,,,,,,,,
1.0,1.0,0.980455,,,,,,candy_cane_06s.jpg,1.0,clockno_default.jpg,6.0,1,,,,,,,,,,,,,,,,,,0.0,33.0,33.0,33.0,1.0,,,,,,,,,,
1.0,1.0,0.759875,,,,,,candy_cane_06s.jpg,1.0,clockno_default.jpg,6.0,1,,,,,,,,,,,,,,,,,,0.0,34.0,34.0,34.0,1.0,,,,,,,,,,
0.0,1.0,1.147795,,,,,,emerald_02s.jpg,0.0,clockno_default.jpg,6.0,1,,,,,,,,,,,,,,,,,,0.0,35.0,35.0,35.0,1.0,,,,,,,,,,
,,,,,,,,,1.0,,,1,0.0,0.0,1.81514,,,,,,power_line_08s.jpg,checkbook_11s.jpg,,,,,,,,,,,,,0.0,0.0,0.0,0.0,1.0,,,,,
,,,,,,,,,1.0,,,1,1.0,1.0,1.06784,,,,,,touchpad_11s.jpg,rocket_02s.jpg,,,,,,,,,,,,,0.0,1.0,1.0,1.0,1.0,,,,,
,,,,,,,,,0.0,,,1,0.0,1.0,1.53117,,,,,,laundry_basket_11s.jpg,tinsel_12s.jpg,,,,,,,,,,,,,0.0,2.0,2.0,2.0,1.0,,,,,
,,,,,,,,,1.0,,,1,1.0,1.0,1.284295,,,,,,sundae_08s.jpg,popsicle_02s.jpg,,,,,,,,,,,,,0.0,3.0,3.0,3.0,1.0,,,,,
,,,,,,,,,0.0,,,1,1.0,0.0,1.396805,,,,,,knitting_needle_04s.jpg,saddle_06s.jpg,,,,,,,,,,,,,0.0,4.0,4.0,4.0,1.0,,,,,
,,,,,,,,,1.0,,,1,0.0,0.0,1.3173,,,,,,tube_top_03s.jpg,knot_01b.jpg,,,,,,,,,,,,,0.0,5.0,5.0,5.0,1.0,,,,,
