key_resp.keys,key_resp.corr,present_segment.thisRepN,present_segment.thisTrialN,present_segment.thisN,present_segment.thisIndex,present_segment.ran,pictures,answer,clock,segment,participant,key_resp.rt,key_resp_2.keys,key_resp_2.corr,key_resp_2.rt,compare_segment.thisRepN,compare_segment.thisTrialN,compare_segment.thisN,compare_segment.thisIndex,compare_segment.ran,item_a,item_b,clock_conditions.thisRepN,clock_conditions.thisTrialN,clock_conditions.thisN,clock_conditions.thisIndex,clock_conditions.ran,present,compare,noclock_present.thisRepN,noclock_present.thisTrialN,noclock_present.thisN,noclock_present.thisIndex,noclock_present.ran,noclock_compare.thisRepN,noclock_compare.thisTrialN,noclock_compare.thisN,noclock_compare.thisIndex,noclock_compare.ran,noclock_conditions.thisRepN,noclock_conditions.thisTrialN,noclock_conditions.thisN,noclock_conditions.thisIndex,noclock_conditions.ran
,0.0,0.0,0.0,0.0,0.0,1.0,throne_11s.jpg,0.0,clock_7_1.png,1.0,56,,,,,,,,,,,,,,,,,,,,,,,,,,,,,,,,,
1.0,0.0,0.0,1.0,1.0,1.0,1.0,swimming_pool_17s.jpg,0.0,clock_7_2.png,1.0,56,1.82145,,,,,,,,,,,,,,,,,,,,,,,,,,,,,,,,
,0.0,0.0,2.0,2.0,2.0,1.0,blowfish_03s.jpg,0.0,clock_7_3.png,1.0,56,,,,,,,,,,,,,,,,,,,,,,,,,,,,,,,,,
,0.0,0.0,3.0,3.0,3.0,1.0,throne_11s.jpg,1.0,clock_7_4.png,1.0,56,,,,,,,,,,,,,,,,,,,,,,,,,,,,,,,,,
1.0,0.0,0.0,4.0,4.0,4.0,1.0,basket_05s.jpg,0.0,clock_7_5.png,1.0,56,0.94915,,,,,,,,,,,,,,,,,,,,,,,,,,,,,,,,
1.0,0.0,0.0,5.0,5.0,5.0,1.0,rhubarb_03s.jpg,0.0,clock_7_6.png,1.0,56,0.63122,,,,,,,,,,,,,,,,,,,,,,,,,,,,,,,,
,0.0,0.0,6.0,6.0,6.0,1.0,throne_11s.jpg,1.0,clock_7_7.png,1.0,56,,,,,,,,,,,,,,,,,,,,,,,,,,,,,,,,,
,0.0,0.0,7.0,7.0,7.0,1.0,tupperware_09s.jpg,0.0,clock_5_1.png,2.0,56,,,,,,,,,,,,,,,,,,,,,,,,,,,,,,,,,
0.0,1.0,0.0,8.0,8.0,8.0,1.0,seagull_01b.jpg,0.0,clock_5_2.png,2.0,56,1.47044,,,,,,,,,,,,,,,,,,,,,,,,,,,,,,,,
,0.0,0.0,9.0,9.0,9.0,1.0,kitten_07s.jpg,0.0,clock_5_3.png,2.0,56,,,,,,,,,,,,,,,,,,,,,,,,,,,,,,,,,
,0.0,0.0,10.0,10.0,10.0,1.0,crate_05s.jpg,0.0,clock_5_4.png,2.0,56,,,,,,,,,,,,,,,,,,,,,,,,,,,,,,,,,
0.0,1.0,0.0,11.0,11.0,11.0,1.0,pocket_watch_16s.jpg,0.0,clock_5_5.png,2.0,56,1.795685,,,,,,,,,,,,,,,,,,,,,,,,,,,,,,,,
0.0,1.0,0.0,12.0,12.0,12.0,1.0,pocketknife_12s.jpg,0.0,clock_6_1.png,3.0,56,0.62168,,,,,,,,,,,,,,,,,,,,,,,,,,,,,,,,
0.0,1.0,0.0,13.0,13.0,13.0,1.0,jalapeno_15s.jpg,0.0,clock_6_2.png,3.0,56,0.5978,,,,,,,,,,,,,,,,,,,,,,,,,,,,,,,,
1.0,0.0,0.0,14.0,14.0,14.0,1.0,tupperware_09s.jpg,0.0,clock_6_3.png,3.0,56,1.15077,,,,,,,,,,,,,,,,,,,,,,,,,,,,,,,,
0.0,1.0,0.0,15.0,15.0,15.0,1.0,stapler_01b.jpg,0.0,clock_6_4.png,3.0,56,0.83152,,,,,,,,,,,,,,,,,,,,,,,,,,,,,,,,
,0.0,0.0,16.0,16.0,16.0,1.0,cap_05s.jpg,0.0,clock_6_5.png,3.0,56,,,,,,,,,,,,,,,,,,,,,,,,,,,,,,,,,
,0.0,0.0,17.0,17.0,17.0,1.0,lavender_10s.jpg,0.0,clock_6_6.png,3.0,56,,,,,,,,,,,,,,,,,,,,,,,,,,,,,,,,,
,0.0,0.0,18.0,18.0,18.0,1.0,racehorse_03s.jpg,0.0,clock_6_1.png,4.0,56,,,,,,,,,,,,,,,,,,,,,,,,,,,,,,,,,
0.0,1.0,0.0,19.0,19.0,19.0,1.0,teacup_07s.jpg,0.0,clock_6_2.png,4.0,56,1.22298,,,,,,,,,,,,,,,,,,,,,,,,,,,,,,,,
0.0,1.0,0.0,20.0,20.0,20.0,1.0,lip_gloss_06s.jpg,0.0,clock_6_3.png,4.0,56,1.087045,,,,,,,,,,,,,,,,,,,,,,,,,,,,,,,,
1.0,1.0,0.0,21.0,21.0,21.0,1.0,racehorse_03s.jpg,1.0,clock_6_4.png,4.0,56,0.966795,,,,,,,,,,,,,,,,,,,,,,,,,,,,,,,,
1.0,1.0,0.0,22.0,22.0,22.0,1.0,lip_gloss_06s.jpg,1.0,clock_6_5.png,4.0,56,0.71323,,,,,,,,,,,,,,,,,,,,,,,,,,,,,,,,
0.0,1.0,0.0,23.0,23.0,23.0,1.0,seahorse_13s.jpg,0.0,clock_6_6.png,4.0,56,1.16409,,,,,,,,,,,,,,,,,,,,,,,,,,,,,,,,
1.0,0.0,0.0,24.0,24.0,24.0,1.0,tuxedo_01b.jpg,0.0,clock_5_1.png,5.0,56,1.249645,,,,,,,,,,,,,,,,,,,,,,,,,,,,,,,,
0.0,1.0,0.0,25.0,25.0,25.0,1.0,ice-cream_cone_06s.jpg,0.0,clock_5_2.png,5.0,56,1.045575,,,,,,,,,,,,,,,,,,,,,,,,,,,,,,,,
0.0,1.0,0.0,26.0,26.0,26.0,1.0,jukebox_03n.jpg,0.0,clock_5_3.png,5.0,56,0.81489,,,,,,,,,,,,,,,,,,,,,,,,,,,,,,,,
1.0,1.0,0.0,27.0,27.0,27.0,1.0,ice-cream_cone_06s.jpg,1.0,clock_5_4.png,5.0,56,1.03583,,,,,,,,,,,,,,,,,,,,,,,,,,,,,,,,
0.0,1.0,0.0,28.0,28.0,28.0,1.0,teacup_07s.jpg,0.0,clock_5_5.png,5.0,56,1.1523,,,,,,,,,,,,,,,,,,,,,,,,,,,,,,,,
0.0,1.0,0.0,29.0,29.0,29.0,1.0,rope_16s.jpg,0.0,clock_7_1.png,6.0,56,0.6234,,,,,,,,,,,,,,,,,,,,,,,,,,,,,,,,
0.0,1.0,0.0,30.0,30.0,30.0,1.0,fork_04s.jpg,0.0,clock_7_2.png,6.0,56,0.6242,,,,,,,,,,,,,,,,,,,,,,,,,,,,,,,,
1.0,1.0,0.0,31.0,31.0,31.0,1.0,rope_16s.jpg,1.0,clock_7_3.png,6.0,56,0.799175,,,,,,,,,,,,,,,,,,,,,,,,,,,,,,,,
1.0,1.0,0.0,32.0,32.0,32.0,1.0,fork_04s.jpg,1.0,clock_7_4.png,6.0,56,0.94848,,,,,,,,,,,,,,,,,,,,,,,,,,,,,,,,
0.0,1.0,0.0,33.0,33.0,33.0,1.0,stump_02s.jpg,0.0,clock_7_5.png,6.0,56,1.181785,,,,,,,,,,,,,,,,,,,,,,,,,,,,,,,,
0.0,1.0,0.0,34.0,34.0,34.0,1.0,air_pump_05s.jpg,0.0,clock_7_6.png,6.0,56,1.68312,,,,,,,,,,,,,,,,,,,,,,,,,,,,,,,,
1.0,1.0,0.0,35.0,35.0,35.0,1.0,air_pump_05s.jpg,1.0,clock_7_7.png,6.0,56,1.806175,,,,,,,,,,,,,,,,,,,,,,,,,,,,,,,,
,,,,,,,,0.0,,,56,,0.0,1.0,3.26046,0.0,0.0,0.0,0.0,1.0,jukebox_03n.jpg,seahorse_13s.jpg,,,,,,,,,,,,,,,,,,,,,,
,,,,,,,,1.0,,,56,,1.0,1.0,1.4477,0.0,1.0,1.0,1.0,1.0,kitten_07s.jpg,pocketknife_12s.jpg,,,,,,,,,,,,,,,,,,,,,,
,,,,,,,,0.0,,,56,,1.0,0.0,1.17772,0.0,2.0,2.0,2.0,1.0,jalapeno_15s.jpg,crate_05s.jpg,,,,,,,,,,,,,,,,,,,,,,
,,,,,,,,0.0,,,56,,1.0,0.0,1.08139,0.0,3.0,3.0,3.0,1.0,basket_05s.jpg,swimming_pool_17s.jpg,,,,,,,,,,,,,,,,,,,,,,
,,,,,,,,0.0,,,56,,1.0,0.0,1.150985,0.0,4.0,4.0,4.0,1.0,rhubarb_03s.jpg,blowfish_03s.jpg,,,,,,,,,,,,,,,,,,,,,,
,,,,,,,,1.0,,,56,,1.0,1.0,1.164925,0.0,5.0,5.0,5.0,1.0,seagull_01b.jpg,pocket_watch_16s.jpg,,,,,,,,,,,,,,,,,,,,,,
,,,,,,,,,,,56,,,,,,,,,,,,0.0,0.0,0.0,0.0,1.0,clock_present_1_14.xlsx,clock_compare_task_1_14.xlsx,,,,,,,,,,,,,,,
0.0,1.0,0.0,0.0,0.0,0.0,1.0,bagel_15s.jpg,0.0,clock_5_1.png,1.0,56,1.136325,,,,,,,,,,,,,,,,,,,,,,,,,,,,,,,,
0.0,1.0,0.0,1.0,1.0,1.0,1.0,rabbit_03s.jpg,0.0,clock_5_2.png,1.0,56,0.617685,,,,,,,,,,,,,,,,,,,,,,,,,,,,,,,,
1.0,1.0,0.0,2.0,2.0,2.0,1.0,bagel_15s.jpg,1.0,clock_5_3.png,1.0,56,0.805415,,,,,,,,,,,,,,,,,,,,,,,,,,,,,,,,
0.0,1.0,0.0,3.0,3.0,3.0,1.0,key_07s.jpg,0.0,clock_5_4.png,1.0,56,1.426735,,,,,,,,,,,,,,,,,,,,,,,,,,,,,,,,
0.0,1.0,0.0,4.0,4.0,4.0,1.0,mascara_03s.jpg,0.0,clock_5_5.png,1.0,56,0.790935,,,,,,,,,,,,,,,,,,,,,,,,,,,,,,,,
0.0,1.0,0.0,5.0,5.0,5.0,1.0,knot_01b.jpg,0.0,clock_6_1.png,2.0,56,1.33073,,,,,,,,,,,,,,,,,,,,,,,,,,,,,,,,
,0.0,0.0,6.0,6.0,6.0,1.0,measuring_cup_02s.jpg,0.0,clock_6_2.png,2.0,56,,,,,,,,,,,,,,,,,,,,,,,,,,,,,,,,,
,0.0,0.0,7.0,7.0,7.0,1.0,syringe_02s.jpg,0.0,clock_6_3.png,2.0,56,,,,,,,,,,,,,,,,,,,,,,,,,,,,,,,,,
1.0,1.0,0.0,8.0,8.0,8.0,1.0,knot_01b.jpg,1.0,clock_6_4.png,2.0,56,0.967865,,,,,,,,,,,,,,,,,,,,,,,,,,,,,,,,
0.0,1.0,0.0,9.0,9.0,9.0,1.0,pancake_12s.jpg,0.0,clock_6_5.png,2.0,56,0.996625,,,,,,,,,,,,,,,,,,,,,,,,,,,,,,,,
0.0,1.0,0.0,10.0,10.0,10.0,1.0,saddle_06s.jpg,0.0,clock_6_6.png,2.0,56,0.671965,,,,,,,,,,,,,,,,,,,,,,,,,,,,,,,,
,0.0,0.0,11.0,11.0,11.0,1.0,stingray_02s.jpg,0.0,clock_7_1.png,3.0,56,,,,,,,,,,,,,,,,,,,,,,,,,,,,,,,,,
1.0,0.0,0.0,12.0,12.0,12.0,1.0,pancake_12s.jpg,0.0,clock_7_2.png,3.0,56,0.774425,,,,,,,,,,,,,,,,,,,,,,,,,,,,,,,,
0.0,1.0,0.0,13.0,13.0,13.0,1.0,kite_04s.jpg,0.0,clock_7_3.png,3.0,56,1.280645,,,,,,,,,,,,,,,,,,,,,,,,,,,,,,,,
0.0,1.0,0.0,14.0,14.0,14.0,1.0,pincushion_10s.jpg,0.0,clock_7_4.png,3.0,56,1.035935,,,,,,,,,,,,,,,,,,,,,,,,,,,,,,,,
0.0,1.0,0.0,15.0,15.0,15.0,1.0,ice_pack_09s.jpg,0.0,clock_7_5.png,3.0,56,0.83416,,,,,,,,,,,,,,,,,,,,,,,,,,,,,,,,
1.0,1.0,0.0,16.0,16.0,16.0,1.0,kite_04s.jpg,1.0,clock_7_6.png,3.0,56,0.890855,,,,,,,,,,,,,,,,,,,,,,,,,,,,,,,,
0.0,1.0,0.0,17.0,17.0,17.0,1.0,thumbtack_14s.jpg,0.0,clock_7_7.png,3.0,56,0.73542,,,,,,,,,,,,,,,,,,,,,,,,,,,,,,,,
0.0,1.0,0.0,18.0,18.0,18.0,1.0,stamp1_11s.jpg,0.0,clock_5_1.png,4.0,56,1.019955,,,,,,,,,,,,,,,,,,,,,,,,,,,,,,,,
1.0,1.0,0.0,19.0,19.0,19.0,1.0,stamp1_11s.jpg,1.0,clock_5_2.png,4.0,56,0.93099,,,,,,,,,,,,,,,,,,,,,,,,,,,,,,,,
0.0,1.0,0.0,20.0,20.0,20.0,1.0,lizard_10n.jpg,0.0,clock_5_3.png,4.0,56,1.17395,,,,,,,,,,,,,,,,,,,,,,,,,,,,,,,,
0.0,1.0,0.0,21.0,21.0,21.0,1.0,toilet_paper_12s.jpg,0.0,clock_5_4.png,4.0,56,0.646145,,,,,,,,,,,,,,,,,,,,,,,,,,,,,,,,
0.0,1.0,0.0,22.0,22.0,22.0,1.0,gong_02s.jpg,0.0,clock_5_5.png,4.0,56,0.654105,,,,,,,,,,,,,,,,,,,,,,,,,,,,,,,,
0.0,1.0,0.0,23.0,23.0,23.0,1.0,rake_06s.jpg,0.0,clock_6_1.png,5.0,56,0.71472,,,,,,,,,,,,,,,,,,,,,,,,,,,,,,,,
1.0,0.0,0.0,24.0,24.0,24.0,1.0,syringe_02s.jpg,0.0,clock_6_2.png,5.0,56,0.931105,,,,,,,,,,,,,,,,,,,,,,,,,,,,,,,,
1.0,0.0,0.0,25.0,25.0,25.0,1.0,thumbtack_14s.jpg,0.0,clock_6_3.png,5.0,56,1.59772,,,,,,,,,,,,,,,,,,,,,,,,,,,,,,,,
0.0,1.0,0.0,26.0,26.0,26.0,1.0,boomerang_06s.jpg,0.0,clock_6_4.png,5.0,56,0.71414,,,,,,,,,,,,,,,,,,,,,,,,,,,,,,,,
0.0,1.0,0.0,27.0,27.0,27.0,1.0,kayak_08s.jpg,0.0,clock_6_5.png,5.0,56,1.1558,,,,,,,,,,,,,,,,,,,,,,,,,,,,,,,,
0.0,1.0,0.0,28.0,28.0,28.0,1.0,fountain_pen_06s.jpg,0.0,clock_6_6.png,5.0,56,0.916835,,,,,,,,,,,,,,,,,,,,,,,,,,,,,,,,
,0.0,0.0,29.0,29.0,29.0,1.0,contact_lens_15s.jpg,0.0,clock_7_1.png,6.0,56,,,,,,,,,,,,,,,,,,,,,,,,,,,,,,,,,
0.0,1.0,0.0,30.0,30.0,30.0,1.0,lamb_chop_07s.jpg,0.0,clock_7_2.png,6.0,56,0.8806,,,,,,,,,,,,,,,,,,,,,,,,,,,,,,,,
0.0,1.0,0.0,31.0,31.0,31.0,1.0,pear_02s.jpg,0.0,clock_7_3.png,6.0,56,0.865005,,,,,,,,,,,,,,,,,,,,,,,,,,,,,,,,
0.0,1.0,0.0,32.0,32.0,32.0,1.0,potpourri_03s.jpg,0.0,clock_7_4.png,6.0,56,0.912665,,,,,,,,,,,,,,,,,,,,,,,,,,,,,,,,
1.0,0.0,0.0,33.0,33.0,33.0,1.0,pincushion_10s.jpg,0.0,clock_7_5.png,6.0,56,0.98113,,,,,,,,,,,,,,,,,,,,,,,,,,,,,,,,
0.0,1.0,0.0,34.0,34.0,34.0,1.0,foam_03s.jpg,0.0,clock_7_6.png,6.0,56,0.696865,,,,,,,,,,,,,,,,,,,,,,,,,,,,,,,,
0.0,1.0,0.0,35.0,35.0,35.0,1.0,bathtub_23s.jpg,0.0,clock_7_7.png,6.0,56,1.00222,,,,,,,,,,,,,,,,,,,,,,,,,,,,,,,,
,,,,,,,,1.0,,,56,,0.0,0.0,1.223835,0.0,0.0,0.0,0.0,1.0,key_07s.jpg,measuring_cup_02s.jpg,,,,,,,,,,,,,,,,,,,,,,
,,,,,,,,1.0,,,56,,0.0,0.0,1.305005,0.0,1.0,1.0,1.0,1.0,kayak_08s.jpg,lamb_chop_07s.jpg,,,,,,,,,,,,,,,,,,,,,,
,,,,,,,,1.0,,,56,,0.0,0.0,1.14807,0.0,2.0,2.0,2.0,1.0,lizard_10n.jpg,rake_06s.jpg,,,,,,,,,,,,,,,,,,,,,,
,,,,,,,,1.0,,,56,,1.0,1.0,0.968635,0.0,3.0,3.0,3.0,1.0,rabbit_03s.jpg,mascara_03s.jpg,,,,,,,,,,,,,,,,,,,,,,
,,,,,,,,1.0,,,56,,1.0,1.0,1.18819,0.0,4.0,4.0,4.0,1.0,potpourri_03s.jpg,bathtub_23s.jpg,,,,,,,,,,,,,,,,,,,,,,
,,,,,,,,0.0,,,56,,0.0,1.0,1.18378,0.0,5.0,5.0,5.0,1.0,foam_03s.jpg,pear_02s.jpg,,,,,,,,,,,,,,,,,,,,,,
,,,,,,,,,,,56,,,,,,,,,,,,0.0,1.0,1.0,1.0,1.0,clock_present_2_14.xlsx,clock_compare_task_2_14.xlsx,,,,,,,,,,,,,,,
0.0,1.0,0.0,0.0,0.0,0.0,1.0,magnet_03s.jpg,0.0,clock_5_1.png,1.0,56,1.630165,,,,,,,,,,,,,,,,,,,,,,,,,,,,,,,,
1.0,1.0,0.0,1.0,1.0,1.0,1.0,magnet_03s.jpg,1.0,clock_5_2.png,1.0,56,0.752,,,,,,,,,,,,,,,,,,,,,,,,,,,,,,,,
,0.0,0.0,2.0,2.0,2.0,1.0,insole_11s.jpg,0.0,clock_5_3.png,1.0,56,,,,,,,,,,,,,,,,,,,,,,,,,,,,,,,,,
0.0,1.0,0.0,3.0,3.0,3.0,1.0,safety_pin_02s.jpg,0.0,clock_5_4.png,1.0,56,0.88104,,,,,,,,,,,,,,,,,,,,,,,,,,,,,,,,
0.0,1.0,0.0,4.0,4.0,4.0,1.0,pie_08s.jpg,0.0,clock_5_5.png,1.0,56,0.55722,,,,,,,,,,,,,,,,,,,,,,,,,,,,,,,,
0.0,1.0,0.0,5.0,5.0,5.0,1.0,flask_04s.jpg,0.0,clock_6_1.png,2.0,56,0.81536,,,,,,,,,,,,,,,,,,,,,,,,,,,,,,,,
0.0,1.0,0.0,6.0,6.0,6.0,1.0,stopwatch_04s.jpg,0.0,clock_6_2.png,2.0,56,0.746355,,,,,,,,,,,,,,,,,,,,,,,,,,,,,,,,
,0.0,0.0,7.0,7.0,7.0,1.0,olive_05s.jpg,0.0,clock_6_3.png,2.0,56,,,,,,,,,,,,,,,,,,,,,,,,,,,,,,,,,
0.0,1.0,0.0,8.0,8.0,8.0,1.0,laser_pointer_02s.jpg,0.0,clock_6_4.png,2.0,56,1.85957,,,,,,,,,,,,,,,,,,,,,,,,,,,,,,,,
1.0,0.0,0.0,9.0,9.0,9.0,1.0,pie_08s.jpg,0.0,clock_6_5.png,2.0,56,0.591535,,,,,,,,,,,,,,,,,,,,,,,,,,,,,,,,
1.0,1.0,0.0,10.0,10.0,10.0,1.0,laser_pointer_02s.jpg,1.0,clock_6_6.png,2.0,56,0.720135,,,,,,,,,,,,,,,,,,,,,,,,,,,,,,,,
0.0,1.0,0.0,11.0,11.0,11.0,1.0,surfboard_11s.jpg,0.0,clock_6_1.png,3.0,56,0.73068,,,,,,,,,,,,,,,,,,,,,,,,,,,,,,,,
0.0,1.0,0.0,12.0,12.0,12.0,1.0,money_07s.jpg,0.0,clock_6_2.png,3.0,56,0.93723,,,,,,,,,,,,,,,,,,,,,,,,,,,,,,,,
0.0,1.0,0.0,13.0,13.0,13.0,1.0,bubble_01b.jpg,0.0,clock_6_3.png,3.0,56,0.74003,,,,,,,,,,,,,,,,,,,,,,,,,,,,,,,,
0.0,1.0,0.0,14.0,14.0,14.0,1.0,lipstick_02s.jpg,0.0,clock_6_4.png,3.0,56,0.809455,,,,,,,,,,,,,,,,,,,,,,,,,,,,,,,,
0.0,1.0,0.0,15.0,15.0,15.0,1.0,leash_10s.jpg,0.0,clock_6_5.png,3.0,56,1.78433,,,,,,,,,,,,,,,,,,,,,,,,,,,,,,,,
1.0,0.0,0.0,16.0,16.0,16.0,1.0,flask_04s.jpg,0.0,clock_6_6.png,3.0,56,1.13172,,,,,,,,,,,,,,,,,,,,,,,,,,,,,,,,
,0.0,0.0,17.0,17.0,17.0,1.0,puck_06s.jpg,0.0,clock_7_1.png,4.0,56,,,,,,,,,,,,,,,,,,,,,,,,,,,,,,,,,
,0.0,0.0,18.0,18.0,18.0,1.0,paintbrush_04s.jpg,0.0,clock_7_2.png,4.0,56,,,,,,,,,,,,,,,,,,,,,,,,,,,,,,,,,
1.0,1.0,0.0,19.0,19.0,19.0,1.0,puck_06s.jpg,1.0,clock_7_3.png,4.0,56,1.165915,,,,,,,,,,,,,,,,,,,,,,,,,,,,,,,,
0.0,1.0,0.0,20.0,20.0,20.0,1.0,tweezers_03s.jpg,0.0,clock_7_4.png,4.0,56,1.34151,,,,,,,,,,,,,,,,,,,,,,,,,,,,,,,,
1.0,1.0,0.0,21.0,21.0,21.0,1.0,puck_06s.jpg,1.0,clock_7_5.png,4.0,56,0.956005,,,,,,,,,,,,,,,,,,,,,,,,,,,,,,,,
0.0,1.0,0.0,22.0,22.0,22.0,1.0,tulip_02s.jpg,0.0,clock_7_6.png,4.0,56,1.63637,,,,,,,,,,,,,,,,,,,,,,,,,,,,,,,,
1.0,0.0,0.0,23.0,23.0,23.0,1.0,bubble_01b.jpg,0.0,clock_7_7.png,4.0,56,0.8755,,,,,,,,,,,,,,,,,,,,,,,,,,,,,,,,
0.0,1.0,0.0,24.0,24.0,24.0,1.0,mattress_01s.jpg,0.0,clock_5_1.png,5.0,56,0.866615,,,,,,,,,,,,,,,,,,,,,,,,,,,,,,,,
1.0,1.0,0.0,25.0,25.0,25.0,1.0,mattress_01s.jpg,1.0,clock_5_2.png,5.0,56,1.44072,,,,,,,,,,,,,,,,,,,,,,,,,,,,,,,,
0.0,1.0,0.0,26.0,26.0,26.0,1.0,puddle_02s.jpg,0.0,clock_5_3.png,5.0,56,0.81515,,,,,,,,,,,,,,,,,,,,,,,,,,,,,,,,
,0.0,0.0,27.0,27.0,27.0,1.0,peanut_butter_08s.jpg,0.0,clock_5_4.png,5.0,56,,,,,,,,,,,,,,,,,,,,,,,,,,,,,,,,,
,0.0,0.0,28.0,28.0,28.0,1.0,loveseat_08s.jpg,0.0,clock_5_5.png,5.0,56,,,,,,,,,,,,,,,,,,,,,,,,,,,,,,,,,
0.0,1.0,0.0,29.0,29.0,29.0,1.0,timer_03s.jpg,0.0,clock_7_1.png,6.0,56,1.513695,,,,,,,,,,,,,,,,,,,,,,,,,,,,,,,,
0.0,1.0,0.0,30.0,30.0,30.0,1.0,icicle_04s.jpg,0.0,clock_7_2.png,6.0,56,0.702115,,,,,,,,,,,,,,,,,,,,,,,,,,,,,,,,
0.0,1.0,0.0,31.0,31.0,31.0,1.0,fishhook_06s.jpg,0.0,clock_7_3.png,6.0,56,0.705805,,,,,,,,,,,,,,,,,,,,,,,,,,,,,,,,
0.0,1.0,0.0,32.0,32.0,32.0,1.0,pump_11s.jpg,0.0,clock_7_4.png,6.0,56,0.948145,,,,,,,,,,,,,,,,,,,,,,,,,,,,,,,,
,0.0,0.0,33.0,33.0,33.0,1.0,ukulele_02s.jpg,0.0,clock_7_5.png,6.0,56,,,,,,,,,,,,,,,,,,,,,,,,,,,,,,,,,
1.0,0.0,0.0,34.0,34.0,34.0,1.0,safety_pin_02s.jpg,0.0,clock_7_6.png,6.0,56,1.11486,,,,,,,,,,,,,,,,,,,,,,,,,,,,,,,,
0.0,1.0,0.0,35.0,35.0,35.0,1.0,sundae_08s.jpg,0.0,clock_7_7.png,6.0,56,0.734235,,,,,,,,,,,,,,,,,,,,,,,,,,,,,,,,
,,,,,,,,0.0,,,56,,1.0,0.0,1.43722,0.0,0.0,0.0,0.0,1.0,fishhook_06s.jpg,loveseat_08s.jpg,,,,,,,,,,,,,,,,,,,,,,
,,,,,,,,0.0,,,56,,1.0,0.0,1.263775,0.0,1.0,1.0,1.0,1.0,paintbrush_04s.jpg,leash_10s.jpg,,,,,,,,,,,,,,,,,,,,,,
,,,,,,,,0.0,,,56,,1.0,0.0,0.9977,0.0,2.0,2.0,2.0,1.0,timer_03s.jpg,puddle_02s.jpg,,,,,,,,,,,,,,,,,,,,,,
,,,,,,,,1.0,,,56,,1.0,1.0,1.75777,0.0,3.0,3.0,3.0,1.0,surfboard_11s.jpg,lipstick_02s.jpg,,,,,,,,,,,,,,,,,,,,,,
,,,,,,,,0.0,,,56,,1.0,0.0,1.27683,0.0,4.0,4.0,4.0,1.0,sundae_08s.jpg,pump_11s.jpg,,,,,,,,,,,,,,,,,,,,,,
,,,,,,,,0.0,,,56,,0.0,1.0,0.99011,0.0,5.0,5.0,5.0,1.0,ukulele_02s.jpg,icicle_04s.jpg,,,,,,,,,,,,,,,,,,,,,,
,,,,,,,,,,,56,,,,,,,,,,,,0.0,2.0,2.0,2.0,1.0,clock_present_3_14.xlsx,clock_compare_task_3_14.xlsx,,,,,,,,,,,,,,,
0.0,1.0,0.0,0.0,0.0,0.0,1.0,mold2_04s.jpg,0.0,clock_5_1.png,1.0,56,1.70491,,,,,,,,,,,,,,,,,,,,,,,,,,,,,,,,
1.0,1.0,0.0,1.0,1.0,1.0,1.0,mold2_04s.jpg,1.0,clock_5_2.png,1.0,56,1.172695,,,,,,,,,,,,,,,,,,,,,,,,,,,,,,,,
1.0,1.0,0.0,2.0,2.0,2.0,1.0,mold2_04s.jpg,1.0,clock_5_3.png,1.0,56,0.747795,,,,,,,,,,,,,,,,,,,,,,,,,,,,,,,,
1.0,1.0,0.0,3.0,3.0,3.0,1.0,mold2_04s.jpg,1.0,clock_5_4.png,1.0,56,0.8698,,,,,,,,,,,,,,,,,,,,,,,,,,,,,,,,
,0.0,0.0,4.0,4.0,4.0,1.0,sledgehammer_03s.jpg,0.0,clock_5_5.png,1.0,56,,,,,,,,,,,,,,,,,,,,,,,,,,,,,,,,,
,0.0,0.0,5.0,5.0,5.0,1.0,prism_10s.jpg,0.0,clock_7_1.png,2.0,56,,,,,,,,,,,,,,,,,,,,,,,,,,,,,,,,,
,0.0,0.0,6.0,6.0,6.0,1.0,jewel_01b.jpg,0.0,clock_7_2.png,2.0,56,,,,,,,,,,,,,,,,,,,,,,,,,,,,,,,,,
,0.0,0.0,7.0,7.0,7.0,1.0,puffin_19s.jpg,0.0,clock_7_3.png,2.0,56,,,,,,,,,,,,,,,,,,,,,,,,,,,,,,,,,
,0.0,0.0,8.0,8.0,8.0,1.0,screwdriver02a.jpg,0.0,clock_7_4.png,2.0,56,,,,,,,,,,,,,,,,,,,,,,,,,,,,,,,,,
0.0,1.0,0.0,9.0,9.0,9.0,1.0,thermostat_02s.jpg,0.0,clock_7_5.png,2.0,56,0.63042,,,,,,,,,,,,,,,,,,,,,,,,,,,,,,,,
1.0,1.0,0.0,10.0,10.0,10.0,1.0,jewel_01b.jpg,1.0,clock_7_6.png,2.0,56,1.181545,,,,,,,,,,,,,,,,,,,,,,,,,,,,,,,,
1.0,1.0,0.0,11.0,11.0,11.0,1.0,puffin_19s.jpg,1.0,clock_7_7.png,2.0,56,0.774125,,,,,,,,,,,,,,,,,,,,,,,,,,,,,,,,
,0.0,0.0,12.0,12.0,12.0,1.0,petri_dish_12s.jpg,0.0,clock_6_1.png,3.0,56,,,,,,,,,,,,,,,,,,,,,,,,,,,,,,,,,
0.0,1.0,0.0,13.0,13.0,13.0,1.0,plug_08s.jpg,0.0,clock_6_2.png,3.0,56,0.763725,,,,,,,,,,,,,,,,,,,,,,,,,,,,,,,,
,0.0,0.0,14.0,14.0,14.0,1.0,hydrant_10s.jpg,0.0,clock_6_3.png,3.0,56,,,,,,,,,,,,,,,,,,,,,,,,,,,,,,,,,
1.0,1.0,0.0,15.0,15.0,15.0,1.0,petri_dish_12s.jpg,1.0,clock_6_4.png,3.0,56,0.96595,,,,,,,,,,,,,,,,,,,,,,,,,,,,,,,,
,0.0,0.0,16.0,16.0,16.0,1.0,amber_04s.jpg,0.0,clock_6_5.png,3.0,56,,,,,,,,,,,,,,,,,,,,,,,,,,,,,,,,,
,0.0,0.0,17.0,17.0,17.0,1.0,luggage_08s.jpg,0.0,clock_6_6.png,3.0,56,,,,,,,,,,,,,,,,,,,,,,,,,,,,,,,,,
0.0,1.0,0.0,18.0,18.0,18.0,1.0,cushion_08s.jpg,0.0,clock_7_1.png,4.0,56,0.651175,,,,,,,,,,,,,,,,,,,,,,,,,,,,,,,,
0.0,1.0,0.0,19.0,19.0,19.0,1.0,mushroom_10n.jpg,0.0,clock_7_2.png,4.0,56,0.68333,,,,,,,,,,,,,,,,,,,,,,,,,,,,,,,,
1.0,0.0,0.0,20.0,20.0,20.0,1.0,puffin_19s.jpg,0.0,clock_7_3.png,4.0,56,1.013235,,,,,,,,,,,,,,,,,,,,,,,,,,,,,,,,
0.0,1.0,0.0,21.0,21.0,21.0,1.0,lasagna_06s.jpg,0.0,clock_7_4.png,4.0,56,1.219755,,,,,,,,,,,,,,,,,,,,,,,,,,,,,,,,
0.0,1.0,0.0,22.0,22.0,22.0,1.0,thorn_13s.jpg,0.0,clock_7_5.png,4.0,56,1.45922,,,,,,,,,,,,,,,,,,,,,,,,,,,,,,,,
0.0,1.0,0.0,23.0,23.0,23.0,1.0,jelly_bean_06s.jpg,0.0,clock_7_6.png,4.0,56,0.907385,,,,,,,,,,,,,,,,,,,,,,,,,,,,,,,,
,0.0,0.0,24.0,24.0,24.0,1.0,mosquito_12s.jpg,0.0,clock_7_7.png,4.0,56,,,,,,,,,,,,,,,,,,,,,,,,,,,,,,,,,
0.0,1.0,0.0,25.0,25.0,25.0,1.0,triangle_10s.jpg,0.0,clock_6_1.png,5.0,56,0.871835,,,,,,,,,,,,,,,,,,,,,,,,,,,,,,,,
0.0,1.0,0.0,26.0,26.0,26.0,1.0,roulette_wheel_04s.jpg,0.0,clock_6_2.png,5.0,56,0.95921,,,,,,,,,,,,,,,,,,,,,,,,,,,,,,,,
1.0,1.0,0.0,27.0,27.0,27.0,1.0,roulette_wheel_04s.jpg,1.0,clock_6_3.png,5.0,56,0.738235,,,,,,,,,,,,,,,,,,,,,,,,,,,,,,,,
1.0,0.0,0.0,28.0,28.0,28.0,1.0,puffin_19s.jpg,0.0,clock_6_4.png,5.0,56,0.604875,,,,,,,,,,,,,,,,,,,,,,,,,,,,,,,,
0.0,1.0,0.0,29.0,29.0,29.0,1.0,outlet_10s.jpg,0.0,clock_6_5.png,5.0,56,1.77442,,,,,,,,,,,,,,,,,,,,,,,,,,,,,,,,
0.0,1.0,0.0,30.0,30.0,30.0,1.0,abacus_12s.jpg,0.0,clock_6_6.png,5.0,56,1.413515,,,,,,,,,,,,,,,,,,,,,,,,,,,,,,,,
0.0,1.0,0.0,31.0,31.0,31.0,1.0,pencil02a.jpg,0.0,clock_5_1.png,6.0,56,1.498785,,,,,,,,,,,,,,,,,,,,,,,,,,,,,,,,
0.0,1.0,0.0,32.0,32.0,32.0,1.0,pillow_03s.jpg,0.0,clock_5_2.png,6.0,56,1.57108,,,,,,,,,,,,,,,,,,,,,,,,,,,,,,,,
1.0,1.0,0.0,33.0,33.0,33.0,1.0,pencil02a.jpg,1.0,clock_5_3.png,6.0,56,0.79674,,,,,,,,,,,,,,,,,,,,,,,,,,,,,,,,
,0.0,0.0,34.0,34.0,34.0,1.0,towel_rack_04s.jpg,0.0,clock_5_4.png,6.0,56,,,,,,,,,,,,,,,,,,,,,,,,,,,,,,,,,
0.0,1.0,0.0,35.0,35.0,35.0,1.0,machine_gun_09s.jpg,0.0,clock_5_5.png,6.0,56,0.7651,,,,,,,,,,,,,,,,,,,,,,,,,,,,,,,,
,,,,,,,,1.0,,,56,,0.0,0.0,1.702955,0.0,0.0,0.0,0.0,1.0,thorn_13s.jpg,triangle_10s.jpg,,,,,,,,,,,,,,,,,,,,,,
,,,,,,,,0.0,,,56,,1.0,0.0,1.352035,0.0,1.0,1.0,1.0,1.0,pillow_03s.jpg,outlet_10s.jpg,,,,,,,,,,,,,,,,,,,,,,
,,,,,,,,1.0,,,56,,1.0,1.0,0.94129,0.0,2.0,2.0,2.0,1.0,amber_04s.jpg,mushroom_10n.jpg,,,,,,,,,,,,,,,,,,,,,,
,,,,,,,,0.0,,,56,,0.0,1.0,1.25132,0.0,3.0,3.0,3.0,1.0,screwdriver02a.jpg,prism_10s.jpg,,,,,,,,,,,,,,,,,,,,,,
,,,,,,,,1.0,,,56,,0.0,0.0,1.109165,0.0,4.0,4.0,4.0,1.0,hydrant_10s.jpg,luggage_08s.jpg,,,,,,,,,,,,,,,,,,,,,,
,,,,,,,,1.0,,,56,,1.0,1.0,0.97678,0.0,5.0,5.0,5.0,1.0,cushion_08s.jpg,lasagna_06s.jpg,,,,,,,,,,,,,,,,,,,,,,
,,,,,,,,,,,56,,,,,,,,,,,,0.0,3.0,3.0,3.0,1.0,clock_present_4_14.xlsx,clock_compare_task_4_14.xlsx,,,,,,,,,,,,,,,
,0.0,0.0,0.0,0.0,0.0,1.0,checkbook_11s.jpg,0.0,clock_7_1.png,1.0,56,,,,,,,,,,,,,,,,,,,,,,,,,,,,,,,,,
,0.0,0.0,1.0,1.0,1.0,1.0,submarine_11n.jpg,0.0,clock_7_2.png,1.0,56,,,,,,,,,,,,,,,,,,,,,,,,,,,,,,,,,
0.0,1.0,0.0,2.0,2.0,2.0,1.0,doily_13s.jpg,0.0,clock_7_3.png,1.0,56,1.309355,,,,,,,,,,,,,,,,,,,,,,,,,,,,,,,,
,0.0,0.0,3.0,3.0,3.0,1.0,briefcase_03s.jpg,0.0,clock_7_4.png,1.0,56,,,,,,,,,,,,,,,,,,,,,,,,,,,,,,,,,
0.0,1.0,0.0,4.0,4.0,4.0,1.0,film_03s.jpg,0.0,clock_7_5.png,1.0,56,0.650005,,,,,,,,,,,,,,,,,,,,,,,,,,,,,,,,
0.0,1.0,0.0,5.0,5.0,5.0,1.0,ironing_board_07s.jpg,0.0,clock_7_6.png,1.0,56,0.553775,,,,,,,,,,,,,,,,,,,,,,,,,,,,,,,,
1.0,1.0,0.0,6.0,6.0,6.0,1.0,checkbook_11s.jpg,1.0,clock_7_7.png,1.0,56,0.86584,,,,,,,,,,,,,,,,,,,,,,,,,,,,,,,,
,0.0,0.0,7.0,7.0,7.0,1.0,sushi_08s.jpg,0.0,clock_6_1.png,2.0,56,,,,,,,,,,,,,,,,,,,,,,,,,,,,,,,,,
,0.0,0.0,8.0,8.0,8.0,1.0,go-kart_10s.jpg,0.0,clock_6_2.png,2.0,56,,,,,,,,,,,,,,,,,,,,,,,,,,,,,,,,,
0.0,1.0,0.0,9.0,9.0,9.0,1.0,tripod_01b.jpg,0.0,clock_6_3.png,2.0,56,0.83159,,,,,,,,,,,,,,,,,,,,,,,,,,,,,,,,
0.0,1.0,0.0,10.0,10.0,10.0,1.0,tinsel_12s.jpg,0.0,clock_6_4.png,2.0,56,0.515705,,,,,,,,,,,,,,,,,,,,,,,,,,,,,,,,
0.0,1.0,0.0,11.0,11.0,11.0,1.0,microwave_02s.jpg,0.0,clock_6_5.png,2.0,56,0.67214,,,,,,,,,,,,,,,,,,,,,,,,,,,,,,,,
0.0,1.0,0.0,12.0,12.0,12.0,1.0,piano_13n.jpg,0.0,clock_6_6.png,2.0,56,1.66378,,,,,,,,,,,,,,,,,,,,,,,,,,,,,,,,
0.0,1.0,0.0,13.0,13.0,13.0,1.0,panda_02s.jpg,0.0,clock_5_1.png,3.0,56,0.913665,,,,,,,,,,,,,,,,,,,,,,,,,,,,,,,,
0.0,1.0,0.0,14.0,14.0,14.0,1.0,spatula04.jpg,0.0,clock_5_2.png,3.0,56,0.680135,,,,,,,,,,,,,,,,,,,,,,,,,,,,,,,,
,0.0,0.0,15.0,15.0,15.0,1.0,razor_12s.jpg,0.0,clock_5_3.png,3.0,56,,,,,,,,,,,,,,,,,,,,,,,,,,,,,,,,,
0.0,1.0,0.0,16.0,16.0,16.0,1.0,jet_15s.jpg,0.0,clock_5_4.png,3.0,56,1.851455,,,,,,,,,,,,,,,,,,,,,,,,,,,,,,,,
0.0,1.0,0.0,17.0,17.0,17.0,1.0,spider_web_03s.jpg,0.0,clock_5_5.png,3.0,56,1.17312,,,,,,,,,,,,,,,,,,,,,,,,,,,,,,,,
,0.0,0.0,18.0,18.0,18.0,1.0,lamppost_09s.jpg,0.0,clock_5_1.png,4.0,56,,,,,,,,,,,,,,,,,,,,,,,,,,,,,,,,,
0.0,1.0,0.0,19.0,19.0,19.0,1.0,kettle_08s.jpg,0.0,clock_5_2.png,4.0,56,1.00507,,,,,,,,,,,,,,,,,,,,,,,,,,,,,,,,
1.0,1.0,0.0,20.0,20.0,20.0,1.0,kettle_08s.jpg,1.0,clock_5_3.png,4.0,56,1.759105,,,,,,,,,,,,,,,,,,,,,,,,,,,,,,,,
1.0,0.0,0.0,21.0,21.0,21.0,1.0,jet_15s.jpg,0.0,clock_5_4.png,4.0,56,0.785675,,,,,,,,,,,,,,,,,,,,,,,,,,,,,,,,
1.0,1.0,0.0,22.0,22.0,22.0,1.0,kettle_08s.jpg,1.0,clock_5_5.png,4.0,56,0.906945,,,,,,,,,,,,,,,,,,,,,,,,,,,,,,,,
0.0,1.0,0.0,23.0,23.0,23.0,1.0,champagne_18s.jpg,0.0,clock_6_1.png,5.0,56,1.051645,,,,,,,,,,,,,,,,,,,,,,,,,,,,,,,,
0.0,1.0,0.0,24.0,24.0,24.0,1.0,radiator_05s.jpg,0.0,clock_6_2.png,5.0,56,1.31593,,,,,,,,,,,,,,,,,,,,,,,,,,,,,,,,
1.0,1.0,0.0,25.0,25.0,25.0,1.0,radiator_05s.jpg,1.0,clock_6_3.png,5.0,56,0.731535,,,,,,,,,,,,,,,,,,,,,,,,,,,,,,,,
0.0,1.0,0.0,26.0,26.0,26.0,1.0,pepper2_21s.jpg,0.0,clock_6_4.png,5.0,56,1.257255,,,,,,,,,,,,,,,,,,,,,,,,,,,,,,,,
1.0,1.0,0.0,27.0,27.0,27.0,1.0,pepper2_21s.jpg,1.0,clock_6_5.png,5.0,56,0.864235,,,,,,,,,,,,,,,,,,,,,,,,,,,,,,,,
0.0,1.0,0.0,28.0,28.0,28.0,1.0,breadstick_08s.jpg,0.0,clock_6_6.png,5.0,56,1.04948,,,,,,,,,,,,,,,,,,,,,,,,,,,,,,,,
,0.0,0.0,29.0,29.0,29.0,1.0,mailbox_11s.jpg,0.0,clock_7_1.png,6.0,56,,,,,,,,,,,,,,,,,,,,,,,,,,,,,,,,,
0.0,1.0,0.0,30.0,30.0,30.0,1.0,crystal_ball_12s.jpg,0.0,clock_7_2.png,6.0,56,0.6814,,,,,,,,,,,,,,,,,,,,,,,,,,,,,,,,
1.0,1.0,0.0,31.0,31.0,31.0,1.0,crystal_ball_12s.jpg,1.0,clock_7_3.png,6.0,56,0.621395,,,,,,,,,,,,,,,,,,,,,,,,,,,,,,,,
1.0,0.0,0.0,32.0,32.0,32.0,1.0,submarine_11n.jpg,0.0,clock_7_4.png,6.0,56,1.54698,,,,,,,,,,,,,,,,,,,,,,,,,,,,,,,,
0.0,1.0,0.0,33.0,33.0,33.0,1.0,ant_12s.jpg,0.0,clock_7_5.png,6.0,56,1.24681,,,,,,,,,,,,,,,,,,,,,,,,,,,,,,,,
0.0,1.0,0.0,34.0,34.0,34.0,1.0,smokingpipe.jpg,0.0,clock_7_6.png,6.0,56,1.16201,,,,,,,,,,,,,,,,,,,,,,,,,,,,,,,,
0.0,0.0,0.0,35.0,35.0,35.0,1.0,mailbox_11s.jpg,1.0,clock_7_7.png,6.0,56,1.06984,,,,,,,,,,,,,,,,,,,,,,,,,,,,,,,,
,,,,,,,,1.0,,,56,,1.0,1.0,1.281185,0.0,0.0,0.0,0.0,1.0,razor_12s.jpg,lamppost_09s.jpg,,,,,,,,,,,,,,,,,,,,,,
,,,,,,,,1.0,,,56,,0.0,0.0,0.81969,0.0,1.0,1.0,1.0,1.0,film_03s.jpg,sushi_08s.jpg,,,,,,,,,,,,,,,,,,,,,,
,,,,,,,,0.0,,,56,,1.0,0.0,1.066765,0.0,2.0,2.0,2.0,1.0,panda_02s.jpg,tinsel_12s.jpg,,,,,,,,,,,,,,,,,,,,,,
,,,,,,,,0.0,,,56,,1.0,0.0,0.946165,0.0,3.0,3.0,3.0,1.0,ironing_board_07s.jpg,doily_13s.jpg,,,,,,,,,,,,,,,,,,,,,,
,,,,,,,,0.0,,,56,,0.0,1.0,0.91056,0.0,4.0,4.0,4.0,1.0,piano_13n.jpg,tripod_01b.jpg,,,,,,,,,,,,,,,,,,,,,,
,,,,,,,,0.0,,,56,,0.0,1.0,3.513695,0.0,5.0,5.0,5.0,1.0,spider_web_03s.jpg,spatula04.jpg,,,,,,,,,,,,,,,,,,,,,,
,,,,,,,,,,,56,,,,,,,,,,,,0.0,4.0,4.0,4.0,1.0,clock_present_5_14.xlsx,clock_compare_task_5_14.xlsx,,,,,,,,,,,,,,,
0.0,1.0,0.0,0.0,0.0,0.0,1.0,orangutan_03s.jpg,0.0,clock_7_1.png,1.0,56,0.94527,,,,,,,,,,,,,,,,,,,,,,,,,,,,,,,,
0.0,1.0,0.0,1.0,1.0,1.0,1.0,squirrel_02s.jpg,0.0,clock_7_2.png,1.0,56,0.61648,,,,,,,,,,,,,,,,,,,,,,,,,,,,,,,,
0.0,1.0,0.0,2.0,2.0,2.0,1.0,tiara_05s.jpg,0.0,clock_7_3.png,1.0,56,0.669615,,,,,,,,,,,,,,,,,,,,,,,,,,,,,,,,
1.0,1.0,0.0,3.0,3.0,3.0,1.0,squirrel_02s.jpg,1.0,clock_7_4.png,1.0,56,1.41656,,,,,,,,,,,,,,,,,,,,,,,,,,,,,,,,
1.0,1.0,0.0,4.0,4.0,4.0,1.0,tiara_05s.jpg,1.0,clock_7_5.png,1.0,56,1.819305,,,,,,,,,,,,,,,,,,,,,,,,,,,,,,,,
0.0,1.0,0.0,5.0,5.0,5.0,1.0,mannequin_05s.jpg,0.0,clock_7_6.png,1.0,56,0.58392,,,,,,,,,,,,,,,,,,,,,,,,,,,,,,,,
0.0,1.0,0.0,6.0,6.0,6.0,1.0,omelet_07s.jpg,0.0,clock_7_7.png,1.0,56,0.5696,,,,,,,,,,,,,,,,,,,,,,,,,,,,,,,,
0.0,1.0,0.0,7.0,7.0,7.0,1.0,buoy_04s.jpg,0.0,clock_5_1.png,2.0,56,0.84508,,,,,,,,,,,,,,,,,,,,,,,,,,,,,,,,
0.0,1.0,0.0,8.0,8.0,8.0,1.0,meatball_13s.jpg,0.0,clock_5_2.png,2.0,56,0.732725,,,,,,,,,,,,,,,,,,,,,,,,,,,,,,,,
0.0,1.0,0.0,9.0,9.0,9.0,1.0,peppermint_07s.jpg,0.0,clock_5_3.png,2.0,56,0.6134,,,,,,,,,,,,,,,,,,,,,,,,,,,,,,,,
0.0,1.0,0.0,10.0,10.0,10.0,1.0,letter_opener_03s.jpg,0.0,clock_5_4.png,2.0,56,0.737925,,,,,,,,,,,,,,,,,,,,,,,,,,,,,,,,
0.0,1.0,0.0,11.0,11.0,11.0,1.0,jigsaw_puzzle_11s.jpg,0.0,clock_5_5.png,2.0,56,0.90844,,,,,,,,,,,,,,,,,,,,,,,,,,,,,,,,
0.0,1.0,0.0,12.0,12.0,12.0,1.0,bean_06s.jpg,0.0,clock_7_1.png,3.0,56,0.652045,,,,,,,,,,,,,,,,,,,,,,,,,,,,,,,,
1.0,0.0,0.0,13.0,13.0,13.0,1.0,tiara_05s.jpg,0.0,clock_7_2.png,3.0,56,1.19516,,,,,,,,,,,,,,,,,,,,,,,,,,,,,,,,
0.0,1.0,0.0,14.0,14.0,14.0,1.0,toothpaste_12s.jpg,0.0,clock_7_3.png,3.0,56,1.277995,,,,,,,,,,,,,,,,,,,,,,,,,,,,,,,,
0.0,1.0,0.0,15.0,15.0,15.0,1.0,toad_09s.jpg,0.0,clock_7_4.png,3.0,56,1.314825,,,,,,,,,,,,,,,,,,,,,,,,,,,,,,,,
0.0,1.0,0.0,16.0,16.0,16.0,1.0,reindeer_08s.jpg,0.0,clock_7_5.png,3.0,56,1.37184,,,,,,,,,,,,,,,,,,,,,,,,,,,,,,,,
0.0,1.0,0.0,17.0,17.0,17.0,1.0,refrigerator_07s.jpg,0.0,clock_7_6.png,3.0,56,1.07896,,,,,,,,,,,,,,,,,,,,,,,,,,,,,,,,
0.0,1.0,0.0,18.0,18.0,18.0,1.0,koala_13s.jpg,0.0,clock_7_7.png,3.0,56,0.607975,,,,,,,,,,,,,,,,,,,,,,,,,,,,,,,,
0.0,1.0,0.0,19.0,19.0,19.0,1.0,umbrella_15s.jpg,0.0,clock_5_1.png,4.0,56,0.60962,,,,,,,,,,,,,,,,,,,,,,,,,,,,,,,,
0.0,1.0,0.0,20.0,20.0,20.0,1.0,lamp_08s.jpg,0.0,clock_5_2.png,4.0,56,0.89662,,,,,,,,,,,,,,,,,,,,,,,,,,,,,,,,
0.0,1.0,0.0,21.0,21.0,21.0,1.0,bacon_05s.jpg,0.0,clock_5_3.png,4.0,56,0.808475,,,,,,,,,,,,,,,,,,,,,,,,,,,,,,,,
0.0,1.0,0.0,22.0,22.0,22.0,1.0,mug_06s.jpg,0.0,clock_5_4.png,4.0,56,0.98036,,,,,,,,,,,,,,,,,,,,,,,,,,,,,,,,
0.0,1.0,0.0,23.0,23.0,23.0,1.0,telephone_pole_05s.jpg,0.0,clock_5_5.png,4.0,56,0.946345,,,,,,,,,,,,,,,,,,,,,,,,,,,,,,,,
0.0,1.0,0.0,24.0,24.0,24.0,1.0,tablet_04s.jpg,0.0,clock_6_1.png,5.0,56,0.64097,,,,,,,,,,,,,,,,,,,,,,,,,,,,,,,,
0.0,1.0,0.0,25.0,25.0,25.0,1.0,flip_flop_03s.jpg,0.0,clock_6_2.png,5.0,56,0.57572,,,,,,,,,,,,,,,,,,,,,,,,,,,,,,,,
0.0,1.0,0.0,26.0,26.0,26.0,1.0,razor_blade_01b.jpg,0.0,clock_6_3.png,5.0,56,0.931155,,,,,,,,,,,,,,,,,,,,,,,,,,,,,,,,
0.0,1.0,0.0,27.0,27.0,27.0,1.0,turkey_10s.jpg,0.0,clock_6_4.png,5.0,56,0.58175,,,,,,,,,,,,,,,,,,,,,,,,,,,,,,,,
0.0,1.0,0.0,28.0,28.0,28.0,1.0,polar_bear_02s.jpg,0.0,clock_6_5.png,5.0,56,1.224575,,,,,,,,,,,,,,,,,,,,,,,,,,,,,,,,
0.0,1.0,0.0,29.0,29.0,29.0,1.0,pomegranate_04s.jpg,0.0,clock_6_6.png,5.0,56,1.14467,,,,,,,,,,,,,,,,,,,,,,,,,,,,,,,,
0.0,1.0,0.0,30.0,30.0,30.0,1.0,jetski_10s.jpg,0.0,clock_6_1.png,6.0,56,0.954675,,,,,,,,,,,,,,,,,,,,,,,,,,,,,,,,
0.0,1.0,0.0,31.0,31.0,31.0,1.0,milk_02s.jpg,0.0,clock_6_2.png,6.0,56,0.603155,,,,,,,,,,,,,,,,,,,,,,,,,,,,,,,,
,0.0,0.0,32.0,32.0,32.0,1.0,undershirt_02s.jpg,0.0,clock_6_3.png,6.0,56,,,,,,,,,,,,,,,,,,,,,,,,,,,,,,,,,
0.0,1.0,0.0,33.0,33.0,33.0,1.0,megaphone_03s.jpg,0.0,clock_6_4.png,6.0,56,0.810155,,,,,,,,,,,,,,,,,,,,,,,,,,,,,,,,
0.0,1.0,0.0,34.0,34.0,34.0,1.0,licorice_06s.jpg,0.0,clock_6_5.png,6.0,56,0.630435,,,,,,,,,,,,,,,,,,,,,,,,,,,,,,,,
0.0,0.0,0.0,35.0,35.0,35.0,1.0,jetski_10s.jpg,1.0,clock_6_6.png,6.0,56,0.82012,,,,,,,,,,,,,,,,,,,,,,,,,,,,,,,,
,,,,,,,,0.0,,,56,,0.0,1.0,1.412065,0.0,0.0,0.0,0.0,1.0,peppermint_07s.jpg,omelet_07s.jpg,,,,,,,,,,,,,,,,,,,,,,
,,,,,,,,0.0,,,56,,0.0,1.0,1.45024,0.0,1.0,1.0,1.0,1.0,meatball_13s.jpg,mannequin_05s.jpg,,,,,,,,,,,,,,,,,,,,,,
,,,,,,,,0.0,,,56,,0.0,1.0,1.257115,0.0,2.0,2.0,2.0,1.0,umbrella_15s.jpg,reindeer_08s.jpg,,,,,,,,,,,,,,,,,,,,,,
,,,,,,,,0.0,,,56,,0.0,1.0,0.97768,0.0,3.0,3.0,3.0,1.0,letter_opener_03s.jpg,buoy_04s.jpg,,,,,,,,,,,,,,,,,,,,,,
,,,,,,,,0.0,,,56,,0.0,1.0,1.77761,0.0,4.0,4.0,4.0,1.0,toad_09s.jpg,bean_06s.jpg,,,,,,,,,,,,,,,,,,,,,,
,,,,,,,,0.0,,,56,,1.0,0.0,1.589335,0.0,5.0,5.0,5.0,1.0,turkey_10s.jpg,tablet_04s.jpg,,,,,,,,,,,,,,,,,,,,,,
,0.0,,,,,,swan_11s.jpg,0.0,clockno_up.jpg,1.0,56,,,,,,,,,,,,,,,,,,,0.0,0.0,0.0,0.0,1.0,,,,,,,,,,
,0.0,,,,,,hummingbird_05s.jpg,0.0,clockno_default.jpg,1.0,56,,,,,,,,,,,,,,,,,,,0.0,1.0,1.0,1.0,1.0,,,,,,,,,,
0.0,1.0,,,,,,pretzel_09s.jpg,0.0,clockno_default.jpg,1.0,56,1.098575,,,,,,,,,,,,,,,,,,0.0,2.0,2.0,2.0,1.0,,,,,,,,,,
1.0,1.0,,,,,,pretzel_09s.jpg,1.0,clockno_default.jpg,1.0,56,0.84762,,,,,,,,,,,,,,,,,,0.0,3.0,3.0,3.0,1.0,,,,,,,,,,
1.0,1.0,,,,,,pretzel_09s.jpg,1.0,clockno_default.jpg,1.0,56,0.85232,,,,,,,,,,,,,,,,,,0.0,4.0,4.0,4.0,1.0,,,,,,,,,,
,0.0,,,,,,tennis_ball_06s.jpg,0.0,clockno_default.jpg,1.0,56,,,,,,,,,,,,,,,,,,,0.0,5.0,5.0,5.0,1.0,,,,,,,,,,
,0.0,,,,,,perfume_06s.jpg,0.0,clockno_up.jpg,2.0,56,,,,,,,,,,,,,,,,,,,0.0,6.0,6.0,6.0,1.0,,,,,,,,,,
1.0,0.0,,,,,,pretzel_09s.jpg,0.0,clockno_default.jpg,2.0,56,0.982435,,,,,,,,,,,,,,,,,,0.0,7.0,7.0,7.0,1.0,,,,,,,,,,
0.0,1.0,,,,,,teapot_03s.jpg,0.0,clockno_default.jpg,2.0,56,0.875235,,,,,,,,,,,,,,,,,,0.0,8.0,8.0,8.0,1.0,,,,,,,,,,
0.0,1.0,,,,,,denture_03s.jpg,0.0,clockno_default.jpg,2.0,56,0.693545,,,,,,,,,,,,,,,,,,0.0,9.0,9.0,9.0,1.0,,,,,,,,,,
0.0,1.0,,,,,,mitten_10s.jpg,0.0,clockno_default.jpg,2.0,56,0.71119,,,,,,,,,,,,,,,,,,0.0,10.0,10.0,10.0,1.0,,,,,,,,,,
,0.0,,,,,,pineapple_12s.jpg,0.0,clockno_up.jpg,3.0,56,,,,,,,,,,,,,,,,,,,0.0,11.0,11.0,11.0,1.0,,,,,,,,,,
,0.0,,,,,,fire_pit_10s.jpg,0.0,clockno_default.jpg,3.0,56,,,,,,,,,,,,,,,,,,,0.0,12.0,12.0,12.0,1.0,,,,,,,,,,
0.0,1.0,,,,,,icemaker_10s.jpg,0.0,clockno_default.jpg,3.0,56,1.33399,,,,,,,,,,,,,,,,,,0.0,13.0,13.0,13.0,1.0,,,,,,,,,,
1.0,0.0,,,,,,denture_03s.jpg,0.0,clockno_default.jpg,3.0,56,1.2513,,,,,,,,,,,,,,,,,,0.0,14.0,14.0,14.0,1.0,,,,,,,,,,
0.0,1.0,,,,,,tomato_sauce_09s.jpg,0.0,clockno_default.jpg,3.0,56,0.91631,,,,,,,,,,,,,,,,,,0.0,15.0,15.0,15.0,1.0,,,,,,,,,,
0.0,1.0,,,,,,chalice_10s.jpg,0.0,clockno_up.jpg,4.0,56,0.726675,,,,,,,,,,,,,,,,,,0.0,16.0,16.0,16.0,1.0,,,,,,,,,,
1.0,0.0,,,,,,pepper_mill_03s.jpg,0.0,clockno_default.jpg,4.0,56,2.175625,,,,,,,,,,,,,,,,,,0.0,17.0,17.0,17.0,1.0,,,,,,,,,,
0.0,1.0,,,,,,pencil_sharpener_09n.jpg,0.0,clockno_default.jpg,4.0,56,1.00839,,,,,,,,,,,,,,,,,,0.0,18.0,18.0,18.0,1.0,,,,,,,,,,
1.0,1.0,,,,,,chalice_10s.jpg,1.0,clockno_default.jpg,4.0,56,2.29973,,,,,,,,,,,,,,,,,,0.0,19.0,19.0,19.0,1.0,,,,,,,,,,
0.0,1.0,,,,,,crossbow_10s.jpg,0.0,clockno_default.jpg,4.0,56,0.85628,,,,,,,,,,,,,,,,,,0.0,20.0,20.0,20.0,1.0,,,,,,,,,,
0.0,1.0,,,,,,tortilla_06s.jpg,0.0,clockno_default.jpg,4.0,56,1.15901,,,,,,,,,,,,,,,,,,0.0,21.0,21.0,21.0,1.0,,,,,,,,,,
,0.0,,,,,,penlight_12s.jpg,0.0,clockno_default.jpg,4.0,56,,,,,,,,,,,,,,,,,,,0.0,22.0,22.0,22.0,1.0,,,,,,,,,,
,0.0,,,,,,keyboard_05s.jpg,0.0,clockno_up.jpg,5.0,56,,,,,,,,,,,,,,,,,,,0.0,23.0,23.0,23.0,1.0,,,,,,,,,,
1.0,1.0,,,,,,keyboard_05s.jpg,1.0,clockno_default.jpg,5.0,56,1.646495,,,,,,,,,,,,,,,,,,0.0,24.0,24.0,24.0,1.0,,,,,,,,,,
0.0,1.0,,,,,,sparkler_02s.jpg,0.0,clockno_default.jpg,5.0,56,1.802645,,,,,,,,,,,,,,,,,,0.0,25.0,25.0,25.0,1.0,,,,,,,,,,
0.0,1.0,,,,,,pinwheel_06s.jpg,0.0,clockno_default.jpg,5.0,56,1.01102,,,,,,,,,,,,,,,,,,0.0,26.0,26.0,26.0,1.0,,,,,,,,,,
1.0,0.0,,,,,,frog_09s.jpg,0.0,clockno_default.jpg,5.0,56,1.26293,,,,,,,,,,,,,,,,,,0.0,27.0,27.0,27.0,1.0,,,,,,,,,,
1.0,0.0,,,,,,pepper_mill_03s.jpg,0.0,clockno_default.jpg,5.0,56,1.011685,,,,,,,,,,,,,,,,,,0.0,28.0,28.0,28.0,1.0,,,,,,,,,,
0.0,1.0,,,,,,gargoyle_08s.jpg,0.0,clockno_default.jpg,5.0,56,0.723225,,,,,,,,,,,,,,,,,,0.0,29.0,29.0,29.0,1.0,,,,,,,,,,
0.0,1.0,,,,,,rosary_03s.jpg,0.0,clockno_up.jpg,6.0,56,1.13504,,,,,,,,,,,,,,,,,,0.0,30.0,30.0,30.0,1.0,,,,,,,,,,
1.0,1.0,,,,,,rosary_03s.jpg,1.0,clockno_default.jpg,6.0,56,1.02634,,,,,,,,,,,,,,,,,,0.0,31.0,31.0,31.0,1.0,,,,,,,,,,
0.0,1.0,,,,,,chocolate_01b.jpg,0.0,clockno_default.jpg,6.0,56,0.964345,,,,,,,,,,,,,,,,,,0.0,32.0,32.0,32.0,1.0,,,,,,,,,,
1.0,1.0,,,,,,chocolate_01b.jpg,1.0,clockno_default.jpg,6.0,56,0.74445,,,,,,,,,,,,,,,,,,0.0,33.0,33.0,33.0,1.0,,,,,,,,,,
0.0,1.0,,,,,,raft_09s.jpg,0.0,clockno_default.jpg,6.0,56,1.309235,,,,,,,,,,,,,,,,,,0.0,34.0,34.0,34.0,1.0,,,,,,,,,,
0.0,1.0,,,,,,ravioli_08s.jpg,0.0,clockno_default.jpg,6.0,56,1.04258,,,,,,,,,,,,,,,,,,0.0,35.0,35.0,35.0,1.0,,,,,,,,,,
,,,,,,,,0.0,,,56,,0.0,1.0,1.776635,,,,,,teapot_03s.jpg,tennis_ball_06s.jpg,,,,,,,,,,,,,0.0,0.0,0.0,0.0,1.0,,,,,
,,,,,,,,1.0,,,56,,1.0,1.0,1.948525,,,,,,mitten_10s.jpg,icemaker_10s.jpg,,,,,,,,,,,,,0.0,1.0,1.0,1.0,1.0,,,,,
,,,,,,,,0.0,,,56,,1.0,0.0,1.51847,,,,,,sparkler_02s.jpg,penlight_12s.jpg,,,,,,,,,,,,,0.0,2.0,2.0,2.0,1.0,,,,,
,,,,,,,,1.0,,,56,,1.0,1.0,1.618105,,,,,,pinwheel_06s.jpg,gargoyle_08s.jpg,,,,,,,,,,,,,0.0,3.0,3.0,3.0,1.0,,,,,
,,,,,,,,1.0,,,56,,1.0,1.0,1.911475,,,,,,fire_pit_10s.jpg,tomato_sauce_09s.jpg,,,,,,,,,,,,,0.0,4.0,4.0,4.0,1.0,,,,,
,,,,,,,,1.0,,,56,,0.0,0.0,0.95577,,,,,,pencil_sharpener_09n.jpg,tortilla_06s.jpg,,,,,,,,,,,,,0.0,5.0,5.0,5.0,1.0,,,,,
,,,,,,,,,,,56,,,,,,,,,,,,,,,,,clockno_present_1_14.xlsx,clockno_compare_task_1_14.xlsx,,,,,,,,,,,0.0,0.0,0.0,0.0,1.0
0.0,1.0,,,,,,mousetrap_15n.jpg,0.0,clockno_up.jpg,1.0,56,0.774655,,,,,,,,,,,,,,,,,,0.0,0.0,0.0,0.0,1.0,,,,,,,,,,
,0.0,,,,,,bee_20s.jpg,0.0,clockno_default.jpg,1.0,56,,,,,,,,,,,,,,,,,,,0.0,1.0,1.0,1.0,1.0,,,,,,,,,,
1.0,1.0,,,,,,bee_20s.jpg,1.0,clockno_default.jpg,1.0,56,1.360255,,,,,,,,,,,,,,,,,,0.0,2.0,2.0,2.0,1.0,,,,,,,,,,
1.0,1.0,,,,,,mousetrap_15n.jpg,1.0,clockno_default.jpg,1.0,56,1.01018,,,,,,,,,,,,,,,,,,0.0,3.0,3.0,3.0,1.0,,,,,,,,,,
1.0,1.0,,,,,,mousetrap_15n.jpg,1.0,clockno_default.jpg,1.0,56,0.7103,,,,,,,,,,,,,,,,,,0.0,4.0,4.0,4.0,1.0,,,,,,,,,,
,0.0,,,,,,birdcage_08s.jpg,0.0,clockno_up.jpg,2.0,56,,,,,,,,,,,,,,,,,,,0.0,5.0,5.0,5.0,1.0,,,,,,,,,,
0.0,1.0,,,,,,recliner_02s.jpg,0.0,clockno_default.jpg,2.0,56,0.663585,,,,,,,,,,,,,,,,,,0.0,6.0,6.0,6.0,1.0,,,,,,,,,,
0.0,1.0,,,,,,plunger_08s.jpg,0.0,clockno_default.jpg,2.0,56,0.96645,,,,,,,,,,,,,,,,,,0.0,7.0,7.0,7.0,1.0,,,,,,,,,,
0.0,1.0,,,,,,marker_05s.jpg,0.0,clockno_default.jpg,2.0,56,0.667465,,,,,,,,,,,,,,,,,,0.0,8.0,8.0,8.0,1.0,,,,,,,,,,
0.0,1.0,,,,,,rocking_horse_03s.jpg,0.0,clockno_default.jpg,2.0,56,1.0944,,,,,,,,,,,,,,,,,,0.0,9.0,9.0,9.0,1.0,,,,,,,,,,
0.0,1.0,,,,,,tape_06s.jpg,0.0,clockno_default.jpg,2.0,56,0.677415,,,,,,,,,,,,,,,,,,0.0,10.0,10.0,10.0,1.0,,,,,,,,,,
0.0,1.0,,,,,,plaster_cast_13s.jpg,0.0,clockno_default.jpg,2.0,56,0.717645,,,,,,,,,,,,,,,,,,0.0,11.0,11.0,11.0,1.0,,,,,,,,,,
0.0,1.0,,,,,,diving_board_07s.jpg,0.0,clockno_up.jpg,3.0,56,0.772435,,,,,,,,,,,,,,,,,,0.0,12.0,12.0,12.0,1.0,,,,,,,,,,
0.0,1.0,,,,,,ring_03s.jpg,0.0,clockno_default.jpg,3.0,56,0.840655,,,,,,,,,,,,,,,,,,0.0,13.0,13.0,13.0,1.0,,,,,,,,,,
0.0,1.0,,,,,,lollipop_08s.jpg,0.0,clockno_default.jpg,3.0,56,0.59192,,,,,,,,,,,,,,,,,,0.0,14.0,14.0,14.0,1.0,,,,,,,,,,
1.0,1.0,,,,,,diving_board_07s.jpg,1.0,clockno_default.jpg,3.0,56,0.811735,,,,,,,,,,,,,,,,,,0.0,15.0,15.0,15.0,1.0,,,,,,,,,,
1.0,0.0,,,,,,marker_05s.jpg,0.0,clockno_default.jpg,3.0,56,0.86447,,,,,,,,,,,,,,,,,,0.0,16.0,16.0,16.0,1.0,,,,,,,,,,
0.0,1.0,,,,,,rooster_03s.jpg,0.0,clockno_default.jpg,3.0,56,0.92809,,,,,,,,,,,,,,,,,,0.0,17.0,17.0,17.0,1.0,,,,,,,,,,
0.0,1.0,,,,,,bolo_tie_08s.jpg,0.0,clockno_up.jpg,4.0,56,0.845755,,,,,,,,,,,,,,,,,,0.0,18.0,18.0,18.0,1.0,,,,,,,,,,
1.0,1.0,,,,,,bolo_tie_08s.jpg,1.0,clockno_default.jpg,4.0,56,1.171455,,,,,,,,,,,,,,,,,,0.0,19.0,19.0,19.0,1.0,,,,,,,,,,
1.0,1.0,,,,,,bolo_tie_08s.jpg,1.0,clockno_default.jpg,4.0,56,0.86407,,,,,,,,,,,,,,,,,,0.0,20.0,20.0,20.0,1.0,,,,,,,,,,
0.0,1.0,,,,,,lion_18s.jpg,0.0,clockno_default.jpg,4.0,56,1.143835,,,,,,,,,,,,,,,,,,0.0,21.0,21.0,21.0,1.0,,,,,,,,,,
0.0,1.0,,,,,,ladle_04s.jpg,0.0,clockno_default.jpg,4.0,56,1.03111,,,,,,,,,,,,,,,,,,0.0,22.0,22.0,22.0,1.0,,,,,,,,,,
0.0,1.0,,,,,,bank_06s.jpg,0.0,clockno_default.jpg,4.0,56,1.02125,,,,,,,,,,,,,,,,,,0.0,23.0,23.0,23.0,1.0,,,,,,,,,,
0.0,1.0,,,,,,turtleneck_11s.jpg,0.0,clockno_default.jpg,4.0,56,0.88628,,,,,,,,,,,,,,,,,,0.0,24.0,24.0,24.0,1.0,,,,,,,,,,
0.0,1.0,,,,,,funnel_01b.jpg,0.0,clockno_up.jpg,5.0,56,0.66398,,,,,,,,,,,,,,,,,,0.0,25.0,25.0,25.0,1.0,,,,,,,,,,
,0.0,,,,,,antenna_01b.jpg,0.0,clockno_default.jpg,5.0,56,,,,,,,,,,,,,,,,,,,0.0,26.0,26.0,26.0,1.0,,,,,,,,,,
,0.0,,,,,,juicer2_06s.jpg,0.0,clockno_default.jpg,5.0,56,,,,,,,,,,,,,,,,,,,0.0,27.0,27.0,27.0,1.0,,,,,,,,,,
1.0,1.0,,,,,,funnel_01b.jpg,1.0,clockno_default.jpg,5.0,56,0.808,,,,,,,,,,,,,,,,,,0.0,28.0,28.0,28.0,1.0,,,,,,,,,,
0.0,1.0,,,,,,sunflower_17s.jpg,0.0,clockno_default.jpg,5.0,56,0.83346,,,,,,,,,,,,,,,,,,0.0,29.0,29.0,29.0,1.0,,,,,,,,,,
,0.0,,,,,,crayon_09s.jpg,0.0,clockno_default.jpg,5.0,56,,,,,,,,,,,,,,,,,,,0.0,30.0,30.0,30.0,1.0,,,,,,,,,,
,0.0,,,,,,gas_mask_11s.jpg,0.0,clockno_up.jpg,6.0,56,,,,,,,,,,,,,,,,,,,0.0,31.0,31.0,31.0,1.0,,,,,,,,,,
0.0,1.0,,,,,,inhaler_01b.jpg,0.0,clockno_default.jpg,6.0,56,0.774415,,,,,,,,,,,,,,,,,,0.0,32.0,32.0,32.0,1.0,,,,,,,,,,
1.0,1.0,,,,,,gas_mask_11s.jpg,1.0,clockno_default.jpg,6.0,56,0.887295,,,,,,,,,,,,,,,,,,0.0,33.0,33.0,33.0,1.0,,,,,,,,,,
0.0,1.0,,,,,,sunglasses_11s.jpg,0.0,clockno_default.jpg,6.0,56,0.761585,,,,,,,,,,,,,,,,,,0.0,34.0,34.0,34.0,1.0,,,,,,,,,,
1.0,0.0,,,,,,rooster_03s.jpg,0.0,clockno_default.jpg,6.0,56,0.885145,,,,,,,,,,,,,,,,,,0.0,35.0,35.0,35.0,1.0,,,,,,,,,,
,,,,,,,,1.0,,,56,,0.0,0.0,1.871235,,,,,,plaster_cast_13s.jpg,lollipop_08s.jpg,,,,,,,,,,,,,0.0,0.0,0.0,0.0,1.0,,,,,
,,,,,,,,1.0,,,56,,0.0,0.0,1.23075,,,,,,tape_06s.jpg,ring_03s.jpg,,,,,,,,,,,,,0.0,1.0,1.0,1.0,1.0,,,,,
,,,,,,,,1.0,,,56,,1.0,1.0,1.29202,,,,,,bank_06s.jpg,antenna_01b.jpg,,,,,,,,,,,,,0.0,2.0,2.0,2.0,1.0,,,,,
,,,,,,,,1.0,,,56,,0.0,0.0,2.39548,,,,,,recliner_02s.jpg,rocking_horse_03s.jpg,,,,,,,,,,,,,0.0,3.0,3.0,3.0,1.0,,,,,
,,,,,,,,0.0,,,56,,1.0,0.0,1.18513,,,,,,turtleneck_11s.jpg,lion_18s.jpg,,,,,,,,,,,,,0.0,4.0,4.0,4.0,1.0,,,,,
,,,,,,,,1.0,,,56,,1.0,1.0,0.953545,,,,,,juicer2_06s.jpg,crayon_09s.jpg,,,,,,,,,,,,,0.0,5.0,5.0,5.0,1.0,,,,,
,,,,,,,,,,,56,,,,,,,,,,,,,,,,,clockno_present_2_14.xlsx,clockno_compare_task_2_14.xlsx,,,,,,,,,,,0.0,1.0,1.0,1.0,1.0
0.0,1.0,,,,,,phone_01b.jpg,0.0,clockno_up.jpg,1.0,56,0.532085,,,,,,,,,,,,,,,,,,0.0,0.0,0.0,0.0,1.0,,,,,,,,,,
1.0,1.0,,,,,,phone_01b.jpg,1.0,clockno_default.jpg,1.0,56,0.5514,,,,,,,,,,,,,,,,,,0.0,1.0,1.0,1.0,1.0,,,,,,,,,,
0.0,1.0,,,,,,pan_02s.jpg,0.0,clockno_default.jpg,1.0,56,0.541765,,,,,,,,,,,,,,,,,,0.0,2.0,2.0,2.0,1.0,,,,,,,,,,
0.0,1.0,,,,,,turnstile_08s.jpg,0.0,clockno_default.jpg,1.0,56,0.53605,,,,,,,,,,,,,,,,,,0.0,3.0,3.0,3.0,1.0,,,,,,,,,,
0.0,1.0,,,,,,rolling_pin_02s.jpg,0.0,clockno_default.jpg,1.0,56,1.478405,,,,,,,,,,,,,,,,,,0.0,4.0,4.0,4.0,1.0,,,,,,,,,,
0.0,1.0,,,,,,rocket_02s.jpg,0.0,clockno_default.jpg,1.0,56,0.76006,,,,,,,,,,,,,,,,,,0.0,5.0,5.0,5.0,1.0,,,,,,,,,,
0.0,1.0,,,,,,cape_11s.jpg,0.0,clockno_default.jpg,1.0,56,0.64219,,,,,,,,,,,,,,,,,,0.0,6.0,6.0,6.0,1.0,,,,,,,,,,
0.0,1.0,,,,,,tube_top_03s.jpg,0.0,clockno_up.jpg,2.0,56,0.57393,,,,,,,,,,,,,,,,,,0.0,7.0,7.0,7.0,1.0,,,,,,,,,,
0.0,1.0,,,,,,gingerbread_man_03s.jpg,0.0,clockno_default.jpg,2.0,56,0.5674,,,,,,,,,,,,,,,,,,0.0,8.0,8.0,8.0,1.0,,,,,,,,,,
0.0,1.0,,,,,,bottle_opener_11s.jpg,0.0,clockno_default.jpg,2.0,56,0.782265,,,,,,,,,,,,,,,,,,0.0,9.0,9.0,9.0,1.0,,,,,,,,,,
0.0,1.0,,,,,,light_switch_02s.jpg,0.0,clockno_default.jpg,2.0,56,0.684035,,,,,,,,,,,,,,,,,,0.0,10.0,10.0,10.0,1.0,,,,,,,,,,
1.0,1.0,,,,,,gingerbread_man_03s.jpg,1.0,clockno_default.jpg,2.0,56,1.714,,,,,,,,,,,,,,,,,,0.0,11.0,11.0,11.0,1.0,,,,,,,,,,
0.0,1.0,,,,,,turf_03s.jpg,0.0,clockno_up.jpg,3.0,56,0.85726,,,,,,,,,,,,,,,,,,0.0,12.0,12.0,12.0,1.0,,,,,,,,,,
0.0,1.0,,,,,,poinsettia_04s.jpg,0.0,clockno_default.jpg,3.0,56,0.759665,,,,,,,,,,,,,,,,,,0.0,13.0,13.0,13.0,1.0,,,,,,,,,,
1.0,1.0,,,,,,turf_03s.jpg,1.0,clockno_default.jpg,3.0,56,1.025075,,,,,,,,,,,,,,,,,,0.0,14.0,14.0,14.0,1.0,,,,,,,,,,
0.0,1.0,,,,,,quilt_03s.jpg,0.0,clockno_default.jpg,3.0,56,1.88671,,,,,,,,,,,,,,,,,,0.0,15.0,15.0,15.0,1.0,,,,,,,,,,
1.0,0.0,,,,,,tube_top_03s.jpg,0.0,clockno_default.jpg,3.0,56,0.643795,,,,,,,,,,,,,,,,,,0.0,16.0,16.0,16.0,1.0,,,,,,,,,,
0.0,1.0,,,,,,compass_10n.jpg,0.0,clockno_default.jpg,3.0,56,1.11684,,,,,,,,,,,,,,,,,,0.0,17.0,17.0,17.0,1.0,,,,,,,,,,
0.0,1.0,,,,,,fur_coat_11s.jpg,0.0,clockno_default.jpg,3.0,56,1.010245,,,,,,,,,,,,,,,,,,0.0,18.0,18.0,18.0,1.0,,,,,,,,,,
0.0,1.0,,,,,,squirt_gun_03s.jpg,0.0,clockno_up.jpg,4.0,56,0.72189,,,,,,,,,,,,,,,,,,0.0,19.0,19.0,19.0,1.0,,,,,,,,,,
1.0,1.0,,,,,,squirt_gun_03s.jpg,1.0,clockno_default.jpg,4.0,56,1.32954,,,,,,,,,,,,,,,,,,0.0,20.0,20.0,20.0,1.0,,,,,,,,,,
,0.0,,,,,,candy_cane_06s.jpg,0.0,clockno_default.jpg,4.0,56,,,,,,,,,,,,,,,,,,,0.0,21.0,21.0,21.0,1.0,,,,,,,,,,
0.0,1.0,,,,,,boar_10s.jpg,0.0,clockno_default.jpg,4.0,56,0.70998,,,,,,,,,,,,,,,,,,0.0,22.0,22.0,22.0,1.0,,,,,,,,,,
,0.0,,,,,,poinsettia_04s.jpg,0.0,clockno_default.jpg,4.0,56,,,,,,,,,,,,,,,,,,,0.0,23.0,23.0,23.0,1.0,,,,,,,,,,
,0.0,,,,,,possum_09s.jpg,0.0,clockno_default.jpg,4.0,56,,,,,,,,,,,,,,,,,,,0.0,24.0,24.0,24.0,1.0,,,,,,,,,,
0.0,1.0,,,,,,cobra_05s.jpg,0.0,clockno_up.jpg,5.0,56,1.2257,,,,,,,,,,,,,,,,,,0.0,25.0,25.0,25.0,1.0,,,,,,,,,,
0.0,1.0,,,,,,chopsticks_08s.jpg,0.0,clockno_default.jpg,5.0,56,0.87402,,,,,,,,,,,,,,,,,,0.0,26.0,26.0,26.0,1.0,,,,,,,,,,
0.0,1.0,,,,,,fossil_06s.jpg,0.0,clockno_default.jpg,5.0,56,1.25819,,,,,,,,,,,,,,,,,,0.0,27.0,27.0,27.0,1.0,,,,,,,,,,
1.0,1.0,,,,,,fossil_06s.jpg,1.0,clockno_default.jpg,5.0,56,1.095925,,,,,,,,,,,,,,,,,,0.0,28.0,28.0,28.0,1.0,,,,,,,,,,
0.0,1.0,,,,,,padlock_07s.jpg,0.0,clockno_default.jpg,5.0,56,1.88594,,,,,,,,,,,,,,,,,,0.0,29.0,29.0,29.0,1.0,,,,,,,,,,
0.0,1.0,,,,,,soda_fountain_03s.jpg,0.0,clockno_up.jpg,6.0,56,1.418625,,,,,,,,,,,,,,,,,,0.0,30.0,30.0,30.0,1.0,,,,,,,,,,
,0.0,,,,,,pipe1_10s.jpg,0.0,clockno_default.jpg,6.0,56,,,,,,,,,,,,,,,,,,,0.0,31.0,31.0,31.0,1.0,,,,,,,,,,
0.0,1.0,,,,,,loom_05s.jpg,0.0,clockno_default.jpg,6.0,56,0.932935,,,,,,,,,,,,,,,,,,0.0,32.0,32.0,32.0,1.0,,,,,,,,,,
0.0,1.0,,,,,,jersey_02s.jpg,0.0,clockno_default.jpg,6.0,56,0.61585,,,,,,,,,,,,,,,,,,0.0,33.0,33.0,33.0,1.0,,,,,,,,,,
0.0,1.0,,,,,,mop_08s.jpg,0.0,clockno_default.jpg,6.0,56,0.88859,,,,,,,,,,,,,,,,,,0.0,34.0,34.0,34.0,1.0,,,,,,,,,,
0.0,1.0,,,,,,puppet_01b.jpg,0.0,clockno_default.jpg,6.0,56,1.294085,,,,,,,,,,,,,,,,,,0.0,35.0,35.0,35.0,1.0,,,,,,,,,,
,,,,,,,,1.0,,,56,,1.0,1.0,1.73987,,,,,,boar_10s.jpg,cobra_05s.jpg,,,,,,,,,,,,,0.0,0.0,0.0,0.0,1.0,,,,,
,,,,,,,,0.0,,,56,,0.0,1.0,1.545815,,,,,,bottle_opener_11s.jpg,cape_11s.jpg,,,,,,,,,,,,,0.0,1.0,1.0,1.0,1.0,,,,,
,,,,,,,,0.0,,,56,,1.0,0.0,1.389025,,,,,,candy_cane_06s.jpg,fur_coat_11s.jpg,,,,,,,,,,,,,0.0,2.0,2.0,2.0,1.0,,,,,
,,,,,,,,0.0,,,56,,0.0,1.0,0.76363,,,,,,rocket_02s.jpg,pan_02s.jpg,,,,,,,,,,,,,0.0,3.0,3.0,3.0,1.0,,,,,
,,,,,,,,1.0,,,56,,1.0,1.0,0.775085,,,,,,soda_fountain_03s.jpg,jersey_02s.jpg,,,,,,,,,,,,,0.0,4.0,4.0,4.0,1.0,,,,,
,,,,,,,,0.0,,,56,,0.0,1.0,1.16103,,,,,,mop_08s.jpg,pipe1_10s.jpg,,,,,,,,,,,,,0.0,5.0,5.0,5.0,1.0,,,,,
,,,,,,,,,,,56,,,,,,,,,,,,,,,,,clockno_present_3_14.xlsx,clockno_compare_task_3_14.xlsx,,,,,,,,,,,0.0,2.0,2.0,2.0,1.0
0.0,1.0,,,,,,beard_16s.jpg,0.0,clockno_up.jpg,1.0,56,1.39927,,,,,,,,,,,,,,,,,,0.0,0.0,0.0,0.0,1.0,,,,,,,,,,
1.0,1.0,,,,,,beard_16s.jpg,1.0,clockno_default.jpg,1.0,56,1.02911,,,,,,,,,,,,,,,,,,0.0,1.0,1.0,1.0,1.0,,,,,,,,,,
,0.0,,,,,,printer_09s.jpg,0.0,clockno_default.jpg,1.0,56,,,,,,,,,,,,,,,,,,,0.0,2.0,2.0,2.0,1.0,,,,,,,,,,
0.0,1.0,,,,,,juicer1_08s.jpg,0.0,clockno_default.jpg,1.0,56,0.973765,,,,,,,,,,,,,,,,,,0.0,3.0,3.0,3.0,1.0,,,,,,,,,,
0.0,1.0,,,,,,cotton_candy_01b.jpg,0.0,clockno_default.jpg,1.0,56,1.542995,,,,,,,,,,,,,,,,,,0.0,4.0,4.0,4.0,1.0,,,,,,,,,,
0.0,1.0,,,,,,tape_measure_11s.jpg,0.0,clockno_up.jpg,2.0,56,1.175245,,,,,,,,,,,,,,,,,,0.0,5.0,5.0,5.0,1.0,,,,,,,,,,
1.0,0.0,,,,,,beard_16s.jpg,0.0,clockno_default.jpg,2.0,56,0.909015,,,,,,,,,,,,,,,,,,0.0,6.0,6.0,6.0,1.0,,,,,,,,,,
0.0,1.0,,,,,,trampoline_13s.jpg,0.0,clockno_default.jpg,2.0,56,1.32712,,,,,,,,,,,,,,,,,,0.0,7.0,7.0,7.0,1.0,,,,,,,,,,
1.0,1.0,,,,,,trampoline_13s.jpg,1.0,clockno_default.jpg,2.0,56,0.866725,,,,,,,,,,,,,,,,,,0.0,8.0,8.0,8.0,1.0,,,,,,,,,,
1.0,1.0,,,,,,trampoline_13s.jpg,1.0,clockno_default.jpg,2.0,56,0.922855,,,,,,,,,,,,,,,,,,0.0,9.0,9.0,9.0,1.0,,,,,,,,,,
0.0,1.0,,,,,,kangaroo_02s.jpg,0.0,clockno_default.jpg,2.0,56,0.75369,,,,,,,,,,,,,,,,,,0.0,10.0,10.0,10.0,1.0,,,,,,,,,,
0.0,1.0,,,,,,mirror_12s.jpg,0.0,clockno_default.jpg,2.0,56,1.360315,,,,,,,,,,,,,,,,,,0.0,11.0,11.0,11.0,1.0,,,,,,,,,,
0.0,1.0,,,,,,powder_07s.jpg,0.0,clockno_up.jpg,3.0,56,0.81598,,,,,,,,,,,,,,,,,,0.0,12.0,12.0,12.0,1.0,,,,,,,,,,
0.0,1.0,,,,,,rollerskate_03s.jpg,0.0,clockno_default.jpg,3.0,56,0.644455,,,,,,,,,,,,,,,,,,0.0,13.0,13.0,13.0,1.0,,,,,,,,,,
0.0,1.0,,,,,,gear_07s.jpg,0.0,clockno_default.jpg,3.0,56,0.83795,,,,,,,,,,,,,,,,,,0.0,14.0,14.0,14.0,1.0,,,,,,,,,,
0.0,1.0,,,,,,playpen_11s.jpg,0.0,clockno_default.jpg,3.0,56,0.908115,,,,,,,,,,,,,,,,,,0.0,15.0,15.0,15.0,1.0,,,,,,,,,,
1.0,1.0,,,,,,playpen_11s.jpg,1.0,clockno_default.jpg,3.0,56,1.113625,,,,,,,,,,,,,,,,,,0.0,16.0,16.0,16.0,1.0,,,,,,,,,,
0.0,1.0,,,,,,keyhole_03s.jpg,0.0,clockno_up.jpg,4.0,56,0.729735,,,,,,,,,,,,,,,,,,0.0,17.0,17.0,17.0,1.0,,,,,,,,,,
0.0,1.0,,,,,,spoon02a.jpg,0.0,clockno_default.jpg,4.0,56,0.8721,,,,,,,,,,,,,,,,,,0.0,18.0,18.0,18.0,1.0,,,,,,,,,,
,0.0,,,,,,mud_13s.jpg,0.0,clockno_default.jpg,4.0,56,,,,,,,,,,,,,,,,,,,0.0,19.0,19.0,19.0,1.0,,,,,,,,,,
0.0,1.0,,,,,,pea_11s.jpg,0.0,clockno_default.jpg,4.0,56,0.676615,,,,,,,,,,,,,,,,,,0.0,20.0,20.0,20.0,1.0,,,,,,,,,,
1.0,1.0,,,,,,spoon02a.jpg,1.0,clockno_default.jpg,4.0,56,1.49507,,,,,,,,,,,,,,,,,,0.0,21.0,21.0,21.0,1.0,,,,,,,,,,
0.0,1.0,,,,,,turtle_08s.jpg,0.0,clockno_default.jpg,4.0,56,1.088925,,,,,,,,,,,,,,,,,,0.0,22.0,22.0,22.0,1.0,,,,,,,,,,
0.0,1.0,,,,,,tattoo_14s.jpg,0.0,clockno_up.jpg,5.0,56,0.88349,,,,,,,,,,,,,,,,,,0.0,23.0,23.0,23.0,1.0,,,,,,,,,,
1.0,0.0,,,,,,mirror_12s.jpg,0.0,clockno_default.jpg,5.0,56,0.819895,,,,,,,,,,,,,,,,,,0.0,24.0,24.0,24.0,1.0,,,,,,,,,,
0.0,1.0,,,,,,tie_03s.jpg,0.0,clockno_default.jpg,5.0,56,0.85006,,,,,,,,,,,,,,,,,,0.0,25.0,25.0,25.0,1.0,,,,,,,,,,
1.0,0.0,,,,,,printer_09s.jpg,0.0,clockno_default.jpg,5.0,56,1.07067,,,,,,,,,,,,,,,,,,0.0,26.0,26.0,26.0,1.0,,,,,,,,,,
0.0,1.0,,,,,,roller_coaster_07s.jpg,0.0,clockno_default.jpg,5.0,56,1.087345,,,,,,,,,,,,,,,,,,0.0,27.0,27.0,27.0,1.0,,,,,,,,,,
1.0,1.0,,,,,,tattoo_14s.jpg,1.0,clockno_default.jpg,5.0,56,1.092145,,,,,,,,,,,,,,,,,,0.0,28.0,28.0,28.0,1.0,,,,,,,,,,
0.0,1.0,,,,,,toy_04s.jpg,0.0,clockno_default.jpg,5.0,56,1.28988,,,,,,,,,,,,,,,,,,0.0,29.0,29.0,29.0,1.0,,,,,,,,,,
0.0,1.0,,,,,,projector_08s.jpg,0.0,clockno_up.jpg,6.0,56,1.182585,,,,,,,,,,,,,,,,,,0.0,30.0,30.0,30.0,1.0,,,,,,,,,,
0.0,1.0,,,,,,ink_08s.jpg,0.0,clockno_default.jpg,6.0,56,1.10921,,,,,,,,,,,,,,,,,,0.0,31.0,31.0,31.0,1.0,,,,,,,,,,
0.0,1.0,,,,,,teabag_12s.jpg,0.0,clockno_default.jpg,6.0,56,1.0469,,,,,,,,,,,,,,,,,,0.0,32.0,32.0,32.0,1.0,,,,,,,,,,
0.0,1.0,,,,,,tongs_08s.jpg,0.0,clockno_default.jpg,6.0,56,1.729455,,,,,,,,,,,,,,,,,,0.0,33.0,33.0,33.0,1.0,,,,,,,,,,
0.0,1.0,,,,,,power_line_08s.jpg,0.0,clockno_default.jpg,6.0,56,0.87737,,,,,,,,,,,,,,,,,,0.0,34.0,34.0,34.0,1.0,,,,,,,,,,
0.0,1.0,,,,,,margarita_03s.jpg,0.0,clockno_default.jpg,6.0,56,1.14584,,,,,,,,,,,,,,,,,,0.0,35.0,35.0,35.0,1.0,,,,,,,,,,
,,,,,,,,0.0,,,56,,0.0,1.0,2.47204,,,,,,rollerskate_03s.jpg,kangaroo_02s.jpg,,,,,,,,,,,,,0.0,0.0,0.0,0.0,1.0,,,,,
,,,,,,,,0.0,,,56,,0.0,1.0,3.117295,,,,,,keyhole_03s.jpg,gear_07s.jpg,,,,,,,,,,,,,0.0,1.0,1.0,1.0,1.0,,,,,
,,,,,,,,0.0,,,56,,1.0,0.0,1.356025,,,,,,tie_03s.jpg,turtle_08s.jpg,,,,,,,,,,,,,0.0,2.0,2.0,2.0,1.0,,,,,
,,,,,,,,1.0,,,56,,0.0,0.0,1.32759,,,,,,ink_08s.jpg,power_line_08s.jpg,,,,,,,,,,,,,0.0,3.0,3.0,3.0,1.0,,,,,
,,,,,,,,0.0,,,56,,1.0,0.0,1.48349,,,,,,tongs_08s.jpg,projector_08s.jpg,,,,,,,,,,,,,0.0,4.0,4.0,4.0,1.0,,,,,
,,,,,,,,1.0,,,56,,0.0,0.0,1.24843,,,,,,teabag_12s.jpg,margarita_03s.jpg,,,,,,,,,,,,,0.0,5.0,5.0,5.0,1.0,,,,,
,,,,,,,,,,,56,,,,,,,,,,,,,,,,,clockno_present_4_14.xlsx,clockno_compare_task_4_14.xlsx,,,,,,,,,,,0.0,3.0,3.0,3.0,1.0
0.0,1.0,,,,,,camcorder_10s.jpg,0.0,clockno_up.jpg,1.0,56,1.32993,,,,,,,,,,,,,,,,,,0.0,0.0,0.0,0.0,1.0,,,,,,,,,,
,0.0,,,,,,mixer_12s.jpg,0.0,clockno_default.jpg,1.0,56,,,,,,,,,,,,,,,,,,,0.0,1.0,1.0,1.0,1.0,,,,,,,,,,
0.0,1.0,,,,,,comic_book_02s.jpg,0.0,clockno_default.jpg,1.0,56,0.567095,,,,,,,,,,,,,,,,,,0.0,2.0,2.0,2.0,1.0,,,,,,,,,,
0.0,1.0,,,,,,treasure_08s.jpg,0.0,clockno_default.jpg,1.0,56,1.14273,,,,,,,,,,,,,,,,,,0.0,3.0,3.0,3.0,1.0,,,,,,,,,,
1.0,1.0,,,,,,treasure_08s.jpg,1.0,clockno_default.jpg,1.0,56,0.9675,,,,,,,,,,,,,,,,,,0.0,4.0,4.0,4.0,1.0,,,,,,,,,,
0.0,1.0,,,,,,metronome_03s.jpg,0.0,clockno_default.jpg,1.0,56,2.165595,,,,,,,,,,,,,,,,,,0.0,5.0,5.0,5.0,1.0,,,,,,,,,,
1.0,1.0,,,,,,treasure_08s.jpg,1.0,clockno_default.jpg,1.0,56,0.753495,,,,,,,,,,,,,,,,,,0.0,6.0,6.0,6.0,1.0,,,,,,,,,,
0.0,1.0,,,,,,golf_club_03s.jpg,0.0,clockno_up.jpg,2.0,56,0.65807,,,,,,,,,,,,,,,,,,0.0,7.0,7.0,7.0,1.0,,,,,,,,,,
0.0,1.0,,,,,,ruby_15s.jpg,0.0,clockno_default.jpg,2.0,56,1.127755,,,,,,,,,,,,,,,,,,0.0,8.0,8.0,8.0,1.0,,,,,,,,,,
0.0,1.0,,,,,,purse_05s.jpg,0.0,clockno_default.jpg,2.0,56,1.113355,,,,,,,,,,,,,,,,,,0.0,9.0,9.0,9.0,1.0,,,,,,,,,,
0.0,1.0,,,,,,top_hat_11s.jpg,0.0,clockno_default.jpg,2.0,56,1.033415,,,,,,,,,,,,,,,,,,0.0,10.0,10.0,10.0,1.0,,,,,,,,,,
0.0,1.0,,,,,,peach_04s.jpg,0.0,clockno_default.jpg,2.0,56,0.69588,,,,,,,,,,,,,,,,,,0.0,11.0,11.0,11.0,1.0,,,,,,,,,,
,0.0,,,,,,coffee_filter_10s.jpg,0.0,clockno_up.jpg,3.0,56,,,,,,,,,,,,,,,,,,,0.0,12.0,12.0,12.0,1.0,,,,,,,,,,
,0.0,,,,,,tiger_06s.jpg,0.0,clockno_default.jpg,3.0,56,,,,,,,,,,,,,,,,,,,0.0,13.0,13.0,13.0,1.0,,,,,,,,,,
0.0,1.0,,,,,,feather02.jpg,0.0,clockno_default.jpg,3.0,56,1.508015,,,,,,,,,,,,,,,,,,0.0,14.0,14.0,14.0,1.0,,,,,,,,,,
0.0,1.0,,,,,,coral_08s.jpg,0.0,clockno_default.jpg,3.0,56,1.29467,,,,,,,,,,,,,,,,,,0.0,15.0,15.0,15.0,1.0,,,,,,,,,,
0.0,1.0,,,,,,knitting_needle_04s.jpg,0.0,clockno_default.jpg,3.0,56,0.79225,,,,,,,,,,,,,,,,,,0.0,16.0,16.0,16.0,1.0,,,,,,,,,,
0.0,1.0,,,,,,coat_rack_01b.jpg,0.0,clockno_up.jpg,4.0,56,1.202275,,,,,,,,,,,,,,,,,,0.0,17.0,17.0,17.0,1.0,,,,,,,,,,
1.0,0.0,,,,,,coral_08s.jpg,0.0,clockno_default.jpg,4.0,56,1.936625,,,,,,,,,,,,,,,,,,0.0,18.0,18.0,18.0,1.0,,,,,,,,,,
1.0,0.0,,,,,,knitting_needle_04s.jpg,0.0,clockno_default.jpg,4.0,56,0.753825,,,,,,,,,,,,,,,,,,0.0,19.0,19.0,19.0,1.0,,,,,,,,,,
1.0,1.0,,,,,,coat_rack_01b.jpg,1.0,clockno_default.jpg,4.0,56,1.21636,,,,,,,,,,,,,,,,,,0.0,20.0,20.0,20.0,1.0,,,,,,,,,,
0.0,1.0,,,,,,pacifier_09s.jpg,0.0,clockno_default.jpg,4.0,56,0.82397,,,,,,,,,,,,,,,,,,0.0,21.0,21.0,21.0,1.0,,,,,,,,,,
1.0,0.0,,,,,,ruby_15s.jpg,0.0,clockno_default.jpg,4.0,56,0.77822,,,,,,,,,,,,,,,,,,0.0,22.0,22.0,22.0,1.0,,,,,,,,,,
0.0,1.0,,,,,,rocking_chair_05s.jpg,0.0,clockno_up.jpg,5.0,56,0.663985,,,,,,,,,,,,,,,,,,0.0,23.0,23.0,23.0,1.0,,,,,,,,,,
0.0,1.0,,,,,,binder_21s.jpg,0.0,clockno_default.jpg,5.0,56,1.22512,,,,,,,,,,,,,,,,,,0.0,24.0,24.0,24.0,1.0,,,,,,,,,,
0.0,1.0,,,,,,rudder_02s.jpg,0.0,clockno_default.jpg,5.0,56,1.426805,,,,,,,,,,,,,,,,,,0.0,25.0,25.0,25.0,1.0,,,,,,,,,,
0.0,1.0,,,,,,totem_pole_05s.jpg,0.0,clockno_default.jpg,5.0,56,0.842505,,,,,,,,,,,,,,,,,,0.0,26.0,26.0,26.0,1.0,,,,,,,,,,
1.0,1.0,,,,,,totem_pole_05s.jpg,1.0,clockno_default.jpg,5.0,56,0.666465,,,,,,,,,,,,,,,,,,0.0,27.0,27.0,27.0,1.0,,,,,,,,,,
0.0,1.0,,,,,,memory_stick_11s.jpg,0.0,clockno_default.jpg,5.0,56,1.62794,,,,,,,,,,,,,,,,,,0.0,28.0,28.0,28.0,1.0,,,,,,,,,,
,0.0,,,,,,slingshot_07s.jpg,0.0,clockno_up.jpg,6.0,56,,,,,,,,,,,,,,,,,,,0.0,29.0,29.0,29.0,1.0,,,,,,,,,,
1.0,1.0,,,,,,slingshot_07s.jpg,1.0,clockno_default.jpg,6.0,56,2.46572,,,,,,,,,,,,,,,,,,0.0,30.0,30.0,30.0,1.0,,,,,,,,,,
0.0,1.0,,,,,,duck_01b.jpg,0.0,clockno_default.jpg,6.0,56,0.838935,,,,,,,,,,,,,,,,,,0.0,31.0,31.0,31.0,1.0,,,,,,,,,,
0.0,1.0,,,,,,fox_13s.jpg,0.0,clockno_default.jpg,6.0,56,1.184405,,,,,,,,,,,,,,,,,,0.0,32.0,32.0,32.0,1.0,,,,,,,,,,
,0.0,,,,,,popcorn_09s.jpg,0.0,clockno_default.jpg,6.0,56,,,,,,,,,,,,,,,,,,,0.0,33.0,33.0,33.0,1.0,,,,,,,,,,
1.0,1.0,,,,,,duck_01b.jpg,1.0,clockno_default.jpg,6.0,56,0.742225,,,,,,,,,,,,,,,,,,0.0,34.0,34.0,34.0,1.0,,,,,,,,,,
0.0,1.0,,,,,,stamp2_08s.jpg,0.0,clockno_default.jpg,6.0,56,1.486805,,,,,,,,,,,,,,,,,,0.0,35.0,35.0,35.0,1.0,,,,,,,,,,
,,,,,,,,0.0,,,56,,1.0,0.0,1.20098,,,,,,coffee_filter_10s.jpg,purse_05s.jpg,,,,,,,,,,,,,0.0,0.0,0.0,0.0,1.0,,,,,
,,,,,,,,1.0,,,56,,1.0,1.0,1.207685,,,,,,peach_04s.jpg,feather02.jpg,,,,,,,,,,,,,0.0,1.0,1.0,1.0,1.0,,,,,
,,,,,,,,0.0,,,56,,0.0,1.0,3.469215,,,,,,binder_21s.jpg,pacifier_09s.jpg,,,,,,,,,,,,,0.0,2.0,2.0,2.0,1.0,,,,,
,,,,,,,,1.0,,,56,,1.0,1.0,0.729085,,,,,,comic_book_02s.jpg,metronome_03s.jpg,,,,,,,,,,,,,0.0,3.0,3.0,3.0,1.0,,,,,
,,,,,,,,1.0,,,56,,0.0,0.0,0.777705,,,,,,rudder_02s.jpg,memory_stick_11s.jpg,,,,,,,,,,,,,0.0,4.0,4.0,4.0,1.0,,,,,
,,,,,,,,0.0,,,56,,1.0,0.0,0.78204,,,,,,stamp2_08s.jpg,fox_13s.jpg,,,,,,,,,,,,,0.0,5.0,5.0,5.0,1.0,,,,,
,,,,,,,,,,,56,,,,,,,,,,,,,,,,,clockno_present_5_14.xlsx,clockno_compare_task_5_14.xlsx,,,,,,,,,,,0.0,4.0,4.0,4.0,1.0
,0.0,,,,,,popsicle_02s.jpg,0.0,clockno_up.jpg,1.0,56,,,,,,,,,,,,,,,,,,,0.0,0.0,0.0,0.0,1.0,,,,,,,,,,
,0.0,,,,,,emerald_02s.jpg,0.0,clockno_default.jpg,1.0,56,,,,,,,,,,,,,,,,,,,0.0,1.0,1.0,1.0,1.0,,,,,,,,,,
1.0,1.0,,,,,,popsicle_02s.jpg,1.0,clockno_default.jpg,1.0,56,0.935755,,,,,,,,,,,,,,,,,,0.0,2.0,2.0,2.0,1.0,,,,,,,,,,
0.0,1.0,,,,,,glue_01s.jpg,0.0,clockno_default.jpg,1.0,56,1.09048,,,,,,,,,,,,,,,,,,0.0,3.0,3.0,3.0,1.0,,,,,,,,,,
1.0,1.0,,,,,,popsicle_02s.jpg,1.0,clockno_default.jpg,1.0,56,0.728125,,,,,,,,,,,,,,,,,,0.0,4.0,4.0,4.0,1.0,,,,,,,,,,
1.0,1.0,,,,,,emerald_02s.jpg,1.0,clockno_default.jpg,1.0,56,0.850795,,,,,,,,,,,,,,,,,,0.0,5.0,5.0,5.0,1.0,,,,,,,,,,
0.0,1.0,,,,,,pillbox_04s.jpg,0.0,clockno_up.jpg,2.0,56,1.53345,,,,,,,,,,,,,,,,,,0.0,6.0,6.0,6.0,1.0,,,,,,,,,,
,0.0,,,,,,scooter.jpg,0.0,clockno_default.jpg,2.0,56,,,,,,,,,,,,,,,,,,,0.0,7.0,7.0,7.0,1.0,,,,,,,,,,
0.0,1.0,,,,,,cardinal_07s.jpg,0.0,clockno_default.jpg,2.0,56,0.98697,,,,,,,,,,,,,,,,,,0.0,8.0,8.0,8.0,1.0,,,,,,,,,,
1.0,1.0,,,,,,cardinal_07s.jpg,1.0,clockno_default.jpg,2.0,56,1.278765,,,,,,,,,,,,,,,,,,0.0,9.0,9.0,9.0,1.0,,,,,,,,,,
,0.0,,,,,,chip_04s.jpg,0.0,clockno_default.jpg,2.0,56,,,,,,,,,,,,,,,,,,,0.0,10.0,10.0,10.0,1.0,,,,,,,,,,
0.0,1.0,,,,,,owl_15s.jpg,0.0,clockno_up.jpg,3.0,56,0.72889,,,,,,,,,,,,,,,,,,0.0,11.0,11.0,11.0,1.0,,,,,,,,,,
1.0,1.0,,,,,,owl_15s.jpg,1.0,clockno_default.jpg,3.0,56,1.35978,,,,,,,,,,,,,,,,,,0.0,12.0,12.0,12.0,1.0,,,,,,,,,,
0.0,1.0,,,,,,mango_09s.jpg,0.0,clockno_default.jpg,3.0,56,1.98228,,,,,,,,,,,,,,,,,,0.0,13.0,13.0,13.0,1.0,,,,,,,,,,
,0.0,,,,,,pantyhose_07s.jpg,0.0,clockno_default.jpg,3.0,56,,,,,,,,,,,,,,,,,,,0.0,14.0,14.0,14.0,1.0,,,,,,,,,,
,0.0,,,,,,coconut_08s.jpg,0.0,clockno_default.jpg,3.0,56,,,,,,,,,,,,,,,,,,,0.0,15.0,15.0,15.0,1.0,,,,,,,,,,
0.0,1.0,,,,,,potholder_02s.jpg,0.0,clockno_default.jpg,3.0,56,1.079405,,,,,,,,,,,,,,,,,,0.0,16.0,16.0,16.0,1.0,,,,,,,,,,
,0.0,,,,,,solar_panel_02s.jpg,0.0,clockno_up.jpg,4.0,56,,,,,,,,,,,,,,,,,,,0.0,17.0,17.0,17.0,1.0,,,,,,,,,,
0.0,1.0,,,,,,touchpad_11s.jpg,0.0,clockno_default.jpg,4.0,56,1.52423,,,,,,,,,,,,,,,,,,0.0,18.0,18.0,18.0,1.0,,,,,,,,,,
0.0,1.0,,,,,,rice_12s.jpg,0.0,clockno_default.jpg,4.0,56,0.660935,,,,,,,,,,,,,,,,,,0.0,19.0,19.0,19.0,1.0,,,,,,,,,,
0.0,1.0,,,,,,machete_06s.jpg,0.0,clockno_default.jpg,4.0,56,0.66624,,,,,,,,,,,,,,,,,,0.0,20.0,20.0,20.0,1.0,,,,,,,,,,
,0.0,,,,,,touchpad_11s.jpg,1.0,clockno_default.jpg,4.0,56,,,,,,,,,,,,,,,,,,,0.0,21.0,21.0,21.0,1.0,,,,,,,,,,
0.0,1.0,,,,,,trumpet_06s.jpg,0.0,clockno_default.jpg,4.0,56,0.809625,,,,,,,,,,,,,,,,,,0.0,22.0,22.0,22.0,1.0,,,,,,,,,,
1.0,1.0,,,,,,touchpad_11s.jpg,1.0,clockno_default.jpg,4.0,56,0.705015,,,,,,,,,,,,,,,,,,0.0,23.0,23.0,23.0,1.0,,,,,,,,,,
0.0,1.0,,,,,,lamb_04s.jpg,0.0,clockno_up.jpg,5.0,56,0.960945,,,,,,,,,,,,,,,,,,0.0,24.0,24.0,24.0,1.0,,,,,,,,,,
,0.0,,,,,,cucumber_07s.jpg,0.0,clockno_default.jpg,5.0,56,,,,,,,,,,,,,,,,,,,0.0,25.0,25.0,25.0,1.0,,,,,,,,,,
0.0,1.0,,,,,,police_car_01s.jpg,0.0,clockno_default.jpg,5.0,56,0.963025,,,,,,,,,,,,,,,,,,0.0,26.0,26.0,26.0,1.0,,,,,,,,,,
0.0,1.0,,,,,,latte_06s.jpg,0.0,clockno_default.jpg,5.0,56,0.95941,,,,,,,,,,,,,,,,,,0.0,27.0,27.0,27.0,1.0,,,,,,,,,,
1.0,1.0,,,,,,police_car_01s.jpg,1.0,clockno_default.jpg,5.0,56,0.999715,,,,,,,,,,,,,,,,,,0.0,28.0,28.0,28.0,1.0,,,,,,,,,,
0.0,1.0,,,,,,crab_16s.jpg,0.0,clockno_default.jpg,5.0,56,2.19546,,,,,,,,,,,,,,,,,,0.0,29.0,29.0,29.0,1.0,,,,,,,,,,
,0.0,,,,,,toaster_03s.jpg,0.0,clockno_default.jpg,5.0,56,,,,,,,,,,,,,,,,,,,0.0,30.0,30.0,30.0,1.0,,,,,,,,,,
,0.0,,,,,,parachute_03s.jpg,0.0,clockno_up.jpg,6.0,56,,,,,,,,,,,,,,,,,,,0.0,31.0,31.0,31.0,1.0,,,,,,,,,,
,0.0,,,,,,punch2_09s.jpg,0.0,clockno_default.jpg,6.0,56,,,,,,,,,,,,,,,,,,,0.0,32.0,32.0,32.0,1.0,,,,,,,,,,
0.0,1.0,,,,,,touchpad_11s.jpg,0.0,clockno_default.jpg,6.0,56,1.76873,,,,,,,,,,,,,,,,,,0.0,33.0,33.0,33.0,1.0,,,,,,,,,,
0.0,1.0,,,,,,ginger_09s.jpg,0.0,clockno_default.jpg,6.0,56,0.625675,,,,,,,,,,,,,,,,,,0.0,34.0,34.0,34.0,1.0,,,,,,,,,,
,0.0,,,,,,ginger_09s.jpg,1.0,clockno_default.jpg,6.0,56,,,,,,,,,,,,,,,,,,,0.0,35.0,35.0,35.0,1.0,,,,,,,,,,
,,,,,,,,1.0,,,56,,1.0,1.0,1.903855,,,,,,glue_01s.jpg,pillbox_04s.jpg,,,,,,,,,,,,,0.0,0.0,0.0,0.0,1.0,,,,,
,,,,,,,,0.0,,,56,,1.0,0.0,0.99493,,,,,,punch2_09s.jpg,crab_16s.jpg,,,,,,,,,,,,,0.0,1.0,1.0,1.0,1.0,,,,,
,,,,,,,,0.0,,,56,,1.0,0.0,1.01451,,,,,,solar_panel_02s.jpg,pantyhose_07s.jpg,,,,,,,,,,,,,0.0,2.0,2.0,2.0,1.0,,,,,
,,,,,,,,0.0,,,56,,0.0,1.0,2.783385,,,,,,latte_06s.jpg,lamb_04s.jpg,,,,,,,,,,,,,0.0,3.0,3.0,3.0,1.0,,,,,
,,,,,,,,1.0,,,56,,1.0,1.0,0.68658,,,,,,scooter.jpg,chip_04s.jpg,,,,,,,,,,,,,0.0,4.0,4.0,4.0,1.0,,,,,
,,,,,,,,1.0,,,56,,0.0,0.0,0.750385,,,,,,mango_09s.jpg,potholder_02s.jpg,,,,,,,,,,,,,0.0,5.0,5.0,5.0,1.0,,,,,
