key_resp.keys,key_resp.corr,key_resp.rt,noclock_loop.thisRepN,noclock_loop.thisTrialN,noclock_loop.thisN,noclock_loop.thisIndex,noclock_loop.ran,pictures,answer,clock,segment,participant,key_resp_2.keys,key_resp_2.corr,key_resp_2.rt,noclock_loop2.thisRepN,noclock_loop2.thisTrialN,noclock_loop2.thisN,noclock_loop2.thisIndex,noclock_loop2.ran,item_a,item_b,noclock_condition.thisRepN,noclock_condition.thisTrialN,noclock_condition.thisN,noclock_condition.thisIndex,noclock_condition.ran,present,compare,present_segment.thisRepN,present_segment.thisTrialN,present_segment.thisN,present_segment.thisIndex,present_segment.ran,compare_segment.thisRepN,compare_segment.thisTrialN,compare_segment.thisN,compare_segment.thisIndex,compare_segment.ran,clock_conditions.thisRepN,clock_conditions.thisTrialN,clock_conditions.thisN,clock_conditions.thisIndex,clock_conditions.ran
0.0,1.0,1.439155,0.0,0.0,0.0,0.0,1.0,hydrant_10s.jpg,0.0,clockno_up.jpg,1.0,12,,,,,,,,,,,,,,,,,,,,,,,,,,,,,,,,
0.0,1.0,1.2211,0.0,1.0,1.0,1.0,1.0,raccoon_02s.jpg,0.0,clockno_default.jpg,1.0,12,,,,,,,,,,,,,,,,,,,,,,,,,,,,,,,,
0.0,1.0,1.122905,0.0,2.0,2.0,2.0,1.0,tinsel_12s.jpg,0.0,clockno_default.jpg,1.0,12,,,,,,,,,,,,,,,,,,,,,,,,,,,,,,,,
0.0,1.0,0.748775,0.0,3.0,3.0,3.0,1.0,toad_09s.jpg,0.0,clockno_default.jpg,1.0,12,,,,,,,,,,,,,,,,,,,,,,,,,,,,,,,,
0.0,1.0,0.940515,0.0,4.0,4.0,4.0,1.0,penguin_16s.jpg,0.0,clockno_default.jpg,1.0,12,,,,,,,,,,,,,,,,,,,,,,,,,,,,,,,,
0.0,0.0,2.455605,0.0,5.0,5.0,5.0,1.0,hydrant_10s.jpg,1.0,clockno_default.jpg,1.0,12,,,,,,,,,,,,,,,,,,,,,,,,,,,,,,,,
0.0,1.0,0.87381,0.0,6.0,6.0,6.0,1.0,ostrich_06s.jpg,0.0,clockno_up.jpg,2.0,12,,,,,,,,,,,,,,,,,,,,,,,,,,,,,,,,
0.0,1.0,1.290705,0.0,7.0,7.0,7.0,1.0,rosary_03s.jpg,0.0,clockno_default.jpg,2.0,12,,,,,,,,,,,,,,,,,,,,,,,,,,,,,,,,
0.0,1.0,0.73905,0.0,8.0,8.0,8.0,1.0,mold2_04s.jpg,0.0,clockno_default.jpg,2.0,12,,,,,,,,,,,,,,,,,,,,,,,,,,,,,,,,
0.0,1.0,0.678575,0.0,9.0,9.0,9.0,1.0,ivy_12s.jpg,0.0,clockno_default.jpg,2.0,12,,,,,,,,,,,,,,,,,,,,,,,,,,,,,,,,
0.0,1.0,0.79673,0.0,10.0,10.0,10.0,1.0,tongs_08s.jpg,0.0,clockno_default.jpg,2.0,12,,,,,,,,,,,,,,,,,,,,,,,,,,,,,,,,
0.0,1.0,0.78371,0.0,11.0,11.0,11.0,1.0,undershirt_02s.jpg,0.0,clockno_up.jpg,3.0,12,,,,,,,,,,,,,,,,,,,,,,,,,,,,,,,,
0.0,1.0,0.690815,0.0,12.0,12.0,12.0,1.0,swing_set_15s.jpg,0.0,clockno_default.jpg,3.0,12,,,,,,,,,,,,,,,,,,,,,,,,,,,,,,,,
0.0,1.0,0.660965,0.0,13.0,13.0,13.0,1.0,beard_16s.jpg,0.0,clockno_default.jpg,3.0,12,,,,,,,,,,,,,,,,,,,,,,,,,,,,,,,,
1.0,0.0,0.85842,0.0,14.0,14.0,14.0,1.0,mold2_04s.jpg,0.0,clockno_default.jpg,3.0,12,,,,,,,,,,,,,,,,,,,,,,,,,,,,,,,,
0.0,1.0,0.67393,0.0,15.0,15.0,15.0,1.0,submarine_11n.jpg,0.0,clockno_default.jpg,3.0,12,,,,,,,,,,,,,,,,,,,,,,,,,,,,,,,,
0.0,1.0,0.56868,0.0,16.0,16.0,16.0,1.0,recliner_02s.jpg,0.0,clockno_default.jpg,3.0,12,,,,,,,,,,,,,,,,,,,,,,,,,,,,,,,,
0.0,1.0,0.61344,0.0,17.0,17.0,17.0,1.0,limousine_12s.jpg,0.0,clockno_default.jpg,3.0,12,,,,,,,,,,,,,,,,,,,,,,,,,,,,,,,,
0.0,1.0,0.787795,0.0,18.0,18.0,18.0,1.0,potpourri_03s.jpg,0.0,clockno_up.jpg,4.0,12,,,,,,,,,,,,,,,,,,,,,,,,,,,,,,,,
1.0,1.0,0.744665,0.0,19.0,19.0,19.0,1.0,potpourri_03s.jpg,1.0,clockno_default.jpg,4.0,12,,,,,,,,,,,,,,,,,,,,,,,,,,,,,,,,
0.0,1.0,0.715955,0.0,20.0,20.0,20.0,1.0,swan_11s.jpg,0.0,clockno_default.jpg,4.0,12,,,,,,,,,,,,,,,,,,,,,,,,,,,,,,,,
0.0,1.0,1.207835,0.0,21.0,21.0,21.0,1.0,mold2_04s.jpg,0.0,clockno_default.jpg,4.0,12,,,,,,,,,,,,,,,,,,,,,,,,,,,,,,,,
0.0,1.0,0.804675,0.0,22.0,22.0,22.0,1.0,plug_08s.jpg,0.0,clockno_default.jpg,4.0,12,,,,,,,,,,,,,,,,,,,,,,,,,,,,,,,,
0.0,1.0,0.79047,0.0,23.0,23.0,23.0,1.0,punch2_09s.jpg,0.0,clockno_up.jpg,5.0,12,,,,,,,,,,,,,,,,,,,,,,,,,,,,,,,,
0.0,1.0,0.86366,0.0,24.0,24.0,24.0,1.0,blowfish_03s.jpg,0.0,clockno_default.jpg,5.0,12,,,,,,,,,,,,,,,,,,,,,,,,,,,,,,,,
0.0,1.0,0.866145,0.0,25.0,25.0,25.0,1.0,badge_03s.jpg,0.0,clockno_default.jpg,5.0,12,,,,,,,,,,,,,,,,,,,,,,,,,,,,,,,,
0.0,1.0,0.770645,0.0,26.0,26.0,26.0,1.0,go-kart_10s.jpg,0.0,clockno_default.jpg,5.0,12,,,,,,,,,,,,,,,,,,,,,,,,,,,,,,,,
0.0,1.0,0.830765,0.0,27.0,27.0,27.0,1.0,surfboard_11s.jpg,0.0,clockno_default.jpg,5.0,12,,,,,,,,,,,,,,,,,,,,,,,,,,,,,,,,
0.0,1.0,0.83946,0.0,28.0,28.0,28.0,1.0,kimono_13s.jpg,0.0,clockno_default.jpg,5.0,12,,,,,,,,,,,,,,,,,,,,,,,,,,,,,,,,
0.0,1.0,1.02227,0.0,29.0,29.0,29.0,1.0,teapot_03s.jpg,0.0,clockno_default.jpg,5.0,12,,,,,,,,,,,,,,,,,,,,,,,,,,,,,,,,
0.0,1.0,1.011735,0.0,30.0,30.0,30.0,1.0,eiffeltower.jpg,0.0,clockno_up.jpg,6.0,12,,,,,,,,,,,,,,,,,,,,,,,,,,,,,,,,
0.0,1.0,0.79002,0.0,31.0,31.0,31.0,1.0,checkbook_11s.jpg,0.0,clockno_default.jpg,6.0,12,,,,,,,,,,,,,,,,,,,,,,,,,,,,,,,,
0.0,1.0,0.716855,0.0,32.0,32.0,32.0,1.0,ostrich_06s.jpg,0.0,clockno_default.jpg,6.0,12,,,,,,,,,,,,,,,,,,,,,,,,,,,,,,,,
1.0,1.0,1.956625,0.0,33.0,33.0,33.0,1.0,eiffeltower.jpg,1.0,clockno_default.jpg,6.0,12,,,,,,,,,,,,,,,,,,,,,,,,,,,,,,,,
0.0,1.0,0.76535,0.0,34.0,34.0,34.0,1.0,sunflower_17s.jpg,0.0,clockno_default.jpg,6.0,12,,,,,,,,,,,,,,,,,,,,,,,,,,,,,,,,
1.0,1.0,0.92574,0.0,35.0,35.0,35.0,1.0,sunflower_17s.jpg,1.0,clockno_default.jpg,6.0,12,,,,,,,,,,,,,,,,,,,,,,,,,,,,,,,,
,,,,,,,,,0.0,,,12,0.0,1.0,1.54867,0.0,0.0,0.0,0.0,1.0,swan_11s.jpg,limousine_12s.jpg,,,,,,,,,,,,,,,,,,,,,,
,,,,,,,,,0.0,,,12,0.0,1.0,2.393715,0.0,1.0,1.0,1.0,1.0,swing_set_15s.jpg,ivy_12s.jpg,,,,,,,,,,,,,,,,,,,,,,
,,,,,,,,,0.0,,,12,0.0,1.0,1.858625,0.0,2.0,2.0,2.0,1.0,badge_03s.jpg,plug_08s.jpg,,,,,,,,,,,,,,,,,,,,,,
,,,,,,,,,1.0,,,12,1.0,1.0,1.477865,0.0,3.0,3.0,3.0,1.0,blowfish_03s.jpg,surfboard_11s.jpg,,,,,,,,,,,,,,,,,,,,,,
,,,,,,,,,1.0,,,12,1.0,1.0,1.48906,0.0,4.0,4.0,4.0,1.0,go-kart_10s.jpg,teapot_03s.jpg,,,,,,,,,,,,,,,,,,,,,,
,,,,,,,,,0.0,,,12,1.0,0.0,2.178795,0.0,5.0,5.0,5.0,1.0,penguin_16s.jpg,raccoon_02s.jpg,,,,,,,,,,,,,,,,,,,,,,
,,,,,,,,,,,,12,,,,,,,,,,,0.0,0.0,0.0,0.0,1.0,clockno_present_1_3.xlsx,clockno_compare_task_1_3.xlsx,,,,,,,,,,,,,,,
0.0,1.0,1.146215,0.0,0.0,0.0,0.0,1.0,tulip_02s.jpg,0.0,clockno_up.jpg,1.0,12,,,,,,,,,,,,,,,,,,,,,,,,,,,,,,,,
0.0,1.0,0.873275,0.0,1.0,1.0,1.0,1.0,telephone_pole_05s.jpg,0.0,clockno_default.jpg,1.0,12,,,,,,,,,,,,,,,,,,,,,,,,,,,,,,,,
0.0,1.0,0.624885,0.0,2.0,2.0,2.0,1.0,mousetrap_15n.jpg,0.0,clockno_default.jpg,1.0,12,,,,,,,,,,,,,,,,,,,,,,,,,,,,,,,,
1.0,1.0,0.865475,0.0,3.0,3.0,3.0,1.0,telephone_pole_05s.jpg,1.0,clockno_default.jpg,1.0,12,,,,,,,,,,,,,,,,,,,,,,,,,,,,,,,,
1.0,1.0,0.702395,0.0,4.0,4.0,4.0,1.0,telephone_pole_05s.jpg,1.0,clockno_default.jpg,1.0,12,,,,,,,,,,,,,,,,,,,,,,,,,,,,,,,,
0.0,1.0,0.66079,0.0,5.0,5.0,5.0,1.0,jelly_bean_06s.jpg,0.0,clockno_up.jpg,2.0,12,,,,,,,,,,,,,,,,,,,,,,,,,,,,,,,,
0.0,1.0,0.61096,0.0,6.0,6.0,6.0,1.0,fox_13s.jpg,0.0,clockno_default.jpg,2.0,12,,,,,,,,,,,,,,,,,,,,,,,,,,,,,,,,
0.0,1.0,0.994005,0.0,7.0,7.0,7.0,1.0,ice_pack_09s.jpg,0.0,clockno_default.jpg,2.0,12,,,,,,,,,,,,,,,,,,,,,,,,,,,,,,,,
0.0,1.0,0.713185,0.0,8.0,8.0,8.0,1.0,screwdriver02a.jpg,0.0,clockno_default.jpg,2.0,12,,,,,,,,,,,,,,,,,,,,,,,,,,,,,,,,
1.0,1.0,0.85184,0.0,9.0,9.0,9.0,1.0,jelly_bean_06s.jpg,1.0,clockno_default.jpg,2.0,12,,,,,,,,,,,,,,,,,,,,,,,,,,,,,,,,
0.0,1.0,1.19067,0.0,10.0,10.0,10.0,1.0,puddle_02s.jpg,0.0,clockno_up.jpg,3.0,12,,,,,,,,,,,,,,,,,,,,,,,,,,,,,,,,
0.0,1.0,0.787575,0.0,11.0,11.0,11.0,1.0,lamp_08s.jpg,0.0,clockno_default.jpg,3.0,12,,,,,,,,,,,,,,,,,,,,,,,,,,,,,,,,
1.0,1.0,0.80048,0.0,12.0,12.0,12.0,1.0,puddle_02s.jpg,1.0,clockno_default.jpg,3.0,12,,,,,,,,,,,,,,,,,,,,,,,,,,,,,,,,
0.0,1.0,0.967155,0.0,13.0,13.0,13.0,1.0,jelly_bean_06s.jpg,0.0,clockno_default.jpg,3.0,12,,,,,,,,,,,,,,,,,,,,,,,,,,,,,,,,
0.0,1.0,0.628965,0.0,14.0,14.0,14.0,1.0,kangaroo_02s.jpg,0.0,clockno_default.jpg,3.0,12,,,,,,,,,,,,,,,,,,,,,,,,,,,,,,,,
0.0,1.0,0.61157,0.0,15.0,15.0,15.0,1.0,tape_measure_11s.jpg,0.0,clockno_default.jpg,3.0,12,,,,,,,,,,,,,,,,,,,,,,,,,,,,,,,,
0.0,1.0,1.10164,0.0,16.0,16.0,16.0,1.0,funnel_01b.jpg,0.0,clockno_up.jpg,4.0,12,,,,,,,,,,,,,,,,,,,,,,,,,,,,,,,,
0.0,1.0,0.60056,0.0,17.0,17.0,17.0,1.0,razor_12s.jpg,0.0,clockno_default.jpg,4.0,12,,,,,,,,,,,,,,,,,,,,,,,,,,,,,,,,
0.0,1.0,0.97186,0.0,18.0,18.0,18.0,1.0,duck_01b.jpg,0.0,clockno_default.jpg,4.0,12,,,,,,,,,,,,,,,,,,,,,,,,,,,,,,,,
0.0,1.0,1.15825,0.0,19.0,19.0,19.0,1.0,pocket_watch_16s.jpg,0.0,clockno_default.jpg,4.0,12,,,,,,,,,,,,,,,,,,,,,,,,,,,,,,,,
1.0,1.0,2.04132,0.0,20.0,20.0,20.0,1.0,funnel_01b.jpg,1.0,clockno_default.jpg,4.0,12,,,,,,,,,,,,,,,,,,,,,,,,,,,,,,,,
0.0,1.0,1.322125,0.0,21.0,21.0,21.0,1.0,binder_21s.jpg,0.0,clockno_default.jpg,4.0,12,,,,,,,,,,,,,,,,,,,,,,,,,,,,,,,,
0.0,1.0,1.3873,0.0,22.0,22.0,22.0,1.0,stump_02s.jpg,0.0,clockno_default.jpg,4.0,12,,,,,,,,,,,,,,,,,,,,,,,,,,,,,,,,
0.0,1.0,0.944375,0.0,23.0,23.0,23.0,1.0,mud_13s.jpg,0.0,clockno_up.jpg,5.0,12,,,,,,,,,,,,,,,,,,,,,,,,,,,,,,,,
1.0,1.0,0.93162,0.0,24.0,24.0,24.0,1.0,mud_13s.jpg,1.0,clockno_default.jpg,5.0,12,,,,,,,,,,,,,,,,,,,,,,,,,,,,,,,,
0.0,1.0,0.92901,0.0,25.0,25.0,25.0,1.0,funnel_01b.jpg,0.0,clockno_default.jpg,5.0,12,,,,,,,,,,,,,,,,,,,,,,,,,,,,,,,,
0.0,1.0,0.967,0.0,26.0,26.0,26.0,1.0,clover_04s.jpg,0.0,clockno_default.jpg,5.0,12,,,,,,,,,,,,,,,,,,,,,,,,,,,,,,,,
0.0,1.0,0.99984,0.0,27.0,27.0,27.0,1.0,letter_opener_03s.jpg,0.0,clockno_default.jpg,5.0,12,,,,,,,,,,,,,,,,,,,,,,,,,,,,,,,,
0.0,1.0,0.985355,0.0,28.0,28.0,28.0,1.0,lasagna_06s.jpg,0.0,clockno_default.jpg,5.0,12,,,,,,,,,,,,,,,,,,,,,,,,,,,,,,,,
0.0,1.0,0.851565,0.0,29.0,29.0,29.0,1.0,bacon_05s.jpg,0.0,clockno_default.jpg,5.0,12,,,,,,,,,,,,,,,,,,,,,,,,,,,,,,,,
0.0,1.0,1.718015,0.0,30.0,30.0,30.0,1.0,dirt_bike_11s.jpg,0.0,clockno_up.jpg,6.0,12,,,,,,,,,,,,,,,,,,,,,,,,,,,,,,,,
0.0,1.0,1.37392,0.0,31.0,31.0,31.0,1.0,rollerskate_03s.jpg,0.0,clockno_default.jpg,6.0,12,,,,,,,,,,,,,,,,,,,,,,,,,,,,,,,,
0.0,1.0,1.40318,0.0,32.0,32.0,32.0,1.0,mitten_10s.jpg,0.0,clockno_default.jpg,6.0,12,,,,,,,,,,,,,,,,,,,,,,,,,,,,,,,,
1.0,1.0,0.72135,0.0,33.0,33.0,33.0,1.0,mitten_10s.jpg,1.0,clockno_default.jpg,6.0,12,,,,,,,,,,,,,,,,,,,,,,,,,,,,,,,,
0.0,1.0,0.87184,0.0,34.0,34.0,34.0,1.0,emerald_02s.jpg,0.0,clockno_default.jpg,6.0,12,,,,,,,,,,,,,,,,,,,,,,,,,,,,,,,,
0.0,1.0,0.852015,0.0,35.0,35.0,35.0,1.0,turf_03s.jpg,0.0,clockno_default.jpg,6.0,12,,,,,,,,,,,,,,,,,,,,,,,,,,,,,,,,
,,,,,,,,,1.0,,,12,1.0,1.0,1.777645,0.0,0.0,0.0,0.0,1.0,letter_opener_03s.jpg,dirt_bike_11s.jpg,,,,,,,,,,,,,,,,,,,,,,
,,,,,,,,,0.0,,,12,1.0,0.0,2.83947,0.0,1.0,1.0,1.0,1.0,lamp_08s.jpg,screwdriver02a.jpg,,,,,,,,,,,,,,,,,,,,,,
,,,,,,,,,0.0,,,12,0.0,1.0,3.64417,0.0,2.0,2.0,2.0,1.0,razor_12s.jpg,kangaroo_02s.jpg,,,,,,,,,,,,,,,,,,,,,,
,,,,,,,,,0.0,,,12,1.0,0.0,2.353245,0.0,3.0,3.0,3.0,1.0,stump_02s.jpg,pocket_watch_16s.jpg,,,,,,,,,,,,,,,,,,,,,,
,,,,,,,,,1.0,,,12,1.0,1.0,3.71933,0.0,4.0,4.0,4.0,1.0,clover_04s.jpg,bacon_05s.jpg,,,,,,,,,,,,,,,,,,,,,,
,,,,,,,,,1.0,,,12,1.0,1.0,2.31541,0.0,5.0,5.0,5.0,1.0,duck_01b.jpg,binder_21s.jpg,,,,,,,,,,,,,,,,,,,,,,
,,,,,,,,,,,,12,,,,,,,,,,,0.0,1.0,1.0,1.0,1.0,clockno_present_2_3.xlsx,clockno_compare_task_2_3.xlsx,,,,,,,,,,,,,,,
0.0,1.0,1.825495,0.0,0.0,0.0,0.0,1.0,mosquito_12s.jpg,0.0,clockno_up.jpg,1.0,12,,,,,,,,,,,,,,,,,,,,,,,,,,,,,,,,
0.0,1.0,0.79254,0.0,1.0,1.0,1.0,1.0,power_line_08s.jpg,0.0,clockno_default.jpg,1.0,12,,,,,,,,,,,,,,,,,,,,,,,,,,,,,,,,
1.0,1.0,0.82524,0.0,2.0,2.0,2.0,1.0,power_line_08s.jpg,1.0,clockno_default.jpg,1.0,12,,,,,,,,,,,,,,,,,,,,,,,,,,,,,,,,
0.0,1.0,0.739215,0.0,3.0,3.0,3.0,1.0,tennis_ball_06s.jpg,0.0,clockno_default.jpg,1.0,12,,,,,,,,,,,,,,,,,,,,,,,,,,,,,,,,
0.0,1.0,1.27662,0.0,4.0,4.0,4.0,1.0,syringe_02s.jpg,0.0,clockno_default.jpg,1.0,12,,,,,,,,,,,,,,,,,,,,,,,,,,,,,,,,
1.0,1.0,1.086955,0.0,5.0,5.0,5.0,1.0,power_line_08s.jpg,1.0,clockno_default.jpg,1.0,12,,,,,,,,,,,,,,,,,,,,,,,,,,,,,,,,
0.0,1.0,1.382535,0.0,6.0,6.0,6.0,1.0,phone_01b.jpg,0.0,clockno_default.jpg,1.0,12,,,,,,,,,,,,,,,,,,,,,,,,,,,,,,,,
0.0,1.0,0.996705,0.0,7.0,7.0,7.0,1.0,keyboard_05s.jpg,0.0,clockno_up.jpg,2.0,12,,,,,,,,,,,,,,,,,,,,,,,,,,,,,,,,
1.0,1.0,0.83941,0.0,8.0,8.0,8.0,1.0,keyboard_05s.jpg,1.0,clockno_default.jpg,2.0,12,,,,,,,,,,,,,,,,,,,,,,,,,,,,,,,,
0.0,1.0,0.91917,0.0,9.0,9.0,9.0,1.0,ant_12s.jpg,0.0,clockno_default.jpg,2.0,12,,,,,,,,,,,,,,,,,,,,,,,,,,,,,,,,
0.0,1.0,0.911835,0.0,10.0,10.0,10.0,1.0,squirrel_02s.jpg,0.0,clockno_default.jpg,2.0,12,,,,,,,,,,,,,,,,,,,,,,,,,,,,,,,,
0.0,1.0,1.56078,0.0,11.0,11.0,11.0,1.0,mailbox_11s.jpg,0.0,clockno_default.jpg,2.0,12,,,,,,,,,,,,,,,,,,,,,,,,,,,,,,,,
0.0,1.0,1.300215,0.0,12.0,12.0,12.0,1.0,medal_04s.jpg,0.0,clockno_up.jpg,3.0,12,,,,,,,,,,,,,,,,,,,,,,,,,,,,,,,,
0.0,1.0,0.5882,0.0,13.0,13.0,13.0,1.0,ice-cream_cone_06s.jpg,0.0,clockno_default.jpg,3.0,12,,,,,,,,,,,,,,,,,,,,,,,,,,,,,,,,
0.0,1.0,0.79682,0.0,14.0,14.0,14.0,1.0,rabbit_03s.jpg,0.0,clockno_default.jpg,3.0,12,,,,,,,,,,,,,,,,,,,,,,,,,,,,,,,,
0.0,1.0,0.63193,0.0,15.0,15.0,15.0,1.0,ukulele_02s.jpg,0.0,clockno_default.jpg,3.0,12,,,,,,,,,,,,,,,,,,,,,,,,,,,,,,,,
0.0,1.0,0.965155,0.0,16.0,16.0,16.0,1.0,marshmallow_08s.jpg,0.0,clockno_default.jpg,3.0,12,,,,,,,,,,,,,,,,,,,,,,,,,,,,,,,,
0.0,1.0,1.102115,0.0,17.0,17.0,17.0,1.0,air_pump_05s.jpg,0.0,clockno_up.jpg,4.0,12,,,,,,,,,,,,,,,,,,,,,,,,,,,,,,,,
0.0,1.0,1.94864,0.0,18.0,18.0,18.0,1.0,pocketknife_12s.jpg,0.0,clockno_default.jpg,4.0,12,,,,,,,,,,,,,,,,,,,,,,,,,,,,,,,,
0.0,1.0,1.041,0.0,19.0,19.0,19.0,1.0,torch_02s.jpg,0.0,clockno_default.jpg,4.0,12,,,,,,,,,,,,,,,,,,,,,,,,,,,,,,,,
1.0,1.0,0.849955,0.0,20.0,20.0,20.0,1.0,torch_02s.jpg,1.0,clockno_default.jpg,4.0,12,,,,,,,,,,,,,,,,,,,,,,,,,,,,,,,,
0.0,1.0,1.02832,0.0,21.0,21.0,21.0,1.0,bank_06s.jpg,0.0,clockno_default.jpg,4.0,12,,,,,,,,,,,,,,,,,,,,,,,,,,,,,,,,
,0.0,,0.0,22.0,22.0,22.0,1.0,bottle_opener_11s.jpg,0.0,clockno_default.jpg,4.0,12,,,,,,,,,,,,,,,,,,,,,,,,,,,,,,,,
0.0,1.0,0.705945,0.0,23.0,23.0,23.0,1.0,toilet_07s.jpg,0.0,clockno_default.jpg,4.0,12,,,,,,,,,,,,,,,,,,,,,,,,,,,,,,,,
0.0,1.0,0.905195,0.0,24.0,24.0,24.0,1.0,rocket_02s.jpg,0.0,clockno_up.jpg,5.0,12,,,,,,,,,,,,,,,,,,,,,,,,,,,,,,,,
0.0,1.0,0.80549,0.0,25.0,25.0,25.0,1.0,ravioli_08s.jpg,0.0,clockno_default.jpg,5.0,12,,,,,,,,,,,,,,,,,,,,,,,,,,,,,,,,
1.0,1.0,0.74309,0.0,26.0,26.0,26.0,1.0,ravioli_08s.jpg,1.0,clockno_default.jpg,5.0,12,,,,,,,,,,,,,,,,,,,,,,,,,,,,,,,,
0.0,1.0,0.977715,0.0,27.0,27.0,27.0,1.0,popsicle_02s.jpg,0.0,clockno_default.jpg,5.0,12,,,,,,,,,,,,,,,,,,,,,,,,,,,,,,,,
1.0,1.0,1.148075,0.0,28.0,28.0,28.0,1.0,rocket_02s.jpg,1.0,clockno_default.jpg,5.0,12,,,,,,,,,,,,,,,,,,,,,,,,,,,,,,,,
0.0,1.0,0.660475,0.0,29.0,29.0,29.0,1.0,onion_10s.jpg,0.0,clockno_default.jpg,5.0,12,,,,,,,,,,,,,,,,,,,,,,,,,,,,,,,,
0.0,1.0,0.83875,0.0,30.0,30.0,30.0,1.0,omelet_07s.jpg,0.0,clockno_up.jpg,6.0,12,,,,,,,,,,,,,,,,,,,,,,,,,,,,,,,,
0.0,1.0,0.865275,0.0,31.0,31.0,31.0,1.0,tennis_ball_06s.jpg,0.0,clockno_default.jpg,6.0,12,,,,,,,,,,,,,,,,,,,,,,,,,,,,,,,,
0.0,1.0,1.27115,0.0,32.0,32.0,32.0,1.0,microwave_02s.jpg,0.0,clockno_default.jpg,6.0,12,,,,,,,,,,,,,,,,,,,,,,,,,,,,,,,,
0.0,1.0,0.70644,0.0,33.0,33.0,33.0,1.0,chocolate_01b.jpg,0.0,clockno_default.jpg,6.0,12,,,,,,,,,,,,,,,,,,,,,,,,,,,,,,,,
0.0,1.0,0.690965,0.0,34.0,34.0,34.0,1.0,knot_01b.jpg,0.0,clockno_default.jpg,6.0,12,,,,,,,,,,,,,,,,,,,,,,,,,,,,,,,,
0.0,1.0,0.640235,0.0,35.0,35.0,35.0,1.0,rice_12s.jpg,0.0,clockno_default.jpg,6.0,12,,,,,,,,,,,,,,,,,,,,,,,,,,,,,,,,
,,,,,,,,,0.0,,,12,1.0,0.0,3.950175,0.0,0.0,0.0,0.0,1.0,ant_12s.jpg,phone_01b.jpg,,,,,,,,,,,,,,,,,,,,,,
,,,,,,,,,1.0,,,12,1.0,1.0,3.33931,0.0,1.0,1.0,1.0,1.0,mailbox_11s.jpg,rabbit_03s.jpg,,,,,,,,,,,,,,,,,,,,,,
,,,,,,,,,1.0,,,12,1.0,1.0,1.92404,0.0,2.0,2.0,2.0,1.0,squirrel_02s.jpg,ice-cream_cone_06s.jpg,,,,,,,,,,,,,,,,,,,,,,
,,,,,,,,,1.0,,,12,1.0,1.0,2.308455,0.0,3.0,3.0,3.0,1.0,pocketknife_12s.jpg,bank_06s.jpg,,,,,,,,,,,,,,,,,,,,,,
,,,,,,,,,1.0,,,12,1.0,1.0,3.78203,0.0,4.0,4.0,4.0,1.0,omelet_07s.jpg,chocolate_01b.jpg,,,,,,,,,,,,,,,,,,,,,,
,,,,,,,,,0.0,,,12,0.0,1.0,1.506925,0.0,5.0,5.0,5.0,1.0,rice_12s.jpg,microwave_02s.jpg,,,,,,,,,,,,,,,,,,,,,,
,,,,,,,,,,,,12,,,,,,,,,,,0.0,2.0,2.0,2.0,1.0,clockno_present_3_3.xlsx,clockno_compare_task_3_3.xlsx,,,,,,,,,,,,,,,
0.0,1.0,1.212485,0.0,0.0,0.0,0.0,1.0,trident_07s.jpg,0.0,clockno_up.jpg,1.0,12,,,,,,,,,,,,,,,,,,,,,,,,,,,,,,,,
1.0,1.0,0.845295,0.0,1.0,1.0,1.0,1.0,trident_07s.jpg,1.0,clockno_default.jpg,1.0,12,,,,,,,,,,,,,,,,,,,,,,,,,,,,,,,,
1.0,1.0,0.66299,0.0,2.0,2.0,2.0,1.0,trident_07s.jpg,1.0,clockno_default.jpg,1.0,12,,,,,,,,,,,,,,,,,,,,,,,,,,,,,,,,
0.0,1.0,1.56315,0.0,3.0,3.0,3.0,1.0,tie_03s.jpg,0.0,clockno_default.jpg,1.0,12,,,,,,,,,,,,,,,,,,,,,,,,,,,,,,,,
0.0,1.0,0.77894,0.0,4.0,4.0,4.0,1.0,loveseat_08s.jpg,0.0,clockno_default.jpg,1.0,12,,,,,,,,,,,,,,,,,,,,,,,,,,,,,,,,
0.0,1.0,1.20679,0.0,5.0,5.0,5.0,1.0,penlight_12s.jpg,0.0,clockno_default.jpg,1.0,12,,,,,,,,,,,,,,,,,,,,,,,,,,,,,,,,
1.0,1.0,0.857715,0.0,6.0,6.0,6.0,1.0,tie_03s.jpg,1.0,clockno_default.jpg,1.0,12,,,,,,,,,,,,,,,,,,,,,,,,,,,,,,,,
0.0,1.0,0.84381,0.0,7.0,7.0,7.0,1.0,frame_06s.jpg,0.0,clockno_up.jpg,2.0,12,,,,,,,,,,,,,,,,,,,,,,,,,,,,,,,,
0.0,1.0,1.26165,0.0,8.0,8.0,8.0,1.0,tie_03s.jpg,0.0,clockno_default.jpg,2.0,12,,,,,,,,,,,,,,,,,,,,,,,,,,,,,,,,
0.0,1.0,0.842855,0.0,9.0,9.0,9.0,1.0,rocking_chair_05s.jpg,0.0,clockno_default.jpg,2.0,12,,,,,,,,,,,,,,,,,,,,,,,,,,,,,,,,
1.0,1.0,1.89841,0.0,10.0,10.0,10.0,1.0,tie_03s.jpg,1.0,clockno_default.jpg,2.0,12,,,,,,,,,,,,,,,,,,,,,,,,,,,,,,,,
0.0,1.0,0.686915,0.0,11.0,11.0,11.0,1.0,metronome_03s.jpg,0.0,clockno_default.jpg,2.0,12,,,,,,,,,,,,,,,,,,,,,,,,,,,,,,,,
0.0,1.0,0.92574,0.0,12.0,12.0,12.0,1.0,foam_03s.jpg,0.0,clockno_default.jpg,2.0,12,,,,,,,,,,,,,,,,,,,,,,,,,,,,,,,,
0.0,1.0,1.283925,0.0,13.0,13.0,13.0,1.0,refrigerator_07s.jpg,0.0,clockno_up.jpg,3.0,12,,,,,,,,,,,,,,,,,,,,,,,,,,,,,,,,
0.0,1.0,2.106165,0.0,14.0,14.0,14.0,1.0,stingray_02s.jpg,0.0,clockno_default.jpg,3.0,12,,,,,,,,,,,,,,,,,,,,,,,,,,,,,,,,
0.0,1.0,1.543195,0.0,15.0,15.0,15.0,1.0,crystal_ball_12s.jpg,0.0,clockno_default.jpg,3.0,12,,,,,,,,,,,,,,,,,,,,,,,,,,,,,,,,
0.0,1.0,1.20503,0.0,16.0,16.0,16.0,1.0,lava_02s.jpg,0.0,clockno_default.jpg,3.0,12,,,,,,,,,,,,,,,,,,,,,,,,,,,,,,,,
0.0,1.0,1.987215,0.0,17.0,17.0,17.0,1.0,seahorse_13s.jpg,0.0,clockno_default.jpg,3.0,12,,,,,,,,,,,,,,,,,,,,,,,,,,,,,,,,
0.0,1.0,2.03383,0.0,18.0,18.0,18.0,1.0,stamp2_08s.jpg,0.0,clockno_up.jpg,4.0,12,,,,,,,,,,,,,,,,,,,,,,,,,,,,,,,,
0.0,1.0,1.4414,0.0,19.0,19.0,19.0,1.0,trident_07s.jpg,0.0,clockno_default.jpg,4.0,12,,,,,,,,,,,,,,,,,,,,,,,,,,,,,,,,
0.0,1.0,0.889785,0.0,20.0,20.0,20.0,1.0,rake_06s.jpg,0.0,clockno_default.jpg,4.0,12,,,,,,,,,,,,,,,,,,,,,,,,,,,,,,,,
0.0,1.0,1.75605,0.0,21.0,21.0,21.0,1.0,toaster_03s.jpg,0.0,clockno_default.jpg,4.0,12,,,,,,,,,,,,,,,,,,,,,,,,,,,,,,,,
,0.0,,0.0,22.0,22.0,22.0,1.0,scooter.jpg,0.0,clockno_default.jpg,4.0,12,,,,,,,,,,,,,,,,,,,,,,,,,,,,,,,,
1.0,1.0,1.002135,0.0,23.0,23.0,23.0,1.0,toaster_03s.jpg,1.0,clockno_default.jpg,4.0,12,,,,,,,,,,,,,,,,,,,,,,,,,,,,,,,,
0.0,1.0,1.02036,0.0,24.0,24.0,24.0,1.0,meatball_13s.jpg,0.0,clockno_default.jpg,4.0,12,,,,,,,,,,,,,,,,,,,,,,,,,,,,,,,,
0.0,1.0,0.967335,0.0,25.0,25.0,25.0,1.0,lion_18s.jpg,0.0,clockno_up.jpg,5.0,12,,,,,,,,,,,,,,,,,,,,,,,,,,,,,,,,
0.0,1.0,1.705125,0.0,26.0,26.0,26.0,1.0,playpen_11s.jpg,0.0,clockno_default.jpg,5.0,12,,,,,,,,,,,,,,,,,,,,,,,,,,,,,,,,
0.0,1.0,2.216655,0.0,27.0,27.0,27.0,1.0,mango_09s.jpg,0.0,clockno_default.jpg,5.0,12,,,,,,,,,,,,,,,,,,,,,,,,,,,,,,,,
0.0,1.0,1.85837,0.0,28.0,28.0,28.0,1.0,laundry_basket_11s.jpg,0.0,clockno_default.jpg,5.0,12,,,,,,,,,,,,,,,,,,,,,,,,,,,,,,,,
0.0,1.0,1.73362,0.0,29.0,29.0,29.0,1.0,thermostat_02s.jpg,0.0,clockno_default.jpg,5.0,12,,,,,,,,,,,,,,,,,,,,,,,,,,,,,,,,
0.0,1.0,0.97365,0.0,30.0,30.0,30.0,1.0,treadmill_06s.jpg,0.0,clockno_up.jpg,6.0,12,,,,,,,,,,,,,,,,,,,,,,,,,,,,,,,,
0.0,1.0,1.01231,0.0,31.0,31.0,31.0,1.0,rocking_chair_05s.jpg,0.0,clockno_default.jpg,6.0,12,,,,,,,,,,,,,,,,,,,,,,,,,,,,,,,,
0.0,1.0,0.84495,0.0,32.0,32.0,32.0,1.0,basket_05s.jpg,0.0,clockno_default.jpg,6.0,12,,,,,,,,,,,,,,,,,,,,,,,,,,,,,,,,
1.0,1.0,1.491065,0.0,33.0,33.0,33.0,1.0,treadmill_06s.jpg,1.0,clockno_default.jpg,6.0,12,,,,,,,,,,,,,,,,,,,,,,,,,,,,,,,,
0.0,1.0,1.17491,0.0,34.0,34.0,34.0,1.0,foam_03s.jpg,0.0,clockno_default.jpg,6.0,12,,,,,,,,,,,,,,,,,,,,,,,,,,,,,,,,
1.0,1.0,1.01431,0.0,35.0,35.0,35.0,1.0,foam_03s.jpg,1.0,clockno_default.jpg,6.0,12,,,,,,,,,,,,,,,,,,,,,,,,,,,,,,,,
,,,,,,,,,0.0,,,12,0.0,1.0,2.32191,0.0,0.0,0.0,0.0,1.0,frame_06s.jpg,loveseat_08s.jpg,,,,,,,,,,,,,,,,,,,,,,
,,,,,,,,,1.0,,,12,1.0,1.0,3.77976,0.0,1.0,1.0,1.0,1.0,crystal_ball_12s.jpg,stamp2_08s.jpg,,,,,,,,,,,,,,,,,,,,,,
,,,,,,,,,1.0,,,12,1.0,1.0,2.407325,0.0,2.0,2.0,2.0,1.0,meatball_13s.jpg,mango_09s.jpg,,,,,,,,,,,,,,,,,,,,,,
,,,,,,,,,0.0,,,12,0.0,1.0,3.425555,0.0,3.0,3.0,3.0,1.0,lava_02s.jpg,refrigerator_07s.jpg,,,,,,,,,,,,,,,,,,,,,,
,,,,,,,,,0.0,,,12,0.0,1.0,2.253635,0.0,4.0,4.0,4.0,1.0,laundry_basket_11s.jpg,lion_18s.jpg,,,,,,,,,,,,,,,,,,,,,,
,,,,,,,,,1.0,,,12,1.0,1.0,3.029345,0.0,5.0,5.0,5.0,1.0,playpen_11s.jpg,thermostat_02s.jpg,,,,,,,,,,,,,,,,,,,,,,
,,,,,,,,,,,,12,,,,,,,,,,,0.0,3.0,3.0,3.0,1.0,clockno_present_4_3.xlsx,clockno_compare_task_4_3.xlsx,,,,,,,,,,,,,,,
0.0,1.0,1.569435,0.0,0.0,0.0,0.0,1.0,latte_06s.jpg,0.0,clockno_up.jpg,1.0,12,,,,,,,,,,,,,,,,,,,,,,,,,,,,,,,,
0.0,1.0,0.868985,0.0,1.0,1.0,1.0,1.0,lemonade_04s.jpg,0.0,clockno_default.jpg,1.0,12,,,,,,,,,,,,,,,,,,,,,,,,,,,,,,,,
1.0,1.0,0.800515,0.0,2.0,2.0,2.0,1.0,lemonade_04s.jpg,1.0,clockno_default.jpg,1.0,12,,,,,,,,,,,,,,,,,,,,,,,,,,,,,,,,
1.0,1.0,1.16263,0.0,3.0,3.0,3.0,1.0,latte_06s.jpg,1.0,clockno_default.jpg,1.0,12,,,,,,,,,,,,,,,,,,,,,,,,,,,,,,,,
1.0,1.0,1.028765,0.0,4.0,4.0,4.0,1.0,lemonade_04s.jpg,1.0,clockno_default.jpg,1.0,12,,,,,,,,,,,,,,,,,,,,,,,,,,,,,,,,
0.0,1.0,0.922635,0.0,5.0,5.0,5.0,1.0,orangutan_03s.jpg,0.0,clockno_up.jpg,2.0,12,,,,,,,,,,,,,,,,,,,,,,,,,,,,,,,,
0.0,1.0,1.026265,0.0,6.0,6.0,6.0,1.0,pomegranate_04s.jpg,0.0,clockno_default.jpg,2.0,12,,,,,,,,,,,,,,,,,,,,,,,,,,,,,,,,
0.0,1.0,0.909695,0.0,7.0,7.0,7.0,1.0,jetski_10s.jpg,0.0,clockno_default.jpg,2.0,12,,,,,,,,,,,,,,,,,,,,,,,,,,,,,,,,
0.0,1.0,0.541095,0.0,8.0,8.0,8.0,1.0,champagne_18s.jpg,0.0,clockno_default.jpg,2.0,12,,,,,,,,,,,,,,,,,,,,,,,,,,,,,,,,
0.0,1.0,0.51939,0.0,9.0,9.0,9.0,1.0,spoon02a.jpg,0.0,clockno_default.jpg,2.0,12,,,,,,,,,,,,,,,,,,,,,,,,,,,,,,,,
0.0,1.0,0.79153,0.0,10.0,10.0,10.0,1.0,loom_05s.jpg,0.0,clockno_up.jpg,3.0,12,,,,,,,,,,,,,,,,,,,,,,,,,,,,,,,,
1.0,1.0,0.832905,0.0,11.0,11.0,11.0,1.0,loom_05s.jpg,1.0,clockno_default.jpg,3.0,12,,,,,,,,,,,,,,,,,,,,,,,,,,,,,,,,
0.0,1.0,0.875095,0.0,12.0,12.0,12.0,1.0,bagel_15s.jpg,0.0,clockno_default.jpg,3.0,12,,,,,,,,,,,,,,,,,,,,,,,,,,,,,,,,
0.0,1.0,0.60638,0.0,13.0,13.0,13.0,1.0,boar_10s.jpg,0.0,clockno_default.jpg,3.0,12,,,,,,,,,,,,,,,,,,,,,,,,,,,,,,,,
0.0,1.0,0.739995,0.0,14.0,14.0,14.0,1.0,pipe1_10s.jpg,0.0,clockno_default.jpg,3.0,12,,,,,,,,,,,,,,,,,,,,,,,,,,,,,,,,
0.0,1.0,0.67023,0.0,15.0,15.0,15.0,1.0,pepper2_21s.jpg,0.0,clockno_default.jpg,3.0,12,,,,,,,,,,,,,,,,,,,,,,,,,,,,,,,,
0.0,1.0,0.707185,0.0,16.0,16.0,16.0,1.0,powder_07s.jpg,0.0,clockno_up.jpg,4.0,12,,,,,,,,,,,,,,,,,,,,,,,,,,,,,,,,
0.0,1.0,0.530785,0.0,17.0,17.0,17.0,1.0,fishhook_06s.jpg,0.0,clockno_default.jpg,4.0,12,,,,,,,,,,,,,,,,,,,,,,,,,,,,,,,,
0.0,1.0,0.81131,0.0,18.0,18.0,18.0,1.0,briefcase_03s.jpg,0.0,clockno_default.jpg,4.0,12,,,,,,,,,,,,,,,,,,,,,,,,,,,,,,,,
0.0,1.0,0.7589,0.0,19.0,19.0,19.0,1.0,rug_09s.jpg,0.0,clockno_default.jpg,4.0,12,,,,,,,,,,,,,,,,,,,,,,,,,,,,,,,,
1.0,1.0,2.30476,0.0,20.0,20.0,20.0,1.0,fishhook_06s.jpg,1.0,clockno_default.jpg,4.0,12,,,,,,,,,,,,,,,,,,,,,,,,,,,,,,,,
1.0,1.0,0.789025,0.0,21.0,21.0,21.0,1.0,rug_09s.jpg,1.0,clockno_default.jpg,4.0,12,,,,,,,,,,,,,,,,,,,,,,,,,,,,,,,,
0.0,1.0,1.2293,0.0,22.0,22.0,22.0,1.0,aluminum_foil_08s.jpg,0.0,clockno_up.jpg,5.0,12,,,,,,,,,,,,,,,,,,,,,,,,,,,,,,,,
0.0,1.0,0.74832,0.0,23.0,23.0,23.0,1.0,pea_11s.jpg,0.0,clockno_default.jpg,5.0,12,,,,,,,,,,,,,,,,,,,,,,,,,,,,,,,,
0.0,1.0,0.672005,0.0,24.0,24.0,24.0,1.0,flip_flop_03s.jpg,0.0,clockno_default.jpg,5.0,12,,,,,,,,,,,,,,,,,,,,,,,,,,,,,,,,
0.0,1.0,0.690195,0.0,25.0,25.0,25.0,1.0,mixer_12s.jpg,0.0,clockno_default.jpg,5.0,12,,,,,,,,,,,,,,,,,,,,,,,,,,,,,,,,
0.0,1.0,1.668395,0.0,26.0,26.0,26.0,1.0,ironing_board_07s.jpg,0.0,clockno_default.jpg,5.0,12,,,,,,,,,,,,,,,,,,,,,,,,,,,,,,,,
0.0,1.0,1.84024,0.0,27.0,27.0,27.0,1.0,fishhook_06s.jpg,0.0,clockno_default.jpg,5.0,12,,,,,,,,,,,,,,,,,,,,,,,,,,,,,,,,
1.0,1.0,2.073485,0.0,28.0,28.0,28.0,1.0,pea_11s.jpg,1.0,clockno_default.jpg,5.0,12,,,,,,,,,,,,,,,,,,,,,,,,,,,,,,,,
0.0,1.0,1.185215,0.0,29.0,29.0,29.0,1.0,chalice_10s.jpg,0.0,clockno_up.jpg,6.0,12,,,,,,,,,,,,,,,,,,,,,,,,,,,,,,,,
0.0,1.0,0.87352,0.0,30.0,30.0,30.0,1.0,triangle_10s.jpg,0.0,clockno_default.jpg,6.0,12,,,,,,,,,,,,,,,,,,,,,,,,,,,,,,,,
0.0,1.0,0.939105,0.0,31.0,31.0,31.0,1.0,iron_13s.jpg,0.0,clockno_default.jpg,6.0,12,,,,,,,,,,,,,,,,,,,,,,,,,,,,,,,,
1.0,1.0,0.925885,0.0,32.0,32.0,32.0,1.0,chalice_10s.jpg,1.0,clockno_default.jpg,6.0,12,,,,,,,,,,,,,,,,,,,,,,,,,,,,,,,,
0.0,1.0,0.806825,0.0,33.0,33.0,33.0,1.0,puffin_19s.jpg,0.0,clockno_default.jpg,6.0,12,,,,,,,,,,,,,,,,,,,,,,,,,,,,,,,,
0.0,1.0,1.375405,0.0,34.0,34.0,34.0,1.0,saddle_06s.jpg,0.0,clockno_default.jpg,6.0,12,,,,,,,,,,,,,,,,,,,,,,,,,,,,,,,,
0.0,1.0,1.2205,0.0,35.0,35.0,35.0,1.0,megaphone_03s.jpg,0.0,clockno_default.jpg,6.0,12,,,,,,,,,,,,,,,,,,,,,,,,,,,,,,,,
,,,,,,,,,0.0,,,12,1.0,0.0,4.570845,0.0,0.0,0.0,0.0,1.0,powder_07s.jpg,boar_10s.jpg,,,,,,,,,,,,,,,,,,,,,,
,,,,,,,,,0.0,,,12,0.0,1.0,3.566045,0.0,1.0,1.0,1.0,1.0,briefcase_03s.jpg,pepper2_21s.jpg,,,,,,,,,,,,,,,,,,,,,,
,,,,,,,,,1.0,,,12,1.0,1.0,2.87251,0.0,2.0,2.0,2.0,1.0,spoon02a.jpg,bagel_15s.jpg,,,,,,,,,,,,,,,,,,,,,,
,,,,,,,,,1.0,,,12,0.0,0.0,1.56236,0.0,3.0,3.0,3.0,1.0,orangutan_03s.jpg,champagne_18s.jpg,,,,,,,,,,,,,,,,,,,,,,
,,,,,,,,,0.0,,,12,0.0,1.0,3.794705,0.0,4.0,4.0,4.0,1.0,mixer_12s.jpg,aluminum_foil_08s.jpg,,,,,,,,,,,,,,,,,,,,,,
,,,,,,,,,1.0,,,12,1.0,1.0,2.695705,0.0,5.0,5.0,5.0,1.0,triangle_10s.jpg,puffin_19s.jpg,,,,,,,,,,,,,,,,,,,,,,
,,,,,,,,,,,,12,,,,,,,,,,,0.0,4.0,4.0,4.0,1.0,clockno_present_5_3.xlsx,clockno_compare_task_5_3.xlsx,,,,,,,,,,,,,,,
0.0,1.0,1.720105,0.0,0.0,0.0,0.0,1.0,padlock_07s.jpg,0.0,clockno_up.jpg,1.0,12,,,,,,,,,,,,,,,,,,,,,,,,,,,,,,,,
1.0,1.0,1.18792,0.0,1.0,1.0,1.0,1.0,padlock_07s.jpg,1.0,clockno_default.jpg,1.0,12,,,,,,,,,,,,,,,,,,,,,,,,,,,,,,,,
0.0,1.0,0.904645,0.0,2.0,2.0,2.0,1.0,paper_towel_03s.jpg,0.0,clockno_default.jpg,1.0,12,,,,,,,,,,,,,,,,,,,,,,,,,,,,,,,,
0.0,1.0,0.968865,0.0,3.0,3.0,3.0,1.0,perfume_06s.jpg,0.0,clockno_default.jpg,1.0,12,,,,,,,,,,,,,,,,,,,,,,,,,,,,,,,,
0.0,1.0,0.70812,0.0,4.0,4.0,4.0,1.0,thorn_13s.jpg,0.0,clockno_default.jpg,1.0,12,,,,,,,,,,,,,,,,,,,,,,,,,,,,,,,,
0.0,1.0,1.78053,0.0,5.0,5.0,5.0,1.0,film_03s.jpg,0.0,clockno_up.jpg,2.0,12,,,,,,,,,,,,,,,,,,,,,,,,,,,,,,,,
0.0,1.0,0.76059,0.0,6.0,6.0,6.0,1.0,pan_02s.jpg,0.0,clockno_default.jpg,2.0,12,,,,,,,,,,,,,,,,,,,,,,,,,,,,,,,,
1.0,1.0,0.92568,0.0,7.0,7.0,7.0,1.0,pan_02s.jpg,1.0,clockno_default.jpg,2.0,12,,,,,,,,,,,,,,,,,,,,,,,,,,,,,,,,
0.0,1.0,0.864775,0.0,8.0,8.0,8.0,1.0,seagull_01b.jpg,0.0,clockno_default.jpg,2.0,12,,,,,,,,,,,,,,,,,,,,,,,,,,,,,,,,
1.0,1.0,1.110465,0.0,9.0,9.0,9.0,1.0,seagull_01b.jpg,1.0,clockno_default.jpg,2.0,12,,,,,,,,,,,,,,,,,,,,,,,,,,,,,,,,
0.0,1.0,0.66126,0.0,10.0,10.0,10.0,1.0,perfume_06s.jpg,0.0,clockno_default.jpg,2.0,12,,,,,,,,,,,,,,,,,,,,,,,,,,,,,,,,
0.0,1.0,0.64654,0.0,11.0,11.0,11.0,1.0,ram_05s.jpg,0.0,clockno_up.jpg,3.0,12,,,,,,,,,,,,,,,,,,,,,,,,,,,,,,,,
0.0,1.0,0.795385,0.0,12.0,12.0,12.0,1.0,stamp1_11s.jpg,0.0,clockno_default.jpg,3.0,12,,,,,,,,,,,,,,,,,,,,,,,,,,,,,,,,
0.0,1.0,0.98177,0.0,13.0,13.0,13.0,1.0,thorn_13s.jpg,0.0,clockno_default.jpg,3.0,12,,,,,,,,,,,,,,,,,,,,,,,,,,,,,,,,
0.0,1.0,0.87349,0.0,14.0,14.0,14.0,1.0,jersey_02s.jpg,0.0,clockno_default.jpg,3.0,12,,,,,,,,,,,,,,,,,,,,,,,,,,,,,,,,
1.0,1.0,0.9491,0.0,15.0,15.0,15.0,1.0,thorn_13s.jpg,1.0,clockno_default.jpg,3.0,12,,,,,,,,,,,,,,,,,,,,,,,,,,,,,,,,
0.0,1.0,0.65489,0.0,16.0,16.0,16.0,1.0,coat_rack_01b.jpg,0.0,clockno_default.jpg,3.0,12,,,,,,,,,,,,,,,,,,,,,,,,,,,,,,,,
0.0,0.0,1.224905,0.0,17.0,17.0,17.0,1.0,stamp1_11s.jpg,1.0,clockno_default.jpg,3.0,12,,,,,,,,,,,,,,,,,,,,,,,,,,,,,,,,
0.0,1.0,1.020205,0.0,18.0,18.0,18.0,1.0,flask_04s.jpg,0.0,clockno_up.jpg,4.0,12,,,,,,,,,,,,,,,,,,,,,,,,,,,,,,,,
0.0,1.0,0.754885,0.0,19.0,19.0,19.0,1.0,gazelle_10s.jpg,0.0,clockno_default.jpg,4.0,12,,,,,,,,,,,,,,,,,,,,,,,,,,,,,,,,
0.0,1.0,0.938685,0.0,20.0,20.0,20.0,1.0,mascara_03s.jpg,0.0,clockno_default.jpg,4.0,12,,,,,,,,,,,,,,,,,,,,,,,,,,,,,,,,
0.0,1.0,0.805975,0.0,21.0,21.0,21.0,1.0,tuxedo_01b.jpg,0.0,clockno_default.jpg,4.0,12,,,,,,,,,,,,,,,,,,,,,,,,,,,,,,,,
0.0,1.0,0.791265,0.0,22.0,22.0,22.0,1.0,radiator_05s.jpg,0.0,clockno_default.jpg,4.0,12,,,,,,,,,,,,,,,,,,,,,,,,,,,,,,,,
0.0,1.0,0.921375,0.0,23.0,23.0,23.0,1.0,possum_09s.jpg,0.0,clockno_default.jpg,4.0,12,,,,,,,,,,,,,,,,,,,,,,,,,,,,,,,,
0.0,1.0,1.02391,0.0,24.0,24.0,24.0,1.0,pacifier_09s.jpg,0.0,clockno_up.jpg,5.0,12,,,,,,,,,,,,,,,,,,,,,,,,,,,,,,,,
0.0,1.0,0.907415,0.0,25.0,25.0,25.0,1.0,paper_towel_03s.jpg,0.0,clockno_default.jpg,5.0,12,,,,,,,,,,,,,,,,,,,,,,,,,,,,,,,,
0.0,1.0,1.619645,0.0,26.0,26.0,26.0,1.0,peanut_butter_08s.jpg,0.0,clockno_default.jpg,5.0,12,,,,,,,,,,,,,,,,,,,,,,,,,,,,,,,,
0.0,1.0,1.110105,0.0,27.0,27.0,27.0,1.0,crossbow_10s.jpg,0.0,clockno_default.jpg,5.0,12,,,,,,,,,,,,,,,,,,,,,,,,,,,,,,,,
0.0,1.0,1.139305,0.0,28.0,28.0,28.0,1.0,pepper_mill_03s.jpg,0.0,clockno_default.jpg,5.0,12,,,,,,,,,,,,,,,,,,,,,,,,,,,,,,,,
0.0,1.0,0.84058,0.0,29.0,29.0,29.0,1.0,owl_15s.jpg,0.0,clockno_up.jpg,6.0,12,,,,,,,,,,,,,,,,,,,,,,,,,,,,,,,,
0.0,1.0,1.36547,0.0,30.0,30.0,30.0,1.0,raspberry_12s.jpg,0.0,clockno_default.jpg,6.0,12,,,,,,,,,,,,,,,,,,,,,,,,,,,,,,,,
0.0,1.0,2.05622,0.0,31.0,31.0,31.0,1.0,printer_09s.jpg,0.0,clockno_default.jpg,6.0,12,,,,,,,,,,,,,,,,,,,,,,,,,,,,,,,,
0.0,1.0,1.914715,0.0,32.0,32.0,32.0,1.0,stamp1_11s.jpg,0.0,clockno_default.jpg,6.0,12,,,,,,,,,,,,,,,,,,,,,,,,,,,,,,,,
0.0,1.0,1.122585,0.0,33.0,33.0,33.0,1.0,cap_05s.jpg,0.0,clockno_default.jpg,6.0,12,,,,,,,,,,,,,,,,,,,,,,,,,,,,,,,,
0.0,0.0,0.931215,0.0,34.0,34.0,34.0,1.0,cap_05s.jpg,1.0,clockno_default.jpg,6.0,12,,,,,,,,,,,,,,,,,,,,,,,,,,,,,,,,
0.0,1.0,1.971015,0.0,35.0,35.0,35.0,1.0,stethoscope_01b.jpg,0.0,clockno_default.jpg,6.0,12,,,,,,,,,,,,,,,,,,,,,,,,,,,,,,,,
,,,,,,,,,1.0,,,12,1.0,1.0,1.562855,0.0,0.0,0.0,0.0,1.0,peanut_butter_08s.jpg,owl_15s.jpg,,,,,,,,,,,,,,,,,,,,,,
,,,,,,,,,1.0,,,12,1.0,1.0,1.852975,0.0,1.0,1.0,1.0,1.0,pepper_mill_03s.jpg,printer_09s.jpg,,,,,,,,,,,,,,,,,,,,,,
,,,,,,,,,1.0,,,12,1.0,1.0,1.93299,0.0,2.0,2.0,2.0,1.0,coat_rack_01b.jpg,gazelle_10s.jpg,,,,,,,,,,,,,,,,,,,,,,
,,,,,,,,,1.0,,,12,0.0,0.0,3.190445,0.0,3.0,3.0,3.0,1.0,ram_05s.jpg,jersey_02s.jpg,,,,,,,,,,,,,,,,,,,,,,
,,,,,,,,,1.0,,,12,1.0,1.0,2.00211,0.0,4.0,4.0,4.0,1.0,flask_04s.jpg,tuxedo_01b.jpg,,,,,,,,,,,,,,,,,,,,,,
,,,,,,,,,0.0,,,12,0.0,1.0,3.126045,0.0,5.0,5.0,5.0,1.0,possum_09s.jpg,mascara_03s.jpg,,,,,,,,,,,,,,,,,,,,,,
0.0,1.0,1.36451,,,,,,peppermint_07s.jpg,0.0,clock_7_1.png,1.0,12,,,,,,,,,,,,,,,,,,0.0,0.0,0.0,0.0,1.0,,,,,,,,,,
0.0,1.0,1.528835,,,,,,buoy_04s.jpg,0.0,clock_7_2.png,1.0,12,,,,,,,,,,,,,,,,,,0.0,1.0,1.0,1.0,1.0,,,,,,,,,,
0.0,1.0,0.699595,,,,,,pancake_12s.jpg,0.0,clock_7_3.png,1.0,12,,,,,,,,,,,,,,,,,,0.0,2.0,2.0,2.0,1.0,,,,,,,,,,
1.0,1.0,0.853155,,,,,,pancake_12s.jpg,1.0,clock_7_4.png,1.0,12,,,,,,,,,,,,,,,,,,0.0,3.0,3.0,3.0,1.0,,,,,,,,,,
0.0,1.0,0.676605,,,,,,tape_06s.jpg,0.0,clock_7_5.png,1.0,12,,,,,,,,,,,,,,,,,,0.0,4.0,4.0,4.0,1.0,,,,,,,,,,
0.0,1.0,0.622795,,,,,,bowler_hat_10s.jpg,0.0,clock_7_6.png,1.0,12,,,,,,,,,,,,,,,,,,0.0,5.0,5.0,5.0,1.0,,,,,,,,,,
1.0,1.0,0.950425,,,,,,tape_06s.jpg,1.0,clock_7_7.png,1.0,12,,,,,,,,,,,,,,,,,,0.0,6.0,6.0,6.0,1.0,,,,,,,,,,
0.0,1.0,0.78823,,,,,,quill_09s.jpg,0.0,clock_6_1.png,2.0,12,,,,,,,,,,,,,,,,,,0.0,7.0,7.0,7.0,1.0,,,,,,,,,,
0.0,1.0,0.72712,,,,,,tablet_04s.jpg,0.0,clock_6_2.png,2.0,12,,,,,,,,,,,,,,,,,,0.0,8.0,8.0,8.0,1.0,,,,,,,,,,
0.0,1.0,0.498475,,,,,,olive_05s.jpg,0.0,clock_6_3.png,2.0,12,,,,,,,,,,,,,,,,,,0.0,9.0,9.0,9.0,1.0,,,,,,,,,,
0.0,1.0,0.508845,,,,,,puppet_01b.jpg,0.0,clock_6_4.png,2.0,12,,,,,,,,,,,,,,,,,,0.0,10.0,10.0,10.0,1.0,,,,,,,,,,
0.0,1.0,0.31286,,,,,,lip_gloss_06s.jpg,0.0,clock_6_5.png,2.0,12,,,,,,,,,,,,,,,,,,0.0,11.0,11.0,11.0,1.0,,,,,,,,,,
0.0,1.0,0.718535,,,,,,hyena_16s.jpg,0.0,clock_6_6.png,2.0,12,,,,,,,,,,,,,,,,,,0.0,12.0,12.0,12.0,1.0,,,,,,,,,,
0.0,1.0,0.346525,,,,,,turnstile_08s.jpg,0.0,clock_6_1.png,3.0,12,,,,,,,,,,,,,,,,,,0.0,13.0,13.0,13.0,1.0,,,,,,,,,,
0.0,1.0,0.535705,,,,,,dynamite_01b.jpg,0.0,clock_6_2.png,3.0,12,,,,,,,,,,,,,,,,,,0.0,14.0,14.0,14.0,1.0,,,,,,,,,,
0.0,1.0,0.425525,,,,,,potholder_02s.jpg,0.0,clock_6_3.png,3.0,12,,,,,,,,,,,,,,,,,,0.0,15.0,15.0,15.0,1.0,,,,,,,,,,
0.0,1.0,0.579955,,,,,,glue_01s.jpg,0.0,clock_6_4.png,3.0,12,,,,,,,,,,,,,,,,,,0.0,16.0,16.0,16.0,1.0,,,,,,,,,,
1.0,1.0,1.588025,,,,,,dynamite_01b.jpg,1.0,clock_6_5.png,3.0,12,,,,,,,,,,,,,,,,,,0.0,17.0,17.0,17.0,1.0,,,,,,,,,,
0.0,1.0,0.766075,,,,,,lizard_10n.jpg,0.0,clock_6_6.png,3.0,12,,,,,,,,,,,,,,,,,,0.0,18.0,18.0,18.0,1.0,,,,,,,,,,
0.0,1.0,0.680535,,,,,,fireworks_18s.jpg,0.0,clock_5_1.png,4.0,12,,,,,,,,,,,,,,,,,,0.0,19.0,19.0,19.0,1.0,,,,,,,,,,
1.0,1.0,0.93613,,,,,,fireworks_18s.jpg,1.0,clock_5_2.png,4.0,12,,,,,,,,,,,,,,,,,,0.0,20.0,20.0,20.0,1.0,,,,,,,,,,
0.0,1.0,0.726565,,,,,,cucumber_07s.jpg,0.0,clock_5_3.png,4.0,12,,,,,,,,,,,,,,,,,,0.0,21.0,21.0,21.0,1.0,,,,,,,,,,
1.0,1.0,0.850325,,,,,,fireworks_18s.jpg,1.0,clock_5_4.png,4.0,12,,,,,,,,,,,,,,,,,,0.0,22.0,22.0,22.0,1.0,,,,,,,,,,
0.0,1.0,0.77023,,,,,,tiara_05s.jpg,0.0,clock_5_5.png,4.0,12,,,,,,,,,,,,,,,,,,0.0,23.0,23.0,23.0,1.0,,,,,,,,,,
0.0,1.0,0.426475,,,,,,timer_03s.jpg,0.0,clock_5_1.png,5.0,12,,,,,,,,,,,,,,,,,,0.0,24.0,24.0,24.0,1.0,,,,,,,,,,
1.0,1.0,0.962455,,,,,,timer_03s.jpg,1.0,clock_5_2.png,5.0,12,,,,,,,,,,,,,,,,,,0.0,25.0,25.0,25.0,1.0,,,,,,,,,,
0.0,1.0,0.696595,,,,,,bean_06s.jpg,0.0,clock_5_3.png,5.0,12,,,,,,,,,,,,,,,,,,0.0,26.0,26.0,26.0,1.0,,,,,,,,,,
0.0,1.0,0.828005,,,,,,ladder_15s.jpg,0.0,clock_5_4.png,5.0,12,,,,,,,,,,,,,,,,,,0.0,27.0,27.0,27.0,1.0,,,,,,,,,,
0.0,1.0,0.99593,,,,,,hyena_16s.jpg,0.0,clock_5_5.png,5.0,12,,,,,,,,,,,,,,,,,,0.0,28.0,28.0,28.0,1.0,,,,,,,,,,
0.0,1.0,0.931905,,,,,,gas_mask_11s.jpg,0.0,clock_7_1.png,6.0,12,,,,,,,,,,,,,,,,,,0.0,29.0,29.0,29.0,1.0,,,,,,,,,,
0.0,1.0,0.80589,,,,,,fire_pit_10s.jpg,0.0,clock_7_2.png,6.0,12,,,,,,,,,,,,,,,,,,0.0,30.0,30.0,30.0,1.0,,,,,,,,,,
1.0,1.0,0.967155,,,,,,gas_mask_11s.jpg,1.0,clock_7_3.png,6.0,12,,,,,,,,,,,,,,,,,,0.0,31.0,31.0,31.0,1.0,,,,,,,,,,
1.0,1.0,0.93491,,,,,,gas_mask_11s.jpg,1.0,clock_7_4.png,6.0,12,,,,,,,,,,,,,,,,,,0.0,32.0,32.0,32.0,1.0,,,,,,,,,,
0.0,1.0,0.79173,,,,,,sugar_cube_11s.jpg,0.0,clock_7_5.png,6.0,12,,,,,,,,,,,,,,,,,,0.0,33.0,33.0,33.0,1.0,,,,,,,,,,
0.0,1.0,0.81147,,,,,,taxi_15s.jpg,0.0,clock_7_6.png,6.0,12,,,,,,,,,,,,,,,,,,0.0,34.0,34.0,34.0,1.0,,,,,,,,,,
0.0,1.0,1.813085,,,,,,juicer2_06s.jpg,0.0,clock_7_7.png,6.0,12,,,,,,,,,,,,,,,,,,0.0,35.0,35.0,35.0,1.0,,,,,,,,,,
,,,,,,,,,0.0,,,12,1.0,0.0,3.37492,,,,,,bean_06s.jpg,tiara_05s.jpg,,,,,,,,,,,,,0.0,0.0,0.0,0.0,1.0,,,,,
,,,,,,,,,0.0,,,12,0.0,1.0,1.83143,,,,,,tablet_04s.jpg,bowler_hat_10s.jpg,,,,,,,,,,,,,0.0,1.0,1.0,1.0,1.0,,,,,
,,,,,,,,,0.0,,,12,0.0,1.0,2.17444,,,,,,cucumber_07s.jpg,lizard_10n.jpg,,,,,,,,,,,,,0.0,2.0,2.0,2.0,1.0,,,,,
,,,,,,,,,0.0,,,12,1.0,0.0,3.778935,,,,,,puppet_01b.jpg,quill_09s.jpg,,,,,,,,,,,,,0.0,3.0,3.0,3.0,1.0,,,,,
,,,,,,,,,0.0,,,12,0.0,1.0,3.05705,,,,,,glue_01s.jpg,turnstile_08s.jpg,,,,,,,,,,,,,0.0,4.0,4.0,4.0,1.0,,,,,
,,,,,,,,,0.0,,,12,0.0,1.0,2.01047,,,,,,sugar_cube_11s.jpg,fire_pit_10s.jpg,,,,,,,,,,,,,0.0,5.0,5.0,5.0,1.0,,,,,
,,,,,,,,,,,,12,,,,,,,,,,,,,,,,clock_present_1_3.xlsx,clock_compare_task_1_3.xlsx,,,,,,,,,,,0.0,0.0,0.0,0.0,1.0
0.0,1.0,1.902905,,,,,,polar_bear_02s.jpg,0.0,clock_6_1.png,1.0,12,,,,,,,,,,,,,,,,,,0.0,0.0,0.0,0.0,1.0,,,,,,,,,,
0.0,1.0,0.718495,,,,,,sea_urchin_09s.jpg,0.0,clock_6_2.png,1.0,12,,,,,,,,,,,,,,,,,,0.0,1.0,1.0,1.0,1.0,,,,,,,,,,
1.0,1.0,0.991575,,,,,,sea_urchin_09s.jpg,1.0,clock_6_3.png,1.0,12,,,,,,,,,,,,,,,,,,0.0,2.0,2.0,2.0,1.0,,,,,,,,,,
0.0,1.0,1.07586,,,,,,bee_20s.jpg,0.0,clock_6_4.png,1.0,12,,,,,,,,,,,,,,,,,,0.0,3.0,3.0,3.0,1.0,,,,,,,,,,
0.0,1.0,1.76377,,,,,,swordfish_05s.jpg,0.0,clock_6_5.png,1.0,12,,,,,,,,,,,,,,,,,,0.0,4.0,4.0,4.0,1.0,,,,,,,,,,
0.0,1.0,0.854285,,,,,,machete_06s.jpg,0.0,clock_6_6.png,1.0,12,,,,,,,,,,,,,,,,,,0.0,5.0,5.0,5.0,1.0,,,,,,,,,,
0.0,1.0,1.434515,,,,,,sleeping_bag_12s.jpg,0.0,clock_5_1.png,2.0,12,,,,,,,,,,,,,,,,,,0.0,6.0,6.0,6.0,1.0,,,,,,,,,,
0.0,1.0,0.57212,,,,,,toothpaste_12s.jpg,0.0,clock_5_2.png,2.0,12,,,,,,,,,,,,,,,,,,0.0,7.0,7.0,7.0,1.0,,,,,,,,,,
0.0,1.0,0.7368,,,,,,rolling_pin_02s.jpg,0.0,clock_5_3.png,2.0,12,,,,,,,,,,,,,,,,,,0.0,8.0,8.0,8.0,1.0,,,,,,,,,,
0.0,1.0,0.80946,,,,,,dashboard_02s.jpg,0.0,clock_5_4.png,2.0,12,,,,,,,,,,,,,,,,,,0.0,9.0,9.0,9.0,1.0,,,,,,,,,,
0.0,1.0,1.080745,,,,,,toilet_paper_12s.jpg,0.0,clock_5_5.png,2.0,12,,,,,,,,,,,,,,,,,,0.0,10.0,10.0,10.0,1.0,,,,,,,,,,
0.0,1.0,0.688175,,,,,,espresso_01b.jpg,0.0,clock_7_1.png,3.0,12,,,,,,,,,,,,,,,,,,0.0,11.0,11.0,11.0,1.0,,,,,,,,,,
1.0,1.0,0.844675,,,,,,espresso_01b.jpg,1.0,clock_7_2.png,3.0,12,,,,,,,,,,,,,,,,,,0.0,12.0,12.0,12.0,1.0,,,,,,,,,,
1.0,1.0,0.82518,,,,,,espresso_01b.jpg,1.0,clock_7_3.png,3.0,12,,,,,,,,,,,,,,,,,,0.0,13.0,13.0,13.0,1.0,,,,,,,,,,
1.0,1.0,0.61086,,,,,,espresso_01b.jpg,1.0,clock_7_4.png,3.0,12,,,,,,,,,,,,,,,,,,0.0,14.0,14.0,14.0,1.0,,,,,,,,,,
1.0,1.0,0.42579,,,,,,espresso_01b.jpg,1.0,clock_7_5.png,3.0,12,,,,,,,,,,,,,,,,,,0.0,15.0,15.0,15.0,1.0,,,,,,,,,,
0.0,1.0,0.669945,,,,,,sleeping_bag_12s.jpg,0.0,clock_7_6.png,3.0,12,,,,,,,,,,,,,,,,,,0.0,16.0,16.0,16.0,1.0,,,,,,,,,,
0.0,1.0,0.697715,,,,,,money_07s.jpg,0.0,clock_7_7.png,3.0,12,,,,,,,,,,,,,,,,,,0.0,17.0,17.0,17.0,1.0,,,,,,,,,,
0.0,1.0,0.948905,,,,,,knitting_needle_04s.jpg,0.0,clock_5_1.png,4.0,12,,,,,,,,,,,,,,,,,,0.0,18.0,18.0,18.0,1.0,,,,,,,,,,
0.0,1.0,0.67299,,,,,,golf_club_03s.jpg,0.0,clock_5_2.png,4.0,12,,,,,,,,,,,,,,,,,,0.0,19.0,19.0,19.0,1.0,,,,,,,,,,
0.0,1.0,1.116055,,,,,,key_07s.jpg,0.0,clock_5_3.png,4.0,12,,,,,,,,,,,,,,,,,,0.0,20.0,20.0,20.0,1.0,,,,,,,,,,
0.0,1.0,0.75726,,,,,,rocking_horse_03s.jpg,0.0,clock_5_4.png,4.0,12,,,,,,,,,,,,,,,,,,0.0,21.0,21.0,21.0,1.0,,,,,,,,,,
0.0,1.0,0.62925,,,,,,parachute_03s.jpg,0.0,clock_5_5.png,4.0,12,,,,,,,,,,,,,,,,,,0.0,22.0,22.0,22.0,1.0,,,,,,,,,,
0.0,1.0,0.61024,,,,,,koala_13s.jpg,0.0,clock_6_1.png,5.0,12,,,,,,,,,,,,,,,,,,0.0,23.0,23.0,23.0,1.0,,,,,,,,,,
0.0,1.0,0.511185,,,,,,radio_09s.jpg,0.0,clock_6_2.png,5.0,12,,,,,,,,,,,,,,,,,,0.0,24.0,24.0,24.0,1.0,,,,,,,,,,
0.0,1.0,0.691415,,,,,,luggage_08s.jpg,0.0,clock_6_3.png,5.0,12,,,,,,,,,,,,,,,,,,0.0,25.0,25.0,25.0,1.0,,,,,,,,,,
0.0,1.0,0.490755,,,,,,peach_04s.jpg,0.0,clock_6_4.png,5.0,12,,,,,,,,,,,,,,,,,,0.0,26.0,26.0,26.0,1.0,,,,,,,,,,
1.0,1.0,0.810005,,,,,,peach_04s.jpg,1.0,clock_6_5.png,5.0,12,,,,,,,,,,,,,,,,,,0.0,27.0,27.0,27.0,1.0,,,,,,,,,,
0.0,1.0,0.725885,,,,,,cushion_08s.jpg,0.0,clock_6_6.png,5.0,12,,,,,,,,,,,,,,,,,,0.0,28.0,28.0,28.0,1.0,,,,,,,,,,
0.0,1.0,0.35919,,,,,,totem_pole_05s.jpg,0.0,clock_7_1.png,6.0,12,,,,,,,,,,,,,,,,,,0.0,29.0,29.0,29.0,1.0,,,,,,,,,,
1.0,1.0,1.29314,,,,,,totem_pole_05s.jpg,1.0,clock_7_2.png,6.0,12,,,,,,,,,,,,,,,,,,0.0,30.0,30.0,30.0,1.0,,,,,,,,,,
0.0,1.0,1.5973,,,,,,sledgehammer_03s.jpg,0.0,clock_7_3.png,6.0,12,,,,,,,,,,,,,,,,,,0.0,31.0,31.0,31.0,1.0,,,,,,,,,,
0.0,1.0,1.006015,,,,,,cushion_08s.jpg,0.0,clock_7_4.png,6.0,12,,,,,,,,,,,,,,,,,,0.0,32.0,32.0,32.0,1.0,,,,,,,,,,
0.0,1.0,0.75848,,,,,,machete_06s.jpg,0.0,clock_7_5.png,6.0,12,,,,,,,,,,,,,,,,,,0.0,33.0,33.0,33.0,1.0,,,,,,,,,,
0.0,1.0,0.557995,,,,,,towel_rack_04s.jpg,0.0,clock_7_6.png,6.0,12,,,,,,,,,,,,,,,,,,0.0,34.0,34.0,34.0,1.0,,,,,,,,,,
0.0,1.0,0.74061,,,,,,swimming_pool_17s.jpg,0.0,clock_7_7.png,6.0,12,,,,,,,,,,,,,,,,,,0.0,35.0,35.0,35.0,1.0,,,,,,,,,,
,,,,,,,,,1.0,,,12,1.0,1.0,2.72415,,,,,,money_07s.jpg,key_07s.jpg,,,,,,,,,,,,,0.0,0.0,0.0,0.0,1.0,,,,,
,,,,,,,,,0.0,,,12,1.0,0.0,2.430175,,,,,,toothpaste_12s.jpg,swordfish_05s.jpg,,,,,,,,,,,,,0.0,1.0,1.0,1.0,1.0,,,,,
,,,,,,,,,1.0,,,12,1.0,1.0,3.27725,,,,,,rocking_horse_03s.jpg,radio_09s.jpg,,,,,,,,,,,,,0.0,2.0,2.0,2.0,1.0,,,,,
,,,,,,,,,0.0,,,12,1.0,0.0,3.25882,,,,,,bee_20s.jpg,polar_bear_02s.jpg,,,,,,,,,,,,,0.0,3.0,3.0,3.0,1.0,,,,,
,,,,,,,,,1.0,,,12,1.0,1.0,2.22586,,,,,,sledgehammer_03s.jpg,towel_rack_04s.jpg,,,,,,,,,,,,,0.0,4.0,4.0,4.0,1.0,,,,,
,,,,,,,,,1.0,,,12,1.0,1.0,1.601125,,,,,,golf_club_03s.jpg,parachute_03s.jpg,,,,,,,,,,,,,0.0,5.0,5.0,5.0,1.0,,,,,
,,,,,,,,,,,,12,,,,,,,,,,,,,,,,clock_present_2_3.xlsx,clock_compare_task_2_3.xlsx,,,,,,,,,,,0.0,1.0,1.0,1.0,1.0
0.0,1.0,0.947815,,,,,,prism_10s.jpg,0.0,clock_6_1.png,1.0,12,,,,,,,,,,,,,,,,,,0.0,0.0,0.0,0.0,1.0,,,,,,,,,,
1.0,1.0,0.62925,,,,,,prism_10s.jpg,1.0,clock_6_2.png,1.0,12,,,,,,,,,,,,,,,,,,0.0,1.0,1.0,1.0,1.0,,,,,,,,,,
1.0,1.0,0.481605,,,,,,prism_10s.jpg,1.0,clock_6_3.png,1.0,12,,,,,,,,,,,,,,,,,,0.0,2.0,2.0,2.0,1.0,,,,,,,,,,
0.0,1.0,0.69941,,,,,,puck_06s.jpg,0.0,clock_6_4.png,1.0,12,,,,,,,,,,,,,,,,,,0.0,3.0,3.0,3.0,1.0,,,,,,,,,,
0.0,1.0,0.579105,,,,,,mushroom_10n.jpg,0.0,clock_6_5.png,1.0,12,,,,,,,,,,,,,,,,,,0.0,4.0,4.0,4.0,1.0,,,,,,,,,,
0.0,1.0,0.38709,,,,,,chopsticks_08s.jpg,0.0,clock_6_6.png,1.0,12,,,,,,,,,,,,,,,,,,0.0,5.0,5.0,5.0,1.0,,,,,,,,,,
0.0,1.0,0.639135,,,,,,kilt_18s.jpg,0.0,clock_7_1.png,2.0,12,,,,,,,,,,,,,,,,,,0.0,6.0,6.0,6.0,1.0,,,,,,,,,,
0.0,1.0,0.681185,,,,,,diving_board_07s.jpg,0.0,clock_7_2.png,2.0,12,,,,,,,,,,,,,,,,,,0.0,7.0,7.0,7.0,1.0,,,,,,,,,,
0.0,1.0,0.574075,,,,,,jet_15s.jpg,0.0,clock_7_3.png,2.0,12,,,,,,,,,,,,,,,,,,0.0,8.0,8.0,8.0,1.0,,,,,,,,,,
0.0,1.0,0.580845,,,,,,kitten_07s.jpg,0.0,clock_7_4.png,2.0,12,,,,,,,,,,,,,,,,,,0.0,9.0,9.0,9.0,1.0,,,,,,,,,,
0.0,1.0,1.306785,,,,,,prism_10s.jpg,0.0,clock_7_5.png,2.0,12,,,,,,,,,,,,,,,,,,0.0,10.0,10.0,10.0,1.0,,,,,,,,,,
0.0,1.0,0.55638,,,,,,pencil02a.jpg,0.0,clock_7_6.png,2.0,12,,,,,,,,,,,,,,,,,,0.0,11.0,11.0,11.0,1.0,,,,,,,,,,
0.0,1.0,0.64331,,,,,,chip_04s.jpg,0.0,clock_7_7.png,2.0,12,,,,,,,,,,,,,,,,,,0.0,12.0,12.0,12.0,1.0,,,,,,,,,,
0.0,1.0,0.85706,,,,,,ring_03s.jpg,0.0,clock_5_1.png,3.0,12,,,,,,,,,,,,,,,,,,0.0,13.0,13.0,13.0,1.0,,,,,,,,,,
0.0,1.0,0.625585,,,,,,fork_04s.jpg,0.0,clock_5_2.png,3.0,12,,,,,,,,,,,,,,,,,,0.0,14.0,14.0,14.0,1.0,,,,,,,,,,
1.0,1.0,1.514615,,,,,,ring_03s.jpg,1.0,clock_5_3.png,3.0,12,,,,,,,,,,,,,,,,,,0.0,15.0,15.0,15.0,1.0,,,,,,,,,,
0.0,1.0,0.618985,,,,,,mattress_01s.jpg,0.0,clock_5_4.png,3.0,12,,,,,,,,,,,,,,,,,,0.0,16.0,16.0,16.0,1.0,,,,,,,,,,
0.0,1.0,0.661155,,,,,,tupperware_09s.jpg,0.0,clock_5_5.png,3.0,12,,,,,,,,,,,,,,,,,,0.0,17.0,17.0,17.0,1.0,,,,,,,,,,
0.0,1.0,0.648285,,,,,,mussel_11s.jpg,0.0,clock_7_1.png,4.0,12,,,,,,,,,,,,,,,,,,0.0,18.0,18.0,18.0,1.0,,,,,,,,,,
1.0,1.0,1.12836,,,,,,mussel_11s.jpg,1.0,clock_7_2.png,4.0,12,,,,,,,,,,,,,,,,,,0.0,19.0,19.0,19.0,1.0,,,,,,,,,,
0.0,1.0,0.706755,,,,,,pencil_sharpener_09n.jpg,0.0,clock_7_3.png,4.0,12,,,,,,,,,,,,,,,,,,0.0,20.0,20.0,20.0,1.0,,,,,,,,,,
0.0,1.0,0.50031,,,,,,turtle_08s.jpg,0.0,clock_7_4.png,4.0,12,,,,,,,,,,,,,,,,,,0.0,21.0,21.0,21.0,1.0,,,,,,,,,,
0.0,1.0,0.657465,,,,,,mug_06s.jpg,0.0,clock_7_5.png,4.0,12,,,,,,,,,,,,,,,,,,0.0,22.0,22.0,22.0,1.0,,,,,,,,,,
0.0,1.0,0.657435,,,,,,light_switch_02s.jpg,0.0,clock_7_6.png,4.0,12,,,,,,,,,,,,,,,,,,0.0,23.0,23.0,23.0,1.0,,,,,,,,,,
0.0,1.0,1.04265,,,,,,kilt_18s.jpg,0.0,clock_7_7.png,4.0,12,,,,,,,,,,,,,,,,,,0.0,24.0,24.0,24.0,1.0,,,,,,,,,,
0.0,1.0,0.589445,,,,,,ladle_04s.jpg,0.0,clock_5_1.png,5.0,12,,,,,,,,,,,,,,,,,,0.0,25.0,25.0,25.0,1.0,,,,,,,,,,
1.0,1.0,1.31365,,,,,,ladle_04s.jpg,1.0,clock_5_2.png,5.0,12,,,,,,,,,,,,,,,,,,0.0,26.0,26.0,26.0,1.0,,,,,,,,,,
0.0,1.0,0.6943,,,,,,gong_02s.jpg,0.0,clock_5_3.png,5.0,12,,,,,,,,,,,,,,,,,,0.0,27.0,27.0,27.0,1.0,,,,,,,,,,
0.0,1.0,0.69098,,,,,,giraffe_11s.jpg,0.0,clock_5_4.png,5.0,12,,,,,,,,,,,,,,,,,,0.0,28.0,28.0,28.0,1.0,,,,,,,,,,
0.0,1.0,0.41368,,,,,,lid_10s.jpg,0.0,clock_5_5.png,5.0,12,,,,,,,,,,,,,,,,,,0.0,29.0,29.0,29.0,1.0,,,,,,,,,,
0.0,1.0,0.468625,,,,,,muffin_12n.jpg,0.0,clock_6_1.png,6.0,12,,,,,,,,,,,,,,,,,,0.0,30.0,30.0,30.0,1.0,,,,,,,,,,
0.0,1.0,0.548515,,,,,,lavender_10s.jpg,0.0,clock_6_2.png,6.0,12,,,,,,,,,,,,,,,,,,0.0,31.0,31.0,31.0,1.0,,,,,,,,,,
0.0,1.0,0.53654,,,,,,margarita_03s.jpg,0.0,clock_6_3.png,6.0,12,,,,,,,,,,,,,,,,,,0.0,32.0,32.0,32.0,1.0,,,,,,,,,,
0.0,1.0,0.450605,,,,,,throne_11s.jpg,0.0,clock_6_4.png,6.0,12,,,,,,,,,,,,,,,,,,0.0,33.0,33.0,33.0,1.0,,,,,,,,,,
0.0,1.0,0.518585,,,,,,spider_web_03s.jpg,0.0,clock_6_5.png,6.0,12,,,,,,,,,,,,,,,,,,0.0,34.0,34.0,34.0,1.0,,,,,,,,,,
0.0,1.0,0.485625,,,,,,cardinal_07s.jpg,0.0,clock_6_6.png,6.0,12,,,,,,,,,,,,,,,,,,0.0,35.0,35.0,35.0,1.0,,,,,,,,,,
,,,,,,,,,0.0,,,12,1.0,0.0,3.77085,,,,,,diving_board_07s.jpg,mushroom_10n.jpg,,,,,,,,,,,,,0.0,0.0,0.0,0.0,1.0,,,,,
,,,,,,,,,1.0,,,12,1.0,1.0,1.812245,,,,,,chopsticks_08s.jpg,jet_15s.jpg,,,,,,,,,,,,,0.0,1.0,1.0,1.0,1.0,,,,,
,,,,,,,,,1.0,,,12,0.0,0.0,2.608785,,,,,,gong_02s.jpg,muffin_12n.jpg,,,,,,,,,,,,,0.0,2.0,2.0,2.0,1.0,,,,,
,,,,,,,,,1.0,,,12,1.0,1.0,2.19428,,,,,,kitten_07s.jpg,chip_04s.jpg,,,,,,,,,,,,,0.0,3.0,3.0,3.0,1.0,,,,,
,,,,,,,,,1.0,,,12,0.0,0.0,3.00235,,,,,,pencil_sharpener_09n.jpg,light_switch_02s.jpg,,,,,,,,,,,,,0.0,4.0,4.0,4.0,1.0,,,,,
,,,,,,,,,0.0,,,12,1.0,0.0,2.427685,,,,,,spider_web_03s.jpg,lavender_10s.jpg,,,,,,,,,,,,,0.0,5.0,5.0,5.0,1.0,,,,,
,,,,,,,,,,,,12,,,,,,,,,,,,,,,,clock_present_3_3.xlsx,clock_compare_task_3_3.xlsx,,,,,,,,,,,0.0,2.0,2.0,2.0,1.0
0.0,1.0,1.217725,,,,,,typewriter_11s.jpg,0.0,clock_5_1.png,1.0,12,,,,,,,,,,,,,,,,,,0.0,0.0,0.0,0.0,1.0,,,,,,,,,,
1.0,1.0,1.39082,,,,,,typewriter_11s.jpg,1.0,clock_5_2.png,1.0,12,,,,,,,,,,,,,,,,,,0.0,1.0,1.0,1.0,1.0,,,,,,,,,,
0.0,1.0,0.607275,,,,,,tweezers_03s.jpg,0.0,clock_5_3.png,1.0,12,,,,,,,,,,,,,,,,,,0.0,2.0,2.0,2.0,1.0,,,,,,,,,,
0.0,1.0,0.51791,,,,,,peeler_06s.jpg,0.0,clock_5_4.png,1.0,12,,,,,,,,,,,,,,,,,,0.0,3.0,3.0,3.0,1.0,,,,,,,,,,
0.0,1.0,0.696,,,,,,tripod_01b.jpg,0.0,clock_5_5.png,1.0,12,,,,,,,,,,,,,,,,,,0.0,4.0,4.0,4.0,1.0,,,,,,,,,,
0.0,1.0,0.64065,,,,,,rudder_02s.jpg,0.0,clock_7_1.png,2.0,12,,,,,,,,,,,,,,,,,,0.0,5.0,5.0,5.0,1.0,,,,,,,,,,
0.0,1.0,0.590445,,,,,,pumpkin_03s.jpg,0.0,clock_7_2.png,2.0,12,,,,,,,,,,,,,,,,,,0.0,6.0,6.0,6.0,1.0,,,,,,,,,,
0.0,1.0,0.57519,,,,,,red_carpet_03s.jpg,0.0,clock_7_3.png,2.0,12,,,,,,,,,,,,,,,,,,0.0,7.0,7.0,7.0,1.0,,,,,,,,,,
0.0,1.0,0.557055,,,,,,camcorder_10s.jpg,0.0,clock_7_4.png,2.0,12,,,,,,,,,,,,,,,,,,0.0,8.0,8.0,8.0,1.0,,,,,,,,,,
0.0,1.0,1.179185,,,,,,peeler_06s.jpg,0.0,clock_7_5.png,2.0,12,,,,,,,,,,,,,,,,,,0.0,9.0,9.0,9.0,1.0,,,,,,,,,,
0.0,1.0,1.01933,,,,,,tiger_06s.jpg,0.0,clock_7_6.png,2.0,12,,,,,,,,,,,,,,,,,,0.0,10.0,10.0,10.0,1.0,,,,,,,,,,
0.0,1.0,0.81094,,,,,,tube_top_03s.jpg,0.0,clock_7_7.png,2.0,12,,,,,,,,,,,,,,,,,,0.0,11.0,11.0,11.0,1.0,,,,,,,,,,
0.0,1.0,1.78733,,,,,,harpoon.jpg,0.0,clock_6_1.png,3.0,12,,,,,,,,,,,,,,,,,,0.0,12.0,12.0,12.0,1.0,,,,,,,,,,
0.0,1.0,0.56399,,,,,,paintbrush_04s.jpg,0.0,clock_6_2.png,3.0,12,,,,,,,,,,,,,,,,,,0.0,13.0,13.0,13.0,1.0,,,,,,,,,,
0.0,1.0,0.993615,,,,,,polaroid_05s.jpg,0.0,clock_6_3.png,3.0,12,,,,,,,,,,,,,,,,,,0.0,14.0,14.0,14.0,1.0,,,,,,,,,,
0.0,1.0,1.120725,,,,,,amber_04s.jpg,0.0,clock_6_4.png,3.0,12,,,,,,,,,,,,,,,,,,0.0,15.0,15.0,15.0,1.0,,,,,,,,,,
0.0,1.0,2.020015,,,,,,laser_pointer_02s.jpg,0.0,clock_6_5.png,3.0,12,,,,,,,,,,,,,,,,,,0.0,16.0,16.0,16.0,1.0,,,,,,,,,,
0.0,1.0,0.5435,,,,,,exhaust_pipe_10s.jpg,0.0,clock_6_6.png,3.0,12,,,,,,,,,,,,,,,,,,0.0,17.0,17.0,17.0,1.0,,,,,,,,,,
0.0,1.0,0.379035,,,,,,outlet_10s.jpg,0.0,clock_6_1.png,4.0,12,,,,,,,,,,,,,,,,,,0.0,18.0,18.0,18.0,1.0,,,,,,,,,,
0.0,1.0,0.92664,,,,,,mannequin_05s.jpg,0.0,clock_6_2.png,4.0,12,,,,,,,,,,,,,,,,,,0.0,19.0,19.0,19.0,1.0,,,,,,,,,,
1.0,1.0,1.64322,,,,,,mannequin_05s.jpg,1.0,clock_6_3.png,4.0,12,,,,,,,,,,,,,,,,,,0.0,20.0,20.0,20.0,1.0,,,,,,,,,,
0.0,1.0,1.231835,,,,,,boomerang_06s.jpg,0.0,clock_6_4.png,4.0,12,,,,,,,,,,,,,,,,,,0.0,21.0,21.0,21.0,1.0,,,,,,,,,,
0.0,1.0,0.82259,,,,,,razor_blade_01b.jpg,0.0,clock_6_5.png,4.0,12,,,,,,,,,,,,,,,,,,0.0,22.0,22.0,22.0,1.0,,,,,,,,,,
1.0,1.0,1.202865,,,,,,boomerang_06s.jpg,1.0,clock_6_6.png,4.0,12,,,,,,,,,,,,,,,,,,0.0,23.0,23.0,23.0,1.0,,,,,,,,,,
0.0,1.0,0.46017,,,,,,jalapeno_15s.jpg,0.0,clock_7_1.png,5.0,12,,,,,,,,,,,,,,,,,,0.0,24.0,24.0,24.0,1.0,,,,,,,,,,
0.0,1.0,0.434145,,,,,,footprint_11s.jpg,0.0,clock_7_2.png,5.0,12,,,,,,,,,,,,,,,,,,0.0,25.0,25.0,25.0,1.0,,,,,,,,,,
0.0,1.0,1.14848,,,,,,tiger_06s.jpg,0.0,clock_7_3.png,5.0,12,,,,,,,,,,,,,,,,,,0.0,26.0,26.0,26.0,1.0,,,,,,,,,,
1.0,1.0,1.029585,,,,,,footprint_11s.jpg,1.0,clock_7_4.png,5.0,12,,,,,,,,,,,,,,,,,,0.0,27.0,27.0,27.0,1.0,,,,,,,,,,
0.0,1.0,0.60095,,,,,,treasure_08s.jpg,0.0,clock_7_5.png,5.0,12,,,,,,,,,,,,,,,,,,0.0,28.0,28.0,28.0,1.0,,,,,,,,,,
0.0,1.0,0.41209,,,,,,reindeer_08s.jpg,0.0,clock_7_6.png,5.0,12,,,,,,,,,,,,,,,,,,0.0,29.0,29.0,29.0,1.0,,,,,,,,,,
0.0,1.0,0.625705,,,,,,pie_08s.jpg,0.0,clock_7_7.png,5.0,12,,,,,,,,,,,,,,,,,,0.0,30.0,30.0,30.0,1.0,,,,,,,,,,
0.0,1.0,0.64553,,,,,,fur_coat_11s.jpg,0.0,clock_5_1.png,6.0,12,,,,,,,,,,,,,,,,,,0.0,31.0,31.0,31.0,1.0,,,,,,,,,,
0.0,1.0,1.19381,,,,,,solar_panel_02s.jpg,0.0,clock_5_2.png,6.0,12,,,,,,,,,,,,,,,,,,0.0,32.0,32.0,32.0,1.0,,,,,,,,,,
0.0,1.0,0.64544,,,,,,plunger_08s.jpg,0.0,clock_5_3.png,6.0,12,,,,,,,,,,,,,,,,,,0.0,33.0,33.0,33.0,1.0,,,,,,,,,,
0.0,1.0,1.76828,,,,,,crate_05s.jpg,0.0,clock_5_4.png,6.0,12,,,,,,,,,,,,,,,,,,0.0,34.0,34.0,34.0,1.0,,,,,,,,,,
0.0,1.0,1.163865,,,,,,reindeer_08s.jpg,0.0,clock_5_5.png,6.0,12,,,,,,,,,,,,,,,,,,0.0,35.0,35.0,35.0,1.0,,,,,,,,,,
,,,,,,,,,1.0,,,12,0.0,0.0,4.535065,,,,,,tripod_01b.jpg,red_carpet_03s.jpg,,,,,,,,,,,,,0.0,0.0,0.0,0.0,1.0,,,,,
,,,,,,,,,1.0,,,12,1.0,1.0,1.109545,,,,,,pie_08s.jpg,plunger_08s.jpg,,,,,,,,,,,,,0.0,1.0,1.0,1.0,1.0,,,,,
,,,,,,,,,1.0,,,12,0.0,0.0,1.59973,,,,,,tweezers_03s.jpg,rudder_02s.jpg,,,,,,,,,,,,,0.0,2.0,2.0,2.0,1.0,,,,,
,,,,,,,,,0.0,,,12,0.0,1.0,2.62154,,,,,,laser_pointer_02s.jpg,paintbrush_04s.jpg,,,,,,,,,,,,,0.0,3.0,3.0,3.0,1.0,,,,,
,,,,,,,,,1.0,,,12,0.0,0.0,2.271735,,,,,,camcorder_10s.jpg,tube_top_03s.jpg,,,,,,,,,,,,,0.0,4.0,4.0,4.0,1.0,,,,,
,,,,,,,,,0.0,,,12,1.0,0.0,3.05398,,,,,,amber_04s.jpg,harpoon.jpg,,,,,,,,,,,,,0.0,5.0,5.0,5.0,1.0,,,,,
,,,,,,,,,,,,12,,,,,,,,,,,,,,,,clock_present_4_3.xlsx,clock_compare_task_4_3.xlsx,,,,,,,,,,,0.0,3.0,3.0,3.0,1.0
0.0,1.0,1.328005,,,,,,frog_09s.jpg,0.0,clock_5_1.png,1.0,12,,,,,,,,,,,,,,,,,,0.0,0.0,0.0,0.0,1.0,,,,,,,,,,
0.0,1.0,0.78232,,,,,,tile_08s.jpg,0.0,clock_5_2.png,1.0,12,,,,,,,,,,,,,,,,,,0.0,1.0,1.0,1.0,1.0,,,,,,,,,,
1.0,1.0,1.31072,,,,,,tile_08s.jpg,1.0,clock_5_3.png,1.0,12,,,,,,,,,,,,,,,,,,0.0,2.0,2.0,2.0,1.0,,,,,,,,,,
1.0,1.0,0.611965,,,,,,tile_08s.jpg,1.0,clock_5_4.png,1.0,12,,,,,,,,,,,,,,,,,,0.0,3.0,3.0,3.0,1.0,,,,,,,,,,
0.0,1.0,0.64305,,,,,,icicle_04s.jpg,0.0,clock_5_5.png,1.0,12,,,,,,,,,,,,,,,,,,0.0,4.0,4.0,4.0,1.0,,,,,,,,,,
0.0,1.0,1.173305,,,,,,stapler_01b.jpg,0.0,clock_5_1.png,2.0,12,,,,,,,,,,,,,,,,,,0.0,5.0,5.0,5.0,1.0,,,,,,,,,,
0.0,1.0,1.58653,,,,,,roulette_wheel_04s.jpg,0.0,clock_5_2.png,2.0,12,,,,,,,,,,,,,,,,,,0.0,6.0,6.0,6.0,1.0,,,,,,,,,,
0.0,1.0,1.00838,,,,,,lamppost_09s.jpg,0.0,clock_5_3.png,2.0,12,,,,,,,,,,,,,,,,,,0.0,7.0,7.0,7.0,1.0,,,,,,,,,,
1.0,1.0,0.92752,,,,,,lamppost_09s.jpg,1.0,clock_5_4.png,2.0,12,,,,,,,,,,,,,,,,,,0.0,8.0,8.0,8.0,1.0,,,,,,,,,,
0.0,1.0,1.430375,,,,,,trampoline_13s.jpg,0.0,clock_5_5.png,2.0,12,,,,,,,,,,,,,,,,,,0.0,9.0,9.0,9.0,1.0,,,,,,,,,,
0.0,1.0,0.87517,,,,,,crayon_09s.jpg,0.0,clock_7_1.png,3.0,12,,,,,,,,,,,,,,,,,,0.0,10.0,10.0,10.0,1.0,,,,,,,,,,
0.0,1.0,0.752505,,,,,,teacup_07s.jpg,0.0,clock_7_2.png,3.0,12,,,,,,,,,,,,,,,,,,0.0,11.0,11.0,11.0,1.0,,,,,,,,,,
0.0,1.0,0.860955,,,,,,pillbox_04s.jpg,0.0,clock_7_3.png,3.0,12,,,,,,,,,,,,,,,,,,0.0,12.0,12.0,12.0,1.0,,,,,,,,,,
0.0,1.0,0.603385,,,,,,measuring_cup_02s.jpg,0.0,clock_7_4.png,3.0,12,,,,,,,,,,,,,,,,,,0.0,13.0,13.0,13.0,1.0,,,,,,,,,,
0.0,1.0,1.15121,,,,,,turkey_10s.jpg,0.0,clock_7_5.png,3.0,12,,,,,,,,,,,,,,,,,,0.0,14.0,14.0,14.0,1.0,,,,,,,,,,
0.0,1.0,1.152445,,,,,,jukebox_03n.jpg,0.0,clock_7_6.png,3.0,12,,,,,,,,,,,,,,,,,,0.0,15.0,15.0,15.0,1.0,,,,,,,,,,
0.0,0.0,2.292435,,,,,,crayon_09s.jpg,1.0,clock_7_7.png,3.0,12,,,,,,,,,,,,,,,,,,0.0,16.0,16.0,16.0,1.0,,,,,,,,,,
0.0,1.0,0.70886,,,,,,fountain_pen_06s.jpg,0.0,clock_6_1.png,4.0,12,,,,,,,,,,,,,,,,,,0.0,17.0,17.0,17.0,1.0,,,,,,,,,,
1.0,1.0,0.800385,,,,,,fountain_pen_06s.jpg,1.0,clock_6_2.png,4.0,12,,,,,,,,,,,,,,,,,,0.0,18.0,18.0,18.0,1.0,,,,,,,,,,
0.0,1.0,0.79533,,,,,,roulette_wheel_04s.jpg,0.0,clock_6_3.png,4.0,12,,,,,,,,,,,,,,,,,,0.0,19.0,19.0,19.0,1.0,,,,,,,,,,
1.0,1.0,1.512395,,,,,,fountain_pen_06s.jpg,1.0,clock_6_4.png,4.0,12,,,,,,,,,,,,,,,,,,0.0,20.0,20.0,20.0,1.0,,,,,,,,,,
0.0,1.0,0.660715,,,,,,stapler_01b.jpg,0.0,clock_6_5.png,4.0,12,,,,,,,,,,,,,,,,,,0.0,21.0,21.0,21.0,1.0,,,,,,,,,,
0.0,1.0,0.746885,,,,,,jigsaw_puzzle_11s.jpg,0.0,clock_6_6.png,4.0,12,,,,,,,,,,,,,,,,,,0.0,22.0,22.0,22.0,1.0,,,,,,,,,,
0.0,1.0,1.75629,,,,,,pear_02s.jpg,0.0,clock_7_1.png,5.0,12,,,,,,,,,,,,,,,,,,0.0,23.0,23.0,23.0,1.0,,,,,,,,,,
1.0,1.0,0.92539,,,,,,pear_02s.jpg,1.0,clock_7_2.png,5.0,12,,,,,,,,,,,,,,,,,,0.0,24.0,24.0,24.0,1.0,,,,,,,,,,
0.0,1.0,1.625865,,,,,,lamppost_09s.jpg,0.0,clock_7_3.png,5.0,12,,,,,,,,,,,,,,,,,,0.0,25.0,25.0,25.0,1.0,,,,,,,,,,
0.0,1.0,1.191235,,,,,,blender_08s.jpg,0.0,clock_7_4.png,5.0,12,,,,,,,,,,,,,,,,,,0.0,26.0,26.0,26.0,1.0,,,,,,,,,,
0.0,1.0,1.06861,,,,,,chime_12s.jpg,0.0,clock_7_5.png,5.0,12,,,,,,,,,,,,,,,,,,0.0,27.0,27.0,27.0,1.0,,,,,,,,,,
0.0,1.0,0.824925,,,,,,tattoo_14s.jpg,0.0,clock_7_6.png,5.0,12,,,,,,,,,,,,,,,,,,0.0,28.0,28.0,28.0,1.0,,,,,,,,,,
0.0,1.0,1.21935,,,,,,soda_fountain_03s.jpg,0.0,clock_7_7.png,5.0,12,,,,,,,,,,,,,,,,,,0.0,29.0,29.0,29.0,1.0,,,,,,,,,,
0.0,1.0,0.86316,,,,,,contact_lens_15s.jpg,0.0,clock_6_1.png,6.0,12,,,,,,,,,,,,,,,,,,0.0,30.0,30.0,30.0,1.0,,,,,,,,,,
0.0,1.0,1.977475,,,,,,tuba_12s.jpg,0.0,clock_6_2.png,6.0,12,,,,,,,,,,,,,,,,,,0.0,31.0,31.0,31.0,1.0,,,,,,,,,,
0.0,1.0,1.538895,,,,,,projector_08s.jpg,0.0,clock_6_3.png,6.0,12,,,,,,,,,,,,,,,,,,0.0,32.0,32.0,32.0,1.0,,,,,,,,,,
0.0,1.0,0.943,,,,,,mirror_12s.jpg,0.0,clock_6_4.png,6.0,12,,,,,,,,,,,,,,,,,,0.0,33.0,33.0,33.0,1.0,,,,,,,,,,
0.0,1.0,1.063,,,,,,plaster_cast_13s.jpg,0.0,clock_6_5.png,6.0,12,,,,,,,,,,,,,,,,,,0.0,34.0,34.0,34.0,1.0,,,,,,,,,,
0.0,1.0,0.960335,,,,,,pump_11s.jpg,0.0,clock_6_6.png,6.0,12,,,,,,,,,,,,,,,,,,0.0,35.0,35.0,35.0,1.0,,,,,,,,,,
,,,,,,,,,1.0,,,12,1.0,1.0,2.701405,,,,,,trampoline_13s.jpg,pillbox_04s.jpg,,,,,,,,,,,,,0.0,0.0,0.0,0.0,1.0,,,,,
,,,,,,,,,1.0,,,12,0.0,0.0,1.729195,,,,,,chime_12s.jpg,contact_lens_15s.jpg,,,,,,,,,,,,,0.0,1.0,1.0,1.0,1.0,,,,,
,,,,,,,,,1.0,,,12,1.0,1.0,2.70743,,,,,,tattoo_14s.jpg,tuba_12s.jpg,,,,,,,,,,,,,0.0,2.0,2.0,2.0,1.0,,,,,
,,,,,,,,,1.0,,,12,1.0,1.0,1.97962,,,,,,teacup_07s.jpg,turkey_10s.jpg,,,,,,,,,,,,,0.0,3.0,3.0,3.0,1.0,,,,,
,,,,,,,,,1.0,,,12,0.0,0.0,2.775015,,,,,,blender_08s.jpg,soda_fountain_03s.jpg,,,,,,,,,,,,,0.0,4.0,4.0,4.0,1.0,,,,,
,,,,,,,,,0.0,,,12,1.0,0.0,3.27889,,,,,,pump_11s.jpg,projector_08s.jpg,,,,,,,,,,,,,0.0,5.0,5.0,5.0,1.0,,,,,
,,,,,,,,,,,,12,,,,,,,,,,,,,,,,clock_present_5_3.xlsx,clock_compare_task_5_3.xlsx,,,,,,,,,,,0.0,4.0,4.0,4.0,1.0
0.0,1.0,0.960865,,,,,,kite_04s.jpg,0.0,clock_7_1.png,1.0,12,,,,,,,,,,,,,,,,,,0.0,0.0,0.0,0.0,1.0,,,,,,,,,,
1.0,1.0,0.74563,,,,,,kite_04s.jpg,1.0,clock_7_2.png,1.0,12,,,,,,,,,,,,,,,,,,0.0,1.0,1.0,1.0,1.0,,,,,,,,,,
1.0,1.0,0.70873,,,,,,kite_04s.jpg,1.0,clock_7_3.png,1.0,12,,,,,,,,,,,,,,,,,,0.0,2.0,2.0,2.0,1.0,,,,,,,,,,
1.0,1.0,0.97292,,,,,,kite_04s.jpg,1.0,clock_7_4.png,1.0,12,,,,,,,,,,,,,,,,,,0.0,3.0,3.0,3.0,1.0,,,,,,,,,,
0.0,1.0,0.64631,,,,,,compass_10n.jpg,0.0,clock_7_5.png,1.0,12,,,,,,,,,,,,,,,,,,0.0,4.0,4.0,4.0,1.0,,,,,,,,,,
1.0,1.0,1.265965,,,,,,kite_04s.jpg,1.0,clock_7_6.png,1.0,12,,,,,,,,,,,,,,,,,,0.0,5.0,5.0,5.0,1.0,,,,,,,,,,
0.0,1.0,0.786045,,,,,,purse_05s.jpg,0.0,clock_7_7.png,1.0,12,,,,,,,,,,,,,,,,,,0.0,6.0,6.0,6.0,1.0,,,,,,,,,,
0.0,1.0,0.736845,,,,,,orange_12s.jpg,0.0,clock_6_1.png,2.0,12,,,,,,,,,,,,,,,,,,0.0,7.0,7.0,7.0,1.0,,,,,,,,,,
0.0,1.0,0.810965,,,,,,eggshell_14s.jpg,0.0,clock_6_2.png,2.0,12,,,,,,,,,,,,,,,,,,0.0,8.0,8.0,8.0,1.0,,,,,,,,,,
1.0,1.0,1.26051,,,,,,orange_12s.jpg,1.0,clock_6_3.png,2.0,12,,,,,,,,,,,,,,,,,,0.0,9.0,9.0,9.0,1.0,,,,,,,,,,
0.0,1.0,0.95804,,,,,,purse_05s.jpg,0.0,clock_6_4.png,2.0,12,,,,,,,,,,,,,,,,,,0.0,10.0,10.0,10.0,1.0,,,,,,,,,,
0.0,1.0,1.172595,,,,,,roller_coaster_07s.jpg,0.0,clock_6_5.png,2.0,12,,,,,,,,,,,,,,,,,,0.0,11.0,11.0,11.0,1.0,,,,,,,,,,
0.0,1.0,1.102955,,,,,,sushi_08s.jpg,0.0,clock_6_6.png,2.0,12,,,,,,,,,,,,,,,,,,0.0,12.0,12.0,12.0,1.0,,,,,,,,,,
0.0,1.0,1.060885,,,,,,raft_09s.jpg,0.0,clock_6_1.png,3.0,12,,,,,,,,,,,,,,,,,,0.0,13.0,13.0,13.0,1.0,,,,,,,,,,
0.0,1.0,1.64189,,,,,,orange_12s.jpg,0.0,clock_6_2.png,3.0,12,,,,,,,,,,,,,,,,,,0.0,14.0,14.0,14.0,1.0,,,,,,,,,,
0.0,1.0,1.792875,,,,,,kite_04s.jpg,0.0,clock_6_3.png,3.0,12,,,,,,,,,,,,,,,,,,0.0,15.0,15.0,15.0,1.0,,,,,,,,,,
0.0,1.0,1.40153,,,,,,petri_dish_12s.jpg,0.0,clock_6_4.png,3.0,12,,,,,,,,,,,,,,,,,,0.0,16.0,16.0,16.0,1.0,,,,,,,,,,
0.0,1.0,0.690365,,,,,,rope_16s.jpg,0.0,clock_6_5.png,3.0,12,,,,,,,,,,,,,,,,,,0.0,17.0,17.0,17.0,1.0,,,,,,,,,,
0.0,1.0,1.378165,,,,,,lab_coat_11s.jpg,0.0,clock_6_6.png,3.0,12,,,,,,,,,,,,,,,,,,0.0,18.0,18.0,18.0,1.0,,,,,,,,,,
0.0,1.0,1.111845,,,,,,pretzel_09s.jpg,0.0,clock_5_1.png,4.0,12,,,,,,,,,,,,,,,,,,0.0,19.0,19.0,19.0,1.0,,,,,,,,,,
0.0,1.0,1.272415,,,,,,doily_13s.jpg,0.0,clock_5_2.png,4.0,12,,,,,,,,,,,,,,,,,,0.0,20.0,20.0,20.0,1.0,,,,,,,,,,
0.0,1.0,1.257705,,,,,,rooster_03s.jpg,0.0,clock_5_3.png,4.0,12,,,,,,,,,,,,,,,,,,0.0,21.0,21.0,21.0,1.0,,,,,,,,,,
0.0,1.0,1.06941,,,,,,fondue_07s.jpg,0.0,clock_5_4.png,4.0,12,,,,,,,,,,,,,,,,,,0.0,22.0,22.0,22.0,1.0,,,,,,,,,,
0.0,1.0,0.677765,,,,,,petri_dish_12s.jpg,0.0,clock_5_5.png,4.0,12,,,,,,,,,,,,,,,,,,0.0,23.0,23.0,23.0,1.0,,,,,,,,,,
0.0,1.0,0.44587,,,,,,pinwheel_06s.jpg,0.0,clock_5_1.png,5.0,12,,,,,,,,,,,,,,,,,,0.0,24.0,24.0,24.0,1.0,,,,,,,,,,
0.0,1.0,0.561395,,,,,,police_car_01s.jpg,0.0,clock_5_2.png,5.0,12,,,,,,,,,,,,,,,,,,0.0,25.0,25.0,25.0,1.0,,,,,,,,,,
0.0,1.0,0.822355,,,,,,feather02.jpg,0.0,clock_5_3.png,5.0,12,,,,,,,,,,,,,,,,,,0.0,26.0,26.0,26.0,1.0,,,,,,,,,,
0.0,1.0,0.632015,,,,,,smoothie_09s.jpg,0.0,clock_5_4.png,5.0,12,,,,,,,,,,,,,,,,,,0.0,27.0,27.0,27.0,1.0,,,,,,,,,,
0.0,1.0,0.73052,,,,,,kettle_08s.jpg,0.0,clock_5_5.png,5.0,12,,,,,,,,,,,,,,,,,,0.0,28.0,28.0,28.0,1.0,,,,,,,,,,
0.0,1.0,0.637535,,,,,,spacesuit_02s.jpg,0.0,clock_7_1.png,6.0,12,,,,,,,,,,,,,,,,,,0.0,29.0,29.0,29.0,1.0,,,,,,,,,,
0.0,1.0,0.548415,,,,,,licorice_06s.jpg,0.0,clock_7_2.png,6.0,12,,,,,,,,,,,,,,,,,,0.0,30.0,30.0,30.0,1.0,,,,,,,,,,
0.0,1.0,0.869755,,,,,,quesadilla_07s.jpg,0.0,clock_7_3.png,6.0,12,,,,,,,,,,,,,,,,,,0.0,31.0,31.0,31.0,1.0,,,,,,,,,,
0.0,1.0,1.895815,,,,,,road_sign_05s.jpg,0.0,clock_7_4.png,6.0,12,,,,,,,,,,,,,,,,,,0.0,32.0,32.0,32.0,1.0,,,,,,,,,,
1.0,1.0,1.533245,,,,,,licorice_06s.jpg,1.0,clock_7_5.png,6.0,12,,,,,,,,,,,,,,,,,,0.0,33.0,33.0,33.0,1.0,,,,,,,,,,
1.0,1.0,0.95667,,,,,,licorice_06s.jpg,1.0,clock_7_6.png,6.0,12,,,,,,,,,,,,,,,,,,0.0,34.0,34.0,34.0,1.0,,,,,,,,,,
0.0,1.0,0.74822,,,,,,birthday_cake_09s.jpg,0.0,clock_7_7.png,6.0,12,,,,,,,,,,,,,,,,,,0.0,35.0,35.0,35.0,1.0,,,,,,,,,,
,,,,,,,,,1.0,,,12,1.0,1.0,2.73599,,,,,,rope_16s.jpg,doily_13s.jpg,,,,,,,,,,,,,0.0,0.0,0.0,0.0,1.0,,,,,
,,,,,,,,,1.0,,,12,1.0,1.0,3.361915,,,,,,lab_coat_11s.jpg,rooster_03s.jpg,,,,,,,,,,,,,0.0,1.0,1.0,1.0,1.0,,,,,
,,,,,,,,,1.0,,,12,0.0,0.0,4.67499,,,,,,feather02.jpg,spacesuit_02s.jpg,,,,,,,,,,,,,0.0,2.0,2.0,2.0,1.0,,,,,
,,,,,,,,,1.0,,,12,1.0,1.0,1.073075,,,,,,eggshell_14s.jpg,roller_coaster_07s.jpg,,,,,,,,,,,,,0.0,3.0,3.0,3.0,1.0,,,,,
,,,,,,,,,1.0,,,12,0.0,0.0,3.175305,,,,,,road_sign_05s.jpg,birthday_cake_09s.jpg,,,,,,,,,,,,,0.0,4.0,4.0,4.0,1.0,,,,,
,,,,,,,,,1.0,,,12,0.0,0.0,2.8815,,,,,,pretzel_09s.jpg,fondue_07s.jpg,,,,,,,,,,,,,0.0,5.0,5.0,5.0,1.0,,,,,
