key_resp.keys,key_resp.corr,key_resp.rt,present_segment.thisRepN,present_segment.thisTrialN,present_segment.thisN,present_segment.thisIndex,present_segment.ran,pictures,answer,clock,segment,participant,key_resp_2.keys,key_resp_2.corr,key_resp_2.rt,compare_segment.thisRepN,compare_segment.thisTrialN,compare_segment.thisN,compare_segment.thisIndex,compare_segment.ran,item_a,item_b,clock_conditions.thisRepN,clock_conditions.thisTrialN,clock_conditions.thisN,clock_conditions.thisIndex,clock_conditions.ran,present,compare,noclock_present.thisRepN,noclock_present.thisTrialN,noclock_present.thisN,noclock_present.thisIndex,noclock_present.ran,noclock_compare.thisRepN,noclock_compare.thisTrialN,noclock_compare.thisN,noclock_compare.thisIndex,noclock_compare.ran,noclock_conditions.thisRepN,noclock_conditions.thisTrialN,noclock_conditions.thisN,noclock_conditions.thisIndex,noclock_conditions.ran
0.0,1.0,1.32486,0.0,0.0,0.0,0.0,1.0,pineapple_12s.jpg,0.0,clock_7_1.png,1.0,38,,,,,,,,,,,,,,,,,,,,,,,,,,,,,,,,
0.0,1.0,1.80345,0.0,1.0,1.0,1.0,1.0,plaster_cast_13s.jpg,0.0,clock_7_2.png,1.0,38,,,,,,,,,,,,,,,,,,,,,,,,,,,,,,,,
0.0,1.0,0.998255,0.0,2.0,2.0,2.0,1.0,frog_09s.jpg,0.0,clock_7_3.png,1.0,38,,,,,,,,,,,,,,,,,,,,,,,,,,,,,,,,
0.0,1.0,0.98546,0.0,3.0,3.0,3.0,1.0,film_03s.jpg,0.0,clock_7_4.png,1.0,38,,,,,,,,,,,,,,,,,,,,,,,,,,,,,,,,
1.0,1.0,1.07969,0.0,4.0,4.0,4.0,1.0,pineapple_12s.jpg,1.0,clock_7_5.png,1.0,38,,,,,,,,,,,,,,,,,,,,,,,,,,,,,,,,
0.0,1.0,0.776875,0.0,5.0,5.0,5.0,1.0,megaphone_03s.jpg,0.0,clock_7_6.png,1.0,38,,,,,,,,,,,,,,,,,,,,,,,,,,,,,,,,
0.0,1.0,0.841095,0.0,6.0,6.0,6.0,1.0,pillbox_04s.jpg,0.0,clock_7_7.png,1.0,38,,,,,,,,,,,,,,,,,,,,,,,,,,,,,,,,
0.0,1.0,1.091815,0.0,7.0,7.0,7.0,1.0,birdcage_08s.jpg,0.0,clock_5_1.png,2.0,38,,,,,,,,,,,,,,,,,,,,,,,,,,,,,,,,
0.0,1.0,1.217345,0.0,8.0,8.0,8.0,1.0,pineapple_12s.jpg,0.0,clock_5_2.png,2.0,38,,,,,,,,,,,,,,,,,,,,,,,,,,,,,,,,
0.0,1.0,0.69135,0.0,9.0,9.0,9.0,1.0,polaroid_05s.jpg,0.0,clock_5_3.png,2.0,38,,,,,,,,,,,,,,,,,,,,,,,,,,,,,,,,
0.0,1.0,0.52148,0.0,10.0,10.0,10.0,1.0,puddle_02s.jpg,0.0,clock_5_4.png,2.0,38,,,,,,,,,,,,,,,,,,,,,,,,,,,,,,,,
0.0,0.0,0.455725,0.0,11.0,11.0,11.0,1.0,polaroid_05s.jpg,1.0,clock_5_5.png,2.0,38,,,,,,,,,,,,,,,,,,,,,,,,,,,,,,,,
0.0,1.0,0.738365,0.0,12.0,12.0,12.0,1.0,lizard_10n.jpg,0.0,clock_7_1.png,3.0,38,,,,,,,,,,,,,,,,,,,,,,,,,,,,,,,,
0.0,1.0,1.217945,0.0,13.0,13.0,13.0,1.0,puddle_02s.jpg,0.0,clock_7_2.png,3.0,38,,,,,,,,,,,,,,,,,,,,,,,,,,,,,,,,
0.0,1.0,0.76171,0.0,14.0,14.0,14.0,1.0,icemaker_10s.jpg,0.0,clock_7_3.png,3.0,38,,,,,,,,,,,,,,,,,,,,,,,,,,,,,,,,
0.0,1.0,0.497355,0.0,15.0,15.0,15.0,1.0,triangle_10s.jpg,0.0,clock_7_4.png,3.0,38,,,,,,,,,,,,,,,,,,,,,,,,,,,,,,,,
0.0,1.0,0.58534,0.0,16.0,16.0,16.0,1.0,orchid_01b.jpg,0.0,clock_7_5.png,3.0,38,,,,,,,,,,,,,,,,,,,,,,,,,,,,,,,,
0.0,1.0,0.612245,0.0,17.0,17.0,17.0,1.0,kimono_13s.jpg,0.0,clock_7_6.png,3.0,38,,,,,,,,,,,,,,,,,,,,,,,,,,,,,,,,
0.0,1.0,0.63882,0.0,18.0,18.0,18.0,1.0,birthday_cake_09s.jpg,0.0,clock_7_7.png,3.0,38,,,,,,,,,,,,,,,,,,,,,,,,,,,,,,,,
0.0,1.0,0.69721,0.0,19.0,19.0,19.0,1.0,rooster_03s.jpg,0.0,clock_6_1.png,4.0,38,,,,,,,,,,,,,,,,,,,,,,,,,,,,,,,,
0.0,1.0,0.59747,0.0,20.0,20.0,20.0,1.0,soccer_ball_12s.jpg,0.0,clock_6_2.png,4.0,38,,,,,,,,,,,,,,,,,,,,,,,,,,,,,,,,
0.0,1.0,0.71796,0.0,21.0,21.0,21.0,1.0,crate_05s.jpg,0.0,clock_6_3.png,4.0,38,,,,,,,,,,,,,,,,,,,,,,,,,,,,,,,,
0.0,1.0,0.641,0.0,22.0,22.0,22.0,1.0,pan_02s.jpg,0.0,clock_6_4.png,4.0,38,,,,,,,,,,,,,,,,,,,,,,,,,,,,,,,,
0.0,1.0,0.63386,0.0,23.0,23.0,23.0,1.0,sunflower_17s.jpg,0.0,clock_6_5.png,4.0,38,,,,,,,,,,,,,,,,,,,,,,,,,,,,,,,,
1.0,1.0,1.05233,0.0,24.0,24.0,24.0,1.0,crate_05s.jpg,1.0,clock_6_6.png,4.0,38,,,,,,,,,,,,,,,,,,,,,,,,,,,,,,,,
0.0,1.0,0.69183,0.0,25.0,25.0,25.0,1.0,moth_06n.jpg,0.0,clock_5_1.png,5.0,38,,,,,,,,,,,,,,,,,,,,,,,,,,,,,,,,
0.0,1.0,0.973115,0.0,26.0,26.0,26.0,1.0,frog_09s.jpg,0.0,clock_5_2.png,5.0,38,,,,,,,,,,,,,,,,,,,,,,,,,,,,,,,,
0.0,1.0,0.51869,0.0,27.0,27.0,27.0,1.0,puddle_02s.jpg,0.0,clock_5_3.png,5.0,38,,,,,,,,,,,,,,,,,,,,,,,,,,,,,,,,
0.0,1.0,0.667855,0.0,28.0,28.0,28.0,1.0,treasure_08s.jpg,0.0,clock_5_4.png,5.0,38,,,,,,,,,,,,,,,,,,,,,,,,,,,,,,,,
0.0,1.0,1.30935,0.0,29.0,29.0,29.0,1.0,glue_01s.jpg,0.0,clock_5_5.png,5.0,38,,,,,,,,,,,,,,,,,,,,,,,,,,,,,,,,
0.0,1.0,0.6267,0.0,30.0,30.0,30.0,1.0,stopwatch_04s.jpg,0.0,clock_6_1.png,6.0,38,,,,,,,,,,,,,,,,,,,,,,,,,,,,,,,,
0.0,1.0,0.61789,0.0,31.0,31.0,31.0,1.0,machete_06s.jpg,0.0,clock_6_2.png,6.0,38,,,,,,,,,,,,,,,,,,,,,,,,,,,,,,,,
1.0,1.0,1.029655,0.0,32.0,32.0,32.0,1.0,stopwatch_04s.jpg,1.0,clock_6_3.png,6.0,38,,,,,,,,,,,,,,,,,,,,,,,,,,,,,,,,
0.0,1.0,0.47403,0.0,33.0,33.0,33.0,1.0,joystick_01b.jpg,0.0,clock_6_4.png,6.0,38,,,,,,,,,,,,,,,,,,,,,,,,,,,,,,,,
0.0,1.0,0.37181,0.0,34.0,34.0,34.0,1.0,onion_10s.jpg,0.0,clock_6_5.png,6.0,38,,,,,,,,,,,,,,,,,,,,,,,,,,,,,,,,
0.0,1.0,1.108255,0.0,35.0,35.0,35.0,1.0,cap_05s.jpg,0.0,clock_6_6.png,6.0,38,,,,,,,,,,,,,,,,,,,,,,,,,,,,,,,,
,,,,,,,,,1.0,,,38,0.0,0.0,2.12975,0.0,0.0,0.0,0.0,1.0,orchid_01b.jpg,rooster_03s.jpg,,,,,,,,,,,,,,,,,,,,,,
,,,,,,,,,1.0,,,38,1.0,1.0,2.074655,0.0,1.0,1.0,1.0,1.0,kimono_13s.jpg,soccer_ball_12s.jpg,,,,,,,,,,,,,,,,,,,,,,
,,,,,,,,,0.0,,,38,0.0,1.0,3.4505,0.0,2.0,2.0,2.0,1.0,moth_06n.jpg,pan_02s.jpg,,,,,,,,,,,,,,,,,,,,,,
,,,,,,,,,0.0,,,38,1.0,0.0,1.91505,0.0,3.0,3.0,3.0,1.0,pillbox_04s.jpg,film_03s.jpg,,,,,,,,,,,,,,,,,,,,,,
,,,,,,,,,0.0,,,38,0.0,1.0,1.334385,0.0,4.0,4.0,4.0,1.0,triangle_10s.jpg,lizard_10n.jpg,,,,,,,,,,,,,,,,,,,,,,
,,,,,,,,,0.0,,,38,0.0,1.0,1.938685,0.0,5.0,5.0,5.0,1.0,onion_10s.jpg,machete_06s.jpg,,,,,,,,,,,,,,,,,,,,,,
,,,,,,,,,,,,38,,,,,,,,,,,0.0,0.0,0.0,0.0,1.0,clock_present_1_4.xlsx,clock_compare_task_1_4.xlsx,,,,,,,,,,,,,,,
0.0,1.0,1.456465,0.0,0.0,0.0,0.0,1.0,swing_set_15s.jpg,0.0,clock_5_1.png,1.0,38,,,,,,,,,,,,,,,,,,,,,,,,,,,,,,,,
1.0,1.0,1.09831,0.0,1.0,1.0,1.0,1.0,swing_set_15s.jpg,1.0,clock_5_2.png,1.0,38,,,,,,,,,,,,,,,,,,,,,,,,,,,,,,,,
0.0,1.0,0.577785,0.0,2.0,2.0,2.0,1.0,fire_alarm_05s.jpg,0.0,clock_5_3.png,1.0,38,,,,,,,,,,,,,,,,,,,,,,,,,,,,,,,,
0.0,1.0,1.058525,0.0,3.0,3.0,3.0,1.0,oil_02s.jpg,0.0,clock_5_4.png,1.0,38,,,,,,,,,,,,,,,,,,,,,,,,,,,,,,,,
0.0,1.0,0.69771,0.0,4.0,4.0,4.0,1.0,lipstick_02s.jpg,0.0,clock_5_5.png,1.0,38,,,,,,,,,,,,,,,,,,,,,,,,,,,,,,,,
0.0,1.0,0.69199,0.0,5.0,5.0,5.0,1.0,puppy_08s.jpg,0.0,clock_6_1.png,2.0,38,,,,,,,,,,,,,,,,,,,,,,,,,,,,,,,,
0.0,1.0,0.618245,0.0,6.0,6.0,6.0,1.0,incense_02s.jpg,0.0,clock_6_2.png,2.0,38,,,,,,,,,,,,,,,,,,,,,,,,,,,,,,,,
0.0,0.0,1.577565,0.0,7.0,7.0,7.0,1.0,puppy_08s.jpg,1.0,clock_6_3.png,2.0,38,,,,,,,,,,,,,,,,,,,,,,,,,,,,,,,,
0.0,1.0,0.54557,0.0,8.0,8.0,8.0,1.0,chip_04s.jpg,0.0,clock_6_4.png,2.0,38,,,,,,,,,,,,,,,,,,,,,,,,,,,,,,,,
0.0,1.0,0.60158,0.0,9.0,9.0,9.0,1.0,ram_05s.jpg,0.0,clock_6_5.png,2.0,38,,,,,,,,,,,,,,,,,,,,,,,,,,,,,,,,
0.0,1.0,0.97666,0.0,10.0,10.0,10.0,1.0,pencil02a.jpg,0.0,clock_6_6.png,2.0,38,,,,,,,,,,,,,,,,,,,,,,,,,,,,,,,,
0.0,1.0,0.97755,0.0,11.0,11.0,11.0,1.0,rhubarb_03s.jpg,0.0,clock_6_1.png,3.0,38,,,,,,,,,,,,,,,,,,,,,,,,,,,,,,,,
0.0,1.0,0.616405,0.0,12.0,12.0,12.0,1.0,loveseat_08s.jpg,0.0,clock_6_2.png,3.0,38,,,,,,,,,,,,,,,,,,,,,,,,,,,,,,,,
0.0,1.0,0.5773,0.0,13.0,13.0,13.0,1.0,fire_alarm_05s.jpg,0.0,clock_6_3.png,3.0,38,,,,,,,,,,,,,,,,,,,,,,,,,,,,,,,,
0.0,1.0,0.281575,0.0,14.0,14.0,14.0,1.0,crayon_09s.jpg,0.0,clock_6_4.png,3.0,38,,,,,,,,,,,,,,,,,,,,,,,,,,,,,,,,
0.0,0.0,0.49721,0.0,15.0,15.0,15.0,1.0,loveseat_08s.jpg,1.0,clock_6_5.png,3.0,38,,,,,,,,,,,,,,,,,,,,,,,,,,,,,,,,
0.0,1.0,0.72122,0.0,16.0,16.0,16.0,1.0,buoy_04s.jpg,0.0,clock_6_6.png,3.0,38,,,,,,,,,,,,,,,,,,,,,,,,,,,,,,,,
0.0,1.0,0.872945,0.0,17.0,17.0,17.0,1.0,licorice_06s.jpg,0.0,clock_5_1.png,4.0,38,,,,,,,,,,,,,,,,,,,,,,,,,,,,,,,,
0.0,1.0,0.736125,0.0,18.0,18.0,18.0,1.0,footprint_11s.jpg,0.0,clock_5_2.png,4.0,38,,,,,,,,,,,,,,,,,,,,,,,,,,,,,,,,
0.0,1.0,0.76078,0.0,19.0,19.0,19.0,1.0,kilt_18s.jpg,0.0,clock_5_3.png,4.0,38,,,,,,,,,,,,,,,,,,,,,,,,,,,,,,,,
1.0,1.0,1.146465,0.0,20.0,20.0,20.0,1.0,licorice_06s.jpg,1.0,clock_5_4.png,4.0,38,,,,,,,,,,,,,,,,,,,,,,,,,,,,,,,,
0.0,1.0,0.61612,0.0,21.0,21.0,21.0,1.0,screwdriver02a.jpg,0.0,clock_5_5.png,4.0,38,,,,,,,,,,,,,,,,,,,,,,,,,,,,,,,,
0.0,1.0,0.972245,0.0,22.0,22.0,22.0,1.0,punch2_09s.jpg,0.0,clock_7_1.png,5.0,38,,,,,,,,,,,,,,,,,,,,,,,,,,,,,,,,
0.0,1.0,1.413435,0.0,23.0,23.0,23.0,1.0,ram_05s.jpg,0.0,clock_7_2.png,5.0,38,,,,,,,,,,,,,,,,,,,,,,,,,,,,,,,,
0.0,1.0,0.535345,0.0,24.0,24.0,24.0,1.0,measuring_cup_02s.jpg,0.0,clock_7_3.png,5.0,38,,,,,,,,,,,,,,,,,,,,,,,,,,,,,,,,
0.0,1.0,0.496345,0.0,25.0,25.0,25.0,1.0,tripod_01b.jpg,0.0,clock_7_4.png,5.0,38,,,,,,,,,,,,,,,,,,,,,,,,,,,,,,,,
0.0,1.0,0.59224,0.0,26.0,26.0,26.0,1.0,thread_08s.jpg,0.0,clock_7_5.png,5.0,38,,,,,,,,,,,,,,,,,,,,,,,,,,,,,,,,
0.0,1.0,0.714875,0.0,27.0,27.0,27.0,1.0,piggy_bank_02s.jpg,0.0,clock_7_6.png,5.0,38,,,,,,,,,,,,,,,,,,,,,,,,,,,,,,,,
0.0,0.0,0.64016,0.0,28.0,28.0,28.0,1.0,thread_08s.jpg,1.0,clock_7_7.png,5.0,38,,,,,,,,,,,,,,,,,,,,,,,,,,,,,,,,
0.0,1.0,0.70492,0.0,29.0,29.0,29.0,1.0,pea_11s.jpg,0.0,clock_7_1.png,6.0,38,,,,,,,,,,,,,,,,,,,,,,,,,,,,,,,,
0.0,1.0,0.79406,0.0,30.0,30.0,30.0,1.0,jewel_01b.jpg,0.0,clock_7_2.png,6.0,38,,,,,,,,,,,,,,,,,,,,,,,,,,,,,,,,
0.0,1.0,0.75161,0.0,31.0,31.0,31.0,1.0,olive_05s.jpg,0.0,clock_7_3.png,6.0,38,,,,,,,,,,,,,,,,,,,,,,,,,,,,,,,,
0.0,1.0,0.719515,0.0,32.0,32.0,32.0,1.0,powder_07s.jpg,0.0,clock_7_4.png,6.0,38,,,,,,,,,,,,,,,,,,,,,,,,,,,,,,,,
0.0,1.0,0.616225,0.0,33.0,33.0,33.0,1.0,raspberry_12s.jpg,0.0,clock_7_5.png,6.0,38,,,,,,,,,,,,,,,,,,,,,,,,,,,,,,,,
0.0,1.0,0.611885,0.0,34.0,34.0,34.0,1.0,puffin_19s.jpg,0.0,clock_7_6.png,6.0,38,,,,,,,,,,,,,,,,,,,,,,,,,,,,,,,,
0.0,1.0,0.66623,0.0,35.0,35.0,35.0,1.0,sparkler_02s.jpg,0.0,clock_7_7.png,6.0,38,,,,,,,,,,,,,,,,,,,,,,,,,,,,,,,,
,,,,,,,,,0.0,,,38,0.0,1.0,1.975975,0.0,0.0,0.0,0.0,1.0,incense_02s.jpg,oil_02s.jpg,,,,,,,,,,,,,,,,,,,,,,
,,,,,,,,,0.0,,,38,1.0,0.0,2.482055,0.0,1.0,1.0,1.0,1.0,kilt_18s.jpg,buoy_04s.jpg,,,,,,,,,,,,,,,,,,,,,,
,,,,,,,,,0.0,,,38,0.0,1.0,1.649695,0.0,2.0,2.0,2.0,1.0,rhubarb_03s.jpg,chip_04s.jpg,,,,,,,,,,,,,,,,,,,,,,
,,,,,,,,,0.0,,,38,1.0,0.0,1.49395,0.0,3.0,3.0,3.0,1.0,powder_07s.jpg,pea_11s.jpg,,,,,,,,,,,,,,,,,,,,,,
,,,,,,,,,0.0,,,38,0.0,1.0,2.483865,0.0,4.0,4.0,4.0,1.0,puffin_19s.jpg,olive_05s.jpg,,,,,,,,,,,,,,,,,,,,,,
,,,,,,,,,0.0,,,38,1.0,0.0,2.35593,0.0,5.0,5.0,5.0,1.0,screwdriver02a.jpg,footprint_11s.jpg,,,,,,,,,,,,,,,,,,,,,,
,,,,,,,,,,,,38,,,,,,,,,,,0.0,1.0,1.0,1.0,1.0,clock_present_2_4.xlsx,clock_compare_task_2_4.xlsx,,,,,,,,,,,,,,,
0.0,1.0,0.96477,0.0,0.0,0.0,0.0,1.0,surfboard_11s.jpg,0.0,clock_7_1.png,1.0,38,,,,,,,,,,,,,,,,,,,,,,,,,,,,,,,,
0.0,0.0,0.85829,0.0,1.0,1.0,1.0,1.0,surfboard_11s.jpg,1.0,clock_7_2.png,1.0,38,,,,,,,,,,,,,,,,,,,,,,,,,,,,,,,,
1.0,1.0,0.92291,0.0,2.0,2.0,2.0,1.0,surfboard_11s.jpg,1.0,clock_7_3.png,1.0,38,,,,,,,,,,,,,,,,,,,,,,,,,,,,,,,,
0.0,1.0,0.6914,0.0,3.0,3.0,3.0,1.0,golf_club_03s.jpg,0.0,clock_7_4.png,1.0,38,,,,,,,,,,,,,,,,,,,,,,,,,,,,,,,,
0.0,1.0,1.51315,0.0,4.0,4.0,4.0,1.0,sugar_cube_11s.jpg,0.0,clock_7_5.png,1.0,38,,,,,,,,,,,,,,,,,,,,,,,,,,,,,,,,
0.0,1.0,0.545245,0.0,5.0,5.0,5.0,1.0,mailbox_11s.jpg,0.0,clock_7_6.png,1.0,38,,,,,,,,,,,,,,,,,,,,,,,,,,,,,,,,
0.0,1.0,0.83191,0.0,6.0,6.0,6.0,1.0,spatula04.jpg,0.0,clock_7_7.png,1.0,38,,,,,,,,,,,,,,,,,,,,,,,,,,,,,,,,
0.0,1.0,0.92348,0.0,7.0,7.0,7.0,1.0,umbrella_15s.jpg,0.0,clock_6_1.png,2.0,38,,,,,,,,,,,,,,,,,,,,,,,,,,,,,,,,
1.0,1.0,0.946135,0.0,8.0,8.0,8.0,1.0,umbrella_15s.jpg,1.0,clock_6_2.png,2.0,38,,,,,,,,,,,,,,,,,,,,,,,,,,,,,,,,
1.0,1.0,0.873265,0.0,9.0,9.0,9.0,1.0,umbrella_15s.jpg,1.0,clock_6_3.png,2.0,38,,,,,,,,,,,,,,,,,,,,,,,,,,,,,,,,
0.0,1.0,0.482615,0.0,10.0,10.0,10.0,1.0,inhaler_01b.jpg,0.0,clock_6_4.png,2.0,38,,,,,,,,,,,,,,,,,,,,,,,,,,,,,,,,
0.0,1.0,1.346875,0.0,11.0,11.0,11.0,1.0,surfboard_11s.jpg,0.0,clock_6_5.png,2.0,38,,,,,,,,,,,,,,,,,,,,,,,,,,,,,,,,
0.0,1.0,0.828315,0.0,12.0,12.0,12.0,1.0,timer_03s.jpg,0.0,clock_6_6.png,2.0,38,,,,,,,,,,,,,,,,,,,,,,,,,,,,,,,,
0.0,1.0,0.912175,0.0,13.0,13.0,13.0,1.0,eggshell_14s.jpg,0.0,clock_7_1.png,3.0,38,,,,,,,,,,,,,,,,,,,,,,,,,,,,,,,,
0.0,1.0,0.67755,0.0,14.0,14.0,14.0,1.0,omelet_07s.jpg,0.0,clock_7_2.png,3.0,38,,,,,,,,,,,,,,,,,,,,,,,,,,,,,,,,
0.0,1.0,0.9728,0.0,15.0,15.0,15.0,1.0,timer_03s.jpg,0.0,clock_7_3.png,3.0,38,,,,,,,,,,,,,,,,,,,,,,,,,,,,,,,,
1.0,1.0,1.247815,0.0,16.0,16.0,16.0,1.0,eggshell_14s.jpg,1.0,clock_7_4.png,3.0,38,,,,,,,,,,,,,,,,,,,,,,,,,,,,,,,,
0.0,1.0,0.629845,0.0,17.0,17.0,17.0,1.0,memory_stick_11s.jpg,0.0,clock_7_5.png,3.0,38,,,,,,,,,,,,,,,,,,,,,,,,,,,,,,,,
0.0,1.0,0.590795,0.0,18.0,18.0,18.0,1.0,milk_02s.jpg,0.0,clock_7_6.png,3.0,38,,,,,,,,,,,,,,,,,,,,,,,,,,,,,,,,
1.0,1.0,1.230455,0.0,19.0,19.0,19.0,1.0,eggshell_14s.jpg,1.0,clock_7_7.png,3.0,38,,,,,,,,,,,,,,,,,,,,,,,,,,,,,,,,
0.0,1.0,0.545175,0.0,20.0,20.0,20.0,1.0,diving_board_07s.jpg,0.0,clock_5_1.png,4.0,38,,,,,,,,,,,,,,,,,,,,,,,,,,,,,,,,
0.0,1.0,0.7053,0.0,21.0,21.0,21.0,1.0,ironing_board_07s.jpg,0.0,clock_5_2.png,4.0,38,,,,,,,,,,,,,,,,,,,,,,,,,,,,,,,,
0.0,1.0,0.47012,0.0,22.0,22.0,22.0,1.0,inhaler_01b.jpg,0.0,clock_5_3.png,4.0,38,,,,,,,,,,,,,,,,,,,,,,,,,,,,,,,,
0.0,1.0,0.588065,0.0,23.0,23.0,23.0,1.0,punch1_10s.jpg,0.0,clock_5_4.png,4.0,38,,,,,,,,,,,,,,,,,,,,,,,,,,,,,,,,
0.0,1.0,0.614315,0.0,24.0,24.0,24.0,1.0,quilt_03s.jpg,0.0,clock_5_5.png,4.0,38,,,,,,,,,,,,,,,,,,,,,,,,,,,,,,,,
0.0,1.0,0.70551,0.0,25.0,25.0,25.0,1.0,giraffe_11s.jpg,0.0,clock_6_1.png,5.0,38,,,,,,,,,,,,,,,,,,,,,,,,,,,,,,,,
0.0,1.0,0.62848,0.0,26.0,26.0,26.0,1.0,dirt_bike_11s.jpg,0.0,clock_6_2.png,5.0,38,,,,,,,,,,,,,,,,,,,,,,,,,,,,,,,,
0.0,1.0,0.759315,0.0,27.0,27.0,27.0,1.0,go-kart_10s.jpg,0.0,clock_6_3.png,5.0,38,,,,,,,,,,,,,,,,,,,,,,,,,,,,,,,,
0.0,1.0,0.78401,0.0,28.0,28.0,28.0,1.0,squirt_gun_03s.jpg,0.0,clock_6_4.png,5.0,38,,,,,,,,,,,,,,,,,,,,,,,,,,,,,,,,
0.0,1.0,0.604925,0.0,29.0,29.0,29.0,1.0,lifesaver_10s.jpg,0.0,clock_6_5.png,5.0,38,,,,,,,,,,,,,,,,,,,,,,,,,,,,,,,,
1.0,1.0,1.149,0.0,30.0,30.0,30.0,1.0,lifesaver_10s.jpg,1.0,clock_6_6.png,5.0,38,,,,,,,,,,,,,,,,,,,,,,,,,,,,,,,,
0.0,1.0,0.69291,0.0,31.0,31.0,31.0,1.0,thermostat_02s.jpg,0.0,clock_5_1.png,6.0,38,,,,,,,,,,,,,,,,,,,,,,,,,,,,,,,,
1.0,1.0,1.29452,0.0,32.0,32.0,32.0,1.0,thermostat_02s.jpg,1.0,clock_5_2.png,6.0,38,,,,,,,,,,,,,,,,,,,,,,,,,,,,,,,,
0.0,1.0,0.67851,0.0,33.0,33.0,33.0,1.0,outlet_10s.jpg,0.0,clock_5_3.png,6.0,38,,,,,,,,,,,,,,,,,,,,,,,,,,,,,,,,
1.0,1.0,0.732735,0.0,34.0,34.0,34.0,1.0,outlet_10s.jpg,1.0,clock_5_4.png,6.0,38,,,,,,,,,,,,,,,,,,,,,,,,,,,,,,,,
0.0,1.0,0.56501,0.0,35.0,35.0,35.0,1.0,mousetrap_15n.jpg,0.0,clock_5_5.png,6.0,38,,,,,,,,,,,,,,,,,,,,,,,,,,,,,,,,
,,,,,,,,,0.0,,,38,0.0,1.0,1.420895,0.0,0.0,0.0,0.0,1.0,ironing_board_07s.jpg,milk_02s.jpg,,,,,,,,,,,,,,,,,,,,,,
,,,,,,,,,0.0,,,38,1.0,0.0,1.715645,0.0,1.0,1.0,1.0,1.0,dirt_bike_11s.jpg,punch1_10s.jpg,,,,,,,,,,,,,,,,,,,,,,
,,,,,,,,,0.0,,,38,0.0,1.0,1.885045,0.0,2.0,2.0,2.0,1.0,go-kart_10s.jpg,quilt_03s.jpg,,,,,,,,,,,,,,,,,,,,,,
,,,,,,,,,1.0,,,38,1.0,1.0,2.095235,0.0,3.0,3.0,3.0,1.0,golf_club_03s.jpg,spatula04.jpg,,,,,,,,,,,,,,,,,,,,,,
,,,,,,,,,1.0,,,38,1.0,1.0,2.228215,0.0,4.0,4.0,4.0,1.0,giraffe_11s.jpg,squirt_gun_03s.jpg,,,,,,,,,,,,,,,,,,,,,,
,,,,,,,,,1.0,,,38,1.0,1.0,1.54966,0.0,5.0,5.0,5.0,1.0,omelet_07s.jpg,memory_stick_11s.jpg,,,,,,,,,,,,,,,,,,,,,,
,,,,,,,,,,,,38,,,,,,,,,,,0.0,2.0,2.0,2.0,1.0,clock_present_3_4.xlsx,clock_compare_task_3_4.xlsx,,,,,,,,,,,,,,,
0.0,1.0,0.59202,0.0,0.0,0.0,0.0,1.0,cape_11s.jpg,0.0,clock_5_1.png,1.0,38,,,,,,,,,,,,,,,,,,,,,,,,,,,,,,,,
1.0,1.0,1.07996,0.0,1.0,1.0,1.0,1.0,cape_11s.jpg,1.0,clock_5_2.png,1.0,38,,,,,,,,,,,,,,,,,,,,,,,,,,,,,,,,
1.0,1.0,0.842465,0.0,2.0,2.0,2.0,1.0,cape_11s.jpg,1.0,clock_5_3.png,1.0,38,,,,,,,,,,,,,,,,,,,,,,,,,,,,,,,,
0.0,1.0,0.612105,0.0,3.0,3.0,3.0,1.0,petri_dish_12s.jpg,0.0,clock_5_4.png,1.0,38,,,,,,,,,,,,,,,,,,,,,,,,,,,,,,,,
0.0,1.0,0.669295,0.0,4.0,4.0,4.0,1.0,quill_09s.jpg,0.0,clock_5_5.png,1.0,38,,,,,,,,,,,,,,,,,,,,,,,,,,,,,,,,
0.0,1.0,0.65887,0.0,5.0,5.0,5.0,1.0,pencil_sharpener_09n.jpg,0.0,clock_7_1.png,2.0,38,,,,,,,,,,,,,,,,,,,,,,,,,,,,,,,,
0.0,1.0,0.49041,0.0,6.0,6.0,6.0,1.0,top_hat_11s.jpg,0.0,clock_7_2.png,2.0,38,,,,,,,,,,,,,,,,,,,,,,,,,,,,,,,,
1.0,0.0,1.349915,0.0,7.0,7.0,7.0,1.0,quill_09s.jpg,0.0,clock_7_3.png,2.0,38,,,,,,,,,,,,,,,,,,,,,,,,,,,,,,,,
0.0,1.0,0.638205,0.0,8.0,8.0,8.0,1.0,pancake_12s.jpg,0.0,clock_7_4.png,2.0,38,,,,,,,,,,,,,,,,,,,,,,,,,,,,,,,,
0.0,1.0,0.598425,0.0,9.0,9.0,9.0,1.0,rhinoceros_02s.jpg,0.0,clock_7_5.png,2.0,38,,,,,,,,,,,,,,,,,,,,,,,,,,,,,,,,
0.0,1.0,0.58612,0.0,10.0,10.0,10.0,1.0,potholder_02s.jpg,0.0,clock_7_6.png,2.0,38,,,,,,,,,,,,,,,,,,,,,,,,,,,,,,,,
0.0,1.0,0.57664,0.0,11.0,11.0,11.0,1.0,toy_04s.jpg,0.0,clock_7_7.png,2.0,38,,,,,,,,,,,,,,,,,,,,,,,,,,,,,,,,
0.0,1.0,0.798865,0.0,12.0,12.0,12.0,1.0,tambourine_06s.jpg,0.0,clock_7_1.png,3.0,38,,,,,,,,,,,,,,,,,,,,,,,,,,,,,,,,
0.0,1.0,0.496,0.0,13.0,13.0,13.0,1.0,flask_04s.jpg,0.0,clock_7_2.png,3.0,38,,,,,,,,,,,,,,,,,,,,,,,,,,,,,,,,
0.0,1.0,0.69206,0.0,14.0,14.0,14.0,1.0,kitten_07s.jpg,0.0,clock_7_3.png,3.0,38,,,,,,,,,,,,,,,,,,,,,,,,,,,,,,,,
0.0,1.0,0.84131,0.0,15.0,15.0,15.0,1.0,breadstick_08s.jpg,0.0,clock_7_4.png,3.0,38,,,,,,,,,,,,,,,,,,,,,,,,,,,,,,,,
0.0,0.0,0.611985,0.0,16.0,16.0,16.0,1.0,flask_04s.jpg,1.0,clock_7_5.png,3.0,38,,,,,,,,,,,,,,,,,,,,,,,,,,,,,,,,
0.0,1.0,0.759815,0.0,17.0,17.0,17.0,1.0,antenna_01b.jpg,0.0,clock_7_6.png,3.0,38,,,,,,,,,,,,,,,,,,,,,,,,,,,,,,,,
0.0,1.0,1.052895,0.0,18.0,18.0,18.0,1.0,quill_09s.jpg,0.0,clock_7_7.png,3.0,38,,,,,,,,,,,,,,,,,,,,,,,,,,,,,,,,
0.0,1.0,0.85138,0.0,19.0,19.0,19.0,1.0,rosary_03s.jpg,0.0,clock_6_1.png,4.0,38,,,,,,,,,,,,,,,,,,,,,,,,,,,,,,,,
0.0,1.0,0.67975,0.0,20.0,20.0,20.0,1.0,tube_top_03s.jpg,0.0,clock_6_2.png,4.0,38,,,,,,,,,,,,,,,,,,,,,,,,,,,,,,,,
1.0,0.0,1.867475,0.0,21.0,21.0,21.0,1.0,flask_04s.jpg,0.0,clock_6_3.png,4.0,38,,,,,,,,,,,,,,,,,,,,,,,,,,,,,,,,
0.0,1.0,0.665145,0.0,22.0,22.0,22.0,1.0,bathtub_23s.jpg,0.0,clock_6_4.png,4.0,38,,,,,,,,,,,,,,,,,,,,,,,,,,,,,,,,
0.0,1.0,0.91155,0.0,23.0,23.0,23.0,1.0,amber_04s.jpg,0.0,clock_6_5.png,4.0,38,,,,,,,,,,,,,,,,,,,,,,,,,,,,,,,,
1.0,1.0,1.36121,0.0,24.0,24.0,24.0,1.0,tube_top_03s.jpg,1.0,clock_6_6.png,4.0,38,,,,,,,,,,,,,,,,,,,,,,,,,,,,,,,,
0.0,1.0,0.54491,0.0,25.0,25.0,25.0,1.0,blowfish_03s.jpg,0.0,clock_6_1.png,5.0,38,,,,,,,,,,,,,,,,,,,,,,,,,,,,,,,,
0.0,1.0,0.57199,0.0,26.0,26.0,26.0,1.0,magnet_03s.jpg,0.0,clock_6_2.png,5.0,38,,,,,,,,,,,,,,,,,,,,,,,,,,,,,,,,
0.0,1.0,0.30634,0.0,27.0,27.0,27.0,1.0,flask_04s.jpg,0.0,clock_6_3.png,5.0,38,,,,,,,,,,,,,,,,,,,,,,,,,,,,,,,,
0.0,1.0,0.654335,0.0,28.0,28.0,28.0,1.0,crab_16s.jpg,0.0,clock_6_4.png,5.0,38,,,,,,,,,,,,,,,,,,,,,,,,,,,,,,,,
0.0,1.0,0.680045,0.0,29.0,29.0,29.0,1.0,lid_10s.jpg,0.0,clock_6_5.png,5.0,38,,,,,,,,,,,,,,,,,,,,,,,,,,,,,,,,
0.0,1.0,0.451965,0.0,30.0,30.0,30.0,1.0,margarita_03s.jpg,0.0,clock_6_6.png,5.0,38,,,,,,,,,,,,,,,,,,,,,,,,,,,,,,,,
0.0,1.0,0.57202,0.0,31.0,31.0,31.0,1.0,mask_09s.jpg,0.0,clock_5_1.png,6.0,38,,,,,,,,,,,,,,,,,,,,,,,,,,,,,,,,
0.0,1.0,0.791635,0.0,32.0,32.0,32.0,1.0,toilet_paper_12s.jpg,0.0,clock_5_2.png,6.0,38,,,,,,,,,,,,,,,,,,,,,,,,,,,,,,,,
0.0,1.0,0.981885,0.0,33.0,33.0,33.0,1.0,tiger_06s.jpg,0.0,clock_5_3.png,6.0,38,,,,,,,,,,,,,,,,,,,,,,,,,,,,,,,,
0.0,1.0,0.840375,0.0,34.0,34.0,34.0,1.0,antenna_01b.jpg,0.0,clock_5_4.png,6.0,38,,,,,,,,,,,,,,,,,,,,,,,,,,,,,,,,
0.0,1.0,0.63845,0.0,35.0,35.0,35.0,1.0,stingray_02s.jpg,0.0,clock_5_5.png,6.0,38,,,,,,,,,,,,,,,,,,,,,,,,,,,,,,,,
,,,,,,,,,1.0,,,38,0.0,0.0,1.619825,0.0,0.0,0.0,0.0,1.0,margarita_03s.jpg,tiger_06s.jpg,,,,,,,,,,,,,,,,,,,,,,
,,,,,,,,,0.0,,,38,1.0,0.0,1.93865,0.0,1.0,1.0,1.0,1.0,top_hat_11s.jpg,petri_dish_12s.jpg,,,,,,,,,,,,,,,,,,,,,,
,,,,,,,,,0.0,,,38,0.0,1.0,1.45735,0.0,2.0,2.0,2.0,1.0,kitten_07s.jpg,toy_04s.jpg,,,,,,,,,,,,,,,,,,,,,,
,,,,,,,,,0.0,,,38,1.0,0.0,1.681465,0.0,3.0,3.0,3.0,1.0,pancake_12s.jpg,pencil_sharpener_09n.jpg,,,,,,,,,,,,,,,,,,,,,,
,,,,,,,,,1.0,,,38,0.0,0.0,1.5877,0.0,4.0,4.0,4.0,1.0,tambourine_06s.jpg,breadstick_08s.jpg,,,,,,,,,,,,,,,,,,,,,,
,,,,,,,,,0.0,,,38,0.0,1.0,1.44921,0.0,5.0,5.0,5.0,1.0,bathtub_23s.jpg,rosary_03s.jpg,,,,,,,,,,,,,,,,,,,,,,
,,,,,,,,,,,,38,,,,,,,,,,,0.0,3.0,3.0,3.0,1.0,clock_present_4_4.xlsx,clock_compare_task_4_4.xlsx,,,,,,,,,,,,,,,
0.0,1.0,1.33347,0.0,0.0,0.0,0.0,1.0,keyhole_03s.jpg,0.0,clock_6_1.png,1.0,38,,,,,,,,,,,,,,,,,,,,,,,,,,,,,,,,
0.0,1.0,1.228845,0.0,1.0,1.0,1.0,1.0,squirrel_02s.jpg,0.0,clock_6_2.png,1.0,38,,,,,,,,,,,,,,,,,,,,,,,,,,,,,,,,
0.0,1.0,1.058835,0.0,2.0,2.0,2.0,1.0,lamb_chop_07s.jpg,0.0,clock_6_3.png,1.0,38,,,,,,,,,,,,,,,,,,,,,,,,,,,,,,,,
0.0,1.0,0.762765,0.0,3.0,3.0,3.0,1.0,power_line_08s.jpg,0.0,clock_6_4.png,1.0,38,,,,,,,,,,,,,,,,,,,,,,,,,,,,,,,,
0.0,1.0,0.669705,0.0,4.0,4.0,4.0,1.0,fire_pit_10s.jpg,0.0,clock_6_5.png,1.0,38,,,,,,,,,,,,,,,,,,,,,,,,,,,,,,,,
0.0,1.0,1.01232,0.0,5.0,5.0,5.0,1.0,rolling_pin_02s.jpg,0.0,clock_6_6.png,1.0,38,,,,,,,,,,,,,,,,,,,,,,,,,,,,,,,,
0.0,1.0,0.77893,0.0,6.0,6.0,6.0,1.0,mitten_10s.jpg,0.0,clock_7_1.png,2.0,38,,,,,,,,,,,,,,,,,,,,,,,,,,,,,,,,
0.0,1.0,0.518355,0.0,7.0,7.0,7.0,1.0,juicer1_08s.jpg,0.0,clock_7_2.png,2.0,38,,,,,,,,,,,,,,,,,,,,,,,,,,,,,,,,
0.0,1.0,0.898855,0.0,8.0,8.0,8.0,1.0,peach_04s.jpg,0.0,clock_7_3.png,2.0,38,,,,,,,,,,,,,,,,,,,,,,,,,,,,,,,,
0.0,1.0,0.437995,0.0,9.0,9.0,9.0,1.0,plunger_08s.jpg,0.0,clock_7_4.png,2.0,38,,,,,,,,,,,,,,,,,,,,,,,,,,,,,,,,
0.0,1.0,0.56264,0.0,10.0,10.0,10.0,1.0,bolo_tie_08s.jpg,0.0,clock_7_5.png,2.0,38,,,,,,,,,,,,,,,,,,,,,,,,,,,,,,,,
0.0,1.0,0.68323,0.0,11.0,11.0,11.0,1.0,knot_01b.jpg,0.0,clock_7_6.png,2.0,38,,,,,,,,,,,,,,,,,,,,,,,,,,,,,,,,
0.0,1.0,0.45152,0.0,12.0,12.0,12.0,1.0,tulip_02s.jpg,0.0,clock_7_7.png,2.0,38,,,,,,,,,,,,,,,,,,,,,,,,,,,,,,,,
0.0,1.0,0.674395,0.0,13.0,13.0,13.0,1.0,fireworks_18s.jpg,0.0,clock_7_1.png,3.0,38,,,,,,,,,,,,,,,,,,,,,,,,,,,,,,,,
0.0,1.0,0.47886,0.0,14.0,14.0,14.0,1.0,fire_pit_10s.jpg,0.0,clock_7_2.png,3.0,38,,,,,,,,,,,,,,,,,,,,,,,,,,,,,,,,
0.0,1.0,0.40208,0.0,15.0,15.0,15.0,1.0,crystal_ball_12s.jpg,0.0,clock_7_3.png,3.0,38,,,,,,,,,,,,,,,,,,,,,,,,,,,,,,,,
0.0,1.0,0.457235,0.0,16.0,16.0,16.0,1.0,teabag_12s.jpg,0.0,clock_7_4.png,3.0,38,,,,,,,,,,,,,,,,,,,,,,,,,,,,,,,,
0.0,1.0,0.48306,0.0,17.0,17.0,17.0,1.0,popcorn_09s.jpg,0.0,clock_7_5.png,3.0,38,,,,,,,,,,,,,,,,,,,,,,,,,,,,,,,,
0.0,1.0,0.6022,0.0,18.0,18.0,18.0,1.0,swan_11s.jpg,0.0,clock_7_6.png,3.0,38,,,,,,,,,,,,,,,,,,,,,,,,,,,,,,,,
0.0,1.0,0.66832,0.0,19.0,19.0,19.0,1.0,chocolate_01b.jpg,0.0,clock_7_7.png,3.0,38,,,,,,,,,,,,,,,,,,,,,,,,,,,,,,,,
0.0,1.0,0.59371,0.0,20.0,20.0,20.0,1.0,tortilla_06s.jpg,0.0,clock_5_1.png,4.0,38,,,,,,,,,,,,,,,,,,,,,,,,,,,,,,,,
1.0,1.0,0.652535,0.0,21.0,21.0,21.0,1.0,tortilla_06s.jpg,1.0,clock_5_2.png,4.0,38,,,,,,,,,,,,,,,,,,,,,,,,,,,,,,,,
0.0,1.0,1.066825,0.0,22.0,22.0,22.0,1.0,rice_12s.jpg,0.0,clock_5_3.png,4.0,38,,,,,,,,,,,,,,,,,,,,,,,,,,,,,,,,
1.0,1.0,1.21786,0.0,23.0,23.0,23.0,1.0,tortilla_06s.jpg,1.0,clock_5_4.png,4.0,38,,,,,,,,,,,,,,,,,,,,,,,,,,,,,,,,
0.0,0.0,1.27452,0.0,24.0,24.0,24.0,1.0,rice_12s.jpg,1.0,clock_5_5.png,4.0,38,,,,,,,,,,,,,,,,,,,,,,,,,,,,,,,,
0.0,1.0,0.75275,0.0,25.0,25.0,25.0,1.0,ice-cream_cone_06s.jpg,0.0,clock_5_1.png,5.0,38,,,,,,,,,,,,,,,,,,,,,,,,,,,,,,,,
0.0,1.0,0.87308,0.0,26.0,26.0,26.0,1.0,microwave_02s.jpg,0.0,clock_5_2.png,5.0,38,,,,,,,,,,,,,,,,,,,,,,,,,,,,,,,,
0.0,1.0,0.514085,0.0,27.0,27.0,27.0,1.0,ruby_15s.jpg,0.0,clock_5_3.png,5.0,38,,,,,,,,,,,,,,,,,,,,,,,,,,,,,,,,
0.0,1.0,0.61166,0.0,28.0,28.0,28.0,1.0,trampoline_13s.jpg,0.0,clock_5_4.png,5.0,38,,,,,,,,,,,,,,,,,,,,,,,,,,,,,,,,
0.0,1.0,0.60308,0.0,29.0,29.0,29.0,1.0,cereal_04s.jpg,0.0,clock_5_5.png,5.0,38,,,,,,,,,,,,,,,,,,,,,,,,,,,,,,,,
0.0,1.0,0.692015,0.0,30.0,30.0,30.0,1.0,lamb_04s.jpg,0.0,clock_6_1.png,6.0,38,,,,,,,,,,,,,,,,,,,,,,,,,,,,,,,,
0.0,1.0,0.68296,0.0,31.0,31.0,31.0,1.0,quesadilla_07s.jpg,0.0,clock_6_2.png,6.0,38,,,,,,,,,,,,,,,,,,,,,,,,,,,,,,,,
0.0,1.0,0.642475,0.0,32.0,32.0,32.0,1.0,gas_mask_11s.jpg,0.0,clock_6_3.png,6.0,38,,,,,,,,,,,,,,,,,,,,,,,,,,,,,,,,
0.0,1.0,0.61195,0.0,33.0,33.0,33.0,1.0,taxi_15s.jpg,0.0,clock_6_4.png,6.0,38,,,,,,,,,,,,,,,,,,,,,,,,,,,,,,,,
0.0,1.0,0.633385,0.0,34.0,34.0,34.0,1.0,safety_pin_02s.jpg,0.0,clock_6_5.png,6.0,38,,,,,,,,,,,,,,,,,,,,,,,,,,,,,,,,
0.0,1.0,1.041765,0.0,35.0,35.0,35.0,1.0,mold2_04s.jpg,0.0,clock_6_6.png,6.0,38,,,,,,,,,,,,,,,,,,,,,,,,,,,,,,,,
,,,,,,,,,1.0,,,38,1.0,1.0,1.775005,0.0,0.0,0.0,0.0,1.0,ruby_15s.jpg,lamb_04s.jpg,,,,,,,,,,,,,,,,,,,,,,
,,,,,,,,,1.0,,,38,1.0,1.0,3.60843,0.0,1.0,1.0,1.0,1.0,power_line_08s.jpg,mitten_10s.jpg,,,,,,,,,,,,,,,,,,,,,,
,,,,,,,,,1.0,,,38,1.0,1.0,2.75263,0.0,2.0,2.0,2.0,1.0,rolling_pin_02s.jpg,peach_04s.jpg,,,,,,,,,,,,,,,,,,,,,,
,,,,,,,,,1.0,,,38,0.0,0.0,3.80302,0.0,3.0,3.0,3.0,1.0,teabag_12s.jpg,chocolate_01b.jpg,,,,,,,,,,,,,,,,,,,,,,
,,,,,,,,,1.0,,,38,0.0,0.0,1.90742,0.0,4.0,4.0,4.0,1.0,juicer1_08s.jpg,bolo_tie_08s.jpg,,,,,,,,,,,,,,,,,,,,,,
,,,,,,,,,1.0,,,38,1.0,1.0,2.32164,0.0,5.0,5.0,5.0,1.0,plunger_08s.jpg,tulip_02s.jpg,,,,,,,,,,,,,,,,,,,,,,
,,,,,,,,,,,,38,,,,,,,,,,,0.0,4.0,4.0,4.0,1.0,clock_present_5_4.xlsx,clock_compare_task_5_4.xlsx,,,,,,,,,,,,,,,
0.0,1.0,0.779355,0.0,0.0,0.0,0.0,1.0,tiara_05s.jpg,0.0,clock_5_1.png,1.0,38,,,,,,,,,,,,,,,,,,,,,,,,,,,,,,,,
1.0,1.0,1.857245,0.0,1.0,1.0,1.0,1.0,tiara_05s.jpg,1.0,clock_5_2.png,1.0,38,,,,,,,,,,,,,,,,,,,,,,,,,,,,,,,,
1.0,1.0,0.88731,0.0,2.0,2.0,2.0,1.0,tiara_05s.jpg,1.0,clock_5_3.png,1.0,38,,,,,,,,,,,,,,,,,,,,,,,,,,,,,,,,
0.0,1.0,0.526795,0.0,3.0,3.0,3.0,1.0,telephone_pole_05s.jpg,0.0,clock_5_4.png,1.0,38,,,,,,,,,,,,,,,,,,,,,,,,,,,,,,,,
1.0,1.0,1.07199,0.0,4.0,4.0,4.0,1.0,tiara_05s.jpg,1.0,clock_5_5.png,1.0,38,,,,,,,,,,,,,,,,,,,,,,,,,,,,,,,,
0.0,1.0,0.77571,0.0,5.0,5.0,5.0,1.0,jersey_02s.jpg,0.0,clock_6_1.png,2.0,38,,,,,,,,,,,,,,,,,,,,,,,,,,,,,,,,
0.0,1.0,1.087225,0.0,6.0,6.0,6.0,1.0,telephone_pole_05s.jpg,0.0,clock_6_2.png,2.0,38,,,,,,,,,,,,,,,,,,,,,,,,,,,,,,,,
0.0,1.0,0.665605,0.0,7.0,7.0,7.0,1.0,rocking_chair_05s.jpg,0.0,clock_6_3.png,2.0,38,,,,,,,,,,,,,,,,,,,,,,,,,,,,,,,,
1.0,1.0,0.85586,0.0,8.0,8.0,8.0,1.0,rocking_chair_05s.jpg,1.0,clock_6_4.png,2.0,38,,,,,,,,,,,,,,,,,,,,,,,,,,,,,,,,
0.0,1.0,0.72124,0.0,9.0,9.0,9.0,1.0,mussel_11s.jpg,0.0,clock_6_5.png,2.0,38,,,,,,,,,,,,,,,,,,,,,,,,,,,,,,,,
0.0,1.0,0.58542,0.0,10.0,10.0,10.0,1.0,comic_book_02s.jpg,0.0,clock_6_6.png,2.0,38,,,,,,,,,,,,,,,,,,,,,,,,,,,,,,,,
0.0,1.0,0.70536,0.0,11.0,11.0,11.0,1.0,bonsai_07s.jpg,0.0,clock_7_1.png,3.0,38,,,,,,,,,,,,,,,,,,,,,,,,,,,,,,,,
0.0,1.0,0.6652,0.0,12.0,12.0,12.0,1.0,teacup_07s.jpg,0.0,clock_7_2.png,3.0,38,,,,,,,,,,,,,,,,,,,,,,,,,,,,,,,,
0.0,1.0,0.655765,0.0,13.0,13.0,13.0,1.0,chime_12s.jpg,0.0,clock_7_3.png,3.0,38,,,,,,,,,,,,,,,,,,,,,,,,,,,,,,,,
0.0,1.0,0.585055,0.0,14.0,14.0,14.0,1.0,beaker_01b.jpg,0.0,clock_7_4.png,3.0,38,,,,,,,,,,,,,,,,,,,,,,,,,,,,,,,,
0.0,1.0,0.681375,0.0,15.0,15.0,15.0,1.0,harpoon.jpg,0.0,clock_7_5.png,3.0,38,,,,,,,,,,,,,,,,,,,,,,,,,,,,,,,,
0.0,1.0,0.50936,0.0,16.0,16.0,16.0,1.0,swimming_pool_17s.jpg,0.0,clock_7_6.png,3.0,38,,,,,,,,,,,,,,,,,,,,,,,,,,,,,,,,
1.0,0.0,1.60217,0.0,17.0,17.0,17.0,1.0,comic_book_02s.jpg,0.0,clock_7_7.png,3.0,38,,,,,,,,,,,,,,,,,,,,,,,,,,,,,,,,
0.0,1.0,0.68553,0.0,18.0,18.0,18.0,1.0,jetski_10s.jpg,0.0,clock_6_1.png,4.0,38,,,,,,,,,,,,,,,,,,,,,,,,,,,,,,,,
0.0,1.0,0.517685,0.0,19.0,19.0,19.0,1.0,cardinal_07s.jpg,0.0,clock_6_2.png,4.0,38,,,,,,,,,,,,,,,,,,,,,,,,,,,,,,,,
0.0,1.0,0.350605,0.0,20.0,20.0,20.0,1.0,leotard_08s.jpg,0.0,clock_6_3.png,4.0,38,,,,,,,,,,,,,,,,,,,,,,,,,,,,,,,,
0.0,1.0,0.41416,0.0,21.0,21.0,21.0,1.0,plug_08s.jpg,0.0,clock_6_4.png,4.0,38,,,,,,,,,,,,,,,,,,,,,,,,,,,,,,,,
0.0,1.0,0.601265,0.0,22.0,22.0,22.0,1.0,tab_09s.jpg,0.0,clock_6_5.png,4.0,38,,,,,,,,,,,,,,,,,,,,,,,,,,,,,,,,
0.0,1.0,0.624915,0.0,23.0,23.0,23.0,1.0,tuxedo_01b.jpg,0.0,clock_6_6.png,4.0,38,,,,,,,,,,,,,,,,,,,,,,,,,,,,,,,,
0.0,1.0,0.97562,0.0,24.0,24.0,24.0,1.0,beard_16s.jpg,0.0,clock_5_1.png,5.0,38,,,,,,,,,,,,,,,,,,,,,,,,,,,,,,,,
0.0,1.0,0.71165,0.0,25.0,25.0,25.0,1.0,leotard_08s.jpg,0.0,clock_5_2.png,5.0,38,,,,,,,,,,,,,,,,,,,,,,,,,,,,,,,,
0.0,1.0,0.70526,0.0,26.0,26.0,26.0,1.0,coconut_08s.jpg,0.0,clock_5_3.png,5.0,38,,,,,,,,,,,,,,,,,,,,,,,,,,,,,,,,
0.0,1.0,0.82535,0.0,27.0,27.0,27.0,1.0,hummingbird_05s.jpg,0.0,clock_5_4.png,5.0,38,,,,,,,,,,,,,,,,,,,,,,,,,,,,,,,,
0.0,1.0,0.781495,0.0,28.0,28.0,28.0,1.0,latte_06s.jpg,0.0,clock_5_5.png,5.0,38,,,,,,,,,,,,,,,,,,,,,,,,,,,,,,,,
0.0,1.0,0.80478,0.0,29.0,29.0,29.0,1.0,purse_05s.jpg,0.0,clock_7_1.png,6.0,38,,,,,,,,,,,,,,,,,,,,,,,,,,,,,,,,
0.0,1.0,0.48136,0.0,30.0,30.0,30.0,1.0,stamp1_11s.jpg,0.0,clock_7_2.png,6.0,38,,,,,,,,,,,,,,,,,,,,,,,,,,,,,,,,
0.0,1.0,0.478565,0.0,31.0,31.0,31.0,1.0,dashboard_02s.jpg,0.0,clock_7_3.png,6.0,38,,,,,,,,,,,,,,,,,,,,,,,,,,,,,,,,
1.0,1.0,1.04595,0.0,32.0,32.0,32.0,1.0,dashboard_02s.jpg,1.0,clock_7_4.png,6.0,38,,,,,,,,,,,,,,,,,,,,,,,,,,,,,,,,
0.0,1.0,0.588885,0.0,33.0,33.0,33.0,1.0,fossil_06s.jpg,0.0,clock_7_5.png,6.0,38,,,,,,,,,,,,,,,,,,,,,,,,,,,,,,,,
0.0,1.0,0.614015,0.0,34.0,34.0,34.0,1.0,police_car_01s.jpg,0.0,clock_7_6.png,6.0,38,,,,,,,,,,,,,,,,,,,,,,,,,,,,,,,,
0.0,1.0,0.745195,0.0,35.0,35.0,35.0,1.0,bowler_hat_10s.jpg,0.0,clock_7_7.png,6.0,38,,,,,,,,,,,,,,,,,,,,,,,,,,,,,,,,
,,,,,,,,,0.0,,,38,1.0,0.0,1.877975,0.0,0.0,0.0,0.0,1.0,coconut_08s.jpg,tuxedo_01b.jpg,,,,,,,,,,,,,,,,,,,,,,
,,,,,,,,,1.0,,,38,1.0,1.0,2.259255,0.0,1.0,1.0,1.0,1.0,mussel_11s.jpg,teacup_07s.jpg,,,,,,,,,,,,,,,,,,,,,,
,,,,,,,,,0.0,,,38,1.0,0.0,1.35994,0.0,2.0,2.0,2.0,1.0,jetski_10s.jpg,harpoon.jpg,,,,,,,,,,,,,,,,,,,,,,
,,,,,,,,,1.0,,,38,1.0,1.0,1.49407,0.0,3.0,3.0,3.0,1.0,bonsai_07s.jpg,beaker_01b.jpg,,,,,,,,,,,,,,,,,,,,,,
,,,,,,,,,0.0,,,38,1.0,0.0,1.898055,0.0,4.0,4.0,4.0,1.0,swimming_pool_17s.jpg,chime_12s.jpg,,,,,,,,,,,,,,,,,,,,,,
,,,,,,,,,0.0,,,38,1.0,0.0,1.267065,0.0,5.0,5.0,5.0,1.0,tab_09s.jpg,cardinal_07s.jpg,,,,,,,,,,,,,,,,,,,,,,
0.0,1.0,1.07087,,,,,,padlock_07s.jpg,0.0,clockno_up.jpg,1.0,38,,,,,,,,,,,,,,,,,,0.0,0.0,0.0,0.0,1.0,,,,,,,,,,
0.0,1.0,1.19799,,,,,,boar_10s.jpg,0.0,clockno_default.jpg,1.0,38,,,,,,,,,,,,,,,,,,0.0,1.0,1.0,1.0,1.0,,,,,,,,,,
0.0,1.0,0.584615,,,,,,rollerskate_03s.jpg,0.0,clockno_default.jpg,1.0,38,,,,,,,,,,,,,,,,,,0.0,2.0,2.0,2.0,1.0,,,,,,,,,,
0.0,1.0,0.829265,,,,,,lip_gloss_06s.jpg,0.0,clockno_default.jpg,1.0,38,,,,,,,,,,,,,,,,,,0.0,3.0,3.0,3.0,1.0,,,,,,,,,,
0.0,1.0,0.82471,,,,,,funnel_01b.jpg,0.0,clockno_default.jpg,1.0,38,,,,,,,,,,,,,,,,,,0.0,4.0,4.0,4.0,1.0,,,,,,,,,,
0.0,1.0,0.74876,,,,,,solar_panel_02s.jpg,0.0,clockno_default.jpg,1.0,38,,,,,,,,,,,,,,,,,,0.0,5.0,5.0,5.0,1.0,,,,,,,,,,
0.0,1.0,1.005095,,,,,,rope_16s.jpg,0.0,clockno_up.jpg,2.0,38,,,,,,,,,,,,,,,,,,0.0,6.0,6.0,6.0,1.0,,,,,,,,,,
0.0,1.0,0.614045,,,,,,pie_08s.jpg,0.0,clockno_default.jpg,2.0,38,,,,,,,,,,,,,,,,,,0.0,7.0,7.0,7.0,1.0,,,,,,,,,,
0.0,1.0,0.638755,,,,,,checkbook_11s.jpg,0.0,clockno_default.jpg,2.0,38,,,,,,,,,,,,,,,,,,0.0,8.0,8.0,8.0,1.0,,,,,,,,,,
0.0,1.0,0.56506,,,,,,tablet_04s.jpg,0.0,clockno_default.jpg,2.0,38,,,,,,,,,,,,,,,,,,0.0,9.0,9.0,9.0,1.0,,,,,,,,,,
0.0,1.0,0.61992,,,,,,quad_04s.jpg,0.0,clockno_default.jpg,2.0,38,,,,,,,,,,,,,,,,,,0.0,10.0,10.0,10.0,1.0,,,,,,,,,,
0.0,0.0,0.421175,,,,,,quad_04s.jpg,1.0,clockno_default.jpg,2.0,38,,,,,,,,,,,,,,,,,,0.0,11.0,11.0,11.0,1.0,,,,,,,,,,
0.0,1.0,0.480455,,,,,,light_switch_02s.jpg,0.0,clockno_default.jpg,2.0,38,,,,,,,,,,,,,,,,,,0.0,12.0,12.0,12.0,1.0,,,,,,,,,,
0.0,1.0,0.499985,,,,,,cotton_candy_01b.jpg,0.0,clockno_up.jpg,3.0,38,,,,,,,,,,,,,,,,,,0.0,13.0,13.0,13.0,1.0,,,,,,,,,,
0.0,1.0,0.438835,,,,,,checkbook_11s.jpg,0.0,clockno_default.jpg,3.0,38,,,,,,,,,,,,,,,,,,0.0,14.0,14.0,14.0,1.0,,,,,,,,,,
0.0,1.0,1.550955,,,,,,pie_08s.jpg,0.0,clockno_default.jpg,3.0,38,,,,,,,,,,,,,,,,,,0.0,15.0,15.0,15.0,1.0,,,,,,,,,,
1.0,1.0,0.900385,,,,,,checkbook_11s.jpg,1.0,clockno_default.jpg,3.0,38,,,,,,,,,,,,,,,,,,0.0,16.0,16.0,16.0,1.0,,,,,,,,,,
0.0,1.0,1.01989,,,,,,boar_10s.jpg,0.0,clockno_default.jpg,3.0,38,,,,,,,,,,,,,,,,,,0.0,17.0,17.0,17.0,1.0,,,,,,,,,,
0.0,0.0,1.27996,,,,,,cotton_candy_01b.jpg,1.0,clockno_default.jpg,3.0,38,,,,,,,,,,,,,,,,,,0.0,18.0,18.0,18.0,1.0,,,,,,,,,,
0.0,1.0,0.68184,,,,,,keyboard_05s.jpg,0.0,clockno_default.jpg,3.0,38,,,,,,,,,,,,,,,,,,0.0,19.0,19.0,19.0,1.0,,,,,,,,,,
0.0,1.0,0.577625,,,,,,binder_21s.jpg,0.0,clockno_up.jpg,4.0,38,,,,,,,,,,,,,,,,,,0.0,20.0,20.0,20.0,1.0,,,,,,,,,,
0.0,1.0,0.44293,,,,,,solar_panel_02s.jpg,0.0,clockno_default.jpg,4.0,38,,,,,,,,,,,,,,,,,,0.0,21.0,21.0,21.0,1.0,,,,,,,,,,
0.0,1.0,0.34553,,,,,,camcorder_10s.jpg,0.0,clockno_default.jpg,4.0,38,,,,,,,,,,,,,,,,,,0.0,22.0,22.0,22.0,1.0,,,,,,,,,,
0.0,1.0,0.498795,,,,,,kettle_08s.jpg,0.0,clockno_default.jpg,4.0,38,,,,,,,,,,,,,,,,,,0.0,23.0,23.0,23.0,1.0,,,,,,,,,,
0.0,0.0,0.586155,,,,,,binder_21s.jpg,1.0,clockno_default.jpg,4.0,38,,,,,,,,,,,,,,,,,,0.0,24.0,24.0,24.0,1.0,,,,,,,,,,
0.0,1.0,0.80165,,,,,,flip_flop_03s.jpg,0.0,clockno_up.jpg,5.0,38,,,,,,,,,,,,,,,,,,0.0,25.0,25.0,25.0,1.0,,,,,,,,,,
0.0,1.0,0.705525,,,,,,mud_13s.jpg,0.0,clockno_default.jpg,5.0,38,,,,,,,,,,,,,,,,,,0.0,26.0,26.0,26.0,1.0,,,,,,,,,,
0.0,1.0,0.696875,,,,,,throne_11s.jpg,0.0,clockno_default.jpg,5.0,38,,,,,,,,,,,,,,,,,,0.0,27.0,27.0,27.0,1.0,,,,,,,,,,
0.0,1.0,1.297855,,,,,,paintbrush_04s.jpg,0.0,clockno_default.jpg,5.0,38,,,,,,,,,,,,,,,,,,0.0,28.0,28.0,28.0,1.0,,,,,,,,,,
1.0,1.0,0.90316,,,,,,throne_11s.jpg,1.0,clockno_default.jpg,5.0,38,,,,,,,,,,,,,,,,,,0.0,29.0,29.0,29.0,1.0,,,,,,,,,,
0.0,1.0,0.87807,,,,,,toaster_03s.jpg,0.0,clockno_default.jpg,5.0,38,,,,,,,,,,,,,,,,,,0.0,30.0,30.0,30.0,1.0,,,,,,,,,,
0.0,1.0,0.93263,,,,,,orange_12s.jpg,0.0,clockno_up.jpg,6.0,38,,,,,,,,,,,,,,,,,,0.0,31.0,31.0,31.0,1.0,,,,,,,,,,
0.0,1.0,0.601075,,,,,,ring_03s.jpg,0.0,clockno_default.jpg,6.0,38,,,,,,,,,,,,,,,,,,0.0,32.0,32.0,32.0,1.0,,,,,,,,,,
0.0,1.0,0.65679,,,,,,smoothie_09s.jpg,0.0,clockno_default.jpg,6.0,38,,,,,,,,,,,,,,,,,,0.0,33.0,33.0,33.0,1.0,,,,,,,,,,
0.0,1.0,0.651685,,,,,,lab_coat_11s.jpg,0.0,clockno_default.jpg,6.0,38,,,,,,,,,,,,,,,,,,0.0,34.0,34.0,34.0,1.0,,,,,,,,,,
1.0,1.0,0.77713,,,,,,smoothie_09s.jpg,1.0,clockno_default.jpg,6.0,38,,,,,,,,,,,,,,,,,,0.0,35.0,35.0,35.0,1.0,,,,,,,,,,
,,,,,,,,,0.0,,,38,1.0,0.0,1.583755,,,,,,camcorder_10s.jpg,keyboard_05s.jpg,,,,,,,,,,,,,0.0,0.0,0.0,0.0,1.0,,,,,
,,,,,,,,,0.0,,,38,0.0,1.0,1.23059,,,,,,mud_13s.jpg,kettle_08s.jpg,,,,,,,,,,,,,0.0,1.0,1.0,1.0,1.0,,,,,
,,,,,,,,,0.0,,,38,0.0,1.0,1.520825,,,,,,rope_16s.jpg,lip_gloss_06s.jpg,,,,,,,,,,,,,0.0,2.0,2.0,2.0,1.0,,,,,
,,,,,,,,,0.0,,,38,0.0,1.0,2.289195,,,,,,light_switch_02s.jpg,tablet_04s.jpg,,,,,,,,,,,,,0.0,3.0,3.0,3.0,1.0,,,,,
,,,,,,,,,1.0,,,38,0.0,0.0,2.205925,,,,,,orange_12s.jpg,lab_coat_11s.jpg,,,,,,,,,,,,,0.0,4.0,4.0,4.0,1.0,,,,,
,,,,,,,,,0.0,,,38,1.0,0.0,1.325785,,,,,,paintbrush_04s.jpg,flip_flop_03s.jpg,,,,,,,,,,,,,0.0,5.0,5.0,5.0,1.0,,,,,
,,,,,,,,,,,,38,,,,,,,,,,,,,,,,clockno_present_1_4.xlsx,clockno_compare_task_1_4.xlsx,,,,,,,,,,,0.0,0.0,0.0,0.0,1.0
0.0,1.0,0.622255,,,,,,butter_14s.jpg,0.0,clockno_up.jpg,1.0,38,,,,,,,,,,,,,,,,,,0.0,0.0,0.0,0.0,1.0,,,,,,,,,,
1.0,1.0,1.621705,,,,,,butter_14s.jpg,1.0,clockno_default.jpg,1.0,38,,,,,,,,,,,,,,,,,,0.0,1.0,1.0,1.0,1.0,,,,,,,,,,
0.0,1.0,0.68439,,,,,,pepper_mill_03s.jpg,0.0,clockno_default.jpg,1.0,38,,,,,,,,,,,,,,,,,,0.0,2.0,2.0,2.0,1.0,,,,,,,,,,
0.0,1.0,0.48404,,,,,,fox_13s.jpg,0.0,clockno_default.jpg,1.0,38,,,,,,,,,,,,,,,,,,0.0,3.0,3.0,3.0,1.0,,,,,,,,,,
0.0,1.0,0.640255,,,,,,jukebox_03n.jpg,0.0,clockno_default.jpg,1.0,38,,,,,,,,,,,,,,,,,,0.0,4.0,4.0,4.0,1.0,,,,,,,,,,
0.0,1.0,0.959005,,,,,,air_pump_05s.jpg,0.0,clockno_up.jpg,2.0,38,,,,,,,,,,,,,,,,,,0.0,5.0,5.0,5.0,1.0,,,,,,,,,,
0.0,1.0,0.884875,,,,,,koala_13s.jpg,0.0,clockno_default.jpg,2.0,38,,,,,,,,,,,,,,,,,,0.0,6.0,6.0,6.0,1.0,,,,,,,,,,
0.0,1.0,0.779855,,,,,,muffin_12n.jpg,0.0,clockno_default.jpg,2.0,38,,,,,,,,,,,,,,,,,,0.0,7.0,7.0,7.0,1.0,,,,,,,,,,
0.0,1.0,0.51821,,,,,,tie_03s.jpg,0.0,clockno_default.jpg,2.0,38,,,,,,,,,,,,,,,,,,0.0,8.0,8.0,8.0,1.0,,,,,,,,,,
0.0,1.0,0.92457,,,,,,razor_blade_01b.jpg,0.0,clockno_default.jpg,2.0,38,,,,,,,,,,,,,,,,,,0.0,9.0,9.0,9.0,1.0,,,,,,,,,,
0.0,1.0,1.5642,,,,,,butter_14s.jpg,0.0,clockno_default.jpg,2.0,38,,,,,,,,,,,,,,,,,,0.0,10.0,10.0,10.0,1.0,,,,,,,,,,
0.0,1.0,0.597965,,,,,,frame_06s.jpg,0.0,clockno_up.jpg,3.0,38,,,,,,,,,,,,,,,,,,0.0,11.0,11.0,11.0,1.0,,,,,,,,,,
0.0,1.0,0.655535,,,,,,lion_18s.jpg,0.0,clockno_default.jpg,3.0,38,,,,,,,,,,,,,,,,,,0.0,12.0,12.0,12.0,1.0,,,,,,,,,,
0.0,1.0,1.48395,,,,,,pepper_mill_03s.jpg,0.0,clockno_default.jpg,3.0,38,,,,,,,,,,,,,,,,,,0.0,13.0,13.0,13.0,1.0,,,,,,,,,,
1.0,1.0,0.638865,,,,,,lion_18s.jpg,1.0,clockno_default.jpg,3.0,38,,,,,,,,,,,,,,,,,,0.0,14.0,14.0,14.0,1.0,,,,,,,,,,
0.0,0.0,0.438545,,,,,,frame_06s.jpg,1.0,clockno_default.jpg,3.0,38,,,,,,,,,,,,,,,,,,0.0,15.0,15.0,15.0,1.0,,,,,,,,,,
0.0,1.0,0.85268,,,,,,eiffeltower.jpg,0.0,clockno_default.jpg,3.0,38,,,,,,,,,,,,,,,,,,0.0,16.0,16.0,16.0,1.0,,,,,,,,,,
1.0,0.0,1.455465,,,,,,jet_15s.jpg,0.0,clockno_default.jpg,3.0,38,,,,,,,,,,,,,,,,,,0.0,17.0,17.0,17.0,1.0,,,,,,,,,,
0.0,1.0,0.548505,,,,,,duck_01b.jpg,0.0,clockno_up.jpg,4.0,38,,,,,,,,,,,,,,,,,,0.0,18.0,18.0,18.0,1.0,,,,,,,,,,
1.0,1.0,0.89254,,,,,,duck_01b.jpg,1.0,clockno_default.jpg,4.0,38,,,,,,,,,,,,,,,,,,0.0,19.0,19.0,19.0,1.0,,,,,,,,,,
0.0,1.0,0.75832,,,,,,jelly_bean_06s.jpg,0.0,clockno_default.jpg,4.0,38,,,,,,,,,,,,,,,,,,0.0,20.0,20.0,20.0,1.0,,,,,,,,,,
1.0,1.0,0.919315,,,,,,jelly_bean_06s.jpg,1.0,clockno_default.jpg,4.0,38,,,,,,,,,,,,,,,,,,0.0,21.0,21.0,21.0,1.0,,,,,,,,,,
0.0,1.0,0.49136,,,,,,lamp_08s.jpg,0.0,clockno_default.jpg,4.0,38,,,,,,,,,,,,,,,,,,0.0,22.0,22.0,22.0,1.0,,,,,,,,,,
0.0,1.0,0.41785,,,,,,ivy_12s.jpg,0.0,clockno_default.jpg,4.0,38,,,,,,,,,,,,,,,,,,0.0,23.0,23.0,23.0,1.0,,,,,,,,,,
0.0,1.0,0.73108,,,,,,turf_03s.jpg,0.0,clockno_up.jpg,5.0,38,,,,,,,,,,,,,,,,,,0.0,24.0,24.0,24.0,1.0,,,,,,,,,,
0.0,1.0,1.014815,,,,,,duck_01b.jpg,0.0,clockno_default.jpg,5.0,38,,,,,,,,,,,,,,,,,,0.0,25.0,25.0,25.0,1.0,,,,,,,,,,
0.0,1.0,0.618635,,,,,,tuba_12s.jpg,0.0,clockno_default.jpg,5.0,38,,,,,,,,,,,,,,,,,,0.0,26.0,26.0,26.0,1.0,,,,,,,,,,
0.0,1.0,0.97277,,,,,,butter_14s.jpg,0.0,clockno_default.jpg,5.0,38,,,,,,,,,,,,,,,,,,0.0,27.0,27.0,27.0,1.0,,,,,,,,,,
0.0,1.0,0.643185,,,,,,fountain_pen_06s.jpg,0.0,clockno_default.jpg,5.0,38,,,,,,,,,,,,,,,,,,0.0,28.0,28.0,28.0,1.0,,,,,,,,,,
0.0,1.0,0.954355,,,,,,letter_opener_03s.jpg,0.0,clockno_up.jpg,6.0,38,,,,,,,,,,,,,,,,,,0.0,29.0,29.0,29.0,1.0,,,,,,,,,,
0.0,1.0,0.72253,,,,,,gear_07s.jpg,0.0,clockno_default.jpg,6.0,38,,,,,,,,,,,,,,,,,,0.0,30.0,30.0,30.0,1.0,,,,,,,,,,
0.0,1.0,1.03429,,,,,,undershirt_02s.jpg,0.0,clockno_default.jpg,6.0,38,,,,,,,,,,,,,,,,,,0.0,31.0,31.0,31.0,1.0,,,,,,,,,,
0.0,1.0,0.61149,,,,,,target_11s.jpg,0.0,clockno_default.jpg,6.0,38,,,,,,,,,,,,,,,,,,0.0,32.0,32.0,32.0,1.0,,,,,,,,,,
0.0,1.0,0.708695,,,,,,syringe_02s.jpg,0.0,clockno_default.jpg,6.0,38,,,,,,,,,,,,,,,,,,0.0,33.0,33.0,33.0,1.0,,,,,,,,,,
0.0,1.0,0.700605,,,,,,reindeer_08s.jpg,0.0,clockno_default.jpg,6.0,38,,,,,,,,,,,,,,,,,,0.0,34.0,34.0,34.0,1.0,,,,,,,,,,
0.0,1.0,0.882935,,,,,,sea_urchin_09s.jpg,0.0,clockno_default.jpg,6.0,38,,,,,,,,,,,,,,,,,,0.0,35.0,35.0,35.0,1.0,,,,,,,,,,
,,,,,,,,,0.0,,,38,0.0,1.0,1.48958,,,,,,muffin_12n.jpg,jukebox_03n.jpg,,,,,,,,,,,,,0.0,0.0,0.0,0.0,1.0,,,,,
,,,,,,,,,1.0,,,38,1.0,1.0,2.04128,,,,,,ivy_12s.jpg,tuba_12s.jpg,,,,,,,,,,,,,0.0,1.0,1.0,1.0,1.0,,,,,
,,,,,,,,,1.0,,,38,1.0,1.0,1.253775,,,,,,fox_13s.jpg,koala_13s.jpg,,,,,,,,,,,,,0.0,2.0,2.0,2.0,1.0,,,,,
,,,,,,,,,0.0,,,38,1.0,0.0,1.548075,,,,,,tie_03s.jpg,air_pump_05s.jpg,,,,,,,,,,,,,0.0,3.0,3.0,3.0,1.0,,,,,
,,,,,,,,,1.0,,,38,0.0,0.0,1.323825,,,,,,gear_07s.jpg,syringe_02s.jpg,,,,,,,,,,,,,0.0,4.0,4.0,4.0,1.0,,,,,
,,,,,,,,,1.0,,,38,1.0,1.0,1.720675,,,,,,target_11s.jpg,sea_urchin_09s.jpg,,,,,,,,,,,,,0.0,5.0,5.0,5.0,1.0,,,,,
,,,,,,,,,,,,38,,,,,,,,,,,,,,,,clockno_present_2_4.xlsx,clockno_compare_task_2_4.xlsx,,,,,,,,,,,0.0,1.0,1.0,1.0,1.0
0.0,1.0,0.689185,,,,,,tupperware_09s.jpg,0.0,clockno_up.jpg,1.0,38,,,,,,,,,,,,,,,,,,0.0,0.0,0.0,0.0,1.0,,,,,,,,,,
1.0,1.0,0.615795,,,,,,tupperware_09s.jpg,1.0,clockno_default.jpg,1.0,38,,,,,,,,,,,,,,,,,,0.0,1.0,1.0,1.0,1.0,,,,,,,,,,
0.0,1.0,0.76703,,,,,,towel_rack_04s.jpg,0.0,clockno_default.jpg,1.0,38,,,,,,,,,,,,,,,,,,0.0,2.0,2.0,2.0,1.0,,,,,,,,,,
0.0,1.0,0.725855,,,,,,trident_07s.jpg,0.0,clockno_default.jpg,1.0,38,,,,,,,,,,,,,,,,,,0.0,3.0,3.0,3.0,1.0,,,,,,,,,,
0.0,1.0,1.01325,,,,,,doily_13s.jpg,0.0,clockno_default.jpg,1.0,38,,,,,,,,,,,,,,,,,,0.0,4.0,4.0,4.0,1.0,,,,,,,,,,
1.0,1.0,1.29306,,,,,,towel_rack_04s.jpg,1.0,clockno_default.jpg,1.0,38,,,,,,,,,,,,,,,,,,0.0,5.0,5.0,5.0,1.0,,,,,,,,,,
0.0,1.0,0.906025,,,,,,bank_06s.jpg,0.0,clockno_up.jpg,2.0,38,,,,,,,,,,,,,,,,,,0.0,6.0,6.0,6.0,1.0,,,,,,,,,,
0.0,1.0,1.18876,,,,,,rake_06s.jpg,0.0,clockno_default.jpg,2.0,38,,,,,,,,,,,,,,,,,,0.0,7.0,7.0,7.0,1.0,,,,,,,,,,
0.0,1.0,0.763725,,,,,,lava_02s.jpg,0.0,clockno_default.jpg,2.0,38,,,,,,,,,,,,,,,,,,0.0,8.0,8.0,8.0,1.0,,,,,,,,,,
0.0,1.0,0.85198,,,,,,lemonade_04s.jpg,0.0,clockno_default.jpg,2.0,38,,,,,,,,,,,,,,,,,,0.0,9.0,9.0,9.0,1.0,,,,,,,,,,
1.0,1.0,0.94476,,,,,,lava_02s.jpg,1.0,clockno_default.jpg,2.0,38,,,,,,,,,,,,,,,,,,0.0,10.0,10.0,10.0,1.0,,,,,,,,,,
0.0,1.0,0.64376,,,,,,pillow_03s.jpg,0.0,clockno_up.jpg,3.0,38,,,,,,,,,,,,,,,,,,0.0,11.0,11.0,11.0,1.0,,,,,,,,,,
0.0,1.0,0.61152,,,,,,scooter.jpg,0.0,clockno_default.jpg,3.0,38,,,,,,,,,,,,,,,,,,0.0,12.0,12.0,12.0,1.0,,,,,,,,,,
0.0,1.0,0.704445,,,,,,laundry_basket_11s.jpg,0.0,clockno_default.jpg,3.0,38,,,,,,,,,,,,,,,,,,0.0,13.0,13.0,13.0,1.0,,,,,,,,,,
0.0,1.0,0.85169,,,,,,pear_02s.jpg,0.0,clockno_default.jpg,3.0,38,,,,,,,,,,,,,,,,,,0.0,14.0,14.0,14.0,1.0,,,,,,,,,,
0.0,1.0,0.651945,,,,,,hyena_16s.jpg,0.0,clockno_default.jpg,3.0,38,,,,,,,,,,,,,,,,,,0.0,15.0,15.0,15.0,1.0,,,,,,,,,,
1.0,1.0,1.068375,,,,,,laundry_basket_11s.jpg,1.0,clockno_default.jpg,3.0,38,,,,,,,,,,,,,,,,,,0.0,16.0,16.0,16.0,1.0,,,,,,,,,,
0.0,1.0,0.61144,,,,,,spider_web_03s.jpg,0.0,clockno_up.jpg,4.0,38,,,,,,,,,,,,,,,,,,0.0,17.0,17.0,17.0,1.0,,,,,,,,,,
1.0,1.0,1.02165,,,,,,spider_web_03s.jpg,1.0,clockno_default.jpg,4.0,38,,,,,,,,,,,,,,,,,,0.0,18.0,18.0,18.0,1.0,,,,,,,,,,
0.0,0.0,0.918985,,,,,,spider_web_03s.jpg,1.0,clockno_default.jpg,4.0,38,,,,,,,,,,,,,,,,,,0.0,19.0,19.0,19.0,1.0,,,,,,,,,,
0.0,1.0,0.85176,,,,,,chopsticks_08s.jpg,0.0,clockno_default.jpg,4.0,38,,,,,,,,,,,,,,,,,,0.0,20.0,20.0,20.0,1.0,,,,,,,,,,
0.0,0.0,0.65217,,,,,,spider_web_03s.jpg,1.0,clockno_default.jpg,4.0,38,,,,,,,,,,,,,,,,,,0.0,21.0,21.0,21.0,1.0,,,,,,,,,,
0.0,1.0,0.678585,,,,,,blazer_02s.jpg,0.0,clockno_default.jpg,4.0,38,,,,,,,,,,,,,,,,,,0.0,22.0,22.0,22.0,1.0,,,,,,,,,,
0.0,1.0,0.797095,,,,,,mug_06s.jpg,0.0,clockno_default.jpg,4.0,38,,,,,,,,,,,,,,,,,,0.0,23.0,23.0,23.0,1.0,,,,,,,,,,
0.0,1.0,0.56984,,,,,,kangaroo_02s.jpg,0.0,clockno_up.jpg,5.0,38,,,,,,,,,,,,,,,,,,0.0,24.0,24.0,24.0,1.0,,,,,,,,,,
0.0,1.0,0.692245,,,,,,lantern_04s.jpg,0.0,clockno_default.jpg,5.0,38,,,,,,,,,,,,,,,,,,0.0,25.0,25.0,25.0,1.0,,,,,,,,,,
0.0,1.0,0.718285,,,,,,tongs_08s.jpg,0.0,clockno_default.jpg,5.0,38,,,,,,,,,,,,,,,,,,0.0,26.0,26.0,26.0,1.0,,,,,,,,,,
0.0,1.0,0.55718,,,,,,dynamite_01b.jpg,0.0,clockno_default.jpg,5.0,38,,,,,,,,,,,,,,,,,,0.0,27.0,27.0,27.0,1.0,,,,,,,,,,
0.0,1.0,0.584645,,,,,,razor_12s.jpg,0.0,clockno_default.jpg,5.0,38,,,,,,,,,,,,,,,,,,0.0,28.0,28.0,28.0,1.0,,,,,,,,,,
0.0,1.0,0.73132,,,,,,loom_05s.jpg,0.0,clockno_default.jpg,5.0,38,,,,,,,,,,,,,,,,,,0.0,29.0,29.0,29.0,1.0,,,,,,,,,,
0.0,1.0,0.63829,,,,,,compass_10n.jpg,0.0,clockno_default.jpg,5.0,38,,,,,,,,,,,,,,,,,,0.0,30.0,30.0,30.0,1.0,,,,,,,,,,
0.0,1.0,0.59841,,,,,,penguin_16s.jpg,0.0,clockno_up.jpg,6.0,38,,,,,,,,,,,,,,,,,,0.0,31.0,31.0,31.0,1.0,,,,,,,,,,
0.0,1.0,0.781075,,,,,,typewriter_11s.jpg,0.0,clockno_default.jpg,6.0,38,,,,,,,,,,,,,,,,,,0.0,32.0,32.0,32.0,1.0,,,,,,,,,,
0.0,1.0,0.68165,,,,,,champagne_18s.jpg,0.0,clockno_default.jpg,6.0,38,,,,,,,,,,,,,,,,,,0.0,33.0,33.0,33.0,1.0,,,,,,,,,,
0.0,1.0,0.80131,,,,,,bacon_05s.jpg,0.0,clockno_default.jpg,6.0,38,,,,,,,,,,,,,,,,,,0.0,34.0,34.0,34.0,1.0,,,,,,,,,,
0.0,1.0,0.697765,,,,,,limousine_12s.jpg,0.0,clockno_default.jpg,6.0,38,,,,,,,,,,,,,,,,,,0.0,35.0,35.0,35.0,1.0,,,,,,,,,,
,,,,,,,,,0.0,,,38,1.0,0.0,1.90528,,,,,,rake_06s.jpg,doily_13s.jpg,,,,,,,,,,,,,0.0,0.0,0.0,0.0,1.0,,,,,
,,,,,,,,,0.0,,,38,1.0,0.0,1.912075,,,,,,bank_06s.jpg,trident_07s.jpg,,,,,,,,,,,,,0.0,1.0,1.0,1.0,1.0,,,,,
,,,,,,,,,0.0,,,38,0.0,1.0,1.552205,,,,,,lantern_04s.jpg,blazer_02s.jpg,,,,,,,,,,,,,0.0,2.0,2.0,2.0,1.0,,,,,
,,,,,,,,,1.0,,,38,1.0,1.0,1.81803,,,,,,pillow_03s.jpg,pear_02s.jpg,,,,,,,,,,,,,0.0,3.0,3.0,3.0,1.0,,,,,
,,,,,,,,,0.0,,,38,0.0,1.0,1.231225,,,,,,dynamite_01b.jpg,kangaroo_02s.jpg,,,,,,,,,,,,,0.0,4.0,4.0,4.0,1.0,,,,,
,,,,,,,,,1.0,,,38,1.0,1.0,2.362,,,,,,scooter.jpg,hyena_16s.jpg,,,,,,,,,,,,,0.0,5.0,5.0,5.0,1.0,,,,,
,,,,,,,,,,,,38,,,,,,,,,,,,,,,,clockno_present_3_4.xlsx,clockno_compare_task_3_4.xlsx,,,,,,,,,,,0.0,2.0,2.0,2.0,1.0
0.0,1.0,1.397485,,,,,,leash_10s.jpg,0.0,clockno_up.jpg,1.0,38,,,,,,,,,,,,,,,,,,0.0,0.0,0.0,0.0,1.0,,,,,,,,,,
1.0,1.0,0.562365,,,,,,leash_10s.jpg,1.0,clockno_default.jpg,1.0,38,,,,,,,,,,,,,,,,,,0.0,1.0,1.0,1.0,1.0,,,,,,,,,,
0.0,1.0,0.7181,,,,,,ginger_09s.jpg,0.0,clockno_default.jpg,1.0,38,,,,,,,,,,,,,,,,,,0.0,2.0,2.0,2.0,1.0,,,,,,,,,,
0.0,1.0,0.937405,,,,,,lectern_08s.jpg,0.0,clockno_default.jpg,1.0,38,,,,,,,,,,,,,,,,,,0.0,3.0,3.0,3.0,1.0,,,,,,,,,,
0.0,1.0,0.673295,,,,,,candy_cane_06s.jpg,0.0,clockno_default.jpg,1.0,38,,,,,,,,,,,,,,,,,,0.0,4.0,4.0,4.0,1.0,,,,,,,,,,
0.0,1.0,0.638105,,,,,,mushroom_10n.jpg,0.0,clockno_up.jpg,2.0,38,,,,,,,,,,,,,,,,,,0.0,5.0,5.0,5.0,1.0,,,,,,,,,,
0.0,1.0,0.656895,,,,,,totem_pole_05s.jpg,0.0,clockno_default.jpg,2.0,38,,,,,,,,,,,,,,,,,,0.0,6.0,6.0,6.0,1.0,,,,,,,,,,
0.0,1.0,0.81775,,,,,,pump_11s.jpg,0.0,clockno_default.jpg,2.0,38,,,,,,,,,,,,,,,,,,0.0,7.0,7.0,7.0,1.0,,,,,,,,,,
0.0,1.0,0.58504,,,,,,rocket_02s.jpg,0.0,clockno_default.jpg,2.0,38,,,,,,,,,,,,,,,,,,0.0,8.0,8.0,8.0,1.0,,,,,,,,,,
0.0,1.0,0.73556,,,,,,sleeping_bag_12s.jpg,0.0,clockno_default.jpg,2.0,38,,,,,,,,,,,,,,,,,,0.0,9.0,9.0,9.0,1.0,,,,,,,,,,
0.0,1.0,0.577635,,,,,,machine_gun_09s.jpg,0.0,clockno_default.jpg,2.0,38,,,,,,,,,,,,,,,,,,0.0,10.0,10.0,10.0,1.0,,,,,,,,,,
1.0,1.0,1.1461,,,,,,pump_11s.jpg,1.0,clockno_default.jpg,2.0,38,,,,,,,,,,,,,,,,,,0.0,11.0,11.0,11.0,1.0,,,,,,,,,,
0.0,1.0,0.531135,,,,,,pumpkin_03s.jpg,0.0,clockno_up.jpg,3.0,38,,,,,,,,,,,,,,,,,,0.0,12.0,12.0,12.0,1.0,,,,,,,,,,
0.0,1.0,0.553595,,,,,,blender_08s.jpg,0.0,clockno_default.jpg,3.0,38,,,,,,,,,,,,,,,,,,0.0,13.0,13.0,13.0,1.0,,,,,,,,,,
0.0,1.0,0.745175,,,,,,tattoo_14s.jpg,0.0,clockno_default.jpg,3.0,38,,,,,,,,,,,,,,,,,,0.0,14.0,14.0,14.0,1.0,,,,,,,,,,
0.0,1.0,0.48139,,,,,,pincushion_10s.jpg,0.0,clockno_default.jpg,3.0,38,,,,,,,,,,,,,,,,,,0.0,15.0,15.0,15.0,1.0,,,,,,,,,,
0.0,1.0,0.53719,,,,,,snowman_02s.jpg,0.0,clockno_default.jpg,3.0,38,,,,,,,,,,,,,,,,,,0.0,16.0,16.0,16.0,1.0,,,,,,,,,,
0.0,1.0,0.531635,,,,,,pomegranate_04s.jpg,0.0,clockno_default.jpg,3.0,38,,,,,,,,,,,,,,,,,,0.0,17.0,17.0,17.0,1.0,,,,,,,,,,
0.0,1.0,0.496295,,,,,,stamp2_08s.jpg,0.0,clockno_up.jpg,4.0,38,,,,,,,,,,,,,,,,,,0.0,18.0,18.0,18.0,1.0,,,,,,,,,,
1.0,1.0,0.90847,,,,,,stamp2_08s.jpg,1.0,clockno_default.jpg,4.0,38,,,,,,,,,,,,,,,,,,0.0,19.0,19.0,19.0,1.0,,,,,,,,,,
0.0,1.0,0.65176,,,,,,spacesuit_02s.jpg,0.0,clockno_default.jpg,4.0,38,,,,,,,,,,,,,,,,,,0.0,20.0,20.0,20.0,1.0,,,,,,,,,,
1.0,1.0,1.153315,,,,,,spacesuit_02s.jpg,1.0,clockno_default.jpg,4.0,38,,,,,,,,,,,,,,,,,,0.0,21.0,21.0,21.0,1.0,,,,,,,,,,
0.0,1.0,0.441755,,,,,,gargoyle_08s.jpg,0.0,clockno_default.jpg,4.0,38,,,,,,,,,,,,,,,,,,0.0,22.0,22.0,22.0,1.0,,,,,,,,,,
0.0,1.0,0.57244,,,,,,machine_gun_09s.jpg,0.0,clockno_default.jpg,4.0,38,,,,,,,,,,,,,,,,,,0.0,23.0,23.0,23.0,1.0,,,,,,,,,,
0.0,1.0,0.62805,,,,,,lectern_08s.jpg,0.0,clockno_default.jpg,4.0,38,,,,,,,,,,,,,,,,,,0.0,24.0,24.0,24.0,1.0,,,,,,,,,,
0.0,1.0,0.61589,,,,,,jigsaw_puzzle_11s.jpg,0.0,clockno_up.jpg,5.0,38,,,,,,,,,,,,,,,,,,0.0,25.0,25.0,25.0,1.0,,,,,,,,,,
0.0,1.0,0.42503,,,,,,bean_06s.jpg,0.0,clockno_default.jpg,5.0,38,,,,,,,,,,,,,,,,,,0.0,26.0,26.0,26.0,1.0,,,,,,,,,,
1.0,1.0,1.026085,,,,,,bean_06s.jpg,1.0,clockno_default.jpg,5.0,38,,,,,,,,,,,,,,,,,,0.0,27.0,27.0,27.0,1.0,,,,,,,,,,
0.0,1.0,0.758195,,,,,,mannequin_05s.jpg,0.0,clockno_default.jpg,5.0,38,,,,,,,,,,,,,,,,,,0.0,28.0,28.0,28.0,1.0,,,,,,,,,,
0.0,1.0,1.211155,,,,,,mascara_03s.jpg,0.0,clockno_default.jpg,5.0,38,,,,,,,,,,,,,,,,,,0.0,29.0,29.0,29.0,1.0,,,,,,,,,,
0.0,0.0,0.749995,,,,,,jigsaw_puzzle_11s.jpg,1.0,clockno_default.jpg,5.0,38,,,,,,,,,,,,,,,,,,0.0,30.0,30.0,30.0,1.0,,,,,,,,,,
0.0,1.0,0.904025,,,,,,badge_03s.jpg,0.0,clockno_up.jpg,6.0,38,,,,,,,,,,,,,,,,,,0.0,31.0,31.0,31.0,1.0,,,,,,,,,,
0.0,1.0,0.7743,,,,,,projector_08s.jpg,0.0,clockno_default.jpg,6.0,38,,,,,,,,,,,,,,,,,,0.0,32.0,32.0,32.0,1.0,,,,,,,,,,
0.0,1.0,0.6365,,,,,,mannequin_05s.jpg,0.0,clockno_default.jpg,6.0,38,,,,,,,,,,,,,,,,,,0.0,33.0,33.0,33.0,1.0,,,,,,,,,,
0.0,1.0,0.891725,,,,,,coffee_filter_10s.jpg,0.0,clockno_default.jpg,6.0,38,,,,,,,,,,,,,,,,,,0.0,34.0,34.0,34.0,1.0,,,,,,,,,,
0.0,1.0,0.589065,,,,,,sushi_08s.jpg,0.0,clockno_default.jpg,6.0,38,,,,,,,,,,,,,,,,,,0.0,35.0,35.0,35.0,1.0,,,,,,,,,,
,,,,,,,,,0.0,,,38,1.0,0.0,3.869575,,,,,,mushroom_10n.jpg,ginger_09s.jpg,,,,,,,,,,,,,0.0,0.0,0.0,0.0,1.0,,,,,
,,,,,,,,,1.0,,,38,0.0,0.0,1.266975,,,,,,mascara_03s.jpg,projector_08s.jpg,,,,,,,,,,,,,0.0,1.0,1.0,1.0,1.0,,,,,
,,,,,,,,,1.0,,,38,1.0,1.0,1.457425,,,,,,sleeping_bag_12s.jpg,pumpkin_03s.jpg,,,,,,,,,,,,,0.0,2.0,2.0,2.0,1.0,,,,,
,,,,,,,,,0.0,,,38,1.0,0.0,1.326485,,,,,,snowman_02s.jpg,blender_08s.jpg,,,,,,,,,,,,,0.0,3.0,3.0,3.0,1.0,,,,,
,,,,,,,,,1.0,,,38,0.0,0.0,2.39994,,,,,,tattoo_14s.jpg,pomegranate_04s.jpg,,,,,,,,,,,,,0.0,4.0,4.0,4.0,1.0,,,,,
,,,,,,,,,1.0,,,38,0.0,0.0,1.19039,,,,,,badge_03s.jpg,coffee_filter_10s.jpg,,,,,,,,,,,,,0.0,5.0,5.0,5.0,1.0,,,,,
,,,,,,,,,,,,38,,,,,,,,,,,,,,,,clockno_present_4_4.xlsx,clockno_compare_task_4_4.xlsx,,,,,,,,,,,0.0,3.0,3.0,3.0,1.0
0.0,1.0,0.83883,,,,,,puppet_01b.jpg,0.0,clockno_up.jpg,1.0,38,,,,,,,,,,,,,,,,,,0.0,0.0,0.0,0.0,1.0,,,,,,,,,,
1.0,1.0,1.312965,,,,,,puppet_01b.jpg,1.0,clockno_default.jpg,1.0,38,,,,,,,,,,,,,,,,,,0.0,1.0,1.0,1.0,1.0,,,,,,,,,,
0.0,1.0,0.855115,,,,,,money_07s.jpg,0.0,clockno_default.jpg,1.0,38,,,,,,,,,,,,,,,,,,0.0,2.0,2.0,2.0,1.0,,,,,,,,,,
1.0,1.0,0.785705,,,,,,puppet_01b.jpg,1.0,clockno_default.jpg,1.0,38,,,,,,,,,,,,,,,,,,0.0,3.0,3.0,3.0,1.0,,,,,,,,,,
0.0,0.0,1.237275,,,,,,money_07s.jpg,1.0,clockno_default.jpg,1.0,38,,,,,,,,,,,,,,,,,,0.0,4.0,4.0,4.0,1.0,,,,,,,,,,
0.0,1.0,0.678465,,,,,,seahorse_13s.jpg,0.0,clockno_default.jpg,1.0,38,,,,,,,,,,,,,,,,,,0.0,5.0,5.0,5.0,1.0,,,,,,,,,,
0.0,1.0,0.67107,,,,,,tinsel_12s.jpg,0.0,clockno_default.jpg,1.0,38,,,,,,,,,,,,,,,,,,0.0,6.0,6.0,6.0,1.0,,,,,,,,,,
0.0,1.0,0.89197,,,,,,medal_04s.jpg,0.0,clockno_up.jpg,2.0,38,,,,,,,,,,,,,,,,,,0.0,7.0,7.0,7.0,1.0,,,,,,,,,,
1.0,1.0,0.817215,,,,,,medal_04s.jpg,1.0,clockno_default.jpg,2.0,38,,,,,,,,,,,,,,,,,,0.0,8.0,8.0,8.0,1.0,,,,,,,,,,
1.0,1.0,0.913105,,,,,,medal_04s.jpg,1.0,clockno_default.jpg,2.0,38,,,,,,,,,,,,,,,,,,0.0,9.0,9.0,9.0,1.0,,,,,,,,,,
1.0,1.0,0.908895,,,,,,medal_04s.jpg,1.0,clockno_default.jpg,2.0,38,,,,,,,,,,,,,,,,,,0.0,10.0,10.0,10.0,1.0,,,,,,,,,,
0.0,1.0,0.545385,,,,,,key_07s.jpg,0.0,clockno_default.jpg,2.0,38,,,,,,,,,,,,,,,,,,0.0,11.0,11.0,11.0,1.0,,,,,,,,,,
0.0,1.0,0.696745,,,,,,swordfish_05s.jpg,0.0,clockno_up.jpg,3.0,38,,,,,,,,,,,,,,,,,,0.0,12.0,12.0,12.0,1.0,,,,,,,,,,
0.0,1.0,0.465505,,,,,,toilet_07s.jpg,0.0,clockno_default.jpg,3.0,38,,,,,,,,,,,,,,,,,,0.0,13.0,13.0,13.0,1.0,,,,,,,,,,
1.0,1.0,0.879085,,,,,,swordfish_05s.jpg,1.0,clockno_default.jpg,3.0,38,,,,,,,,,,,,,,,,,,0.0,14.0,14.0,14.0,1.0,,,,,,,,,,
1.0,1.0,0.745855,,,,,,swordfish_05s.jpg,1.0,clockno_default.jpg,3.0,38,,,,,,,,,,,,,,,,,,0.0,15.0,15.0,15.0,1.0,,,,,,,,,,
0.0,1.0,0.705115,,,,,,tennis_ball_06s.jpg,0.0,clockno_default.jpg,3.0,38,,,,,,,,,,,,,,,,,,0.0,16.0,16.0,16.0,1.0,,,,,,,,,,
0.0,1.0,0.664515,,,,,,penlight_12s.jpg,0.0,clockno_default.jpg,3.0,38,,,,,,,,,,,,,,,,,,0.0,17.0,17.0,17.0,1.0,,,,,,,,,,
0.0,1.0,0.624005,,,,,,rock_08s.jpg,0.0,clockno_default.jpg,3.0,38,,,,,,,,,,,,,,,,,,0.0,18.0,18.0,18.0,1.0,,,,,,,,,,
0.0,1.0,0.531595,,,,,,submarine_11n.jpg,0.0,clockno_up.jpg,4.0,38,,,,,,,,,,,,,,,,,,0.0,19.0,19.0,19.0,1.0,,,,,,,,,,
0.0,1.0,1.29137,,,,,,ostrich_06s.jpg,0.0,clockno_default.jpg,4.0,38,,,,,,,,,,,,,,,,,,0.0,20.0,20.0,20.0,1.0,,,,,,,,,,
0.0,1.0,1.128025,,,,,,rocking_horse_03s.jpg,0.0,clockno_default.jpg,4.0,38,,,,,,,,,,,,,,,,,,0.0,21.0,21.0,21.0,1.0,,,,,,,,,,
0.0,1.0,0.66956,,,,,,abacus_12s.jpg,0.0,clockno_default.jpg,4.0,38,,,,,,,,,,,,,,,,,,0.0,22.0,22.0,22.0,1.0,,,,,,,,,,
0.0,1.0,0.759395,,,,,,refrigerator_07s.jpg,0.0,clockno_default.jpg,4.0,38,,,,,,,,,,,,,,,,,,0.0,23.0,23.0,23.0,1.0,,,,,,,,,,
0.0,1.0,0.62488,,,,,,contact_lens_15s.jpg,0.0,clockno_default.jpg,4.0,38,,,,,,,,,,,,,,,,,,0.0,24.0,24.0,24.0,1.0,,,,,,,,,,
0.0,1.0,0.677735,,,,,,otter_05s.jpg,0.0,clockno_up.jpg,5.0,38,,,,,,,,,,,,,,,,,,0.0,25.0,25.0,25.0,1.0,,,,,,,,,,
0.0,1.0,0.63873,,,,,,ant_12s.jpg,0.0,clockno_default.jpg,5.0,38,,,,,,,,,,,,,,,,,,0.0,26.0,26.0,26.0,1.0,,,,,,,,,,
0.0,1.0,0.63785,,,,,,slingshot_07s.jpg,0.0,clockno_default.jpg,5.0,38,,,,,,,,,,,,,,,,,,0.0,27.0,27.0,27.0,1.0,,,,,,,,,,
0.0,1.0,0.53319,,,,,,bee_20s.jpg,0.0,clockno_default.jpg,5.0,38,,,,,,,,,,,,,,,,,,0.0,28.0,28.0,28.0,1.0,,,,,,,,,,
0.0,1.0,0.59205,,,,,,tile_08s.jpg,0.0,clockno_default.jpg,5.0,38,,,,,,,,,,,,,,,,,,0.0,29.0,29.0,29.0,1.0,,,,,,,,,,
0.0,1.0,0.679715,,,,,,road_sign_05s.jpg,0.0,clockno_up.jpg,6.0,38,,,,,,,,,,,,,,,,,,0.0,30.0,30.0,30.0,1.0,,,,,,,,,,
0.0,1.0,0.551265,,,,,,latch_15s.jpg,0.0,clockno_default.jpg,6.0,38,,,,,,,,,,,,,,,,,,0.0,31.0,31.0,31.0,1.0,,,,,,,,,,
0.0,1.0,0.51176,,,,,,paper_bag_12s.jpg,0.0,clockno_default.jpg,6.0,38,,,,,,,,,,,,,,,,,,0.0,32.0,32.0,32.0,1.0,,,,,,,,,,
0.0,0.0,0.789585,,,,,,paper_bag_12s.jpg,1.0,clockno_default.jpg,6.0,38,,,,,,,,,,,,,,,,,,0.0,33.0,33.0,33.0,1.0,,,,,,,,,,
0.0,1.0,1.01453,,,,,,cushion_08s.jpg,0.0,clockno_default.jpg,6.0,38,,,,,,,,,,,,,,,,,,0.0,34.0,34.0,34.0,1.0,,,,,,,,,,
0.0,1.0,1.03877,,,,,,briefcase_03s.jpg,0.0,clockno_default.jpg,6.0,38,,,,,,,,,,,,,,,,,,0.0,35.0,35.0,35.0,1.0,,,,,,,,,,
,,,,,,,,,1.0,,,38,1.0,1.0,1.705495,,,,,,slingshot_07s.jpg,road_sign_05s.jpg,,,,,,,,,,,,,0.0,0.0,0.0,0.0,1.0,,,,,
,,,,,,,,,1.0,,,38,0.0,0.0,1.387405,,,,,,penlight_12s.jpg,ostrich_06s.jpg,,,,,,,,,,,,,0.0,1.0,1.0,1.0,1.0,,,,,
,,,,,,,,,1.0,,,38,1.0,1.0,1.387205,,,,,,rock_08s.jpg,rocking_horse_03s.jpg,,,,,,,,,,,,,0.0,2.0,2.0,2.0,1.0,,,,,
,,,,,,,,,1.0,,,38,1.0,1.0,1.0344,,,,,,toilet_07s.jpg,tennis_ball_06s.jpg,,,,,,,,,,,,,0.0,3.0,3.0,3.0,1.0,,,,,
,,,,,,,,,1.0,,,38,1.0,1.0,0.980065,,,,,,ant_12s.jpg,tile_08s.jpg,,,,,,,,,,,,,0.0,4.0,4.0,4.0,1.0,,,,,
,,,,,,,,,1.0,,,38,1.0,1.0,1.62992,,,,,,latch_15s.jpg,cushion_08s.jpg,,,,,,,,,,,,,0.0,5.0,5.0,5.0,1.0,,,,,
,,,,,,,,,,,,38,,,,,,,,,,,,,,,,clockno_present_5_4.xlsx,clockno_compare_task_5_4.xlsx,,,,,,,,,,,0.0,4.0,4.0,4.0,1.0
0.0,1.0,0.871025,,,,,,pocket_watch_16s.jpg,0.0,clockno_up.jpg,1.0,38,,,,,,,,,,,,,,,,,,0.0,0.0,0.0,0.0,1.0,,,,,,,,,,
,0.0,,,,,,,rug_09s.jpg,0.0,clockno_default.jpg,1.0,38,,,,,,,,,,,,,,,,,,0.0,1.0,1.0,1.0,1.0,,,,,,,,,,
0.0,0.0,0.70522,,,,,,pocket_watch_16s.jpg,1.0,clockno_default.jpg,1.0,38,,,,,,,,,,,,,,,,,,0.0,2.0,2.0,2.0,1.0,,,,,,,,,,
1.0,1.0,0.53569,,,,,,pocket_watch_16s.jpg,1.0,clockno_default.jpg,1.0,38,,,,,,,,,,,,,,,,,,0.0,3.0,3.0,3.0,1.0,,,,,,,,,,
1.0,1.0,1.145835,,,,,,rug_09s.jpg,1.0,clockno_default.jpg,1.0,38,,,,,,,,,,,,,,,,,,0.0,4.0,4.0,4.0,1.0,,,,,,,,,,
0.0,1.0,0.590135,,,,,,lasagna_06s.jpg,0.0,clockno_up.jpg,2.0,38,,,,,,,,,,,,,,,,,,0.0,5.0,5.0,5.0,1.0,,,,,,,,,,
0.0,1.0,1.095215,,,,,,ukulele_02s.jpg,0.0,clockno_default.jpg,2.0,38,,,,,,,,,,,,,,,,,,0.0,6.0,6.0,6.0,1.0,,,,,,,,,,
0.0,1.0,0.48102,,,,,,fork_04s.jpg,0.0,clockno_default.jpg,2.0,38,,,,,,,,,,,,,,,,,,0.0,7.0,7.0,7.0,1.0,,,,,,,,,,
0.0,1.0,0.5065,,,,,,red_carpet_03s.jpg,0.0,clockno_default.jpg,2.0,38,,,,,,,,,,,,,,,,,,0.0,8.0,8.0,8.0,1.0,,,,,,,,,,
0.0,1.0,0.36401,,,,,,turkey_10s.jpg,0.0,clockno_default.jpg,2.0,38,,,,,,,,,,,,,,,,,,0.0,9.0,9.0,9.0,1.0,,,,,,,,,,
0.0,1.0,0.64552,,,,,,perfume_06s.jpg,0.0,clockno_up.jpg,3.0,38,,,,,,,,,,,,,,,,,,0.0,10.0,10.0,10.0,1.0,,,,,,,,,,
0.0,1.0,0.544815,,,,,,coral_08s.jpg,0.0,clockno_default.jpg,3.0,38,,,,,,,,,,,,,,,,,,0.0,11.0,11.0,11.0,1.0,,,,,,,,,,
1.0,1.0,0.893315,,,,,,perfume_06s.jpg,1.0,clockno_default.jpg,3.0,38,,,,,,,,,,,,,,,,,,0.0,12.0,12.0,12.0,1.0,,,,,,,,,,
0.0,1.0,0.78772,,,,,,feather02.jpg,0.0,clockno_default.jpg,3.0,38,,,,,,,,,,,,,,,,,,0.0,13.0,13.0,13.0,1.0,,,,,,,,,,
0.0,1.0,0.78443,,,,,,coat_rack_01b.jpg,0.0,clockno_default.jpg,3.0,38,,,,,,,,,,,,,,,,,,0.0,14.0,14.0,14.0,1.0,,,,,,,,,,
0.0,1.0,0.745015,,,,,,mango_09s.jpg,0.0,clockno_default.jpg,3.0,38,,,,,,,,,,,,,,,,,,0.0,15.0,15.0,15.0,1.0,,,,,,,,,,
0.0,1.0,0.731585,,,,,,gong_02s.jpg,0.0,clockno_default.jpg,3.0,38,,,,,,,,,,,,,,,,,,0.0,16.0,16.0,16.0,1.0,,,,,,,,,,
0.0,1.0,1.18508,,,,,,pocketknife_12s.jpg,0.0,clockno_up.jpg,4.0,38,,,,,,,,,,,,,,,,,,0.0,17.0,17.0,17.0,1.0,,,,,,,,,,
0.0,1.0,0.664355,,,,,,rabbit_03s.jpg,0.0,clockno_default.jpg,4.0,38,,,,,,,,,,,,,,,,,,0.0,18.0,18.0,18.0,1.0,,,,,,,,,,
0.0,1.0,1.03881,,,,,,feather02.jpg,0.0,clockno_default.jpg,4.0,38,,,,,,,,,,,,,,,,,,0.0,19.0,19.0,19.0,1.0,,,,,,,,,,
0.0,1.0,0.83835,,,,,,ink_08s.jpg,0.0,clockno_default.jpg,4.0,38,,,,,,,,,,,,,,,,,,0.0,20.0,20.0,20.0,1.0,,,,,,,,,,
0.0,1.0,0.82784,,,,,,red_carpet_03s.jpg,0.0,clockno_default.jpg,4.0,38,,,,,,,,,,,,,,,,,,0.0,21.0,21.0,21.0,1.0,,,,,,,,,,
0.0,1.0,1.564455,,,,,,mango_09s.jpg,0.0,clockno_default.jpg,4.0,38,,,,,,,,,,,,,,,,,,0.0,22.0,22.0,22.0,1.0,,,,,,,,,,
0.0,1.0,0.691185,,,,,,smokingpipe.jpg,0.0,clockno_default.jpg,4.0,38,,,,,,,,,,,,,,,,,,0.0,23.0,23.0,23.0,1.0,,,,,,,,,,
0.0,1.0,0.8782,,,,,,raft_09s.jpg,0.0,clockno_up.jpg,5.0,38,,,,,,,,,,,,,,,,,,0.0,24.0,24.0,24.0,1.0,,,,,,,,,,
0.0,1.0,0.74471,,,,,,glasses01a.jpg,0.0,clockno_default.jpg,5.0,38,,,,,,,,,,,,,,,,,,0.0,25.0,25.0,25.0,1.0,,,,,,,,,,
0.0,1.0,0.54467,,,,,,juicer2_06s.jpg,0.0,clockno_default.jpg,5.0,38,,,,,,,,,,,,,,,,,,0.0,26.0,26.0,26.0,1.0,,,,,,,,,,
0.0,1.0,0.75836,,,,,,jalapeno_15s.jpg,0.0,clockno_default.jpg,5.0,38,,,,,,,,,,,,,,,,,,0.0,27.0,27.0,27.0,1.0,,,,,,,,,,
0.0,1.0,0.82558,,,,,,stethoscope_01b.jpg,0.0,clockno_default.jpg,5.0,38,,,,,,,,,,,,,,,,,,0.0,28.0,28.0,28.0,1.0,,,,,,,,,,
0.0,1.0,0.7182,,,,,,racehorse_03s.jpg,0.0,clockno_default.jpg,5.0,38,,,,,,,,,,,,,,,,,,0.0,29.0,29.0,29.0,1.0,,,,,,,,,,
0.0,1.0,0.6102,,,,,,eyedropper_12s.jpg,0.0,clockno_up.jpg,6.0,38,,,,,,,,,,,,,,,,,,0.0,30.0,30.0,30.0,1.0,,,,,,,,,,
0.0,1.0,0.82707,,,,,,knitting_needle_04s.jpg,0.0,clockno_default.jpg,6.0,38,,,,,,,,,,,,,,,,,,0.0,31.0,31.0,31.0,1.0,,,,,,,,,,
0.0,1.0,0.53107,,,,,,playpen_11s.jpg,0.0,clockno_default.jpg,6.0,38,,,,,,,,,,,,,,,,,,0.0,32.0,32.0,32.0,1.0,,,,,,,,,,
0.0,1.0,0.68251,,,,,,cobra_05s.jpg,0.0,clockno_default.jpg,6.0,38,,,,,,,,,,,,,,,,,,0.0,33.0,33.0,33.0,1.0,,,,,,,,,,
0.0,1.0,0.642255,,,,,,coat_rack_01b.jpg,0.0,clockno_default.jpg,6.0,38,,,,,,,,,,,,,,,,,,0.0,34.0,34.0,34.0,1.0,,,,,,,,,,
0.0,1.0,0.931455,,,,,,ice_pack_09s.jpg,0.0,clockno_default.jpg,6.0,38,,,,,,,,,,,,,,,,,,0.0,35.0,35.0,35.0,1.0,,,,,,,,,,
,,,,,,,,,0.0,,,38,1.0,0.0,1.171665,,,,,,knitting_needle_04s.jpg,stethoscope_01b.jpg,,,,,,,,,,,,,0.0,0.0,0.0,0.0,1.0,,,,,
,,,,,,,,,0.0,,,38,1.0,0.0,1.03469,,,,,,juicer2_06s.jpg,smokingpipe.jpg,,,,,,,,,,,,,0.0,1.0,1.0,1.0,1.0,,,,,
,,,,,,,,,1.0,,,38,0.0,0.0,2.365165,,,,,,jalapeno_15s.jpg,eyedropper_12s.jpg,,,,,,,,,,,,,0.0,2.0,2.0,2.0,1.0,,,,,
,,,,,,,,,1.0,,,38,1.0,1.0,1.613945,,,,,,ukulele_02s.jpg,turkey_10s.jpg,,,,,,,,,,,,,0.0,3.0,3.0,3.0,1.0,,,,,
,,,,,,,,,1.0,,,38,0.0,0.0,1.6202,,,,,,pocketknife_12s.jpg,ink_08s.jpg,,,,,,,,,,,,,0.0,4.0,4.0,4.0,1.0,,,,,
,,,,,,,,,1.0,,,38,1.0,1.0,1.233245,,,,,,playpen_11s.jpg,ice_pack_09s.jpg,,,,,,,,,,,,,0.0,5.0,5.0,5.0,1.0,,,,,
