key_resp.keys,key_resp.corr,key_resp.rt,present_segment.thisRepN,present_segment.thisTrialN,present_segment.thisN,present_segment.thisIndex,present_segment.ran,pictures,answer,clock,segment,participant,key_resp_2.keys,key_resp_2.corr,key_resp_2.rt,compare_segment.thisRepN,compare_segment.thisTrialN,compare_segment.thisN,compare_segment.thisIndex,compare_segment.ran,item_a,item_b,clock_conditions.thisRepN,clock_conditions.thisTrialN,clock_conditions.thisN,clock_conditions.thisIndex,clock_conditions.ran,present,compare,noclock_present.thisRepN,noclock_present.thisTrialN,noclock_present.thisN,noclock_present.thisIndex,noclock_present.ran,noclock_compare.thisRepN,noclock_compare.thisTrialN,noclock_compare.thisN,noclock_compare.thisIndex,noclock_compare.ran,noclock_conditions.thisRepN,noclock_conditions.thisTrialN,noclock_conditions.thisN,noclock_conditions.thisIndex,noclock_conditions.ran
0.0,1.0,1.11395,0.0,0.0,0.0,0.0,1.0,mixer_12s.jpg,0.0,clock_7_1.png,1.0,29,,,,,,,,,,,,,,,,,,,,,,,,,,,,,,,,
0.0,1.0,1.09809,0.0,1.0,1.0,1.0,1.0,mushroom_10n.jpg,0.0,clock_7_2.png,1.0,29,,,,,,,,,,,,,,,,,,,,,,,,,,,,,,,,
0.0,1.0,0.52378,0.0,2.0,2.0,2.0,1.0,ink_08s.jpg,0.0,clock_7_3.png,1.0,29,,,,,,,,,,,,,,,,,,,,,,,,,,,,,,,,
0.0,1.0,0.64978,0.0,3.0,3.0,3.0,1.0,amber_04s.jpg,0.0,clock_7_4.png,1.0,29,,,,,,,,,,,,,,,,,,,,,,,,,,,,,,,,
0.0,1.0,0.670295,0.0,4.0,4.0,4.0,1.0,glasses01a.jpg,0.0,clock_7_5.png,1.0,29,,,,,,,,,,,,,,,,,,,,,,,,,,,,,,,,
0.0,1.0,1.01172,0.0,5.0,5.0,5.0,1.0,chip_04s.jpg,0.0,clock_7_6.png,1.0,29,,,,,,,,,,,,,,,,,,,,,,,,,,,,,,,,
0.0,1.0,2.47079,0.0,6.0,6.0,6.0,1.0,kilt_18s.jpg,0.0,clock_7_7.png,1.0,29,,,,,,,,,,,,,,,,,,,,,,,,,,,,,,,,
0.0,1.0,1.449545,0.0,7.0,7.0,7.0,1.0,film_03s.jpg,0.0,clock_6_1.png,2.0,29,,,,,,,,,,,,,,,,,,,,,,,,,,,,,,,,
0.0,1.0,1.248435,0.0,8.0,8.0,8.0,1.0,footprint_11s.jpg,0.0,clock_6_2.png,2.0,29,,,,,,,,,,,,,,,,,,,,,,,,,,,,,,,,
0.0,1.0,0.758235,0.0,9.0,9.0,9.0,1.0,teacup_07s.jpg,0.0,clock_6_3.png,2.0,29,,,,,,,,,,,,,,,,,,,,,,,,,,,,,,,,
0.0,1.0,0.85232,0.0,10.0,10.0,10.0,1.0,razor_12s.jpg,0.0,clock_6_4.png,2.0,29,,,,,,,,,,,,,,,,,,,,,,,,,,,,,,,,
0.0,1.0,0.683925,0.0,11.0,11.0,11.0,1.0,turkey_10s.jpg,0.0,clock_6_5.png,2.0,29,,,,,,,,,,,,,,,,,,,,,,,,,,,,,,,,
0.0,1.0,1.22609,0.0,12.0,12.0,12.0,1.0,amber_04s.jpg,0.0,clock_6_6.png,2.0,29,,,,,,,,,,,,,,,,,,,,,,,,,,,,,,,,
0.0,1.0,1.2161,0.0,13.0,13.0,13.0,1.0,lantern_04s.jpg,0.0,clock_7_1.png,3.0,29,,,,,,,,,,,,,,,,,,,,,,,,,,,,,,,,
0.0,1.0,1.66134,0.0,14.0,14.0,14.0,1.0,film_03s.jpg,0.0,clock_7_2.png,3.0,29,,,,,,,,,,,,,,,,,,,,,,,,,,,,,,,,
0.0,1.0,0.878105,0.0,15.0,15.0,15.0,1.0,kitten_07s.jpg,0.0,clock_7_3.png,3.0,29,,,,,,,,,,,,,,,,,,,,,,,,,,,,,,,,
0.0,1.0,0.87834,0.0,16.0,16.0,16.0,1.0,mosquito_12s.jpg,0.0,clock_7_4.png,3.0,29,,,,,,,,,,,,,,,,,,,,,,,,,,,,,,,,
0.0,1.0,0.966835,0.0,17.0,17.0,17.0,1.0,memory_stick_11s.jpg,0.0,clock_7_5.png,3.0,29,,,,,,,,,,,,,,,,,,,,,,,,,,,,,,,,
0.0,1.0,0.994915,0.0,18.0,18.0,18.0,1.0,lipstick_02s.jpg,0.0,clock_7_6.png,3.0,29,,,,,,,,,,,,,,,,,,,,,,,,,,,,,,,,
1.0,1.0,1.17768,0.0,19.0,19.0,19.0,1.0,kitten_07s.jpg,1.0,clock_7_7.png,3.0,29,,,,,,,,,,,,,,,,,,,,,,,,,,,,,,,,
0.0,1.0,0.893995,0.0,20.0,20.0,20.0,1.0,mattress_01s.jpg,0.0,clock_5_1.png,4.0,29,,,,,,,,,,,,,,,,,,,,,,,,,,,,,,,,
0.0,1.0,1.077035,0.0,21.0,21.0,21.0,1.0,fondue_07s.jpg,0.0,clock_5_2.png,4.0,29,,,,,,,,,,,,,,,,,,,,,,,,,,,,,,,,
0.0,1.0,0.85639,0.0,22.0,22.0,22.0,1.0,espresso_01b.jpg,0.0,clock_5_3.png,4.0,29,,,,,,,,,,,,,,,,,,,,,,,,,,,,,,,,
0.0,1.0,1.12785,0.0,23.0,23.0,23.0,1.0,tiara_05s.jpg,0.0,clock_5_4.png,4.0,29,,,,,,,,,,,,,,,,,,,,,,,,,,,,,,,,
1.0,1.0,0.872505,0.0,24.0,24.0,24.0,1.0,espresso_01b.jpg,1.0,clock_5_5.png,4.0,29,,,,,,,,,,,,,,,,,,,,,,,,,,,,,,,,
0.0,1.0,0.86262,0.0,25.0,25.0,25.0,1.0,flask_04s.jpg,0.0,clock_6_1.png,5.0,29,,,,,,,,,,,,,,,,,,,,,,,,,,,,,,,,
0.0,1.0,0.97356,0.0,26.0,26.0,26.0,1.0,duck_01b.jpg,0.0,clock_6_2.png,5.0,29,,,,,,,,,,,,,,,,,,,,,,,,,,,,,,,,
0.0,1.0,0.920505,0.0,27.0,27.0,27.0,1.0,ukulele_02s.jpg,0.0,clock_6_3.png,5.0,29,,,,,,,,,,,,,,,,,,,,,,,,,,,,,,,,
0.0,1.0,0.923225,0.0,28.0,28.0,28.0,1.0,polaroid_05s.jpg,0.0,clock_6_4.png,5.0,29,,,,,,,,,,,,,,,,,,,,,,,,,,,,,,,,
0.0,1.0,0.867075,0.0,29.0,29.0,29.0,1.0,kite_04s.jpg,0.0,clock_6_5.png,5.0,29,,,,,,,,,,,,,,,,,,,,,,,,,,,,,,,,
1.0,1.0,0.839,0.0,30.0,30.0,30.0,1.0,kite_04s.jpg,1.0,clock_6_6.png,5.0,29,,,,,,,,,,,,,,,,,,,,,,,,,,,,,,,,
0.0,1.0,1.012435,0.0,31.0,31.0,31.0,1.0,denture_03s.jpg,0.0,clock_5_1.png,6.0,29,,,,,,,,,,,,,,,,,,,,,,,,,,,,,,,,
0.0,1.0,0.87335,0.0,32.0,32.0,32.0,1.0,frog_09s.jpg,0.0,clock_5_2.png,6.0,29,,,,,,,,,,,,,,,,,,,,,,,,,,,,,,,,
0.0,1.0,0.91516,0.0,33.0,33.0,33.0,1.0,diving_board_07s.jpg,0.0,clock_5_3.png,6.0,29,,,,,,,,,,,,,,,,,,,,,,,,,,,,,,,,
1.0,1.0,1.49327,0.0,34.0,34.0,34.0,1.0,denture_03s.jpg,1.0,clock_5_4.png,6.0,29,,,,,,,,,,,,,,,,,,,,,,,,,,,,,,,,
0.0,1.0,0.99551,0.0,35.0,35.0,35.0,1.0,telephone_pole_05s.jpg,0.0,clock_5_5.png,6.0,29,,,,,,,,,,,,,,,,,,,,,,,,,,,,,,,,
,,,,,,,,,1.0,,,29,1.0,1.0,1.561655,0.0,0.0,0.0,0.0,1.0,kilt_18s.jpg,teacup_07s.jpg,,,,,,,,,,,,,,,,,,,,,,
,,,,,,,,,1.0,,,29,1.0,1.0,2.115765,0.0,1.0,1.0,1.0,1.0,lipstick_02s.jpg,fondue_07s.jpg,,,,,,,,,,,,,,,,,,,,,,
,,,,,,,,,0.0,,,29,0.0,1.0,1.433445,0.0,2.0,2.0,2.0,1.0,lantern_04s.jpg,razor_12s.jpg,,,,,,,,,,,,,,,,,,,,,,
,,,,,,,,,0.0,,,29,0.0,1.0,1.19572,0.0,3.0,3.0,3.0,1.0,glasses01a.jpg,mushroom_10n.jpg,,,,,,,,,,,,,,,,,,,,,,
,,,,,,,,,0.0,,,29,0.0,1.0,1.769045,0.0,4.0,4.0,4.0,1.0,polaroid_05s.jpg,flask_04s.jpg,,,,,,,,,,,,,,,,,,,,,,
,,,,,,,,,1.0,,,29,0.0,0.0,1.66497,0.0,5.0,5.0,5.0,1.0,frog_09s.jpg,telephone_pole_05s.jpg,,,,,,,,,,,,,,,,,,,,,,
,,,,,,,,,,,,29,,,,,,,,,,,0.0,0.0,0.0,0.0,1.0,clock_present_1_8.xlsx,clock_compare_task_1_8.xlsx,,,,,,,,,,,,,,,
0.0,1.0,0.71735,0.0,0.0,0.0,0.0,1.0,spatula04.jpg,0.0,clock_5_1.png,1.0,29,,,,,,,,,,,,,,,,,,,,,,,,,,,,,,,,
0.0,1.0,1.17449,0.0,1.0,1.0,1.0,1.0,cardinal_07s.jpg,0.0,clock_5_2.png,1.0,29,,,,,,,,,,,,,,,,,,,,,,,,,,,,,,,,
1.0,1.0,0.894165,0.0,2.0,2.0,2.0,1.0,spatula04.jpg,1.0,clock_5_3.png,1.0,29,,,,,,,,,,,,,,,,,,,,,,,,,,,,,,,,
0.0,1.0,0.67522,0.0,3.0,3.0,3.0,1.0,fossil_06s.jpg,0.0,clock_5_4.png,1.0,29,,,,,,,,,,,,,,,,,,,,,,,,,,,,,,,,
0.0,1.0,0.86528,0.0,4.0,4.0,4.0,1.0,lavender_10s.jpg,0.0,clock_5_5.png,1.0,29,,,,,,,,,,,,,,,,,,,,,,,,,,,,,,,,
0.0,1.0,0.82634,0.0,5.0,5.0,5.0,1.0,dashboard_02s.jpg,0.0,clock_7_1.png,2.0,29,,,,,,,,,,,,,,,,,,,,,,,,,,,,,,,,
1.0,1.0,1.059755,0.0,6.0,6.0,6.0,1.0,dashboard_02s.jpg,1.0,clock_7_2.png,2.0,29,,,,,,,,,,,,,,,,,,,,,,,,,,,,,,,,
0.0,1.0,0.694465,0.0,7.0,7.0,7.0,1.0,rudder_02s.jpg,0.0,clock_7_3.png,2.0,29,,,,,,,,,,,,,,,,,,,,,,,,,,,,,,,,
0.0,1.0,0.8303,0.0,8.0,8.0,8.0,1.0,loveseat_08s.jpg,0.0,clock_7_4.png,2.0,29,,,,,,,,,,,,,,,,,,,,,,,,,,,,,,,,
0.0,1.0,0.765945,0.0,9.0,9.0,9.0,1.0,hydrant_10s.jpg,0.0,clock_7_5.png,2.0,29,,,,,,,,,,,,,,,,,,,,,,,,,,,,,,,,
0.0,1.0,1.039335,0.0,10.0,10.0,10.0,1.0,seagull_01b.jpg,0.0,clock_7_6.png,2.0,29,,,,,,,,,,,,,,,,,,,,,,,,,,,,,,,,
1.0,0.0,0.863815,0.0,11.0,11.0,11.0,1.0,cardinal_07s.jpg,0.0,clock_7_7.png,2.0,29,,,,,,,,,,,,,,,,,,,,,,,,,,,,,,,,
0.0,1.0,0.94507,0.0,12.0,12.0,12.0,1.0,bottle_opener_11s.jpg,0.0,clock_5_1.png,3.0,29,,,,,,,,,,,,,,,,,,,,,,,,,,,,,,,,
0.0,1.0,0.652275,0.0,13.0,13.0,13.0,1.0,mirror_12s.jpg,0.0,clock_5_2.png,3.0,29,,,,,,,,,,,,,,,,,,,,,,,,,,,,,,,,
0.0,1.0,0.61932,0.0,14.0,14.0,14.0,1.0,candy_cane_06s.jpg,0.0,clock_5_3.png,3.0,29,,,,,,,,,,,,,,,,,,,,,,,,,,,,,,,,
0.0,1.0,0.77764,0.0,15.0,15.0,15.0,1.0,aluminum_foil_08s.jpg,0.0,clock_5_4.png,3.0,29,,,,,,,,,,,,,,,,,,,,,,,,,,,,,,,,
0.0,1.0,1.162635,0.0,16.0,16.0,16.0,1.0,latte_06s.jpg,0.0,clock_5_5.png,3.0,29,,,,,,,,,,,,,,,,,,,,,,,,,,,,,,,,
0.0,1.0,1.64429,0.0,17.0,17.0,17.0,1.0,sledgehammer_03s.jpg,0.0,clock_6_1.png,4.0,29,,,,,,,,,,,,,,,,,,,,,,,,,,,,,,,,
1.0,1.0,0.769375,0.0,18.0,18.0,18.0,1.0,sledgehammer_03s.jpg,1.0,clock_6_2.png,4.0,29,,,,,,,,,,,,,,,,,,,,,,,,,,,,,,,,
0.0,1.0,0.617615,0.0,19.0,19.0,19.0,1.0,rosary_03s.jpg,0.0,clock_6_3.png,4.0,29,,,,,,,,,,,,,,,,,,,,,,,,,,,,,,,,
0.0,1.0,0.66504,0.0,20.0,20.0,20.0,1.0,crossbow_10s.jpg,0.0,clock_6_4.png,4.0,29,,,,,,,,,,,,,,,,,,,,,,,,,,,,,,,,
1.0,1.0,1.04485,0.0,21.0,21.0,21.0,1.0,rosary_03s.jpg,1.0,clock_6_5.png,4.0,29,,,,,,,,,,,,,,,,,,,,,,,,,,,,,,,,
1.0,1.0,1.295655,0.0,22.0,22.0,22.0,1.0,sledgehammer_03s.jpg,1.0,clock_6_6.png,4.0,29,,,,,,,,,,,,,,,,,,,,,,,,,,,,,,,,
0.0,1.0,1.25265,0.0,23.0,23.0,23.0,1.0,ticktacktoe_08s.jpg,0.0,clock_7_1.png,5.0,29,,,,,,,,,,,,,,,,,,,,,,,,,,,,,,,,
0.0,1.0,0.66979,0.0,24.0,24.0,24.0,1.0,swimming_pool_17s.jpg,0.0,clock_7_2.png,5.0,29,,,,,,,,,,,,,,,,,,,,,,,,,,,,,,,,
1.0,1.0,0.95011,0.0,25.0,25.0,25.0,1.0,swimming_pool_17s.jpg,1.0,clock_7_3.png,5.0,29,,,,,,,,,,,,,,,,,,,,,,,,,,,,,,,,
0.0,1.0,0.769385,0.0,26.0,26.0,26.0,1.0,bagel_15s.jpg,0.0,clock_7_4.png,5.0,29,,,,,,,,,,,,,,,,,,,,,,,,,,,,,,,,
0.0,1.0,1.4404,0.0,27.0,27.0,27.0,1.0,rosary_03s.jpg,0.0,clock_7_5.png,5.0,29,,,,,,,,,,,,,,,,,,,,,,,,,,,,,,,,
0.0,1.0,0.668115,0.0,28.0,28.0,28.0,1.0,lavender_10s.jpg,0.0,clock_7_6.png,5.0,29,,,,,,,,,,,,,,,,,,,,,,,,,,,,,,,,
0.0,1.0,0.72735,0.0,29.0,29.0,29.0,1.0,bean_06s.jpg,0.0,clock_7_7.png,5.0,29,,,,,,,,,,,,,,,,,,,,,,,,,,,,,,,,
0.0,1.0,0.806545,0.0,30.0,30.0,30.0,1.0,radiator_05s.jpg,0.0,clock_6_1.png,6.0,29,,,,,,,,,,,,,,,,,,,,,,,,,,,,,,,,
0.0,1.0,0.696275,0.0,31.0,31.0,31.0,1.0,ladle_04s.jpg,0.0,clock_6_2.png,6.0,29,,,,,,,,,,,,,,,,,,,,,,,,,,,,,,,,
0.0,1.0,0.888845,0.0,32.0,32.0,32.0,1.0,beaker_01b.jpg,0.0,clock_6_3.png,6.0,29,,,,,,,,,,,,,,,,,,,,,,,,,,,,,,,,
0.0,1.0,0.642325,0.0,33.0,33.0,33.0,1.0,sundae_08s.jpg,0.0,clock_6_4.png,6.0,29,,,,,,,,,,,,,,,,,,,,,,,,,,,,,,,,
0.0,1.0,0.98169,0.0,34.0,34.0,34.0,1.0,frame_06s.jpg,0.0,clock_6_5.png,6.0,29,,,,,,,,,,,,,,,,,,,,,,,,,,,,,,,,
0.0,1.0,0.63712,0.0,35.0,35.0,35.0,1.0,coat_rack_01b.jpg,0.0,clock_6_6.png,6.0,29,,,,,,,,,,,,,,,,,,,,,,,,,,,,,,,,
,,,,,,,,,1.0,,,29,0.0,0.0,2.43132,0.0,0.0,0.0,0.0,1.0,hydrant_10s.jpg,bottle_opener_11s.jpg,,,,,,,,,,,,,,,,,,,,,,
,,,,,,,,,0.0,,,29,0.0,1.0,1.57616,0.0,1.0,1.0,1.0,1.0,ticktacktoe_08s.jpg,crossbow_10s.jpg,,,,,,,,,,,,,,,,,,,,,,
,,,,,,,,,1.0,,,29,1.0,1.0,1.41366,0.0,2.0,2.0,2.0,1.0,seagull_01b.jpg,mirror_12s.jpg,,,,,,,,,,,,,,,,,,,,,,
,,,,,,,,,0.0,,,29,0.0,1.0,1.22742,0.0,3.0,3.0,3.0,1.0,sundae_08s.jpg,radiator_05s.jpg,,,,,,,,,,,,,,,,,,,,,,
,,,,,,,,,0.0,,,29,0.0,1.0,2.305825,0.0,4.0,4.0,4.0,1.0,frame_06s.jpg,ladle_04s.jpg,,,,,,,,,,,,,,,,,,,,,,
,,,,,,,,,0.0,,,29,1.0,0.0,1.62043,0.0,5.0,5.0,5.0,1.0,bean_06s.jpg,bagel_15s.jpg,,,,,,,,,,,,,,,,,,,,,,
,,,,,,,,,,,,29,,,,,,,,,,,0.0,1.0,1.0,1.0,1.0,clock_present_2_8.xlsx,clock_compare_task_2_8.xlsx,,,,,,,,,,,,,,,
0.0,1.0,0.95092,0.0,0.0,0.0,0.0,1.0,blender_08s.jpg,0.0,clock_7_1.png,1.0,29,,,,,,,,,,,,,,,,,,,,,,,,,,,,,,,,
0.0,1.0,1.040805,0.0,1.0,1.0,1.0,1.0,knot_01b.jpg,0.0,clock_7_2.png,1.0,29,,,,,,,,,,,,,,,,,,,,,,,,,,,,,,,,
1.0,1.0,0.81889,0.0,2.0,2.0,2.0,1.0,blender_08s.jpg,1.0,clock_7_3.png,1.0,29,,,,,,,,,,,,,,,,,,,,,,,,,,,,,,,,
1.0,1.0,0.616195,0.0,3.0,3.0,3.0,1.0,blender_08s.jpg,1.0,clock_7_4.png,1.0,29,,,,,,,,,,,,,,,,,,,,,,,,,,,,,,,,
0.0,1.0,0.646235,0.0,4.0,4.0,4.0,1.0,joystick_01b.jpg,0.0,clock_7_5.png,1.0,29,,,,,,,,,,,,,,,,,,,,,,,,,,,,,,,,
0.0,1.0,0.92878,0.0,5.0,5.0,5.0,1.0,tuxedo_01b.jpg,0.0,clock_7_6.png,1.0,29,,,,,,,,,,,,,,,,,,,,,,,,,,,,,,,,
0.0,1.0,0.824065,0.0,6.0,6.0,6.0,1.0,lid_10s.jpg,0.0,clock_7_7.png,1.0,29,,,,,,,,,,,,,,,,,,,,,,,,,,,,,,,,
0.0,1.0,0.89929,0.0,7.0,7.0,7.0,1.0,bubble_01b.jpg,0.0,clock_5_1.png,2.0,29,,,,,,,,,,,,,,,,,,,,,,,,,,,,,,,,
0.0,1.0,0.58241,0.0,8.0,8.0,8.0,1.0,stopwatch_04s.jpg,0.0,clock_5_2.png,2.0,29,,,,,,,,,,,,,,,,,,,,,,,,,,,,,,,,
0.0,1.0,0.57675,0.0,9.0,9.0,9.0,1.0,mud_13s.jpg,0.0,clock_5_3.png,2.0,29,,,,,,,,,,,,,,,,,,,,,,,,,,,,,,,,
0.0,1.0,1.14935,0.0,10.0,10.0,10.0,1.0,joystick_01b.jpg,0.0,clock_5_4.png,2.0,29,,,,,,,,,,,,,,,,,,,,,,,,,,,,,,,,
0.0,1.0,1.07845,0.0,11.0,11.0,11.0,1.0,printer_09s.jpg,0.0,clock_5_5.png,2.0,29,,,,,,,,,,,,,,,,,,,,,,,,,,,,,,,,
0.0,1.0,1.356625,0.0,12.0,12.0,12.0,1.0,totem_pole_05s.jpg,0.0,clock_7_1.png,3.0,29,,,,,,,,,,,,,,,,,,,,,,,,,,,,,,,,
0.0,1.0,0.75805,0.0,13.0,13.0,13.0,1.0,eiffeltower.jpg,0.0,clock_7_2.png,3.0,29,,,,,,,,,,,,,,,,,,,,,,,,,,,,,,,,
0.0,1.0,0.87864,0.0,14.0,14.0,14.0,1.0,bathtub_23s.jpg,0.0,clock_7_3.png,3.0,29,,,,,,,,,,,,,,,,,,,,,,,,,,,,,,,,
1.0,1.0,0.952445,0.0,15.0,15.0,15.0,1.0,eiffeltower.jpg,1.0,clock_7_4.png,3.0,29,,,,,,,,,,,,,,,,,,,,,,,,,,,,,,,,
1.0,1.0,0.94245,0.0,16.0,16.0,16.0,1.0,totem_pole_05s.jpg,1.0,clock_7_5.png,3.0,29,,,,,,,,,,,,,,,,,,,,,,,,,,,,,,,,
0.0,1.0,0.840655,0.0,17.0,17.0,17.0,1.0,jetski_10s.jpg,0.0,clock_7_6.png,3.0,29,,,,,,,,,,,,,,,,,,,,,,,,,,,,,,,,
0.0,1.0,0.766605,0.0,18.0,18.0,18.0,1.0,pillbox_04s.jpg,0.0,clock_7_7.png,3.0,29,,,,,,,,,,,,,,,,,,,,,,,,,,,,,,,,
0.0,1.0,1.22364,0.0,19.0,19.0,19.0,1.0,coconut_08s.jpg,0.0,clock_6_1.png,4.0,29,,,,,,,,,,,,,,,,,,,,,,,,,,,,,,,,
0.0,1.0,1.06351,0.0,20.0,20.0,20.0,1.0,lid_10s.jpg,0.0,clock_6_2.png,4.0,29,,,,,,,,,,,,,,,,,,,,,,,,,,,,,,,,
0.0,1.0,0.97432,0.0,21.0,21.0,21.0,1.0,inhaler_01b.jpg,0.0,clock_6_3.png,4.0,29,,,,,,,,,,,,,,,,,,,,,,,,,,,,,,,,
0.0,1.0,0.877535,0.0,22.0,22.0,22.0,1.0,printer_09s.jpg,0.0,clock_6_4.png,4.0,29,,,,,,,,,,,,,,,,,,,,,,,,,,,,,,,,
0.0,1.0,0.5986,0.0,23.0,23.0,23.0,1.0,trampoline_13s.jpg,0.0,clock_6_5.png,4.0,29,,,,,,,,,,,,,,,,,,,,,,,,,,,,,,,,
0.0,1.0,0.74386,0.0,24.0,24.0,24.0,1.0,crab_16s.jpg,0.0,clock_6_6.png,4.0,29,,,,,,,,,,,,,,,,,,,,,,,,,,,,,,,,
0.0,1.0,0.881495,0.0,25.0,25.0,25.0,1.0,thread_08s.jpg,0.0,clock_5_1.png,5.0,29,,,,,,,,,,,,,,,,,,,,,,,,,,,,,,,,
0.0,1.0,0.89583,0.0,26.0,26.0,26.0,1.0,trampoline_13s.jpg,0.0,clock_5_2.png,5.0,29,,,,,,,,,,,,,,,,,,,,,,,,,,,,,,,,
0.0,1.0,0.79363,0.0,27.0,27.0,27.0,1.0,jetski_10s.jpg,0.0,clock_5_3.png,5.0,29,,,,,,,,,,,,,,,,,,,,,,,,,,,,,,,,
0.0,1.0,0.678195,0.0,28.0,28.0,28.0,1.0,turnstile_08s.jpg,0.0,clock_5_4.png,5.0,29,,,,,,,,,,,,,,,,,,,,,,,,,,,,,,,,
0.0,1.0,0.660995,0.0,29.0,29.0,29.0,1.0,bonsai_07s.jpg,0.0,clock_5_5.png,5.0,29,,,,,,,,,,,,,,,,,,,,,,,,,,,,,,,,
0.0,1.0,0.630615,0.0,30.0,30.0,30.0,1.0,surfboard_11s.jpg,0.0,clock_6_1.png,6.0,29,,,,,,,,,,,,,,,,,,,,,,,,,,,,,,,,
0.0,1.0,0.591745,0.0,31.0,31.0,31.0,1.0,touchpad_11s.jpg,0.0,clock_6_2.png,6.0,29,,,,,,,,,,,,,,,,,,,,,,,,,,,,,,,,
0.0,1.0,0.70002,0.0,32.0,32.0,32.0,1.0,tab_09s.jpg,0.0,clock_6_3.png,6.0,29,,,,,,,,,,,,,,,,,,,,,,,,,,,,,,,,
0.0,1.0,0.680745,0.0,33.0,33.0,33.0,1.0,tambourine_06s.jpg,0.0,clock_6_4.png,6.0,29,,,,,,,,,,,,,,,,,,,,,,,,,,,,,,,,
0.0,1.0,0.8591,0.0,34.0,34.0,34.0,1.0,tube_top_03s.jpg,0.0,clock_6_5.png,6.0,29,,,,,,,,,,,,,,,,,,,,,,,,,,,,,,,,
0.0,1.0,0.876915,0.0,35.0,35.0,35.0,1.0,mud_13s.jpg,0.0,clock_6_6.png,6.0,29,,,,,,,,,,,,,,,,,,,,,,,,,,,,,,,,
,,,,,,,,,1.0,,,29,0.0,0.0,2.057295,0.0,0.0,0.0,0.0,1.0,tuxedo_01b.jpg,stopwatch_04s.jpg,,,,,,,,,,,,,,,,,,,,,,
,,,,,,,,,0.0,,,29,0.0,1.0,2.16,0.0,1.0,1.0,1.0,1.0,tab_09s.jpg,bonsai_07s.jpg,,,,,,,,,,,,,,,,,,,,,,
,,,,,,,,,0.0,,,29,1.0,0.0,1.70548,0.0,2.0,2.0,2.0,1.0,inhaler_01b.jpg,pillbox_04s.jpg,,,,,,,,,,,,,,,,,,,,,,
,,,,,,,,,1.0,,,29,1.0,1.0,1.353815,0.0,3.0,3.0,3.0,1.0,surfboard_11s.jpg,tambourine_06s.jpg,,,,,,,,,,,,,,,,,,,,,,
,,,,,,,,,0.0,,,29,0.0,1.0,1.364725,0.0,4.0,4.0,4.0,1.0,turnstile_08s.jpg,thread_08s.jpg,,,,,,,,,,,,,,,,,,,,,,
,,,,,,,,,0.0,,,29,0.0,1.0,1.21089,0.0,5.0,5.0,5.0,1.0,tube_top_03s.jpg,touchpad_11s.jpg,,,,,,,,,,,,,,,,,,,,,,
,,,,,,,,,,,,29,,,,,,,,,,,0.0,2.0,2.0,2.0,1.0,clock_present_3_8.xlsx,clock_compare_task_3_8.xlsx,,,,,,,,,,,,,,,
0.0,1.0,0.85277,0.0,0.0,0.0,0.0,1.0,rug_09s.jpg,0.0,clock_5_1.png,1.0,29,,,,,,,,,,,,,,,,,,,,,,,,,,,,,,,,
1.0,1.0,0.776505,0.0,1.0,1.0,1.0,1.0,rug_09s.jpg,1.0,clock_5_2.png,1.0,29,,,,,,,,,,,,,,,,,,,,,,,,,,,,,,,,
0.0,1.0,0.634925,0.0,2.0,2.0,2.0,1.0,pear_02s.jpg,0.0,clock_5_3.png,1.0,29,,,,,,,,,,,,,,,,,,,,,,,,,,,,,,,,
1.0,1.0,0.91217,0.0,3.0,3.0,3.0,1.0,rug_09s.jpg,1.0,clock_5_4.png,1.0,29,,,,,,,,,,,,,,,,,,,,,,,,,,,,,,,,
0.0,1.0,0.90935,0.0,4.0,4.0,4.0,1.0,lasagna_06s.jpg,0.0,clock_5_5.png,1.0,29,,,,,,,,,,,,,,,,,,,,,,,,,,,,,,,,
0.0,1.0,0.937435,0.0,5.0,5.0,5.0,1.0,crayon_09s.jpg,0.0,clock_6_1.png,2.0,29,,,,,,,,,,,,,,,,,,,,,,,,,,,,,,,,
0.0,1.0,0.78838,0.0,6.0,6.0,6.0,1.0,puppet_01b.jpg,0.0,clock_6_2.png,2.0,29,,,,,,,,,,,,,,,,,,,,,,,,,,,,,,,,
0.0,1.0,0.795985,0.0,7.0,7.0,7.0,1.0,clover_04s.jpg,0.0,clock_6_3.png,2.0,29,,,,,,,,,,,,,,,,,,,,,,,,,,,,,,,,
0.0,1.0,0.971145,0.0,8.0,8.0,8.0,1.0,eyedropper_12s.jpg,0.0,clock_6_4.png,2.0,29,,,,,,,,,,,,,,,,,,,,,,,,,,,,,,,,
0.0,1.0,0.66873,0.0,9.0,9.0,9.0,1.0,compass_10n.jpg,0.0,clock_6_5.png,2.0,29,,,,,,,,,,,,,,,,,,,,,,,,,,,,,,,,
0.0,1.0,0.749555,0.0,10.0,10.0,10.0,1.0,beard_16s.jpg,0.0,clock_6_6.png,2.0,29,,,,,,,,,,,,,,,,,,,,,,,,,,,,,,,,
0.0,1.0,1.141945,0.0,11.0,11.0,11.0,1.0,paintbrush_04s.jpg,0.0,clock_7_1.png,3.0,29,,,,,,,,,,,,,,,,,,,,,,,,,,,,,,,,
0.0,1.0,0.867475,0.0,12.0,12.0,12.0,1.0,typewriter_11s.jpg,0.0,clock_7_2.png,3.0,29,,,,,,,,,,,,,,,,,,,,,,,,,,,,,,,,
0.0,1.0,0.66855,0.0,13.0,13.0,13.0,1.0,peach_04s.jpg,0.0,clock_7_3.png,3.0,29,,,,,,,,,,,,,,,,,,,,,,,,,,,,,,,,
0.0,1.0,0.81514,0.0,14.0,14.0,14.0,1.0,punch1_10s.jpg,0.0,clock_7_4.png,3.0,29,,,,,,,,,,,,,,,,,,,,,,,,,,,,,,,,
0.0,1.0,0.73844,0.0,15.0,15.0,15.0,1.0,glue_01s.jpg,0.0,clock_7_5.png,3.0,29,,,,,,,,,,,,,,,,,,,,,,,,,,,,,,,,
0.0,1.0,0.79877,0.0,16.0,16.0,16.0,1.0,magnet_03s.jpg,0.0,clock_7_6.png,3.0,29,,,,,,,,,,,,,,,,,,,,,,,,,,,,,,,,
0.0,1.0,0.80335,0.0,17.0,17.0,17.0,1.0,fur_coat_11s.jpg,0.0,clock_7_7.png,3.0,29,,,,,,,,,,,,,,,,,,,,,,,,,,,,,,,,
0.0,1.0,1.09871,0.0,18.0,18.0,18.0,1.0,marker_05s.jpg,0.0,clock_7_1.png,4.0,29,,,,,,,,,,,,,,,,,,,,,,,,,,,,,,,,
1.0,1.0,1.01554,0.0,19.0,19.0,19.0,1.0,marker_05s.jpg,1.0,clock_7_2.png,4.0,29,,,,,,,,,,,,,,,,,,,,,,,,,,,,,,,,
0.0,1.0,1.32353,0.0,20.0,20.0,20.0,1.0,rug_09s.jpg,0.0,clock_7_3.png,4.0,29,,,,,,,,,,,,,,,,,,,,,,,,,,,,,,,,
0.0,1.0,0.898585,0.0,21.0,21.0,21.0,1.0,abacus_12s.jpg,0.0,clock_7_4.png,4.0,29,,,,,,,,,,,,,,,,,,,,,,,,,,,,,,,,
0.0,1.0,0.81471,0.0,22.0,22.0,22.0,1.0,toy_04s.jpg,0.0,clock_7_5.png,4.0,29,,,,,,,,,,,,,,,,,,,,,,,,,,,,,,,,
0.0,1.0,1.072575,0.0,23.0,23.0,23.0,1.0,air_pump_05s.jpg,0.0,clock_7_6.png,4.0,29,,,,,,,,,,,,,,,,,,,,,,,,,,,,,,,,
0.0,1.0,0.912215,0.0,24.0,24.0,24.0,1.0,rhubarb_03s.jpg,0.0,clock_7_7.png,4.0,29,,,,,,,,,,,,,,,,,,,,,,,,,,,,,,,,
0.0,1.0,0.91093,0.0,25.0,25.0,25.0,1.0,boar_10s.jpg,0.0,clock_6_1.png,5.0,29,,,,,,,,,,,,,,,,,,,,,,,,,,,,,,,,
0.0,1.0,0.868405,0.0,26.0,26.0,26.0,1.0,abacus_12s.jpg,0.0,clock_6_2.png,5.0,29,,,,,,,,,,,,,,,,,,,,,,,,,,,,,,,,
0.0,1.0,0.99387,0.0,27.0,27.0,27.0,1.0,potpourri_03s.jpg,0.0,clock_6_3.png,5.0,29,,,,,,,,,,,,,,,,,,,,,,,,,,,,,,,,
0.0,1.0,1.303145,0.0,28.0,28.0,28.0,1.0,typewriter_11s.jpg,0.0,clock_6_4.png,5.0,29,,,,,,,,,,,,,,,,,,,,,,,,,,,,,,,,
0.0,1.0,0.844845,0.0,29.0,29.0,29.0,1.0,pea_11s.jpg,0.0,clock_6_5.png,5.0,29,,,,,,,,,,,,,,,,,,,,,,,,,,,,,,,,
0.0,1.0,0.720365,0.0,30.0,30.0,30.0,1.0,polar_bear_02s.jpg,0.0,clock_6_6.png,5.0,29,,,,,,,,,,,,,,,,,,,,,,,,,,,,,,,,
0.0,1.0,0.9956,0.0,31.0,31.0,31.0,1.0,laundry_basket_11s.jpg,0.0,clock_5_1.png,6.0,29,,,,,,,,,,,,,,,,,,,,,,,,,,,,,,,,
0.0,1.0,0.694705,0.0,32.0,32.0,32.0,1.0,chopsticks_08s.jpg,0.0,clock_5_2.png,6.0,29,,,,,,,,,,,,,,,,,,,,,,,,,,,,,,,,
1.0,1.0,1.92427,0.0,33.0,33.0,33.0,1.0,chopsticks_08s.jpg,1.0,clock_5_3.png,6.0,29,,,,,,,,,,,,,,,,,,,,,,,,,,,,,,,,
0.0,1.0,0.674855,0.0,34.0,34.0,34.0,1.0,safety_pin_02s.jpg,0.0,clock_5_4.png,6.0,29,,,,,,,,,,,,,,,,,,,,,,,,,,,,,,,,
0.0,1.0,0.679395,0.0,35.0,35.0,35.0,1.0,cobra_05s.jpg,0.0,clock_5_5.png,6.0,29,,,,,,,,,,,,,,,,,,,,,,,,,,,,,,,,
,,,,,,,,,0.0,,,29,1.0,0.0,2.698085,0.0,0.0,0.0,0.0,1.0,boar_10s.jpg,toy_04s.jpg,,,,,,,,,,,,,,,,,,,,,,
,,,,,,,,,0.0,,,29,1.0,0.0,1.749445,0.0,1.0,1.0,1.0,1.0,crayon_09s.jpg,pear_02s.jpg,,,,,,,,,,,,,,,,,,,,,,
,,,,,,,,,1.0,,,29,1.0,1.0,1.722975,0.0,2.0,2.0,2.0,1.0,lasagna_06s.jpg,clover_04s.jpg,,,,,,,,,,,,,,,,,,,,,,
,,,,,,,,,1.0,,,29,1.0,1.0,1.288535,0.0,3.0,3.0,3.0,1.0,puppet_01b.jpg,compass_10n.jpg,,,,,,,,,,,,,,,,,,,,,,
,,,,,,,,,0.0,,,29,0.0,1.0,1.98739,0.0,4.0,4.0,4.0,1.0,fur_coat_11s.jpg,punch1_10s.jpg,,,,,,,,,,,,,,,,,,,,,,
,,,,,,,,,1.0,,,29,1.0,1.0,1.14526,0.0,5.0,5.0,5.0,1.0,laundry_basket_11s.jpg,safety_pin_02s.jpg,,,,,,,,,,,,,,,,,,,,,,
,,,,,,,,,,,,29,,,,,,,,,,,0.0,3.0,3.0,3.0,1.0,clock_present_4_8.xlsx,clock_compare_task_4_8.xlsx,,,,,,,,,,,,,,,
0.0,1.0,1.155375,0.0,0.0,0.0,0.0,1.0,projector_08s.jpg,0.0,clock_5_1.png,1.0,29,,,,,,,,,,,,,,,,,,,,,,,,,,,,,,,,
0.0,1.0,0.81268,0.0,1.0,1.0,1.0,1.0,gingerbread_man_03s.jpg,0.0,clock_5_2.png,1.0,29,,,,,,,,,,,,,,,,,,,,,,,,,,,,,,,,
1.0,1.0,0.936545,0.0,2.0,2.0,2.0,1.0,gingerbread_man_03s.jpg,1.0,clock_5_3.png,1.0,29,,,,,,,,,,,,,,,,,,,,,,,,,,,,,,,,
1.0,1.0,0.981265,0.0,3.0,3.0,3.0,1.0,projector_08s.jpg,1.0,clock_5_4.png,1.0,29,,,,,,,,,,,,,,,,,,,,,,,,,,,,,,,,
1.0,1.0,0.936735,0.0,4.0,4.0,4.0,1.0,projector_08s.jpg,1.0,clock_5_5.png,1.0,29,,,,,,,,,,,,,,,,,,,,,,,,,,,,,,,,
0.0,1.0,0.66999,0.0,5.0,5.0,5.0,1.0,sunflower_17s.jpg,0.0,clock_5_1.png,2.0,29,,,,,,,,,,,,,,,,,,,,,,,,,,,,,,,,
0.0,1.0,0.947405,0.0,6.0,6.0,6.0,1.0,gingerbread_man_03s.jpg,0.0,clock_5_2.png,2.0,29,,,,,,,,,,,,,,,,,,,,,,,,,,,,,,,,
0.0,1.0,0.78922,0.0,7.0,7.0,7.0,1.0,puppy_08s.jpg,0.0,clock_5_3.png,2.0,29,,,,,,,,,,,,,,,,,,,,,,,,,,,,,,,,
0.0,1.0,0.776875,0.0,8.0,8.0,8.0,1.0,quill_09s.jpg,0.0,clock_5_4.png,2.0,29,,,,,,,,,,,,,,,,,,,,,,,,,,,,,,,,
0.0,1.0,0.9722,0.0,9.0,9.0,9.0,1.0,mascara_03s.jpg,0.0,clock_5_5.png,2.0,29,,,,,,,,,,,,,,,,,,,,,,,,,,,,,,,,
0.0,1.0,0.828195,0.0,10.0,10.0,10.0,1.0,lifesaver_10s.jpg,0.0,clock_6_1.png,3.0,29,,,,,,,,,,,,,,,,,,,,,,,,,,,,,,,,
0.0,1.0,1.0004,0.0,11.0,11.0,11.0,1.0,lollipop_08s.jpg,0.0,clock_6_2.png,3.0,29,,,,,,,,,,,,,,,,,,,,,,,,,,,,,,,,
0.0,1.0,0.82365,0.0,12.0,12.0,12.0,1.0,stapler_01b.jpg,0.0,clock_6_3.png,3.0,29,,,,,,,,,,,,,,,,,,,,,,,,,,,,,,,,
0.0,1.0,0.829675,0.0,13.0,13.0,13.0,1.0,panda_02s.jpg,0.0,clock_6_4.png,3.0,29,,,,,,,,,,,,,,,,,,,,,,,,,,,,,,,,
0.0,1.0,0.8407,0.0,14.0,14.0,14.0,1.0,puddle_02s.jpg,0.0,clock_6_5.png,3.0,29,,,,,,,,,,,,,,,,,,,,,,,,,,,,,,,,
0.0,0.0,1.27548,0.0,15.0,15.0,15.0,1.0,lifesaver_10s.jpg,1.0,clock_6_6.png,3.0,29,,,,,,,,,,,,,,,,,,,,,,,,,,,,,,,,
0.0,1.0,1.112875,0.0,16.0,16.0,16.0,1.0,key_07s.jpg,0.0,clock_6_1.png,4.0,29,,,,,,,,,,,,,,,,,,,,,,,,,,,,,,,,
0.0,1.0,0.784895,0.0,17.0,17.0,17.0,1.0,toilet_paper_12s.jpg,0.0,clock_6_2.png,4.0,29,,,,,,,,,,,,,,,,,,,,,,,,,,,,,,,,
0.0,1.0,0.73162,0.0,18.0,18.0,18.0,1.0,doily_13s.jpg,0.0,clock_6_3.png,4.0,29,,,,,,,,,,,,,,,,,,,,,,,,,,,,,,,,
0.0,1.0,0.75535,0.0,19.0,19.0,19.0,1.0,ginger_09s.jpg,0.0,clock_6_4.png,4.0,29,,,,,,,,,,,,,,,,,,,,,,,,,,,,,,,,
0.0,1.0,0.67563,0.0,20.0,20.0,20.0,1.0,eggshell_14s.jpg,0.0,clock_6_5.png,4.0,29,,,,,,,,,,,,,,,,,,,,,,,,,,,,,,,,
0.0,1.0,1.04202,0.0,21.0,21.0,21.0,1.0,refrigerator_07s.jpg,0.0,clock_6_6.png,4.0,29,,,,,,,,,,,,,,,,,,,,,,,,,,,,,,,,
0.0,1.0,1.322255,0.0,22.0,22.0,22.0,1.0,oil_02s.jpg,0.0,clock_7_1.png,5.0,29,,,,,,,,,,,,,,,,,,,,,,,,,,,,,,,,
1.0,1.0,0.81576,0.0,23.0,23.0,23.0,1.0,oil_02s.jpg,1.0,clock_7_2.png,5.0,29,,,,,,,,,,,,,,,,,,,,,,,,,,,,,,,,
0.0,1.0,0.926875,0.0,24.0,24.0,24.0,1.0,fox_13s.jpg,0.0,clock_7_3.png,5.0,29,,,,,,,,,,,,,,,,,,,,,,,,,,,,,,,,
0.0,1.0,0.71443,0.0,25.0,25.0,25.0,1.0,seahorse_13s.jpg,0.0,clock_7_4.png,5.0,29,,,,,,,,,,,,,,,,,,,,,,,,,,,,,,,,
0.0,1.0,0.88038,0.0,26.0,26.0,26.0,1.0,triangle_10s.jpg,0.0,clock_7_5.png,5.0,29,,,,,,,,,,,,,,,,,,,,,,,,,,,,,,,,
0.0,1.0,0.727095,0.0,27.0,27.0,27.0,1.0,popcorn_09s.jpg,0.0,clock_7_6.png,5.0,29,,,,,,,,,,,,,,,,,,,,,,,,,,,,,,,,
1.0,1.0,1.079715,0.0,28.0,28.0,28.0,1.0,seahorse_13s.jpg,1.0,clock_7_7.png,5.0,29,,,,,,,,,,,,,,,,,,,,,,,,,,,,,,,,
0.0,1.0,1.153245,0.0,29.0,29.0,29.0,1.0,leash_10s.jpg,0.0,clock_7_1.png,6.0,29,,,,,,,,,,,,,,,,,,,,,,,,,,,,,,,,
1.0,1.0,0.92577,0.0,30.0,30.0,30.0,1.0,leash_10s.jpg,1.0,clock_7_2.png,6.0,29,,,,,,,,,,,,,,,,,,,,,,,,,,,,,,,,
0.0,1.0,0.644635,0.0,31.0,31.0,31.0,1.0,mussel_11s.jpg,0.0,clock_7_3.png,6.0,29,,,,,,,,,,,,,,,,,,,,,,,,,,,,,,,,
0.0,1.0,0.812405,0.0,32.0,32.0,32.0,1.0,tablet_04s.jpg,0.0,clock_7_4.png,6.0,29,,,,,,,,,,,,,,,,,,,,,,,,,,,,,,,,
1.0,1.0,0.77991,0.0,33.0,33.0,33.0,1.0,leash_10s.jpg,1.0,clock_7_5.png,6.0,29,,,,,,,,,,,,,,,,,,,,,,,,,,,,,,,,
1.0,1.0,0.793775,0.0,34.0,34.0,34.0,1.0,mussel_11s.jpg,1.0,clock_7_6.png,6.0,29,,,,,,,,,,,,,,,,,,,,,,,,,,,,,,,,
1.0,1.0,0.75618,0.0,35.0,35.0,35.0,1.0,mussel_11s.jpg,1.0,clock_7_7.png,6.0,29,,,,,,,,,,,,,,,,,,,,,,,,,,,,,,,,
,,,,,,,,,1.0,,,29,0.0,0.0,2.570345,0.0,0.0,0.0,0.0,1.0,mascara_03s.jpg,stapler_01b.jpg,,,,,,,,,,,,,,,,,,,,,,
,,,,,,,,,1.0,,,29,1.0,1.0,1.2975,0.0,1.0,1.0,1.0,1.0,panda_02s.jpg,key_07s.jpg,,,,,,,,,,,,,,,,,,,,,,
,,,,,,,,,1.0,,,29,1.0,1.0,1.44647,0.0,2.0,2.0,2.0,1.0,quill_09s.jpg,lollipop_08s.jpg,,,,,,,,,,,,,,,,,,,,,,
,,,,,,,,,0.0,,,29,0.0,1.0,2.060915,0.0,3.0,3.0,3.0,1.0,eggshell_14s.jpg,toilet_paper_12s.jpg,,,,,,,,,,,,,,,,,,,,,,
,,,,,,,,,0.0,,,29,0.0,1.0,1.78929,0.0,4.0,4.0,4.0,1.0,refrigerator_07s.jpg,doily_13s.jpg,,,,,,,,,,,,,,,,,,,,,,
,,,,,,,,,1.0,,,29,1.0,1.0,1.565705,0.0,5.0,5.0,5.0,1.0,fox_13s.jpg,popcorn_09s.jpg,,,,,,,,,,,,,,,,,,,,,,
,,,,,,,,,,,,29,,,,,,,,,,,0.0,4.0,4.0,4.0,1.0,clock_present_5_8.xlsx,clock_compare_task_5_8.xlsx,,,,,,,,,,,,,,,
0.0,1.0,1.05341,0.0,0.0,0.0,0.0,1.0,turf_03s.jpg,0.0,clock_5_1.png,1.0,29,,,,,,,,,,,,,,,,,,,,,,,,,,,,,,,,
0.0,1.0,0.792775,0.0,1.0,1.0,1.0,1.0,spoon02a.jpg,0.0,clock_5_2.png,1.0,29,,,,,,,,,,,,,,,,,,,,,,,,,,,,,,,,
0.0,1.0,1.358425,0.0,2.0,2.0,2.0,1.0,knitting_needle_04s.jpg,0.0,clock_5_3.png,1.0,29,,,,,,,,,,,,,,,,,,,,,,,,,,,,,,,,
0.0,1.0,1.00517,0.0,3.0,3.0,3.0,1.0,syringe_02s.jpg,0.0,clock_5_4.png,1.0,29,,,,,,,,,,,,,,,,,,,,,,,,,,,,,,,,
0.0,1.0,0.768755,0.0,4.0,4.0,4.0,1.0,ice_pack_09s.jpg,0.0,clock_5_5.png,1.0,29,,,,,,,,,,,,,,,,,,,,,,,,,,,,,,,,
0.0,1.0,0.99303,0.0,5.0,5.0,5.0,1.0,blowfish_03s.jpg,0.0,clock_6_1.png,2.0,29,,,,,,,,,,,,,,,,,,,,,,,,,,,,,,,,
1.0,1.0,0.9958,0.0,6.0,6.0,6.0,1.0,blowfish_03s.jpg,1.0,clock_6_2.png,2.0,29,,,,,,,,,,,,,,,,,,,,,,,,,,,,,,,,
0.0,1.0,0.60906,0.0,7.0,7.0,7.0,1.0,tennis_ball_06s.jpg,0.0,clock_6_3.png,2.0,29,,,,,,,,,,,,,,,,,,,,,,,,,,,,,,,,
0.0,1.0,0.990815,0.0,8.0,8.0,8.0,1.0,tripod_01b.jpg,0.0,clock_6_4.png,2.0,29,,,,,,,,,,,,,,,,,,,,,,,,,,,,,,,,
0.0,1.0,1.007515,0.0,9.0,9.0,9.0,1.0,mannequin_05s.jpg,0.0,clock_6_5.png,2.0,29,,,,,,,,,,,,,,,,,,,,,,,,,,,,,,,,
0.0,1.0,1.429805,0.0,10.0,10.0,10.0,1.0,margarita_03s.jpg,0.0,clock_6_6.png,2.0,29,,,,,,,,,,,,,,,,,,,,,,,,,,,,,,,,
0.0,1.0,0.932875,0.0,11.0,11.0,11.0,1.0,light_switch_02s.jpg,0.0,clock_7_1.png,3.0,29,,,,,,,,,,,,,,,,,,,,,,,,,,,,,,,,
0.0,1.0,0.90632,0.0,12.0,12.0,12.0,1.0,fire_alarm_05s.jpg,0.0,clock_7_2.png,3.0,29,,,,,,,,,,,,,,,,,,,,,,,,,,,,,,,,
1.0,1.0,1.014965,0.0,13.0,13.0,13.0,1.0,fire_alarm_05s.jpg,1.0,clock_7_3.png,3.0,29,,,,,,,,,,,,,,,,,,,,,,,,,,,,,,,,
1.0,1.0,1.41734,0.0,14.0,14.0,14.0,1.0,light_switch_02s.jpg,1.0,clock_7_4.png,3.0,29,,,,,,,,,,,,,,,,,,,,,,,,,,,,,,,,
0.0,1.0,0.60499,0.0,15.0,15.0,15.0,1.0,iron_13s.jpg,0.0,clock_7_5.png,3.0,29,,,,,,,,,,,,,,,,,,,,,,,,,,,,,,,,
0.0,1.0,0.627465,0.0,16.0,16.0,16.0,1.0,slingshot_07s.jpg,0.0,clock_7_6.png,3.0,29,,,,,,,,,,,,,,,,,,,,,,,,,,,,,,,,
0.0,1.0,0.79266,0.0,17.0,17.0,17.0,1.0,plaster_cast_13s.jpg,0.0,clock_7_7.png,3.0,29,,,,,,,,,,,,,,,,,,,,,,,,,,,,,,,,
0.0,1.0,1.03658,0.0,18.0,18.0,18.0,1.0,dynamite_01b.jpg,0.0,clock_6_1.png,4.0,29,,,,,,,,,,,,,,,,,,,,,,,,,,,,,,,,
0.0,1.0,0.95901,0.0,19.0,19.0,19.0,1.0,radio_09s.jpg,0.0,clock_6_2.png,4.0,29,,,,,,,,,,,,,,,,,,,,,,,,,,,,,,,,
0.0,1.0,0.762415,0.0,20.0,20.0,20.0,1.0,gong_02s.jpg,0.0,clock_6_3.png,4.0,29,,,,,,,,,,,,,,,,,,,,,,,,,,,,,,,,
0.0,1.0,0.789065,0.0,21.0,21.0,21.0,1.0,phone_01b.jpg,0.0,clock_6_4.png,4.0,29,,,,,,,,,,,,,,,,,,,,,,,,,,,,,,,,
0.0,1.0,0.67533,0.0,22.0,22.0,22.0,1.0,puck_06s.jpg,0.0,clock_6_5.png,4.0,29,,,,,,,,,,,,,,,,,,,,,,,,,,,,,,,,
0.0,1.0,0.64256,0.0,23.0,23.0,23.0,1.0,fireworks_18s.jpg,0.0,clock_6_6.png,4.0,29,,,,,,,,,,,,,,,,,,,,,,,,,,,,,,,,
0.0,1.0,0.847805,0.0,24.0,24.0,24.0,1.0,kayak_08s.jpg,0.0,clock_5_1.png,5.0,29,,,,,,,,,,,,,,,,,,,,,,,,,,,,,,,,
0.0,1.0,1.109935,0.0,25.0,25.0,25.0,1.0,antenna_01b.jpg,0.0,clock_5_2.png,5.0,29,,,,,,,,,,,,,,,,,,,,,,,,,,,,,,,,
0.0,1.0,1.172135,0.0,26.0,26.0,26.0,1.0,syringe_02s.jpg,0.0,clock_5_3.png,5.0,29,,,,,,,,,,,,,,,,,,,,,,,,,,,,,,,,
1.0,1.0,1.09269,0.0,27.0,27.0,27.0,1.0,antenna_01b.jpg,1.0,clock_5_4.png,5.0,29,,,,,,,,,,,,,,,,,,,,,,,,,,,,,,,,
0.0,1.0,1.06498,0.0,28.0,28.0,28.0,1.0,outlet_10s.jpg,0.0,clock_5_5.png,5.0,29,,,,,,,,,,,,,,,,,,,,,,,,,,,,,,,,
0.0,1.0,1.173735,0.0,29.0,29.0,29.0,1.0,racehorse_03s.jpg,0.0,clock_7_1.png,6.0,29,,,,,,,,,,,,,,,,,,,,,,,,,,,,,,,,
0.0,1.0,0.78014,0.0,30.0,30.0,30.0,1.0,lion_18s.jpg,0.0,clock_7_2.png,6.0,29,,,,,,,,,,,,,,,,,,,,,,,,,,,,,,,,
0.0,1.0,0.765875,0.0,31.0,31.0,31.0,1.0,stingray_02s.jpg,0.0,clock_7_3.png,6.0,29,,,,,,,,,,,,,,,,,,,,,,,,,,,,,,,,
1.0,1.0,0.877895,0.0,32.0,32.0,32.0,1.0,racehorse_03s.jpg,1.0,clock_7_4.png,6.0,29,,,,,,,,,,,,,,,,,,,,,,,,,,,,,,,,
0.0,1.0,0.763185,0.0,33.0,33.0,33.0,1.0,swan_11s.jpg,0.0,clock_7_5.png,6.0,29,,,,,,,,,,,,,,,,,,,,,,,,,,,,,,,,
0.0,1.0,0.825295,0.0,34.0,34.0,34.0,1.0,rabbit_03s.jpg,0.0,clock_7_6.png,6.0,29,,,,,,,,,,,,,,,,,,,,,,,,,,,,,,,,
0.0,1.0,0.830235,0.0,35.0,35.0,35.0,1.0,pocket_watch_16s.jpg,0.0,clock_7_7.png,6.0,29,,,,,,,,,,,,,,,,,,,,,,,,,,,,,,,,
,,,,,,,,,0.0,,,29,0.0,1.0,3.24502,0.0,0.0,0.0,0.0,1.0,dynamite_01b.jpg,iron_13s.jpg,,,,,,,,,,,,,,,,,,,,,,
,,,,,,,,,0.0,,,29,0.0,1.0,1.40724,0.0,1.0,1.0,1.0,1.0,radio_09s.jpg,slingshot_07s.jpg,,,,,,,,,,,,,,,,,,,,,,
,,,,,,,,,1.0,,,29,1.0,1.0,1.204705,0.0,2.0,2.0,2.0,1.0,plaster_cast_13s.jpg,gong_02s.jpg,,,,,,,,,,,,,,,,,,,,,,
,,,,,,,,,0.0,,,29,1.0,0.0,2.065035,0.0,3.0,3.0,3.0,1.0,swan_11s.jpg,lion_18s.jpg,,,,,,,,,,,,,,,,,,,,,,
,,,,,,,,,0.0,,,29,0.0,1.0,2.30029,0.0,4.0,4.0,4.0,1.0,ice_pack_09s.jpg,spoon02a.jpg,,,,,,,,,,,,,,,,,,,,,,
,,,,,,,,,0.0,,,29,1.0,0.0,2.47403,0.0,5.0,5.0,5.0,1.0,margarita_03s.jpg,tennis_ball_06s.jpg,,,,,,,,,,,,,,,,,,,,,,
0.0,1.0,1.123545,,,,,,breadstick_08s.jpg,0.0,clockno_up.jpg,1.0,29,,,,,,,,,,,,,,,,,,0.0,0.0,0.0,0.0,1.0,,,,,,,,,,
0.0,1.0,0.781145,,,,,,sea_urchin_09s.jpg,0.0,clockno_default.jpg,1.0,29,,,,,,,,,,,,,,,,,,0.0,1.0,1.0,1.0,1.0,,,,,,,,,,
1.0,1.0,0.788225,,,,,,breadstick_08s.jpg,1.0,clockno_default.jpg,1.0,29,,,,,,,,,,,,,,,,,,0.0,2.0,2.0,2.0,1.0,,,,,,,,,,
1.0,1.0,0.71386,,,,,,sea_urchin_09s.jpg,1.0,clockno_default.jpg,1.0,29,,,,,,,,,,,,,,,,,,0.0,3.0,3.0,3.0,1.0,,,,,,,,,,
0.0,1.0,0.677605,,,,,,saddle_06s.jpg,0.0,clockno_default.jpg,1.0,29,,,,,,,,,,,,,,,,,,0.0,4.0,4.0,4.0,1.0,,,,,,,,,,
1.0,1.0,0.890555,,,,,,saddle_06s.jpg,1.0,clockno_default.jpg,1.0,29,,,,,,,,,,,,,,,,,,0.0,5.0,5.0,5.0,1.0,,,,,,,,,,
0.0,1.0,1.056555,,,,,,mousetrap_15n.jpg,0.0,clockno_up.jpg,2.0,29,,,,,,,,,,,,,,,,,,0.0,6.0,6.0,6.0,1.0,,,,,,,,,,
0.0,1.0,0.87917,,,,,,owl_15s.jpg,0.0,clockno_default.jpg,2.0,29,,,,,,,,,,,,,,,,,,0.0,7.0,7.0,7.0,1.0,,,,,,,,,,
1.0,1.0,1.043685,,,,,,mousetrap_15n.jpg,1.0,clockno_default.jpg,2.0,29,,,,,,,,,,,,,,,,,,0.0,8.0,8.0,8.0,1.0,,,,,,,,,,
1.0,1.0,0.5783,,,,,,owl_15s.jpg,1.0,clockno_default.jpg,2.0,29,,,,,,,,,,,,,,,,,,0.0,9.0,9.0,9.0,1.0,,,,,,,,,,
1.0,1.0,0.81466,,,,,,owl_15s.jpg,1.0,clockno_default.jpg,2.0,29,,,,,,,,,,,,,,,,,,0.0,10.0,10.0,10.0,1.0,,,,,,,,,,
0.0,1.0,0.936175,,,,,,popsicle_02s.jpg,0.0,clockno_default.jpg,2.0,29,,,,,,,,,,,,,,,,,,0.0,11.0,11.0,11.0,1.0,,,,,,,,,,
0.0,1.0,0.83159,,,,,,screwdriver02a.jpg,0.0,clockno_default.jpg,2.0,29,,,,,,,,,,,,,,,,,,0.0,12.0,12.0,12.0,1.0,,,,,,,,,,
0.0,1.0,0.812955,,,,,,paper_towel_03s.jpg,0.0,clockno_up.jpg,3.0,29,,,,,,,,,,,,,,,,,,0.0,13.0,13.0,13.0,1.0,,,,,,,,,,
0.0,1.0,0.648475,,,,,,mug_06s.jpg,0.0,clockno_default.jpg,3.0,29,,,,,,,,,,,,,,,,,,0.0,14.0,14.0,14.0,1.0,,,,,,,,,,
0.0,1.0,0.68393,,,,,,undershirt_02s.jpg,0.0,clockno_default.jpg,3.0,29,,,,,,,,,,,,,,,,,,0.0,15.0,15.0,15.0,1.0,,,,,,,,,,
0.0,1.0,0.70969,,,,,,cape_11s.jpg,0.0,clockno_default.jpg,3.0,29,,,,,,,,,,,,,,,,,,0.0,16.0,16.0,16.0,1.0,,,,,,,,,,
0.0,1.0,0.88354,,,,,,lamp_08s.jpg,0.0,clockno_default.jpg,3.0,29,,,,,,,,,,,,,,,,,,0.0,17.0,17.0,17.0,1.0,,,,,,,,,,
0.0,1.0,0.868555,,,,,,padlock_07s.jpg,0.0,clockno_default.jpg,3.0,29,,,,,,,,,,,,,,,,,,0.0,18.0,18.0,18.0,1.0,,,,,,,,,,
0.0,1.0,0.78961,,,,,,lab_coat_11s.jpg,0.0,clockno_default.jpg,3.0,29,,,,,,,,,,,,,,,,,,0.0,19.0,19.0,19.0,1.0,,,,,,,,,,
0.0,1.0,0.85212,,,,,,badge_03s.jpg,0.0,clockno_up.jpg,4.0,29,,,,,,,,,,,,,,,,,,0.0,20.0,20.0,20.0,1.0,,,,,,,,,,
0.0,1.0,0.939295,,,,,,go-kart_10s.jpg,0.0,clockno_default.jpg,4.0,29,,,,,,,,,,,,,,,,,,0.0,21.0,21.0,21.0,1.0,,,,,,,,,,
0.0,1.0,0.69584,,,,,,parachute_03s.jpg,0.0,clockno_default.jpg,4.0,29,,,,,,,,,,,,,,,,,,0.0,22.0,22.0,22.0,1.0,,,,,,,,,,
0.0,1.0,0.670585,,,,,,scooter.jpg,0.0,clockno_default.jpg,4.0,29,,,,,,,,,,,,,,,,,,0.0,23.0,23.0,23.0,1.0,,,,,,,,,,
0.0,1.0,0.920955,,,,,,letter_opener_03s.jpg,0.0,clockno_default.jpg,4.0,29,,,,,,,,,,,,,,,,,,0.0,24.0,24.0,24.0,1.0,,,,,,,,,,
1.0,1.0,0.997255,,,,,,parachute_03s.jpg,1.0,clockno_default.jpg,4.0,29,,,,,,,,,,,,,,,,,,0.0,25.0,25.0,25.0,1.0,,,,,,,,,,
0.0,1.0,0.838615,,,,,,throne_11s.jpg,0.0,clockno_up.jpg,5.0,29,,,,,,,,,,,,,,,,,,0.0,26.0,26.0,26.0,1.0,,,,,,,,,,
0.0,1.0,0.896975,,,,,,owl_15s.jpg,0.0,clockno_default.jpg,5.0,29,,,,,,,,,,,,,,,,,,0.0,27.0,27.0,27.0,1.0,,,,,,,,,,
1.0,1.0,0.918325,,,,,,throne_11s.jpg,1.0,clockno_default.jpg,5.0,29,,,,,,,,,,,,,,,,,,0.0,28.0,28.0,28.0,1.0,,,,,,,,,,
0.0,1.0,0.84256,,,,,,rocking_horse_03s.jpg,0.0,clockno_default.jpg,5.0,29,,,,,,,,,,,,,,,,,,0.0,29.0,29.0,29.0,1.0,,,,,,,,,,
0.0,1.0,0.826325,,,,,,swordfish_05s.jpg,0.0,clockno_default.jpg,5.0,29,,,,,,,,,,,,,,,,,,0.0,30.0,30.0,30.0,1.0,,,,,,,,,,
0.0,1.0,1.02942,,,,,,tupperware_09s.jpg,0.0,clockno_up.jpg,6.0,29,,,,,,,,,,,,,,,,,,0.0,31.0,31.0,31.0,1.0,,,,,,,,,,
0.0,1.0,0.83126,,,,,,rocking_chair_05s.jpg,0.0,clockno_default.jpg,6.0,29,,,,,,,,,,,,,,,,,,0.0,32.0,32.0,32.0,1.0,,,,,,,,,,
0.0,1.0,0.89294,,,,,,padlock_07s.jpg,0.0,clockno_default.jpg,6.0,29,,,,,,,,,,,,,,,,,,0.0,33.0,33.0,33.0,1.0,,,,,,,,,,
0.0,1.0,0.767755,,,,,,machete_06s.jpg,0.0,clockno_default.jpg,6.0,29,,,,,,,,,,,,,,,,,,0.0,34.0,34.0,34.0,1.0,,,,,,,,,,
1.0,1.0,1.00991,,,,,,tupperware_09s.jpg,1.0,clockno_default.jpg,6.0,29,,,,,,,,,,,,,,,,,,0.0,35.0,35.0,35.0,1.0,,,,,,,,,,
,,,,,,,,,1.0,,,29,0.0,0.0,2.384705,,,,,,screwdriver02a.jpg,undershirt_02s.jpg,,,,,,,,,,,,,0.0,0.0,0.0,0.0,1.0,,,,,
,,,,,,,,,0.0,,,29,1.0,0.0,1.249455,,,,,,rocking_chair_05s.jpg,rocking_horse_03s.jpg,,,,,,,,,,,,,0.0,1.0,1.0,1.0,1.0,,,,,
,,,,,,,,,0.0,,,29,1.0,0.0,1.956415,,,,,,mug_06s.jpg,popsicle_02s.jpg,,,,,,,,,,,,,0.0,2.0,2.0,2.0,1.0,,,,,
,,,,,,,,,1.0,,,29,1.0,1.0,1.500695,,,,,,paper_towel_03s.jpg,cape_11s.jpg,,,,,,,,,,,,,0.0,3.0,3.0,3.0,1.0,,,,,
,,,,,,,,,1.0,,,29,1.0,1.0,1.339815,,,,,,go-kart_10s.jpg,letter_opener_03s.jpg,,,,,,,,,,,,,0.0,4.0,4.0,4.0,1.0,,,,,
,,,,,,,,,0.0,,,29,1.0,0.0,1.200495,,,,,,scooter.jpg,badge_03s.jpg,,,,,,,,,,,,,0.0,5.0,5.0,5.0,1.0,,,,,
,,,,,,,,,,,,29,,,,,,,,,,,,,,,,clockno_present_1_8.xlsx,clockno_compare_task_1_8.xlsx,,,,,,,,,,,0.0,0.0,0.0,0.0,1.0
0.0,1.0,1.0486,,,,,,towel_rack_04s.jpg,0.0,clockno_up.jpg,1.0,29,,,,,,,,,,,,,,,,,,0.0,0.0,0.0,0.0,1.0,,,,,,,,,,
0.0,1.0,0.98021,,,,,,microwave_02s.jpg,0.0,clockno_default.jpg,1.0,29,,,,,,,,,,,,,,,,,,0.0,1.0,1.0,1.0,1.0,,,,,,,,,,
0.0,1.0,0.75883,,,,,,quesadilla_07s.jpg,0.0,clockno_default.jpg,1.0,29,,,,,,,,,,,,,,,,,,0.0,2.0,2.0,2.0,1.0,,,,,,,,,,
0.0,1.0,0.858415,,,,,,ring_03s.jpg,0.0,clockno_default.jpg,1.0,29,,,,,,,,,,,,,,,,,,0.0,3.0,3.0,3.0,1.0,,,,,,,,,,
0.0,1.0,0.766215,,,,,,jalapeno_15s.jpg,0.0,clockno_default.jpg,1.0,29,,,,,,,,,,,,,,,,,,0.0,4.0,4.0,4.0,1.0,,,,,,,,,,
0.0,1.0,0.69414,,,,,,rollerskate_03s.jpg,0.0,clockno_default.jpg,1.0,29,,,,,,,,,,,,,,,,,,0.0,5.0,5.0,5.0,1.0,,,,,,,,,,
1.0,1.0,1.446505,,,,,,jalapeno_15s.jpg,1.0,clockno_default.jpg,1.0,29,,,,,,,,,,,,,,,,,,0.0,6.0,6.0,6.0,1.0,,,,,,,,,,
0.0,1.0,0.781235,,,,,,thermostat_02s.jpg,0.0,clockno_up.jpg,2.0,29,,,,,,,,,,,,,,,,,,0.0,7.0,7.0,7.0,1.0,,,,,,,,,,
1.0,1.0,1.07226,,,,,,thermostat_02s.jpg,1.0,clockno_default.jpg,2.0,29,,,,,,,,,,,,,,,,,,0.0,8.0,8.0,8.0,1.0,,,,,,,,,,
0.0,1.0,0.86625,,,,,,pepper2_21s.jpg,0.0,clockno_default.jpg,2.0,29,,,,,,,,,,,,,,,,,,0.0,9.0,9.0,9.0,1.0,,,,,,,,,,
0.0,1.0,0.97869,,,,,,lava_02s.jpg,0.0,clockno_default.jpg,2.0,29,,,,,,,,,,,,,,,,,,0.0,10.0,10.0,10.0,1.0,,,,,,,,,,
0.0,1.0,0.73798,,,,,,butter_14s.jpg,0.0,clockno_default.jpg,2.0,29,,,,,,,,,,,,,,,,,,0.0,11.0,11.0,11.0,1.0,,,,,,,,,,
0.0,1.0,1.127925,,,,,,hummingbird_05s.jpg,0.0,clockno_up.jpg,3.0,29,,,,,,,,,,,,,,,,,,0.0,12.0,12.0,12.0,1.0,,,,,,,,,,
0.0,1.0,0.98114,,,,,,jalapeno_15s.jpg,0.0,clockno_default.jpg,3.0,29,,,,,,,,,,,,,,,,,,0.0,13.0,13.0,13.0,1.0,,,,,,,,,,
0.0,1.0,0.639915,,,,,,stump_02s.jpg,0.0,clockno_default.jpg,3.0,29,,,,,,,,,,,,,,,,,,0.0,14.0,14.0,14.0,1.0,,,,,,,,,,
0.0,1.0,0.837975,,,,,,luggage_08s.jpg,0.0,clockno_default.jpg,3.0,29,,,,,,,,,,,,,,,,,,0.0,15.0,15.0,15.0,1.0,,,,,,,,,,
1.0,1.0,0.76071,,,,,,luggage_08s.jpg,1.0,clockno_default.jpg,3.0,29,,,,,,,,,,,,,,,,,,0.0,16.0,16.0,16.0,1.0,,,,,,,,,,
0.0,1.0,0.71315,,,,,,pomegranate_04s.jpg,0.0,clockno_default.jpg,3.0,29,,,,,,,,,,,,,,,,,,0.0,17.0,17.0,17.0,1.0,,,,,,,,,,
0.0,1.0,0.846765,,,,,,swing_set_15s.jpg,0.0,clockno_default.jpg,3.0,29,,,,,,,,,,,,,,,,,,0.0,18.0,18.0,18.0,1.0,,,,,,,,,,
0.0,1.0,1.493265,,,,,,jigsaw_puzzle_11s.jpg,0.0,clockno_up.jpg,4.0,29,,,,,,,,,,,,,,,,,,0.0,19.0,19.0,19.0,1.0,,,,,,,,,,
0.0,1.0,0.689355,,,,,,toilet_07s.jpg,0.0,clockno_default.jpg,4.0,29,,,,,,,,,,,,,,,,,,0.0,20.0,20.0,20.0,1.0,,,,,,,,,,
0.0,1.0,0.64135,,,,,,turtleneck_11s.jpg,0.0,clockno_default.jpg,4.0,29,,,,,,,,,,,,,,,,,,0.0,21.0,21.0,21.0,1.0,,,,,,,,,,
0.0,1.0,0.70827,,,,,,trident_07s.jpg,0.0,clockno_default.jpg,4.0,29,,,,,,,,,,,,,,,,,,0.0,22.0,22.0,22.0,1.0,,,,,,,,,,
0.0,1.0,0.740035,,,,,,contact_lens_15s.jpg,0.0,clockno_default.jpg,4.0,29,,,,,,,,,,,,,,,,,,0.0,23.0,23.0,23.0,1.0,,,,,,,,,,
0.0,1.0,0.97108,,,,,,plunger_08s.jpg,0.0,clockno_default.jpg,4.0,29,,,,,,,,,,,,,,,,,,0.0,24.0,24.0,24.0,1.0,,,,,,,,,,
0.0,1.0,1.056335,,,,,,timer_03s.jpg,0.0,clockno_up.jpg,5.0,29,,,,,,,,,,,,,,,,,,0.0,25.0,25.0,25.0,1.0,,,,,,,,,,
1.0,1.0,1.039855,,,,,,timer_03s.jpg,1.0,clockno_default.jpg,5.0,29,,,,,,,,,,,,,,,,,,0.0,26.0,26.0,26.0,1.0,,,,,,,,,,
0.0,1.0,0.825795,,,,,,spacesuit_02s.jpg,0.0,clockno_default.jpg,5.0,29,,,,,,,,,,,,,,,,,,0.0,27.0,27.0,27.0,1.0,,,,,,,,,,
0.0,1.0,0.79241,,,,,,roller_coaster_07s.jpg,0.0,clockno_default.jpg,5.0,29,,,,,,,,,,,,,,,,,,0.0,28.0,28.0,28.0,1.0,,,,,,,,,,
0.0,1.0,0.68841,,,,,,pocketknife_12s.jpg,0.0,clockno_default.jpg,5.0,29,,,,,,,,,,,,,,,,,,0.0,29.0,29.0,29.0,1.0,,,,,,,,,,
0.0,1.0,1.09091,,,,,,jewel_01b.jpg,0.0,clockno_up.jpg,6.0,29,,,,,,,,,,,,,,,,,,0.0,30.0,30.0,30.0,1.0,,,,,,,,,,
0.0,1.0,0.905775,,,,,,harpoon.jpg,0.0,clockno_default.jpg,6.0,29,,,,,,,,,,,,,,,,,,0.0,31.0,31.0,31.0,1.0,,,,,,,,,,
0.0,1.0,0.945085,,,,,,tinsel_12s.jpg,0.0,clockno_default.jpg,6.0,29,,,,,,,,,,,,,,,,,,0.0,32.0,32.0,32.0,1.0,,,,,,,,,,
1.0,1.0,0.99052,,,,,,tinsel_12s.jpg,1.0,clockno_default.jpg,6.0,29,,,,,,,,,,,,,,,,,,0.0,33.0,33.0,33.0,1.0,,,,,,,,,,
1.0,1.0,0.950175,,,,,,jewel_01b.jpg,1.0,clockno_default.jpg,6.0,29,,,,,,,,,,,,,,,,,,0.0,34.0,34.0,34.0,1.0,,,,,,,,,,
0.0,1.0,0.740555,,,,,,submarine_11n.jpg,0.0,clockno_default.jpg,6.0,29,,,,,,,,,,,,,,,,,,0.0,35.0,35.0,35.0,1.0,,,,,,,,,,
,,,,,,,,,1.0,,,29,1.0,1.0,1.733655,,,,,,pepper2_21s.jpg,hummingbird_05s.jpg,,,,,,,,,,,,,0.0,0.0,0.0,0.0,1.0,,,,,
,,,,,,,,,0.0,,,29,0.0,1.0,1.65054,,,,,,harpoon.jpg,roller_coaster_07s.jpg,,,,,,,,,,,,,0.0,1.0,1.0,1.0,1.0,,,,,
,,,,,,,,,1.0,,,29,0.0,0.0,2.01548,,,,,,butter_14s.jpg,stump_02s.jpg,,,,,,,,,,,,,0.0,2.0,2.0,2.0,1.0,,,,,
,,,,,,,,,0.0,,,29,0.0,1.0,1.14928,,,,,,ring_03s.jpg,towel_rack_04s.jpg,,,,,,,,,,,,,0.0,3.0,3.0,3.0,1.0,,,,,
,,,,,,,,,0.0,,,29,0.0,1.0,1.714795,,,,,,rollerskate_03s.jpg,quesadilla_07s.jpg,,,,,,,,,,,,,0.0,4.0,4.0,4.0,1.0,,,,,
,,,,,,,,,0.0,,,29,1.0,0.0,1.95505,,,,,,trident_07s.jpg,jigsaw_puzzle_11s.jpg,,,,,,,,,,,,,0.0,5.0,5.0,5.0,1.0,,,,,
,,,,,,,,,,,,29,,,,,,,,,,,,,,,,clockno_present_2_8.xlsx,clockno_compare_task_2_8.xlsx,,,,,,,,,,,0.0,1.0,1.0,1.0,1.0
0.0,1.0,0.81628,,,,,,peppermint_07s.jpg,0.0,clockno_up.jpg,1.0,29,,,,,,,,,,,,,,,,,,0.0,0.0,0.0,0.0,1.0,,,,,,,,,,
0.0,1.0,0.612775,,,,,,teapot_03s.jpg,0.0,clockno_default.jpg,1.0,29,,,,,,,,,,,,,,,,,,0.0,1.0,1.0,1.0,1.0,,,,,,,,,,
0.0,1.0,0.76216,,,,,,funnel_01b.jpg,0.0,clockno_default.jpg,1.0,29,,,,,,,,,,,,,,,,,,0.0,2.0,2.0,2.0,1.0,,,,,,,,,,
0.0,1.0,0.798235,,,,,,incense_02s.jpg,0.0,clockno_default.jpg,1.0,29,,,,,,,,,,,,,,,,,,0.0,3.0,3.0,3.0,1.0,,,,,,,,,,
1.0,1.0,0.950245,,,,,,teapot_03s.jpg,1.0,clockno_default.jpg,1.0,29,,,,,,,,,,,,,,,,,,0.0,4.0,4.0,4.0,1.0,,,,,,,,,,
0.0,1.0,1.083095,,,,,,licorice_06s.jpg,0.0,clockno_up.jpg,2.0,29,,,,,,,,,,,,,,,,,,0.0,5.0,5.0,5.0,1.0,,,,,,,,,,
0.0,1.0,1.271785,,,,,,sunglasses_11s.jpg,0.0,clockno_default.jpg,2.0,29,,,,,,,,,,,,,,,,,,0.0,6.0,6.0,6.0,1.0,,,,,,,,,,
0.0,1.0,0.881945,,,,,,funnel_01b.jpg,0.0,clockno_default.jpg,2.0,29,,,,,,,,,,,,,,,,,,0.0,7.0,7.0,7.0,1.0,,,,,,,,,,
0.0,1.0,0.787045,,,,,,rice_12s.jpg,0.0,clockno_default.jpg,2.0,29,,,,,,,,,,,,,,,,,,0.0,8.0,8.0,8.0,1.0,,,,,,,,,,
1.0,1.0,0.816415,,,,,,rice_12s.jpg,1.0,clockno_default.jpg,2.0,29,,,,,,,,,,,,,,,,,,0.0,9.0,9.0,9.0,1.0,,,,,,,,,,
0.0,1.0,0.82996,,,,,,emerald_02s.jpg,0.0,clockno_default.jpg,2.0,29,,,,,,,,,,,,,,,,,,0.0,10.0,10.0,10.0,1.0,,,,,,,,,,
0.0,1.0,0.610815,,,,,,raccoon_02s.jpg,0.0,clockno_default.jpg,2.0,29,,,,,,,,,,,,,,,,,,0.0,11.0,11.0,11.0,1.0,,,,,,,,,,
0.0,1.0,1.007385,,,,,,cushion_08s.jpg,0.0,clockno_up.jpg,3.0,29,,,,,,,,,,,,,,,,,,0.0,12.0,12.0,12.0,1.0,,,,,,,,,,
0.0,1.0,1.208255,,,,,,tiger_06s.jpg,0.0,clockno_default.jpg,3.0,29,,,,,,,,,,,,,,,,,,0.0,13.0,13.0,13.0,1.0,,,,,,,,,,
1.0,1.0,1.60493,,,,,,cushion_08s.jpg,1.0,clockno_default.jpg,3.0,29,,,,,,,,,,,,,,,,,,0.0,14.0,14.0,14.0,1.0,,,,,,,,,,
0.0,1.0,1.505065,,,,,,stamp1_11s.jpg,0.0,clockno_default.jpg,3.0,29,,,,,,,,,,,,,,,,,,0.0,15.0,15.0,15.0,1.0,,,,,,,,,,
0.0,1.0,1.572475,,,,,,cereal_04s.jpg,0.0,clockno_default.jpg,3.0,29,,,,,,,,,,,,,,,,,,0.0,16.0,16.0,16.0,1.0,,,,,,,,,,
0.0,1.0,1.29411,,,,,,jersey_02s.jpg,0.0,clockno_up.jpg,4.0,29,,,,,,,,,,,,,,,,,,0.0,17.0,17.0,17.0,1.0,,,,,,,,,,
0.0,1.0,1.233355,,,,,,tomato_sauce_09s.jpg,0.0,clockno_default.jpg,4.0,29,,,,,,,,,,,,,,,,,,0.0,18.0,18.0,18.0,1.0,,,,,,,,,,
0.0,1.0,1.20432,,,,,,toad_09s.jpg,0.0,clockno_default.jpg,4.0,29,,,,,,,,,,,,,,,,,,0.0,19.0,19.0,19.0,1.0,,,,,,,,,,
0.0,1.0,1.34916,,,,,,fire_pit_10s.jpg,0.0,clockno_default.jpg,4.0,29,,,,,,,,,,,,,,,,,,0.0,20.0,20.0,20.0,1.0,,,,,,,,,,
0.0,1.0,1.46523,,,,,,keyhole_03s.jpg,0.0,clockno_default.jpg,4.0,29,,,,,,,,,,,,,,,,,,0.0,21.0,21.0,21.0,1.0,,,,,,,,,,
0.0,1.0,1.293475,,,,,,comic_book_02s.jpg,0.0,clockno_default.jpg,4.0,29,,,,,,,,,,,,,,,,,,0.0,22.0,22.0,22.0,1.0,,,,,,,,,,
0.0,1.0,1.42194,,,,,,pencil02a.jpg,0.0,clockno_up.jpg,5.0,29,,,,,,,,,,,,,,,,,,0.0,23.0,23.0,23.0,1.0,,,,,,,,,,
0.0,1.0,1.76883,,,,,,punch2_09s.jpg,0.0,clockno_default.jpg,5.0,29,,,,,,,,,,,,,,,,,,0.0,24.0,24.0,24.0,1.0,,,,,,,,,,
0.0,1.0,1.38319,,,,,,chime_12s.jpg,0.0,clockno_default.jpg,5.0,29,,,,,,,,,,,,,,,,,,0.0,25.0,25.0,25.0,1.0,,,,,,,,,,
1.0,1.0,1.551285,,,,,,pencil02a.jpg,1.0,clockno_default.jpg,5.0,29,,,,,,,,,,,,,,,,,,0.0,26.0,26.0,26.0,1.0,,,,,,,,,,
0.0,1.0,1.567685,,,,,,lip_gloss_06s.jpg,0.0,clockno_default.jpg,5.0,29,,,,,,,,,,,,,,,,,,0.0,27.0,27.0,27.0,1.0,,,,,,,,,,
0.0,1.0,1.223285,,,,,,rocket_02s.jpg,0.0,clockno_default.jpg,5.0,29,,,,,,,,,,,,,,,,,,0.0,28.0,28.0,28.0,1.0,,,,,,,,,,
1.0,1.0,1.601715,,,,,,punch2_09s.jpg,1.0,clockno_default.jpg,5.0,29,,,,,,,,,,,,,,,,,,0.0,29.0,29.0,29.0,1.0,,,,,,,,,,
0.0,1.0,1.29006,,,,,,crate_05s.jpg,0.0,clockno_up.jpg,6.0,29,,,,,,,,,,,,,,,,,,0.0,30.0,30.0,30.0,1.0,,,,,,,,,,
1.0,1.0,1.36514,,,,,,crate_05s.jpg,1.0,clockno_default.jpg,6.0,29,,,,,,,,,,,,,,,,,,0.0,31.0,31.0,31.0,1.0,,,,,,,,,,
0.0,1.0,1.488225,,,,,,blazer_02s.jpg,0.0,clockno_default.jpg,6.0,29,,,,,,,,,,,,,,,,,,0.0,32.0,32.0,32.0,1.0,,,,,,,,,,
0.0,1.0,0.59509,,,,,,fork_04s.jpg,0.0,clockno_default.jpg,6.0,29,,,,,,,,,,,,,,,,,,0.0,33.0,33.0,33.0,1.0,,,,,,,,,,
0.0,1.0,0.841865,,,,,,target_11s.jpg,0.0,clockno_default.jpg,6.0,29,,,,,,,,,,,,,,,,,,0.0,34.0,34.0,34.0,1.0,,,,,,,,,,
0.0,1.0,0.85731,,,,,,meatball_13s.jpg,0.0,clockno_default.jpg,6.0,29,,,,,,,,,,,,,,,,,,0.0,35.0,35.0,35.0,1.0,,,,,,,,,,
,,,,,,,,,1.0,,,29,0.0,0.0,2.98823,,,,,,incense_02s.jpg,sunglasses_11s.jpg,,,,,,,,,,,,,0.0,0.0,0.0,0.0,1.0,,,,,
,,,,,,,,,0.0,,,29,0.0,1.0,1.270305,,,,,,tiger_06s.jpg,emerald_02s.jpg,,,,,,,,,,,,,0.0,1.0,1.0,1.0,1.0,,,,,
,,,,,,,,,1.0,,,29,1.0,1.0,1.1684,,,,,,stamp1_11s.jpg,tomato_sauce_09s.jpg,,,,,,,,,,,,,0.0,2.0,2.0,2.0,1.0,,,,,
,,,,,,,,,0.0,,,29,1.0,0.0,1.26417,,,,,,fire_pit_10s.jpg,jersey_02s.jpg,,,,,,,,,,,,,0.0,3.0,3.0,3.0,1.0,,,,,
,,,,,,,,,0.0,,,29,0.0,1.0,1.589265,,,,,,meatball_13s.jpg,blazer_02s.jpg,,,,,,,,,,,,,0.0,4.0,4.0,4.0,1.0,,,,,
,,,,,,,,,0.0,,,29,0.0,1.0,1.474435,,,,,,rocket_02s.jpg,chime_12s.jpg,,,,,,,,,,,,,0.0,5.0,5.0,5.0,1.0,,,,,
,,,,,,,,,,,,29,,,,,,,,,,,,,,,,clockno_present_3_8.xlsx,clockno_compare_task_3_8.xlsx,,,,,,,,,,,0.0,2.0,2.0,2.0,1.0
0.0,1.0,1.061535,,,,,,kangaroo_02s.jpg,0.0,clockno_up.jpg,1.0,29,,,,,,,,,,,,,,,,,,0.0,0.0,0.0,0.0,1.0,,,,,,,,,,
1.0,1.0,1.487485,,,,,,kangaroo_02s.jpg,1.0,clockno_default.jpg,1.0,29,,,,,,,,,,,,,,,,,,0.0,1.0,1.0,1.0,1.0,,,,,,,,,,
0.0,1.0,1.1687,,,,,,kettle_08s.jpg,0.0,clockno_default.jpg,1.0,29,,,,,,,,,,,,,,,,,,0.0,2.0,2.0,2.0,1.0,,,,,,,,,,
0.0,1.0,0.64449,,,,,,cotton_candy_01b.jpg,0.0,clockno_default.jpg,1.0,29,,,,,,,,,,,,,,,,,,0.0,3.0,3.0,3.0,1.0,,,,,,,,,,
1.0,1.0,0.7415,,,,,,kettle_08s.jpg,1.0,clockno_default.jpg,1.0,29,,,,,,,,,,,,,,,,,,0.0,4.0,4.0,4.0,1.0,,,,,,,,,,
0.0,1.0,0.694505,,,,,,lamb_04s.jpg,0.0,clockno_default.jpg,1.0,29,,,,,,,,,,,,,,,,,,0.0,5.0,5.0,5.0,1.0,,,,,,,,,,
0.0,1.0,0.703875,,,,,,checkbook_11s.jpg,0.0,clockno_up.jpg,2.0,29,,,,,,,,,,,,,,,,,,0.0,6.0,6.0,6.0,1.0,,,,,,,,,,
0.0,1.0,0.69563,,,,,,gargoyle_08s.jpg,0.0,clockno_default.jpg,2.0,29,,,,,,,,,,,,,,,,,,0.0,7.0,7.0,7.0,1.0,,,,,,,,,,
0.0,1.0,0.61965,,,,,,megaphone_03s.jpg,0.0,clockno_default.jpg,2.0,29,,,,,,,,,,,,,,,,,,0.0,8.0,8.0,8.0,1.0,,,,,,,,,,
0.0,1.0,0.623695,,,,,,dirt_bike_11s.jpg,0.0,clockno_default.jpg,2.0,29,,,,,,,,,,,,,,,,,,0.0,9.0,9.0,9.0,1.0,,,,,,,,,,
0.0,1.0,0.71859,,,,,,stamp2_08s.jpg,0.0,clockno_default.jpg,2.0,29,,,,,,,,,,,,,,,,,,0.0,10.0,10.0,10.0,1.0,,,,,,,,,,
0.0,1.0,1.545095,,,,,,rope_16s.jpg,0.0,clockno_default.jpg,2.0,29,,,,,,,,,,,,,,,,,,0.0,11.0,11.0,11.0,1.0,,,,,,,,,,
0.0,1.0,0.63432,,,,,,lamb_chop_07s.jpg,0.0,clockno_default.jpg,2.0,29,,,,,,,,,,,,,,,,,,0.0,12.0,12.0,12.0,1.0,,,,,,,,,,
0.0,1.0,0.80093,,,,,,taxi_15s.jpg,0.0,clockno_up.jpg,3.0,29,,,,,,,,,,,,,,,,,,0.0,13.0,13.0,13.0,1.0,,,,,,,,,,
0.0,1.0,0.778235,,,,,,recliner_02s.jpg,0.0,clockno_default.jpg,3.0,29,,,,,,,,,,,,,,,,,,0.0,14.0,14.0,14.0,1.0,,,,,,,,,,
0.0,1.0,0.598795,,,,,,jelly_bean_06s.jpg,0.0,clockno_default.jpg,3.0,29,,,,,,,,,,,,,,,,,,0.0,15.0,15.0,15.0,1.0,,,,,,,,,,
0.0,1.0,0.53697,,,,,,smoothie_09s.jpg,0.0,clockno_default.jpg,3.0,29,,,,,,,,,,,,,,,,,,0.0,16.0,16.0,16.0,1.0,,,,,,,,,,
1.0,1.0,1.172925,,,,,,taxi_15s.jpg,1.0,clockno_default.jpg,3.0,29,,,,,,,,,,,,,,,,,,0.0,17.0,17.0,17.0,1.0,,,,,,,,,,
1.0,1.0,0.698555,,,,,,taxi_15s.jpg,1.0,clockno_default.jpg,3.0,29,,,,,,,,,,,,,,,,,,0.0,18.0,18.0,18.0,1.0,,,,,,,,,,
0.0,1.0,0.8025,,,,,,sushi_08s.jpg,0.0,clockno_default.jpg,3.0,29,,,,,,,,,,,,,,,,,,0.0,19.0,19.0,19.0,1.0,,,,,,,,,,
0.0,1.0,0.726615,,,,,,penlight_12s.jpg,0.0,clockno_up.jpg,4.0,29,,,,,,,,,,,,,,,,,,0.0,20.0,20.0,20.0,1.0,,,,,,,,,,
1.0,1.0,1.186485,,,,,,penlight_12s.jpg,1.0,clockno_default.jpg,4.0,29,,,,,,,,,,,,,,,,,,0.0,21.0,21.0,21.0,1.0,,,,,,,,,,
1.0,1.0,0.709,,,,,,penlight_12s.jpg,1.0,clockno_default.jpg,4.0,29,,,,,,,,,,,,,,,,,,0.0,22.0,22.0,22.0,1.0,,,,,,,,,,
0.0,1.0,0.71515,,,,,,jet_15s.jpg,0.0,clockno_default.jpg,4.0,29,,,,,,,,,,,,,,,,,,0.0,23.0,23.0,23.0,1.0,,,,,,,,,,
0.0,1.0,0.75251,,,,,,power_line_08s.jpg,0.0,clockno_default.jpg,4.0,29,,,,,,,,,,,,,,,,,,0.0,24.0,24.0,24.0,1.0,,,,,,,,,,
0.0,1.0,0.694465,,,,,,orange_12s.jpg,0.0,clockno_up.jpg,5.0,29,,,,,,,,,,,,,,,,,,0.0,25.0,25.0,25.0,1.0,,,,,,,,,,
0.0,1.0,0.86996,,,,,,fishhook_06s.jpg,0.0,clockno_default.jpg,5.0,29,,,,,,,,,,,,,,,,,,0.0,26.0,26.0,26.0,1.0,,,,,,,,,,
0.0,1.0,0.914865,,,,,,crystal_ball_12s.jpg,0.0,clockno_default.jpg,5.0,29,,,,,,,,,,,,,,,,,,0.0,27.0,27.0,27.0,1.0,,,,,,,,,,
0.0,1.0,1.07872,,,,,,taxi_15s.jpg,0.0,clockno_default.jpg,5.0,29,,,,,,,,,,,,,,,,,,0.0,28.0,28.0,28.0,1.0,,,,,,,,,,
0.0,1.0,0.559495,,,,,,pineapple_12s.jpg,0.0,clockno_default.jpg,5.0,29,,,,,,,,,,,,,,,,,,0.0,29.0,29.0,29.0,1.0,,,,,,,,,,
0.0,1.0,0.545975,,,,,,tulip_02s.jpg,0.0,clockno_default.jpg,5.0,29,,,,,,,,,,,,,,,,,,0.0,30.0,30.0,30.0,1.0,,,,,,,,,,
0.0,1.0,0.90564,,,,,,tongs_08s.jpg,0.0,clockno_up.jpg,6.0,29,,,,,,,,,,,,,,,,,,0.0,31.0,31.0,31.0,1.0,,,,,,,,,,
0.0,1.0,0.875725,,,,,,orchid_01b.jpg,0.0,clockno_default.jpg,6.0,29,,,,,,,,,,,,,,,,,,0.0,32.0,32.0,32.0,1.0,,,,,,,,,,
1.0,1.0,1.52925,,,,,,tongs_08s.jpg,1.0,clockno_default.jpg,6.0,29,,,,,,,,,,,,,,,,,,0.0,33.0,33.0,33.0,1.0,,,,,,,,,,
1.0,1.0,0.709505,,,,,,tongs_08s.jpg,1.0,clockno_default.jpg,6.0,29,,,,,,,,,,,,,,,,,,0.0,34.0,34.0,34.0,1.0,,,,,,,,,,
1.0,1.0,1.21654,,,,,,orchid_01b.jpg,1.0,clockno_default.jpg,6.0,29,,,,,,,,,,,,,,,,,,0.0,35.0,35.0,35.0,1.0,,,,,,,,,,
,,,,,,,,,1.0,,,29,1.0,1.0,2.15897,,,,,,cotton_candy_01b.jpg,checkbook_11s.jpg,,,,,,,,,,,,,0.0,0.0,0.0,0.0,1.0,,,,,
,,,,,,,,,1.0,,,29,1.0,1.0,1.18292,,,,,,lamb_04s.jpg,megaphone_03s.jpg,,,,,,,,,,,,,0.0,1.0,1.0,1.0,1.0,,,,,
,,,,,,,,,0.0,,,29,0.0,1.0,2.333845,,,,,,recliner_02s.jpg,rope_16s.jpg,,,,,,,,,,,,,0.0,2.0,2.0,2.0,1.0,,,,,
,,,,,,,,,0.0,,,29,0.0,1.0,1.54962,,,,,,stamp2_08s.jpg,gargoyle_08s.jpg,,,,,,,,,,,,,0.0,3.0,3.0,3.0,1.0,,,,,
,,,,,,,,,1.0,,,29,1.0,1.0,1.584605,,,,,,smoothie_09s.jpg,sushi_08s.jpg,,,,,,,,,,,,,0.0,4.0,4.0,4.0,1.0,,,,,
,,,,,,,,,1.0,,,29,1.0,1.0,1.419625,,,,,,dirt_bike_11s.jpg,lamb_chop_07s.jpg,,,,,,,,,,,,,0.0,5.0,5.0,5.0,1.0,,,,,
,,,,,,,,,,,,29,,,,,,,,,,,,,,,,clockno_present_4_8.xlsx,clockno_compare_task_4_8.xlsx,,,,,,,,,,,0.0,3.0,3.0,3.0,1.0
0.0,1.0,0.72733,,,,,,ice-cream_cone_06s.jpg,0.0,clockno_up.jpg,1.0,29,,,,,,,,,,,,,,,,,,0.0,0.0,0.0,0.0,1.0,,,,,,,,,,
0.0,1.0,1.024655,,,,,,teabag_12s.jpg,0.0,clockno_default.jpg,1.0,29,,,,,,,,,,,,,,,,,,0.0,1.0,1.0,1.0,1.0,,,,,,,,,,
0.0,1.0,0.510655,,,,,,giraffe_11s.jpg,0.0,clockno_default.jpg,1.0,29,,,,,,,,,,,,,,,,,,0.0,2.0,2.0,2.0,1.0,,,,,,,,,,
0.0,1.0,0.62387,,,,,,ivy_12s.jpg,0.0,clockno_default.jpg,1.0,29,,,,,,,,,,,,,,,,,,0.0,3.0,3.0,3.0,1.0,,,,,,,,,,
0.0,1.0,0.837045,,,,,,plug_08s.jpg,0.0,clockno_default.jpg,1.0,29,,,,,,,,,,,,,,,,,,0.0,4.0,4.0,4.0,1.0,,,,,,,,,,
0.0,1.0,0.75679,,,,,,sparkler_02s.jpg,0.0,clockno_default.jpg,1.0,29,,,,,,,,,,,,,,,,,,0.0,5.0,5.0,5.0,1.0,,,,,,,,,,
0.0,1.0,0.78346,,,,,,otter_05s.jpg,0.0,clockno_default.jpg,1.0,29,,,,,,,,,,,,,,,,,,0.0,6.0,6.0,6.0,1.0,,,,,,,,,,
0.0,1.0,0.699465,,,,,,tie_03s.jpg,0.0,clockno_up.jpg,2.0,29,,,,,,,,,,,,,,,,,,0.0,7.0,7.0,7.0,1.0,,,,,,,,,,
1.0,1.0,0.989415,,,,,,tie_03s.jpg,1.0,clockno_default.jpg,2.0,29,,,,,,,,,,,,,,,,,,0.0,8.0,8.0,8.0,1.0,,,,,,,,,,
0.0,1.0,0.8375,,,,,,petri_dish_12s.jpg,0.0,clockno_default.jpg,2.0,29,,,,,,,,,,,,,,,,,,0.0,9.0,9.0,9.0,1.0,,,,,,,,,,
0.0,1.0,0.655145,,,,,,squirrel_02s.jpg,0.0,clockno_default.jpg,2.0,29,,,,,,,,,,,,,,,,,,0.0,10.0,10.0,10.0,1.0,,,,,,,,,,
0.0,1.0,1.02356,,,,,,ivy_12s.jpg,0.0,clockno_default.jpg,2.0,29,,,,,,,,,,,,,,,,,,0.0,11.0,11.0,11.0,1.0,,,,,,,,,,
1.0,1.0,0.92724,,,,,,squirrel_02s.jpg,1.0,clockno_default.jpg,2.0,29,,,,,,,,,,,,,,,,,,0.0,12.0,12.0,12.0,1.0,,,,,,,,,,
0.0,1.0,0.872255,,,,,,spider_web_03s.jpg,0.0,clockno_up.jpg,3.0,29,,,,,,,,,,,,,,,,,,0.0,13.0,13.0,13.0,1.0,,,,,,,,,,
0.0,1.0,0.770885,,,,,,toaster_03s.jpg,0.0,clockno_default.jpg,3.0,29,,,,,,,,,,,,,,,,,,0.0,14.0,14.0,14.0,1.0,,,,,,,,,,
0.0,1.0,0.98955,,,,,,thumbtack_14s.jpg,0.0,clockno_default.jpg,3.0,29,,,,,,,,,,,,,,,,,,0.0,15.0,15.0,15.0,1.0,,,,,,,,,,
0.0,1.0,0.75488,,,,,,moth_06n.jpg,0.0,clockno_default.jpg,3.0,29,,,,,,,,,,,,,,,,,,0.0,16.0,16.0,16.0,1.0,,,,,,,,,,
0.0,1.0,0.541085,,,,,,coral_08s.jpg,0.0,clockno_default.jpg,3.0,29,,,,,,,,,,,,,,,,,,0.0,17.0,17.0,17.0,1.0,,,,,,,,,,
0.0,1.0,0.753385,,,,,,lamppost_09s.jpg,0.0,clockno_default.jpg,3.0,29,,,,,,,,,,,,,,,,,,0.0,18.0,18.0,18.0,1.0,,,,,,,,,,
0.0,1.0,1.05871,,,,,,prism_10s.jpg,0.0,clockno_up.jpg,4.0,29,,,,,,,,,,,,,,,,,,0.0,19.0,19.0,19.0,1.0,,,,,,,,,,
0.0,1.0,0.740285,,,,,,tie_03s.jpg,0.0,clockno_default.jpg,4.0,29,,,,,,,,,,,,,,,,,,0.0,20.0,20.0,20.0,1.0,,,,,,,,,,
0.0,1.0,0.545145,,,,,,pumpkin_03s.jpg,0.0,clockno_default.jpg,4.0,29,,,,,,,,,,,,,,,,,,0.0,21.0,21.0,21.0,1.0,,,,,,,,,,
1.0,1.0,1.14833,,,,,,pumpkin_03s.jpg,1.0,clockno_default.jpg,4.0,29,,,,,,,,,,,,,,,,,,0.0,22.0,22.0,22.0,1.0,,,,,,,,,,
0.0,1.0,0.686785,,,,,,bacon_05s.jpg,0.0,clockno_default.jpg,4.0,29,,,,,,,,,,,,,,,,,,0.0,23.0,23.0,23.0,1.0,,,,,,,,,,
0.0,1.0,0.73481,,,,,,mold2_04s.jpg,0.0,clockno_up.jpg,5.0,29,,,,,,,,,,,,,,,,,,0.0,24.0,24.0,24.0,1.0,,,,,,,,,,
0.0,1.0,0.775545,,,,,,pumpkin_03s.jpg,0.0,clockno_default.jpg,5.0,29,,,,,,,,,,,,,,,,,,0.0,25.0,25.0,25.0,1.0,,,,,,,,,,
0.0,1.0,0.777285,,,,,,police_car_01s.jpg,0.0,clockno_default.jpg,5.0,29,,,,,,,,,,,,,,,,,,0.0,26.0,26.0,26.0,1.0,,,,,,,,,,
0.0,1.0,0.711175,,,,,,limousine_12s.jpg,0.0,clockno_default.jpg,5.0,29,,,,,,,,,,,,,,,,,,0.0,27.0,27.0,27.0,1.0,,,,,,,,,,
0.0,1.0,0.68409,,,,,,pump_11s.jpg,0.0,clockno_default.jpg,5.0,29,,,,,,,,,,,,,,,,,,0.0,28.0,28.0,28.0,1.0,,,,,,,,,,
0.0,1.0,0.72531,,,,,,raspberry_12s.jpg,0.0,clockno_default.jpg,5.0,29,,,,,,,,,,,,,,,,,,0.0,29.0,29.0,29.0,1.0,,,,,,,,,,
0.0,1.0,0.823105,,,,,,bee_20s.jpg,0.0,clockno_default.jpg,5.0,29,,,,,,,,,,,,,,,,,,0.0,30.0,30.0,30.0,1.0,,,,,,,,,,
0.0,1.0,0.738855,,,,,,machine_gun_09s.jpg,0.0,clockno_up.jpg,6.0,29,,,,,,,,,,,,,,,,,,0.0,31.0,31.0,31.0,1.0,,,,,,,,,,
1.0,1.0,0.82915,,,,,,machine_gun_09s.jpg,1.0,clockno_default.jpg,6.0,29,,,,,,,,,,,,,,,,,,0.0,32.0,32.0,32.0,1.0,,,,,,,,,,
0.0,1.0,0.941985,,,,,,boomerang_06s.jpg,0.0,clockno_default.jpg,6.0,29,,,,,,,,,,,,,,,,,,0.0,33.0,33.0,33.0,1.0,,,,,,,,,,
0.0,1.0,0.77369,,,,,,roulette_wheel_04s.jpg,0.0,clockno_default.jpg,6.0,29,,,,,,,,,,,,,,,,,,0.0,34.0,34.0,34.0,1.0,,,,,,,,,,
0.0,1.0,0.679105,,,,,,perfume_06s.jpg,0.0,clockno_default.jpg,6.0,29,,,,,,,,,,,,,,,,,,0.0,35.0,35.0,35.0,1.0,,,,,,,,,,
,,,,,,,,,0.0,,,29,0.0,1.0,1.92687,,,,,,petri_dish_12s.jpg,otter_05s.jpg,,,,,,,,,,,,,0.0,0.0,0.0,0.0,1.0,,,,,
,,,,,,,,,0.0,,,29,0.0,1.0,1.80607,,,,,,prism_10s.jpg,moth_06n.jpg,,,,,,,,,,,,,0.0,1.0,1.0,1.0,1.0,,,,,
,,,,,,,,,1.0,,,29,1.0,1.0,1.06938,,,,,,bacon_05s.jpg,police_car_01s.jpg,,,,,,,,,,,,,0.0,2.0,2.0,2.0,1.0,,,,,
,,,,,,,,,1.0,,,29,0.0,0.0,1.14166,,,,,,teabag_12s.jpg,plug_08s.jpg,,,,,,,,,,,,,0.0,3.0,3.0,3.0,1.0,,,,,
,,,,,,,,,0.0,,,29,0.0,1.0,1.699285,,,,,,sparkler_02s.jpg,giraffe_11s.jpg,,,,,,,,,,,,,0.0,4.0,4.0,4.0,1.0,,,,,
,,,,,,,,,0.0,,,29,0.0,1.0,1.555955,,,,,,coral_08s.jpg,toaster_03s.jpg,,,,,,,,,,,,,0.0,5.0,5.0,5.0,1.0,,,,,
,,,,,,,,,,,,29,,,,,,,,,,,,,,,,clockno_present_5_8.xlsx,clockno_compare_task_5_8.xlsx,,,,,,,,,,,0.0,4.0,4.0,4.0,1.0
0.0,1.0,0.90805,,,,,,rooster_03s.jpg,0.0,clockno_up.jpg,1.0,29,,,,,,,,,,,,,,,,,,0.0,0.0,0.0,0.0,1.0,,,,,,,,,,
1.0,1.0,0.591355,,,,,,rooster_03s.jpg,1.0,clockno_default.jpg,1.0,29,,,,,,,,,,,,,,,,,,0.0,1.0,1.0,1.0,1.0,,,,,,,,,,
1.0,1.0,0.57366,,,,,,rooster_03s.jpg,1.0,clockno_default.jpg,1.0,29,,,,,,,,,,,,,,,,,,0.0,2.0,2.0,2.0,1.0,,,,,,,,,,
0.0,1.0,0.59534,,,,,,birdcage_08s.jpg,0.0,clockno_default.jpg,1.0,29,,,,,,,,,,,,,,,,,,0.0,3.0,3.0,3.0,1.0,,,,,,,,,,
1.0,1.0,0.52751,,,,,,birdcage_08s.jpg,1.0,clockno_default.jpg,1.0,29,,,,,,,,,,,,,,,,,,0.0,4.0,4.0,4.0,1.0,,,,,,,,,,
0.0,1.0,0.77398,,,,,,bowler_hat_10s.jpg,0.0,clockno_default.jpg,1.0,29,,,,,,,,,,,,,,,,,,0.0,5.0,5.0,5.0,1.0,,,,,,,,,,
0.0,1.0,0.768435,,,,,,potholder_02s.jpg,0.0,clockno_up.jpg,2.0,29,,,,,,,,,,,,,,,,,,0.0,6.0,6.0,6.0,1.0,,,,,,,,,,
0.0,1.0,0.81628,,,,,,rooster_03s.jpg,0.0,clockno_default.jpg,2.0,29,,,,,,,,,,,,,,,,,,0.0,7.0,7.0,7.0,1.0,,,,,,,,,,
0.0,1.0,0.71065,,,,,,mango_09s.jpg,0.0,clockno_default.jpg,2.0,29,,,,,,,,,,,,,,,,,,0.0,8.0,8.0,8.0,1.0,,,,,,,,,,
1.0,1.0,1.703415,,,,,,rooster_03s.jpg,1.0,clockno_default.jpg,2.0,29,,,,,,,,,,,,,,,,,,0.0,9.0,9.0,9.0,1.0,,,,,,,,,,
0.0,1.0,0.63376,,,,,,orangutan_03s.jpg,0.0,clockno_default.jpg,2.0,29,,,,,,,,,,,,,,,,,,0.0,10.0,10.0,10.0,1.0,,,,,,,,,,
0.0,1.0,0.796555,,,,,,latch_15s.jpg,0.0,clockno_default.jpg,2.0,29,,,,,,,,,,,,,,,,,,0.0,11.0,11.0,11.0,1.0,,,,,,,,,,
0.0,1.0,0.663605,,,,,,soccer_ball_12s.jpg,0.0,clockno_default.jpg,2.0,29,,,,,,,,,,,,,,,,,,0.0,12.0,12.0,12.0,1.0,,,,,,,,,,
0.0,1.0,0.947495,,,,,,gear_07s.jpg,0.0,clockno_up.jpg,3.0,29,,,,,,,,,,,,,,,,,,0.0,13.0,13.0,13.0,1.0,,,,,,,,,,
1.0,1.0,0.77824,,,,,,gear_07s.jpg,1.0,clockno_default.jpg,3.0,29,,,,,,,,,,,,,,,,,,0.0,14.0,14.0,14.0,1.0,,,,,,,,,,
0.0,1.0,0.94172,,,,,,flip_flop_03s.jpg,0.0,clockno_default.jpg,3.0,29,,,,,,,,,,,,,,,,,,0.0,15.0,15.0,15.0,1.0,,,,,,,,,,
0.0,1.0,0.970275,,,,,,coffee_filter_10s.jpg,0.0,clockno_default.jpg,3.0,29,,,,,,,,,,,,,,,,,,0.0,16.0,16.0,16.0,1.0,,,,,,,,,,
1.0,1.0,0.774295,,,,,,coffee_filter_10s.jpg,1.0,clockno_default.jpg,3.0,29,,,,,,,,,,,,,,,,,,0.0,17.0,17.0,17.0,1.0,,,,,,,,,,
0.0,1.0,0.997565,,,,,,golf_club_03s.jpg,0.0,clockno_up.jpg,4.0,29,,,,,,,,,,,,,,,,,,0.0,18.0,18.0,18.0,1.0,,,,,,,,,,
0.0,1.0,1.0725,,,,,,icemaker_10s.jpg,0.0,clockno_default.jpg,4.0,29,,,,,,,,,,,,,,,,,,0.0,19.0,19.0,19.0,1.0,,,,,,,,,,
0.0,1.0,0.79839,,,,,,sleeping_bag_12s.jpg,0.0,clockno_default.jpg,4.0,29,,,,,,,,,,,,,,,,,,0.0,20.0,20.0,20.0,1.0,,,,,,,,,,
0.0,1.0,0.89682,,,,,,tape_06s.jpg,0.0,clockno_default.jpg,4.0,29,,,,,,,,,,,,,,,,,,0.0,21.0,21.0,21.0,1.0,,,,,,,,,,
0.0,1.0,0.71637,,,,,,red_carpet_03s.jpg,0.0,clockno_default.jpg,4.0,29,,,,,,,,,,,,,,,,,,0.0,22.0,22.0,22.0,1.0,,,,,,,,,,
1.0,1.0,0.991045,,,,,,red_carpet_03s.jpg,1.0,clockno_default.jpg,4.0,29,,,,,,,,,,,,,,,,,,0.0,23.0,23.0,23.0,1.0,,,,,,,,,,
0.0,0.0,1.497985,,,,,,sleeping_bag_12s.jpg,1.0,clockno_default.jpg,4.0,29,,,,,,,,,,,,,,,,,,0.0,24.0,24.0,24.0,1.0,,,,,,,,,,
0.0,1.0,0.978505,,,,,,quilt_03s.jpg,0.0,clockno_up.jpg,5.0,29,,,,,,,,,,,,,,,,,,0.0,25.0,25.0,25.0,1.0,,,,,,,,,,
0.0,1.0,0.82423,,,,,,torch_02s.jpg,0.0,clockno_default.jpg,5.0,29,,,,,,,,,,,,,,,,,,0.0,26.0,26.0,26.0,1.0,,,,,,,,,,
0.0,1.0,0.786225,,,,,,pancake_12s.jpg,0.0,clockno_default.jpg,5.0,29,,,,,,,,,,,,,,,,,,0.0,27.0,27.0,27.0,1.0,,,,,,,,,,
0.0,1.0,0.86757,,,,,,umbrella_15s.jpg,0.0,clockno_default.jpg,5.0,29,,,,,,,,,,,,,,,,,,0.0,28.0,28.0,28.0,1.0,,,,,,,,,,
0.0,1.0,0.59012,,,,,,measuring_cup_02s.jpg,0.0,clockno_default.jpg,5.0,29,,,,,,,,,,,,,,,,,,0.0,29.0,29.0,29.0,1.0,,,,,,,,,,
0.0,1.0,0.964635,,,,,,briefcase_03s.jpg,0.0,clockno_up.jpg,6.0,29,,,,,,,,,,,,,,,,,,0.0,30.0,30.0,30.0,1.0,,,,,,,,,,
0.0,1.0,0.79105,,,,,,birdcage_08s.jpg,0.0,clockno_default.jpg,6.0,29,,,,,,,,,,,,,,,,,,0.0,31.0,31.0,31.0,1.0,,,,,,,,,,
0.0,1.0,0.553825,,,,,,trumpet_06s.jpg,0.0,clockno_default.jpg,6.0,29,,,,,,,,,,,,,,,,,,0.0,32.0,32.0,32.0,1.0,,,,,,,,,,
0.0,1.0,0.82019,,,,,,pepper_mill_03s.jpg,0.0,clockno_default.jpg,6.0,29,,,,,,,,,,,,,,,,,,0.0,33.0,33.0,33.0,1.0,,,,,,,,,,
0.0,1.0,0.74607,,,,,,turtle_08s.jpg,0.0,clockno_default.jpg,6.0,29,,,,,,,,,,,,,,,,,,0.0,34.0,34.0,34.0,1.0,,,,,,,,,,
0.0,1.0,0.776405,,,,,,juicer1_08s.jpg,0.0,clockno_default.jpg,6.0,29,,,,,,,,,,,,,,,,,,0.0,35.0,35.0,35.0,1.0,,,,,,,,,,
,,,,,,,,,1.0,,,29,1.0,1.0,2.88518,,,,,,soccer_ball_12s.jpg,flip_flop_03s.jpg,,,,,,,,,,,,,0.0,0.0,0.0,0.0,1.0,,,,,
,,,,,,,,,1.0,,,29,0.0,0.0,1.91395,,,,,,bowler_hat_10s.jpg,mango_09s.jpg,,,,,,,,,,,,,0.0,1.0,1.0,1.0,1.0,,,,,
,,,,,,,,,1.0,,,29,0.0,0.0,1.494885,,,,,,pancake_12s.jpg,briefcase_03s.jpg,,,,,,,,,,,,,0.0,2.0,2.0,2.0,1.0,,,,,
,,,,,,,,,0.0,,,29,0.0,1.0,1.935845,,,,,,umbrella_15s.jpg,quilt_03s.jpg,,,,,,,,,,,,,0.0,3.0,3.0,3.0,1.0,,,,,
,,,,,,,,,0.0,,,29,1.0,0.0,1.036855,,,,,,tape_06s.jpg,golf_club_03s.jpg,,,,,,,,,,,,,0.0,4.0,4.0,4.0,1.0,,,,,
,,,,,,,,,1.0,,,29,0.0,0.0,1.57832,,,,,,torch_02s.jpg,measuring_cup_02s.jpg,,,,,,,,,,,,,0.0,5.0,5.0,5.0,1.0,,,,,
