key_resp.keys,key_resp.corr,key_resp.rt,noclock_loop.thisRepN,noclock_loop.thisTrialN,noclock_loop.thisN,noclock_loop.thisIndex,noclock_loop.ran,pictures,answer,clock,segment,participant,key_resp_2.keys,key_resp_2.corr,key_resp_2.rt,noclock_loop2.thisRepN,noclock_loop2.thisTrialN,noclock_loop2.thisN,noclock_loop2.thisIndex,noclock_loop2.ran,item_a,item_b,noclock_condition.thisRepN,noclock_condition.thisTrialN,noclock_condition.thisN,noclock_condition.thisIndex,noclock_condition.ran,present,compare,present_segment.thisRepN,present_segment.thisTrialN,present_segment.thisN,present_segment.thisIndex,present_segment.ran,compare_segment.thisRepN,compare_segment.thisTrialN,compare_segment.thisN,compare_segment.thisIndex,compare_segment.ran,clock_conditions.thisRepN,clock_conditions.thisTrialN,clock_conditions.thisN,clock_conditions.thisIndex,clock_conditions.ran
0.0,1.0,1.17972,0.0,0.0,0.0,0.0,1.0,hydrant_10s.jpg,0.0,clockno_up.jpg,1.0,50,,,,,,,,,,,,,,,,,,,,,,,,,,,,,,,,
0.0,1.0,1.8206,0.0,1.0,1.0,1.0,1.0,raccoon_02s.jpg,0.0,clockno_default.jpg,1.0,50,,,,,,,,,,,,,,,,,,,,,,,,,,,,,,,,
0.0,1.0,0.786445,0.0,2.0,2.0,2.0,1.0,tinsel_12s.jpg,0.0,clockno_default.jpg,1.0,50,,,,,,,,,,,,,,,,,,,,,,,,,,,,,,,,
0.0,1.0,0.679125,0.0,3.0,3.0,3.0,1.0,toad_09s.jpg,0.0,clockno_default.jpg,1.0,50,,,,,,,,,,,,,,,,,,,,,,,,,,,,,,,,
0.0,1.0,0.64587,0.0,4.0,4.0,4.0,1.0,penguin_16s.jpg,0.0,clockno_default.jpg,1.0,50,,,,,,,,,,,,,,,,,,,,,,,,,,,,,,,,
1.0,1.0,1.133075,0.0,5.0,5.0,5.0,1.0,hydrant_10s.jpg,1.0,clockno_default.jpg,1.0,50,,,,,,,,,,,,,,,,,,,,,,,,,,,,,,,,
0.0,1.0,0.790825,0.0,6.0,6.0,6.0,1.0,ostrich_06s.jpg,0.0,clockno_up.jpg,2.0,50,,,,,,,,,,,,,,,,,,,,,,,,,,,,,,,,
0.0,1.0,0.85841,0.0,7.0,7.0,7.0,1.0,rosary_03s.jpg,0.0,clockno_default.jpg,2.0,50,,,,,,,,,,,,,,,,,,,,,,,,,,,,,,,,
0.0,1.0,1.076365,0.0,8.0,8.0,8.0,1.0,mold2_04s.jpg,0.0,clockno_default.jpg,2.0,50,,,,,,,,,,,,,,,,,,,,,,,,,,,,,,,,
0.0,1.0,0.805535,0.0,9.0,9.0,9.0,1.0,ivy_12s.jpg,0.0,clockno_default.jpg,2.0,50,,,,,,,,,,,,,,,,,,,,,,,,,,,,,,,,
0.0,1.0,0.893445,0.0,10.0,10.0,10.0,1.0,tongs_08s.jpg,0.0,clockno_default.jpg,2.0,50,,,,,,,,,,,,,,,,,,,,,,,,,,,,,,,,
0.0,1.0,1.152855,0.0,11.0,11.0,11.0,1.0,undershirt_02s.jpg,0.0,clockno_up.jpg,3.0,50,,,,,,,,,,,,,,,,,,,,,,,,,,,,,,,,
0.0,1.0,0.853745,0.0,12.0,12.0,12.0,1.0,swing_set_15s.jpg,0.0,clockno_default.jpg,3.0,50,,,,,,,,,,,,,,,,,,,,,,,,,,,,,,,,
0.0,1.0,0.99097,0.0,13.0,13.0,13.0,1.0,beard_16s.jpg,0.0,clockno_default.jpg,3.0,50,,,,,,,,,,,,,,,,,,,,,,,,,,,,,,,,
0.0,1.0,1.32854,0.0,14.0,14.0,14.0,1.0,mold2_04s.jpg,0.0,clockno_default.jpg,3.0,50,,,,,,,,,,,,,,,,,,,,,,,,,,,,,,,,
0.0,1.0,1.60062,0.0,15.0,15.0,15.0,1.0,submarine_11n.jpg,0.0,clockno_default.jpg,3.0,50,,,,,,,,,,,,,,,,,,,,,,,,,,,,,,,,
0.0,1.0,1.458635,0.0,16.0,16.0,16.0,1.0,recliner_02s.jpg,0.0,clockno_default.jpg,3.0,50,,,,,,,,,,,,,,,,,,,,,,,,,,,,,,,,
0.0,1.0,0.78443,0.0,17.0,17.0,17.0,1.0,limousine_12s.jpg,0.0,clockno_default.jpg,3.0,50,,,,,,,,,,,,,,,,,,,,,,,,,,,,,,,,
0.0,1.0,1.154355,0.0,18.0,18.0,18.0,1.0,potpourri_03s.jpg,0.0,clockno_up.jpg,4.0,50,,,,,,,,,,,,,,,,,,,,,,,,,,,,,,,,
1.0,1.0,1.045105,0.0,19.0,19.0,19.0,1.0,potpourri_03s.jpg,1.0,clockno_default.jpg,4.0,50,,,,,,,,,,,,,,,,,,,,,,,,,,,,,,,,
0.0,1.0,1.567785,0.0,20.0,20.0,20.0,1.0,swan_11s.jpg,0.0,clockno_default.jpg,4.0,50,,,,,,,,,,,,,,,,,,,,,,,,,,,,,,,,
0.0,1.0,1.00737,0.0,21.0,21.0,21.0,1.0,mold2_04s.jpg,0.0,clockno_default.jpg,4.0,50,,,,,,,,,,,,,,,,,,,,,,,,,,,,,,,,
0.0,1.0,0.96295,0.0,22.0,22.0,22.0,1.0,plug_08s.jpg,0.0,clockno_default.jpg,4.0,50,,,,,,,,,,,,,,,,,,,,,,,,,,,,,,,,
0.0,1.0,0.84309,0.0,23.0,23.0,23.0,1.0,punch2_09s.jpg,0.0,clockno_up.jpg,5.0,50,,,,,,,,,,,,,,,,,,,,,,,,,,,,,,,,
0.0,1.0,0.862855,0.0,24.0,24.0,24.0,1.0,blowfish_03s.jpg,0.0,clockno_default.jpg,5.0,50,,,,,,,,,,,,,,,,,,,,,,,,,,,,,,,,
0.0,1.0,1.0237,0.0,25.0,25.0,25.0,1.0,badge_03s.jpg,0.0,clockno_default.jpg,5.0,50,,,,,,,,,,,,,,,,,,,,,,,,,,,,,,,,
0.0,1.0,0.61557,0.0,26.0,26.0,26.0,1.0,go-kart_10s.jpg,0.0,clockno_default.jpg,5.0,50,,,,,,,,,,,,,,,,,,,,,,,,,,,,,,,,
0.0,1.0,0.63567,0.0,27.0,27.0,27.0,1.0,surfboard_11s.jpg,0.0,clockno_default.jpg,5.0,50,,,,,,,,,,,,,,,,,,,,,,,,,,,,,,,,
0.0,1.0,0.84544,0.0,28.0,28.0,28.0,1.0,kimono_13s.jpg,0.0,clockno_default.jpg,5.0,50,,,,,,,,,,,,,,,,,,,,,,,,,,,,,,,,
0.0,1.0,0.856485,0.0,29.0,29.0,29.0,1.0,teapot_03s.jpg,0.0,clockno_default.jpg,5.0,50,,,,,,,,,,,,,,,,,,,,,,,,,,,,,,,,
0.0,1.0,1.00455,0.0,30.0,30.0,30.0,1.0,eiffeltower.jpg,0.0,clockno_up.jpg,6.0,50,,,,,,,,,,,,,,,,,,,,,,,,,,,,,,,,
0.0,1.0,0.986995,0.0,31.0,31.0,31.0,1.0,checkbook_11s.jpg,0.0,clockno_default.jpg,6.0,50,,,,,,,,,,,,,,,,,,,,,,,,,,,,,,,,
0.0,1.0,1.05147,0.0,32.0,32.0,32.0,1.0,ostrich_06s.jpg,0.0,clockno_default.jpg,6.0,50,,,,,,,,,,,,,,,,,,,,,,,,,,,,,,,,
1.0,1.0,1.218945,0.0,33.0,33.0,33.0,1.0,eiffeltower.jpg,1.0,clockno_default.jpg,6.0,50,,,,,,,,,,,,,,,,,,,,,,,,,,,,,,,,
0.0,1.0,0.72763,0.0,34.0,34.0,34.0,1.0,sunflower_17s.jpg,0.0,clockno_default.jpg,6.0,50,,,,,,,,,,,,,,,,,,,,,,,,,,,,,,,,
1.0,1.0,0.84309,0.0,35.0,35.0,35.0,1.0,sunflower_17s.jpg,1.0,clockno_default.jpg,6.0,50,,,,,,,,,,,,,,,,,,,,,,,,,,,,,,,,
,,,,,,,,,0.0,,,50,1.0,0.0,1.07207,0.0,0.0,0.0,0.0,1.0,swan_11s.jpg,limousine_12s.jpg,,,,,,,,,,,,,,,,,,,,,,
,,,,,,,,,0.0,,,50,0.0,1.0,1.35589,0.0,1.0,1.0,1.0,1.0,swing_set_15s.jpg,ivy_12s.jpg,,,,,,,,,,,,,,,,,,,,,,
,,,,,,,,,0.0,,,50,1.0,0.0,1.08055,0.0,2.0,2.0,2.0,1.0,badge_03s.jpg,plug_08s.jpg,,,,,,,,,,,,,,,,,,,,,,
,,,,,,,,,1.0,,,50,1.0,1.0,1.11791,0.0,3.0,3.0,3.0,1.0,blowfish_03s.jpg,surfboard_11s.jpg,,,,,,,,,,,,,,,,,,,,,,
,,,,,,,,,1.0,,,50,1.0,1.0,1.189755,0.0,4.0,4.0,4.0,1.0,go-kart_10s.jpg,teapot_03s.jpg,,,,,,,,,,,,,,,,,,,,,,
,,,,,,,,,0.0,,,50,0.0,1.0,1.212275,0.0,5.0,5.0,5.0,1.0,penguin_16s.jpg,raccoon_02s.jpg,,,,,,,,,,,,,,,,,,,,,,
,,,,,,,,,,,,50,,,,,,,,,,,0.0,0.0,0.0,0.0,1.0,clockno_present_1_3.xlsx,clockno_compare_task_1_3.xlsx,,,,,,,,,,,,,,,
0.0,1.0,0.687925,0.0,0.0,0.0,0.0,1.0,tulip_02s.jpg,0.0,clockno_up.jpg,1.0,50,,,,,,,,,,,,,,,,,,,,,,,,,,,,,,,,
0.0,1.0,1.621535,0.0,1.0,1.0,1.0,1.0,telephone_pole_05s.jpg,0.0,clockno_default.jpg,1.0,50,,,,,,,,,,,,,,,,,,,,,,,,,,,,,,,,
0.0,1.0,0.822075,0.0,2.0,2.0,2.0,1.0,mousetrap_15n.jpg,0.0,clockno_default.jpg,1.0,50,,,,,,,,,,,,,,,,,,,,,,,,,,,,,,,,
1.0,1.0,0.94656,0.0,3.0,3.0,3.0,1.0,telephone_pole_05s.jpg,1.0,clockno_default.jpg,1.0,50,,,,,,,,,,,,,,,,,,,,,,,,,,,,,,,,
1.0,1.0,1.141055,0.0,4.0,4.0,4.0,1.0,telephone_pole_05s.jpg,1.0,clockno_default.jpg,1.0,50,,,,,,,,,,,,,,,,,,,,,,,,,,,,,,,,
0.0,1.0,0.8038,0.0,5.0,5.0,5.0,1.0,jelly_bean_06s.jpg,0.0,clockno_up.jpg,2.0,50,,,,,,,,,,,,,,,,,,,,,,,,,,,,,,,,
0.0,1.0,0.99194,0.0,6.0,6.0,6.0,1.0,fox_13s.jpg,0.0,clockno_default.jpg,2.0,50,,,,,,,,,,,,,,,,,,,,,,,,,,,,,,,,
0.0,1.0,0.92138,0.0,7.0,7.0,7.0,1.0,ice_pack_09s.jpg,0.0,clockno_default.jpg,2.0,50,,,,,,,,,,,,,,,,,,,,,,,,,,,,,,,,
0.0,1.0,0.94066,0.0,8.0,8.0,8.0,1.0,screwdriver02a.jpg,0.0,clockno_default.jpg,2.0,50,,,,,,,,,,,,,,,,,,,,,,,,,,,,,,,,
1.0,1.0,1.023755,0.0,9.0,9.0,9.0,1.0,jelly_bean_06s.jpg,1.0,clockno_default.jpg,2.0,50,,,,,,,,,,,,,,,,,,,,,,,,,,,,,,,,
0.0,1.0,1.184705,0.0,10.0,10.0,10.0,1.0,puddle_02s.jpg,0.0,clockno_up.jpg,3.0,50,,,,,,,,,,,,,,,,,,,,,,,,,,,,,,,,
0.0,1.0,0.977005,0.0,11.0,11.0,11.0,1.0,lamp_08s.jpg,0.0,clockno_default.jpg,3.0,50,,,,,,,,,,,,,,,,,,,,,,,,,,,,,,,,
1.0,1.0,1.270795,0.0,12.0,12.0,12.0,1.0,puddle_02s.jpg,1.0,clockno_default.jpg,3.0,50,,,,,,,,,,,,,,,,,,,,,,,,,,,,,,,,
0.0,1.0,1.9528,0.0,13.0,13.0,13.0,1.0,jelly_bean_06s.jpg,0.0,clockno_default.jpg,3.0,50,,,,,,,,,,,,,,,,,,,,,,,,,,,,,,,,
0.0,1.0,1.20152,0.0,14.0,14.0,14.0,1.0,kangaroo_02s.jpg,0.0,clockno_default.jpg,3.0,50,,,,,,,,,,,,,,,,,,,,,,,,,,,,,,,,
0.0,1.0,1.036595,0.0,15.0,15.0,15.0,1.0,tape_measure_11s.jpg,0.0,clockno_default.jpg,3.0,50,,,,,,,,,,,,,,,,,,,,,,,,,,,,,,,,
0.0,1.0,0.987815,0.0,16.0,16.0,16.0,1.0,funnel_01b.jpg,0.0,clockno_up.jpg,4.0,50,,,,,,,,,,,,,,,,,,,,,,,,,,,,,,,,
0.0,1.0,1.27767,0.0,17.0,17.0,17.0,1.0,razor_12s.jpg,0.0,clockno_default.jpg,4.0,50,,,,,,,,,,,,,,,,,,,,,,,,,,,,,,,,
0.0,1.0,1.406045,0.0,18.0,18.0,18.0,1.0,duck_01b.jpg,0.0,clockno_default.jpg,4.0,50,,,,,,,,,,,,,,,,,,,,,,,,,,,,,,,,
0.0,1.0,1.86859,0.0,19.0,19.0,19.0,1.0,pocket_watch_16s.jpg,0.0,clockno_default.jpg,4.0,50,,,,,,,,,,,,,,,,,,,,,,,,,,,,,,,,
1.0,1.0,0.93,0.0,20.0,20.0,20.0,1.0,funnel_01b.jpg,1.0,clockno_default.jpg,4.0,50,,,,,,,,,,,,,,,,,,,,,,,,,,,,,,,,
0.0,1.0,0.93978,0.0,21.0,21.0,21.0,1.0,binder_21s.jpg,0.0,clockno_default.jpg,4.0,50,,,,,,,,,,,,,,,,,,,,,,,,,,,,,,,,
0.0,1.0,0.9696,0.0,22.0,22.0,22.0,1.0,stump_02s.jpg,0.0,clockno_default.jpg,4.0,50,,,,,,,,,,,,,,,,,,,,,,,,,,,,,,,,
0.0,1.0,1.16823,0.0,23.0,23.0,23.0,1.0,mud_13s.jpg,0.0,clockno_up.jpg,5.0,50,,,,,,,,,,,,,,,,,,,,,,,,,,,,,,,,
1.0,1.0,0.824545,0.0,24.0,24.0,24.0,1.0,mud_13s.jpg,1.0,clockno_default.jpg,5.0,50,,,,,,,,,,,,,,,,,,,,,,,,,,,,,,,,
0.0,1.0,1.504555,0.0,25.0,25.0,25.0,1.0,funnel_01b.jpg,0.0,clockno_default.jpg,5.0,50,,,,,,,,,,,,,,,,,,,,,,,,,,,,,,,,
0.0,1.0,0.926565,0.0,26.0,26.0,26.0,1.0,clover_04s.jpg,0.0,clockno_default.jpg,5.0,50,,,,,,,,,,,,,,,,,,,,,,,,,,,,,,,,
0.0,1.0,1.40635,0.0,27.0,27.0,27.0,1.0,letter_opener_03s.jpg,0.0,clockno_default.jpg,5.0,50,,,,,,,,,,,,,,,,,,,,,,,,,,,,,,,,
0.0,1.0,0.87211,0.0,28.0,28.0,28.0,1.0,lasagna_06s.jpg,0.0,clockno_default.jpg,5.0,50,,,,,,,,,,,,,,,,,,,,,,,,,,,,,,,,
0.0,1.0,0.878755,0.0,29.0,29.0,29.0,1.0,bacon_05s.jpg,0.0,clockno_default.jpg,5.0,50,,,,,,,,,,,,,,,,,,,,,,,,,,,,,,,,
0.0,1.0,1.10137,0.0,30.0,30.0,30.0,1.0,dirt_bike_11s.jpg,0.0,clockno_up.jpg,6.0,50,,,,,,,,,,,,,,,,,,,,,,,,,,,,,,,,
0.0,1.0,1.673435,0.0,31.0,31.0,31.0,1.0,rollerskate_03s.jpg,0.0,clockno_default.jpg,6.0,50,,,,,,,,,,,,,,,,,,,,,,,,,,,,,,,,
0.0,1.0,0.8127,0.0,32.0,32.0,32.0,1.0,mitten_10s.jpg,0.0,clockno_default.jpg,6.0,50,,,,,,,,,,,,,,,,,,,,,,,,,,,,,,,,
1.0,1.0,0.679295,0.0,33.0,33.0,33.0,1.0,mitten_10s.jpg,1.0,clockno_default.jpg,6.0,50,,,,,,,,,,,,,,,,,,,,,,,,,,,,,,,,
0.0,1.0,0.72166,0.0,34.0,34.0,34.0,1.0,emerald_02s.jpg,0.0,clockno_default.jpg,6.0,50,,,,,,,,,,,,,,,,,,,,,,,,,,,,,,,,
0.0,1.0,0.967915,0.0,35.0,35.0,35.0,1.0,turf_03s.jpg,0.0,clockno_default.jpg,6.0,50,,,,,,,,,,,,,,,,,,,,,,,,,,,,,,,,
,,,,,,,,,1.0,,,50,1.0,1.0,1.71252,0.0,0.0,0.0,0.0,1.0,letter_opener_03s.jpg,dirt_bike_11s.jpg,,,,,,,,,,,,,,,,,,,,,,
,,,,,,,,,0.0,,,50,1.0,0.0,2.160605,0.0,1.0,1.0,1.0,1.0,lamp_08s.jpg,screwdriver02a.jpg,,,,,,,,,,,,,,,,,,,,,,
,,,,,,,,,0.0,,,50,0.0,1.0,2.34946,0.0,2.0,2.0,2.0,1.0,razor_12s.jpg,kangaroo_02s.jpg,,,,,,,,,,,,,,,,,,,,,,
,,,,,,,,,0.0,,,50,0.0,1.0,1.96007,0.0,3.0,3.0,3.0,1.0,stump_02s.jpg,pocket_watch_16s.jpg,,,,,,,,,,,,,,,,,,,,,,
,,,,,,,,,1.0,,,50,1.0,1.0,1.3193,0.0,4.0,4.0,4.0,1.0,clover_04s.jpg,bacon_05s.jpg,,,,,,,,,,,,,,,,,,,,,,
,,,,,,,,,1.0,,,50,1.0,1.0,1.325315,0.0,5.0,5.0,5.0,1.0,duck_01b.jpg,binder_21s.jpg,,,,,,,,,,,,,,,,,,,,,,
,,,,,,,,,,,,50,,,,,,,,,,,0.0,1.0,1.0,1.0,1.0,clockno_present_2_3.xlsx,clockno_compare_task_2_3.xlsx,,,,,,,,,,,,,,,
0.0,1.0,0.645165,0.0,0.0,0.0,0.0,1.0,mosquito_12s.jpg,0.0,clockno_up.jpg,1.0,50,,,,,,,,,,,,,,,,,,,,,,,,,,,,,,,,
0.0,1.0,1.21009,0.0,1.0,1.0,1.0,1.0,power_line_08s.jpg,0.0,clockno_default.jpg,1.0,50,,,,,,,,,,,,,,,,,,,,,,,,,,,,,,,,
1.0,1.0,0.781065,0.0,2.0,2.0,2.0,1.0,power_line_08s.jpg,1.0,clockno_default.jpg,1.0,50,,,,,,,,,,,,,,,,,,,,,,,,,,,,,,,,
0.0,1.0,0.69098,0.0,3.0,3.0,3.0,1.0,tennis_ball_06s.jpg,0.0,clockno_default.jpg,1.0,50,,,,,,,,,,,,,,,,,,,,,,,,,,,,,,,,
0.0,1.0,1.1618,0.0,4.0,4.0,4.0,1.0,syringe_02s.jpg,0.0,clockno_default.jpg,1.0,50,,,,,,,,,,,,,,,,,,,,,,,,,,,,,,,,
1.0,1.0,0.67832,0.0,5.0,5.0,5.0,1.0,power_line_08s.jpg,1.0,clockno_default.jpg,1.0,50,,,,,,,,,,,,,,,,,,,,,,,,,,,,,,,,
0.0,1.0,0.857075,0.0,6.0,6.0,6.0,1.0,phone_01b.jpg,0.0,clockno_default.jpg,1.0,50,,,,,,,,,,,,,,,,,,,,,,,,,,,,,,,,
0.0,1.0,1.0646,0.0,7.0,7.0,7.0,1.0,keyboard_05s.jpg,0.0,clockno_up.jpg,2.0,50,,,,,,,,,,,,,,,,,,,,,,,,,,,,,,,,
1.0,1.0,0.9424,0.0,8.0,8.0,8.0,1.0,keyboard_05s.jpg,1.0,clockno_default.jpg,2.0,50,,,,,,,,,,,,,,,,,,,,,,,,,,,,,,,,
0.0,1.0,1.01562,0.0,9.0,9.0,9.0,1.0,ant_12s.jpg,0.0,clockno_default.jpg,2.0,50,,,,,,,,,,,,,,,,,,,,,,,,,,,,,,,,
0.0,1.0,0.78228,0.0,10.0,10.0,10.0,1.0,squirrel_02s.jpg,0.0,clockno_default.jpg,2.0,50,,,,,,,,,,,,,,,,,,,,,,,,,,,,,,,,
0.0,1.0,1.30209,0.0,11.0,11.0,11.0,1.0,mailbox_11s.jpg,0.0,clockno_default.jpg,2.0,50,,,,,,,,,,,,,,,,,,,,,,,,,,,,,,,,
0.0,1.0,1.29349,0.0,12.0,12.0,12.0,1.0,medal_04s.jpg,0.0,clockno_up.jpg,3.0,50,,,,,,,,,,,,,,,,,,,,,,,,,,,,,,,,
0.0,1.0,1.326245,0.0,13.0,13.0,13.0,1.0,ice-cream_cone_06s.jpg,0.0,clockno_default.jpg,3.0,50,,,,,,,,,,,,,,,,,,,,,,,,,,,,,,,,
0.0,1.0,0.638295,0.0,14.0,14.0,14.0,1.0,rabbit_03s.jpg,0.0,clockno_default.jpg,3.0,50,,,,,,,,,,,,,,,,,,,,,,,,,,,,,,,,
0.0,1.0,1.36689,0.0,15.0,15.0,15.0,1.0,ukulele_02s.jpg,0.0,clockno_default.jpg,3.0,50,,,,,,,,,,,,,,,,,,,,,,,,,,,,,,,,
0.0,1.0,0.7096,0.0,16.0,16.0,16.0,1.0,marshmallow_08s.jpg,0.0,clockno_default.jpg,3.0,50,,,,,,,,,,,,,,,,,,,,,,,,,,,,,,,,
0.0,1.0,1.027855,0.0,17.0,17.0,17.0,1.0,air_pump_05s.jpg,0.0,clockno_up.jpg,4.0,50,,,,,,,,,,,,,,,,,,,,,,,,,,,,,,,,
0.0,1.0,0.90719,0.0,18.0,18.0,18.0,1.0,pocketknife_12s.jpg,0.0,clockno_default.jpg,4.0,50,,,,,,,,,,,,,,,,,,,,,,,,,,,,,,,,
0.0,1.0,1.31644,0.0,19.0,19.0,19.0,1.0,torch_02s.jpg,0.0,clockno_default.jpg,4.0,50,,,,,,,,,,,,,,,,,,,,,,,,,,,,,,,,
1.0,1.0,0.678105,0.0,20.0,20.0,20.0,1.0,torch_02s.jpg,1.0,clockno_default.jpg,4.0,50,,,,,,,,,,,,,,,,,,,,,,,,,,,,,,,,
0.0,1.0,0.65196,0.0,21.0,21.0,21.0,1.0,bank_06s.jpg,0.0,clockno_default.jpg,4.0,50,,,,,,,,,,,,,,,,,,,,,,,,,,,,,,,,
0.0,1.0,1.059505,0.0,22.0,22.0,22.0,1.0,bottle_opener_11s.jpg,0.0,clockno_default.jpg,4.0,50,,,,,,,,,,,,,,,,,,,,,,,,,,,,,,,,
0.0,1.0,0.86204,0.0,23.0,23.0,23.0,1.0,toilet_07s.jpg,0.0,clockno_default.jpg,4.0,50,,,,,,,,,,,,,,,,,,,,,,,,,,,,,,,,
0.0,1.0,1.309555,0.0,24.0,24.0,24.0,1.0,rocket_02s.jpg,0.0,clockno_up.jpg,5.0,50,,,,,,,,,,,,,,,,,,,,,,,,,,,,,,,,
0.0,1.0,1.05603,0.0,25.0,25.0,25.0,1.0,ravioli_08s.jpg,0.0,clockno_default.jpg,5.0,50,,,,,,,,,,,,,,,,,,,,,,,,,,,,,,,,
1.0,1.0,1.223715,0.0,26.0,26.0,26.0,1.0,ravioli_08s.jpg,1.0,clockno_default.jpg,5.0,50,,,,,,,,,,,,,,,,,,,,,,,,,,,,,,,,
0.0,1.0,1.22789,0.0,27.0,27.0,27.0,1.0,popsicle_02s.jpg,0.0,clockno_default.jpg,5.0,50,,,,,,,,,,,,,,,,,,,,,,,,,,,,,,,,
0.0,0.0,0.942055,0.0,28.0,28.0,28.0,1.0,rocket_02s.jpg,1.0,clockno_default.jpg,5.0,50,,,,,,,,,,,,,,,,,,,,,,,,,,,,,,,,
0.0,1.0,1.71859,0.0,29.0,29.0,29.0,1.0,onion_10s.jpg,0.0,clockno_default.jpg,5.0,50,,,,,,,,,,,,,,,,,,,,,,,,,,,,,,,,
0.0,1.0,1.06944,0.0,30.0,30.0,30.0,1.0,omelet_07s.jpg,0.0,clockno_up.jpg,6.0,50,,,,,,,,,,,,,,,,,,,,,,,,,,,,,,,,
0.0,1.0,1.12599,0.0,31.0,31.0,31.0,1.0,tennis_ball_06s.jpg,0.0,clockno_default.jpg,6.0,50,,,,,,,,,,,,,,,,,,,,,,,,,,,,,,,,
0.0,1.0,0.805865,0.0,32.0,32.0,32.0,1.0,microwave_02s.jpg,0.0,clockno_default.jpg,6.0,50,,,,,,,,,,,,,,,,,,,,,,,,,,,,,,,,
0.0,1.0,0.70459,0.0,33.0,33.0,33.0,1.0,chocolate_01b.jpg,0.0,clockno_default.jpg,6.0,50,,,,,,,,,,,,,,,,,,,,,,,,,,,,,,,,
0.0,1.0,0.82912,0.0,34.0,34.0,34.0,1.0,knot_01b.jpg,0.0,clockno_default.jpg,6.0,50,,,,,,,,,,,,,,,,,,,,,,,,,,,,,,,,
0.0,1.0,0.73657,0.0,35.0,35.0,35.0,1.0,rice_12s.jpg,0.0,clockno_default.jpg,6.0,50,,,,,,,,,,,,,,,,,,,,,,,,,,,,,,,,
,,,,,,,,,0.0,,,50,1.0,0.0,2.155355,0.0,0.0,0.0,0.0,1.0,ant_12s.jpg,phone_01b.jpg,,,,,,,,,,,,,,,,,,,,,,
,,,,,,,,,1.0,,,50,1.0,1.0,2.57193,0.0,1.0,1.0,1.0,1.0,mailbox_11s.jpg,rabbit_03s.jpg,,,,,,,,,,,,,,,,,,,,,,
,,,,,,,,,1.0,,,50,1.0,1.0,1.74527,0.0,2.0,2.0,2.0,1.0,squirrel_02s.jpg,ice-cream_cone_06s.jpg,,,,,,,,,,,,,,,,,,,,,,
,,,,,,,,,1.0,,,50,0.0,0.0,2.59198,0.0,3.0,3.0,3.0,1.0,pocketknife_12s.jpg,bank_06s.jpg,,,,,,,,,,,,,,,,,,,,,,
,,,,,,,,,1.0,,,50,1.0,1.0,1.75454,0.0,4.0,4.0,4.0,1.0,omelet_07s.jpg,chocolate_01b.jpg,,,,,,,,,,,,,,,,,,,,,,
,,,,,,,,,0.0,,,50,1.0,0.0,2.73081,0.0,5.0,5.0,5.0,1.0,rice_12s.jpg,microwave_02s.jpg,,,,,,,,,,,,,,,,,,,,,,
,,,,,,,,,,,,50,,,,,,,,,,,0.0,2.0,2.0,2.0,1.0,clockno_present_3_3.xlsx,clockno_compare_task_3_3.xlsx,,,,,,,,,,,,,,,
0.0,1.0,0.94664,0.0,0.0,0.0,0.0,1.0,trident_07s.jpg,0.0,clockno_up.jpg,1.0,50,,,,,,,,,,,,,,,,,,,,,,,,,,,,,,,,
1.0,1.0,0.6739,0.0,1.0,1.0,1.0,1.0,trident_07s.jpg,1.0,clockno_default.jpg,1.0,50,,,,,,,,,,,,,,,,,,,,,,,,,,,,,,,,
1.0,1.0,0.87765,0.0,2.0,2.0,2.0,1.0,trident_07s.jpg,1.0,clockno_default.jpg,1.0,50,,,,,,,,,,,,,,,,,,,,,,,,,,,,,,,,
0.0,1.0,1.260565,0.0,3.0,3.0,3.0,1.0,tie_03s.jpg,0.0,clockno_default.jpg,1.0,50,,,,,,,,,,,,,,,,,,,,,,,,,,,,,,,,
0.0,1.0,0.782525,0.0,4.0,4.0,4.0,1.0,loveseat_08s.jpg,0.0,clockno_default.jpg,1.0,50,,,,,,,,,,,,,,,,,,,,,,,,,,,,,,,,
0.0,1.0,0.94699,0.0,5.0,5.0,5.0,1.0,penlight_12s.jpg,0.0,clockno_default.jpg,1.0,50,,,,,,,,,,,,,,,,,,,,,,,,,,,,,,,,
1.0,1.0,1.20325,0.0,6.0,6.0,6.0,1.0,tie_03s.jpg,1.0,clockno_default.jpg,1.0,50,,,,,,,,,,,,,,,,,,,,,,,,,,,,,,,,
0.0,1.0,1.423155,0.0,7.0,7.0,7.0,1.0,frame_06s.jpg,0.0,clockno_up.jpg,2.0,50,,,,,,,,,,,,,,,,,,,,,,,,,,,,,,,,
0.0,1.0,1.54025,0.0,8.0,8.0,8.0,1.0,tie_03s.jpg,0.0,clockno_default.jpg,2.0,50,,,,,,,,,,,,,,,,,,,,,,,,,,,,,,,,
0.0,1.0,1.16781,0.0,9.0,9.0,9.0,1.0,rocking_chair_05s.jpg,0.0,clockno_default.jpg,2.0,50,,,,,,,,,,,,,,,,,,,,,,,,,,,,,,,,
1.0,1.0,2.03796,0.0,10.0,10.0,10.0,1.0,tie_03s.jpg,1.0,clockno_default.jpg,2.0,50,,,,,,,,,,,,,,,,,,,,,,,,,,,,,,,,
0.0,1.0,0.713915,0.0,11.0,11.0,11.0,1.0,metronome_03s.jpg,0.0,clockno_default.jpg,2.0,50,,,,,,,,,,,,,,,,,,,,,,,,,,,,,,,,
0.0,1.0,1.356035,0.0,12.0,12.0,12.0,1.0,foam_03s.jpg,0.0,clockno_default.jpg,2.0,50,,,,,,,,,,,,,,,,,,,,,,,,,,,,,,,,
0.0,1.0,1.44704,0.0,13.0,13.0,13.0,1.0,refrigerator_07s.jpg,0.0,clockno_up.jpg,3.0,50,,,,,,,,,,,,,,,,,,,,,,,,,,,,,,,,
0.0,1.0,0.96041,0.0,14.0,14.0,14.0,1.0,stingray_02s.jpg,0.0,clockno_default.jpg,3.0,50,,,,,,,,,,,,,,,,,,,,,,,,,,,,,,,,
0.0,1.0,0.93583,0.0,15.0,15.0,15.0,1.0,crystal_ball_12s.jpg,0.0,clockno_default.jpg,3.0,50,,,,,,,,,,,,,,,,,,,,,,,,,,,,,,,,
0.0,1.0,0.780755,0.0,16.0,16.0,16.0,1.0,lava_02s.jpg,0.0,clockno_default.jpg,3.0,50,,,,,,,,,,,,,,,,,,,,,,,,,,,,,,,,
0.0,1.0,0.9978,0.0,17.0,17.0,17.0,1.0,seahorse_13s.jpg,0.0,clockno_default.jpg,3.0,50,,,,,,,,,,,,,,,,,,,,,,,,,,,,,,,,
0.0,1.0,0.99184,0.0,18.0,18.0,18.0,1.0,stamp2_08s.jpg,0.0,clockno_up.jpg,4.0,50,,,,,,,,,,,,,,,,,,,,,,,,,,,,,,,,
0.0,1.0,1.390075,0.0,19.0,19.0,19.0,1.0,trident_07s.jpg,0.0,clockno_default.jpg,4.0,50,,,,,,,,,,,,,,,,,,,,,,,,,,,,,,,,
0.0,1.0,0.92795,0.0,20.0,20.0,20.0,1.0,rake_06s.jpg,0.0,clockno_default.jpg,4.0,50,,,,,,,,,,,,,,,,,,,,,,,,,,,,,,,,
0.0,1.0,0.737965,0.0,21.0,21.0,21.0,1.0,toaster_03s.jpg,0.0,clockno_default.jpg,4.0,50,,,,,,,,,,,,,,,,,,,,,,,,,,,,,,,,
0.0,1.0,0.749555,0.0,22.0,22.0,22.0,1.0,scooter.jpg,0.0,clockno_default.jpg,4.0,50,,,,,,,,,,,,,,,,,,,,,,,,,,,,,,,,
1.0,1.0,1.465225,0.0,23.0,23.0,23.0,1.0,toaster_03s.jpg,1.0,clockno_default.jpg,4.0,50,,,,,,,,,,,,,,,,,,,,,,,,,,,,,,,,
0.0,1.0,0.88682,0.0,24.0,24.0,24.0,1.0,meatball_13s.jpg,0.0,clockno_default.jpg,4.0,50,,,,,,,,,,,,,,,,,,,,,,,,,,,,,,,,
0.0,1.0,0.912465,0.0,25.0,25.0,25.0,1.0,lion_18s.jpg,0.0,clockno_up.jpg,5.0,50,,,,,,,,,,,,,,,,,,,,,,,,,,,,,,,,
0.0,1.0,1.324505,0.0,26.0,26.0,26.0,1.0,playpen_11s.jpg,0.0,clockno_default.jpg,5.0,50,,,,,,,,,,,,,,,,,,,,,,,,,,,,,,,,
0.0,1.0,0.764325,0.0,27.0,27.0,27.0,1.0,mango_09s.jpg,0.0,clockno_default.jpg,5.0,50,,,,,,,,,,,,,,,,,,,,,,,,,,,,,,,,
0.0,1.0,0.84496,0.0,28.0,28.0,28.0,1.0,laundry_basket_11s.jpg,0.0,clockno_default.jpg,5.0,50,,,,,,,,,,,,,,,,,,,,,,,,,,,,,,,,
0.0,1.0,0.76526,0.0,29.0,29.0,29.0,1.0,thermostat_02s.jpg,0.0,clockno_default.jpg,5.0,50,,,,,,,,,,,,,,,,,,,,,,,,,,,,,,,,
0.0,1.0,1.0308,0.0,30.0,30.0,30.0,1.0,treadmill_06s.jpg,0.0,clockno_up.jpg,6.0,50,,,,,,,,,,,,,,,,,,,,,,,,,,,,,,,,
0.0,1.0,1.150425,0.0,31.0,31.0,31.0,1.0,rocking_chair_05s.jpg,0.0,clockno_default.jpg,6.0,50,,,,,,,,,,,,,,,,,,,,,,,,,,,,,,,,
0.0,1.0,1.311175,0.0,32.0,32.0,32.0,1.0,basket_05s.jpg,0.0,clockno_default.jpg,6.0,50,,,,,,,,,,,,,,,,,,,,,,,,,,,,,,,,
1.0,1.0,1.165845,0.0,33.0,33.0,33.0,1.0,treadmill_06s.jpg,1.0,clockno_default.jpg,6.0,50,,,,,,,,,,,,,,,,,,,,,,,,,,,,,,,,
0.0,1.0,1.63493,0.0,34.0,34.0,34.0,1.0,foam_03s.jpg,0.0,clockno_default.jpg,6.0,50,,,,,,,,,,,,,,,,,,,,,,,,,,,,,,,,
1.0,1.0,0.727465,0.0,35.0,35.0,35.0,1.0,foam_03s.jpg,1.0,clockno_default.jpg,6.0,50,,,,,,,,,,,,,,,,,,,,,,,,,,,,,,,,
,,,,,,,,,0.0,,,50,0.0,1.0,2.450725,0.0,0.0,0.0,0.0,1.0,frame_06s.jpg,loveseat_08s.jpg,,,,,,,,,,,,,,,,,,,,,,
,,,,,,,,,1.0,,,50,1.0,1.0,1.691715,0.0,1.0,1.0,1.0,1.0,crystal_ball_12s.jpg,stamp2_08s.jpg,,,,,,,,,,,,,,,,,,,,,,
,,,,,,,,,1.0,,,50,0.0,0.0,1.892705,0.0,2.0,2.0,2.0,1.0,meatball_13s.jpg,mango_09s.jpg,,,,,,,,,,,,,,,,,,,,,,
,,,,,,,,,0.0,,,50,0.0,1.0,2.93437,0.0,3.0,3.0,3.0,1.0,lava_02s.jpg,refrigerator_07s.jpg,,,,,,,,,,,,,,,,,,,,,,
,,,,,,,,,0.0,,,50,1.0,0.0,1.15899,0.0,4.0,4.0,4.0,1.0,laundry_basket_11s.jpg,lion_18s.jpg,,,,,,,,,,,,,,,,,,,,,,
,,,,,,,,,1.0,,,50,1.0,1.0,1.490155,0.0,5.0,5.0,5.0,1.0,playpen_11s.jpg,thermostat_02s.jpg,,,,,,,,,,,,,,,,,,,,,,
,,,,,,,,,,,,50,,,,,,,,,,,0.0,3.0,3.0,3.0,1.0,clockno_present_4_3.xlsx,clockno_compare_task_4_3.xlsx,,,,,,,,,,,,,,,
0.0,1.0,0.66868,0.0,0.0,0.0,0.0,1.0,latte_06s.jpg,0.0,clockno_up.jpg,1.0,50,,,,,,,,,,,,,,,,,,,,,,,,,,,,,,,,
0.0,1.0,1.015785,0.0,1.0,1.0,1.0,1.0,lemonade_04s.jpg,0.0,clockno_default.jpg,1.0,50,,,,,,,,,,,,,,,,,,,,,,,,,,,,,,,,
1.0,1.0,0.80622,0.0,2.0,2.0,2.0,1.0,lemonade_04s.jpg,1.0,clockno_default.jpg,1.0,50,,,,,,,,,,,,,,,,,,,,,,,,,,,,,,,,
1.0,1.0,1.52693,0.0,3.0,3.0,3.0,1.0,latte_06s.jpg,1.0,clockno_default.jpg,1.0,50,,,,,,,,,,,,,,,,,,,,,,,,,,,,,,,,
1.0,1.0,1.208395,0.0,4.0,4.0,4.0,1.0,lemonade_04s.jpg,1.0,clockno_default.jpg,1.0,50,,,,,,,,,,,,,,,,,,,,,,,,,,,,,,,,
0.0,1.0,1.21701,0.0,5.0,5.0,5.0,1.0,orangutan_03s.jpg,0.0,clockno_up.jpg,2.0,50,,,,,,,,,,,,,,,,,,,,,,,,,,,,,,,,
0.0,1.0,0.974055,0.0,6.0,6.0,6.0,1.0,pomegranate_04s.jpg,0.0,clockno_default.jpg,2.0,50,,,,,,,,,,,,,,,,,,,,,,,,,,,,,,,,
0.0,1.0,0.781585,0.0,7.0,7.0,7.0,1.0,jetski_10s.jpg,0.0,clockno_default.jpg,2.0,50,,,,,,,,,,,,,,,,,,,,,,,,,,,,,,,,
0.0,1.0,1.08438,0.0,8.0,8.0,8.0,1.0,champagne_18s.jpg,0.0,clockno_default.jpg,2.0,50,,,,,,,,,,,,,,,,,,,,,,,,,,,,,,,,
0.0,1.0,0.914315,0.0,9.0,9.0,9.0,1.0,spoon02a.jpg,0.0,clockno_default.jpg,2.0,50,,,,,,,,,,,,,,,,,,,,,,,,,,,,,,,,
0.0,1.0,1.338515,0.0,10.0,10.0,10.0,1.0,loom_05s.jpg,0.0,clockno_up.jpg,3.0,50,,,,,,,,,,,,,,,,,,,,,,,,,,,,,,,,
1.0,1.0,0.893005,0.0,11.0,11.0,11.0,1.0,loom_05s.jpg,1.0,clockno_default.jpg,3.0,50,,,,,,,,,,,,,,,,,,,,,,,,,,,,,,,,
0.0,1.0,1.1779,0.0,12.0,12.0,12.0,1.0,bagel_15s.jpg,0.0,clockno_default.jpg,3.0,50,,,,,,,,,,,,,,,,,,,,,,,,,,,,,,,,
0.0,1.0,1.238595,0.0,13.0,13.0,13.0,1.0,boar_10s.jpg,0.0,clockno_default.jpg,3.0,50,,,,,,,,,,,,,,,,,,,,,,,,,,,,,,,,
0.0,1.0,0.70501,0.0,14.0,14.0,14.0,1.0,pipe1_10s.jpg,0.0,clockno_default.jpg,3.0,50,,,,,,,,,,,,,,,,,,,,,,,,,,,,,,,,
0.0,1.0,0.846455,0.0,15.0,15.0,15.0,1.0,pepper2_21s.jpg,0.0,clockno_default.jpg,3.0,50,,,,,,,,,,,,,,,,,,,,,,,,,,,,,,,,
0.0,1.0,0.61161,0.0,16.0,16.0,16.0,1.0,powder_07s.jpg,0.0,clockno_up.jpg,4.0,50,,,,,,,,,,,,,,,,,,,,,,,,,,,,,,,,
0.0,1.0,0.86509,0.0,17.0,17.0,17.0,1.0,fishhook_06s.jpg,0.0,clockno_default.jpg,4.0,50,,,,,,,,,,,,,,,,,,,,,,,,,,,,,,,,
0.0,1.0,0.587735,0.0,18.0,18.0,18.0,1.0,briefcase_03s.jpg,0.0,clockno_default.jpg,4.0,50,,,,,,,,,,,,,,,,,,,,,,,,,,,,,,,,
0.0,1.0,0.632335,0.0,19.0,19.0,19.0,1.0,rug_09s.jpg,0.0,clockno_default.jpg,4.0,50,,,,,,,,,,,,,,,,,,,,,,,,,,,,,,,,
1.0,1.0,1.11553,0.0,20.0,20.0,20.0,1.0,fishhook_06s.jpg,1.0,clockno_default.jpg,4.0,50,,,,,,,,,,,,,,,,,,,,,,,,,,,,,,,,
1.0,1.0,0.953085,0.0,21.0,21.0,21.0,1.0,rug_09s.jpg,1.0,clockno_default.jpg,4.0,50,,,,,,,,,,,,,,,,,,,,,,,,,,,,,,,,
0.0,1.0,1.170955,0.0,22.0,22.0,22.0,1.0,aluminum_foil_08s.jpg,0.0,clockno_up.jpg,5.0,50,,,,,,,,,,,,,,,,,,,,,,,,,,,,,,,,
0.0,1.0,0.821415,0.0,23.0,23.0,23.0,1.0,pea_11s.jpg,0.0,clockno_default.jpg,5.0,50,,,,,,,,,,,,,,,,,,,,,,,,,,,,,,,,
0.0,1.0,1.36931,0.0,24.0,24.0,24.0,1.0,flip_flop_03s.jpg,0.0,clockno_default.jpg,5.0,50,,,,,,,,,,,,,,,,,,,,,,,,,,,,,,,,
0.0,1.0,0.81235,0.0,25.0,25.0,25.0,1.0,mixer_12s.jpg,0.0,clockno_default.jpg,5.0,50,,,,,,,,,,,,,,,,,,,,,,,,,,,,,,,,
0.0,1.0,0.85922,0.0,26.0,26.0,26.0,1.0,ironing_board_07s.jpg,0.0,clockno_default.jpg,5.0,50,,,,,,,,,,,,,,,,,,,,,,,,,,,,,,,,
0.0,1.0,1.237855,0.0,27.0,27.0,27.0,1.0,fishhook_06s.jpg,0.0,clockno_default.jpg,5.0,50,,,,,,,,,,,,,,,,,,,,,,,,,,,,,,,,
1.0,1.0,0.9955,0.0,28.0,28.0,28.0,1.0,pea_11s.jpg,1.0,clockno_default.jpg,5.0,50,,,,,,,,,,,,,,,,,,,,,,,,,,,,,,,,
0.0,1.0,1.602255,0.0,29.0,29.0,29.0,1.0,chalice_10s.jpg,0.0,clockno_up.jpg,6.0,50,,,,,,,,,,,,,,,,,,,,,,,,,,,,,,,,
0.0,1.0,1.28889,0.0,30.0,30.0,30.0,1.0,triangle_10s.jpg,0.0,clockno_default.jpg,6.0,50,,,,,,,,,,,,,,,,,,,,,,,,,,,,,,,,
0.0,1.0,0.843,0.0,31.0,31.0,31.0,1.0,iron_13s.jpg,0.0,clockno_default.jpg,6.0,50,,,,,,,,,,,,,,,,,,,,,,,,,,,,,,,,
1.0,1.0,1.072145,0.0,32.0,32.0,32.0,1.0,chalice_10s.jpg,1.0,clockno_default.jpg,6.0,50,,,,,,,,,,,,,,,,,,,,,,,,,,,,,,,,
0.0,1.0,1.059445,0.0,33.0,33.0,33.0,1.0,puffin_19s.jpg,0.0,clockno_default.jpg,6.0,50,,,,,,,,,,,,,,,,,,,,,,,,,,,,,,,,
0.0,1.0,1.17259,0.0,34.0,34.0,34.0,1.0,saddle_06s.jpg,0.0,clockno_default.jpg,6.0,50,,,,,,,,,,,,,,,,,,,,,,,,,,,,,,,,
0.0,1.0,1.040295,0.0,35.0,35.0,35.0,1.0,megaphone_03s.jpg,0.0,clockno_default.jpg,6.0,50,,,,,,,,,,,,,,,,,,,,,,,,,,,,,,,,
,,,,,,,,,0.0,,,50,0.0,1.0,1.86751,0.0,0.0,0.0,0.0,1.0,powder_07s.jpg,boar_10s.jpg,,,,,,,,,,,,,,,,,,,,,,
,,,,,,,,,0.0,,,50,1.0,0.0,1.954585,0.0,1.0,1.0,1.0,1.0,briefcase_03s.jpg,pepper2_21s.jpg,,,,,,,,,,,,,,,,,,,,,,
,,,,,,,,,1.0,,,50,1.0,1.0,2.39114,0.0,2.0,2.0,2.0,1.0,spoon02a.jpg,bagel_15s.jpg,,,,,,,,,,,,,,,,,,,,,,
,,,,,,,,,1.0,,,50,1.0,1.0,1.59302,0.0,3.0,3.0,3.0,1.0,orangutan_03s.jpg,champagne_18s.jpg,,,,,,,,,,,,,,,,,,,,,,
,,,,,,,,,0.0,,,50,1.0,0.0,1.389475,0.0,4.0,4.0,4.0,1.0,mixer_12s.jpg,aluminum_foil_08s.jpg,,,,,,,,,,,,,,,,,,,,,,
,,,,,,,,,1.0,,,50,1.0,1.0,1.29284,0.0,5.0,5.0,5.0,1.0,triangle_10s.jpg,puffin_19s.jpg,,,,,,,,,,,,,,,,,,,,,,
,,,,,,,,,,,,50,,,,,,,,,,,0.0,4.0,4.0,4.0,1.0,clockno_present_5_3.xlsx,clockno_compare_task_5_3.xlsx,,,,,,,,,,,,,,,
0.0,1.0,0.92113,0.0,0.0,0.0,0.0,1.0,padlock_07s.jpg,0.0,clockno_up.jpg,1.0,50,,,,,,,,,,,,,,,,,,,,,,,,,,,,,,,,
1.0,1.0,0.85598,0.0,1.0,1.0,1.0,1.0,padlock_07s.jpg,1.0,clockno_default.jpg,1.0,50,,,,,,,,,,,,,,,,,,,,,,,,,,,,,,,,
0.0,1.0,1.120005,0.0,2.0,2.0,2.0,1.0,paper_towel_03s.jpg,0.0,clockno_default.jpg,1.0,50,,,,,,,,,,,,,,,,,,,,,,,,,,,,,,,,
0.0,1.0,1.152905,0.0,3.0,3.0,3.0,1.0,perfume_06s.jpg,0.0,clockno_default.jpg,1.0,50,,,,,,,,,,,,,,,,,,,,,,,,,,,,,,,,
0.0,1.0,0.912395,0.0,4.0,4.0,4.0,1.0,thorn_13s.jpg,0.0,clockno_default.jpg,1.0,50,,,,,,,,,,,,,,,,,,,,,,,,,,,,,,,,
0.0,1.0,1.30437,0.0,5.0,5.0,5.0,1.0,film_03s.jpg,0.0,clockno_up.jpg,2.0,50,,,,,,,,,,,,,,,,,,,,,,,,,,,,,,,,
0.0,1.0,1.064655,0.0,6.0,6.0,6.0,1.0,pan_02s.jpg,0.0,clockno_default.jpg,2.0,50,,,,,,,,,,,,,,,,,,,,,,,,,,,,,,,,
1.0,1.0,0.895035,0.0,7.0,7.0,7.0,1.0,pan_02s.jpg,1.0,clockno_default.jpg,2.0,50,,,,,,,,,,,,,,,,,,,,,,,,,,,,,,,,
0.0,1.0,1.060965,0.0,8.0,8.0,8.0,1.0,seagull_01b.jpg,0.0,clockno_default.jpg,2.0,50,,,,,,,,,,,,,,,,,,,,,,,,,,,,,,,,
1.0,1.0,0.835855,0.0,9.0,9.0,9.0,1.0,seagull_01b.jpg,1.0,clockno_default.jpg,2.0,50,,,,,,,,,,,,,,,,,,,,,,,,,,,,,,,,
0.0,1.0,1.325765,0.0,10.0,10.0,10.0,1.0,perfume_06s.jpg,0.0,clockno_default.jpg,2.0,50,,,,,,,,,,,,,,,,,,,,,,,,,,,,,,,,
0.0,1.0,1.05451,0.0,11.0,11.0,11.0,1.0,ram_05s.jpg,0.0,clockno_up.jpg,3.0,50,,,,,,,,,,,,,,,,,,,,,,,,,,,,,,,,
0.0,1.0,0.75614,0.0,12.0,12.0,12.0,1.0,stamp1_11s.jpg,0.0,clockno_default.jpg,3.0,50,,,,,,,,,,,,,,,,,,,,,,,,,,,,,,,,
0.0,1.0,1.24287,0.0,13.0,13.0,13.0,1.0,thorn_13s.jpg,0.0,clockno_default.jpg,3.0,50,,,,,,,,,,,,,,,,,,,,,,,,,,,,,,,,
0.0,1.0,0.75758,0.0,14.0,14.0,14.0,1.0,jersey_02s.jpg,0.0,clockno_default.jpg,3.0,50,,,,,,,,,,,,,,,,,,,,,,,,,,,,,,,,
1.0,1.0,1.07099,0.0,15.0,15.0,15.0,1.0,thorn_13s.jpg,1.0,clockno_default.jpg,3.0,50,,,,,,,,,,,,,,,,,,,,,,,,,,,,,,,,
0.0,1.0,1.32473,0.0,16.0,16.0,16.0,1.0,coat_rack_01b.jpg,0.0,clockno_default.jpg,3.0,50,,,,,,,,,,,,,,,,,,,,,,,,,,,,,,,,
1.0,1.0,1.00735,0.0,17.0,17.0,17.0,1.0,stamp1_11s.jpg,1.0,clockno_default.jpg,3.0,50,,,,,,,,,,,,,,,,,,,,,,,,,,,,,,,,
0.0,1.0,1.141305,0.0,18.0,18.0,18.0,1.0,flask_04s.jpg,0.0,clockno_up.jpg,4.0,50,,,,,,,,,,,,,,,,,,,,,,,,,,,,,,,,
0.0,1.0,1.17088,0.0,19.0,19.0,19.0,1.0,gazelle_10s.jpg,0.0,clockno_default.jpg,4.0,50,,,,,,,,,,,,,,,,,,,,,,,,,,,,,,,,
0.0,1.0,1.29172,0.0,20.0,20.0,20.0,1.0,mascara_03s.jpg,0.0,clockno_default.jpg,4.0,50,,,,,,,,,,,,,,,,,,,,,,,,,,,,,,,,
0.0,1.0,0.79107,0.0,21.0,21.0,21.0,1.0,tuxedo_01b.jpg,0.0,clockno_default.jpg,4.0,50,,,,,,,,,,,,,,,,,,,,,,,,,,,,,,,,
0.0,1.0,1.54762,0.0,22.0,22.0,22.0,1.0,radiator_05s.jpg,0.0,clockno_default.jpg,4.0,50,,,,,,,,,,,,,,,,,,,,,,,,,,,,,,,,
0.0,1.0,1.519615,0.0,23.0,23.0,23.0,1.0,possum_09s.jpg,0.0,clockno_default.jpg,4.0,50,,,,,,,,,,,,,,,,,,,,,,,,,,,,,,,,
0.0,1.0,1.674015,0.0,24.0,24.0,24.0,1.0,pacifier_09s.jpg,0.0,clockno_up.jpg,5.0,50,,,,,,,,,,,,,,,,,,,,,,,,,,,,,,,,
0.0,1.0,1.236885,0.0,25.0,25.0,25.0,1.0,paper_towel_03s.jpg,0.0,clockno_default.jpg,5.0,50,,,,,,,,,,,,,,,,,,,,,,,,,,,,,,,,
0.0,1.0,1.24189,0.0,26.0,26.0,26.0,1.0,peanut_butter_08s.jpg,0.0,clockno_default.jpg,5.0,50,,,,,,,,,,,,,,,,,,,,,,,,,,,,,,,,
0.0,1.0,1.360215,0.0,27.0,27.0,27.0,1.0,crossbow_10s.jpg,0.0,clockno_default.jpg,5.0,50,,,,,,,,,,,,,,,,,,,,,,,,,,,,,,,,
0.0,1.0,0.960695,0.0,28.0,28.0,28.0,1.0,pepper_mill_03s.jpg,0.0,clockno_default.jpg,5.0,50,,,,,,,,,,,,,,,,,,,,,,,,,,,,,,,,
0.0,1.0,1.466935,0.0,29.0,29.0,29.0,1.0,owl_15s.jpg,0.0,clockno_up.jpg,6.0,50,,,,,,,,,,,,,,,,,,,,,,,,,,,,,,,,
0.0,1.0,1.95929,0.0,30.0,30.0,30.0,1.0,raspberry_12s.jpg,0.0,clockno_default.jpg,6.0,50,,,,,,,,,,,,,,,,,,,,,,,,,,,,,,,,
0.0,1.0,2.090025,0.0,31.0,31.0,31.0,1.0,printer_09s.jpg,0.0,clockno_default.jpg,6.0,50,,,,,,,,,,,,,,,,,,,,,,,,,,,,,,,,
0.0,1.0,1.142785,0.0,32.0,32.0,32.0,1.0,stamp1_11s.jpg,0.0,clockno_default.jpg,6.0,50,,,,,,,,,,,,,,,,,,,,,,,,,,,,,,,,
0.0,1.0,0.76969,0.0,33.0,33.0,33.0,1.0,cap_05s.jpg,0.0,clockno_default.jpg,6.0,50,,,,,,,,,,,,,,,,,,,,,,,,,,,,,,,,
1.0,1.0,1.096405,0.0,34.0,34.0,34.0,1.0,cap_05s.jpg,1.0,clockno_default.jpg,6.0,50,,,,,,,,,,,,,,,,,,,,,,,,,,,,,,,,
0.0,1.0,1.10186,0.0,35.0,35.0,35.0,1.0,stethoscope_01b.jpg,0.0,clockno_default.jpg,6.0,50,,,,,,,,,,,,,,,,,,,,,,,,,,,,,,,,
,,,,,,,,,1.0,,,50,0.0,0.0,2.316815,0.0,0.0,0.0,0.0,1.0,peanut_butter_08s.jpg,owl_15s.jpg,,,,,,,,,,,,,,,,,,,,,,
,,,,,,,,,1.0,,,50,1.0,1.0,1.79558,0.0,1.0,1.0,1.0,1.0,pepper_mill_03s.jpg,printer_09s.jpg,,,,,,,,,,,,,,,,,,,,,,
,,,,,,,,,1.0,,,50,0.0,0.0,3.05153,0.0,2.0,2.0,2.0,1.0,coat_rack_01b.jpg,gazelle_10s.jpg,,,,,,,,,,,,,,,,,,,,,,
,,,,,,,,,1.0,,,50,1.0,1.0,1.409525,0.0,3.0,3.0,3.0,1.0,ram_05s.jpg,jersey_02s.jpg,,,,,,,,,,,,,,,,,,,,,,
,,,,,,,,,1.0,,,50,1.0,1.0,1.344835,0.0,4.0,4.0,4.0,1.0,flask_04s.jpg,tuxedo_01b.jpg,,,,,,,,,,,,,,,,,,,,,,
,,,,,,,,,0.0,,,50,0.0,1.0,1.96174,0.0,5.0,5.0,5.0,1.0,possum_09s.jpg,mascara_03s.jpg,,,,,,,,,,,,,,,,,,,,,,
0.0,1.0,1.168085,,,,,,peppermint_07s.jpg,0.0,clock_7_1.png,1.0,50,,,,,,,,,,,,,,,,,,0.0,0.0,0.0,0.0,1.0,,,,,,,,,,
0.0,1.0,1.515235,,,,,,buoy_04s.jpg,0.0,clock_7_2.png,1.0,50,,,,,,,,,,,,,,,,,,0.0,1.0,1.0,1.0,1.0,,,,,,,,,,
0.0,1.0,1.264615,,,,,,pancake_12s.jpg,0.0,clock_7_3.png,1.0,50,,,,,,,,,,,,,,,,,,0.0,2.0,2.0,2.0,1.0,,,,,,,,,,
1.0,1.0,0.68791,,,,,,pancake_12s.jpg,1.0,clock_7_4.png,1.0,50,,,,,,,,,,,,,,,,,,0.0,3.0,3.0,3.0,1.0,,,,,,,,,,
0.0,1.0,1.123615,,,,,,tape_06s.jpg,0.0,clock_7_5.png,1.0,50,,,,,,,,,,,,,,,,,,0.0,4.0,4.0,4.0,1.0,,,,,,,,,,
0.0,1.0,1.09231,,,,,,bowler_hat_10s.jpg,0.0,clock_7_6.png,1.0,50,,,,,,,,,,,,,,,,,,0.0,5.0,5.0,5.0,1.0,,,,,,,,,,
1.0,1.0,0.856395,,,,,,tape_06s.jpg,1.0,clock_7_7.png,1.0,50,,,,,,,,,,,,,,,,,,0.0,6.0,6.0,6.0,1.0,,,,,,,,,,
0.0,1.0,0.973655,,,,,,quill_09s.jpg,0.0,clock_6_1.png,2.0,50,,,,,,,,,,,,,,,,,,0.0,7.0,7.0,7.0,1.0,,,,,,,,,,
0.0,1.0,1.12454,,,,,,tablet_04s.jpg,0.0,clock_6_2.png,2.0,50,,,,,,,,,,,,,,,,,,0.0,8.0,8.0,8.0,1.0,,,,,,,,,,
0.0,1.0,1.018155,,,,,,olive_05s.jpg,0.0,clock_6_3.png,2.0,50,,,,,,,,,,,,,,,,,,0.0,9.0,9.0,9.0,1.0,,,,,,,,,,
0.0,1.0,1.00709,,,,,,puppet_01b.jpg,0.0,clock_6_4.png,2.0,50,,,,,,,,,,,,,,,,,,0.0,10.0,10.0,10.0,1.0,,,,,,,,,,
0.0,1.0,1.07907,,,,,,lip_gloss_06s.jpg,0.0,clock_6_5.png,2.0,50,,,,,,,,,,,,,,,,,,0.0,11.0,11.0,11.0,1.0,,,,,,,,,,
0.0,1.0,0.873715,,,,,,hyena_16s.jpg,0.0,clock_6_6.png,2.0,50,,,,,,,,,,,,,,,,,,0.0,12.0,12.0,12.0,1.0,,,,,,,,,,
0.0,1.0,1.41062,,,,,,turnstile_08s.jpg,0.0,clock_6_1.png,3.0,50,,,,,,,,,,,,,,,,,,0.0,13.0,13.0,13.0,1.0,,,,,,,,,,
0.0,1.0,0.956355,,,,,,dynamite_01b.jpg,0.0,clock_6_2.png,3.0,50,,,,,,,,,,,,,,,,,,0.0,14.0,14.0,14.0,1.0,,,,,,,,,,
0.0,1.0,1.183935,,,,,,potholder_02s.jpg,0.0,clock_6_3.png,3.0,50,,,,,,,,,,,,,,,,,,0.0,15.0,15.0,15.0,1.0,,,,,,,,,,
0.0,1.0,0.903265,,,,,,glue_01s.jpg,0.0,clock_6_4.png,3.0,50,,,,,,,,,,,,,,,,,,0.0,16.0,16.0,16.0,1.0,,,,,,,,,,
1.0,1.0,0.877365,,,,,,dynamite_01b.jpg,1.0,clock_6_5.png,3.0,50,,,,,,,,,,,,,,,,,,0.0,17.0,17.0,17.0,1.0,,,,,,,,,,
0.0,1.0,0.75813,,,,,,lizard_10n.jpg,0.0,clock_6_6.png,3.0,50,,,,,,,,,,,,,,,,,,0.0,18.0,18.0,18.0,1.0,,,,,,,,,,
0.0,1.0,1.902485,,,,,,fireworks_18s.jpg,0.0,clock_5_1.png,4.0,50,,,,,,,,,,,,,,,,,,0.0,19.0,19.0,19.0,1.0,,,,,,,,,,
1.0,1.0,0.921305,,,,,,fireworks_18s.jpg,1.0,clock_5_2.png,4.0,50,,,,,,,,,,,,,,,,,,0.0,20.0,20.0,20.0,1.0,,,,,,,,,,
0.0,1.0,0.835535,,,,,,cucumber_07s.jpg,0.0,clock_5_3.png,4.0,50,,,,,,,,,,,,,,,,,,0.0,21.0,21.0,21.0,1.0,,,,,,,,,,
1.0,1.0,0.68526,,,,,,fireworks_18s.jpg,1.0,clock_5_4.png,4.0,50,,,,,,,,,,,,,,,,,,0.0,22.0,22.0,22.0,1.0,,,,,,,,,,
0.0,1.0,0.76967,,,,,,tiara_05s.jpg,0.0,clock_5_5.png,4.0,50,,,,,,,,,,,,,,,,,,0.0,23.0,23.0,23.0,1.0,,,,,,,,,,
0.0,1.0,1.05369,,,,,,timer_03s.jpg,0.0,clock_5_1.png,5.0,50,,,,,,,,,,,,,,,,,,0.0,24.0,24.0,24.0,1.0,,,,,,,,,,
1.0,1.0,0.87865,,,,,,timer_03s.jpg,1.0,clock_5_2.png,5.0,50,,,,,,,,,,,,,,,,,,0.0,25.0,25.0,25.0,1.0,,,,,,,,,,
0.0,1.0,1.044085,,,,,,bean_06s.jpg,0.0,clock_5_3.png,5.0,50,,,,,,,,,,,,,,,,,,0.0,26.0,26.0,26.0,1.0,,,,,,,,,,
0.0,1.0,0.63107,,,,,,ladder_15s.jpg,0.0,clock_5_4.png,5.0,50,,,,,,,,,,,,,,,,,,0.0,27.0,27.0,27.0,1.0,,,,,,,,,,
0.0,1.0,0.999175,,,,,,hyena_16s.jpg,0.0,clock_5_5.png,5.0,50,,,,,,,,,,,,,,,,,,0.0,28.0,28.0,28.0,1.0,,,,,,,,,,
0.0,1.0,0.58977,,,,,,gas_mask_11s.jpg,0.0,clock_7_1.png,6.0,50,,,,,,,,,,,,,,,,,,0.0,29.0,29.0,29.0,1.0,,,,,,,,,,
0.0,1.0,0.65853,,,,,,fire_pit_10s.jpg,0.0,clock_7_2.png,6.0,50,,,,,,,,,,,,,,,,,,0.0,30.0,30.0,30.0,1.0,,,,,,,,,,
1.0,1.0,0.65847,,,,,,gas_mask_11s.jpg,1.0,clock_7_3.png,6.0,50,,,,,,,,,,,,,,,,,,0.0,31.0,31.0,31.0,1.0,,,,,,,,,,
1.0,1.0,0.54134,,,,,,gas_mask_11s.jpg,1.0,clock_7_4.png,6.0,50,,,,,,,,,,,,,,,,,,0.0,32.0,32.0,32.0,1.0,,,,,,,,,,
0.0,1.0,0.886965,,,,,,sugar_cube_11s.jpg,0.0,clock_7_5.png,6.0,50,,,,,,,,,,,,,,,,,,0.0,33.0,33.0,33.0,1.0,,,,,,,,,,
0.0,1.0,0.71376,,,,,,taxi_15s.jpg,0.0,clock_7_6.png,6.0,50,,,,,,,,,,,,,,,,,,0.0,34.0,34.0,34.0,1.0,,,,,,,,,,
0.0,1.0,0.92964,,,,,,juicer2_06s.jpg,0.0,clock_7_7.png,6.0,50,,,,,,,,,,,,,,,,,,0.0,35.0,35.0,35.0,1.0,,,,,,,,,,
,,,,,,,,,0.0,,,50,0.0,1.0,3.542545,,,,,,bean_06s.jpg,tiara_05s.jpg,,,,,,,,,,,,,0.0,0.0,0.0,0.0,1.0,,,,,
,,,,,,,,,0.0,,,50,1.0,0.0,1.010725,,,,,,tablet_04s.jpg,bowler_hat_10s.jpg,,,,,,,,,,,,,0.0,1.0,1.0,1.0,1.0,,,,,
,,,,,,,,,0.0,,,50,1.0,0.0,1.43942,,,,,,cucumber_07s.jpg,lizard_10n.jpg,,,,,,,,,,,,,0.0,2.0,2.0,2.0,1.0,,,,,
,,,,,,,,,0.0,,,50,0.0,1.0,1.107625,,,,,,puppet_01b.jpg,quill_09s.jpg,,,,,,,,,,,,,0.0,3.0,3.0,3.0,1.0,,,,,
,,,,,,,,,0.0,,,50,0.0,1.0,1.5118,,,,,,glue_01s.jpg,turnstile_08s.jpg,,,,,,,,,,,,,0.0,4.0,4.0,4.0,1.0,,,,,
,,,,,,,,,0.0,,,50,0.0,1.0,1.42613,,,,,,sugar_cube_11s.jpg,fire_pit_10s.jpg,,,,,,,,,,,,,0.0,5.0,5.0,5.0,1.0,,,,,
,,,,,,,,,,,,50,,,,,,,,,,,,,,,,clock_present_1_3.xlsx,clock_compare_task_1_3.xlsx,,,,,,,,,,,0.0,0.0,0.0,0.0,1.0
0.0,1.0,1.03827,,,,,,polar_bear_02s.jpg,0.0,clock_6_1.png,1.0,50,,,,,,,,,,,,,,,,,,0.0,0.0,0.0,0.0,1.0,,,,,,,,,,
0.0,1.0,0.88964,,,,,,sea_urchin_09s.jpg,0.0,clock_6_2.png,1.0,50,,,,,,,,,,,,,,,,,,0.0,1.0,1.0,1.0,1.0,,,,,,,,,,
1.0,1.0,0.6992,,,,,,sea_urchin_09s.jpg,1.0,clock_6_3.png,1.0,50,,,,,,,,,,,,,,,,,,0.0,2.0,2.0,2.0,1.0,,,,,,,,,,
0.0,1.0,1.312955,,,,,,bee_20s.jpg,0.0,clock_6_4.png,1.0,50,,,,,,,,,,,,,,,,,,0.0,3.0,3.0,3.0,1.0,,,,,,,,,,
0.0,1.0,0.713455,,,,,,swordfish_05s.jpg,0.0,clock_6_5.png,1.0,50,,,,,,,,,,,,,,,,,,0.0,4.0,4.0,4.0,1.0,,,,,,,,,,
0.0,1.0,0.92585,,,,,,machete_06s.jpg,0.0,clock_6_6.png,1.0,50,,,,,,,,,,,,,,,,,,0.0,5.0,5.0,5.0,1.0,,,,,,,,,,
0.0,1.0,1.01426,,,,,,sleeping_bag_12s.jpg,0.0,clock_5_1.png,2.0,50,,,,,,,,,,,,,,,,,,0.0,6.0,6.0,6.0,1.0,,,,,,,,,,
0.0,1.0,0.707025,,,,,,toothpaste_12s.jpg,0.0,clock_5_2.png,2.0,50,,,,,,,,,,,,,,,,,,0.0,7.0,7.0,7.0,1.0,,,,,,,,,,
0.0,1.0,0.828145,,,,,,rolling_pin_02s.jpg,0.0,clock_5_3.png,2.0,50,,,,,,,,,,,,,,,,,,0.0,8.0,8.0,8.0,1.0,,,,,,,,,,
0.0,1.0,0.701645,,,,,,dashboard_02s.jpg,0.0,clock_5_4.png,2.0,50,,,,,,,,,,,,,,,,,,0.0,9.0,9.0,9.0,1.0,,,,,,,,,,
0.0,1.0,0.705525,,,,,,toilet_paper_12s.jpg,0.0,clock_5_5.png,2.0,50,,,,,,,,,,,,,,,,,,0.0,10.0,10.0,10.0,1.0,,,,,,,,,,
0.0,1.0,0.865735,,,,,,espresso_01b.jpg,0.0,clock_7_1.png,3.0,50,,,,,,,,,,,,,,,,,,0.0,11.0,11.0,11.0,1.0,,,,,,,,,,
1.0,1.0,0.905325,,,,,,espresso_01b.jpg,1.0,clock_7_2.png,3.0,50,,,,,,,,,,,,,,,,,,0.0,12.0,12.0,12.0,1.0,,,,,,,,,,
1.0,1.0,1.08855,,,,,,espresso_01b.jpg,1.0,clock_7_3.png,3.0,50,,,,,,,,,,,,,,,,,,0.0,13.0,13.0,13.0,1.0,,,,,,,,,,
1.0,1.0,0.81354,,,,,,espresso_01b.jpg,1.0,clock_7_4.png,3.0,50,,,,,,,,,,,,,,,,,,0.0,14.0,14.0,14.0,1.0,,,,,,,,,,
1.0,1.0,0.749525,,,,,,espresso_01b.jpg,1.0,clock_7_5.png,3.0,50,,,,,,,,,,,,,,,,,,0.0,15.0,15.0,15.0,1.0,,,,,,,,,,
0.0,1.0,1.60245,,,,,,sleeping_bag_12s.jpg,0.0,clock_7_6.png,3.0,50,,,,,,,,,,,,,,,,,,0.0,16.0,16.0,16.0,1.0,,,,,,,,,,
0.0,1.0,0.81215,,,,,,money_07s.jpg,0.0,clock_7_7.png,3.0,50,,,,,,,,,,,,,,,,,,0.0,17.0,17.0,17.0,1.0,,,,,,,,,,
0.0,1.0,1.31003,,,,,,knitting_needle_04s.jpg,0.0,clock_5_1.png,4.0,50,,,,,,,,,,,,,,,,,,0.0,18.0,18.0,18.0,1.0,,,,,,,,,,
0.0,1.0,0.792315,,,,,,golf_club_03s.jpg,0.0,clock_5_2.png,4.0,50,,,,,,,,,,,,,,,,,,0.0,19.0,19.0,19.0,1.0,,,,,,,,,,
0.0,1.0,0.83747,,,,,,key_07s.jpg,0.0,clock_5_3.png,4.0,50,,,,,,,,,,,,,,,,,,0.0,20.0,20.0,20.0,1.0,,,,,,,,,,
0.0,1.0,0.84466,,,,,,rocking_horse_03s.jpg,0.0,clock_5_4.png,4.0,50,,,,,,,,,,,,,,,,,,0.0,21.0,21.0,21.0,1.0,,,,,,,,,,
0.0,1.0,0.938075,,,,,,parachute_03s.jpg,0.0,clock_5_5.png,4.0,50,,,,,,,,,,,,,,,,,,0.0,22.0,22.0,22.0,1.0,,,,,,,,,,
0.0,1.0,0.750455,,,,,,koala_13s.jpg,0.0,clock_6_1.png,5.0,50,,,,,,,,,,,,,,,,,,0.0,23.0,23.0,23.0,1.0,,,,,,,,,,
0.0,1.0,0.742895,,,,,,radio_09s.jpg,0.0,clock_6_2.png,5.0,50,,,,,,,,,,,,,,,,,,0.0,24.0,24.0,24.0,1.0,,,,,,,,,,
0.0,1.0,0.904965,,,,,,luggage_08s.jpg,0.0,clock_6_3.png,5.0,50,,,,,,,,,,,,,,,,,,0.0,25.0,25.0,25.0,1.0,,,,,,,,,,
0.0,1.0,0.97657,,,,,,peach_04s.jpg,0.0,clock_6_4.png,5.0,50,,,,,,,,,,,,,,,,,,0.0,26.0,26.0,26.0,1.0,,,,,,,,,,
1.0,1.0,0.508745,,,,,,peach_04s.jpg,1.0,clock_6_5.png,5.0,50,,,,,,,,,,,,,,,,,,0.0,27.0,27.0,27.0,1.0,,,,,,,,,,
0.0,1.0,1.488145,,,,,,cushion_08s.jpg,0.0,clock_6_6.png,5.0,50,,,,,,,,,,,,,,,,,,0.0,28.0,28.0,28.0,1.0,,,,,,,,,,
0.0,1.0,0.892005,,,,,,totem_pole_05s.jpg,0.0,clock_7_1.png,6.0,50,,,,,,,,,,,,,,,,,,0.0,29.0,29.0,29.0,1.0,,,,,,,,,,
1.0,1.0,0.84184,,,,,,totem_pole_05s.jpg,1.0,clock_7_2.png,6.0,50,,,,,,,,,,,,,,,,,,0.0,30.0,30.0,30.0,1.0,,,,,,,,,,
0.0,1.0,0.675935,,,,,,sledgehammer_03s.jpg,0.0,clock_7_3.png,6.0,50,,,,,,,,,,,,,,,,,,0.0,31.0,31.0,31.0,1.0,,,,,,,,,,
0.0,1.0,0.99003,,,,,,cushion_08s.jpg,0.0,clock_7_4.png,6.0,50,,,,,,,,,,,,,,,,,,0.0,32.0,32.0,32.0,1.0,,,,,,,,,,
0.0,1.0,1.63578,,,,,,machete_06s.jpg,0.0,clock_7_5.png,6.0,50,,,,,,,,,,,,,,,,,,0.0,33.0,33.0,33.0,1.0,,,,,,,,,,
0.0,1.0,0.65629,,,,,,towel_rack_04s.jpg,0.0,clock_7_6.png,6.0,50,,,,,,,,,,,,,,,,,,0.0,34.0,34.0,34.0,1.0,,,,,,,,,,
0.0,1.0,0.909935,,,,,,swimming_pool_17s.jpg,0.0,clock_7_7.png,6.0,50,,,,,,,,,,,,,,,,,,0.0,35.0,35.0,35.0,1.0,,,,,,,,,,
,,,,,,,,,1.0,,,50,0.0,0.0,2.09751,,,,,,money_07s.jpg,key_07s.jpg,,,,,,,,,,,,,0.0,0.0,0.0,0.0,1.0,,,,,
,,,,,,,,,0.0,,,50,0.0,1.0,3.7945,,,,,,toothpaste_12s.jpg,swordfish_05s.jpg,,,,,,,,,,,,,0.0,1.0,1.0,1.0,1.0,,,,,
,,,,,,,,,1.0,,,50,1.0,1.0,2.34327,,,,,,rocking_horse_03s.jpg,radio_09s.jpg,,,,,,,,,,,,,0.0,2.0,2.0,2.0,1.0,,,,,
,,,,,,,,,0.0,,,50,1.0,0.0,1.09049,,,,,,bee_20s.jpg,polar_bear_02s.jpg,,,,,,,,,,,,,0.0,3.0,3.0,3.0,1.0,,,,,
,,,,,,,,,1.0,,,50,1.0,1.0,2.302675,,,,,,sledgehammer_03s.jpg,towel_rack_04s.jpg,,,,,,,,,,,,,0.0,4.0,4.0,4.0,1.0,,,,,
,,,,,,,,,1.0,,,50,0.0,0.0,2.502385,,,,,,golf_club_03s.jpg,parachute_03s.jpg,,,,,,,,,,,,,0.0,5.0,5.0,5.0,1.0,,,,,
,,,,,,,,,,,,50,,,,,,,,,,,,,,,,clock_present_2_3.xlsx,clock_compare_task_2_3.xlsx,,,,,,,,,,,0.0,1.0,1.0,1.0,1.0
0.0,1.0,0.888295,,,,,,prism_10s.jpg,0.0,clock_6_1.png,1.0,50,,,,,,,,,,,,,,,,,,0.0,0.0,0.0,0.0,1.0,,,,,,,,,,
1.0,1.0,1.04928,,,,,,prism_10s.jpg,1.0,clock_6_2.png,1.0,50,,,,,,,,,,,,,,,,,,0.0,1.0,1.0,1.0,1.0,,,,,,,,,,
1.0,1.0,0.51703,,,,,,prism_10s.jpg,1.0,clock_6_3.png,1.0,50,,,,,,,,,,,,,,,,,,0.0,2.0,2.0,2.0,1.0,,,,,,,,,,
0.0,1.0,0.953935,,,,,,puck_06s.jpg,0.0,clock_6_4.png,1.0,50,,,,,,,,,,,,,,,,,,0.0,3.0,3.0,3.0,1.0,,,,,,,,,,
0.0,1.0,1.27511,,,,,,mushroom_10n.jpg,0.0,clock_6_5.png,1.0,50,,,,,,,,,,,,,,,,,,0.0,4.0,4.0,4.0,1.0,,,,,,,,,,
0.0,1.0,1.22734,,,,,,chopsticks_08s.jpg,0.0,clock_6_6.png,1.0,50,,,,,,,,,,,,,,,,,,0.0,5.0,5.0,5.0,1.0,,,,,,,,,,
0.0,1.0,1.058415,,,,,,kilt_18s.jpg,0.0,clock_7_1.png,2.0,50,,,,,,,,,,,,,,,,,,0.0,6.0,6.0,6.0,1.0,,,,,,,,,,
0.0,1.0,0.70105,,,,,,diving_board_07s.jpg,0.0,clock_7_2.png,2.0,50,,,,,,,,,,,,,,,,,,0.0,7.0,7.0,7.0,1.0,,,,,,,,,,
0.0,1.0,0.77606,,,,,,jet_15s.jpg,0.0,clock_7_3.png,2.0,50,,,,,,,,,,,,,,,,,,0.0,8.0,8.0,8.0,1.0,,,,,,,,,,
0.0,1.0,0.8013,,,,,,kitten_07s.jpg,0.0,clock_7_4.png,2.0,50,,,,,,,,,,,,,,,,,,0.0,9.0,9.0,9.0,1.0,,,,,,,,,,
0.0,1.0,1.12245,,,,,,prism_10s.jpg,0.0,clock_7_5.png,2.0,50,,,,,,,,,,,,,,,,,,0.0,10.0,10.0,10.0,1.0,,,,,,,,,,
0.0,1.0,0.891315,,,,,,pencil02a.jpg,0.0,clock_7_6.png,2.0,50,,,,,,,,,,,,,,,,,,0.0,11.0,11.0,11.0,1.0,,,,,,,,,,
0.0,1.0,0.743965,,,,,,chip_04s.jpg,0.0,clock_7_7.png,2.0,50,,,,,,,,,,,,,,,,,,0.0,12.0,12.0,12.0,1.0,,,,,,,,,,
0.0,1.0,0.54543,,,,,,ring_03s.jpg,0.0,clock_5_1.png,3.0,50,,,,,,,,,,,,,,,,,,0.0,13.0,13.0,13.0,1.0,,,,,,,,,,
0.0,1.0,0.613445,,,,,,fork_04s.jpg,0.0,clock_5_2.png,3.0,50,,,,,,,,,,,,,,,,,,0.0,14.0,14.0,14.0,1.0,,,,,,,,,,
1.0,1.0,1.024085,,,,,,ring_03s.jpg,1.0,clock_5_3.png,3.0,50,,,,,,,,,,,,,,,,,,0.0,15.0,15.0,15.0,1.0,,,,,,,,,,
0.0,1.0,0.554025,,,,,,mattress_01s.jpg,0.0,clock_5_4.png,3.0,50,,,,,,,,,,,,,,,,,,0.0,16.0,16.0,16.0,1.0,,,,,,,,,,
0.0,1.0,0.628785,,,,,,tupperware_09s.jpg,0.0,clock_5_5.png,3.0,50,,,,,,,,,,,,,,,,,,0.0,17.0,17.0,17.0,1.0,,,,,,,,,,
0.0,1.0,1.12088,,,,,,mussel_11s.jpg,0.0,clock_7_1.png,4.0,50,,,,,,,,,,,,,,,,,,0.0,18.0,18.0,18.0,1.0,,,,,,,,,,
1.0,1.0,1.248415,,,,,,mussel_11s.jpg,1.0,clock_7_2.png,4.0,50,,,,,,,,,,,,,,,,,,0.0,19.0,19.0,19.0,1.0,,,,,,,,,,
0.0,1.0,0.814775,,,,,,pencil_sharpener_09n.jpg,0.0,clock_7_3.png,4.0,50,,,,,,,,,,,,,,,,,,0.0,20.0,20.0,20.0,1.0,,,,,,,,,,
0.0,1.0,0.61563,,,,,,turtle_08s.jpg,0.0,clock_7_4.png,4.0,50,,,,,,,,,,,,,,,,,,0.0,21.0,21.0,21.0,1.0,,,,,,,,,,
0.0,1.0,0.705935,,,,,,mug_06s.jpg,0.0,clock_7_5.png,4.0,50,,,,,,,,,,,,,,,,,,0.0,22.0,22.0,22.0,1.0,,,,,,,,,,
0.0,1.0,0.905755,,,,,,light_switch_02s.jpg,0.0,clock_7_6.png,4.0,50,,,,,,,,,,,,,,,,,,0.0,23.0,23.0,23.0,1.0,,,,,,,,,,
0.0,1.0,1.641535,,,,,,kilt_18s.jpg,0.0,clock_7_7.png,4.0,50,,,,,,,,,,,,,,,,,,0.0,24.0,24.0,24.0,1.0,,,,,,,,,,
0.0,1.0,1.35792,,,,,,ladle_04s.jpg,0.0,clock_5_1.png,5.0,50,,,,,,,,,,,,,,,,,,0.0,25.0,25.0,25.0,1.0,,,,,,,,,,
1.0,1.0,0.8434,,,,,,ladle_04s.jpg,1.0,clock_5_2.png,5.0,50,,,,,,,,,,,,,,,,,,0.0,26.0,26.0,26.0,1.0,,,,,,,,,,
0.0,1.0,1.1443,,,,,,gong_02s.jpg,0.0,clock_5_3.png,5.0,50,,,,,,,,,,,,,,,,,,0.0,27.0,27.0,27.0,1.0,,,,,,,,,,
0.0,1.0,0.77667,,,,,,giraffe_11s.jpg,0.0,clock_5_4.png,5.0,50,,,,,,,,,,,,,,,,,,0.0,28.0,28.0,28.0,1.0,,,,,,,,,,
0.0,1.0,1.017995,,,,,,lid_10s.jpg,0.0,clock_5_5.png,5.0,50,,,,,,,,,,,,,,,,,,0.0,29.0,29.0,29.0,1.0,,,,,,,,,,
0.0,1.0,1.155385,,,,,,muffin_12n.jpg,0.0,clock_6_1.png,6.0,50,,,,,,,,,,,,,,,,,,0.0,30.0,30.0,30.0,1.0,,,,,,,,,,
0.0,1.0,0.888555,,,,,,lavender_10s.jpg,0.0,clock_6_2.png,6.0,50,,,,,,,,,,,,,,,,,,0.0,31.0,31.0,31.0,1.0,,,,,,,,,,
0.0,1.0,1.15912,,,,,,margarita_03s.jpg,0.0,clock_6_3.png,6.0,50,,,,,,,,,,,,,,,,,,0.0,32.0,32.0,32.0,1.0,,,,,,,,,,
0.0,1.0,1.68157,,,,,,throne_11s.jpg,0.0,clock_6_4.png,6.0,50,,,,,,,,,,,,,,,,,,0.0,33.0,33.0,33.0,1.0,,,,,,,,,,
0.0,1.0,1.282405,,,,,,spider_web_03s.jpg,0.0,clock_6_5.png,6.0,50,,,,,,,,,,,,,,,,,,0.0,34.0,34.0,34.0,1.0,,,,,,,,,,
0.0,1.0,0.823745,,,,,,cardinal_07s.jpg,0.0,clock_6_6.png,6.0,50,,,,,,,,,,,,,,,,,,0.0,35.0,35.0,35.0,1.0,,,,,,,,,,
,,,,,,,,,0.0,,,50,1.0,0.0,2.647535,,,,,,diving_board_07s.jpg,mushroom_10n.jpg,,,,,,,,,,,,,0.0,0.0,0.0,0.0,1.0,,,,,
,,,,,,,,,1.0,,,50,1.0,1.0,1.411895,,,,,,chopsticks_08s.jpg,jet_15s.jpg,,,,,,,,,,,,,0.0,1.0,1.0,1.0,1.0,,,,,
,,,,,,,,,1.0,,,50,0.0,0.0,1.905005,,,,,,gong_02s.jpg,muffin_12n.jpg,,,,,,,,,,,,,0.0,2.0,2.0,2.0,1.0,,,,,
,,,,,,,,,1.0,,,50,1.0,1.0,4.40799,,,,,,kitten_07s.jpg,chip_04s.jpg,,,,,,,,,,,,,0.0,3.0,3.0,3.0,1.0,,,,,
,,,,,,,,,1.0,,,50,1.0,1.0,1.587565,,,,,,pencil_sharpener_09n.jpg,light_switch_02s.jpg,,,,,,,,,,,,,0.0,4.0,4.0,4.0,1.0,,,,,
,,,,,,,,,0.0,,,50,0.0,1.0,1.45885,,,,,,spider_web_03s.jpg,lavender_10s.jpg,,,,,,,,,,,,,0.0,5.0,5.0,5.0,1.0,,,,,
,,,,,,,,,,,,50,,,,,,,,,,,,,,,,clock_present_3_3.xlsx,clock_compare_task_3_3.xlsx,,,,,,,,,,,0.0,2.0,2.0,2.0,1.0
0.0,1.0,0.764375,,,,,,typewriter_11s.jpg,0.0,clock_5_1.png,1.0,50,,,,,,,,,,,,,,,,,,0.0,0.0,0.0,0.0,1.0,,,,,,,,,,
1.0,1.0,0.988595,,,,,,typewriter_11s.jpg,1.0,clock_5_2.png,1.0,50,,,,,,,,,,,,,,,,,,0.0,1.0,1.0,1.0,1.0,,,,,,,,,,
0.0,1.0,0.680555,,,,,,tweezers_03s.jpg,0.0,clock_5_3.png,1.0,50,,,,,,,,,,,,,,,,,,0.0,2.0,2.0,2.0,1.0,,,,,,,,,,
0.0,1.0,0.68355,,,,,,peeler_06s.jpg,0.0,clock_5_4.png,1.0,50,,,,,,,,,,,,,,,,,,0.0,3.0,3.0,3.0,1.0,,,,,,,,,,
0.0,1.0,1.37767,,,,,,tripod_01b.jpg,0.0,clock_5_5.png,1.0,50,,,,,,,,,,,,,,,,,,0.0,4.0,4.0,4.0,1.0,,,,,,,,,,
0.0,1.0,1.54227,,,,,,rudder_02s.jpg,0.0,clock_7_1.png,2.0,50,,,,,,,,,,,,,,,,,,0.0,5.0,5.0,5.0,1.0,,,,,,,,,,
0.0,1.0,0.737835,,,,,,pumpkin_03s.jpg,0.0,clock_7_2.png,2.0,50,,,,,,,,,,,,,,,,,,0.0,6.0,6.0,6.0,1.0,,,,,,,,,,
0.0,1.0,0.850175,,,,,,red_carpet_03s.jpg,0.0,clock_7_3.png,2.0,50,,,,,,,,,,,,,,,,,,0.0,7.0,7.0,7.0,1.0,,,,,,,,,,
0.0,1.0,2.1114,,,,,,camcorder_10s.jpg,0.0,clock_7_4.png,2.0,50,,,,,,,,,,,,,,,,,,0.0,8.0,8.0,8.0,1.0,,,,,,,,,,
0.0,1.0,1.23366,,,,,,peeler_06s.jpg,0.0,clock_7_5.png,2.0,50,,,,,,,,,,,,,,,,,,0.0,9.0,9.0,9.0,1.0,,,,,,,,,,
0.0,1.0,1.40187,,,,,,tiger_06s.jpg,0.0,clock_7_6.png,2.0,50,,,,,,,,,,,,,,,,,,0.0,10.0,10.0,10.0,1.0,,,,,,,,,,
0.0,1.0,0.825725,,,,,,tube_top_03s.jpg,0.0,clock_7_7.png,2.0,50,,,,,,,,,,,,,,,,,,0.0,11.0,11.0,11.0,1.0,,,,,,,,,,
0.0,1.0,0.878525,,,,,,harpoon.jpg,0.0,clock_6_1.png,3.0,50,,,,,,,,,,,,,,,,,,0.0,12.0,12.0,12.0,1.0,,,,,,,,,,
0.0,1.0,0.622845,,,,,,paintbrush_04s.jpg,0.0,clock_6_2.png,3.0,50,,,,,,,,,,,,,,,,,,0.0,13.0,13.0,13.0,1.0,,,,,,,,,,
0.0,1.0,0.84186,,,,,,polaroid_05s.jpg,0.0,clock_6_3.png,3.0,50,,,,,,,,,,,,,,,,,,0.0,14.0,14.0,14.0,1.0,,,,,,,,,,
0.0,1.0,0.87968,,,,,,amber_04s.jpg,0.0,clock_6_4.png,3.0,50,,,,,,,,,,,,,,,,,,0.0,15.0,15.0,15.0,1.0,,,,,,,,,,
0.0,1.0,0.89665,,,,,,laser_pointer_02s.jpg,0.0,clock_6_5.png,3.0,50,,,,,,,,,,,,,,,,,,0.0,16.0,16.0,16.0,1.0,,,,,,,,,,
0.0,1.0,0.959185,,,,,,exhaust_pipe_10s.jpg,0.0,clock_6_6.png,3.0,50,,,,,,,,,,,,,,,,,,0.0,17.0,17.0,17.0,1.0,,,,,,,,,,
0.0,1.0,0.97255,,,,,,outlet_10s.jpg,0.0,clock_6_1.png,4.0,50,,,,,,,,,,,,,,,,,,0.0,18.0,18.0,18.0,1.0,,,,,,,,,,
0.0,1.0,0.83195,,,,,,mannequin_05s.jpg,0.0,clock_6_2.png,4.0,50,,,,,,,,,,,,,,,,,,0.0,19.0,19.0,19.0,1.0,,,,,,,,,,
1.0,1.0,0.84742,,,,,,mannequin_05s.jpg,1.0,clock_6_3.png,4.0,50,,,,,,,,,,,,,,,,,,0.0,20.0,20.0,20.0,1.0,,,,,,,,,,
0.0,1.0,0.82941,,,,,,boomerang_06s.jpg,0.0,clock_6_4.png,4.0,50,,,,,,,,,,,,,,,,,,0.0,21.0,21.0,21.0,1.0,,,,,,,,,,
0.0,1.0,0.935795,,,,,,razor_blade_01b.jpg,0.0,clock_6_5.png,4.0,50,,,,,,,,,,,,,,,,,,0.0,22.0,22.0,22.0,1.0,,,,,,,,,,
1.0,1.0,0.879265,,,,,,boomerang_06s.jpg,1.0,clock_6_6.png,4.0,50,,,,,,,,,,,,,,,,,,0.0,23.0,23.0,23.0,1.0,,,,,,,,,,
0.0,1.0,0.892185,,,,,,jalapeno_15s.jpg,0.0,clock_7_1.png,5.0,50,,,,,,,,,,,,,,,,,,0.0,24.0,24.0,24.0,1.0,,,,,,,,,,
0.0,1.0,0.69323,,,,,,footprint_11s.jpg,0.0,clock_7_2.png,5.0,50,,,,,,,,,,,,,,,,,,0.0,25.0,25.0,25.0,1.0,,,,,,,,,,
0.0,1.0,1.021275,,,,,,tiger_06s.jpg,0.0,clock_7_3.png,5.0,50,,,,,,,,,,,,,,,,,,0.0,26.0,26.0,26.0,1.0,,,,,,,,,,
1.0,1.0,0.810825,,,,,,footprint_11s.jpg,1.0,clock_7_4.png,5.0,50,,,,,,,,,,,,,,,,,,0.0,27.0,27.0,27.0,1.0,,,,,,,,,,
0.0,1.0,0.896945,,,,,,treasure_08s.jpg,0.0,clock_7_5.png,5.0,50,,,,,,,,,,,,,,,,,,0.0,28.0,28.0,28.0,1.0,,,,,,,,,,
0.0,1.0,0.831325,,,,,,reindeer_08s.jpg,0.0,clock_7_6.png,5.0,50,,,,,,,,,,,,,,,,,,0.0,29.0,29.0,29.0,1.0,,,,,,,,,,
0.0,1.0,0.928335,,,,,,pie_08s.jpg,0.0,clock_7_7.png,5.0,50,,,,,,,,,,,,,,,,,,0.0,30.0,30.0,30.0,1.0,,,,,,,,,,
0.0,1.0,0.825015,,,,,,fur_coat_11s.jpg,0.0,clock_5_1.png,6.0,50,,,,,,,,,,,,,,,,,,0.0,31.0,31.0,31.0,1.0,,,,,,,,,,
0.0,1.0,0.871,,,,,,solar_panel_02s.jpg,0.0,clock_5_2.png,6.0,50,,,,,,,,,,,,,,,,,,0.0,32.0,32.0,32.0,1.0,,,,,,,,,,
0.0,1.0,1.10439,,,,,,plunger_08s.jpg,0.0,clock_5_3.png,6.0,50,,,,,,,,,,,,,,,,,,0.0,33.0,33.0,33.0,1.0,,,,,,,,,,
0.0,1.0,1.184,,,,,,crate_05s.jpg,0.0,clock_5_4.png,6.0,50,,,,,,,,,,,,,,,,,,0.0,34.0,34.0,34.0,1.0,,,,,,,,,,
0.0,1.0,1.194985,,,,,,reindeer_08s.jpg,0.0,clock_5_5.png,6.0,50,,,,,,,,,,,,,,,,,,0.0,35.0,35.0,35.0,1.0,,,,,,,,,,
,,,,,,,,,1.0,,,50,0.0,0.0,3.654215,,,,,,tripod_01b.jpg,red_carpet_03s.jpg,,,,,,,,,,,,,0.0,0.0,0.0,0.0,1.0,,,,,
,,,,,,,,,1.0,,,50,1.0,1.0,1.06059,,,,,,pie_08s.jpg,plunger_08s.jpg,,,,,,,,,,,,,0.0,1.0,1.0,1.0,1.0,,,,,
,,,,,,,,,1.0,,,50,0.0,0.0,2.556255,,,,,,tweezers_03s.jpg,rudder_02s.jpg,,,,,,,,,,,,,0.0,2.0,2.0,2.0,1.0,,,,,
,,,,,,,,,0.0,,,50,0.0,1.0,1.59912,,,,,,laser_pointer_02s.jpg,paintbrush_04s.jpg,,,,,,,,,,,,,0.0,3.0,3.0,3.0,1.0,,,,,
,,,,,,,,,1.0,,,50,1.0,1.0,0.989485,,,,,,camcorder_10s.jpg,tube_top_03s.jpg,,,,,,,,,,,,,0.0,4.0,4.0,4.0,1.0,,,,,
,,,,,,,,,0.0,,,50,0.0,1.0,1.07292,,,,,,amber_04s.jpg,harpoon.jpg,,,,,,,,,,,,,0.0,5.0,5.0,5.0,1.0,,,,,
,,,,,,,,,,,,50,,,,,,,,,,,,,,,,clock_present_4_3.xlsx,clock_compare_task_4_3.xlsx,,,,,,,,,,,0.0,3.0,3.0,3.0,1.0
0.0,1.0,0.69009,,,,,,frog_09s.jpg,0.0,clock_5_1.png,1.0,50,,,,,,,,,,,,,,,,,,0.0,0.0,0.0,0.0,1.0,,,,,,,,,,
0.0,1.0,0.71388,,,,,,tile_08s.jpg,0.0,clock_5_2.png,1.0,50,,,,,,,,,,,,,,,,,,0.0,1.0,1.0,1.0,1.0,,,,,,,,,,
1.0,1.0,0.69589,,,,,,tile_08s.jpg,1.0,clock_5_3.png,1.0,50,,,,,,,,,,,,,,,,,,0.0,2.0,2.0,2.0,1.0,,,,,,,,,,
1.0,1.0,0.848665,,,,,,tile_08s.jpg,1.0,clock_5_4.png,1.0,50,,,,,,,,,,,,,,,,,,0.0,3.0,3.0,3.0,1.0,,,,,,,,,,
0.0,1.0,1.060485,,,,,,icicle_04s.jpg,0.0,clock_5_5.png,1.0,50,,,,,,,,,,,,,,,,,,0.0,4.0,4.0,4.0,1.0,,,,,,,,,,
0.0,1.0,0.865515,,,,,,stapler_01b.jpg,0.0,clock_5_1.png,2.0,50,,,,,,,,,,,,,,,,,,0.0,5.0,5.0,5.0,1.0,,,,,,,,,,
0.0,1.0,0.790275,,,,,,roulette_wheel_04s.jpg,0.0,clock_5_2.png,2.0,50,,,,,,,,,,,,,,,,,,0.0,6.0,6.0,6.0,1.0,,,,,,,,,,
0.0,1.0,0.689435,,,,,,lamppost_09s.jpg,0.0,clock_5_3.png,2.0,50,,,,,,,,,,,,,,,,,,0.0,7.0,7.0,7.0,1.0,,,,,,,,,,
1.0,1.0,0.82901,,,,,,lamppost_09s.jpg,1.0,clock_5_4.png,2.0,50,,,,,,,,,,,,,,,,,,0.0,8.0,8.0,8.0,1.0,,,,,,,,,,
0.0,1.0,1.14348,,,,,,trampoline_13s.jpg,0.0,clock_5_5.png,2.0,50,,,,,,,,,,,,,,,,,,0.0,9.0,9.0,9.0,1.0,,,,,,,,,,
0.0,1.0,0.99182,,,,,,crayon_09s.jpg,0.0,clock_7_1.png,3.0,50,,,,,,,,,,,,,,,,,,0.0,10.0,10.0,10.0,1.0,,,,,,,,,,
0.0,1.0,0.710085,,,,,,teacup_07s.jpg,0.0,clock_7_2.png,3.0,50,,,,,,,,,,,,,,,,,,0.0,11.0,11.0,11.0,1.0,,,,,,,,,,
0.0,1.0,1.01367,,,,,,pillbox_04s.jpg,0.0,clock_7_3.png,3.0,50,,,,,,,,,,,,,,,,,,0.0,12.0,12.0,12.0,1.0,,,,,,,,,,
0.0,1.0,1.40965,,,,,,measuring_cup_02s.jpg,0.0,clock_7_4.png,3.0,50,,,,,,,,,,,,,,,,,,0.0,13.0,13.0,13.0,1.0,,,,,,,,,,
0.0,1.0,0.78689,,,,,,turkey_10s.jpg,0.0,clock_7_5.png,3.0,50,,,,,,,,,,,,,,,,,,0.0,14.0,14.0,14.0,1.0,,,,,,,,,,
0.0,1.0,1.22753,,,,,,jukebox_03n.jpg,0.0,clock_7_6.png,3.0,50,,,,,,,,,,,,,,,,,,0.0,15.0,15.0,15.0,1.0,,,,,,,,,,
1.0,1.0,1.108885,,,,,,crayon_09s.jpg,1.0,clock_7_7.png,3.0,50,,,,,,,,,,,,,,,,,,0.0,16.0,16.0,16.0,1.0,,,,,,,,,,
0.0,1.0,0.89719,,,,,,fountain_pen_06s.jpg,0.0,clock_6_1.png,4.0,50,,,,,,,,,,,,,,,,,,0.0,17.0,17.0,17.0,1.0,,,,,,,,,,
1.0,1.0,0.96245,,,,,,fountain_pen_06s.jpg,1.0,clock_6_2.png,4.0,50,,,,,,,,,,,,,,,,,,0.0,18.0,18.0,18.0,1.0,,,,,,,,,,
0.0,1.0,1.444425,,,,,,roulette_wheel_04s.jpg,0.0,clock_6_3.png,4.0,50,,,,,,,,,,,,,,,,,,0.0,19.0,19.0,19.0,1.0,,,,,,,,,,
1.0,1.0,0.813735,,,,,,fountain_pen_06s.jpg,1.0,clock_6_4.png,4.0,50,,,,,,,,,,,,,,,,,,0.0,20.0,20.0,20.0,1.0,,,,,,,,,,
0.0,1.0,1.289595,,,,,,stapler_01b.jpg,0.0,clock_6_5.png,4.0,50,,,,,,,,,,,,,,,,,,0.0,21.0,21.0,21.0,1.0,,,,,,,,,,
0.0,1.0,1.2101,,,,,,jigsaw_puzzle_11s.jpg,0.0,clock_6_6.png,4.0,50,,,,,,,,,,,,,,,,,,0.0,22.0,22.0,22.0,1.0,,,,,,,,,,
0.0,1.0,1.08541,,,,,,pear_02s.jpg,0.0,clock_7_1.png,5.0,50,,,,,,,,,,,,,,,,,,0.0,23.0,23.0,23.0,1.0,,,,,,,,,,
1.0,1.0,0.678525,,,,,,pear_02s.jpg,1.0,clock_7_2.png,5.0,50,,,,,,,,,,,,,,,,,,0.0,24.0,24.0,24.0,1.0,,,,,,,,,,
0.0,1.0,0.79058,,,,,,lamppost_09s.jpg,0.0,clock_7_3.png,5.0,50,,,,,,,,,,,,,,,,,,0.0,25.0,25.0,25.0,1.0,,,,,,,,,,
0.0,1.0,0.86227,,,,,,blender_08s.jpg,0.0,clock_7_4.png,5.0,50,,,,,,,,,,,,,,,,,,0.0,26.0,26.0,26.0,1.0,,,,,,,,,,
0.0,1.0,0.84166,,,,,,chime_12s.jpg,0.0,clock_7_5.png,5.0,50,,,,,,,,,,,,,,,,,,0.0,27.0,27.0,27.0,1.0,,,,,,,,,,
0.0,1.0,0.939195,,,,,,tattoo_14s.jpg,0.0,clock_7_6.png,5.0,50,,,,,,,,,,,,,,,,,,0.0,28.0,28.0,28.0,1.0,,,,,,,,,,
0.0,1.0,1.017745,,,,,,soda_fountain_03s.jpg,0.0,clock_7_7.png,5.0,50,,,,,,,,,,,,,,,,,,0.0,29.0,29.0,29.0,1.0,,,,,,,,,,
0.0,1.0,1.25933,,,,,,contact_lens_15s.jpg,0.0,clock_6_1.png,6.0,50,,,,,,,,,,,,,,,,,,0.0,30.0,30.0,30.0,1.0,,,,,,,,,,
0.0,1.0,0.940885,,,,,,tuba_12s.jpg,0.0,clock_6_2.png,6.0,50,,,,,,,,,,,,,,,,,,0.0,31.0,31.0,31.0,1.0,,,,,,,,,,
0.0,1.0,1.49302,,,,,,projector_08s.jpg,0.0,clock_6_3.png,6.0,50,,,,,,,,,,,,,,,,,,0.0,32.0,32.0,32.0,1.0,,,,,,,,,,
0.0,1.0,0.73013,,,,,,mirror_12s.jpg,0.0,clock_6_4.png,6.0,50,,,,,,,,,,,,,,,,,,0.0,33.0,33.0,33.0,1.0,,,,,,,,,,
0.0,1.0,1.25693,,,,,,plaster_cast_13s.jpg,0.0,clock_6_5.png,6.0,50,,,,,,,,,,,,,,,,,,0.0,34.0,34.0,34.0,1.0,,,,,,,,,,
0.0,1.0,1.34944,,,,,,pump_11s.jpg,0.0,clock_6_6.png,6.0,50,,,,,,,,,,,,,,,,,,0.0,35.0,35.0,35.0,1.0,,,,,,,,,,
,,,,,,,,,1.0,,,50,1.0,1.0,1.713535,,,,,,trampoline_13s.jpg,pillbox_04s.jpg,,,,,,,,,,,,,0.0,0.0,0.0,0.0,1.0,,,,,
,,,,,,,,,1.0,,,50,1.0,1.0,1.45959,,,,,,chime_12s.jpg,contact_lens_15s.jpg,,,,,,,,,,,,,0.0,1.0,1.0,1.0,1.0,,,,,
,,,,,,,,,1.0,,,50,1.0,1.0,2.20097,,,,,,tattoo_14s.jpg,tuba_12s.jpg,,,,,,,,,,,,,0.0,2.0,2.0,2.0,1.0,,,,,
,,,,,,,,,1.0,,,50,1.0,1.0,1.93911,,,,,,teacup_07s.jpg,turkey_10s.jpg,,,,,,,,,,,,,0.0,3.0,3.0,3.0,1.0,,,,,
,,,,,,,,,1.0,,,50,1.0,1.0,1.41167,,,,,,blender_08s.jpg,soda_fountain_03s.jpg,,,,,,,,,,,,,0.0,4.0,4.0,4.0,1.0,,,,,
,,,,,,,,,0.0,,,50,1.0,0.0,1.691915,,,,,,pump_11s.jpg,projector_08s.jpg,,,,,,,,,,,,,0.0,5.0,5.0,5.0,1.0,,,,,
,,,,,,,,,,,,50,,,,,,,,,,,,,,,,clock_present_5_3.xlsx,clock_compare_task_5_3.xlsx,,,,,,,,,,,0.0,4.0,4.0,4.0,1.0
0.0,1.0,0.867125,,,,,,kite_04s.jpg,0.0,clock_7_1.png,1.0,50,,,,,,,,,,,,,,,,,,0.0,0.0,0.0,0.0,1.0,,,,,,,,,,
1.0,1.0,0.87626,,,,,,kite_04s.jpg,1.0,clock_7_2.png,1.0,50,,,,,,,,,,,,,,,,,,0.0,1.0,1.0,1.0,1.0,,,,,,,,,,
1.0,1.0,0.48279,,,,,,kite_04s.jpg,1.0,clock_7_3.png,1.0,50,,,,,,,,,,,,,,,,,,0.0,2.0,2.0,2.0,1.0,,,,,,,,,,
1.0,1.0,0.51441,,,,,,kite_04s.jpg,1.0,clock_7_4.png,1.0,50,,,,,,,,,,,,,,,,,,0.0,3.0,3.0,3.0,1.0,,,,,,,,,,
0.0,1.0,0.69342,,,,,,compass_10n.jpg,0.0,clock_7_5.png,1.0,50,,,,,,,,,,,,,,,,,,0.0,4.0,4.0,4.0,1.0,,,,,,,,,,
1.0,1.0,0.87712,,,,,,kite_04s.jpg,1.0,clock_7_6.png,1.0,50,,,,,,,,,,,,,,,,,,0.0,5.0,5.0,5.0,1.0,,,,,,,,,,
0.0,1.0,0.763305,,,,,,purse_05s.jpg,0.0,clock_7_7.png,1.0,50,,,,,,,,,,,,,,,,,,0.0,6.0,6.0,6.0,1.0,,,,,,,,,,
0.0,1.0,0.959435,,,,,,orange_12s.jpg,0.0,clock_6_1.png,2.0,50,,,,,,,,,,,,,,,,,,0.0,7.0,7.0,7.0,1.0,,,,,,,,,,
0.0,1.0,1.061225,,,,,,eggshell_14s.jpg,0.0,clock_6_2.png,2.0,50,,,,,,,,,,,,,,,,,,0.0,8.0,8.0,8.0,1.0,,,,,,,,,,
1.0,1.0,1.0349,,,,,,orange_12s.jpg,1.0,clock_6_3.png,2.0,50,,,,,,,,,,,,,,,,,,0.0,9.0,9.0,9.0,1.0,,,,,,,,,,
0.0,1.0,1.62363,,,,,,purse_05s.jpg,0.0,clock_6_4.png,2.0,50,,,,,,,,,,,,,,,,,,0.0,10.0,10.0,10.0,1.0,,,,,,,,,,
0.0,1.0,1.279915,,,,,,roller_coaster_07s.jpg,0.0,clock_6_5.png,2.0,50,,,,,,,,,,,,,,,,,,0.0,11.0,11.0,11.0,1.0,,,,,,,,,,
0.0,1.0,0.720895,,,,,,sushi_08s.jpg,0.0,clock_6_6.png,2.0,50,,,,,,,,,,,,,,,,,,0.0,12.0,12.0,12.0,1.0,,,,,,,,,,
0.0,1.0,0.84456,,,,,,raft_09s.jpg,0.0,clock_6_1.png,3.0,50,,,,,,,,,,,,,,,,,,0.0,13.0,13.0,13.0,1.0,,,,,,,,,,
0.0,1.0,1.257815,,,,,,orange_12s.jpg,0.0,clock_6_2.png,3.0,50,,,,,,,,,,,,,,,,,,0.0,14.0,14.0,14.0,1.0,,,,,,,,,,
0.0,1.0,1.975475,,,,,,kite_04s.jpg,0.0,clock_6_3.png,3.0,50,,,,,,,,,,,,,,,,,,0.0,15.0,15.0,15.0,1.0,,,,,,,,,,
0.0,1.0,1.4391,,,,,,petri_dish_12s.jpg,0.0,clock_6_4.png,3.0,50,,,,,,,,,,,,,,,,,,0.0,16.0,16.0,16.0,1.0,,,,,,,,,,
0.0,1.0,1.44923,,,,,,rope_16s.jpg,0.0,clock_6_5.png,3.0,50,,,,,,,,,,,,,,,,,,0.0,17.0,17.0,17.0,1.0,,,,,,,,,,
0.0,1.0,0.859515,,,,,,lab_coat_11s.jpg,0.0,clock_6_6.png,3.0,50,,,,,,,,,,,,,,,,,,0.0,18.0,18.0,18.0,1.0,,,,,,,,,,
0.0,1.0,1.15624,,,,,,pretzel_09s.jpg,0.0,clock_5_1.png,4.0,50,,,,,,,,,,,,,,,,,,0.0,19.0,19.0,19.0,1.0,,,,,,,,,,
0.0,1.0,0.94201,,,,,,doily_13s.jpg,0.0,clock_5_2.png,4.0,50,,,,,,,,,,,,,,,,,,0.0,20.0,20.0,20.0,1.0,,,,,,,,,,
0.0,1.0,1.014735,,,,,,rooster_03s.jpg,0.0,clock_5_3.png,4.0,50,,,,,,,,,,,,,,,,,,0.0,21.0,21.0,21.0,1.0,,,,,,,,,,
0.0,1.0,0.771455,,,,,,fondue_07s.jpg,0.0,clock_5_4.png,4.0,50,,,,,,,,,,,,,,,,,,0.0,22.0,22.0,22.0,1.0,,,,,,,,,,
0.0,1.0,1.00752,,,,,,petri_dish_12s.jpg,0.0,clock_5_5.png,4.0,50,,,,,,,,,,,,,,,,,,0.0,23.0,23.0,23.0,1.0,,,,,,,,,,
0.0,1.0,1.17384,,,,,,pinwheel_06s.jpg,0.0,clock_5_1.png,5.0,50,,,,,,,,,,,,,,,,,,0.0,24.0,24.0,24.0,1.0,,,,,,,,,,
0.0,1.0,1.04424,,,,,,police_car_01s.jpg,0.0,clock_5_2.png,5.0,50,,,,,,,,,,,,,,,,,,0.0,25.0,25.0,25.0,1.0,,,,,,,,,,
0.0,1.0,0.713145,,,,,,feather02.jpg,0.0,clock_5_3.png,5.0,50,,,,,,,,,,,,,,,,,,0.0,26.0,26.0,26.0,1.0,,,,,,,,,,
0.0,1.0,0.658455,,,,,,smoothie_09s.jpg,0.0,clock_5_4.png,5.0,50,,,,,,,,,,,,,,,,,,0.0,27.0,27.0,27.0,1.0,,,,,,,,,,
0.0,1.0,0.92646,,,,,,kettle_08s.jpg,0.0,clock_5_5.png,5.0,50,,,,,,,,,,,,,,,,,,0.0,28.0,28.0,28.0,1.0,,,,,,,,,,
0.0,1.0,0.807335,,,,,,spacesuit_02s.jpg,0.0,clock_7_1.png,6.0,50,,,,,,,,,,,,,,,,,,0.0,29.0,29.0,29.0,1.0,,,,,,,,,,
0.0,1.0,0.7928,,,,,,licorice_06s.jpg,0.0,clock_7_2.png,6.0,50,,,,,,,,,,,,,,,,,,0.0,30.0,30.0,30.0,1.0,,,,,,,,,,
0.0,1.0,1.080445,,,,,,quesadilla_07s.jpg,0.0,clock_7_3.png,6.0,50,,,,,,,,,,,,,,,,,,0.0,31.0,31.0,31.0,1.0,,,,,,,,,,
0.0,1.0,0.56126,,,,,,road_sign_05s.jpg,0.0,clock_7_4.png,6.0,50,,,,,,,,,,,,,,,,,,0.0,32.0,32.0,32.0,1.0,,,,,,,,,,
1.0,1.0,1.02919,,,,,,licorice_06s.jpg,1.0,clock_7_5.png,6.0,50,,,,,,,,,,,,,,,,,,0.0,33.0,33.0,33.0,1.0,,,,,,,,,,
1.0,1.0,0.82898,,,,,,licorice_06s.jpg,1.0,clock_7_6.png,6.0,50,,,,,,,,,,,,,,,,,,0.0,34.0,34.0,34.0,1.0,,,,,,,,,,
0.0,1.0,0.593475,,,,,,birthday_cake_09s.jpg,0.0,clock_7_7.png,6.0,50,,,,,,,,,,,,,,,,,,0.0,35.0,35.0,35.0,1.0,,,,,,,,,,
,,,,,,,,,1.0,,,50,1.0,1.0,2.459665,,,,,,rope_16s.jpg,doily_13s.jpg,,,,,,,,,,,,,0.0,0.0,0.0,0.0,1.0,,,,,
,,,,,,,,,1.0,,,50,1.0,1.0,3.731055,,,,,,lab_coat_11s.jpg,rooster_03s.jpg,,,,,,,,,,,,,0.0,1.0,1.0,1.0,1.0,,,,,
,,,,,,,,,1.0,,,50,1.0,1.0,3.282125,,,,,,feather02.jpg,spacesuit_02s.jpg,,,,,,,,,,,,,0.0,2.0,2.0,2.0,1.0,,,,,
,,,,,,,,,1.0,,,50,1.0,1.0,1.161365,,,,,,eggshell_14s.jpg,roller_coaster_07s.jpg,,,,,,,,,,,,,0.0,3.0,3.0,3.0,1.0,,,,,
,,,,,,,,,1.0,,,50,1.0,1.0,1.96348,,,,,,road_sign_05s.jpg,birthday_cake_09s.jpg,,,,,,,,,,,,,0.0,4.0,4.0,4.0,1.0,,,,,
,,,,,,,,,1.0,,,50,1.0,1.0,1.40942,,,,,,pretzel_09s.jpg,fondue_07s.jpg,,,,,,,,,,,,,0.0,5.0,5.0,5.0,1.0,,,,,
