key_resp.keys,key_resp.corr,key_resp.rt,present_segment.thisRepN,present_segment.thisTrialN,present_segment.thisN,present_segment.thisIndex,present_segment.ran,pictures,answer,clock,segment,participant,key_resp_2.keys,key_resp_2.corr,key_resp_2.rt,compare_segment.thisRepN,compare_segment.thisTrialN,compare_segment.thisN,compare_segment.thisIndex,compare_segment.ran,item_a,item_b,clock_conditions.thisRepN,clock_conditions.thisTrialN,clock_conditions.thisN,clock_conditions.thisIndex,clock_conditions.ran,present,compare,noclock_present.thisRepN,noclock_present.thisTrialN,noclock_present.thisN,noclock_present.thisIndex,noclock_present.ran,noclock_compare.thisRepN,noclock_compare.thisTrialN,noclock_compare.thisN,noclock_compare.thisIndex,noclock_compare.ran,noclock_conditions.thisRepN,noclock_conditions.thisTrialN,noclock_conditions.thisN,noclock_conditions.thisIndex,noclock_conditions.ran
0.0,1.0,1.62,0.0,0.0,0.0,0.0,1.0,jetski_10s.jpg,0.0,clock_7_1.png,1.0,36,,,,,,,,,,,,,,,,,,,,,,,,,,,,,,,,
0.0,1.0,2.055,0.0,1.0,1.0,1.0,1.0,padlock_07s.jpg,0.0,clock_7_2.png,1.0,36,,,,,,,,,,,,,,,,,,,,,,,,,,,,,,,,
0.0,1.0,0.991,0.0,2.0,2.0,2.0,1.0,antenna_01b.jpg,0.0,clock_7_3.png,1.0,36,,,,,,,,,,,,,,,,,,,,,,,,,,,,,,,,
0.0,1.0,1.031,0.0,3.0,3.0,3.0,1.0,rhubarb_03s.jpg,0.0,clock_7_4.png,1.0,36,,,,,,,,,,,,,,,,,,,,,,,,,,,,,,,,
1.0,1.0,0.898,0.0,4.0,4.0,4.0,1.0,jetski_10s.jpg,1.0,clock_7_5.png,1.0,36,,,,,,,,,,,,,,,,,,,,,,,,,,,,,,,,
0.0,1.0,0.823,0.0,5.0,5.0,5.0,1.0,juicer2_06s.jpg,0.0,clock_7_6.png,1.0,36,,,,,,,,,,,,,,,,,,,,,,,,,,,,,,,,
1.0,1.0,0.751,0.0,6.0,6.0,6.0,1.0,padlock_07s.jpg,1.0,clock_7_7.png,1.0,36,,,,,,,,,,,,,,,,,,,,,,,,,,,,,,,,
0.0,1.0,0.959,0.0,7.0,7.0,7.0,1.0,insole_11s.jpg,0.0,clock_5_1.png,2.0,36,,,,,,,,,,,,,,,,,,,,,,,,,,,,,,,,
0.0,1.0,1.254,0.0,8.0,8.0,8.0,1.0,antenna_01b.jpg,0.0,clock_5_2.png,2.0,36,,,,,,,,,,,,,,,,,,,,,,,,,,,,,,,,
0.0,1.0,0.65,0.0,9.0,9.0,9.0,1.0,stingray_02s.jpg,0.0,clock_5_3.png,2.0,36,,,,,,,,,,,,,,,,,,,,,,,,,,,,,,,,
0.0,1.0,0.605,0.0,10.0,10.0,10.0,1.0,lectern_08s.jpg,0.0,clock_5_4.png,2.0,36,,,,,,,,,,,,,,,,,,,,,,,,,,,,,,,,
0.0,1.0,0.654,0.0,11.0,11.0,11.0,1.0,briefcase_03s.jpg,0.0,clock_5_5.png,2.0,36,,,,,,,,,,,,,,,,,,,,,,,,,,,,,,,,
0.0,1.0,0.703,0.0,12.0,12.0,12.0,1.0,pepper_mill_03s.jpg,0.0,clock_6_1.png,3.0,36,,,,,,,,,,,,,,,,,,,,,,,,,,,,,,,,
0.0,1.0,1.127,0.0,13.0,13.0,13.0,1.0,light_switch_02s.jpg,0.0,clock_6_2.png,3.0,36,,,,,,,,,,,,,,,,,,,,,,,,,,,,,,,,
0.0,1.0,0.699,0.0,14.0,14.0,14.0,1.0,lava_02s.jpg,0.0,clock_6_3.png,3.0,36,,,,,,,,,,,,,,,,,,,,,,,,,,,,,,,,
0.0,1.0,0.822,0.0,15.0,15.0,15.0,1.0,moth_06n.jpg,0.0,clock_6_4.png,3.0,36,,,,,,,,,,,,,,,,,,,,,,,,,,,,,,,,
0.0,1.0,0.718,0.0,16.0,16.0,16.0,1.0,pincushion_10s.jpg,0.0,clock_6_5.png,3.0,36,,,,,,,,,,,,,,,,,,,,,,,,,,,,,,,,
0.0,1.0,0.634,0.0,17.0,17.0,17.0,1.0,quad_04s.jpg,0.0,clock_6_6.png,3.0,36,,,,,,,,,,,,,,,,,,,,,,,,,,,,,,,,
0.0,1.0,0.855,0.0,18.0,18.0,18.0,1.0,keyhole_03s.jpg,0.0,clock_6_1.png,4.0,36,,,,,,,,,,,,,,,,,,,,,,,,,,,,,,,,
0.0,1.0,0.686,0.0,19.0,19.0,19.0,1.0,trampoline_13s.jpg,0.0,clock_6_2.png,4.0,36,,,,,,,,,,,,,,,,,,,,,,,,,,,,,,,,
0.0,1.0,1.008,0.0,20.0,20.0,20.0,1.0,lectern_08s.jpg,0.0,clock_6_3.png,4.0,36,,,,,,,,,,,,,,,,,,,,,,,,,,,,,,,,
0.0,1.0,0.6,0.0,21.0,21.0,21.0,1.0,fork_04s.jpg,0.0,clock_6_4.png,4.0,36,,,,,,,,,,,,,,,,,,,,,,,,,,,,,,,,
0.0,1.0,0.759,0.0,22.0,22.0,22.0,1.0,petri_dish_12s.jpg,0.0,clock_6_5.png,4.0,36,,,,,,,,,,,,,,,,,,,,,,,,,,,,,,,,
1.0,1.0,0.775,0.0,23.0,23.0,23.0,1.0,petri_dish_12s.jpg,1.0,clock_6_6.png,4.0,36,,,,,,,,,,,,,,,,,,,,,,,,,,,,,,,,
0.0,1.0,0.558,0.0,24.0,24.0,24.0,1.0,metronome_03s.jpg,0.0,clock_7_1.png,5.0,36,,,,,,,,,,,,,,,,,,,,,,,,,,,,,,,,
0.0,1.0,0.867,0.0,25.0,25.0,25.0,1.0,tiara_05s.jpg,0.0,clock_7_2.png,5.0,36,,,,,,,,,,,,,,,,,,,,,,,,,,,,,,,,
0.0,1.0,0.59,0.0,26.0,26.0,26.0,1.0,undershirt_02s.jpg,0.0,clock_7_3.png,5.0,36,,,,,,,,,,,,,,,,,,,,,,,,,,,,,,,,
0.0,1.0,1.033,0.0,27.0,27.0,27.0,1.0,tripod_01b.jpg,0.0,clock_7_4.png,5.0,36,,,,,,,,,,,,,,,,,,,,,,,,,,,,,,,,
0.0,1.0,0.669,0.0,28.0,28.0,28.0,1.0,parachute_03s.jpg,0.0,clock_7_5.png,5.0,36,,,,,,,,,,,,,,,,,,,,,,,,,,,,,,,,
0.0,1.0,0.749,0.0,29.0,29.0,29.0,1.0,jelly_bean_06s.jpg,0.0,clock_7_6.png,5.0,36,,,,,,,,,,,,,,,,,,,,,,,,,,,,,,,,
0.0,1.0,0.876,0.0,30.0,30.0,30.0,1.0,stamp1_11s.jpg,0.0,clock_7_7.png,5.0,36,,,,,,,,,,,,,,,,,,,,,,,,,,,,,,,,
0.0,1.0,0.676,0.0,31.0,31.0,31.0,1.0,throne_11s.jpg,0.0,clock_5_1.png,6.0,36,,,,,,,,,,,,,,,,,,,,,,,,,,,,,,,,
0.0,1.0,1.309,0.0,32.0,32.0,32.0,1.0,ice_pack_09s.jpg,0.0,clock_5_2.png,6.0,36,,,,,,,,,,,,,,,,,,,,,,,,,,,,,,,,
0.0,1.0,0.892,0.0,33.0,33.0,33.0,1.0,latch_15s.jpg,0.0,clock_5_3.png,6.0,36,,,,,,,,,,,,,,,,,,,,,,,,,,,,,,,,
0.0,1.0,1.069,0.0,34.0,34.0,34.0,1.0,eggshell_14s.jpg,0.0,clock_5_4.png,6.0,36,,,,,,,,,,,,,,,,,,,,,,,,,,,,,,,,
0.0,1.0,0.718,0.0,35.0,35.0,35.0,1.0,lifesaver_10s.jpg,0.0,clock_5_5.png,6.0,36,,,,,,,,,,,,,,,,,,,,,,,,,,,,,,,,
,,,,,,,,,1.0,,,36,1.0,1.0,2.719,0.0,0.0,0.0,0.0,1.0,stingray_02s.jpg,pepper_mill_03s.jpg,,,,,,,,,,,,,,,,,,,,,,
,,,,,,,,,1.0,,,36,0.0,0.0,1.833,0.0,1.0,1.0,1.0,1.0,briefcase_03s.jpg,lava_02s.jpg,,,,,,,,,,,,,,,,,,,,,,
,,,,,,,,,0.0,,,36,1.0,0.0,2.12,0.0,2.0,2.0,2.0,1.0,trampoline_13s.jpg,pincushion_10s.jpg,,,,,,,,,,,,,,,,,,,,,,
,,,,,,,,,0.0,,,36,0.0,1.0,1.943,0.0,3.0,3.0,3.0,1.0,tripod_01b.jpg,metronome_03s.jpg,,,,,,,,,,,,,,,,,,,,,,
,,,,,,,,,0.0,,,36,0.0,1.0,2.357,0.0,4.0,4.0,4.0,1.0,parachute_03s.jpg,tiara_05s.jpg,,,,,,,,,,,,,,,,,,,,,,
,,,,,,,,,0.0,,,36,0.0,1.0,1.549,0.0,5.0,5.0,5.0,1.0,jelly_bean_06s.jpg,undershirt_02s.jpg,,,,,,,,,,,,,,,,,,,,,,
,,,,,,,,,,,,36,,,,,,,,,,,0.0,0.0,0.0,0.0,1.0,clock_present_1_15.xlsx,clock_compare_task_1_15.xlsx,,,,,,,,,,,,,,,
0.0,1.0,1.237,0.0,0.0,0.0,0.0,1.0,target_11s.jpg,0.0,clock_6_1.png,1.0,36,,,,,,,,,,,,,,,,,,,,,,,,,,,,,,,,
0.0,1.0,0.719,0.0,1.0,1.0,1.0,1.0,olive_05s.jpg,0.0,clock_6_2.png,1.0,36,,,,,,,,,,,,,,,,,,,,,,,,,,,,,,,,
1.0,1.0,0.774,0.0,2.0,2.0,2.0,1.0,olive_05s.jpg,1.0,clock_6_3.png,1.0,36,,,,,,,,,,,,,,,,,,,,,,,,,,,,,,,,
0.0,1.0,0.687,0.0,3.0,3.0,3.0,1.0,licorice_06s.jpg,0.0,clock_6_4.png,1.0,36,,,,,,,,,,,,,,,,,,,,,,,,,,,,,,,,
0.0,1.0,0.537,0.0,4.0,4.0,4.0,1.0,sledgehammer_03s.jpg,0.0,clock_6_5.png,1.0,36,,,,,,,,,,,,,,,,,,,,,,,,,,,,,,,,
0.0,1.0,0.849,0.0,5.0,5.0,5.0,1.0,fur_coat_11s.jpg,0.0,clock_6_6.png,1.0,36,,,,,,,,,,,,,,,,,,,,,,,,,,,,,,,,
0.0,1.0,0.703,0.0,6.0,6.0,6.0,1.0,rocket_02s.jpg,0.0,clock_6_1.png,2.0,36,,,,,,,,,,,,,,,,,,,,,,,,,,,,,,,,
1.0,1.0,0.851,0.0,7.0,7.0,7.0,1.0,rocket_02s.jpg,1.0,clock_6_2.png,2.0,36,,,,,,,,,,,,,,,,,,,,,,,,,,,,,,,,
1.0,1.0,1.192,0.0,8.0,8.0,8.0,1.0,rocket_02s.jpg,1.0,clock_6_3.png,2.0,36,,,,,,,,,,,,,,,,,,,,,,,,,,,,,,,,
1.0,1.0,0.784,0.0,9.0,9.0,9.0,1.0,rocket_02s.jpg,1.0,clock_6_4.png,2.0,36,,,,,,,,,,,,,,,,,,,,,,,,,,,,,,,,
0.0,1.0,0.791,0.0,10.0,10.0,10.0,1.0,rug_09s.jpg,0.0,clock_6_5.png,2.0,36,,,,,,,,,,,,,,,,,,,,,,,,,,,,,,,,
0.0,1.0,1.687,0.0,11.0,11.0,11.0,1.0,peanut_butter_08s.jpg,0.0,clock_6_6.png,2.0,36,,,,,,,,,,,,,,,,,,,,,,,,,,,,,,,,
0.0,1.0,1.302,0.0,12.0,12.0,12.0,1.0,tie_03s.jpg,0.0,clock_7_1.png,3.0,36,,,,,,,,,,,,,,,,,,,,,,,,,,,,,,,,
0.0,1.0,0.638,0.0,13.0,13.0,13.0,1.0,pillow_03s.jpg,0.0,clock_7_2.png,3.0,36,,,,,,,,,,,,,,,,,,,,,,,,,,,,,,,,
1.0,1.0,1.007,0.0,14.0,14.0,14.0,1.0,pillow_03s.jpg,1.0,clock_7_3.png,3.0,36,,,,,,,,,,,,,,,,,,,,,,,,,,,,,,,,
0.0,1.0,0.622,0.0,15.0,15.0,15.0,1.0,beaker_01b.jpg,0.0,clock_7_4.png,3.0,36,,,,,,,,,,,,,,,,,,,,,,,,,,,,,,,,
0.0,1.0,0.818,0.0,16.0,16.0,16.0,1.0,saddle_06s.jpg,0.0,clock_7_5.png,3.0,36,,,,,,,,,,,,,,,,,,,,,,,,,,,,,,,,
0.0,1.0,1.078,0.0,17.0,17.0,17.0,1.0,harpoon.jpg,0.0,clock_7_6.png,3.0,36,,,,,,,,,,,,,,,,,,,,,,,,,,,,,,,,
0.0,1.0,0.75,0.0,18.0,18.0,18.0,1.0,poinsettia_04s.jpg,0.0,clock_7_7.png,3.0,36,,,,,,,,,,,,,,,,,,,,,,,,,,,,,,,,
0.0,1.0,0.926,0.0,19.0,19.0,19.0,1.0,peeler_06s.jpg,0.0,clock_5_1.png,4.0,36,,,,,,,,,,,,,,,,,,,,,,,,,,,,,,,,
0.0,1.0,0.654,0.0,20.0,20.0,20.0,1.0,laundry_basket_11s.jpg,0.0,clock_5_2.png,4.0,36,,,,,,,,,,,,,,,,,,,,,,,,,,,,,,,,
0.0,1.0,0.837,0.0,21.0,21.0,21.0,1.0,blender_08s.jpg,0.0,clock_5_3.png,4.0,36,,,,,,,,,,,,,,,,,,,,,,,,,,,,,,,,
1.0,1.0,0.917,0.0,22.0,22.0,22.0,1.0,peeler_06s.jpg,1.0,clock_5_4.png,4.0,36,,,,,,,,,,,,,,,,,,,,,,,,,,,,,,,,
0.0,1.0,0.861,0.0,23.0,23.0,23.0,1.0,puppy_08s.jpg,0.0,clock_5_5.png,4.0,36,,,,,,,,,,,,,,,,,,,,,,,,,,,,,,,,
0.0,1.0,0.71,0.0,24.0,24.0,24.0,1.0,frog_09s.jpg,0.0,clock_5_1.png,5.0,36,,,,,,,,,,,,,,,,,,,,,,,,,,,,,,,,
0.0,1.0,0.572,0.0,25.0,25.0,25.0,1.0,mousetrap_15n.jpg,0.0,clock_5_2.png,5.0,36,,,,,,,,,,,,,,,,,,,,,,,,,,,,,,,,
0.0,1.0,0.633,0.0,26.0,26.0,26.0,1.0,candy_cane_06s.jpg,0.0,clock_5_3.png,5.0,36,,,,,,,,,,,,,,,,,,,,,,,,,,,,,,,,
0.0,1.0,0.584,0.0,27.0,27.0,27.0,1.0,jewel_01b.jpg,0.0,clock_5_4.png,5.0,36,,,,,,,,,,,,,,,,,,,,,,,,,,,,,,,,
0.0,1.0,0.741,0.0,28.0,28.0,28.0,1.0,bolo_tie_08s.jpg,0.0,clock_5_5.png,5.0,36,,,,,,,,,,,,,,,,,,,,,,,,,,,,,,,,
0.0,1.0,1.092,0.0,29.0,29.0,29.0,1.0,paper_towel_03s.jpg,0.0,clock_7_1.png,6.0,36,,,,,,,,,,,,,,,,,,,,,,,,,,,,,,,,
1.0,1.0,0.636,0.0,30.0,30.0,30.0,1.0,paper_towel_03s.jpg,1.0,clock_7_2.png,6.0,36,,,,,,,,,,,,,,,,,,,,,,,,,,,,,,,,
0.0,1.0,0.94,0.0,31.0,31.0,31.0,1.0,crossbow_10s.jpg,0.0,clock_7_3.png,6.0,36,,,,,,,,,,,,,,,,,,,,,,,,,,,,,,,,
0.0,1.0,0.617,0.0,32.0,32.0,32.0,1.0,golf_club_03s.jpg,0.0,clock_7_4.png,6.0,36,,,,,,,,,,,,,,,,,,,,,,,,,,,,,,,,
0.0,1.0,1.172,0.0,33.0,33.0,33.0,1.0,ring_03s.jpg,0.0,clock_7_5.png,6.0,36,,,,,,,,,,,,,,,,,,,,,,,,,,,,,,,,
0.0,1.0,0.724,0.0,34.0,34.0,34.0,1.0,roller_coaster_07s.jpg,0.0,clock_7_6.png,6.0,36,,,,,,,,,,,,,,,,,,,,,,,,,,,,,,,,
0.0,1.0,0.667,0.0,35.0,35.0,35.0,1.0,syringe_02s.jpg,0.0,clock_7_7.png,6.0,36,,,,,,,,,,,,,,,,,,,,,,,,,,,,,,,,
,,,,,,,,,0.0,,,36,1.0,0.0,2.042,0.0,0.0,0.0,0.0,1.0,laundry_basket_11s.jpg,harpoon.jpg,,,,,,,,,,,,,,,,,,,,,,
,,,,,,,,,1.0,,,36,0.0,0.0,2.592,0.0,1.0,1.0,1.0,1.0,poinsettia_04s.jpg,blender_08s.jpg,,,,,,,,,,,,,,,,,,,,,,
,,,,,,,,,1.0,,,36,1.0,1.0,1.74,0.0,2.0,2.0,2.0,1.0,puppy_08s.jpg,candy_cane_06s.jpg,,,,,,,,,,,,,,,,,,,,,,
,,,,,,,,,1.0,,,36,1.0,1.0,1.919,0.0,3.0,3.0,3.0,1.0,target_11s.jpg,licorice_06s.jpg,,,,,,,,,,,,,,,,,,,,,,
,,,,,,,,,0.0,,,36,1.0,0.0,1.751,0.0,4.0,4.0,4.0,1.0,beaker_01b.jpg,tie_03s.jpg,,,,,,,,,,,,,,,,,,,,,,
,,,,,,,,,1.0,,,36,1.0,1.0,1.727,0.0,5.0,5.0,5.0,1.0,golf_club_03s.jpg,syringe_02s.jpg,,,,,,,,,,,,,,,,,,,,,,
,,,,,,,,,,,,36,,,,,,,,,,,0.0,1.0,1.0,1.0,1.0,clock_present_2_15.xlsx,clock_compare_task_2_15.xlsx,,,,,,,,,,,,,,,
0.0,1.0,1.322,0.0,0.0,0.0,0.0,1.0,squirt_gun_03s.jpg,0.0,clock_6_1.png,1.0,36,,,,,,,,,,,,,,,,,,,,,,,,,,,,,,,,
0.0,1.0,1.057,0.0,1.0,1.0,1.0,1.0,omelet_07s.jpg,0.0,clock_6_2.png,1.0,36,,,,,,,,,,,,,,,,,,,,,,,,,,,,,,,,
0.0,1.0,0.599,0.0,2.0,2.0,2.0,1.0,quilt_03s.jpg,0.0,clock_6_3.png,1.0,36,,,,,,,,,,,,,,,,,,,,,,,,,,,,,,,,
0.0,1.0,0.536,0.0,3.0,3.0,3.0,1.0,muffin_12n.jpg,0.0,clock_6_4.png,1.0,36,,,,,,,,,,,,,,,,,,,,,,,,,,,,,,,,
0.0,1.0,0.656,0.0,4.0,4.0,4.0,1.0,orange_12s.jpg,0.0,clock_6_5.png,1.0,36,,,,,,,,,,,,,,,,,,,,,,,,,,,,,,,,
1.0,1.0,0.961,0.0,5.0,5.0,5.0,1.0,squirt_gun_03s.jpg,1.0,clock_6_6.png,1.0,36,,,,,,,,,,,,,,,,,,,,,,,,,,,,,,,,
0.0,1.0,0.841,0.0,6.0,6.0,6.0,1.0,spider_web_03s.jpg,0.0,clock_7_1.png,2.0,36,,,,,,,,,,,,,,,,,,,,,,,,,,,,,,,,
1.0,1.0,0.931,0.0,7.0,7.0,7.0,1.0,spider_web_03s.jpg,1.0,clock_7_2.png,2.0,36,,,,,,,,,,,,,,,,,,,,,,,,,,,,,,,,
0.0,1.0,1.223,0.0,8.0,8.0,8.0,1.0,muffin_12n.jpg,0.0,clock_7_3.png,2.0,36,,,,,,,,,,,,,,,,,,,,,,,,,,,,,,,,
1.0,1.0,0.928,0.0,9.0,9.0,9.0,1.0,muffin_12n.jpg,1.0,clock_7_4.png,2.0,36,,,,,,,,,,,,,,,,,,,,,,,,,,,,,,,,
0.0,1.0,0.687,0.0,10.0,10.0,10.0,1.0,boar_10s.jpg,0.0,clock_7_5.png,2.0,36,,,,,,,,,,,,,,,,,,,,,,,,,,,,,,,,
0.0,1.0,0.851,0.0,11.0,11.0,11.0,1.0,tongs_08s.jpg,0.0,clock_7_6.png,2.0,36,,,,,,,,,,,,,,,,,,,,,,,,,,,,,,,,
0.0,1.0,0.851,0.0,12.0,12.0,12.0,1.0,toaster_03s.jpg,0.0,clock_7_7.png,2.0,36,,,,,,,,,,,,,,,,,,,,,,,,,,,,,,,,
0.0,1.0,0.767,0.0,13.0,13.0,13.0,1.0,bacon_05s.jpg,0.0,clock_5_1.png,3.0,36,,,,,,,,,,,,,,,,,,,,,,,,,,,,,,,,
0.0,1.0,0.704,0.0,14.0,14.0,14.0,1.0,letter_opener_03s.jpg,0.0,clock_5_2.png,3.0,36,,,,,,,,,,,,,,,,,,,,,,,,,,,,,,,,
0.0,1.0,0.839,0.0,15.0,15.0,15.0,1.0,pipe1_10s.jpg,0.0,clock_5_3.png,3.0,36,,,,,,,,,,,,,,,,,,,,,,,,,,,,,,,,
0.0,1.0,0.616,0.0,16.0,16.0,16.0,1.0,red_carpet_03s.jpg,0.0,clock_5_4.png,3.0,36,,,,,,,,,,,,,,,,,,,,,,,,,,,,,,,,
1.0,1.0,1.384,0.0,17.0,17.0,17.0,1.0,pipe1_10s.jpg,1.0,clock_5_5.png,3.0,36,,,,,,,,,,,,,,,,,,,,,,,,,,,,,,,,
0.0,1.0,1.055,0.0,18.0,18.0,18.0,1.0,fountain_pen_06s.jpg,0.0,clock_5_1.png,4.0,36,,,,,,,,,,,,,,,,,,,,,,,,,,,,,,,,
0.0,1.0,0.751,0.0,19.0,19.0,19.0,1.0,kimono_13s.jpg,0.0,clock_5_2.png,4.0,36,,,,,,,,,,,,,,,,,,,,,,,,,,,,,,,,
0.0,1.0,0.695,0.0,20.0,20.0,20.0,1.0,bagel_15s.jpg,0.0,clock_5_3.png,4.0,36,,,,,,,,,,,,,,,,,,,,,,,,,,,,,,,,
0.0,1.0,0.634,0.0,21.0,21.0,21.0,1.0,marker_05s.jpg,0.0,clock_5_4.png,4.0,36,,,,,,,,,,,,,,,,,,,,,,,,,,,,,,,,
0.0,1.0,0.918,0.0,22.0,22.0,22.0,1.0,chopsticks_08s.jpg,0.0,clock_5_5.png,4.0,36,,,,,,,,,,,,,,,,,,,,,,,,,,,,,,,,
0.0,1.0,0.983,0.0,23.0,23.0,23.0,1.0,toy_04s.jpg,0.0,clock_6_1.png,5.0,36,,,,,,,,,,,,,,,,,,,,,,,,,,,,,,,,
1.0,1.0,0.751,0.0,24.0,24.0,24.0,1.0,toy_04s.jpg,1.0,clock_6_2.png,5.0,36,,,,,,,,,,,,,,,,,,,,,,,,,,,,,,,,
0.0,1.0,0.638,0.0,25.0,25.0,25.0,1.0,swordfish_05s.jpg,0.0,clock_6_3.png,5.0,36,,,,,,,,,,,,,,,,,,,,,,,,,,,,,,,,
0.0,1.0,0.666,0.0,26.0,26.0,26.0,1.0,snowman_02s.jpg,0.0,clock_6_4.png,5.0,36,,,,,,,,,,,,,,,,,,,,,,,,,,,,,,,,
1.0,1.0,0.7,0.0,27.0,27.0,27.0,1.0,snowman_02s.jpg,1.0,clock_6_5.png,5.0,36,,,,,,,,,,,,,,,,,,,,,,,,,,,,,,,,
1.0,1.0,1.012,0.0,28.0,28.0,28.0,1.0,swordfish_05s.jpg,1.0,clock_6_6.png,5.0,36,,,,,,,,,,,,,,,,,,,,,,,,,,,,,,,,
0.0,1.0,0.951,0.0,29.0,29.0,29.0,1.0,kayak_08s.jpg,0.0,clock_7_1.png,6.0,36,,,,,,,,,,,,,,,,,,,,,,,,,,,,,,,,
0.0,1.0,0.851,0.0,30.0,30.0,30.0,1.0,emerald_02s.jpg,0.0,clock_7_2.png,6.0,36,,,,,,,,,,,,,,,,,,,,,,,,,,,,,,,,
0.0,1.0,0.886,0.0,31.0,31.0,31.0,1.0,fireworks_18s.jpg,0.0,clock_7_3.png,6.0,36,,,,,,,,,,,,,,,,,,,,,,,,,,,,,,,,
0.0,1.0,0.669,0.0,32.0,32.0,32.0,1.0,lipstick_02s.jpg,0.0,clock_7_4.png,6.0,36,,,,,,,,,,,,,,,,,,,,,,,,,,,,,,,,
1.0,1.0,0.95,0.0,33.0,33.0,33.0,1.0,fireworks_18s.jpg,1.0,clock_7_5.png,6.0,36,,,,,,,,,,,,,,,,,,,,,,,,,,,,,,,,
1.0,1.0,1.167,0.0,34.0,34.0,34.0,1.0,kayak_08s.jpg,1.0,clock_7_6.png,6.0,36,,,,,,,,,,,,,,,,,,,,,,,,,,,,,,,,
0.0,1.0,0.817,0.0,35.0,35.0,35.0,1.0,stump_02s.jpg,0.0,clock_7_7.png,6.0,36,,,,,,,,,,,,,,,,,,,,,,,,,,,,,,,,
,,,,,,,,,0.0,,,36,0.0,1.0,1.961,0.0,0.0,0.0,0.0,1.0,letter_opener_03s.jpg,tongs_08s.jpg,,,,,,,,,,,,,,,,,,,,,,
,,,,,,,,,1.0,,,36,1.0,1.0,1.838,0.0,1.0,1.0,1.0,1.0,boar_10s.jpg,bacon_05s.jpg,,,,,,,,,,,,,,,,,,,,,,
,,,,,,,,,1.0,,,36,1.0,1.0,2.417,0.0,2.0,2.0,2.0,1.0,red_carpet_03s.jpg,kimono_13s.jpg,,,,,,,,,,,,,,,,,,,,,,
,,,,,,,,,0.0,,,36,0.0,1.0,1.955,0.0,3.0,3.0,3.0,1.0,orange_12s.jpg,omelet_07s.jpg,,,,,,,,,,,,,,,,,,,,,,
,,,,,,,,,0.0,,,36,1.0,0.0,2.8,0.0,4.0,4.0,4.0,1.0,marker_05s.jpg,fountain_pen_06s.jpg,,,,,,,,,,,,,,,,,,,,,,
,,,,,,,,,0.0,,,36,0.0,1.0,1.474,0.0,5.0,5.0,5.0,1.0,stump_02s.jpg,lipstick_02s.jpg,,,,,,,,,,,,,,,,,,,,,,
,,,,,,,,,,,,36,,,,,,,,,,,0.0,2.0,2.0,2.0,1.0,clock_present_3_15.xlsx,clock_compare_task_3_15.xlsx,,,,,,,,,,,,,,,
0.0,1.0,1.254,0.0,0.0,0.0,0.0,1.0,refrigerator_07s.jpg,0.0,clock_6_1.png,1.0,36,,,,,,,,,,,,,,,,,,,,,,,,,,,,,,,,
0.0,1.0,0.859,0.0,1.0,1.0,1.0,1.0,pencil02a.jpg,0.0,clock_6_2.png,1.0,36,,,,,,,,,,,,,,,,,,,,,,,,,,,,,,,,
0.0,1.0,0.933,0.0,2.0,2.0,2.0,1.0,crystal_ball_12s.jpg,0.0,clock_6_3.png,1.0,36,,,,,,,,,,,,,,,,,,,,,,,,,,,,,,,,
0.0,1.0,0.701,0.0,3.0,3.0,3.0,1.0,compass_10n.jpg,0.0,clock_6_4.png,1.0,36,,,,,,,,,,,,,,,,,,,,,,,,,,,,,,,,
0.0,1.0,0.767,0.0,4.0,4.0,4.0,1.0,kilt_18s.jpg,0.0,clock_6_5.png,1.0,36,,,,,,,,,,,,,,,,,,,,,,,,,,,,,,,,
0.0,1.0,0.707,0.0,5.0,5.0,5.0,1.0,coat_rack_01b.jpg,0.0,clock_6_6.png,1.0,36,,,,,,,,,,,,,,,,,,,,,,,,,,,,,,,,
0.0,1.0,1.108,0.0,6.0,6.0,6.0,1.0,prism_10s.jpg,0.0,clock_5_1.png,2.0,36,,,,,,,,,,,,,,,,,,,,,,,,,,,,,,,,
1.0,1.0,0.816,0.0,7.0,7.0,7.0,1.0,prism_10s.jpg,1.0,clock_5_2.png,2.0,36,,,,,,,,,,,,,,,,,,,,,,,,,,,,,,,,
0.0,1.0,0.635,0.0,8.0,8.0,8.0,1.0,purse_05s.jpg,0.0,clock_5_3.png,2.0,36,,,,,,,,,,,,,,,,,,,,,,,,,,,,,,,,
0.0,1.0,1.035,0.0,9.0,9.0,9.0,1.0,refrigerator_07s.jpg,0.0,clock_5_4.png,2.0,36,,,,,,,,,,,,,,,,,,,,,,,,,,,,,,,,
0.0,1.0,1.011,0.0,10.0,10.0,10.0,1.0,lamb_04s.jpg,0.0,clock_5_5.png,2.0,36,,,,,,,,,,,,,,,,,,,,,,,,,,,,,,,,
0.0,1.0,1.827,0.0,11.0,11.0,11.0,1.0,leotard_08s.jpg,0.0,clock_6_1.png,3.0,36,,,,,,,,,,,,,,,,,,,,,,,,,,,,,,,,
0.0,1.0,0.612,0.0,12.0,12.0,12.0,1.0,lavender_10s.jpg,0.0,clock_6_2.png,3.0,36,,,,,,,,,,,,,,,,,,,,,,,,,,,,,,,,
0.0,1.0,0.684,0.0,13.0,13.0,13.0,1.0,bean_06s.jpg,0.0,clock_6_3.png,3.0,36,,,,,,,,,,,,,,,,,,,,,,,,,,,,,,,,
0.0,1.0,0.754,0.0,14.0,14.0,14.0,1.0,puddle_02s.jpg,0.0,clock_6_4.png,3.0,36,,,,,,,,,,,,,,,,,,,,,,,,,,,,,,,,
0.0,1.0,0.771,0.0,15.0,15.0,15.0,1.0,pencil02a.jpg,0.0,clock_6_5.png,3.0,36,,,,,,,,,,,,,,,,,,,,,,,,,,,,,,,,
0.0,1.0,0.819,0.0,16.0,16.0,16.0,1.0,medal_04s.jpg,0.0,clock_6_6.png,3.0,36,,,,,,,,,,,,,,,,,,,,,,,,,,,,,,,,
0.0,1.0,0.923,0.0,17.0,17.0,17.0,1.0,lion_18s.jpg,0.0,clock_7_1.png,4.0,36,,,,,,,,,,,,,,,,,,,,,,,,,,,,,,,,
0.0,1.0,0.666,0.0,18.0,18.0,18.0,1.0,treadmill_06s.jpg,0.0,clock_7_2.png,4.0,36,,,,,,,,,,,,,,,,,,,,,,,,,,,,,,,,
0.0,1.0,0.617,0.0,19.0,19.0,19.0,1.0,mold2_04s.jpg,0.0,clock_7_3.png,4.0,36,,,,,,,,,,,,,,,,,,,,,,,,,,,,,,,,
0.0,1.0,0.75,0.0,20.0,20.0,20.0,1.0,pan_02s.jpg,0.0,clock_7_4.png,4.0,36,,,,,,,,,,,,,,,,,,,,,,,,,,,,,,,,
0.0,1.0,1.066,0.0,21.0,21.0,21.0,1.0,reindeer_08s.jpg,0.0,clock_7_5.png,4.0,36,,,,,,,,,,,,,,,,,,,,,,,,,,,,,,,,
0.0,1.0,0.917,0.0,22.0,22.0,22.0,1.0,top_hat_11s.jpg,0.0,clock_7_6.png,4.0,36,,,,,,,,,,,,,,,,,,,,,,,,,,,,,,,,
1.0,1.0,0.801,0.0,23.0,23.0,23.0,1.0,treadmill_06s.jpg,1.0,clock_7_7.png,4.0,36,,,,,,,,,,,,,,,,,,,,,,,,,,,,,,,,
0.0,1.0,0.785,0.0,24.0,24.0,24.0,1.0,sea_urchin_09s.jpg,0.0,clock_7_1.png,5.0,36,,,,,,,,,,,,,,,,,,,,,,,,,,,,,,,,
0.0,1.0,0.673,0.0,25.0,25.0,25.0,1.0,breadstick_08s.jpg,0.0,clock_7_2.png,5.0,36,,,,,,,,,,,,,,,,,,,,,,,,,,,,,,,,
0.0,1.0,0.705,0.0,26.0,26.0,26.0,1.0,rabbit_03s.jpg,0.0,clock_7_3.png,5.0,36,,,,,,,,,,,,,,,,,,,,,,,,,,,,,,,,
1.0,1.0,0.993,0.0,27.0,27.0,27.0,1.0,sea_urchin_09s.jpg,1.0,clock_7_4.png,5.0,36,,,,,,,,,,,,,,,,,,,,,,,,,,,,,,,,
1.0,1.0,0.761,0.0,28.0,28.0,28.0,1.0,sea_urchin_09s.jpg,1.0,clock_7_5.png,5.0,36,,,,,,,,,,,,,,,,,,,,,,,,,,,,,,,,
0.0,1.0,0.889,0.0,29.0,29.0,29.0,1.0,bee_20s.jpg,0.0,clock_7_6.png,5.0,36,,,,,,,,,,,,,,,,,,,,,,,,,,,,,,,,
1.0,1.0,0.778,0.0,30.0,30.0,30.0,1.0,sea_urchin_09s.jpg,1.0,clock_7_7.png,5.0,36,,,,,,,,,,,,,,,,,,,,,,,,,,,,,,,,
0.0,1.0,0.733,0.0,31.0,31.0,31.0,1.0,pantyhose_07s.jpg,0.0,clock_5_1.png,6.0,36,,,,,,,,,,,,,,,,,,,,,,,,,,,,,,,,
1.0,1.0,0.601,0.0,32.0,32.0,32.0,1.0,pantyhose_07s.jpg,1.0,clock_5_2.png,6.0,36,,,,,,,,,,,,,,,,,,,,,,,,,,,,,,,,
0.0,1.0,0.687,0.0,33.0,33.0,33.0,1.0,birthday_cake_09s.jpg,0.0,clock_5_3.png,6.0,36,,,,,,,,,,,,,,,,,,,,,,,,,,,,,,,,
0.0,1.0,0.638,0.0,34.0,34.0,34.0,1.0,rooster_03s.jpg,0.0,clock_5_4.png,6.0,36,,,,,,,,,,,,,,,,,,,,,,,,,,,,,,,,
1.0,1.0,0.833,0.0,35.0,35.0,35.0,1.0,rooster_03s.jpg,1.0,clock_5_5.png,6.0,36,,,,,,,,,,,,,,,,,,,,,,,,,,,,,,,,
,,,,,,,,,0.0,,,36,1.0,0.0,2.24,0.0,0.0,0.0,0.0,1.0,purse_05s.jpg,coat_rack_01b.jpg,,,,,,,,,,,,,,,,,,,,,,
,,,,,,,,,0.0,,,36,0.0,1.0,2.179,0.0,1.0,1.0,1.0,1.0,bean_06s.jpg,lamb_04s.jpg,,,,,,,,,,,,,,,,,,,,,,
,,,,,,,,,1.0,,,36,1.0,1.0,1.975,0.0,2.0,2.0,2.0,1.0,top_hat_11s.jpg,breadstick_08s.jpg,,,,,,,,,,,,,,,,,,,,,,
,,,,,,,,,1.0,,,36,0.0,0.0,2.217,0.0,3.0,3.0,3.0,1.0,rabbit_03s.jpg,bee_20s.jpg,,,,,,,,,,,,,,,,,,,,,,
,,,,,,,,,0.0,,,36,0.0,1.0,1.727,0.0,4.0,4.0,4.0,1.0,pan_02s.jpg,lion_18s.jpg,,,,,,,,,,,,,,,,,,,,,,
,,,,,,,,,0.0,,,36,0.0,1.0,1.802,0.0,5.0,5.0,5.0,1.0,puddle_02s.jpg,leotard_08s.jpg,,,,,,,,,,,,,,,,,,,,,,
,,,,,,,,,,,,36,,,,,,,,,,,0.0,3.0,3.0,3.0,1.0,clock_present_4_15.xlsx,clock_compare_task_4_15.xlsx,,,,,,,,,,,,,,,
0.0,1.0,0.892,0.0,0.0,0.0,0.0,1.0,bowler_hat_10s.jpg,0.0,clock_7_1.png,1.0,36,,,,,,,,,,,,,,,,,,,,,,,,,,,,,,,,
0.0,1.0,0.651,0.0,1.0,1.0,1.0,1.0,denture_03s.jpg,0.0,clock_7_2.png,1.0,36,,,,,,,,,,,,,,,,,,,,,,,,,,,,,,,,
0.0,1.0,0.591,0.0,2.0,2.0,2.0,1.0,road_sign_05s.jpg,0.0,clock_7_3.png,1.0,36,,,,,,,,,,,,,,,,,,,,,,,,,,,,,,,,
1.0,1.0,0.634,0.0,3.0,3.0,3.0,1.0,road_sign_05s.jpg,1.0,clock_7_4.png,1.0,36,,,,,,,,,,,,,,,,,,,,,,,,,,,,,,,,
0.0,1.0,0.651,0.0,4.0,4.0,4.0,1.0,keyboard_05s.jpg,0.0,clock_7_5.png,1.0,36,,,,,,,,,,,,,,,,,,,,,,,,,,,,,,,,
1.0,1.0,0.719,0.0,5.0,5.0,5.0,1.0,keyboard_05s.jpg,1.0,clock_7_6.png,1.0,36,,,,,,,,,,,,,,,,,,,,,,,,,,,,,,,,
0.0,1.0,0.634,0.0,6.0,6.0,6.0,1.0,pinwheel_06s.jpg,0.0,clock_7_7.png,1.0,36,,,,,,,,,,,,,,,,,,,,,,,,,,,,,,,,
0.0,1.0,0.702,0.0,7.0,7.0,7.0,1.0,giraffe_11s.jpg,0.0,clock_6_1.png,2.0,36,,,,,,,,,,,,,,,,,,,,,,,,,,,,,,,,
0.0,1.0,0.582,0.0,8.0,8.0,8.0,1.0,scooter.jpg,0.0,clock_6_2.png,2.0,36,,,,,,,,,,,,,,,,,,,,,,,,,,,,,,,,
0.0,1.0,1.017,0.0,9.0,9.0,9.0,1.0,turkey_10s.jpg,0.0,clock_6_3.png,2.0,36,,,,,,,,,,,,,,,,,,,,,,,,,,,,,,,,
0.0,1.0,0.693,0.0,10.0,10.0,10.0,1.0,bubble_01b.jpg,0.0,clock_6_4.png,2.0,36,,,,,,,,,,,,,,,,,,,,,,,,,,,,,,,,
0.0,1.0,0.974,0.0,11.0,11.0,11.0,1.0,mixer_12s.jpg,0.0,clock_6_5.png,2.0,36,,,,,,,,,,,,,,,,,,,,,,,,,,,,,,,,
0.0,1.0,0.967,0.0,12.0,12.0,12.0,1.0,gear_07s.jpg,0.0,clock_6_6.png,2.0,36,,,,,,,,,,,,,,,,,,,,,,,,,,,,,,,,
0.0,1.0,0.742,0.0,13.0,13.0,13.0,1.0,mannequin_05s.jpg,0.0,clock_6_1.png,3.0,36,,,,,,,,,,,,,,,,,,,,,,,,,,,,,,,,
0.0,1.0,0.601,0.0,14.0,14.0,14.0,1.0,cap_05s.jpg,0.0,clock_6_2.png,3.0,36,,,,,,,,,,,,,,,,,,,,,,,,,,,,,,,,
0.0,1.0,0.854,0.0,15.0,15.0,15.0,1.0,gazelle_10s.jpg,0.0,clock_6_3.png,3.0,36,,,,,,,,,,,,,,,,,,,,,,,,,,,,,,,,
1.0,1.0,0.727,0.0,16.0,16.0,16.0,1.0,gazelle_10s.jpg,1.0,clock_6_4.png,3.0,36,,,,,,,,,,,,,,,,,,,,,,,,,,,,,,,,
0.0,1.0,0.853,0.0,17.0,17.0,17.0,1.0,projector_08s.jpg,0.0,clock_6_5.png,3.0,36,,,,,,,,,,,,,,,,,,,,,,,,,,,,,,,,
1.0,1.0,1.678,0.0,18.0,18.0,18.0,1.0,mannequin_05s.jpg,1.0,clock_6_6.png,3.0,36,,,,,,,,,,,,,,,,,,,,,,,,,,,,,,,,
0.0,1.0,0.925,0.0,19.0,19.0,19.0,1.0,fishhook_06s.jpg,0.0,clock_5_1.png,4.0,36,,,,,,,,,,,,,,,,,,,,,,,,,,,,,,,,
0.0,1.0,0.854,0.0,20.0,20.0,20.0,1.0,buoy_04s.jpg,0.0,clock_5_2.png,4.0,36,,,,,,,,,,,,,,,,,,,,,,,,,,,,,,,,
0.0,1.0,0.869,0.0,21.0,21.0,21.0,1.0,ant_12s.jpg,0.0,clock_5_3.png,4.0,36,,,,,,,,,,,,,,,,,,,,,,,,,,,,,,,,
0.0,1.0,0.885,0.0,22.0,22.0,22.0,1.0,tab_09s.jpg,0.0,clock_5_4.png,4.0,36,,,,,,,,,,,,,,,,,,,,,,,,,,,,,,,,
0.0,1.0,0.767,0.0,23.0,23.0,23.0,1.0,footprint_11s.jpg,0.0,clock_5_5.png,4.0,36,,,,,,,,,,,,,,,,,,,,,,,,,,,,,,,,
0.0,1.0,1.005,0.0,24.0,24.0,24.0,1.0,blazer_02s.jpg,0.0,clock_7_1.png,5.0,36,,,,,,,,,,,,,,,,,,,,,,,,,,,,,,,,
0.0,1.0,1.556,0.0,25.0,25.0,25.0,1.0,eyedropper_12s.jpg,0.0,clock_7_2.png,5.0,36,,,,,,,,,,,,,,,,,,,,,,,,,,,,,,,,
0.0,1.0,1.021,0.0,26.0,26.0,26.0,1.0,bowler_hat_10s.jpg,0.0,clock_7_3.png,5.0,36,,,,,,,,,,,,,,,,,,,,,,,,,,,,,,,,
1.0,1.0,0.94,0.0,27.0,27.0,27.0,1.0,eyedropper_12s.jpg,1.0,clock_7_4.png,5.0,36,,,,,,,,,,,,,,,,,,,,,,,,,,,,,,,,
0.0,1.0,0.741,0.0,28.0,28.0,28.0,1.0,incense_02s.jpg,0.0,clock_7_5.png,5.0,36,,,,,,,,,,,,,,,,,,,,,,,,,,,,,,,,
0.0,1.0,0.773,0.0,29.0,29.0,29.0,1.0,loom_05s.jpg,0.0,clock_7_6.png,5.0,36,,,,,,,,,,,,,,,,,,,,,,,,,,,,,,,,
0.0,1.0,0.7,0.0,30.0,30.0,30.0,1.0,cape_11s.jpg,0.0,clock_7_7.png,5.0,36,,,,,,,,,,,,,,,,,,,,,,,,,,,,,,,,
0.0,1.0,0.724,0.0,31.0,31.0,31.0,1.0,coconut_08s.jpg,0.0,clock_5_1.png,6.0,36,,,,,,,,,,,,,,,,,,,,,,,,,,,,,,,,
0.0,1.0,1.172,0.0,32.0,32.0,32.0,1.0,road_sign_05s.jpg,0.0,clock_5_2.png,6.0,36,,,,,,,,,,,,,,,,,,,,,,,,,,,,,,,,
0.0,1.0,0.717,0.0,33.0,33.0,33.0,1.0,screwdriver02a.jpg,0.0,clock_5_3.png,6.0,36,,,,,,,,,,,,,,,,,,,,,,,,,,,,,,,,
0.0,1.0,0.891,0.0,34.0,34.0,34.0,1.0,turnstile_08s.jpg,0.0,clock_5_4.png,6.0,36,,,,,,,,,,,,,,,,,,,,,,,,,,,,,,,,
0.0,1.0,0.717,0.0,35.0,35.0,35.0,1.0,peppermint_07s.jpg,0.0,clock_5_5.png,6.0,36,,,,,,,,,,,,,,,,,,,,,,,,,,,,,,,,
,,,,,,,,,1.0,,,36,1.0,1.0,2.743,0.0,0.0,0.0,0.0,1.0,ant_12s.jpg,blazer_02s.jpg,,,,,,,,,,,,,,,,,,,,,,
,,,,,,,,,1.0,,,36,1.0,1.0,2.701,0.0,1.0,1.0,1.0,1.0,cape_11s.jpg,screwdriver02a.jpg,,,,,,,,,,,,,,,,,,,,,,
,,,,,,,,,1.0,,,36,1.0,1.0,1.618,0.0,2.0,2.0,2.0,1.0,pinwheel_06s.jpg,turkey_10s.jpg,,,,,,,,,,,,,,,,,,,,,,
,,,,,,,,,1.0,,,36,1.0,1.0,1.868,0.0,3.0,3.0,3.0,1.0,giraffe_11s.jpg,bubble_01b.jpg,,,,,,,,,,,,,,,,,,,,,,
,,,,,,,,,0.0,,,36,0.0,1.0,2.025,0.0,4.0,4.0,4.0,1.0,tab_09s.jpg,fishhook_06s.jpg,,,,,,,,,,,,,,,,,,,,,,
,,,,,,,,,0.0,,,36,0.0,1.0,1.724,0.0,5.0,5.0,5.0,1.0,mixer_12s.jpg,scooter.jpg,,,,,,,,,,,,,,,,,,,,,,
,,,,,,,,,,,,36,,,,,,,,,,,0.0,4.0,4.0,4.0,1.0,clock_present_5_15.xlsx,clock_compare_task_5_15.xlsx,,,,,,,,,,,,,,,
0.0,1.0,0.813,0.0,0.0,0.0,0.0,1.0,glue_01s.jpg,0.0,clock_7_1.png,1.0,36,,,,,,,,,,,,,,,,,,,,,,,,,,,,,,,,
1.0,1.0,0.822,0.0,1.0,1.0,1.0,1.0,glue_01s.jpg,1.0,clock_7_2.png,1.0,36,,,,,,,,,,,,,,,,,,,,,,,,,,,,,,,,
0.0,1.0,0.783,0.0,2.0,2.0,2.0,1.0,tape_06s.jpg,0.0,clock_7_3.png,1.0,36,,,,,,,,,,,,,,,,,,,,,,,,,,,,,,,,
1.0,1.0,0.817,0.0,3.0,3.0,3.0,1.0,glue_01s.jpg,1.0,clock_7_4.png,1.0,36,,,,,,,,,,,,,,,,,,,,,,,,,,,,,,,,
1.0,1.0,0.742,0.0,4.0,4.0,4.0,1.0,glue_01s.jpg,1.0,clock_7_5.png,1.0,36,,,,,,,,,,,,,,,,,,,,,,,,,,,,,,,,
0.0,1.0,1.006,0.0,5.0,5.0,5.0,1.0,powder_07s.jpg,0.0,clock_7_6.png,1.0,36,,,,,,,,,,,,,,,,,,,,,,,,,,,,,,,,
0.0,1.0,0.85,0.0,6.0,6.0,6.0,1.0,swan_11s.jpg,0.0,clock_7_7.png,1.0,36,,,,,,,,,,,,,,,,,,,,,,,,,,,,,,,,
0.0,1.0,0.885,0.0,7.0,7.0,7.0,1.0,badge_03s.jpg,0.0,clock_5_1.png,2.0,36,,,,,,,,,,,,,,,,,,,,,,,,,,,,,,,,
0.0,1.0,0.757,0.0,8.0,8.0,8.0,1.0,turf_03s.jpg,0.0,clock_5_2.png,2.0,36,,,,,,,,,,,,,,,,,,,,,,,,,,,,,,,,
0.0,1.0,0.677,0.0,9.0,9.0,9.0,1.0,stapler_01b.jpg,0.0,clock_5_3.png,2.0,36,,,,,,,,,,,,,,,,,,,,,,,,,,,,,,,,
0.0,1.0,0.788,0.0,10.0,10.0,10.0,1.0,taxi_15s.jpg,0.0,clock_5_4.png,2.0,36,,,,,,,,,,,,,,,,,,,,,,,,,,,,,,,,
1.0,1.0,1.434,0.0,11.0,11.0,11.0,1.0,turf_03s.jpg,1.0,clock_5_5.png,2.0,36,,,,,,,,,,,,,,,,,,,,,,,,,,,,,,,,
0.0,1.0,0.677,0.0,12.0,12.0,12.0,1.0,turtleneck_11s.jpg,0.0,clock_5_1.png,3.0,36,,,,,,,,,,,,,,,,,,,,,,,,,,,,,,,,
0.0,1.0,1.061,0.0,13.0,13.0,13.0,1.0,safety_pin_02s.jpg,0.0,clock_5_2.png,3.0,36,,,,,,,,,,,,,,,,,,,,,,,,,,,,,,,,
0.0,1.0,1.101,0.0,14.0,14.0,14.0,1.0,powder_07s.jpg,0.0,clock_5_3.png,3.0,36,,,,,,,,,,,,,,,,,,,,,,,,,,,,,,,,
0.0,1.0,0.768,0.0,15.0,15.0,15.0,1.0,lizard_10n.jpg,0.0,clock_5_4.png,3.0,36,,,,,,,,,,,,,,,,,,,,,,,,,,,,,,,,
0.0,1.0,2.101,0.0,16.0,16.0,16.0,1.0,crate_05s.jpg,0.0,clock_5_5.png,3.0,36,,,,,,,,,,,,,,,,,,,,,,,,,,,,,,,,
0.0,1.0,0.925,0.0,17.0,17.0,17.0,1.0,tablet_04s.jpg,0.0,clock_7_1.png,4.0,36,,,,,,,,,,,,,,,,,,,,,,,,,,,,,,,,
0.0,1.0,0.876,0.0,18.0,18.0,18.0,1.0,rudder_02s.jpg,0.0,clock_7_2.png,4.0,36,,,,,,,,,,,,,,,,,,,,,,,,,,,,,,,,
0.0,1.0,0.884,0.0,19.0,19.0,19.0,1.0,lizard_10n.jpg,0.0,clock_7_3.png,4.0,36,,,,,,,,,,,,,,,,,,,,,,,,,,,,,,,,
0.0,1.0,0.604,0.0,20.0,20.0,20.0,1.0,limousine_12s.jpg,0.0,clock_7_4.png,4.0,36,,,,,,,,,,,,,,,,,,,,,,,,,,,,,,,,
0.0,1.0,0.676,0.0,21.0,21.0,21.0,1.0,sleeping_bag_12s.jpg,0.0,clock_7_5.png,4.0,36,,,,,,,,,,,,,,,,,,,,,,,,,,,,,,,,
0.0,1.0,0.566,0.0,22.0,22.0,22.0,1.0,tennis_ball_06s.jpg,0.0,clock_7_6.png,4.0,36,,,,,,,,,,,,,,,,,,,,,,,,,,,,,,,,
0.0,1.0,0.603,0.0,23.0,23.0,23.0,1.0,pea_11s.jpg,0.0,clock_7_7.png,4.0,36,,,,,,,,,,,,,,,,,,,,,,,,,,,,,,,,
0.0,1.0,0.642,0.0,24.0,24.0,24.0,1.0,tile_08s.jpg,0.0,clock_6_1.png,5.0,36,,,,,,,,,,,,,,,,,,,,,,,,,,,,,,,,
0.0,1.0,0.643,0.0,25.0,25.0,25.0,1.0,paper_bag_12s.jpg,0.0,clock_6_2.png,5.0,36,,,,,,,,,,,,,,,,,,,,,,,,,,,,,,,,
0.0,1.0,0.583,0.0,26.0,26.0,26.0,1.0,umbrella_15s.jpg,0.0,clock_6_3.png,5.0,36,,,,,,,,,,,,,,,,,,,,,,,,,,,,,,,,
1.0,1.0,0.866,0.0,27.0,27.0,27.0,1.0,umbrella_15s.jpg,1.0,clock_6_4.png,5.0,36,,,,,,,,,,,,,,,,,,,,,,,,,,,,,,,,
0.0,1.0,0.673,0.0,28.0,28.0,28.0,1.0,bank_06s.jpg,0.0,clock_6_5.png,5.0,36,,,,,,,,,,,,,,,,,,,,,,,,,,,,,,,,
1.0,1.0,0.95,0.0,29.0,29.0,29.0,1.0,bank_06s.jpg,1.0,clock_6_6.png,5.0,36,,,,,,,,,,,,,,,,,,,,,,,,,,,,,,,,
0.0,1.0,0.701,0.0,30.0,30.0,30.0,1.0,crayon_09s.jpg,0.0,clock_6_1.png,6.0,36,,,,,,,,,,,,,,,,,,,,,,,,,,,,,,,,
0.0,1.0,0.627,0.0,31.0,31.0,31.0,1.0,amber_04s.jpg,0.0,clock_6_2.png,6.0,36,,,,,,,,,,,,,,,,,,,,,,,,,,,,,,,,
0.0,1.0,0.735,0.0,32.0,32.0,32.0,1.0,towel_rack_04s.jpg,0.0,clock_6_3.png,6.0,36,,,,,,,,,,,,,,,,,,,,,,,,,,,,,,,,
0.0,1.0,0.55,0.0,33.0,33.0,33.0,1.0,puck_06s.jpg,0.0,clock_6_4.png,6.0,36,,,,,,,,,,,,,,,,,,,,,,,,,,,,,,,,
0.0,1.0,0.567,0.0,34.0,34.0,34.0,1.0,iron_13s.jpg,0.0,clock_6_5.png,6.0,36,,,,,,,,,,,,,,,,,,,,,,,,,,,,,,,,
0.0,1.0,0.934,0.0,35.0,35.0,35.0,1.0,rocking_chair_05s.jpg,0.0,clock_6_6.png,6.0,36,,,,,,,,,,,,,,,,,,,,,,,,,,,,,,,,
,,,,,,,,,0.0,,,36,0.0,1.0,2.013,0.0,0.0,0.0,0.0,1.0,stapler_01b.jpg,swan_11s.jpg,,,,,,,,,,,,,,,,,,,,,,
,,,,,,,,,1.0,,,36,1.0,1.0,2.755,0.0,1.0,1.0,1.0,1.0,tennis_ball_06s.jpg,paper_bag_12s.jpg,,,,,,,,,,,,,,,,,,,,,,
,,,,,,,,,0.0,,,36,1.0,0.0,1.801,0.0,2.0,2.0,2.0,1.0,tile_08s.jpg,sleeping_bag_12s.jpg,,,,,,,,,,,,,,,,,,,,,,
,,,,,,,,,1.0,,,36,1.0,1.0,1.718,0.0,3.0,3.0,3.0,1.0,tablet_04s.jpg,limousine_12s.jpg,,,,,,,,,,,,,,,,,,,,,,
,,,,,,,,,1.0,,,36,1.0,1.0,1.635,0.0,4.0,4.0,4.0,1.0,crayon_09s.jpg,puck_06s.jpg,,,,,,,,,,,,,,,,,,,,,,
,,,,,,,,,1.0,,,36,1.0,1.0,2.484,0.0,5.0,5.0,5.0,1.0,amber_04s.jpg,iron_13s.jpg,,,,,,,,,,,,,,,,,,,,,,
0.0,1.0,1.317,,,,,,lasagna_06s.jpg,0.0,clockno_up.jpg,1.0,36,,,,,,,,,,,,,,,,,,0.0,0.0,0.0,0.0,1.0,,,,,,,,,,
0.0,1.0,0.902,,,,,,kitten_07s.jpg,0.0,clockno_default.jpg,1.0,36,,,,,,,,,,,,,,,,,,0.0,1.0,1.0,1.0,1.0,,,,,,,,,,
0.0,1.0,0.81,,,,,,dashboard_02s.jpg,0.0,clockno_default.jpg,1.0,36,,,,,,,,,,,,,,,,,,0.0,2.0,2.0,2.0,1.0,,,,,,,,,,
0.0,1.0,0.859,,,,,,tattoo_14s.jpg,0.0,clockno_default.jpg,1.0,36,,,,,,,,,,,,,,,,,,0.0,3.0,3.0,3.0,1.0,,,,,,,,,,
0.0,1.0,0.834,,,,,,razor_12s.jpg,0.0,clockno_default.jpg,1.0,36,,,,,,,,,,,,,,,,,,0.0,4.0,4.0,4.0,1.0,,,,,,,,,,
0.0,1.0,0.795,,,,,,pumpkin_03s.jpg,0.0,clockno_default.jpg,1.0,36,,,,,,,,,,,,,,,,,,0.0,5.0,5.0,5.0,1.0,,,,,,,,,,
0.0,1.0,0.809,,,,,,doily_13s.jpg,0.0,clockno_default.jpg,1.0,36,,,,,,,,,,,,,,,,,,0.0,6.0,6.0,6.0,1.0,,,,,,,,,,
0.0,1.0,1.226,,,,,,lollipop_08s.jpg,0.0,clockno_up.jpg,2.0,36,,,,,,,,,,,,,,,,,,0.0,7.0,7.0,7.0,1.0,,,,,,,,,,
0.0,1.0,0.703,,,,,,measuring_cup_02s.jpg,0.0,clockno_default.jpg,2.0,36,,,,,,,,,,,,,,,,,,0.0,8.0,8.0,8.0,1.0,,,,,,,,,,
0.0,1.0,0.641,,,,,,puffin_19s.jpg,0.0,clockno_default.jpg,2.0,36,,,,,,,,,,,,,,,,,,0.0,9.0,9.0,9.0,1.0,,,,,,,,,,
0.0,1.0,0.626,,,,,,ukulele_02s.jpg,0.0,clockno_default.jpg,2.0,36,,,,,,,,,,,,,,,,,,0.0,10.0,10.0,10.0,1.0,,,,,,,,,,
0.0,1.0,0.851,,,,,,plunger_08s.jpg,0.0,clockno_default.jpg,2.0,36,,,,,,,,,,,,,,,,,,0.0,11.0,11.0,11.0,1.0,,,,,,,,,,
1.0,1.0,0.761,,,,,,plunger_08s.jpg,1.0,clockno_default.jpg,2.0,36,,,,,,,,,,,,,,,,,,0.0,12.0,12.0,12.0,1.0,,,,,,,,,,
0.0,1.0,0.834,,,,,,tupperware_09s.jpg,0.0,clockno_up.jpg,3.0,36,,,,,,,,,,,,,,,,,,0.0,13.0,13.0,13.0,1.0,,,,,,,,,,
1.0,1.0,0.852,,,,,,tupperware_09s.jpg,1.0,clockno_default.jpg,3.0,36,,,,,,,,,,,,,,,,,,0.0,14.0,14.0,14.0,1.0,,,,,,,,,,
0.0,1.0,0.969,,,,,,puffin_19s.jpg,0.0,clockno_default.jpg,3.0,36,,,,,,,,,,,,,,,,,,0.0,15.0,15.0,15.0,1.0,,,,,,,,,,
1.0,1.0,0.768,,,,,,tupperware_09s.jpg,1.0,clockno_default.jpg,3.0,36,,,,,,,,,,,,,,,,,,0.0,16.0,16.0,16.0,1.0,,,,,,,,,,
0.0,1.0,0.683,,,,,,thread_08s.jpg,0.0,clockno_default.jpg,3.0,36,,,,,,,,,,,,,,,,,,0.0,17.0,17.0,17.0,1.0,,,,,,,,,,
0.0,1.0,0.751,,,,,,knot_01b.jpg,0.0,clockno_default.jpg,3.0,36,,,,,,,,,,,,,,,,,,0.0,18.0,18.0,18.0,1.0,,,,,,,,,,
0.0,1.0,1.085,,,,,,tulip_02s.jpg,0.0,clockno_up.jpg,4.0,36,,,,,,,,,,,,,,,,,,0.0,19.0,19.0,19.0,1.0,,,,,,,,,,
0.0,1.0,0.801,,,,,,oil_02s.jpg,0.0,clockno_default.jpg,4.0,36,,,,,,,,,,,,,,,,,,0.0,20.0,20.0,20.0,1.0,,,,,,,,,,
0.0,1.0,0.518,,,,,,luggage_08s.jpg,0.0,clockno_default.jpg,4.0,36,,,,,,,,,,,,,,,,,,0.0,21.0,21.0,21.0,1.0,,,,,,,,,,
0.0,1.0,0.656,,,,,,treasure_08s.jpg,0.0,clockno_default.jpg,4.0,36,,,,,,,,,,,,,,,,,,0.0,22.0,22.0,22.0,1.0,,,,,,,,,,
0.0,1.0,0.684,,,,,,mango_09s.jpg,0.0,clockno_default.jpg,4.0,36,,,,,,,,,,,,,,,,,,0.0,23.0,23.0,23.0,1.0,,,,,,,,,,
0.0,1.0,0.667,,,,,,printer_09s.jpg,0.0,clockno_default.jpg,4.0,36,,,,,,,,,,,,,,,,,,0.0,24.0,24.0,24.0,1.0,,,,,,,,,,
0.0,1.0,2.208,,,,,,pump_11s.jpg,0.0,clockno_default.jpg,4.0,36,,,,,,,,,,,,,,,,,,0.0,25.0,25.0,25.0,1.0,,,,,,,,,,
0.0,1.0,1.352,,,,,,sugar_cube_11s.jpg,0.0,clockno_up.jpg,5.0,36,,,,,,,,,,,,,,,,,,0.0,26.0,26.0,26.0,1.0,,,,,,,,,,
0.0,1.0,0.976,,,,,,cotton_candy_01b.jpg,0.0,clockno_default.jpg,5.0,36,,,,,,,,,,,,,,,,,,0.0,27.0,27.0,27.0,1.0,,,,,,,,,,
0.0,1.0,0.887,,,,,,treasure_08s.jpg,0.0,clockno_default.jpg,5.0,36,,,,,,,,,,,,,,,,,,0.0,28.0,28.0,28.0,1.0,,,,,,,,,,
1.0,1.0,0.991,,,,,,cotton_candy_01b.jpg,1.0,clockno_default.jpg,5.0,36,,,,,,,,,,,,,,,,,,0.0,29.0,29.0,29.0,1.0,,,,,,,,,,
0.0,1.0,0.759,,,,,,popsicle_02s.jpg,0.0,clockno_default.jpg,5.0,36,,,,,,,,,,,,,,,,,,0.0,30.0,30.0,30.0,1.0,,,,,,,,,,
0.0,1.0,0.742,,,,,,polar_bear_02s.jpg,0.0,clockno_up.jpg,6.0,36,,,,,,,,,,,,,,,,,,0.0,31.0,31.0,31.0,1.0,,,,,,,,,,
0.0,1.0,0.686,,,,,,leash_10s.jpg,0.0,clockno_default.jpg,6.0,36,,,,,,,,,,,,,,,,,,0.0,32.0,32.0,32.0,1.0,,,,,,,,,,
0.0,1.0,0.959,,,,,,rocking_horse_03s.jpg,0.0,clockno_default.jpg,6.0,36,,,,,,,,,,,,,,,,,,0.0,33.0,33.0,33.0,1.0,,,,,,,,,,
1.0,1.0,0.886,,,,,,leash_10s.jpg,1.0,clockno_default.jpg,6.0,36,,,,,,,,,,,,,,,,,,0.0,34.0,34.0,34.0,1.0,,,,,,,,,,
1.0,1.0,0.733,,,,,,leash_10s.jpg,1.0,clockno_default.jpg,6.0,36,,,,,,,,,,,,,,,,,,0.0,35.0,35.0,35.0,1.0,,,,,,,,,,
,,,,,,,,,1.0,,,36,1.0,1.0,1.687,,,,,,popsicle_02s.jpg,rocking_horse_03s.jpg,,,,,,,,,,,,,0.0,0.0,0.0,0.0,1.0,,,,,
,,,,,,,,,1.0,,,36,1.0,1.0,1.851,,,,,,pumpkin_03s.jpg,measuring_cup_02s.jpg,,,,,,,,,,,,,0.0,1.0,1.0,1.0,1.0,,,,,
,,,,,,,,,1.0,,,36,1.0,1.0,2.052,,,,,,thread_08s.jpg,oil_02s.jpg,,,,,,,,,,,,,0.0,2.0,2.0,2.0,1.0,,,,,
,,,,,,,,,1.0,,,36,1.0,1.0,2.404,,,,,,lasagna_06s.jpg,tattoo_14s.jpg,,,,,,,,,,,,,0.0,3.0,3.0,3.0,1.0,,,,,
,,,,,,,,,1.0,,,36,1.0,1.0,1.808,,,,,,kitten_07s.jpg,razor_12s.jpg,,,,,,,,,,,,,0.0,4.0,4.0,4.0,1.0,,,,,
,,,,,,,,,1.0,,,36,0.0,0.0,2.668,,,,,,lollipop_08s.jpg,ukulele_02s.jpg,,,,,,,,,,,,,0.0,5.0,5.0,5.0,1.0,,,,,
,,,,,,,,,,,,36,,,,,,,,,,,,,,,,clockno_present_1_15.xlsx,clockno_compare_task_1_15.xlsx,,,,,,,,,,,0.0,0.0,0.0,0.0,1.0
0.0,1.0,0.697,,,,,,teapot_03s.jpg,0.0,clockno_up.jpg,1.0,36,,,,,,,,,,,,,,,,,,0.0,0.0,0.0,0.0,1.0,,,,,,,,,,
0.0,1.0,0.735,,,,,,ticktacktoe_08s.jpg,0.0,clockno_default.jpg,1.0,36,,,,,,,,,,,,,,,,,,0.0,1.0,1.0,1.0,1.0,,,,,,,,,,
0.0,1.0,0.803,,,,,,espresso_01b.jpg,0.0,clockno_default.jpg,1.0,36,,,,,,,,,,,,,,,,,,0.0,2.0,2.0,2.0,1.0,,,,,,,,,,
0.0,1.0,0.642,,,,,,smoothie_09s.jpg,0.0,clockno_default.jpg,1.0,36,,,,,,,,,,,,,,,,,,0.0,3.0,3.0,3.0,1.0,,,,,,,,,,
1.0,1.0,0.985,,,,,,espresso_01b.jpg,1.0,clockno_default.jpg,1.0,36,,,,,,,,,,,,,,,,,,0.0,4.0,4.0,4.0,1.0,,,,,,,,,,
0.0,1.0,1.118,,,,,,latte_06s.jpg,0.0,clockno_default.jpg,1.0,36,,,,,,,,,,,,,,,,,,0.0,5.0,5.0,5.0,1.0,,,,,,,,,,
1.0,1.0,1.117,,,,,,smoothie_09s.jpg,1.0,clockno_default.jpg,1.0,36,,,,,,,,,,,,,,,,,,0.0,6.0,6.0,6.0,1.0,,,,,,,,,,
0.0,1.0,0.578,,,,,,milk_02s.jpg,0.0,clockno_up.jpg,2.0,36,,,,,,,,,,,,,,,,,,0.0,7.0,7.0,7.0,1.0,,,,,,,,,,
0.0,1.0,1.101,,,,,,teapot_03s.jpg,0.0,clockno_default.jpg,2.0,36,,,,,,,,,,,,,,,,,,0.0,8.0,8.0,8.0,1.0,,,,,,,,,,
0.0,1.0,0.818,,,,,,koala_13s.jpg,0.0,clockno_default.jpg,2.0,36,,,,,,,,,,,,,,,,,,0.0,9.0,9.0,9.0,1.0,,,,,,,,,,
0.0,1.0,0.771,,,,,,machete_06s.jpg,0.0,clockno_default.jpg,2.0,36,,,,,,,,,,,,,,,,,,0.0,10.0,10.0,10.0,1.0,,,,,,,,,,
1.0,1.0,1.074,,,,,,teapot_03s.jpg,1.0,clockno_default.jpg,2.0,36,,,,,,,,,,,,,,,,,,0.0,11.0,11.0,11.0,1.0,,,,,,,,,,
0.0,1.0,0.705,,,,,,mascara_03s.jpg,0.0,clockno_default.jpg,2.0,36,,,,,,,,,,,,,,,,,,0.0,12.0,12.0,12.0,1.0,,,,,,,,,,
0.0,1.0,0.7,,,,,,hydrant_10s.jpg,0.0,clockno_up.jpg,3.0,36,,,,,,,,,,,,,,,,,,0.0,13.0,13.0,13.0,1.0,,,,,,,,,,
0.0,1.0,0.506,,,,,,feather02.jpg,0.0,clockno_default.jpg,3.0,36,,,,,,,,,,,,,,,,,,0.0,14.0,14.0,14.0,1.0,,,,,,,,,,
0.0,1.0,0.651,,,,,,fox_13s.jpg,0.0,clockno_default.jpg,3.0,36,,,,,,,,,,,,,,,,,,0.0,15.0,15.0,15.0,1.0,,,,,,,,,,
0.0,1.0,0.668,,,,,,thermostat_02s.jpg,0.0,clockno_default.jpg,3.0,36,,,,,,,,,,,,,,,,,,0.0,16.0,16.0,16.0,1.0,,,,,,,,,,
0.0,1.0,0.868,,,,,,possum_09s.jpg,0.0,clockno_default.jpg,3.0,36,,,,,,,,,,,,,,,,,,0.0,17.0,17.0,17.0,1.0,,,,,,,,,,
0.0,1.0,0.889,,,,,,memory_stick_11s.jpg,0.0,clockno_up.jpg,4.0,36,,,,,,,,,,,,,,,,,,0.0,18.0,18.0,18.0,1.0,,,,,,,,,,
1.0,1.0,0.951,,,,,,memory_stick_11s.jpg,1.0,clockno_default.jpg,4.0,36,,,,,,,,,,,,,,,,,,0.0,19.0,19.0,19.0,1.0,,,,,,,,,,
0.0,1.0,1.161,,,,,,mascara_03s.jpg,0.0,clockno_default.jpg,4.0,36,,,,,,,,,,,,,,,,,,0.0,20.0,20.0,20.0,1.0,,,,,,,,,,
0.0,1.0,0.634,,,,,,ice-cream_cone_06s.jpg,0.0,clockno_default.jpg,4.0,36,,,,,,,,,,,,,,,,,,0.0,21.0,21.0,21.0,1.0,,,,,,,,,,
0.0,1.0,0.778,,,,,,cucumber_07s.jpg,0.0,clockno_default.jpg,4.0,36,,,,,,,,,,,,,,,,,,0.0,22.0,22.0,22.0,1.0,,,,,,,,,,
0.0,1.0,0.672,,,,,,punch1_10s.jpg,0.0,clockno_default.jpg,4.0,36,,,,,,,,,,,,,,,,,,0.0,23.0,23.0,23.0,1.0,,,,,,,,,,
0.0,1.0,0.825,,,,,,fondue_07s.jpg,0.0,clockno_up.jpg,5.0,36,,,,,,,,,,,,,,,,,,0.0,24.0,24.0,24.0,1.0,,,,,,,,,,
0.0,1.0,0.652,,,,,,kangaroo_02s.jpg,0.0,clockno_default.jpg,5.0,36,,,,,,,,,,,,,,,,,,0.0,25.0,25.0,25.0,1.0,,,,,,,,,,
0.0,1.0,0.728,,,,,,teacup_07s.jpg,0.0,clockno_default.jpg,5.0,36,,,,,,,,,,,,,,,,,,0.0,26.0,26.0,26.0,1.0,,,,,,,,,,
0.0,1.0,0.728,,,,,,lid_10s.jpg,0.0,clockno_default.jpg,5.0,36,,,,,,,,,,,,,,,,,,0.0,27.0,27.0,27.0,1.0,,,,,,,,,,
0.0,1.0,0.703,,,,,,pear_02s.jpg,0.0,clockno_default.jpg,5.0,36,,,,,,,,,,,,,,,,,,0.0,28.0,28.0,28.0,1.0,,,,,,,,,,
0.0,1.0,0.516,,,,,,pacifier_09s.jpg,0.0,clockno_up.jpg,6.0,36,,,,,,,,,,,,,,,,,,0.0,29.0,29.0,29.0,1.0,,,,,,,,,,
0.0,1.0,0.784,,,,,,raspberry_12s.jpg,0.0,clockno_default.jpg,6.0,36,,,,,,,,,,,,,,,,,,0.0,30.0,30.0,30.0,1.0,,,,,,,,,,
1.0,1.0,1.057,,,,,,pacifier_09s.jpg,1.0,clockno_default.jpg,6.0,36,,,,,,,,,,,,,,,,,,0.0,31.0,31.0,31.0,1.0,,,,,,,,,,
1.0,1.0,0.576,,,,,,raspberry_12s.jpg,1.0,clockno_default.jpg,6.0,36,,,,,,,,,,,,,,,,,,0.0,32.0,32.0,32.0,1.0,,,,,,,,,,
1.0,1.0,0.624,,,,,,raspberry_12s.jpg,1.0,clockno_default.jpg,6.0,36,,,,,,,,,,,,,,,,,,0.0,33.0,33.0,33.0,1.0,,,,,,,,,,
1.0,1.0,1.144,,,,,,pacifier_09s.jpg,1.0,clockno_default.jpg,6.0,36,,,,,,,,,,,,,,,,,,0.0,34.0,34.0,34.0,1.0,,,,,,,,,,
0.0,1.0,1.223,,,,,,cereal_04s.jpg,0.0,clockno_default.jpg,6.0,36,,,,,,,,,,,,,,,,,,0.0,35.0,35.0,35.0,1.0,,,,,,,,,,
,,,,,,,,,0.0,,,36,1.0,0.0,2.681,,,,,,teacup_07s.jpg,punch1_10s.jpg,,,,,,,,,,,,,0.0,0.0,0.0,0.0,1.0,,,,,
,,,,,,,,,1.0,,,36,0.0,0.0,2.477,,,,,,ice-cream_cone_06s.jpg,fondue_07s.jpg,,,,,,,,,,,,,0.0,1.0,1.0,1.0,1.0,,,,,
,,,,,,,,,1.0,,,36,0.0,0.0,2.0,,,,,,cucumber_07s.jpg,kangaroo_02s.jpg,,,,,,,,,,,,,0.0,2.0,2.0,2.0,1.0,,,,,
,,,,,,,,,0.0,,,36,0.0,1.0,2.153,,,,,,possum_09s.jpg,feather02.jpg,,,,,,,,,,,,,0.0,3.0,3.0,3.0,1.0,,,,,
,,,,,,,,,1.0,,,36,1.0,1.0,2.654,,,,,,milk_02s.jpg,machete_06s.jpg,,,,,,,,,,,,,0.0,4.0,4.0,4.0,1.0,,,,,
,,,,,,,,,1.0,,,36,0.0,0.0,1.904,,,,,,hydrant_10s.jpg,thermostat_02s.jpg,,,,,,,,,,,,,0.0,5.0,5.0,5.0,1.0,,,,,
,,,,,,,,,,,,36,,,,,,,,,,,,,,,,clockno_present_2_15.xlsx,clockno_compare_task_2_15.xlsx,,,,,,,,,,,0.0,1.0,1.0,1.0,1.0
0.0,1.0,0.986,,,,,,soda_fountain_03s.jpg,0.0,clockno_up.jpg,1.0,36,,,,,,,,,,,,,,,,,,0.0,0.0,0.0,0.0,1.0,,,,,,,,,,
0.0,1.0,0.644,,,,,,playpen_11s.jpg,0.0,clockno_default.jpg,1.0,36,,,,,,,,,,,,,,,,,,0.0,1.0,1.0,1.0,1.0,,,,,,,,,,
0.0,1.0,0.628,,,,,,spatula04.jpg,0.0,clockno_default.jpg,1.0,36,,,,,,,,,,,,,,,,,,0.0,2.0,2.0,2.0,1.0,,,,,,,,,,
0.0,1.0,0.659,,,,,,mitten_10s.jpg,0.0,clockno_default.jpg,1.0,36,,,,,,,,,,,,,,,,,,0.0,3.0,3.0,3.0,1.0,,,,,,,,,,
1.0,1.0,1.0,,,,,,playpen_11s.jpg,1.0,clockno_default.jpg,1.0,36,,,,,,,,,,,,,,,,,,0.0,4.0,4.0,4.0,1.0,,,,,,,,,,
0.0,1.0,0.803,,,,,,icemaker_10s.jpg,0.0,clockno_up.jpg,2.0,36,,,,,,,,,,,,,,,,,,0.0,5.0,5.0,5.0,1.0,,,,,,,,,,
0.0,1.0,0.62,,,,,,teabag_12s.jpg,0.0,clockno_default.jpg,2.0,36,,,,,,,,,,,,,,,,,,0.0,6.0,6.0,6.0,1.0,,,,,,,,,,
0.0,1.0,0.601,,,,,,trumpet_06s.jpg,0.0,clockno_default.jpg,2.0,36,,,,,,,,,,,,,,,,,,0.0,7.0,7.0,7.0,1.0,,,,,,,,,,
0.0,1.0,0.566,,,,,,tweezers_03s.jpg,0.0,clockno_default.jpg,2.0,36,,,,,,,,,,,,,,,,,,0.0,8.0,8.0,8.0,1.0,,,,,,,,,,
1.0,0.0,1.922,,,,,,spatula04.jpg,0.0,clockno_default.jpg,2.0,36,,,,,,,,,,,,,,,,,,0.0,9.0,9.0,9.0,1.0,,,,,,,,,,
0.0,1.0,1.0,,,,,,clover_04s.jpg,0.0,clockno_default.jpg,2.0,36,,,,,,,,,,,,,,,,,,0.0,10.0,10.0,10.0,1.0,,,,,,,,,,
0.0,1.0,0.934,,,,,,ivy_12s.jpg,0.0,clockno_default.jpg,2.0,36,,,,,,,,,,,,,,,,,,0.0,11.0,11.0,11.0,1.0,,,,,,,,,,
0.0,1.0,0.967,,,,,,marshmallow_08s.jpg,0.0,clockno_up.jpg,3.0,36,,,,,,,,,,,,,,,,,,0.0,12.0,12.0,12.0,1.0,,,,,,,,,,
0.0,1.0,0.634,,,,,,eiffeltower.jpg,0.0,clockno_default.jpg,3.0,36,,,,,,,,,,,,,,,,,,0.0,13.0,13.0,13.0,1.0,,,,,,,,,,
0.0,1.0,0.633,,,,,,exhaust_pipe_10s.jpg,0.0,clockno_default.jpg,3.0,36,,,,,,,,,,,,,,,,,,0.0,14.0,14.0,14.0,1.0,,,,,,,,,,
0.0,1.0,0.595,,,,,,rock_08s.jpg,0.0,clockno_default.jpg,3.0,36,,,,,,,,,,,,,,,,,,0.0,15.0,15.0,15.0,1.0,,,,,,,,,,
0.0,1.0,0.474,,,,,,aluminum_foil_08s.jpg,0.0,clockno_default.jpg,3.0,36,,,,,,,,,,,,,,,,,,0.0,16.0,16.0,16.0,1.0,,,,,,,,,,
0.0,1.0,0.642,,,,,,diving_board_07s.jpg,0.0,clockno_up.jpg,4.0,36,,,,,,,,,,,,,,,,,,0.0,17.0,17.0,17.0,1.0,,,,,,,,,,
0.0,1.0,0.884,,,,,,checkbook_11s.jpg,0.0,clockno_default.jpg,4.0,36,,,,,,,,,,,,,,,,,,0.0,18.0,18.0,18.0,1.0,,,,,,,,,,
0.0,1.0,0.69,,,,,,quill_09s.jpg,0.0,clockno_default.jpg,4.0,36,,,,,,,,,,,,,,,,,,0.0,19.0,19.0,19.0,1.0,,,,,,,,,,
0.0,1.0,0.721,,,,,,radio_09s.jpg,0.0,clockno_default.jpg,4.0,36,,,,,,,,,,,,,,,,,,0.0,20.0,20.0,20.0,1.0,,,,,,,,,,
0.0,0.0,0.674,,,,,,radio_09s.jpg,1.0,clockno_default.jpg,4.0,36,,,,,,,,,,,,,,,,,,0.0,21.0,21.0,21.0,1.0,,,,,,,,,,
0.0,1.0,0.868,,,,,,onion_10s.jpg,0.0,clockno_default.jpg,4.0,36,,,,,,,,,,,,,,,,,,0.0,22.0,22.0,22.0,1.0,,,,,,,,,,
0.0,1.0,0.885,,,,,,money_07s.jpg,0.0,clockno_up.jpg,5.0,36,,,,,,,,,,,,,,,,,,0.0,23.0,23.0,23.0,1.0,,,,,,,,,,
0.0,1.0,0.704,,,,,,paintbrush_04s.jpg,0.0,clockno_default.jpg,5.0,36,,,,,,,,,,,,,,,,,,0.0,24.0,24.0,24.0,1.0,,,,,,,,,,
1.0,1.0,0.793,,,,,,money_07s.jpg,1.0,clockno_default.jpg,5.0,36,,,,,,,,,,,,,,,,,,0.0,25.0,25.0,25.0,1.0,,,,,,,,,,
0.0,1.0,0.609,,,,,,surfboard_11s.jpg,0.0,clockno_default.jpg,5.0,36,,,,,,,,,,,,,,,,,,0.0,26.0,26.0,26.0,1.0,,,,,,,,,,
1.0,1.0,0.868,,,,,,money_07s.jpg,1.0,clockno_default.jpg,5.0,36,,,,,,,,,,,,,,,,,,0.0,27.0,27.0,27.0,1.0,,,,,,,,,,
0.0,1.0,0.581,,,,,,coffee_filter_10s.jpg,0.0,clockno_default.jpg,5.0,36,,,,,,,,,,,,,,,,,,0.0,28.0,28.0,28.0,1.0,,,,,,,,,,
0.0,1.0,0.657,,,,,,radiator_05s.jpg,0.0,clockno_default.jpg,5.0,36,,,,,,,,,,,,,,,,,,0.0,29.0,29.0,29.0,1.0,,,,,,,,,,
0.0,1.0,0.688,,,,,,birdcage_08s.jpg,0.0,clockno_up.jpg,6.0,36,,,,,,,,,,,,,,,,,,0.0,30.0,30.0,30.0,1.0,,,,,,,,,,
0.0,1.0,0.936,,,,,,peach_04s.jpg,0.0,clockno_default.jpg,6.0,36,,,,,,,,,,,,,,,,,,0.0,31.0,31.0,31.0,1.0,,,,,,,,,,
0.0,1.0,0.683,,,,,,crab_16s.jpg,0.0,clockno_default.jpg,6.0,36,,,,,,,,,,,,,,,,,,0.0,32.0,32.0,32.0,1.0,,,,,,,,,,
0.0,1.0,0.851,,,,,,penguin_16s.jpg,0.0,clockno_default.jpg,6.0,36,,,,,,,,,,,,,,,,,,0.0,33.0,33.0,33.0,1.0,,,,,,,,,,
0.0,1.0,0.808,,,,,,stethoscope_01b.jpg,0.0,clockno_default.jpg,6.0,36,,,,,,,,,,,,,,,,,,0.0,34.0,34.0,34.0,1.0,,,,,,,,,,
0.0,1.0,0.585,,,,,,puppet_01b.jpg,0.0,clockno_default.jpg,6.0,36,,,,,,,,,,,,,,,,,,0.0,35.0,35.0,35.0,1.0,,,,,,,,,,
,,,,,,,,,1.0,,,36,1.0,1.0,1.64,,,,,,exhaust_pipe_10s.jpg,diving_board_07s.jpg,,,,,,,,,,,,,0.0,0.0,0.0,0.0,1.0,,,,,
,,,,,,,,,0.0,,,36,0.0,1.0,1.518,,,,,,teabag_12s.jpg,mitten_10s.jpg,,,,,,,,,,,,,0.0,1.0,1.0,1.0,1.0,,,,,
,,,,,,,,,0.0,,,36,1.0,0.0,2.554,,,,,,checkbook_11s.jpg,rock_08s.jpg,,,,,,,,,,,,,0.0,2.0,2.0,2.0,1.0,,,,,
,,,,,,,,,0.0,,,36,1.0,0.0,1.544,,,,,,tweezers_03s.jpg,icemaker_10s.jpg,,,,,,,,,,,,,0.0,3.0,3.0,3.0,1.0,,,,,
,,,,,,,,,1.0,,,36,0.0,0.0,1.585,,,,,,birdcage_08s.jpg,penguin_16s.jpg,,,,,,,,,,,,,0.0,4.0,4.0,4.0,1.0,,,,,
,,,,,,,,,0.0,,,36,1.0,0.0,1.517,,,,,,clover_04s.jpg,trumpet_06s.jpg,,,,,,,,,,,,,0.0,5.0,5.0,5.0,1.0,,,,,
,,,,,,,,,,,,36,,,,,,,,,,,,,,,,clockno_present_3_15.xlsx,clockno_compare_task_3_15.xlsx,,,,,,,,,,,0.0,2.0,2.0,2.0,1.0
0.0,1.0,0.767,,,,,,mosquito_12s.jpg,0.0,clockno_up.jpg,1.0,36,,,,,,,,,,,,,,,,,,0.0,0.0,0.0,0.0,1.0,,,,,,,,,,
0.0,1.0,0.601,,,,,,pocketknife_12s.jpg,0.0,clockno_default.jpg,1.0,36,,,,,,,,,,,,,,,,,,0.0,1.0,1.0,1.0,1.0,,,,,,,,,,
0.0,1.0,0.7,,,,,,timer_03s.jpg,0.0,clockno_default.jpg,1.0,36,,,,,,,,,,,,,,,,,,0.0,2.0,2.0,2.0,1.0,,,,,,,,,,
1.0,1.0,0.851,,,,,,mosquito_12s.jpg,1.0,clockno_default.jpg,1.0,36,,,,,,,,,,,,,,,,,,0.0,3.0,3.0,3.0,1.0,,,,,,,,,,
0.0,1.0,0.735,,,,,,rhinoceros_02s.jpg,0.0,clockno_default.jpg,1.0,36,,,,,,,,,,,,,,,,,,0.0,4.0,4.0,4.0,1.0,,,,,,,,,,
0.0,1.0,0.784,,,,,,spacesuit_02s.jpg,0.0,clockno_default.jpg,1.0,36,,,,,,,,,,,,,,,,,,0.0,5.0,5.0,5.0,1.0,,,,,,,,,,
0.0,1.0,0.817,,,,,,lamb_chop_07s.jpg,0.0,clockno_default.jpg,1.0,36,,,,,,,,,,,,,,,,,,0.0,6.0,6.0,6.0,1.0,,,,,,,,,,
0.0,1.0,0.651,,,,,,piano_13n.jpg,0.0,clockno_up.jpg,2.0,36,,,,,,,,,,,,,,,,,,0.0,7.0,7.0,7.0,1.0,,,,,,,,,,
1.0,1.0,0.727,,,,,,piano_13n.jpg,1.0,clockno_default.jpg,2.0,36,,,,,,,,,,,,,,,,,,0.0,8.0,8.0,8.0,1.0,,,,,,,,,,
0.0,1.0,0.623,,,,,,lemonade_04s.jpg,0.0,clockno_default.jpg,2.0,36,,,,,,,,,,,,,,,,,,0.0,9.0,9.0,9.0,1.0,,,,,,,,,,
0.0,1.0,0.867,,,,,,lip_gloss_06s.jpg,0.0,clockno_default.jpg,2.0,36,,,,,,,,,,,,,,,,,,0.0,10.0,10.0,10.0,1.0,,,,,,,,,,
1.0,1.0,0.834,,,,,,lemonade_04s.jpg,1.0,clockno_default.jpg,2.0,36,,,,,,,,,,,,,,,,,,0.0,11.0,11.0,11.0,1.0,,,,,,,,,,
0.0,1.0,0.8,,,,,,popcorn_09s.jpg,0.0,clockno_up.jpg,3.0,36,,,,,,,,,,,,,,,,,,0.0,12.0,12.0,12.0,1.0,,,,,,,,,,
0.0,1.0,0.806,,,,,,tuxedo_01b.jpg,0.0,clockno_default.jpg,3.0,36,,,,,,,,,,,,,,,,,,0.0,13.0,13.0,13.0,1.0,,,,,,,,,,
0.0,1.0,0.818,,,,,,key_07s.jpg,0.0,clockno_default.jpg,3.0,36,,,,,,,,,,,,,,,,,,0.0,14.0,14.0,14.0,1.0,,,,,,,,,,
0.0,1.0,0.634,,,,,,blowfish_03s.jpg,0.0,clockno_default.jpg,3.0,36,,,,,,,,,,,,,,,,,,0.0,15.0,15.0,15.0,1.0,,,,,,,,,,
1.0,1.0,1.589,,,,,,popcorn_09s.jpg,1.0,clockno_default.jpg,3.0,36,,,,,,,,,,,,,,,,,,0.0,16.0,16.0,16.0,1.0,,,,,,,,,,
0.0,1.0,0.666,,,,,,mirror_12s.jpg,0.0,clockno_default.jpg,3.0,36,,,,,,,,,,,,,,,,,,0.0,17.0,17.0,17.0,1.0,,,,,,,,,,
0.0,1.0,0.984,,,,,,trident_07s.jpg,0.0,clockno_up.jpg,4.0,36,,,,,,,,,,,,,,,,,,0.0,18.0,18.0,18.0,1.0,,,,,,,,,,
0.0,1.0,1.093,,,,,,knitting_needle_04s.jpg,0.0,clockno_default.jpg,4.0,36,,,,,,,,,,,,,,,,,,0.0,19.0,19.0,19.0,1.0,,,,,,,,,,
0.0,1.0,0.725,,,,,,orangutan_03s.jpg,0.0,clockno_default.jpg,4.0,36,,,,,,,,,,,,,,,,,,0.0,20.0,20.0,20.0,1.0,,,,,,,,,,
0.0,1.0,0.984,,,,,,spoon02a.jpg,0.0,clockno_default.jpg,4.0,36,,,,,,,,,,,,,,,,,,0.0,21.0,21.0,21.0,1.0,,,,,,,,,,
0.0,1.0,0.8,,,,,,mushroom_10n.jpg,0.0,clockno_default.jpg,4.0,36,,,,,,,,,,,,,,,,,,0.0,22.0,22.0,22.0,1.0,,,,,,,,,,
0.0,1.0,0.883,,,,,,owl_15s.jpg,0.0,clockno_up.jpg,5.0,36,,,,,,,,,,,,,,,,,,0.0,23.0,23.0,23.0,1.0,,,,,,,,,,
0.0,1.0,0.74,,,,,,racehorse_03s.jpg,0.0,clockno_default.jpg,5.0,36,,,,,,,,,,,,,,,,,,0.0,24.0,24.0,24.0,1.0,,,,,,,,,,
0.0,1.0,0.756,,,,,,dirt_bike_11s.jpg,0.0,clockno_default.jpg,5.0,36,,,,,,,,,,,,,,,,,,0.0,25.0,25.0,25.0,1.0,,,,,,,,,,
0.0,1.0,0.741,,,,,,plaster_cast_13s.jpg,0.0,clockno_default.jpg,5.0,36,,,,,,,,,,,,,,,,,,0.0,26.0,26.0,26.0,1.0,,,,,,,,,,
1.0,1.0,0.917,,,,,,racehorse_03s.jpg,1.0,clockno_default.jpg,5.0,36,,,,,,,,,,,,,,,,,,0.0,27.0,27.0,27.0,1.0,,,,,,,,,,
0.0,1.0,0.95,,,,,,spacesuit_02s.jpg,0.0,clockno_default.jpg,5.0,36,,,,,,,,,,,,,,,,,,0.0,28.0,28.0,28.0,1.0,,,,,,,,,,
0.0,1.0,0.829,,,,,,slingshot_07s.jpg,0.0,clockno_up.jpg,6.0,36,,,,,,,,,,,,,,,,,,0.0,29.0,29.0,29.0,1.0,,,,,,,,,,
0.0,1.0,0.751,,,,,,potholder_02s.jpg,0.0,clockno_default.jpg,6.0,36,,,,,,,,,,,,,,,,,,0.0,30.0,30.0,30.0,1.0,,,,,,,,,,
0.0,1.0,0.668,,,,,,squirrel_02s.jpg,0.0,clockno_default.jpg,6.0,36,,,,,,,,,,,,,,,,,,0.0,31.0,31.0,31.0,1.0,,,,,,,,,,
0.0,1.0,0.588,,,,,,outlet_10s.jpg,0.0,clockno_default.jpg,6.0,36,,,,,,,,,,,,,,,,,,0.0,32.0,32.0,32.0,1.0,,,,,,,,,,
0.0,1.0,0.644,,,,,,potpourri_03s.jpg,0.0,clockno_default.jpg,6.0,36,,,,,,,,,,,,,,,,,,0.0,33.0,33.0,33.0,1.0,,,,,,,,,,
0.0,1.0,0.734,,,,,,margarita_03s.jpg,0.0,clockno_default.jpg,6.0,36,,,,,,,,,,,,,,,,,,0.0,34.0,34.0,34.0,1.0,,,,,,,,,,
1.0,1.0,1.004,,,,,,outlet_10s.jpg,1.0,clockno_default.jpg,6.0,36,,,,,,,,,,,,,,,,,,0.0,35.0,35.0,35.0,1.0,,,,,,,,,,
,,,,,,,,,1.0,,,36,0.0,0.0,1.879,,,,,,lip_gloss_06s.jpg,tuxedo_01b.jpg,,,,,,,,,,,,,0.0,0.0,0.0,0.0,1.0,,,,,
,,,,,,,,,1.0,,,36,0.0,0.0,2.328,,,,,,blowfish_03s.jpg,trident_07s.jpg,,,,,,,,,,,,,0.0,1.0,1.0,1.0,1.0,,,,,
,,,,,,,,,0.0,,,36,0.0,1.0,1.768,,,,,,orangutan_03s.jpg,mirror_12s.jpg,,,,,,,,,,,,,0.0,2.0,2.0,2.0,1.0,,,,,
,,,,,,,,,1.0,,,36,1.0,1.0,2.803,,,,,,pocketknife_12s.jpg,rhinoceros_02s.jpg,,,,,,,,,,,,,0.0,3.0,3.0,3.0,1.0,,,,,
,,,,,,,,,1.0,,,36,1.0,1.0,3.654,,,,,,potholder_02s.jpg,potpourri_03s.jpg,,,,,,,,,,,,,0.0,4.0,4.0,4.0,1.0,,,,,
,,,,,,,,,1.0,,,36,0.0,0.0,2.585,,,,,,squirrel_02s.jpg,margarita_03s.jpg,,,,,,,,,,,,,0.0,5.0,5.0,5.0,1.0,,,,,
,,,,,,,,,,,,36,,,,,,,,,,,,,,,,clockno_present_4_15.xlsx,clockno_compare_task_4_15.xlsx,,,,,,,,,,,0.0,3.0,3.0,3.0,1.0
0.0,1.0,0.741,,,,,,piggy_bank_02s.jpg,0.0,clockno_up.jpg,1.0,36,,,,,,,,,,,,,,,,,,0.0,0.0,0.0,0.0,1.0,,,,,,,,,,
0.0,1.0,0.46,,,,,,quesadilla_07s.jpg,0.0,clockno_default.jpg,1.0,36,,,,,,,,,,,,,,,,,,0.0,1.0,1.0,1.0,1.0,,,,,,,,,,
1.0,1.0,0.758,,,,,,quesadilla_07s.jpg,1.0,clockno_default.jpg,1.0,36,,,,,,,,,,,,,,,,,,0.0,2.0,2.0,2.0,1.0,,,,,,,,,,
0.0,1.0,1.406,,,,,,turtle_08s.jpg,0.0,clockno_default.jpg,1.0,36,,,,,,,,,,,,,,,,,,0.0,3.0,3.0,3.0,1.0,,,,,,,,,,
1.0,1.0,0.734,,,,,,quesadilla_07s.jpg,1.0,clockno_default.jpg,1.0,36,,,,,,,,,,,,,,,,,,0.0,4.0,4.0,4.0,1.0,,,,,,,,,,
0.0,1.0,0.821,,,,,,pie_08s.jpg,0.0,clockno_default.jpg,1.0,36,,,,,,,,,,,,,,,,,,0.0,5.0,5.0,5.0,1.0,,,,,,,,,,
1.0,1.0,0.702,,,,,,quesadilla_07s.jpg,1.0,clockno_default.jpg,1.0,36,,,,,,,,,,,,,,,,,,0.0,6.0,6.0,6.0,1.0,,,,,,,,,,
0.0,1.0,0.557,,,,,,coral_08s.jpg,0.0,clockno_up.jpg,2.0,36,,,,,,,,,,,,,,,,,,0.0,7.0,7.0,7.0,1.0,,,,,,,,,,
0.0,1.0,0.584,,,,,,bottle_opener_11s.jpg,0.0,clockno_default.jpg,2.0,36,,,,,,,,,,,,,,,,,,0.0,8.0,8.0,8.0,1.0,,,,,,,,,,
0.0,1.0,0.901,,,,,,solar_panel_02s.jpg,0.0,clockno_default.jpg,2.0,36,,,,,,,,,,,,,,,,,,0.0,9.0,9.0,9.0,1.0,,,,,,,,,,
0.0,1.0,0.6,,,,,,sunglasses_11s.jpg,0.0,clockno_default.jpg,2.0,36,,,,,,,,,,,,,,,,,,0.0,10.0,10.0,10.0,1.0,,,,,,,,,,
0.0,1.0,0.585,,,,,,lamppost_09s.jpg,0.0,clockno_default.jpg,2.0,36,,,,,,,,,,,,,,,,,,0.0,11.0,11.0,11.0,1.0,,,,,,,,,,
0.0,1.0,0.524,,,,,,pineapple_12s.jpg,0.0,clockno_up.jpg,3.0,36,,,,,,,,,,,,,,,,,,0.0,12.0,12.0,12.0,1.0,,,,,,,,,,
0.0,1.0,0.524,,,,,,pretzel_09s.jpg,0.0,clockno_default.jpg,3.0,36,,,,,,,,,,,,,,,,,,0.0,13.0,13.0,13.0,1.0,,,,,,,,,,
0.0,1.0,0.652,,,,,,fire_pit_10s.jpg,0.0,clockno_default.jpg,3.0,36,,,,,,,,,,,,,,,,,,0.0,14.0,14.0,14.0,1.0,,,,,,,,,,
0.0,1.0,0.635,,,,,,microwave_02s.jpg,0.0,clockno_default.jpg,3.0,36,,,,,,,,,,,,,,,,,,0.0,15.0,15.0,15.0,1.0,,,,,,,,,,
0.0,1.0,0.556,,,,,,dynamite_01b.jpg,0.0,clockno_default.jpg,3.0,36,,,,,,,,,,,,,,,,,,0.0,16.0,16.0,16.0,1.0,,,,,,,,,,
0.0,1.0,0.556,,,,,,megaphone_03s.jpg,0.0,clockno_default.jpg,3.0,36,,,,,,,,,,,,,,,,,,0.0,17.0,17.0,17.0,1.0,,,,,,,,,,
0.0,1.0,0.783,,,,,,tortilla_06s.jpg,0.0,clockno_up.jpg,4.0,36,,,,,,,,,,,,,,,,,,0.0,18.0,18.0,18.0,1.0,,,,,,,,,,
1.0,1.0,0.74,,,,,,tortilla_06s.jpg,1.0,clockno_default.jpg,4.0,36,,,,,,,,,,,,,,,,,,0.0,19.0,19.0,19.0,1.0,,,,,,,,,,
0.0,1.0,0.611,,,,,,mud_13s.jpg,0.0,clockno_default.jpg,4.0,36,,,,,,,,,,,,,,,,,,0.0,20.0,20.0,20.0,1.0,,,,,,,,,,
0.0,1.0,0.534,,,,,,toilet_paper_12s.jpg,0.0,clockno_default.jpg,4.0,36,,,,,,,,,,,,,,,,,,0.0,21.0,21.0,21.0,1.0,,,,,,,,,,
0.0,1.0,0.587,,,,,,go-kart_10s.jpg,0.0,clockno_default.jpg,4.0,36,,,,,,,,,,,,,,,,,,0.0,22.0,22.0,22.0,1.0,,,,,,,,,,
0.0,1.0,0.755,,,,,,magnet_03s.jpg,0.0,clockno_up.jpg,5.0,36,,,,,,,,,,,,,,,,,,0.0,23.0,23.0,23.0,1.0,,,,,,,,,,
1.0,1.0,0.891,,,,,,magnet_03s.jpg,1.0,clockno_default.jpg,5.0,36,,,,,,,,,,,,,,,,,,0.0,24.0,24.0,24.0,1.0,,,,,,,,,,
1.0,1.0,0.603,,,,,,magnet_03s.jpg,1.0,clockno_default.jpg,5.0,36,,,,,,,,,,,,,,,,,,0.0,25.0,25.0,25.0,1.0,,,,,,,,,,
0.0,1.0,0.717,,,,,,phone_01b.jpg,0.0,clockno_default.jpg,5.0,36,,,,,,,,,,,,,,,,,,0.0,26.0,26.0,26.0,1.0,,,,,,,,,,
0.0,1.0,0.57,,,,,,duck_01b.jpg,0.0,clockno_default.jpg,5.0,36,,,,,,,,,,,,,,,,,,0.0,27.0,27.0,27.0,1.0,,,,,,,,,,
0.0,1.0,0.843,,,,,,lamppost_09s.jpg,0.0,clockno_default.jpg,5.0,36,,,,,,,,,,,,,,,,,,0.0,28.0,28.0,28.0,1.0,,,,,,,,,,
0.0,1.0,1.089,,,,,,mussel_11s.jpg,0.0,clockno_up.jpg,6.0,36,,,,,,,,,,,,,,,,,,0.0,29.0,29.0,29.0,1.0,,,,,,,,,,
0.0,1.0,0.667,,,,,,sundae_08s.jpg,0.0,clockno_default.jpg,6.0,36,,,,,,,,,,,,,,,,,,0.0,30.0,30.0,30.0,1.0,,,,,,,,,,
0.0,1.0,0.523,,,,,,telephone_pole_05s.jpg,0.0,clockno_default.jpg,6.0,36,,,,,,,,,,,,,,,,,,0.0,31.0,31.0,31.0,1.0,,,,,,,,,,
0.0,1.0,0.586,,,,,,basket_05s.jpg,0.0,clockno_default.jpg,6.0,36,,,,,,,,,,,,,,,,,,0.0,32.0,32.0,32.0,1.0,,,,,,,,,,
0.0,1.0,0.539,,,,,,turtle_08s.jpg,0.0,clockno_default.jpg,6.0,36,,,,,,,,,,,,,,,,,,0.0,33.0,33.0,33.0,1.0,,,,,,,,,,
0.0,1.0,0.69,,,,,,otter_05s.jpg,0.0,clockno_default.jpg,6.0,36,,,,,,,,,,,,,,,,,,0.0,34.0,34.0,34.0,1.0,,,,,,,,,,
1.0,1.0,0.795,,,,,,otter_05s.jpg,1.0,clockno_default.jpg,6.0,36,,,,,,,,,,,,,,,,,,0.0,35.0,35.0,35.0,1.0,,,,,,,,,,
,,,,,,,,,1.0,,,36,1.0,1.0,1.967,,,,,,pie_08s.jpg,bottle_opener_11s.jpg,,,,,,,,,,,,,0.0,0.0,0.0,0.0,1.0,,,,,
,,,,,,,,,0.0,,,36,0.0,1.0,2.234,,,,,,sundae_08s.jpg,duck_01b.jpg,,,,,,,,,,,,,0.0,1.0,1.0,1.0,1.0,,,,,
,,,,,,,,,1.0,,,36,0.0,0.0,2.801,,,,,,solar_panel_02s.jpg,pineapple_12s.jpg,,,,,,,,,,,,,0.0,2.0,2.0,2.0,1.0,,,,,
,,,,,,,,,1.0,,,36,1.0,1.0,1.77,,,,,,coral_08s.jpg,sunglasses_11s.jpg,,,,,,,,,,,,,0.0,3.0,3.0,3.0,1.0,,,,,
,,,,,,,,,0.0,,,36,0.0,1.0,1.653,,,,,,dynamite_01b.jpg,pretzel_09s.jpg,,,,,,,,,,,,,0.0,4.0,4.0,4.0,1.0,,,,,
,,,,,,,,,1.0,,,36,1.0,1.0,2.32,,,,,,fire_pit_10s.jpg,megaphone_03s.jpg,,,,,,,,,,,,,0.0,5.0,5.0,5.0,1.0,,,,,
,,,,,,,,,,,,36,,,,,,,,,,,,,,,,clockno_present_5_15.xlsx,clockno_compare_task_5_15.xlsx,,,,,,,,,,,0.0,4.0,4.0,4.0,1.0
0.0,1.0,0.629,,,,,,mattress_01s.jpg,0.0,clockno_up.jpg,1.0,36,,,,,,,,,,,,,,,,,,0.0,0.0,0.0,0.0,1.0,,,,,,,,,,
0.0,1.0,0.676,,,,,,ravioli_08s.jpg,0.0,clockno_default.jpg,1.0,36,,,,,,,,,,,,,,,,,,0.0,1.0,1.0,1.0,1.0,,,,,,,,,,
0.0,1.0,0.5,,,,,,tambourine_06s.jpg,0.0,clockno_default.jpg,1.0,36,,,,,,,,,,,,,,,,,,0.0,2.0,2.0,2.0,1.0,,,,,,,,,,
0.0,1.0,0.438,,,,,,ram_05s.jpg,0.0,clockno_default.jpg,1.0,36,,,,,,,,,,,,,,,,,,0.0,3.0,3.0,3.0,1.0,,,,,,,,,,
1.0,1.0,0.751,,,,,,ram_05s.jpg,1.0,clockno_default.jpg,1.0,36,,,,,,,,,,,,,,,,,,0.0,4.0,4.0,4.0,1.0,,,,,,,,,,
1.0,1.0,1.534,,,,,,mattress_01s.jpg,1.0,clockno_default.jpg,1.0,36,,,,,,,,,,,,,,,,,,0.0,5.0,5.0,5.0,1.0,,,,,,,,,,
0.0,1.0,1.157,,,,,,panda_02s.jpg,0.0,clockno_default.jpg,1.0,36,,,,,,,,,,,,,,,,,,0.0,6.0,6.0,6.0,1.0,,,,,,,,,,
0.0,1.0,0.683,,,,,,mailbox_11s.jpg,0.0,clockno_up.jpg,2.0,36,,,,,,,,,,,,,,,,,,0.0,7.0,7.0,7.0,1.0,,,,,,,,,,
0.0,1.0,0.642,,,,,,air_pump_05s.jpg,0.0,clockno_default.jpg,2.0,36,,,,,,,,,,,,,,,,,,0.0,8.0,8.0,8.0,1.0,,,,,,,,,,
1.0,1.0,1.139,,,,,,air_pump_05s.jpg,1.0,clockno_default.jpg,2.0,36,,,,,,,,,,,,,,,,,,0.0,9.0,9.0,9.0,1.0,,,,,,,,,,
0.0,1.0,0.675,,,,,,thorn_13s.jpg,0.0,clockno_default.jpg,2.0,36,,,,,,,,,,,,,,,,,,0.0,10.0,10.0,10.0,1.0,,,,,,,,,,
0.0,1.0,0.651,,,,,,kite_04s.jpg,0.0,clockno_default.jpg,2.0,36,,,,,,,,,,,,,,,,,,0.0,11.0,11.0,11.0,1.0,,,,,,,,,,
1.0,1.0,1.485,,,,,,mailbox_11s.jpg,1.0,clockno_default.jpg,2.0,36,,,,,,,,,,,,,,,,,,0.0,12.0,12.0,12.0,1.0,,,,,,,,,,
0.0,1.0,0.571,,,,,,lamp_08s.jpg,0.0,clockno_up.jpg,3.0,36,,,,,,,,,,,,,,,,,,0.0,13.0,13.0,13.0,1.0,,,,,,,,,,
0.0,1.0,0.819,,,,,,smokingpipe.jpg,0.0,clockno_default.jpg,3.0,36,,,,,,,,,,,,,,,,,,0.0,14.0,14.0,14.0,1.0,,,,,,,,,,
0.0,1.0,1.09,,,,,,swing_set_15s.jpg,0.0,clockno_default.jpg,3.0,36,,,,,,,,,,,,,,,,,,0.0,15.0,15.0,15.0,1.0,,,,,,,,,,
0.0,1.0,1.667,,,,,,torch_02s.jpg,0.0,clockno_default.jpg,3.0,36,,,,,,,,,,,,,,,,,,0.0,16.0,16.0,16.0,1.0,,,,,,,,,,
0.0,1.0,0.922,,,,,,police_car_01s.jpg,0.0,clockno_default.jpg,3.0,36,,,,,,,,,,,,,,,,,,0.0,17.0,17.0,17.0,1.0,,,,,,,,,,
1.0,1.0,0.754,,,,,,police_car_01s.jpg,1.0,clockno_default.jpg,3.0,36,,,,,,,,,,,,,,,,,,0.0,18.0,18.0,18.0,1.0,,,,,,,,,,
0.0,1.0,1.034,,,,,,pocket_watch_16s.jpg,0.0,clockno_default.jpg,3.0,36,,,,,,,,,,,,,,,,,,0.0,19.0,19.0,19.0,1.0,,,,,,,,,,
0.0,1.0,0.851,,,,,,totem_pole_05s.jpg,0.0,clockno_up.jpg,4.0,36,,,,,,,,,,,,,,,,,,0.0,20.0,20.0,20.0,1.0,,,,,,,,,,
0.0,1.0,0.749,,,,,,toad_09s.jpg,0.0,clockno_default.jpg,4.0,36,,,,,,,,,,,,,,,,,,0.0,21.0,21.0,21.0,1.0,,,,,,,,,,
0.0,1.0,0.703,,,,,,typewriter_11s.jpg,0.0,clockno_default.jpg,4.0,36,,,,,,,,,,,,,,,,,,0.0,22.0,22.0,22.0,1.0,,,,,,,,,,
0.0,1.0,1.201,,,,,,camcorder_10s.jpg,0.0,clockno_default.jpg,4.0,36,,,,,,,,,,,,,,,,,,0.0,23.0,23.0,23.0,1.0,,,,,,,,,,
0.0,1.0,1.069,,,,,,torch_02s.jpg,0.0,clockno_default.jpg,4.0,36,,,,,,,,,,,,,,,,,,0.0,24.0,24.0,24.0,1.0,,,,,,,,,,
0.0,1.0,0.754,,,,,,kettle_08s.jpg,0.0,clockno_default.jpg,4.0,36,,,,,,,,,,,,,,,,,,0.0,25.0,25.0,25.0,1.0,,,,,,,,,,
0.0,1.0,0.993,,,,,,comic_book_02s.jpg,0.0,clockno_up.jpg,5.0,36,,,,,,,,,,,,,,,,,,0.0,26.0,26.0,26.0,1.0,,,,,,,,,,
0.0,1.0,0.651,,,,,,binder_21s.jpg,0.0,clockno_default.jpg,5.0,36,,,,,,,,,,,,,,,,,,0.0,27.0,27.0,27.0,1.0,,,,,,,,,,
0.0,1.0,0.737,,,,,,inhaler_01b.jpg,0.0,clockno_default.jpg,5.0,36,,,,,,,,,,,,,,,,,,0.0,28.0,28.0,28.0,1.0,,,,,,,,,,
0.0,1.0,0.769,,,,,,abacus_12s.jpg,0.0,clockno_default.jpg,5.0,36,,,,,,,,,,,,,,,,,,0.0,29.0,29.0,29.0,1.0,,,,,,,,,,
0.0,1.0,0.593,,,,,,hummingbird_05s.jpg,0.0,clockno_default.jpg,5.0,36,,,,,,,,,,,,,,,,,,0.0,30.0,30.0,30.0,1.0,,,,,,,,,,
0.0,1.0,0.569,,,,,,polaroid_05s.jpg,0.0,clockno_up.jpg,6.0,36,,,,,,,,,,,,,,,,,,0.0,31.0,31.0,31.0,1.0,,,,,,,,,,
0.0,1.0,0.544,,,,,,rosary_03s.jpg,0.0,clockno_default.jpg,6.0,36,,,,,,,,,,,,,,,,,,0.0,32.0,32.0,32.0,1.0,,,,,,,,,,
0.0,1.0,0.634,,,,,,raft_09s.jpg,0.0,clockno_default.jpg,6.0,36,,,,,,,,,,,,,,,,,,0.0,33.0,33.0,33.0,1.0,,,,,,,,,,
1.0,1.0,0.872,,,,,,polaroid_05s.jpg,1.0,clockno_default.jpg,6.0,36,,,,,,,,,,,,,,,,,,0.0,34.0,34.0,34.0,1.0,,,,,,,,,,
1.0,1.0,0.817,,,,,,raft_09s.jpg,1.0,clockno_default.jpg,6.0,36,,,,,,,,,,,,,,,,,,0.0,35.0,35.0,35.0,1.0,,,,,,,,,,
,,,,,,,,,1.0,,,36,0.0,0.0,2.814,,,,,,thorn_13s.jpg,lamp_08s.jpg,,,,,,,,,,,,,0.0,0.0,0.0,0.0,1.0,,,,,
,,,,,,,,,0.0,,,36,1.0,0.0,1.816,,,,,,smokingpipe.jpg,kite_04s.jpg,,,,,,,,,,,,,0.0,1.0,1.0,1.0,1.0,,,,,
,,,,,,,,,1.0,,,36,0.0,0.0,2.071,,,,,,pocket_watch_16s.jpg,typewriter_11s.jpg,,,,,,,,,,,,,0.0,2.0,2.0,2.0,1.0,,,,,
,,,,,,,,,0.0,,,36,0.0,1.0,2.111,,,,,,hummingbird_05s.jpg,binder_21s.jpg,,,,,,,,,,,,,0.0,3.0,3.0,3.0,1.0,,,,,
,,,,,,,,,0.0,,,36,0.0,1.0,2.11,,,,,,camcorder_10s.jpg,totem_pole_05s.jpg,,,,,,,,,,,,,0.0,4.0,4.0,4.0,1.0,,,,,
,,,,,,,,,1.0,,,36,1.0,1.0,1.639,,,,,,comic_book_02s.jpg,abacus_12s.jpg,,,,,,,,,,,,,0.0,5.0,5.0,5.0,1.0,,,,,
