key_resp.keys,key_resp.corr,key_resp.rt,present_segment.thisRepN,present_segment.thisTrialN,present_segment.thisN,present_segment.thisIndex,present_segment.ran,pictures,answer,clock,segment,participant,key_resp_2.keys,key_resp_2.corr,key_resp_2.rt,compare_segment.thisRepN,compare_segment.thisTrialN,compare_segment.thisN,compare_segment.thisIndex,compare_segment.ran,item_a,item_b,clock_conditions.thisRepN,clock_conditions.thisTrialN,clock_conditions.thisN,clock_conditions.thisIndex,clock_conditions.ran,present,compare,noclock_present.thisRepN,noclock_present.thisTrialN,noclock_present.thisN,noclock_present.thisIndex,noclock_present.ran,noclock_compare.thisRepN,noclock_compare.thisTrialN,noclock_compare.thisN,noclock_compare.thisIndex,noclock_compare.ran,noclock_conditions.thisRepN,noclock_conditions.thisTrialN,noclock_conditions.thisN,noclock_conditions.thisIndex,noclock_conditions.ran
0.0,1.0,2.43675,0.0,0.0,0.0,0.0,1.0,throne_11s.jpg,0.0,clock_7_1.png,1.0,26,,,,,,,,,,,,,,,,,,,,,,,,,,,,,,,,
0.0,1.0,2.35052,0.0,1.0,1.0,1.0,1.0,swimming_pool_17s.jpg,0.0,clock_7_2.png,1.0,26,,,,,,,,,,,,,,,,,,,,,,,,,,,,,,,,
0.0,1.0,2.378285,0.0,2.0,2.0,2.0,1.0,blowfish_03s.jpg,0.0,clock_7_3.png,1.0,26,,,,,,,,,,,,,,,,,,,,,,,,,,,,,,,,
1.0,1.0,2.37212,0.0,3.0,3.0,3.0,1.0,throne_11s.jpg,1.0,clock_7_4.png,1.0,26,,,,,,,,,,,,,,,,,,,,,,,,,,,,,,,,
0.0,1.0,2.39272,0.0,4.0,4.0,4.0,1.0,basket_05s.jpg,0.0,clock_7_5.png,1.0,26,,,,,,,,,,,,,,,,,,,,,,,,,,,,,,,,
0.0,1.0,2.312155,0.0,5.0,5.0,5.0,1.0,rhubarb_03s.jpg,0.0,clock_7_6.png,1.0,26,,,,,,,,,,,,,,,,,,,,,,,,,,,,,,,,
1.0,1.0,2.3574,0.0,6.0,6.0,6.0,1.0,throne_11s.jpg,1.0,clock_7_7.png,1.0,26,,,,,,,,,,,,,,,,,,,,,,,,,,,,,,,,
0.0,1.0,2.42224,0.0,7.0,7.0,7.0,1.0,tupperware_09s.jpg,0.0,clock_5_1.png,2.0,26,,,,,,,,,,,,,,,,,,,,,,,,,,,,,,,,
0.0,1.0,2.347945,0.0,8.0,8.0,8.0,1.0,seagull_01b.jpg,0.0,clock_5_2.png,2.0,26,,,,,,,,,,,,,,,,,,,,,,,,,,,,,,,,
0.0,1.0,2.36624,0.0,9.0,9.0,9.0,1.0,kitten_07s.jpg,0.0,clock_5_3.png,2.0,26,,,,,,,,,,,,,,,,,,,,,,,,,,,,,,,,
0.0,1.0,2.44439,0.0,10.0,10.0,10.0,1.0,crate_05s.jpg,0.0,clock_5_4.png,2.0,26,,,,,,,,,,,,,,,,,,,,,,,,,,,,,,,,
0.0,1.0,2.469145,0.0,11.0,11.0,11.0,1.0,pocket_watch_16s.jpg,0.0,clock_5_5.png,2.0,26,,,,,,,,,,,,,,,,,,,,,,,,,,,,,,,,
0.0,1.0,2.391905,0.0,12.0,12.0,12.0,1.0,pocketknife_12s.jpg,0.0,clock_6_1.png,3.0,26,,,,,,,,,,,,,,,,,,,,,,,,,,,,,,,,
0.0,1.0,2.42675,0.0,13.0,13.0,13.0,1.0,jalapeno_15s.jpg,0.0,clock_6_2.png,3.0,26,,,,,,,,,,,,,,,,,,,,,,,,,,,,,,,,
1.0,0.0,2.27748,0.0,14.0,14.0,14.0,1.0,tupperware_09s.jpg,0.0,clock_6_3.png,3.0,26,,,,,,,,,,,,,,,,,,,,,,,,,,,,,,,,
0.0,1.0,2.46706,0.0,15.0,15.0,15.0,1.0,stapler_01b.jpg,0.0,clock_6_4.png,3.0,26,,,,,,,,,,,,,,,,,,,,,,,,,,,,,,,,
0.0,1.0,1.614585,0.0,16.0,16.0,16.0,1.0,cap_05s.jpg,0.0,clock_6_5.png,3.0,26,,,,,,,,,,,,,,,,,,,,,,,,,,,,,,,,
0.0,1.0,2.43626,0.0,17.0,17.0,17.0,1.0,lavender_10s.jpg,0.0,clock_6_6.png,3.0,26,,,,,,,,,,,,,,,,,,,,,,,,,,,,,,,,
0.0,1.0,2.34984,0.0,18.0,18.0,18.0,1.0,racehorse_03s.jpg,0.0,clock_6_1.png,4.0,26,,,,,,,,,,,,,,,,,,,,,,,,,,,,,,,,
0.0,1.0,2.368845,0.0,19.0,19.0,19.0,1.0,teacup_07s.jpg,0.0,clock_6_2.png,4.0,26,,,,,,,,,,,,,,,,,,,,,,,,,,,,,,,,
0.0,1.0,2.387715,0.0,20.0,20.0,20.0,1.0,lip_gloss_06s.jpg,0.0,clock_6_3.png,4.0,26,,,,,,,,,,,,,,,,,,,,,,,,,,,,,,,,
1.0,1.0,2.385055,0.0,21.0,21.0,21.0,1.0,racehorse_03s.jpg,1.0,clock_6_4.png,4.0,26,,,,,,,,,,,,,,,,,,,,,,,,,,,,,,,,
1.0,1.0,2.39622,0.0,22.0,22.0,22.0,1.0,lip_gloss_06s.jpg,1.0,clock_6_5.png,4.0,26,,,,,,,,,,,,,,,,,,,,,,,,,,,,,,,,
0.0,1.0,2.419905,0.0,23.0,23.0,23.0,1.0,seahorse_13s.jpg,0.0,clock_6_6.png,4.0,26,,,,,,,,,,,,,,,,,,,,,,,,,,,,,,,,
0.0,1.0,2.41201,0.0,24.0,24.0,24.0,1.0,tuxedo_01b.jpg,0.0,clock_5_1.png,5.0,26,,,,,,,,,,,,,,,,,,,,,,,,,,,,,,,,
0.0,1.0,2.443525,0.0,25.0,25.0,25.0,1.0,ice-cream_cone_06s.jpg,0.0,clock_5_2.png,5.0,26,,,,,,,,,,,,,,,,,,,,,,,,,,,,,,,,
0.0,1.0,2.43029,0.0,26.0,26.0,26.0,1.0,jukebox_03n.jpg,0.0,clock_5_3.png,5.0,26,,,,,,,,,,,,,,,,,,,,,,,,,,,,,,,,
1.0,1.0,2.452685,0.0,27.0,27.0,27.0,1.0,ice-cream_cone_06s.jpg,1.0,clock_5_4.png,5.0,26,,,,,,,,,,,,,,,,,,,,,,,,,,,,,,,,
1.0,0.0,2.42566,0.0,28.0,28.0,28.0,1.0,teacup_07s.jpg,0.0,clock_5_5.png,5.0,26,,,,,,,,,,,,,,,,,,,,,,,,,,,,,,,,
0.0,1.0,2.47484,0.0,29.0,29.0,29.0,1.0,rope_16s.jpg,0.0,clock_7_1.png,6.0,26,,,,,,,,,,,,,,,,,,,,,,,,,,,,,,,,
0.0,1.0,2.29927,0.0,30.0,30.0,30.0,1.0,fork_04s.jpg,0.0,clock_7_2.png,6.0,26,,,,,,,,,,,,,,,,,,,,,,,,,,,,,,,,
1.0,1.0,2.454525,0.0,31.0,31.0,31.0,1.0,rope_16s.jpg,1.0,clock_7_3.png,6.0,26,,,,,,,,,,,,,,,,,,,,,,,,,,,,,,,,
1.0,1.0,2.43888,0.0,32.0,32.0,32.0,1.0,fork_04s.jpg,1.0,clock_7_4.png,6.0,26,,,,,,,,,,,,,,,,,,,,,,,,,,,,,,,,
0.0,1.0,2.39202,0.0,33.0,33.0,33.0,1.0,stump_02s.jpg,0.0,clock_7_5.png,6.0,26,,,,,,,,,,,,,,,,,,,,,,,,,,,,,,,,
0.0,1.0,2.300125,0.0,34.0,34.0,34.0,1.0,air_pump_05s.jpg,0.0,clock_7_6.png,6.0,26,,,,,,,,,,,,,,,,,,,,,,,,,,,,,,,,
1.0,1.0,2.31025,0.0,35.0,35.0,35.0,1.0,air_pump_05s.jpg,1.0,clock_7_7.png,6.0,26,,,,,,,,,,,,,,,,,,,,,,,,,,,,,,,,
,,,,,,,,,0.0,,,26,1.0,0.0,1.43369,0.0,0.0,0.0,0.0,1.0,jukebox_03n.jpg,seahorse_13s.jpg,,,,,,,,,,,,,,,,,,,,,,
,,,,,,,,,1.0,,,26,1.0,1.0,1.84388,0.0,1.0,1.0,1.0,1.0,kitten_07s.jpg,pocketknife_12s.jpg,,,,,,,,,,,,,,,,,,,,,,
,,,,,,,,,0.0,,,26,1.0,0.0,1.498215,0.0,2.0,2.0,2.0,1.0,jalapeno_15s.jpg,crate_05s.jpg,,,,,,,,,,,,,,,,,,,,,,
,,,,,,,,,0.0,,,26,0.0,1.0,1.75625,0.0,3.0,3.0,3.0,1.0,basket_05s.jpg,swimming_pool_17s.jpg,,,,,,,,,,,,,,,,,,,,,,
,,,,,,,,,0.0,,,26,0.0,1.0,1.63894,0.0,4.0,4.0,4.0,1.0,rhubarb_03s.jpg,blowfish_03s.jpg,,,,,,,,,,,,,,,,,,,,,,
,,,,,,,,,1.0,,,26,0.0,0.0,1.45936,0.0,5.0,5.0,5.0,1.0,seagull_01b.jpg,pocket_watch_16s.jpg,,,,,,,,,,,,,,,,,,,,,,
,,,,,,,,,,,,26,,,,,,,,,,,0.0,0.0,0.0,0.0,1.0,clock_present_1_14.xlsx,clock_compare_task_1_14.xlsx,,,,,,,,,,,,,,,
0.0,1.0,2.29293,0.0,0.0,0.0,0.0,1.0,bagel_15s.jpg,0.0,clock_5_1.png,1.0,26,,,,,,,,,,,,,,,,,,,,,,,,,,,,,,,,
0.0,1.0,2.39726,0.0,1.0,1.0,1.0,1.0,rabbit_03s.jpg,0.0,clock_5_2.png,1.0,26,,,,,,,,,,,,,,,,,,,,,,,,,,,,,,,,
1.0,1.0,2.37693,0.0,2.0,2.0,2.0,1.0,bagel_15s.jpg,1.0,clock_5_3.png,1.0,26,,,,,,,,,,,,,,,,,,,,,,,,,,,,,,,,
0.0,1.0,2.33602,0.0,3.0,3.0,3.0,1.0,key_07s.jpg,0.0,clock_5_4.png,1.0,26,,,,,,,,,,,,,,,,,,,,,,,,,,,,,,,,
0.0,1.0,2.34452,0.0,4.0,4.0,4.0,1.0,mascara_03s.jpg,0.0,clock_5_5.png,1.0,26,,,,,,,,,,,,,,,,,,,,,,,,,,,,,,,,
0.0,1.0,2.48217,0.0,5.0,5.0,5.0,1.0,knot_01b.jpg,0.0,clock_6_1.png,2.0,26,,,,,,,,,,,,,,,,,,,,,,,,,,,,,,,,
0.0,1.0,2.33982,0.0,6.0,6.0,6.0,1.0,measuring_cup_02s.jpg,0.0,clock_6_2.png,2.0,26,,,,,,,,,,,,,,,,,,,,,,,,,,,,,,,,
0.0,1.0,2.351555,0.0,7.0,7.0,7.0,1.0,syringe_02s.jpg,0.0,clock_6_3.png,2.0,26,,,,,,,,,,,,,,,,,,,,,,,,,,,,,,,,
1.0,1.0,2.371045,0.0,8.0,8.0,8.0,1.0,knot_01b.jpg,1.0,clock_6_4.png,2.0,26,,,,,,,,,,,,,,,,,,,,,,,,,,,,,,,,
0.0,1.0,2.39409,0.0,9.0,9.0,9.0,1.0,pancake_12s.jpg,0.0,clock_6_5.png,2.0,26,,,,,,,,,,,,,,,,,,,,,,,,,,,,,,,,
0.0,1.0,2.390205,0.0,10.0,10.0,10.0,1.0,saddle_06s.jpg,0.0,clock_6_6.png,2.0,26,,,,,,,,,,,,,,,,,,,,,,,,,,,,,,,,
0.0,1.0,2.442275,0.0,11.0,11.0,11.0,1.0,stingray_02s.jpg,0.0,clock_7_1.png,3.0,26,,,,,,,,,,,,,,,,,,,,,,,,,,,,,,,,
1.0,0.0,2.386275,0.0,12.0,12.0,12.0,1.0,pancake_12s.jpg,0.0,clock_7_2.png,3.0,26,,,,,,,,,,,,,,,,,,,,,,,,,,,,,,,,
0.0,1.0,2.22231,0.0,13.0,13.0,13.0,1.0,kite_04s.jpg,0.0,clock_7_3.png,3.0,26,,,,,,,,,,,,,,,,,,,,,,,,,,,,,,,,
0.0,1.0,2.334565,0.0,14.0,14.0,14.0,1.0,pincushion_10s.jpg,0.0,clock_7_4.png,3.0,26,,,,,,,,,,,,,,,,,,,,,,,,,,,,,,,,
0.0,1.0,2.44818,0.0,15.0,15.0,15.0,1.0,ice_pack_09s.jpg,0.0,clock_7_5.png,3.0,26,,,,,,,,,,,,,,,,,,,,,,,,,,,,,,,,
1.0,1.0,2.34514,0.0,16.0,16.0,16.0,1.0,kite_04s.jpg,1.0,clock_7_6.png,3.0,26,,,,,,,,,,,,,,,,,,,,,,,,,,,,,,,,
0.0,1.0,2.4056,0.0,17.0,17.0,17.0,1.0,thumbtack_14s.jpg,0.0,clock_7_7.png,3.0,26,,,,,,,,,,,,,,,,,,,,,,,,,,,,,,,,
0.0,1.0,2.44276,0.0,18.0,18.0,18.0,1.0,stamp1_11s.jpg,0.0,clock_5_1.png,4.0,26,,,,,,,,,,,,,,,,,,,,,,,,,,,,,,,,
1.0,1.0,2.46747,0.0,19.0,19.0,19.0,1.0,stamp1_11s.jpg,1.0,clock_5_2.png,4.0,26,,,,,,,,,,,,,,,,,,,,,,,,,,,,,,,,
0.0,1.0,2.31643,0.0,20.0,20.0,20.0,1.0,lizard_10n.jpg,0.0,clock_5_3.png,4.0,26,,,,,,,,,,,,,,,,,,,,,,,,,,,,,,,,
0.0,1.0,2.29133,0.0,21.0,21.0,21.0,1.0,toilet_paper_12s.jpg,0.0,clock_5_4.png,4.0,26,,,,,,,,,,,,,,,,,,,,,,,,,,,,,,,,
0.0,1.0,2.360515,0.0,22.0,22.0,22.0,1.0,gong_02s.jpg,0.0,clock_5_5.png,4.0,26,,,,,,,,,,,,,,,,,,,,,,,,,,,,,,,,
0.0,1.0,2.306315,0.0,23.0,23.0,23.0,1.0,rake_06s.jpg,0.0,clock_6_1.png,5.0,26,,,,,,,,,,,,,,,,,,,,,,,,,,,,,,,,
1.0,0.0,2.38877,0.0,24.0,24.0,24.0,1.0,syringe_02s.jpg,0.0,clock_6_2.png,5.0,26,,,,,,,,,,,,,,,,,,,,,,,,,,,,,,,,
1.0,0.0,2.423525,0.0,25.0,25.0,25.0,1.0,thumbtack_14s.jpg,0.0,clock_6_3.png,5.0,26,,,,,,,,,,,,,,,,,,,,,,,,,,,,,,,,
0.0,1.0,2.453115,0.0,26.0,26.0,26.0,1.0,boomerang_06s.jpg,0.0,clock_6_4.png,5.0,26,,,,,,,,,,,,,,,,,,,,,,,,,,,,,,,,
0.0,1.0,2.445285,0.0,27.0,27.0,27.0,1.0,kayak_08s.jpg,0.0,clock_6_5.png,5.0,26,,,,,,,,,,,,,,,,,,,,,,,,,,,,,,,,
0.0,1.0,2.336525,0.0,28.0,28.0,28.0,1.0,fountain_pen_06s.jpg,0.0,clock_6_6.png,5.0,26,,,,,,,,,,,,,,,,,,,,,,,,,,,,,,,,
0.0,1.0,2.34602,0.0,29.0,29.0,29.0,1.0,contact_lens_15s.jpg,0.0,clock_7_1.png,6.0,26,,,,,,,,,,,,,,,,,,,,,,,,,,,,,,,,
0.0,1.0,2.310085,0.0,30.0,30.0,30.0,1.0,lamb_chop_07s.jpg,0.0,clock_7_2.png,6.0,26,,,,,,,,,,,,,,,,,,,,,,,,,,,,,,,,
0.0,1.0,2.366775,0.0,31.0,31.0,31.0,1.0,pear_02s.jpg,0.0,clock_7_3.png,6.0,26,,,,,,,,,,,,,,,,,,,,,,,,,,,,,,,,
0.0,1.0,2.33254,0.0,32.0,32.0,32.0,1.0,potpourri_03s.jpg,0.0,clock_7_4.png,6.0,26,,,,,,,,,,,,,,,,,,,,,,,,,,,,,,,,
1.0,0.0,2.47114,0.0,33.0,33.0,33.0,1.0,pincushion_10s.jpg,0.0,clock_7_5.png,6.0,26,,,,,,,,,,,,,,,,,,,,,,,,,,,,,,,,
0.0,1.0,2.442475,0.0,34.0,34.0,34.0,1.0,foam_03s.jpg,0.0,clock_7_6.png,6.0,26,,,,,,,,,,,,,,,,,,,,,,,,,,,,,,,,
0.0,1.0,2.427365,0.0,35.0,35.0,35.0,1.0,bathtub_23s.jpg,0.0,clock_7_7.png,6.0,26,,,,,,,,,,,,,,,,,,,,,,,,,,,,,,,,
,,,,,,,,,1.0,,,26,0.0,0.0,1.253705,0.0,0.0,0.0,0.0,1.0,key_07s.jpg,measuring_cup_02s.jpg,,,,,,,,,,,,,,,,,,,,,,
,,,,,,,,,1.0,,,26,0.0,0.0,1.080505,0.0,1.0,1.0,1.0,1.0,kayak_08s.jpg,lamb_chop_07s.jpg,,,,,,,,,,,,,,,,,,,,,,
,,,,,,,,,1.0,,,26,1.0,1.0,1.63012,0.0,2.0,2.0,2.0,1.0,lizard_10n.jpg,rake_06s.jpg,,,,,,,,,,,,,,,,,,,,,,
,,,,,,,,,1.0,,,26,0.0,0.0,1.16156,0.0,3.0,3.0,3.0,1.0,rabbit_03s.jpg,mascara_03s.jpg,,,,,,,,,,,,,,,,,,,,,,
,,,,,,,,,1.0,,,26,1.0,1.0,1.14764,0.0,4.0,4.0,4.0,1.0,potpourri_03s.jpg,bathtub_23s.jpg,,,,,,,,,,,,,,,,,,,,,,
,,,,,,,,,0.0,,,26,0.0,1.0,0.915145,0.0,5.0,5.0,5.0,1.0,foam_03s.jpg,pear_02s.jpg,,,,,,,,,,,,,,,,,,,,,,
,,,,,,,,,,,,26,,,,,,,,,,,0.0,1.0,1.0,1.0,1.0,clock_present_2_14.xlsx,clock_compare_task_2_14.xlsx,,,,,,,,,,,,,,,
0.0,1.0,2.155485,0.0,0.0,0.0,0.0,1.0,magnet_03s.jpg,0.0,clock_5_1.png,1.0,26,,,,,,,,,,,,,,,,,,,,,,,,,,,,,,,,
1.0,1.0,2.375395,0.0,1.0,1.0,1.0,1.0,magnet_03s.jpg,1.0,clock_5_2.png,1.0,26,,,,,,,,,,,,,,,,,,,,,,,,,,,,,,,,
0.0,1.0,2.414485,0.0,2.0,2.0,2.0,1.0,insole_11s.jpg,0.0,clock_5_3.png,1.0,26,,,,,,,,,,,,,,,,,,,,,,,,,,,,,,,,
0.0,1.0,2.43862,0.0,3.0,3.0,3.0,1.0,safety_pin_02s.jpg,0.0,clock_5_4.png,1.0,26,,,,,,,,,,,,,,,,,,,,,,,,,,,,,,,,
0.0,1.0,2.41487,0.0,4.0,4.0,4.0,1.0,pie_08s.jpg,0.0,clock_5_5.png,1.0,26,,,,,,,,,,,,,,,,,,,,,,,,,,,,,,,,
0.0,1.0,2.31131,0.0,5.0,5.0,5.0,1.0,flask_04s.jpg,0.0,clock_6_1.png,2.0,26,,,,,,,,,,,,,,,,,,,,,,,,,,,,,,,,
0.0,1.0,2.35637,0.0,6.0,6.0,6.0,1.0,stopwatch_04s.jpg,0.0,clock_6_2.png,2.0,26,,,,,,,,,,,,,,,,,,,,,,,,,,,,,,,,
0.0,1.0,2.46301,0.0,7.0,7.0,7.0,1.0,olive_05s.jpg,0.0,clock_6_3.png,2.0,26,,,,,,,,,,,,,,,,,,,,,,,,,,,,,,,,
0.0,1.0,2.336145,0.0,8.0,8.0,8.0,1.0,laser_pointer_02s.jpg,0.0,clock_6_4.png,2.0,26,,,,,,,,,,,,,,,,,,,,,,,,,,,,,,,,
1.0,0.0,2.478005,0.0,9.0,9.0,9.0,1.0,pie_08s.jpg,0.0,clock_6_5.png,2.0,26,,,,,,,,,,,,,,,,,,,,,,,,,,,,,,,,
1.0,1.0,2.33364,0.0,10.0,10.0,10.0,1.0,laser_pointer_02s.jpg,1.0,clock_6_6.png,2.0,26,,,,,,,,,,,,,,,,,,,,,,,,,,,,,,,,
0.0,1.0,2.36062,0.0,11.0,11.0,11.0,1.0,surfboard_11s.jpg,0.0,clock_6_1.png,3.0,26,,,,,,,,,,,,,,,,,,,,,,,,,,,,,,,,
0.0,1.0,2.318195,0.0,12.0,12.0,12.0,1.0,money_07s.jpg,0.0,clock_6_2.png,3.0,26,,,,,,,,,,,,,,,,,,,,,,,,,,,,,,,,
0.0,1.0,2.38873,0.0,13.0,13.0,13.0,1.0,bubble_01b.jpg,0.0,clock_6_3.png,3.0,26,,,,,,,,,,,,,,,,,,,,,,,,,,,,,,,,
0.0,1.0,2.309365,0.0,14.0,14.0,14.0,1.0,lipstick_02s.jpg,0.0,clock_6_4.png,3.0,26,,,,,,,,,,,,,,,,,,,,,,,,,,,,,,,,
0.0,1.0,2.439005,0.0,15.0,15.0,15.0,1.0,leash_10s.jpg,0.0,clock_6_5.png,3.0,26,,,,,,,,,,,,,,,,,,,,,,,,,,,,,,,,
1.0,0.0,2.449875,0.0,16.0,16.0,16.0,1.0,flask_04s.jpg,0.0,clock_6_6.png,3.0,26,,,,,,,,,,,,,,,,,,,,,,,,,,,,,,,,
0.0,1.0,2.349995,0.0,17.0,17.0,17.0,1.0,puck_06s.jpg,0.0,clock_7_1.png,4.0,26,,,,,,,,,,,,,,,,,,,,,,,,,,,,,,,,
0.0,1.0,2.481895,0.0,18.0,18.0,18.0,1.0,paintbrush_04s.jpg,0.0,clock_7_2.png,4.0,26,,,,,,,,,,,,,,,,,,,,,,,,,,,,,,,,
1.0,1.0,2.30499,0.0,19.0,19.0,19.0,1.0,puck_06s.jpg,1.0,clock_7_3.png,4.0,26,,,,,,,,,,,,,,,,,,,,,,,,,,,,,,,,
0.0,1.0,2.41238,0.0,20.0,20.0,20.0,1.0,tweezers_03s.jpg,0.0,clock_7_4.png,4.0,26,,,,,,,,,,,,,,,,,,,,,,,,,,,,,,,,
1.0,1.0,2.36223,0.0,21.0,21.0,21.0,1.0,puck_06s.jpg,1.0,clock_7_5.png,4.0,26,,,,,,,,,,,,,,,,,,,,,,,,,,,,,,,,
0.0,1.0,2.40976,0.0,22.0,22.0,22.0,1.0,tulip_02s.jpg,0.0,clock_7_6.png,4.0,26,,,,,,,,,,,,,,,,,,,,,,,,,,,,,,,,
1.0,0.0,2.378075,0.0,23.0,23.0,23.0,1.0,bubble_01b.jpg,0.0,clock_7_7.png,4.0,26,,,,,,,,,,,,,,,,,,,,,,,,,,,,,,,,
0.0,1.0,2.4523,0.0,24.0,24.0,24.0,1.0,mattress_01s.jpg,0.0,clock_5_1.png,5.0,26,,,,,,,,,,,,,,,,,,,,,,,,,,,,,,,,
1.0,1.0,2.35814,0.0,25.0,25.0,25.0,1.0,mattress_01s.jpg,1.0,clock_5_2.png,5.0,26,,,,,,,,,,,,,,,,,,,,,,,,,,,,,,,,
0.0,1.0,2.386735,0.0,26.0,26.0,26.0,1.0,puddle_02s.jpg,0.0,clock_5_3.png,5.0,26,,,,,,,,,,,,,,,,,,,,,,,,,,,,,,,,
0.0,1.0,2.32165,0.0,27.0,27.0,27.0,1.0,peanut_butter_08s.jpg,0.0,clock_5_4.png,5.0,26,,,,,,,,,,,,,,,,,,,,,,,,,,,,,,,,
0.0,1.0,2.409105,0.0,28.0,28.0,28.0,1.0,loveseat_08s.jpg,0.0,clock_5_5.png,5.0,26,,,,,,,,,,,,,,,,,,,,,,,,,,,,,,,,
0.0,1.0,2.41401,0.0,29.0,29.0,29.0,1.0,timer_03s.jpg,0.0,clock_7_1.png,6.0,26,,,,,,,,,,,,,,,,,,,,,,,,,,,,,,,,
0.0,1.0,2.37687,0.0,30.0,30.0,30.0,1.0,icicle_04s.jpg,0.0,clock_7_2.png,6.0,26,,,,,,,,,,,,,,,,,,,,,,,,,,,,,,,,
0.0,1.0,2.27411,0.0,31.0,31.0,31.0,1.0,fishhook_06s.jpg,0.0,clock_7_3.png,6.0,26,,,,,,,,,,,,,,,,,,,,,,,,,,,,,,,,
0.0,1.0,2.344135,0.0,32.0,32.0,32.0,1.0,pump_11s.jpg,0.0,clock_7_4.png,6.0,26,,,,,,,,,,,,,,,,,,,,,,,,,,,,,,,,
0.0,1.0,2.415365,0.0,33.0,33.0,33.0,1.0,ukulele_02s.jpg,0.0,clock_7_5.png,6.0,26,,,,,,,,,,,,,,,,,,,,,,,,,,,,,,,,
1.0,0.0,2.359795,0.0,34.0,34.0,34.0,1.0,safety_pin_02s.jpg,0.0,clock_7_6.png,6.0,26,,,,,,,,,,,,,,,,,,,,,,,,,,,,,,,,
0.0,1.0,2.453395,0.0,35.0,35.0,35.0,1.0,sundae_08s.jpg,0.0,clock_7_7.png,6.0,26,,,,,,,,,,,,,,,,,,,,,,,,,,,,,,,,
,,,,,,,,,0.0,,,26,0.0,1.0,1.55271,0.0,0.0,0.0,0.0,1.0,fishhook_06s.jpg,loveseat_08s.jpg,,,,,,,,,,,,,,,,,,,,,,
,,,,,,,,,0.0,,,26,1.0,0.0,1.620465,0.0,1.0,1.0,1.0,1.0,paintbrush_04s.jpg,leash_10s.jpg,,,,,,,,,,,,,,,,,,,,,,
,,,,,,,,,0.0,,,26,0.0,1.0,2.017925,0.0,2.0,2.0,2.0,1.0,timer_03s.jpg,puddle_02s.jpg,,,,,,,,,,,,,,,,,,,,,,
,,,,,,,,,1.0,,,26,1.0,1.0,1.428195,0.0,3.0,3.0,3.0,1.0,surfboard_11s.jpg,lipstick_02s.jpg,,,,,,,,,,,,,,,,,,,,,,
,,,,,,,,,0.0,,,26,0.0,1.0,1.042695,0.0,4.0,4.0,4.0,1.0,sundae_08s.jpg,pump_11s.jpg,,,,,,,,,,,,,,,,,,,,,,
,,,,,,,,,0.0,,,26,0.0,1.0,1.25831,0.0,5.0,5.0,5.0,1.0,ukulele_02s.jpg,icicle_04s.jpg,,,,,,,,,,,,,,,,,,,,,,
,,,,,,,,,,,,26,,,,,,,,,,,0.0,2.0,2.0,2.0,1.0,clock_present_3_14.xlsx,clock_compare_task_3_14.xlsx,,,,,,,,,,,,,,,
0.0,1.0,2.358115,0.0,0.0,0.0,0.0,1.0,mold2_04s.jpg,0.0,clock_5_1.png,1.0,26,,,,,,,,,,,,,,,,,,,,,,,,,,,,,,,,
1.0,1.0,2.425965,0.0,1.0,1.0,1.0,1.0,mold2_04s.jpg,1.0,clock_5_2.png,1.0,26,,,,,,,,,,,,,,,,,,,,,,,,,,,,,,,,
1.0,1.0,2.32957,0.0,2.0,2.0,2.0,1.0,mold2_04s.jpg,1.0,clock_5_3.png,1.0,26,,,,,,,,,,,,,,,,,,,,,,,,,,,,,,,,
1.0,1.0,2.437855,0.0,3.0,3.0,3.0,1.0,mold2_04s.jpg,1.0,clock_5_4.png,1.0,26,,,,,,,,,,,,,,,,,,,,,,,,,,,,,,,,
0.0,1.0,2.2988,0.0,4.0,4.0,4.0,1.0,sledgehammer_03s.jpg,0.0,clock_5_5.png,1.0,26,,,,,,,,,,,,,,,,,,,,,,,,,,,,,,,,
0.0,1.0,2.397595,0.0,5.0,5.0,5.0,1.0,prism_10s.jpg,0.0,clock_7_1.png,2.0,26,,,,,,,,,,,,,,,,,,,,,,,,,,,,,,,,
0.0,1.0,2.311535,0.0,6.0,6.0,6.0,1.0,jewel_01b.jpg,0.0,clock_7_2.png,2.0,26,,,,,,,,,,,,,,,,,,,,,,,,,,,,,,,,
0.0,1.0,2.42692,0.0,7.0,7.0,7.0,1.0,puffin_19s.jpg,0.0,clock_7_3.png,2.0,26,,,,,,,,,,,,,,,,,,,,,,,,,,,,,,,,
0.0,1.0,2.28914,0.0,8.0,8.0,8.0,1.0,screwdriver02a.jpg,0.0,clock_7_4.png,2.0,26,,,,,,,,,,,,,,,,,,,,,,,,,,,,,,,,
0.0,1.0,2.43942,0.0,9.0,9.0,9.0,1.0,thermostat_02s.jpg,0.0,clock_7_5.png,2.0,26,,,,,,,,,,,,,,,,,,,,,,,,,,,,,,,,
1.0,1.0,2.37045,0.0,10.0,10.0,10.0,1.0,jewel_01b.jpg,1.0,clock_7_6.png,2.0,26,,,,,,,,,,,,,,,,,,,,,,,,,,,,,,,,
1.0,1.0,2.4025,0.0,11.0,11.0,11.0,1.0,puffin_19s.jpg,1.0,clock_7_7.png,2.0,26,,,,,,,,,,,,,,,,,,,,,,,,,,,,,,,,
0.0,1.0,2.42356,0.0,12.0,12.0,12.0,1.0,petri_dish_12s.jpg,0.0,clock_6_1.png,3.0,26,,,,,,,,,,,,,,,,,,,,,,,,,,,,,,,,
0.0,1.0,2.464225,0.0,13.0,13.0,13.0,1.0,plug_08s.jpg,0.0,clock_6_2.png,3.0,26,,,,,,,,,,,,,,,,,,,,,,,,,,,,,,,,
0.0,1.0,2.288485,0.0,14.0,14.0,14.0,1.0,hydrant_10s.jpg,0.0,clock_6_3.png,3.0,26,,,,,,,,,,,,,,,,,,,,,,,,,,,,,,,,
1.0,1.0,2.33586,0.0,15.0,15.0,15.0,1.0,petri_dish_12s.jpg,1.0,clock_6_4.png,3.0,26,,,,,,,,,,,,,,,,,,,,,,,,,,,,,,,,
0.0,1.0,2.34369,0.0,16.0,16.0,16.0,1.0,amber_04s.jpg,0.0,clock_6_5.png,3.0,26,,,,,,,,,,,,,,,,,,,,,,,,,,,,,,,,
0.0,1.0,2.423045,0.0,17.0,17.0,17.0,1.0,luggage_08s.jpg,0.0,clock_6_6.png,3.0,26,,,,,,,,,,,,,,,,,,,,,,,,,,,,,,,,
0.0,1.0,2.3704,0.0,18.0,18.0,18.0,1.0,cushion_08s.jpg,0.0,clock_7_1.png,4.0,26,,,,,,,,,,,,,,,,,,,,,,,,,,,,,,,,
0.0,1.0,2.478055,0.0,19.0,19.0,19.0,1.0,mushroom_10n.jpg,0.0,clock_7_2.png,4.0,26,,,,,,,,,,,,,,,,,,,,,,,,,,,,,,,,
1.0,0.0,2.383255,0.0,20.0,20.0,20.0,1.0,puffin_19s.jpg,0.0,clock_7_3.png,4.0,26,,,,,,,,,,,,,,,,,,,,,,,,,,,,,,,,
0.0,1.0,2.458615,0.0,21.0,21.0,21.0,1.0,lasagna_06s.jpg,0.0,clock_7_4.png,4.0,26,,,,,,,,,,,,,,,,,,,,,,,,,,,,,,,,
0.0,1.0,2.481535,0.0,22.0,22.0,22.0,1.0,thorn_13s.jpg,0.0,clock_7_5.png,4.0,26,,,,,,,,,,,,,,,,,,,,,,,,,,,,,,,,
0.0,1.0,2.473945,0.0,23.0,23.0,23.0,1.0,jelly_bean_06s.jpg,0.0,clock_7_6.png,4.0,26,,,,,,,,,,,,,,,,,,,,,,,,,,,,,,,,
0.0,1.0,2.361015,0.0,24.0,24.0,24.0,1.0,mosquito_12s.jpg,0.0,clock_7_7.png,4.0,26,,,,,,,,,,,,,,,,,,,,,,,,,,,,,,,,
0.0,1.0,2.45145,0.0,25.0,25.0,25.0,1.0,triangle_10s.jpg,0.0,clock_6_1.png,5.0,26,,,,,,,,,,,,,,,,,,,,,,,,,,,,,,,,
0.0,1.0,2.35076,0.0,26.0,26.0,26.0,1.0,roulette_wheel_04s.jpg,0.0,clock_6_2.png,5.0,26,,,,,,,,,,,,,,,,,,,,,,,,,,,,,,,,
1.0,1.0,2.359045,0.0,27.0,27.0,27.0,1.0,roulette_wheel_04s.jpg,1.0,clock_6_3.png,5.0,26,,,,,,,,,,,,,,,,,,,,,,,,,,,,,,,,
1.0,0.0,2.43297,0.0,28.0,28.0,28.0,1.0,puffin_19s.jpg,0.0,clock_6_4.png,5.0,26,,,,,,,,,,,,,,,,,,,,,,,,,,,,,,,,
0.0,1.0,2.456055,0.0,29.0,29.0,29.0,1.0,outlet_10s.jpg,0.0,clock_6_5.png,5.0,26,,,,,,,,,,,,,,,,,,,,,,,,,,,,,,,,
0.0,1.0,2.470775,0.0,30.0,30.0,30.0,1.0,abacus_12s.jpg,0.0,clock_6_6.png,5.0,26,,,,,,,,,,,,,,,,,,,,,,,,,,,,,,,,
0.0,1.0,2.34267,0.0,31.0,31.0,31.0,1.0,pencil02a.jpg,0.0,clock_5_1.png,6.0,26,,,,,,,,,,,,,,,,,,,,,,,,,,,,,,,,
0.0,1.0,2.420925,0.0,32.0,32.0,32.0,1.0,pillow_03s.jpg,0.0,clock_5_2.png,6.0,26,,,,,,,,,,,,,,,,,,,,,,,,,,,,,,,,
1.0,1.0,2.340665,0.0,33.0,33.0,33.0,1.0,pencil02a.jpg,1.0,clock_5_3.png,6.0,26,,,,,,,,,,,,,,,,,,,,,,,,,,,,,,,,
0.0,1.0,2.33532,0.0,34.0,34.0,34.0,1.0,towel_rack_04s.jpg,0.0,clock_5_4.png,6.0,26,,,,,,,,,,,,,,,,,,,,,,,,,,,,,,,,
0.0,1.0,2.42658,0.0,35.0,35.0,35.0,1.0,machine_gun_09s.jpg,0.0,clock_5_5.png,6.0,26,,,,,,,,,,,,,,,,,,,,,,,,,,,,,,,,
,,,,,,,,,1.0,,,26,1.0,1.0,1.30162,0.0,0.0,0.0,0.0,1.0,thorn_13s.jpg,triangle_10s.jpg,,,,,,,,,,,,,,,,,,,,,,
,,,,,,,,,0.0,,,26,1.0,0.0,1.150575,0.0,1.0,1.0,1.0,1.0,pillow_03s.jpg,outlet_10s.jpg,,,,,,,,,,,,,,,,,,,,,,
,,,,,,,,,1.0,,,26,0.0,0.0,1.26566,0.0,2.0,2.0,2.0,1.0,amber_04s.jpg,mushroom_10n.jpg,,,,,,,,,,,,,,,,,,,,,,
,,,,,,,,,0.0,,,26,0.0,1.0,0.97163,0.0,3.0,3.0,3.0,1.0,screwdriver02a.jpg,prism_10s.jpg,,,,,,,,,,,,,,,,,,,,,,
,,,,,,,,,1.0,,,26,1.0,1.0,1.55247,0.0,4.0,4.0,4.0,1.0,hydrant_10s.jpg,luggage_08s.jpg,,,,,,,,,,,,,,,,,,,,,,
,,,,,,,,,1.0,,,26,0.0,0.0,1.78874,0.0,5.0,5.0,5.0,1.0,cushion_08s.jpg,lasagna_06s.jpg,,,,,,,,,,,,,,,,,,,,,,
,,,,,,,,,,,,26,,,,,,,,,,,0.0,3.0,3.0,3.0,1.0,clock_present_4_14.xlsx,clock_compare_task_4_14.xlsx,,,,,,,,,,,,,,,
0.0,1.0,2.38945,0.0,0.0,0.0,0.0,1.0,checkbook_11s.jpg,0.0,clock_7_1.png,1.0,26,,,,,,,,,,,,,,,,,,,,,,,,,,,,,,,,
0.0,1.0,2.36785,0.0,1.0,1.0,1.0,1.0,submarine_11n.jpg,0.0,clock_7_2.png,1.0,26,,,,,,,,,,,,,,,,,,,,,,,,,,,,,,,,
0.0,1.0,2.39306,0.0,2.0,2.0,2.0,1.0,doily_13s.jpg,0.0,clock_7_3.png,1.0,26,,,,,,,,,,,,,,,,,,,,,,,,,,,,,,,,
0.0,1.0,2.471,0.0,3.0,3.0,3.0,1.0,briefcase_03s.jpg,0.0,clock_7_4.png,1.0,26,,,,,,,,,,,,,,,,,,,,,,,,,,,,,,,,
0.0,1.0,2.4439,0.0,4.0,4.0,4.0,1.0,film_03s.jpg,0.0,clock_7_5.png,1.0,26,,,,,,,,,,,,,,,,,,,,,,,,,,,,,,,,
0.0,1.0,2.403935,0.0,5.0,5.0,5.0,1.0,ironing_board_07s.jpg,0.0,clock_7_6.png,1.0,26,,,,,,,,,,,,,,,,,,,,,,,,,,,,,,,,
0.0,0.0,2.357845,0.0,6.0,6.0,6.0,1.0,checkbook_11s.jpg,1.0,clock_7_7.png,1.0,26,,,,,,,,,,,,,,,,,,,,,,,,,,,,,,,,
0.0,1.0,2.339465,0.0,7.0,7.0,7.0,1.0,sushi_08s.jpg,0.0,clock_6_1.png,2.0,26,,,,,,,,,,,,,,,,,,,,,,,,,,,,,,,,
0.0,1.0,2.295355,0.0,8.0,8.0,8.0,1.0,go-kart_10s.jpg,0.0,clock_6_2.png,2.0,26,,,,,,,,,,,,,,,,,,,,,,,,,,,,,,,,
0.0,1.0,2.364415,0.0,9.0,9.0,9.0,1.0,tripod_01b.jpg,0.0,clock_6_3.png,2.0,26,,,,,,,,,,,,,,,,,,,,,,,,,,,,,,,,
0.0,1.0,2.411885,0.0,10.0,10.0,10.0,1.0,tinsel_12s.jpg,0.0,clock_6_4.png,2.0,26,,,,,,,,,,,,,,,,,,,,,,,,,,,,,,,,
0.0,1.0,2.35515,0.0,11.0,11.0,11.0,1.0,microwave_02s.jpg,0.0,clock_6_5.png,2.0,26,,,,,,,,,,,,,,,,,,,,,,,,,,,,,,,,
0.0,1.0,2.38912,0.0,12.0,12.0,12.0,1.0,piano_13n.jpg,0.0,clock_6_6.png,2.0,26,,,,,,,,,,,,,,,,,,,,,,,,,,,,,,,,
0.0,1.0,2.42541,0.0,13.0,13.0,13.0,1.0,panda_02s.jpg,0.0,clock_5_1.png,3.0,26,,,,,,,,,,,,,,,,,,,,,,,,,,,,,,,,
0.0,1.0,2.458745,0.0,14.0,14.0,14.0,1.0,spatula04.jpg,0.0,clock_5_2.png,3.0,26,,,,,,,,,,,,,,,,,,,,,,,,,,,,,,,,
0.0,1.0,2.31545,0.0,15.0,15.0,15.0,1.0,razor_12s.jpg,0.0,clock_5_3.png,3.0,26,,,,,,,,,,,,,,,,,,,,,,,,,,,,,,,,
0.0,1.0,2.286235,0.0,16.0,16.0,16.0,1.0,jet_15s.jpg,0.0,clock_5_4.png,3.0,26,,,,,,,,,,,,,,,,,,,,,,,,,,,,,,,,
0.0,1.0,2.42137,0.0,17.0,17.0,17.0,1.0,spider_web_03s.jpg,0.0,clock_5_5.png,3.0,26,,,,,,,,,,,,,,,,,,,,,,,,,,,,,,,,
0.0,1.0,2.40791,0.0,18.0,18.0,18.0,1.0,lamppost_09s.jpg,0.0,clock_5_1.png,4.0,26,,,,,,,,,,,,,,,,,,,,,,,,,,,,,,,,
0.0,1.0,2.401045,0.0,19.0,19.0,19.0,1.0,kettle_08s.jpg,0.0,clock_5_2.png,4.0,26,,,,,,,,,,,,,,,,,,,,,,,,,,,,,,,,
1.0,1.0,2.346815,0.0,20.0,20.0,20.0,1.0,kettle_08s.jpg,1.0,clock_5_3.png,4.0,26,,,,,,,,,,,,,,,,,,,,,,,,,,,,,,,,
1.0,0.0,2.37285,0.0,21.0,21.0,21.0,1.0,jet_15s.jpg,0.0,clock_5_4.png,4.0,26,,,,,,,,,,,,,,,,,,,,,,,,,,,,,,,,
1.0,1.0,2.438285,0.0,22.0,22.0,22.0,1.0,kettle_08s.jpg,1.0,clock_5_5.png,4.0,26,,,,,,,,,,,,,,,,,,,,,,,,,,,,,,,,
0.0,1.0,2.434015,0.0,23.0,23.0,23.0,1.0,champagne_18s.jpg,0.0,clock_6_1.png,5.0,26,,,,,,,,,,,,,,,,,,,,,,,,,,,,,,,,
0.0,1.0,2.292775,0.0,24.0,24.0,24.0,1.0,radiator_05s.jpg,0.0,clock_6_2.png,5.0,26,,,,,,,,,,,,,,,,,,,,,,,,,,,,,,,,
1.0,1.0,2.45443,0.0,25.0,25.0,25.0,1.0,radiator_05s.jpg,1.0,clock_6_3.png,5.0,26,,,,,,,,,,,,,,,,,,,,,,,,,,,,,,,,
0.0,1.0,2.317295,0.0,26.0,26.0,26.0,1.0,pepper2_21s.jpg,0.0,clock_6_4.png,5.0,26,,,,,,,,,,,,,,,,,,,,,,,,,,,,,,,,
1.0,1.0,2.00043,0.0,27.0,27.0,27.0,1.0,pepper2_21s.jpg,1.0,clock_6_5.png,5.0,26,,,,,,,,,,,,,,,,,,,,,,,,,,,,,,,,
0.0,1.0,2.43613,0.0,28.0,28.0,28.0,1.0,breadstick_08s.jpg,0.0,clock_6_6.png,5.0,26,,,,,,,,,,,,,,,,,,,,,,,,,,,,,,,,
0.0,1.0,2.461115,0.0,29.0,29.0,29.0,1.0,mailbox_11s.jpg,0.0,clock_7_1.png,6.0,26,,,,,,,,,,,,,,,,,,,,,,,,,,,,,,,,
0.0,1.0,2.463525,0.0,30.0,30.0,30.0,1.0,crystal_ball_12s.jpg,0.0,clock_7_2.png,6.0,26,,,,,,,,,,,,,,,,,,,,,,,,,,,,,,,,
1.0,1.0,2.468895,0.0,31.0,31.0,31.0,1.0,crystal_ball_12s.jpg,1.0,clock_7_3.png,6.0,26,,,,,,,,,,,,,,,,,,,,,,,,,,,,,,,,
1.0,0.0,2.398425,0.0,32.0,32.0,32.0,1.0,submarine_11n.jpg,0.0,clock_7_4.png,6.0,26,,,,,,,,,,,,,,,,,,,,,,,,,,,,,,,,
0.0,1.0,2.449675,0.0,33.0,33.0,33.0,1.0,ant_12s.jpg,0.0,clock_7_5.png,6.0,26,,,,,,,,,,,,,,,,,,,,,,,,,,,,,,,,
0.0,1.0,2.43948,0.0,34.0,34.0,34.0,1.0,smokingpipe.jpg,0.0,clock_7_6.png,6.0,26,,,,,,,,,,,,,,,,,,,,,,,,,,,,,,,,
1.0,1.0,2.298645,0.0,35.0,35.0,35.0,1.0,mailbox_11s.jpg,1.0,clock_7_7.png,6.0,26,,,,,,,,,,,,,,,,,,,,,,,,,,,,,,,,
,,,,,,,,,1.0,,,26,1.0,1.0,1.230675,0.0,0.0,0.0,0.0,1.0,razor_12s.jpg,lamppost_09s.jpg,,,,,,,,,,,,,,,,,,,,,,
,,,,,,,,,1.0,,,26,1.0,1.0,0.94664,0.0,1.0,1.0,1.0,1.0,film_03s.jpg,sushi_08s.jpg,,,,,,,,,,,,,,,,,,,,,,
,,,,,,,,,0.0,,,26,0.0,1.0,1.735275,0.0,2.0,2.0,2.0,1.0,panda_02s.jpg,tinsel_12s.jpg,,,,,,,,,,,,,,,,,,,,,,
,,,,,,,,,0.0,,,26,1.0,0.0,1.146835,0.0,3.0,3.0,3.0,1.0,ironing_board_07s.jpg,doily_13s.jpg,,,,,,,,,,,,,,,,,,,,,,
,,,,,,,,,0.0,,,26,0.0,1.0,1.0011,0.0,4.0,4.0,4.0,1.0,piano_13n.jpg,tripod_01b.jpg,,,,,,,,,,,,,,,,,,,,,,
,,,,,,,,,0.0,,,26,0.0,1.0,1.509155,0.0,5.0,5.0,5.0,1.0,spider_web_03s.jpg,spatula04.jpg,,,,,,,,,,,,,,,,,,,,,,
,,,,,,,,,,,,26,,,,,,,,,,,0.0,4.0,4.0,4.0,1.0,clock_present_5_14.xlsx,clock_compare_task_5_14.xlsx,,,,,,,,,,,,,,,
0.0,1.0,2.421205,0.0,0.0,0.0,0.0,1.0,orangutan_03s.jpg,0.0,clock_7_1.png,1.0,26,,,,,,,,,,,,,,,,,,,,,,,,,,,,,,,,
0.0,1.0,2.43819,0.0,1.0,1.0,1.0,1.0,squirrel_02s.jpg,0.0,clock_7_2.png,1.0,26,,,,,,,,,,,,,,,,,,,,,,,,,,,,,,,,
0.0,1.0,2.40903,0.0,2.0,2.0,2.0,1.0,tiara_05s.jpg,0.0,clock_7_3.png,1.0,26,,,,,,,,,,,,,,,,,,,,,,,,,,,,,,,,
1.0,1.0,2.384495,0.0,3.0,3.0,3.0,1.0,squirrel_02s.jpg,1.0,clock_7_4.png,1.0,26,,,,,,,,,,,,,,,,,,,,,,,,,,,,,,,,
1.0,1.0,2.44563,0.0,4.0,4.0,4.0,1.0,tiara_05s.jpg,1.0,clock_7_5.png,1.0,26,,,,,,,,,,,,,,,,,,,,,,,,,,,,,,,,
0.0,1.0,2.436715,0.0,5.0,5.0,5.0,1.0,mannequin_05s.jpg,0.0,clock_7_6.png,1.0,26,,,,,,,,,,,,,,,,,,,,,,,,,,,,,,,,
0.0,1.0,2.36873,0.0,6.0,6.0,6.0,1.0,omelet_07s.jpg,0.0,clock_7_7.png,1.0,26,,,,,,,,,,,,,,,,,,,,,,,,,,,,,,,,
0.0,1.0,2.309565,0.0,7.0,7.0,7.0,1.0,buoy_04s.jpg,0.0,clock_5_1.png,2.0,26,,,,,,,,,,,,,,,,,,,,,,,,,,,,,,,,
0.0,1.0,2.231265,0.0,8.0,8.0,8.0,1.0,meatball_13s.jpg,0.0,clock_5_2.png,2.0,26,,,,,,,,,,,,,,,,,,,,,,,,,,,,,,,,
0.0,1.0,2.22576,0.0,9.0,9.0,9.0,1.0,peppermint_07s.jpg,0.0,clock_5_3.png,2.0,26,,,,,,,,,,,,,,,,,,,,,,,,,,,,,,,,
0.0,1.0,2.39788,0.0,10.0,10.0,10.0,1.0,letter_opener_03s.jpg,0.0,clock_5_4.png,2.0,26,,,,,,,,,,,,,,,,,,,,,,,,,,,,,,,,
0.0,1.0,2.325645,0.0,11.0,11.0,11.0,1.0,jigsaw_puzzle_11s.jpg,0.0,clock_5_5.png,2.0,26,,,,,,,,,,,,,,,,,,,,,,,,,,,,,,,,
0.0,1.0,2.313795,0.0,12.0,12.0,12.0,1.0,bean_06s.jpg,0.0,clock_7_1.png,3.0,26,,,,,,,,,,,,,,,,,,,,,,,,,,,,,,,,
1.0,0.0,2.33889,0.0,13.0,13.0,13.0,1.0,tiara_05s.jpg,0.0,clock_7_2.png,3.0,26,,,,,,,,,,,,,,,,,,,,,,,,,,,,,,,,
0.0,1.0,2.45354,0.0,14.0,14.0,14.0,1.0,toothpaste_12s.jpg,0.0,clock_7_3.png,3.0,26,,,,,,,,,,,,,,,,,,,,,,,,,,,,,,,,
0.0,1.0,2.364255,0.0,15.0,15.0,15.0,1.0,toad_09s.jpg,0.0,clock_7_4.png,3.0,26,,,,,,,,,,,,,,,,,,,,,,,,,,,,,,,,
0.0,1.0,2.33511,0.0,16.0,16.0,16.0,1.0,reindeer_08s.jpg,0.0,clock_7_5.png,3.0,26,,,,,,,,,,,,,,,,,,,,,,,,,,,,,,,,
0.0,1.0,2.33491,0.0,17.0,17.0,17.0,1.0,refrigerator_07s.jpg,0.0,clock_7_6.png,3.0,26,,,,,,,,,,,,,,,,,,,,,,,,,,,,,,,,
0.0,1.0,2.45181,0.0,18.0,18.0,18.0,1.0,koala_13s.jpg,0.0,clock_7_7.png,3.0,26,,,,,,,,,,,,,,,,,,,,,,,,,,,,,,,,
0.0,1.0,2.401435,0.0,19.0,19.0,19.0,1.0,umbrella_15s.jpg,0.0,clock_5_1.png,4.0,26,,,,,,,,,,,,,,,,,,,,,,,,,,,,,,,,
0.0,1.0,2.34626,0.0,20.0,20.0,20.0,1.0,lamp_08s.jpg,0.0,clock_5_2.png,4.0,26,,,,,,,,,,,,,,,,,,,,,,,,,,,,,,,,
0.0,1.0,2.321055,0.0,21.0,21.0,21.0,1.0,bacon_05s.jpg,0.0,clock_5_3.png,4.0,26,,,,,,,,,,,,,,,,,,,,,,,,,,,,,,,,
0.0,1.0,2.41045,0.0,22.0,22.0,22.0,1.0,mug_06s.jpg,0.0,clock_5_4.png,4.0,26,,,,,,,,,,,,,,,,,,,,,,,,,,,,,,,,
0.0,1.0,2.3912,0.0,23.0,23.0,23.0,1.0,telephone_pole_05s.jpg,0.0,clock_5_5.png,4.0,26,,,,,,,,,,,,,,,,,,,,,,,,,,,,,,,,
0.0,1.0,2.421345,0.0,24.0,24.0,24.0,1.0,tablet_04s.jpg,0.0,clock_6_1.png,5.0,26,,,,,,,,,,,,,,,,,,,,,,,,,,,,,,,,
0.0,1.0,2.38846,0.0,25.0,25.0,25.0,1.0,flip_flop_03s.jpg,0.0,clock_6_2.png,5.0,26,,,,,,,,,,,,,,,,,,,,,,,,,,,,,,,,
0.0,1.0,2.391325,0.0,26.0,26.0,26.0,1.0,razor_blade_01b.jpg,0.0,clock_6_3.png,5.0,26,,,,,,,,,,,,,,,,,,,,,,,,,,,,,,,,
0.0,1.0,2.375415,0.0,27.0,27.0,27.0,1.0,turkey_10s.jpg,0.0,clock_6_4.png,5.0,26,,,,,,,,,,,,,,,,,,,,,,,,,,,,,,,,
0.0,1.0,2.359335,0.0,28.0,28.0,28.0,1.0,polar_bear_02s.jpg,0.0,clock_6_5.png,5.0,26,,,,,,,,,,,,,,,,,,,,,,,,,,,,,,,,
0.0,1.0,2.305745,0.0,29.0,29.0,29.0,1.0,pomegranate_04s.jpg,0.0,clock_6_6.png,5.0,26,,,,,,,,,,,,,,,,,,,,,,,,,,,,,,,,
0.0,1.0,2.4525,0.0,30.0,30.0,30.0,1.0,jetski_10s.jpg,0.0,clock_6_1.png,6.0,26,,,,,,,,,,,,,,,,,,,,,,,,,,,,,,,,
0.0,1.0,2.312205,0.0,31.0,31.0,31.0,1.0,milk_02s.jpg,0.0,clock_6_2.png,6.0,26,,,,,,,,,,,,,,,,,,,,,,,,,,,,,,,,
0.0,1.0,2.44621,0.0,32.0,32.0,32.0,1.0,undershirt_02s.jpg,0.0,clock_6_3.png,6.0,26,,,,,,,,,,,,,,,,,,,,,,,,,,,,,,,,
0.0,1.0,2.402865,0.0,33.0,33.0,33.0,1.0,megaphone_03s.jpg,0.0,clock_6_4.png,6.0,26,,,,,,,,,,,,,,,,,,,,,,,,,,,,,,,,
0.0,1.0,2.44503,0.0,34.0,34.0,34.0,1.0,licorice_06s.jpg,0.0,clock_6_5.png,6.0,26,,,,,,,,,,,,,,,,,,,,,,,,,,,,,,,,
1.0,1.0,2.435035,0.0,35.0,35.0,35.0,1.0,jetski_10s.jpg,1.0,clock_6_6.png,6.0,26,,,,,,,,,,,,,,,,,,,,,,,,,,,,,,,,
,,,,,,,,,0.0,,,26,0.0,1.0,1.061685,0.0,0.0,0.0,0.0,1.0,peppermint_07s.jpg,omelet_07s.jpg,,,,,,,,,,,,,,,,,,,,,,
,,,,,,,,,0.0,,,26,1.0,0.0,2.06118,0.0,1.0,1.0,1.0,1.0,meatball_13s.jpg,mannequin_05s.jpg,,,,,,,,,,,,,,,,,,,,,,
,,,,,,,,,0.0,,,26,0.0,1.0,1.44707,0.0,2.0,2.0,2.0,1.0,umbrella_15s.jpg,reindeer_08s.jpg,,,,,,,,,,,,,,,,,,,,,,
,,,,,,,,,0.0,,,26,0.0,1.0,1.23961,0.0,3.0,3.0,3.0,1.0,letter_opener_03s.jpg,buoy_04s.jpg,,,,,,,,,,,,,,,,,,,,,,
,,,,,,,,,0.0,,,26,1.0,0.0,1.177555,0.0,4.0,4.0,4.0,1.0,toad_09s.jpg,bean_06s.jpg,,,,,,,,,,,,,,,,,,,,,,
,,,,,,,,,0.0,,,26,0.0,1.0,1.026985,0.0,5.0,5.0,5.0,1.0,turkey_10s.jpg,tablet_04s.jpg,,,,,,,,,,,,,,,,,,,,,,
0.0,1.0,2.33315,,,,,,swan_11s.jpg,0.0,clockno_up.jpg,1.0,26,,,,,,,,,,,,,,,,,,0.0,0.0,0.0,0.0,1.0,,,,,,,,,,
0.0,1.0,2.379165,,,,,,hummingbird_05s.jpg,0.0,clockno_default.jpg,1.0,26,,,,,,,,,,,,,,,,,,0.0,1.0,1.0,1.0,1.0,,,,,,,,,,
0.0,1.0,2.32461,,,,,,pretzel_09s.jpg,0.0,clockno_default.jpg,1.0,26,,,,,,,,,,,,,,,,,,0.0,2.0,2.0,2.0,1.0,,,,,,,,,,
1.0,1.0,2.381595,,,,,,pretzel_09s.jpg,1.0,clockno_default.jpg,1.0,26,,,,,,,,,,,,,,,,,,0.0,3.0,3.0,3.0,1.0,,,,,,,,,,
1.0,1.0,2.228745,,,,,,pretzel_09s.jpg,1.0,clockno_default.jpg,1.0,26,,,,,,,,,,,,,,,,,,0.0,4.0,4.0,4.0,1.0,,,,,,,,,,
0.0,1.0,2.393425,,,,,,tennis_ball_06s.jpg,0.0,clockno_default.jpg,1.0,26,,,,,,,,,,,,,,,,,,0.0,5.0,5.0,5.0,1.0,,,,,,,,,,
0.0,1.0,2.458265,,,,,,perfume_06s.jpg,0.0,clockno_up.jpg,2.0,26,,,,,,,,,,,,,,,,,,0.0,6.0,6.0,6.0,1.0,,,,,,,,,,
1.0,0.0,2.423185,,,,,,pretzel_09s.jpg,0.0,clockno_default.jpg,2.0,26,,,,,,,,,,,,,,,,,,0.0,7.0,7.0,7.0,1.0,,,,,,,,,,
0.0,1.0,2.27132,,,,,,teapot_03s.jpg,0.0,clockno_default.jpg,2.0,26,,,,,,,,,,,,,,,,,,0.0,8.0,8.0,8.0,1.0,,,,,,,,,,
0.0,1.0,2.350705,,,,,,denture_03s.jpg,0.0,clockno_default.jpg,2.0,26,,,,,,,,,,,,,,,,,,0.0,9.0,9.0,9.0,1.0,,,,,,,,,,
0.0,1.0,2.284895,,,,,,mitten_10s.jpg,0.0,clockno_default.jpg,2.0,26,,,,,,,,,,,,,,,,,,0.0,10.0,10.0,10.0,1.0,,,,,,,,,,
0.0,1.0,2.302545,,,,,,pineapple_12s.jpg,0.0,clockno_up.jpg,3.0,26,,,,,,,,,,,,,,,,,,0.0,11.0,11.0,11.0,1.0,,,,,,,,,,
0.0,1.0,2.28752,,,,,,fire_pit_10s.jpg,0.0,clockno_default.jpg,3.0,26,,,,,,,,,,,,,,,,,,0.0,12.0,12.0,12.0,1.0,,,,,,,,,,
0.0,1.0,2.337855,,,,,,icemaker_10s.jpg,0.0,clockno_default.jpg,3.0,26,,,,,,,,,,,,,,,,,,0.0,13.0,13.0,13.0,1.0,,,,,,,,,,
0.0,1.0,2.303615,,,,,,denture_03s.jpg,0.0,clockno_default.jpg,3.0,26,,,,,,,,,,,,,,,,,,0.0,14.0,14.0,14.0,1.0,,,,,,,,,,
0.0,1.0,2.376185,,,,,,tomato_sauce_09s.jpg,0.0,clockno_default.jpg,3.0,26,,,,,,,,,,,,,,,,,,0.0,15.0,15.0,15.0,1.0,,,,,,,,,,
0.0,1.0,2.47677,,,,,,chalice_10s.jpg,0.0,clockno_up.jpg,4.0,26,,,,,,,,,,,,,,,,,,0.0,16.0,16.0,16.0,1.0,,,,,,,,,,
0.0,1.0,2.45133,,,,,,pepper_mill_03s.jpg,0.0,clockno_default.jpg,4.0,26,,,,,,,,,,,,,,,,,,0.0,17.0,17.0,17.0,1.0,,,,,,,,,,
0.0,1.0,2.378275,,,,,,pencil_sharpener_09n.jpg,0.0,clockno_default.jpg,4.0,26,,,,,,,,,,,,,,,,,,0.0,18.0,18.0,18.0,1.0,,,,,,,,,,
0.0,0.0,2.30705,,,,,,chalice_10s.jpg,1.0,clockno_default.jpg,4.0,26,,,,,,,,,,,,,,,,,,0.0,19.0,19.0,19.0,1.0,,,,,,,,,,
0.0,1.0,2.40087,,,,,,crossbow_10s.jpg,0.0,clockno_default.jpg,4.0,26,,,,,,,,,,,,,,,,,,0.0,20.0,20.0,20.0,1.0,,,,,,,,,,
0.0,1.0,2.443655,,,,,,tortilla_06s.jpg,0.0,clockno_default.jpg,4.0,26,,,,,,,,,,,,,,,,,,0.0,21.0,21.0,21.0,1.0,,,,,,,,,,
0.0,1.0,2.4456,,,,,,penlight_12s.jpg,0.0,clockno_default.jpg,4.0,26,,,,,,,,,,,,,,,,,,0.0,22.0,22.0,22.0,1.0,,,,,,,,,,
0.0,1.0,2.41637,,,,,,keyboard_05s.jpg,0.0,clockno_up.jpg,5.0,26,,,,,,,,,,,,,,,,,,0.0,23.0,23.0,23.0,1.0,,,,,,,,,,
1.0,1.0,2.37396,,,,,,keyboard_05s.jpg,1.0,clockno_default.jpg,5.0,26,,,,,,,,,,,,,,,,,,0.0,24.0,24.0,24.0,1.0,,,,,,,,,,
0.0,1.0,2.33256,,,,,,sparkler_02s.jpg,0.0,clockno_default.jpg,5.0,26,,,,,,,,,,,,,,,,,,0.0,25.0,25.0,25.0,1.0,,,,,,,,,,
0.0,1.0,2.37505,,,,,,pinwheel_06s.jpg,0.0,clockno_default.jpg,5.0,26,,,,,,,,,,,,,,,,,,0.0,26.0,26.0,26.0,1.0,,,,,,,,,,
0.0,1.0,2.34087,,,,,,frog_09s.jpg,0.0,clockno_default.jpg,5.0,26,,,,,,,,,,,,,,,,,,0.0,27.0,27.0,27.0,1.0,,,,,,,,,,
1.0,0.0,2.3674,,,,,,pepper_mill_03s.jpg,0.0,clockno_default.jpg,5.0,26,,,,,,,,,,,,,,,,,,0.0,28.0,28.0,28.0,1.0,,,,,,,,,,
0.0,1.0,2.341165,,,,,,gargoyle_08s.jpg,0.0,clockno_default.jpg,5.0,26,,,,,,,,,,,,,,,,,,0.0,29.0,29.0,29.0,1.0,,,,,,,,,,
0.0,1.0,2.311095,,,,,,rosary_03s.jpg,0.0,clockno_up.jpg,6.0,26,,,,,,,,,,,,,,,,,,0.0,30.0,30.0,30.0,1.0,,,,,,,,,,
1.0,1.0,2.357545,,,,,,rosary_03s.jpg,1.0,clockno_default.jpg,6.0,26,,,,,,,,,,,,,,,,,,0.0,31.0,31.0,31.0,1.0,,,,,,,,,,
0.0,1.0,2.357285,,,,,,chocolate_01b.jpg,0.0,clockno_default.jpg,6.0,26,,,,,,,,,,,,,,,,,,0.0,32.0,32.0,32.0,1.0,,,,,,,,,,
1.0,1.0,2.409105,,,,,,chocolate_01b.jpg,1.0,clockno_default.jpg,6.0,26,,,,,,,,,,,,,,,,,,0.0,33.0,33.0,33.0,1.0,,,,,,,,,,
0.0,1.0,2.29876,,,,,,raft_09s.jpg,0.0,clockno_default.jpg,6.0,26,,,,,,,,,,,,,,,,,,0.0,34.0,34.0,34.0,1.0,,,,,,,,,,
0.0,1.0,2.31105,,,,,,ravioli_08s.jpg,0.0,clockno_default.jpg,6.0,26,,,,,,,,,,,,,,,,,,0.0,35.0,35.0,35.0,1.0,,,,,,,,,,
,,,,,,,,,0.0,,,26,0.0,1.0,1.607265,,,,,,teapot_03s.jpg,tennis_ball_06s.jpg,,,,,,,,,,,,,0.0,0.0,0.0,0.0,1.0,,,,,
,,,,,,,,,1.0,,,26,1.0,1.0,1.684105,,,,,,mitten_10s.jpg,icemaker_10s.jpg,,,,,,,,,,,,,0.0,1.0,1.0,1.0,1.0,,,,,
,,,,,,,,,0.0,,,26,1.0,0.0,0.97791,,,,,,sparkler_02s.jpg,penlight_12s.jpg,,,,,,,,,,,,,0.0,2.0,2.0,2.0,1.0,,,,,
,,,,,,,,,1.0,,,26,0.0,0.0,0.954575,,,,,,pinwheel_06s.jpg,gargoyle_08s.jpg,,,,,,,,,,,,,0.0,3.0,3.0,3.0,1.0,,,,,
,,,,,,,,,1.0,,,26,0.0,0.0,1.080195,,,,,,fire_pit_10s.jpg,tomato_sauce_09s.jpg,,,,,,,,,,,,,0.0,4.0,4.0,4.0,1.0,,,,,
,,,,,,,,,1.0,,,26,1.0,1.0,1.572105,,,,,,pencil_sharpener_09n.jpg,tortilla_06s.jpg,,,,,,,,,,,,,0.0,5.0,5.0,5.0,1.0,,,,,
,,,,,,,,,,,,26,,,,,,,,,,,,,,,,clockno_present_1_14.xlsx,clockno_compare_task_1_14.xlsx,,,,,,,,,,,0.0,0.0,0.0,0.0,1.0
0.0,1.0,2.30369,,,,,,mousetrap_15n.jpg,0.0,clockno_up.jpg,1.0,26,,,,,,,,,,,,,,,,,,0.0,0.0,0.0,0.0,1.0,,,,,,,,,,
0.0,1.0,2.40931,,,,,,bee_20s.jpg,0.0,clockno_default.jpg,1.0,26,,,,,,,,,,,,,,,,,,0.0,1.0,1.0,1.0,1.0,,,,,,,,,,
1.0,1.0,2.40496,,,,,,bee_20s.jpg,1.0,clockno_default.jpg,1.0,26,,,,,,,,,,,,,,,,,,0.0,2.0,2.0,2.0,1.0,,,,,,,,,,
1.0,1.0,2.40553,,,,,,mousetrap_15n.jpg,1.0,clockno_default.jpg,1.0,26,,,,,,,,,,,,,,,,,,0.0,3.0,3.0,3.0,1.0,,,,,,,,,,
1.0,1.0,2.32456,,,,,,mousetrap_15n.jpg,1.0,clockno_default.jpg,1.0,26,,,,,,,,,,,,,,,,,,0.0,4.0,4.0,4.0,1.0,,,,,,,,,,
0.0,1.0,2.37058,,,,,,birdcage_08s.jpg,0.0,clockno_up.jpg,2.0,26,,,,,,,,,,,,,,,,,,0.0,5.0,5.0,5.0,1.0,,,,,,,,,,
0.0,1.0,2.374825,,,,,,recliner_02s.jpg,0.0,clockno_default.jpg,2.0,26,,,,,,,,,,,,,,,,,,0.0,6.0,6.0,6.0,1.0,,,,,,,,,,
0.0,1.0,2.43767,,,,,,plunger_08s.jpg,0.0,clockno_default.jpg,2.0,26,,,,,,,,,,,,,,,,,,0.0,7.0,7.0,7.0,1.0,,,,,,,,,,
0.0,1.0,2.406565,,,,,,marker_05s.jpg,0.0,clockno_default.jpg,2.0,26,,,,,,,,,,,,,,,,,,0.0,8.0,8.0,8.0,1.0,,,,,,,,,,
0.0,1.0,2.31783,,,,,,rocking_horse_03s.jpg,0.0,clockno_default.jpg,2.0,26,,,,,,,,,,,,,,,,,,0.0,9.0,9.0,9.0,1.0,,,,,,,,,,
0.0,1.0,2.277075,,,,,,tape_06s.jpg,0.0,clockno_default.jpg,2.0,26,,,,,,,,,,,,,,,,,,0.0,10.0,10.0,10.0,1.0,,,,,,,,,,
0.0,1.0,2.347945,,,,,,plaster_cast_13s.jpg,0.0,clockno_default.jpg,2.0,26,,,,,,,,,,,,,,,,,,0.0,11.0,11.0,11.0,1.0,,,,,,,,,,
0.0,1.0,2.331045,,,,,,diving_board_07s.jpg,0.0,clockno_up.jpg,3.0,26,,,,,,,,,,,,,,,,,,0.0,12.0,12.0,12.0,1.0,,,,,,,,,,
0.0,1.0,2.435715,,,,,,ring_03s.jpg,0.0,clockno_default.jpg,3.0,26,,,,,,,,,,,,,,,,,,0.0,13.0,13.0,13.0,1.0,,,,,,,,,,
0.0,1.0,2.303485,,,,,,lollipop_08s.jpg,0.0,clockno_default.jpg,3.0,26,,,,,,,,,,,,,,,,,,0.0,14.0,14.0,14.0,1.0,,,,,,,,,,
1.0,1.0,2.35306,,,,,,diving_board_07s.jpg,1.0,clockno_default.jpg,3.0,26,,,,,,,,,,,,,,,,,,0.0,15.0,15.0,15.0,1.0,,,,,,,,,,
1.0,0.0,2.43874,,,,,,marker_05s.jpg,0.0,clockno_default.jpg,3.0,26,,,,,,,,,,,,,,,,,,0.0,16.0,16.0,16.0,1.0,,,,,,,,,,
0.0,1.0,2.434895,,,,,,rooster_03s.jpg,0.0,clockno_default.jpg,3.0,26,,,,,,,,,,,,,,,,,,0.0,17.0,17.0,17.0,1.0,,,,,,,,,,
0.0,1.0,2.32308,,,,,,bolo_tie_08s.jpg,0.0,clockno_up.jpg,4.0,26,,,,,,,,,,,,,,,,,,0.0,18.0,18.0,18.0,1.0,,,,,,,,,,
1.0,1.0,2.332885,,,,,,bolo_tie_08s.jpg,1.0,clockno_default.jpg,4.0,26,,,,,,,,,,,,,,,,,,0.0,19.0,19.0,19.0,1.0,,,,,,,,,,
1.0,1.0,2.358985,,,,,,bolo_tie_08s.jpg,1.0,clockno_default.jpg,4.0,26,,,,,,,,,,,,,,,,,,0.0,20.0,20.0,20.0,1.0,,,,,,,,,,
0.0,1.0,2.326845,,,,,,lion_18s.jpg,0.0,clockno_default.jpg,4.0,26,,,,,,,,,,,,,,,,,,0.0,21.0,21.0,21.0,1.0,,,,,,,,,,
0.0,1.0,2.305295,,,,,,ladle_04s.jpg,0.0,clockno_default.jpg,4.0,26,,,,,,,,,,,,,,,,,,0.0,22.0,22.0,22.0,1.0,,,,,,,,,,
0.0,1.0,2.38343,,,,,,bank_06s.jpg,0.0,clockno_default.jpg,4.0,26,,,,,,,,,,,,,,,,,,0.0,23.0,23.0,23.0,1.0,,,,,,,,,,
0.0,1.0,2.31546,,,,,,turtleneck_11s.jpg,0.0,clockno_default.jpg,4.0,26,,,,,,,,,,,,,,,,,,0.0,24.0,24.0,24.0,1.0,,,,,,,,,,
0.0,1.0,2.382895,,,,,,funnel_01b.jpg,0.0,clockno_up.jpg,5.0,26,,,,,,,,,,,,,,,,,,0.0,25.0,25.0,25.0,1.0,,,,,,,,,,
0.0,1.0,2.47666,,,,,,antenna_01b.jpg,0.0,clockno_default.jpg,5.0,26,,,,,,,,,,,,,,,,,,0.0,26.0,26.0,26.0,1.0,,,,,,,,,,
0.0,1.0,2.44923,,,,,,juicer2_06s.jpg,0.0,clockno_default.jpg,5.0,26,,,,,,,,,,,,,,,,,,0.0,27.0,27.0,27.0,1.0,,,,,,,,,,
1.0,1.0,2.40128,,,,,,funnel_01b.jpg,1.0,clockno_default.jpg,5.0,26,,,,,,,,,,,,,,,,,,0.0,28.0,28.0,28.0,1.0,,,,,,,,,,
0.0,1.0,2.379385,,,,,,sunflower_17s.jpg,0.0,clockno_default.jpg,5.0,26,,,,,,,,,,,,,,,,,,0.0,29.0,29.0,29.0,1.0,,,,,,,,,,
0.0,1.0,2.330955,,,,,,crayon_09s.jpg,0.0,clockno_default.jpg,5.0,26,,,,,,,,,,,,,,,,,,0.0,30.0,30.0,30.0,1.0,,,,,,,,,,
0.0,1.0,2.324605,,,,,,gas_mask_11s.jpg,0.0,clockno_up.jpg,6.0,26,,,,,,,,,,,,,,,,,,0.0,31.0,31.0,31.0,1.0,,,,,,,,,,
0.0,1.0,2.31279,,,,,,inhaler_01b.jpg,0.0,clockno_default.jpg,6.0,26,,,,,,,,,,,,,,,,,,0.0,32.0,32.0,32.0,1.0,,,,,,,,,,
1.0,1.0,2.34202,,,,,,gas_mask_11s.jpg,1.0,clockno_default.jpg,6.0,26,,,,,,,,,,,,,,,,,,0.0,33.0,33.0,33.0,1.0,,,,,,,,,,
0.0,1.0,2.40822,,,,,,sunglasses_11s.jpg,0.0,clockno_default.jpg,6.0,26,,,,,,,,,,,,,,,,,,0.0,34.0,34.0,34.0,1.0,,,,,,,,,,
1.0,0.0,2.329505,,,,,,rooster_03s.jpg,0.0,clockno_default.jpg,6.0,26,,,,,,,,,,,,,,,,,,0.0,35.0,35.0,35.0,1.0,,,,,,,,,,
,,,,,,,,,1.0,,,26,0.0,0.0,0.90308,,,,,,plaster_cast_13s.jpg,lollipop_08s.jpg,,,,,,,,,,,,,0.0,0.0,0.0,0.0,1.0,,,,,
,,,,,,,,,1.0,,,26,0.0,0.0,1.142135,,,,,,tape_06s.jpg,ring_03s.jpg,,,,,,,,,,,,,0.0,1.0,1.0,1.0,1.0,,,,,
,,,,,,,,,1.0,,,26,0.0,0.0,1.31051,,,,,,bank_06s.jpg,antenna_01b.jpg,,,,,,,,,,,,,0.0,2.0,2.0,2.0,1.0,,,,,
,,,,,,,,,1.0,,,26,1.0,1.0,1.34739,,,,,,recliner_02s.jpg,rocking_horse_03s.jpg,,,,,,,,,,,,,0.0,3.0,3.0,3.0,1.0,,,,,
,,,,,,,,,0.0,,,26,0.0,1.0,1.46459,,,,,,turtleneck_11s.jpg,lion_18s.jpg,,,,,,,,,,,,,0.0,4.0,4.0,4.0,1.0,,,,,
,,,,,,,,,1.0,,,26,1.0,1.0,1.27516,,,,,,juicer2_06s.jpg,crayon_09s.jpg,,,,,,,,,,,,,0.0,5.0,5.0,5.0,1.0,,,,,
,,,,,,,,,,,,26,,,,,,,,,,,,,,,,clockno_present_2_14.xlsx,clockno_compare_task_2_14.xlsx,,,,,,,,,,,0.0,1.0,1.0,1.0,1.0
0.0,1.0,2.32582,,,,,,phone_01b.jpg,0.0,clockno_up.jpg,1.0,26,,,,,,,,,,,,,,,,,,0.0,0.0,0.0,0.0,1.0,,,,,,,,,,
1.0,1.0,2.306965,,,,,,phone_01b.jpg,1.0,clockno_default.jpg,1.0,26,,,,,,,,,,,,,,,,,,0.0,1.0,1.0,1.0,1.0,,,,,,,,,,
0.0,1.0,2.36559,,,,,,pan_02s.jpg,0.0,clockno_default.jpg,1.0,26,,,,,,,,,,,,,,,,,,0.0,2.0,2.0,2.0,1.0,,,,,,,,,,
0.0,1.0,2.466365,,,,,,turnstile_08s.jpg,0.0,clockno_default.jpg,1.0,26,,,,,,,,,,,,,,,,,,0.0,3.0,3.0,3.0,1.0,,,,,,,,,,
0.0,1.0,2.475585,,,,,,rolling_pin_02s.jpg,0.0,clockno_default.jpg,1.0,26,,,,,,,,,,,,,,,,,,0.0,4.0,4.0,4.0,1.0,,,,,,,,,,
0.0,1.0,2.111265,,,,,,rocket_02s.jpg,0.0,clockno_default.jpg,1.0,26,,,,,,,,,,,,,,,,,,0.0,5.0,5.0,5.0,1.0,,,,,,,,,,
0.0,1.0,2.41653,,,,,,cape_11s.jpg,0.0,clockno_default.jpg,1.0,26,,,,,,,,,,,,,,,,,,0.0,6.0,6.0,6.0,1.0,,,,,,,,,,
0.0,1.0,2.3052,,,,,,tube_top_03s.jpg,0.0,clockno_up.jpg,2.0,26,,,,,,,,,,,,,,,,,,0.0,7.0,7.0,7.0,1.0,,,,,,,,,,
0.0,1.0,2.28754,,,,,,gingerbread_man_03s.jpg,0.0,clockno_default.jpg,2.0,26,,,,,,,,,,,,,,,,,,0.0,8.0,8.0,8.0,1.0,,,,,,,,,,
0.0,1.0,2.470765,,,,,,bottle_opener_11s.jpg,0.0,clockno_default.jpg,2.0,26,,,,,,,,,,,,,,,,,,0.0,9.0,9.0,9.0,1.0,,,,,,,,,,
0.0,1.0,2.298145,,,,,,light_switch_02s.jpg,0.0,clockno_default.jpg,2.0,26,,,,,,,,,,,,,,,,,,0.0,10.0,10.0,10.0,1.0,,,,,,,,,,
1.0,1.0,2.38389,,,,,,gingerbread_man_03s.jpg,1.0,clockno_default.jpg,2.0,26,,,,,,,,,,,,,,,,,,0.0,11.0,11.0,11.0,1.0,,,,,,,,,,
0.0,1.0,2.409905,,,,,,turf_03s.jpg,0.0,clockno_up.jpg,3.0,26,,,,,,,,,,,,,,,,,,0.0,12.0,12.0,12.0,1.0,,,,,,,,,,
0.0,1.0,2.332345,,,,,,poinsettia_04s.jpg,0.0,clockno_default.jpg,3.0,26,,,,,,,,,,,,,,,,,,0.0,13.0,13.0,13.0,1.0,,,,,,,,,,
1.0,1.0,2.4389,,,,,,turf_03s.jpg,1.0,clockno_default.jpg,3.0,26,,,,,,,,,,,,,,,,,,0.0,14.0,14.0,14.0,1.0,,,,,,,,,,
0.0,1.0,2.305315,,,,,,quilt_03s.jpg,0.0,clockno_default.jpg,3.0,26,,,,,,,,,,,,,,,,,,0.0,15.0,15.0,15.0,1.0,,,,,,,,,,
1.0,0.0,2.41746,,,,,,tube_top_03s.jpg,0.0,clockno_default.jpg,3.0,26,,,,,,,,,,,,,,,,,,0.0,16.0,16.0,16.0,1.0,,,,,,,,,,
0.0,1.0,2.36847,,,,,,compass_10n.jpg,0.0,clockno_default.jpg,3.0,26,,,,,,,,,,,,,,,,,,0.0,17.0,17.0,17.0,1.0,,,,,,,,,,
0.0,1.0,2.385305,,,,,,fur_coat_11s.jpg,0.0,clockno_default.jpg,3.0,26,,,,,,,,,,,,,,,,,,0.0,18.0,18.0,18.0,1.0,,,,,,,,,,
0.0,1.0,2.30966,,,,,,squirt_gun_03s.jpg,0.0,clockno_up.jpg,4.0,26,,,,,,,,,,,,,,,,,,0.0,19.0,19.0,19.0,1.0,,,,,,,,,,
1.0,1.0,2.344065,,,,,,squirt_gun_03s.jpg,1.0,clockno_default.jpg,4.0,26,,,,,,,,,,,,,,,,,,0.0,20.0,20.0,20.0,1.0,,,,,,,,,,
0.0,1.0,2.46549,,,,,,candy_cane_06s.jpg,0.0,clockno_default.jpg,4.0,26,,,,,,,,,,,,,,,,,,0.0,21.0,21.0,21.0,1.0,,,,,,,,,,
1.0,0.0,2.414345,,,,,,boar_10s.jpg,0.0,clockno_default.jpg,4.0,26,,,,,,,,,,,,,,,,,,0.0,22.0,22.0,22.0,1.0,,,,,,,,,,
1.0,0.0,2.45208,,,,,,poinsettia_04s.jpg,0.0,clockno_default.jpg,4.0,26,,,,,,,,,,,,,,,,,,0.0,23.0,23.0,23.0,1.0,,,,,,,,,,
0.0,1.0,2.41046,,,,,,possum_09s.jpg,0.0,clockno_default.jpg,4.0,26,,,,,,,,,,,,,,,,,,0.0,24.0,24.0,24.0,1.0,,,,,,,,,,
0.0,1.0,2.31928,,,,,,cobra_05s.jpg,0.0,clockno_up.jpg,5.0,26,,,,,,,,,,,,,,,,,,0.0,25.0,25.0,25.0,1.0,,,,,,,,,,
0.0,1.0,2.478125,,,,,,chopsticks_08s.jpg,0.0,clockno_default.jpg,5.0,26,,,,,,,,,,,,,,,,,,0.0,26.0,26.0,26.0,1.0,,,,,,,,,,
0.0,1.0,2.303875,,,,,,fossil_06s.jpg,0.0,clockno_default.jpg,5.0,26,,,,,,,,,,,,,,,,,,0.0,27.0,27.0,27.0,1.0,,,,,,,,,,
1.0,1.0,2.369655,,,,,,fossil_06s.jpg,1.0,clockno_default.jpg,5.0,26,,,,,,,,,,,,,,,,,,0.0,28.0,28.0,28.0,1.0,,,,,,,,,,
0.0,1.0,2.43634,,,,,,padlock_07s.jpg,0.0,clockno_default.jpg,5.0,26,,,,,,,,,,,,,,,,,,0.0,29.0,29.0,29.0,1.0,,,,,,,,,,
0.0,1.0,1.893375,,,,,,soda_fountain_03s.jpg,0.0,clockno_up.jpg,6.0,26,,,,,,,,,,,,,,,,,,0.0,30.0,30.0,30.0,1.0,,,,,,,,,,
0.0,1.0,2.39935,,,,,,pipe1_10s.jpg,0.0,clockno_default.jpg,6.0,26,,,,,,,,,,,,,,,,,,0.0,31.0,31.0,31.0,1.0,,,,,,,,,,
0.0,1.0,2.458725,,,,,,loom_05s.jpg,0.0,clockno_default.jpg,6.0,26,,,,,,,,,,,,,,,,,,0.0,32.0,32.0,32.0,1.0,,,,,,,,,,
0.0,1.0,2.34602,,,,,,jersey_02s.jpg,0.0,clockno_default.jpg,6.0,26,,,,,,,,,,,,,,,,,,0.0,33.0,33.0,33.0,1.0,,,,,,,,,,
0.0,1.0,2.35742,,,,,,mop_08s.jpg,0.0,clockno_default.jpg,6.0,26,,,,,,,,,,,,,,,,,,0.0,34.0,34.0,34.0,1.0,,,,,,,,,,
0.0,1.0,2.298455,,,,,,puppet_01b.jpg,0.0,clockno_default.jpg,6.0,26,,,,,,,,,,,,,,,,,,0.0,35.0,35.0,35.0,1.0,,,,,,,,,,
,,,,,,,,,1.0,,,26,1.0,1.0,1.37857,,,,,,boar_10s.jpg,cobra_05s.jpg,,,,,,,,,,,,,0.0,0.0,0.0,0.0,1.0,,,,,
,,,,,,,,,0.0,,,26,0.0,1.0,1.094375,,,,,,bottle_opener_11s.jpg,cape_11s.jpg,,,,,,,,,,,,,0.0,1.0,1.0,1.0,1.0,,,,,
,,,,,,,,,0.0,,,26,1.0,0.0,1.172425,,,,,,candy_cane_06s.jpg,fur_coat_11s.jpg,,,,,,,,,,,,,0.0,2.0,2.0,2.0,1.0,,,,,
,,,,,,,,,0.0,,,26,0.0,1.0,1.15261,,,,,,rocket_02s.jpg,pan_02s.jpg,,,,,,,,,,,,,0.0,3.0,3.0,3.0,1.0,,,,,
,,,,,,,,,1.0,,,26,0.0,0.0,1.25383,,,,,,soda_fountain_03s.jpg,jersey_02s.jpg,,,,,,,,,,,,,0.0,4.0,4.0,4.0,1.0,,,,,
,,,,,,,,,0.0,,,26,1.0,0.0,1.17991,,,,,,mop_08s.jpg,pipe1_10s.jpg,,,,,,,,,,,,,0.0,5.0,5.0,5.0,1.0,,,,,
,,,,,,,,,,,,26,,,,,,,,,,,,,,,,clockno_present_3_14.xlsx,clockno_compare_task_3_14.xlsx,,,,,,,,,,,0.0,2.0,2.0,2.0,1.0
0.0,1.0,2.445925,,,,,,beard_16s.jpg,0.0,clockno_up.jpg,1.0,26,,,,,,,,,,,,,,,,,,0.0,0.0,0.0,0.0,1.0,,,,,,,,,,
1.0,1.0,2.340825,,,,,,beard_16s.jpg,1.0,clockno_default.jpg,1.0,26,,,,,,,,,,,,,,,,,,0.0,1.0,1.0,1.0,1.0,,,,,,,,,,
0.0,1.0,2.344585,,,,,,printer_09s.jpg,0.0,clockno_default.jpg,1.0,26,,,,,,,,,,,,,,,,,,0.0,2.0,2.0,2.0,1.0,,,,,,,,,,
0.0,1.0,2.339355,,,,,,juicer1_08s.jpg,0.0,clockno_default.jpg,1.0,26,,,,,,,,,,,,,,,,,,0.0,3.0,3.0,3.0,1.0,,,,,,,,,,
0.0,1.0,2.395975,,,,,,cotton_candy_01b.jpg,0.0,clockno_default.jpg,1.0,26,,,,,,,,,,,,,,,,,,0.0,4.0,4.0,4.0,1.0,,,,,,,,,,
0.0,1.0,2.319655,,,,,,tape_measure_11s.jpg,0.0,clockno_up.jpg,2.0,26,,,,,,,,,,,,,,,,,,0.0,5.0,5.0,5.0,1.0,,,,,,,,,,
1.0,0.0,2.337105,,,,,,beard_16s.jpg,0.0,clockno_default.jpg,2.0,26,,,,,,,,,,,,,,,,,,0.0,6.0,6.0,6.0,1.0,,,,,,,,,,
0.0,1.0,2.40303,,,,,,trampoline_13s.jpg,0.0,clockno_default.jpg,2.0,26,,,,,,,,,,,,,,,,,,0.0,7.0,7.0,7.0,1.0,,,,,,,,,,
1.0,1.0,2.38232,,,,,,trampoline_13s.jpg,1.0,clockno_default.jpg,2.0,26,,,,,,,,,,,,,,,,,,0.0,8.0,8.0,8.0,1.0,,,,,,,,,,
1.0,1.0,2.440825,,,,,,trampoline_13s.jpg,1.0,clockno_default.jpg,2.0,26,,,,,,,,,,,,,,,,,,0.0,9.0,9.0,9.0,1.0,,,,,,,,,,
0.0,1.0,2.45678,,,,,,kangaroo_02s.jpg,0.0,clockno_default.jpg,2.0,26,,,,,,,,,,,,,,,,,,0.0,10.0,10.0,10.0,1.0,,,,,,,,,,
0.0,1.0,2.298105,,,,,,mirror_12s.jpg,0.0,clockno_default.jpg,2.0,26,,,,,,,,,,,,,,,,,,0.0,11.0,11.0,11.0,1.0,,,,,,,,,,
0.0,1.0,2.327645,,,,,,powder_07s.jpg,0.0,clockno_up.jpg,3.0,26,,,,,,,,,,,,,,,,,,0.0,12.0,12.0,12.0,1.0,,,,,,,,,,
0.0,1.0,2.43643,,,,,,rollerskate_03s.jpg,0.0,clockno_default.jpg,3.0,26,,,,,,,,,,,,,,,,,,0.0,13.0,13.0,13.0,1.0,,,,,,,,,,
0.0,1.0,2.403235,,,,,,gear_07s.jpg,0.0,clockno_default.jpg,3.0,26,,,,,,,,,,,,,,,,,,0.0,14.0,14.0,14.0,1.0,,,,,,,,,,
0.0,1.0,2.328165,,,,,,playpen_11s.jpg,0.0,clockno_default.jpg,3.0,26,,,,,,,,,,,,,,,,,,0.0,15.0,15.0,15.0,1.0,,,,,,,,,,
1.0,1.0,2.31658,,,,,,playpen_11s.jpg,1.0,clockno_default.jpg,3.0,26,,,,,,,,,,,,,,,,,,0.0,16.0,16.0,16.0,1.0,,,,,,,,,,
0.0,1.0,2.360085,,,,,,keyhole_03s.jpg,0.0,clockno_up.jpg,4.0,26,,,,,,,,,,,,,,,,,,0.0,17.0,17.0,17.0,1.0,,,,,,,,,,
0.0,1.0,2.390105,,,,,,spoon02a.jpg,0.0,clockno_default.jpg,4.0,26,,,,,,,,,,,,,,,,,,0.0,18.0,18.0,18.0,1.0,,,,,,,,,,
0.0,1.0,2.41338,,,,,,mud_13s.jpg,0.0,clockno_default.jpg,4.0,26,,,,,,,,,,,,,,,,,,0.0,19.0,19.0,19.0,1.0,,,,,,,,,,
0.0,1.0,2.48024,,,,,,pea_11s.jpg,0.0,clockno_default.jpg,4.0,26,,,,,,,,,,,,,,,,,,0.0,20.0,20.0,20.0,1.0,,,,,,,,,,
1.0,1.0,2.32922,,,,,,spoon02a.jpg,1.0,clockno_default.jpg,4.0,26,,,,,,,,,,,,,,,,,,0.0,21.0,21.0,21.0,1.0,,,,,,,,,,
0.0,1.0,2.321825,,,,,,turtle_08s.jpg,0.0,clockno_default.jpg,4.0,26,,,,,,,,,,,,,,,,,,0.0,22.0,22.0,22.0,1.0,,,,,,,,,,
0.0,1.0,2.341555,,,,,,tattoo_14s.jpg,0.0,clockno_up.jpg,5.0,26,,,,,,,,,,,,,,,,,,0.0,23.0,23.0,23.0,1.0,,,,,,,,,,
0.0,1.0,2.364965,,,,,,mirror_12s.jpg,0.0,clockno_default.jpg,5.0,26,,,,,,,,,,,,,,,,,,0.0,24.0,24.0,24.0,1.0,,,,,,,,,,
0.0,1.0,2.432465,,,,,,tie_03s.jpg,0.0,clockno_default.jpg,5.0,26,,,,,,,,,,,,,,,,,,0.0,25.0,25.0,25.0,1.0,,,,,,,,,,
0.0,1.0,2.3421,,,,,,printer_09s.jpg,0.0,clockno_default.jpg,5.0,26,,,,,,,,,,,,,,,,,,0.0,26.0,26.0,26.0,1.0,,,,,,,,,,
0.0,1.0,2.383885,,,,,,roller_coaster_07s.jpg,0.0,clockno_default.jpg,5.0,26,,,,,,,,,,,,,,,,,,0.0,27.0,27.0,27.0,1.0,,,,,,,,,,
1.0,1.0,2.467755,,,,,,tattoo_14s.jpg,1.0,clockno_default.jpg,5.0,26,,,,,,,,,,,,,,,,,,0.0,28.0,28.0,28.0,1.0,,,,,,,,,,
0.0,1.0,2.350545,,,,,,toy_04s.jpg,0.0,clockno_default.jpg,5.0,26,,,,,,,,,,,,,,,,,,0.0,29.0,29.0,29.0,1.0,,,,,,,,,,
0.0,1.0,2.393945,,,,,,projector_08s.jpg,0.0,clockno_up.jpg,6.0,26,,,,,,,,,,,,,,,,,,0.0,30.0,30.0,30.0,1.0,,,,,,,,,,
0.0,1.0,2.446485,,,,,,ink_08s.jpg,0.0,clockno_default.jpg,6.0,26,,,,,,,,,,,,,,,,,,0.0,31.0,31.0,31.0,1.0,,,,,,,,,,
0.0,1.0,2.44225,,,,,,teabag_12s.jpg,0.0,clockno_default.jpg,6.0,26,,,,,,,,,,,,,,,,,,0.0,32.0,32.0,32.0,1.0,,,,,,,,,,
0.0,1.0,2.318625,,,,,,tongs_08s.jpg,0.0,clockno_default.jpg,6.0,26,,,,,,,,,,,,,,,,,,0.0,33.0,33.0,33.0,1.0,,,,,,,,,,
0.0,1.0,2.295625,,,,,,power_line_08s.jpg,0.0,clockno_default.jpg,6.0,26,,,,,,,,,,,,,,,,,,0.0,34.0,34.0,34.0,1.0,,,,,,,,,,
0.0,1.0,2.186885,,,,,,margarita_03s.jpg,0.0,clockno_default.jpg,6.0,26,,,,,,,,,,,,,,,,,,0.0,35.0,35.0,35.0,1.0,,,,,,,,,,
,,,,,,,,,0.0,,,26,0.0,1.0,1.04838,,,,,,rollerskate_03s.jpg,kangaroo_02s.jpg,,,,,,,,,,,,,0.0,0.0,0.0,0.0,1.0,,,,,
,,,,,,,,,0.0,,,26,1.0,0.0,0.8638,,,,,,keyhole_03s.jpg,gear_07s.jpg,,,,,,,,,,,,,0.0,1.0,1.0,1.0,1.0,,,,,
,,,,,,,,,0.0,,,26,0.0,1.0,1.0604,,,,,,tie_03s.jpg,turtle_08s.jpg,,,,,,,,,,,,,0.0,2.0,2.0,2.0,1.0,,,,,
,,,,,,,,,1.0,,,26,0.0,0.0,1.091235,,,,,,ink_08s.jpg,power_line_08s.jpg,,,,,,,,,,,,,0.0,3.0,3.0,3.0,1.0,,,,,
,,,,,,,,,0.0,,,26,1.0,0.0,1.1066,,,,,,tongs_08s.jpg,projector_08s.jpg,,,,,,,,,,,,,0.0,4.0,4.0,4.0,1.0,,,,,
,,,,,,,,,1.0,,,26,0.0,0.0,2.100705,,,,,,teabag_12s.jpg,margarita_03s.jpg,,,,,,,,,,,,,0.0,5.0,5.0,5.0,1.0,,,,,
,,,,,,,,,,,,26,,,,,,,,,,,,,,,,clockno_present_4_14.xlsx,clockno_compare_task_4_14.xlsx,,,,,,,,,,,0.0,3.0,3.0,3.0,1.0
0.0,1.0,2.40552,,,,,,camcorder_10s.jpg,0.0,clockno_up.jpg,1.0,26,,,,,,,,,,,,,,,,,,0.0,0.0,0.0,0.0,1.0,,,,,,,,,,
0.0,1.0,2.36461,,,,,,mixer_12s.jpg,0.0,clockno_default.jpg,1.0,26,,,,,,,,,,,,,,,,,,0.0,1.0,1.0,1.0,1.0,,,,,,,,,,
0.0,1.0,2.26018,,,,,,comic_book_02s.jpg,0.0,clockno_default.jpg,1.0,26,,,,,,,,,,,,,,,,,,0.0,2.0,2.0,2.0,1.0,,,,,,,,,,
0.0,1.0,2.456645,,,,,,treasure_08s.jpg,0.0,clockno_default.jpg,1.0,26,,,,,,,,,,,,,,,,,,0.0,3.0,3.0,3.0,1.0,,,,,,,,,,
1.0,1.0,2.427645,,,,,,treasure_08s.jpg,1.0,clockno_default.jpg,1.0,26,,,,,,,,,,,,,,,,,,0.0,4.0,4.0,4.0,1.0,,,,,,,,,,
0.0,1.0,2.396975,,,,,,metronome_03s.jpg,0.0,clockno_default.jpg,1.0,26,,,,,,,,,,,,,,,,,,0.0,5.0,5.0,5.0,1.0,,,,,,,,,,
1.0,1.0,2.341735,,,,,,treasure_08s.jpg,1.0,clockno_default.jpg,1.0,26,,,,,,,,,,,,,,,,,,0.0,6.0,6.0,6.0,1.0,,,,,,,,,,
0.0,1.0,2.31453,,,,,,golf_club_03s.jpg,0.0,clockno_up.jpg,2.0,26,,,,,,,,,,,,,,,,,,0.0,7.0,7.0,7.0,1.0,,,,,,,,,,
0.0,1.0,2.45615,,,,,,ruby_15s.jpg,0.0,clockno_default.jpg,2.0,26,,,,,,,,,,,,,,,,,,0.0,8.0,8.0,8.0,1.0,,,,,,,,,,
0.0,1.0,2.4064,,,,,,purse_05s.jpg,0.0,clockno_default.jpg,2.0,26,,,,,,,,,,,,,,,,,,0.0,9.0,9.0,9.0,1.0,,,,,,,,,,
0.0,1.0,2.48244,,,,,,top_hat_11s.jpg,0.0,clockno_default.jpg,2.0,26,,,,,,,,,,,,,,,,,,0.0,10.0,10.0,10.0,1.0,,,,,,,,,,
0.0,1.0,2.359605,,,,,,peach_04s.jpg,0.0,clockno_default.jpg,2.0,26,,,,,,,,,,,,,,,,,,0.0,11.0,11.0,11.0,1.0,,,,,,,,,,
0.0,1.0,2.45929,,,,,,coffee_filter_10s.jpg,0.0,clockno_up.jpg,3.0,26,,,,,,,,,,,,,,,,,,0.0,12.0,12.0,12.0,1.0,,,,,,,,,,
0.0,1.0,2.370105,,,,,,tiger_06s.jpg,0.0,clockno_default.jpg,3.0,26,,,,,,,,,,,,,,,,,,0.0,13.0,13.0,13.0,1.0,,,,,,,,,,
0.0,1.0,2.35361,,,,,,feather02.jpg,0.0,clockno_default.jpg,3.0,26,,,,,,,,,,,,,,,,,,0.0,14.0,14.0,14.0,1.0,,,,,,,,,,
0.0,1.0,2.24901,,,,,,coral_08s.jpg,0.0,clockno_default.jpg,3.0,26,,,,,,,,,,,,,,,,,,0.0,15.0,15.0,15.0,1.0,,,,,,,,,,
0.0,1.0,2.388845,,,,,,knitting_needle_04s.jpg,0.0,clockno_default.jpg,3.0,26,,,,,,,,,,,,,,,,,,0.0,16.0,16.0,16.0,1.0,,,,,,,,,,
0.0,1.0,2.38678,,,,,,coat_rack_01b.jpg,0.0,clockno_up.jpg,4.0,26,,,,,,,,,,,,,,,,,,0.0,17.0,17.0,17.0,1.0,,,,,,,,,,
0.0,1.0,2.26071,,,,,,coral_08s.jpg,0.0,clockno_default.jpg,4.0,26,,,,,,,,,,,,,,,,,,0.0,18.0,18.0,18.0,1.0,,,,,,,,,,
1.0,0.0,2.330905,,,,,,knitting_needle_04s.jpg,0.0,clockno_default.jpg,4.0,26,,,,,,,,,,,,,,,,,,0.0,19.0,19.0,19.0,1.0,,,,,,,,,,
1.0,1.0,2.42476,,,,,,coat_rack_01b.jpg,1.0,clockno_default.jpg,4.0,26,,,,,,,,,,,,,,,,,,0.0,20.0,20.0,20.0,1.0,,,,,,,,,,
0.0,1.0,2.35438,,,,,,pacifier_09s.jpg,0.0,clockno_default.jpg,4.0,26,,,,,,,,,,,,,,,,,,0.0,21.0,21.0,21.0,1.0,,,,,,,,,,
1.0,0.0,2.401495,,,,,,ruby_15s.jpg,0.0,clockno_default.jpg,4.0,26,,,,,,,,,,,,,,,,,,0.0,22.0,22.0,22.0,1.0,,,,,,,,,,
0.0,1.0,2.312495,,,,,,rocking_chair_05s.jpg,0.0,clockno_up.jpg,5.0,26,,,,,,,,,,,,,,,,,,0.0,23.0,23.0,23.0,1.0,,,,,,,,,,
0.0,1.0,2.43879,,,,,,binder_21s.jpg,0.0,clockno_default.jpg,5.0,26,,,,,,,,,,,,,,,,,,0.0,24.0,24.0,24.0,1.0,,,,,,,,,,
0.0,1.0,2.284205,,,,,,rudder_02s.jpg,0.0,clockno_default.jpg,5.0,26,,,,,,,,,,,,,,,,,,0.0,25.0,25.0,25.0,1.0,,,,,,,,,,
0.0,1.0,2.467195,,,,,,totem_pole_05s.jpg,0.0,clockno_default.jpg,5.0,26,,,,,,,,,,,,,,,,,,0.0,26.0,26.0,26.0,1.0,,,,,,,,,,
1.0,1.0,2.46393,,,,,,totem_pole_05s.jpg,1.0,clockno_default.jpg,5.0,26,,,,,,,,,,,,,,,,,,0.0,27.0,27.0,27.0,1.0,,,,,,,,,,
0.0,1.0,2.3098,,,,,,memory_stick_11s.jpg,0.0,clockno_default.jpg,5.0,26,,,,,,,,,,,,,,,,,,0.0,28.0,28.0,28.0,1.0,,,,,,,,,,
0.0,1.0,2.414125,,,,,,slingshot_07s.jpg,0.0,clockno_up.jpg,6.0,26,,,,,,,,,,,,,,,,,,0.0,29.0,29.0,29.0,1.0,,,,,,,,,,
1.0,1.0,2.451835,,,,,,slingshot_07s.jpg,1.0,clockno_default.jpg,6.0,26,,,,,,,,,,,,,,,,,,0.0,30.0,30.0,30.0,1.0,,,,,,,,,,
0.0,1.0,2.391235,,,,,,duck_01b.jpg,0.0,clockno_default.jpg,6.0,26,,,,,,,,,,,,,,,,,,0.0,31.0,31.0,31.0,1.0,,,,,,,,,,
0.0,1.0,2.419145,,,,,,fox_13s.jpg,0.0,clockno_default.jpg,6.0,26,,,,,,,,,,,,,,,,,,0.0,32.0,32.0,32.0,1.0,,,,,,,,,,
0.0,1.0,2.38508,,,,,,popcorn_09s.jpg,0.0,clockno_default.jpg,6.0,26,,,,,,,,,,,,,,,,,,0.0,33.0,33.0,33.0,1.0,,,,,,,,,,
1.0,1.0,2.41708,,,,,,duck_01b.jpg,1.0,clockno_default.jpg,6.0,26,,,,,,,,,,,,,,,,,,0.0,34.0,34.0,34.0,1.0,,,,,,,,,,
0.0,1.0,2.378605,,,,,,stamp2_08s.jpg,0.0,clockno_default.jpg,6.0,26,,,,,,,,,,,,,,,,,,0.0,35.0,35.0,35.0,1.0,,,,,,,,,,
,,,,,,,,,0.0,,,26,1.0,0.0,1.02841,,,,,,coffee_filter_10s.jpg,purse_05s.jpg,,,,,,,,,,,,,0.0,0.0,0.0,0.0,1.0,,,,,
,,,,,,,,,1.0,,,26,1.0,1.0,1.03877,,,,,,peach_04s.jpg,feather02.jpg,,,,,,,,,,,,,0.0,1.0,1.0,1.0,1.0,,,,,
,,,,,,,,,0.0,,,26,0.0,1.0,0.91072,,,,,,binder_21s.jpg,pacifier_09s.jpg,,,,,,,,,,,,,0.0,2.0,2.0,2.0,1.0,,,,,
,,,,,,,,,1.0,,,26,1.0,1.0,0.681685,,,,,,comic_book_02s.jpg,metronome_03s.jpg,,,,,,,,,,,,,0.0,3.0,3.0,3.0,1.0,,,,,
,,,,,,,,,1.0,,,26,1.0,1.0,1.429505,,,,,,rudder_02s.jpg,memory_stick_11s.jpg,,,,,,,,,,,,,0.0,4.0,4.0,4.0,1.0,,,,,
,,,,,,,,,0.0,,,26,1.0,0.0,1.02995,,,,,,stamp2_08s.jpg,fox_13s.jpg,,,,,,,,,,,,,0.0,5.0,5.0,5.0,1.0,,,,,
,,,,,,,,,,,,26,,,,,,,,,,,,,,,,clockno_present_5_14.xlsx,clockno_compare_task_5_14.xlsx,,,,,,,,,,,0.0,4.0,4.0,4.0,1.0
0.0,1.0,2.391965,,,,,,popsicle_02s.jpg,0.0,clockno_up.jpg,1.0,26,,,,,,,,,,,,,,,,,,0.0,0.0,0.0,0.0,1.0,,,,,,,,,,
0.0,1.0,2.390565,,,,,,emerald_02s.jpg,0.0,clockno_default.jpg,1.0,26,,,,,,,,,,,,,,,,,,0.0,1.0,1.0,1.0,1.0,,,,,,,,,,
1.0,1.0,2.369795,,,,,,popsicle_02s.jpg,1.0,clockno_default.jpg,1.0,26,,,,,,,,,,,,,,,,,,0.0,2.0,2.0,2.0,1.0,,,,,,,,,,
0.0,1.0,2.48247,,,,,,glue_01s.jpg,0.0,clockno_default.jpg,1.0,26,,,,,,,,,,,,,,,,,,0.0,3.0,3.0,3.0,1.0,,,,,,,,,,
1.0,1.0,2.283675,,,,,,popsicle_02s.jpg,1.0,clockno_default.jpg,1.0,26,,,,,,,,,,,,,,,,,,0.0,4.0,4.0,4.0,1.0,,,,,,,,,,
1.0,1.0,2.380835,,,,,,emerald_02s.jpg,1.0,clockno_default.jpg,1.0,26,,,,,,,,,,,,,,,,,,0.0,5.0,5.0,5.0,1.0,,,,,,,,,,
0.0,1.0,2.450785,,,,,,pillbox_04s.jpg,0.0,clockno_up.jpg,2.0,26,,,,,,,,,,,,,,,,,,0.0,6.0,6.0,6.0,1.0,,,,,,,,,,
0.0,1.0,2.419515,,,,,,scooter.jpg,0.0,clockno_default.jpg,2.0,26,,,,,,,,,,,,,,,,,,0.0,7.0,7.0,7.0,1.0,,,,,,,,,,
0.0,1.0,2.29198,,,,,,cardinal_07s.jpg,0.0,clockno_default.jpg,2.0,26,,,,,,,,,,,,,,,,,,0.0,8.0,8.0,8.0,1.0,,,,,,,,,,
1.0,1.0,2.429865,,,,,,cardinal_07s.jpg,1.0,clockno_default.jpg,2.0,26,,,,,,,,,,,,,,,,,,0.0,9.0,9.0,9.0,1.0,,,,,,,,,,
0.0,1.0,2.301875,,,,,,chip_04s.jpg,0.0,clockno_default.jpg,2.0,26,,,,,,,,,,,,,,,,,,0.0,10.0,10.0,10.0,1.0,,,,,,,,,,
0.0,1.0,2.37883,,,,,,owl_15s.jpg,0.0,clockno_up.jpg,3.0,26,,,,,,,,,,,,,,,,,,0.0,11.0,11.0,11.0,1.0,,,,,,,,,,
1.0,1.0,2.37316,,,,,,owl_15s.jpg,1.0,clockno_default.jpg,3.0,26,,,,,,,,,,,,,,,,,,0.0,12.0,12.0,12.0,1.0,,,,,,,,,,
0.0,1.0,2.44741,,,,,,mango_09s.jpg,0.0,clockno_default.jpg,3.0,26,,,,,,,,,,,,,,,,,,0.0,13.0,13.0,13.0,1.0,,,,,,,,,,
0.0,1.0,2.32999,,,,,,pantyhose_07s.jpg,0.0,clockno_default.jpg,3.0,26,,,,,,,,,,,,,,,,,,0.0,14.0,14.0,14.0,1.0,,,,,,,,,,
0.0,1.0,2.3747,,,,,,coconut_08s.jpg,0.0,clockno_default.jpg,3.0,26,,,,,,,,,,,,,,,,,,0.0,15.0,15.0,15.0,1.0,,,,,,,,,,
0.0,1.0,2.47459,,,,,,potholder_02s.jpg,0.0,clockno_default.jpg,3.0,26,,,,,,,,,,,,,,,,,,0.0,16.0,16.0,16.0,1.0,,,,,,,,,,
0.0,1.0,2.368785,,,,,,solar_panel_02s.jpg,0.0,clockno_up.jpg,4.0,26,,,,,,,,,,,,,,,,,,0.0,17.0,17.0,17.0,1.0,,,,,,,,,,
0.0,1.0,2.410685,,,,,,touchpad_11s.jpg,0.0,clockno_default.jpg,4.0,26,,,,,,,,,,,,,,,,,,0.0,18.0,18.0,18.0,1.0,,,,,,,,,,
0.0,1.0,2.37859,,,,,,rice_12s.jpg,0.0,clockno_default.jpg,4.0,26,,,,,,,,,,,,,,,,,,0.0,19.0,19.0,19.0,1.0,,,,,,,,,,
0.0,1.0,2.348015,,,,,,machete_06s.jpg,0.0,clockno_default.jpg,4.0,26,,,,,,,,,,,,,,,,,,0.0,20.0,20.0,20.0,1.0,,,,,,,,,,
1.0,1.0,2.43169,,,,,,touchpad_11s.jpg,1.0,clockno_default.jpg,4.0,26,,,,,,,,,,,,,,,,,,0.0,21.0,21.0,21.0,1.0,,,,,,,,,,
0.0,1.0,2.392115,,,,,,trumpet_06s.jpg,0.0,clockno_default.jpg,4.0,26,,,,,,,,,,,,,,,,,,0.0,22.0,22.0,22.0,1.0,,,,,,,,,,
1.0,1.0,2.306355,,,,,,touchpad_11s.jpg,1.0,clockno_default.jpg,4.0,26,,,,,,,,,,,,,,,,,,0.0,23.0,23.0,23.0,1.0,,,,,,,,,,
0.0,1.0,2.409845,,,,,,lamb_04s.jpg,0.0,clockno_up.jpg,5.0,26,,,,,,,,,,,,,,,,,,0.0,24.0,24.0,24.0,1.0,,,,,,,,,,
0.0,1.0,2.36329,,,,,,cucumber_07s.jpg,0.0,clockno_default.jpg,5.0,26,,,,,,,,,,,,,,,,,,0.0,25.0,25.0,25.0,1.0,,,,,,,,,,
0.0,1.0,2.31418,,,,,,police_car_01s.jpg,0.0,clockno_default.jpg,5.0,26,,,,,,,,,,,,,,,,,,0.0,26.0,26.0,26.0,1.0,,,,,,,,,,
0.0,1.0,2.430055,,,,,,latte_06s.jpg,0.0,clockno_default.jpg,5.0,26,,,,,,,,,,,,,,,,,,0.0,27.0,27.0,27.0,1.0,,,,,,,,,,
1.0,1.0,2.36398,,,,,,police_car_01s.jpg,1.0,clockno_default.jpg,5.0,26,,,,,,,,,,,,,,,,,,0.0,28.0,28.0,28.0,1.0,,,,,,,,,,
0.0,1.0,2.327125,,,,,,crab_16s.jpg,0.0,clockno_default.jpg,5.0,26,,,,,,,,,,,,,,,,,,0.0,29.0,29.0,29.0,1.0,,,,,,,,,,
0.0,1.0,2.41052,,,,,,toaster_03s.jpg,0.0,clockno_default.jpg,5.0,26,,,,,,,,,,,,,,,,,,0.0,30.0,30.0,30.0,1.0,,,,,,,,,,
0.0,1.0,2.478485,,,,,,parachute_03s.jpg,0.0,clockno_up.jpg,6.0,26,,,,,,,,,,,,,,,,,,0.0,31.0,31.0,31.0,1.0,,,,,,,,,,
0.0,1.0,2.307785,,,,,,punch2_09s.jpg,0.0,clockno_default.jpg,6.0,26,,,,,,,,,,,,,,,,,,0.0,32.0,32.0,32.0,1.0,,,,,,,,,,
1.0,0.0,2.28113,,,,,,touchpad_11s.jpg,0.0,clockno_default.jpg,6.0,26,,,,,,,,,,,,,,,,,,0.0,33.0,33.0,33.0,1.0,,,,,,,,,,
0.0,1.0,2.46897,,,,,,ginger_09s.jpg,0.0,clockno_default.jpg,6.0,26,,,,,,,,,,,,,,,,,,0.0,34.0,34.0,34.0,1.0,,,,,,,,,,
1.0,1.0,2.26151,,,,,,ginger_09s.jpg,1.0,clockno_default.jpg,6.0,26,,,,,,,,,,,,,,,,,,0.0,35.0,35.0,35.0,1.0,,,,,,,,,,
,,,,,,,,,1.0,,,26,1.0,1.0,1.969775,,,,,,glue_01s.jpg,pillbox_04s.jpg,,,,,,,,,,,,,0.0,0.0,0.0,0.0,1.0,,,,,
,,,,,,,,,0.0,,,26,1.0,0.0,1.168215,,,,,,punch2_09s.jpg,crab_16s.jpg,,,,,,,,,,,,,0.0,1.0,1.0,1.0,1.0,,,,,
,,,,,,,,,0.0,,,26,0.0,1.0,1.58422,,,,,,solar_panel_02s.jpg,pantyhose_07s.jpg,,,,,,,,,,,,,0.0,2.0,2.0,2.0,1.0,,,,,
,,,,,,,,,0.0,,,26,1.0,0.0,1.546125,,,,,,latte_06s.jpg,lamb_04s.jpg,,,,,,,,,,,,,0.0,3.0,3.0,3.0,1.0,,,,,
,,,,,,,,,1.0,,,26,0.0,0.0,1.218565,,,,,,scooter.jpg,chip_04s.jpg,,,,,,,,,,,,,0.0,4.0,4.0,4.0,1.0,,,,,
,,,,,,,,,1.0,,,26,1.0,1.0,1.0895,,,,,,mango_09s.jpg,potholder_02s.jpg,,,,,,,,,,,,,0.0,5.0,5.0,5.0,1.0,,,,,
