key_resp.keys,key_resp.corr,key_resp.rt,present_segment.thisRepN,present_segment.thisTrialN,present_segment.thisN,present_segment.thisIndex,present_segment.ran,pictures,answer,clock,segment,participant,key_resp_2.keys,key_resp_2.corr,key_resp_2.rt,compare_segment.thisRepN,compare_segment.thisTrialN,compare_segment.thisN,compare_segment.thisIndex,compare_segment.ran,item_a,item_b,clock_conditions.thisRepN,clock_conditions.thisTrialN,clock_conditions.thisN,clock_conditions.thisIndex,clock_conditions.ran,present,compare,noclock_present.thisRepN,noclock_present.thisTrialN,noclock_present.thisN,noclock_present.thisIndex,noclock_present.ran,noclock_compare.thisRepN,noclock_compare.thisTrialN,noclock_compare.thisN,noclock_compare.thisIndex,noclock_compare.ran,noclock_conditions.thisRepN,noclock_conditions.thisTrialN,noclock_conditions.thisN,noclock_conditions.thisIndex,noclock_conditions.ran
0.0,1.0,0.92621,0.0,0.0,0.0,0.0,1.0,undershirt_02s.jpg,0.0,clock_5_1.png,1.0,65,,,,,,,,,,,,,,,,,,,,,,,,,,,,,,,,
0.0,1.0,1.470995,0.0,1.0,1.0,1.0,1.0,ladder_15s.jpg,0.0,clock_5_2.png,1.0,65,,,,,,,,,,,,,,,,,,,,,,,,,,,,,,,,
0.0,1.0,1.3173,0.0,2.0,2.0,2.0,1.0,lantern_04s.jpg,0.0,clock_5_3.png,1.0,65,,,,,,,,,,,,,,,,,,,,,,,,,,,,,,,,
0.0,1.0,0.73759,0.0,3.0,3.0,3.0,1.0,cap_05s.jpg,0.0,clock_5_4.png,1.0,65,,,,,,,,,,,,,,,,,,,,,,,,,,,,,,,,
0.0,1.0,0.745545,0.0,4.0,4.0,4.0,1.0,boar_10s.jpg,0.0,clock_5_5.png,1.0,65,,,,,,,,,,,,,,,,,,,,,,,,,,,,,,,,
0.0,1.0,1.34565,0.0,5.0,5.0,5.0,1.0,ring_03s.jpg,0.0,clock_7_1.png,2.0,65,,,,,,,,,,,,,,,,,,,,,,,,,,,,,,,,
0.0,1.0,1.065545,0.0,6.0,6.0,6.0,1.0,kimono_13s.jpg,0.0,clock_7_2.png,2.0,65,,,,,,,,,,,,,,,,,,,,,,,,,,,,,,,,
0.0,1.0,0.712385,0.0,7.0,7.0,7.0,1.0,pacifier_09s.jpg,0.0,clock_7_3.png,2.0,65,,,,,,,,,,,,,,,,,,,,,,,,,,,,,,,,
0.0,1.0,0.91986,0.0,8.0,8.0,8.0,1.0,cape_11s.jpg,0.0,clock_7_4.png,2.0,65,,,,,,,,,,,,,,,,,,,,,,,,,,,,,,,,
0.0,1.0,0.69415,0.0,9.0,9.0,9.0,1.0,spider_web_03s.jpg,0.0,clock_7_5.png,2.0,65,,,,,,,,,,,,,,,,,,,,,,,,,,,,,,,,
0.0,1.0,0.859895,0.0,10.0,10.0,10.0,1.0,pancake_12s.jpg,0.0,clock_7_6.png,2.0,65,,,,,,,,,,,,,,,,,,,,,,,,,,,,,,,,
1.0,1.0,1.31405,0.0,11.0,11.0,11.0,1.0,pancake_12s.jpg,1.0,clock_7_7.png,2.0,65,,,,,,,,,,,,,,,,,,,,,,,,,,,,,,,,
0.0,1.0,0.72795,0.0,12.0,12.0,12.0,1.0,tulip_02s.jpg,0.0,clock_6_1.png,3.0,65,,,,,,,,,,,,,,,,,,,,,,,,,,,,,,,,
0.0,1.0,1.25725,0.0,13.0,13.0,13.0,1.0,pacifier_09s.jpg,0.0,clock_6_2.png,3.0,65,,,,,,,,,,,,,,,,,,,,,,,,,,,,,,,,
0.0,1.0,0.701605,0.0,14.0,14.0,14.0,1.0,gas_mask_11s.jpg,0.0,clock_6_3.png,3.0,65,,,,,,,,,,,,,,,,,,,,,,,,,,,,,,,,
0.0,1.0,0.783285,0.0,15.0,15.0,15.0,1.0,torch_02s.jpg,0.0,clock_6_4.png,3.0,65,,,,,,,,,,,,,,,,,,,,,,,,,,,,,,,,
0.0,1.0,0.929985,0.0,16.0,16.0,16.0,1.0,powder_07s.jpg,0.0,clock_6_5.png,3.0,65,,,,,,,,,,,,,,,,,,,,,,,,,,,,,,,,
0.0,1.0,1.249925,0.0,17.0,17.0,17.0,1.0,lamppost_09s.jpg,0.0,clock_6_6.png,3.0,65,,,,,,,,,,,,,,,,,,,,,,,,,,,,,,,,
0.0,1.0,0.952625,0.0,18.0,18.0,18.0,1.0,rug_09s.jpg,0.0,clock_7_1.png,4.0,65,,,,,,,,,,,,,,,,,,,,,,,,,,,,,,,,
1.0,1.0,1.158565,0.0,19.0,19.0,19.0,1.0,rug_09s.jpg,1.0,clock_7_2.png,4.0,65,,,,,,,,,,,,,,,,,,,,,,,,,,,,,,,,
0.0,1.0,0.8812,0.0,20.0,20.0,20.0,1.0,pencil_sharpener_09n.jpg,0.0,clock_7_3.png,4.0,65,,,,,,,,,,,,,,,,,,,,,,,,,,,,,,,,
0.0,1.0,0.66764,0.0,21.0,21.0,21.0,1.0,trumpet_06s.jpg,0.0,clock_7_4.png,4.0,65,,,,,,,,,,,,,,,,,,,,,,,,,,,,,,,,
0.0,1.0,1.08392,0.0,22.0,22.0,22.0,1.0,typewriter_11s.jpg,0.0,clock_7_5.png,4.0,65,,,,,,,,,,,,,,,,,,,,,,,,,,,,,,,,
0.0,1.0,0.874535,0.0,23.0,23.0,23.0,1.0,swan_11s.jpg,0.0,clock_7_6.png,4.0,65,,,,,,,,,,,,,,,,,,,,,,,,,,,,,,,,
0.0,1.0,1.375585,0.0,24.0,24.0,24.0,1.0,torch_02s.jpg,0.0,clock_7_7.png,4.0,65,,,,,,,,,,,,,,,,,,,,,,,,,,,,,,,,
0.0,1.0,1.686165,0.0,25.0,25.0,25.0,1.0,submarine_11n.jpg,0.0,clock_6_1.png,5.0,65,,,,,,,,,,,,,,,,,,,,,,,,,,,,,,,,
0.0,1.0,1.04995,0.0,26.0,26.0,26.0,1.0,popcorn_09s.jpg,0.0,clock_6_2.png,5.0,65,,,,,,,,,,,,,,,,,,,,,,,,,,,,,,,,
0.0,1.0,1.48836,0.0,27.0,27.0,27.0,1.0,turnstile_08s.jpg,0.0,clock_6_3.png,5.0,65,,,,,,,,,,,,,,,,,,,,,,,,,,,,,,,,
0.0,1.0,1.4791,0.0,28.0,28.0,28.0,1.0,printer_09s.jpg,0.0,clock_6_4.png,5.0,65,,,,,,,,,,,,,,,,,,,,,,,,,,,,,,,,
0.0,1.0,1.098685,0.0,29.0,29.0,29.0,1.0,orange_12s.jpg,0.0,clock_6_5.png,5.0,65,,,,,,,,,,,,,,,,,,,,,,,,,,,,,,,,
0.0,0.0,1.454355,0.0,30.0,30.0,30.0,1.0,submarine_11n.jpg,1.0,clock_6_6.png,5.0,65,,,,,,,,,,,,,,,,,,,,,,,,,,,,,,,,
0.0,1.0,0.8873,0.0,31.0,31.0,31.0,1.0,red_carpet_03s.jpg,0.0,clock_5_1.png,6.0,65,,,,,,,,,,,,,,,,,,,,,,,,,,,,,,,,
0.0,1.0,1.20469,0.0,32.0,32.0,32.0,1.0,spider_web_03s.jpg,0.0,clock_5_2.png,6.0,65,,,,,,,,,,,,,,,,,,,,,,,,,,,,,,,,
0.0,1.0,1.00466,0.0,33.0,33.0,33.0,1.0,fireworks_18s.jpg,0.0,clock_5_3.png,6.0,65,,,,,,,,,,,,,,,,,,,,,,,,,,,,,,,,
0.0,1.0,0.8976,0.0,34.0,34.0,34.0,1.0,piano_13n.jpg,0.0,clock_5_4.png,6.0,65,,,,,,,,,,,,,,,,,,,,,,,,,,,,,,,,
0.0,1.0,1.052215,0.0,35.0,35.0,35.0,1.0,fondue_07s.jpg,0.0,clock_5_5.png,6.0,65,,,,,,,,,,,,,,,,,,,,,,,,,,,,,,,,
,,,,,,,,,1.0,,,65,0.0,0.0,3.23527,0.0,0.0,0.0,0.0,1.0,lantern_04s.jpg,ring_03s.jpg,,,,,,,,,,,,,,,,,,,,,,
,,,,,,,,,1.0,,,65,0.0,0.0,4.463275,0.0,1.0,1.0,1.0,1.0,cap_05s.jpg,kimono_13s.jpg,,,,,,,,,,,,,,,,,,,,,,
,,,,,,,,,0.0,,,65,1.0,0.0,1.45006,0.0,2.0,2.0,2.0,1.0,red_carpet_03s.jpg,printer_09s.jpg,,,,,,,,,,,,,,,,,,,,,,
,,,,,,,,,0.0,,,65,1.0,0.0,2.98929,0.0,3.0,3.0,3.0,1.0,boar_10s.jpg,ladder_15s.jpg,,,,,,,,,,,,,,,,,,,,,,
,,,,,,,,,0.0,,,65,0.0,1.0,2.13696,0.0,4.0,4.0,4.0,1.0,lamppost_09s.jpg,gas_mask_11s.jpg,,,,,,,,,,,,,,,,,,,,,,
,,,,,,,,,1.0,,,65,1.0,1.0,1.50508,0.0,5.0,5.0,5.0,1.0,popcorn_09s.jpg,orange_12s.jpg,,,,,,,,,,,,,,,,,,,,,,
,,,,,,,,,,,,65,,,,,,,,,,,0.0,0.0,0.0,0.0,1.0,clock_present_1_5.xlsx,clock_compare_task_1_5.xlsx,,,,,,,,,,,,,,,
0.0,1.0,1.08778,0.0,0.0,0.0,0.0,1.0,rhinoceros_02s.jpg,0.0,clock_5_1.png,1.0,65,,,,,,,,,,,,,,,,,,,,,,,,,,,,,,,,
0.0,1.0,0.82178,0.0,1.0,1.0,1.0,1.0,laundry_basket_11s.jpg,0.0,clock_5_2.png,1.0,65,,,,,,,,,,,,,,,,,,,,,,,,,,,,,,,,
1.0,1.0,1.37562,0.0,2.0,2.0,2.0,1.0,laundry_basket_11s.jpg,1.0,clock_5_3.png,1.0,65,,,,,,,,,,,,,,,,,,,,,,,,,,,,,,,,
0.0,1.0,0.9506,0.0,3.0,3.0,3.0,1.0,peeler_06s.jpg,0.0,clock_5_4.png,1.0,65,,,,,,,,,,,,,,,,,,,,,,,,,,,,,,,,
0.0,1.0,0.8053,0.0,4.0,4.0,4.0,1.0,pepper_mill_03s.jpg,0.0,clock_5_5.png,1.0,65,,,,,,,,,,,,,,,,,,,,,,,,,,,,,,,,
0.0,1.0,0.79126,0.0,5.0,5.0,5.0,1.0,eiffeltower.jpg,0.0,clock_7_1.png,2.0,65,,,,,,,,,,,,,,,,,,,,,,,,,,,,,,,,
1.0,1.0,1.40863,0.0,6.0,6.0,6.0,1.0,eiffeltower.jpg,1.0,clock_7_2.png,2.0,65,,,,,,,,,,,,,,,,,,,,,,,,,,,,,,,,
0.0,1.0,1.43191,0.0,7.0,7.0,7.0,1.0,blender_08s.jpg,0.0,clock_7_3.png,2.0,65,,,,,,,,,,,,,,,,,,,,,,,,,,,,,,,,
0.0,1.0,0.898935,0.0,8.0,8.0,8.0,1.0,treasure_08s.jpg,0.0,clock_7_4.png,2.0,65,,,,,,,,,,,,,,,,,,,,,,,,,,,,,,,,
1.0,1.0,1.76947,0.0,9.0,9.0,9.0,1.0,eiffeltower.jpg,1.0,clock_7_5.png,2.0,65,,,,,,,,,,,,,,,,,,,,,,,,,,,,,,,,
0.0,1.0,1.050685,0.0,10.0,10.0,10.0,1.0,lamb_04s.jpg,0.0,clock_7_6.png,2.0,65,,,,,,,,,,,,,,,,,,,,,,,,,,,,,,,,
1.0,1.0,1.599765,0.0,11.0,11.0,11.0,1.0,blender_08s.jpg,1.0,clock_7_7.png,2.0,65,,,,,,,,,,,,,,,,,,,,,,,,,,,,,,,,
0.0,1.0,1.468005,0.0,12.0,12.0,12.0,1.0,outlet_10s.jpg,0.0,clock_6_1.png,3.0,65,,,,,,,,,,,,,,,,,,,,,,,,,,,,,,,,
0.0,1.0,1.96784,0.0,13.0,13.0,13.0,1.0,mixer_12s.jpg,0.0,clock_6_2.png,3.0,65,,,,,,,,,,,,,,,,,,,,,,,,,,,,,,,,
0.0,1.0,0.952985,0.0,14.0,14.0,14.0,1.0,toilet_07s.jpg,0.0,clock_6_3.png,3.0,65,,,,,,,,,,,,,,,,,,,,,,,,,,,,,,,,
0.0,1.0,0.798025,0.0,15.0,15.0,15.0,1.0,keyboard_05s.jpg,0.0,clock_6_4.png,3.0,65,,,,,,,,,,,,,,,,,,,,,,,,,,,,,,,,
1.0,1.0,1.557035,0.0,16.0,16.0,16.0,1.0,toilet_07s.jpg,1.0,clock_6_5.png,3.0,65,,,,,,,,,,,,,,,,,,,,,,,,,,,,,,,,
0.0,1.0,0.93134,0.0,17.0,17.0,17.0,1.0,air_pump_05s.jpg,0.0,clock_6_6.png,3.0,65,,,,,,,,,,,,,,,,,,,,,,,,,,,,,,,,
0.0,1.0,1.227325,0.0,18.0,18.0,18.0,1.0,limousine_12s.jpg,0.0,clock_7_1.png,4.0,65,,,,,,,,,,,,,,,,,,,,,,,,,,,,,,,,
1.0,1.0,1.054855,0.0,19.0,19.0,19.0,1.0,limousine_12s.jpg,1.0,clock_7_2.png,4.0,65,,,,,,,,,,,,,,,,,,,,,,,,,,,,,,,,
0.0,1.0,1.69017,0.0,20.0,20.0,20.0,1.0,rope_16s.jpg,0.0,clock_7_3.png,4.0,65,,,,,,,,,,,,,,,,,,,,,,,,,,,,,,,,
0.0,1.0,1.14026,0.0,21.0,21.0,21.0,1.0,omelet_07s.jpg,0.0,clock_7_4.png,4.0,65,,,,,,,,,,,,,,,,,,,,,,,,,,,,,,,,
0.0,1.0,1.182885,0.0,22.0,22.0,22.0,1.0,jigsaw_puzzle_11s.jpg,0.0,clock_7_5.png,4.0,65,,,,,,,,,,,,,,,,,,,,,,,,,,,,,,,,
0.0,1.0,1.138455,0.0,23.0,23.0,23.0,1.0,taxi_15s.jpg,0.0,clock_7_6.png,4.0,65,,,,,,,,,,,,,,,,,,,,,,,,,,,,,,,,
0.0,1.0,1.269675,0.0,24.0,24.0,24.0,1.0,puck_06s.jpg,0.0,clock_7_7.png,4.0,65,,,,,,,,,,,,,,,,,,,,,,,,,,,,,,,,
0.0,1.0,0.936715,0.0,25.0,25.0,25.0,1.0,tube_top_03s.jpg,0.0,clock_5_1.png,5.0,65,,,,,,,,,,,,,,,,,,,,,,,,,,,,,,,,
0.0,1.0,1.446175,0.0,26.0,26.0,26.0,1.0,exhaust_pipe_10s.jpg,0.0,clock_5_2.png,5.0,65,,,,,,,,,,,,,,,,,,,,,,,,,,,,,,,,
0.0,1.0,1.101435,0.0,27.0,27.0,27.0,1.0,polar_bear_02s.jpg,0.0,clock_5_3.png,5.0,65,,,,,,,,,,,,,,,,,,,,,,,,,,,,,,,,
0.0,1.0,1.100035,0.0,28.0,28.0,28.0,1.0,pillow_03s.jpg,0.0,clock_5_4.png,5.0,65,,,,,,,,,,,,,,,,,,,,,,,,,,,,,,,,
0.0,1.0,1.07009,0.0,29.0,29.0,29.0,1.0,harpoon.jpg,0.0,clock_5_5.png,5.0,65,,,,,,,,,,,,,,,,,,,,,,,,,,,,,,,,
0.0,1.0,0.84207,0.0,30.0,30.0,30.0,1.0,turkey_10s.jpg,0.0,clock_6_1.png,6.0,65,,,,,,,,,,,,,,,,,,,,,,,,,,,,,,,,
0.0,1.0,1.33473,0.0,31.0,31.0,31.0,1.0,thermostat_02s.jpg,0.0,clock_6_2.png,6.0,65,,,,,,,,,,,,,,,,,,,,,,,,,,,,,,,,
0.0,1.0,1.30608,0.0,32.0,32.0,32.0,1.0,chopsticks_08s.jpg,0.0,clock_6_3.png,6.0,65,,,,,,,,,,,,,,,,,,,,,,,,,,,,,,,,
0.0,1.0,0.866275,0.0,33.0,33.0,33.0,1.0,tab_09s.jpg,0.0,clock_6_4.png,6.0,65,,,,,,,,,,,,,,,,,,,,,,,,,,,,,,,,
0.0,1.0,1.272995,0.0,34.0,34.0,34.0,1.0,breadstick_08s.jpg,0.0,clock_6_5.png,6.0,65,,,,,,,,,,,,,,,,,,,,,,,,,,,,,,,,
0.0,1.0,1.316685,0.0,35.0,35.0,35.0,1.0,rhinoceros_02s.jpg,0.0,clock_6_6.png,6.0,65,,,,,,,,,,,,,,,,,,,,,,,,,,,,,,,,
,,,,,,,,,0.0,,,65,0.0,1.0,1.993495,0.0,0.0,0.0,0.0,1.0,mixer_12s.jpg,lamb_04s.jpg,,,,,,,,,,,,,,,,,,,,,,
,,,,,,,,,0.0,,,65,0.0,1.0,3.49707,0.0,1.0,1.0,1.0,1.0,rope_16s.jpg,air_pump_05s.jpg,,,,,,,,,,,,,,,,,,,,,,
,,,,,,,,,1.0,,,65,0.0,0.0,2.740045,0.0,2.0,2.0,2.0,1.0,jigsaw_puzzle_11s.jpg,tube_top_03s.jpg,,,,,,,,,,,,,,,,,,,,,,
,,,,,,,,,1.0,,,65,1.0,1.0,1.559875,0.0,3.0,3.0,3.0,1.0,outlet_10s.jpg,keyboard_05s.jpg,,,,,,,,,,,,,,,,,,,,,,
,,,,,,,,,0.0,,,65,1.0,0.0,2.002125,0.0,4.0,4.0,4.0,1.0,puck_06s.jpg,omelet_07s.jpg,,,,,,,,,,,,,,,,,,,,,,
,,,,,,,,,1.0,,,65,1.0,1.0,2.336815,0.0,5.0,5.0,5.0,1.0,turkey_10s.jpg,tab_09s.jpg,,,,,,,,,,,,,,,,,,,,,,
,,,,,,,,,,,,65,,,,,,,,,,,0.0,1.0,1.0,1.0,1.0,clock_present_2_5.xlsx,clock_compare_task_2_5.xlsx,,,,,,,,,,,,,,,
0.0,1.0,1.275035,0.0,0.0,0.0,0.0,1.0,pumpkin_03s.jpg,0.0,clock_7_1.png,1.0,65,,,,,,,,,,,,,,,,,,,,,,,,,,,,,,,,
0.0,1.0,0.85994,0.0,1.0,1.0,1.0,1.0,bottle_opener_11s.jpg,0.0,clock_7_2.png,1.0,65,,,,,,,,,,,,,,,,,,,,,,,,,,,,,,,,
0.0,1.0,1.046315,0.0,2.0,2.0,2.0,1.0,tupperware_09s.jpg,0.0,clock_7_3.png,1.0,65,,,,,,,,,,,,,,,,,,,,,,,,,,,,,,,,
0.0,1.0,0.91607,0.0,3.0,3.0,3.0,1.0,mango_09s.jpg,0.0,clock_7_4.png,1.0,65,,,,,,,,,,,,,,,,,,,,,,,,,,,,,,,,
0.0,1.0,0.74054,0.0,4.0,4.0,4.0,1.0,marker_05s.jpg,0.0,clock_7_5.png,1.0,65,,,,,,,,,,,,,,,,,,,,,,,,,,,,,,,,
0.0,1.0,0.900685,0.0,5.0,5.0,5.0,1.0,bean_06s.jpg,0.0,clock_7_6.png,1.0,65,,,,,,,,,,,,,,,,,,,,,,,,,,,,,,,,
0.0,1.0,0.859355,0.0,6.0,6.0,6.0,1.0,pear_02s.jpg,0.0,clock_7_7.png,1.0,65,,,,,,,,,,,,,,,,,,,,,,,,,,,,,,,,
0.0,1.0,0.796465,0.0,7.0,7.0,7.0,1.0,clover_04s.jpg,0.0,clock_5_1.png,2.0,65,,,,,,,,,,,,,,,,,,,,,,,,,,,,,,,,
0.0,1.0,0.857765,0.0,8.0,8.0,8.0,1.0,perfume_06s.jpg,0.0,clock_5_2.png,2.0,65,,,,,,,,,,,,,,,,,,,,,,,,,,,,,,,,
0.0,1.0,0.959365,0.0,9.0,9.0,9.0,1.0,spacesuit_02s.jpg,0.0,clock_5_3.png,2.0,65,,,,,,,,,,,,,,,,,,,,,,,,,,,,,,,,
0.0,1.0,1.36106,0.0,10.0,10.0,10.0,1.0,recliner_02s.jpg,0.0,clock_5_4.png,2.0,65,,,,,,,,,,,,,,,,,,,,,,,,,,,,,,,,
0.0,1.0,1.33229,0.0,11.0,11.0,11.0,1.0,hyena_16s.jpg,0.0,clock_5_5.png,2.0,65,,,,,,,,,,,,,,,,,,,,,,,,,,,,,,,,
0.0,1.0,1.21552,0.0,12.0,12.0,12.0,1.0,bolo_tie_08s.jpg,0.0,clock_7_1.png,3.0,65,,,,,,,,,,,,,,,,,,,,,,,,,,,,,,,,
0.0,1.0,1.415415,0.0,13.0,13.0,13.0,1.0,plaster_cast_13s.jpg,0.0,clock_7_2.png,3.0,65,,,,,,,,,,,,,,,,,,,,,,,,,,,,,,,,
0.0,1.0,0.93621,0.0,14.0,14.0,14.0,1.0,badge_03s.jpg,0.0,clock_7_3.png,3.0,65,,,,,,,,,,,,,,,,,,,,,,,,,,,,,,,,
0.0,1.0,0.899795,0.0,15.0,15.0,15.0,1.0,swordfish_05s.jpg,0.0,clock_7_4.png,3.0,65,,,,,,,,,,,,,,,,,,,,,,,,,,,,,,,,
0.0,1.0,1.32705,0.0,16.0,16.0,16.0,1.0,perfume_06s.jpg,0.0,clock_7_5.png,3.0,65,,,,,,,,,,,,,,,,,,,,,,,,,,,,,,,,
1.0,0.0,2.0456,0.0,17.0,17.0,17.0,1.0,pear_02s.jpg,0.0,clock_7_6.png,3.0,65,,,,,,,,,,,,,,,,,,,,,,,,,,,,,,,,
0.0,1.0,0.838105,0.0,18.0,18.0,18.0,1.0,quill_09s.jpg,0.0,clock_7_7.png,3.0,65,,,,,,,,,,,,,,,,,,,,,,,,,,,,,,,,
0.0,1.0,0.82921,0.0,19.0,19.0,19.0,1.0,mop_08s.jpg,0.0,clock_6_1.png,4.0,65,,,,,,,,,,,,,,,,,,,,,,,,,,,,,,,,
0.0,1.0,1.1074,0.0,20.0,20.0,20.0,1.0,plaster_cast_13s.jpg,0.0,clock_6_2.png,4.0,65,,,,,,,,,,,,,,,,,,,,,,,,,,,,,,,,
0.0,1.0,1.002605,0.0,21.0,21.0,21.0,1.0,parachute_03s.jpg,0.0,clock_6_3.png,4.0,65,,,,,,,,,,,,,,,,,,,,,,,,,,,,,,,,
0.0,1.0,0.693855,0.0,22.0,22.0,22.0,1.0,inhaler_01b.jpg,0.0,clock_6_4.png,4.0,65,,,,,,,,,,,,,,,,,,,,,,,,,,,,,,,,
0.0,1.0,0.81529,0.0,23.0,23.0,23.0,1.0,diving_board_07s.jpg,0.0,clock_6_5.png,4.0,65,,,,,,,,,,,,,,,,,,,,,,,,,,,,,,,,
0.0,1.0,0.824275,0.0,24.0,24.0,24.0,1.0,lion_18s.jpg,0.0,clock_6_6.png,4.0,65,,,,,,,,,,,,,,,,,,,,,,,,,,,,,,,,
0.0,1.0,0.748175,0.0,25.0,25.0,25.0,1.0,onion_10s.jpg,0.0,clock_6_1.png,5.0,65,,,,,,,,,,,,,,,,,,,,,,,,,,,,,,,,
0.0,1.0,1.043475,0.0,26.0,26.0,26.0,1.0,throne_11s.jpg,0.0,clock_6_2.png,5.0,65,,,,,,,,,,,,,,,,,,,,,,,,,,,,,,,,
0.0,1.0,2.18539,0.0,27.0,27.0,27.0,1.0,quad_04s.jpg,0.0,clock_6_3.png,5.0,65,,,,,,,,,,,,,,,,,,,,,,,,,,,,,,,,
0.0,1.0,0.82244,0.0,28.0,28.0,28.0,1.0,roulette_wheel_04s.jpg,0.0,clock_6_4.png,5.0,65,,,,,,,,,,,,,,,,,,,,,,,,,,,,,,,,
0.0,1.0,0.872895,0.0,29.0,29.0,29.0,1.0,puppy_08s.jpg,0.0,clock_6_5.png,5.0,65,,,,,,,,,,,,,,,,,,,,,,,,,,,,,,,,
0.0,1.0,0.89059,0.0,30.0,30.0,30.0,1.0,thorn_13s.jpg,0.0,clock_6_6.png,5.0,65,,,,,,,,,,,,,,,,,,,,,,,,,,,,,,,,
0.0,1.0,0.804305,0.0,31.0,31.0,31.0,1.0,mirror_12s.jpg,0.0,clock_5_1.png,6.0,65,,,,,,,,,,,,,,,,,,,,,,,,,,,,,,,,
0.0,1.0,1.053875,0.0,32.0,32.0,32.0,1.0,police_car_01s.jpg,0.0,clock_5_2.png,6.0,65,,,,,,,,,,,,,,,,,,,,,,,,,,,,,,,,
1.0,1.0,1.574545,0.0,33.0,33.0,33.0,1.0,mirror_12s.jpg,1.0,clock_5_3.png,6.0,65,,,,,,,,,,,,,,,,,,,,,,,,,,,,,,,,
0.0,1.0,1.22142,0.0,34.0,34.0,34.0,1.0,rooster_03s.jpg,0.0,clock_5_4.png,6.0,65,,,,,,,,,,,,,,,,,,,,,,,,,,,,,,,,
0.0,1.0,1.08967,0.0,35.0,35.0,35.0,1.0,trampoline_13s.jpg,0.0,clock_5_5.png,6.0,65,,,,,,,,,,,,,,,,,,,,,,,,,,,,,,,,
,,,,,,,,,0.0,,,65,0.0,1.0,12.707725,0.0,0.0,0.0,0.0,1.0,badge_03s.jpg,hyena_16s.jpg,,,,,,,,,,,,,,,,,,,,,,
,,,,,,,,,1.0,,,65,0.0,0.0,2.163395,0.0,1.0,1.0,1.0,1.0,spacesuit_02s.jpg,bolo_tie_08s.jpg,,,,,,,,,,,,,,,,,,,,,,
,,,,,,,,,0.0,,,65,1.0,0.0,1.78205,0.0,2.0,2.0,2.0,1.0,throne_11s.jpg,diving_board_07s.jpg,,,,,,,,,,,,,,,,,,,,,,
,,,,,,,,,0.0,,,65,0.0,1.0,2.39007,0.0,3.0,3.0,3.0,1.0,mango_09s.jpg,pumpkin_03s.jpg,,,,,,,,,,,,,,,,,,,,,,
,,,,,,,,,1.0,,,65,0.0,0.0,2.8588,0.0,4.0,4.0,4.0,1.0,tupperware_09s.jpg,bean_06s.jpg,,,,,,,,,,,,,,,,,,,,,,
,,,,,,,,,1.0,,,65,1.0,1.0,1.796695,0.0,5.0,5.0,5.0,1.0,bottle_opener_11s.jpg,marker_05s.jpg,,,,,,,,,,,,,,,,,,,,,,
,,,,,,,,,,,,65,,,,,,,,,,,0.0,2.0,2.0,2.0,1.0,clock_present_3_5.xlsx,clock_compare_task_3_5.xlsx,,,,,,,,,,,,,,,
0.0,1.0,1.16625,0.0,0.0,0.0,0.0,1.0,ginger_09s.jpg,0.0,clock_6_1.png,1.0,65,,,,,,,,,,,,,,,,,,,,,,,,,,,,,,,,
0.0,1.0,1.41273,0.0,1.0,1.0,1.0,1.0,letter_opener_03s.jpg,0.0,clock_6_2.png,1.0,65,,,,,,,,,,,,,,,,,,,,,,,,,,,,,,,,
0.0,1.0,0.871805,0.0,2.0,2.0,2.0,1.0,loveseat_08s.jpg,0.0,clock_6_3.png,1.0,65,,,,,,,,,,,,,,,,,,,,,,,,,,,,,,,,
1.0,1.0,1.26616,0.0,3.0,3.0,3.0,1.0,letter_opener_03s.jpg,1.0,clock_6_4.png,1.0,65,,,,,,,,,,,,,,,,,,,,,,,,,,,,,,,,
1.0,1.0,1.30218,0.0,4.0,4.0,4.0,1.0,loveseat_08s.jpg,1.0,clock_6_5.png,1.0,65,,,,,,,,,,,,,,,,,,,,,,,,,,,,,,,,
0.0,1.0,0.819055,0.0,5.0,5.0,5.0,1.0,towel_rack_04s.jpg,0.0,clock_6_6.png,1.0,65,,,,,,,,,,,,,,,,,,,,,,,,,,,,,,,,
0.0,1.0,1.20962,0.0,6.0,6.0,6.0,1.0,rollerskate_03s.jpg,0.0,clock_5_1.png,2.0,65,,,,,,,,,,,,,,,,,,,,,,,,,,,,,,,,
0.0,1.0,0.861045,0.0,7.0,7.0,7.0,1.0,puddle_02s.jpg,0.0,clock_5_2.png,2.0,65,,,,,,,,,,,,,,,,,,,,,,,,,,,,,,,,
1.0,1.0,1.217495,0.0,8.0,8.0,8.0,1.0,rollerskate_03s.jpg,1.0,clock_5_3.png,2.0,65,,,,,,,,,,,,,,,,,,,,,,,,,,,,,,,,
0.0,1.0,1.78873,0.0,9.0,9.0,9.0,1.0,dirt_bike_11s.jpg,0.0,clock_5_4.png,2.0,65,,,,,,,,,,,,,,,,,,,,,,,,,,,,,,,,
0.0,1.0,1.504725,0.0,10.0,10.0,10.0,1.0,prism_10s.jpg,0.0,clock_5_5.png,2.0,65,,,,,,,,,,,,,,,,,,,,,,,,,,,,,,,,
0.0,1.0,0.8063,0.0,11.0,11.0,11.0,1.0,kayak_08s.jpg,0.0,clock_7_1.png,3.0,65,,,,,,,,,,,,,,,,,,,,,,,,,,,,,,,,
0.0,1.0,0.738805,0.0,12.0,12.0,12.0,1.0,rock_08s.jpg,0.0,clock_7_2.png,3.0,65,,,,,,,,,,,,,,,,,,,,,,,,,,,,,,,,
0.0,1.0,0.802285,0.0,13.0,13.0,13.0,1.0,tile_08s.jpg,0.0,clock_7_3.png,3.0,65,,,,,,,,,,,,,,,,,,,,,,,,,,,,,,,,
1.0,0.0,1.499815,0.0,14.0,14.0,14.0,1.0,dirt_bike_11s.jpg,0.0,clock_7_4.png,3.0,65,,,,,,,,,,,,,,,,,,,,,,,,,,,,,,,,
0.0,1.0,1.163775,0.0,15.0,15.0,15.0,1.0,ginger_09s.jpg,0.0,clock_7_5.png,3.0,65,,,,,,,,,,,,,,,,,,,,,,,,,,,,,,,,
0.0,0.0,1.294175,0.0,16.0,16.0,16.0,1.0,tile_08s.jpg,1.0,clock_7_6.png,3.0,65,,,,,,,,,,,,,,,,,,,,,,,,,,,,,,,,
0.0,1.0,0.88276,0.0,17.0,17.0,17.0,1.0,camcorder_10s.jpg,0.0,clock_7_7.png,3.0,65,,,,,,,,,,,,,,,,,,,,,,,,,,,,,,,,
0.0,1.0,0.73631,0.0,18.0,18.0,18.0,1.0,jet_15s.jpg,0.0,clock_6_1.png,4.0,65,,,,,,,,,,,,,,,,,,,,,,,,,,,,,,,,
1.0,1.0,0.89365,0.0,19.0,19.0,19.0,1.0,jet_15s.jpg,1.0,clock_6_2.png,4.0,65,,,,,,,,,,,,,,,,,,,,,,,,,,,,,,,,
0.0,1.0,1.241585,0.0,20.0,20.0,20.0,1.0,kitten_07s.jpg,0.0,clock_6_3.png,4.0,65,,,,,,,,,,,,,,,,,,,,,,,,,,,,,,,,
1.0,1.0,1.349805,0.0,21.0,21.0,21.0,1.0,jet_15s.jpg,1.0,clock_6_4.png,4.0,65,,,,,,,,,,,,,,,,,,,,,,,,,,,,,,,,
0.0,1.0,1.523655,0.0,22.0,22.0,22.0,1.0,chime_12s.jpg,0.0,clock_6_5.png,4.0,65,,,,,,,,,,,,,,,,,,,,,,,,,,,,,,,,
0.0,1.0,1.115275,0.0,23.0,23.0,23.0,1.0,eggshell_14s.jpg,0.0,clock_6_6.png,4.0,65,,,,,,,,,,,,,,,,,,,,,,,,,,,,,,,,
0.0,1.0,0.954045,0.0,24.0,24.0,24.0,1.0,luggage_08s.jpg,0.0,clock_7_1.png,5.0,65,,,,,,,,,,,,,,,,,,,,,,,,,,,,,,,,
0.0,1.0,1.371335,0.0,25.0,25.0,25.0,1.0,mascara_03s.jpg,0.0,clock_7_2.png,5.0,65,,,,,,,,,,,,,,,,,,,,,,,,,,,,,,,,
0.0,1.0,0.81287,0.0,26.0,26.0,26.0,1.0,cotton_candy_01b.jpg,0.0,clock_7_3.png,5.0,65,,,,,,,,,,,,,,,,,,,,,,,,,,,,,,,,
0.0,1.0,1.326715,0.0,27.0,27.0,27.0,1.0,ruby_15s.jpg,0.0,clock_7_4.png,5.0,65,,,,,,,,,,,,,,,,,,,,,,,,,,,,,,,,
0.0,1.0,1.264315,0.0,28.0,28.0,28.0,1.0,razor_blade_01b.jpg,0.0,clock_7_5.png,5.0,65,,,,,,,,,,,,,,,,,,,,,,,,,,,,,,,,
0.0,1.0,0.831595,0.0,29.0,29.0,29.0,1.0,hydrant_10s.jpg,0.0,clock_7_6.png,5.0,65,,,,,,,,,,,,,,,,,,,,,,,,,,,,,,,,
0.0,1.0,0.709525,0.0,30.0,30.0,30.0,1.0,mushroom_10n.jpg,0.0,clock_7_7.png,5.0,65,,,,,,,,,,,,,,,,,,,,,,,,,,,,,,,,
0.0,1.0,0.811445,0.0,31.0,31.0,31.0,1.0,turtle_08s.jpg,0.0,clock_5_1.png,6.0,65,,,,,,,,,,,,,,,,,,,,,,,,,,,,,,,,
0.0,1.0,1.128175,0.0,32.0,32.0,32.0,1.0,sparkler_02s.jpg,0.0,clock_5_2.png,6.0,65,,,,,,,,,,,,,,,,,,,,,,,,,,,,,,,,
0.0,1.0,0.74578,0.0,33.0,33.0,33.0,1.0,tambourine_06s.jpg,0.0,clock_5_3.png,6.0,65,,,,,,,,,,,,,,,,,,,,,,,,,,,,,,,,
0.0,1.0,0.671075,0.0,34.0,34.0,34.0,1.0,lavender_10s.jpg,0.0,clock_5_4.png,6.0,65,,,,,,,,,,,,,,,,,,,,,,,,,,,,,,,,
1.0,1.0,0.897135,0.0,35.0,35.0,35.0,1.0,lavender_10s.jpg,1.0,clock_5_5.png,6.0,65,,,,,,,,,,,,,,,,,,,,,,,,,,,,,,,,
,,,,,,,,,0.0,,,65,0.0,1.0,5.249415,0.0,0.0,0.0,0.0,1.0,kitten_07s.jpg,camcorder_10s.jpg,,,,,,,,,,,,,,,,,,,,,,
,,,,,,,,,0.0,,,65,1.0,0.0,6.440555,0.0,1.0,1.0,1.0,1.0,mascara_03s.jpg,chime_12s.jpg,,,,,,,,,,,,,,,,,,,,,,
,,,,,,,,,0.0,,,65,0.0,1.0,1.724315,0.0,2.0,2.0,2.0,1.0,turtle_08s.jpg,razor_blade_01b.jpg,,,,,,,,,,,,,,,,,,,,,,
,,,,,,,,,1.0,,,65,1.0,1.0,5.02639,0.0,3.0,3.0,3.0,1.0,puddle_02s.jpg,prism_10s.jpg,,,,,,,,,,,,,,,,,,,,,,
,,,,,,,,,0.0,,,65,1.0,0.0,2.90873,0.0,4.0,4.0,4.0,1.0,ruby_15s.jpg,luggage_08s.jpg,,,,,,,,,,,,,,,,,,,,,,
,,,,,,,,,1.0,,,65,1.0,1.0,2.173575,0.0,5.0,5.0,5.0,1.0,cotton_candy_01b.jpg,hydrant_10s.jpg,,,,,,,,,,,,,,,,,,,,,,
,,,,,,,,,,,,65,,,,,,,,,,,0.0,3.0,3.0,3.0,1.0,clock_present_4_5.xlsx,clock_compare_task_4_5.xlsx,,,,,,,,,,,,,,,
0.0,1.0,1.00892,0.0,0.0,0.0,0.0,1.0,marshmallow_08s.jpg,0.0,clock_5_1.png,1.0,65,,,,,,,,,,,,,,,,,,,,,,,,,,,,,,,,
0.0,1.0,0.722755,0.0,1.0,1.0,1.0,1.0,coat_rack_01b.jpg,0.0,clock_5_2.png,1.0,65,,,,,,,,,,,,,,,,,,,,,,,,,,,,,,,,
0.0,1.0,0.661715,0.0,2.0,2.0,2.0,1.0,coral_08s.jpg,0.0,clock_5_3.png,1.0,65,,,,,,,,,,,,,,,,,,,,,,,,,,,,,,,,
0.0,1.0,0.75026,0.0,3.0,3.0,3.0,1.0,fox_13s.jpg,0.0,clock_5_4.png,1.0,65,,,,,,,,,,,,,,,,,,,,,,,,,,,,,,,,
0.0,1.0,0.75937,0.0,4.0,4.0,4.0,1.0,stethoscope_01b.jpg,0.0,clock_5_5.png,1.0,65,,,,,,,,,,,,,,,,,,,,,,,,,,,,,,,,
0.0,1.0,0.81188,0.0,5.0,5.0,5.0,1.0,moth_06n.jpg,0.0,clock_6_1.png,2.0,65,,,,,,,,,,,,,,,,,,,,,,,,,,,,,,,,
0.0,1.0,0.801755,0.0,6.0,6.0,6.0,1.0,licorice_06s.jpg,0.0,clock_6_2.png,2.0,65,,,,,,,,,,,,,,,,,,,,,,,,,,,,,,,,
0.0,1.0,0.74045,0.0,7.0,7.0,7.0,1.0,sleeping_bag_12s.jpg,0.0,clock_6_3.png,2.0,65,,,,,,,,,,,,,,,,,,,,,,,,,,,,,,,,
0.0,1.0,0.96129,0.0,8.0,8.0,8.0,1.0,treadmill_06s.jpg,0.0,clock_6_4.png,2.0,65,,,,,,,,,,,,,,,,,,,,,,,,,,,,,,,,
0.0,1.0,0.79118,0.0,9.0,9.0,9.0,1.0,bathtub_23s.jpg,0.0,clock_6_5.png,2.0,65,,,,,,,,,,,,,,,,,,,,,,,,,,,,,,,,
0.0,1.0,0.994035,0.0,10.0,10.0,10.0,1.0,film_03s.jpg,0.0,clock_6_6.png,2.0,65,,,,,,,,,,,,,,,,,,,,,,,,,,,,,,,,
0.0,1.0,0.833055,0.0,11.0,11.0,11.0,1.0,trident_07s.jpg,0.0,clock_7_1.png,3.0,65,,,,,,,,,,,,,,,,,,,,,,,,,,,,,,,,
0.0,1.0,1.61967,0.0,12.0,12.0,12.0,1.0,coffee_filter_10s.jpg,0.0,clock_7_2.png,3.0,65,,,,,,,,,,,,,,,,,,,,,,,,,,,,,,,,
0.0,1.0,0.864265,0.0,13.0,13.0,13.0,1.0,mud_13s.jpg,0.0,clock_7_3.png,3.0,65,,,,,,,,,,,,,,,,,,,,,,,,,,,,,,,,
0.0,1.0,1.37518,0.0,14.0,14.0,14.0,1.0,fire_alarm_05s.jpg,0.0,clock_7_4.png,3.0,65,,,,,,,,,,,,,,,,,,,,,,,,,,,,,,,,
1.0,1.0,1.102835,0.0,15.0,15.0,15.0,1.0,mud_13s.jpg,1.0,clock_7_5.png,3.0,65,,,,,,,,,,,,,,,,,,,,,,,,,,,,,,,,
0.0,1.0,1.665295,0.0,16.0,16.0,16.0,1.0,timer_03s.jpg,0.0,clock_7_6.png,3.0,65,,,,,,,,,,,,,,,,,,,,,,,,,,,,,,,,
0.0,1.0,0.90532,0.0,17.0,17.0,17.0,1.0,pea_11s.jpg,0.0,clock_7_7.png,3.0,65,,,,,,,,,,,,,,,,,,,,,,,,,,,,,,,,
0.0,1.0,0.941265,0.0,18.0,18.0,18.0,1.0,flask_04s.jpg,0.0,clock_5_1.png,4.0,65,,,,,,,,,,,,,,,,,,,,,,,,,,,,,,,,
0.0,1.0,0.88317,0.0,19.0,19.0,19.0,1.0,iron_13s.jpg,0.0,clock_5_2.png,4.0,65,,,,,,,,,,,,,,,,,,,,,,,,,,,,,,,,
0.0,1.0,1.099875,0.0,20.0,20.0,20.0,1.0,trident_07s.jpg,0.0,clock_5_3.png,4.0,65,,,,,,,,,,,,,,,,,,,,,,,,,,,,,,,,
0.0,1.0,1.196555,0.0,21.0,21.0,21.0,1.0,memory_stick_11s.jpg,0.0,clock_5_4.png,4.0,65,,,,,,,,,,,,,,,,,,,,,,,,,,,,,,,,
0.0,1.0,0.973445,0.0,22.0,22.0,22.0,1.0,oil_02s.jpg,0.0,clock_5_5.png,4.0,65,,,,,,,,,,,,,,,,,,,,,,,,,,,,,,,,
0.0,1.0,1.13007,0.0,23.0,23.0,23.0,1.0,coconut_08s.jpg,0.0,clock_7_1.png,5.0,65,,,,,,,,,,,,,,,,,,,,,,,,,,,,,,,,
1.0,1.0,1.051215,0.0,24.0,24.0,24.0,1.0,coconut_08s.jpg,1.0,clock_7_2.png,5.0,65,,,,,,,,,,,,,,,,,,,,,,,,,,,,,,,,
0.0,1.0,0.74992,0.0,25.0,25.0,25.0,1.0,jelly_bean_06s.jpg,0.0,clock_7_3.png,5.0,65,,,,,,,,,,,,,,,,,,,,,,,,,,,,,,,,
0.0,1.0,0.94207,0.0,26.0,26.0,26.0,1.0,ice-cream_cone_06s.jpg,0.0,clock_7_4.png,5.0,65,,,,,,,,,,,,,,,,,,,,,,,,,,,,,,,,
0.0,1.0,1.18359,0.0,27.0,27.0,27.0,1.0,mud_13s.jpg,0.0,clock_7_5.png,5.0,65,,,,,,,,,,,,,,,,,,,,,,,,,,,,,,,,
0.0,1.0,0.93128,0.0,28.0,28.0,28.0,1.0,feather02.jpg,0.0,clock_7_6.png,5.0,65,,,,,,,,,,,,,,,,,,,,,,,,,,,,,,,,
0.0,1.0,0.773415,0.0,29.0,29.0,29.0,1.0,ukulele_02s.jpg,0.0,clock_7_7.png,5.0,65,,,,,,,,,,,,,,,,,,,,,,,,,,,,,,,,
0.0,1.0,0.806875,0.0,30.0,30.0,30.0,1.0,snowman_02s.jpg,0.0,clock_6_1.png,6.0,65,,,,,,,,,,,,,,,,,,,,,,,,,,,,,,,,
0.0,1.0,0.80058,0.0,31.0,31.0,31.0,1.0,lifesaver_10s.jpg,0.0,clock_6_2.png,6.0,65,,,,,,,,,,,,,,,,,,,,,,,,,,,,,,,,
1.0,1.0,1.020765,0.0,32.0,32.0,32.0,1.0,lifesaver_10s.jpg,1.0,clock_6_3.png,6.0,65,,,,,,,,,,,,,,,,,,,,,,,,,,,,,,,,
0.0,1.0,0.845105,0.0,33.0,33.0,33.0,1.0,scooter.jpg,0.0,clock_6_4.png,6.0,65,,,,,,,,,,,,,,,,,,,,,,,,,,,,,,,,
0.0,1.0,0.713025,0.0,34.0,34.0,34.0,1.0,compass_10n.jpg,0.0,clock_6_5.png,6.0,65,,,,,,,,,,,,,,,,,,,,,,,,,,,,,,,,
0.0,1.0,0.828645,0.0,35.0,35.0,35.0,1.0,denture_03s.jpg,0.0,clock_6_6.png,6.0,65,,,,,,,,,,,,,,,,,,,,,,,,,,,,,,,,
,,,,,,,,,0.0,,,65,0.0,1.0,1.54703,0.0,0.0,0.0,0.0,1.0,moth_06n.jpg,coral_08s.jpg,,,,,,,,,,,,,,,,,,,,,,
,,,,,,,,,1.0,,,65,1.0,1.0,2.547195,0.0,1.0,1.0,1.0,1.0,bathtub_23s.jpg,coffee_filter_10s.jpg,,,,,,,,,,,,,,,,,,,,,,
,,,,,,,,,1.0,,,65,0.0,0.0,2.5818,0.0,2.0,2.0,2.0,1.0,timer_03s.jpg,iron_13s.jpg,,,,,,,,,,,,,,,,,,,,,,
,,,,,,,,,1.0,,,65,1.0,1.0,1.49877,0.0,3.0,3.0,3.0,1.0,fire_alarm_05s.jpg,pea_11s.jpg,,,,,,,,,,,,,,,,,,,,,,
,,,,,,,,,1.0,,,65,1.0,1.0,1.447835,0.0,4.0,4.0,4.0,1.0,flask_04s.jpg,memory_stick_11s.jpg,,,,,,,,,,,,,,,,,,,,,,
,,,,,,,,,0.0,,,65,1.0,0.0,1.49126,0.0,5.0,5.0,5.0,1.0,ukulele_02s.jpg,ice-cream_cone_06s.jpg,,,,,,,,,,,,,,,,,,,,,,
,,,,,,,,,,,,65,,,,,,,,,,,0.0,4.0,4.0,4.0,1.0,clock_present_5_5.xlsx,clock_compare_task_5_5.xlsx,,,,,,,,,,,,,,,
0.0,1.0,0.798175,0.0,0.0,0.0,0.0,1.0,sledgehammer_03s.jpg,0.0,clock_6_1.png,1.0,65,,,,,,,,,,,,,,,,,,,,,,,,,,,,,,,,
0.0,1.0,0.583065,0.0,1.0,1.0,1.0,1.0,basket_05s.jpg,0.0,clock_6_2.png,1.0,65,,,,,,,,,,,,,,,,,,,,,,,,,,,,,,,,
0.0,1.0,1.175875,0.0,2.0,2.0,2.0,1.0,go-kart_10s.jpg,0.0,clock_6_3.png,1.0,65,,,,,,,,,,,,,,,,,,,,,,,,,,,,,,,,
0.0,1.0,0.65667,0.0,3.0,3.0,3.0,1.0,sunglasses_11s.jpg,0.0,clock_6_4.png,1.0,65,,,,,,,,,,,,,,,,,,,,,,,,,,,,,,,,
0.0,1.0,0.7865,0.0,4.0,4.0,4.0,1.0,ostrich_06s.jpg,0.0,clock_6_5.png,1.0,65,,,,,,,,,,,,,,,,,,,,,,,,,,,,,,,,
0.0,1.0,0.58267,0.0,5.0,5.0,5.0,1.0,stingray_02s.jpg,0.0,clock_6_6.png,1.0,65,,,,,,,,,,,,,,,,,,,,,,,,,,,,,,,,
0.0,1.0,0.743405,0.0,6.0,6.0,6.0,1.0,peanut_butter_08s.jpg,0.0,clock_7_1.png,2.0,65,,,,,,,,,,,,,,,,,,,,,,,,,,,,,,,,
1.0,1.0,0.937585,0.0,7.0,7.0,7.0,1.0,peanut_butter_08s.jpg,1.0,clock_7_2.png,2.0,65,,,,,,,,,,,,,,,,,,,,,,,,,,,,,,,,
0.0,1.0,0.875765,0.0,8.0,8.0,8.0,1.0,puffin_19s.jpg,0.0,clock_7_3.png,2.0,65,,,,,,,,,,,,,,,,,,,,,,,,,,,,,,,,
1.0,1.0,1.36804,0.0,9.0,9.0,9.0,1.0,peanut_butter_08s.jpg,1.0,clock_7_4.png,2.0,65,,,,,,,,,,,,,,,,,,,,,,,,,,,,,,,,
1.0,1.0,1.19138,0.0,10.0,10.0,10.0,1.0,puffin_19s.jpg,1.0,clock_7_5.png,2.0,65,,,,,,,,,,,,,,,,,,,,,,,,,,,,,,,,
0.0,1.0,0.86363,0.0,11.0,11.0,11.0,1.0,stamp2_08s.jpg,0.0,clock_7_6.png,2.0,65,,,,,,,,,,,,,,,,,,,,,,,,,,,,,,,,
0.0,1.0,1.24644,0.0,12.0,12.0,12.0,1.0,comic_book_02s.jpg,0.0,clock_7_7.png,2.0,65,,,,,,,,,,,,,,,,,,,,,,,,,,,,,,,,
0.0,1.0,0.80505,0.0,13.0,13.0,13.0,1.0,ink_08s.jpg,0.0,clock_7_1.png,3.0,65,,,,,,,,,,,,,,,,,,,,,,,,,,,,,,,,
0.0,1.0,0.8101,0.0,14.0,14.0,14.0,1.0,doily_13s.jpg,0.0,clock_7_2.png,3.0,65,,,,,,,,,,,,,,,,,,,,,,,,,,,,,,,,
0.0,1.0,0.66092,0.0,15.0,15.0,15.0,1.0,light_switch_02s.jpg,0.0,clock_7_3.png,3.0,65,,,,,,,,,,,,,,,,,,,,,,,,,,,,,,,,
0.0,1.0,0.874885,0.0,16.0,16.0,16.0,1.0,pepper2_21s.jpg,0.0,clock_7_4.png,3.0,65,,,,,,,,,,,,,,,,,,,,,,,,,,,,,,,,
0.0,1.0,0.82982,0.0,17.0,17.0,17.0,1.0,crab_16s.jpg,0.0,clock_7_5.png,3.0,65,,,,,,,,,,,,,,,,,,,,,,,,,,,,,,,,
0.0,1.0,1.02662,0.0,18.0,18.0,18.0,1.0,beard_16s.jpg,0.0,clock_7_6.png,3.0,65,,,,,,,,,,,,,,,,,,,,,,,,,,,,,,,,
0.0,1.0,1.221635,0.0,19.0,19.0,19.0,1.0,mask_09s.jpg,0.0,clock_7_7.png,3.0,65,,,,,,,,,,,,,,,,,,,,,,,,,,,,,,,,
0.0,1.0,0.916345,0.0,20.0,20.0,20.0,1.0,dynamite_01b.jpg,0.0,clock_6_1.png,4.0,65,,,,,,,,,,,,,,,,,,,,,,,,,,,,,,,,
0.0,1.0,1.03132,0.0,21.0,21.0,21.0,1.0,abacus_12s.jpg,0.0,clock_6_2.png,4.0,65,,,,,,,,,,,,,,,,,,,,,,,,,,,,,,,,
0.0,1.0,0.84575,0.0,22.0,22.0,22.0,1.0,icicle_04s.jpg,0.0,clock_6_3.png,4.0,65,,,,,,,,,,,,,,,,,,,,,,,,,,,,,,,,
0.0,1.0,1.388035,0.0,23.0,23.0,23.0,1.0,comic_book_02s.jpg,0.0,clock_6_4.png,4.0,65,,,,,,,,,,,,,,,,,,,,,,,,,,,,,,,,
1.0,1.0,1.284455,0.0,24.0,24.0,24.0,1.0,abacus_12s.jpg,1.0,clock_6_5.png,4.0,65,,,,,,,,,,,,,,,,,,,,,,,,,,,,,,,,
0.0,1.0,0.88188,0.0,25.0,25.0,25.0,1.0,duck_01b.jpg,0.0,clock_6_6.png,4.0,65,,,,,,,,,,,,,,,,,,,,,,,,,,,,,,,,
0.0,1.0,1.02932,0.0,26.0,26.0,26.0,1.0,jetski_10s.jpg,0.0,clock_5_1.png,5.0,65,,,,,,,,,,,,,,,,,,,,,,,,,,,,,,,,
1.0,1.0,1.13638,0.0,27.0,27.0,27.0,1.0,jetski_10s.jpg,1.0,clock_5_2.png,5.0,65,,,,,,,,,,,,,,,,,,,,,,,,,,,,,,,,
0.0,1.0,1.140355,0.0,28.0,28.0,28.0,1.0,latte_06s.jpg,0.0,clock_5_3.png,5.0,65,,,,,,,,,,,,,,,,,,,,,,,,,,,,,,,,
0.0,1.0,0.982615,0.0,29.0,29.0,29.0,1.0,basket_05s.jpg,0.0,clock_5_4.png,5.0,65,,,,,,,,,,,,,,,,,,,,,,,,,,,,,,,,
0.0,1.0,0.968445,0.0,30.0,30.0,30.0,1.0,pump_11s.jpg,0.0,clock_5_5.png,5.0,65,,,,,,,,,,,,,,,,,,,,,,,,,,,,,,,,
0.0,1.0,0.73135,0.0,31.0,31.0,31.0,1.0,bacon_05s.jpg,0.0,clock_5_1.png,6.0,65,,,,,,,,,,,,,,,,,,,,,,,,,,,,,,,,
0.0,1.0,1.367535,0.0,32.0,32.0,32.0,1.0,lectern_08s.jpg,0.0,clock_5_2.png,6.0,65,,,,,,,,,,,,,,,,,,,,,,,,,,,,,,,,
0.0,1.0,0.967785,0.0,33.0,33.0,33.0,1.0,amber_04s.jpg,0.0,clock_5_3.png,6.0,65,,,,,,,,,,,,,,,,,,,,,,,,,,,,,,,,
0.0,1.0,1.078315,0.0,34.0,34.0,34.0,1.0,orangutan_03s.jpg,0.0,clock_5_4.png,6.0,65,,,,,,,,,,,,,,,,,,,,,,,,,,,,,,,,
0.0,1.0,0.6829,0.0,35.0,35.0,35.0,1.0,pan_02s.jpg,0.0,clock_5_5.png,6.0,65,,,,,,,,,,,,,,,,,,,,,,,,,,,,,,,,
,,,,,,,,,1.0,,,65,0.0,0.0,1.974535,0.0,0.0,0.0,0.0,1.0,pump_11s.jpg,amber_04s.jpg,,,,,,,,,,,,,,,,,,,,,,
,,,,,,,,,0.0,,,65,0.0,1.0,4.46376,0.0,1.0,1.0,1.0,1.0,doily_13s.jpg,stamp2_08s.jpg,,,,,,,,,,,,,,,,,,,,,,
,,,,,,,,,1.0,,,65,1.0,1.0,1.477925,0.0,2.0,2.0,2.0,1.0,crab_16s.jpg,dynamite_01b.jpg,,,,,,,,,,,,,,,,,,,,,,
,,,,,,,,,0.0,,,65,0.0,1.0,2.74374,0.0,3.0,3.0,3.0,1.0,sunglasses_11s.jpg,sledgehammer_03s.jpg,,,,,,,,,,,,,,,,,,,,,,
,,,,,,,,,0.0,,,65,1.0,0.0,2.32153,0.0,4.0,4.0,4.0,1.0,stingray_02s.jpg,go-kart_10s.jpg,,,,,,,,,,,,,,,,,,,,,,
,,,,,,,,,0.0,,,65,1.0,0.0,8.36669,0.0,5.0,5.0,5.0,1.0,pepper2_21s.jpg,ink_08s.jpg,,,,,,,,,,,,,,,,,,,,,,
0.0,1.0,1.47604,,,,,,tripod_01b.jpg,0.0,clockno_up.jpg,1.0,65,,,,,,,,,,,,,,,,,,0.0,0.0,0.0,0.0,1.0,,,,,,,,,,
0.0,1.0,1.29165,,,,,,pocket_watch_16s.jpg,0.0,clockno_default.jpg,1.0,65,,,,,,,,,,,,,,,,,,0.0,1.0,1.0,1.0,1.0,,,,,,,,,,
0.0,1.0,1.36309,,,,,,loom_05s.jpg,0.0,clockno_default.jpg,1.0,65,,,,,,,,,,,,,,,,,,0.0,2.0,2.0,2.0,1.0,,,,,,,,,,
1.0,1.0,0.830465,,,,,,tripod_01b.jpg,1.0,clockno_default.jpg,1.0,65,,,,,,,,,,,,,,,,,,0.0,3.0,3.0,3.0,1.0,,,,,,,,,,
0.0,1.0,1.254635,,,,,,thread_08s.jpg,0.0,clockno_default.jpg,1.0,65,,,,,,,,,,,,,,,,,,0.0,4.0,4.0,4.0,1.0,,,,,,,,,,
0.0,1.0,0.973075,,,,,,rocket_02s.jpg,0.0,clockno_default.jpg,1.0,65,,,,,,,,,,,,,,,,,,0.0,5.0,5.0,5.0,1.0,,,,,,,,,,
0.0,1.0,0.85917,,,,,,ladle_04s.jpg,0.0,clockno_up.jpg,2.0,65,,,,,,,,,,,,,,,,,,0.0,6.0,6.0,6.0,1.0,,,,,,,,,,
0.0,1.0,0.88056,,,,,,bubble_01b.jpg,0.0,clockno_default.jpg,2.0,65,,,,,,,,,,,,,,,,,,0.0,7.0,7.0,7.0,1.0,,,,,,,,,,
0.0,1.0,1.65208,,,,,,pocket_watch_16s.jpg,0.0,clockno_default.jpg,2.0,65,,,,,,,,,,,,,,,,,,0.0,8.0,8.0,8.0,1.0,,,,,,,,,,
0.0,1.0,1.0639,,,,,,projector_08s.jpg,0.0,clockno_default.jpg,2.0,65,,,,,,,,,,,,,,,,,,0.0,9.0,9.0,9.0,1.0,,,,,,,,,,
0.0,1.0,1.07654,,,,,,penlight_12s.jpg,0.0,clockno_default.jpg,2.0,65,,,,,,,,,,,,,,,,,,0.0,10.0,10.0,10.0,1.0,,,,,,,,,,
0.0,1.0,0.83623,,,,,,golf_club_03s.jpg,0.0,clockno_up.jpg,3.0,65,,,,,,,,,,,,,,,,,,0.0,11.0,11.0,11.0,1.0,,,,,,,,,,
0.0,1.0,0.978995,,,,,,espresso_01b.jpg,0.0,clockno_default.jpg,3.0,65,,,,,,,,,,,,,,,,,,0.0,12.0,12.0,12.0,1.0,,,,,,,,,,
1.0,1.0,1.30301,,,,,,espresso_01b.jpg,1.0,clockno_default.jpg,3.0,65,,,,,,,,,,,,,,,,,,0.0,13.0,13.0,13.0,1.0,,,,,,,,,,
0.0,1.0,1.245805,,,,,,mannequin_05s.jpg,0.0,clockno_default.jpg,3.0,65,,,,,,,,,,,,,,,,,,0.0,14.0,14.0,14.0,1.0,,,,,,,,,,
1.0,1.0,2.0793,,,,,,golf_club_03s.jpg,1.0,clockno_default.jpg,3.0,65,,,,,,,,,,,,,,,,,,0.0,15.0,15.0,15.0,1.0,,,,,,,,,,
0.0,1.0,1.28783,,,,,,loom_05s.jpg,0.0,clockno_default.jpg,3.0,65,,,,,,,,,,,,,,,,,,0.0,16.0,16.0,16.0,1.0,,,,,,,,,,
0.0,1.0,0.835425,,,,,,machete_06s.jpg,0.0,clockno_up.jpg,4.0,65,,,,,,,,,,,,,,,,,,0.0,17.0,17.0,17.0,1.0,,,,,,,,,,
0.0,1.0,1.506035,,,,,,seahorse_13s.jpg,0.0,clockno_default.jpg,4.0,65,,,,,,,,,,,,,,,,,,0.0,18.0,18.0,18.0,1.0,,,,,,,,,,
0.0,1.0,1.167895,,,,,,mannequin_05s.jpg,0.0,clockno_default.jpg,4.0,65,,,,,,,,,,,,,,,,,,0.0,19.0,19.0,19.0,1.0,,,,,,,,,,
0.0,1.0,1.247415,,,,,,saddle_06s.jpg,0.0,clockno_default.jpg,4.0,65,,,,,,,,,,,,,,,,,,0.0,20.0,20.0,20.0,1.0,,,,,,,,,,
0.0,1.0,0.87834,,,,,,rake_06s.jpg,0.0,clockno_default.jpg,4.0,65,,,,,,,,,,,,,,,,,,0.0,21.0,21.0,21.0,1.0,,,,,,,,,,
0.0,1.0,0.872695,,,,,,jewel_01b.jpg,0.0,clockno_default.jpg,4.0,65,,,,,,,,,,,,,,,,,,0.0,22.0,22.0,22.0,1.0,,,,,,,,,,
0.0,1.0,0.83961,,,,,,ironing_board_07s.jpg,0.0,clockno_default.jpg,4.0,65,,,,,,,,,,,,,,,,,,0.0,23.0,23.0,23.0,1.0,,,,,,,,,,
0.0,1.0,0.749455,,,,,,tuxedo_01b.jpg,0.0,clockno_up.jpg,5.0,65,,,,,,,,,,,,,,,,,,0.0,24.0,24.0,24.0,1.0,,,,,,,,,,
0.0,1.0,0.739075,,,,,,pie_08s.jpg,0.0,clockno_default.jpg,5.0,65,,,,,,,,,,,,,,,,,,0.0,25.0,25.0,25.0,1.0,,,,,,,,,,
0.0,1.0,1.232135,,,,,,mousetrap_15n.jpg,0.0,clockno_default.jpg,5.0,65,,,,,,,,,,,,,,,,,,0.0,26.0,26.0,26.0,1.0,,,,,,,,,,
0.0,1.0,1.06083,,,,,,measuring_cup_02s.jpg,0.0,clockno_default.jpg,5.0,65,,,,,,,,,,,,,,,,,,0.0,27.0,27.0,27.0,1.0,,,,,,,,,,
1.0,1.0,1.73112,,,,,,measuring_cup_02s.jpg,1.0,clockno_default.jpg,5.0,65,,,,,,,,,,,,,,,,,,0.0,28.0,28.0,28.0,1.0,,,,,,,,,,
0.0,1.0,1.57343,,,,,,olive_05s.jpg,0.0,clockno_up.jpg,6.0,65,,,,,,,,,,,,,,,,,,0.0,29.0,29.0,29.0,1.0,,,,,,,,,,
0.0,1.0,1.015725,,,,,,razor_12s.jpg,0.0,clockno_default.jpg,6.0,65,,,,,,,,,,,,,,,,,,0.0,30.0,30.0,30.0,1.0,,,,,,,,,,
0.0,1.0,0.80094,,,,,,footprint_11s.jpg,0.0,clockno_default.jpg,6.0,65,,,,,,,,,,,,,,,,,,0.0,31.0,31.0,31.0,1.0,,,,,,,,,,
0.0,1.0,1.219055,,,,,,reindeer_08s.jpg,0.0,clockno_default.jpg,6.0,65,,,,,,,,,,,,,,,,,,0.0,32.0,32.0,32.0,1.0,,,,,,,,,,
1.0,1.0,1.570975,,,,,,olive_05s.jpg,1.0,clockno_default.jpg,6.0,65,,,,,,,,,,,,,,,,,,0.0,33.0,33.0,33.0,1.0,,,,,,,,,,
1.0,1.0,1.800305,,,,,,razor_12s.jpg,1.0,clockno_default.jpg,6.0,65,,,,,,,,,,,,,,,,,,0.0,34.0,34.0,34.0,1.0,,,,,,,,,,
0.0,1.0,1.188335,,,,,,mold2_04s.jpg,0.0,clockno_default.jpg,6.0,65,,,,,,,,,,,,,,,,,,0.0,35.0,35.0,35.0,1.0,,,,,,,,,,
,,,,,,,,,1.0,,,65,0.0,0.0,2.4561,,,,,,jewel_01b.jpg,pie_08s.jpg,,,,,,,,,,,,,0.0,0.0,0.0,0.0,1.0,,,,,
,,,,,,,,,1.0,,,65,1.0,1.0,3.82754,,,,,,thread_08s.jpg,bubble_01b.jpg,,,,,,,,,,,,,0.0,1.0,1.0,1.0,1.0,,,,,
,,,,,,,,,0.0,,,65,1.0,0.0,1.7954,,,,,,tuxedo_01b.jpg,rake_06s.jpg,,,,,,,,,,,,,0.0,2.0,2.0,2.0,1.0,,,,,
,,,,,,,,,1.0,,,65,1.0,1.0,3.9642,,,,,,ladle_04s.jpg,projector_08s.jpg,,,,,,,,,,,,,0.0,3.0,3.0,3.0,1.0,,,,,
,,,,,,,,,0.0,,,65,0.0,1.0,1.95672,,,,,,saddle_06s.jpg,machete_06s.jpg,,,,,,,,,,,,,0.0,4.0,4.0,4.0,1.0,,,,,
,,,,,,,,,0.0,,,65,1.0,0.0,2.211365,,,,,,mold2_04s.jpg,reindeer_08s.jpg,,,,,,,,,,,,,0.0,5.0,5.0,5.0,1.0,,,,,
,,,,,,,,,,,,65,,,,,,,,,,,,,,,,clockno_present_1_5.xlsx,clockno_compare_task_1_5.xlsx,,,,,,,,,,,0.0,0.0,0.0,0.0,1.0
0.0,1.0,1.173095,,,,,,sushi_08s.jpg,0.0,clockno_up.jpg,1.0,65,,,,,,,,,,,,,,,,,,0.0,0.0,0.0,0.0,1.0,,,,,,,,,,
0.0,1.0,0.89079,,,,,,tweezers_03s.jpg,0.0,clockno_default.jpg,1.0,65,,,,,,,,,,,,,,,,,,0.0,1.0,1.0,1.0,1.0,,,,,,,,,,
0.0,1.0,0.97186,,,,,,teapot_03s.jpg,0.0,clockno_default.jpg,1.0,65,,,,,,,,,,,,,,,,,,0.0,2.0,2.0,2.0,1.0,,,,,,,,,,
0.0,1.0,0.796135,,,,,,tinsel_12s.jpg,0.0,clockno_default.jpg,1.0,65,,,,,,,,,,,,,,,,,,0.0,3.0,3.0,3.0,1.0,,,,,,,,,,
0.0,1.0,0.87447,,,,,,tuba_12s.jpg,0.0,clockno_default.jpg,1.0,65,,,,,,,,,,,,,,,,,,0.0,4.0,4.0,4.0,1.0,,,,,,,,,,
0.0,1.0,0.925025,,,,,,paintbrush_04s.jpg,0.0,clockno_default.jpg,1.0,65,,,,,,,,,,,,,,,,,,0.0,5.0,5.0,5.0,1.0,,,,,,,,,,
0.0,1.0,0.664585,,,,,,lasagna_06s.jpg,0.0,clockno_default.jpg,1.0,65,,,,,,,,,,,,,,,,,,0.0,6.0,6.0,6.0,1.0,,,,,,,,,,
0.0,1.0,0.769665,,,,,,pinwheel_06s.jpg,0.0,clockno_up.jpg,2.0,65,,,,,,,,,,,,,,,,,,0.0,7.0,7.0,7.0,1.0,,,,,,,,,,
0.0,1.0,0.721295,,,,,,owl_15s.jpg,0.0,clockno_default.jpg,2.0,65,,,,,,,,,,,,,,,,,,0.0,8.0,8.0,8.0,1.0,,,,,,,,,,
0.0,1.0,1.04805,,,,,,glasses01a.jpg,0.0,clockno_default.jpg,2.0,65,,,,,,,,,,,,,,,,,,0.0,9.0,9.0,9.0,1.0,,,,,,,,,,
0.0,1.0,0.912875,,,,,,pocketknife_12s.jpg,0.0,clockno_default.jpg,2.0,65,,,,,,,,,,,,,,,,,,0.0,10.0,10.0,10.0,1.0,,,,,,,,,,
0.0,1.0,0.805355,,,,,,fur_coat_11s.jpg,0.0,clockno_default.jpg,2.0,65,,,,,,,,,,,,,,,,,,0.0,11.0,11.0,11.0,1.0,,,,,,,,,,
0.0,1.0,0.908555,,,,,,tongs_08s.jpg,0.0,clockno_up.jpg,3.0,65,,,,,,,,,,,,,,,,,,0.0,12.0,12.0,12.0,1.0,,,,,,,,,,
1.0,1.0,0.9162,,,,,,tongs_08s.jpg,1.0,clockno_default.jpg,3.0,65,,,,,,,,,,,,,,,,,,0.0,13.0,13.0,13.0,1.0,,,,,,,,,,
0.0,1.0,1.106795,,,,,,leash_10s.jpg,0.0,clockno_default.jpg,3.0,65,,,,,,,,,,,,,,,,,,0.0,14.0,14.0,14.0,1.0,,,,,,,,,,
0.0,1.0,1.21371,,,,,,spoon02a.jpg,0.0,clockno_default.jpg,3.0,65,,,,,,,,,,,,,,,,,,0.0,15.0,15.0,15.0,1.0,,,,,,,,,,
0.0,1.0,1.07346,,,,,,plunger_08s.jpg,0.0,clockno_default.jpg,3.0,65,,,,,,,,,,,,,,,,,,0.0,16.0,16.0,16.0,1.0,,,,,,,,,,
1.0,1.0,1.09419,,,,,,plunger_08s.jpg,1.0,clockno_default.jpg,3.0,65,,,,,,,,,,,,,,,,,,0.0,17.0,17.0,17.0,1.0,,,,,,,,,,
0.0,1.0,0.93239,,,,,,playpen_11s.jpg,0.0,clockno_up.jpg,4.0,65,,,,,,,,,,,,,,,,,,0.0,18.0,18.0,18.0,1.0,,,,,,,,,,
0.0,1.0,1.38039,,,,,,smoothie_09s.jpg,0.0,clockno_default.jpg,4.0,65,,,,,,,,,,,,,,,,,,0.0,19.0,19.0,19.0,1.0,,,,,,,,,,
0.0,1.0,1.112535,,,,,,gear_07s.jpg,0.0,clockno_default.jpg,4.0,65,,,,,,,,,,,,,,,,,,0.0,20.0,20.0,20.0,1.0,,,,,,,,,,
1.0,1.0,1.244395,,,,,,smoothie_09s.jpg,1.0,clockno_default.jpg,4.0,65,,,,,,,,,,,,,,,,,,0.0,21.0,21.0,21.0,1.0,,,,,,,,,,
0.0,1.0,0.954115,,,,,,lamp_08s.jpg,0.0,clockno_default.jpg,4.0,65,,,,,,,,,,,,,,,,,,0.0,22.0,22.0,22.0,1.0,,,,,,,,,,
0.0,1.0,1.034945,,,,,,lollipop_08s.jpg,0.0,clockno_up.jpg,5.0,65,,,,,,,,,,,,,,,,,,0.0,23.0,23.0,23.0,1.0,,,,,,,,,,
0.0,1.0,1.21546,,,,,,squirt_gun_03s.jpg,0.0,clockno_default.jpg,5.0,65,,,,,,,,,,,,,,,,,,0.0,24.0,24.0,24.0,1.0,,,,,,,,,,
0.0,1.0,0.72455,,,,,,otter_05s.jpg,0.0,clockno_default.jpg,5.0,65,,,,,,,,,,,,,,,,,,0.0,25.0,25.0,25.0,1.0,,,,,,,,,,
0.0,1.0,1.06953,,,,,,tape_06s.jpg,0.0,clockno_default.jpg,5.0,65,,,,,,,,,,,,,,,,,,0.0,26.0,26.0,26.0,1.0,,,,,,,,,,
0.0,1.0,0.867725,,,,,,sunflower_17s.jpg,0.0,clockno_default.jpg,5.0,65,,,,,,,,,,,,,,,,,,0.0,27.0,27.0,27.0,1.0,,,,,,,,,,
0.0,1.0,0.792665,,,,,,fountain_pen_06s.jpg,0.0,clockno_default.jpg,5.0,65,,,,,,,,,,,,,,,,,,0.0,28.0,28.0,28.0,1.0,,,,,,,,,,
0.0,1.0,0.6747,,,,,,ant_12s.jpg,0.0,clockno_up.jpg,6.0,65,,,,,,,,,,,,,,,,,,0.0,29.0,29.0,29.0,1.0,,,,,,,,,,
0.0,1.0,0.834415,,,,,,tattoo_14s.jpg,0.0,clockno_default.jpg,6.0,65,,,,,,,,,,,,,,,,,,0.0,30.0,30.0,30.0,1.0,,,,,,,,,,
0.0,1.0,0.88479,,,,,,gear_07s.jpg,0.0,clockno_default.jpg,6.0,65,,,,,,,,,,,,,,,,,,0.0,31.0,31.0,31.0,1.0,,,,,,,,,,
0.0,1.0,1.299945,,,,,,tiger_06s.jpg,0.0,clockno_default.jpg,6.0,65,,,,,,,,,,,,,,,,,,0.0,32.0,32.0,32.0,1.0,,,,,,,,,,
0.0,1.0,1.249345,,,,,,raccoon_02s.jpg,0.0,clockno_default.jpg,6.0,65,,,,,,,,,,,,,,,,,,0.0,33.0,33.0,33.0,1.0,,,,,,,,,,
0.0,1.0,0.707665,,,,,,toilet_paper_12s.jpg,0.0,clockno_default.jpg,6.0,65,,,,,,,,,,,,,,,,,,0.0,34.0,34.0,34.0,1.0,,,,,,,,,,
0.0,0.0,1.297365,,,,,,tattoo_14s.jpg,1.0,clockno_default.jpg,6.0,65,,,,,,,,,,,,,,,,,,0.0,35.0,35.0,35.0,1.0,,,,,,,,,,
,,,,,,,,,1.0,,,65,0.0,0.0,2.35842,,,,,,spoon02a.jpg,playpen_11s.jpg,,,,,,,,,,,,,0.0,0.0,0.0,0.0,1.0,,,,,
,,,,,,,,,1.0,,,65,0.0,0.0,1.84725,,,,,,lasagna_06s.jpg,glasses01a.jpg,,,,,,,,,,,,,0.0,1.0,1.0,1.0,1.0,,,,,
,,,,,,,,,1.0,,,65,1.0,1.0,1.4732,,,,,,fur_coat_11s.jpg,leash_10s.jpg,,,,,,,,,,,,,0.0,2.0,2.0,2.0,1.0,,,,,
,,,,,,,,,1.0,,,65,1.0,1.0,2.761225,,,,,,sushi_08s.jpg,tinsel_12s.jpg,,,,,,,,,,,,,0.0,3.0,3.0,3.0,1.0,,,,,
,,,,,,,,,1.0,,,65,1.0,1.0,2.662015,,,,,,squirt_gun_03s.jpg,sunflower_17s.jpg,,,,,,,,,,,,,0.0,4.0,4.0,4.0,1.0,,,,,
,,,,,,,,,0.0,,,65,0.0,1.0,3.05854,,,,,,tuba_12s.jpg,tweezers_03s.jpg,,,,,,,,,,,,,0.0,5.0,5.0,5.0,1.0,,,,,
,,,,,,,,,,,,65,,,,,,,,,,,,,,,,clockno_present_2_5.xlsx,clockno_compare_task_2_5.xlsx,,,,,,,,,,,0.0,1.0,1.0,1.0,1.0
0.0,1.0,0.81084,,,,,,ram_05s.jpg,0.0,clockno_up.jpg,1.0,65,,,,,,,,,,,,,,,,,,0.0,0.0,0.0,0.0,1.0,,,,,,,,,,
0.0,1.0,0.711045,,,,,,panda_02s.jpg,0.0,clockno_default.jpg,1.0,65,,,,,,,,,,,,,,,,,,0.0,1.0,1.0,1.0,1.0,,,,,,,,,,
0.0,1.0,1.148475,,,,,,beaker_01b.jpg,0.0,clockno_default.jpg,1.0,65,,,,,,,,,,,,,,,,,,0.0,2.0,2.0,2.0,1.0,,,,,,,,,,
1.0,1.0,0.85644,,,,,,beaker_01b.jpg,1.0,clockno_default.jpg,1.0,65,,,,,,,,,,,,,,,,,,0.0,3.0,3.0,3.0,1.0,,,,,,,,,,
0.0,1.0,0.751595,,,,,,megaphone_03s.jpg,0.0,clockno_default.jpg,1.0,65,,,,,,,,,,,,,,,,,,0.0,4.0,4.0,4.0,1.0,,,,,,,,,,
0.0,1.0,1.19844,,,,,,dashboard_02s.jpg,0.0,clockno_up.jpg,2.0,65,,,,,,,,,,,,,,,,,,0.0,5.0,5.0,5.0,1.0,,,,,,,,,,
0.0,1.0,0.905545,,,,,,juicer2_06s.jpg,0.0,clockno_default.jpg,2.0,65,,,,,,,,,,,,,,,,,,0.0,6.0,6.0,6.0,1.0,,,,,,,,,,
0.0,1.0,0.795885,,,,,,butter_14s.jpg,0.0,clockno_default.jpg,2.0,65,,,,,,,,,,,,,,,,,,0.0,7.0,7.0,7.0,1.0,,,,,,,,,,
0.0,1.0,0.91639,,,,,,quesadilla_07s.jpg,0.0,clockno_default.jpg,2.0,65,,,,,,,,,,,,,,,,,,0.0,8.0,8.0,8.0,1.0,,,,,,,,,,
0.0,1.0,1.06133,,,,,,thumbtack_14s.jpg,0.0,clockno_default.jpg,2.0,65,,,,,,,,,,,,,,,,,,0.0,9.0,9.0,9.0,1.0,,,,,,,,,,
0.0,1.0,0.83816,,,,,,potholder_02s.jpg,0.0,clockno_default.jpg,2.0,65,,,,,,,,,,,,,,,,,,0.0,10.0,10.0,10.0,1.0,,,,,,,,,,
0.0,1.0,0.93825,,,,,,purse_05s.jpg,0.0,clockno_default.jpg,2.0,65,,,,,,,,,,,,,,,,,,0.0,11.0,11.0,11.0,1.0,,,,,,,,,,
0.0,1.0,1.063405,,,,,,binder_21s.jpg,0.0,clockno_up.jpg,3.0,65,,,,,,,,,,,,,,,,,,0.0,12.0,12.0,12.0,1.0,,,,,,,,,,
1.0,1.0,1.0935,,,,,,binder_21s.jpg,1.0,clockno_default.jpg,3.0,65,,,,,,,,,,,,,,,,,,0.0,13.0,13.0,13.0,1.0,,,,,,,,,,
0.0,1.0,1.156955,,,,,,knot_01b.jpg,0.0,clockno_default.jpg,3.0,65,,,,,,,,,,,,,,,,,,0.0,14.0,14.0,14.0,1.0,,,,,,,,,,
1.0,1.0,0.91372,,,,,,binder_21s.jpg,1.0,clockno_default.jpg,3.0,65,,,,,,,,,,,,,,,,,,0.0,15.0,15.0,15.0,1.0,,,,,,,,,,
0.0,1.0,0.79374,,,,,,raspberry_12s.jpg,0.0,clockno_default.jpg,3.0,65,,,,,,,,,,,,,,,,,,0.0,16.0,16.0,16.0,1.0,,,,,,,,,,
0.0,1.0,0.852895,,,,,,padlock_07s.jpg,0.0,clockno_up.jpg,4.0,65,,,,,,,,,,,,,,,,,,0.0,17.0,17.0,17.0,1.0,,,,,,,,,,
0.0,1.0,0.928275,,,,,,phone_01b.jpg,0.0,clockno_default.jpg,4.0,65,,,,,,,,,,,,,,,,,,0.0,18.0,18.0,18.0,1.0,,,,,,,,,,
0.0,1.0,1.111805,,,,,,lizard_10n.jpg,0.0,clockno_default.jpg,4.0,65,,,,,,,,,,,,,,,,,,0.0,19.0,19.0,19.0,1.0,,,,,,,,,,
0.0,1.0,1.23156,,,,,,seagull_01b.jpg,0.0,clockno_default.jpg,4.0,65,,,,,,,,,,,,,,,,,,0.0,20.0,20.0,20.0,1.0,,,,,,,,,,
0.0,1.0,0.76609,,,,,,stapler_01b.jpg,0.0,clockno_default.jpg,4.0,65,,,,,,,,,,,,,,,,,,0.0,21.0,21.0,21.0,1.0,,,,,,,,,,
0.0,1.0,1.34244,,,,,,turtleneck_11s.jpg,0.0,clockno_default.jpg,4.0,65,,,,,,,,,,,,,,,,,,0.0,22.0,22.0,22.0,1.0,,,,,,,,,,
0.0,1.0,1.162175,,,,,,top_hat_11s.jpg,0.0,clockno_up.jpg,5.0,65,,,,,,,,,,,,,,,,,,0.0,23.0,23.0,23.0,1.0,,,,,,,,,,
0.0,1.0,1.564,,,,,,screwdriver02a.jpg,0.0,clockno_default.jpg,5.0,65,,,,,,,,,,,,,,,,,,0.0,24.0,24.0,24.0,1.0,,,,,,,,,,
0.0,1.0,1.283675,,,,,,raspberry_12s.jpg,0.0,clockno_default.jpg,5.0,65,,,,,,,,,,,,,,,,,,0.0,25.0,25.0,25.0,1.0,,,,,,,,,,
0.0,1.0,1.54533,,,,,,gingerbread_man_03s.jpg,0.0,clockno_default.jpg,5.0,65,,,,,,,,,,,,,,,,,,0.0,26.0,26.0,26.0,1.0,,,,,,,,,,
0.0,1.0,0.94969,,,,,,bagel_15s.jpg,0.0,clockno_default.jpg,5.0,65,,,,,,,,,,,,,,,,,,0.0,27.0,27.0,27.0,1.0,,,,,,,,,,
0.0,0.0,2.178865,,,,,,top_hat_11s.jpg,1.0,clockno_default.jpg,5.0,65,,,,,,,,,,,,,,,,,,0.0,28.0,28.0,28.0,1.0,,,,,,,,,,
0.0,1.0,0.838385,,,,,,smokingpipe.jpg,0.0,clockno_default.jpg,5.0,65,,,,,,,,,,,,,,,,,,0.0,29.0,29.0,29.0,1.0,,,,,,,,,,
0.0,1.0,1.013185,,,,,,sea_urchin_09s.jpg,0.0,clockno_up.jpg,6.0,65,,,,,,,,,,,,,,,,,,0.0,30.0,30.0,30.0,1.0,,,,,,,,,,
0.0,1.0,1.24727,,,,,,tomato_sauce_09s.jpg,0.0,clockno_default.jpg,6.0,65,,,,,,,,,,,,,,,,,,0.0,31.0,31.0,31.0,1.0,,,,,,,,,,
0.0,1.0,1.092315,,,,,,triangle_10s.jpg,0.0,clockno_default.jpg,6.0,65,,,,,,,,,,,,,,,,,,0.0,32.0,32.0,32.0,1.0,,,,,,,,,,
0.0,1.0,0.941765,,,,,,squirrel_02s.jpg,0.0,clockno_default.jpg,6.0,65,,,,,,,,,,,,,,,,,,0.0,33.0,33.0,33.0,1.0,,,,,,,,,,
0.0,1.0,1.28397,,,,,,punch1_10s.jpg,0.0,clockno_default.jpg,6.0,65,,,,,,,,,,,,,,,,,,0.0,34.0,34.0,34.0,1.0,,,,,,,,,,
0.0,1.0,1.63118,,,,,,chalice_10s.jpg,0.0,clockno_default.jpg,6.0,65,,,,,,,,,,,,,,,,,,0.0,35.0,35.0,35.0,1.0,,,,,,,,,,
,,,,,,,,,1.0,,,65,1.0,1.0,2.305795,,,,,,purse_05s.jpg,knot_01b.jpg,,,,,,,,,,,,,0.0,0.0,0.0,0.0,1.0,,,,,
,,,,,,,,,0.0,,,65,1.0,0.0,2.83337,,,,,,butter_14s.jpg,megaphone_03s.jpg,,,,,,,,,,,,,0.0,1.0,1.0,1.0,1.0,,,,,
,,,,,,,,,0.0,,,65,0.0,1.0,2.53886,,,,,,screwdriver02a.jpg,stapler_01b.jpg,,,,,,,,,,,,,0.0,2.0,2.0,2.0,1.0,,,,,
,,,,,,,,,0.0,,,65,1.0,0.0,2.160005,,,,,,quesadilla_07s.jpg,dashboard_02s.jpg,,,,,,,,,,,,,0.0,3.0,3.0,3.0,1.0,,,,,
,,,,,,,,,0.0,,,65,0.0,1.0,2.120985,,,,,,thumbtack_14s.jpg,juicer2_06s.jpg,,,,,,,,,,,,,0.0,4.0,4.0,4.0,1.0,,,,,
,,,,,,,,,0.0,,,65,1.0,0.0,1.47958,,,,,,turtleneck_11s.jpg,lizard_10n.jpg,,,,,,,,,,,,,0.0,5.0,5.0,5.0,1.0,,,,,
,,,,,,,,,,,,65,,,,,,,,,,,,,,,,clockno_present_3_5.xlsx,clockno_compare_task_3_5.xlsx,,,,,,,,,,,0.0,2.0,2.0,2.0,1.0
0.0,1.0,1.36469,,,,,,leotard_08s.jpg,0.0,clockno_up.jpg,1.0,65,,,,,,,,,,,,,,,,,,0.0,0.0,0.0,0.0,1.0,,,,,,,,,,
0.0,1.0,0.697255,,,,,,popsicle_02s.jpg,0.0,clockno_default.jpg,1.0,65,,,,,,,,,,,,,,,,,,0.0,1.0,1.0,1.0,1.0,,,,,,,,,,
1.0,1.0,0.960155,,,,,,popsicle_02s.jpg,1.0,clockno_default.jpg,1.0,65,,,,,,,,,,,,,,,,,,0.0,2.0,2.0,2.0,1.0,,,,,,,,,,
1.0,1.0,0.7145,,,,,,popsicle_02s.jpg,1.0,clockno_default.jpg,1.0,65,,,,,,,,,,,,,,,,,,0.0,3.0,3.0,3.0,1.0,,,,,,,,,,
0.0,1.0,1.23131,,,,,,rocking_horse_03s.jpg,0.0,clockno_default.jpg,1.0,65,,,,,,,,,,,,,,,,,,0.0,4.0,4.0,4.0,1.0,,,,,,,,,,
0.0,1.0,1.446275,,,,,,incense_02s.jpg,0.0,clockno_up.jpg,2.0,65,,,,,,,,,,,,,,,,,,0.0,5.0,5.0,5.0,1.0,,,,,,,,,,
0.0,1.0,0.799175,,,,,,margarita_03s.jpg,0.0,clockno_default.jpg,2.0,65,,,,,,,,,,,,,,,,,,0.0,6.0,6.0,6.0,1.0,,,,,,,,,,
0.0,1.0,0.903495,,,,,,telephone_pole_05s.jpg,0.0,clockno_default.jpg,2.0,65,,,,,,,,,,,,,,,,,,0.0,7.0,7.0,7.0,1.0,,,,,,,,,,
0.0,1.0,0.968845,,,,,,hummingbird_05s.jpg,0.0,clockno_default.jpg,2.0,65,,,,,,,,,,,,,,,,,,0.0,8.0,8.0,8.0,1.0,,,,,,,,,,
0.0,1.0,0.741425,,,,,,pincushion_10s.jpg,0.0,clockno_default.jpg,2.0,65,,,,,,,,,,,,,,,,,,0.0,9.0,9.0,9.0,1.0,,,,,,,,,,
0.0,1.0,1.12781,,,,,,peppermint_07s.jpg,0.0,clockno_default.jpg,2.0,65,,,,,,,,,,,,,,,,,,0.0,10.0,10.0,10.0,1.0,,,,,,,,,,
0.0,1.0,0.62961,,,,,,mattress_01s.jpg,0.0,clockno_up.jpg,3.0,65,,,,,,,,,,,,,,,,,,0.0,11.0,11.0,11.0,1.0,,,,,,,,,,
0.0,1.0,0.99968,,,,,,swimming_pool_17s.jpg,0.0,clockno_default.jpg,3.0,65,,,,,,,,,,,,,,,,,,0.0,12.0,12.0,12.0,1.0,,,,,,,,,,
0.0,1.0,1.165255,,,,,,pincushion_10s.jpg,0.0,clockno_default.jpg,3.0,65,,,,,,,,,,,,,,,,,,0.0,13.0,13.0,13.0,1.0,,,,,,,,,,
0.0,1.0,1.01481,,,,,,pomegranate_04s.jpg,0.0,clockno_default.jpg,3.0,65,,,,,,,,,,,,,,,,,,0.0,14.0,14.0,14.0,1.0,,,,,,,,,,
1.0,1.0,1.49098,,,,,,pincushion_10s.jpg,1.0,clockno_default.jpg,3.0,65,,,,,,,,,,,,,,,,,,0.0,15.0,15.0,15.0,1.0,,,,,,,,,,
0.0,1.0,1.136245,,,,,,soccer_ball_12s.jpg,0.0,clockno_default.jpg,3.0,65,,,,,,,,,,,,,,,,,,0.0,16.0,16.0,16.0,1.0,,,,,,,,,,
0.0,1.0,1.53867,,,,,,swing_set_15s.jpg,0.0,clockno_default.jpg,3.0,65,,,,,,,,,,,,,,,,,,0.0,17.0,17.0,17.0,1.0,,,,,,,,,,
0.0,1.0,1.1226,,,,,,lipstick_02s.jpg,0.0,clockno_up.jpg,4.0,65,,,,,,,,,,,,,,,,,,0.0,18.0,18.0,18.0,1.0,,,,,,,,,,
1.0,1.0,1.188315,,,,,,lipstick_02s.jpg,1.0,clockno_default.jpg,4.0,65,,,,,,,,,,,,,,,,,,0.0,19.0,19.0,19.0,1.0,,,,,,,,,,
0.0,1.0,1.292255,,,,,,tie_03s.jpg,0.0,clockno_default.jpg,4.0,65,,,,,,,,,,,,,,,,,,0.0,20.0,20.0,20.0,1.0,,,,,,,,,,
0.0,1.0,1.190565,,,,,,muffin_12n.jpg,0.0,clockno_default.jpg,4.0,65,,,,,,,,,,,,,,,,,,0.0,21.0,21.0,21.0,1.0,,,,,,,,,,
0.0,1.0,1.18617,,,,,,solar_panel_02s.jpg,0.0,clockno_default.jpg,4.0,65,,,,,,,,,,,,,,,,,,0.0,22.0,22.0,22.0,1.0,,,,,,,,,,
0.0,1.0,1.07035,,,,,,safety_pin_02s.jpg,0.0,clockno_default.jpg,4.0,65,,,,,,,,,,,,,,,,,,0.0,23.0,23.0,23.0,1.0,,,,,,,,,,
0.0,1.0,1.18587,,,,,,rolling_pin_02s.jpg,0.0,clockno_up.jpg,5.0,65,,,,,,,,,,,,,,,,,,0.0,24.0,24.0,24.0,1.0,,,,,,,,,,
0.0,1.0,0.672485,,,,,,toaster_03s.jpg,0.0,clockno_default.jpg,5.0,65,,,,,,,,,,,,,,,,,,0.0,25.0,25.0,25.0,1.0,,,,,,,,,,
0.0,1.0,1.152195,,,,,,umbrella_15s.jpg,0.0,clockno_default.jpg,5.0,65,,,,,,,,,,,,,,,,,,0.0,26.0,26.0,26.0,1.0,,,,,,,,,,
0.0,1.0,1.014315,,,,,,gong_02s.jpg,0.0,clockno_default.jpg,5.0,65,,,,,,,,,,,,,,,,,,0.0,27.0,27.0,27.0,1.0,,,,,,,,,,
0.0,1.0,1.266325,,,,,,plug_08s.jpg,0.0,clockno_default.jpg,5.0,65,,,,,,,,,,,,,,,,,,0.0,28.0,28.0,28.0,1.0,,,,,,,,,,
0.0,1.0,0.9737,,,,,,bonsai_07s.jpg,0.0,clockno_up.jpg,6.0,65,,,,,,,,,,,,,,,,,,0.0,29.0,29.0,29.0,1.0,,,,,,,,,,
0.0,1.0,1.52865,,,,,,raft_09s.jpg,0.0,clockno_default.jpg,6.0,65,,,,,,,,,,,,,,,,,,0.0,30.0,30.0,30.0,1.0,,,,,,,,,,
0.0,1.0,1.43861,,,,,,puppet_01b.jpg,0.0,clockno_default.jpg,6.0,65,,,,,,,,,,,,,,,,,,0.0,31.0,31.0,31.0,1.0,,,,,,,,,,
1.0,1.0,1.30471,,,,,,puppet_01b.jpg,1.0,clockno_default.jpg,6.0,65,,,,,,,,,,,,,,,,,,0.0,32.0,32.0,32.0,1.0,,,,,,,,,,
0.0,1.0,1.6028,,,,,,emerald_02s.jpg,0.0,clockno_default.jpg,6.0,65,,,,,,,,,,,,,,,,,,0.0,33.0,33.0,33.0,1.0,,,,,,,,,,
0.0,1.0,1.411765,,,,,,pencil02a.jpg,0.0,clockno_default.jpg,6.0,65,,,,,,,,,,,,,,,,,,0.0,34.0,34.0,34.0,1.0,,,,,,,,,,
0.0,1.0,1.71658,,,,,,gazelle_10s.jpg,0.0,clockno_default.jpg,6.0,65,,,,,,,,,,,,,,,,,,0.0,35.0,35.0,35.0,1.0,,,,,,,,,,
,,,,,,,,,1.0,,,65,1.0,1.0,2.842185,,,,,,umbrella_15s.jpg,bonsai_07s.jpg,,,,,,,,,,,,,0.0,0.0,0.0,0.0,1.0,,,,,
,,,,,,,,,1.0,,,65,1.0,1.0,2.40531,,,,,,rocking_horse_03s.jpg,telephone_pole_05s.jpg,,,,,,,,,,,,,0.0,1.0,1.0,1.0,1.0,,,,,
,,,,,,,,,1.0,,,65,0.0,0.0,3.101295,,,,,,muffin_12n.jpg,rolling_pin_02s.jpg,,,,,,,,,,,,,0.0,2.0,2.0,2.0,1.0,,,,,
,,,,,,,,,1.0,,,65,0.0,0.0,1.826655,,,,,,incense_02s.jpg,hummingbird_05s.jpg,,,,,,,,,,,,,0.0,3.0,3.0,3.0,1.0,,,,,
,,,,,,,,,0.0,,,65,0.0,1.0,2.073215,,,,,,pomegranate_04s.jpg,mattress_01s.jpg,,,,,,,,,,,,,0.0,4.0,4.0,4.0,1.0,,,,,
,,,,,,,,,1.0,,,65,1.0,1.0,5.797225,,,,,,toaster_03s.jpg,plug_08s.jpg,,,,,,,,,,,,,0.0,5.0,5.0,5.0,1.0,,,,,
,,,,,,,,,,,,65,,,,,,,,,,,,,,,,clockno_present_4_5.xlsx,clockno_compare_task_4_5.xlsx,,,,,,,,,,,0.0,3.0,3.0,3.0,1.0
0.0,1.0,0.839665,,,,,,tiara_05s.jpg,0.0,clockno_up.jpg,1.0,65,,,,,,,,,,,,,,,,,,0.0,0.0,0.0,0.0,1.0,,,,,,,,,,
0.0,1.0,0.976095,,,,,,refrigerator_07s.jpg,0.0,clockno_default.jpg,1.0,65,,,,,,,,,,,,,,,,,,0.0,1.0,1.0,1.0,1.0,,,,,,,,,,
0.0,1.0,0.63764,,,,,,roller_coaster_07s.jpg,0.0,clockno_default.jpg,1.0,65,,,,,,,,,,,,,,,,,,0.0,2.0,2.0,2.0,1.0,,,,,,,,,,
0.0,1.0,0.509475,,,,,,crystal_ball_12s.jpg,0.0,clockno_default.jpg,1.0,65,,,,,,,,,,,,,,,,,,0.0,3.0,3.0,3.0,1.0,,,,,,,,,,
0.0,1.0,0.60702,,,,,,racehorse_03s.jpg,0.0,clockno_default.jpg,1.0,65,,,,,,,,,,,,,,,,,,0.0,4.0,4.0,4.0,1.0,,,,,,,,,,
0.0,1.0,0.77623,,,,,,lamb_chop_07s.jpg,0.0,clockno_default.jpg,1.0,65,,,,,,,,,,,,,,,,,,0.0,5.0,5.0,5.0,1.0,,,,,,,,,,
0.0,1.0,0.96626,,,,,,paper_towel_03s.jpg,0.0,clockno_up.jpg,2.0,65,,,,,,,,,,,,,,,,,,0.0,6.0,6.0,6.0,1.0,,,,,,,,,,
0.0,1.0,0.68882,,,,,,radiator_05s.jpg,0.0,clockno_default.jpg,2.0,65,,,,,,,,,,,,,,,,,,0.0,7.0,7.0,7.0,1.0,,,,,,,,,,
0.0,1.0,0.681645,,,,,,frog_09s.jpg,0.0,clockno_default.jpg,2.0,65,,,,,,,,,,,,,,,,,,0.0,8.0,8.0,8.0,1.0,,,,,,,,,,
0.0,0.0,0.600075,,,,,,radiator_05s.jpg,1.0,clockno_default.jpg,2.0,65,,,,,,,,,,,,,,,,,,0.0,9.0,9.0,9.0,1.0,,,,,,,,,,
0.0,1.0,1.59874,,,,,,chocolate_01b.jpg,0.0,clockno_default.jpg,2.0,65,,,,,,,,,,,,,,,,,,0.0,10.0,10.0,10.0,1.0,,,,,,,,,,
0.0,1.0,1.31779,,,,,,metronome_03s.jpg,0.0,clockno_up.jpg,3.0,65,,,,,,,,,,,,,,,,,,0.0,11.0,11.0,11.0,1.0,,,,,,,,,,
0.0,1.0,1.12242,,,,,,kettle_08s.jpg,0.0,clockno_default.jpg,3.0,65,,,,,,,,,,,,,,,,,,0.0,12.0,12.0,12.0,1.0,,,,,,,,,,
0.0,1.0,1.34945,,,,,,refrigerator_07s.jpg,0.0,clockno_default.jpg,3.0,65,,,,,,,,,,,,,,,,,,0.0,13.0,13.0,13.0,1.0,,,,,,,,,,
0.0,1.0,0.943115,,,,,,eyedropper_12s.jpg,0.0,clockno_default.jpg,3.0,65,,,,,,,,,,,,,,,,,,0.0,14.0,14.0,14.0,1.0,,,,,,,,,,
0.0,1.0,1.378575,,,,,,totem_pole_05s.jpg,0.0,clockno_default.jpg,3.0,65,,,,,,,,,,,,,,,,,,0.0,15.0,15.0,15.0,1.0,,,,,,,,,,
0.0,1.0,0.884635,,,,,,aluminum_foil_08s.jpg,0.0,clockno_default.jpg,3.0,65,,,,,,,,,,,,,,,,,,0.0,16.0,16.0,16.0,1.0,,,,,,,,,,
0.0,1.0,1.31671,,,,,,birdcage_08s.jpg,0.0,clockno_default.jpg,3.0,65,,,,,,,,,,,,,,,,,,0.0,17.0,17.0,17.0,1.0,,,,,,,,,,
0.0,1.0,1.9293,,,,,,gargoyle_08s.jpg,0.0,clockno_up.jpg,4.0,65,,,,,,,,,,,,,,,,,,0.0,18.0,18.0,18.0,1.0,,,,,,,,,,
0.0,1.0,0.93346,,,,,,cobra_05s.jpg,0.0,clockno_default.jpg,4.0,65,,,,,,,,,,,,,,,,,,0.0,19.0,19.0,19.0,1.0,,,,,,,,,,
0.0,1.0,0.998375,,,,,,bank_06s.jpg,0.0,clockno_default.jpg,4.0,65,,,,,,,,,,,,,,,,,,0.0,20.0,20.0,20.0,1.0,,,,,,,,,,
0.0,1.0,1.28365,,,,,,spatula04.jpg,0.0,clockno_default.jpg,4.0,65,,,,,,,,,,,,,,,,,,0.0,21.0,21.0,21.0,1.0,,,,,,,,,,
0.0,1.0,0.965465,,,,,,syringe_02s.jpg,0.0,clockno_default.jpg,4.0,65,,,,,,,,,,,,,,,,,,0.0,22.0,22.0,22.0,1.0,,,,,,,,,,
0.0,1.0,1.542115,,,,,,surfboard_11s.jpg,0.0,clockno_up.jpg,5.0,65,,,,,,,,,,,,,,,,,,0.0,23.0,23.0,23.0,1.0,,,,,,,,,,
0.0,1.0,0.92525,,,,,,birthday_cake_09s.jpg,0.0,clockno_default.jpg,5.0,65,,,,,,,,,,,,,,,,,,0.0,24.0,24.0,24.0,1.0,,,,,,,,,,
0.0,1.0,1.00672,,,,,,pretzel_09s.jpg,0.0,clockno_default.jpg,5.0,65,,,,,,,,,,,,,,,,,,0.0,25.0,25.0,25.0,1.0,,,,,,,,,,
0.0,1.0,1.40267,,,,,,possum_09s.jpg,0.0,clockno_default.jpg,5.0,65,,,,,,,,,,,,,,,,,,0.0,26.0,26.0,26.0,1.0,,,,,,,,,,
0.0,1.0,1.165065,,,,,,magnet_03s.jpg,0.0,clockno_default.jpg,5.0,65,,,,,,,,,,,,,,,,,,0.0,27.0,27.0,27.0,1.0,,,,,,,,,,
0.0,1.0,1.39793,,,,,,crate_05s.jpg,0.0,clockno_default.jpg,5.0,65,,,,,,,,,,,,,,,,,,0.0,28.0,28.0,28.0,1.0,,,,,,,,,,
0.0,1.0,0.979605,,,,,,fossil_06s.jpg,0.0,clockno_up.jpg,6.0,65,,,,,,,,,,,,,,,,,,0.0,29.0,29.0,29.0,1.0,,,,,,,,,,
0.0,1.0,0.89615,,,,,,contact_lens_15s.jpg,0.0,clockno_default.jpg,6.0,65,,,,,,,,,,,,,,,,,,0.0,30.0,30.0,30.0,1.0,,,,,,,,,,
0.0,1.0,1.02492,,,,,,sugar_cube_11s.jpg,0.0,clockno_default.jpg,6.0,65,,,,,,,,,,,,,,,,,,0.0,31.0,31.0,31.0,1.0,,,,,,,,,,
0.0,1.0,0.759865,,,,,,key_07s.jpg,0.0,clockno_default.jpg,6.0,65,,,,,,,,,,,,,,,,,,0.0,32.0,32.0,32.0,1.0,,,,,,,,,,
0.0,1.0,1.631995,,,,,,birthday_cake_09s.jpg,0.0,clockno_default.jpg,6.0,65,,,,,,,,,,,,,,,,,,0.0,33.0,33.0,33.0,1.0,,,,,,,,,,
0.0,1.0,1.15162,,,,,,kangaroo_02s.jpg,0.0,clockno_default.jpg,6.0,65,,,,,,,,,,,,,,,,,,0.0,34.0,34.0,34.0,1.0,,,,,,,,,,
0.0,1.0,0.93355,,,,,,juicer1_08s.jpg,0.0,clockno_default.jpg,6.0,65,,,,,,,,,,,,,,,,,,0.0,35.0,35.0,35.0,1.0,,,,,,,,,,
,,,,,,,,,1.0,,,65,0.0,0.0,2.50824,,,,,,magnet_03s.jpg,contact_lens_15s.jpg,,,,,,,,,,,,,0.0,0.0,0.0,0.0,1.0,,,,,
,,,,,,,,,0.0,,,65,0.0,1.0,1.835465,,,,,,paper_towel_03s.jpg,crystal_ball_12s.jpg,,,,,,,,,,,,,0.0,1.0,1.0,1.0,1.0,,,,,
,,,,,,,,,0.0,,,65,1.0,0.0,1.361755,,,,,,frog_09s.jpg,lamb_chop_07s.jpg,,,,,,,,,,,,,0.0,2.0,2.0,2.0,1.0,,,,,
,,,,,,,,,0.0,,,65,1.0,0.0,2.75084,,,,,,juicer1_08s.jpg,key_07s.jpg,,,,,,,,,,,,,0.0,3.0,3.0,3.0,1.0,,,,,
,,,,,,,,,0.0,,,65,0.0,1.0,4.143555,,,,,,eyedropper_12s.jpg,metronome_03s.jpg,,,,,,,,,,,,,0.0,4.0,4.0,4.0,1.0,,,,,
,,,,,,,,,0.0,,,65,0.0,1.0,1.691935,,,,,,totem_pole_05s.jpg,kettle_08s.jpg,,,,,,,,,,,,,0.0,5.0,5.0,5.0,1.0,,,,,
,,,,,,,,,,,,65,,,,,,,,,,,,,,,,clockno_present_5_5.xlsx,clockno_compare_task_5_5.xlsx,,,,,,,,,,,0.0,4.0,4.0,4.0,1.0
0.0,1.0,0.829465,,,,,,fishhook_06s.jpg,0.0,clockno_up.jpg,1.0,65,,,,,,,,,,,,,,,,,,0.0,0.0,0.0,0.0,1.0,,,,,,,,,,
1.0,1.0,1.114695,,,,,,fishhook_06s.jpg,1.0,clockno_default.jpg,1.0,65,,,,,,,,,,,,,,,,,,0.0,1.0,1.0,1.0,1.0,,,,,,,,,,
1.0,1.0,1.14287,,,,,,fishhook_06s.jpg,1.0,clockno_default.jpg,1.0,65,,,,,,,,,,,,,,,,,,0.0,2.0,2.0,2.0,1.0,,,,,,,,,,
0.0,1.0,1.41195,,,,,,chip_04s.jpg,0.0,clockno_default.jpg,1.0,65,,,,,,,,,,,,,,,,,,0.0,3.0,3.0,3.0,1.0,,,,,,,,,,
0.0,1.0,1.45756,,,,,,kite_04s.jpg,0.0,clockno_default.jpg,1.0,65,,,,,,,,,,,,,,,,,,0.0,4.0,4.0,4.0,1.0,,,,,,,,,,
1.0,1.0,1.56226,,,,,,fishhook_06s.jpg,1.0,clockno_default.jpg,1.0,65,,,,,,,,,,,,,,,,,,0.0,5.0,5.0,5.0,1.0,,,,,,,,,,
0.0,1.0,1.092605,,,,,,potpourri_03s.jpg,0.0,clockno_default.jpg,1.0,65,,,,,,,,,,,,,,,,,,0.0,6.0,6.0,6.0,1.0,,,,,,,,,,
0.0,1.0,1.163905,,,,,,blazer_02s.jpg,0.0,clockno_up.jpg,2.0,65,,,,,,,,,,,,,,,,,,0.0,7.0,7.0,7.0,1.0,,,,,,,,,,
0.0,1.0,1.459065,,,,,,toy_04s.jpg,0.0,clockno_default.jpg,2.0,65,,,,,,,,,,,,,,,,,,0.0,8.0,8.0,8.0,1.0,,,,,,,,,,
0.0,1.0,1.04957,,,,,,poinsettia_04s.jpg,0.0,clockno_default.jpg,2.0,65,,,,,,,,,,,,,,,,,,0.0,9.0,9.0,9.0,1.0,,,,,,,,,,
0.0,1.0,1.508325,,,,,,punch2_09s.jpg,0.0,clockno_default.jpg,2.0,65,,,,,,,,,,,,,,,,,,0.0,10.0,10.0,10.0,1.0,,,,,,,,,,
,0.0,,,,,,,toy_04s.jpg,1.0,clockno_default.jpg,2.0,65,,,,,,,,,,,,,,,,,,0.0,11.0,11.0,11.0,1.0,,,,,,,,,,
0.0,1.0,0.80899,,,,,,quilt_03s.jpg,0.0,clockno_up.jpg,3.0,65,,,,,,,,,,,,,,,,,,0.0,12.0,12.0,12.0,1.0,,,,,,,,,,
1.0,1.0,1.26038,,,,,,quilt_03s.jpg,1.0,clockno_default.jpg,3.0,65,,,,,,,,,,,,,,,,,,0.0,13.0,13.0,13.0,1.0,,,,,,,,,,
0.0,1.0,1.172525,,,,,,toad_09s.jpg,0.0,clockno_default.jpg,3.0,65,,,,,,,,,,,,,,,,,,0.0,14.0,14.0,14.0,1.0,,,,,,,,,,
1.0,1.0,1.201105,,,,,,toad_09s.jpg,1.0,clockno_default.jpg,3.0,65,,,,,,,,,,,,,,,,,,0.0,15.0,15.0,15.0,1.0,,,,,,,,,,
1.0,1.0,1.25671,,,,,,quilt_03s.jpg,1.0,clockno_default.jpg,3.0,65,,,,,,,,,,,,,,,,,,0.0,16.0,16.0,16.0,1.0,,,,,,,,,,
0.0,1.0,1.71005,,,,,,cucumber_07s.jpg,0.0,clockno_default.jpg,3.0,65,,,,,,,,,,,,,,,,,,0.0,17.0,17.0,17.0,1.0,,,,,,,,,,
0.0,1.0,1.64345,,,,,,turf_03s.jpg,0.0,clockno_default.jpg,3.0,65,,,,,,,,,,,,,,,,,,0.0,18.0,18.0,18.0,1.0,,,,,,,,,,
0.0,1.0,2.03996,,,,,,slingshot_07s.jpg,0.0,clockno_up.jpg,4.0,65,,,,,,,,,,,,,,,,,,0.0,19.0,19.0,19.0,1.0,,,,,,,,,,
0.0,1.0,1.85786,,,,,,toy_04s.jpg,0.0,clockno_default.jpg,4.0,65,,,,,,,,,,,,,,,,,,0.0,20.0,20.0,20.0,1.0,,,,,,,,,,
0.0,1.0,2.01261,,,,,,rice_12s.jpg,0.0,clockno_default.jpg,4.0,65,,,,,,,,,,,,,,,,,,0.0,21.0,21.0,21.0,1.0,,,,,,,,,,
0.0,1.0,0.74605,,,,,,flip_flop_03s.jpg,0.0,clockno_default.jpg,4.0,65,,,,,,,,,,,,,,,,,,0.0,22.0,22.0,22.0,1.0,,,,,,,,,,
0.0,1.0,0.889405,,,,,,knitting_needle_04s.jpg,0.0,clockno_default.jpg,4.0,65,,,,,,,,,,,,,,,,,,0.0,23.0,23.0,23.0,1.0,,,,,,,,,,
0.0,1.0,1.32682,,,,,,crossbow_10s.jpg,0.0,clockno_default.jpg,4.0,65,,,,,,,,,,,,,,,,,,0.0,24.0,24.0,24.0,1.0,,,,,,,,,,
0.0,1.0,1.062675,,,,,,rocking_chair_05s.jpg,0.0,clockno_up.jpg,5.0,65,,,,,,,,,,,,,,,,,,0.0,25.0,25.0,25.0,1.0,,,,,,,,,,
0.0,1.0,0.864695,,,,,,fire_pit_10s.jpg,0.0,clockno_default.jpg,5.0,65,,,,,,,,,,,,,,,,,,0.0,26.0,26.0,26.0,1.0,,,,,,,,,,
1.0,1.0,1.41716,,,,,,rocking_chair_05s.jpg,1.0,clockno_default.jpg,5.0,65,,,,,,,,,,,,,,,,,,0.0,27.0,27.0,27.0,1.0,,,,,,,,,,
1.0,1.0,1.25861,,,,,,rocking_chair_05s.jpg,1.0,clockno_default.jpg,5.0,65,,,,,,,,,,,,,,,,,,0.0,28.0,28.0,28.0,1.0,,,,,,,,,,
0.0,1.0,1.077725,,,,,,toad_09s.jpg,0.0,clockno_default.jpg,5.0,65,,,,,,,,,,,,,,,,,,0.0,29.0,29.0,29.0,1.0,,,,,,,,,,
1.0,1.0,1.17484,,,,,,rocking_chair_05s.jpg,1.0,clockno_default.jpg,5.0,65,,,,,,,,,,,,,,,,,,0.0,30.0,30.0,30.0,1.0,,,,,,,,,,
0.0,1.0,1.21426,,,,,,money_07s.jpg,0.0,clockno_up.jpg,6.0,65,,,,,,,,,,,,,,,,,,0.0,31.0,31.0,31.0,1.0,,,,,,,,,,
0.0,1.0,1.280485,,,,,,boomerang_06s.jpg,0.0,clockno_default.jpg,6.0,65,,,,,,,,,,,,,,,,,,0.0,32.0,32.0,32.0,1.0,,,,,,,,,,
0.0,1.0,0.817005,,,,,,mitten_10s.jpg,0.0,clockno_default.jpg,6.0,65,,,,,,,,,,,,,,,,,,0.0,33.0,33.0,33.0,1.0,,,,,,,,,,
0.0,1.0,1.368885,,,,,,cereal_04s.jpg,0.0,clockno_default.jpg,6.0,65,,,,,,,,,,,,,,,,,,0.0,34.0,34.0,34.0,1.0,,,,,,,,,,
0.0,1.0,0.8691,,,,,,mailbox_11s.jpg,0.0,clockno_default.jpg,6.0,65,,,,,,,,,,,,,,,,,,0.0,35.0,35.0,35.0,1.0,,,,,,,,,,
,,,,,,,,,1.0,,,65,1.0,1.0,4.00373,,,,,,knitting_needle_04s.jpg,fire_pit_10s.jpg,,,,,,,,,,,,,0.0,0.0,0.0,0.0,1.0,,,,,
,,,,,,,,,1.0,,,65,0.0,0.0,4.094095,,,,,,kite_04s.jpg,blazer_02s.jpg,,,,,,,,,,,,,0.0,1.0,1.0,1.0,1.0,,,,,
,,,,,,,,,1.0,,,65,0.0,0.0,5.718445,,,,,,potpourri_03s.jpg,poinsettia_04s.jpg,,,,,,,,,,,,,0.0,2.0,2.0,2.0,1.0,,,,,
,,,,,,,,,1.0,,,65,1.0,1.0,2.02813,,,,,,slingshot_07s.jpg,flip_flop_03s.jpg,,,,,,,,,,,,,0.0,3.0,3.0,3.0,1.0,,,,,
,,,,,,,,,1.0,,,65,1.0,1.0,5.6895,,,,,,money_07s.jpg,cereal_04s.jpg,,,,,,,,,,,,,0.0,4.0,4.0,4.0,1.0,,,,,
,,,,,,,,,1.0,,,65,1.0,1.0,1.5518,,,,,,boomerang_06s.jpg,mailbox_11s.jpg,,,,,,,,,,,,,0.0,5.0,5.0,5.0,1.0,,,,,
