key_resp.keys,key_resp.corr,key_resp.rt,noclock_loop.thisRepN,noclock_loop.thisTrialN,noclock_loop.thisN,noclock_loop.thisIndex,noclock_loop.ran,pictures,answer,clock,segment,participant,key_resp_2.keys,key_resp_2.corr,key_resp_2.rt,noclock_loop2.thisRepN,noclock_loop2.thisTrialN,noclock_loop2.thisN,noclock_loop2.thisIndex,noclock_loop2.ran,item_a,item_b,noclock_condition.thisRepN,noclock_condition.thisTrialN,noclock_condition.thisN,noclock_condition.thisIndex,noclock_condition.ran,present,compare,present_segment.thisRepN,present_segment.thisTrialN,present_segment.thisN,present_segment.thisIndex,present_segment.ran,compare_segment.thisRepN,compare_segment.thisTrialN,compare_segment.thisN,compare_segment.thisIndex,compare_segment.ran,clock_conditions.thisRepN,clock_conditions.thisTrialN,clock_conditions.thisN,clock_conditions.thisIndex,clock_conditions.ran
0.0,1.0,1.553295,0.0,0.0,0.0,0.0,1.0,sunflower_17s.jpg,0.0,clockno_up.jpg,1.0,64,,,,,,,,,,,,,,,,,,,,,,,,,,,,,,,,
0.0,1.0,1.221645,0.0,1.0,1.0,1.0,1.0,briefcase_03s.jpg,0.0,clockno_default.jpg,1.0,64,,,,,,,,,,,,,,,,,,,,,,,,,,,,,,,,
0.0,1.0,1.054555,0.0,2.0,2.0,2.0,1.0,crystal_ball_12s.jpg,0.0,clockno_default.jpg,1.0,64,,,,,,,,,,,,,,,,,,,,,,,,,,,,,,,,
0.0,0.0,0.510375,0.0,3.0,3.0,3.0,1.0,briefcase_03s.jpg,1.0,clockno_default.jpg,1.0,64,,,,,,,,,,,,,,,,,,,,,,,,,,,,,,,,
0.0,1.0,0.58888,0.0,4.0,4.0,4.0,1.0,glue_01s.jpg,0.0,clockno_default.jpg,1.0,64,,,,,,,,,,,,,,,,,,,,,,,,,,,,,,,,
0.0,1.0,0.516215,0.0,5.0,5.0,5.0,1.0,ring_03s.jpg,0.0,clockno_default.jpg,1.0,64,,,,,,,,,,,,,,,,,,,,,,,,,,,,,,,,
0.0,1.0,0.65397,0.0,6.0,6.0,6.0,1.0,machete_06s.jpg,0.0,clockno_up.jpg,2.0,64,,,,,,,,,,,,,,,,,,,,,,,,,,,,,,,,
1.0,1.0,0.775215,0.0,7.0,7.0,7.0,1.0,machete_06s.jpg,1.0,clockno_default.jpg,2.0,64,,,,,,,,,,,,,,,,,,,,,,,,,,,,,,,,
0.0,1.0,0.598415,0.0,8.0,8.0,8.0,1.0,ring_03s.jpg,0.0,clockno_default.jpg,2.0,64,,,,,,,,,,,,,,,,,,,,,,,,,,,,,,,,
0.0,1.0,0.632275,0.0,9.0,9.0,9.0,1.0,pear_02s.jpg,0.0,clockno_default.jpg,2.0,64,,,,,,,,,,,,,,,,,,,,,,,,,,,,,,,,
1.0,1.0,0.771245,0.0,10.0,10.0,10.0,1.0,ring_03s.jpg,1.0,clockno_default.jpg,2.0,64,,,,,,,,,,,,,,,,,,,,,,,,,,,,,,,,
0.0,1.0,0.98786,0.0,11.0,11.0,11.0,1.0,pepper_mill_03s.jpg,0.0,clockno_default.jpg,2.0,64,,,,,,,,,,,,,,,,,,,,,,,,,,,,,,,,
0.0,1.0,0.780545,0.0,12.0,12.0,12.0,1.0,raft_09s.jpg,0.0,clockno_default.jpg,2.0,64,,,,,,,,,,,,,,,,,,,,,,,,,,,,,,,,
0.0,1.0,1.231825,0.0,13.0,13.0,13.0,1.0,flask_04s.jpg,0.0,clockno_up.jpg,3.0,64,,,,,,,,,,,,,,,,,,,,,,,,,,,,,,,,
1.0,1.0,0.700585,0.0,14.0,14.0,14.0,1.0,flask_04s.jpg,1.0,clockno_default.jpg,3.0,64,,,,,,,,,,,,,,,,,,,,,,,,,,,,,,,,
0.0,1.0,0.83912,0.0,15.0,15.0,15.0,1.0,ring_03s.jpg,0.0,clockno_default.jpg,3.0,64,,,,,,,,,,,,,,,,,,,,,,,,,,,,,,,,
1.0,1.0,0.94336,0.0,16.0,16.0,16.0,1.0,flask_04s.jpg,1.0,clockno_default.jpg,3.0,64,,,,,,,,,,,,,,,,,,,,,,,,,,,,,,,,
0.0,1.0,0.621085,0.0,17.0,17.0,17.0,1.0,rake_06s.jpg,0.0,clockno_default.jpg,3.0,64,,,,,,,,,,,,,,,,,,,,,,,,,,,,,,,,
0.0,1.0,0.823935,0.0,18.0,18.0,18.0,1.0,umbrella_15s.jpg,0.0,clockno_up.jpg,4.0,64,,,,,,,,,,,,,,,,,,,,,,,,,,,,,,,,
0.0,1.0,0.93692,0.0,19.0,19.0,19.0,1.0,fountain_pen_06s.jpg,0.0,clockno_default.jpg,4.0,64,,,,,,,,,,,,,,,,,,,,,,,,,,,,,,,,
0.0,1.0,0.597165,0.0,20.0,20.0,20.0,1.0,gargoyle_08s.jpg,0.0,clockno_default.jpg,4.0,64,,,,,,,,,,,,,,,,,,,,,,,,,,,,,,,,
0.0,1.0,0.791935,0.0,21.0,21.0,21.0,1.0,toothpaste_12s.jpg,0.0,clockno_default.jpg,4.0,64,,,,,,,,,,,,,,,,,,,,,,,,,,,,,,,,
0.0,1.0,0.53043,0.0,22.0,22.0,22.0,1.0,peach_04s.jpg,0.0,clockno_default.jpg,4.0,64,,,,,,,,,,,,,,,,,,,,,,,,,,,,,,,,
0.0,1.0,0.5526,0.0,23.0,23.0,23.0,1.0,racehorse_03s.jpg,0.0,clockno_default.jpg,4.0,64,,,,,,,,,,,,,,,,,,,,,,,,,,,,,,,,
0.0,1.0,0.58386,0.0,24.0,24.0,24.0,1.0,fishhook_06s.jpg,0.0,clockno_default.jpg,4.0,64,,,,,,,,,,,,,,,,,,,,,,,,,,,,,,,,
0.0,1.0,0.955545,0.0,25.0,25.0,25.0,1.0,loom_05s.jpg,0.0,clockno_up.jpg,5.0,64,,,,,,,,,,,,,,,,,,,,,,,,,,,,,,,,
0.0,1.0,0.65564,0.0,26.0,26.0,26.0,1.0,popsicle_02s.jpg,0.0,clockno_default.jpg,5.0,64,,,,,,,,,,,,,,,,,,,,,,,,,,,,,,,,
0.0,1.0,0.525725,0.0,27.0,27.0,27.0,1.0,toad_09s.jpg,0.0,clockno_default.jpg,5.0,64,,,,,,,,,,,,,,,,,,,,,,,,,,,,,,,,
0.0,1.0,0.60741,0.0,28.0,28.0,28.0,1.0,razor_blade_01b.jpg,0.0,clockno_default.jpg,5.0,64,,,,,,,,,,,,,,,,,,,,,,,,,,,,,,,,
0.0,1.0,0.99724,0.0,29.0,29.0,29.0,1.0,paper_bag_12s.jpg,0.0,clockno_default.jpg,5.0,64,,,,,,,,,,,,,,,,,,,,,,,,,,,,,,,,
0.0,1.0,1.104405,0.0,30.0,30.0,30.0,1.0,machete_06s.jpg,0.0,clockno_default.jpg,5.0,64,,,,,,,,,,,,,,,,,,,,,,,,,,,,,,,,
0.0,1.0,0.657555,0.0,31.0,31.0,31.0,1.0,punch2_09s.jpg,0.0,clockno_up.jpg,6.0,64,,,,,,,,,,,,,,,,,,,,,,,,,,,,,,,,
1.0,1.0,0.83919,0.0,32.0,32.0,32.0,1.0,punch2_09s.jpg,1.0,clockno_default.jpg,6.0,64,,,,,,,,,,,,,,,,,,,,,,,,,,,,,,,,
1.0,1.0,0.57663,0.0,33.0,33.0,33.0,1.0,punch2_09s.jpg,1.0,clockno_default.jpg,6.0,64,,,,,,,,,,,,,,,,,,,,,,,,,,,,,,,,
0.0,1.0,1.056895,0.0,34.0,34.0,34.0,1.0,fur_coat_11s.jpg,0.0,clockno_default.jpg,6.0,64,,,,,,,,,,,,,,,,,,,,,,,,,,,,,,,,
0.0,1.0,0.604815,0.0,35.0,35.0,35.0,1.0,quilt_03s.jpg,0.0,clockno_default.jpg,6.0,64,,,,,,,,,,,,,,,,,,,,,,,,,,,,,,,,
,,,,,,,,,0.0,,,64,0.0,1.0,1.43129,0.0,0.0,0.0,0.0,1.0,gargoyle_08s.jpg,rake_06s.jpg,,,,,,,,,,,,,,,,,,,,,,
,,,,,,,,,1.0,,,64,0.0,0.0,0.75169,0.0,1.0,1.0,1.0,1.0,fishhook_06s.jpg,toad_09s.jpg,,,,,,,,,,,,,,,,,,,,,,
,,,,,,,,,1.0,,,64,1.0,1.0,0.8326,0.0,2.0,2.0,2.0,1.0,peach_04s.jpg,loom_05s.jpg,,,,,,,,,,,,,,,,,,,,,,
,,,,,,,,,1.0,,,64,0.0,0.0,0.708215,0.0,3.0,3.0,3.0,1.0,pear_02s.jpg,raft_09s.jpg,,,,,,,,,,,,,,,,,,,,,,
,,,,,,,,,1.0,,,64,0.0,0.0,1.191435,0.0,4.0,4.0,4.0,1.0,umbrella_15s.jpg,toothpaste_12s.jpg,,,,,,,,,,,,,,,,,,,,,,
,,,,,,,,,0.0,,,64,1.0,0.0,0.92945,0.0,5.0,5.0,5.0,1.0,paper_bag_12s.jpg,popsicle_02s.jpg,,,,,,,,,,,,,,,,,,,,,,
,,,,,,,,,,,,64,,,,,,,,,,,0.0,0.0,0.0,0.0,1.0,clockno_present_1_1.xlsx,clockno_compare_task_1_1.xlsx,,,,,,,,,,,,,,,
0.0,1.0,1.138045,0.0,0.0,0.0,0.0,1.0,prism_10s.jpg,0.0,clockno_up.jpg,1.0,64,,,,,,,,,,,,,,,,,,,,,,,,,,,,,,,,
0.0,1.0,0.52425,0.0,1.0,1.0,1.0,1.0,teabag_12s.jpg,0.0,clockno_default.jpg,1.0,64,,,,,,,,,,,,,,,,,,,,,,,,,,,,,,,,
0.0,1.0,0.55668,0.0,2.0,2.0,2.0,1.0,chalice_10s.jpg,0.0,clockno_default.jpg,1.0,64,,,,,,,,,,,,,,,,,,,,,,,,,,,,,,,,
0.0,1.0,0.989465,0.0,3.0,3.0,3.0,1.0,tape_06s.jpg,0.0,clockno_default.jpg,1.0,64,,,,,,,,,,,,,,,,,,,,,,,,,,,,,,,,
0.0,1.0,0.63928,0.0,4.0,4.0,4.0,1.0,buoy_04s.jpg,0.0,clockno_default.jpg,1.0,64,,,,,,,,,,,,,,,,,,,,,,,,,,,,,,,,
0.0,1.0,0.58895,0.0,5.0,5.0,5.0,1.0,omelet_07s.jpg,0.0,clockno_default.jpg,1.0,64,,,,,,,,,,,,,,,,,,,,,,,,,,,,,,,,
1.0,1.0,0.832325,0.0,6.0,6.0,6.0,1.0,buoy_04s.jpg,1.0,clockno_default.jpg,1.0,64,,,,,,,,,,,,,,,,,,,,,,,,,,,,,,,,
0.0,1.0,0.61706,0.0,7.0,7.0,7.0,1.0,surfboard_11s.jpg,0.0,clockno_up.jpg,2.0,64,,,,,,,,,,,,,,,,,,,,,,,,,,,,,,,,
0.0,1.0,0.637855,0.0,8.0,8.0,8.0,1.0,possum_09s.jpg,0.0,clockno_default.jpg,2.0,64,,,,,,,,,,,,,,,,,,,,,,,,,,,,,,,,
0.0,1.0,0.65023,0.0,9.0,9.0,9.0,1.0,razor_12s.jpg,0.0,clockno_default.jpg,2.0,64,,,,,,,,,,,,,,,,,,,,,,,,,,,,,,,,
0.0,1.0,0.619225,0.0,10.0,10.0,10.0,1.0,hyena_16s.jpg,0.0,clockno_default.jpg,2.0,64,,,,,,,,,,,,,,,,,,,,,,,,,,,,,,,,
0.0,1.0,0.571675,0.0,11.0,11.0,11.0,1.0,measuring_cup_02s.jpg,0.0,clockno_default.jpg,2.0,64,,,,,,,,,,,,,,,,,,,,,,,,,,,,,,,,
0.0,1.0,0.56001,0.0,12.0,12.0,12.0,1.0,swordfish_05s.jpg,0.0,clockno_up.jpg,3.0,64,,,,,,,,,,,,,,,,,,,,,,,,,,,,,,,,
0.0,1.0,0.518745,0.0,13.0,13.0,13.0,1.0,koala_13s.jpg,0.0,clockno_default.jpg,3.0,64,,,,,,,,,,,,,,,,,,,,,,,,,,,,,,,,
0.0,1.0,0.685345,0.0,14.0,14.0,14.0,1.0,bolo_tie_08s.jpg,0.0,clockno_default.jpg,3.0,64,,,,,,,,,,,,,,,,,,,,,,,,,,,,,,,,
0.0,1.0,0.538215,0.0,15.0,15.0,15.0,1.0,doily_13s.jpg,0.0,clockno_default.jpg,3.0,64,,,,,,,,,,,,,,,,,,,,,,,,,,,,,,,,
0.0,1.0,0.61415,0.0,16.0,16.0,16.0,1.0,mannequin_05s.jpg,0.0,clockno_default.jpg,3.0,64,,,,,,,,,,,,,,,,,,,,,,,,,,,,,,,,
0.0,1.0,0.62212,0.0,17.0,17.0,17.0,1.0,knitting_needle_04s.jpg,0.0,clockno_default.jpg,3.0,64,,,,,,,,,,,,,,,,,,,,,,,,,,,,,,,,
0.0,1.0,0.675285,0.0,18.0,18.0,18.0,1.0,pencil_sharpener_09n.jpg,0.0,clockno_up.jpg,4.0,64,,,,,,,,,,,,,,,,,,,,,,,,,,,,,,,,
1.0,1.0,0.59861,0.0,19.0,19.0,19.0,1.0,pencil_sharpener_09n.jpg,1.0,clockno_default.jpg,4.0,64,,,,,,,,,,,,,,,,,,,,,,,,,,,,,,,,
0.0,1.0,0.7363,0.0,20.0,20.0,20.0,1.0,latch_15s.jpg,0.0,clockno_default.jpg,4.0,64,,,,,,,,,,,,,,,,,,,,,,,,,,,,,,,,
0.0,1.0,0.64918,0.0,21.0,21.0,21.0,1.0,bank_06s.jpg,0.0,clockno_default.jpg,4.0,64,,,,,,,,,,,,,,,,,,,,,,,,,,,,,,,,
1.0,1.0,0.577435,0.0,22.0,22.0,22.0,1.0,bank_06s.jpg,1.0,clockno_default.jpg,4.0,64,,,,,,,,,,,,,,,,,,,,,,,,,,,,,,,,
0.0,1.0,0.54872,0.0,23.0,23.0,23.0,1.0,radiator_05s.jpg,0.0,clockno_default.jpg,4.0,64,,,,,,,,,,,,,,,,,,,,,,,,,,,,,,,,
1.0,1.0,1.2314,0.0,24.0,24.0,24.0,1.0,pencil_sharpener_09n.jpg,1.0,clockno_default.jpg,4.0,64,,,,,,,,,,,,,,,,,,,,,,,,,,,,,,,,
0.0,1.0,0.739395,0.0,25.0,25.0,25.0,1.0,telephone_pole_05s.jpg,0.0,clockno_up.jpg,5.0,64,,,,,,,,,,,,,,,,,,,,,,,,,,,,,,,,
0.0,1.0,0.591925,0.0,26.0,26.0,26.0,1.0,top_hat_11s.jpg,0.0,clockno_default.jpg,5.0,64,,,,,,,,,,,,,,,,,,,,,,,,,,,,,,,,
0.0,1.0,0.715335,0.0,27.0,27.0,27.0,1.0,stingray_02s.jpg,0.0,clockno_default.jpg,5.0,64,,,,,,,,,,,,,,,,,,,,,,,,,,,,,,,,
0.0,1.0,0.58905,0.0,28.0,28.0,28.0,1.0,thread_08s.jpg,0.0,clockno_default.jpg,5.0,64,,,,,,,,,,,,,,,,,,,,,,,,,,,,,,,,
0.0,1.0,0.557805,0.0,29.0,29.0,29.0,1.0,perfume_06s.jpg,0.0,clockno_default.jpg,5.0,64,,,,,,,,,,,,,,,,,,,,,,,,,,,,,,,,
0.0,1.0,0.73789,0.0,30.0,30.0,30.0,1.0,mattress_01s.jpg,0.0,clockno_default.jpg,5.0,64,,,,,,,,,,,,,,,,,,,,,,,,,,,,,,,,
0.0,1.0,0.54062,0.0,31.0,31.0,31.0,1.0,champagne_18s.jpg,0.0,clockno_up.jpg,6.0,64,,,,,,,,,,,,,,,,,,,,,,,,,,,,,,,,
1.0,1.0,0.46715,0.0,32.0,32.0,32.0,1.0,champagne_18s.jpg,1.0,clockno_default.jpg,6.0,64,,,,,,,,,,,,,,,,,,,,,,,,,,,,,,,,
0.0,1.0,0.61385,0.0,33.0,33.0,33.0,1.0,machine_gun_09s.jpg,0.0,clockno_default.jpg,6.0,64,,,,,,,,,,,,,,,,,,,,,,,,,,,,,,,,
1.0,1.0,0.74858,0.0,34.0,34.0,34.0,1.0,champagne_18s.jpg,1.0,clockno_default.jpg,6.0,64,,,,,,,,,,,,,,,,,,,,,,,,,,,,,,,,
0.0,1.0,0.630055,0.0,35.0,35.0,35.0,1.0,cushion_08s.jpg,0.0,clockno_default.jpg,6.0,64,,,,,,,,,,,,,,,,,,,,,,,,,,,,,,,,
,,,,,,,,,1.0,,,64,1.0,1.0,1.617755,0.0,0.0,0.0,0.0,1.0,razor_12s.jpg,swordfish_05s.jpg,,,,,,,,,,,,,,,,,,,,,,
,,,,,,,,,1.0,,,64,0.0,0.0,1.083745,0.0,1.0,1.0,1.0,1.0,mattress_01s.jpg,machine_gun_09s.jpg,,,,,,,,,,,,,,,,,,,,,,
,,,,,,,,,1.0,,,64,1.0,1.0,0.81649,0.0,2.0,2.0,2.0,1.0,omelet_07s.jpg,possum_09s.jpg,,,,,,,,,,,,,,,,,,,,,,
,,,,,,,,,1.0,,,64,1.0,1.0,0.75199,0.0,3.0,3.0,3.0,1.0,prism_10s.jpg,tape_06s.jpg,,,,,,,,,,,,,,,,,,,,,,
,,,,,,,,,0.0,,,64,0.0,1.0,0.44867,0.0,4.0,4.0,4.0,1.0,thread_08s.jpg,telephone_pole_05s.jpg,,,,,,,,,,,,,,,,,,,,,,
,,,,,,,,,0.0,,,64,0.0,1.0,1.55013,0.0,5.0,5.0,5.0,1.0,hyena_16s.jpg,surfboard_11s.jpg,,,,,,,,,,,,,,,,,,,,,,
,,,,,,,,,,,,64,,,,,,,,,,,0.0,1.0,1.0,1.0,1.0,clockno_present_2_1.xlsx,clockno_compare_task_2_1.xlsx,,,,,,,,,,,,,,,
0.0,1.0,1.25847,0.0,0.0,0.0,0.0,1.0,ticktacktoe_08s.jpg,0.0,clockno_up.jpg,1.0,64,,,,,,,,,,,,,,,,,,,,,,,,,,,,,,,,
0.0,1.0,0.62474,0.0,1.0,1.0,1.0,1.0,treasure_08s.jpg,0.0,clockno_default.jpg,1.0,64,,,,,,,,,,,,,,,,,,,,,,,,,,,,,,,,
0.0,1.0,0.58537,0.0,2.0,2.0,2.0,1.0,punch1_10s.jpg,0.0,clockno_default.jpg,1.0,64,,,,,,,,,,,,,,,,,,,,,,,,,,,,,,,,
1.0,1.0,0.857505,0.0,3.0,3.0,3.0,1.0,punch1_10s.jpg,1.0,clockno_default.jpg,1.0,64,,,,,,,,,,,,,,,,,,,,,,,,,,,,,,,,
1.0,1.0,0.874795,0.0,4.0,4.0,4.0,1.0,treasure_08s.jpg,1.0,clockno_default.jpg,1.0,64,,,,,,,,,,,,,,,,,,,,,,,,,,,,,,,,
0.0,1.0,0.821925,0.0,5.0,5.0,5.0,1.0,tinsel_12s.jpg,0.0,clockno_up.jpg,2.0,64,,,,,,,,,,,,,,,,,,,,,,,,,,,,,,,,
0.0,1.0,0.916935,0.0,6.0,6.0,6.0,1.0,ram_05s.jpg,0.0,clockno_default.jpg,2.0,64,,,,,,,,,,,,,,,,,,,,,,,,,,,,,,,,
0.0,1.0,0.840015,0.0,7.0,7.0,7.0,1.0,lifesaver_10s.jpg,0.0,clockno_default.jpg,2.0,64,,,,,,,,,,,,,,,,,,,,,,,,,,,,,,,,
0.0,1.0,1.0325,0.0,8.0,8.0,8.0,1.0,blender_08s.jpg,0.0,clockno_default.jpg,2.0,64,,,,,,,,,,,,,,,,,,,,,,,,,,,,,,,,
0.0,1.0,0.75729,0.0,9.0,9.0,9.0,1.0,butter_14s.jpg,0.0,clockno_default.jpg,2.0,64,,,,,,,,,,,,,,,,,,,,,,,,,,,,,,,,
0.0,1.0,1.09761,0.0,10.0,10.0,10.0,1.0,kilt_18s.jpg,0.0,clockno_default.jpg,2.0,64,,,,,,,,,,,,,,,,,,,,,,,,,,,,,,,,
0.0,1.0,1.052175,0.0,11.0,11.0,11.0,1.0,otter_05s.jpg,0.0,clockno_default.jpg,2.0,64,,,,,,,,,,,,,,,,,,,,,,,,,,,,,,,,
0.0,1.0,0.758435,0.0,12.0,12.0,12.0,1.0,birdcage_08s.jpg,0.0,clockno_up.jpg,3.0,64,,,,,,,,,,,,,,,,,,,,,,,,,,,,,,,,
0.0,1.0,0.62125,0.0,13.0,13.0,13.0,1.0,tube_top_03s.jpg,0.0,clockno_default.jpg,3.0,64,,,,,,,,,,,,,,,,,,,,,,,,,,,,,,,,
0.0,1.0,0.61636,0.0,14.0,14.0,14.0,1.0,birthday_cake_09s.jpg,0.0,clockno_default.jpg,3.0,64,,,,,,,,,,,,,,,,,,,,,,,,,,,,,,,,
0.0,1.0,0.69867,0.0,15.0,15.0,15.0,1.0,rice_12s.jpg,0.0,clockno_default.jpg,3.0,64,,,,,,,,,,,,,,,,,,,,,,,,,,,,,,,,
0.0,1.0,0.709165,0.0,16.0,16.0,16.0,1.0,bottle_opener_11s.jpg,0.0,clockno_default.jpg,3.0,64,,,,,,,,,,,,,,,,,,,,,,,,,,,,,,,,
0.0,1.0,1.05342,0.0,17.0,17.0,17.0,1.0,spoon02a.jpg,0.0,clockno_up.jpg,4.0,64,,,,,,,,,,,,,,,,,,,,,,,,,,,,,,,,
0.0,1.0,0.647825,0.0,18.0,18.0,18.0,1.0,touchpad_11s.jpg,0.0,clockno_default.jpg,4.0,64,,,,,,,,,,,,,,,,,,,,,,,,,,,,,,,,
1.0,0.0,0.83338,0.0,19.0,19.0,19.0,1.0,birdcage_08s.jpg,0.0,clockno_default.jpg,4.0,64,,,,,,,,,,,,,,,,,,,,,,,,,,,,,,,,
0.0,1.0,0.57105,0.0,20.0,20.0,20.0,1.0,tulip_02s.jpg,0.0,clockno_default.jpg,4.0,64,,,,,,,,,,,,,,,,,,,,,,,,,,,,,,,,
0.0,1.0,0.63989,0.0,21.0,21.0,21.0,1.0,gingerbread_man_03s.jpg,0.0,clockno_default.jpg,4.0,64,,,,,,,,,,,,,,,,,,,,,,,,,,,,,,,,
0.0,1.0,0.58692,0.0,22.0,22.0,22.0,1.0,margarita_03s.jpg,0.0,clockno_default.jpg,4.0,64,,,,,,,,,,,,,,,,,,,,,,,,,,,,,,,,
0.0,1.0,0.95512,0.0,23.0,23.0,23.0,1.0,raccoon_02s.jpg,0.0,clockno_up.jpg,5.0,64,,,,,,,,,,,,,,,,,,,,,,,,,,,,,,,,
0.0,1.0,0.932775,0.0,24.0,24.0,24.0,1.0,orange_12s.jpg,0.0,clockno_default.jpg,5.0,64,,,,,,,,,,,,,,,,,,,,,,,,,,,,,,,,
0.0,1.0,0.79769,0.0,25.0,25.0,25.0,1.0,solar_panel_02s.jpg,0.0,clockno_default.jpg,5.0,64,,,,,,,,,,,,,,,,,,,,,,,,,,,,,,,,
1.0,1.0,1.103045,0.0,26.0,26.0,26.0,1.0,orange_12s.jpg,1.0,clockno_default.jpg,5.0,64,,,,,,,,,,,,,,,,,,,,,,,,,,,,,,,,
0.0,1.0,0.738955,0.0,27.0,27.0,27.0,1.0,mop_08s.jpg,0.0,clockno_default.jpg,5.0,64,,,,,,,,,,,,,,,,,,,,,,,,,,,,,,,,
0.0,1.0,0.791755,0.0,28.0,28.0,28.0,1.0,light_switch_02s.jpg,0.0,clockno_default.jpg,5.0,64,,,,,,,,,,,,,,,,,,,,,,,,,,,,,,,,
1.0,1.0,0.93242,0.0,29.0,29.0,29.0,1.0,mop_08s.jpg,1.0,clockno_default.jpg,5.0,64,,,,,,,,,,,,,,,,,,,,,,,,,,,,,,,,
0.0,1.0,0.823395,0.0,30.0,30.0,30.0,1.0,mushroom_10n.jpg,0.0,clockno_up.jpg,6.0,64,,,,,,,,,,,,,,,,,,,,,,,,,,,,,,,,
1.0,1.0,0.91517,0.0,31.0,31.0,31.0,1.0,mushroom_10n.jpg,1.0,clockno_default.jpg,6.0,64,,,,,,,,,,,,,,,,,,,,,,,,,,,,,,,,
0.0,1.0,0.5004,0.0,32.0,32.0,32.0,1.0,tennis_ball_06s.jpg,0.0,clockno_default.jpg,6.0,64,,,,,,,,,,,,,,,,,,,,,,,,,,,,,,,,
1.0,1.0,0.93368,0.0,33.0,33.0,33.0,1.0,mushroom_10n.jpg,1.0,clockno_default.jpg,6.0,64,,,,,,,,,,,,,,,,,,,,,,,,,,,,,,,,
0.0,1.0,0.63303,0.0,34.0,34.0,34.0,1.0,fossil_06s.jpg,0.0,clockno_default.jpg,6.0,64,,,,,,,,,,,,,,,,,,,,,,,,,,,,,,,,
0.0,1.0,0.60795,0.0,35.0,35.0,35.0,1.0,undershirt_02s.jpg,0.0,clockno_default.jpg,6.0,64,,,,,,,,,,,,,,,,,,,,,,,,,,,,,,,,
,,,,,,,,,1.0,,,64,1.0,1.0,1.253925,0.0,0.0,0.0,0.0,1.0,otter_05s.jpg,birthday_cake_09s.jpg,,,,,,,,,,,,,,,,,,,,,,
,,,,,,,,,0.0,,,64,0.0,1.0,1.36777,0.0,1.0,1.0,1.0,1.0,touchpad_11s.jpg,rice_12s.jpg,,,,,,,,,,,,,,,,,,,,,,
,,,,,,,,,1.0,,,64,0.0,0.0,1.10864,0.0,2.0,2.0,2.0,1.0,tulip_02s.jpg,raccoon_02s.jpg,,,,,,,,,,,,,,,,,,,,,,
,,,,,,,,,0.0,,,64,1.0,0.0,0.49945,0.0,3.0,3.0,3.0,1.0,blender_08s.jpg,tinsel_12s.jpg,,,,,,,,,,,,,,,,,,,,,,
,,,,,,,,,1.0,,,64,1.0,1.0,0.960655,0.0,4.0,4.0,4.0,1.0,ram_05s.jpg,butter_14s.jpg,,,,,,,,,,,,,,,,,,,,,,
,,,,,,,,,1.0,,,64,0.0,0.0,0.49912,0.0,5.0,5.0,5.0,1.0,tennis_ball_06s.jpg,undershirt_02s.jpg,,,,,,,,,,,,,,,,,,,,,,
,,,,,,,,,,,,64,,,,,,,,,,,0.0,2.0,2.0,2.0,1.0,clockno_present_3_1.xlsx,clockno_compare_task_3_1.xlsx,,,,,,,,,,,,,,,
0.0,1.0,1.302395,0.0,0.0,0.0,0.0,1.0,turkey_10s.jpg,0.0,clockno_up.jpg,1.0,64,,,,,,,,,,,,,,,,,,,,,,,,,,,,,,,,
0.0,1.0,1.13388,0.0,1.0,1.0,1.0,1.0,lavender_10s.jpg,0.0,clockno_default.jpg,1.0,64,,,,,,,,,,,,,,,,,,,,,,,,,,,,,,,,
0.0,1.0,0.754595,0.0,2.0,2.0,2.0,1.0,coconut_08s.jpg,0.0,clockno_default.jpg,1.0,64,,,,,,,,,,,,,,,,,,,,,,,,,,,,,,,,
1.0,1.0,1.23116,0.0,3.0,3.0,3.0,1.0,lavender_10s.jpg,1.0,clockno_default.jpg,1.0,64,,,,,,,,,,,,,,,,,,,,,,,,,,,,,,,,
0.0,1.0,0.66374,0.0,4.0,4.0,4.0,1.0,tattoo_14s.jpg,0.0,clockno_default.jpg,1.0,64,,,,,,,,,,,,,,,,,,,,,,,,,,,,,,,,
0.0,1.0,0.585595,0.0,5.0,5.0,5.0,1.0,quesadilla_07s.jpg,0.0,clockno_default.jpg,1.0,64,,,,,,,,,,,,,,,,,,,,,,,,,,,,,,,,
1.0,1.0,0.90648,0.0,6.0,6.0,6.0,1.0,tattoo_14s.jpg,1.0,clockno_default.jpg,1.0,64,,,,,,,,,,,,,,,,,,,,,,,,,,,,,,,,
0.0,1.0,0.63823,0.0,7.0,7.0,7.0,1.0,bacon_05s.jpg,0.0,clockno_up.jpg,2.0,64,,,,,,,,,,,,,,,,,,,,,,,,,,,,,,,,
0.0,1.0,0.76703,0.0,8.0,8.0,8.0,1.0,bean_06s.jpg,0.0,clockno_default.jpg,2.0,64,,,,,,,,,,,,,,,,,,,,,,,,,,,,,,,,
0.0,1.0,0.556435,0.0,9.0,9.0,9.0,1.0,eiffeltower.jpg,0.0,clockno_default.jpg,2.0,64,,,,,,,,,,,,,,,,,,,,,,,,,,,,,,,,
0.0,1.0,0.84959,0.0,10.0,10.0,10.0,1.0,syringe_02s.jpg,0.0,clockno_default.jpg,2.0,64,,,,,,,,,,,,,,,,,,,,,,,,,,,,,,,,
0.0,1.0,0.550195,0.0,11.0,11.0,11.0,1.0,rosary_03s.jpg,0.0,clockno_default.jpg,2.0,64,,,,,,,,,,,,,,,,,,,,,,,,,,,,,,,,
0.0,1.0,0.54822,0.0,12.0,12.0,12.0,1.0,cape_11s.jpg,0.0,clockno_default.jpg,2.0,64,,,,,,,,,,,,,,,,,,,,,,,,,,,,,,,,
0.0,1.0,0.51471,0.0,13.0,13.0,13.0,1.0,rocking_chair_05s.jpg,0.0,clockno_up.jpg,3.0,64,,,,,,,,,,,,,,,,,,,,,,,,,,,,,,,,
0.0,1.0,0.46915,0.0,14.0,14.0,14.0,1.0,cardinal_07s.jpg,0.0,clockno_default.jpg,3.0,64,,,,,,,,,,,,,,,,,,,,,,,,,,,,,,,,
0.0,1.0,0.554255,0.0,15.0,15.0,15.0,1.0,totem_pole_05s.jpg,0.0,clockno_default.jpg,3.0,64,,,,,,,,,,,,,,,,,,,,,,,,,,,,,,,,
0.0,1.0,0.56587,0.0,16.0,16.0,16.0,1.0,gear_07s.jpg,0.0,clockno_default.jpg,3.0,64,,,,,,,,,,,,,,,,,,,,,,,,,,,,,,,,
0.0,1.0,0.69748,0.0,17.0,17.0,17.0,1.0,target_11s.jpg,0.0,clockno_default.jpg,3.0,64,,,,,,,,,,,,,,,,,,,,,,,,,,,,,,,,
0.0,1.0,0.708245,0.0,18.0,18.0,18.0,1.0,air_pump_05s.jpg,0.0,clockno_default.jpg,3.0,64,,,,,,,,,,,,,,,,,,,,,,,,,,,,,,,,
0.0,1.0,0.82446,0.0,19.0,19.0,19.0,1.0,tongs_08s.jpg,0.0,clockno_up.jpg,4.0,64,,,,,,,,,,,,,,,,,,,,,,,,,,,,,,,,
1.0,1.0,0.959435,0.0,20.0,20.0,20.0,1.0,tongs_08s.jpg,1.0,clockno_default.jpg,4.0,64,,,,,,,,,,,,,,,,,,,,,,,,,,,,,,,,
0.0,1.0,1.237235,0.0,21.0,21.0,21.0,1.0,ice-cream_cone_06s.jpg,0.0,clockno_default.jpg,4.0,64,,,,,,,,,,,,,,,,,,,,,,,,,,,,,,,,
0.0,1.0,0.547675,0.0,22.0,22.0,22.0,1.0,badge_03s.jpg,0.0,clockno_default.jpg,4.0,64,,,,,,,,,,,,,,,,,,,,,,,,,,,,,,,,
1.0,1.0,0.735105,0.0,23.0,23.0,23.0,1.0,badge_03s.jpg,1.0,clockno_default.jpg,4.0,64,,,,,,,,,,,,,,,,,,,,,,,,,,,,,,,,
0.0,1.0,0.572195,0.0,24.0,24.0,24.0,1.0,lizard_10n.jpg,0.0,clockno_default.jpg,4.0,64,,,,,,,,,,,,,,,,,,,,,,,,,,,,,,,,
1.0,1.0,0.707745,0.0,25.0,25.0,25.0,1.0,lizard_10n.jpg,1.0,clockno_default.jpg,4.0,64,,,,,,,,,,,,,,,,,,,,,,,,,,,,,,,,
0.0,1.0,0.531115,0.0,26.0,26.0,26.0,1.0,tab_09s.jpg,0.0,clockno_up.jpg,5.0,64,,,,,,,,,,,,,,,,,,,,,,,,,,,,,,,,
0.0,1.0,0.72444,0.0,27.0,27.0,27.0,1.0,red_carpet_03s.jpg,0.0,clockno_default.jpg,5.0,64,,,,,,,,,,,,,,,,,,,,,,,,,,,,,,,,
0.0,1.0,0.71463,0.0,28.0,28.0,28.0,1.0,printer_09s.jpg,0.0,clockno_default.jpg,5.0,64,,,,,,,,,,,,,,,,,,,,,,,,,,,,,,,,
0.0,1.0,0.94824,0.0,29.0,29.0,29.0,1.0,bean_06s.jpg,0.0,clockno_default.jpg,5.0,64,,,,,,,,,,,,,,,,,,,,,,,,,,,,,,,,
0.0,1.0,0.8399,0.0,30.0,30.0,30.0,1.0,lizard_10n.jpg,0.0,clockno_default.jpg,5.0,64,,,,,,,,,,,,,,,,,,,,,,,,,,,,,,,,
0.0,1.0,0.939025,0.0,31.0,31.0,31.0,1.0,giraffe_11s.jpg,0.0,clockno_up.jpg,6.0,64,,,,,,,,,,,,,,,,,,,,,,,,,,,,,,,,
0.0,1.0,0.593495,0.0,32.0,32.0,32.0,1.0,seahorse_13s.jpg,0.0,clockno_default.jpg,6.0,64,,,,,,,,,,,,,,,,,,,,,,,,,,,,,,,,
0.0,1.0,0.58519,0.0,33.0,33.0,33.0,1.0,trident_07s.jpg,0.0,clockno_default.jpg,6.0,64,,,,,,,,,,,,,,,,,,,,,,,,,,,,,,,,
0.0,1.0,0.5935,0.0,34.0,34.0,34.0,1.0,coconut_08s.jpg,0.0,clockno_default.jpg,6.0,64,,,,,,,,,,,,,,,,,,,,,,,,,,,,,,,,
0.0,1.0,0.86566,0.0,35.0,35.0,35.0,1.0,metronome_03s.jpg,0.0,clockno_default.jpg,6.0,64,,,,,,,,,,,,,,,,,,,,,,,,,,,,,,,,
,,,,,,,,,1.0,,,64,1.0,1.0,1.151185,0.0,0.0,0.0,0.0,1.0,printer_09s.jpg,giraffe_11s.jpg,,,,,,,,,,,,,,,,,,,,,,
,,,,,,,,,0.0,,,64,1.0,0.0,0.761615,0.0,1.0,1.0,1.0,1.0,cardinal_07s.jpg,rosary_03s.jpg,,,,,,,,,,,,,,,,,,,,,,
,,,,,,,,,0.0,,,64,1.0,0.0,1.26227,0.0,2.0,2.0,2.0,1.0,ice-cream_cone_06s.jpg,air_pump_05s.jpg,,,,,,,,,,,,,,,,,,,,,,
,,,,,,,,,0.0,,,64,0.0,1.0,0.651615,0.0,3.0,3.0,3.0,1.0,metronome_03s.jpg,seahorse_13s.jpg,,,,,,,,,,,,,,,,,,,,,,
,,,,,,,,,0.0,,,64,0.0,1.0,0.482115,0.0,4.0,4.0,4.0,1.0,syringe_02s.jpg,bacon_05s.jpg,,,,,,,,,,,,,,,,,,,,,,
,,,,,,,,,1.0,,,64,1.0,1.0,0.65705,0.0,5.0,5.0,5.0,1.0,eiffeltower.jpg,cape_11s.jpg,,,,,,,,,,,,,,,,,,,,,,
,,,,,,,,,,,,64,,,,,,,,,,,0.0,3.0,3.0,3.0,1.0,clockno_present_4_1.xlsx,clockno_compare_task_4_1.xlsx,,,,,,,,,,,,,,,
0.0,1.0,1.15442,0.0,0.0,0.0,0.0,1.0,ladder_15s.jpg,0.0,clockno_up.jpg,1.0,64,,,,,,,,,,,,,,,,,,,,,,,,,,,,,,,,
0.0,1.0,0.639995,0.0,1.0,1.0,1.0,1.0,iron_13s.jpg,0.0,clockno_default.jpg,1.0,64,,,,,,,,,,,,,,,,,,,,,,,,,,,,,,,,
1.0,1.0,0.58963,0.0,2.0,2.0,2.0,1.0,iron_13s.jpg,1.0,clockno_default.jpg,1.0,64,,,,,,,,,,,,,,,,,,,,,,,,,,,,,,,,
0.0,1.0,0.63195,0.0,3.0,3.0,3.0,1.0,radio_09s.jpg,0.0,clockno_default.jpg,1.0,64,,,,,,,,,,,,,,,,,,,,,,,,,,,,,,,,
1.0,1.0,0.63978,0.0,4.0,4.0,4.0,1.0,radio_09s.jpg,1.0,clockno_default.jpg,1.0,64,,,,,,,,,,,,,,,,,,,,,,,,,,,,,,,,
0.0,1.0,0.54805,0.0,5.0,5.0,5.0,1.0,pocketknife_12s.jpg,0.0,clockno_up.jpg,2.0,64,,,,,,,,,,,,,,,,,,,,,,,,,,,,,,,,
0.0,1.0,0.76709,0.0,6.0,6.0,6.0,1.0,sledgehammer_03s.jpg,0.0,clockno_default.jpg,2.0,64,,,,,,,,,,,,,,,,,,,,,,,,,,,,,,,,
0.0,1.0,0.64743,0.0,7.0,7.0,7.0,1.0,diving_board_07s.jpg,0.0,clockno_default.jpg,2.0,64,,,,,,,,,,,,,,,,,,,,,,,,,,,,,,,,
0.0,1.0,0.65347,0.0,8.0,8.0,8.0,1.0,squirt_gun_03s.jpg,0.0,clockno_default.jpg,2.0,64,,,,,,,,,,,,,,,,,,,,,,,,,,,,,,,,
0.0,1.0,1.26505,0.0,9.0,9.0,9.0,1.0,iron_13s.jpg,0.0,clockno_default.jpg,2.0,64,,,,,,,,,,,,,,,,,,,,,,,,,,,,,,,,
0.0,1.0,1.08394,0.0,10.0,10.0,10.0,1.0,sushi_08s.jpg,0.0,clockno_up.jpg,3.0,64,,,,,,,,,,,,,,,,,,,,,,,,,,,,,,,,
0.0,1.0,0.647425,0.0,11.0,11.0,11.0,1.0,rhubarb_03s.jpg,0.0,clockno_default.jpg,3.0,64,,,,,,,,,,,,,,,,,,,,,,,,,,,,,,,,
0.0,1.0,0.65073,0.0,12.0,12.0,12.0,1.0,rocket_02s.jpg,0.0,clockno_default.jpg,3.0,64,,,,,,,,,,,,,,,,,,,,,,,,,,,,,,,,
0.0,1.0,0.733,0.0,13.0,13.0,13.0,1.0,abacus_12s.jpg,0.0,clockno_default.jpg,3.0,64,,,,,,,,,,,,,,,,,,,,,,,,,,,,,,,,
0.0,1.0,0.570915,0.0,14.0,14.0,14.0,1.0,turtle_08s.jpg,0.0,clockno_default.jpg,3.0,64,,,,,,,,,,,,,,,,,,,,,,,,,,,,,,,,
0.0,1.0,0.51763,0.0,15.0,15.0,15.0,1.0,lab_coat_11s.jpg,0.0,clockno_default.jpg,3.0,64,,,,,,,,,,,,,,,,,,,,,,,,,,,,,,,,
0.0,1.0,0.80299,0.0,16.0,16.0,16.0,1.0,torch_02s.jpg,0.0,clockno_default.jpg,3.0,64,,,,,,,,,,,,,,,,,,,,,,,,,,,,,,,,
0.0,1.0,0.936065,0.0,17.0,17.0,17.0,1.0,pumpkin_03s.jpg,0.0,clockno_up.jpg,4.0,64,,,,,,,,,,,,,,,,,,,,,,,,,,,,,,,,
1.0,1.0,1.13671,0.0,18.0,18.0,18.0,1.0,pumpkin_03s.jpg,1.0,clockno_default.jpg,4.0,64,,,,,,,,,,,,,,,,,,,,,,,,,,,,,,,,
1.0,1.0,0.50135,0.0,19.0,19.0,19.0,1.0,pumpkin_03s.jpg,1.0,clockno_default.jpg,4.0,64,,,,,,,,,,,,,,,,,,,,,,,,,,,,,,,,
1.0,1.0,0.615025,0.0,20.0,20.0,20.0,1.0,pumpkin_03s.jpg,1.0,clockno_default.jpg,4.0,64,,,,,,,,,,,,,,,,,,,,,,,,,,,,,,,,
0.0,1.0,0.585585,0.0,21.0,21.0,21.0,1.0,teacup_07s.jpg,0.0,clockno_default.jpg,4.0,64,,,,,,,,,,,,,,,,,,,,,,,,,,,,,,,,
0.0,1.0,0.89028,0.0,22.0,22.0,22.0,1.0,marker_05s.jpg,0.0,clockno_default.jpg,4.0,64,,,,,,,,,,,,,,,,,,,,,,,,,,,,,,,,
0.0,1.0,0.553495,0.0,23.0,23.0,23.0,1.0,parachute_03s.jpg,0.0,clockno_default.jpg,4.0,64,,,,,,,,,,,,,,,,,,,,,,,,,,,,,,,,
0.0,1.0,1.28674,0.0,24.0,24.0,24.0,1.0,jet_15s.jpg,0.0,clockno_up.jpg,5.0,64,,,,,,,,,,,,,,,,,,,,,,,,,,,,,,,,
0.0,1.0,0.66846,0.0,25.0,25.0,25.0,1.0,turnstile_08s.jpg,0.0,clockno_default.jpg,5.0,64,,,,,,,,,,,,,,,,,,,,,,,,,,,,,,,,
0.0,1.0,1.037585,0.0,26.0,26.0,26.0,1.0,roller_coaster_07s.jpg,0.0,clockno_default.jpg,5.0,64,,,,,,,,,,,,,,,,,,,,,,,,,,,,,,,,
0.0,1.0,0.56386,0.0,27.0,27.0,27.0,1.0,ukulele_02s.jpg,0.0,clockno_default.jpg,5.0,64,,,,,,,,,,,,,,,,,,,,,,,,,,,,,,,,
0.0,1.0,0.659435,0.0,28.0,28.0,28.0,1.0,ivy_12s.jpg,0.0,clockno_default.jpg,5.0,64,,,,,,,,,,,,,,,,,,,,,,,,,,,,,,,,
1.0,1.0,0.7664,0.0,29.0,29.0,29.0,1.0,ivy_12s.jpg,1.0,clockno_default.jpg,5.0,64,,,,,,,,,,,,,,,,,,,,,,,,,,,,,,,,
0.0,1.0,0.968105,0.0,30.0,30.0,30.0,1.0,piggy_bank_02s.jpg,0.0,clockno_up.jpg,6.0,64,,,,,,,,,,,,,,,,,,,,,,,,,,,,,,,,
0.0,1.0,0.78448,0.0,31.0,31.0,31.0,1.0,pillow_03s.jpg,0.0,clockno_default.jpg,6.0,64,,,,,,,,,,,,,,,,,,,,,,,,,,,,,,,,
0.0,1.0,0.608835,0.0,32.0,32.0,32.0,1.0,bowler_hat_10s.jpg,0.0,clockno_default.jpg,6.0,64,,,,,,,,,,,,,,,,,,,,,,,,,,,,,,,,
0.0,1.0,0.586975,0.0,33.0,33.0,33.0,1.0,power_line_08s.jpg,0.0,clockno_default.jpg,6.0,64,,,,,,,,,,,,,,,,,,,,,,,,,,,,,,,,
0.0,1.0,0.69954,0.0,34.0,34.0,34.0,1.0,snowman_02s.jpg,0.0,clockno_default.jpg,6.0,64,,,,,,,,,,,,,,,,,,,,,,,,,,,,,,,,
1.0,1.0,1.034875,0.0,35.0,35.0,35.0,1.0,piggy_bank_02s.jpg,1.0,clockno_default.jpg,6.0,64,,,,,,,,,,,,,,,,,,,,,,,,,,,,,,,,
,,,,,,,,,1.0,,,64,0.0,0.0,2.047505,0.0,0.0,0.0,0.0,1.0,marker_05s.jpg,turnstile_08s.jpg,,,,,,,,,,,,,,,,,,,,,,
,,,,,,,,,0.0,,,64,1.0,0.0,0.85951,0.0,1.0,1.0,1.0,1.0,roller_coaster_07s.jpg,parachute_03s.jpg,,,,,,,,,,,,,,,,,,,,,,
,,,,,,,,,1.0,,,64,0.0,0.0,0.858215,0.0,2.0,2.0,2.0,1.0,diving_board_07s.jpg,sushi_08s.jpg,,,,,,,,,,,,,,,,,,,,,,
,,,,,,,,,0.0,,,64,1.0,0.0,1.300165,0.0,3.0,3.0,3.0,1.0,lab_coat_11s.jpg,rocket_02s.jpg,,,,,,,,,,,,,,,,,,,,,,
,,,,,,,,,1.0,,,64,1.0,1.0,1.16952,0.0,4.0,4.0,4.0,1.0,abacus_12s.jpg,torch_02s.jpg,,,,,,,,,,,,,,,,,,,,,,
,,,,,,,,,1.0,,,64,0.0,0.0,0.75632,0.0,5.0,5.0,5.0,1.0,pillow_03s.jpg,snowman_02s.jpg,,,,,,,,,,,,,,,,,,,,,,
,,,,,,,,,,,,64,,,,,,,,,,,0.0,4.0,4.0,4.0,1.0,clockno_present_5_1.xlsx,clockno_compare_task_5_1.xlsx,,,,,,,,,,,,,,,
0.0,1.0,1.23834,0.0,0.0,0.0,0.0,1.0,pillbox_04s.jpg,0.0,clockno_up.jpg,1.0,64,,,,,,,,,,,,,,,,,,,,,,,,,,,,,,,,
0.0,1.0,0.9043,0.0,1.0,1.0,1.0,1.0,projector_08s.jpg,0.0,clockno_default.jpg,1.0,64,,,,,,,,,,,,,,,,,,,,,,,,,,,,,,,,
0.0,1.0,0.560375,0.0,2.0,2.0,2.0,1.0,lantern_04s.jpg,0.0,clockno_default.jpg,1.0,64,,,,,,,,,,,,,,,,,,,,,,,,,,,,,,,,
0.0,1.0,0.54782,0.0,3.0,3.0,3.0,1.0,marshmallow_08s.jpg,0.0,clockno_default.jpg,1.0,64,,,,,,,,,,,,,,,,,,,,,,,,,,,,,,,,
0.0,1.0,0.50923,0.0,4.0,4.0,4.0,1.0,dynamite_01b.jpg,0.0,clockno_default.jpg,1.0,64,,,,,,,,,,,,,,,,,,,,,,,,,,,,,,,,
1.0,1.0,0.90918,0.0,5.0,5.0,5.0,1.0,marshmallow_08s.jpg,1.0,clockno_default.jpg,1.0,64,,,,,,,,,,,,,,,,,,,,,,,,,,,,,,,,
0.0,1.0,0.79002,0.0,6.0,6.0,6.0,1.0,mirror_12s.jpg,0.0,clockno_up.jpg,2.0,64,,,,,,,,,,,,,,,,,,,,,,,,,,,,,,,,
0.0,1.0,0.552795,0.0,7.0,7.0,7.0,1.0,ant_12s.jpg,0.0,clockno_default.jpg,2.0,64,,,,,,,,,,,,,,,,,,,,,,,,,,,,,,,,
0.0,1.0,0.919715,0.0,8.0,8.0,8.0,1.0,marshmallow_08s.jpg,0.0,clockno_default.jpg,2.0,64,,,,,,,,,,,,,,,,,,,,,,,,,,,,,,,,
0.0,1.0,0.505635,0.0,9.0,9.0,9.0,1.0,tile_08s.jpg,0.0,clockno_default.jpg,2.0,64,,,,,,,,,,,,,,,,,,,,,,,,,,,,,,,,
0.0,1.0,0.600295,0.0,10.0,10.0,10.0,1.0,lollipop_08s.jpg,0.0,clockno_default.jpg,2.0,64,,,,,,,,,,,,,,,,,,,,,,,,,,,,,,,,
0.0,1.0,0.626465,0.0,11.0,11.0,11.0,1.0,saddle_06s.jpg,0.0,clockno_default.jpg,2.0,64,,,,,,,,,,,,,,,,,,,,,,,,,,,,,,,,
0.0,1.0,0.82613,0.0,12.0,12.0,12.0,1.0,feather02.jpg,0.0,clockno_up.jpg,3.0,64,,,,,,,,,,,,,,,,,,,,,,,,,,,,,,,,
0.0,1.0,0.74179,0.0,13.0,13.0,13.0,1.0,road_sign_05s.jpg,0.0,clockno_default.jpg,3.0,64,,,,,,,,,,,,,,,,,,,,,,,,,,,,,,,,
0.0,1.0,0.610345,0.0,14.0,14.0,14.0,1.0,tripod_01b.jpg,0.0,clockno_default.jpg,3.0,64,,,,,,,,,,,,,,,,,,,,,,,,,,,,,,,,
0.0,1.0,0.618205,0.0,15.0,15.0,15.0,1.0,sparkler_02s.jpg,0.0,clockno_default.jpg,3.0,64,,,,,,,,,,,,,,,,,,,,,,,,,,,,,,,,
0.0,1.0,0.68437,0.0,16.0,16.0,16.0,1.0,olive_05s.jpg,0.0,clockno_default.jpg,3.0,64,,,,,,,,,,,,,,,,,,,,,,,,,,,,,,,,
0.0,1.0,0.698165,0.0,17.0,17.0,17.0,1.0,contact_lens_15s.jpg,0.0,clockno_default.jpg,3.0,64,,,,,,,,,,,,,,,,,,,,,,,,,,,,,,,,
1.0,1.0,0.82588,0.0,18.0,18.0,18.0,1.0,sparkler_02s.jpg,1.0,clockno_default.jpg,3.0,64,,,,,,,,,,,,,,,,,,,,,,,,,,,,,,,,
0.0,1.0,0.596735,0.0,19.0,19.0,19.0,1.0,puppet_01b.jpg,0.0,clockno_up.jpg,4.0,64,,,,,,,,,,,,,,,,,,,,,,,,,,,,,,,,
0.0,1.0,0.56423,0.0,20.0,20.0,20.0,1.0,toy_04s.jpg,0.0,clockno_default.jpg,4.0,64,,,,,,,,,,,,,,,,,,,,,,,,,,,,,,,,
0.0,1.0,0.51906,0.0,21.0,21.0,21.0,1.0,turtleneck_11s.jpg,0.0,clockno_default.jpg,4.0,64,,,,,,,,,,,,,,,,,,,,,,,,,,,,,,,,
0.0,1.0,0.49996,0.0,22.0,22.0,22.0,1.0,fox_13s.jpg,0.0,clockno_default.jpg,4.0,64,,,,,,,,,,,,,,,,,,,,,,,,,,,,,,,,
0.0,1.0,0.660025,0.0,23.0,23.0,23.0,1.0,knot_01b.jpg,0.0,clockno_default.jpg,4.0,64,,,,,,,,,,,,,,,,,,,,,,,,,,,,,,,,
0.0,1.0,0.601225,0.0,24.0,24.0,24.0,1.0,pinwheel_06s.jpg,0.0,clockno_up.jpg,5.0,64,,,,,,,,,,,,,,,,,,,,,,,,,,,,,,,,
0.0,1.0,0.6094,0.0,25.0,25.0,25.0,1.0,crossbow_10s.jpg,0.0,clockno_default.jpg,5.0,64,,,,,,,,,,,,,,,,,,,,,,,,,,,,,,,,
0.0,1.0,0.695955,0.0,26.0,26.0,26.0,1.0,lamppost_09s.jpg,0.0,clockno_default.jpg,5.0,64,,,,,,,,,,,,,,,,,,,,,,,,,,,,,,,,
1.0,1.0,1.101245,0.0,27.0,27.0,27.0,1.0,crossbow_10s.jpg,1.0,clockno_default.jpg,5.0,64,,,,,,,,,,,,,,,,,,,,,,,,,,,,,,,,
1.0,1.0,1.132065,0.0,28.0,28.0,28.0,1.0,pinwheel_06s.jpg,1.0,clockno_default.jpg,5.0,64,,,,,,,,,,,,,,,,,,,,,,,,,,,,,,,,
1.0,1.0,1.040955,0.0,29.0,29.0,29.0,1.0,pinwheel_06s.jpg,1.0,clockno_default.jpg,5.0,64,,,,,,,,,,,,,,,,,,,,,,,,,,,,,,,,
0.0,1.0,0.63103,0.0,30.0,30.0,30.0,1.0,coffee_filter_10s.jpg,0.0,clockno_default.jpg,5.0,64,,,,,,,,,,,,,,,,,,,,,,,,,,,,,,,,
0.0,1.0,0.931795,0.0,31.0,31.0,31.0,1.0,peeler_06s.jpg,0.0,clockno_up.jpg,6.0,64,,,,,,,,,,,,,,,,,,,,,,,,,,,,,,,,
0.0,1.0,0.70645,0.0,32.0,32.0,32.0,1.0,tiger_06s.jpg,0.0,clockno_default.jpg,6.0,64,,,,,,,,,,,,,,,,,,,,,,,,,,,,,,,,
0.0,1.0,0.666115,0.0,33.0,33.0,33.0,1.0,coat_rack_01b.jpg,0.0,clockno_default.jpg,6.0,64,,,,,,,,,,,,,,,,,,,,,,,,,,,,,,,,
0.0,1.0,0.650685,0.0,34.0,34.0,34.0,1.0,toaster_03s.jpg,0.0,clockno_default.jpg,6.0,64,,,,,,,,,,,,,,,,,,,,,,,,,,,,,,,,
1.0,1.0,1.20837,0.0,35.0,35.0,35.0,1.0,coat_rack_01b.jpg,1.0,clockno_default.jpg,6.0,64,,,,,,,,,,,,,,,,,,,,,,,,,,,,,,,,
,,,,,,,,,1.0,,,64,1.0,1.0,1.42814,0.0,0.0,0.0,0.0,1.0,tile_08s.jpg,feather02.jpg,,,,,,,,,,,,,,,,,,,,,,
,,,,,,,,,1.0,,,64,0.0,0.0,0.63455,0.0,1.0,1.0,1.0,1.0,saddle_06s.jpg,tripod_01b.jpg,,,,,,,,,,,,,,,,,,,,,,
,,,,,,,,,1.0,,,64,0.0,0.0,0.837645,0.0,2.0,2.0,2.0,1.0,knot_01b.jpg,lamppost_09s.jpg,,,,,,,,,,,,,,,,,,,,,,
,,,,,,,,,1.0,,,64,1.0,1.0,0.95635,0.0,3.0,3.0,3.0,1.0,peeler_06s.jpg,toaster_03s.jpg,,,,,,,,,,,,,,,,,,,,,,
,,,,,,,,,0.0,,,64,0.0,1.0,1.31724,0.0,4.0,4.0,4.0,1.0,dynamite_01b.jpg,projector_08s.jpg,,,,,,,,,,,,,,,,,,,,,,
,,,,,,,,,0.0,,,64,1.0,0.0,1.05308,0.0,5.0,5.0,5.0,1.0,fox_13s.jpg,puppet_01b.jpg,,,,,,,,,,,,,,,,,,,,,,
0.0,1.0,1.54264,,,,,,film_03s.jpg,0.0,clock_6_1.png,1.0,64,,,,,,,,,,,,,,,,,,0.0,0.0,0.0,0.0,1.0,,,,,,,,,,
0.0,1.0,0.90305,,,,,,tomato_sauce_09s.jpg,0.0,clock_6_2.png,1.0,64,,,,,,,,,,,,,,,,,,0.0,1.0,1.0,1.0,1.0,,,,,,,,,,
0.0,1.0,0.72677,,,,,,puck_06s.jpg,0.0,clock_6_3.png,1.0,64,,,,,,,,,,,,,,,,,,0.0,2.0,2.0,2.0,1.0,,,,,,,,,,
0.0,1.0,0.535405,,,,,,milk_02s.jpg,0.0,clock_6_4.png,1.0,64,,,,,,,,,,,,,,,,,,0.0,3.0,3.0,3.0,1.0,,,,,,,,,,
0.0,1.0,0.616205,,,,,,foam_03s.jpg,0.0,clock_6_5.png,1.0,64,,,,,,,,,,,,,,,,,,0.0,4.0,4.0,4.0,1.0,,,,,,,,,,
0.0,1.0,0.71531,,,,,,juicer2_06s.jpg,0.0,clock_6_6.png,1.0,64,,,,,,,,,,,,,,,,,,0.0,5.0,5.0,5.0,1.0,,,,,,,,,,
0.0,1.0,0.934135,,,,,,pea_11s.jpg,0.0,clock_5_1.png,2.0,64,,,,,,,,,,,,,,,,,,0.0,6.0,6.0,6.0,1.0,,,,,,,,,,
0.0,1.0,0.64904,,,,,,breadstick_08s.jpg,0.0,clock_5_2.png,2.0,64,,,,,,,,,,,,,,,,,,0.0,7.0,7.0,7.0,1.0,,,,,,,,,,
1.0,1.0,0.515025,,,,,,pea_11s.jpg,1.0,clock_5_3.png,2.0,64,,,,,,,,,,,,,,,,,,0.0,8.0,8.0,8.0,1.0,,,,,,,,,,
0.0,1.0,0.663225,,,,,,thumbtack_14s.jpg,0.0,clock_5_4.png,2.0,64,,,,,,,,,,,,,,,,,,0.0,9.0,9.0,9.0,1.0,,,,,,,,,,
0.0,1.0,0.559395,,,,,,gas_mask_11s.jpg,0.0,clock_5_5.png,2.0,64,,,,,,,,,,,,,,,,,,0.0,10.0,10.0,10.0,1.0,,,,,,,,,,
0.0,1.0,0.56391,,,,,,plug_08s.jpg,0.0,clock_7_1.png,3.0,64,,,,,,,,,,,,,,,,,,0.0,11.0,11.0,11.0,1.0,,,,,,,,,,
0.0,1.0,0.60205,,,,,,compass_10n.jpg,0.0,clock_7_2.png,3.0,64,,,,,,,,,,,,,,,,,,0.0,12.0,12.0,12.0,1.0,,,,,,,,,,
1.0,1.0,0.58167,,,,,,compass_10n.jpg,1.0,clock_7_3.png,3.0,64,,,,,,,,,,,,,,,,,,0.0,13.0,13.0,13.0,1.0,,,,,,,,,,
0.0,1.0,0.59647,,,,,,seagull_01b.jpg,0.0,clock_7_4.png,3.0,64,,,,,,,,,,,,,,,,,,0.0,14.0,14.0,14.0,1.0,,,,,,,,,,
1.0,1.0,0.69126,,,,,,compass_10n.jpg,1.0,clock_7_5.png,3.0,64,,,,,,,,,,,,,,,,,,0.0,15.0,15.0,15.0,1.0,,,,,,,,,,
0.0,1.0,0.555365,,,,,,laser_pointer_02s.jpg,0.0,clock_7_6.png,3.0,64,,,,,,,,,,,,,,,,,,0.0,16.0,16.0,16.0,1.0,,,,,,,,,,
0.0,1.0,1.03124,,,,,,puck_06s.jpg,0.0,clock_7_7.png,3.0,64,,,,,,,,,,,,,,,,,,0.0,17.0,17.0,17.0,1.0,,,,,,,,,,
0.0,1.0,0.58068,,,,,,onion_10s.jpg,0.0,clock_7_1.png,4.0,64,,,,,,,,,,,,,,,,,,0.0,18.0,18.0,18.0,1.0,,,,,,,,,,
1.0,1.0,0.56965,,,,,,onion_10s.jpg,1.0,clock_7_2.png,4.0,64,,,,,,,,,,,,,,,,,,0.0,19.0,19.0,19.0,1.0,,,,,,,,,,
0.0,1.0,0.52225,,,,,,smokingpipe.jpg,0.0,clock_7_3.png,4.0,64,,,,,,,,,,,,,,,,,,0.0,20.0,20.0,20.0,1.0,,,,,,,,,,
0.0,1.0,1.08254,,,,,,basket_05s.jpg,0.0,clock_7_4.png,4.0,64,,,,,,,,,,,,,,,,,,0.0,21.0,21.0,21.0,1.0,,,,,,,,,,
0.0,1.0,0.81521,,,,,,juicer2_06s.jpg,0.0,clock_7_5.png,4.0,64,,,,,,,,,,,,,,,,,,0.0,22.0,22.0,22.0,1.0,,,,,,,,,,
0.0,1.0,0.74015,,,,,,puck_06s.jpg,0.0,clock_7_6.png,4.0,64,,,,,,,,,,,,,,,,,,0.0,23.0,23.0,23.0,1.0,,,,,,,,,,
1.0,1.0,1.2324,,,,,,onion_10s.jpg,1.0,clock_7_7.png,4.0,64,,,,,,,,,,,,,,,,,,0.0,24.0,24.0,24.0,1.0,,,,,,,,,,
0.0,1.0,0.714985,,,,,,swan_11s.jpg,0.0,clock_6_1.png,5.0,64,,,,,,,,,,,,,,,,,,0.0,25.0,25.0,25.0,1.0,,,,,,,,,,
1.0,1.0,0.6202,,,,,,swan_11s.jpg,1.0,clock_6_2.png,5.0,64,,,,,,,,,,,,,,,,,,0.0,26.0,26.0,26.0,1.0,,,,,,,,,,
1.0,1.0,0.63185,,,,,,swan_11s.jpg,1.0,clock_6_3.png,5.0,64,,,,,,,,,,,,,,,,,,0.0,27.0,27.0,27.0,1.0,,,,,,,,,,
0.0,1.0,0.63112,,,,,,lion_18s.jpg,0.0,clock_6_4.png,5.0,64,,,,,,,,,,,,,,,,,,0.0,28.0,28.0,28.0,1.0,,,,,,,,,,
0.0,1.0,0.59107,,,,,,tiara_05s.jpg,0.0,clock_6_5.png,5.0,64,,,,,,,,,,,,,,,,,,0.0,29.0,29.0,29.0,1.0,,,,,,,,,,
0.0,1.0,0.632895,,,,,,jigsaw_puzzle_11s.jpg,0.0,clock_6_6.png,5.0,64,,,,,,,,,,,,,,,,,,0.0,30.0,30.0,30.0,1.0,,,,,,,,,,
0.0,1.0,0.653645,,,,,,pineapple_12s.jpg,0.0,clock_5_1.png,6.0,64,,,,,,,,,,,,,,,,,,0.0,31.0,31.0,31.0,1.0,,,,,,,,,,
0.0,1.0,0.843055,,,,,,plaster_cast_13s.jpg,0.0,clock_5_2.png,6.0,64,,,,,,,,,,,,,,,,,,0.0,32.0,32.0,32.0,1.0,,,,,,,,,,
0.0,1.0,0.675325,,,,,,boomerang_06s.jpg,0.0,clock_5_3.png,6.0,64,,,,,,,,,,,,,,,,,,0.0,33.0,33.0,33.0,1.0,,,,,,,,,,
0.0,1.0,1.421765,,,,,,kimono_13s.jpg,0.0,clock_5_4.png,6.0,64,,,,,,,,,,,,,,,,,,0.0,34.0,34.0,34.0,1.0,,,,,,,,,,
0.0,1.0,0.809055,,,,,,pantyhose_07s.jpg,0.0,clock_5_5.png,6.0,64,,,,,,,,,,,,,,,,,,0.0,35.0,35.0,35.0,1.0,,,,,,,,,,
,,,,,,,,,1.0,,,64,1.0,1.0,1.10272,,,,,,jigsaw_puzzle_11s.jpg,boomerang_06s.jpg,,,,,,,,,,,,,0.0,0.0,0.0,0.0,1.0,,,,,
,,,,,,,,,0.0,,,64,0.0,1.0,0.33285,,,,,,pineapple_12s.jpg,lion_18s.jpg,,,,,,,,,,,,,0.0,1.0,1.0,1.0,1.0,,,,,
,,,,,,,,,1.0,,,64,0.0,0.0,0.43858,,,,,,tiara_05s.jpg,plaster_cast_13s.jpg,,,,,,,,,,,,,0.0,2.0,2.0,2.0,1.0,,,,,
,,,,,,,,,1.0,,,64,1.0,1.0,0.738395,,,,,,film_03s.jpg,milk_02s.jpg,,,,,,,,,,,,,0.0,3.0,3.0,3.0,1.0,,,,,
,,,,,,,,,1.0,,,64,1.0,1.0,0.95727,,,,,,plug_08s.jpg,seagull_01b.jpg,,,,,,,,,,,,,0.0,4.0,4.0,4.0,1.0,,,,,
,,,,,,,,,0.0,,,64,0.0,1.0,0.47388,,,,,,foam_03s.jpg,tomato_sauce_09s.jpg,,,,,,,,,,,,,0.0,5.0,5.0,5.0,1.0,,,,,
,,,,,,,,,,,,64,,,,,,,,,,,,,,,,clock_present_1_1.xlsx,clock_compare_task_1_1.xlsx,,,,,,,,,,,0.0,0.0,0.0,0.0,1.0
0.0,1.0,1.02659,,,,,,mold2_04s.jpg,0.0,clock_6_1.png,1.0,64,,,,,,,,,,,,,,,,,,0.0,0.0,0.0,0.0,1.0,,,,,,,,,,
0.0,0.0,0.414675,,,,,,mold2_04s.jpg,1.0,clock_6_2.png,1.0,64,,,,,,,,,,,,,,,,,,0.0,1.0,1.0,1.0,1.0,,,,,,,,,,
0.0,1.0,0.655315,,,,,,pomegranate_04s.jpg,0.0,clock_6_3.png,1.0,64,,,,,,,,,,,,,,,,,,0.0,2.0,2.0,2.0,1.0,,,,,,,,,,
0.0,1.0,0.740725,,,,,,treadmill_06s.jpg,0.0,clock_6_4.png,1.0,64,,,,,,,,,,,,,,,,,,0.0,3.0,3.0,3.0,1.0,,,,,,,,,,
0.0,1.0,0.801535,,,,,,candy_cane_06s.jpg,0.0,clock_6_5.png,1.0,64,,,,,,,,,,,,,,,,,,0.0,4.0,4.0,4.0,1.0,,,,,,,,,,
0.0,1.0,0.85892,,,,,,crate_05s.jpg,0.0,clock_6_6.png,1.0,64,,,,,,,,,,,,,,,,,,0.0,5.0,5.0,5.0,1.0,,,,,,,,,,
0.0,1.0,1.07099,,,,,,powder_07s.jpg,0.0,clock_5_1.png,2.0,64,,,,,,,,,,,,,,,,,,0.0,6.0,6.0,6.0,1.0,,,,,,,,,,
0.0,1.0,0.764715,,,,,,glasses01a.jpg,0.0,clock_5_2.png,2.0,64,,,,,,,,,,,,,,,,,,0.0,7.0,7.0,7.0,1.0,,,,,,,,,,
0.0,1.0,0.691135,,,,,,footprint_11s.jpg,0.0,clock_5_3.png,2.0,64,,,,,,,,,,,,,,,,,,0.0,8.0,8.0,8.0,1.0,,,,,,,,,,
0.0,1.0,0.65081,,,,,,petri_dish_12s.jpg,0.0,clock_5_4.png,2.0,64,,,,,,,,,,,,,,,,,,0.0,9.0,9.0,9.0,1.0,,,,,,,,,,
0.0,1.0,0.64821,,,,,,reindeer_08s.jpg,0.0,clock_5_5.png,2.0,64,,,,,,,,,,,,,,,,,,0.0,10.0,10.0,10.0,1.0,,,,,,,,,,
0.0,1.0,0.73146,,,,,,ice_pack_09s.jpg,0.0,clock_6_1.png,3.0,64,,,,,,,,,,,,,,,,,,0.0,11.0,11.0,11.0,1.0,,,,,,,,,,
0.0,1.0,0.62538,,,,,,ostrich_06s.jpg,0.0,clock_6_2.png,3.0,64,,,,,,,,,,,,,,,,,,0.0,12.0,12.0,12.0,1.0,,,,,,,,,,
0.0,1.0,0.76474,,,,,,aluminum_foil_08s.jpg,0.0,clock_6_3.png,3.0,64,,,,,,,,,,,,,,,,,,0.0,13.0,13.0,13.0,1.0,,,,,,,,,,
0.0,1.0,0.681145,,,,,,refrigerator_07s.jpg,0.0,clock_6_4.png,3.0,64,,,,,,,,,,,,,,,,,,0.0,14.0,14.0,14.0,1.0,,,,,,,,,,
0.0,1.0,0.61907,,,,,,luggage_08s.jpg,0.0,clock_6_5.png,3.0,64,,,,,,,,,,,,,,,,,,0.0,15.0,15.0,15.0,1.0,,,,,,,,,,
0.0,1.0,0.844095,,,,,,raspberry_12s.jpg,0.0,clock_6_6.png,3.0,64,,,,,,,,,,,,,,,,,,0.0,16.0,16.0,16.0,1.0,,,,,,,,,,
0.0,1.0,0.831055,,,,,,rock_08s.jpg,0.0,clock_7_1.png,4.0,64,,,,,,,,,,,,,,,,,,0.0,17.0,17.0,17.0,1.0,,,,,,,,,,
1.0,1.0,0.61554,,,,,,rock_08s.jpg,1.0,clock_7_2.png,4.0,64,,,,,,,,,,,,,,,,,,0.0,18.0,18.0,18.0,1.0,,,,,,,,,,
1.0,1.0,0.443865,,,,,,rock_08s.jpg,1.0,clock_7_3.png,4.0,64,,,,,,,,,,,,,,,,,,0.0,19.0,19.0,19.0,1.0,,,,,,,,,,
0.0,1.0,0.48598,,,,,,pancake_12s.jpg,0.0,clock_7_4.png,4.0,64,,,,,,,,,,,,,,,,,,0.0,20.0,20.0,20.0,1.0,,,,,,,,,,
0.0,1.0,0.81516,,,,,,typewriter_11s.jpg,0.0,clock_7_5.png,4.0,64,,,,,,,,,,,,,,,,,,0.0,21.0,21.0,21.0,1.0,,,,,,,,,,
0.0,1.0,0.711285,,,,,,money_07s.jpg,0.0,clock_7_6.png,4.0,64,,,,,,,,,,,,,,,,,,0.0,22.0,22.0,22.0,1.0,,,,,,,,,,
0.0,1.0,0.61564,,,,,,kangaroo_02s.jpg,0.0,clock_7_7.png,4.0,64,,,,,,,,,,,,,,,,,,0.0,23.0,23.0,23.0,1.0,,,,,,,,,,
0.0,1.0,0.703055,,,,,,quad_04s.jpg,0.0,clock_7_1.png,5.0,64,,,,,,,,,,,,,,,,,,0.0,24.0,24.0,24.0,1.0,,,,,,,,,,
0.0,1.0,0.57379,,,,,,flip_flop_03s.jpg,0.0,clock_7_2.png,5.0,64,,,,,,,,,,,,,,,,,,0.0,25.0,25.0,25.0,1.0,,,,,,,,,,
0.0,1.0,0.86194,,,,,,typewriter_11s.jpg,0.0,clock_7_3.png,5.0,64,,,,,,,,,,,,,,,,,,0.0,26.0,26.0,26.0,1.0,,,,,,,,,,
1.0,1.0,0.91597,,,,,,flip_flop_03s.jpg,1.0,clock_7_4.png,5.0,64,,,,,,,,,,,,,,,,,,0.0,27.0,27.0,27.0,1.0,,,,,,,,,,
0.0,1.0,0.607405,,,,,,antenna_01b.jpg,0.0,clock_7_5.png,5.0,64,,,,,,,,,,,,,,,,,,0.0,28.0,28.0,28.0,1.0,,,,,,,,,,
0.0,1.0,0.724095,,,,,,quill_09s.jpg,0.0,clock_7_6.png,5.0,64,,,,,,,,,,,,,,,,,,0.0,29.0,29.0,29.0,1.0,,,,,,,,,,
0.0,1.0,0.61504,,,,,,cap_05s.jpg,0.0,clock_7_7.png,5.0,64,,,,,,,,,,,,,,,,,,0.0,30.0,30.0,30.0,1.0,,,,,,,,,,
0.0,1.0,0.7493,,,,,,toilet_07s.jpg,0.0,clock_5_1.png,6.0,64,,,,,,,,,,,,,,,,,,0.0,31.0,31.0,31.0,1.0,,,,,,,,,,
0.0,1.0,0.63241,,,,,,mitten_10s.jpg,0.0,clock_5_2.png,6.0,64,,,,,,,,,,,,,,,,,,0.0,32.0,32.0,32.0,1.0,,,,,,,,,,
0.0,1.0,0.56092,,,,,,fire_pit_10s.jpg,0.0,clock_5_3.png,6.0,64,,,,,,,,,,,,,,,,,,0.0,33.0,33.0,33.0,1.0,,,,,,,,,,
0.0,1.0,0.83212,,,,,,flip_flop_03s.jpg,0.0,clock_5_4.png,6.0,64,,,,,,,,,,,,,,,,,,0.0,34.0,34.0,34.0,1.0,,,,,,,,,,
0.0,1.0,0.610325,,,,,,beard_16s.jpg,0.0,clock_5_5.png,6.0,64,,,,,,,,,,,,,,,,,,0.0,35.0,35.0,35.0,1.0,,,,,,,,,,
,,,,,,,,,1.0,,,64,1.0,1.0,1.213265,,,,,,antenna_01b.jpg,toilet_07s.jpg,,,,,,,,,,,,,0.0,0.0,0.0,0.0,1.0,,,,,
,,,,,,,,,1.0,,,64,0.0,0.0,0.90168,,,,,,cap_05s.jpg,fire_pit_10s.jpg,,,,,,,,,,,,,0.0,1.0,1.0,1.0,1.0,,,,,
,,,,,,,,,0.0,,,64,0.0,1.0,0.977975,,,,,,powder_07s.jpg,treadmill_06s.jpg,,,,,,,,,,,,,0.0,2.0,2.0,2.0,1.0,,,,,
,,,,,,,,,1.0,,,64,1.0,1.0,0.490805,,,,,,pancake_12s.jpg,kangaroo_02s.jpg,,,,,,,,,,,,,0.0,3.0,3.0,3.0,1.0,,,,,
,,,,,,,,,0.0,,,64,0.0,1.0,1.049785,,,,,,crate_05s.jpg,pomegranate_04s.jpg,,,,,,,,,,,,,0.0,4.0,4.0,4.0,1.0,,,,,
,,,,,,,,,0.0,,,64,0.0,1.0,0.88507,,,,,,refrigerator_07s.jpg,ice_pack_09s.jpg,,,,,,,,,,,,,0.0,5.0,5.0,5.0,1.0,,,,,
,,,,,,,,,,,,64,,,,,,,,,,,,,,,,clock_present_2_1.xlsx,clock_compare_task_2_1.xlsx,,,,,,,,,,,0.0,1.0,1.0,1.0,1.0
0.0,1.0,1.66288,,,,,,chip_04s.jpg,0.0,clock_7_1.png,1.0,64,,,,,,,,,,,,,,,,,,0.0,0.0,0.0,0.0,1.0,,,,,,,,,,
0.0,1.0,0.580825,,,,,,orchid_01b.jpg,0.0,clock_7_2.png,1.0,64,,,,,,,,,,,,,,,,,,0.0,1.0,1.0,1.0,1.0,,,,,,,,,,
0.0,1.0,0.558385,,,,,,boar_10s.jpg,0.0,clock_7_3.png,1.0,64,,,,,,,,,,,,,,,,,,0.0,2.0,2.0,2.0,1.0,,,,,,,,,,
0.0,1.0,0.735715,,,,,,smoothie_09s.jpg,0.0,clock_7_4.png,1.0,64,,,,,,,,,,,,,,,,,,0.0,3.0,3.0,3.0,1.0,,,,,,,,,,
1.0,1.0,0.952825,,,,,,boar_10s.jpg,1.0,clock_7_5.png,1.0,64,,,,,,,,,,,,,,,,,,0.0,4.0,4.0,4.0,1.0,,,,,,,,,,
0.0,1.0,0.488255,,,,,,ruby_15s.jpg,0.0,clock_7_6.png,1.0,64,,,,,,,,,,,,,,,,,,0.0,5.0,5.0,5.0,1.0,,,,,,,,,,
0.0,1.0,0.707725,,,,,,crab_16s.jpg,0.0,clock_7_7.png,1.0,64,,,,,,,,,,,,,,,,,,0.0,6.0,6.0,6.0,1.0,,,,,,,,,,
0.0,1.0,0.581265,,,,,,lamb_chop_07s.jpg,0.0,clock_5_1.png,2.0,64,,,,,,,,,,,,,,,,,,0.0,7.0,7.0,7.0,1.0,,,,,,,,,,
0.0,1.0,0.46409,,,,,,moth_06n.jpg,0.0,clock_5_2.png,2.0,64,,,,,,,,,,,,,,,,,,0.0,8.0,8.0,8.0,1.0,,,,,,,,,,
1.0,1.0,0.58824,,,,,,moth_06n.jpg,1.0,clock_5_3.png,2.0,64,,,,,,,,,,,,,,,,,,0.0,9.0,9.0,9.0,1.0,,,,,,,,,,
0.0,1.0,0.63825,,,,,,bee_20s.jpg,0.0,clock_5_4.png,2.0,64,,,,,,,,,,,,,,,,,,0.0,10.0,10.0,10.0,1.0,,,,,,,,,,
0.0,1.0,0.61469,,,,,,tambourine_06s.jpg,0.0,clock_5_5.png,2.0,64,,,,,,,,,,,,,,,,,,0.0,11.0,11.0,11.0,1.0,,,,,,,,,,
0.0,1.0,0.56752,,,,,,rolling_pin_02s.jpg,0.0,clock_7_1.png,3.0,64,,,,,,,,,,,,,,,,,,0.0,12.0,12.0,12.0,1.0,,,,,,,,,,
0.0,1.0,0.538985,,,,,,soda_fountain_03s.jpg,0.0,clock_7_2.png,3.0,64,,,,,,,,,,,,,,,,,,0.0,13.0,13.0,13.0,1.0,,,,,,,,,,
1.0,1.0,0.7076,,,,,,soda_fountain_03s.jpg,1.0,clock_7_3.png,3.0,64,,,,,,,,,,,,,,,,,,0.0,14.0,14.0,14.0,1.0,,,,,,,,,,
0.0,1.0,0.538615,,,,,,muffin_12n.jpg,0.0,clock_7_4.png,3.0,64,,,,,,,,,,,,,,,,,,0.0,15.0,15.0,15.0,1.0,,,,,,,,,,
0.0,1.0,0.74979,,,,,,harpoon.jpg,0.0,clock_7_5.png,3.0,64,,,,,,,,,,,,,,,,,,0.0,16.0,16.0,16.0,1.0,,,,,,,,,,
0.0,1.0,0.60607,,,,,,taxi_15s.jpg,0.0,clock_7_6.png,3.0,64,,,,,,,,,,,,,,,,,,0.0,17.0,17.0,17.0,1.0,,,,,,,,,,
0.0,1.0,0.636535,,,,,,emerald_02s.jpg,0.0,clock_7_7.png,3.0,64,,,,,,,,,,,,,,,,,,0.0,18.0,18.0,18.0,1.0,,,,,,,,,,
0.0,1.0,0.519965,,,,,,rabbit_03s.jpg,0.0,clock_5_1.png,4.0,64,,,,,,,,,,,,,,,,,,0.0,19.0,19.0,19.0,1.0,,,,,,,,,,
0.0,1.0,0.65422,,,,,,key_07s.jpg,0.0,clock_5_2.png,4.0,64,,,,,,,,,,,,,,,,,,0.0,20.0,20.0,20.0,1.0,,,,,,,,,,
0.0,1.0,0.72613,,,,,,amber_04s.jpg,0.0,clock_5_3.png,4.0,64,,,,,,,,,,,,,,,,,,0.0,21.0,21.0,21.0,1.0,,,,,,,,,,
0.0,1.0,0.67488,,,,,,tambourine_06s.jpg,0.0,clock_5_4.png,4.0,64,,,,,,,,,,,,,,,,,,0.0,22.0,22.0,22.0,1.0,,,,,,,,,,
0.0,1.0,0.586455,,,,,,mascara_03s.jpg,0.0,clock_5_5.png,4.0,64,,,,,,,,,,,,,,,,,,0.0,23.0,23.0,23.0,1.0,,,,,,,,,,
0.0,1.0,0.61666,,,,,,chime_12s.jpg,0.0,clock_6_1.png,5.0,64,,,,,,,,,,,,,,,,,,0.0,24.0,24.0,24.0,1.0,,,,,,,,,,
1.0,1.0,0.625935,,,,,,chime_12s.jpg,1.0,clock_6_2.png,5.0,64,,,,,,,,,,,,,,,,,,0.0,25.0,25.0,25.0,1.0,,,,,,,,,,
0.0,1.0,0.507435,,,,,,rudder_02s.jpg,0.0,clock_6_3.png,5.0,64,,,,,,,,,,,,,,,,,,0.0,26.0,26.0,26.0,1.0,,,,,,,,,,
0.0,1.0,0.63078,,,,,,purse_05s.jpg,0.0,clock_6_4.png,5.0,64,,,,,,,,,,,,,,,,,,0.0,27.0,27.0,27.0,1.0,,,,,,,,,,
0.0,1.0,0.83767,,,,,,mixer_12s.jpg,0.0,clock_6_5.png,5.0,64,,,,,,,,,,,,,,,,,,0.0,28.0,28.0,28.0,1.0,,,,,,,,,,
0.0,1.0,0.631405,,,,,,popcorn_09s.jpg,0.0,clock_6_6.png,5.0,64,,,,,,,,,,,,,,,,,,0.0,29.0,29.0,29.0,1.0,,,,,,,,,,
0.0,1.0,0.55463,,,,,,lamb_04s.jpg,0.0,clock_6_1.png,6.0,64,,,,,,,,,,,,,,,,,,0.0,30.0,30.0,30.0,1.0,,,,,,,,,,
0.0,1.0,0.51893,,,,,,ruby_15s.jpg,0.0,clock_6_2.png,6.0,64,,,,,,,,,,,,,,,,,,0.0,31.0,31.0,31.0,1.0,,,,,,,,,,
0.0,1.0,0.59418,,,,,,moth_06n.jpg,0.0,clock_6_3.png,6.0,64,,,,,,,,,,,,,,,,,,0.0,32.0,32.0,32.0,1.0,,,,,,,,,,
0.0,1.0,0.549565,,,,,,clover_04s.jpg,0.0,clock_6_4.png,6.0,64,,,,,,,,,,,,,,,,,,0.0,33.0,33.0,33.0,1.0,,,,,,,,,,
1.0,1.0,0.67356,,,,,,clover_04s.jpg,1.0,clock_6_5.png,6.0,64,,,,,,,,,,,,,,,,,,0.0,34.0,34.0,34.0,1.0,,,,,,,,,,
0.0,1.0,0.671735,,,,,,juicer1_08s.jpg,0.0,clock_6_6.png,6.0,64,,,,,,,,,,,,,,,,,,0.0,35.0,35.0,35.0,1.0,,,,,,,,,,
,,,,,,,,,1.0,,,64,1.0,1.0,0.86163,,,,,,harpoon.jpg,rabbit_03s.jpg,,,,,,,,,,,,,0.0,0.0,0.0,0.0,1.0,,,,,
,,,,,,,,,1.0,,,64,1.0,1.0,0.852185,,,,,,purse_05s.jpg,lamb_04s.jpg,,,,,,,,,,,,,0.0,1.0,1.0,1.0,1.0,,,,,
,,,,,,,,,1.0,,,64,0.0,0.0,0.83678,,,,,,taxi_15s.jpg,key_07s.jpg,,,,,,,,,,,,,0.0,2.0,2.0,2.0,1.0,,,,,
,,,,,,,,,1.0,,,64,0.0,0.0,0.5691,,,,,,chip_04s.jpg,smoothie_09s.jpg,,,,,,,,,,,,,0.0,3.0,3.0,3.0,1.0,,,,,
,,,,,,,,,1.0,,,64,1.0,1.0,0.649295,,,,,,lamb_chop_07s.jpg,bee_20s.jpg,,,,,,,,,,,,,0.0,4.0,4.0,4.0,1.0,,,,,
,,,,,,,,,0.0,,,64,1.0,0.0,1.10675,,,,,,muffin_12n.jpg,rolling_pin_02s.jpg,,,,,,,,,,,,,0.0,5.0,5.0,5.0,1.0,,,,,
,,,,,,,,,,,,64,,,,,,,,,,,,,,,,clock_present_3_1.xlsx,clock_compare_task_3_1.xlsx,,,,,,,,,,,0.0,2.0,2.0,2.0,1.0
0.0,1.0,0.959705,,,,,,keyboard_05s.jpg,0.0,clock_6_1.png,1.0,64,,,,,,,,,,,,,,,,,,0.0,0.0,0.0,0.0,1.0,,,,,,,,,,
0.0,1.0,0.550935,,,,,,panda_02s.jpg,0.0,clock_6_2.png,1.0,64,,,,,,,,,,,,,,,,,,0.0,1.0,1.0,1.0,1.0,,,,,,,,,,
0.0,1.0,0.731415,,,,,,limousine_12s.jpg,0.0,clock_6_3.png,1.0,64,,,,,,,,,,,,,,,,,,0.0,2.0,2.0,2.0,1.0,,,,,,,,,,
0.0,1.0,0.78157,,,,,,icemaker_10s.jpg,0.0,clock_6_4.png,1.0,64,,,,,,,,,,,,,,,,,,0.0,3.0,3.0,3.0,1.0,,,,,,,,,,
0.0,1.0,0.797425,,,,,,safety_pin_02s.jpg,0.0,clock_6_5.png,1.0,64,,,,,,,,,,,,,,,,,,0.0,4.0,4.0,4.0,1.0,,,,,,,,,,
0.0,1.0,0.702055,,,,,,pump_11s.jpg,0.0,clock_6_6.png,1.0,64,,,,,,,,,,,,,,,,,,0.0,5.0,5.0,5.0,1.0,,,,,,,,,,
0.0,1.0,0.632085,,,,,,swimming_pool_17s.jpg,0.0,clock_5_1.png,2.0,64,,,,,,,,,,,,,,,,,,0.0,6.0,6.0,6.0,1.0,,,,,,,,,,
0.0,1.0,0.53931,,,,,,stethoscope_01b.jpg,0.0,clock_5_2.png,2.0,64,,,,,,,,,,,,,,,,,,0.0,7.0,7.0,7.0,1.0,,,,,,,,,,
1.0,1.0,0.665585,,,,,,stethoscope_01b.jpg,1.0,clock_5_3.png,2.0,64,,,,,,,,,,,,,,,,,,0.0,8.0,8.0,8.0,1.0,,,,,,,,,,
1.0,1.0,0.781405,,,,,,swimming_pool_17s.jpg,1.0,clock_5_4.png,2.0,64,,,,,,,,,,,,,,,,,,0.0,9.0,9.0,9.0,1.0,,,,,,,,,,
0.0,1.0,0.4999,,,,,,lectern_08s.jpg,0.0,clock_5_5.png,2.0,64,,,,,,,,,,,,,,,,,,0.0,10.0,10.0,10.0,1.0,,,,,,,,,,
0.0,1.0,1.131295,,,,,,scooter.jpg,0.0,clock_6_1.png,3.0,64,,,,,,,,,,,,,,,,,,0.0,11.0,11.0,11.0,1.0,,,,,,,,,,
0.0,1.0,0.55928,,,,,,fire_alarm_05s.jpg,0.0,clock_6_2.png,3.0,64,,,,,,,,,,,,,,,,,,0.0,12.0,12.0,12.0,1.0,,,,,,,,,,
0.0,1.0,0.84207,,,,,,keyboard_05s.jpg,0.0,clock_6_3.png,3.0,64,,,,,,,,,,,,,,,,,,0.0,13.0,13.0,13.0,1.0,,,,,,,,,,
0.0,1.0,0.531505,,,,,,mailbox_11s.jpg,0.0,clock_6_4.png,3.0,64,,,,,,,,,,,,,,,,,,0.0,14.0,14.0,14.0,1.0,,,,,,,,,,
0.0,1.0,0.764775,,,,,,piano_13n.jpg,0.0,clock_6_5.png,3.0,64,,,,,,,,,,,,,,,,,,0.0,15.0,15.0,15.0,1.0,,,,,,,,,,
0.0,1.0,0.581535,,,,,,cobra_05s.jpg,0.0,clock_6_6.png,3.0,64,,,,,,,,,,,,,,,,,,0.0,16.0,16.0,16.0,1.0,,,,,,,,,,
0.0,1.0,0.66426,,,,,,denture_03s.jpg,0.0,clock_5_1.png,4.0,64,,,,,,,,,,,,,,,,,,0.0,17.0,17.0,17.0,1.0,,,,,,,,,,
0.0,1.0,0.59774,,,,,,go-kart_10s.jpg,0.0,clock_5_2.png,4.0,64,,,,,,,,,,,,,,,,,,0.0,18.0,18.0,18.0,1.0,,,,,,,,,,
1.0,1.0,0.57802,,,,,,denture_03s.jpg,1.0,clock_5_3.png,4.0,64,,,,,,,,,,,,,,,,,,0.0,19.0,19.0,19.0,1.0,,,,,,,,,,
0.0,1.0,0.65492,,,,,,ironing_board_07s.jpg,0.0,clock_5_4.png,4.0,64,,,,,,,,,,,,,,,,,,0.0,20.0,20.0,20.0,1.0,,,,,,,,,,
0.0,1.0,0.990745,,,,,,bubble_01b.jpg,0.0,clock_5_5.png,4.0,64,,,,,,,,,,,,,,,,,,0.0,21.0,21.0,21.0,1.0,,,,,,,,,,
0.0,1.0,0.907735,,,,,,pipe1_10s.jpg,0.0,clock_7_1.png,5.0,64,,,,,,,,,,,,,,,,,,0.0,22.0,22.0,22.0,1.0,,,,,,,,,,
0.0,1.0,0.538805,,,,,,golf_club_03s.jpg,0.0,clock_7_2.png,5.0,64,,,,,,,,,,,,,,,,,,0.0,23.0,23.0,23.0,1.0,,,,,,,,,,
0.0,1.0,0.68998,,,,,,tweezers_03s.jpg,0.0,clock_7_3.png,5.0,64,,,,,,,,,,,,,,,,,,0.0,24.0,24.0,24.0,1.0,,,,,,,,,,
1.0,1.0,0.732315,,,,,,pipe1_10s.jpg,1.0,clock_7_4.png,5.0,64,,,,,,,,,,,,,,,,,,0.0,25.0,25.0,25.0,1.0,,,,,,,,,,
1.0,1.0,0.751875,,,,,,tweezers_03s.jpg,1.0,clock_7_5.png,5.0,64,,,,,,,,,,,,,,,,,,0.0,26.0,26.0,26.0,1.0,,,,,,,,,,
0.0,1.0,0.665195,,,,,,keyboard_05s.jpg,0.0,clock_7_6.png,5.0,64,,,,,,,,,,,,,,,,,,0.0,27.0,27.0,27.0,1.0,,,,,,,,,,
0.0,1.0,0.902285,,,,,,camcorder_10s.jpg,0.0,clock_7_7.png,5.0,64,,,,,,,,,,,,,,,,,,0.0,28.0,28.0,28.0,1.0,,,,,,,,,,
0.0,1.0,0.669505,,,,,,padlock_07s.jpg,0.0,clock_7_1.png,6.0,64,,,,,,,,,,,,,,,,,,0.0,29.0,29.0,29.0,1.0,,,,,,,,,,
0.0,1.0,0.855735,,,,,,bubble_01b.jpg,0.0,clock_7_2.png,6.0,64,,,,,,,,,,,,,,,,,,0.0,30.0,30.0,30.0,1.0,,,,,,,,,,
0.0,1.0,0.634675,,,,,,pan_02s.jpg,0.0,clock_7_3.png,6.0,64,,,,,,,,,,,,,,,,,,0.0,31.0,31.0,31.0,1.0,,,,,,,,,,
0.0,1.0,0.64819,,,,,,turf_03s.jpg,0.0,clock_7_4.png,6.0,64,,,,,,,,,,,,,,,,,,0.0,32.0,32.0,32.0,1.0,,,,,,,,,,
0.0,1.0,0.616455,,,,,,sundae_08s.jpg,0.0,clock_7_5.png,6.0,64,,,,,,,,,,,,,,,,,,0.0,33.0,33.0,33.0,1.0,,,,,,,,,,
0.0,1.0,0.60057,,,,,,jersey_02s.jpg,0.0,clock_7_6.png,6.0,64,,,,,,,,,,,,,,,,,,0.0,34.0,34.0,34.0,1.0,,,,,,,,,,
0.0,1.0,0.54795,,,,,,peppermint_07s.jpg,0.0,clock_7_7.png,6.0,64,,,,,,,,,,,,,,,,,,0.0,35.0,35.0,35.0,1.0,,,,,,,,,,
,,,,,,,,,0.0,,,64,1.0,0.0,1.004215,,,,,,golf_club_03s.jpg,ironing_board_07s.jpg,,,,,,,,,,,,,0.0,0.0,0.0,0.0,1.0,,,,,
,,,,,,,,,1.0,,,64,0.0,0.0,0.91886,,,,,,piano_13n.jpg,go-kart_10s.jpg,,,,,,,,,,,,,0.0,1.0,1.0,1.0,1.0,,,,,
,,,,,,,,,1.0,,,64,0.0,0.0,0.916645,,,,,,camcorder_10s.jpg,pan_02s.jpg,,,,,,,,,,,,,0.0,2.0,2.0,2.0,1.0,,,,,
,,,,,,,,,1.0,,,64,1.0,1.0,0.67789,,,,,,panda_02s.jpg,safety_pin_02s.jpg,,,,,,,,,,,,,0.0,3.0,3.0,3.0,1.0,,,,,
,,,,,,,,,0.0,,,64,1.0,0.0,0.8893,,,,,,pump_11s.jpg,limousine_12s.jpg,,,,,,,,,,,,,0.0,4.0,4.0,4.0,1.0,,,,,
,,,,,,,,,1.0,,,64,0.0,0.0,0.978495,,,,,,scooter.jpg,mailbox_11s.jpg,,,,,,,,,,,,,0.0,5.0,5.0,5.0,1.0,,,,,
,,,,,,,,,,,,64,,,,,,,,,,,,,,,,clock_present_4_1.xlsx,clock_compare_task_4_1.xlsx,,,,,,,,,,,0.0,3.0,3.0,3.0,1.0
0.0,1.0,0.94782,,,,,,pacifier_09s.jpg,0.0,clock_5_1.png,1.0,64,,,,,,,,,,,,,,,,,,0.0,0.0,0.0,0.0,1.0,,,,,,,,,,
0.0,1.0,0.506045,,,,,,thorn_13s.jpg,0.0,clock_5_2.png,1.0,64,,,,,,,,,,,,,,,,,,0.0,1.0,1.0,1.0,1.0,,,,,,,,,,
1.0,1.0,0.70573,,,,,,pacifier_09s.jpg,1.0,clock_5_3.png,1.0,64,,,,,,,,,,,,,,,,,,0.0,2.0,2.0,2.0,1.0,,,,,,,,,,
0.0,1.0,0.89789,,,,,,stump_02s.jpg,0.0,clock_5_4.png,1.0,64,,,,,,,,,,,,,,,,,,0.0,3.0,3.0,3.0,1.0,,,,,,,,,,
0.0,1.0,0.543585,,,,,,peanut_butter_08s.jpg,0.0,clock_5_5.png,1.0,64,,,,,,,,,,,,,,,,,,0.0,4.0,4.0,4.0,1.0,,,,,,,,,,
0.0,1.0,0.57389,,,,,,mussel_11s.jpg,0.0,clock_6_1.png,2.0,64,,,,,,,,,,,,,,,,,,0.0,5.0,5.0,5.0,1.0,,,,,,,,,,
0.0,1.0,0.56448,,,,,,rope_16s.jpg,0.0,clock_6_2.png,2.0,64,,,,,,,,,,,,,,,,,,0.0,6.0,6.0,6.0,1.0,,,,,,,,,,
0.0,1.0,0.515865,,,,,,hummingbird_05s.jpg,0.0,clock_6_3.png,2.0,64,,,,,,,,,,,,,,,,,,0.0,7.0,7.0,7.0,1.0,,,,,,,,,,
0.0,1.0,0.599445,,,,,,rooster_03s.jpg,0.0,clock_6_4.png,2.0,64,,,,,,,,,,,,,,,,,,0.0,8.0,8.0,8.0,1.0,,,,,,,,,,
0.0,1.0,0.52446,,,,,,towel_rack_04s.jpg,0.0,clock_6_5.png,2.0,64,,,,,,,,,,,,,,,,,,0.0,9.0,9.0,9.0,1.0,,,,,,,,,,
0.0,1.0,0.58779,,,,,,kite_04s.jpg,0.0,clock_6_6.png,2.0,64,,,,,,,,,,,,,,,,,,0.0,10.0,10.0,10.0,1.0,,,,,,,,,,
0.0,1.0,0.469235,,,,,,keyhole_03s.jpg,0.0,clock_7_1.png,3.0,64,,,,,,,,,,,,,,,,,,0.0,11.0,11.0,11.0,1.0,,,,,,,,,,
0.0,1.0,0.63492,,,,,,megaphone_03s.jpg,0.0,clock_7_2.png,3.0,64,,,,,,,,,,,,,,,,,,0.0,12.0,12.0,12.0,1.0,,,,,,,,,,
0.0,1.0,0.58287,,,,,,lasagna_06s.jpg,0.0,clock_7_3.png,3.0,64,,,,,,,,,,,,,,,,,,0.0,13.0,13.0,13.0,1.0,,,,,,,,,,
0.0,1.0,0.7242,,,,,,frame_06s.jpg,0.0,clock_7_4.png,3.0,64,,,,,,,,,,,,,,,,,,0.0,14.0,14.0,14.0,1.0,,,,,,,,,,
0.0,1.0,0.55666,,,,,,puddle_02s.jpg,0.0,clock_7_5.png,3.0,64,,,,,,,,,,,,,,,,,,0.0,15.0,15.0,15.0,1.0,,,,,,,,,,
0.0,1.0,0.76781,,,,,,stump_02s.jpg,0.0,clock_7_6.png,3.0,64,,,,,,,,,,,,,,,,,,0.0,16.0,16.0,16.0,1.0,,,,,,,,,,
0.0,1.0,0.64759,,,,,,plunger_08s.jpg,0.0,clock_7_7.png,3.0,64,,,,,,,,,,,,,,,,,,0.0,17.0,17.0,17.0,1.0,,,,,,,,,,
0.0,1.0,0.576025,,,,,,gong_02s.jpg,0.0,clock_5_1.png,4.0,64,,,,,,,,,,,,,,,,,,0.0,18.0,18.0,18.0,1.0,,,,,,,,,,
0.0,1.0,0.55495,,,,,,potholder_02s.jpg,0.0,clock_5_2.png,4.0,64,,,,,,,,,,,,,,,,,,0.0,19.0,19.0,19.0,1.0,,,,,,,,,,
0.0,1.0,0.657365,,,,,,tape_measure_11s.jpg,0.0,clock_5_3.png,4.0,64,,,,,,,,,,,,,,,,,,0.0,20.0,20.0,20.0,1.0,,,,,,,,,,
0.0,1.0,0.949085,,,,,,kite_04s.jpg,0.0,clock_5_4.png,4.0,64,,,,,,,,,,,,,,,,,,0.0,21.0,21.0,21.0,1.0,,,,,,,,,,
0.0,1.0,0.571105,,,,,,gazelle_10s.jpg,0.0,clock_5_5.png,4.0,64,,,,,,,,,,,,,,,,,,0.0,22.0,22.0,22.0,1.0,,,,,,,,,,
0.0,1.0,0.53169,,,,,,ravioli_08s.jpg,0.0,clock_7_1.png,5.0,64,,,,,,,,,,,,,,,,,,0.0,23.0,23.0,23.0,1.0,,,,,,,,,,
0.0,1.0,0.516875,,,,,,soccer_ball_12s.jpg,0.0,clock_7_2.png,5.0,64,,,,,,,,,,,,,,,,,,0.0,24.0,24.0,24.0,1.0,,,,,,,,,,
0.0,1.0,0.601505,,,,,,tupperware_09s.jpg,0.0,clock_7_3.png,5.0,64,,,,,,,,,,,,,,,,,,0.0,25.0,25.0,25.0,1.0,,,,,,,,,,
0.0,1.0,0.48858,,,,,,medal_04s.jpg,0.0,clock_7_4.png,5.0,64,,,,,,,,,,,,,,,,,,0.0,26.0,26.0,26.0,1.0,,,,,,,,,,
0.0,1.0,0.621805,,,,,,trumpet_06s.jpg,0.0,clock_7_5.png,5.0,64,,,,,,,,,,,,,,,,,,0.0,27.0,27.0,27.0,1.0,,,,,,,,,,
0.0,1.0,0.581185,,,,,,kettle_08s.jpg,0.0,clock_7_6.png,5.0,64,,,,,,,,,,,,,,,,,,0.0,28.0,28.0,28.0,1.0,,,,,,,,,,
0.0,1.0,0.51596,,,,,,tuxedo_01b.jpg,0.0,clock_7_7.png,5.0,64,,,,,,,,,,,,,,,,,,0.0,29.0,29.0,29.0,1.0,,,,,,,,,,
0.0,1.0,0.54809,,,,,,puffin_19s.jpg,0.0,clock_6_1.png,6.0,64,,,,,,,,,,,,,,,,,,0.0,30.0,30.0,30.0,1.0,,,,,,,,,,
0.0,1.0,0.639035,,,,,,tape_measure_11s.jpg,0.0,clock_6_2.png,6.0,64,,,,,,,,,,,,,,,,,,0.0,31.0,31.0,31.0,1.0,,,,,,,,,,
0.0,1.0,0.619905,,,,,,bathtub_23s.jpg,0.0,clock_6_3.png,6.0,64,,,,,,,,,,,,,,,,,,0.0,32.0,32.0,32.0,1.0,,,,,,,,,,
0.0,1.0,0.631855,,,,,,lip_gloss_06s.jpg,0.0,clock_6_4.png,6.0,64,,,,,,,,,,,,,,,,,,0.0,33.0,33.0,33.0,1.0,,,,,,,,,,
1.0,1.0,2.079085,,,,,,puffin_19s.jpg,1.0,clock_6_5.png,6.0,64,,,,,,,,,,,,,,,,,,0.0,34.0,34.0,34.0,1.0,,,,,,,,,,
0.0,1.0,0.88557,,,,,,swing_set_15s.jpg,0.0,clock_6_6.png,6.0,64,,,,,,,,,,,,,,,,,,0.0,35.0,35.0,35.0,1.0,,,,,,,,,,
,,,,,,,,,1.0,,,64,1.0,1.0,0.7781,,,,,,peanut_butter_08s.jpg,hummingbird_05s.jpg,,,,,,,,,,,,,0.0,0.0,0.0,0.0,1.0,,,,,
,,,,,,,,,1.0,,,64,0.0,0.0,0.505045,,,,,,puddle_02s.jpg,gong_02s.jpg,,,,,,,,,,,,,0.0,1.0,1.0,1.0,1.0,,,,,
,,,,,,,,,1.0,,,64,0.0,0.0,1.483525,,,,,,rooster_03s.jpg,keyhole_03s.jpg,,,,,,,,,,,,,0.0,2.0,2.0,2.0,1.0,,,,,
,,,,,,,,,0.0,,,64,0.0,1.0,1.42407,,,,,,plunger_08s.jpg,frame_06s.jpg,,,,,,,,,,,,,0.0,3.0,3.0,3.0,1.0,,,,,
,,,,,,,,,1.0,,,64,1.0,1.0,0.91872,,,,,,ravioli_08s.jpg,medal_04s.jpg,,,,,,,,,,,,,0.0,4.0,4.0,4.0,1.0,,,,,
,,,,,,,,,1.0,,,64,1.0,1.0,0.732395,,,,,,soccer_ball_12s.jpg,trumpet_06s.jpg,,,,,,,,,,,,,0.0,5.0,5.0,5.0,1.0,,,,,
,,,,,,,,,,,,64,,,,,,,,,,,,,,,,clock_present_5_1.xlsx,clock_compare_task_5_1.xlsx,,,,,,,,,,,0.0,4.0,4.0,4.0,1.0
0.0,1.0,1.06545,,,,,,orangutan_03s.jpg,0.0,clock_6_1.png,1.0,64,,,,,,,,,,,,,,,,,,0.0,0.0,0.0,0.0,1.0,,,,,,,,,,
1.0,1.0,1.148625,,,,,,orangutan_03s.jpg,1.0,clock_6_2.png,1.0,64,,,,,,,,,,,,,,,,,,0.0,1.0,1.0,1.0,1.0,,,,,,,,,,
1.0,1.0,0.83704,,,,,,orangutan_03s.jpg,1.0,clock_6_3.png,1.0,64,,,,,,,,,,,,,,,,,,0.0,2.0,2.0,2.0,1.0,,,,,,,,,,
0.0,1.0,0.601775,,,,,,trampoline_13s.jpg,0.0,clock_6_4.png,1.0,64,,,,,,,,,,,,,,,,,,0.0,3.0,3.0,3.0,1.0,,,,,,,,,,
1.0,1.0,0.576485,,,,,,orangutan_03s.jpg,1.0,clock_6_5.png,1.0,64,,,,,,,,,,,,,,,,,,0.0,4.0,4.0,4.0,1.0,,,,,,,,,,
0.0,1.0,0.62083,,,,,,jetski_10s.jpg,0.0,clock_6_6.png,1.0,64,,,,,,,,,,,,,,,,,,0.0,5.0,5.0,5.0,1.0,,,,,,,,,,
0.0,1.0,0.61,,,,,,hydrant_10s.jpg,0.0,clock_6_1.png,2.0,64,,,,,,,,,,,,,,,,,,0.0,6.0,6.0,6.0,1.0,,,,,,,,,,
0.0,1.0,0.921135,,,,,,dashboard_02s.jpg,0.0,clock_6_2.png,2.0,64,,,,,,,,,,,,,,,,,,0.0,7.0,7.0,7.0,1.0,,,,,,,,,,
0.0,1.0,0.65635,,,,,,timer_03s.jpg,0.0,clock_6_3.png,2.0,64,,,,,,,,,,,,,,,,,,0.0,8.0,8.0,8.0,1.0,,,,,,,,,,
0.0,1.0,0.731465,,,,,,lid_10s.jpg,0.0,clock_6_4.png,2.0,64,,,,,,,,,,,,,,,,,,0.0,9.0,9.0,9.0,1.0,,,,,,,,,,
1.0,1.0,0.71545,,,,,,hydrant_10s.jpg,1.0,clock_6_5.png,2.0,64,,,,,,,,,,,,,,,,,,0.0,10.0,10.0,10.0,1.0,,,,,,,,,,
0.0,1.0,0.61923,,,,,,roulette_wheel_04s.jpg,0.0,clock_6_6.png,2.0,64,,,,,,,,,,,,,,,,,,0.0,11.0,11.0,11.0,1.0,,,,,,,,,,
0.0,1.0,0.67086,,,,,,throne_11s.jpg,0.0,clock_5_1.png,3.0,64,,,,,,,,,,,,,,,,,,0.0,12.0,12.0,12.0,1.0,,,,,,,,,,
1.0,1.0,1.070345,,,,,,throne_11s.jpg,1.0,clock_5_2.png,3.0,64,,,,,,,,,,,,,,,,,,0.0,13.0,13.0,13.0,1.0,,,,,,,,,,
0.0,1.0,1.231615,,,,,,kitten_07s.jpg,0.0,clock_5_3.png,3.0,64,,,,,,,,,,,,,,,,,,0.0,14.0,14.0,14.0,1.0,,,,,,,,,,
0.0,1.0,0.6708,,,,,,fireworks_18s.jpg,0.0,clock_5_4.png,3.0,64,,,,,,,,,,,,,,,,,,0.0,15.0,15.0,15.0,1.0,,,,,,,,,,
0.0,1.0,0.618855,,,,,,coral_08s.jpg,0.0,clock_5_5.png,3.0,64,,,,,,,,,,,,,,,,,,0.0,16.0,16.0,16.0,1.0,,,,,,,,,,
0.0,1.0,0.68726,,,,,,eyedropper_12s.jpg,0.0,clock_7_1.png,4.0,64,,,,,,,,,,,,,,,,,,0.0,17.0,17.0,17.0,1.0,,,,,,,,,,
0.0,1.0,0.730775,,,,,,paintbrush_04s.jpg,0.0,clock_7_2.png,4.0,64,,,,,,,,,,,,,,,,,,0.0,18.0,18.0,18.0,1.0,,,,,,,,,,
0.0,1.0,0.738215,,,,,,submarine_11n.jpg,0.0,clock_7_3.png,4.0,64,,,,,,,,,,,,,,,,,,0.0,19.0,19.0,19.0,1.0,,,,,,,,,,
0.0,1.0,0.58611,,,,,,comic_book_02s.jpg,0.0,clock_7_4.png,4.0,64,,,,,,,,,,,,,,,,,,0.0,20.0,20.0,20.0,1.0,,,,,,,,,,
0.0,1.0,0.664415,,,,,,insole_11s.jpg,0.0,clock_7_5.png,4.0,64,,,,,,,,,,,,,,,,,,0.0,21.0,21.0,21.0,1.0,,,,,,,,,,
1.0,1.0,0.83204,,,,,,insole_11s.jpg,1.0,clock_7_6.png,4.0,64,,,,,,,,,,,,,,,,,,0.0,22.0,22.0,22.0,1.0,,,,,,,,,,
0.0,1.0,0.84165,,,,,,rhinoceros_02s.jpg,0.0,clock_7_7.png,4.0,64,,,,,,,,,,,,,,,,,,0.0,23.0,23.0,23.0,1.0,,,,,,,,,,
0.0,1.0,0.7318,,,,,,sleeping_bag_12s.jpg,0.0,clock_5_1.png,5.0,64,,,,,,,,,,,,,,,,,,0.0,24.0,24.0,24.0,1.0,,,,,,,,,,
0.0,1.0,0.592785,,,,,,outlet_10s.jpg,0.0,clock_5_2.png,5.0,64,,,,,,,,,,,,,,,,,,0.0,25.0,25.0,25.0,1.0,,,,,,,,,,
0.0,1.0,0.84839,,,,,,potpourri_03s.jpg,0.0,clock_5_3.png,5.0,64,,,,,,,,,,,,,,,,,,0.0,26.0,26.0,26.0,1.0,,,,,,,,,,
0.0,1.0,0.726,,,,,,stapler_01b.jpg,0.0,clock_5_4.png,5.0,64,,,,,,,,,,,,,,,,,,0.0,27.0,27.0,27.0,1.0,,,,,,,,,,
0.0,1.0,0.76878,,,,,,icicle_04s.jpg,0.0,clock_5_5.png,5.0,64,,,,,,,,,,,,,,,,,,0.0,28.0,28.0,28.0,1.0,,,,,,,,,,
0.0,1.0,0.674475,,,,,,teapot_03s.jpg,0.0,clock_7_1.png,6.0,64,,,,,,,,,,,,,,,,,,0.0,29.0,29.0,29.0,1.0,,,,,,,,,,
1.0,1.0,0.591465,,,,,,teapot_03s.jpg,1.0,clock_7_2.png,6.0,64,,,,,,,,,,,,,,,,,,0.0,30.0,30.0,30.0,1.0,,,,,,,,,,
1.0,1.0,0.482005,,,,,,teapot_03s.jpg,1.0,clock_7_3.png,6.0,64,,,,,,,,,,,,,,,,,,0.0,31.0,31.0,31.0,1.0,,,,,,,,,,
0.0,1.0,0.659505,,,,,,toilet_paper_12s.jpg,0.0,clock_7_4.png,6.0,64,,,,,,,,,,,,,,,,,,0.0,32.0,32.0,32.0,1.0,,,,,,,,,,
0.0,1.0,0.58622,,,,,,pretzel_09s.jpg,0.0,clock_7_5.png,6.0,64,,,,,,,,,,,,,,,,,,0.0,33.0,33.0,33.0,1.0,,,,,,,,,,
0.0,1.0,0.983705,,,,,,eggshell_14s.jpg,0.0,clock_7_6.png,6.0,64,,,,,,,,,,,,,,,,,,0.0,34.0,34.0,34.0,1.0,,,,,,,,,,
0.0,1.0,0.920405,,,,,,throne_11s.jpg,0.0,clock_7_7.png,6.0,64,,,,,,,,,,,,,,,,,,0.0,35.0,35.0,35.0,1.0,,,,,,,,,,
,,,,,,,,,0.0,,,64,0.0,1.0,1.33166,,,,,,paintbrush_04s.jpg,fireworks_18s.jpg,,,,,,,,,,,,,0.0,0.0,0.0,0.0,1.0,,,,,
,,,,,,,,,1.0,,,64,1.0,1.0,0.699575,,,,,,coral_08s.jpg,submarine_11n.jpg,,,,,,,,,,,,,0.0,1.0,1.0,1.0,1.0,,,,,
,,,,,,,,,1.0,,,64,1.0,1.0,0.699775,,,,,,jetski_10s.jpg,timer_03s.jpg,,,,,,,,,,,,,0.0,2.0,2.0,2.0,1.0,,,,,
,,,,,,,,,0.0,,,64,0.0,1.0,0.60219,,,,,,stapler_01b.jpg,sleeping_bag_12s.jpg,,,,,,,,,,,,,0.0,3.0,3.0,3.0,1.0,,,,,
,,,,,,,,,1.0,,,64,1.0,1.0,1.051015,,,,,,outlet_10s.jpg,icicle_04s.jpg,,,,,,,,,,,,,0.0,4.0,4.0,4.0,1.0,,,,,
,,,,,,,,,0.0,,,64,0.0,1.0,0.69038,,,,,,comic_book_02s.jpg,eyedropper_12s.jpg,,,,,,,,,,,,,0.0,5.0,5.0,5.0,1.0,,,,,
