key_resp.keys,key_resp.corr,key_resp.rt,present_segment.thisRepN,present_segment.thisTrialN,present_segment.thisN,present_segment.thisIndex,present_segment.ran,pictures,answer,clock,segment,participant,key_resp_2.keys,key_resp_2.corr,key_resp_2.rt,compare_segment.thisRepN,compare_segment.thisTrialN,compare_segment.thisN,compare_segment.thisIndex,compare_segment.ran,item_a,item_b,clock_conditions.thisRepN,clock_conditions.thisTrialN,clock_conditions.thisN,clock_conditions.thisIndex,clock_conditions.ran,present,compare,noclock_present.thisRepN,noclock_present.thisTrialN,noclock_present.thisN,noclock_present.thisIndex,noclock_present.ran,noclock_compare.thisRepN,noclock_compare.thisTrialN,noclock_compare.thisN,noclock_compare.thisIndex,noclock_compare.ran,noclock_conditions.thisRepN,noclock_conditions.thisTrialN,noclock_conditions.thisN,noclock_conditions.thisIndex,noclock_conditions.ran
0.0,1.0,1.071535,0.0,0.0,0.0,0.0,1.0,undershirt_02s.jpg,0.0,clock_5_1.png,1.0,13,,,,,,,,,,,,,,,,,,,,,,,,,,,,,,,,
0.0,1.0,1.088885,0.0,1.0,1.0,1.0,1.0,ladder_15s.jpg,0.0,clock_5_2.png,1.0,13,,,,,,,,,,,,,,,,,,,,,,,,,,,,,,,,
0.0,1.0,1.129975,0.0,2.0,2.0,2.0,1.0,lantern_04s.jpg,0.0,clock_5_3.png,1.0,13,,,,,,,,,,,,,,,,,,,,,,,,,,,,,,,,
0.0,1.0,0.80939,0.0,3.0,3.0,3.0,1.0,cap_05s.jpg,0.0,clock_5_4.png,1.0,13,,,,,,,,,,,,,,,,,,,,,,,,,,,,,,,,
0.0,1.0,0.63345,0.0,4.0,4.0,4.0,1.0,boar_10s.jpg,0.0,clock_5_5.png,1.0,13,,,,,,,,,,,,,,,,,,,,,,,,,,,,,,,,
0.0,1.0,0.92978,0.0,5.0,5.0,5.0,1.0,ring_03s.jpg,0.0,clock_7_1.png,2.0,13,,,,,,,,,,,,,,,,,,,,,,,,,,,,,,,,
0.0,1.0,0.588645,0.0,6.0,6.0,6.0,1.0,kimono_13s.jpg,0.0,clock_7_2.png,2.0,13,,,,,,,,,,,,,,,,,,,,,,,,,,,,,,,,
0.0,1.0,0.616685,0.0,7.0,7.0,7.0,1.0,pacifier_09s.jpg,0.0,clock_7_3.png,2.0,13,,,,,,,,,,,,,,,,,,,,,,,,,,,,,,,,
0.0,1.0,0.6673,0.0,8.0,8.0,8.0,1.0,cape_11s.jpg,0.0,clock_7_4.png,2.0,13,,,,,,,,,,,,,,,,,,,,,,,,,,,,,,,,
0.0,1.0,0.668155,0.0,9.0,9.0,9.0,1.0,spider_web_03s.jpg,0.0,clock_7_5.png,2.0,13,,,,,,,,,,,,,,,,,,,,,,,,,,,,,,,,
0.0,1.0,0.56848,0.0,10.0,10.0,10.0,1.0,pancake_12s.jpg,0.0,clock_7_6.png,2.0,13,,,,,,,,,,,,,,,,,,,,,,,,,,,,,,,,
1.0,1.0,1.1692,0.0,11.0,11.0,11.0,1.0,pancake_12s.jpg,1.0,clock_7_7.png,2.0,13,,,,,,,,,,,,,,,,,,,,,,,,,,,,,,,,
0.0,1.0,1.296905,0.0,12.0,12.0,12.0,1.0,tulip_02s.jpg,0.0,clock_6_1.png,3.0,13,,,,,,,,,,,,,,,,,,,,,,,,,,,,,,,,
0.0,1.0,0.83269,0.0,13.0,13.0,13.0,1.0,pacifier_09s.jpg,0.0,clock_6_2.png,3.0,13,,,,,,,,,,,,,,,,,,,,,,,,,,,,,,,,
0.0,1.0,0.752135,0.0,14.0,14.0,14.0,1.0,gas_mask_11s.jpg,0.0,clock_6_3.png,3.0,13,,,,,,,,,,,,,,,,,,,,,,,,,,,,,,,,
0.0,1.0,0.871465,0.0,15.0,15.0,15.0,1.0,torch_02s.jpg,0.0,clock_6_4.png,3.0,13,,,,,,,,,,,,,,,,,,,,,,,,,,,,,,,,
0.0,1.0,0.85555,0.0,16.0,16.0,16.0,1.0,powder_07s.jpg,0.0,clock_6_5.png,3.0,13,,,,,,,,,,,,,,,,,,,,,,,,,,,,,,,,
0.0,1.0,1.319615,0.0,17.0,17.0,17.0,1.0,lamppost_09s.jpg,0.0,clock_6_6.png,3.0,13,,,,,,,,,,,,,,,,,,,,,,,,,,,,,,,,
0.0,1.0,0.568165,0.0,18.0,18.0,18.0,1.0,rug_09s.jpg,0.0,clock_7_1.png,4.0,13,,,,,,,,,,,,,,,,,,,,,,,,,,,,,,,,
1.0,1.0,0.68159,0.0,19.0,19.0,19.0,1.0,rug_09s.jpg,1.0,clock_7_2.png,4.0,13,,,,,,,,,,,,,,,,,,,,,,,,,,,,,,,,
0.0,1.0,0.991565,0.0,20.0,20.0,20.0,1.0,pencil_sharpener_09n.jpg,0.0,clock_7_3.png,4.0,13,,,,,,,,,,,,,,,,,,,,,,,,,,,,,,,,
0.0,1.0,0.752055,0.0,21.0,21.0,21.0,1.0,trumpet_06s.jpg,0.0,clock_7_4.png,4.0,13,,,,,,,,,,,,,,,,,,,,,,,,,,,,,,,,
0.0,1.0,0.744015,0.0,22.0,22.0,22.0,1.0,typewriter_11s.jpg,0.0,clock_7_5.png,4.0,13,,,,,,,,,,,,,,,,,,,,,,,,,,,,,,,,
0.0,1.0,0.648035,0.0,23.0,23.0,23.0,1.0,swan_11s.jpg,0.0,clock_7_6.png,4.0,13,,,,,,,,,,,,,,,,,,,,,,,,,,,,,,,,
0.0,1.0,1.51495,0.0,24.0,24.0,24.0,1.0,torch_02s.jpg,0.0,clock_7_7.png,4.0,13,,,,,,,,,,,,,,,,,,,,,,,,,,,,,,,,
0.0,1.0,0.863965,0.0,25.0,25.0,25.0,1.0,submarine_11n.jpg,0.0,clock_6_1.png,5.0,13,,,,,,,,,,,,,,,,,,,,,,,,,,,,,,,,
0.0,1.0,0.590505,0.0,26.0,26.0,26.0,1.0,popcorn_09s.jpg,0.0,clock_6_2.png,5.0,13,,,,,,,,,,,,,,,,,,,,,,,,,,,,,,,,
0.0,1.0,0.926665,0.0,27.0,27.0,27.0,1.0,turnstile_08s.jpg,0.0,clock_6_3.png,5.0,13,,,,,,,,,,,,,,,,,,,,,,,,,,,,,,,,
0.0,1.0,0.606645,0.0,28.0,28.0,28.0,1.0,printer_09s.jpg,0.0,clock_6_4.png,5.0,13,,,,,,,,,,,,,,,,,,,,,,,,,,,,,,,,
0.0,1.0,0.582395,0.0,29.0,29.0,29.0,1.0,orange_12s.jpg,0.0,clock_6_5.png,5.0,13,,,,,,,,,,,,,,,,,,,,,,,,,,,,,,,,
1.0,1.0,1.014785,0.0,30.0,30.0,30.0,1.0,submarine_11n.jpg,1.0,clock_6_6.png,5.0,13,,,,,,,,,,,,,,,,,,,,,,,,,,,,,,,,
0.0,1.0,0.734045,0.0,31.0,31.0,31.0,1.0,red_carpet_03s.jpg,0.0,clock_5_1.png,6.0,13,,,,,,,,,,,,,,,,,,,,,,,,,,,,,,,,
0.0,1.0,1.18992,0.0,32.0,32.0,32.0,1.0,spider_web_03s.jpg,0.0,clock_5_2.png,6.0,13,,,,,,,,,,,,,,,,,,,,,,,,,,,,,,,,
0.0,1.0,0.57322,0.0,33.0,33.0,33.0,1.0,fireworks_18s.jpg,0.0,clock_5_3.png,6.0,13,,,,,,,,,,,,,,,,,,,,,,,,,,,,,,,,
0.0,1.0,1.907705,0.0,34.0,34.0,34.0,1.0,piano_13n.jpg,0.0,clock_5_4.png,6.0,13,,,,,,,,,,,,,,,,,,,,,,,,,,,,,,,,
0.0,1.0,0.87662,0.0,35.0,35.0,35.0,1.0,fondue_07s.jpg,0.0,clock_5_5.png,6.0,13,,,,,,,,,,,,,,,,,,,,,,,,,,,,,,,,
,,,,,,,,,1.0,,,13,1.0,1.0,2.835315,0.0,0.0,0.0,0.0,1.0,lantern_04s.jpg,ring_03s.jpg,,,,,,,,,,,,,,,,,,,,,,
,,,,,,,,,1.0,,,13,0.0,0.0,1.894075,0.0,1.0,1.0,1.0,1.0,cap_05s.jpg,kimono_13s.jpg,,,,,,,,,,,,,,,,,,,,,,
,,,,,,,,,0.0,,,13,0.0,1.0,2.50951,0.0,2.0,2.0,2.0,1.0,red_carpet_03s.jpg,printer_09s.jpg,,,,,,,,,,,,,,,,,,,,,,
,,,,,,,,,0.0,,,13,0.0,1.0,2.60389,0.0,3.0,3.0,3.0,1.0,boar_10s.jpg,ladder_15s.jpg,,,,,,,,,,,,,,,,,,,,,,
,,,,,,,,,0.0,,,13,1.0,0.0,2.249125,0.0,4.0,4.0,4.0,1.0,lamppost_09s.jpg,gas_mask_11s.jpg,,,,,,,,,,,,,,,,,,,,,,
,,,,,,,,,1.0,,,13,0.0,0.0,2.57744,0.0,5.0,5.0,5.0,1.0,popcorn_09s.jpg,orange_12s.jpg,,,,,,,,,,,,,,,,,,,,,,
,,,,,,,,,,,,13,,,,,,,,,,,0.0,0.0,0.0,0.0,1.0,clock_present_1_5.xlsx,clock_compare_task_1_5.xlsx,,,,,,,,,,,,,,,
0.0,1.0,1.09266,0.0,0.0,0.0,0.0,1.0,rhinoceros_02s.jpg,0.0,clock_5_1.png,1.0,13,,,,,,,,,,,,,,,,,,,,,,,,,,,,,,,,
0.0,1.0,0.903865,0.0,1.0,1.0,1.0,1.0,laundry_basket_11s.jpg,0.0,clock_5_2.png,1.0,13,,,,,,,,,,,,,,,,,,,,,,,,,,,,,,,,
1.0,1.0,0.88116,0.0,2.0,2.0,2.0,1.0,laundry_basket_11s.jpg,1.0,clock_5_3.png,1.0,13,,,,,,,,,,,,,,,,,,,,,,,,,,,,,,,,
0.0,1.0,0.85545,0.0,3.0,3.0,3.0,1.0,peeler_06s.jpg,0.0,clock_5_4.png,1.0,13,,,,,,,,,,,,,,,,,,,,,,,,,,,,,,,,
0.0,1.0,0.728855,0.0,4.0,4.0,4.0,1.0,pepper_mill_03s.jpg,0.0,clock_5_5.png,1.0,13,,,,,,,,,,,,,,,,,,,,,,,,,,,,,,,,
0.0,1.0,0.607305,0.0,5.0,5.0,5.0,1.0,eiffeltower.jpg,0.0,clock_7_1.png,2.0,13,,,,,,,,,,,,,,,,,,,,,,,,,,,,,,,,
1.0,1.0,0.698615,0.0,6.0,6.0,6.0,1.0,eiffeltower.jpg,1.0,clock_7_2.png,2.0,13,,,,,,,,,,,,,,,,,,,,,,,,,,,,,,,,
0.0,1.0,0.51393,0.0,7.0,7.0,7.0,1.0,blender_08s.jpg,0.0,clock_7_3.png,2.0,13,,,,,,,,,,,,,,,,,,,,,,,,,,,,,,,,
0.0,1.0,0.75915,0.0,8.0,8.0,8.0,1.0,treasure_08s.jpg,0.0,clock_7_4.png,2.0,13,,,,,,,,,,,,,,,,,,,,,,,,,,,,,,,,
1.0,1.0,1.471525,0.0,9.0,9.0,9.0,1.0,eiffeltower.jpg,1.0,clock_7_5.png,2.0,13,,,,,,,,,,,,,,,,,,,,,,,,,,,,,,,,
0.0,1.0,0.83885,0.0,10.0,10.0,10.0,1.0,lamb_04s.jpg,0.0,clock_7_6.png,2.0,13,,,,,,,,,,,,,,,,,,,,,,,,,,,,,,,,
1.0,1.0,0.926705,0.0,11.0,11.0,11.0,1.0,blender_08s.jpg,1.0,clock_7_7.png,2.0,13,,,,,,,,,,,,,,,,,,,,,,,,,,,,,,,,
0.0,1.0,0.863815,0.0,12.0,12.0,12.0,1.0,outlet_10s.jpg,0.0,clock_6_1.png,3.0,13,,,,,,,,,,,,,,,,,,,,,,,,,,,,,,,,
0.0,1.0,0.709695,0.0,13.0,13.0,13.0,1.0,mixer_12s.jpg,0.0,clock_6_2.png,3.0,13,,,,,,,,,,,,,,,,,,,,,,,,,,,,,,,,
0.0,1.0,0.76561,0.0,14.0,14.0,14.0,1.0,toilet_07s.jpg,0.0,clock_6_3.png,3.0,13,,,,,,,,,,,,,,,,,,,,,,,,,,,,,,,,
0.0,1.0,0.66965,0.0,15.0,15.0,15.0,1.0,keyboard_05s.jpg,0.0,clock_6_4.png,3.0,13,,,,,,,,,,,,,,,,,,,,,,,,,,,,,,,,
1.0,1.0,1.02223,0.0,16.0,16.0,16.0,1.0,toilet_07s.jpg,1.0,clock_6_5.png,3.0,13,,,,,,,,,,,,,,,,,,,,,,,,,,,,,,,,
0.0,1.0,0.806,0.0,17.0,17.0,17.0,1.0,air_pump_05s.jpg,0.0,clock_6_6.png,3.0,13,,,,,,,,,,,,,,,,,,,,,,,,,,,,,,,,
0.0,1.0,0.86374,0.0,18.0,18.0,18.0,1.0,limousine_12s.jpg,0.0,clock_7_1.png,4.0,13,,,,,,,,,,,,,,,,,,,,,,,,,,,,,,,,
1.0,1.0,0.74891,0.0,19.0,19.0,19.0,1.0,limousine_12s.jpg,1.0,clock_7_2.png,4.0,13,,,,,,,,,,,,,,,,,,,,,,,,,,,,,,,,
0.0,1.0,0.64688,0.0,20.0,20.0,20.0,1.0,rope_16s.jpg,0.0,clock_7_3.png,4.0,13,,,,,,,,,,,,,,,,,,,,,,,,,,,,,,,,
0.0,1.0,0.86862,0.0,21.0,21.0,21.0,1.0,omelet_07s.jpg,0.0,clock_7_4.png,4.0,13,,,,,,,,,,,,,,,,,,,,,,,,,,,,,,,,
0.0,1.0,0.668805,0.0,22.0,22.0,22.0,1.0,jigsaw_puzzle_11s.jpg,0.0,clock_7_5.png,4.0,13,,,,,,,,,,,,,,,,,,,,,,,,,,,,,,,,
0.0,1.0,0.69997,0.0,23.0,23.0,23.0,1.0,taxi_15s.jpg,0.0,clock_7_6.png,4.0,13,,,,,,,,,,,,,,,,,,,,,,,,,,,,,,,,
0.0,1.0,0.74031,0.0,24.0,24.0,24.0,1.0,puck_06s.jpg,0.0,clock_7_7.png,4.0,13,,,,,,,,,,,,,,,,,,,,,,,,,,,,,,,,
0.0,1.0,0.907725,0.0,25.0,25.0,25.0,1.0,tube_top_03s.jpg,0.0,clock_5_1.png,5.0,13,,,,,,,,,,,,,,,,,,,,,,,,,,,,,,,,
0.0,1.0,0.635575,0.0,26.0,26.0,26.0,1.0,exhaust_pipe_10s.jpg,0.0,clock_5_2.png,5.0,13,,,,,,,,,,,,,,,,,,,,,,,,,,,,,,,,
0.0,1.0,0.629815,0.0,27.0,27.0,27.0,1.0,polar_bear_02s.jpg,0.0,clock_5_3.png,5.0,13,,,,,,,,,,,,,,,,,,,,,,,,,,,,,,,,
0.0,1.0,0.56372,0.0,28.0,28.0,28.0,1.0,pillow_03s.jpg,0.0,clock_5_4.png,5.0,13,,,,,,,,,,,,,,,,,,,,,,,,,,,,,,,,
0.0,1.0,0.69932,0.0,29.0,29.0,29.0,1.0,harpoon.jpg,0.0,clock_5_5.png,5.0,13,,,,,,,,,,,,,,,,,,,,,,,,,,,,,,,,
0.0,1.0,0.68266,0.0,30.0,30.0,30.0,1.0,turkey_10s.jpg,0.0,clock_6_1.png,6.0,13,,,,,,,,,,,,,,,,,,,,,,,,,,,,,,,,
0.0,1.0,0.723385,0.0,31.0,31.0,31.0,1.0,thermostat_02s.jpg,0.0,clock_6_2.png,6.0,13,,,,,,,,,,,,,,,,,,,,,,,,,,,,,,,,
0.0,1.0,0.580995,0.0,32.0,32.0,32.0,1.0,chopsticks_08s.jpg,0.0,clock_6_3.png,6.0,13,,,,,,,,,,,,,,,,,,,,,,,,,,,,,,,,
0.0,1.0,0.62638,0.0,33.0,33.0,33.0,1.0,tab_09s.jpg,0.0,clock_6_4.png,6.0,13,,,,,,,,,,,,,,,,,,,,,,,,,,,,,,,,
0.0,1.0,0.538755,0.0,34.0,34.0,34.0,1.0,breadstick_08s.jpg,0.0,clock_6_5.png,6.0,13,,,,,,,,,,,,,,,,,,,,,,,,,,,,,,,,
0.0,1.0,0.650645,0.0,35.0,35.0,35.0,1.0,rhinoceros_02s.jpg,0.0,clock_6_6.png,6.0,13,,,,,,,,,,,,,,,,,,,,,,,,,,,,,,,,
,,,,,,,,,0.0,,,13,0.0,1.0,3.18296,0.0,0.0,0.0,0.0,1.0,mixer_12s.jpg,lamb_04s.jpg,,,,,,,,,,,,,,,,,,,,,,
,,,,,,,,,0.0,,,13,1.0,0.0,2.630865,0.0,1.0,1.0,1.0,1.0,rope_16s.jpg,air_pump_05s.jpg,,,,,,,,,,,,,,,,,,,,,,
,,,,,,,,,1.0,,,13,0.0,0.0,1.45548,0.0,2.0,2.0,2.0,1.0,jigsaw_puzzle_11s.jpg,tube_top_03s.jpg,,,,,,,,,,,,,,,,,,,,,,
,,,,,,,,,1.0,,,13,1.0,1.0,1.73778,0.0,3.0,3.0,3.0,1.0,outlet_10s.jpg,keyboard_05s.jpg,,,,,,,,,,,,,,,,,,,,,,
,,,,,,,,,0.0,,,13,0.0,1.0,1.158745,0.0,4.0,4.0,4.0,1.0,puck_06s.jpg,omelet_07s.jpg,,,,,,,,,,,,,,,,,,,,,,
,,,,,,,,,1.0,,,13,0.0,0.0,1.244745,0.0,5.0,5.0,5.0,1.0,turkey_10s.jpg,tab_09s.jpg,,,,,,,,,,,,,,,,,,,,,,
,,,,,,,,,,,,13,,,,,,,,,,,0.0,1.0,1.0,1.0,1.0,clock_present_2_5.xlsx,clock_compare_task_2_5.xlsx,,,,,,,,,,,,,,,
0.0,1.0,0.784065,0.0,0.0,0.0,0.0,1.0,pumpkin_03s.jpg,0.0,clock_7_1.png,1.0,13,,,,,,,,,,,,,,,,,,,,,,,,,,,,,,,,
0.0,1.0,0.98508,0.0,1.0,1.0,1.0,1.0,bottle_opener_11s.jpg,0.0,clock_7_2.png,1.0,13,,,,,,,,,,,,,,,,,,,,,,,,,,,,,,,,
0.0,1.0,0.59229,0.0,2.0,2.0,2.0,1.0,tupperware_09s.jpg,0.0,clock_7_3.png,1.0,13,,,,,,,,,,,,,,,,,,,,,,,,,,,,,,,,
0.0,1.0,0.57656,0.0,3.0,3.0,3.0,1.0,mango_09s.jpg,0.0,clock_7_4.png,1.0,13,,,,,,,,,,,,,,,,,,,,,,,,,,,,,,,,
0.0,1.0,0.568905,0.0,4.0,4.0,4.0,1.0,marker_05s.jpg,0.0,clock_7_5.png,1.0,13,,,,,,,,,,,,,,,,,,,,,,,,,,,,,,,,
0.0,1.0,0.58493,0.0,5.0,5.0,5.0,1.0,bean_06s.jpg,0.0,clock_7_6.png,1.0,13,,,,,,,,,,,,,,,,,,,,,,,,,,,,,,,,
0.0,1.0,0.88041,0.0,6.0,6.0,6.0,1.0,pear_02s.jpg,0.0,clock_7_7.png,1.0,13,,,,,,,,,,,,,,,,,,,,,,,,,,,,,,,,
0.0,1.0,0.57542,0.0,7.0,7.0,7.0,1.0,clover_04s.jpg,0.0,clock_5_1.png,2.0,13,,,,,,,,,,,,,,,,,,,,,,,,,,,,,,,,
0.0,1.0,0.720145,0.0,8.0,8.0,8.0,1.0,perfume_06s.jpg,0.0,clock_5_2.png,2.0,13,,,,,,,,,,,,,,,,,,,,,,,,,,,,,,,,
0.0,1.0,0.6401,0.0,9.0,9.0,9.0,1.0,spacesuit_02s.jpg,0.0,clock_5_3.png,2.0,13,,,,,,,,,,,,,,,,,,,,,,,,,,,,,,,,
0.0,1.0,0.775465,0.0,10.0,10.0,10.0,1.0,recliner_02s.jpg,0.0,clock_5_4.png,2.0,13,,,,,,,,,,,,,,,,,,,,,,,,,,,,,,,,
0.0,1.0,0.759385,0.0,11.0,11.0,11.0,1.0,hyena_16s.jpg,0.0,clock_5_5.png,2.0,13,,,,,,,,,,,,,,,,,,,,,,,,,,,,,,,,
0.0,1.0,0.774915,0.0,12.0,12.0,12.0,1.0,bolo_tie_08s.jpg,0.0,clock_7_1.png,3.0,13,,,,,,,,,,,,,,,,,,,,,,,,,,,,,,,,
0.0,1.0,0.558335,0.0,13.0,13.0,13.0,1.0,plaster_cast_13s.jpg,0.0,clock_7_2.png,3.0,13,,,,,,,,,,,,,,,,,,,,,,,,,,,,,,,,
0.0,1.0,0.56643,0.0,14.0,14.0,14.0,1.0,badge_03s.jpg,0.0,clock_7_3.png,3.0,13,,,,,,,,,,,,,,,,,,,,,,,,,,,,,,,,
0.0,1.0,0.574105,0.0,15.0,15.0,15.0,1.0,swordfish_05s.jpg,0.0,clock_7_4.png,3.0,13,,,,,,,,,,,,,,,,,,,,,,,,,,,,,,,,
0.0,1.0,1.13531,0.0,16.0,16.0,16.0,1.0,perfume_06s.jpg,0.0,clock_7_5.png,3.0,13,,,,,,,,,,,,,,,,,,,,,,,,,,,,,,,,
0.0,1.0,0.7684,0.0,17.0,17.0,17.0,1.0,pear_02s.jpg,0.0,clock_7_6.png,3.0,13,,,,,,,,,,,,,,,,,,,,,,,,,,,,,,,,
0.0,1.0,0.64705,0.0,18.0,18.0,18.0,1.0,quill_09s.jpg,0.0,clock_7_7.png,3.0,13,,,,,,,,,,,,,,,,,,,,,,,,,,,,,,,,
0.0,1.0,0.68011,0.0,19.0,19.0,19.0,1.0,mop_08s.jpg,0.0,clock_6_1.png,4.0,13,,,,,,,,,,,,,,,,,,,,,,,,,,,,,,,,
0.0,1.0,0.43132,0.0,20.0,20.0,20.0,1.0,plaster_cast_13s.jpg,0.0,clock_6_2.png,4.0,13,,,,,,,,,,,,,,,,,,,,,,,,,,,,,,,,
0.0,1.0,0.517445,0.0,21.0,21.0,21.0,1.0,parachute_03s.jpg,0.0,clock_6_3.png,4.0,13,,,,,,,,,,,,,,,,,,,,,,,,,,,,,,,,
0.0,1.0,0.662595,0.0,22.0,22.0,22.0,1.0,inhaler_01b.jpg,0.0,clock_6_4.png,4.0,13,,,,,,,,,,,,,,,,,,,,,,,,,,,,,,,,
0.0,1.0,0.540915,0.0,23.0,23.0,23.0,1.0,diving_board_07s.jpg,0.0,clock_6_5.png,4.0,13,,,,,,,,,,,,,,,,,,,,,,,,,,,,,,,,
0.0,1.0,0.58109,0.0,24.0,24.0,24.0,1.0,lion_18s.jpg,0.0,clock_6_6.png,4.0,13,,,,,,,,,,,,,,,,,,,,,,,,,,,,,,,,
0.0,1.0,0.58909,0.0,25.0,25.0,25.0,1.0,onion_10s.jpg,0.0,clock_6_1.png,5.0,13,,,,,,,,,,,,,,,,,,,,,,,,,,,,,,,,
0.0,1.0,0.67601,0.0,26.0,26.0,26.0,1.0,throne_11s.jpg,0.0,clock_6_2.png,5.0,13,,,,,,,,,,,,,,,,,,,,,,,,,,,,,,,,
0.0,1.0,0.708465,0.0,27.0,27.0,27.0,1.0,quad_04s.jpg,0.0,clock_6_3.png,5.0,13,,,,,,,,,,,,,,,,,,,,,,,,,,,,,,,,
0.0,1.0,0.45959,0.0,28.0,28.0,28.0,1.0,roulette_wheel_04s.jpg,0.0,clock_6_4.png,5.0,13,,,,,,,,,,,,,,,,,,,,,,,,,,,,,,,,
0.0,1.0,0.54002,0.0,29.0,29.0,29.0,1.0,puppy_08s.jpg,0.0,clock_6_5.png,5.0,13,,,,,,,,,,,,,,,,,,,,,,,,,,,,,,,,
0.0,1.0,0.699065,0.0,30.0,30.0,30.0,1.0,thorn_13s.jpg,0.0,clock_6_6.png,5.0,13,,,,,,,,,,,,,,,,,,,,,,,,,,,,,,,,
0.0,1.0,0.59676,0.0,31.0,31.0,31.0,1.0,mirror_12s.jpg,0.0,clock_5_1.png,6.0,13,,,,,,,,,,,,,,,,,,,,,,,,,,,,,,,,
0.0,1.0,0.830355,0.0,32.0,32.0,32.0,1.0,police_car_01s.jpg,0.0,clock_5_2.png,6.0,13,,,,,,,,,,,,,,,,,,,,,,,,,,,,,,,,
1.0,1.0,0.997875,0.0,33.0,33.0,33.0,1.0,mirror_12s.jpg,1.0,clock_5_3.png,6.0,13,,,,,,,,,,,,,,,,,,,,,,,,,,,,,,,,
0.0,1.0,0.650995,0.0,34.0,34.0,34.0,1.0,rooster_03s.jpg,0.0,clock_5_4.png,6.0,13,,,,,,,,,,,,,,,,,,,,,,,,,,,,,,,,
0.0,1.0,0.56389,0.0,35.0,35.0,35.0,1.0,trampoline_13s.jpg,0.0,clock_5_5.png,6.0,13,,,,,,,,,,,,,,,,,,,,,,,,,,,,,,,,
,,,,,,,,,0.0,,,13,0.0,1.0,1.60367,0.0,0.0,0.0,0.0,1.0,badge_03s.jpg,hyena_16s.jpg,,,,,,,,,,,,,,,,,,,,,,
,,,,,,,,,1.0,,,13,1.0,1.0,1.7667,0.0,1.0,1.0,1.0,1.0,spacesuit_02s.jpg,bolo_tie_08s.jpg,,,,,,,,,,,,,,,,,,,,,,
,,,,,,,,,0.0,,,13,0.0,1.0,1.394745,0.0,2.0,2.0,2.0,1.0,throne_11s.jpg,diving_board_07s.jpg,,,,,,,,,,,,,,,,,,,,,,
,,,,,,,,,0.0,,,13,0.0,1.0,1.636815,0.0,3.0,3.0,3.0,1.0,mango_09s.jpg,pumpkin_03s.jpg,,,,,,,,,,,,,,,,,,,,,,
,,,,,,,,,1.0,,,13,0.0,0.0,2.97602,0.0,4.0,4.0,4.0,1.0,tupperware_09s.jpg,bean_06s.jpg,,,,,,,,,,,,,,,,,,,,,,
,,,,,,,,,1.0,,,13,0.0,0.0,1.242065,0.0,5.0,5.0,5.0,1.0,bottle_opener_11s.jpg,marker_05s.jpg,,,,,,,,,,,,,,,,,,,,,,
,,,,,,,,,,,,13,,,,,,,,,,,0.0,2.0,2.0,2.0,1.0,clock_present_3_5.xlsx,clock_compare_task_3_5.xlsx,,,,,,,,,,,,,,,
0.0,1.0,1.41402,0.0,0.0,0.0,0.0,1.0,ginger_09s.jpg,0.0,clock_6_1.png,1.0,13,,,,,,,,,,,,,,,,,,,,,,,,,,,,,,,,
0.0,1.0,0.46364,0.0,1.0,1.0,1.0,1.0,letter_opener_03s.jpg,0.0,clock_6_2.png,1.0,13,,,,,,,,,,,,,,,,,,,,,,,,,,,,,,,,
0.0,1.0,0.463545,0.0,2.0,2.0,2.0,1.0,loveseat_08s.jpg,0.0,clock_6_3.png,1.0,13,,,,,,,,,,,,,,,,,,,,,,,,,,,,,,,,
1.0,1.0,0.936595,0.0,3.0,3.0,3.0,1.0,letter_opener_03s.jpg,1.0,clock_6_4.png,1.0,13,,,,,,,,,,,,,,,,,,,,,,,,,,,,,,,,
1.0,1.0,0.993055,0.0,4.0,4.0,4.0,1.0,loveseat_08s.jpg,1.0,clock_6_5.png,1.0,13,,,,,,,,,,,,,,,,,,,,,,,,,,,,,,,,
0.0,1.0,0.82422,0.0,5.0,5.0,5.0,1.0,towel_rack_04s.jpg,0.0,clock_6_6.png,1.0,13,,,,,,,,,,,,,,,,,,,,,,,,,,,,,,,,
0.0,1.0,0.79217,0.0,6.0,6.0,6.0,1.0,rollerskate_03s.jpg,0.0,clock_5_1.png,2.0,13,,,,,,,,,,,,,,,,,,,,,,,,,,,,,,,,
0.0,1.0,0.824275,0.0,7.0,7.0,7.0,1.0,puddle_02s.jpg,0.0,clock_5_2.png,2.0,13,,,,,,,,,,,,,,,,,,,,,,,,,,,,,,,,
1.0,1.0,1.065235,0.0,8.0,8.0,8.0,1.0,rollerskate_03s.jpg,1.0,clock_5_3.png,2.0,13,,,,,,,,,,,,,,,,,,,,,,,,,,,,,,,,
0.0,1.0,0.648055,0.0,9.0,9.0,9.0,1.0,dirt_bike_11s.jpg,0.0,clock_5_4.png,2.0,13,,,,,,,,,,,,,,,,,,,,,,,,,,,,,,,,
0.0,1.0,0.623915,0.0,10.0,10.0,10.0,1.0,prism_10s.jpg,0.0,clock_5_5.png,2.0,13,,,,,,,,,,,,,,,,,,,,,,,,,,,,,,,,
0.0,1.0,0.535115,0.0,11.0,11.0,11.0,1.0,kayak_08s.jpg,0.0,clock_7_1.png,3.0,13,,,,,,,,,,,,,,,,,,,,,,,,,,,,,,,,
0.0,1.0,0.60704,0.0,12.0,12.0,12.0,1.0,rock_08s.jpg,0.0,clock_7_2.png,3.0,13,,,,,,,,,,,,,,,,,,,,,,,,,,,,,,,,
0.0,1.0,0.54334,0.0,13.0,13.0,13.0,1.0,tile_08s.jpg,0.0,clock_7_3.png,3.0,13,,,,,,,,,,,,,,,,,,,,,,,,,,,,,,,,
0.0,1.0,0.82324,0.0,14.0,14.0,14.0,1.0,dirt_bike_11s.jpg,0.0,clock_7_4.png,3.0,13,,,,,,,,,,,,,,,,,,,,,,,,,,,,,,,,
0.0,1.0,0.7832,0.0,15.0,15.0,15.0,1.0,ginger_09s.jpg,0.0,clock_7_5.png,3.0,13,,,,,,,,,,,,,,,,,,,,,,,,,,,,,,,,
1.0,1.0,0.76687,0.0,16.0,16.0,16.0,1.0,tile_08s.jpg,1.0,clock_7_6.png,3.0,13,,,,,,,,,,,,,,,,,,,,,,,,,,,,,,,,
0.0,1.0,0.647155,0.0,17.0,17.0,17.0,1.0,camcorder_10s.jpg,0.0,clock_7_7.png,3.0,13,,,,,,,,,,,,,,,,,,,,,,,,,,,,,,,,
0.0,1.0,0.89731,0.0,18.0,18.0,18.0,1.0,jet_15s.jpg,0.0,clock_6_1.png,4.0,13,,,,,,,,,,,,,,,,,,,,,,,,,,,,,,,,
1.0,1.0,0.79046,0.0,19.0,19.0,19.0,1.0,jet_15s.jpg,1.0,clock_6_2.png,4.0,13,,,,,,,,,,,,,,,,,,,,,,,,,,,,,,,,
0.0,1.0,0.4936,0.0,20.0,20.0,20.0,1.0,kitten_07s.jpg,0.0,clock_6_3.png,4.0,13,,,,,,,,,,,,,,,,,,,,,,,,,,,,,,,,
1.0,1.0,0.94214,0.0,21.0,21.0,21.0,1.0,jet_15s.jpg,1.0,clock_6_4.png,4.0,13,,,,,,,,,,,,,,,,,,,,,,,,,,,,,,,,
0.0,1.0,0.630885,0.0,22.0,22.0,22.0,1.0,chime_12s.jpg,0.0,clock_6_5.png,4.0,13,,,,,,,,,,,,,,,,,,,,,,,,,,,,,,,,
0.0,1.0,0.700945,0.0,23.0,23.0,23.0,1.0,eggshell_14s.jpg,0.0,clock_6_6.png,4.0,13,,,,,,,,,,,,,,,,,,,,,,,,,,,,,,,,
0.0,1.0,0.91842,0.0,24.0,24.0,24.0,1.0,luggage_08s.jpg,0.0,clock_7_1.png,5.0,13,,,,,,,,,,,,,,,,,,,,,,,,,,,,,,,,
0.0,1.0,0.732015,0.0,25.0,25.0,25.0,1.0,mascara_03s.jpg,0.0,clock_7_2.png,5.0,13,,,,,,,,,,,,,,,,,,,,,,,,,,,,,,,,
0.0,1.0,0.631215,0.0,26.0,26.0,26.0,1.0,cotton_candy_01b.jpg,0.0,clock_7_3.png,5.0,13,,,,,,,,,,,,,,,,,,,,,,,,,,,,,,,,
0.0,1.0,0.72478,0.0,27.0,27.0,27.0,1.0,ruby_15s.jpg,0.0,clock_7_4.png,5.0,13,,,,,,,,,,,,,,,,,,,,,,,,,,,,,,,,
0.0,1.0,0.9089,0.0,28.0,28.0,28.0,1.0,razor_blade_01b.jpg,0.0,clock_7_5.png,5.0,13,,,,,,,,,,,,,,,,,,,,,,,,,,,,,,,,
0.0,1.0,0.63554,0.0,29.0,29.0,29.0,1.0,hydrant_10s.jpg,0.0,clock_7_6.png,5.0,13,,,,,,,,,,,,,,,,,,,,,,,,,,,,,,,,
0.0,1.0,0.635875,0.0,30.0,30.0,30.0,1.0,mushroom_10n.jpg,0.0,clock_7_7.png,5.0,13,,,,,,,,,,,,,,,,,,,,,,,,,,,,,,,,
0.0,1.0,0.691825,0.0,31.0,31.0,31.0,1.0,turtle_08s.jpg,0.0,clock_5_1.png,6.0,13,,,,,,,,,,,,,,,,,,,,,,,,,,,,,,,,
0.0,1.0,0.60404,0.0,32.0,32.0,32.0,1.0,sparkler_02s.jpg,0.0,clock_5_2.png,6.0,13,,,,,,,,,,,,,,,,,,,,,,,,,,,,,,,,
0.0,1.0,0.55566,0.0,33.0,33.0,33.0,1.0,tambourine_06s.jpg,0.0,clock_5_3.png,6.0,13,,,,,,,,,,,,,,,,,,,,,,,,,,,,,,,,
0.0,1.0,0.68404,0.0,34.0,34.0,34.0,1.0,lavender_10s.jpg,0.0,clock_5_4.png,6.0,13,,,,,,,,,,,,,,,,,,,,,,,,,,,,,,,,
1.0,1.0,0.73981,0.0,35.0,35.0,35.0,1.0,lavender_10s.jpg,1.0,clock_5_5.png,6.0,13,,,,,,,,,,,,,,,,,,,,,,,,,,,,,,,,
,,,,,,,,,0.0,,,13,0.0,1.0,3.44672,0.0,0.0,0.0,0.0,1.0,kitten_07s.jpg,camcorder_10s.jpg,,,,,,,,,,,,,,,,,,,,,,
,,,,,,,,,0.0,,,13,0.0,1.0,1.984115,0.0,1.0,1.0,1.0,1.0,mascara_03s.jpg,chime_12s.jpg,,,,,,,,,,,,,,,,,,,,,,
,,,,,,,,,0.0,,,13,0.0,1.0,1.12345,0.0,2.0,2.0,2.0,1.0,turtle_08s.jpg,razor_blade_01b.jpg,,,,,,,,,,,,,,,,,,,,,,
,,,,,,,,,1.0,,,13,1.0,1.0,2.348965,0.0,3.0,3.0,3.0,1.0,puddle_02s.jpg,prism_10s.jpg,,,,,,,,,,,,,,,,,,,,,,
,,,,,,,,,0.0,,,13,0.0,1.0,1.335175,0.0,4.0,4.0,4.0,1.0,ruby_15s.jpg,luggage_08s.jpg,,,,,,,,,,,,,,,,,,,,,,
,,,,,,,,,1.0,,,13,0.0,0.0,1.232265,0.0,5.0,5.0,5.0,1.0,cotton_candy_01b.jpg,hydrant_10s.jpg,,,,,,,,,,,,,,,,,,,,,,
,,,,,,,,,,,,13,,,,,,,,,,,0.0,3.0,3.0,3.0,1.0,clock_present_4_5.xlsx,clock_compare_task_4_5.xlsx,,,,,,,,,,,,,,,
0.0,1.0,0.96356,0.0,0.0,0.0,0.0,1.0,marshmallow_08s.jpg,0.0,clock_5_1.png,1.0,13,,,,,,,,,,,,,,,,,,,,,,,,,,,,,,,,
0.0,1.0,0.419355,0.0,1.0,1.0,1.0,1.0,coat_rack_01b.jpg,0.0,clock_5_2.png,1.0,13,,,,,,,,,,,,,,,,,,,,,,,,,,,,,,,,
0.0,1.0,0.61389,0.0,2.0,2.0,2.0,1.0,coral_08s.jpg,0.0,clock_5_3.png,1.0,13,,,,,,,,,,,,,,,,,,,,,,,,,,,,,,,,
0.0,1.0,0.49184,0.0,3.0,3.0,3.0,1.0,fox_13s.jpg,0.0,clock_5_4.png,1.0,13,,,,,,,,,,,,,,,,,,,,,,,,,,,,,,,,
0.0,1.0,0.73087,0.0,4.0,4.0,4.0,1.0,stethoscope_01b.jpg,0.0,clock_5_5.png,1.0,13,,,,,,,,,,,,,,,,,,,,,,,,,,,,,,,,
0.0,1.0,0.539365,0.0,5.0,5.0,5.0,1.0,moth_06n.jpg,0.0,clock_6_1.png,2.0,13,,,,,,,,,,,,,,,,,,,,,,,,,,,,,,,,
0.0,1.0,0.52223,0.0,6.0,6.0,6.0,1.0,licorice_06s.jpg,0.0,clock_6_2.png,2.0,13,,,,,,,,,,,,,,,,,,,,,,,,,,,,,,,,
0.0,1.0,0.83477,0.0,7.0,7.0,7.0,1.0,sleeping_bag_12s.jpg,0.0,clock_6_3.png,2.0,13,,,,,,,,,,,,,,,,,,,,,,,,,,,,,,,,
0.0,1.0,0.633855,0.0,8.0,8.0,8.0,1.0,treadmill_06s.jpg,0.0,clock_6_4.png,2.0,13,,,,,,,,,,,,,,,,,,,,,,,,,,,,,,,,
0.0,1.0,0.642295,0.0,9.0,9.0,9.0,1.0,bathtub_23s.jpg,0.0,clock_6_5.png,2.0,13,,,,,,,,,,,,,,,,,,,,,,,,,,,,,,,,
0.0,1.0,0.75417,0.0,10.0,10.0,10.0,1.0,film_03s.jpg,0.0,clock_6_6.png,2.0,13,,,,,,,,,,,,,,,,,,,,,,,,,,,,,,,,
0.0,1.0,0.580585,0.0,11.0,11.0,11.0,1.0,trident_07s.jpg,0.0,clock_7_1.png,3.0,13,,,,,,,,,,,,,,,,,,,,,,,,,,,,,,,,
0.0,1.0,0.505795,0.0,12.0,12.0,12.0,1.0,coffee_filter_10s.jpg,0.0,clock_7_2.png,3.0,13,,,,,,,,,,,,,,,,,,,,,,,,,,,,,,,,
0.0,1.0,0.458255,0.0,13.0,13.0,13.0,1.0,mud_13s.jpg,0.0,clock_7_3.png,3.0,13,,,,,,,,,,,,,,,,,,,,,,,,,,,,,,,,
0.0,1.0,0.529915,0.0,14.0,14.0,14.0,1.0,fire_alarm_05s.jpg,0.0,clock_7_4.png,3.0,13,,,,,,,,,,,,,,,,,,,,,,,,,,,,,,,,
1.0,1.0,1.14662,0.0,15.0,15.0,15.0,1.0,mud_13s.jpg,1.0,clock_7_5.png,3.0,13,,,,,,,,,,,,,,,,,,,,,,,,,,,,,,,,
0.0,1.0,0.545495,0.0,16.0,16.0,16.0,1.0,timer_03s.jpg,0.0,clock_7_6.png,3.0,13,,,,,,,,,,,,,,,,,,,,,,,,,,,,,,,,
0.0,1.0,0.537035,0.0,17.0,17.0,17.0,1.0,pea_11s.jpg,0.0,clock_7_7.png,3.0,13,,,,,,,,,,,,,,,,,,,,,,,,,,,,,,,,
0.0,1.0,0.59252,0.0,18.0,18.0,18.0,1.0,flask_04s.jpg,0.0,clock_5_1.png,4.0,13,,,,,,,,,,,,,,,,,,,,,,,,,,,,,,,,
0.0,1.0,0.5293,0.0,19.0,19.0,19.0,1.0,iron_13s.jpg,0.0,clock_5_2.png,4.0,13,,,,,,,,,,,,,,,,,,,,,,,,,,,,,,,,
0.0,1.0,0.746445,0.0,20.0,20.0,20.0,1.0,trident_07s.jpg,0.0,clock_5_3.png,4.0,13,,,,,,,,,,,,,,,,,,,,,,,,,,,,,,,,
0.0,1.0,0.615935,0.0,21.0,21.0,21.0,1.0,memory_stick_11s.jpg,0.0,clock_5_4.png,4.0,13,,,,,,,,,,,,,,,,,,,,,,,,,,,,,,,,
0.0,1.0,0.935895,0.0,22.0,22.0,22.0,1.0,oil_02s.jpg,0.0,clock_5_5.png,4.0,13,,,,,,,,,,,,,,,,,,,,,,,,,,,,,,,,
0.0,1.0,0.766505,0.0,23.0,23.0,23.0,1.0,coconut_08s.jpg,0.0,clock_7_1.png,5.0,13,,,,,,,,,,,,,,,,,,,,,,,,,,,,,,,,
1.0,1.0,0.729405,0.0,24.0,24.0,24.0,1.0,coconut_08s.jpg,1.0,clock_7_2.png,5.0,13,,,,,,,,,,,,,,,,,,,,,,,,,,,,,,,,
0.0,1.0,0.503635,0.0,25.0,25.0,25.0,1.0,jelly_bean_06s.jpg,0.0,clock_7_3.png,5.0,13,,,,,,,,,,,,,,,,,,,,,,,,,,,,,,,,
0.0,1.0,0.45538,0.0,26.0,26.0,26.0,1.0,ice-cream_cone_06s.jpg,0.0,clock_7_4.png,5.0,13,,,,,,,,,,,,,,,,,,,,,,,,,,,,,,,,
0.0,1.0,0.63243,0.0,27.0,27.0,27.0,1.0,mud_13s.jpg,0.0,clock_7_5.png,5.0,13,,,,,,,,,,,,,,,,,,,,,,,,,,,,,,,,
0.0,1.0,0.496975,0.0,28.0,28.0,28.0,1.0,feather02.jpg,0.0,clock_7_6.png,5.0,13,,,,,,,,,,,,,,,,,,,,,,,,,,,,,,,,
0.0,1.0,0.55037,0.0,29.0,29.0,29.0,1.0,ukulele_02s.jpg,0.0,clock_7_7.png,5.0,13,,,,,,,,,,,,,,,,,,,,,,,,,,,,,,,,
0.0,1.0,0.719355,0.0,30.0,30.0,30.0,1.0,snowman_02s.jpg,0.0,clock_6_1.png,6.0,13,,,,,,,,,,,,,,,,,,,,,,,,,,,,,,,,
0.0,1.0,1.08061,0.0,31.0,31.0,31.0,1.0,lifesaver_10s.jpg,0.0,clock_6_2.png,6.0,13,,,,,,,,,,,,,,,,,,,,,,,,,,,,,,,,
1.0,1.0,0.83241,0.0,32.0,32.0,32.0,1.0,lifesaver_10s.jpg,1.0,clock_6_3.png,6.0,13,,,,,,,,,,,,,,,,,,,,,,,,,,,,,,,,
0.0,1.0,0.75798,0.0,33.0,33.0,33.0,1.0,scooter.jpg,0.0,clock_6_4.png,6.0,13,,,,,,,,,,,,,,,,,,,,,,,,,,,,,,,,
0.0,1.0,0.598295,0.0,34.0,34.0,34.0,1.0,compass_10n.jpg,0.0,clock_6_5.png,6.0,13,,,,,,,,,,,,,,,,,,,,,,,,,,,,,,,,
0.0,1.0,0.614175,0.0,35.0,35.0,35.0,1.0,denture_03s.jpg,0.0,clock_6_6.png,6.0,13,,,,,,,,,,,,,,,,,,,,,,,,,,,,,,,,
,,,,,,,,,0.0,,,13,1.0,0.0,1.462275,0.0,0.0,0.0,0.0,1.0,moth_06n.jpg,coral_08s.jpg,,,,,,,,,,,,,,,,,,,,,,
,,,,,,,,,1.0,,,13,1.0,1.0,2.26059,0.0,1.0,1.0,1.0,1.0,bathtub_23s.jpg,coffee_filter_10s.jpg,,,,,,,,,,,,,,,,,,,,,,
,,,,,,,,,1.0,,,13,1.0,1.0,2.0539,0.0,2.0,2.0,2.0,1.0,timer_03s.jpg,iron_13s.jpg,,,,,,,,,,,,,,,,,,,,,,
,,,,,,,,,1.0,,,13,1.0,1.0,2.20742,0.0,3.0,3.0,3.0,1.0,fire_alarm_05s.jpg,pea_11s.jpg,,,,,,,,,,,,,,,,,,,,,,
,,,,,,,,,1.0,,,13,1.0,1.0,1.69921,0.0,4.0,4.0,4.0,1.0,flask_04s.jpg,memory_stick_11s.jpg,,,,,,,,,,,,,,,,,,,,,,
,,,,,,,,,0.0,,,13,0.0,1.0,1.833685,0.0,5.0,5.0,5.0,1.0,ukulele_02s.jpg,ice-cream_cone_06s.jpg,,,,,,,,,,,,,,,,,,,,,,
,,,,,,,,,,,,13,,,,,,,,,,,0.0,4.0,4.0,4.0,1.0,clock_present_5_5.xlsx,clock_compare_task_5_5.xlsx,,,,,,,,,,,,,,,
0.0,1.0,0.76734,0.0,0.0,0.0,0.0,1.0,sledgehammer_03s.jpg,0.0,clock_6_1.png,1.0,13,,,,,,,,,,,,,,,,,,,,,,,,,,,,,,,,
0.0,1.0,0.64766,0.0,1.0,1.0,1.0,1.0,basket_05s.jpg,0.0,clock_6_2.png,1.0,13,,,,,,,,,,,,,,,,,,,,,,,,,,,,,,,,
0.0,1.0,0.535715,0.0,2.0,2.0,2.0,1.0,go-kart_10s.jpg,0.0,clock_6_3.png,1.0,13,,,,,,,,,,,,,,,,,,,,,,,,,,,,,,,,
0.0,1.0,0.56767,0.0,3.0,3.0,3.0,1.0,sunglasses_11s.jpg,0.0,clock_6_4.png,1.0,13,,,,,,,,,,,,,,,,,,,,,,,,,,,,,,,,
0.0,1.0,0.663575,0.0,4.0,4.0,4.0,1.0,ostrich_06s.jpg,0.0,clock_6_5.png,1.0,13,,,,,,,,,,,,,,,,,,,,,,,,,,,,,,,,
0.0,1.0,0.713605,0.0,5.0,5.0,5.0,1.0,stingray_02s.jpg,0.0,clock_6_6.png,1.0,13,,,,,,,,,,,,,,,,,,,,,,,,,,,,,,,,
0.0,1.0,0.98334,0.0,6.0,6.0,6.0,1.0,peanut_butter_08s.jpg,0.0,clock_7_1.png,2.0,13,,,,,,,,,,,,,,,,,,,,,,,,,,,,,,,,
1.0,1.0,0.83202,0.0,7.0,7.0,7.0,1.0,peanut_butter_08s.jpg,1.0,clock_7_2.png,2.0,13,,,,,,,,,,,,,,,,,,,,,,,,,,,,,,,,
0.0,1.0,0.8541,0.0,8.0,8.0,8.0,1.0,puffin_19s.jpg,0.0,clock_7_3.png,2.0,13,,,,,,,,,,,,,,,,,,,,,,,,,,,,,,,,
1.0,1.0,0.823315,0.0,9.0,9.0,9.0,1.0,peanut_butter_08s.jpg,1.0,clock_7_4.png,2.0,13,,,,,,,,,,,,,,,,,,,,,,,,,,,,,,,,
1.0,1.0,0.830925,0.0,10.0,10.0,10.0,1.0,puffin_19s.jpg,1.0,clock_7_5.png,2.0,13,,,,,,,,,,,,,,,,,,,,,,,,,,,,,,,,
0.0,1.0,0.652485,0.0,11.0,11.0,11.0,1.0,stamp2_08s.jpg,0.0,clock_7_6.png,2.0,13,,,,,,,,,,,,,,,,,,,,,,,,,,,,,,,,
0.0,1.0,0.70241,0.0,12.0,12.0,12.0,1.0,comic_book_02s.jpg,0.0,clock_7_7.png,2.0,13,,,,,,,,,,,,,,,,,,,,,,,,,,,,,,,,
0.0,1.0,0.902025,0.0,13.0,13.0,13.0,1.0,ink_08s.jpg,0.0,clock_7_1.png,3.0,13,,,,,,,,,,,,,,,,,,,,,,,,,,,,,,,,
0.0,1.0,0.534005,0.0,14.0,14.0,14.0,1.0,doily_13s.jpg,0.0,clock_7_2.png,3.0,13,,,,,,,,,,,,,,,,,,,,,,,,,,,,,,,,
0.0,1.0,0.61419,0.0,15.0,15.0,15.0,1.0,light_switch_02s.jpg,0.0,clock_7_3.png,3.0,13,,,,,,,,,,,,,,,,,,,,,,,,,,,,,,,,
0.0,1.0,0.453835,0.0,16.0,16.0,16.0,1.0,pepper2_21s.jpg,0.0,clock_7_4.png,3.0,13,,,,,,,,,,,,,,,,,,,,,,,,,,,,,,,,
0.0,1.0,0.533125,0.0,17.0,17.0,17.0,1.0,crab_16s.jpg,0.0,clock_7_5.png,3.0,13,,,,,,,,,,,,,,,,,,,,,,,,,,,,,,,,
0.0,1.0,0.73182,0.0,18.0,18.0,18.0,1.0,beard_16s.jpg,0.0,clock_7_6.png,3.0,13,,,,,,,,,,,,,,,,,,,,,,,,,,,,,,,,
0.0,1.0,0.70845,0.0,19.0,19.0,19.0,1.0,mask_09s.jpg,0.0,clock_7_7.png,3.0,13,,,,,,,,,,,,,,,,,,,,,,,,,,,,,,,,
0.0,1.0,0.91697,0.0,20.0,20.0,20.0,1.0,dynamite_01b.jpg,0.0,clock_6_1.png,4.0,13,,,,,,,,,,,,,,,,,,,,,,,,,,,,,,,,
0.0,1.0,0.51644,0.0,21.0,21.0,21.0,1.0,abacus_12s.jpg,0.0,clock_6_2.png,4.0,13,,,,,,,,,,,,,,,,,,,,,,,,,,,,,,,,
0.0,1.0,0.49981,0.0,22.0,22.0,22.0,1.0,icicle_04s.jpg,0.0,clock_6_3.png,4.0,13,,,,,,,,,,,,,,,,,,,,,,,,,,,,,,,,
0.0,1.0,0.862755,0.0,23.0,23.0,23.0,1.0,comic_book_02s.jpg,0.0,clock_6_4.png,4.0,13,,,,,,,,,,,,,,,,,,,,,,,,,,,,,,,,
1.0,1.0,1.3164,0.0,24.0,24.0,24.0,1.0,abacus_12s.jpg,1.0,clock_6_5.png,4.0,13,,,,,,,,,,,,,,,,,,,,,,,,,,,,,,,,
0.0,1.0,1.532435,0.0,25.0,25.0,25.0,1.0,duck_01b.jpg,0.0,clock_6_6.png,4.0,13,,,,,,,,,,,,,,,,,,,,,,,,,,,,,,,,
0.0,1.0,0.6757,0.0,26.0,26.0,26.0,1.0,jetski_10s.jpg,0.0,clock_5_1.png,5.0,13,,,,,,,,,,,,,,,,,,,,,,,,,,,,,,,,
1.0,1.0,0.916215,0.0,27.0,27.0,27.0,1.0,jetski_10s.jpg,1.0,clock_5_2.png,5.0,13,,,,,,,,,,,,,,,,,,,,,,,,,,,,,,,,
0.0,1.0,0.734105,0.0,28.0,28.0,28.0,1.0,latte_06s.jpg,0.0,clock_5_3.png,5.0,13,,,,,,,,,,,,,,,,,,,,,,,,,,,,,,,,
0.0,1.0,0.7558,0.0,29.0,29.0,29.0,1.0,basket_05s.jpg,0.0,clock_5_4.png,5.0,13,,,,,,,,,,,,,,,,,,,,,,,,,,,,,,,,
0.0,1.0,0.61183,0.0,30.0,30.0,30.0,1.0,pump_11s.jpg,0.0,clock_5_5.png,5.0,13,,,,,,,,,,,,,,,,,,,,,,,,,,,,,,,,
0.0,1.0,0.554745,0.0,31.0,31.0,31.0,1.0,bacon_05s.jpg,0.0,clock_5_1.png,6.0,13,,,,,,,,,,,,,,,,,,,,,,,,,,,,,,,,
0.0,1.0,0.554415,0.0,32.0,32.0,32.0,1.0,lectern_08s.jpg,0.0,clock_5_2.png,6.0,13,,,,,,,,,,,,,,,,,,,,,,,,,,,,,,,,
0.0,1.0,0.89102,0.0,33.0,33.0,33.0,1.0,amber_04s.jpg,0.0,clock_5_3.png,6.0,13,,,,,,,,,,,,,,,,,,,,,,,,,,,,,,,,
0.0,1.0,0.64988,0.0,34.0,34.0,34.0,1.0,orangutan_03s.jpg,0.0,clock_5_4.png,6.0,13,,,,,,,,,,,,,,,,,,,,,,,,,,,,,,,,
0.0,1.0,0.779455,0.0,35.0,35.0,35.0,1.0,pan_02s.jpg,0.0,clock_5_5.png,6.0,13,,,,,,,,,,,,,,,,,,,,,,,,,,,,,,,,
,,,,,,,,,1.0,,,13,1.0,1.0,1.474815,0.0,0.0,0.0,0.0,1.0,pump_11s.jpg,amber_04s.jpg,,,,,,,,,,,,,,,,,,,,,,
,,,,,,,,,0.0,,,13,0.0,1.0,1.15174,0.0,1.0,1.0,1.0,1.0,doily_13s.jpg,stamp2_08s.jpg,,,,,,,,,,,,,,,,,,,,,,
,,,,,,,,,1.0,,,13,1.0,1.0,2.076825,0.0,2.0,2.0,2.0,1.0,crab_16s.jpg,dynamite_01b.jpg,,,,,,,,,,,,,,,,,,,,,,
,,,,,,,,,0.0,,,13,0.0,1.0,2.15,0.0,3.0,3.0,3.0,1.0,sunglasses_11s.jpg,sledgehammer_03s.jpg,,,,,,,,,,,,,,,,,,,,,,
,,,,,,,,,0.0,,,13,0.0,1.0,1.364725,0.0,4.0,4.0,4.0,1.0,stingray_02s.jpg,go-kart_10s.jpg,,,,,,,,,,,,,,,,,,,,,,
,,,,,,,,,0.0,,,13,0.0,1.0,1.82335,0.0,5.0,5.0,5.0,1.0,pepper2_21s.jpg,ink_08s.jpg,,,,,,,,,,,,,,,,,,,,,,
0.0,1.0,1.558795,,,,,,tripod_01b.jpg,0.0,clockno_up.jpg,1.0,13,,,,,,,,,,,,,,,,,,0.0,0.0,0.0,0.0,1.0,,,,,,,,,,
0.0,1.0,1.10368,,,,,,pocket_watch_16s.jpg,0.0,clockno_default.jpg,1.0,13,,,,,,,,,,,,,,,,,,0.0,1.0,1.0,1.0,1.0,,,,,,,,,,
0.0,1.0,0.680225,,,,,,loom_05s.jpg,0.0,clockno_default.jpg,1.0,13,,,,,,,,,,,,,,,,,,0.0,2.0,2.0,2.0,1.0,,,,,,,,,,
1.0,1.0,0.704835,,,,,,tripod_01b.jpg,1.0,clockno_default.jpg,1.0,13,,,,,,,,,,,,,,,,,,0.0,3.0,3.0,3.0,1.0,,,,,,,,,,
0.0,1.0,0.69649,,,,,,thread_08s.jpg,0.0,clockno_default.jpg,1.0,13,,,,,,,,,,,,,,,,,,0.0,4.0,4.0,4.0,1.0,,,,,,,,,,
0.0,1.0,0.792435,,,,,,rocket_02s.jpg,0.0,clockno_default.jpg,1.0,13,,,,,,,,,,,,,,,,,,0.0,5.0,5.0,5.0,1.0,,,,,,,,,,
0.0,1.0,1.08831,,,,,,ladle_04s.jpg,0.0,clockno_up.jpg,2.0,13,,,,,,,,,,,,,,,,,,0.0,6.0,6.0,6.0,1.0,,,,,,,,,,
0.0,1.0,0.6642,,,,,,bubble_01b.jpg,0.0,clockno_default.jpg,2.0,13,,,,,,,,,,,,,,,,,,0.0,7.0,7.0,7.0,1.0,,,,,,,,,,
0.0,1.0,0.79252,,,,,,pocket_watch_16s.jpg,0.0,clockno_default.jpg,2.0,13,,,,,,,,,,,,,,,,,,0.0,8.0,8.0,8.0,1.0,,,,,,,,,,
0.0,1.0,0.746445,,,,,,projector_08s.jpg,0.0,clockno_default.jpg,2.0,13,,,,,,,,,,,,,,,,,,0.0,9.0,9.0,9.0,1.0,,,,,,,,,,
0.0,1.0,0.71341,,,,,,penlight_12s.jpg,0.0,clockno_default.jpg,2.0,13,,,,,,,,,,,,,,,,,,0.0,10.0,10.0,10.0,1.0,,,,,,,,,,
0.0,1.0,1.247665,,,,,,golf_club_03s.jpg,0.0,clockno_up.jpg,3.0,13,,,,,,,,,,,,,,,,,,0.0,11.0,11.0,11.0,1.0,,,,,,,,,,
0.0,1.0,0.590575,,,,,,espresso_01b.jpg,0.0,clockno_default.jpg,3.0,13,,,,,,,,,,,,,,,,,,0.0,12.0,12.0,12.0,1.0,,,,,,,,,,
1.0,1.0,0.65539,,,,,,espresso_01b.jpg,1.0,clockno_default.jpg,3.0,13,,,,,,,,,,,,,,,,,,0.0,13.0,13.0,13.0,1.0,,,,,,,,,,
0.0,1.0,0.680215,,,,,,mannequin_05s.jpg,0.0,clockno_default.jpg,3.0,13,,,,,,,,,,,,,,,,,,0.0,14.0,14.0,14.0,1.0,,,,,,,,,,
1.0,1.0,1.390765,,,,,,golf_club_03s.jpg,1.0,clockno_default.jpg,3.0,13,,,,,,,,,,,,,,,,,,0.0,15.0,15.0,15.0,1.0,,,,,,,,,,
0.0,1.0,1.08024,,,,,,loom_05s.jpg,0.0,clockno_default.jpg,3.0,13,,,,,,,,,,,,,,,,,,0.0,16.0,16.0,16.0,1.0,,,,,,,,,,
0.0,1.0,0.71324,,,,,,machete_06s.jpg,0.0,clockno_up.jpg,4.0,13,,,,,,,,,,,,,,,,,,0.0,17.0,17.0,17.0,1.0,,,,,,,,,,
0.0,1.0,0.52557,,,,,,seahorse_13s.jpg,0.0,clockno_default.jpg,4.0,13,,,,,,,,,,,,,,,,,,0.0,18.0,18.0,18.0,1.0,,,,,,,,,,
0.0,1.0,0.83096,,,,,,mannequin_05s.jpg,0.0,clockno_default.jpg,4.0,13,,,,,,,,,,,,,,,,,,0.0,19.0,19.0,19.0,1.0,,,,,,,,,,
0.0,1.0,0.81411,,,,,,saddle_06s.jpg,0.0,clockno_default.jpg,4.0,13,,,,,,,,,,,,,,,,,,0.0,20.0,20.0,20.0,1.0,,,,,,,,,,
0.0,1.0,0.696115,,,,,,rake_06s.jpg,0.0,clockno_default.jpg,4.0,13,,,,,,,,,,,,,,,,,,0.0,21.0,21.0,21.0,1.0,,,,,,,,,,
0.0,1.0,0.765465,,,,,,jewel_01b.jpg,0.0,clockno_default.jpg,4.0,13,,,,,,,,,,,,,,,,,,0.0,22.0,22.0,22.0,1.0,,,,,,,,,,
0.0,1.0,0.86902,,,,,,ironing_board_07s.jpg,0.0,clockno_default.jpg,4.0,13,,,,,,,,,,,,,,,,,,0.0,23.0,23.0,23.0,1.0,,,,,,,,,,
0.0,1.0,1.172755,,,,,,tuxedo_01b.jpg,0.0,clockno_up.jpg,5.0,13,,,,,,,,,,,,,,,,,,0.0,24.0,24.0,24.0,1.0,,,,,,,,,,
0.0,1.0,0.54858,,,,,,pie_08s.jpg,0.0,clockno_default.jpg,5.0,13,,,,,,,,,,,,,,,,,,0.0,25.0,25.0,25.0,1.0,,,,,,,,,,
0.0,1.0,0.62064,,,,,,mousetrap_15n.jpg,0.0,clockno_default.jpg,5.0,13,,,,,,,,,,,,,,,,,,0.0,26.0,26.0,26.0,1.0,,,,,,,,,,
0.0,1.0,0.53255,,,,,,measuring_cup_02s.jpg,0.0,clockno_default.jpg,5.0,13,,,,,,,,,,,,,,,,,,0.0,27.0,27.0,27.0,1.0,,,,,,,,,,
1.0,1.0,1.660465,,,,,,measuring_cup_02s.jpg,1.0,clockno_default.jpg,5.0,13,,,,,,,,,,,,,,,,,,0.0,28.0,28.0,28.0,1.0,,,,,,,,,,
0.0,1.0,1.492385,,,,,,olive_05s.jpg,0.0,clockno_up.jpg,6.0,13,,,,,,,,,,,,,,,,,,0.0,29.0,29.0,29.0,1.0,,,,,,,,,,
0.0,1.0,1.90735,,,,,,razor_12s.jpg,0.0,clockno_default.jpg,6.0,13,,,,,,,,,,,,,,,,,,0.0,30.0,30.0,30.0,1.0,,,,,,,,,,
0.0,1.0,0.835185,,,,,,footprint_11s.jpg,0.0,clockno_default.jpg,6.0,13,,,,,,,,,,,,,,,,,,0.0,31.0,31.0,31.0,1.0,,,,,,,,,,
0.0,1.0,0.813305,,,,,,reindeer_08s.jpg,0.0,clockno_default.jpg,6.0,13,,,,,,,,,,,,,,,,,,0.0,32.0,32.0,32.0,1.0,,,,,,,,,,
1.0,1.0,2.38779,,,,,,olive_05s.jpg,1.0,clockno_default.jpg,6.0,13,,,,,,,,,,,,,,,,,,0.0,33.0,33.0,33.0,1.0,,,,,,,,,,
0.0,0.0,1.63605,,,,,,razor_12s.jpg,1.0,clockno_default.jpg,6.0,13,,,,,,,,,,,,,,,,,,0.0,34.0,34.0,34.0,1.0,,,,,,,,,,
0.0,1.0,0.90697,,,,,,mold2_04s.jpg,0.0,clockno_default.jpg,6.0,13,,,,,,,,,,,,,,,,,,0.0,35.0,35.0,35.0,1.0,,,,,,,,,,
,,,,,,,,,1.0,,,13,0.0,0.0,1.43287,,,,,,jewel_01b.jpg,pie_08s.jpg,,,,,,,,,,,,,0.0,0.0,0.0,0.0,1.0,,,,,
,,,,,,,,,1.0,,,13,1.0,1.0,1.072535,,,,,,thread_08s.jpg,bubble_01b.jpg,,,,,,,,,,,,,0.0,1.0,1.0,1.0,1.0,,,,,
,,,,,,,,,0.0,,,13,0.0,1.0,1.58508,,,,,,tuxedo_01b.jpg,rake_06s.jpg,,,,,,,,,,,,,0.0,2.0,2.0,2.0,1.0,,,,,
,,,,,,,,,1.0,,,13,1.0,1.0,2.517435,,,,,,ladle_04s.jpg,projector_08s.jpg,,,,,,,,,,,,,0.0,3.0,3.0,3.0,1.0,,,,,
,,,,,,,,,0.0,,,13,0.0,1.0,1.107515,,,,,,saddle_06s.jpg,machete_06s.jpg,,,,,,,,,,,,,0.0,4.0,4.0,4.0,1.0,,,,,
,,,,,,,,,0.0,,,13,0.0,1.0,0.85189,,,,,,mold2_04s.jpg,reindeer_08s.jpg,,,,,,,,,,,,,0.0,5.0,5.0,5.0,1.0,,,,,
,,,,,,,,,,,,13,,,,,,,,,,,,,,,,clockno_present_1_5.xlsx,clockno_compare_task_1_5.xlsx,,,,,,,,,,,0.0,0.0,0.0,0.0,1.0
0.0,1.0,1.778585,,,,,,sushi_08s.jpg,0.0,clockno_up.jpg,1.0,13,,,,,,,,,,,,,,,,,,0.0,0.0,0.0,0.0,1.0,,,,,,,,,,
0.0,1.0,0.72298,,,,,,tweezers_03s.jpg,0.0,clockno_default.jpg,1.0,13,,,,,,,,,,,,,,,,,,0.0,1.0,1.0,1.0,1.0,,,,,,,,,,
0.0,1.0,2.23508,,,,,,teapot_03s.jpg,0.0,clockno_default.jpg,1.0,13,,,,,,,,,,,,,,,,,,0.0,2.0,2.0,2.0,1.0,,,,,,,,,,
0.0,1.0,0.85854,,,,,,tinsel_12s.jpg,0.0,clockno_default.jpg,1.0,13,,,,,,,,,,,,,,,,,,0.0,3.0,3.0,3.0,1.0,,,,,,,,,,
0.0,1.0,0.629795,,,,,,tuba_12s.jpg,0.0,clockno_default.jpg,1.0,13,,,,,,,,,,,,,,,,,,0.0,4.0,4.0,4.0,1.0,,,,,,,,,,
0.0,1.0,0.63522,,,,,,paintbrush_04s.jpg,0.0,clockno_default.jpg,1.0,13,,,,,,,,,,,,,,,,,,0.0,5.0,5.0,5.0,1.0,,,,,,,,,,
0.0,1.0,1.25066,,,,,,lasagna_06s.jpg,0.0,clockno_default.jpg,1.0,13,,,,,,,,,,,,,,,,,,0.0,6.0,6.0,6.0,1.0,,,,,,,,,,
0.0,1.0,1.3542,,,,,,pinwheel_06s.jpg,0.0,clockno_up.jpg,2.0,13,,,,,,,,,,,,,,,,,,0.0,7.0,7.0,7.0,1.0,,,,,,,,,,
0.0,1.0,0.4181,,,,,,owl_15s.jpg,0.0,clockno_default.jpg,2.0,13,,,,,,,,,,,,,,,,,,0.0,8.0,8.0,8.0,1.0,,,,,,,,,,
0.0,1.0,0.42502,,,,,,glasses01a.jpg,0.0,clockno_default.jpg,2.0,13,,,,,,,,,,,,,,,,,,0.0,9.0,9.0,9.0,1.0,,,,,,,,,,
0.0,1.0,0.76307,,,,,,pocketknife_12s.jpg,0.0,clockno_default.jpg,2.0,13,,,,,,,,,,,,,,,,,,0.0,10.0,10.0,10.0,1.0,,,,,,,,,,
0.0,1.0,0.546825,,,,,,fur_coat_11s.jpg,0.0,clockno_default.jpg,2.0,13,,,,,,,,,,,,,,,,,,0.0,11.0,11.0,11.0,1.0,,,,,,,,,,
0.0,1.0,1.313555,,,,,,tongs_08s.jpg,0.0,clockno_up.jpg,3.0,13,,,,,,,,,,,,,,,,,,0.0,12.0,12.0,12.0,1.0,,,,,,,,,,
1.0,1.0,0.673885,,,,,,tongs_08s.jpg,1.0,clockno_default.jpg,3.0,13,,,,,,,,,,,,,,,,,,0.0,13.0,13.0,13.0,1.0,,,,,,,,,,
0.0,1.0,0.52995,,,,,,leash_10s.jpg,0.0,clockno_default.jpg,3.0,13,,,,,,,,,,,,,,,,,,0.0,14.0,14.0,14.0,1.0,,,,,,,,,,
0.0,1.0,0.841595,,,,,,spoon02a.jpg,0.0,clockno_default.jpg,3.0,13,,,,,,,,,,,,,,,,,,0.0,15.0,15.0,15.0,1.0,,,,,,,,,,
0.0,1.0,0.656875,,,,,,plunger_08s.jpg,0.0,clockno_default.jpg,3.0,13,,,,,,,,,,,,,,,,,,0.0,16.0,16.0,16.0,1.0,,,,,,,,,,
1.0,1.0,0.85676,,,,,,plunger_08s.jpg,1.0,clockno_default.jpg,3.0,13,,,,,,,,,,,,,,,,,,0.0,17.0,17.0,17.0,1.0,,,,,,,,,,
0.0,1.0,0.55995,,,,,,playpen_11s.jpg,0.0,clockno_up.jpg,4.0,13,,,,,,,,,,,,,,,,,,0.0,18.0,18.0,18.0,1.0,,,,,,,,,,
0.0,1.0,0.681065,,,,,,smoothie_09s.jpg,0.0,clockno_default.jpg,4.0,13,,,,,,,,,,,,,,,,,,0.0,19.0,19.0,19.0,1.0,,,,,,,,,,
0.0,1.0,0.472185,,,,,,gear_07s.jpg,0.0,clockno_default.jpg,4.0,13,,,,,,,,,,,,,,,,,,0.0,20.0,20.0,20.0,1.0,,,,,,,,,,
1.0,1.0,0.76048,,,,,,smoothie_09s.jpg,1.0,clockno_default.jpg,4.0,13,,,,,,,,,,,,,,,,,,0.0,21.0,21.0,21.0,1.0,,,,,,,,,,
0.0,1.0,0.776675,,,,,,lamp_08s.jpg,0.0,clockno_default.jpg,4.0,13,,,,,,,,,,,,,,,,,,0.0,22.0,22.0,22.0,1.0,,,,,,,,,,
0.0,1.0,1.263915,,,,,,lollipop_08s.jpg,0.0,clockno_up.jpg,5.0,13,,,,,,,,,,,,,,,,,,0.0,23.0,23.0,23.0,1.0,,,,,,,,,,
0.0,1.0,0.999775,,,,,,squirt_gun_03s.jpg,0.0,clockno_default.jpg,5.0,13,,,,,,,,,,,,,,,,,,0.0,24.0,24.0,24.0,1.0,,,,,,,,,,
0.0,1.0,0.51234,,,,,,otter_05s.jpg,0.0,clockno_default.jpg,5.0,13,,,,,,,,,,,,,,,,,,0.0,25.0,25.0,25.0,1.0,,,,,,,,,,
0.0,1.0,0.903495,,,,,,tape_06s.jpg,0.0,clockno_default.jpg,5.0,13,,,,,,,,,,,,,,,,,,0.0,26.0,26.0,26.0,1.0,,,,,,,,,,
0.0,1.0,0.582715,,,,,,sunflower_17s.jpg,0.0,clockno_default.jpg,5.0,13,,,,,,,,,,,,,,,,,,0.0,27.0,27.0,27.0,1.0,,,,,,,,,,
0.0,1.0,0.591165,,,,,,fountain_pen_06s.jpg,0.0,clockno_default.jpg,5.0,13,,,,,,,,,,,,,,,,,,0.0,28.0,28.0,28.0,1.0,,,,,,,,,,
0.0,1.0,0.480135,,,,,,ant_12s.jpg,0.0,clockno_up.jpg,6.0,13,,,,,,,,,,,,,,,,,,0.0,29.0,29.0,29.0,1.0,,,,,,,,,,
0.0,1.0,0.646975,,,,,,tattoo_14s.jpg,0.0,clockno_default.jpg,6.0,13,,,,,,,,,,,,,,,,,,0.0,30.0,30.0,30.0,1.0,,,,,,,,,,
0.0,1.0,0.51374,,,,,,gear_07s.jpg,0.0,clockno_default.jpg,6.0,13,,,,,,,,,,,,,,,,,,0.0,31.0,31.0,31.0,1.0,,,,,,,,,,
0.0,1.0,0.53338,,,,,,tiger_06s.jpg,0.0,clockno_default.jpg,6.0,13,,,,,,,,,,,,,,,,,,0.0,32.0,32.0,32.0,1.0,,,,,,,,,,
0.0,1.0,0.725745,,,,,,raccoon_02s.jpg,0.0,clockno_default.jpg,6.0,13,,,,,,,,,,,,,,,,,,0.0,33.0,33.0,33.0,1.0,,,,,,,,,,
0.0,1.0,0.71817,,,,,,toilet_paper_12s.jpg,0.0,clockno_default.jpg,6.0,13,,,,,,,,,,,,,,,,,,0.0,34.0,34.0,34.0,1.0,,,,,,,,,,
1.0,1.0,0.98277,,,,,,tattoo_14s.jpg,1.0,clockno_default.jpg,6.0,13,,,,,,,,,,,,,,,,,,0.0,35.0,35.0,35.0,1.0,,,,,,,,,,
,,,,,,,,,1.0,,,13,1.0,1.0,2.040905,,,,,,spoon02a.jpg,playpen_11s.jpg,,,,,,,,,,,,,0.0,0.0,0.0,0.0,1.0,,,,,
,,,,,,,,,1.0,,,13,1.0,1.0,1.11138,,,,,,lasagna_06s.jpg,glasses01a.jpg,,,,,,,,,,,,,0.0,1.0,1.0,1.0,1.0,,,,,
,,,,,,,,,1.0,,,13,1.0,1.0,1.238585,,,,,,fur_coat_11s.jpg,leash_10s.jpg,,,,,,,,,,,,,0.0,2.0,2.0,2.0,1.0,,,,,
,,,,,,,,,1.0,,,13,0.0,0.0,1.360835,,,,,,sushi_08s.jpg,tinsel_12s.jpg,,,,,,,,,,,,,0.0,3.0,3.0,3.0,1.0,,,,,
,,,,,,,,,1.0,,,13,1.0,1.0,1.44893,,,,,,squirt_gun_03s.jpg,sunflower_17s.jpg,,,,,,,,,,,,,0.0,4.0,4.0,4.0,1.0,,,,,
,,,,,,,,,0.0,,,13,0.0,1.0,1.407235,,,,,,tuba_12s.jpg,tweezers_03s.jpg,,,,,,,,,,,,,0.0,5.0,5.0,5.0,1.0,,,,,
,,,,,,,,,,,,13,,,,,,,,,,,,,,,,clockno_present_2_5.xlsx,clockno_compare_task_2_5.xlsx,,,,,,,,,,,0.0,1.0,1.0,1.0,1.0
0.0,1.0,0.76643,,,,,,ram_05s.jpg,0.0,clockno_up.jpg,1.0,13,,,,,,,,,,,,,,,,,,0.0,0.0,0.0,0.0,1.0,,,,,,,,,,
0.0,1.0,0.703965,,,,,,panda_02s.jpg,0.0,clockno_default.jpg,1.0,13,,,,,,,,,,,,,,,,,,0.0,1.0,1.0,1.0,1.0,,,,,,,,,,
0.0,1.0,0.47252,,,,,,beaker_01b.jpg,0.0,clockno_default.jpg,1.0,13,,,,,,,,,,,,,,,,,,0.0,2.0,2.0,2.0,1.0,,,,,,,,,,
1.0,1.0,0.616985,,,,,,beaker_01b.jpg,1.0,clockno_default.jpg,1.0,13,,,,,,,,,,,,,,,,,,0.0,3.0,3.0,3.0,1.0,,,,,,,,,,
0.0,1.0,0.79952,,,,,,megaphone_03s.jpg,0.0,clockno_default.jpg,1.0,13,,,,,,,,,,,,,,,,,,0.0,4.0,4.0,4.0,1.0,,,,,,,,,,
0.0,1.0,1.272285,,,,,,dashboard_02s.jpg,0.0,clockno_up.jpg,2.0,13,,,,,,,,,,,,,,,,,,0.0,5.0,5.0,5.0,1.0,,,,,,,,,,
0.0,1.0,0.512275,,,,,,juicer2_06s.jpg,0.0,clockno_default.jpg,2.0,13,,,,,,,,,,,,,,,,,,0.0,6.0,6.0,6.0,1.0,,,,,,,,,,
0.0,1.0,0.48067,,,,,,butter_14s.jpg,0.0,clockno_default.jpg,2.0,13,,,,,,,,,,,,,,,,,,0.0,7.0,7.0,7.0,1.0,,,,,,,,,,
0.0,1.0,0.559455,,,,,,quesadilla_07s.jpg,0.0,clockno_default.jpg,2.0,13,,,,,,,,,,,,,,,,,,0.0,8.0,8.0,8.0,1.0,,,,,,,,,,
0.0,1.0,0.63084,,,,,,thumbtack_14s.jpg,0.0,clockno_default.jpg,2.0,13,,,,,,,,,,,,,,,,,,0.0,9.0,9.0,9.0,1.0,,,,,,,,,,
0.0,1.0,0.46329,,,,,,potholder_02s.jpg,0.0,clockno_default.jpg,2.0,13,,,,,,,,,,,,,,,,,,0.0,10.0,10.0,10.0,1.0,,,,,,,,,,
0.0,1.0,0.486835,,,,,,purse_05s.jpg,0.0,clockno_default.jpg,2.0,13,,,,,,,,,,,,,,,,,,0.0,11.0,11.0,11.0,1.0,,,,,,,,,,
0.0,1.0,0.758955,,,,,,binder_21s.jpg,0.0,clockno_up.jpg,3.0,13,,,,,,,,,,,,,,,,,,0.0,12.0,12.0,12.0,1.0,,,,,,,,,,
1.0,1.0,0.95119,,,,,,binder_21s.jpg,1.0,clockno_default.jpg,3.0,13,,,,,,,,,,,,,,,,,,0.0,13.0,13.0,13.0,1.0,,,,,,,,,,
0.0,1.0,0.596365,,,,,,knot_01b.jpg,0.0,clockno_default.jpg,3.0,13,,,,,,,,,,,,,,,,,,0.0,14.0,14.0,14.0,1.0,,,,,,,,,,
0.0,0.0,1.832455,,,,,,binder_21s.jpg,1.0,clockno_default.jpg,3.0,13,,,,,,,,,,,,,,,,,,0.0,15.0,15.0,15.0,1.0,,,,,,,,,,
0.0,1.0,0.965805,,,,,,raspberry_12s.jpg,0.0,clockno_default.jpg,3.0,13,,,,,,,,,,,,,,,,,,0.0,16.0,16.0,16.0,1.0,,,,,,,,,,
0.0,1.0,1.230535,,,,,,padlock_07s.jpg,0.0,clockno_up.jpg,4.0,13,,,,,,,,,,,,,,,,,,0.0,17.0,17.0,17.0,1.0,,,,,,,,,,
0.0,1.0,0.869895,,,,,,phone_01b.jpg,0.0,clockno_default.jpg,4.0,13,,,,,,,,,,,,,,,,,,0.0,18.0,18.0,18.0,1.0,,,,,,,,,,
0.0,1.0,1.063405,,,,,,lizard_10n.jpg,0.0,clockno_default.jpg,4.0,13,,,,,,,,,,,,,,,,,,0.0,19.0,19.0,19.0,1.0,,,,,,,,,,
0.0,1.0,0.55711,,,,,,seagull_01b.jpg,0.0,clockno_default.jpg,4.0,13,,,,,,,,,,,,,,,,,,0.0,20.0,20.0,20.0,1.0,,,,,,,,,,
0.0,1.0,0.606865,,,,,,stapler_01b.jpg,0.0,clockno_default.jpg,4.0,13,,,,,,,,,,,,,,,,,,0.0,21.0,21.0,21.0,1.0,,,,,,,,,,
0.0,1.0,1.05326,,,,,,turtleneck_11s.jpg,0.0,clockno_default.jpg,4.0,13,,,,,,,,,,,,,,,,,,0.0,22.0,22.0,22.0,1.0,,,,,,,,,,
0.0,1.0,0.899905,,,,,,top_hat_11s.jpg,0.0,clockno_up.jpg,5.0,13,,,,,,,,,,,,,,,,,,0.0,23.0,23.0,23.0,1.0,,,,,,,,,,
0.0,1.0,0.89281,,,,,,screwdriver02a.jpg,0.0,clockno_default.jpg,5.0,13,,,,,,,,,,,,,,,,,,0.0,24.0,24.0,24.0,1.0,,,,,,,,,,
0.0,1.0,0.83734,,,,,,raspberry_12s.jpg,0.0,clockno_default.jpg,5.0,13,,,,,,,,,,,,,,,,,,0.0,25.0,25.0,25.0,1.0,,,,,,,,,,
0.0,1.0,2.030035,,,,,,gingerbread_man_03s.jpg,0.0,clockno_default.jpg,5.0,13,,,,,,,,,,,,,,,,,,0.0,26.0,26.0,26.0,1.0,,,,,,,,,,
0.0,1.0,1.03,,,,,,bagel_15s.jpg,0.0,clockno_default.jpg,5.0,13,,,,,,,,,,,,,,,,,,0.0,27.0,27.0,27.0,1.0,,,,,,,,,,
1.0,1.0,2.264625,,,,,,top_hat_11s.jpg,1.0,clockno_default.jpg,5.0,13,,,,,,,,,,,,,,,,,,0.0,28.0,28.0,28.0,1.0,,,,,,,,,,
0.0,1.0,0.57977,,,,,,smokingpipe.jpg,0.0,clockno_default.jpg,5.0,13,,,,,,,,,,,,,,,,,,0.0,29.0,29.0,29.0,1.0,,,,,,,,,,
0.0,1.0,1.67475,,,,,,sea_urchin_09s.jpg,0.0,clockno_up.jpg,6.0,13,,,,,,,,,,,,,,,,,,0.0,30.0,30.0,30.0,1.0,,,,,,,,,,
0.0,1.0,1.483365,,,,,,tomato_sauce_09s.jpg,0.0,clockno_default.jpg,6.0,13,,,,,,,,,,,,,,,,,,0.0,31.0,31.0,31.0,1.0,,,,,,,,,,
0.0,1.0,1.53818,,,,,,triangle_10s.jpg,0.0,clockno_default.jpg,6.0,13,,,,,,,,,,,,,,,,,,0.0,32.0,32.0,32.0,1.0,,,,,,,,,,
0.0,1.0,0.5067,,,,,,squirrel_02s.jpg,0.0,clockno_default.jpg,6.0,13,,,,,,,,,,,,,,,,,,0.0,33.0,33.0,33.0,1.0,,,,,,,,,,
0.0,1.0,0.89067,,,,,,punch1_10s.jpg,0.0,clockno_default.jpg,6.0,13,,,,,,,,,,,,,,,,,,0.0,34.0,34.0,34.0,1.0,,,,,,,,,,
0.0,1.0,0.4828,,,,,,chalice_10s.jpg,0.0,clockno_default.jpg,6.0,13,,,,,,,,,,,,,,,,,,0.0,35.0,35.0,35.0,1.0,,,,,,,,,,
,,,,,,,,,1.0,,,13,0.0,0.0,5.918135,,,,,,purse_05s.jpg,knot_01b.jpg,,,,,,,,,,,,,0.0,0.0,0.0,0.0,1.0,,,,,
,,,,,,,,,0.0,,,13,1.0,0.0,2.181265,,,,,,butter_14s.jpg,megaphone_03s.jpg,,,,,,,,,,,,,0.0,1.0,1.0,1.0,1.0,,,,,
,,,,,,,,,0.0,,,13,1.0,0.0,1.248445,,,,,,screwdriver02a.jpg,stapler_01b.jpg,,,,,,,,,,,,,0.0,2.0,2.0,2.0,1.0,,,,,
,,,,,,,,,0.0,,,13,0.0,1.0,1.41685,,,,,,quesadilla_07s.jpg,dashboard_02s.jpg,,,,,,,,,,,,,0.0,3.0,3.0,3.0,1.0,,,,,
,,,,,,,,,0.0,,,13,1.0,0.0,1.523285,,,,,,thumbtack_14s.jpg,juicer2_06s.jpg,,,,,,,,,,,,,0.0,4.0,4.0,4.0,1.0,,,,,
,,,,,,,,,0.0,,,13,1.0,0.0,1.18676,,,,,,turtleneck_11s.jpg,lizard_10n.jpg,,,,,,,,,,,,,0.0,5.0,5.0,5.0,1.0,,,,,
,,,,,,,,,,,,13,,,,,,,,,,,,,,,,clockno_present_3_5.xlsx,clockno_compare_task_3_5.xlsx,,,,,,,,,,,0.0,2.0,2.0,2.0,1.0
0.0,1.0,0.81358,,,,,,leotard_08s.jpg,0.0,clockno_up.jpg,1.0,13,,,,,,,,,,,,,,,,,,0.0,0.0,0.0,0.0,1.0,,,,,,,,,,
0.0,1.0,0.48623,,,,,,popsicle_02s.jpg,0.0,clockno_default.jpg,1.0,13,,,,,,,,,,,,,,,,,,0.0,1.0,1.0,1.0,1.0,,,,,,,,,,
1.0,1.0,1.29637,,,,,,popsicle_02s.jpg,1.0,clockno_default.jpg,1.0,13,,,,,,,,,,,,,,,,,,0.0,2.0,2.0,2.0,1.0,,,,,,,,,,
1.0,1.0,0.72579,,,,,,popsicle_02s.jpg,1.0,clockno_default.jpg,1.0,13,,,,,,,,,,,,,,,,,,0.0,3.0,3.0,3.0,1.0,,,,,,,,,,
0.0,1.0,0.53335,,,,,,rocking_horse_03s.jpg,0.0,clockno_default.jpg,1.0,13,,,,,,,,,,,,,,,,,,0.0,4.0,4.0,4.0,1.0,,,,,,,,,,
0.0,1.0,0.74179,,,,,,incense_02s.jpg,0.0,clockno_up.jpg,2.0,13,,,,,,,,,,,,,,,,,,0.0,5.0,5.0,5.0,1.0,,,,,,,,,,
0.0,1.0,0.41284,,,,,,margarita_03s.jpg,0.0,clockno_default.jpg,2.0,13,,,,,,,,,,,,,,,,,,0.0,6.0,6.0,6.0,1.0,,,,,,,,,,
0.0,1.0,0.500245,,,,,,telephone_pole_05s.jpg,0.0,clockno_default.jpg,2.0,13,,,,,,,,,,,,,,,,,,0.0,7.0,7.0,7.0,1.0,,,,,,,,,,
0.0,1.0,0.757065,,,,,,hummingbird_05s.jpg,0.0,clockno_default.jpg,2.0,13,,,,,,,,,,,,,,,,,,0.0,8.0,8.0,8.0,1.0,,,,,,,,,,
0.0,1.0,0.89216,,,,,,pincushion_10s.jpg,0.0,clockno_default.jpg,2.0,13,,,,,,,,,,,,,,,,,,0.0,9.0,9.0,9.0,1.0,,,,,,,,,,
0.0,1.0,0.531635,,,,,,peppermint_07s.jpg,0.0,clockno_default.jpg,2.0,13,,,,,,,,,,,,,,,,,,0.0,10.0,10.0,10.0,1.0,,,,,,,,,,
0.0,1.0,0.75467,,,,,,mattress_01s.jpg,0.0,clockno_up.jpg,3.0,13,,,,,,,,,,,,,,,,,,0.0,11.0,11.0,11.0,1.0,,,,,,,,,,
0.0,1.0,0.563605,,,,,,swimming_pool_17s.jpg,0.0,clockno_default.jpg,3.0,13,,,,,,,,,,,,,,,,,,0.0,12.0,12.0,12.0,1.0,,,,,,,,,,
0.0,1.0,1.02062,,,,,,pincushion_10s.jpg,0.0,clockno_default.jpg,3.0,13,,,,,,,,,,,,,,,,,,0.0,13.0,13.0,13.0,1.0,,,,,,,,,,
0.0,1.0,0.722995,,,,,,pomegranate_04s.jpg,0.0,clockno_default.jpg,3.0,13,,,,,,,,,,,,,,,,,,0.0,14.0,14.0,14.0,1.0,,,,,,,,,,
1.0,1.0,0.66011,,,,,,pincushion_10s.jpg,1.0,clockno_default.jpg,3.0,13,,,,,,,,,,,,,,,,,,0.0,15.0,15.0,15.0,1.0,,,,,,,,,,
0.0,1.0,1.25174,,,,,,soccer_ball_12s.jpg,0.0,clockno_default.jpg,3.0,13,,,,,,,,,,,,,,,,,,0.0,16.0,16.0,16.0,1.0,,,,,,,,,,
0.0,1.0,0.69064,,,,,,swing_set_15s.jpg,0.0,clockno_default.jpg,3.0,13,,,,,,,,,,,,,,,,,,0.0,17.0,17.0,17.0,1.0,,,,,,,,,,
0.0,1.0,1.170465,,,,,,lipstick_02s.jpg,0.0,clockno_up.jpg,4.0,13,,,,,,,,,,,,,,,,,,0.0,18.0,18.0,18.0,1.0,,,,,,,,,,
1.0,1.0,0.731475,,,,,,lipstick_02s.jpg,1.0,clockno_default.jpg,4.0,13,,,,,,,,,,,,,,,,,,0.0,19.0,19.0,19.0,1.0,,,,,,,,,,
0.0,1.0,0.554505,,,,,,tie_03s.jpg,0.0,clockno_default.jpg,4.0,13,,,,,,,,,,,,,,,,,,0.0,20.0,20.0,20.0,1.0,,,,,,,,,,
0.0,1.0,0.55436,,,,,,muffin_12n.jpg,0.0,clockno_default.jpg,4.0,13,,,,,,,,,,,,,,,,,,0.0,21.0,21.0,21.0,1.0,,,,,,,,,,
0.0,1.0,0.74671,,,,,,solar_panel_02s.jpg,0.0,clockno_default.jpg,4.0,13,,,,,,,,,,,,,,,,,,0.0,22.0,22.0,22.0,1.0,,,,,,,,,,
0.0,1.0,0.658035,,,,,,safety_pin_02s.jpg,0.0,clockno_default.jpg,4.0,13,,,,,,,,,,,,,,,,,,0.0,23.0,23.0,23.0,1.0,,,,,,,,,,
0.0,1.0,0.954015,,,,,,rolling_pin_02s.jpg,0.0,clockno_up.jpg,5.0,13,,,,,,,,,,,,,,,,,,0.0,24.0,24.0,24.0,1.0,,,,,,,,,,
0.0,1.0,0.53725,,,,,,toaster_03s.jpg,0.0,clockno_default.jpg,5.0,13,,,,,,,,,,,,,,,,,,0.0,25.0,25.0,25.0,1.0,,,,,,,,,,
0.0,1.0,0.47255,,,,,,umbrella_15s.jpg,0.0,clockno_default.jpg,5.0,13,,,,,,,,,,,,,,,,,,0.0,26.0,26.0,26.0,1.0,,,,,,,,,,
0.0,1.0,0.649475,,,,,,gong_02s.jpg,0.0,clockno_default.jpg,5.0,13,,,,,,,,,,,,,,,,,,0.0,27.0,27.0,27.0,1.0,,,,,,,,,,
0.0,1.0,0.664705,,,,,,plug_08s.jpg,0.0,clockno_default.jpg,5.0,13,,,,,,,,,,,,,,,,,,0.0,28.0,28.0,28.0,1.0,,,,,,,,,,
0.0,1.0,0.53672,,,,,,bonsai_07s.jpg,0.0,clockno_up.jpg,6.0,13,,,,,,,,,,,,,,,,,,0.0,29.0,29.0,29.0,1.0,,,,,,,,,,
0.0,1.0,0.5297,,,,,,raft_09s.jpg,0.0,clockno_default.jpg,6.0,13,,,,,,,,,,,,,,,,,,0.0,30.0,30.0,30.0,1.0,,,,,,,,,,
0.0,1.0,0.624155,,,,,,puppet_01b.jpg,0.0,clockno_default.jpg,6.0,13,,,,,,,,,,,,,,,,,,0.0,31.0,31.0,31.0,1.0,,,,,,,,,,
1.0,1.0,0.737505,,,,,,puppet_01b.jpg,1.0,clockno_default.jpg,6.0,13,,,,,,,,,,,,,,,,,,0.0,32.0,32.0,32.0,1.0,,,,,,,,,,
0.0,1.0,1.920275,,,,,,emerald_02s.jpg,0.0,clockno_default.jpg,6.0,13,,,,,,,,,,,,,,,,,,0.0,33.0,33.0,33.0,1.0,,,,,,,,,,
0.0,1.0,0.88029,,,,,,pencil02a.jpg,0.0,clockno_default.jpg,6.0,13,,,,,,,,,,,,,,,,,,0.0,34.0,34.0,34.0,1.0,,,,,,,,,,
0.0,1.0,0.718885,,,,,,gazelle_10s.jpg,0.0,clockno_default.jpg,6.0,13,,,,,,,,,,,,,,,,,,0.0,35.0,35.0,35.0,1.0,,,,,,,,,,
,,,,,,,,,1.0,,,13,0.0,0.0,1.683255,,,,,,umbrella_15s.jpg,bonsai_07s.jpg,,,,,,,,,,,,,0.0,0.0,0.0,0.0,1.0,,,,,
,,,,,,,,,1.0,,,13,1.0,1.0,1.416955,,,,,,rocking_horse_03s.jpg,telephone_pole_05s.jpg,,,,,,,,,,,,,0.0,1.0,1.0,1.0,1.0,,,,,
,,,,,,,,,1.0,,,13,1.0,1.0,1.427575,,,,,,muffin_12n.jpg,rolling_pin_02s.jpg,,,,,,,,,,,,,0.0,2.0,2.0,2.0,1.0,,,,,
,,,,,,,,,1.0,,,13,0.0,0.0,1.34195,,,,,,incense_02s.jpg,hummingbird_05s.jpg,,,,,,,,,,,,,0.0,3.0,3.0,3.0,1.0,,,,,
,,,,,,,,,0.0,,,13,0.0,1.0,1.123895,,,,,,pomegranate_04s.jpg,mattress_01s.jpg,,,,,,,,,,,,,0.0,4.0,4.0,4.0,1.0,,,,,
,,,,,,,,,1.0,,,13,0.0,0.0,1.69923,,,,,,toaster_03s.jpg,plug_08s.jpg,,,,,,,,,,,,,0.0,5.0,5.0,5.0,1.0,,,,,
,,,,,,,,,,,,13,,,,,,,,,,,,,,,,clockno_present_4_5.xlsx,clockno_compare_task_4_5.xlsx,,,,,,,,,,,0.0,3.0,3.0,3.0,1.0
0.0,1.0,1.50388,,,,,,tiara_05s.jpg,0.0,clockno_up.jpg,1.0,13,,,,,,,,,,,,,,,,,,0.0,0.0,0.0,0.0,1.0,,,,,,,,,,
0.0,1.0,0.521845,,,,,,refrigerator_07s.jpg,0.0,clockno_default.jpg,1.0,13,,,,,,,,,,,,,,,,,,0.0,1.0,1.0,1.0,1.0,,,,,,,,,,
0.0,1.0,0.665575,,,,,,roller_coaster_07s.jpg,0.0,clockno_default.jpg,1.0,13,,,,,,,,,,,,,,,,,,0.0,2.0,2.0,2.0,1.0,,,,,,,,,,
0.0,1.0,0.66494,,,,,,crystal_ball_12s.jpg,0.0,clockno_default.jpg,1.0,13,,,,,,,,,,,,,,,,,,0.0,3.0,3.0,3.0,1.0,,,,,,,,,,
0.0,1.0,0.72987,,,,,,racehorse_03s.jpg,0.0,clockno_default.jpg,1.0,13,,,,,,,,,,,,,,,,,,0.0,4.0,4.0,4.0,1.0,,,,,,,,,,
0.0,1.0,0.887975,,,,,,lamb_chop_07s.jpg,0.0,clockno_default.jpg,1.0,13,,,,,,,,,,,,,,,,,,0.0,5.0,5.0,5.0,1.0,,,,,,,,,,
0.0,1.0,0.74724,,,,,,paper_towel_03s.jpg,0.0,clockno_up.jpg,2.0,13,,,,,,,,,,,,,,,,,,0.0,6.0,6.0,6.0,1.0,,,,,,,,,,
0.0,1.0,0.640335,,,,,,radiator_05s.jpg,0.0,clockno_default.jpg,2.0,13,,,,,,,,,,,,,,,,,,0.0,7.0,7.0,7.0,1.0,,,,,,,,,,
0.0,1.0,0.76347,,,,,,frog_09s.jpg,0.0,clockno_default.jpg,2.0,13,,,,,,,,,,,,,,,,,,0.0,8.0,8.0,8.0,1.0,,,,,,,,,,
1.0,1.0,1.36085,,,,,,radiator_05s.jpg,1.0,clockno_default.jpg,2.0,13,,,,,,,,,,,,,,,,,,0.0,9.0,9.0,9.0,1.0,,,,,,,,,,
0.0,1.0,0.719375,,,,,,chocolate_01b.jpg,0.0,clockno_default.jpg,2.0,13,,,,,,,,,,,,,,,,,,0.0,10.0,10.0,10.0,1.0,,,,,,,,,,
0.0,1.0,0.816095,,,,,,metronome_03s.jpg,0.0,clockno_up.jpg,3.0,13,,,,,,,,,,,,,,,,,,0.0,11.0,11.0,11.0,1.0,,,,,,,,,,
0.0,1.0,0.70371,,,,,,kettle_08s.jpg,0.0,clockno_default.jpg,3.0,13,,,,,,,,,,,,,,,,,,0.0,12.0,12.0,12.0,1.0,,,,,,,,,,
0.0,1.0,0.930385,,,,,,refrigerator_07s.jpg,0.0,clockno_default.jpg,3.0,13,,,,,,,,,,,,,,,,,,0.0,13.0,13.0,13.0,1.0,,,,,,,,,,
0.0,1.0,0.90305,,,,,,eyedropper_12s.jpg,0.0,clockno_default.jpg,3.0,13,,,,,,,,,,,,,,,,,,0.0,14.0,14.0,14.0,1.0,,,,,,,,,,
0.0,1.0,0.74259,,,,,,totem_pole_05s.jpg,0.0,clockno_default.jpg,3.0,13,,,,,,,,,,,,,,,,,,0.0,15.0,15.0,15.0,1.0,,,,,,,,,,
0.0,1.0,0.880625,,,,,,aluminum_foil_08s.jpg,0.0,clockno_default.jpg,3.0,13,,,,,,,,,,,,,,,,,,0.0,16.0,16.0,16.0,1.0,,,,,,,,,,
0.0,1.0,0.99114,,,,,,birdcage_08s.jpg,0.0,clockno_default.jpg,3.0,13,,,,,,,,,,,,,,,,,,0.0,17.0,17.0,17.0,1.0,,,,,,,,,,
0.0,1.0,0.975005,,,,,,gargoyle_08s.jpg,0.0,clockno_up.jpg,4.0,13,,,,,,,,,,,,,,,,,,0.0,18.0,18.0,18.0,1.0,,,,,,,,,,
0.0,1.0,0.685545,,,,,,cobra_05s.jpg,0.0,clockno_default.jpg,4.0,13,,,,,,,,,,,,,,,,,,0.0,19.0,19.0,19.0,1.0,,,,,,,,,,
0.0,1.0,1.198645,,,,,,bank_06s.jpg,0.0,clockno_default.jpg,4.0,13,,,,,,,,,,,,,,,,,,0.0,20.0,20.0,20.0,1.0,,,,,,,,,,
0.0,1.0,0.88553,,,,,,spatula04.jpg,0.0,clockno_default.jpg,4.0,13,,,,,,,,,,,,,,,,,,0.0,21.0,21.0,21.0,1.0,,,,,,,,,,
0.0,1.0,0.613605,,,,,,syringe_02s.jpg,0.0,clockno_default.jpg,4.0,13,,,,,,,,,,,,,,,,,,0.0,22.0,22.0,22.0,1.0,,,,,,,,,,
0.0,1.0,0.949805,,,,,,surfboard_11s.jpg,0.0,clockno_up.jpg,5.0,13,,,,,,,,,,,,,,,,,,0.0,23.0,23.0,23.0,1.0,,,,,,,,,,
0.0,1.0,0.916965,,,,,,birthday_cake_09s.jpg,0.0,clockno_default.jpg,5.0,13,,,,,,,,,,,,,,,,,,0.0,24.0,24.0,24.0,1.0,,,,,,,,,,
0.0,1.0,0.98158,,,,,,pretzel_09s.jpg,0.0,clockno_default.jpg,5.0,13,,,,,,,,,,,,,,,,,,0.0,25.0,25.0,25.0,1.0,,,,,,,,,,
0.0,1.0,0.62967,,,,,,possum_09s.jpg,0.0,clockno_default.jpg,5.0,13,,,,,,,,,,,,,,,,,,0.0,26.0,26.0,26.0,1.0,,,,,,,,,,
0.0,1.0,0.78161,,,,,,magnet_03s.jpg,0.0,clockno_default.jpg,5.0,13,,,,,,,,,,,,,,,,,,0.0,27.0,27.0,27.0,1.0,,,,,,,,,,
0.0,1.0,0.77328,,,,,,crate_05s.jpg,0.0,clockno_default.jpg,5.0,13,,,,,,,,,,,,,,,,,,0.0,28.0,28.0,28.0,1.0,,,,,,,,,,
0.0,1.0,0.868535,,,,,,fossil_06s.jpg,0.0,clockno_up.jpg,6.0,13,,,,,,,,,,,,,,,,,,0.0,29.0,29.0,29.0,1.0,,,,,,,,,,
0.0,1.0,0.540485,,,,,,contact_lens_15s.jpg,0.0,clockno_default.jpg,6.0,13,,,,,,,,,,,,,,,,,,0.0,30.0,30.0,30.0,1.0,,,,,,,,,,
0.0,1.0,0.58048,,,,,,sugar_cube_11s.jpg,0.0,clockno_default.jpg,6.0,13,,,,,,,,,,,,,,,,,,0.0,31.0,31.0,31.0,1.0,,,,,,,,,,
0.0,1.0,0.67641,,,,,,key_07s.jpg,0.0,clockno_default.jpg,6.0,13,,,,,,,,,,,,,,,,,,0.0,32.0,32.0,32.0,1.0,,,,,,,,,,
0.0,1.0,1.197765,,,,,,birthday_cake_09s.jpg,0.0,clockno_default.jpg,6.0,13,,,,,,,,,,,,,,,,,,0.0,33.0,33.0,33.0,1.0,,,,,,,,,,
0.0,1.0,0.71592,,,,,,kangaroo_02s.jpg,0.0,clockno_default.jpg,6.0,13,,,,,,,,,,,,,,,,,,0.0,34.0,34.0,34.0,1.0,,,,,,,,,,
0.0,1.0,0.771,,,,,,juicer1_08s.jpg,0.0,clockno_default.jpg,6.0,13,,,,,,,,,,,,,,,,,,0.0,35.0,35.0,35.0,1.0,,,,,,,,,,
,,,,,,,,,1.0,,,13,1.0,1.0,1.235275,,,,,,magnet_03s.jpg,contact_lens_15s.jpg,,,,,,,,,,,,,0.0,0.0,0.0,0.0,1.0,,,,,
,,,,,,,,,0.0,,,13,0.0,1.0,1.01489,,,,,,paper_towel_03s.jpg,crystal_ball_12s.jpg,,,,,,,,,,,,,0.0,1.0,1.0,1.0,1.0,,,,,
,,,,,,,,,0.0,,,13,0.0,1.0,1.848975,,,,,,frog_09s.jpg,lamb_chop_07s.jpg,,,,,,,,,,,,,0.0,2.0,2.0,2.0,1.0,,,,,
,,,,,,,,,0.0,,,13,0.0,1.0,1.58414,,,,,,juicer1_08s.jpg,key_07s.jpg,,,,,,,,,,,,,0.0,3.0,3.0,3.0,1.0,,,,,
,,,,,,,,,0.0,,,13,0.0,1.0,1.29179,,,,,,eyedropper_12s.jpg,metronome_03s.jpg,,,,,,,,,,,,,0.0,4.0,4.0,4.0,1.0,,,,,
,,,,,,,,,0.0,,,13,1.0,0.0,1.524545,,,,,,totem_pole_05s.jpg,kettle_08s.jpg,,,,,,,,,,,,,0.0,5.0,5.0,5.0,1.0,,,,,
,,,,,,,,,,,,13,,,,,,,,,,,,,,,,clockno_present_5_5.xlsx,clockno_compare_task_5_5.xlsx,,,,,,,,,,,0.0,4.0,4.0,4.0,1.0
0.0,1.0,1.107995,,,,,,fishhook_06s.jpg,0.0,clockno_up.jpg,1.0,13,,,,,,,,,,,,,,,,,,0.0,0.0,0.0,0.0,1.0,,,,,,,,,,
1.0,1.0,0.70236,,,,,,fishhook_06s.jpg,1.0,clockno_default.jpg,1.0,13,,,,,,,,,,,,,,,,,,0.0,1.0,1.0,1.0,1.0,,,,,,,,,,
1.0,1.0,0.74877,,,,,,fishhook_06s.jpg,1.0,clockno_default.jpg,1.0,13,,,,,,,,,,,,,,,,,,0.0,2.0,2.0,2.0,1.0,,,,,,,,,,
0.0,1.0,0.837575,,,,,,chip_04s.jpg,0.0,clockno_default.jpg,1.0,13,,,,,,,,,,,,,,,,,,0.0,3.0,3.0,3.0,1.0,,,,,,,,,,
0.0,1.0,0.931915,,,,,,kite_04s.jpg,0.0,clockno_default.jpg,1.0,13,,,,,,,,,,,,,,,,,,0.0,4.0,4.0,4.0,1.0,,,,,,,,,,
1.0,1.0,1.173425,,,,,,fishhook_06s.jpg,1.0,clockno_default.jpg,1.0,13,,,,,,,,,,,,,,,,,,0.0,5.0,5.0,5.0,1.0,,,,,,,,,,
0.0,1.0,0.891395,,,,,,potpourri_03s.jpg,0.0,clockno_default.jpg,1.0,13,,,,,,,,,,,,,,,,,,0.0,6.0,6.0,6.0,1.0,,,,,,,,,,
0.0,1.0,0.7797,,,,,,blazer_02s.jpg,0.0,clockno_up.jpg,2.0,13,,,,,,,,,,,,,,,,,,0.0,7.0,7.0,7.0,1.0,,,,,,,,,,
0.0,1.0,0.67675,,,,,,toy_04s.jpg,0.0,clockno_default.jpg,2.0,13,,,,,,,,,,,,,,,,,,0.0,8.0,8.0,8.0,1.0,,,,,,,,,,
0.0,1.0,0.5472,,,,,,poinsettia_04s.jpg,0.0,clockno_default.jpg,2.0,13,,,,,,,,,,,,,,,,,,0.0,9.0,9.0,9.0,1.0,,,,,,,,,,
0.0,1.0,0.963595,,,,,,punch2_09s.jpg,0.0,clockno_default.jpg,2.0,13,,,,,,,,,,,,,,,,,,0.0,10.0,10.0,10.0,1.0,,,,,,,,,,
1.0,1.0,1.108215,,,,,,toy_04s.jpg,1.0,clockno_default.jpg,2.0,13,,,,,,,,,,,,,,,,,,0.0,11.0,11.0,11.0,1.0,,,,,,,,,,
0.0,1.0,0.65861,,,,,,quilt_03s.jpg,0.0,clockno_up.jpg,3.0,13,,,,,,,,,,,,,,,,,,0.0,12.0,12.0,12.0,1.0,,,,,,,,,,
0.0,0.0,1.004635,,,,,,quilt_03s.jpg,1.0,clockno_default.jpg,3.0,13,,,,,,,,,,,,,,,,,,0.0,13.0,13.0,13.0,1.0,,,,,,,,,,
0.0,1.0,0.72227,,,,,,toad_09s.jpg,0.0,clockno_default.jpg,3.0,13,,,,,,,,,,,,,,,,,,0.0,14.0,14.0,14.0,1.0,,,,,,,,,,
1.0,1.0,0.700135,,,,,,toad_09s.jpg,1.0,clockno_default.jpg,3.0,13,,,,,,,,,,,,,,,,,,0.0,15.0,15.0,15.0,1.0,,,,,,,,,,
1.0,1.0,0.818925,,,,,,quilt_03s.jpg,1.0,clockno_default.jpg,3.0,13,,,,,,,,,,,,,,,,,,0.0,16.0,16.0,16.0,1.0,,,,,,,,,,
0.0,1.0,0.6105,,,,,,cucumber_07s.jpg,0.0,clockno_default.jpg,3.0,13,,,,,,,,,,,,,,,,,,0.0,17.0,17.0,17.0,1.0,,,,,,,,,,
0.0,1.0,1.154135,,,,,,turf_03s.jpg,0.0,clockno_default.jpg,3.0,13,,,,,,,,,,,,,,,,,,0.0,18.0,18.0,18.0,1.0,,,,,,,,,,
0.0,1.0,0.64288,,,,,,slingshot_07s.jpg,0.0,clockno_up.jpg,4.0,13,,,,,,,,,,,,,,,,,,0.0,19.0,19.0,19.0,1.0,,,,,,,,,,
0.0,1.0,1.02593,,,,,,toy_04s.jpg,0.0,clockno_default.jpg,4.0,13,,,,,,,,,,,,,,,,,,0.0,20.0,20.0,20.0,1.0,,,,,,,,,,
0.0,1.0,0.6098,,,,,,rice_12s.jpg,0.0,clockno_default.jpg,4.0,13,,,,,,,,,,,,,,,,,,0.0,21.0,21.0,21.0,1.0,,,,,,,,,,
0.0,1.0,0.705245,,,,,,flip_flop_03s.jpg,0.0,clockno_default.jpg,4.0,13,,,,,,,,,,,,,,,,,,0.0,22.0,22.0,22.0,1.0,,,,,,,,,,
0.0,1.0,0.962085,,,,,,knitting_needle_04s.jpg,0.0,clockno_default.jpg,4.0,13,,,,,,,,,,,,,,,,,,0.0,23.0,23.0,23.0,1.0,,,,,,,,,,
0.0,1.0,0.736785,,,,,,crossbow_10s.jpg,0.0,clockno_default.jpg,4.0,13,,,,,,,,,,,,,,,,,,0.0,24.0,24.0,24.0,1.0,,,,,,,,,,
0.0,1.0,0.76424,,,,,,rocking_chair_05s.jpg,0.0,clockno_up.jpg,5.0,13,,,,,,,,,,,,,,,,,,0.0,25.0,25.0,25.0,1.0,,,,,,,,,,
0.0,1.0,0.648345,,,,,,fire_pit_10s.jpg,0.0,clockno_default.jpg,5.0,13,,,,,,,,,,,,,,,,,,0.0,26.0,26.0,26.0,1.0,,,,,,,,,,
1.0,1.0,0.76523,,,,,,rocking_chair_05s.jpg,1.0,clockno_default.jpg,5.0,13,,,,,,,,,,,,,,,,,,0.0,27.0,27.0,27.0,1.0,,,,,,,,,,
1.0,1.0,0.94724,,,,,,rocking_chair_05s.jpg,1.0,clockno_default.jpg,5.0,13,,,,,,,,,,,,,,,,,,0.0,28.0,28.0,28.0,1.0,,,,,,,,,,
0.0,1.0,0.961235,,,,,,toad_09s.jpg,0.0,clockno_default.jpg,5.0,13,,,,,,,,,,,,,,,,,,0.0,29.0,29.0,29.0,1.0,,,,,,,,,,
1.0,1.0,0.99246,,,,,,rocking_chair_05s.jpg,1.0,clockno_default.jpg,5.0,13,,,,,,,,,,,,,,,,,,0.0,30.0,30.0,30.0,1.0,,,,,,,,,,
0.0,1.0,1.12046,,,,,,money_07s.jpg,0.0,clockno_up.jpg,6.0,13,,,,,,,,,,,,,,,,,,0.0,31.0,31.0,31.0,1.0,,,,,,,,,,
0.0,1.0,0.623695,,,,,,boomerang_06s.jpg,0.0,clockno_default.jpg,6.0,13,,,,,,,,,,,,,,,,,,0.0,32.0,32.0,32.0,1.0,,,,,,,,,,
0.0,1.0,0.960385,,,,,,mitten_10s.jpg,0.0,clockno_default.jpg,6.0,13,,,,,,,,,,,,,,,,,,0.0,33.0,33.0,33.0,1.0,,,,,,,,,,
0.0,1.0,0.67975,,,,,,cereal_04s.jpg,0.0,clockno_default.jpg,6.0,13,,,,,,,,,,,,,,,,,,0.0,34.0,34.0,34.0,1.0,,,,,,,,,,
0.0,1.0,1.00763,,,,,,mailbox_11s.jpg,0.0,clockno_default.jpg,6.0,13,,,,,,,,,,,,,,,,,,0.0,35.0,35.0,35.0,1.0,,,,,,,,,,
,,,,,,,,,1.0,,,13,1.0,1.0,1.33839,,,,,,knitting_needle_04s.jpg,fire_pit_10s.jpg,,,,,,,,,,,,,0.0,0.0,0.0,0.0,1.0,,,,,
,,,,,,,,,1.0,,,13,0.0,0.0,0.99098,,,,,,kite_04s.jpg,blazer_02s.jpg,,,,,,,,,,,,,0.0,1.0,1.0,1.0,1.0,,,,,
,,,,,,,,,1.0,,,13,1.0,1.0,1.234595,,,,,,potpourri_03s.jpg,poinsettia_04s.jpg,,,,,,,,,,,,,0.0,2.0,2.0,2.0,1.0,,,,,
,,,,,,,,,1.0,,,13,1.0,1.0,1.35653,,,,,,slingshot_07s.jpg,flip_flop_03s.jpg,,,,,,,,,,,,,0.0,3.0,3.0,3.0,1.0,,,,,
,,,,,,,,,1.0,,,13,0.0,0.0,1.1484,,,,,,money_07s.jpg,cereal_04s.jpg,,,,,,,,,,,,,0.0,4.0,4.0,4.0,1.0,,,,,
,,,,,,,,,1.0,,,13,0.0,0.0,1.639195,,,,,,boomerang_06s.jpg,mailbox_11s.jpg,,,,,,,,,,,,,0.0,5.0,5.0,5.0,1.0,,,,,
