key_resp.keys,key_resp.corr,key_resp.rt,noclock_loop.thisRepN,noclock_loop.thisTrialN,noclock_loop.thisN,noclock_loop.thisIndex,noclock_loop.ran,pictures,answer,clock,segment,participant,key_resp_2.keys,key_resp_2.corr,key_resp_2.rt,noclock_loop2.thisRepN,noclock_loop2.thisTrialN,noclock_loop2.thisN,noclock_loop2.thisIndex,noclock_loop2.ran,item_a,item_b,noclock_condition.thisRepN,noclock_condition.thisTrialN,noclock_condition.thisN,noclock_condition.thisIndex,noclock_condition.ran,present,compare,present_segment.thisRepN,present_segment.thisTrialN,present_segment.thisN,present_segment.thisIndex,present_segment.ran,compare_segment.thisRepN,compare_segment.thisTrialN,compare_segment.thisN,compare_segment.thisIndex,compare_segment.ran,clock_conditions.thisRepN,clock_conditions.thisTrialN,clock_conditions.thisN,clock_conditions.thisIndex,clock_conditions.ran
0.0,1.0,1.07112,0.0,0.0,0.0,0.0,1.0,tube_top_03s.jpg,0.0,clockno_up.jpg,1.0,60,,,,,,,,,,,,,,,,,,,,,,,,,,,,,,,,
0.0,0.0,1.214025,0.0,1.0,1.0,1.0,1.0,tube_top_03s.jpg,1.0,clockno_default.jpg,1.0,60,,,,,,,,,,,,,,,,,,,,,,,,,,,,,,,,
0.0,1.0,1.63424,0.0,2.0,2.0,2.0,1.0,piggy_bank_02s.jpg,0.0,clockno_default.jpg,1.0,60,,,,,,,,,,,,,,,,,,,,,,,,,,,,,,,,
0.0,1.0,0.83431,0.0,3.0,3.0,3.0,1.0,peach_04s.jpg,0.0,clockno_default.jpg,1.0,60,,,,,,,,,,,,,,,,,,,,,,,,,,,,,,,,
0.0,1.0,0.757575,0.0,4.0,4.0,4.0,1.0,petri_dish_12s.jpg,0.0,clockno_default.jpg,1.0,60,,,,,,,,,,,,,,,,,,,,,,,,,,,,,,,,
0.0,1.0,0.750655,0.0,5.0,5.0,5.0,1.0,memory_stick_11s.jpg,0.0,clockno_default.jpg,1.0,60,,,,,,,,,,,,,,,,,,,,,,,,,,,,,,,,
1.0,1.0,1.098,0.0,6.0,6.0,6.0,1.0,piggy_bank_02s.jpg,1.0,clockno_default.jpg,1.0,60,,,,,,,,,,,,,,,,,,,,,,,,,,,,,,,,
0.0,1.0,0.816405,0.0,7.0,7.0,7.0,1.0,tweezers_03s.jpg,0.0,clockno_up.jpg,2.0,60,,,,,,,,,,,,,,,,,,,,,,,,,,,,,,,,
0.0,1.0,0.86998,0.0,8.0,8.0,8.0,1.0,coffee_filter_10s.jpg,0.0,clockno_default.jpg,2.0,60,,,,,,,,,,,,,,,,,,,,,,,,,,,,,,,,
0.0,1.0,0.6819,0.0,9.0,9.0,9.0,1.0,tambourine_06s.jpg,0.0,clockno_default.jpg,2.0,60,,,,,,,,,,,,,,,,,,,,,,,,,,,,,,,,
0.0,1.0,0.99595,0.0,10.0,10.0,10.0,1.0,ukulele_02s.jpg,0.0,clockno_default.jpg,2.0,60,,,,,,,,,,,,,,,,,,,,,,,,,,,,,,,,
0.0,1.0,0.76325,0.0,11.0,11.0,11.0,1.0,towel_rack_04s.jpg,0.0,clockno_default.jpg,2.0,60,,,,,,,,,,,,,,,,,,,,,,,,,,,,,,,,
0.0,1.0,0.779755,0.0,12.0,12.0,12.0,1.0,ravioli_08s.jpg,0.0,clockno_up.jpg,3.0,60,,,,,,,,,,,,,,,,,,,,,,,,,,,,,,,,
1.0,1.0,0.833735,0.0,13.0,13.0,13.0,1.0,ravioli_08s.jpg,1.0,clockno_default.jpg,3.0,60,,,,,,,,,,,,,,,,,,,,,,,,,,,,,,,,
0.0,1.0,0.896045,0.0,14.0,14.0,14.0,1.0,peanut_butter_08s.jpg,0.0,clockno_default.jpg,3.0,60,,,,,,,,,,,,,,,,,,,,,,,,,,,,,,,,
0.0,1.0,0.904045,0.0,15.0,15.0,15.0,1.0,sledgehammer_03s.jpg,0.0,clockno_default.jpg,3.0,60,,,,,,,,,,,,,,,,,,,,,,,,,,,,,,,,
0.0,1.0,1.064345,0.0,16.0,16.0,16.0,1.0,syringe_02s.jpg,0.0,clockno_default.jpg,3.0,60,,,,,,,,,,,,,,,,,,,,,,,,,,,,,,,,
0.0,1.0,0.86747,0.0,17.0,17.0,17.0,1.0,quilt_03s.jpg,0.0,clockno_default.jpg,3.0,60,,,,,,,,,,,,,,,,,,,,,,,,,,,,,,,,
1.0,1.0,1.08687,0.0,18.0,18.0,18.0,1.0,syringe_02s.jpg,1.0,clockno_default.jpg,3.0,60,,,,,,,,,,,,,,,,,,,,,,,,,,,,,,,,
0.0,1.0,1.319005,0.0,19.0,19.0,19.0,1.0,radiator_05s.jpg,0.0,clockno_up.jpg,4.0,60,,,,,,,,,,,,,,,,,,,,,,,,,,,,,,,,
0.0,1.0,1.268615,0.0,20.0,20.0,20.0,1.0,jelly_bean_06s.jpg,0.0,clockno_default.jpg,4.0,60,,,,,,,,,,,,,,,,,,,,,,,,,,,,,,,,
0.0,1.0,0.617235,0.0,21.0,21.0,21.0,1.0,top_hat_11s.jpg,0.0,clockno_default.jpg,4.0,60,,,,,,,,,,,,,,,,,,,,,,,,,,,,,,,,
1.0,1.0,1.082455,0.0,22.0,22.0,22.0,1.0,radiator_05s.jpg,1.0,clockno_default.jpg,4.0,60,,,,,,,,,,,,,,,,,,,,,,,,,,,,,,,,
0.0,1.0,0.83034,0.0,23.0,23.0,23.0,1.0,contact_lens_15s.jpg,0.0,clockno_default.jpg,4.0,60,,,,,,,,,,,,,,,,,,,,,,,,,,,,,,,,
0.0,1.0,0.835685,0.0,24.0,24.0,24.0,1.0,rake_06s.jpg,0.0,clockno_default.jpg,4.0,60,,,,,,,,,,,,,,,,,,,,,,,,,,,,,,,,
0.0,1.0,1.085415,0.0,25.0,25.0,25.0,1.0,surfboard_11s.jpg,0.0,clockno_up.jpg,5.0,60,,,,,,,,,,,,,,,,,,,,,,,,,,,,,,,,
0.0,1.0,0.888605,0.0,26.0,26.0,26.0,1.0,toy_04s.jpg,0.0,clockno_default.jpg,5.0,60,,,,,,,,,,,,,,,,,,,,,,,,,,,,,,,,
0.0,1.0,1.147185,0.0,27.0,27.0,27.0,1.0,raccoon_02s.jpg,0.0,clockno_default.jpg,5.0,60,,,,,,,,,,,,,,,,,,,,,,,,,,,,,,,,
0.0,1.0,0.717555,0.0,28.0,28.0,28.0,1.0,phone_01b.jpg,0.0,clockno_default.jpg,5.0,60,,,,,,,,,,,,,,,,,,,,,,,,,,,,,,,,
0.0,1.0,2.018365,0.0,29.0,29.0,29.0,1.0,ukulele_02s.jpg,0.0,clockno_default.jpg,5.0,60,,,,,,,,,,,,,,,,,,,,,,,,,,,,,,,,
0.0,1.0,1.149625,0.0,30.0,30.0,30.0,1.0,raft_09s.jpg,0.0,clockno_default.jpg,5.0,60,,,,,,,,,,,,,,,,,,,,,,,,,,,,,,,,
0.0,1.0,0.924875,0.0,31.0,31.0,31.0,1.0,kettle_08s.jpg,0.0,clockno_up.jpg,6.0,60,,,,,,,,,,,,,,,,,,,,,,,,,,,,,,,,
0.0,1.0,0.891255,0.0,32.0,32.0,32.0,1.0,target_11s.jpg,0.0,clockno_default.jpg,6.0,60,,,,,,,,,,,,,,,,,,,,,,,,,,,,,,,,
0.0,1.0,1.44449,0.0,33.0,33.0,33.0,1.0,icicle_04s.jpg,0.0,clockno_default.jpg,6.0,60,,,,,,,,,,,,,,,,,,,,,,,,,,,,,,,,
0.0,1.0,0.9293,0.0,34.0,34.0,34.0,1.0,timer_03s.jpg,0.0,clockno_default.jpg,6.0,60,,,,,,,,,,,,,,,,,,,,,,,,,,,,,,,,
1.0,1.0,0.71799,0.0,35.0,35.0,35.0,1.0,timer_03s.jpg,1.0,clockno_default.jpg,6.0,60,,,,,,,,,,,,,,,,,,,,,,,,,,,,,,,,
,,,,,,,,,0.0,,,60,1.0,0.0,1.372,0.0,0.0,0.0,0.0,1.0,tweezers_03s.jpg,petri_dish_12s.jpg,,,,,,,,,,,,,,,,,,,,,,
,,,,,,,,,1.0,,,60,0.0,0.0,1.66274,0.0,1.0,1.0,1.0,1.0,memory_stick_11s.jpg,coffee_filter_10s.jpg,,,,,,,,,,,,,,,,,,,,,,
,,,,,,,,,0.0,,,60,1.0,0.0,1.40195,0.0,2.0,2.0,2.0,1.0,toy_04s.jpg,contact_lens_15s.jpg,,,,,,,,,,,,,,,,,,,,,,
,,,,,,,,,0.0,,,60,1.0,0.0,1.53031,0.0,3.0,3.0,3.0,1.0,rake_06s.jpg,top_hat_11s.jpg,,,,,,,,,,,,,,,,,,,,,,
,,,,,,,,,0.0,,,60,0.0,1.0,2.15446,0.0,4.0,4.0,4.0,1.0,phone_01b.jpg,surfboard_11s.jpg,,,,,,,,,,,,,,,,,,,,,,
,,,,,,,,,1.0,,,60,0.0,0.0,1.66975,0.0,5.0,5.0,5.0,1.0,peanut_butter_08s.jpg,quilt_03s.jpg,,,,,,,,,,,,,,,,,,,,,,
,,,,,,,,,,,,60,,,,,,,,,,,0.0,0.0,0.0,0.0,1.0,clockno_present_1_16.xlsx,clockno_compare_task_1_16.xlsx,,,,,,,,,,,,,,,
0.0,1.0,0.936235,0.0,0.0,0.0,0.0,1.0,juicer2_06s.jpg,0.0,clock_5_1.png,1.0,60,,,,,,,,,,,,,,,,,,,,,,,,,,,,,,,,
,0.0,,0.0,1.0,1.0,1.0,1.0,potholder_02s.jpg,0.0,clock_5_2.png,1.0,60,,,,,,,,,,,,,,,,,,,,,,,,,,,,,,,,
0.0,1.0,0.720525,0.0,2.0,2.0,2.0,1.0,pencil02a.jpg,0.0,clock_5_3.png,1.0,60,,,,,,,,,,,,,,,,,,,,,,,,,,,,,,,,
0.0,1.0,0.70372,0.0,3.0,3.0,3.0,1.0,chopsticks_08s.jpg,0.0,clock_5_4.png,1.0,60,,,,,,,,,,,,,,,,,,,,,,,,,,,,,,,,
1.0,1.0,1.094065,0.0,4.0,4.0,4.0,1.0,potholder_02s.jpg,1.0,clock_5_5.png,1.0,60,,,,,,,,,,,,,,,,,,,,,,,,,,,,,,,,
0.0,1.0,0.779695,0.0,5.0,5.0,5.0,1.0,fondue_07s.jpg,0.0,clock_5_1.png,2.0,60,,,,,,,,,,,,,,,,,,,,,,,,,,,,,,,,
0.0,1.0,0.6564,0.0,6.0,6.0,6.0,1.0,pillbox_04s.jpg,0.0,clock_5_2.png,2.0,60,,,,,,,,,,,,,,,,,,,,,,,,,,,,,,,,
0.0,1.0,0.65334,0.0,7.0,7.0,7.0,1.0,pumpkin_03s.jpg,0.0,clock_5_3.png,2.0,60,,,,,,,,,,,,,,,,,,,,,,,,,,,,,,,,
0.0,1.0,0.64932,0.0,8.0,8.0,8.0,1.0,cardinal_07s.jpg,0.0,clock_5_4.png,2.0,60,,,,,,,,,,,,,,,,,,,,,,,,,,,,,,,,
0.0,1.0,0.61692,0.0,9.0,9.0,9.0,1.0,swordfish_05s.jpg,0.0,clock_5_5.png,2.0,60,,,,,,,,,,,,,,,,,,,,,,,,,,,,,,,,
0.0,1.0,0.699765,0.0,10.0,10.0,10.0,1.0,turkey_10s.jpg,0.0,clock_6_1.png,3.0,60,,,,,,,,,,,,,,,,,,,,,,,,,,,,,,,,
0.0,1.0,0.850865,0.0,11.0,11.0,11.0,1.0,road_sign_05s.jpg,0.0,clock_6_2.png,3.0,60,,,,,,,,,,,,,,,,,,,,,,,,,,,,,,,,
1.0,1.0,1.123195,0.0,12.0,12.0,12.0,1.0,road_sign_05s.jpg,1.0,clock_6_3.png,3.0,60,,,,,,,,,,,,,,,,,,,,,,,,,,,,,,,,
0.0,1.0,1.03548,0.0,13.0,13.0,13.0,1.0,rhubarb_03s.jpg,0.0,clock_6_4.png,3.0,60,,,,,,,,,,,,,,,,,,,,,,,,,,,,,,,,
0.0,1.0,0.70482,0.0,14.0,14.0,14.0,1.0,ivy_12s.jpg,0.0,clock_6_5.png,3.0,60,,,,,,,,,,,,,,,,,,,,,,,,,,,,,,,,
0.0,1.0,0.970625,0.0,15.0,15.0,15.0,1.0,boar_10s.jpg,0.0,clock_6_6.png,3.0,60,,,,,,,,,,,,,,,,,,,,,,,,,,,,,,,,
0.0,1.0,1.38998,0.0,16.0,16.0,16.0,1.0,mango_09s.jpg,0.0,clock_6_1.png,4.0,60,,,,,,,,,,,,,,,,,,,,,,,,,,,,,,,,
0.0,1.0,0.933305,0.0,17.0,17.0,17.0,1.0,feather02.jpg,0.0,clock_6_2.png,4.0,60,,,,,,,,,,,,,,,,,,,,,,,,,,,,,,,,
0.0,1.0,1.12161,0.0,18.0,18.0,18.0,1.0,pumpkin_03s.jpg,0.0,clock_6_3.png,4.0,60,,,,,,,,,,,,,,,,,,,,,,,,,,,,,,,,
0.0,1.0,0.799915,0.0,19.0,19.0,19.0,1.0,giraffe_11s.jpg,0.0,clock_6_4.png,4.0,60,,,,,,,,,,,,,,,,,,,,,,,,,,,,,,,,
0.0,1.0,1.003775,0.0,20.0,20.0,20.0,1.0,meatball_13s.jpg,0.0,clock_6_5.png,4.0,60,,,,,,,,,,,,,,,,,,,,,,,,,,,,,,,,
0.0,1.0,1.12117,0.0,21.0,21.0,21.0,1.0,turkey_10s.jpg,0.0,clock_6_6.png,4.0,60,,,,,,,,,,,,,,,,,,,,,,,,,,,,,,,,
0.0,1.0,0.926375,0.0,22.0,22.0,22.0,1.0,stump_02s.jpg,0.0,clock_7_1.png,5.0,60,,,,,,,,,,,,,,,,,,,,,,,,,,,,,,,,
0.0,1.0,0.88674,0.0,23.0,23.0,23.0,1.0,ostrich_06s.jpg,0.0,clock_7_2.png,5.0,60,,,,,,,,,,,,,,,,,,,,,,,,,,,,,,,,
0.0,1.0,0.850785,0.0,24.0,24.0,24.0,1.0,amber_04s.jpg,0.0,clock_7_3.png,5.0,60,,,,,,,,,,,,,,,,,,,,,,,,,,,,,,,,
0.0,1.0,1.254945,0.0,25.0,25.0,25.0,1.0,blender_08s.jpg,0.0,clock_7_4.png,5.0,60,,,,,,,,,,,,,,,,,,,,,,,,,,,,,,,,
0.0,1.0,0.98627,0.0,26.0,26.0,26.0,1.0,trumpet_06s.jpg,0.0,clock_7_5.png,5.0,60,,,,,,,,,,,,,,,,,,,,,,,,,,,,,,,,
1.0,0.0,1.920615,0.0,27.0,27.0,27.0,1.0,ivy_12s.jpg,0.0,clock_7_6.png,5.0,60,,,,,,,,,,,,,,,,,,,,,,,,,,,,,,,,
0.0,1.0,0.785005,0.0,28.0,28.0,28.0,1.0,ironing_board_07s.jpg,0.0,clock_7_7.png,5.0,60,,,,,,,,,,,,,,,,,,,,,,,,,,,,,,,,
0.0,1.0,0.959975,0.0,29.0,29.0,29.0,1.0,lavender_10s.jpg,0.0,clock_7_1.png,6.0,60,,,,,,,,,,,,,,,,,,,,,,,,,,,,,,,,
0.0,1.0,0.838895,0.0,30.0,30.0,30.0,1.0,pea_11s.jpg,0.0,clock_7_2.png,6.0,60,,,,,,,,,,,,,,,,,,,,,,,,,,,,,,,,
0.0,1.0,1.0202,0.0,31.0,31.0,31.0,1.0,sundae_08s.jpg,0.0,clock_7_3.png,6.0,60,,,,,,,,,,,,,,,,,,,,,,,,,,,,,,,,
0.0,1.0,0.86925,0.0,32.0,32.0,32.0,1.0,champagne_18s.jpg,0.0,clock_7_4.png,6.0,60,,,,,,,,,,,,,,,,,,,,,,,,,,,,,,,,
0.0,1.0,0.90734,0.0,33.0,33.0,33.0,1.0,turtle_08s.jpg,0.0,clock_7_5.png,6.0,60,,,,,,,,,,,,,,,,,,,,,,,,,,,,,,,,
0.0,1.0,0.966425,0.0,34.0,34.0,34.0,1.0,gargoyle_08s.jpg,0.0,clock_7_6.png,6.0,60,,,,,,,,,,,,,,,,,,,,,,,,,,,,,,,,
0.0,1.0,0.92247,0.0,35.0,35.0,35.0,1.0,crate_05s.jpg,0.0,clock_7_7.png,6.0,60,,,,,,,,,,,,,,,,,,,,,,,,,,,,,,,,
,,,,,,,,,1.0,,,60,0.0,0.0,1.826155,0.0,0.0,0.0,0.0,1.0,pencil02a.jpg,fondue_07s.jpg,,,,,,,,,,,,,,,,,,,,,,
,,,,,,,,,0.0,,,60,1.0,0.0,1.4331,0.0,1.0,1.0,1.0,1.0,mango_09s.jpg,rhubarb_03s.jpg,,,,,,,,,,,,,,,,,,,,,,
,,,,,,,,,1.0,,,60,1.0,1.0,1.955835,0.0,2.0,2.0,2.0,1.0,chopsticks_08s.jpg,pillbox_04s.jpg,,,,,,,,,,,,,,,,,,,,,,
,,,,,,,,,0.0,,,60,0.0,1.0,1.772,0.0,3.0,3.0,3.0,1.0,turtle_08s.jpg,pea_11s.jpg,,,,,,,,,,,,,,,,,,,,,,
,,,,,,,,,0.0,,,60,1.0,0.0,2.148605,0.0,4.0,4.0,4.0,1.0,crate_05s.jpg,champagne_18s.jpg,,,,,,,,,,,,,,,,,,,,,,
,,,,,,,,,0.0,,,60,1.0,0.0,2.98236,0.0,5.0,5.0,5.0,1.0,meatball_13s.jpg,feather02.jpg,,,,,,,,,,,,,,,,,,,,,,
,,,,,,,,,,,,60,,,,,,,,,,,0.0,1.0,1.0,1.0,1.0,clockno_present_2_16.xlsx,clockno_compare_task_2_16.xlsx,,,,,,,,,,,,,,,
0.0,1.0,1.4594,0.0,0.0,0.0,0.0,1.0,magnet_03s.jpg,0.0,clock_6_1.png,1.0,60,,,,,,,,,,,,,,,,,,,,,,,,,,,,,,,,
0.0,1.0,2.175645,0.0,1.0,1.0,1.0,1.0,luggage_08s.jpg,0.0,clock_6_2.png,1.0,60,,,,,,,,,,,,,,,,,,,,,,,,,,,,,,,,
0.0,1.0,0.81656,0.0,2.0,2.0,2.0,1.0,fountain_pen_06s.jpg,0.0,clock_6_3.png,1.0,60,,,,,,,,,,,,,,,,,,,,,,,,,,,,,,,,
0.0,1.0,0.665715,0.0,3.0,3.0,3.0,1.0,fur_coat_11s.jpg,0.0,clock_6_4.png,1.0,60,,,,,,,,,,,,,,,,,,,,,,,,,,,,,,,,
0.0,1.0,0.8309,0.0,4.0,4.0,4.0,1.0,ladder_15s.jpg,0.0,clock_6_5.png,1.0,60,,,,,,,,,,,,,,,,,,,,,,,,,,,,,,,,
0.0,1.0,1.303845,0.0,5.0,5.0,5.0,1.0,mushroom_10n.jpg,0.0,clock_6_6.png,1.0,60,,,,,,,,,,,,,,,,,,,,,,,,,,,,,,,,
0.0,1.0,1.18925,0.0,6.0,6.0,6.0,1.0,milk_02s.jpg,0.0,clock_5_1.png,2.0,60,,,,,,,,,,,,,,,,,,,,,,,,,,,,,,,,
0.0,1.0,0.882185,0.0,7.0,7.0,7.0,1.0,fork_04s.jpg,0.0,clock_5_2.png,2.0,60,,,,,,,,,,,,,,,,,,,,,,,,,,,,,,,,
0.0,1.0,0.7844,0.0,8.0,8.0,8.0,1.0,bank_06s.jpg,0.0,clock_5_3.png,2.0,60,,,,,,,,,,,,,,,,,,,,,,,,,,,,,,,,
0.0,1.0,0.84864,0.0,9.0,9.0,9.0,1.0,paintbrush_04s.jpg,0.0,clock_5_4.png,2.0,60,,,,,,,,,,,,,,,,,,,,,,,,,,,,,,,,
1.0,1.0,1.387195,0.0,10.0,10.0,10.0,1.0,fork_04s.jpg,1.0,clock_5_5.png,2.0,60,,,,,,,,,,,,,,,,,,,,,,,,,,,,,,,,
0.0,1.0,1.237035,0.0,11.0,11.0,11.0,1.0,fireworks_18s.jpg,0.0,clock_7_1.png,3.0,60,,,,,,,,,,,,,,,,,,,,,,,,,,,,,,,,
1.0,1.0,1.10208,0.0,12.0,12.0,12.0,1.0,fireworks_18s.jpg,1.0,clock_7_2.png,3.0,60,,,,,,,,,,,,,,,,,,,,,,,,,,,,,,,,
1.0,1.0,0.80194,0.0,13.0,13.0,13.0,1.0,fireworks_18s.jpg,1.0,clock_7_3.png,3.0,60,,,,,,,,,,,,,,,,,,,,,,,,,,,,,,,,
0.0,1.0,1.001365,0.0,14.0,14.0,14.0,1.0,outlet_10s.jpg,0.0,clock_7_4.png,3.0,60,,,,,,,,,,,,,,,,,,,,,,,,,,,,,,,,
0.0,1.0,0.768465,0.0,15.0,15.0,15.0,1.0,olive_05s.jpg,0.0,clock_7_5.png,3.0,60,,,,,,,,,,,,,,,,,,,,,,,,,,,,,,,,
0.0,1.0,0.6701,0.0,16.0,16.0,16.0,1.0,toaster_03s.jpg,0.0,clock_7_6.png,3.0,60,,,,,,,,,,,,,,,,,,,,,,,,,,,,,,,,
0.0,1.0,0.79899,0.0,17.0,17.0,17.0,1.0,kitten_07s.jpg,0.0,clock_7_7.png,3.0,60,,,,,,,,,,,,,,,,,,,,,,,,,,,,,,,,
0.0,1.0,0.753845,0.0,18.0,18.0,18.0,1.0,soda_fountain_03s.jpg,0.0,clock_6_1.png,4.0,60,,,,,,,,,,,,,,,,,,,,,,,,,,,,,,,,
0.0,1.0,0.88203,0.0,19.0,19.0,19.0,1.0,paper_bag_12s.jpg,0.0,clock_6_2.png,4.0,60,,,,,,,,,,,,,,,,,,,,,,,,,,,,,,,,
0.0,1.0,1.212555,0.0,20.0,20.0,20.0,1.0,frame_06s.jpg,0.0,clock_6_3.png,4.0,60,,,,,,,,,,,,,,,,,,,,,,,,,,,,,,,,
0.0,1.0,0.737075,0.0,21.0,21.0,21.0,1.0,mold2_04s.jpg,0.0,clock_6_4.png,4.0,60,,,,,,,,,,,,,,,,,,,,,,,,,,,,,,,,
0.0,1.0,0.785405,0.0,22.0,22.0,22.0,1.0,tupperware_09s.jpg,0.0,clock_6_5.png,4.0,60,,,,,,,,,,,,,,,,,,,,,,,,,,,,,,,,
0.0,1.0,0.867195,0.0,23.0,23.0,23.0,1.0,eggshell_14s.jpg,0.0,clock_6_6.png,4.0,60,,,,,,,,,,,,,,,,,,,,,,,,,,,,,,,,
0.0,1.0,0.647905,0.0,24.0,24.0,24.0,1.0,antenna_01b.jpg,0.0,clock_5_1.png,5.0,60,,,,,,,,,,,,,,,,,,,,,,,,,,,,,,,,
1.0,1.0,0.9618,0.0,25.0,25.0,25.0,1.0,antenna_01b.jpg,1.0,clock_5_2.png,5.0,60,,,,,,,,,,,,,,,,,,,,,,,,,,,,,,,,
0.0,1.0,1.750605,0.0,26.0,26.0,26.0,1.0,padlock_07s.jpg,0.0,clock_5_3.png,5.0,60,,,,,,,,,,,,,,,,,,,,,,,,,,,,,,,,
,0.0,,0.0,27.0,27.0,27.0,1.0,pocket_watch_16s.jpg,0.0,clock_5_4.png,5.0,60,,,,,,,,,,,,,,,,,,,,,,,,,,,,,,,,
0.0,1.0,1.53266,0.0,28.0,28.0,28.0,1.0,bank_06s.jpg,0.0,clock_5_5.png,5.0,60,,,,,,,,,,,,,,,,,,,,,,,,,,,,,,,,
0.0,1.0,0.811845,0.0,29.0,29.0,29.0,1.0,incense_02s.jpg,0.0,clock_7_1.png,6.0,60,,,,,,,,,,,,,,,,,,,,,,,,,,,,,,,,
0.0,1.0,0.88019,0.0,30.0,30.0,30.0,1.0,bagel_15s.jpg,0.0,clock_7_2.png,6.0,60,,,,,,,,,,,,,,,,,,,,,,,,,,,,,,,,
0.0,1.0,0.80402,0.0,31.0,31.0,31.0,1.0,milk_02s.jpg,0.0,clock_7_3.png,6.0,60,,,,,,,,,,,,,,,,,,,,,,,,,,,,,,,,
0.0,1.0,0.78594,0.0,32.0,32.0,32.0,1.0,iron_13s.jpg,0.0,clock_7_4.png,6.0,60,,,,,,,,,,,,,,,,,,,,,,,,,,,,,,,,
0.0,1.0,0.899515,0.0,33.0,33.0,33.0,1.0,duck_01b.jpg,0.0,clock_7_5.png,6.0,60,,,,,,,,,,,,,,,,,,,,,,,,,,,,,,,,
0.0,1.0,0.952095,0.0,34.0,34.0,34.0,1.0,rooster_03s.jpg,0.0,clock_7_6.png,6.0,60,,,,,,,,,,,,,,,,,,,,,,,,,,,,,,,,
0.0,1.0,0.84169,0.0,35.0,35.0,35.0,1.0,sugar_cube_11s.jpg,0.0,clock_7_7.png,6.0,60,,,,,,,,,,,,,,,,,,,,,,,,,,,,,,,,
,,,,,,,,,0.0,,,60,0.0,1.0,2.02737,0.0,0.0,0.0,0.0,1.0,soda_fountain_03s.jpg,olive_05s.jpg,,,,,,,,,,,,,,,,,,,,,,
,,,,,,,,,1.0,,,60,0.0,0.0,2.921405,0.0,1.0,1.0,1.0,1.0,toaster_03s.jpg,paper_bag_12s.jpg,,,,,,,,,,,,,,,,,,,,,,
,,,,,,,,,1.0,,,60,0.0,0.0,2.01639,0.0,2.0,2.0,2.0,1.0,eggshell_14s.jpg,padlock_07s.jpg,,,,,,,,,,,,,,,,,,,,,,
,,,,,,,,,1.0,,,60,0.0,0.0,1.42135,0.0,3.0,3.0,3.0,1.0,magnet_03s.jpg,fur_coat_11s.jpg,,,,,,,,,,,,,,,,,,,,,,
,,,,,,,,,0.0,,,60,0.0,1.0,1.76924,0.0,4.0,4.0,4.0,1.0,ladder_15s.jpg,luggage_08s.jpg,,,,,,,,,,,,,,,,,,,,,,
,,,,,,,,,0.0,,,60,1.0,0.0,2.054705,0.0,5.0,5.0,5.0,1.0,mushroom_10n.jpg,fountain_pen_06s.jpg,,,,,,,,,,,,,,,,,,,,,,
,,,,,,,,,,,,60,,,,,,,,,,,0.0,2.0,2.0,2.0,1.0,clockno_present_3_16.xlsx,clockno_compare_task_3_16.xlsx,,,,,,,,,,,,,,,
0.0,1.0,1.23927,0.0,0.0,0.0,0.0,1.0,insole_11s.jpg,0.0,clock_5_1.png,1.0,60,,,,,,,,,,,,,,,,,,,,,,,,,,,,,,,,
0.0,1.0,0.98229,0.0,1.0,1.0,1.0,1.0,teapot_03s.jpg,0.0,clock_5_2.png,1.0,60,,,,,,,,,,,,,,,,,,,,,,,,,,,,,,,,
0.0,1.0,0.72163,0.0,2.0,2.0,2.0,1.0,orange_12s.jpg,0.0,clock_5_3.png,1.0,60,,,,,,,,,,,,,,,,,,,,,,,,,,,,,,,,
1.0,1.0,0.88715,0.0,3.0,3.0,3.0,1.0,insole_11s.jpg,1.0,clock_5_4.png,1.0,60,,,,,,,,,,,,,,,,,,,,,,,,,,,,,,,,
0.0,1.0,0.88485,0.0,4.0,4.0,4.0,1.0,jersey_02s.jpg,0.0,clock_5_5.png,1.0,60,,,,,,,,,,,,,,,,,,,,,,,,,,,,,,,,
0.0,1.0,0.81673,0.0,5.0,5.0,5.0,1.0,dashboard_02s.jpg,0.0,clock_5_1.png,2.0,60,,,,,,,,,,,,,,,,,,,,,,,,,,,,,,,,
0.0,1.0,0.79174,0.0,6.0,6.0,6.0,1.0,harpoon.jpg,0.0,clock_5_2.png,2.0,60,,,,,,,,,,,,,,,,,,,,,,,,,,,,,,,,
0.0,1.0,1.47198,0.0,7.0,7.0,7.0,1.0,kilt_18s.jpg,0.0,clock_5_3.png,2.0,60,,,,,,,,,,,,,,,,,,,,,,,,,,,,,,,,
0.0,1.0,1.0152,0.0,8.0,8.0,8.0,1.0,bowler_hat_10s.jpg,0.0,clock_5_4.png,2.0,60,,,,,,,,,,,,,,,,,,,,,,,,,,,,,,,,
0.0,1.0,2.00562,0.0,9.0,9.0,9.0,1.0,light_switch_02s.jpg,0.0,clock_5_5.png,2.0,60,,,,,,,,,,,,,,,,,,,,,,,,,,,,,,,,
0.0,1.0,1.06375,0.0,10.0,10.0,10.0,1.0,mirror_12s.jpg,0.0,clock_7_1.png,3.0,60,,,,,,,,,,,,,,,,,,,,,,,,,,,,,,,,
0.0,1.0,1.25032,0.0,11.0,11.0,11.0,1.0,raspberry_12s.jpg,0.0,clock_7_2.png,3.0,60,,,,,,,,,,,,,,,,,,,,,,,,,,,,,,,,
0.0,1.0,0.812695,0.0,12.0,12.0,12.0,1.0,gas_mask_11s.jpg,0.0,clock_7_3.png,3.0,60,,,,,,,,,,,,,,,,,,,,,,,,,,,,,,,,
0.0,1.0,0.765805,0.0,13.0,13.0,13.0,1.0,teacup_07s.jpg,0.0,clock_7_4.png,3.0,60,,,,,,,,,,,,,,,,,,,,,,,,,,,,,,,,
0.0,1.0,0.847625,0.0,14.0,14.0,14.0,1.0,icemaker_10s.jpg,0.0,clock_7_5.png,3.0,60,,,,,,,,,,,,,,,,,,,,,,,,,,,,,,,,
0.0,1.0,1.01717,0.0,15.0,15.0,15.0,1.0,pacifier_09s.jpg,0.0,clock_7_6.png,3.0,60,,,,,,,,,,,,,,,,,,,,,,,,,,,,,,,,
0.0,1.0,1.26698,0.0,16.0,16.0,16.0,1.0,pepper_mill_03s.jpg,0.0,clock_7_7.png,3.0,60,,,,,,,,,,,,,,,,,,,,,,,,,,,,,,,,
0.0,1.0,1.5926,0.0,17.0,17.0,17.0,1.0,juicer1_08s.jpg,0.0,clock_6_1.png,4.0,60,,,,,,,,,,,,,,,,,,,,,,,,,,,,,,,,
0.0,1.0,0.625525,0.0,18.0,18.0,18.0,1.0,lion_18s.jpg,0.0,clock_6_2.png,4.0,60,,,,,,,,,,,,,,,,,,,,,,,,,,,,,,,,
0.0,1.0,0.785565,0.0,19.0,19.0,19.0,1.0,rocking_chair_05s.jpg,0.0,clock_6_3.png,4.0,60,,,,,,,,,,,,,,,,,,,,,,,,,,,,,,,,
0.0,1.0,1.36309,0.0,20.0,20.0,20.0,1.0,beaker_01b.jpg,0.0,clock_6_4.png,4.0,60,,,,,,,,,,,,,,,,,,,,,,,,,,,,,,,,
0.0,1.0,0.85198,0.0,21.0,21.0,21.0,1.0,leotard_08s.jpg,0.0,clock_6_5.png,4.0,60,,,,,,,,,,,,,,,,,,,,,,,,,,,,,,,,
0.0,1.0,0.750905,0.0,22.0,22.0,22.0,1.0,puppet_01b.jpg,0.0,clock_6_6.png,4.0,60,,,,,,,,,,,,,,,,,,,,,,,,,,,,,,,,
0.0,1.0,0.865275,0.0,23.0,23.0,23.0,1.0,soccer_ball_12s.jpg,0.0,clock_6_1.png,5.0,60,,,,,,,,,,,,,,,,,,,,,,,,,,,,,,,,
0.0,1.0,0.538585,0.0,24.0,24.0,24.0,1.0,fox_13s.jpg,0.0,clock_6_2.png,5.0,60,,,,,,,,,,,,,,,,,,,,,,,,,,,,,,,,
0.0,1.0,0.680785,0.0,25.0,25.0,25.0,1.0,birthday_cake_09s.jpg,0.0,clock_6_3.png,5.0,60,,,,,,,,,,,,,,,,,,,,,,,,,,,,,,,,
0.0,1.0,0.937785,0.0,26.0,26.0,26.0,1.0,sushi_08s.jpg,0.0,clock_6_4.png,5.0,60,,,,,,,,,,,,,,,,,,,,,,,,,,,,,,,,
0.0,1.0,0.93578,0.0,27.0,27.0,27.0,1.0,sparkler_02s.jpg,0.0,clock_6_5.png,5.0,60,,,,,,,,,,,,,,,,,,,,,,,,,,,,,,,,
0.0,1.0,1.407925,0.0,28.0,28.0,28.0,1.0,dashboard_02s.jpg,0.0,clock_6_6.png,5.0,60,,,,,,,,,,,,,,,,,,,,,,,,,,,,,,,,
0.0,1.0,0.870555,0.0,29.0,29.0,29.0,1.0,lizard_10n.jpg,0.0,clock_7_1.png,6.0,60,,,,,,,,,,,,,,,,,,,,,,,,,,,,,,,,
0.0,1.0,1.350835,0.0,30.0,30.0,30.0,1.0,purse_05s.jpg,0.0,clock_7_2.png,6.0,60,,,,,,,,,,,,,,,,,,,,,,,,,,,,,,,,
0.0,1.0,1.441065,0.0,31.0,31.0,31.0,1.0,owl_15s.jpg,0.0,clock_7_3.png,6.0,60,,,,,,,,,,,,,,,,,,,,,,,,,,,,,,,,
0.0,1.0,1.059665,0.0,32.0,32.0,32.0,1.0,cobra_05s.jpg,0.0,clock_7_4.png,6.0,60,,,,,,,,,,,,,,,,,,,,,,,,,,,,,,,,
1.0,1.0,1.40339,0.0,33.0,33.0,33.0,1.0,owl_15s.jpg,1.0,clock_7_5.png,6.0,60,,,,,,,,,,,,,,,,,,,,,,,,,,,,,,,,
0.0,1.0,1.01471,0.0,34.0,34.0,34.0,1.0,pomegranate_04s.jpg,0.0,clock_7_6.png,6.0,60,,,,,,,,,,,,,,,,,,,,,,,,,,,,,,,,
0.0,1.0,1.138835,0.0,35.0,35.0,35.0,1.0,plug_08s.jpg,0.0,clock_7_7.png,6.0,60,,,,,,,,,,,,,,,,,,,,,,,,,,,,,,,,
,,,,,,,,,0.0,,,60,0.0,1.0,2.752955,0.0,0.0,0.0,0.0,1.0,kilt_18s.jpg,jersey_02s.jpg,,,,,,,,,,,,,,,,,,,,,,
,,,,,,,,,0.0,,,60,1.0,0.0,1.21307,0.0,1.0,1.0,1.0,1.0,raspberry_12s.jpg,bowler_hat_10s.jpg,,,,,,,,,,,,,,,,,,,,,,
,,,,,,,,,0.0,,,60,0.0,1.0,1.905345,0.0,2.0,2.0,2.0,1.0,birthday_cake_09s.jpg,puppet_01b.jpg,,,,,,,,,,,,,,,,,,,,,,
,,,,,,,,,0.0,,,60,0.0,1.0,1.679955,0.0,3.0,3.0,3.0,1.0,plug_08s.jpg,cobra_05s.jpg,,,,,,,,,,,,,,,,,,,,,,
,,,,,,,,,0.0,,,60,1.0,0.0,1.13184,0.0,4.0,4.0,4.0,1.0,light_switch_02s.jpg,harpoon.jpg,,,,,,,,,,,,,,,,,,,,,,
,,,,,,,,,1.0,,,60,1.0,1.0,1.40345,0.0,5.0,5.0,5.0,1.0,mirror_12s.jpg,teacup_07s.jpg,,,,,,,,,,,,,,,,,,,,,,
,,,,,,,,,,,,60,,,,,,,,,,,0.0,3.0,3.0,3.0,1.0,clockno_present_4_16.xlsx,clockno_compare_task_4_16.xlsx,,,,,,,,,,,,,,,
0.0,1.0,1.296785,0.0,0.0,0.0,0.0,1.0,film_03s.jpg,0.0,clock_7_1.png,1.0,60,,,,,,,,,,,,,,,,,,,,,,,,,,,,,,,,
0.0,1.0,0.787305,0.0,1.0,1.0,1.0,1.0,stopwatch_04s.jpg,0.0,clock_7_2.png,1.0,60,,,,,,,,,,,,,,,,,,,,,,,,,,,,,,,,
0.0,1.0,0.73397,0.0,2.0,2.0,2.0,1.0,pepper2_21s.jpg,0.0,clock_7_3.png,1.0,60,,,,,,,,,,,,,,,,,,,,,,,,,,,,,,,,
1.0,1.0,0.703285,0.0,3.0,3.0,3.0,1.0,film_03s.jpg,1.0,clock_7_4.png,1.0,60,,,,,,,,,,,,,,,,,,,,,,,,,,,,,,,,
1.0,1.0,1.5204,0.0,4.0,4.0,4.0,1.0,film_03s.jpg,1.0,clock_7_5.png,1.0,60,,,,,,,,,,,,,,,,,,,,,,,,,,,,,,,,
0.0,1.0,0.922735,0.0,5.0,5.0,5.0,1.0,ginger_09s.jpg,0.0,clock_7_6.png,1.0,60,,,,,,,,,,,,,,,,,,,,,,,,,,,,,,,,
1.0,1.0,1.064745,0.0,6.0,6.0,6.0,1.0,pepper2_21s.jpg,1.0,clock_7_7.png,1.0,60,,,,,,,,,,,,,,,,,,,,,,,,,,,,,,,,
0.0,1.0,0.945485,0.0,7.0,7.0,7.0,1.0,puffin_19s.jpg,0.0,clock_6_1.png,2.0,60,,,,,,,,,,,,,,,,,,,,,,,,,,,,,,,,
0.0,1.0,2.28351,0.0,8.0,8.0,8.0,1.0,golf_club_03s.jpg,0.0,clock_6_2.png,2.0,60,,,,,,,,,,,,,,,,,,,,,,,,,,,,,,,,
0.0,1.0,1.037055,0.0,9.0,9.0,9.0,1.0,crab_16s.jpg,0.0,clock_6_3.png,2.0,60,,,,,,,,,,,,,,,,,,,,,,,,,,,,,,,,
0.0,1.0,0.85337,0.0,10.0,10.0,10.0,1.0,bathtub_23s.jpg,0.0,clock_6_4.png,2.0,60,,,,,,,,,,,,,,,,,,,,,,,,,,,,,,,,
1.0,1.0,0.931935,0.0,11.0,11.0,11.0,1.0,crab_16s.jpg,1.0,clock_6_5.png,2.0,60,,,,,,,,,,,,,,,,,,,,,,,,,,,,,,,,
0.0,1.0,0.61763,0.0,12.0,12.0,12.0,1.0,pancake_12s.jpg,0.0,clock_6_6.png,2.0,60,,,,,,,,,,,,,,,,,,,,,,,,,,,,,,,,
0.0,1.0,1.034705,0.0,13.0,13.0,13.0,1.0,lamb_04s.jpg,0.0,clock_5_1.png,3.0,60,,,,,,,,,,,,,,,,,,,,,,,,,,,,,,,,
0.0,1.0,0.957095,0.0,14.0,14.0,14.0,1.0,ladle_04s.jpg,0.0,clock_5_2.png,3.0,60,,,,,,,,,,,,,,,,,,,,,,,,,,,,,,,,
0.0,1.0,0.701015,0.0,15.0,15.0,15.0,1.0,popsicle_02s.jpg,0.0,clock_5_3.png,3.0,60,,,,,,,,,,,,,,,,,,,,,,,,,,,,,,,,
0.0,1.0,0.64871,0.0,16.0,16.0,16.0,1.0,eiffeltower.jpg,0.0,clock_5_4.png,3.0,60,,,,,,,,,,,,,,,,,,,,,,,,,,,,,,,,
0.0,1.0,0.782295,0.0,17.0,17.0,17.0,1.0,rolling_pin_02s.jpg,0.0,clock_5_5.png,3.0,60,,,,,,,,,,,,,,,,,,,,,,,,,,,,,,,,
0.0,1.0,0.5155,0.0,18.0,18.0,18.0,1.0,lantern_04s.jpg,0.0,clock_5_1.png,4.0,60,,,,,,,,,,,,,,,,,,,,,,,,,,,,,,,,
0.0,1.0,0.681815,0.0,19.0,19.0,19.0,1.0,telephone_pole_05s.jpg,0.0,clock_5_2.png,4.0,60,,,,,,,,,,,,,,,,,,,,,,,,,,,,,,,,
1.0,1.0,1.38792,0.0,20.0,20.0,20.0,1.0,lantern_04s.jpg,1.0,clock_5_3.png,4.0,60,,,,,,,,,,,,,,,,,,,,,,,,,,,,,,,,
0.0,1.0,0.766595,0.0,21.0,21.0,21.0,1.0,seahorse_13s.jpg,0.0,clock_5_4.png,4.0,60,,,,,,,,,,,,,,,,,,,,,,,,,,,,,,,,
0.0,1.0,0.764785,0.0,22.0,22.0,22.0,1.0,ruby_15s.jpg,0.0,clock_5_5.png,4.0,60,,,,,,,,,,,,,,,,,,,,,,,,,,,,,,,,
0.0,1.0,1.387685,0.0,23.0,23.0,23.0,1.0,machete_06s.jpg,0.0,clock_6_1.png,5.0,60,,,,,,,,,,,,,,,,,,,,,,,,,,,,,,,,
0.0,1.0,2.249055,0.0,24.0,24.0,24.0,1.0,dirt_bike_11s.jpg,0.0,clock_6_2.png,5.0,60,,,,,,,,,,,,,,,,,,,,,,,,,,,,,,,,
0.0,1.0,1.416305,0.0,25.0,25.0,25.0,1.0,tuxedo_01b.jpg,0.0,clock_6_3.png,5.0,60,,,,,,,,,,,,,,,,,,,,,,,,,,,,,,,,
0.0,1.0,2.035395,0.0,26.0,26.0,26.0,1.0,mascara_03s.jpg,0.0,clock_6_4.png,5.0,60,,,,,,,,,,,,,,,,,,,,,,,,,,,,,,,,
0.0,1.0,0.74201,0.0,27.0,27.0,27.0,1.0,puddle_02s.jpg,0.0,clock_6_5.png,5.0,60,,,,,,,,,,,,,,,,,,,,,,,,,,,,,,,,
0.0,1.0,2.037485,0.0,28.0,28.0,28.0,1.0,lantern_04s.jpg,0.0,clock_6_6.png,5.0,60,,,,,,,,,,,,,,,,,,,,,,,,,,,,,,,,
0.0,1.0,1.102765,0.0,29.0,29.0,29.0,1.0,pump_11s.jpg,0.0,clock_7_1.png,6.0,60,,,,,,,,,,,,,,,,,,,,,,,,,,,,,,,,
0.0,1.0,0.73113,0.0,30.0,30.0,30.0,1.0,machine_gun_09s.jpg,0.0,clock_7_2.png,6.0,60,,,,,,,,,,,,,,,,,,,,,,,,,,,,,,,,
0.0,1.0,0.850505,0.0,31.0,31.0,31.0,1.0,mitten_10s.jpg,0.0,clock_7_3.png,6.0,60,,,,,,,,,,,,,,,,,,,,,,,,,,,,,,,,
0.0,1.0,1.199345,0.0,32.0,32.0,32.0,1.0,joystick_01b.jpg,0.0,clock_7_4.png,6.0,60,,,,,,,,,,,,,,,,,,,,,,,,,,,,,,,,
0.0,1.0,1.784115,0.0,33.0,33.0,33.0,1.0,rice_12s.jpg,0.0,clock_7_5.png,6.0,60,,,,,,,,,,,,,,,,,,,,,,,,,,,,,,,,
0.0,1.0,0.6489,0.0,34.0,34.0,34.0,1.0,lifesaver_10s.jpg,0.0,clock_7_6.png,6.0,60,,,,,,,,,,,,,,,,,,,,,,,,,,,,,,,,
0.0,1.0,0.58547,0.0,35.0,35.0,35.0,1.0,lamp_08s.jpg,0.0,clock_7_7.png,6.0,60,,,,,,,,,,,,,,,,,,,,,,,,,,,,,,,,
,,,,,,,,,0.0,,,60,1.0,0.0,2.35258,0.0,0.0,0.0,0.0,1.0,golf_club_03s.jpg,ginger_09s.jpg,,,,,,,,,,,,,,,,,,,,,,
,,,,,,,,,0.0,,,60,1.0,0.0,2.62805,0.0,1.0,1.0,1.0,1.0,popsicle_02s.jpg,pancake_12s.jpg,,,,,,,,,,,,,,,,,,,,,,
,,,,,,,,,1.0,,,60,0.0,0.0,2.38197,0.0,2.0,2.0,2.0,1.0,seahorse_13s.jpg,dirt_bike_11s.jpg,,,,,,,,,,,,,,,,,,,,,,
,,,,,,,,,1.0,,,60,1.0,1.0,2.03765,0.0,3.0,3.0,3.0,1.0,ladle_04s.jpg,rolling_pin_02s.jpg,,,,,,,,,,,,,,,,,,,,,,
,,,,,,,,,1.0,,,60,1.0,1.0,2.27448,0.0,4.0,4.0,4.0,1.0,mitten_10s.jpg,lifesaver_10s.jpg,,,,,,,,,,,,,,,,,,,,,,
,,,,,,,,,0.0,,,60,0.0,1.0,1.58666,0.0,5.0,5.0,5.0,1.0,lamp_08s.jpg,joystick_01b.jpg,,,,,,,,,,,,,,,,,,,,,,
,,,,,,,,,,,,60,,,,,,,,,,,0.0,4.0,4.0,4.0,1.0,clockno_present_5_16.xlsx,clockno_compare_task_5_16.xlsx,,,,,,,,,,,,,,,
0.0,1.0,1.572805,0.0,0.0,0.0,0.0,1.0,seagull_01b.jpg,0.0,clockno_up.jpg,1.0,60,,,,,,,,,,,,,,,,,,,,,,,,,,,,,,,,
0.0,1.0,0.88477,0.0,1.0,1.0,1.0,1.0,denture_03s.jpg,0.0,clockno_default.jpg,1.0,60,,,,,,,,,,,,,,,,,,,,,,,,,,,,,,,,
1.0,1.0,0.782275,0.0,2.0,2.0,2.0,1.0,seagull_01b.jpg,1.0,clockno_default.jpg,1.0,60,,,,,,,,,,,,,,,,,,,,,,,,,,,,,,,,
1.0,1.0,0.7214,0.0,3.0,3.0,3.0,1.0,seagull_01b.jpg,1.0,clockno_default.jpg,1.0,60,,,,,,,,,,,,,,,,,,,,,,,,,,,,,,,,
1.0,1.0,0.63558,0.0,4.0,4.0,4.0,1.0,seagull_01b.jpg,1.0,clockno_default.jpg,1.0,60,,,,,,,,,,,,,,,,,,,,,,,,,,,,,,,,
0.0,1.0,0.71579,0.0,5.0,5.0,5.0,1.0,knitting_needle_04s.jpg,0.0,clockno_default.jpg,1.0,60,,,,,,,,,,,,,,,,,,,,,,,,,,,,,,,,
0.0,1.0,0.781495,0.0,6.0,6.0,6.0,1.0,birdcage_08s.jpg,0.0,clockno_default.jpg,1.0,60,,,,,,,,,,,,,,,,,,,,,,,,,,,,,,,,
0.0,1.0,0.849095,0.0,7.0,7.0,7.0,1.0,pie_08s.jpg,0.0,clockno_up.jpg,2.0,60,,,,,,,,,,,,,,,,,,,,,,,,,,,,,,,,
0.0,1.0,0.996585,0.0,8.0,8.0,8.0,1.0,glasses01a.jpg,0.0,clockno_default.jpg,2.0,60,,,,,,,,,,,,,,,,,,,,,,,,,,,,,,,,
0.0,1.0,0.70199,0.0,9.0,9.0,9.0,1.0,onion_10s.jpg,0.0,clockno_default.jpg,2.0,60,,,,,,,,,,,,,,,,,,,,,,,,,,,,,,,,
0.0,1.0,1.0839,0.0,10.0,10.0,10.0,1.0,seagull_01b.jpg,0.0,clockno_default.jpg,2.0,60,,,,,,,,,,,,,,,,,,,,,,,,,,,,,,,,
0.0,1.0,0.71405,0.0,11.0,11.0,11.0,1.0,tortilla_06s.jpg,0.0,clockno_default.jpg,2.0,60,,,,,,,,,,,,,,,,,,,,,,,,,,,,,,,,
0.0,1.0,0.631645,0.0,12.0,12.0,12.0,1.0,panda_02s.jpg,0.0,clockno_up.jpg,3.0,60,,,,,,,,,,,,,,,,,,,,,,,,,,,,,,,,
0.0,1.0,0.645445,0.0,13.0,13.0,13.0,1.0,lipstick_02s.jpg,0.0,clockno_default.jpg,3.0,60,,,,,,,,,,,,,,,,,,,,,,,,,,,,,,,,
1.0,1.0,1.30594,0.0,14.0,14.0,14.0,1.0,lipstick_02s.jpg,1.0,clockno_default.jpg,3.0,60,,,,,,,,,,,,,,,,,,,,,,,,,,,,,,,,
0.0,1.0,0.954675,0.0,15.0,15.0,15.0,1.0,chime_12s.jpg,0.0,clockno_default.jpg,3.0,60,,,,,,,,,,,,,,,,,,,,,,,,,,,,,,,,
1.0,1.0,2.07954,0.0,16.0,16.0,16.0,1.0,panda_02s.jpg,1.0,clockno_default.jpg,3.0,60,,,,,,,,,,,,,,,,,,,,,,,,,,,,,,,,
0.0,1.0,0.679515,0.0,17.0,17.0,17.0,1.0,mug_06s.jpg,0.0,clockno_default.jpg,3.0,60,,,,,,,,,,,,,,,,,,,,,,,,,,,,,,,,
0.0,1.0,1.020645,0.0,18.0,18.0,18.0,1.0,pie_08s.jpg,0.0,clockno_default.jpg,3.0,60,,,,,,,,,,,,,,,,,,,,,,,,,,,,,,,,
0.0,1.0,1.180015,0.0,19.0,19.0,19.0,1.0,latch_15s.jpg,0.0,clockno_up.jpg,4.0,60,,,,,,,,,,,,,,,,,,,,,,,,,,,,,,,,
1.0,1.0,1.17427,0.0,20.0,20.0,20.0,1.0,latch_15s.jpg,1.0,clockno_default.jpg,4.0,60,,,,,,,,,,,,,,,,,,,,,,,,,,,,,,,,
0.0,1.0,0.766975,0.0,21.0,21.0,21.0,1.0,camcorder_10s.jpg,0.0,clockno_default.jpg,4.0,60,,,,,,,,,,,,,,,,,,,,,,,,,,,,,,,,
0.0,1.0,1.735655,0.0,22.0,22.0,22.0,1.0,kimono_13s.jpg,0.0,clockno_default.jpg,4.0,60,,,,,,,,,,,,,,,,,,,,,,,,,,,,,,,,
1.0,1.0,0.956945,0.0,23.0,23.0,23.0,1.0,kimono_13s.jpg,1.0,clockno_default.jpg,4.0,60,,,,,,,,,,,,,,,,,,,,,,,,,,,,,,,,
0.0,1.0,1.848005,0.0,24.0,24.0,24.0,1.0,bee_20s.jpg,0.0,clockno_up.jpg,5.0,60,,,,,,,,,,,,,,,,,,,,,,,,,,,,,,,,
0.0,1.0,2.158085,0.0,25.0,25.0,25.0,1.0,saddle_06s.jpg,0.0,clockno_default.jpg,5.0,60,,,,,,,,,,,,,,,,,,,,,,,,,,,,,,,,
0.0,1.0,0.81709,0.0,26.0,26.0,26.0,1.0,fire_alarm_05s.jpg,0.0,clockno_default.jpg,5.0,60,,,,,,,,,,,,,,,,,,,,,,,,,,,,,,,,
0.0,1.0,0.784755,0.0,27.0,27.0,27.0,1.0,ram_05s.jpg,0.0,clockno_default.jpg,5.0,60,,,,,,,,,,,,,,,,,,,,,,,,,,,,,,,,
0.0,1.0,0.733785,0.0,28.0,28.0,28.0,1.0,coral_08s.jpg,0.0,clockno_default.jpg,5.0,60,,,,,,,,,,,,,,,,,,,,,,,,,,,,,,,,
0.0,1.0,0.769315,0.0,29.0,29.0,29.0,1.0,roller_coaster_07s.jpg,0.0,clockno_default.jpg,5.0,60,,,,,,,,,,,,,,,,,,,,,,,,,,,,,,,,
0.0,1.0,0.735515,0.0,30.0,30.0,30.0,1.0,playpen_11s.jpg,0.0,clockno_up.jpg,6.0,60,,,,,,,,,,,,,,,,,,,,,,,,,,,,,,,,
0.0,1.0,1.90382,0.0,31.0,31.0,31.0,1.0,mask_09s.jpg,0.0,clockno_default.jpg,6.0,60,,,,,,,,,,,,,,,,,,,,,,,,,,,,,,,,
1.0,1.0,0.888145,0.0,32.0,32.0,32.0,1.0,mask_09s.jpg,1.0,clockno_default.jpg,6.0,60,,,,,,,,,,,,,,,,,,,,,,,,,,,,,,,,
0.0,1.0,0.763905,0.0,33.0,33.0,33.0,1.0,turf_03s.jpg,0.0,clockno_default.jpg,6.0,60,,,,,,,,,,,,,,,,,,,,,,,,,,,,,,,,
0.0,1.0,1.3004,0.0,34.0,34.0,34.0,1.0,go-kart_10s.jpg,0.0,clockno_default.jpg,6.0,60,,,,,,,,,,,,,,,,,,,,,,,,,,,,,,,,
0.0,1.0,0.94774,0.0,35.0,35.0,35.0,1.0,polaroid_05s.jpg,0.0,clockno_default.jpg,6.0,60,,,,,,,,,,,,,,,,,,,,,,,,,,,,,,,,
,,,,,,,,,1.0,,,60,1.0,1.0,2.22896,0.0,0.0,0.0,0.0,1.0,birdcage_08s.jpg,onion_10s.jpg,,,,,,,,,,,,,,,,,,,,,,
,,,,,,,,,0.0,,,60,1.0,0.0,1.39971,0.0,1.0,1.0,1.0,1.0,glasses01a.jpg,knitting_needle_04s.jpg,,,,,,,,,,,,,,,,,,,,,,
,,,,,,,,,0.0,,,60,0.0,1.0,1.21625,0.0,2.0,2.0,2.0,1.0,bee_20s.jpg,camcorder_10s.jpg,,,,,,,,,,,,,,,,,,,,,,
,,,,,,,,,0.0,,,60,1.0,0.0,3.197975,0.0,3.0,3.0,3.0,1.0,coral_08s.jpg,saddle_06s.jpg,,,,,,,,,,,,,,,,,,,,,,
,,,,,,,,,1.0,,,60,1.0,1.0,1.4007,0.0,4.0,4.0,4.0,1.0,fire_alarm_05s.jpg,roller_coaster_07s.jpg,,,,,,,,,,,,,,,,,,,,,,
,,,,,,,,,0.0,,,60,0.0,1.0,1.18237,0.0,5.0,5.0,5.0,1.0,turf_03s.jpg,playpen_11s.jpg,,,,,,,,,,,,,,,,,,,,,,
0.0,1.0,1.16347,,,,,,prism_10s.jpg,0.0,clock_5_1.png,1.0,60,,,,,,,,,,,,,,,,,,0.0,0.0,0.0,0.0,1.0,,,,,,,,,,
0.0,1.0,0.750305,,,,,,snowman_02s.jpg,0.0,clock_5_2.png,1.0,60,,,,,,,,,,,,,,,,,,0.0,1.0,1.0,1.0,1.0,,,,,,,,,,
0.0,1.0,0.883745,,,,,,safety_pin_02s.jpg,0.0,clock_5_3.png,1.0,60,,,,,,,,,,,,,,,,,,0.0,2.0,2.0,2.0,1.0,,,,,,,,,,
0.0,0.0,1.697135,,,,,,prism_10s.jpg,1.0,clock_5_4.png,1.0,60,,,,,,,,,,,,,,,,,,0.0,3.0,3.0,3.0,1.0,,,,,,,,,,
0.0,1.0,0.687615,,,,,,peppermint_07s.jpg,0.0,clock_5_5.png,1.0,60,,,,,,,,,,,,,,,,,,0.0,4.0,4.0,4.0,1.0,,,,,,,,,,
0.0,1.0,0.816865,,,,,,radio_09s.jpg,0.0,clock_6_1.png,2.0,60,,,,,,,,,,,,,,,,,,0.0,5.0,5.0,5.0,1.0,,,,,,,,,,
0.0,1.0,0.8218,,,,,,tablet_04s.jpg,0.0,clock_6_2.png,2.0,60,,,,,,,,,,,,,,,,,,0.0,6.0,6.0,6.0,1.0,,,,,,,,,,
,0.0,,,,,,,sleeping_bag_12s.jpg,0.0,clock_6_3.png,2.0,60,,,,,,,,,,,,,,,,,,0.0,7.0,7.0,7.0,1.0,,,,,,,,,,
0.0,1.0,1.121245,,,,,,racehorse_03s.jpg,0.0,clock_6_4.png,2.0,60,,,,,,,,,,,,,,,,,,0.0,8.0,8.0,8.0,1.0,,,,,,,,,,
1.0,0.0,1.135055,,,,,,peppermint_07s.jpg,0.0,clock_6_5.png,2.0,60,,,,,,,,,,,,,,,,,,0.0,9.0,9.0,9.0,1.0,,,,,,,,,,
0.0,1.0,1.53575,,,,,,jukebox_03n.jpg,0.0,clock_6_6.png,2.0,60,,,,,,,,,,,,,,,,,,0.0,10.0,10.0,10.0,1.0,,,,,,,,,,
0.0,1.0,1.117795,,,,,,moth_06n.jpg,0.0,clock_6_1.png,3.0,60,,,,,,,,,,,,,,,,,,0.0,11.0,11.0,11.0,1.0,,,,,,,,,,
0.0,1.0,0.867805,,,,,,ant_12s.jpg,0.0,clock_6_2.png,3.0,60,,,,,,,,,,,,,,,,,,0.0,12.0,12.0,12.0,1.0,,,,,,,,,,
0.0,1.0,0.73237,,,,,,chocolate_01b.jpg,0.0,clock_6_3.png,3.0,60,,,,,,,,,,,,,,,,,,0.0,13.0,13.0,13.0,1.0,,,,,,,,,,
0.0,1.0,1.298645,,,,,,puck_06s.jpg,0.0,clock_6_4.png,3.0,60,,,,,,,,,,,,,,,,,,0.0,14.0,14.0,14.0,1.0,,,,,,,,,,
1.0,1.0,1.41965,,,,,,chocolate_01b.jpg,1.0,clock_6_5.png,3.0,60,,,,,,,,,,,,,,,,,,0.0,15.0,15.0,15.0,1.0,,,,,,,,,,
0.0,1.0,0.916305,,,,,,orchid_01b.jpg,0.0,clock_6_6.png,3.0,60,,,,,,,,,,,,,,,,,,0.0,16.0,16.0,16.0,1.0,,,,,,,,,,
0.0,1.0,0.90226,,,,,,pillow_03s.jpg,0.0,clock_7_1.png,4.0,60,,,,,,,,,,,,,,,,,,0.0,17.0,17.0,17.0,1.0,,,,,,,,,,
1.0,1.0,0.883495,,,,,,pillow_03s.jpg,1.0,clock_7_2.png,4.0,60,,,,,,,,,,,,,,,,,,0.0,18.0,18.0,18.0,1.0,,,,,,,,,,
0.0,1.0,1.018855,,,,,,loom_05s.jpg,0.0,clock_7_3.png,4.0,60,,,,,,,,,,,,,,,,,,0.0,19.0,19.0,19.0,1.0,,,,,,,,,,
0.0,1.0,0.703825,,,,,,kangaroo_02s.jpg,0.0,clock_7_4.png,4.0,60,,,,,,,,,,,,,,,,,,0.0,20.0,20.0,20.0,1.0,,,,,,,,,,
0.0,1.0,0.863835,,,,,,plunger_08s.jpg,0.0,clock_7_5.png,4.0,60,,,,,,,,,,,,,,,,,,0.0,21.0,21.0,21.0,1.0,,,,,,,,,,
0.0,1.0,0.71348,,,,,,refrigerator_07s.jpg,0.0,clock_7_6.png,4.0,60,,,,,,,,,,,,,,,,,,0.0,22.0,22.0,22.0,1.0,,,,,,,,,,
0.0,1.0,1.053885,,,,,,mousetrap_15n.jpg,0.0,clock_7_7.png,4.0,60,,,,,,,,,,,,,,,,,,0.0,23.0,23.0,23.0,1.0,,,,,,,,,,
0.0,1.0,0.86513,,,,,,margarita_03s.jpg,0.0,clock_5_1.png,5.0,60,,,,,,,,,,,,,,,,,,0.0,24.0,24.0,24.0,1.0,,,,,,,,,,
0.0,1.0,0.96849,,,,,,plaster_cast_13s.jpg,0.0,clock_5_2.png,5.0,60,,,,,,,,,,,,,,,,,,0.0,25.0,25.0,25.0,1.0,,,,,,,,,,
0.0,1.0,1.21689,,,,,,radio_09s.jpg,0.0,clock_5_3.png,5.0,60,,,,,,,,,,,,,,,,,,0.0,26.0,26.0,26.0,1.0,,,,,,,,,,
0.0,1.0,1.16519,,,,,,footprint_11s.jpg,0.0,clock_5_4.png,5.0,60,,,,,,,,,,,,,,,,,,0.0,27.0,27.0,27.0,1.0,,,,,,,,,,
0.0,1.0,0.98244,,,,,,ant_12s.jpg,0.0,clock_5_5.png,5.0,60,,,,,,,,,,,,,,,,,,0.0,28.0,28.0,28.0,1.0,,,,,,,,,,
0.0,1.0,0.78519,,,,,,tiger_06s.jpg,0.0,clock_7_1.png,6.0,60,,,,,,,,,,,,,,,,,,0.0,29.0,29.0,29.0,1.0,,,,,,,,,,
0.0,1.0,0.919645,,,,,,fishhook_06s.jpg,0.0,clock_7_2.png,6.0,60,,,,,,,,,,,,,,,,,,0.0,30.0,30.0,30.0,1.0,,,,,,,,,,
0.0,1.0,0.682685,,,,,,poinsettia_04s.jpg,0.0,clock_7_3.png,6.0,60,,,,,,,,,,,,,,,,,,0.0,31.0,31.0,31.0,1.0,,,,,,,,,,
0.0,0.0,1.039365,,,,,,tiger_06s.jpg,1.0,clock_7_4.png,6.0,60,,,,,,,,,,,,,,,,,,0.0,32.0,32.0,32.0,1.0,,,,,,,,,,
0.0,1.0,0.93015,,,,,,limousine_12s.jpg,0.0,clock_7_5.png,6.0,60,,,,,,,,,,,,,,,,,,0.0,33.0,33.0,33.0,1.0,,,,,,,,,,
0.0,1.0,1.08578,,,,,,submarine_11n.jpg,0.0,clock_7_6.png,6.0,60,,,,,,,,,,,,,,,,,,0.0,34.0,34.0,34.0,1.0,,,,,,,,,,
0.0,1.0,1.25195,,,,,,quill_09s.jpg,0.0,clock_7_7.png,6.0,60,,,,,,,,,,,,,,,,,,0.0,35.0,35.0,35.0,1.0,,,,,,,,,,
,,,,,,,,,0.0,,,60,1.0,0.0,1.833805,,,,,,moth_06n.jpg,racehorse_03s.jpg,,,,,,,,,,,,,0.0,0.0,0.0,0.0,1.0,,,,,
,,,,,,,,,1.0,,,60,1.0,1.0,1.91512,,,,,,orchid_01b.jpg,loom_05s.jpg,,,,,,,,,,,,,0.0,1.0,1.0,1.0,1.0,,,,,
,,,,,,,,,0.0,,,60,1.0,0.0,2.203365,,,,,,margarita_03s.jpg,plunger_08s.jpg,,,,,,,,,,,,,0.0,2.0,2.0,2.0,1.0,,,,,
,,,,,,,,,1.0,,,60,0.0,0.0,1.983885,,,,,,sleeping_bag_12s.jpg,jukebox_03n.jpg,,,,,,,,,,,,,0.0,3.0,3.0,3.0,1.0,,,,,
,,,,,,,,,1.0,,,60,0.0,0.0,2.351725,,,,,,kangaroo_02s.jpg,mousetrap_15n.jpg,,,,,,,,,,,,,0.0,4.0,4.0,4.0,1.0,,,,,
,,,,,,,,,0.0,,,60,1.0,0.0,2.141565,,,,,,submarine_11n.jpg,poinsettia_04s.jpg,,,,,,,,,,,,,0.0,5.0,5.0,5.0,1.0,,,,,
,,,,,,,,,,,,60,,,,,,,,,,,,,,,,clock_present_1_16.xlsx,clock_compare_task_1_16.xlsx,,,,,,,,,,,0.0,0.0,0.0,0.0,1.0
0.0,1.0,1.17872,,,,,,metronome_03s.jpg,0.0,clock_5_1.png,1.0,60,,,,,,,,,,,,,,,,,,0.0,0.0,0.0,0.0,1.0,,,,,,,,,,
0.0,1.0,0.983535,,,,,,cereal_04s.jpg,0.0,clock_5_2.png,1.0,60,,,,,,,,,,,,,,,,,,0.0,1.0,1.0,1.0,1.0,,,,,,,,,,
0.0,1.0,0.83994,,,,,,tripod_01b.jpg,0.0,clock_5_3.png,1.0,60,,,,,,,,,,,,,,,,,,0.0,2.0,2.0,2.0,1.0,,,,,,,,,,
0.0,1.0,0.739065,,,,,,thermostat_02s.jpg,0.0,clock_5_4.png,1.0,60,,,,,,,,,,,,,,,,,,0.0,3.0,3.0,3.0,1.0,,,,,,,,,,
0.0,1.0,0.57561,,,,,,jalapeno_15s.jpg,0.0,clock_5_5.png,1.0,60,,,,,,,,,,,,,,,,,,0.0,4.0,4.0,4.0,1.0,,,,,,,,,,
0.0,1.0,1.21589,,,,,,aluminum_foil_08s.jpg,0.0,clock_6_1.png,2.0,60,,,,,,,,,,,,,,,,,,0.0,5.0,5.0,5.0,1.0,,,,,,,,,,
0.0,1.0,0.569025,,,,,,medal_04s.jpg,0.0,clock_6_2.png,2.0,60,,,,,,,,,,,,,,,,,,0.0,6.0,6.0,6.0,1.0,,,,,,,,,,
0.0,1.0,0.53506,,,,,,flip_flop_03s.jpg,0.0,clock_6_3.png,2.0,60,,,,,,,,,,,,,,,,,,0.0,7.0,7.0,7.0,1.0,,,,,,,,,,
0.0,1.0,1.03131,,,,,,orangutan_03s.jpg,0.0,clock_6_4.png,2.0,60,,,,,,,,,,,,,,,,,,0.0,8.0,8.0,8.0,1.0,,,,,,,,,,
0.0,1.0,0.667365,,,,,,otter_05s.jpg,0.0,clock_6_5.png,2.0,60,,,,,,,,,,,,,,,,,,0.0,9.0,9.0,9.0,1.0,,,,,,,,,,
0.0,1.0,0.605,,,,,,polar_bear_02s.jpg,0.0,clock_6_6.png,2.0,60,,,,,,,,,,,,,,,,,,0.0,10.0,10.0,10.0,1.0,,,,,,,,,,
0.0,1.0,0.82044,,,,,,pocketknife_12s.jpg,0.0,clock_7_1.png,3.0,60,,,,,,,,,,,,,,,,,,0.0,11.0,11.0,11.0,1.0,,,,,,,,,,
0.0,0.0,0.68451,,,,,,pocketknife_12s.jpg,1.0,clock_7_2.png,3.0,60,,,,,,,,,,,,,,,,,,0.0,12.0,12.0,12.0,1.0,,,,,,,,,,
0.0,1.0,0.814935,,,,,,tulip_02s.jpg,0.0,clock_7_3.png,3.0,60,,,,,,,,,,,,,,,,,,0.0,13.0,13.0,13.0,1.0,,,,,,,,,,
0.0,1.0,0.67305,,,,,,lamb_chop_07s.jpg,0.0,clock_7_4.png,3.0,60,,,,,,,,,,,,,,,,,,0.0,14.0,14.0,14.0,1.0,,,,,,,,,,
0.0,1.0,1.013945,,,,,,tape_measure_11s.jpg,0.0,clock_7_5.png,3.0,60,,,,,,,,,,,,,,,,,,0.0,15.0,15.0,15.0,1.0,,,,,,,,,,
,0.0,,,,,,,pocketknife_12s.jpg,1.0,clock_7_6.png,3.0,60,,,,,,,,,,,,,,,,,,0.0,16.0,16.0,16.0,1.0,,,,,,,,,,
0.0,1.0,1.48167,,,,,,pear_02s.jpg,0.0,clock_7_7.png,3.0,60,,,,,,,,,,,,,,,,,,0.0,17.0,17.0,17.0,1.0,,,,,,,,,,
0.0,1.0,0.84039,,,,,,lectern_08s.jpg,0.0,clock_6_1.png,4.0,60,,,,,,,,,,,,,,,,,,0.0,18.0,18.0,18.0,1.0,,,,,,,,,,
0.0,1.0,0.7182,,,,,,pineapple_12s.jpg,0.0,clock_6_2.png,4.0,60,,,,,,,,,,,,,,,,,,0.0,19.0,19.0,19.0,1.0,,,,,,,,,,
0.0,1.0,0.882295,,,,,,stamp1_11s.jpg,0.0,clock_6_3.png,4.0,60,,,,,,,,,,,,,,,,,,0.0,20.0,20.0,20.0,1.0,,,,,,,,,,
0.0,1.0,0.960725,,,,,,boomerang_06s.jpg,0.0,clock_6_4.png,4.0,60,,,,,,,,,,,,,,,,,,0.0,21.0,21.0,21.0,1.0,,,,,,,,,,
0.0,1.0,0.89816,,,,,,screwdriver02a.jpg,0.0,clock_6_5.png,4.0,60,,,,,,,,,,,,,,,,,,0.0,22.0,22.0,22.0,1.0,,,,,,,,,,
0.0,1.0,0.78942,,,,,,solar_panel_02s.jpg,0.0,clock_6_6.png,4.0,60,,,,,,,,,,,,,,,,,,0.0,23.0,23.0,23.0,1.0,,,,,,,,,,
0.0,1.0,0.4544,,,,,,tile_08s.jpg,0.0,clock_5_1.png,5.0,60,,,,,,,,,,,,,,,,,,0.0,24.0,24.0,24.0,1.0,,,,,,,,,,
0.0,1.0,0.71272,,,,,,roulette_wheel_04s.jpg,0.0,clock_5_2.png,5.0,60,,,,,,,,,,,,,,,,,,0.0,25.0,25.0,25.0,1.0,,,,,,,,,,
0.0,1.0,0.767535,,,,,,lid_10s.jpg,0.0,clock_5_3.png,5.0,60,,,,,,,,,,,,,,,,,,0.0,26.0,26.0,26.0,1.0,,,,,,,,,,
0.0,1.0,0.786725,,,,,,pineapple_12s.jpg,0.0,clock_5_4.png,5.0,60,,,,,,,,,,,,,,,,,,0.0,27.0,27.0,27.0,1.0,,,,,,,,,,
0.0,1.0,0.636815,,,,,,potpourri_03s.jpg,0.0,clock_5_5.png,5.0,60,,,,,,,,,,,,,,,,,,0.0,28.0,28.0,28.0,1.0,,,,,,,,,,
0.0,1.0,0.591015,,,,,,measuring_cup_02s.jpg,0.0,clock_7_1.png,6.0,60,,,,,,,,,,,,,,,,,,0.0,29.0,29.0,29.0,1.0,,,,,,,,,,
0.0,1.0,1.36322,,,,,,kite_04s.jpg,0.0,clock_7_2.png,6.0,60,,,,,,,,,,,,,,,,,,0.0,30.0,30.0,30.0,1.0,,,,,,,,,,
0.0,1.0,1.05064,,,,,,solar_panel_02s.jpg,0.0,clock_7_3.png,6.0,60,,,,,,,,,,,,,,,,,,0.0,31.0,31.0,31.0,1.0,,,,,,,,,,
0.0,1.0,0.61925,,,,,,piano_13n.jpg,0.0,clock_7_4.png,6.0,60,,,,,,,,,,,,,,,,,,0.0,32.0,32.0,32.0,1.0,,,,,,,,,,
0.0,1.0,1.88623,,,,,,sea_urchin_09s.jpg,0.0,clock_7_5.png,6.0,60,,,,,,,,,,,,,,,,,,0.0,33.0,33.0,33.0,1.0,,,,,,,,,,
0.0,1.0,1.152985,,,,,,thermostat_02s.jpg,0.0,clock_7_6.png,6.0,60,,,,,,,,,,,,,,,,,,0.0,34.0,34.0,34.0,1.0,,,,,,,,,,
0.0,1.0,0.68645,,,,,,stapler_01b.jpg,0.0,clock_7_7.png,6.0,60,,,,,,,,,,,,,,,,,,0.0,35.0,35.0,35.0,1.0,,,,,,,,,,
,,,,,,,,,0.0,,,60,0.0,1.0,1.46266,,,,,,aluminum_foil_08s.jpg,tripod_01b.jpg,,,,,,,,,,,,,0.0,0.0,0.0,0.0,1.0,,,,,
,,,,,,,,,0.0,,,60,1.0,0.0,1.250035,,,,,,tulip_02s.jpg,polar_bear_02s.jpg,,,,,,,,,,,,,0.0,1.0,1.0,1.0,1.0,,,,,
,,,,,,,,,1.0,,,60,1.0,1.0,1.236965,,,,,,tape_measure_11s.jpg,lectern_08s.jpg,,,,,,,,,,,,,0.0,2.0,2.0,2.0,1.0,,,,,
,,,,,,,,,1.0,,,60,1.0,1.0,1.18369,,,,,,medal_04s.jpg,otter_05s.jpg,,,,,,,,,,,,,0.0,3.0,3.0,3.0,1.0,,,,,
,,,,,,,,,1.0,,,60,1.0,1.0,2.236595,,,,,,kite_04s.jpg,sea_urchin_09s.jpg,,,,,,,,,,,,,0.0,4.0,4.0,4.0,1.0,,,,,
,,,,,,,,,1.0,,,60,1.0,1.0,1.181375,,,,,,piano_13n.jpg,stapler_01b.jpg,,,,,,,,,,,,,0.0,5.0,5.0,5.0,1.0,,,,,
,,,,,,,,,,,,60,,,,,,,,,,,,,,,,clock_present_2_16.xlsx,clock_compare_task_2_16.xlsx,,,,,,,,,,,0.0,1.0,1.0,1.0,1.0
0.0,1.0,0.994875,,,,,,trampoline_13s.jpg,0.0,clock_5_1.png,1.0,60,,,,,,,,,,,,,,,,,,0.0,0.0,0.0,0.0,1.0,,,,,,,,,,
0.0,1.0,0.69944,,,,,,ice_pack_09s.jpg,0.0,clock_5_2.png,1.0,60,,,,,,,,,,,,,,,,,,0.0,1.0,1.0,1.0,1.0,,,,,,,,,,
0.0,1.0,0.701175,,,,,,printer_09s.jpg,0.0,clock_5_3.png,1.0,60,,,,,,,,,,,,,,,,,,0.0,2.0,2.0,2.0,1.0,,,,,,,,,,
1.0,1.0,0.85365,,,,,,ice_pack_09s.jpg,1.0,clock_5_4.png,1.0,60,,,,,,,,,,,,,,,,,,0.0,3.0,3.0,3.0,1.0,,,,,,,,,,
0.0,1.0,0.682405,,,,,,koala_13s.jpg,0.0,clock_5_5.png,1.0,60,,,,,,,,,,,,,,,,,,0.0,4.0,4.0,4.0,1.0,,,,,,,,,,
0.0,1.0,0.732285,,,,,,key_07s.jpg,0.0,clock_5_1.png,2.0,60,,,,,,,,,,,,,,,,,,0.0,5.0,5.0,5.0,1.0,,,,,,,,,,
0.0,1.0,0.597895,,,,,,lamppost_09s.jpg,0.0,clock_5_2.png,2.0,60,,,,,,,,,,,,,,,,,,0.0,6.0,6.0,6.0,1.0,,,,,,,,,,
0.0,1.0,0.755915,,,,,,jigsaw_puzzle_11s.jpg,0.0,clock_5_3.png,2.0,60,,,,,,,,,,,,,,,,,,0.0,7.0,7.0,7.0,1.0,,,,,,,,,,
0.0,1.0,0.60045,,,,,,pantyhose_07s.jpg,0.0,clock_5_4.png,2.0,60,,,,,,,,,,,,,,,,,,0.0,8.0,8.0,8.0,1.0,,,,,,,,,,
0.0,1.0,0.830815,,,,,,typewriter_11s.jpg,0.0,clock_5_5.png,2.0,60,,,,,,,,,,,,,,,,,,0.0,9.0,9.0,9.0,1.0,,,,,,,,,,
0.0,1.0,0.70361,,,,,,rocking_horse_03s.jpg,0.0,clock_7_1.png,3.0,60,,,,,,,,,,,,,,,,,,0.0,10.0,10.0,10.0,1.0,,,,,,,,,,
1.0,1.0,1.37113,,,,,,rocking_horse_03s.jpg,1.0,clock_7_2.png,3.0,60,,,,,,,,,,,,,,,,,,0.0,11.0,11.0,11.0,1.0,,,,,,,,,,
0.0,1.0,0.836545,,,,,,spider_web_03s.jpg,0.0,clock_7_3.png,3.0,60,,,,,,,,,,,,,,,,,,0.0,12.0,12.0,12.0,1.0,,,,,,,,,,
0.0,1.0,1.300895,,,,,,hydrant_10s.jpg,0.0,clock_7_4.png,3.0,60,,,,,,,,,,,,,,,,,,0.0,13.0,13.0,13.0,1.0,,,,,,,,,,
0.0,1.0,1.202605,,,,,,recliner_02s.jpg,0.0,clock_7_5.png,3.0,60,,,,,,,,,,,,,,,,,,0.0,14.0,14.0,14.0,1.0,,,,,,,,,,
1.0,0.0,1.581745,,,,,,pantyhose_07s.jpg,0.0,clock_7_6.png,3.0,60,,,,,,,,,,,,,,,,,,0.0,15.0,15.0,15.0,1.0,,,,,,,,,,
0.0,1.0,0.79825,,,,,,mosquito_12s.jpg,0.0,clock_7_7.png,3.0,60,,,,,,,,,,,,,,,,,,0.0,16.0,16.0,16.0,1.0,,,,,,,,,,
0.0,1.0,0.805775,,,,,,pan_02s.jpg,0.0,clock_7_1.png,4.0,60,,,,,,,,,,,,,,,,,,0.0,17.0,17.0,17.0,1.0,,,,,,,,,,
0.0,1.0,0.897685,,,,,,rope_16s.jpg,0.0,clock_7_2.png,4.0,60,,,,,,,,,,,,,,,,,,0.0,18.0,18.0,18.0,1.0,,,,,,,,,,
0.0,1.0,0.69704,,,,,,diving_board_07s.jpg,0.0,clock_7_3.png,4.0,60,,,,,,,,,,,,,,,,,,0.0,19.0,19.0,19.0,1.0,,,,,,,,,,
0.0,1.0,1.10199,,,,,,lamppost_09s.jpg,0.0,clock_7_4.png,4.0,60,,,,,,,,,,,,,,,,,,0.0,20.0,20.0,20.0,1.0,,,,,,,,,,
0.0,1.0,0.78538,,,,,,tape_06s.jpg,0.0,clock_7_5.png,4.0,60,,,,,,,,,,,,,,,,,,0.0,21.0,21.0,21.0,1.0,,,,,,,,,,
0.0,1.0,0.920775,,,,,,keyhole_03s.jpg,0.0,clock_7_6.png,4.0,60,,,,,,,,,,,,,,,,,,0.0,22.0,22.0,22.0,1.0,,,,,,,,,,
0.0,1.0,1.152545,,,,,,compass_10n.jpg,0.0,clock_7_7.png,4.0,60,,,,,,,,,,,,,,,,,,0.0,23.0,23.0,23.0,1.0,,,,,,,,,,
0.0,1.0,1.120345,,,,,,coconut_08s.jpg,0.0,clock_6_1.png,5.0,60,,,,,,,,,,,,,,,,,,0.0,24.0,24.0,24.0,1.0,,,,,,,,,,
0.0,1.0,0.934115,,,,,,bolo_tie_08s.jpg,0.0,clock_6_2.png,5.0,60,,,,,,,,,,,,,,,,,,0.0,25.0,25.0,25.0,1.0,,,,,,,,,,
0.0,1.0,0.816575,,,,,,frog_09s.jpg,0.0,clock_6_3.png,5.0,60,,,,,,,,,,,,,,,,,,0.0,26.0,26.0,26.0,1.0,,,,,,,,,,
0.0,1.0,1.001475,,,,,,mop_08s.jpg,0.0,clock_6_4.png,5.0,60,,,,,,,,,,,,,,,,,,0.0,27.0,27.0,27.0,1.0,,,,,,,,,,
0.0,1.0,0.726015,,,,,,jewel_01b.jpg,0.0,clock_6_5.png,5.0,60,,,,,,,,,,,,,,,,,,0.0,28.0,28.0,28.0,1.0,,,,,,,,,,
1.0,1.0,1.03495,,,,,,mop_08s.jpg,1.0,clock_6_6.png,5.0,60,,,,,,,,,,,,,,,,,,0.0,29.0,29.0,29.0,1.0,,,,,,,,,,
0.0,1.0,0.79668,,,,,,leash_10s.jpg,0.0,clock_6_1.png,6.0,60,,,,,,,,,,,,,,,,,,0.0,30.0,30.0,30.0,1.0,,,,,,,,,,
1.0,1.0,1.236885,,,,,,leash_10s.jpg,1.0,clock_6_2.png,6.0,60,,,,,,,,,,,,,,,,,,0.0,31.0,31.0,31.0,1.0,,,,,,,,,,
1.0,1.0,0.989195,,,,,,leash_10s.jpg,1.0,clock_6_3.png,6.0,60,,,,,,,,,,,,,,,,,,0.0,32.0,32.0,32.0,1.0,,,,,,,,,,
0.0,1.0,0.782335,,,,,,abacus_12s.jpg,0.0,clock_6_4.png,6.0,60,,,,,,,,,,,,,,,,,,0.0,33.0,33.0,33.0,1.0,,,,,,,,,,
0.0,1.0,1.396305,,,,,,compass_10n.jpg,0.0,clock_6_5.png,6.0,60,,,,,,,,,,,,,,,,,,0.0,34.0,34.0,34.0,1.0,,,,,,,,,,
0.0,1.0,1.152935,,,,,,marker_05s.jpg,0.0,clock_6_6.png,6.0,60,,,,,,,,,,,,,,,,,,0.0,35.0,35.0,35.0,1.0,,,,,,,,,,
,,,,,,,,,1.0,,,60,0.0,0.0,1.783395,,,,,,printer_09s.jpg,key_07s.jpg,,,,,,,,,,,,,0.0,0.0,0.0,0.0,1.0,,,,,
,,,,,,,,,1.0,,,60,0.0,0.0,2.07369,,,,,,koala_13s.jpg,jigsaw_puzzle_11s.jpg,,,,,,,,,,,,,0.0,1.0,1.0,1.0,1.0,,,,,
,,,,,,,,,0.0,,,60,1.0,0.0,1.183305,,,,,,spider_web_03s.jpg,typewriter_11s.jpg,,,,,,,,,,,,,0.0,2.0,2.0,2.0,1.0,,,,,
,,,,,,,,,0.0,,,60,1.0,0.0,1.170645,,,,,,mosquito_12s.jpg,hydrant_10s.jpg,,,,,,,,,,,,,0.0,3.0,3.0,3.0,1.0,,,,,
,,,,,,,,,0.0,,,60,1.0,0.0,1.151345,,,,,,tape_06s.jpg,rope_16s.jpg,,,,,,,,,,,,,0.0,4.0,4.0,4.0,1.0,,,,,
,,,,,,,,,0.0,,,60,0.0,1.0,2.05157,,,,,,jewel_01b.jpg,bolo_tie_08s.jpg,,,,,,,,,,,,,0.0,5.0,5.0,5.0,1.0,,,,,
,,,,,,,,,,,,60,,,,,,,,,,,,,,,,clock_present_3_16.xlsx,clock_compare_task_3_16.xlsx,,,,,,,,,,,0.0,2.0,2.0,2.0,1.0
,0.0,,,,,,,mud_13s.jpg,0.0,clock_5_1.png,1.0,60,,,,,,,,,,,,,,,,,,0.0,0.0,0.0,0.0,1.0,,,,,,,,,,
0.0,1.0,0.5747,,,,,,mannequin_05s.jpg,0.0,clock_5_2.png,1.0,60,,,,,,,,,,,,,,,,,,0.0,1.0,1.0,1.0,1.0,,,,,,,,,,
0.0,1.0,1.097885,,,,,,turtleneck_11s.jpg,0.0,clock_5_3.png,1.0,60,,,,,,,,,,,,,,,,,,0.0,2.0,2.0,2.0,1.0,,,,,,,,,,
0.0,1.0,2.034865,,,,,,umbrella_15s.jpg,0.0,clock_5_4.png,1.0,60,,,,,,,,,,,,,,,,,,0.0,3.0,3.0,3.0,1.0,,,,,,,,,,
1.0,1.0,1.01448,,,,,,mannequin_05s.jpg,1.0,clock_5_5.png,1.0,60,,,,,,,,,,,,,,,,,,0.0,4.0,4.0,4.0,1.0,,,,,,,,,,
0.0,1.0,0.94518,,,,,,quad_04s.jpg,0.0,clock_7_1.png,2.0,60,,,,,,,,,,,,,,,,,,0.0,5.0,5.0,5.0,1.0,,,,,,,,,,
0.0,1.0,0.83238,,,,,,inhaler_01b.jpg,0.0,clock_7_2.png,2.0,60,,,,,,,,,,,,,,,,,,0.0,6.0,6.0,6.0,1.0,,,,,,,,,,
0.0,1.0,0.880015,,,,,,lollipop_08s.jpg,0.0,clock_7_3.png,2.0,60,,,,,,,,,,,,,,,,,,0.0,7.0,7.0,7.0,1.0,,,,,,,,,,
0.0,1.0,0.63264,,,,,,rocket_02s.jpg,0.0,clock_7_4.png,2.0,60,,,,,,,,,,,,,,,,,,0.0,8.0,8.0,8.0,1.0,,,,,,,,,,
0.0,1.0,0.86519,,,,,,spacesuit_02s.jpg,0.0,clock_7_5.png,2.0,60,,,,,,,,,,,,,,,,,,0.0,9.0,9.0,9.0,1.0,,,,,,,,,,
0.0,1.0,0.746245,,,,,,quesadilla_07s.jpg,0.0,clock_7_6.png,2.0,60,,,,,,,,,,,,,,,,,,0.0,10.0,10.0,10.0,1.0,,,,,,,,,,
0.0,1.0,0.98416,,,,,,punch1_10s.jpg,0.0,clock_7_7.png,2.0,60,,,,,,,,,,,,,,,,,,0.0,11.0,11.0,11.0,1.0,,,,,,,,,,
0.0,1.0,0.79208,,,,,,swimming_pool_17s.jpg,0.0,clock_5_1.png,3.0,60,,,,,,,,,,,,,,,,,,0.0,12.0,12.0,12.0,1.0,,,,,,,,,,
0.0,1.0,0.76672,,,,,,espresso_01b.jpg,0.0,clock_5_2.png,3.0,60,,,,,,,,,,,,,,,,,,0.0,13.0,13.0,13.0,1.0,,,,,,,,,,
0.0,1.0,0.855195,,,,,,torch_02s.jpg,0.0,clock_5_3.png,3.0,60,,,,,,,,,,,,,,,,,,0.0,14.0,14.0,14.0,1.0,,,,,,,,,,
0.0,1.0,1.23775,,,,,,spacesuit_02s.jpg,0.0,clock_5_4.png,3.0,60,,,,,,,,,,,,,,,,,,0.0,15.0,15.0,15.0,1.0,,,,,,,,,,
0.0,1.0,0.847685,,,,,,pipe1_10s.jpg,0.0,clock_5_5.png,3.0,60,,,,,,,,,,,,,,,,,,0.0,16.0,16.0,16.0,1.0,,,,,,,,,,
0.0,1.0,0.83617,,,,,,hummingbird_05s.jpg,0.0,clock_6_1.png,4.0,60,,,,,,,,,,,,,,,,,,0.0,17.0,17.0,17.0,1.0,,,,,,,,,,
0.0,1.0,0.887185,,,,,,scooter.jpg,0.0,clock_6_2.png,4.0,60,,,,,,,,,,,,,,,,,,0.0,18.0,18.0,18.0,1.0,,,,,,,,,,
0.0,1.0,0.909255,,,,,,sunglasses_11s.jpg,0.0,clock_6_3.png,4.0,60,,,,,,,,,,,,,,,,,,0.0,19.0,19.0,19.0,1.0,,,,,,,,,,
1.0,1.0,1.436245,,,,,,hummingbird_05s.jpg,1.0,clock_6_4.png,4.0,60,,,,,,,,,,,,,,,,,,0.0,20.0,20.0,20.0,1.0,,,,,,,,,,
0.0,1.0,1.230265,,,,,,ice-cream_cone_06s.jpg,0.0,clock_6_5.png,4.0,60,,,,,,,,,,,,,,,,,,0.0,21.0,21.0,21.0,1.0,,,,,,,,,,
0.0,1.0,1.017615,,,,,,ink_08s.jpg,0.0,clock_6_6.png,4.0,60,,,,,,,,,,,,,,,,,,0.0,22.0,22.0,22.0,1.0,,,,,,,,,,
0.0,1.0,0.56446,,,,,,butter_14s.jpg,0.0,clock_6_1.png,5.0,60,,,,,,,,,,,,,,,,,,0.0,23.0,23.0,23.0,1.0,,,,,,,,,,
0.0,1.0,1.10135,,,,,,ink_08s.jpg,0.0,clock_6_2.png,5.0,60,,,,,,,,,,,,,,,,,,0.0,24.0,24.0,24.0,1.0,,,,,,,,,,
0.0,1.0,1.633755,,,,,,foam_03s.jpg,0.0,clock_6_3.png,5.0,60,,,,,,,,,,,,,,,,,,0.0,25.0,25.0,25.0,1.0,,,,,,,,,,
0.0,1.0,0.74971,,,,,,lava_02s.jpg,0.0,clock_6_4.png,5.0,60,,,,,,,,,,,,,,,,,,0.0,26.0,26.0,26.0,1.0,,,,,,,,,,
0.0,1.0,0.71872,,,,,,rudder_02s.jpg,0.0,clock_6_5.png,5.0,60,,,,,,,,,,,,,,,,,,0.0,27.0,27.0,27.0,1.0,,,,,,,,,,
0.0,1.0,0.82059,,,,,,tab_09s.jpg,0.0,clock_6_6.png,5.0,60,,,,,,,,,,,,,,,,,,0.0,28.0,28.0,28.0,1.0,,,,,,,,,,
0.0,1.0,0.853215,,,,,,lemonade_04s.jpg,0.0,clock_7_1.png,6.0,60,,,,,,,,,,,,,,,,,,0.0,29.0,29.0,29.0,1.0,,,,,,,,,,
0.0,1.0,0.980625,,,,,,lollipop_08s.jpg,0.0,clock_7_2.png,6.0,60,,,,,,,,,,,,,,,,,,0.0,30.0,30.0,30.0,1.0,,,,,,,,,,
0.0,1.0,0.86698,,,,,,teabag_12s.jpg,0.0,clock_7_3.png,6.0,60,,,,,,,,,,,,,,,,,,0.0,31.0,31.0,31.0,1.0,,,,,,,,,,
0.0,1.0,1.11736,,,,,,sunglasses_11s.jpg,0.0,clock_7_4.png,6.0,60,,,,,,,,,,,,,,,,,,0.0,32.0,32.0,32.0,1.0,,,,,,,,,,
1.0,1.0,1.424535,,,,,,lemonade_04s.jpg,1.0,clock_7_5.png,6.0,60,,,,,,,,,,,,,,,,,,0.0,33.0,33.0,33.0,1.0,,,,,,,,,,
0.0,1.0,1.4872,,,,,,fire_pit_10s.jpg,0.0,clock_7_6.png,6.0,60,,,,,,,,,,,,,,,,,,0.0,34.0,34.0,34.0,1.0,,,,,,,,,,
0.0,1.0,1.181555,,,,,,crayon_09s.jpg,0.0,clock_7_7.png,6.0,60,,,,,,,,,,,,,,,,,,0.0,35.0,35.0,35.0,1.0,,,,,,,,,,
,,,,,,,,,0.0,,,60,0.0,1.0,2.97716,,,,,,quad_04s.jpg,turtleneck_11s.jpg,,,,,,,,,,,,,0.0,0.0,0.0,0.0,1.0,,,,,
,,,,,,,,,1.0,,,60,1.0,1.0,4.048375,,,,,,umbrella_15s.jpg,inhaler_01b.jpg,,,,,,,,,,,,,0.0,1.0,1.0,1.0,1.0,,,,,
,,,,,,,,,1.0,,,60,1.0,1.0,1.718565,,,,,,quesadilla_07s.jpg,espresso_01b.jpg,,,,,,,,,,,,,0.0,2.0,2.0,2.0,1.0,,,,,
,,,,,,,,,1.0,,,60,0.0,0.0,1.336925,,,,,,scooter.jpg,ice-cream_cone_06s.jpg,,,,,,,,,,,,,0.0,3.0,3.0,3.0,1.0,,,,,
,,,,,,,,,1.0,,,60,1.0,1.0,1.270175,,,,,,butter_14s.jpg,lava_02s.jpg,,,,,,,,,,,,,0.0,4.0,4.0,4.0,1.0,,,,,
,,,,,,,,,1.0,,,60,1.0,1.0,1.02253,,,,,,rocket_02s.jpg,punch1_10s.jpg,,,,,,,,,,,,,0.0,5.0,5.0,5.0,1.0,,,,,
,,,,,,,,,,,,60,,,,,,,,,,,,,,,,clock_present_4_16.xlsx,clock_compare_task_4_16.xlsx,,,,,,,,,,,0.0,3.0,3.0,3.0,1.0
0.0,1.0,1.174515,,,,,,clover_04s.jpg,0.0,clock_6_1.png,1.0,60,,,,,,,,,,,,,,,,,,0.0,0.0,0.0,0.0,1.0,,,,,,,,,,
0.0,1.0,0.66649,,,,,,kayak_08s.jpg,0.0,clock_6_2.png,1.0,60,,,,,,,,,,,,,,,,,,0.0,1.0,1.0,1.0,1.0,,,,,,,,,,
0.0,1.0,1.25911,,,,,,toothpaste_12s.jpg,0.0,clock_6_3.png,1.0,60,,,,,,,,,,,,,,,,,,0.0,2.0,2.0,2.0,1.0,,,,,,,,,,
1.0,1.0,0.98315,,,,,,kayak_08s.jpg,1.0,clock_6_4.png,1.0,60,,,,,,,,,,,,,,,,,,0.0,3.0,3.0,3.0,1.0,,,,,,,,,,
0.0,0.0,0.73332,,,,,,clover_04s.jpg,1.0,clock_6_5.png,1.0,60,,,,,,,,,,,,,,,,,,0.0,4.0,4.0,4.0,1.0,,,,,,,,,,
0.0,1.0,0.566535,,,,,,bonsai_07s.jpg,0.0,clock_6_6.png,1.0,60,,,,,,,,,,,,,,,,,,0.0,5.0,5.0,5.0,1.0,,,,,,,,,,
0.0,1.0,0.63188,,,,,,comic_book_02s.jpg,0.0,clock_5_1.png,2.0,60,,,,,,,,,,,,,,,,,,0.0,6.0,6.0,6.0,1.0,,,,,,,,,,
0.0,1.0,0.88159,,,,,,penlight_12s.jpg,0.0,clock_5_2.png,2.0,60,,,,,,,,,,,,,,,,,,0.0,7.0,7.0,7.0,1.0,,,,,,,,,,
0.0,1.0,0.95407,,,,,,emerald_02s.jpg,0.0,clock_5_3.png,2.0,60,,,,,,,,,,,,,,,,,,0.0,8.0,8.0,8.0,1.0,,,,,,,,,,
0.0,1.0,0.506895,,,,,,mussel_11s.jpg,0.0,clock_5_4.png,2.0,60,,,,,,,,,,,,,,,,,,0.0,9.0,9.0,9.0,1.0,,,,,,,,,,
0.0,1.0,0.68273,,,,,,rock_08s.jpg,0.0,clock_5_5.png,2.0,60,,,,,,,,,,,,,,,,,,0.0,10.0,10.0,10.0,1.0,,,,,,,,,,
0.0,1.0,0.697415,,,,,,toilet_paper_12s.jpg,0.0,clock_6_1.png,3.0,60,,,,,,,,,,,,,,,,,,0.0,11.0,11.0,11.0,1.0,,,,,,,,,,
0.0,1.0,0.617635,,,,,,microwave_02s.jpg,0.0,clock_6_2.png,3.0,60,,,,,,,,,,,,,,,,,,0.0,12.0,12.0,12.0,1.0,,,,,,,,,,
1.0,1.0,1.289,,,,,,toilet_paper_12s.jpg,1.0,clock_6_3.png,3.0,60,,,,,,,,,,,,,,,,,,0.0,13.0,13.0,13.0,1.0,,,,,,,,,,
0.0,1.0,0.60208,,,,,,mattress_01s.jpg,0.0,clock_6_4.png,3.0,60,,,,,,,,,,,,,,,,,,0.0,14.0,14.0,14.0,1.0,,,,,,,,,,
0.0,1.0,0.523875,,,,,,cushion_08s.jpg,0.0,clock_6_5.png,3.0,60,,,,,,,,,,,,,,,,,,0.0,15.0,15.0,15.0,1.0,,,,,,,,,,
0.0,1.0,0.74693,,,,,,rhinoceros_02s.jpg,0.0,clock_6_6.png,3.0,60,,,,,,,,,,,,,,,,,,0.0,16.0,16.0,16.0,1.0,,,,,,,,,,
0.0,1.0,0.559145,,,,,,latte_06s.jpg,0.0,clock_5_1.png,4.0,60,,,,,,,,,,,,,,,,,,0.0,17.0,17.0,17.0,1.0,,,,,,,,,,
0.0,1.0,0.821975,,,,,,projector_08s.jpg,0.0,clock_5_2.png,4.0,60,,,,,,,,,,,,,,,,,,0.0,18.0,18.0,18.0,1.0,,,,,,,,,,
0.0,1.0,0.633695,,,,,,rollerskate_03s.jpg,0.0,clock_5_3.png,4.0,60,,,,,,,,,,,,,,,,,,0.0,19.0,19.0,19.0,1.0,,,,,,,,,,
1.0,1.0,1.53664,,,,,,latte_06s.jpg,1.0,clock_5_4.png,4.0,60,,,,,,,,,,,,,,,,,,0.0,20.0,20.0,20.0,1.0,,,,,,,,,,
0.0,1.0,0.59812,,,,,,pincushion_10s.jpg,0.0,clock_5_5.png,4.0,60,,,,,,,,,,,,,,,,,,0.0,21.0,21.0,21.0,1.0,,,,,,,,,,
0.0,1.0,2.38899,,,,,,tuba_12s.jpg,0.0,clock_7_1.png,5.0,60,,,,,,,,,,,,,,,,,,0.0,22.0,22.0,22.0,1.0,,,,,,,,,,
0.0,1.0,1.59985,,,,,,cucumber_07s.jpg,0.0,clock_7_2.png,5.0,60,,,,,,,,,,,,,,,,,,0.0,23.0,23.0,23.0,1.0,,,,,,,,,,
0.0,1.0,0.580895,,,,,,treasure_08s.jpg,0.0,clock_7_3.png,5.0,60,,,,,,,,,,,,,,,,,,0.0,24.0,24.0,24.0,1.0,,,,,,,,,,
1.0,1.0,1.38245,,,,,,cucumber_07s.jpg,1.0,clock_7_4.png,5.0,60,,,,,,,,,,,,,,,,,,0.0,25.0,25.0,25.0,1.0,,,,,,,,,,
0.0,1.0,0.64893,,,,,,razor_12s.jpg,0.0,clock_7_5.png,5.0,60,,,,,,,,,,,,,,,,,,0.0,26.0,26.0,26.0,1.0,,,,,,,,,,
0.0,1.0,0.61532,,,,,,sunflower_17s.jpg,0.0,clock_7_6.png,5.0,60,,,,,,,,,,,,,,,,,,0.0,27.0,27.0,27.0,1.0,,,,,,,,,,
0.0,1.0,0.51824,,,,,,basket_05s.jpg,0.0,clock_7_7.png,5.0,60,,,,,,,,,,,,,,,,,,0.0,28.0,28.0,28.0,1.0,,,,,,,,,,
0.0,1.0,0.732705,,,,,,breadstick_08s.jpg,0.0,clock_7_1.png,6.0,60,,,,,,,,,,,,,,,,,,0.0,29.0,29.0,29.0,1.0,,,,,,,,,,
1.0,1.0,1.46413,,,,,,breadstick_08s.jpg,1.0,clock_7_2.png,6.0,60,,,,,,,,,,,,,,,,,,0.0,30.0,30.0,30.0,1.0,,,,,,,,,,
1.0,1.0,1.03366,,,,,,breadstick_08s.jpg,1.0,clock_7_3.png,6.0,60,,,,,,,,,,,,,,,,,,0.0,31.0,31.0,31.0,1.0,,,,,,,,,,
0.0,1.0,1.105665,,,,,,gingerbread_man_03s.jpg,0.0,clock_7_4.png,6.0,60,,,,,,,,,,,,,,,,,,0.0,32.0,32.0,32.0,1.0,,,,,,,,,,
0.0,1.0,0.527275,,,,,,laser_pointer_02s.jpg,0.0,clock_7_5.png,6.0,60,,,,,,,,,,,,,,,,,,0.0,33.0,33.0,33.0,1.0,,,,,,,,,,
0.0,1.0,0.65331,,,,,,marshmallow_08s.jpg,0.0,clock_7_6.png,6.0,60,,,,,,,,,,,,,,,,,,0.0,34.0,34.0,34.0,1.0,,,,,,,,,,
1.0,1.0,0.90411,,,,,,breadstick_08s.jpg,1.0,clock_7_7.png,6.0,60,,,,,,,,,,,,,,,,,,0.0,35.0,35.0,35.0,1.0,,,,,,,,,,
,,,,,,,,,1.0,,,60,0.0,0.0,1.36302,,,,,,rhinoceros_02s.jpg,rollerskate_03s.jpg,,,,,,,,,,,,,0.0,0.0,0.0,0.0,1.0,,,,,
,,,,,,,,,0.0,,,60,1.0,0.0,2.386525,,,,,,emerald_02s.jpg,bonsai_07s.jpg,,,,,,,,,,,,,0.0,1.0,1.0,1.0,1.0,,,,,
,,,,,,,,,0.0,,,60,0.0,1.0,1.11579,,,,,,microwave_02s.jpg,mussel_11s.jpg,,,,,,,,,,,,,0.0,2.0,2.0,2.0,1.0,,,,,
,,,,,,,,,0.0,,,60,1.0,0.0,1.91657,,,,,,rock_08s.jpg,penlight_12s.jpg,,,,,,,,,,,,,0.0,3.0,3.0,3.0,1.0,,,,,
,,,,,,,,,1.0,,,60,1.0,1.0,1.88881,,,,,,treasure_08s.jpg,sunflower_17s.jpg,,,,,,,,,,,,,0.0,4.0,4.0,4.0,1.0,,,,,
,,,,,,,,,1.0,,,60,1.0,1.0,1.3699,,,,,,projector_08s.jpg,pincushion_10s.jpg,,,,,,,,,,,,,0.0,5.0,5.0,5.0,1.0,,,,,
,,,,,,,,,,,,60,,,,,,,,,,,,,,,,clock_present_5_16.xlsx,clock_compare_task_5_16.xlsx,,,,,,,,,,,0.0,4.0,4.0,4.0,1.0
0.0,1.0,0.8747,,,,,,buoy_04s.jpg,0.0,clock_5_1.png,1.0,60,,,,,,,,,,,,,,,,,,0.0,0.0,0.0,0.0,1.0,,,,,,,,,,
0.0,1.0,0.58177,,,,,,punch2_09s.jpg,0.0,clock_5_2.png,1.0,60,,,,,,,,,,,,,,,,,,0.0,1.0,1.0,1.0,1.0,,,,,,,,,,
0.0,1.0,0.69805,,,,,,rosary_03s.jpg,0.0,clock_5_3.png,1.0,60,,,,,,,,,,,,,,,,,,0.0,2.0,2.0,2.0,1.0,,,,,,,,,,
0.0,1.0,0.665925,,,,,,toad_09s.jpg,0.0,clock_5_4.png,1.0,60,,,,,,,,,,,,,,,,,,0.0,3.0,3.0,3.0,1.0,,,,,,,,,,
0.0,1.0,0.41573,,,,,,lab_coat_11s.jpg,0.0,clock_5_5.png,1.0,60,,,,,,,,,,,,,,,,,,0.0,4.0,4.0,4.0,1.0,,,,,,,,,,
0.0,1.0,0.555085,,,,,,swing_set_15s.jpg,0.0,clock_5_1.png,2.0,60,,,,,,,,,,,,,,,,,,0.0,5.0,5.0,5.0,1.0,,,,,,,,,,
0.0,0.0,1.787075,,,,,,swing_set_15s.jpg,1.0,clock_5_2.png,2.0,60,,,,,,,,,,,,,,,,,,0.0,6.0,6.0,6.0,1.0,,,,,,,,,,
1.0,1.0,0.83198,,,,,,swing_set_15s.jpg,1.0,clock_5_3.png,2.0,60,,,,,,,,,,,,,,,,,,0.0,7.0,7.0,7.0,1.0,,,,,,,,,,
1.0,1.0,0.436615,,,,,,swing_set_15s.jpg,1.0,clock_5_4.png,2.0,60,,,,,,,,,,,,,,,,,,0.0,8.0,8.0,8.0,1.0,,,,,,,,,,
0.0,1.0,1.00258,,,,,,tennis_ball_06s.jpg,0.0,clock_5_5.png,2.0,60,,,,,,,,,,,,,,,,,,0.0,9.0,9.0,9.0,1.0,,,,,,,,,,
0.0,1.0,0.515735,,,,,,powder_07s.jpg,0.0,clock_6_1.png,3.0,60,,,,,,,,,,,,,,,,,,0.0,10.0,10.0,10.0,1.0,,,,,,,,,,
0.0,1.0,0.60036,,,,,,tattoo_14s.jpg,0.0,clock_6_2.png,3.0,60,,,,,,,,,,,,,,,,,,0.0,11.0,11.0,11.0,1.0,,,,,,,,,,
0.0,1.0,0.884435,,,,,,cape_11s.jpg,0.0,clock_6_3.png,3.0,60,,,,,,,,,,,,,,,,,,0.0,12.0,12.0,12.0,1.0,,,,,,,,,,
0.0,1.0,0.86616,,,,,,turnstile_08s.jpg,0.0,clock_6_4.png,3.0,60,,,,,,,,,,,,,,,,,,0.0,13.0,13.0,13.0,1.0,,,,,,,,,,
1.0,1.0,0.902945,,,,,,cape_11s.jpg,1.0,clock_6_5.png,3.0,60,,,,,,,,,,,,,,,,,,0.0,14.0,14.0,14.0,1.0,,,,,,,,,,
0.0,1.0,0.729425,,,,,,loveseat_08s.jpg,0.0,clock_6_6.png,3.0,60,,,,,,,,,,,,,,,,,,0.0,15.0,15.0,15.0,1.0,,,,,,,,,,
0.0,1.0,0.480195,,,,,,swan_11s.jpg,0.0,clock_6_1.png,4.0,60,,,,,,,,,,,,,,,,,,0.0,16.0,16.0,16.0,1.0,,,,,,,,,,
0.0,1.0,0.66845,,,,,,totem_pole_05s.jpg,0.0,clock_6_2.png,4.0,60,,,,,,,,,,,,,,,,,,0.0,17.0,17.0,17.0,1.0,,,,,,,,,,
0.0,1.0,0.71431,,,,,,lip_gloss_06s.jpg,0.0,clock_6_3.png,4.0,60,,,,,,,,,,,,,,,,,,0.0,18.0,18.0,18.0,1.0,,,,,,,,,,
0.0,1.0,0.6545,,,,,,toad_09s.jpg,0.0,clock_6_4.png,4.0,60,,,,,,,,,,,,,,,,,,0.0,19.0,19.0,19.0,1.0,,,,,,,,,,
0.0,1.0,0.470565,,,,,,ring_03s.jpg,0.0,clock_6_5.png,4.0,60,,,,,,,,,,,,,,,,,,0.0,20.0,20.0,20.0,1.0,,,,,,,,,,
0.0,1.0,0.4481,,,,,,powder_07s.jpg,0.0,clock_6_6.png,4.0,60,,,,,,,,,,,,,,,,,,0.0,21.0,21.0,21.0,1.0,,,,,,,,,,
0.0,1.0,0.879435,,,,,,taxi_15s.jpg,0.0,clock_7_1.png,5.0,60,,,,,,,,,,,,,,,,,,0.0,22.0,22.0,22.0,1.0,,,,,,,,,,
1.0,1.0,1.00139,,,,,,taxi_15s.jpg,1.0,clock_7_2.png,5.0,60,,,,,,,,,,,,,,,,,,0.0,23.0,23.0,23.0,1.0,,,,,,,,,,
0.0,1.0,0.83631,,,,,,gazelle_10s.jpg,0.0,clock_7_3.png,5.0,60,,,,,,,,,,,,,,,,,,0.0,24.0,24.0,24.0,1.0,,,,,,,,,,
0.0,1.0,0.88481,,,,,,thumbtack_14s.jpg,0.0,clock_7_4.png,5.0,60,,,,,,,,,,,,,,,,,,0.0,25.0,25.0,25.0,1.0,,,,,,,,,,
0.0,1.0,0.632345,,,,,,hyena_16s.jpg,0.0,clock_7_5.png,5.0,60,,,,,,,,,,,,,,,,,,0.0,26.0,26.0,26.0,1.0,,,,,,,,,,
0.0,1.0,0.53134,,,,,,badge_03s.jpg,0.0,clock_7_6.png,5.0,60,,,,,,,,,,,,,,,,,,0.0,27.0,27.0,27.0,1.0,,,,,,,,,,
0.0,1.0,0.56967,,,,,,blazer_02s.jpg,0.0,clock_7_7.png,5.0,60,,,,,,,,,,,,,,,,,,0.0,28.0,28.0,28.0,1.0,,,,,,,,,,
0.0,1.0,0.450875,,,,,,blowfish_03s.jpg,0.0,clock_7_1.png,6.0,60,,,,,,,,,,,,,,,,,,0.0,29.0,29.0,29.0,1.0,,,,,,,,,,
0.0,1.0,0.48552,,,,,,licorice_06s.jpg,0.0,clock_7_2.png,6.0,60,,,,,,,,,,,,,,,,,,0.0,30.0,30.0,30.0,1.0,,,,,,,,,,
0.0,1.0,0.530475,,,,,,checkbook_11s.jpg,0.0,clock_7_3.png,6.0,60,,,,,,,,,,,,,,,,,,0.0,31.0,31.0,31.0,1.0,,,,,,,,,,
0.0,1.0,0.71636,,,,,,reindeer_08s.jpg,0.0,clock_7_4.png,6.0,60,,,,,,,,,,,,,,,,,,0.0,32.0,32.0,32.0,1.0,,,,,,,,,,
0.0,1.0,0.583965,,,,,,doily_13s.jpg,0.0,clock_7_5.png,6.0,60,,,,,,,,,,,,,,,,,,0.0,33.0,33.0,33.0,1.0,,,,,,,,,,
0.0,1.0,0.446005,,,,,,possum_09s.jpg,0.0,clock_7_6.png,6.0,60,,,,,,,,,,,,,,,,,,0.0,34.0,34.0,34.0,1.0,,,,,,,,,,
0.0,1.0,0.500865,,,,,,keyboard_05s.jpg,0.0,clock_7_7.png,6.0,60,,,,,,,,,,,,,,,,,,0.0,35.0,35.0,35.0,1.0,,,,,,,,,,
,,,,,,,,,1.0,,,60,1.0,1.0,2.566865,,,,,,turnstile_08s.jpg,swan_11s.jpg,,,,,,,,,,,,,0.0,0.0,0.0,0.0,1.0,,,,,
,,,,,,,,,1.0,,,60,1.0,1.0,1.201635,,,,,,loveseat_08s.jpg,lip_gloss_06s.jpg,,,,,,,,,,,,,0.0,1.0,1.0,1.0,1.0,,,,,
,,,,,,,,,1.0,,,60,1.0,1.0,1.23163,,,,,,hyena_16s.jpg,blowfish_03s.jpg,,,,,,,,,,,,,0.0,2.0,2.0,2.0,1.0,,,,,
,,,,,,,,,0.0,,,60,0.0,1.0,1.250725,,,,,,lab_coat_11s.jpg,punch2_09s.jpg,,,,,,,,,,,,,0.0,3.0,3.0,3.0,1.0,,,,,
,,,,,,,,,0.0,,,60,0.0,1.0,1.660235,,,,,,ring_03s.jpg,totem_pole_05s.jpg,,,,,,,,,,,,,0.0,4.0,4.0,4.0,1.0,,,,,
,,,,,,,,,0.0,,,60,0.0,1.0,2.18273,,,,,,keyboard_05s.jpg,reindeer_08s.jpg,,,,,,,,,,,,,0.0,5.0,5.0,5.0,1.0,,,,,
