key_resp.keys,key_resp.corr,key_resp.rt,noclock_loop.thisRepN,noclock_loop.thisTrialN,noclock_loop.thisN,noclock_loop.thisIndex,noclock_loop.ran,pictures,answer,clock,segment,participant,key_resp_2.keys,key_resp_2.corr,key_resp_2.rt,noclock_loop2.thisRepN,noclock_loop2.thisTrialN,noclock_loop2.thisN,noclock_loop2.thisIndex,noclock_loop2.ran,item_a,item_b,noclock_condition.thisRepN,noclock_condition.thisTrialN,noclock_condition.thisN,noclock_condition.thisIndex,noclock_condition.ran,present,compare,present_segment.thisRepN,present_segment.thisTrialN,present_segment.thisN,present_segment.thisIndex,present_segment.ran,compare_segment.thisRepN,compare_segment.thisTrialN,compare_segment.thisN,compare_segment.thisIndex,compare_segment.ran,clock_conditions.thisRepN,clock_conditions.thisTrialN,clock_conditions.thisN,clock_conditions.thisIndex,clock_conditions.ran
0.0,1.0,1.35654,0.0,0.0,0.0,0.0,1.0,stamp1_11s.jpg,0.0,clockno_up.jpg,1.0,34,,,,,,,,,,,,,,,,,,,,,,,,,,,,,,,,
1.0,1.0,1.404435,0.0,1.0,1.0,1.0,1.0,stamp1_11s.jpg,1.0,clockno_default.jpg,1.0,34,,,,,,,,,,,,,,,,,,,,,,,,,,,,,,,,
1.0,1.0,0.800025,0.0,2.0,2.0,2.0,1.0,stamp1_11s.jpg,1.0,clockno_default.jpg,1.0,34,,,,,,,,,,,,,,,,,,,,,,,,,,,,,,,,
0.0,1.0,1.215175,0.0,3.0,3.0,3.0,1.0,bacon_05s.jpg,0.0,clockno_default.jpg,1.0,34,,,,,,,,,,,,,,,,,,,,,,,,,,,,,,,,
0.0,1.0,1.45316,0.0,4.0,4.0,4.0,1.0,mold2_04s.jpg,0.0,clockno_default.jpg,1.0,34,,,,,,,,,,,,,,,,,,,,,,,,,,,,,,,,
0.0,1.0,1.221,0.0,5.0,5.0,5.0,1.0,ravioli_08s.jpg,0.0,clockno_up.jpg,2.0,34,,,,,,,,,,,,,,,,,,,,,,,,,,,,,,,,
0.0,1.0,1.30171,0.0,6.0,6.0,6.0,1.0,lasagna_06s.jpg,0.0,clockno_default.jpg,2.0,34,,,,,,,,,,,,,,,,,,,,,,,,,,,,,,,,
0.0,1.0,0.762635,0.0,7.0,7.0,7.0,1.0,soda_fountain_03s.jpg,0.0,clockno_default.jpg,2.0,34,,,,,,,,,,,,,,,,,,,,,,,,,,,,,,,,
0.0,1.0,1.019365,0.0,8.0,8.0,8.0,1.0,sparkler_02s.jpg,0.0,clockno_default.jpg,2.0,34,,,,,,,,,,,,,,,,,,,,,,,,,,,,,,,,
1.0,1.0,0.9339,0.0,9.0,9.0,9.0,1.0,ravioli_08s.jpg,1.0,clockno_default.jpg,2.0,34,,,,,,,,,,,,,,,,,,,,,,,,,,,,,,,,
0.0,1.0,1.82911,0.0,10.0,10.0,10.0,1.0,raccoon_02s.jpg,0.0,clockno_default.jpg,2.0,34,,,,,,,,,,,,,,,,,,,,,,,,,,,,,,,,
0.0,1.0,1.594305,0.0,11.0,11.0,11.0,1.0,ruby_15s.jpg,0.0,clockno_default.jpg,2.0,34,,,,,,,,,,,,,,,,,,,,,,,,,,,,,,,,
0.0,1.0,1.259225,0.0,12.0,12.0,12.0,1.0,boomerang_06s.jpg,0.0,clockno_up.jpg,3.0,34,,,,,,,,,,,,,,,,,,,,,,,,,,,,,,,,
0.0,1.0,0.665065,0.0,13.0,13.0,13.0,1.0,tape_measure_11s.jpg,0.0,clockno_default.jpg,3.0,34,,,,,,,,,,,,,,,,,,,,,,,,,,,,,,,,
0.0,1.0,0.92702,0.0,14.0,14.0,14.0,1.0,power_line_08s.jpg,0.0,clockno_default.jpg,3.0,34,,,,,,,,,,,,,,,,,,,,,,,,,,,,,,,,
1.0,1.0,1.37375,0.0,15.0,15.0,15.0,1.0,boomerang_06s.jpg,1.0,clockno_default.jpg,3.0,34,,,,,,,,,,,,,,,,,,,,,,,,,,,,,,,,
0.0,1.0,1.657485,0.0,16.0,16.0,16.0,1.0,letter_opener_03s.jpg,0.0,clockno_default.jpg,3.0,34,,,,,,,,,,,,,,,,,,,,,,,,,,,,,,,,
0.0,1.0,1.026875,0.0,17.0,17.0,17.0,1.0,parachute_03s.jpg,0.0,clockno_default.jpg,3.0,34,,,,,,,,,,,,,,,,,,,,,,,,,,,,,,,,
0.0,1.0,1.11873,0.0,18.0,18.0,18.0,1.0,snowman_02s.jpg,0.0,clockno_up.jpg,4.0,34,,,,,,,,,,,,,,,,,,,,,,,,,,,,,,,,
0.0,1.0,0.763285,0.0,19.0,19.0,19.0,1.0,turtle_08s.jpg,0.0,clockno_default.jpg,4.0,34,,,,,,,,,,,,,,,,,,,,,,,,,,,,,,,,
,0.0,,0.0,20.0,20.0,20.0,1.0,rug_09s.jpg,0.0,clockno_default.jpg,4.0,34,,,,,,,,,,,,,,,,,,,,,,,,,,,,,,,,
0.0,1.0,0.737145,0.0,21.0,21.0,21.0,1.0,soccer_ball_12s.jpg,0.0,clockno_default.jpg,4.0,34,,,,,,,,,,,,,,,,,,,,,,,,,,,,,,,,
0.0,1.0,0.724435,0.0,22.0,22.0,22.0,1.0,paper_bag_12s.jpg,0.0,clockno_default.jpg,4.0,34,,,,,,,,,,,,,,,,,,,,,,,,,,,,,,,,
1.0,1.0,0.8195,0.0,23.0,23.0,23.0,1.0,paper_bag_12s.jpg,1.0,clockno_default.jpg,4.0,34,,,,,,,,,,,,,,,,,,,,,,,,,,,,,,,,
0.0,1.0,1.15473,0.0,24.0,24.0,24.0,1.0,lasagna_06s.jpg,0.0,clockno_default.jpg,4.0,34,,,,,,,,,,,,,,,,,,,,,,,,,,,,,,,,
0.0,1.0,1.16377,0.0,25.0,25.0,25.0,1.0,teapot_03s.jpg,0.0,clockno_up.jpg,5.0,34,,,,,,,,,,,,,,,,,,,,,,,,,,,,,,,,
0.0,1.0,0.914235,0.0,26.0,26.0,26.0,1.0,frame_06s.jpg,0.0,clockno_default.jpg,5.0,34,,,,,,,,,,,,,,,,,,,,,,,,,,,,,,,,
0.0,1.0,0.97586,0.0,27.0,27.0,27.0,1.0,dashboard_02s.jpg,0.0,clockno_default.jpg,5.0,34,,,,,,,,,,,,,,,,,,,,,,,,,,,,,,,,
0.0,1.0,0.687195,0.0,28.0,28.0,28.0,1.0,glasses01a.jpg,0.0,clockno_default.jpg,5.0,34,,,,,,,,,,,,,,,,,,,,,,,,,,,,,,,,
0.0,1.0,0.81206,0.0,29.0,29.0,29.0,1.0,popsicle_02s.jpg,0.0,clockno_default.jpg,5.0,34,,,,,,,,,,,,,,,,,,,,,,,,,,,,,,,,
0.0,1.0,1.197885,0.0,30.0,30.0,30.0,1.0,screwdriver02a.jpg,0.0,clockno_up.jpg,6.0,34,,,,,,,,,,,,,,,,,,,,,,,,,,,,,,,,
0.0,1.0,0.945585,0.0,31.0,31.0,31.0,1.0,kayak_08s.jpg,0.0,clockno_default.jpg,6.0,34,,,,,,,,,,,,,,,,,,,,,,,,,,,,,,,,
0.0,1.0,0.632475,0.0,32.0,32.0,32.0,1.0,marker_05s.jpg,0.0,clockno_default.jpg,6.0,34,,,,,,,,,,,,,,,,,,,,,,,,,,,,,,,,
0.0,1.0,0.638125,0.0,33.0,33.0,33.0,1.0,knot_01b.jpg,0.0,clockno_default.jpg,6.0,34,,,,,,,,,,,,,,,,,,,,,,,,,,,,,,,,
0.0,1.0,0.714005,0.0,34.0,34.0,34.0,1.0,oil_02s.jpg,0.0,clockno_default.jpg,6.0,34,,,,,,,,,,,,,,,,,,,,,,,,,,,,,,,,
0.0,1.0,1.02587,0.0,35.0,35.0,35.0,1.0,light_switch_02s.jpg,0.0,clockno_default.jpg,6.0,34,,,,,,,,,,,,,,,,,,,,,,,,,,,,,,,,
,,,,,,,,,1.0,,,34,1.0,1.0,1.404885,0.0,0.0,0.0,0.0,1.0,mold2_04s.jpg,soda_fountain_03s.jpg,,,,,,,,,,,,,,,,,,,,,,
,,,,,,,,,0.0,,,34,1.0,0.0,1.99399,0.0,1.0,1.0,1.0,1.0,turtle_08s.jpg,letter_opener_03s.jpg,,,,,,,,,,,,,,,,,,,,,,
,,,,,,,,,0.0,,,34,1.0,0.0,2.238105,0.0,2.0,2.0,2.0,1.0,rug_09s.jpg,parachute_03s.jpg,,,,,,,,,,,,,,,,,,,,,,
,,,,,,,,,1.0,,,34,1.0,1.0,1.56284,0.0,3.0,3.0,3.0,1.0,snowman_02s.jpg,soccer_ball_12s.jpg,,,,,,,,,,,,,,,,,,,,,,
,,,,,,,,,0.0,,,34,0.0,1.0,2.99829,0.0,4.0,4.0,4.0,1.0,ruby_15s.jpg,sparkler_02s.jpg,,,,,,,,,,,,,,,,,,,,,,
,,,,,,,,,0.0,,,34,0.0,1.0,2.11687,0.0,5.0,5.0,5.0,1.0,glasses01a.jpg,teapot_03s.jpg,,,,,,,,,,,,,,,,,,,,,,
,,,,,,,,,,,,34,,,,,,,,,,,0.0,0.0,0.0,0.0,1.0,clockno_present_1_6.xlsx,clockno_compare_task_1_6.xlsx,,,,,,,,,,,,,,,
0.0,1.0,0.87658,0.0,0.0,0.0,0.0,1.0,bottle_opener_11s.jpg,0.0,clockno_up.jpg,1.0,34,,,,,,,,,,,,,,,,,,,,,,,,,,,,,,,,
0.0,1.0,0.777685,0.0,1.0,1.0,1.0,1.0,racehorse_03s.jpg,0.0,clockno_default.jpg,1.0,34,,,,,,,,,,,,,,,,,,,,,,,,,,,,,,,,
0.0,1.0,0.774575,0.0,2.0,2.0,2.0,1.0,peach_04s.jpg,0.0,clockno_default.jpg,1.0,34,,,,,,,,,,,,,,,,,,,,,,,,,,,,,,,,
1.0,1.0,0.916155,0.0,3.0,3.0,3.0,1.0,bottle_opener_11s.jpg,1.0,clockno_default.jpg,1.0,34,,,,,,,,,,,,,,,,,,,,,,,,,,,,,,,,
1.0,1.0,1.215135,0.0,4.0,4.0,4.0,1.0,peach_04s.jpg,1.0,clockno_default.jpg,1.0,34,,,,,,,,,,,,,,,,,,,,,,,,,,,,,,,,
0.0,1.0,1.017725,0.0,5.0,5.0,5.0,1.0,tortilla_06s.jpg,0.0,clockno_up.jpg,2.0,34,,,,,,,,,,,,,,,,,,,,,,,,,,,,,,,,
0.0,1.0,0.724805,0.0,6.0,6.0,6.0,1.0,denture_03s.jpg,0.0,clockno_default.jpg,2.0,34,,,,,,,,,,,,,,,,,,,,,,,,,,,,,,,,
0.0,1.0,0.612525,0.0,7.0,7.0,7.0,1.0,cereal_04s.jpg,0.0,clockno_default.jpg,2.0,34,,,,,,,,,,,,,,,,,,,,,,,,,,,,,,,,
0.0,1.0,0.886835,0.0,8.0,8.0,8.0,1.0,antenna_01b.jpg,0.0,clockno_default.jpg,2.0,34,,,,,,,,,,,,,,,,,,,,,,,,,,,,,,,,
0.0,1.0,0.96224,0.0,9.0,9.0,9.0,1.0,milk_02s.jpg,0.0,clockno_default.jpg,2.0,34,,,,,,,,,,,,,,,,,,,,,,,,,,,,,,,,
0.0,1.0,0.977595,0.0,10.0,10.0,10.0,1.0,mushroom_10n.jpg,0.0,clockno_default.jpg,2.0,34,,,,,,,,,,,,,,,,,,,,,,,,,,,,,,,,
0.0,1.0,1.232155,0.0,11.0,11.0,11.0,1.0,racehorse_03s.jpg,0.0,clockno_default.jpg,2.0,34,,,,,,,,,,,,,,,,,,,,,,,,,,,,,,,,
0.0,1.0,0.97519,0.0,12.0,12.0,12.0,1.0,pancake_12s.jpg,0.0,clockno_up.jpg,3.0,34,,,,,,,,,,,,,,,,,,,,,,,,,,,,,,,,
0.0,1.0,0.981165,0.0,13.0,13.0,13.0,1.0,saddle_06s.jpg,0.0,clockno_default.jpg,3.0,34,,,,,,,,,,,,,,,,,,,,,,,,,,,,,,,,
0.0,1.0,0.731515,0.0,14.0,14.0,14.0,1.0,mussel_11s.jpg,0.0,clockno_default.jpg,3.0,34,,,,,,,,,,,,,,,,,,,,,,,,,,,,,,,,
0.0,1.0,0.893305,0.0,15.0,15.0,15.0,1.0,fox_13s.jpg,0.0,clockno_default.jpg,3.0,34,,,,,,,,,,,,,,,,,,,,,,,,,,,,,,,,
0.0,1.0,0.85261,0.0,16.0,16.0,16.0,1.0,laundry_basket_11s.jpg,0.0,clockno_default.jpg,3.0,34,,,,,,,,,,,,,,,,,,,,,,,,,,,,,,,,
0.0,1.0,1.28145,0.0,17.0,17.0,17.0,1.0,kitten_07s.jpg,0.0,clockno_up.jpg,4.0,34,,,,,,,,,,,,,,,,,,,,,,,,,,,,,,,,
1.0,1.0,0.82942,0.0,18.0,18.0,18.0,1.0,kitten_07s.jpg,1.0,clockno_default.jpg,4.0,34,,,,,,,,,,,,,,,,,,,,,,,,,,,,,,,,
0.0,1.0,0.91362,0.0,19.0,19.0,19.0,1.0,tube_top_03s.jpg,0.0,clockno_default.jpg,4.0,34,,,,,,,,,,,,,,,,,,,,,,,,,,,,,,,,
0.0,1.0,1.024065,0.0,20.0,20.0,20.0,1.0,tennis_ball_06s.jpg,0.0,clockno_default.jpg,4.0,34,,,,,,,,,,,,,,,,,,,,,,,,,,,,,,,,
0.0,1.0,0.806205,0.0,21.0,21.0,21.0,1.0,spatula04.jpg,0.0,clockno_default.jpg,4.0,34,,,,,,,,,,,,,,,,,,,,,,,,,,,,,,,,
0.0,1.0,0.756745,0.0,22.0,22.0,22.0,1.0,fishhook_06s.jpg,0.0,clockno_default.jpg,4.0,34,,,,,,,,,,,,,,,,,,,,,,,,,,,,,,,,
0.0,1.0,1.196305,0.0,23.0,23.0,23.0,1.0,sushi_08s.jpg,0.0,clockno_up.jpg,5.0,34,,,,,,,,,,,,,,,,,,,,,,,,,,,,,,,,
0.0,1.0,0.780805,0.0,24.0,24.0,24.0,1.0,ring_03s.jpg,0.0,clockno_default.jpg,5.0,34,,,,,,,,,,,,,,,,,,,,,,,,,,,,,,,,
0.0,1.0,0.587285,0.0,25.0,25.0,25.0,1.0,glue_01s.jpg,0.0,clockno_default.jpg,5.0,34,,,,,,,,,,,,,,,,,,,,,,,,,,,,,,,,
0.0,1.0,0.668315,0.0,26.0,26.0,26.0,1.0,trumpet_06s.jpg,0.0,clockno_default.jpg,5.0,34,,,,,,,,,,,,,,,,,,,,,,,,,,,,,,,,
0.0,1.0,0.68898,0.0,27.0,27.0,27.0,1.0,seagull_01b.jpg,0.0,clockno_default.jpg,5.0,34,,,,,,,,,,,,,,,,,,,,,,,,,,,,,,,,
0.0,1.0,1.16763,0.0,28.0,28.0,28.0,1.0,contact_lens_15s.jpg,0.0,clockno_default.jpg,5.0,34,,,,,,,,,,,,,,,,,,,,,,,,,,,,,,,,
0.0,1.0,1.06364,0.0,29.0,29.0,29.0,1.0,puppet_01b.jpg,0.0,clockno_up.jpg,6.0,34,,,,,,,,,,,,,,,,,,,,,,,,,,,,,,,,
0.0,1.0,0.763475,0.0,30.0,30.0,30.0,1.0,rhinoceros_02s.jpg,0.0,clockno_default.jpg,6.0,34,,,,,,,,,,,,,,,,,,,,,,,,,,,,,,,,
1.0,1.0,0.83631,0.0,31.0,31.0,31.0,1.0,puppet_01b.jpg,1.0,clockno_default.jpg,6.0,34,,,,,,,,,,,,,,,,,,,,,,,,,,,,,,,,
0.0,1.0,0.765075,0.0,32.0,32.0,32.0,1.0,plaster_cast_13s.jpg,0.0,clockno_default.jpg,6.0,34,,,,,,,,,,,,,,,,,,,,,,,,,,,,,,,,
1.0,1.0,1.201225,0.0,33.0,33.0,33.0,1.0,rhinoceros_02s.jpg,1.0,clockno_default.jpg,6.0,34,,,,,,,,,,,,,,,,,,,,,,,,,,,,,,,,
0.0,1.0,1.042535,0.0,34.0,34.0,34.0,1.0,turnstile_08s.jpg,0.0,clockno_default.jpg,6.0,34,,,,,,,,,,,,,,,,,,,,,,,,,,,,,,,,
0.0,1.0,0.989435,0.0,35.0,35.0,35.0,1.0,kimono_13s.jpg,0.0,clockno_default.jpg,6.0,34,,,,,,,,,,,,,,,,,,,,,,,,,,,,,,,,
,,,,,,,,,0.0,,,34,0.0,1.0,2.611305,0.0,0.0,0.0,0.0,1.0,sushi_08s.jpg,tennis_ball_06s.jpg,,,,,,,,,,,,,,,,,,,,,,
,,,,,,,,,0.0,,,34,1.0,0.0,1.84718,0.0,1.0,1.0,1.0,1.0,ring_03s.jpg,spatula04.jpg,,,,,,,,,,,,,,,,,,,,,,
,,,,,,,,,0.0,,,34,1.0,0.0,3.75353,0.0,2.0,2.0,2.0,1.0,pancake_12s.jpg,milk_02s.jpg,,,,,,,,,,,,,,,,,,,,,,
,,,,,,,,,0.0,,,34,0.0,1.0,3.517195,0.0,3.0,3.0,3.0,1.0,antenna_01b.jpg,tortilla_06s.jpg,,,,,,,,,,,,,,,,,,,,,,
,,,,,,,,,1.0,,,34,1.0,1.0,2.573755,0.0,4.0,4.0,4.0,1.0,plaster_cast_13s.jpg,kimono_13s.jpg,,,,,,,,,,,,,,,,,,,,,,
,,,,,,,,,1.0,,,34,1.0,1.0,1.29732,0.0,5.0,5.0,5.0,1.0,cereal_04s.jpg,mushroom_10n.jpg,,,,,,,,,,,,,,,,,,,,,,
,,,,,,,,,,,,34,,,,,,,,,,,0.0,1.0,1.0,1.0,1.0,clockno_present_2_6.xlsx,clockno_compare_task_2_6.xlsx,,,,,,,,,,,,,,,
0.0,1.0,1.147575,0.0,0.0,0.0,0.0,1.0,binder_21s.jpg,0.0,clockno_up.jpg,1.0,34,,,,,,,,,,,,,,,,,,,,,,,,,,,,,,,,
0.0,1.0,1.1892,0.0,1.0,1.0,1.0,1.0,magnet_03s.jpg,0.0,clockno_default.jpg,1.0,34,,,,,,,,,,,,,,,,,,,,,,,,,,,,,,,,
0.0,1.0,0.866955,0.0,2.0,2.0,2.0,1.0,penguin_16s.jpg,0.0,clockno_default.jpg,1.0,34,,,,,,,,,,,,,,,,,,,,,,,,,,,,,,,,
0.0,1.0,1.1784,0.0,3.0,3.0,3.0,1.0,rocking_chair_05s.jpg,0.0,clockno_default.jpg,1.0,34,,,,,,,,,,,,,,,,,,,,,,,,,,,,,,,,
1.0,1.0,0.92651,0.0,4.0,4.0,4.0,1.0,magnet_03s.jpg,1.0,clockno_default.jpg,1.0,34,,,,,,,,,,,,,,,,,,,,,,,,,,,,,,,,
0.0,1.0,1.221855,0.0,5.0,5.0,5.0,1.0,gazelle_10s.jpg,0.0,clockno_up.jpg,2.0,34,,,,,,,,,,,,,,,,,,,,,,,,,,,,,,,,
0.0,1.0,0.988465,0.0,6.0,6.0,6.0,1.0,coffee_filter_10s.jpg,0.0,clockno_default.jpg,2.0,34,,,,,,,,,,,,,,,,,,,,,,,,,,,,,,,,
1.0,1.0,0.722625,0.0,7.0,7.0,7.0,1.0,coffee_filter_10s.jpg,1.0,clockno_default.jpg,2.0,34,,,,,,,,,,,,,,,,,,,,,,,,,,,,,,,,
0.0,1.0,0.867745,0.0,8.0,8.0,8.0,1.0,beaker_01b.jpg,0.0,clockno_default.jpg,2.0,34,,,,,,,,,,,,,,,,,,,,,,,,,,,,,,,,
0.0,1.0,1.04608,0.0,9.0,9.0,9.0,1.0,lamb_04s.jpg,0.0,clockno_default.jpg,2.0,34,,,,,,,,,,,,,,,,,,,,,,,,,,,,,,,,
0.0,1.0,1.769585,0.0,10.0,10.0,10.0,1.0,bagel_15s.jpg,0.0,clockno_default.jpg,2.0,34,,,,,,,,,,,,,,,,,,,,,,,,,,,,,,,,
0.0,1.0,0.86831,0.0,11.0,11.0,11.0,1.0,coral_08s.jpg,0.0,clockno_default.jpg,2.0,34,,,,,,,,,,,,,,,,,,,,,,,,,,,,,,,,
0.0,1.0,0.916235,0.0,12.0,12.0,12.0,1.0,orchid_01b.jpg,0.0,clockno_up.jpg,3.0,34,,,,,,,,,,,,,,,,,,,,,,,,,,,,,,,,
0.0,1.0,0.678575,0.0,13.0,13.0,13.0,1.0,toaster_03s.jpg,0.0,clockno_default.jpg,3.0,34,,,,,,,,,,,,,,,,,,,,,,,,,,,,,,,,
0.0,1.0,1.42049,0.0,14.0,14.0,14.0,1.0,rocking_chair_05s.jpg,0.0,clockno_default.jpg,3.0,34,,,,,,,,,,,,,,,,,,,,,,,,,,,,,,,,
0.0,1.0,1.86151,0.0,15.0,15.0,15.0,1.0,coral_08s.jpg,0.0,clockno_default.jpg,3.0,34,,,,,,,,,,,,,,,,,,,,,,,,,,,,,,,,
0.0,1.0,0.891455,0.0,16.0,16.0,16.0,1.0,megaphone_03s.jpg,0.0,clockno_default.jpg,3.0,34,,,,,,,,,,,,,,,,,,,,,,,,,,,,,,,,
0.0,1.0,0.8183,0.0,17.0,17.0,17.0,1.0,doily_13s.jpg,0.0,clockno_default.jpg,3.0,34,,,,,,,,,,,,,,,,,,,,,,,,,,,,,,,,
0.0,1.0,0.96285,0.0,18.0,18.0,18.0,1.0,harpoon.jpg,0.0,clockno_up.jpg,4.0,34,,,,,,,,,,,,,,,,,,,,,,,,,,,,,,,,
0.0,1.0,1.163115,0.0,19.0,19.0,19.0,1.0,peanut_butter_08s.jpg,0.0,clockno_default.jpg,4.0,34,,,,,,,,,,,,,,,,,,,,,,,,,,,,,,,,
0.0,1.0,0.84111,0.0,20.0,20.0,20.0,1.0,margarita_03s.jpg,0.0,clockno_default.jpg,4.0,34,,,,,,,,,,,,,,,,,,,,,,,,,,,,,,,,
1.0,1.0,0.911395,0.0,21.0,21.0,21.0,1.0,peanut_butter_08s.jpg,1.0,clockno_default.jpg,4.0,34,,,,,,,,,,,,,,,,,,,,,,,,,,,,,,,,
0.0,1.0,1.06613,0.0,22.0,22.0,22.0,1.0,coral_08s.jpg,0.0,clockno_default.jpg,4.0,34,,,,,,,,,,,,,,,,,,,,,,,,,,,,,,,,
0.0,1.0,0.957575,0.0,23.0,23.0,23.0,1.0,punch1_10s.jpg,0.0,clockno_up.jpg,5.0,34,,,,,,,,,,,,,,,,,,,,,,,,,,,,,,,,
0.0,1.0,1.41347,0.0,24.0,24.0,24.0,1.0,bonsai_07s.jpg,0.0,clockno_default.jpg,5.0,34,,,,,,,,,,,,,,,,,,,,,,,,,,,,,,,,
0.0,1.0,1.04831,0.0,25.0,25.0,25.0,1.0,licorice_06s.jpg,0.0,clockno_default.jpg,5.0,34,,,,,,,,,,,,,,,,,,,,,,,,,,,,,,,,
0.0,1.0,1.221035,0.0,26.0,26.0,26.0,1.0,candy_cane_06s.jpg,0.0,clockno_default.jpg,5.0,34,,,,,,,,,,,,,,,,,,,,,,,,,,,,,,,,
0.0,1.0,0.80243,0.0,27.0,27.0,27.0,1.0,quesadilla_07s.jpg,0.0,clockno_default.jpg,5.0,34,,,,,,,,,,,,,,,,,,,,,,,,,,,,,,,,
0.0,1.0,0.963585,0.0,28.0,28.0,28.0,1.0,margarita_03s.jpg,0.0,clockno_default.jpg,5.0,34,,,,,,,,,,,,,,,,,,,,,,,,,,,,,,,,
0.0,1.0,0.818155,0.0,29.0,29.0,29.0,1.0,possum_09s.jpg,0.0,clockno_up.jpg,6.0,34,,,,,,,,,,,,,,,,,,,,,,,,,,,,,,,,
0.0,1.0,1.11932,0.0,30.0,30.0,30.0,1.0,mop_08s.jpg,0.0,clockno_default.jpg,6.0,34,,,,,,,,,,,,,,,,,,,,,,,,,,,,,,,,
0.0,1.0,0.71551,0.0,31.0,31.0,31.0,1.0,rice_12s.jpg,0.0,clockno_default.jpg,6.0,34,,,,,,,,,,,,,,,,,,,,,,,,,,,,,,,,
0.0,1.0,0.88223,0.0,32.0,32.0,32.0,1.0,thumbtack_14s.jpg,0.0,clockno_default.jpg,6.0,34,,,,,,,,,,,,,,,,,,,,,,,,,,,,,,,,
0.0,1.0,0.84796,0.0,33.0,33.0,33.0,1.0,rake_06s.jpg,0.0,clockno_default.jpg,6.0,34,,,,,,,,,,,,,,,,,,,,,,,,,,,,,,,,
0.0,1.0,0.80511,0.0,34.0,34.0,34.0,1.0,police_car_01s.jpg,0.0,clockno_default.jpg,6.0,34,,,,,,,,,,,,,,,,,,,,,,,,,,,,,,,,
1.0,1.0,2.28842,0.0,35.0,35.0,35.0,1.0,mop_08s.jpg,1.0,clockno_default.jpg,6.0,34,,,,,,,,,,,,,,,,,,,,,,,,,,,,,,,,
,,,,,,,,,0.0,,,34,0.0,1.0,3.345725,0.0,0.0,0.0,0.0,1.0,orchid_01b.jpg,lamb_04s.jpg,,,,,,,,,,,,,,,,,,,,,,
,,,,,,,,,1.0,,,34,1.0,1.0,1.32504,0.0,1.0,1.0,1.0,1.0,penguin_16s.jpg,gazelle_10s.jpg,,,,,,,,,,,,,,,,,,,,,,
,,,,,,,,,1.0,,,34,1.0,1.0,1.45151,0.0,2.0,2.0,2.0,1.0,bagel_15s.jpg,toaster_03s.jpg,,,,,,,,,,,,,,,,,,,,,,
,,,,,,,,,0.0,,,34,0.0,1.0,1.94078,0.0,3.0,3.0,3.0,1.0,quesadilla_07s.jpg,bonsai_07s.jpg,,,,,,,,,,,,,,,,,,,,,,
,,,,,,,,,0.0,,,34,0.0,1.0,2.71272,0.0,4.0,4.0,4.0,1.0,police_car_01s.jpg,rice_12s.jpg,,,,,,,,,,,,,,,,,,,,,,
,,,,,,,,,1.0,,,34,1.0,1.0,1.312535,0.0,5.0,5.0,5.0,1.0,punch1_10s.jpg,candy_cane_06s.jpg,,,,,,,,,,,,,,,,,,,,,,
,,,,,,,,,,,,34,,,,,,,,,,,0.0,2.0,2.0,2.0,1.0,clockno_present_3_6.xlsx,clockno_compare_task_3_6.xlsx,,,,,,,,,,,,,,,
0.0,1.0,0.810805,0.0,0.0,0.0,0.0,1.0,teacup_07s.jpg,0.0,clockno_up.jpg,1.0,34,,,,,,,,,,,,,,,,,,,,,,,,,,,,,,,,
0.0,1.0,1.21607,0.0,1.0,1.0,1.0,1.0,hummingbird_05s.jpg,0.0,clockno_default.jpg,1.0,34,,,,,,,,,,,,,,,,,,,,,,,,,,,,,,,,
0.0,1.0,0.696515,0.0,2.0,2.0,2.0,1.0,lion_18s.jpg,0.0,clockno_default.jpg,1.0,34,,,,,,,,,,,,,,,,,,,,,,,,,,,,,,,,
1.0,1.0,0.719815,0.0,3.0,3.0,3.0,1.0,lion_18s.jpg,1.0,clockno_default.jpg,1.0,34,,,,,,,,,,,,,,,,,,,,,,,,,,,,,,,,
1.0,1.0,1.19788,0.0,4.0,4.0,4.0,1.0,hummingbird_05s.jpg,1.0,clockno_default.jpg,1.0,34,,,,,,,,,,,,,,,,,,,,,,,,,,,,,,,,
0.0,1.0,1.023775,0.0,5.0,5.0,5.0,1.0,razor_blade_01b.jpg,0.0,clockno_default.jpg,1.0,34,,,,,,,,,,,,,,,,,,,,,,,,,,,,,,,,
0.0,1.0,1.27395,0.0,6.0,6.0,6.0,1.0,ladle_04s.jpg,0.0,clockno_default.jpg,1.0,34,,,,,,,,,,,,,,,,,,,,,,,,,,,,,,,,
0.0,1.0,1.0311,0.0,7.0,7.0,7.0,1.0,typewriter_11s.jpg,0.0,clockno_up.jpg,2.0,34,,,,,,,,,,,,,,,,,,,,,,,,,,,,,,,,
0.0,1.0,0.93868,0.0,8.0,8.0,8.0,1.0,bubble_01b.jpg,0.0,clockno_default.jpg,2.0,34,,,,,,,,,,,,,,,,,,,,,,,,,,,,,,,,
0.0,1.0,1.00073,0.0,9.0,9.0,9.0,1.0,teacup_07s.jpg,0.0,clockno_default.jpg,2.0,34,,,,,,,,,,,,,,,,,,,,,,,,,,,,,,,,
0.0,1.0,0.752875,0.0,10.0,10.0,10.0,1.0,toothpaste_12s.jpg,0.0,clockno_default.jpg,2.0,34,,,,,,,,,,,,,,,,,,,,,,,,,,,,,,,,
0.0,1.0,1.03559,0.0,11.0,11.0,11.0,1.0,loveseat_08s.jpg,0.0,clockno_default.jpg,2.0,34,,,,,,,,,,,,,,,,,,,,,,,,,,,,,,,,
0.0,1.0,0.83041,0.0,12.0,12.0,12.0,1.0,mirror_12s.jpg,0.0,clockno_up.jpg,3.0,34,,,,,,,,,,,,,,,,,,,,,,,,,,,,,,,,
0.0,1.0,0.731245,0.0,13.0,13.0,13.0,1.0,tupperware_09s.jpg,0.0,clockno_default.jpg,3.0,34,,,,,,,,,,,,,,,,,,,,,,,,,,,,,,,,
0.0,1.0,1.12388,0.0,14.0,14.0,14.0,1.0,keyboard_05s.jpg,0.0,clockno_default.jpg,3.0,34,,,,,,,,,,,,,,,,,,,,,,,,,,,,,,,,
0.0,1.0,0.78648,0.0,15.0,15.0,15.0,1.0,diving_board_07s.jpg,0.0,clockno_default.jpg,3.0,34,,,,,,,,,,,,,,,,,,,,,,,,,,,,,,,,
0.0,1.0,1.006655,0.0,16.0,16.0,16.0,1.0,ironing_board_07s.jpg,0.0,clockno_default.jpg,3.0,34,,,,,,,,,,,,,,,,,,,,,,,,,,,,,,,,
0.0,1.0,0.783475,0.0,17.0,17.0,17.0,1.0,ladle_04s.jpg,0.0,clockno_default.jpg,3.0,34,,,,,,,,,,,,,,,,,,,,,,,,,,,,,,,,
0.0,1.0,0.657965,0.0,18.0,18.0,18.0,1.0,treadmill_06s.jpg,0.0,clockno_default.jpg,3.0,34,,,,,,,,,,,,,,,,,,,,,,,,,,,,,,,,
0.0,1.0,1.08755,0.0,19.0,19.0,19.0,1.0,teabag_12s.jpg,0.0,clockno_up.jpg,4.0,34,,,,,,,,,,,,,,,,,,,,,,,,,,,,,,,,
0.0,1.0,0.703125,0.0,20.0,20.0,20.0,1.0,mango_09s.jpg,0.0,clockno_default.jpg,4.0,34,,,,,,,,,,,,,,,,,,,,,,,,,,,,,,,,
0.0,1.0,1.045325,0.0,21.0,21.0,21.0,1.0,memory_stick_11s.jpg,0.0,clockno_default.jpg,4.0,34,,,,,,,,,,,,,,,,,,,,,,,,,,,,,,,,
0.0,1.0,0.96292,0.0,22.0,22.0,22.0,1.0,tuxedo_01b.jpg,0.0,clockno_default.jpg,4.0,34,,,,,,,,,,,,,,,,,,,,,,,,,,,,,,,,
0.0,1.0,0.842415,0.0,23.0,23.0,23.0,1.0,lion_18s.jpg,0.0,clockno_default.jpg,4.0,34,,,,,,,,,,,,,,,,,,,,,,,,,,,,,,,,
0.0,1.0,0.703675,0.0,24.0,24.0,24.0,1.0,lamb_chop_07s.jpg,0.0,clockno_default.jpg,4.0,34,,,,,,,,,,,,,,,,,,,,,,,,,,,,,,,,
0.0,1.0,0.602265,0.0,25.0,25.0,25.0,1.0,crayon_09s.jpg,0.0,clockno_up.jpg,5.0,34,,,,,,,,,,,,,,,,,,,,,,,,,,,,,,,,
0.0,1.0,0.562655,0.0,26.0,26.0,26.0,1.0,squirt_gun_03s.jpg,0.0,clockno_default.jpg,5.0,34,,,,,,,,,,,,,,,,,,,,,,,,,,,,,,,,
0.0,1.0,0.724275,0.0,27.0,27.0,27.0,1.0,tupperware_09s.jpg,0.0,clockno_default.jpg,5.0,34,,,,,,,,,,,,,,,,,,,,,,,,,,,,,,,,
0.0,1.0,0.616085,0.0,28.0,28.0,28.0,1.0,fireworks_18s.jpg,0.0,clockno_default.jpg,5.0,34,,,,,,,,,,,,,,,,,,,,,,,,,,,,,,,,
0.0,1.0,0.74974,0.0,29.0,29.0,29.0,1.0,golf_club_03s.jpg,0.0,clockno_default.jpg,5.0,34,,,,,,,,,,,,,,,,,,,,,,,,,,,,,,,,
0.0,1.0,0.960625,0.0,30.0,30.0,30.0,1.0,keyboard_05s.jpg,0.0,clockno_default.jpg,5.0,34,,,,,,,,,,,,,,,,,,,,,,,,,,,,,,,,
0.0,1.0,0.79801,0.0,31.0,31.0,31.0,1.0,tiara_05s.jpg,0.0,clockno_up.jpg,6.0,34,,,,,,,,,,,,,,,,,,,,,,,,,,,,,,,,
1.0,1.0,0.98687,0.0,32.0,32.0,32.0,1.0,tiara_05s.jpg,1.0,clockno_default.jpg,6.0,34,,,,,,,,,,,,,,,,,,,,,,,,,,,,,,,,
0.0,1.0,1.029105,0.0,33.0,33.0,33.0,1.0,spider_web_03s.jpg,0.0,clockno_default.jpg,6.0,34,,,,,,,,,,,,,,,,,,,,,,,,,,,,,,,,
0.0,1.0,0.91375,0.0,34.0,34.0,34.0,1.0,chopsticks_08s.jpg,0.0,clockno_default.jpg,6.0,34,,,,,,,,,,,,,,,,,,,,,,,,,,,,,,,,
0.0,1.0,0.973345,0.0,35.0,35.0,35.0,1.0,stethoscope_01b.jpg,0.0,clockno_default.jpg,6.0,34,,,,,,,,,,,,,,,,,,,,,,,,,,,,,,,,
,,,,,,,,,1.0,,,34,0.0,0.0,1.876125,0.0,0.0,0.0,0.0,1.0,razor_blade_01b.jpg,bubble_01b.jpg,,,,,,,,,,,,,,,,,,,,,,
,,,,,,,,,1.0,,,34,1.0,1.0,1.67143,0.0,1.0,1.0,1.0,1.0,ironing_board_07s.jpg,teabag_12s.jpg,,,,,,,,,,,,,,,,,,,,,,
,,,,,,,,,1.0,,,34,1.0,1.0,1.248735,0.0,2.0,2.0,2.0,1.0,treadmill_06s.jpg,memory_stick_11s.jpg,,,,,,,,,,,,,,,,,,,,,,
,,,,,,,,,1.0,,,34,1.0,1.0,1.07636,0.0,3.0,3.0,3.0,1.0,typewriter_11s.jpg,toothpaste_12s.jpg,,,,,,,,,,,,,,,,,,,,,,
,,,,,,,,,1.0,,,34,1.0,1.0,1.358655,0.0,4.0,4.0,4.0,1.0,mirror_12s.jpg,diving_board_07s.jpg,,,,,,,,,,,,,,,,,,,,,,
,,,,,,,,,0.0,,,34,0.0,1.0,1.249725,0.0,5.0,5.0,5.0,1.0,golf_club_03s.jpg,squirt_gun_03s.jpg,,,,,,,,,,,,,,,,,,,,,,
,,,,,,,,,,,,34,,,,,,,,,,,0.0,3.0,3.0,3.0,1.0,clockno_present_4_6.xlsx,clockno_compare_task_4_6.xlsx,,,,,,,,,,,,,,,
0.0,1.0,1.201305,0.0,0.0,0.0,0.0,1.0,ice_pack_09s.jpg,0.0,clockno_up.jpg,1.0,34,,,,,,,,,,,,,,,,,,,,,,,,,,,,,,,,
0.0,1.0,0.59703,0.0,1.0,1.0,1.0,1.0,hydrant_10s.jpg,0.0,clockno_default.jpg,1.0,34,,,,,,,,,,,,,,,,,,,,,,,,,,,,,,,,
0.0,1.0,1.88724,0.0,2.0,2.0,2.0,1.0,stapler_01b.jpg,0.0,clockno_default.jpg,1.0,34,,,,,,,,,,,,,,,,,,,,,,,,,,,,,,,,
0.0,1.0,0.625675,0.0,3.0,3.0,3.0,1.0,mitten_10s.jpg,0.0,clockno_default.jpg,1.0,34,,,,,,,,,,,,,,,,,,,,,,,,,,,,,,,,
1.0,1.0,0.927575,0.0,4.0,4.0,4.0,1.0,ice_pack_09s.jpg,1.0,clockno_default.jpg,1.0,34,,,,,,,,,,,,,,,,,,,,,,,,,,,,,,,,
0.0,1.0,0.731635,0.0,5.0,5.0,5.0,1.0,surfboard_11s.jpg,0.0,clockno_up.jpg,2.0,34,,,,,,,,,,,,,,,,,,,,,,,,,,,,,,,,
0.0,1.0,0.63241,0.0,6.0,6.0,6.0,1.0,pepper2_21s.jpg,0.0,clockno_default.jpg,2.0,34,,,,,,,,,,,,,,,,,,,,,,,,,,,,,,,,
0.0,1.0,1.0164,0.0,7.0,7.0,7.0,1.0,raspberry_12s.jpg,0.0,clockno_default.jpg,2.0,34,,,,,,,,,,,,,,,,,,,,,,,,,,,,,,,,
0.0,1.0,0.664425,0.0,8.0,8.0,8.0,1.0,marshmallow_08s.jpg,0.0,clockno_default.jpg,2.0,34,,,,,,,,,,,,,,,,,,,,,,,,,,,,,,,,
0.0,1.0,0.678815,0.0,9.0,9.0,9.0,1.0,lantern_04s.jpg,0.0,clockno_default.jpg,2.0,34,,,,,,,,,,,,,,,,,,,,,,,,,,,,,,,,
0.0,1.0,0.81303,0.0,10.0,10.0,10.0,1.0,tongs_08s.jpg,0.0,clockno_default.jpg,2.0,34,,,,,,,,,,,,,,,,,,,,,,,,,,,,,,,,
0.0,1.0,0.649585,0.0,11.0,11.0,11.0,1.0,scooter.jpg,0.0,clockno_default.jpg,2.0,34,,,,,,,,,,,,,,,,,,,,,,,,,,,,,,,,
0.0,1.0,0.74293,0.0,12.0,12.0,12.0,1.0,pocketknife_12s.jpg,0.0,clockno_up.jpg,3.0,34,,,,,,,,,,,,,,,,,,,,,,,,,,,,,,,,
0.0,1.0,0.689475,0.0,13.0,13.0,13.0,1.0,popcorn_09s.jpg,0.0,clockno_default.jpg,3.0,34,,,,,,,,,,,,,,,,,,,,,,,,,,,,,,,,
0.0,1.0,1.262155,0.0,14.0,14.0,14.0,1.0,panda_02s.jpg,0.0,clockno_default.jpg,3.0,34,,,,,,,,,,,,,,,,,,,,,,,,,,,,,,,,
1.0,1.0,0.81941,0.0,15.0,15.0,15.0,1.0,panda_02s.jpg,1.0,clockno_default.jpg,3.0,34,,,,,,,,,,,,,,,,,,,,,,,,,,,,,,,,
0.0,1.0,0.796685,0.0,16.0,16.0,16.0,1.0,treasure_08s.jpg,0.0,clockno_default.jpg,3.0,34,,,,,,,,,,,,,,,,,,,,,,,,,,,,,,,,
0.0,1.0,0.63342,0.0,17.0,17.0,17.0,1.0,giraffe_11s.jpg,0.0,clockno_up.jpg,4.0,34,,,,,,,,,,,,,,,,,,,,,,,,,,,,,,,,
0.0,1.0,0.92938,0.0,18.0,18.0,18.0,1.0,recliner_02s.jpg,0.0,clockno_default.jpg,4.0,34,,,,,,,,,,,,,,,,,,,,,,,,,,,,,,,,
0.0,1.0,1.01971,0.0,19.0,19.0,19.0,1.0,bolo_tie_08s.jpg,0.0,clockno_default.jpg,4.0,34,,,,,,,,,,,,,,,,,,,,,,,,,,,,,,,,
0.0,1.0,1.003425,0.0,20.0,20.0,20.0,1.0,potpourri_03s.jpg,0.0,clockno_default.jpg,4.0,34,,,,,,,,,,,,,,,,,,,,,,,,,,,,,,,,
0.0,1.0,0.9691,0.0,21.0,21.0,21.0,1.0,money_07s.jpg,0.0,clockno_default.jpg,4.0,34,,,,,,,,,,,,,,,,,,,,,,,,,,,,,,,,
0.0,1.0,1.11093,0.0,22.0,22.0,22.0,1.0,lamp_08s.jpg,0.0,clockno_default.jpg,4.0,34,,,,,,,,,,,,,,,,,,,,,,,,,,,,,,,,
0.0,1.0,1.109935,0.0,23.0,23.0,23.0,1.0,jersey_02s.jpg,0.0,clockno_up.jpg,5.0,34,,,,,,,,,,,,,,,,,,,,,,,,,,,,,,,,
0.0,1.0,1.68674,0.0,24.0,24.0,24.0,1.0,poinsettia_04s.jpg,0.0,clockno_default.jpg,5.0,34,,,,,,,,,,,,,,,,,,,,,,,,,,,,,,,,
1.0,1.0,0.80006,0.0,25.0,25.0,25.0,1.0,jersey_02s.jpg,1.0,clockno_default.jpg,5.0,34,,,,,,,,,,,,,,,,,,,,,,,,,,,,,,,,
0.0,1.0,0.563015,0.0,26.0,26.0,26.0,1.0,mattress_01s.jpg,0.0,clockno_default.jpg,5.0,34,,,,,,,,,,,,,,,,,,,,,,,,,,,,,,,,
0.0,1.0,0.876665,0.0,27.0,27.0,27.0,1.0,pocketknife_12s.jpg,0.0,clockno_default.jpg,5.0,34,,,,,,,,,,,,,,,,,,,,,,,,,,,,,,,,
0.0,1.0,1.051355,0.0,28.0,28.0,28.0,1.0,swan_11s.jpg,0.0,clockno_default.jpg,5.0,34,,,,,,,,,,,,,,,,,,,,,,,,,,,,,,,,
0.0,1.0,0.74832,0.0,29.0,29.0,29.0,1.0,toilet_07s.jpg,0.0,clockno_default.jpg,5.0,34,,,,,,,,,,,,,,,,,,,,,,,,,,,,,,,,
0.0,1.0,0.9404,0.0,30.0,30.0,30.0,1.0,kettle_08s.jpg,0.0,clockno_up.jpg,6.0,34,,,,,,,,,,,,,,,,,,,,,,,,,,,,,,,,
0.0,1.0,1.397025,0.0,31.0,31.0,31.0,1.0,pea_11s.jpg,0.0,clockno_default.jpg,6.0,34,,,,,,,,,,,,,,,,,,,,,,,,,,,,,,,,
0.0,1.0,1.3818,0.0,32.0,32.0,32.0,1.0,tongs_08s.jpg,0.0,clockno_default.jpg,6.0,34,,,,,,,,,,,,,,,,,,,,,,,,,,,,,,,,
0.0,1.0,1.460855,0.0,33.0,33.0,33.0,1.0,turf_03s.jpg,0.0,clockno_default.jpg,6.0,34,,,,,,,,,,,,,,,,,,,,,,,,,,,,,,,,
0.0,1.0,1.113165,0.0,34.0,34.0,34.0,1.0,blowfish_03s.jpg,0.0,clockno_default.jpg,6.0,34,,,,,,,,,,,,,,,,,,,,,,,,,,,,,,,,
0.0,1.0,0.76106,0.0,35.0,35.0,35.0,1.0,rock_08s.jpg,0.0,clockno_default.jpg,6.0,34,,,,,,,,,,,,,,,,,,,,,,,,,,,,,,,,
,,,,,,,,,0.0,,,34,0.0,1.0,3.52047,0.0,0.0,0.0,0.0,1.0,surfboard_11s.jpg,stapler_01b.jpg,,,,,,,,,,,,,,,,,,,,,,
,,,,,,,,,0.0,,,34,0.0,1.0,1.489595,0.0,1.0,1.0,1.0,1.0,pepper2_21s.jpg,mitten_10s.jpg,,,,,,,,,,,,,,,,,,,,,,
,,,,,,,,,1.0,,,34,1.0,1.0,2.290845,0.0,2.0,2.0,2.0,1.0,money_07s.jpg,poinsettia_04s.jpg,,,,,,,,,,,,,,,,,,,,,,
,,,,,,,,,1.0,,,34,1.0,1.0,1.94785,0.0,3.0,3.0,3.0,1.0,marshmallow_08s.jpg,scooter.jpg,,,,,,,,,,,,,,,,,,,,,,
,,,,,,,,,1.0,,,34,1.0,1.0,1.851565,0.0,4.0,4.0,4.0,1.0,giraffe_11s.jpg,potpourri_03s.jpg,,,,,,,,,,,,,,,,,,,,,,
,,,,,,,,,1.0,,,34,0.0,0.0,1.30453,0.0,5.0,5.0,5.0,1.0,mattress_01s.jpg,toilet_07s.jpg,,,,,,,,,,,,,,,,,,,,,,
,,,,,,,,,,,,34,,,,,,,,,,,0.0,4.0,4.0,4.0,1.0,clockno_present_5_6.xlsx,clockno_compare_task_5_6.xlsx,,,,,,,,,,,,,,,
0.0,1.0,0.96228,0.0,0.0,0.0,0.0,1.0,loom_05s.jpg,0.0,clockno_up.jpg,1.0,34,,,,,,,,,,,,,,,,,,,,,,,,,,,,,,,,
1.0,1.0,0.772995,0.0,1.0,1.0,1.0,1.0,loom_05s.jpg,1.0,clockno_default.jpg,1.0,34,,,,,,,,,,,,,,,,,,,,,,,,,,,,,,,,
0.0,1.0,1.17203,0.0,2.0,2.0,2.0,1.0,metronome_03s.jpg,0.0,clockno_default.jpg,1.0,34,,,,,,,,,,,,,,,,,,,,,,,,,,,,,,,,
0.0,1.0,0.872015,0.0,3.0,3.0,3.0,1.0,eiffeltower.jpg,0.0,clockno_default.jpg,1.0,34,,,,,,,,,,,,,,,,,,,,,,,,,,,,,,,,
1.0,1.0,0.785395,0.0,4.0,4.0,4.0,1.0,metronome_03s.jpg,1.0,clockno_default.jpg,1.0,34,,,,,,,,,,,,,,,,,,,,,,,,,,,,,,,,
0.0,1.0,1.24966,0.0,5.0,5.0,5.0,1.0,road_sign_05s.jpg,0.0,clockno_default.jpg,1.0,34,,,,,,,,,,,,,,,,,,,,,,,,,,,,,,,,
0.0,1.0,0.781985,0.0,6.0,6.0,6.0,1.0,comic_book_02s.jpg,0.0,clockno_up.jpg,2.0,34,,,,,,,,,,,,,,,,,,,,,,,,,,,,,,,,
0.0,1.0,0.970625,0.0,7.0,7.0,7.0,1.0,swordfish_05s.jpg,0.0,clockno_default.jpg,2.0,34,,,,,,,,,,,,,,,,,,,,,,,,,,,,,,,,
0.0,1.0,1.58824,0.0,8.0,8.0,8.0,1.0,potholder_02s.jpg,0.0,clockno_default.jpg,2.0,34,,,,,,,,,,,,,,,,,,,,,,,,,,,,,,,,
0.0,1.0,1.057465,0.0,9.0,9.0,9.0,1.0,prism_10s.jpg,0.0,clockno_default.jpg,2.0,34,,,,,,,,,,,,,,,,,,,,,,,,,,,,,,,,
0.0,1.0,0.83634,0.0,10.0,10.0,10.0,1.0,loom_05s.jpg,0.0,clockno_default.jpg,2.0,34,,,,,,,,,,,,,,,,,,,,,,,,,,,,,,,,
0.0,1.0,0.589165,0.0,11.0,11.0,11.0,1.0,trident_07s.jpg,0.0,clockno_up.jpg,3.0,34,,,,,,,,,,,,,,,,,,,,,,,,,,,,,,,,
1.0,1.0,0.770875,0.0,12.0,12.0,12.0,1.0,trident_07s.jpg,1.0,clockno_default.jpg,3.0,34,,,,,,,,,,,,,,,,,,,,,,,,,,,,,,,,
0.0,1.0,0.802325,0.0,13.0,13.0,13.0,1.0,metronome_03s.jpg,0.0,clockno_default.jpg,3.0,34,,,,,,,,,,,,,,,,,,,,,,,,,,,,,,,,
0.0,1.0,0.711615,0.0,14.0,14.0,14.0,1.0,incense_02s.jpg,0.0,clockno_default.jpg,3.0,34,,,,,,,,,,,,,,,,,,,,,,,,,,,,,,,,
0.0,1.0,1.536195,0.0,15.0,15.0,15.0,1.0,seahorse_13s.jpg,0.0,clockno_default.jpg,3.0,34,,,,,,,,,,,,,,,,,,,,,,,,,,,,,,,,
0.0,1.0,1.130445,0.0,16.0,16.0,16.0,1.0,ice-cream_cone_06s.jpg,0.0,clockno_up.jpg,4.0,34,,,,,,,,,,,,,,,,,,,,,,,,,,,,,,,,
0.0,1.0,0.66439,0.0,17.0,17.0,17.0,1.0,lemonade_04s.jpg,0.0,clockno_default.jpg,4.0,34,,,,,,,,,,,,,,,,,,,,,,,,,,,,,,,,
1.0,1.0,0.791075,0.0,18.0,18.0,18.0,1.0,lemonade_04s.jpg,1.0,clockno_default.jpg,4.0,34,,,,,,,,,,,,,,,,,,,,,,,,,,,,,,,,
0.0,1.0,0.75128,0.0,19.0,19.0,19.0,1.0,thread_08s.jpg,0.0,clockno_default.jpg,4.0,34,,,,,,,,,,,,,,,,,,,,,,,,,,,,,,,,
0.0,1.0,1.0977,0.0,20.0,20.0,20.0,1.0,measuring_cup_02s.jpg,0.0,clockno_default.jpg,4.0,34,,,,,,,,,,,,,,,,,,,,,,,,,,,,,,,,
1.0,1.0,0.81411,0.0,21.0,21.0,21.0,1.0,measuring_cup_02s.jpg,1.0,clockno_default.jpg,4.0,34,,,,,,,,,,,,,,,,,,,,,,,,,,,,,,,,
0.0,1.0,0.83869,0.0,22.0,22.0,22.0,1.0,duck_01b.jpg,0.0,clockno_default.jpg,4.0,34,,,,,,,,,,,,,,,,,,,,,,,,,,,,,,,,
0.0,1.0,0.63408,0.0,23.0,23.0,23.0,1.0,owl_15s.jpg,0.0,clockno_up.jpg,5.0,34,,,,,,,,,,,,,,,,,,,,,,,,,,,,,,,,
0.0,1.0,0.751405,0.0,24.0,24.0,24.0,1.0,paper_towel_03s.jpg,0.0,clockno_default.jpg,5.0,34,,,,,,,,,,,,,,,,,,,,,,,,,,,,,,,,
0.0,1.0,0.677015,0.0,25.0,25.0,25.0,1.0,pillow_03s.jpg,0.0,clockno_default.jpg,5.0,34,,,,,,,,,,,,,,,,,,,,,,,,,,,,,,,,
0.0,1.0,1.050305,0.0,26.0,26.0,26.0,1.0,phone_01b.jpg,0.0,clockno_default.jpg,5.0,34,,,,,,,,,,,,,,,,,,,,,,,,,,,,,,,,
0.0,1.0,0.830745,0.0,27.0,27.0,27.0,1.0,plug_08s.jpg,0.0,clockno_default.jpg,5.0,34,,,,,,,,,,,,,,,,,,,,,,,,,,,,,,,,
0.0,1.0,1.20882,0.0,28.0,28.0,28.0,1.0,triangle_10s.jpg,0.0,clockno_default.jpg,5.0,34,,,,,,,,,,,,,,,,,,,,,,,,,,,,,,,,
0.0,1.0,0.938945,0.0,29.0,29.0,29.0,1.0,moth_06n.jpg,0.0,clockno_up.jpg,6.0,34,,,,,,,,,,,,,,,,,,,,,,,,,,,,,,,,
0.0,1.0,0.673,0.0,30.0,30.0,30.0,1.0,umbrella_15s.jpg,0.0,clockno_default.jpg,6.0,34,,,,,,,,,,,,,,,,,,,,,,,,,,,,,,,,
0.0,1.0,1.120325,0.0,31.0,31.0,31.0,1.0,penlight_12s.jpg,0.0,clockno_default.jpg,6.0,34,,,,,,,,,,,,,,,,,,,,,,,,,,,,,,,,
0.0,1.0,0.54637,0.0,32.0,32.0,32.0,1.0,tuba_12s.jpg,0.0,clockno_default.jpg,6.0,34,,,,,,,,,,,,,,,,,,,,,,,,,,,,,,,,
0.0,1.0,0.66441,0.0,33.0,33.0,33.0,1.0,squirrel_02s.jpg,0.0,clockno_default.jpg,6.0,34,,,,,,,,,,,,,,,,,,,,,,,,,,,,,,,,
0.0,1.0,0.897265,0.0,34.0,34.0,34.0,1.0,iron_13s.jpg,0.0,clockno_default.jpg,6.0,34,,,,,,,,,,,,,,,,,,,,,,,,,,,,,,,,
0.0,1.0,0.831055,0.0,35.0,35.0,35.0,1.0,ram_05s.jpg,0.0,clockno_default.jpg,6.0,34,,,,,,,,,,,,,,,,,,,,,,,,,,,,,,,,
,,,,,,,,,0.0,,,34,0.0,1.0,1.515705,0.0,0.0,0.0,0.0,1.0,potholder_02s.jpg,road_sign_05s.jpg,,,,,,,,,,,,,,,,,,,,,,
,,,,,,,,,1.0,,,34,1.0,1.0,1.629945,0.0,1.0,1.0,1.0,1.0,eiffeltower.jpg,comic_book_02s.jpg,,,,,,,,,,,,,,,,,,,,,,
,,,,,,,,,1.0,,,34,0.0,0.0,1.468335,0.0,2.0,2.0,2.0,1.0,duck_01b.jpg,pillow_03s.jpg,,,,,,,,,,,,,,,,,,,,,,
,,,,,,,,,1.0,,,34,1.0,1.0,1.333715,0.0,3.0,3.0,3.0,1.0,ice-cream_cone_06s.jpg,thread_08s.jpg,,,,,,,,,,,,,,,,,,,,,,
,,,,,,,,,0.0,,,34,0.0,1.0,1.70752,0.0,4.0,4.0,4.0,1.0,ram_05s.jpg,tuba_12s.jpg,,,,,,,,,,,,,,,,,,,,,,
,,,,,,,,,0.0,,,34,1.0,0.0,1.875985,0.0,5.0,5.0,5.0,1.0,phone_01b.jpg,owl_15s.jpg,,,,,,,,,,,,,,,,,,,,,,
0.0,1.0,2.412565,,,,,,compass_10n.jpg,0.0,clock_5_1.png,1.0,34,,,,,,,,,,,,,,,,,,0.0,0.0,0.0,0.0,1.0,,,,,,,,,,
0.0,1.0,0.99709,,,,,,rollerskate_03s.jpg,0.0,clock_5_2.png,1.0,34,,,,,,,,,,,,,,,,,,0.0,1.0,1.0,1.0,1.0,,,,,,,,,,
1.0,1.0,0.80462,,,,,,rollerskate_03s.jpg,1.0,clock_5_3.png,1.0,34,,,,,,,,,,,,,,,,,,0.0,2.0,2.0,2.0,1.0,,,,,,,,,,
0.0,1.0,0.85817,,,,,,toy_04s.jpg,0.0,clock_5_4.png,1.0,34,,,,,,,,,,,,,,,,,,0.0,3.0,3.0,3.0,1.0,,,,,,,,,,
0.0,1.0,0.679335,,,,,,bowler_hat_10s.jpg,0.0,clock_5_5.png,1.0,34,,,,,,,,,,,,,,,,,,0.0,4.0,4.0,4.0,1.0,,,,,,,,,,
0.0,1.0,2.46383,,,,,,pan_02s.jpg,0.0,clock_6_1.png,2.0,34,,,,,,,,,,,,,,,,,,0.0,5.0,5.0,5.0,1.0,,,,,,,,,,
0.0,1.0,1.19859,,,,,,camcorder_10s.jpg,0.0,clock_6_2.png,2.0,34,,,,,,,,,,,,,,,,,,0.0,6.0,6.0,6.0,1.0,,,,,,,,,,
0.0,1.0,1.0519,,,,,,turtleneck_11s.jpg,0.0,clock_6_3.png,2.0,34,,,,,,,,,,,,,,,,,,0.0,7.0,7.0,7.0,1.0,,,,,,,,,,
0.0,1.0,0.901035,,,,,,pineapple_12s.jpg,0.0,clock_6_4.png,2.0,34,,,,,,,,,,,,,,,,,,0.0,8.0,8.0,8.0,1.0,,,,,,,,,,
0.0,1.0,0.738045,,,,,,stingray_02s.jpg,0.0,clock_6_5.png,2.0,34,,,,,,,,,,,,,,,,,,0.0,9.0,9.0,9.0,1.0,,,,,,,,,,
0.0,1.0,0.575465,,,,,,polar_bear_02s.jpg,0.0,clock_6_6.png,2.0,34,,,,,,,,,,,,,,,,,,0.0,10.0,10.0,10.0,1.0,,,,,,,,,,
0.0,1.0,0.846385,,,,,,jukebox_03n.jpg,0.0,clock_5_1.png,3.0,34,,,,,,,,,,,,,,,,,,0.0,11.0,11.0,11.0,1.0,,,,,,,,,,
0.0,1.0,0.660135,,,,,,tweezers_03s.jpg,0.0,clock_5_2.png,3.0,34,,,,,,,,,,,,,,,,,,0.0,12.0,12.0,12.0,1.0,,,,,,,,,,
0.0,1.0,0.627895,,,,,,clover_04s.jpg,0.0,clock_5_3.png,3.0,34,,,,,,,,,,,,,,,,,,0.0,13.0,13.0,13.0,1.0,,,,,,,,,,
0.0,1.0,0.4982,,,,,,tinsel_12s.jpg,0.0,clock_5_4.png,3.0,34,,,,,,,,,,,,,,,,,,0.0,14.0,14.0,14.0,1.0,,,,,,,,,,
0.0,1.0,0.624665,,,,,,rocking_horse_03s.jpg,0.0,clock_5_5.png,3.0,34,,,,,,,,,,,,,,,,,,0.0,15.0,15.0,15.0,1.0,,,,,,,,,,
0.0,1.0,1.015875,,,,,,hyena_16s.jpg,0.0,clock_7_1.png,4.0,34,,,,,,,,,,,,,,,,,,0.0,16.0,16.0,16.0,1.0,,,,,,,,,,
0.0,1.0,0.561415,,,,,,pear_02s.jpg,0.0,clock_7_2.png,4.0,34,,,,,,,,,,,,,,,,,,0.0,17.0,17.0,17.0,1.0,,,,,,,,,,
0.0,1.0,0.60262,,,,,,ink_08s.jpg,0.0,clock_7_3.png,4.0,34,,,,,,,,,,,,,,,,,,0.0,18.0,18.0,18.0,1.0,,,,,,,,,,
0.0,1.0,0.84495,,,,,,inhaler_01b.jpg,0.0,clock_7_4.png,4.0,34,,,,,,,,,,,,,,,,,,0.0,19.0,19.0,19.0,1.0,,,,,,,,,,
0.0,1.0,0.844095,,,,,,clover_04s.jpg,0.0,clock_7_5.png,4.0,34,,,,,,,,,,,,,,,,,,0.0,20.0,20.0,20.0,1.0,,,,,,,,,,
1.0,1.0,0.86158,,,,,,ink_08s.jpg,1.0,clock_7_6.png,4.0,34,,,,,,,,,,,,,,,,,,0.0,21.0,21.0,21.0,1.0,,,,,,,,,,
0.0,1.0,0.71504,,,,,,throne_11s.jpg,0.0,clock_7_7.png,4.0,34,,,,,,,,,,,,,,,,,,0.0,22.0,22.0,22.0,1.0,,,,,,,,,,
0.0,1.0,1.18775,,,,,,medal_04s.jpg,0.0,clock_6_1.png,5.0,34,,,,,,,,,,,,,,,,,,0.0,23.0,23.0,23.0,1.0,,,,,,,,,,
0.0,1.0,1.039615,,,,,,inhaler_01b.jpg,0.0,clock_6_2.png,5.0,34,,,,,,,,,,,,,,,,,,0.0,24.0,24.0,24.0,1.0,,,,,,,,,,
0.0,1.0,0.790835,,,,,,luggage_08s.jpg,0.0,clock_6_3.png,5.0,34,,,,,,,,,,,,,,,,,,0.0,25.0,25.0,25.0,1.0,,,,,,,,,,
1.0,1.0,0.8429,,,,,,medal_04s.jpg,1.0,clock_6_4.png,5.0,34,,,,,,,,,,,,,,,,,,0.0,26.0,26.0,26.0,1.0,,,,,,,,,,
1.0,1.0,1.098695,,,,,,luggage_08s.jpg,1.0,clock_6_5.png,5.0,34,,,,,,,,,,,,,,,,,,0.0,27.0,27.0,27.0,1.0,,,,,,,,,,
0.0,1.0,0.93111,,,,,,eyedropper_12s.jpg,0.0,clock_6_6.png,5.0,34,,,,,,,,,,,,,,,,,,0.0,28.0,28.0,28.0,1.0,,,,,,,,,,
0.0,1.0,1.03343,,,,,,fire_pit_10s.jpg,0.0,clock_7_1.png,6.0,34,,,,,,,,,,,,,,,,,,0.0,29.0,29.0,29.0,1.0,,,,,,,,,,
0.0,1.0,0.524275,,,,,,camcorder_10s.jpg,0.0,clock_7_2.png,6.0,34,,,,,,,,,,,,,,,,,,0.0,30.0,30.0,30.0,1.0,,,,,,,,,,
0.0,1.0,0.427215,,,,,,mixer_12s.jpg,0.0,clock_7_3.png,6.0,34,,,,,,,,,,,,,,,,,,0.0,31.0,31.0,31.0,1.0,,,,,,,,,,
0.0,1.0,0.462755,,,,,,lipstick_02s.jpg,0.0,clock_7_4.png,6.0,34,,,,,,,,,,,,,,,,,,0.0,32.0,32.0,32.0,1.0,,,,,,,,,,
0.0,1.0,0.709585,,,,,,lifesaver_10s.jpg,0.0,clock_7_5.png,6.0,34,,,,,,,,,,,,,,,,,,0.0,33.0,33.0,33.0,1.0,,,,,,,,,,
1.0,1.0,0.999275,,,,,,lipstick_02s.jpg,1.0,clock_7_6.png,6.0,34,,,,,,,,,,,,,,,,,,0.0,34.0,34.0,34.0,1.0,,,,,,,,,,
0.0,1.0,0.970175,,,,,,polaroid_05s.jpg,0.0,clock_7_7.png,6.0,34,,,,,,,,,,,,,,,,,,0.0,35.0,35.0,35.0,1.0,,,,,,,,,,
,,,,,,,,,1.0,,,34,1.0,1.0,2.126085,,,,,,eyedropper_12s.jpg,mixer_12s.jpg,,,,,,,,,,,,,0.0,0.0,0.0,0.0,1.0,,,,,
,,,,,,,,,0.0,,,34,1.0,0.0,1.61575,,,,,,turtleneck_11s.jpg,bowler_hat_10s.jpg,,,,,,,,,,,,,0.0,1.0,1.0,1.0,1.0,,,,,
,,,,,,,,,0.0,,,34,1.0,0.0,2.12963,,,,,,tweezers_03s.jpg,stingray_02s.jpg,,,,,,,,,,,,,0.0,2.0,2.0,2.0,1.0,,,,,
,,,,,,,,,1.0,,,34,0.0,0.0,1.24703,,,,,,compass_10n.jpg,toy_04s.jpg,,,,,,,,,,,,,0.0,3.0,3.0,3.0,1.0,,,,,
,,,,,,,,,0.0,,,34,1.0,0.0,1.378295,,,,,,pineapple_12s.jpg,pan_02s.jpg,,,,,,,,,,,,,0.0,4.0,4.0,4.0,1.0,,,,,
,,,,,,,,,1.0,,,34,0.0,0.0,2.181495,,,,,,jukebox_03n.jpg,tinsel_12s.jpg,,,,,,,,,,,,,0.0,5.0,5.0,5.0,1.0,,,,,
,,,,,,,,,,,,34,,,,,,,,,,,,,,,,clock_present_1_6.xlsx,clock_compare_task_1_6.xlsx,,,,,,,,,,,0.0,0.0,0.0,0.0,1.0
0.0,1.0,1.28528,,,,,,olive_05s.jpg,0.0,clock_5_1.png,1.0,34,,,,,,,,,,,,,,,,,,0.0,0.0,0.0,0.0,1.0,,,,,,,,,,
0.0,1.0,0.780585,,,,,,lip_gloss_06s.jpg,0.0,clock_5_2.png,1.0,34,,,,,,,,,,,,,,,,,,0.0,1.0,1.0,1.0,1.0,,,,,,,,,,
1.0,1.0,0.69898,,,,,,lip_gloss_06s.jpg,1.0,clock_5_3.png,1.0,34,,,,,,,,,,,,,,,,,,0.0,2.0,2.0,2.0,1.0,,,,,,,,,,
0.0,1.0,0.64916,,,,,,crab_16s.jpg,0.0,clock_5_4.png,1.0,34,,,,,,,,,,,,,,,,,,0.0,3.0,3.0,3.0,1.0,,,,,,,,,,
0.0,1.0,0.625335,,,,,,omelet_07s.jpg,0.0,clock_5_5.png,1.0,34,,,,,,,,,,,,,,,,,,0.0,4.0,4.0,4.0,1.0,,,,,,,,,,
0.0,1.0,0.964905,,,,,,briefcase_03s.jpg,0.0,clock_6_1.png,2.0,34,,,,,,,,,,,,,,,,,,0.0,5.0,5.0,5.0,1.0,,,,,,,,,,
0.0,1.0,0.819805,,,,,,stopwatch_04s.jpg,0.0,clock_6_2.png,2.0,34,,,,,,,,,,,,,,,,,,0.0,6.0,6.0,6.0,1.0,,,,,,,,,,
0.0,1.0,0.65105,,,,,,insole_11s.jpg,0.0,clock_6_3.png,2.0,34,,,,,,,,,,,,,,,,,,0.0,7.0,7.0,7.0,1.0,,,,,,,,,,
1.0,1.0,0.81666,,,,,,briefcase_03s.jpg,1.0,clock_6_4.png,2.0,34,,,,,,,,,,,,,,,,,,0.0,8.0,8.0,8.0,1.0,,,,,,,,,,
0.0,1.0,1.06424,,,,,,beard_16s.jpg,0.0,clock_6_5.png,2.0,34,,,,,,,,,,,,,,,,,,0.0,9.0,9.0,9.0,1.0,,,,,,,,,,
0.0,1.0,0.81404,,,,,,thorn_13s.jpg,0.0,clock_6_6.png,2.0,34,,,,,,,,,,,,,,,,,,0.0,10.0,10.0,10.0,1.0,,,,,,,,,,
0.0,1.0,0.75164,,,,,,ostrich_06s.jpg,0.0,clock_6_1.png,3.0,34,,,,,,,,,,,,,,,,,,0.0,11.0,11.0,11.0,1.0,,,,,,,,,,
0.0,1.0,0.768,,,,,,razor_12s.jpg,0.0,clock_6_2.png,3.0,34,,,,,,,,,,,,,,,,,,0.0,12.0,12.0,12.0,1.0,,,,,,,,,,
0.0,1.0,0.571645,,,,,,onion_10s.jpg,0.0,clock_6_3.png,3.0,34,,,,,,,,,,,,,,,,,,0.0,13.0,13.0,13.0,1.0,,,,,,,,,,
0.0,1.0,0.954755,,,,,,olive_05s.jpg,0.0,clock_6_4.png,3.0,34,,,,,,,,,,,,,,,,,,0.0,14.0,14.0,14.0,1.0,,,,,,,,,,
0.0,1.0,0.89541,,,,,,pump_11s.jpg,0.0,clock_6_5.png,3.0,34,,,,,,,,,,,,,,,,,,0.0,15.0,15.0,15.0,1.0,,,,,,,,,,
0.0,1.0,0.863275,,,,,,perfume_06s.jpg,0.0,clock_6_6.png,3.0,34,,,,,,,,,,,,,,,,,,0.0,16.0,16.0,16.0,1.0,,,,,,,,,,
0.0,1.0,0.6701,,,,,,gas_mask_11s.jpg,0.0,clock_7_1.png,4.0,34,,,,,,,,,,,,,,,,,,0.0,17.0,17.0,17.0,1.0,,,,,,,,,,
0.0,1.0,0.9108,,,,,,powder_07s.jpg,0.0,clock_7_2.png,4.0,34,,,,,,,,,,,,,,,,,,0.0,18.0,18.0,18.0,1.0,,,,,,,,,,
0.0,1.0,0.626185,,,,,,quad_04s.jpg,0.0,clock_7_3.png,4.0,34,,,,,,,,,,,,,,,,,,0.0,19.0,19.0,19.0,1.0,,,,,,,,,,
0.0,1.0,0.648675,,,,,,chalice_10s.jpg,0.0,clock_7_4.png,4.0,34,,,,,,,,,,,,,,,,,,0.0,20.0,20.0,20.0,1.0,,,,,,,,,,
1.0,1.0,0.899235,,,,,,chalice_10s.jpg,1.0,clock_7_5.png,4.0,34,,,,,,,,,,,,,,,,,,0.0,21.0,21.0,21.0,1.0,,,,,,,,,,
0.0,1.0,1.019985,,,,,,pencil02a.jpg,0.0,clock_7_6.png,4.0,34,,,,,,,,,,,,,,,,,,0.0,22.0,22.0,22.0,1.0,,,,,,,,,,
0.0,0.0,1.616365,,,,,,quad_04s.jpg,1.0,clock_7_7.png,4.0,34,,,,,,,,,,,,,,,,,,0.0,23.0,23.0,23.0,1.0,,,,,,,,,,
0.0,1.0,0.71667,,,,,,outlet_10s.jpg,0.0,clock_5_1.png,5.0,34,,,,,,,,,,,,,,,,,,0.0,24.0,24.0,24.0,1.0,,,,,,,,,,
0.0,1.0,0.987305,,,,,,pie_08s.jpg,0.0,clock_5_2.png,5.0,34,,,,,,,,,,,,,,,,,,0.0,25.0,25.0,25.0,1.0,,,,,,,,,,
0.0,1.0,0.654095,,,,,,coat_rack_01b.jpg,0.0,clock_5_3.png,5.0,34,,,,,,,,,,,,,,,,,,0.0,26.0,26.0,26.0,1.0,,,,,,,,,,
1.0,1.0,0.79863,,,,,,pie_08s.jpg,1.0,clock_5_4.png,5.0,34,,,,,,,,,,,,,,,,,,0.0,27.0,27.0,27.0,1.0,,,,,,,,,,
0.0,1.0,0.74727,,,,,,basket_05s.jpg,0.0,clock_5_5.png,5.0,34,,,,,,,,,,,,,,,,,,0.0,28.0,28.0,28.0,1.0,,,,,,,,,,
0.0,1.0,1.014115,,,,,,totem_pole_05s.jpg,0.0,clock_7_1.png,6.0,34,,,,,,,,,,,,,,,,,,0.0,29.0,29.0,29.0,1.0,,,,,,,,,,
0.0,1.0,0.75447,,,,,,latch_15s.jpg,0.0,clock_7_2.png,6.0,34,,,,,,,,,,,,,,,,,,0.0,30.0,30.0,30.0,1.0,,,,,,,,,,
0.0,1.0,0.69012,,,,,,sundae_08s.jpg,0.0,clock_7_3.png,6.0,34,,,,,,,,,,,,,,,,,,0.0,31.0,31.0,31.0,1.0,,,,,,,,,,
1.0,0.0,1.264065,,,,,,basket_05s.jpg,0.0,clock_7_4.png,6.0,34,,,,,,,,,,,,,,,,,,0.0,32.0,32.0,32.0,1.0,,,,,,,,,,
0.0,1.0,0.96501,,,,,,rope_16s.jpg,0.0,clock_7_5.png,6.0,34,,,,,,,,,,,,,,,,,,0.0,33.0,33.0,33.0,1.0,,,,,,,,,,
0.0,1.0,0.735545,,,,,,microwave_02s.jpg,0.0,clock_7_6.png,6.0,34,,,,,,,,,,,,,,,,,,0.0,34.0,34.0,34.0,1.0,,,,,,,,,,
1.0,1.0,0.88253,,,,,,rope_16s.jpg,1.0,clock_7_7.png,6.0,34,,,,,,,,,,,,,,,,,,0.0,35.0,35.0,35.0,1.0,,,,,,,,,,
,,,,,,,,,1.0,,,34,1.0,1.0,1.766135,,,,,,coat_rack_01b.jpg,totem_pole_05s.jpg,,,,,,,,,,,,,0.0,0.0,0.0,0.0,1.0,,,,,
,,,,,,,,,0.0,,,34,0.0,1.0,2.062205,,,,,,stopwatch_04s.jpg,crab_16s.jpg,,,,,,,,,,,,,0.0,1.0,1.0,1.0,1.0,,,,,
,,,,,,,,,1.0,,,34,1.0,1.0,1.70309,,,,,,omelet_07s.jpg,insole_11s.jpg,,,,,,,,,,,,,0.0,2.0,2.0,2.0,1.0,,,,,
,,,,,,,,,0.0,,,34,0.0,1.0,1.37485,,,,,,microwave_02s.jpg,sundae_08s.jpg,,,,,,,,,,,,,0.0,3.0,3.0,3.0,1.0,,,,,
,,,,,,,,,0.0,,,34,0.0,1.0,2.08044,,,,,,perfume_06s.jpg,onion_10s.jpg,,,,,,,,,,,,,0.0,4.0,4.0,4.0,1.0,,,,,
,,,,,,,,,1.0,,,34,1.0,1.0,2.19832,,,,,,razor_12s.jpg,pump_11s.jpg,,,,,,,,,,,,,0.0,5.0,5.0,5.0,1.0,,,,,
,,,,,,,,,,,,34,,,,,,,,,,,,,,,,clock_present_2_6.xlsx,clock_compare_task_2_6.xlsx,,,,,,,,,,,0.0,1.0,1.0,1.0,1.0
0.0,1.0,1.01623,,,,,,amber_04s.jpg,0.0,clock_7_1.png,1.0,34,,,,,,,,,,,,,,,,,,0.0,0.0,0.0,0.0,1.0,,,,,,,,,,
0.0,1.0,0.98083,,,,,,mascara_03s.jpg,0.0,clock_7_2.png,1.0,34,,,,,,,,,,,,,,,,,,0.0,1.0,1.0,1.0,1.0,,,,,,,,,,
1.0,1.0,0.597865,,,,,,mascara_03s.jpg,1.0,clock_7_3.png,1.0,34,,,,,,,,,,,,,,,,,,0.0,2.0,2.0,2.0,1.0,,,,,,,,,,
0.0,1.0,0.61625,,,,,,printer_09s.jpg,0.0,clock_7_4.png,1.0,34,,,,,,,,,,,,,,,,,,0.0,3.0,3.0,3.0,1.0,,,,,,,,,,
0.0,1.0,0.60709,,,,,,smokingpipe.jpg,0.0,clock_7_5.png,1.0,34,,,,,,,,,,,,,,,,,,0.0,4.0,4.0,4.0,1.0,,,,,,,,,,
0.0,1.0,0.57588,,,,,,trampoline_13s.jpg,0.0,clock_7_6.png,1.0,34,,,,,,,,,,,,,,,,,,0.0,5.0,5.0,5.0,1.0,,,,,,,,,,
0.0,0.0,0.963125,,,,,,printer_09s.jpg,1.0,clock_7_7.png,1.0,34,,,,,,,,,,,,,,,,,,0.0,6.0,6.0,6.0,1.0,,,,,,,,,,
0.0,1.0,0.7002,,,,,,stump_02s.jpg,0.0,clock_6_1.png,2.0,34,,,,,,,,,,,,,,,,,,0.0,7.0,7.0,7.0,1.0,,,,,,,,,,
0.0,1.0,0.65194,,,,,,pumpkin_03s.jpg,0.0,clock_6_2.png,2.0,34,,,,,,,,,,,,,,,,,,0.0,8.0,8.0,8.0,1.0,,,,,,,,,,
0.0,1.0,0.857765,,,,,,syringe_02s.jpg,0.0,clock_6_3.png,2.0,34,,,,,,,,,,,,,,,,,,0.0,9.0,9.0,9.0,1.0,,,,,,,,,,
0.0,1.0,0.602335,,,,,,lid_10s.jpg,0.0,clock_6_4.png,2.0,34,,,,,,,,,,,,,,,,,,0.0,10.0,10.0,10.0,1.0,,,,,,,,,,
0.0,1.0,0.586165,,,,,,muffin_12n.jpg,0.0,clock_6_5.png,2.0,34,,,,,,,,,,,,,,,,,,0.0,11.0,11.0,11.0,1.0,,,,,,,,,,
1.0,1.0,0.892505,,,,,,syringe_02s.jpg,1.0,clock_6_6.png,2.0,34,,,,,,,,,,,,,,,,,,0.0,12.0,12.0,12.0,1.0,,,,,,,,,,
0.0,1.0,0.67245,,,,,,frog_09s.jpg,0.0,clock_5_1.png,3.0,34,,,,,,,,,,,,,,,,,,0.0,13.0,13.0,13.0,1.0,,,,,,,,,,
0.0,1.0,0.561465,,,,,,sunglasses_11s.jpg,0.0,clock_5_2.png,3.0,34,,,,,,,,,,,,,,,,,,0.0,14.0,14.0,14.0,1.0,,,,,,,,,,
0.0,1.0,0.96033,,,,,,printer_09s.jpg,0.0,clock_5_3.png,3.0,34,,,,,,,,,,,,,,,,,,0.0,15.0,15.0,15.0,1.0,,,,,,,,,,
1.0,1.0,0.87834,,,,,,frog_09s.jpg,1.0,clock_5_4.png,3.0,34,,,,,,,,,,,,,,,,,,0.0,16.0,16.0,16.0,1.0,,,,,,,,,,
0.0,1.0,0.99615,,,,,,jigsaw_puzzle_11s.jpg,0.0,clock_5_5.png,3.0,34,,,,,,,,,,,,,,,,,,0.0,17.0,17.0,17.0,1.0,,,,,,,,,,
0.0,1.0,0.711715,,,,,,gong_02s.jpg,0.0,clock_7_1.png,4.0,34,,,,,,,,,,,,,,,,,,0.0,18.0,18.0,18.0,1.0,,,,,,,,,,
1.0,1.0,0.949355,,,,,,gong_02s.jpg,1.0,clock_7_2.png,4.0,34,,,,,,,,,,,,,,,,,,0.0,19.0,19.0,19.0,1.0,,,,,,,,,,
0.0,1.0,0.796315,,,,,,chip_04s.jpg,0.0,clock_7_3.png,4.0,34,,,,,,,,,,,,,,,,,,0.0,20.0,20.0,20.0,1.0,,,,,,,,,,
0.0,1.0,0.596785,,,,,,tripod_01b.jpg,0.0,clock_7_4.png,4.0,34,,,,,,,,,,,,,,,,,,0.0,21.0,21.0,21.0,1.0,,,,,,,,,,
0.0,1.0,0.57665,,,,,,pepper_mill_03s.jpg,0.0,clock_7_5.png,4.0,34,,,,,,,,,,,,,,,,,,0.0,22.0,22.0,22.0,1.0,,,,,,,,,,
1.0,1.0,1.19576,,,,,,gong_02s.jpg,1.0,clock_7_6.png,4.0,34,,,,,,,,,,,,,,,,,,0.0,23.0,23.0,23.0,1.0,,,,,,,,,,
0.0,1.0,1.12396,,,,,,pomegranate_04s.jpg,0.0,clock_7_7.png,4.0,34,,,,,,,,,,,,,,,,,,0.0,24.0,24.0,24.0,1.0,,,,,,,,,,
0.0,1.0,1.01304,,,,,,funnel_01b.jpg,0.0,clock_5_1.png,5.0,34,,,,,,,,,,,,,,,,,,0.0,25.0,25.0,25.0,1.0,,,,,,,,,,
0.0,1.0,0.692895,,,,,,air_pump_05s.jpg,0.0,clock_5_2.png,5.0,34,,,,,,,,,,,,,,,,,,0.0,26.0,26.0,26.0,1.0,,,,,,,,,,
1.0,1.0,0.80235,,,,,,funnel_01b.jpg,1.0,clock_5_3.png,5.0,34,,,,,,,,,,,,,,,,,,0.0,27.0,27.0,27.0,1.0,,,,,,,,,,
1.0,1.0,0.83058,,,,,,funnel_01b.jpg,1.0,clock_5_4.png,5.0,34,,,,,,,,,,,,,,,,,,0.0,28.0,28.0,28.0,1.0,,,,,,,,,,
0.0,1.0,0.77173,,,,,,fork_04s.jpg,0.0,clock_5_5.png,5.0,34,,,,,,,,,,,,,,,,,,0.0,29.0,29.0,29.0,1.0,,,,,,,,,,
0.0,1.0,1.06442,,,,,,cape_11s.jpg,0.0,clock_6_1.png,6.0,34,,,,,,,,,,,,,,,,,,0.0,30.0,30.0,30.0,1.0,,,,,,,,,,
0.0,1.0,0.916405,,,,,,machine_gun_09s.jpg,0.0,clock_6_2.png,6.0,34,,,,,,,,,,,,,,,,,,0.0,31.0,31.0,31.0,1.0,,,,,,,,,,
0.0,1.0,0.866305,,,,,,timer_03s.jpg,0.0,clock_6_3.png,6.0,34,,,,,,,,,,,,,,,,,,0.0,32.0,32.0,32.0,1.0,,,,,,,,,,
0.0,1.0,0.65907,,,,,,spoon02a.jpg,0.0,clock_6_4.png,6.0,34,,,,,,,,,,,,,,,,,,0.0,33.0,33.0,33.0,1.0,,,,,,,,,,
0.0,1.0,0.631905,,,,,,lid_10s.jpg,0.0,clock_6_5.png,6.0,34,,,,,,,,,,,,,,,,,,0.0,34.0,34.0,34.0,1.0,,,,,,,,,,
0.0,1.0,0.68593,,,,,,reindeer_08s.jpg,0.0,clock_6_6.png,6.0,34,,,,,,,,,,,,,,,,,,0.0,35.0,35.0,35.0,1.0,,,,,,,,,,
,,,,,,,,,1.0,,,34,0.0,0.0,1.59315,,,,,,smokingpipe.jpg,stump_02s.jpg,,,,,,,,,,,,,0.0,0.0,0.0,0.0,1.0,,,,,
,,,,,,,,,0.0,,,34,0.0,1.0,1.38702,,,,,,pumpkin_03s.jpg,trampoline_13s.jpg,,,,,,,,,,,,,0.0,1.0,1.0,1.0,1.0,,,,,
,,,,,,,,,1.0,,,34,1.0,1.0,1.181835,,,,,,jigsaw_puzzle_11s.jpg,chip_04s.jpg,,,,,,,,,,,,,0.0,2.0,2.0,2.0,1.0,,,,,
,,,,,,,,,1.0,,,34,0.0,0.0,1.046575,,,,,,tripod_01b.jpg,pomegranate_04s.jpg,,,,,,,,,,,,,0.0,3.0,3.0,3.0,1.0,,,,,
,,,,,,,,,1.0,,,34,1.0,1.0,1.22565,,,,,,cape_11s.jpg,spoon02a.jpg,,,,,,,,,,,,,0.0,4.0,4.0,4.0,1.0,,,,,
,,,,,,,,,0.0,,,34,1.0,0.0,1.17837,,,,,,fork_04s.jpg,air_pump_05s.jpg,,,,,,,,,,,,,0.0,5.0,5.0,5.0,1.0,,,,,
,,,,,,,,,,,,34,,,,,,,,,,,,,,,,clock_present_3_6.xlsx,clock_compare_task_3_6.xlsx,,,,,,,,,,,0.0,2.0,2.0,2.0,1.0
0.0,1.0,0.85516,,,,,,radiator_05s.jpg,0.0,clock_6_1.png,1.0,34,,,,,,,,,,,,,,,,,,0.0,0.0,0.0,0.0,1.0,,,,,,,,,,
1.0,1.0,0.91632,,,,,,radiator_05s.jpg,1.0,clock_6_2.png,1.0,34,,,,,,,,,,,,,,,,,,0.0,1.0,1.0,1.0,1.0,,,,,,,,,,
0.0,1.0,0.6132,,,,,,kilt_18s.jpg,0.0,clock_6_3.png,1.0,34,,,,,,,,,,,,,,,,,,0.0,2.0,2.0,2.0,1.0,,,,,,,,,,
0.0,1.0,1.32088,,,,,,lavender_10s.jpg,0.0,clock_6_4.png,1.0,34,,,,,,,,,,,,,,,,,,0.0,3.0,3.0,3.0,1.0,,,,,,,,,,
1.0,1.0,0.72091,,,,,,kilt_18s.jpg,1.0,clock_6_5.png,1.0,34,,,,,,,,,,,,,,,,,,0.0,4.0,4.0,4.0,1.0,,,,,,,,,,
0.0,1.0,0.564105,,,,,,undershirt_02s.jpg,0.0,clock_6_6.png,1.0,34,,,,,,,,,,,,,,,,,,0.0,5.0,5.0,5.0,1.0,,,,,,,,,,
0.0,1.0,0.743815,,,,,,coconut_08s.jpg,0.0,clock_7_1.png,2.0,34,,,,,,,,,,,,,,,,,,0.0,6.0,6.0,6.0,1.0,,,,,,,,,,
0.0,1.0,1.001745,,,,,,refrigerator_07s.jpg,0.0,clock_7_2.png,2.0,34,,,,,,,,,,,,,,,,,,0.0,7.0,7.0,7.0,1.0,,,,,,,,,,
0.0,1.0,0.66352,,,,,,feather02.jpg,0.0,clock_7_3.png,2.0,34,,,,,,,,,,,,,,,,,,0.0,8.0,8.0,8.0,1.0,,,,,,,,,,
0.0,1.0,0.598185,,,,,,ivy_12s.jpg,0.0,clock_7_4.png,2.0,34,,,,,,,,,,,,,,,,,,0.0,9.0,9.0,9.0,1.0,,,,,,,,,,
0.0,1.0,0.72565,,,,,,tab_09s.jpg,0.0,clock_7_5.png,2.0,34,,,,,,,,,,,,,,,,,,0.0,10.0,10.0,10.0,1.0,,,,,,,,,,
0.0,1.0,0.640735,,,,,,fossil_06s.jpg,0.0,clock_7_6.png,2.0,34,,,,,,,,,,,,,,,,,,0.0,11.0,11.0,11.0,1.0,,,,,,,,,,
0.0,1.0,0.64773,,,,,,puppy_08s.jpg,0.0,clock_7_7.png,2.0,34,,,,,,,,,,,,,,,,,,0.0,12.0,12.0,12.0,1.0,,,,,,,,,,
0.0,1.0,0.68366,,,,,,flip_flop_03s.jpg,0.0,clock_7_1.png,3.0,34,,,,,,,,,,,,,,,,,,0.0,13.0,13.0,13.0,1.0,,,,,,,,,,
0.0,1.0,0.695955,,,,,,slingshot_07s.jpg,0.0,clock_7_2.png,3.0,34,,,,,,,,,,,,,,,,,,0.0,14.0,14.0,14.0,1.0,,,,,,,,,,
1.0,1.0,0.647675,,,,,,flip_flop_03s.jpg,1.0,clock_7_3.png,3.0,34,,,,,,,,,,,,,,,,,,0.0,15.0,15.0,15.0,1.0,,,,,,,,,,
0.0,1.0,1.102605,,,,,,gargoyle_08s.jpg,0.0,clock_7_4.png,3.0,34,,,,,,,,,,,,,,,,,,0.0,16.0,16.0,16.0,1.0,,,,,,,,,,
0.0,1.0,0.97855,,,,,,undershirt_02s.jpg,0.0,clock_7_5.png,3.0,34,,,,,,,,,,,,,,,,,,0.0,17.0,17.0,17.0,1.0,,,,,,,,,,
0.0,1.0,0.6502,,,,,,toilet_paper_12s.jpg,0.0,clock_7_6.png,3.0,34,,,,,,,,,,,,,,,,,,0.0,18.0,18.0,18.0,1.0,,,,,,,,,,
0.0,0.0,2.10542,,,,,,flip_flop_03s.jpg,1.0,clock_7_7.png,3.0,34,,,,,,,,,,,,,,,,,,0.0,19.0,19.0,19.0,1.0,,,,,,,,,,
0.0,1.0,0.837645,,,,,,rocket_02s.jpg,0.0,clock_6_1.png,4.0,34,,,,,,,,,,,,,,,,,,0.0,20.0,20.0,20.0,1.0,,,,,,,,,,
0.0,1.0,0.63412,,,,,,tattoo_14s.jpg,0.0,clock_6_2.png,4.0,34,,,,,,,,,,,,,,,,,,0.0,21.0,21.0,21.0,1.0,,,,,,,,,,
0.0,1.0,0.774285,,,,,,ukulele_02s.jpg,0.0,clock_6_3.png,4.0,34,,,,,,,,,,,,,,,,,,0.0,22.0,22.0,22.0,1.0,,,,,,,,,,
0.0,1.0,0.85091,,,,,,latte_06s.jpg,0.0,clock_6_4.png,4.0,34,,,,,,,,,,,,,,,,,,0.0,23.0,23.0,23.0,1.0,,,,,,,,,,
0.0,1.0,0.746905,,,,,,petri_dish_12s.jpg,0.0,clock_6_5.png,4.0,34,,,,,,,,,,,,,,,,,,0.0,24.0,24.0,24.0,1.0,,,,,,,,,,
0.0,1.0,0.867325,,,,,,tablet_04s.jpg,0.0,clock_6_6.png,4.0,34,,,,,,,,,,,,,,,,,,0.0,25.0,25.0,25.0,1.0,,,,,,,,,,
0.0,1.0,0.924635,,,,,,projector_08s.jpg,0.0,clock_5_1.png,5.0,34,,,,,,,,,,,,,,,,,,0.0,26.0,26.0,26.0,1.0,,,,,,,,,,
1.0,1.0,0.66756,,,,,,projector_08s.jpg,1.0,clock_5_2.png,5.0,34,,,,,,,,,,,,,,,,,,0.0,27.0,27.0,27.0,1.0,,,,,,,,,,
1.0,1.0,0.72873,,,,,,projector_08s.jpg,1.0,clock_5_3.png,5.0,34,,,,,,,,,,,,,,,,,,0.0,28.0,28.0,28.0,1.0,,,,,,,,,,
0.0,1.0,0.63385,,,,,,cushion_08s.jpg,0.0,clock_5_4.png,5.0,34,,,,,,,,,,,,,,,,,,0.0,29.0,29.0,29.0,1.0,,,,,,,,,,
0.0,1.0,1.529035,,,,,,tomato_sauce_09s.jpg,0.0,clock_5_5.png,5.0,34,,,,,,,,,,,,,,,,,,0.0,30.0,30.0,30.0,1.0,,,,,,,,,,
0.0,1.0,1.09038,,,,,,espresso_01b.jpg,0.0,clock_5_1.png,6.0,34,,,,,,,,,,,,,,,,,,0.0,31.0,31.0,31.0,1.0,,,,,,,,,,
0.0,1.0,0.69849,,,,,,telephone_pole_05s.jpg,0.0,clock_5_2.png,6.0,34,,,,,,,,,,,,,,,,,,0.0,32.0,32.0,32.0,1.0,,,,,,,,,,
0.0,1.0,0.64105,,,,,,exhaust_pipe_10s.jpg,0.0,clock_5_3.png,6.0,34,,,,,,,,,,,,,,,,,,0.0,33.0,33.0,33.0,1.0,,,,,,,,,,
0.0,1.0,0.63954,,,,,,pantyhose_07s.jpg,0.0,clock_5_4.png,6.0,34,,,,,,,,,,,,,,,,,,0.0,34.0,34.0,34.0,1.0,,,,,,,,,,
1.0,1.0,0.667045,,,,,,exhaust_pipe_10s.jpg,1.0,clock_5_5.png,6.0,34,,,,,,,,,,,,,,,,,,0.0,35.0,35.0,35.0,1.0,,,,,,,,,,
,,,,,,,,,0.0,,,34,0.0,1.0,0.951865,,,,,,telephone_pole_05s.jpg,cushion_08s.jpg,,,,,,,,,,,,,0.0,0.0,0.0,0.0,1.0,,,,,
,,,,,,,,,1.0,,,34,1.0,1.0,1.02973,,,,,,lavender_10s.jpg,coconut_08s.jpg,,,,,,,,,,,,,0.0,1.0,1.0,1.0,1.0,,,,,
,,,,,,,,,1.0,,,34,0.0,0.0,1.554615,,,,,,fossil_06s.jpg,slingshot_07s.jpg,,,,,,,,,,,,,0.0,2.0,2.0,2.0,1.0,,,,,
,,,,,,,,,0.0,,,34,1.0,0.0,1.110105,,,,,,tab_09s.jpg,refrigerator_07s.jpg,,,,,,,,,,,,,0.0,3.0,3.0,3.0,1.0,,,,,
,,,,,,,,,1.0,,,34,1.0,1.0,1.327795,,,,,,ivy_12s.jpg,puppy_08s.jpg,,,,,,,,,,,,,0.0,4.0,4.0,4.0,1.0,,,,,
,,,,,,,,,0.0,,,34,1.0,0.0,1.212135,,,,,,latte_06s.jpg,rocket_02s.jpg,,,,,,,,,,,,,0.0,5.0,5.0,5.0,1.0,,,,,
,,,,,,,,,,,,34,,,,,,,,,,,,,,,,clock_present_4_6.xlsx,clock_compare_task_4_6.xlsx,,,,,,,,,,,0.0,3.0,3.0,3.0,1.0
0.0,1.0,1.078105,,,,,,mask_09s.jpg,0.0,clock_6_1.png,1.0,34,,,,,,,,,,,,,,,,,,0.0,0.0,0.0,0.0,1.0,,,,,,,,,,
0.0,1.0,0.931515,,,,,,lab_coat_11s.jpg,0.0,clock_6_2.png,1.0,34,,,,,,,,,,,,,,,,,,0.0,1.0,1.0,1.0,1.0,,,,,,,,,,
0.0,1.0,1.29545,,,,,,radio_09s.jpg,0.0,clock_6_3.png,1.0,34,,,,,,,,,,,,,,,,,,0.0,2.0,2.0,2.0,1.0,,,,,,,,,,
0.0,1.0,1.12587,,,,,,breadstick_08s.jpg,0.0,clock_6_4.png,1.0,34,,,,,,,,,,,,,,,,,,0.0,3.0,3.0,3.0,1.0,,,,,,,,,,
0.0,1.0,1.02487,,,,,,mousetrap_15n.jpg,0.0,clock_6_5.png,1.0,34,,,,,,,,,,,,,,,,,,0.0,4.0,4.0,4.0,1.0,,,,,,,,,,
0.0,1.0,0.69886,,,,,,flask_04s.jpg,0.0,clock_6_6.png,1.0,34,,,,,,,,,,,,,,,,,,0.0,5.0,5.0,5.0,1.0,,,,,,,,,,
0.0,1.0,1.016695,,,,,,orange_12s.jpg,0.0,clock_5_1.png,2.0,34,,,,,,,,,,,,,,,,,,0.0,6.0,6.0,6.0,1.0,,,,,,,,,,
0.0,1.0,0.630445,,,,,,mannequin_05s.jpg,0.0,clock_5_2.png,2.0,34,,,,,,,,,,,,,,,,,,0.0,7.0,7.0,7.0,1.0,,,,,,,,,,
0.0,1.0,0.61612,,,,,,bean_06s.jpg,0.0,clock_5_3.png,2.0,34,,,,,,,,,,,,,,,,,,0.0,8.0,8.0,8.0,1.0,,,,,,,,,,
0.0,1.0,0.6474,,,,,,stamp2_08s.jpg,0.0,clock_5_4.png,2.0,34,,,,,,,,,,,,,,,,,,0.0,9.0,9.0,9.0,1.0,,,,,,,,,,
0.0,1.0,0.807035,,,,,,mosquito_12s.jpg,0.0,clock_5_5.png,2.0,34,,,,,,,,,,,,,,,,,,0.0,10.0,10.0,10.0,1.0,,,,,,,,,,
0.0,1.0,0.694885,,,,,,leotard_08s.jpg,0.0,clock_7_1.png,3.0,34,,,,,,,,,,,,,,,,,,0.0,11.0,11.0,11.0,1.0,,,,,,,,,,
1.0,1.0,0.6797,,,,,,leotard_08s.jpg,1.0,clock_7_2.png,3.0,34,,,,,,,,,,,,,,,,,,0.0,12.0,12.0,12.0,1.0,,,,,,,,,,
0.0,1.0,0.64738,,,,,,juicer2_06s.jpg,0.0,clock_7_3.png,3.0,34,,,,,,,,,,,,,,,,,,0.0,13.0,13.0,13.0,1.0,,,,,,,,,,
0.0,1.0,0.570295,,,,,,breadstick_08s.jpg,0.0,clock_7_4.png,3.0,34,,,,,,,,,,,,,,,,,,0.0,14.0,14.0,14.0,1.0,,,,,,,,,,
0.0,1.0,0.56739,,,,,,blazer_02s.jpg,0.0,clock_7_5.png,3.0,34,,,,,,,,,,,,,,,,,,0.0,15.0,15.0,15.0,1.0,,,,,,,,,,
0.0,1.0,0.65685,,,,,,puddle_02s.jpg,0.0,clock_7_6.png,3.0,34,,,,,,,,,,,,,,,,,,0.0,16.0,16.0,16.0,1.0,,,,,,,,,,
1.0,1.0,0.623025,,,,,,puddle_02s.jpg,1.0,clock_7_7.png,3.0,34,,,,,,,,,,,,,,,,,,0.0,17.0,17.0,17.0,1.0,,,,,,,,,,
0.0,1.0,0.84758,,,,,,bathtub_23s.jpg,0.0,clock_6_1.png,4.0,34,,,,,,,,,,,,,,,,,,0.0,18.0,18.0,18.0,1.0,,,,,,,,,,
1.0,1.0,0.73496,,,,,,bathtub_23s.jpg,1.0,clock_6_2.png,4.0,34,,,,,,,,,,,,,,,,,,0.0,19.0,19.0,19.0,1.0,,,,,,,,,,
0.0,1.0,1.10449,,,,,,target_11s.jpg,0.0,clock_6_3.png,4.0,34,,,,,,,,,,,,,,,,,,0.0,20.0,20.0,20.0,1.0,,,,,,,,,,
0.0,1.0,0.632035,,,,,,tiger_06s.jpg,0.0,clock_6_4.png,4.0,34,,,,,,,,,,,,,,,,,,0.0,21.0,21.0,21.0,1.0,,,,,,,,,,
0.0,1.0,0.91071,,,,,,toad_09s.jpg,0.0,clock_6_5.png,4.0,34,,,,,,,,,,,,,,,,,,0.0,22.0,22.0,22.0,1.0,,,,,,,,,,
0.0,1.0,1.3052,,,,,,jalapeno_15s.jpg,0.0,clock_6_6.png,4.0,34,,,,,,,,,,,,,,,,,,0.0,23.0,23.0,23.0,1.0,,,,,,,,,,
0.0,1.0,0.636585,,,,,,emerald_02s.jpg,0.0,clock_7_1.png,5.0,34,,,,,,,,,,,,,,,,,,0.0,24.0,24.0,24.0,1.0,,,,,,,,,,
1.0,1.0,0.58966,,,,,,emerald_02s.jpg,1.0,clock_7_2.png,5.0,34,,,,,,,,,,,,,,,,,,0.0,25.0,25.0,25.0,1.0,,,,,,,,,,
0.0,1.0,1.768045,,,,,,ticktacktoe_08s.jpg,0.0,clock_7_3.png,5.0,34,,,,,,,,,,,,,,,,,,0.0,26.0,26.0,26.0,1.0,,,,,,,,,,
1.0,1.0,0.88658,,,,,,ticktacktoe_08s.jpg,1.0,clock_7_4.png,5.0,34,,,,,,,,,,,,,,,,,,0.0,27.0,27.0,27.0,1.0,,,,,,,,,,
0.0,1.0,0.908405,,,,,,spacesuit_02s.jpg,0.0,clock_7_5.png,5.0,34,,,,,,,,,,,,,,,,,,0.0,28.0,28.0,28.0,1.0,,,,,,,,,,
0.0,1.0,1.073245,,,,,,sledgehammer_03s.jpg,0.0,clock_7_6.png,5.0,34,,,,,,,,,,,,,,,,,,0.0,29.0,29.0,29.0,1.0,,,,,,,,,,
0.0,1.0,0.8813,,,,,,rhubarb_03s.jpg,0.0,clock_7_7.png,5.0,34,,,,,,,,,,,,,,,,,,0.0,30.0,30.0,30.0,1.0,,,,,,,,,,
0.0,1.0,1.143985,,,,,,kite_04s.jpg,0.0,clock_5_1.png,6.0,34,,,,,,,,,,,,,,,,,,0.0,31.0,31.0,31.0,1.0,,,,,,,,,,
0.0,1.0,0.57838,,,,,,birdcage_08s.jpg,0.0,clock_5_2.png,6.0,34,,,,,,,,,,,,,,,,,,0.0,32.0,32.0,32.0,1.0,,,,,,,,,,
0.0,1.0,0.615695,,,,,,crate_05s.jpg,0.0,clock_5_3.png,6.0,34,,,,,,,,,,,,,,,,,,0.0,33.0,33.0,33.0,1.0,,,,,,,,,,
0.0,1.0,0.51363,,,,,,go-kart_10s.jpg,0.0,clock_5_4.png,6.0,34,,,,,,,,,,,,,,,,,,0.0,34.0,34.0,34.0,1.0,,,,,,,,,,
1.0,1.0,0.528485,,,,,,crate_05s.jpg,1.0,clock_5_5.png,6.0,34,,,,,,,,,,,,,,,,,,0.0,35.0,35.0,35.0,1.0,,,,,,,,,,
,,,,,,,,,1.0,,,34,1.0,1.0,1.253795,,,,,,sledgehammer_03s.jpg,birdcage_08s.jpg,,,,,,,,,,,,,0.0,0.0,0.0,0.0,1.0,,,,,
,,,,,,,,,1.0,,,34,1.0,1.0,1.32946,,,,,,flask_04s.jpg,bean_06s.jpg,,,,,,,,,,,,,0.0,1.0,1.0,1.0,1.0,,,,,
,,,,,,,,,0.0,,,34,0.0,1.0,1.375525,,,,,,juicer2_06s.jpg,mosquito_12s.jpg,,,,,,,,,,,,,0.0,2.0,2.0,2.0,1.0,,,,,
,,,,,,,,,1.0,,,34,0.0,0.0,1.28117,,,,,,orange_12s.jpg,stamp2_08s.jpg,,,,,,,,,,,,,0.0,3.0,3.0,3.0,1.0,,,,,
,,,,,,,,,0.0,,,34,1.0,0.0,1.301395,,,,,,jalapeno_15s.jpg,target_11s.jpg,,,,,,,,,,,,,0.0,4.0,4.0,4.0,1.0,,,,,
,,,,,,,,,0.0,,,34,0.0,1.0,1.13391,,,,,,mousetrap_15n.jpg,lab_coat_11s.jpg,,,,,,,,,,,,,0.0,5.0,5.0,5.0,1.0,,,,,
,,,,,,,,,,,,34,,,,,,,,,,,,,,,,clock_present_5_6.xlsx,clock_compare_task_5_6.xlsx,,,,,,,,,,,0.0,4.0,4.0,4.0,1.0
0.0,1.0,0.91457,,,,,,playpen_11s.jpg,0.0,clock_7_1.png,1.0,34,,,,,,,,,,,,,,,,,,0.0,0.0,0.0,0.0,1.0,,,,,,,,,,
1.0,1.0,0.830465,,,,,,playpen_11s.jpg,1.0,clock_7_2.png,1.0,34,,,,,,,,,,,,,,,,,,0.0,1.0,1.0,1.0,1.0,,,,,,,,,,
0.0,1.0,0.68053,,,,,,abacus_12s.jpg,0.0,clock_7_3.png,1.0,34,,,,,,,,,,,,,,,,,,0.0,2.0,2.0,2.0,1.0,,,,,,,,,,
0.0,1.0,0.613715,,,,,,butter_14s.jpg,0.0,clock_7_4.png,1.0,34,,,,,,,,,,,,,,,,,,0.0,3.0,3.0,3.0,1.0,,,,,,,,,,
1.0,1.0,0.68005,,,,,,abacus_12s.jpg,1.0,clock_7_5.png,1.0,34,,,,,,,,,,,,,,,,,,0.0,4.0,4.0,4.0,1.0,,,,,,,,,,
0.0,1.0,1.10507,,,,,,towel_rack_04s.jpg,0.0,clock_7_6.png,1.0,34,,,,,,,,,,,,,,,,,,0.0,5.0,5.0,5.0,1.0,,,,,,,,,,
0.0,1.0,0.983,,,,,,bee_20s.jpg,0.0,clock_7_7.png,1.0,34,,,,,,,,,,,,,,,,,,0.0,6.0,6.0,6.0,1.0,,,,,,,,,,
0.0,1.0,0.75169,,,,,,padlock_07s.jpg,0.0,clock_6_1.png,2.0,34,,,,,,,,,,,,,,,,,,0.0,7.0,7.0,7.0,1.0,,,,,,,,,,
0.0,1.0,0.89487,,,,,,butter_14s.jpg,0.0,clock_6_2.png,2.0,34,,,,,,,,,,,,,,,,,,0.0,8.0,8.0,8.0,1.0,,,,,,,,,,
0.0,1.0,1.187625,,,,,,purse_05s.jpg,0.0,clock_6_3.png,2.0,34,,,,,,,,,,,,,,,,,,0.0,9.0,9.0,9.0,1.0,,,,,,,,,,
1.0,1.0,0.89618,,,,,,butter_14s.jpg,1.0,clock_6_4.png,2.0,34,,,,,,,,,,,,,,,,,,0.0,10.0,10.0,10.0,1.0,,,,,,,,,,
0.0,1.0,0.804625,,,,,,peppermint_07s.jpg,0.0,clock_6_5.png,2.0,34,,,,,,,,,,,,,,,,,,0.0,11.0,11.0,11.0,1.0,,,,,,,,,,
0.0,1.0,0.79678,,,,,,cucumber_07s.jpg,0.0,clock_6_6.png,2.0,34,,,,,,,,,,,,,,,,,,0.0,12.0,12.0,12.0,1.0,,,,,,,,,,
0.0,1.0,0.69463,,,,,,orangutan_03s.jpg,0.0,clock_5_1.png,3.0,34,,,,,,,,,,,,,,,,,,0.0,13.0,13.0,13.0,1.0,,,,,,,,,,
0.0,1.0,0.673045,,,,,,chime_12s.jpg,0.0,clock_5_2.png,3.0,34,,,,,,,,,,,,,,,,,,0.0,14.0,14.0,14.0,1.0,,,,,,,,,,
1.0,1.0,0.96307,,,,,,orangutan_03s.jpg,1.0,clock_5_3.png,3.0,34,,,,,,,,,,,,,,,,,,0.0,15.0,15.0,15.0,1.0,,,,,,,,,,
0.0,1.0,0.64744,,,,,,turkey_10s.jpg,0.0,clock_5_4.png,3.0,34,,,,,,,,,,,,,,,,,,0.0,16.0,16.0,16.0,1.0,,,,,,,,,,
1.0,1.0,0.765375,,,,,,orangutan_03s.jpg,1.0,clock_5_5.png,3.0,34,,,,,,,,,,,,,,,,,,0.0,17.0,17.0,17.0,1.0,,,,,,,,,,
0.0,1.0,0.987685,,,,,,birthday_cake_09s.jpg,0.0,clock_5_1.png,4.0,34,,,,,,,,,,,,,,,,,,0.0,18.0,18.0,18.0,1.0,,,,,,,,,,
0.0,1.0,0.76501,,,,,,lizard_10n.jpg,0.0,clock_5_2.png,4.0,34,,,,,,,,,,,,,,,,,,0.0,19.0,19.0,19.0,1.0,,,,,,,,,,
0.0,1.0,0.88312,,,,,,lava_02s.jpg,0.0,clock_5_3.png,4.0,34,,,,,,,,,,,,,,,,,,0.0,20.0,20.0,20.0,1.0,,,,,,,,,,
0.0,1.0,0.67886,,,,,,rudder_02s.jpg,0.0,clock_5_4.png,4.0,34,,,,,,,,,,,,,,,,,,0.0,21.0,21.0,21.0,1.0,,,,,,,,,,
0.0,1.0,0.75495,,,,,,cap_05s.jpg,0.0,clock_5_5.png,4.0,34,,,,,,,,,,,,,,,,,,0.0,22.0,22.0,22.0,1.0,,,,,,,,,,
0.0,1.0,0.92997,,,,,,eggshell_14s.jpg,0.0,clock_6_1.png,5.0,34,,,,,,,,,,,,,,,,,,0.0,23.0,23.0,23.0,1.0,,,,,,,,,,
0.0,1.0,0.68238,,,,,,gear_07s.jpg,0.0,clock_6_2.png,5.0,34,,,,,,,,,,,,,,,,,,0.0,24.0,24.0,24.0,1.0,,,,,,,,,,
0.0,1.0,0.597975,,,,,,icicle_04s.jpg,0.0,clock_6_3.png,5.0,34,,,,,,,,,,,,,,,,,,0.0,25.0,25.0,25.0,1.0,,,,,,,,,,
0.0,1.0,0.674805,,,,,,submarine_11n.jpg,0.0,clock_6_4.png,5.0,34,,,,,,,,,,,,,,,,,,0.0,26.0,26.0,26.0,1.0,,,,,,,,,,
0.0,1.0,0.644515,,,,,,boar_10s.jpg,0.0,clock_6_5.png,5.0,34,,,,,,,,,,,,,,,,,,0.0,27.0,27.0,27.0,1.0,,,,,,,,,,
0.0,1.0,0.69342,,,,,,plunger_08s.jpg,0.0,clock_6_6.png,5.0,34,,,,,,,,,,,,,,,,,,0.0,28.0,28.0,28.0,1.0,,,,,,,,,,
,0.0,,,,,,,ant_12s.jpg,0.0,clock_7_1.png,6.0,34,,,,,,,,,,,,,,,,,,0.0,29.0,29.0,29.0,1.0,,,,,,,,,,
,0.0,,,,,,,juicer1_08s.jpg,0.0,clock_7_2.png,6.0,34,,,,,,,,,,,,,,,,,,0.0,30.0,30.0,30.0,1.0,,,,,,,,,,
,0.0,,,,,,,submarine_11n.jpg,0.0,clock_7_3.png,6.0,34,,,,,,,,,,,,,,,,,,0.0,31.0,31.0,31.0,1.0,,,,,,,,,,
1.0,1.0,0.66789,,,,,,juicer1_08s.jpg,1.0,clock_7_4.png,6.0,34,,,,,,,,,,,,,,,,,,0.0,32.0,32.0,32.0,1.0,,,,,,,,,,
,0.0,,,,,,,cucumber_07s.jpg,0.0,clock_7_5.png,6.0,34,,,,,,,,,,,,,,,,,,0.0,33.0,33.0,33.0,1.0,,,,,,,,,,
,0.0,,,,,,,mailbox_11s.jpg,0.0,clock_7_6.png,6.0,34,,,,,,,,,,,,,,,,,,0.0,34.0,34.0,34.0,1.0,,,,,,,,,,
1.0,1.0,1.23108,,,,,,juicer1_08s.jpg,1.0,clock_7_7.png,6.0,34,,,,,,,,,,,,,,,,,,0.0,35.0,35.0,35.0,1.0,,,,,,,,,,
,,,,,,,,,1.0,,,34,1.0,1.0,1.3774,,,,,,bee_20s.jpg,purse_05s.jpg,,,,,,,,,,,,,0.0,0.0,0.0,0.0,1.0,,,,,
,,,,,,,,,0.0,,,34,1.0,0.0,1.15661,,,,,,chime_12s.jpg,peppermint_07s.jpg,,,,,,,,,,,,,0.0,1.0,1.0,1.0,1.0,,,,,
,,,,,,,,,1.0,,,34,1.0,1.0,1.3381,,,,,,lava_02s.jpg,eggshell_14s.jpg,,,,,,,,,,,,,0.0,2.0,2.0,2.0,1.0,,,,,
,,,,,,,,,1.0,,,34,1.0,1.0,1.182055,,,,,,birthday_cake_09s.jpg,rudder_02s.jpg,,,,,,,,,,,,,0.0,3.0,3.0,3.0,1.0,,,,,
,,,,,,,,,0.0,,,34,1.0,0.0,1.27998,,,,,,boar_10s.jpg,gear_07s.jpg,,,,,,,,,,,,,0.0,4.0,4.0,4.0,1.0,,,,,
,,,,,,,,,0.0,,,34,0.0,1.0,1.130835,,,,,,plunger_08s.jpg,icicle_04s.jpg,,,,,,,,,,,,,0.0,5.0,5.0,5.0,1.0,,,,,
