key_resp.keys,key_resp.corr,key_resp.rt,noclock_loop.thisRepN,noclock_loop.thisTrialN,noclock_loop.thisN,noclock_loop.thisIndex,noclock_loop.ran,pictures,answer,clock,segment,participant,key_resp_2.keys,key_resp_2.corr,key_resp_2.rt,noclock_loop2.thisRepN,noclock_loop2.thisTrialN,noclock_loop2.thisN,noclock_loop2.thisIndex,noclock_loop2.ran,item_a,item_b,noclock_condition.thisRepN,noclock_condition.thisTrialN,noclock_condition.thisN,noclock_condition.thisIndex,noclock_condition.ran,present,compare,present_segment.thisRepN,present_segment.thisTrialN,present_segment.thisN,present_segment.thisIndex,present_segment.ran,compare_segment.thisRepN,compare_segment.thisTrialN,compare_segment.thisN,compare_segment.thisIndex,compare_segment.ran,clock_conditions.thisRepN,clock_conditions.thisTrialN,clock_conditions.thisN,clock_conditions.thisIndex,clock_conditions.ran
0.0,1.0,1.84346,0.0,0.0,0.0,0.0,1.0,stamp1_11s.jpg,0.0,clockno_up.jpg,1.0,57,,,,,,,,,,,,,,,,,,,,,,,,,,,,,,,,
0.0,0.0,0.745375,0.0,1.0,1.0,1.0,1.0,stamp1_11s.jpg,1.0,clockno_default.jpg,1.0,57,,,,,,,,,,,,,,,,,,,,,,,,,,,,,,,,
1.0,1.0,1.878865,0.0,2.0,2.0,2.0,1.0,stamp1_11s.jpg,1.0,clockno_default.jpg,1.0,57,,,,,,,,,,,,,,,,,,,,,,,,,,,,,,,,
0.0,1.0,1.49806,0.0,3.0,3.0,3.0,1.0,bacon_05s.jpg,0.0,clockno_default.jpg,1.0,57,,,,,,,,,,,,,,,,,,,,,,,,,,,,,,,,
0.0,1.0,1.55462,0.0,4.0,4.0,4.0,1.0,mold2_04s.jpg,0.0,clockno_default.jpg,1.0,57,,,,,,,,,,,,,,,,,,,,,,,,,,,,,,,,
0.0,1.0,1.814385,0.0,5.0,5.0,5.0,1.0,ravioli_08s.jpg,0.0,clockno_up.jpg,2.0,57,,,,,,,,,,,,,,,,,,,,,,,,,,,,,,,,
0.0,1.0,1.64809,0.0,6.0,6.0,6.0,1.0,lasagna_06s.jpg,0.0,clockno_default.jpg,2.0,57,,,,,,,,,,,,,,,,,,,,,,,,,,,,,,,,
0.0,1.0,1.05113,0.0,7.0,7.0,7.0,1.0,soda_fountain_03s.jpg,0.0,clockno_default.jpg,2.0,57,,,,,,,,,,,,,,,,,,,,,,,,,,,,,,,,
0.0,1.0,1.1902,0.0,8.0,8.0,8.0,1.0,sparkler_02s.jpg,0.0,clockno_default.jpg,2.0,57,,,,,,,,,,,,,,,,,,,,,,,,,,,,,,,,
1.0,1.0,1.131525,0.0,9.0,9.0,9.0,1.0,ravioli_08s.jpg,1.0,clockno_default.jpg,2.0,57,,,,,,,,,,,,,,,,,,,,,,,,,,,,,,,,
0.0,1.0,0.59107,0.0,10.0,10.0,10.0,1.0,raccoon_02s.jpg,0.0,clockno_default.jpg,2.0,57,,,,,,,,,,,,,,,,,,,,,,,,,,,,,,,,
0.0,1.0,0.597095,0.0,11.0,11.0,11.0,1.0,ruby_15s.jpg,0.0,clockno_default.jpg,2.0,57,,,,,,,,,,,,,,,,,,,,,,,,,,,,,,,,
0.0,1.0,0.88104,0.0,12.0,12.0,12.0,1.0,boomerang_06s.jpg,0.0,clockno_up.jpg,3.0,57,,,,,,,,,,,,,,,,,,,,,,,,,,,,,,,,
0.0,1.0,0.53693,0.0,13.0,13.0,13.0,1.0,tape_measure_11s.jpg,0.0,clockno_default.jpg,3.0,57,,,,,,,,,,,,,,,,,,,,,,,,,,,,,,,,
0.0,1.0,0.83477,0.0,14.0,14.0,14.0,1.0,power_line_08s.jpg,0.0,clockno_default.jpg,3.0,57,,,,,,,,,,,,,,,,,,,,,,,,,,,,,,,,
0.0,0.0,0.642975,0.0,15.0,15.0,15.0,1.0,boomerang_06s.jpg,1.0,clockno_default.jpg,3.0,57,,,,,,,,,,,,,,,,,,,,,,,,,,,,,,,,
0.0,1.0,0.773365,0.0,16.0,16.0,16.0,1.0,letter_opener_03s.jpg,0.0,clockno_default.jpg,3.0,57,,,,,,,,,,,,,,,,,,,,,,,,,,,,,,,,
0.0,1.0,0.607905,0.0,17.0,17.0,17.0,1.0,parachute_03s.jpg,0.0,clockno_default.jpg,3.0,57,,,,,,,,,,,,,,,,,,,,,,,,,,,,,,,,
0.0,1.0,0.78312,0.0,18.0,18.0,18.0,1.0,snowman_02s.jpg,0.0,clockno_up.jpg,4.0,57,,,,,,,,,,,,,,,,,,,,,,,,,,,,,,,,
0.0,1.0,1.87844,0.0,19.0,19.0,19.0,1.0,turtle_08s.jpg,0.0,clockno_default.jpg,4.0,57,,,,,,,,,,,,,,,,,,,,,,,,,,,,,,,,
0.0,1.0,1.144625,0.0,20.0,20.0,20.0,1.0,rug_09s.jpg,0.0,clockno_default.jpg,4.0,57,,,,,,,,,,,,,,,,,,,,,,,,,,,,,,,,
0.0,1.0,1.09534,0.0,21.0,21.0,21.0,1.0,soccer_ball_12s.jpg,0.0,clockno_default.jpg,4.0,57,,,,,,,,,,,,,,,,,,,,,,,,,,,,,,,,
0.0,1.0,0.82888,0.0,22.0,22.0,22.0,1.0,paper_bag_12s.jpg,0.0,clockno_default.jpg,4.0,57,,,,,,,,,,,,,,,,,,,,,,,,,,,,,,,,
,0.0,,0.0,23.0,23.0,23.0,1.0,paper_bag_12s.jpg,1.0,clockno_default.jpg,4.0,57,,,,,,,,,,,,,,,,,,,,,,,,,,,,,,,,
0.0,1.0,1.48064,0.0,24.0,24.0,24.0,1.0,lasagna_06s.jpg,0.0,clockno_default.jpg,4.0,57,,,,,,,,,,,,,,,,,,,,,,,,,,,,,,,,
0.0,1.0,0.74669,0.0,25.0,25.0,25.0,1.0,teapot_03s.jpg,0.0,clockno_up.jpg,5.0,57,,,,,,,,,,,,,,,,,,,,,,,,,,,,,,,,
0.0,1.0,0.78478,0.0,26.0,26.0,26.0,1.0,frame_06s.jpg,0.0,clockno_default.jpg,5.0,57,,,,,,,,,,,,,,,,,,,,,,,,,,,,,,,,
0.0,1.0,0.617845,0.0,27.0,27.0,27.0,1.0,dashboard_02s.jpg,0.0,clockno_default.jpg,5.0,57,,,,,,,,,,,,,,,,,,,,,,,,,,,,,,,,
0.0,1.0,1.50186,0.0,28.0,28.0,28.0,1.0,glasses01a.jpg,0.0,clockno_default.jpg,5.0,57,,,,,,,,,,,,,,,,,,,,,,,,,,,,,,,,
0.0,1.0,0.708785,0.0,29.0,29.0,29.0,1.0,popsicle_02s.jpg,0.0,clockno_default.jpg,5.0,57,,,,,,,,,,,,,,,,,,,,,,,,,,,,,,,,
0.0,1.0,0.69706,0.0,30.0,30.0,30.0,1.0,screwdriver02a.jpg,0.0,clockno_up.jpg,6.0,57,,,,,,,,,,,,,,,,,,,,,,,,,,,,,,,,
0.0,1.0,0.594075,0.0,31.0,31.0,31.0,1.0,kayak_08s.jpg,0.0,clockno_default.jpg,6.0,57,,,,,,,,,,,,,,,,,,,,,,,,,,,,,,,,
0.0,1.0,0.66648,0.0,32.0,32.0,32.0,1.0,marker_05s.jpg,0.0,clockno_default.jpg,6.0,57,,,,,,,,,,,,,,,,,,,,,,,,,,,,,,,,
0.0,1.0,0.62758,0.0,33.0,33.0,33.0,1.0,knot_01b.jpg,0.0,clockno_default.jpg,6.0,57,,,,,,,,,,,,,,,,,,,,,,,,,,,,,,,,
0.0,1.0,1.66213,0.0,34.0,34.0,34.0,1.0,oil_02s.jpg,0.0,clockno_default.jpg,6.0,57,,,,,,,,,,,,,,,,,,,,,,,,,,,,,,,,
0.0,1.0,1.343985,0.0,35.0,35.0,35.0,1.0,light_switch_02s.jpg,0.0,clockno_default.jpg,6.0,57,,,,,,,,,,,,,,,,,,,,,,,,,,,,,,,,
,,,,,,,,,1.0,,,57,0.0,0.0,2.41996,0.0,0.0,0.0,0.0,1.0,mold2_04s.jpg,soda_fountain_03s.jpg,,,,,,,,,,,,,,,,,,,,,,
,,,,,,,,,0.0,,,57,1.0,0.0,0.780375,0.0,1.0,1.0,1.0,1.0,turtle_08s.jpg,letter_opener_03s.jpg,,,,,,,,,,,,,,,,,,,,,,
,,,,,,,,,0.0,,,57,1.0,0.0,0.716965,0.0,2.0,2.0,2.0,1.0,rug_09s.jpg,parachute_03s.jpg,,,,,,,,,,,,,,,,,,,,,,
,,,,,,,,,1.0,,,57,0.0,0.0,0.766475,0.0,3.0,3.0,3.0,1.0,snowman_02s.jpg,soccer_ball_12s.jpg,,,,,,,,,,,,,,,,,,,,,,
,,,,,,,,,0.0,,,57,1.0,0.0,1.013015,0.0,4.0,4.0,4.0,1.0,ruby_15s.jpg,sparkler_02s.jpg,,,,,,,,,,,,,,,,,,,,,,
,,,,,,,,,0.0,,,57,1.0,0.0,1.265935,0.0,5.0,5.0,5.0,1.0,glasses01a.jpg,teapot_03s.jpg,,,,,,,,,,,,,,,,,,,,,,
,,,,,,,,,,,,57,,,,,,,,,,,0.0,0.0,0.0,0.0,1.0,clockno_present_1_6.xlsx,clockno_compare_task_1_6.xlsx,,,,,,,,,,,,,,,
,0.0,,0.0,0.0,0.0,0.0,1.0,bottle_opener_11s.jpg,0.0,clockno_up.jpg,1.0,57,,,,,,,,,,,,,,,,,,,,,,,,,,,,,,,,
0.0,1.0,0.45178,0.0,1.0,1.0,1.0,1.0,racehorse_03s.jpg,0.0,clockno_default.jpg,1.0,57,,,,,,,,,,,,,,,,,,,,,,,,,,,,,,,,
0.0,1.0,1.16254,0.0,2.0,2.0,2.0,1.0,peach_04s.jpg,0.0,clockno_default.jpg,1.0,57,,,,,,,,,,,,,,,,,,,,,,,,,,,,,,,,
0.0,0.0,0.63098,0.0,3.0,3.0,3.0,1.0,bottle_opener_11s.jpg,1.0,clockno_default.jpg,1.0,57,,,,,,,,,,,,,,,,,,,,,,,,,,,,,,,,
0.0,0.0,0.76058,0.0,4.0,4.0,4.0,1.0,peach_04s.jpg,1.0,clockno_default.jpg,1.0,57,,,,,,,,,,,,,,,,,,,,,,,,,,,,,,,,
0.0,1.0,0.82909,0.0,5.0,5.0,5.0,1.0,tortilla_06s.jpg,0.0,clockno_up.jpg,2.0,57,,,,,,,,,,,,,,,,,,,,,,,,,,,,,,,,
0.0,1.0,1.241025,0.0,6.0,6.0,6.0,1.0,denture_03s.jpg,0.0,clockno_default.jpg,2.0,57,,,,,,,,,,,,,,,,,,,,,,,,,,,,,,,,
0.0,1.0,0.66096,0.0,7.0,7.0,7.0,1.0,cereal_04s.jpg,0.0,clockno_default.jpg,2.0,57,,,,,,,,,,,,,,,,,,,,,,,,,,,,,,,,
0.0,1.0,0.57712,0.0,8.0,8.0,8.0,1.0,antenna_01b.jpg,0.0,clockno_default.jpg,2.0,57,,,,,,,,,,,,,,,,,,,,,,,,,,,,,,,,
0.0,1.0,0.773505,0.0,9.0,9.0,9.0,1.0,milk_02s.jpg,0.0,clockno_default.jpg,2.0,57,,,,,,,,,,,,,,,,,,,,,,,,,,,,,,,,
0.0,1.0,0.627105,0.0,10.0,10.0,10.0,1.0,mushroom_10n.jpg,0.0,clockno_default.jpg,2.0,57,,,,,,,,,,,,,,,,,,,,,,,,,,,,,,,,
1.0,0.0,1.130335,0.0,11.0,11.0,11.0,1.0,racehorse_03s.jpg,0.0,clockno_default.jpg,2.0,57,,,,,,,,,,,,,,,,,,,,,,,,,,,,,,,,
0.0,1.0,0.54075,0.0,12.0,12.0,12.0,1.0,pancake_12s.jpg,0.0,clockno_up.jpg,3.0,57,,,,,,,,,,,,,,,,,,,,,,,,,,,,,,,,
0.0,1.0,0.76593,0.0,13.0,13.0,13.0,1.0,saddle_06s.jpg,0.0,clockno_default.jpg,3.0,57,,,,,,,,,,,,,,,,,,,,,,,,,,,,,,,,
0.0,1.0,0.573095,0.0,14.0,14.0,14.0,1.0,mussel_11s.jpg,0.0,clockno_default.jpg,3.0,57,,,,,,,,,,,,,,,,,,,,,,,,,,,,,,,,
0.0,1.0,0.51406,0.0,15.0,15.0,15.0,1.0,fox_13s.jpg,0.0,clockno_default.jpg,3.0,57,,,,,,,,,,,,,,,,,,,,,,,,,,,,,,,,
0.0,1.0,0.594075,0.0,16.0,16.0,16.0,1.0,laundry_basket_11s.jpg,0.0,clockno_default.jpg,3.0,57,,,,,,,,,,,,,,,,,,,,,,,,,,,,,,,,
0.0,1.0,0.626605,0.0,17.0,17.0,17.0,1.0,kitten_07s.jpg,0.0,clockno_up.jpg,4.0,57,,,,,,,,,,,,,,,,,,,,,,,,,,,,,,,,
1.0,1.0,0.675755,0.0,18.0,18.0,18.0,1.0,kitten_07s.jpg,1.0,clockno_default.jpg,4.0,57,,,,,,,,,,,,,,,,,,,,,,,,,,,,,,,,
0.0,1.0,0.55316,0.0,19.0,19.0,19.0,1.0,tube_top_03s.jpg,0.0,clockno_default.jpg,4.0,57,,,,,,,,,,,,,,,,,,,,,,,,,,,,,,,,
0.0,1.0,0.613655,0.0,20.0,20.0,20.0,1.0,tennis_ball_06s.jpg,0.0,clockno_default.jpg,4.0,57,,,,,,,,,,,,,,,,,,,,,,,,,,,,,,,,
0.0,1.0,0.37836,0.0,21.0,21.0,21.0,1.0,spatula04.jpg,0.0,clockno_default.jpg,4.0,57,,,,,,,,,,,,,,,,,,,,,,,,,,,,,,,,
0.0,1.0,0.81384,0.0,22.0,22.0,22.0,1.0,fishhook_06s.jpg,0.0,clockno_default.jpg,4.0,57,,,,,,,,,,,,,,,,,,,,,,,,,,,,,,,,
0.0,1.0,0.675025,0.0,23.0,23.0,23.0,1.0,sushi_08s.jpg,0.0,clockno_up.jpg,5.0,57,,,,,,,,,,,,,,,,,,,,,,,,,,,,,,,,
0.0,1.0,1.2191,0.0,24.0,24.0,24.0,1.0,ring_03s.jpg,0.0,clockno_default.jpg,5.0,57,,,,,,,,,,,,,,,,,,,,,,,,,,,,,,,,
0.0,1.0,0.389765,0.0,25.0,25.0,25.0,1.0,glue_01s.jpg,0.0,clockno_default.jpg,5.0,57,,,,,,,,,,,,,,,,,,,,,,,,,,,,,,,,
0.0,1.0,0.58599,0.0,26.0,26.0,26.0,1.0,trumpet_06s.jpg,0.0,clockno_default.jpg,5.0,57,,,,,,,,,,,,,,,,,,,,,,,,,,,,,,,,
0.0,1.0,0.9087,0.0,27.0,27.0,27.0,1.0,seagull_01b.jpg,0.0,clockno_default.jpg,5.0,57,,,,,,,,,,,,,,,,,,,,,,,,,,,,,,,,
0.0,1.0,0.80717,0.0,28.0,28.0,28.0,1.0,contact_lens_15s.jpg,0.0,clockno_default.jpg,5.0,57,,,,,,,,,,,,,,,,,,,,,,,,,,,,,,,,
0.0,1.0,0.766735,0.0,29.0,29.0,29.0,1.0,puppet_01b.jpg,0.0,clockno_up.jpg,6.0,57,,,,,,,,,,,,,,,,,,,,,,,,,,,,,,,,
0.0,1.0,0.779695,0.0,30.0,30.0,30.0,1.0,rhinoceros_02s.jpg,0.0,clockno_default.jpg,6.0,57,,,,,,,,,,,,,,,,,,,,,,,,,,,,,,,,
1.0,1.0,0.79428,0.0,31.0,31.0,31.0,1.0,puppet_01b.jpg,1.0,clockno_default.jpg,6.0,57,,,,,,,,,,,,,,,,,,,,,,,,,,,,,,,,
0.0,1.0,0.695815,0.0,32.0,32.0,32.0,1.0,plaster_cast_13s.jpg,0.0,clockno_default.jpg,6.0,57,,,,,,,,,,,,,,,,,,,,,,,,,,,,,,,,
,0.0,,0.0,33.0,33.0,33.0,1.0,rhinoceros_02s.jpg,1.0,clockno_default.jpg,6.0,57,,,,,,,,,,,,,,,,,,,,,,,,,,,,,,,,
0.0,1.0,1.35428,0.0,34.0,34.0,34.0,1.0,turnstile_08s.jpg,0.0,clockno_default.jpg,6.0,57,,,,,,,,,,,,,,,,,,,,,,,,,,,,,,,,
0.0,1.0,0.762935,0.0,35.0,35.0,35.0,1.0,kimono_13s.jpg,0.0,clockno_default.jpg,6.0,57,,,,,,,,,,,,,,,,,,,,,,,,,,,,,,,,
,,,,,,,,,0.0,,,57,1.0,0.0,1.537625,0.0,0.0,0.0,0.0,1.0,sushi_08s.jpg,tennis_ball_06s.jpg,,,,,,,,,,,,,,,,,,,,,,
,,,,,,,,,0.0,,,57,1.0,0.0,0.92733,0.0,1.0,1.0,1.0,1.0,ring_03s.jpg,spatula04.jpg,,,,,,,,,,,,,,,,,,,,,,
,,,,,,,,,0.0,,,57,1.0,0.0,0.927145,0.0,2.0,2.0,2.0,1.0,pancake_12s.jpg,milk_02s.jpg,,,,,,,,,,,,,,,,,,,,,,
,,,,,,,,,0.0,,,57,0.0,1.0,0.752665,0.0,3.0,3.0,3.0,1.0,antenna_01b.jpg,tortilla_06s.jpg,,,,,,,,,,,,,,,,,,,,,,
,,,,,,,,,1.0,,,57,1.0,1.0,1.384475,0.0,4.0,4.0,4.0,1.0,plaster_cast_13s.jpg,kimono_13s.jpg,,,,,,,,,,,,,,,,,,,,,,
,,,,,,,,,1.0,,,57,1.0,1.0,0.823315,0.0,5.0,5.0,5.0,1.0,cereal_04s.jpg,mushroom_10n.jpg,,,,,,,,,,,,,,,,,,,,,,
,,,,,,,,,,,,57,,,,,,,,,,,0.0,1.0,1.0,1.0,1.0,clockno_present_2_6.xlsx,clockno_compare_task_2_6.xlsx,,,,,,,,,,,,,,,
0.0,1.0,1.97697,0.0,0.0,0.0,0.0,1.0,binder_21s.jpg,0.0,clockno_up.jpg,1.0,57,,,,,,,,,,,,,,,,,,,,,,,,,,,,,,,,
0.0,1.0,1.64054,0.0,1.0,1.0,1.0,1.0,magnet_03s.jpg,0.0,clockno_default.jpg,1.0,57,,,,,,,,,,,,,,,,,,,,,,,,,,,,,,,,
0.0,1.0,0.548885,0.0,2.0,2.0,2.0,1.0,penguin_16s.jpg,0.0,clockno_default.jpg,1.0,57,,,,,,,,,,,,,,,,,,,,,,,,,,,,,,,,
0.0,1.0,0.540085,0.0,3.0,3.0,3.0,1.0,rocking_chair_05s.jpg,0.0,clockno_default.jpg,1.0,57,,,,,,,,,,,,,,,,,,,,,,,,,,,,,,,,
1.0,1.0,0.855785,0.0,4.0,4.0,4.0,1.0,magnet_03s.jpg,1.0,clockno_default.jpg,1.0,57,,,,,,,,,,,,,,,,,,,,,,,,,,,,,,,,
0.0,1.0,0.627715,0.0,5.0,5.0,5.0,1.0,gazelle_10s.jpg,0.0,clockno_up.jpg,2.0,57,,,,,,,,,,,,,,,,,,,,,,,,,,,,,,,,
0.0,1.0,0.77902,0.0,6.0,6.0,6.0,1.0,coffee_filter_10s.jpg,0.0,clockno_default.jpg,2.0,57,,,,,,,,,,,,,,,,,,,,,,,,,,,,,,,,
1.0,1.0,0.613205,0.0,7.0,7.0,7.0,1.0,coffee_filter_10s.jpg,1.0,clockno_default.jpg,2.0,57,,,,,,,,,,,,,,,,,,,,,,,,,,,,,,,,
0.0,1.0,1.52748,0.0,8.0,8.0,8.0,1.0,beaker_01b.jpg,0.0,clockno_default.jpg,2.0,57,,,,,,,,,,,,,,,,,,,,,,,,,,,,,,,,
0.0,1.0,0.86207,0.0,9.0,9.0,9.0,1.0,lamb_04s.jpg,0.0,clockno_default.jpg,2.0,57,,,,,,,,,,,,,,,,,,,,,,,,,,,,,,,,
0.0,1.0,0.59729,0.0,10.0,10.0,10.0,1.0,bagel_15s.jpg,0.0,clockno_default.jpg,2.0,57,,,,,,,,,,,,,,,,,,,,,,,,,,,,,,,,
0.0,1.0,0.81941,0.0,11.0,11.0,11.0,1.0,coral_08s.jpg,0.0,clockno_default.jpg,2.0,57,,,,,,,,,,,,,,,,,,,,,,,,,,,,,,,,
0.0,1.0,0.827335,0.0,12.0,12.0,12.0,1.0,orchid_01b.jpg,0.0,clockno_up.jpg,3.0,57,,,,,,,,,,,,,,,,,,,,,,,,,,,,,,,,
0.0,1.0,0.678105,0.0,13.0,13.0,13.0,1.0,toaster_03s.jpg,0.0,clockno_default.jpg,3.0,57,,,,,,,,,,,,,,,,,,,,,,,,,,,,,,,,
0.0,1.0,0.71062,0.0,14.0,14.0,14.0,1.0,rocking_chair_05s.jpg,0.0,clockno_default.jpg,3.0,57,,,,,,,,,,,,,,,,,,,,,,,,,,,,,,,,
1.0,0.0,0.877915,0.0,15.0,15.0,15.0,1.0,coral_08s.jpg,0.0,clockno_default.jpg,3.0,57,,,,,,,,,,,,,,,,,,,,,,,,,,,,,,,,
0.0,1.0,0.56706,0.0,16.0,16.0,16.0,1.0,megaphone_03s.jpg,0.0,clockno_default.jpg,3.0,57,,,,,,,,,,,,,,,,,,,,,,,,,,,,,,,,
0.0,1.0,0.563775,0.0,17.0,17.0,17.0,1.0,doily_13s.jpg,0.0,clockno_default.jpg,3.0,57,,,,,,,,,,,,,,,,,,,,,,,,,,,,,,,,
0.0,1.0,0.61176,0.0,18.0,18.0,18.0,1.0,harpoon.jpg,0.0,clockno_up.jpg,4.0,57,,,,,,,,,,,,,,,,,,,,,,,,,,,,,,,,
0.0,1.0,0.84371,0.0,19.0,19.0,19.0,1.0,peanut_butter_08s.jpg,0.0,clockno_default.jpg,4.0,57,,,,,,,,,,,,,,,,,,,,,,,,,,,,,,,,
0.0,1.0,0.778365,0.0,20.0,20.0,20.0,1.0,margarita_03s.jpg,0.0,clockno_default.jpg,4.0,57,,,,,,,,,,,,,,,,,,,,,,,,,,,,,,,,
1.0,1.0,1.66401,0.0,21.0,21.0,21.0,1.0,peanut_butter_08s.jpg,1.0,clockno_default.jpg,4.0,57,,,,,,,,,,,,,,,,,,,,,,,,,,,,,,,,
1.0,0.0,0.91448,0.0,22.0,22.0,22.0,1.0,coral_08s.jpg,0.0,clockno_default.jpg,4.0,57,,,,,,,,,,,,,,,,,,,,,,,,,,,,,,,,
0.0,1.0,0.53289,0.0,23.0,23.0,23.0,1.0,punch1_10s.jpg,0.0,clockno_up.jpg,5.0,57,,,,,,,,,,,,,,,,,,,,,,,,,,,,,,,,
0.0,1.0,0.62846,0.0,24.0,24.0,24.0,1.0,bonsai_07s.jpg,0.0,clockno_default.jpg,5.0,57,,,,,,,,,,,,,,,,,,,,,,,,,,,,,,,,
0.0,1.0,0.693965,0.0,25.0,25.0,25.0,1.0,licorice_06s.jpg,0.0,clockno_default.jpg,5.0,57,,,,,,,,,,,,,,,,,,,,,,,,,,,,,,,,
,0.0,,0.0,26.0,26.0,26.0,1.0,candy_cane_06s.jpg,0.0,clockno_default.jpg,5.0,57,,,,,,,,,,,,,,,,,,,,,,,,,,,,,,,,
0.0,1.0,0.61022,0.0,27.0,27.0,27.0,1.0,quesadilla_07s.jpg,0.0,clockno_default.jpg,5.0,57,,,,,,,,,,,,,,,,,,,,,,,,,,,,,,,,
1.0,0.0,0.92756,0.0,28.0,28.0,28.0,1.0,margarita_03s.jpg,0.0,clockno_default.jpg,5.0,57,,,,,,,,,,,,,,,,,,,,,,,,,,,,,,,,
0.0,1.0,0.642935,0.0,29.0,29.0,29.0,1.0,possum_09s.jpg,0.0,clockno_up.jpg,6.0,57,,,,,,,,,,,,,,,,,,,,,,,,,,,,,,,,
0.0,1.0,0.662145,0.0,30.0,30.0,30.0,1.0,mop_08s.jpg,0.0,clockno_default.jpg,6.0,57,,,,,,,,,,,,,,,,,,,,,,,,,,,,,,,,
0.0,1.0,0.542095,0.0,31.0,31.0,31.0,1.0,rice_12s.jpg,0.0,clockno_default.jpg,6.0,57,,,,,,,,,,,,,,,,,,,,,,,,,,,,,,,,
0.0,1.0,0.753065,0.0,32.0,32.0,32.0,1.0,thumbtack_14s.jpg,0.0,clockno_default.jpg,6.0,57,,,,,,,,,,,,,,,,,,,,,,,,,,,,,,,,
0.0,1.0,0.660985,0.0,33.0,33.0,33.0,1.0,rake_06s.jpg,0.0,clockno_default.jpg,6.0,57,,,,,,,,,,,,,,,,,,,,,,,,,,,,,,,,
0.0,1.0,0.702895,0.0,34.0,34.0,34.0,1.0,police_car_01s.jpg,0.0,clockno_default.jpg,6.0,57,,,,,,,,,,,,,,,,,,,,,,,,,,,,,,,,
1.0,1.0,0.80745,0.0,35.0,35.0,35.0,1.0,mop_08s.jpg,1.0,clockno_default.jpg,6.0,57,,,,,,,,,,,,,,,,,,,,,,,,,,,,,,,,
,,,,,,,,,0.0,,,57,1.0,0.0,3.209105,0.0,0.0,0.0,0.0,1.0,orchid_01b.jpg,lamb_04s.jpg,,,,,,,,,,,,,,,,,,,,,,
,,,,,,,,,1.0,,,57,1.0,1.0,0.91465,0.0,1.0,1.0,1.0,1.0,penguin_16s.jpg,gazelle_10s.jpg,,,,,,,,,,,,,,,,,,,,,,
,,,,,,,,,1.0,,,57,1.0,1.0,1.203315,0.0,2.0,2.0,2.0,1.0,bagel_15s.jpg,toaster_03s.jpg,,,,,,,,,,,,,,,,,,,,,,
,,,,,,,,,0.0,,,57,0.0,1.0,1.12794,0.0,3.0,3.0,3.0,1.0,quesadilla_07s.jpg,bonsai_07s.jpg,,,,,,,,,,,,,,,,,,,,,,
,,,,,,,,,0.0,,,57,0.0,1.0,1.096735,0.0,4.0,4.0,4.0,1.0,police_car_01s.jpg,rice_12s.jpg,,,,,,,,,,,,,,,,,,,,,,
,,,,,,,,,1.0,,,57,1.0,1.0,1.14763,0.0,5.0,5.0,5.0,1.0,punch1_10s.jpg,candy_cane_06s.jpg,,,,,,,,,,,,,,,,,,,,,,
,,,,,,,,,,,,57,,,,,,,,,,,0.0,2.0,2.0,2.0,1.0,clockno_present_3_6.xlsx,clockno_compare_task_3_6.xlsx,,,,,,,,,,,,,,,
0.0,1.0,2.00638,0.0,0.0,0.0,0.0,1.0,teacup_07s.jpg,0.0,clockno_up.jpg,1.0,57,,,,,,,,,,,,,,,,,,,,,,,,,,,,,,,,
0.0,1.0,1.45615,0.0,1.0,1.0,1.0,1.0,hummingbird_05s.jpg,0.0,clockno_default.jpg,1.0,57,,,,,,,,,,,,,,,,,,,,,,,,,,,,,,,,
0.0,1.0,0.707805,0.0,2.0,2.0,2.0,1.0,lion_18s.jpg,0.0,clockno_default.jpg,1.0,57,,,,,,,,,,,,,,,,,,,,,,,,,,,,,,,,
1.0,1.0,0.861285,0.0,3.0,3.0,3.0,1.0,lion_18s.jpg,1.0,clockno_default.jpg,1.0,57,,,,,,,,,,,,,,,,,,,,,,,,,,,,,,,,
0.0,0.0,0.909795,0.0,4.0,4.0,4.0,1.0,hummingbird_05s.jpg,1.0,clockno_default.jpg,1.0,57,,,,,,,,,,,,,,,,,,,,,,,,,,,,,,,,
0.0,1.0,0.716255,0.0,5.0,5.0,5.0,1.0,razor_blade_01b.jpg,0.0,clockno_default.jpg,1.0,57,,,,,,,,,,,,,,,,,,,,,,,,,,,,,,,,
0.0,1.0,2.397625,0.0,6.0,6.0,6.0,1.0,ladle_04s.jpg,0.0,clockno_default.jpg,1.0,57,,,,,,,,,,,,,,,,,,,,,,,,,,,,,,,,
0.0,1.0,1.26094,0.0,7.0,7.0,7.0,1.0,typewriter_11s.jpg,0.0,clockno_up.jpg,2.0,57,,,,,,,,,,,,,,,,,,,,,,,,,,,,,,,,
0.0,1.0,0.92689,0.0,8.0,8.0,8.0,1.0,bubble_01b.jpg,0.0,clockno_default.jpg,2.0,57,,,,,,,,,,,,,,,,,,,,,,,,,,,,,,,,
1.0,0.0,1.078455,0.0,9.0,9.0,9.0,1.0,teacup_07s.jpg,0.0,clockno_default.jpg,2.0,57,,,,,,,,,,,,,,,,,,,,,,,,,,,,,,,,
0.0,1.0,0.930605,0.0,10.0,10.0,10.0,1.0,toothpaste_12s.jpg,0.0,clockno_default.jpg,2.0,57,,,,,,,,,,,,,,,,,,,,,,,,,,,,,,,,
0.0,1.0,0.64097,0.0,11.0,11.0,11.0,1.0,loveseat_08s.jpg,0.0,clockno_default.jpg,2.0,57,,,,,,,,,,,,,,,,,,,,,,,,,,,,,,,,
0.0,1.0,1.11004,0.0,12.0,12.0,12.0,1.0,mirror_12s.jpg,0.0,clockno_up.jpg,3.0,57,,,,,,,,,,,,,,,,,,,,,,,,,,,,,,,,
0.0,1.0,0.771975,0.0,13.0,13.0,13.0,1.0,tupperware_09s.jpg,0.0,clockno_default.jpg,3.0,57,,,,,,,,,,,,,,,,,,,,,,,,,,,,,,,,
0.0,1.0,0.62885,0.0,14.0,14.0,14.0,1.0,keyboard_05s.jpg,0.0,clockno_default.jpg,3.0,57,,,,,,,,,,,,,,,,,,,,,,,,,,,,,,,,
0.0,1.0,0.60258,0.0,15.0,15.0,15.0,1.0,diving_board_07s.jpg,0.0,clockno_default.jpg,3.0,57,,,,,,,,,,,,,,,,,,,,,,,,,,,,,,,,
0.0,1.0,1.256905,0.0,16.0,16.0,16.0,1.0,ironing_board_07s.jpg,0.0,clockno_default.jpg,3.0,57,,,,,,,,,,,,,,,,,,,,,,,,,,,,,,,,
0.0,1.0,0.7362,0.0,17.0,17.0,17.0,1.0,ladle_04s.jpg,0.0,clockno_default.jpg,3.0,57,,,,,,,,,,,,,,,,,,,,,,,,,,,,,,,,
0.0,1.0,0.698045,0.0,18.0,18.0,18.0,1.0,treadmill_06s.jpg,0.0,clockno_default.jpg,3.0,57,,,,,,,,,,,,,,,,,,,,,,,,,,,,,,,,
0.0,1.0,0.5784,0.0,19.0,19.0,19.0,1.0,teabag_12s.jpg,0.0,clockno_up.jpg,4.0,57,,,,,,,,,,,,,,,,,,,,,,,,,,,,,,,,
0.0,1.0,0.710915,0.0,20.0,20.0,20.0,1.0,mango_09s.jpg,0.0,clockno_default.jpg,4.0,57,,,,,,,,,,,,,,,,,,,,,,,,,,,,,,,,
0.0,1.0,1.250875,0.0,21.0,21.0,21.0,1.0,memory_stick_11s.jpg,0.0,clockno_default.jpg,4.0,57,,,,,,,,,,,,,,,,,,,,,,,,,,,,,,,,
0.0,1.0,2.42889,0.0,22.0,22.0,22.0,1.0,tuxedo_01b.jpg,0.0,clockno_default.jpg,4.0,57,,,,,,,,,,,,,,,,,,,,,,,,,,,,,,,,
0.0,1.0,1.74798,0.0,23.0,23.0,23.0,1.0,lion_18s.jpg,0.0,clockno_default.jpg,4.0,57,,,,,,,,,,,,,,,,,,,,,,,,,,,,,,,,
0.0,1.0,1.1089,0.0,24.0,24.0,24.0,1.0,lamb_chop_07s.jpg,0.0,clockno_default.jpg,4.0,57,,,,,,,,,,,,,,,,,,,,,,,,,,,,,,,,
0.0,1.0,2.460325,0.0,25.0,25.0,25.0,1.0,crayon_09s.jpg,0.0,clockno_up.jpg,5.0,57,,,,,,,,,,,,,,,,,,,,,,,,,,,,,,,,
0.0,1.0,0.542005,0.0,26.0,26.0,26.0,1.0,squirt_gun_03s.jpg,0.0,clockno_default.jpg,5.0,57,,,,,,,,,,,,,,,,,,,,,,,,,,,,,,,,
1.0,0.0,1.17028,0.0,27.0,27.0,27.0,1.0,tupperware_09s.jpg,0.0,clockno_default.jpg,5.0,57,,,,,,,,,,,,,,,,,,,,,,,,,,,,,,,,
0.0,1.0,0.510585,0.0,28.0,28.0,28.0,1.0,fireworks_18s.jpg,0.0,clockno_default.jpg,5.0,57,,,,,,,,,,,,,,,,,,,,,,,,,,,,,,,,
0.0,1.0,0.41699,0.0,29.0,29.0,29.0,1.0,golf_club_03s.jpg,0.0,clockno_default.jpg,5.0,57,,,,,,,,,,,,,,,,,,,,,,,,,,,,,,,,
0.0,1.0,0.396755,0.0,30.0,30.0,30.0,1.0,keyboard_05s.jpg,0.0,clockno_default.jpg,5.0,57,,,,,,,,,,,,,,,,,,,,,,,,,,,,,,,,
0.0,1.0,0.32582,0.0,31.0,31.0,31.0,1.0,tiara_05s.jpg,0.0,clockno_up.jpg,6.0,57,,,,,,,,,,,,,,,,,,,,,,,,,,,,,,,,
0.0,0.0,0.38922,0.0,32.0,32.0,32.0,1.0,tiara_05s.jpg,1.0,clockno_default.jpg,6.0,57,,,,,,,,,,,,,,,,,,,,,,,,,,,,,,,,
0.0,1.0,0.68182,0.0,33.0,33.0,33.0,1.0,spider_web_03s.jpg,0.0,clockno_default.jpg,6.0,57,,,,,,,,,,,,,,,,,,,,,,,,,,,,,,,,
0.0,1.0,0.680535,0.0,34.0,34.0,34.0,1.0,chopsticks_08s.jpg,0.0,clockno_default.jpg,6.0,57,,,,,,,,,,,,,,,,,,,,,,,,,,,,,,,,
0.0,1.0,0.615465,0.0,35.0,35.0,35.0,1.0,stethoscope_01b.jpg,0.0,clockno_default.jpg,6.0,57,,,,,,,,,,,,,,,,,,,,,,,,,,,,,,,,
,,,,,,,,,1.0,,,57,0.0,0.0,4.128795,0.0,0.0,0.0,0.0,1.0,razor_blade_01b.jpg,bubble_01b.jpg,,,,,,,,,,,,,,,,,,,,,,
,,,,,,,,,1.0,,,57,1.0,1.0,0.74704,0.0,1.0,1.0,1.0,1.0,ironing_board_07s.jpg,teabag_12s.jpg,,,,,,,,,,,,,,,,,,,,,,
,,,,,,,,,1.0,,,57,1.0,1.0,0.74939,0.0,2.0,2.0,2.0,1.0,treadmill_06s.jpg,memory_stick_11s.jpg,,,,,,,,,,,,,,,,,,,,,,
,,,,,,,,,1.0,,,57,1.0,1.0,0.76327,0.0,3.0,3.0,3.0,1.0,typewriter_11s.jpg,toothpaste_12s.jpg,,,,,,,,,,,,,,,,,,,,,,
,,,,,,,,,1.0,,,57,1.0,1.0,0.97108,0.0,4.0,4.0,4.0,1.0,mirror_12s.jpg,diving_board_07s.jpg,,,,,,,,,,,,,,,,,,,,,,
,,,,,,,,,0.0,,,57,0.0,1.0,0.89435,0.0,5.0,5.0,5.0,1.0,golf_club_03s.jpg,squirt_gun_03s.jpg,,,,,,,,,,,,,,,,,,,,,,
,,,,,,,,,,,,57,,,,,,,,,,,0.0,3.0,3.0,3.0,1.0,clockno_present_4_6.xlsx,clockno_compare_task_4_6.xlsx,,,,,,,,,,,,,,,
0.0,1.0,2.390145,0.0,0.0,0.0,0.0,1.0,ice_pack_09s.jpg,0.0,clockno_up.jpg,1.0,57,,,,,,,,,,,,,,,,,,,,,,,,,,,,,,,,
,0.0,,0.0,1.0,1.0,1.0,1.0,hydrant_10s.jpg,0.0,clockno_default.jpg,1.0,57,,,,,,,,,,,,,,,,,,,,,,,,,,,,,,,,
0.0,1.0,0.472955,0.0,2.0,2.0,2.0,1.0,stapler_01b.jpg,0.0,clockno_default.jpg,1.0,57,,,,,,,,,,,,,,,,,,,,,,,,,,,,,,,,
0.0,1.0,0.467495,0.0,3.0,3.0,3.0,1.0,mitten_10s.jpg,0.0,clockno_default.jpg,1.0,57,,,,,,,,,,,,,,,,,,,,,,,,,,,,,,,,
1.0,1.0,2.27901,0.0,4.0,4.0,4.0,1.0,ice_pack_09s.jpg,1.0,clockno_default.jpg,1.0,57,,,,,,,,,,,,,,,,,,,,,,,,,,,,,,,,
0.0,1.0,0.79762,0.0,5.0,5.0,5.0,1.0,surfboard_11s.jpg,0.0,clockno_up.jpg,2.0,57,,,,,,,,,,,,,,,,,,,,,,,,,,,,,,,,
0.0,1.0,0.8896,0.0,6.0,6.0,6.0,1.0,pepper2_21s.jpg,0.0,clockno_default.jpg,2.0,57,,,,,,,,,,,,,,,,,,,,,,,,,,,,,,,,
0.0,1.0,0.527745,0.0,7.0,7.0,7.0,1.0,raspberry_12s.jpg,0.0,clockno_default.jpg,2.0,57,,,,,,,,,,,,,,,,,,,,,,,,,,,,,,,,
0.0,1.0,0.756165,0.0,8.0,8.0,8.0,1.0,marshmallow_08s.jpg,0.0,clockno_default.jpg,2.0,57,,,,,,,,,,,,,,,,,,,,,,,,,,,,,,,,
0.0,1.0,0.570355,0.0,9.0,9.0,9.0,1.0,lantern_04s.jpg,0.0,clockno_default.jpg,2.0,57,,,,,,,,,,,,,,,,,,,,,,,,,,,,,,,,
0.0,1.0,0.79346,0.0,10.0,10.0,10.0,1.0,tongs_08s.jpg,0.0,clockno_default.jpg,2.0,57,,,,,,,,,,,,,,,,,,,,,,,,,,,,,,,,
0.0,1.0,2.063455,0.0,11.0,11.0,11.0,1.0,scooter.jpg,0.0,clockno_default.jpg,2.0,57,,,,,,,,,,,,,,,,,,,,,,,,,,,,,,,,
0.0,1.0,1.27706,0.0,12.0,12.0,12.0,1.0,pocketknife_12s.jpg,0.0,clockno_up.jpg,3.0,57,,,,,,,,,,,,,,,,,,,,,,,,,,,,,,,,
0.0,1.0,0.660235,0.0,13.0,13.0,13.0,1.0,popcorn_09s.jpg,0.0,clockno_default.jpg,3.0,57,,,,,,,,,,,,,,,,,,,,,,,,,,,,,,,,
0.0,1.0,0.58355,0.0,14.0,14.0,14.0,1.0,panda_02s.jpg,0.0,clockno_default.jpg,3.0,57,,,,,,,,,,,,,,,,,,,,,,,,,,,,,,,,
0.0,0.0,0.681505,0.0,15.0,15.0,15.0,1.0,panda_02s.jpg,1.0,clockno_default.jpg,3.0,57,,,,,,,,,,,,,,,,,,,,,,,,,,,,,,,,
0.0,1.0,0.57581,0.0,16.0,16.0,16.0,1.0,treasure_08s.jpg,0.0,clockno_default.jpg,3.0,57,,,,,,,,,,,,,,,,,,,,,,,,,,,,,,,,
0.0,1.0,0.560515,0.0,17.0,17.0,17.0,1.0,giraffe_11s.jpg,0.0,clockno_up.jpg,4.0,57,,,,,,,,,,,,,,,,,,,,,,,,,,,,,,,,
0.0,1.0,1.07619,0.0,18.0,18.0,18.0,1.0,recliner_02s.jpg,0.0,clockno_default.jpg,4.0,57,,,,,,,,,,,,,,,,,,,,,,,,,,,,,,,,
0.0,1.0,0.66741,0.0,19.0,19.0,19.0,1.0,bolo_tie_08s.jpg,0.0,clockno_default.jpg,4.0,57,,,,,,,,,,,,,,,,,,,,,,,,,,,,,,,,
0.0,1.0,0.591905,0.0,20.0,20.0,20.0,1.0,potpourri_03s.jpg,0.0,clockno_default.jpg,4.0,57,,,,,,,,,,,,,,,,,,,,,,,,,,,,,,,,
0.0,1.0,1.45985,0.0,21.0,21.0,21.0,1.0,money_07s.jpg,0.0,clockno_default.jpg,4.0,57,,,,,,,,,,,,,,,,,,,,,,,,,,,,,,,,
0.0,1.0,0.776865,0.0,22.0,22.0,22.0,1.0,lamp_08s.jpg,0.0,clockno_default.jpg,4.0,57,,,,,,,,,,,,,,,,,,,,,,,,,,,,,,,,
0.0,1.0,0.64356,0.0,23.0,23.0,23.0,1.0,jersey_02s.jpg,0.0,clockno_up.jpg,5.0,57,,,,,,,,,,,,,,,,,,,,,,,,,,,,,,,,
0.0,1.0,0.657615,0.0,24.0,24.0,24.0,1.0,poinsettia_04s.jpg,0.0,clockno_default.jpg,5.0,57,,,,,,,,,,,,,,,,,,,,,,,,,,,,,,,,
0.0,0.0,0.670025,0.0,25.0,25.0,25.0,1.0,jersey_02s.jpg,1.0,clockno_default.jpg,5.0,57,,,,,,,,,,,,,,,,,,,,,,,,,,,,,,,,
0.0,1.0,0.609845,0.0,26.0,26.0,26.0,1.0,mattress_01s.jpg,0.0,clockno_default.jpg,5.0,57,,,,,,,,,,,,,,,,,,,,,,,,,,,,,,,,
0.0,1.0,0.604045,0.0,27.0,27.0,27.0,1.0,pocketknife_12s.jpg,0.0,clockno_default.jpg,5.0,57,,,,,,,,,,,,,,,,,,,,,,,,,,,,,,,,
0.0,1.0,0.70756,0.0,28.0,28.0,28.0,1.0,swan_11s.jpg,0.0,clockno_default.jpg,5.0,57,,,,,,,,,,,,,,,,,,,,,,,,,,,,,,,,
,0.0,,0.0,29.0,29.0,29.0,1.0,toilet_07s.jpg,0.0,clockno_default.jpg,5.0,57,,,,,,,,,,,,,,,,,,,,,,,,,,,,,,,,
0.0,1.0,1.91098,0.0,30.0,30.0,30.0,1.0,kettle_08s.jpg,0.0,clockno_up.jpg,6.0,57,,,,,,,,,,,,,,,,,,,,,,,,,,,,,,,,
0.0,1.0,1.563055,0.0,31.0,31.0,31.0,1.0,pea_11s.jpg,0.0,clockno_default.jpg,6.0,57,,,,,,,,,,,,,,,,,,,,,,,,,,,,,,,,
0.0,1.0,0.601685,0.0,32.0,32.0,32.0,1.0,tongs_08s.jpg,0.0,clockno_default.jpg,6.0,57,,,,,,,,,,,,,,,,,,,,,,,,,,,,,,,,
0.0,1.0,0.600025,0.0,33.0,33.0,33.0,1.0,turf_03s.jpg,0.0,clockno_default.jpg,6.0,57,,,,,,,,,,,,,,,,,,,,,,,,,,,,,,,,
0.0,1.0,0.621985,0.0,34.0,34.0,34.0,1.0,blowfish_03s.jpg,0.0,clockno_default.jpg,6.0,57,,,,,,,,,,,,,,,,,,,,,,,,,,,,,,,,
0.0,1.0,0.630245,0.0,35.0,35.0,35.0,1.0,rock_08s.jpg,0.0,clockno_default.jpg,6.0,57,,,,,,,,,,,,,,,,,,,,,,,,,,,,,,,,
,,,,,,,,,0.0,,,57,0.0,1.0,1.291755,0.0,0.0,0.0,0.0,1.0,surfboard_11s.jpg,stapler_01b.jpg,,,,,,,,,,,,,,,,,,,,,,
,,,,,,,,,0.0,,,57,0.0,1.0,1.036155,0.0,1.0,1.0,1.0,1.0,pepper2_21s.jpg,mitten_10s.jpg,,,,,,,,,,,,,,,,,,,,,,
,,,,,,,,,1.0,,,57,1.0,1.0,0.602565,0.0,2.0,2.0,2.0,1.0,money_07s.jpg,poinsettia_04s.jpg,,,,,,,,,,,,,,,,,,,,,,
,,,,,,,,,1.0,,,57,1.0,1.0,0.864885,0.0,3.0,3.0,3.0,1.0,marshmallow_08s.jpg,scooter.jpg,,,,,,,,,,,,,,,,,,,,,,
,,,,,,,,,1.0,,,57,1.0,1.0,1.09912,0.0,4.0,4.0,4.0,1.0,giraffe_11s.jpg,potpourri_03s.jpg,,,,,,,,,,,,,,,,,,,,,,
,,,,,,,,,1.0,,,57,1.0,1.0,1.034695,0.0,5.0,5.0,5.0,1.0,mattress_01s.jpg,toilet_07s.jpg,,,,,,,,,,,,,,,,,,,,,,
,,,,,,,,,,,,57,,,,,,,,,,,0.0,4.0,4.0,4.0,1.0,clockno_present_5_6.xlsx,clockno_compare_task_5_6.xlsx,,,,,,,,,,,,,,,
,0.0,,0.0,0.0,0.0,0.0,1.0,loom_05s.jpg,0.0,clockno_up.jpg,1.0,57,,,,,,,,,,,,,,,,,,,,,,,,,,,,,,,,
1.0,1.0,2.229045,0.0,1.0,1.0,1.0,1.0,loom_05s.jpg,1.0,clockno_default.jpg,1.0,57,,,,,,,,,,,,,,,,,,,,,,,,,,,,,,,,
0.0,1.0,0.540945,0.0,2.0,2.0,2.0,1.0,metronome_03s.jpg,0.0,clockno_default.jpg,1.0,57,,,,,,,,,,,,,,,,,,,,,,,,,,,,,,,,
0.0,1.0,0.502805,0.0,3.0,3.0,3.0,1.0,eiffeltower.jpg,0.0,clockno_default.jpg,1.0,57,,,,,,,,,,,,,,,,,,,,,,,,,,,,,,,,
1.0,1.0,1.541765,0.0,4.0,4.0,4.0,1.0,metronome_03s.jpg,1.0,clockno_default.jpg,1.0,57,,,,,,,,,,,,,,,,,,,,,,,,,,,,,,,,
0.0,1.0,0.738975,0.0,5.0,5.0,5.0,1.0,road_sign_05s.jpg,0.0,clockno_default.jpg,1.0,57,,,,,,,,,,,,,,,,,,,,,,,,,,,,,,,,
0.0,1.0,0.87594,0.0,6.0,6.0,6.0,1.0,comic_book_02s.jpg,0.0,clockno_up.jpg,2.0,57,,,,,,,,,,,,,,,,,,,,,,,,,,,,,,,,
0.0,1.0,0.62857,0.0,7.0,7.0,7.0,1.0,swordfish_05s.jpg,0.0,clockno_default.jpg,2.0,57,,,,,,,,,,,,,,,,,,,,,,,,,,,,,,,,
0.0,1.0,0.70892,0.0,8.0,8.0,8.0,1.0,potholder_02s.jpg,0.0,clockno_default.jpg,2.0,57,,,,,,,,,,,,,,,,,,,,,,,,,,,,,,,,
0.0,1.0,0.60066,0.0,9.0,9.0,9.0,1.0,prism_10s.jpg,0.0,clockno_default.jpg,2.0,57,,,,,,,,,,,,,,,,,,,,,,,,,,,,,,,,
0.0,1.0,2.26649,0.0,10.0,10.0,10.0,1.0,loom_05s.jpg,0.0,clockno_default.jpg,2.0,57,,,,,,,,,,,,,,,,,,,,,,,,,,,,,,,,
0.0,1.0,0.543295,0.0,11.0,11.0,11.0,1.0,trident_07s.jpg,0.0,clockno_up.jpg,3.0,57,,,,,,,,,,,,,,,,,,,,,,,,,,,,,,,,
0.0,0.0,0.54007,0.0,12.0,12.0,12.0,1.0,trident_07s.jpg,1.0,clockno_default.jpg,3.0,57,,,,,,,,,,,,,,,,,,,,,,,,,,,,,,,,
1.0,0.0,1.07788,0.0,13.0,13.0,13.0,1.0,metronome_03s.jpg,0.0,clockno_default.jpg,3.0,57,,,,,,,,,,,,,,,,,,,,,,,,,,,,,,,,
0.0,1.0,0.645685,0.0,14.0,14.0,14.0,1.0,incense_02s.jpg,0.0,clockno_default.jpg,3.0,57,,,,,,,,,,,,,,,,,,,,,,,,,,,,,,,,
0.0,1.0,2.32262,0.0,15.0,15.0,15.0,1.0,seahorse_13s.jpg,0.0,clockno_default.jpg,3.0,57,,,,,,,,,,,,,,,,,,,,,,,,,,,,,,,,
0.0,1.0,0.901815,0.0,16.0,16.0,16.0,1.0,ice-cream_cone_06s.jpg,0.0,clockno_up.jpg,4.0,57,,,,,,,,,,,,,,,,,,,,,,,,,,,,,,,,
0.0,1.0,0.69074,0.0,17.0,17.0,17.0,1.0,lemonade_04s.jpg,0.0,clockno_default.jpg,4.0,57,,,,,,,,,,,,,,,,,,,,,,,,,,,,,,,,
,0.0,,0.0,18.0,18.0,18.0,1.0,lemonade_04s.jpg,1.0,clockno_default.jpg,4.0,57,,,,,,,,,,,,,,,,,,,,,,,,,,,,,,,,
0.0,1.0,1.16192,0.0,19.0,19.0,19.0,1.0,thread_08s.jpg,0.0,clockno_default.jpg,4.0,57,,,,,,,,,,,,,,,,,,,,,,,,,,,,,,,,
0.0,1.0,1.89288,0.0,20.0,20.0,20.0,1.0,measuring_cup_02s.jpg,0.0,clockno_default.jpg,4.0,57,,,,,,,,,,,,,,,,,,,,,,,,,,,,,,,,
0.0,0.0,1.064845,0.0,21.0,21.0,21.0,1.0,measuring_cup_02s.jpg,1.0,clockno_default.jpg,4.0,57,,,,,,,,,,,,,,,,,,,,,,,,,,,,,,,,
0.0,1.0,2.1902,0.0,22.0,22.0,22.0,1.0,duck_01b.jpg,0.0,clockno_default.jpg,4.0,57,,,,,,,,,,,,,,,,,,,,,,,,,,,,,,,,
0.0,1.0,0.57718,0.0,23.0,23.0,23.0,1.0,owl_15s.jpg,0.0,clockno_up.jpg,5.0,57,,,,,,,,,,,,,,,,,,,,,,,,,,,,,,,,
0.0,1.0,0.70046,0.0,24.0,24.0,24.0,1.0,paper_towel_03s.jpg,0.0,clockno_default.jpg,5.0,57,,,,,,,,,,,,,,,,,,,,,,,,,,,,,,,,
0.0,1.0,0.4629,0.0,25.0,25.0,25.0,1.0,pillow_03s.jpg,0.0,clockno_default.jpg,5.0,57,,,,,,,,,,,,,,,,,,,,,,,,,,,,,,,,
0.0,1.0,0.7925,0.0,26.0,26.0,26.0,1.0,phone_01b.jpg,0.0,clockno_default.jpg,5.0,57,,,,,,,,,,,,,,,,,,,,,,,,,,,,,,,,
0.0,1.0,0.7338,0.0,27.0,27.0,27.0,1.0,plug_08s.jpg,0.0,clockno_default.jpg,5.0,57,,,,,,,,,,,,,,,,,,,,,,,,,,,,,,,,
0.0,1.0,0.631435,0.0,28.0,28.0,28.0,1.0,triangle_10s.jpg,0.0,clockno_default.jpg,5.0,57,,,,,,,,,,,,,,,,,,,,,,,,,,,,,,,,
0.0,1.0,0.62338,0.0,29.0,29.0,29.0,1.0,moth_06n.jpg,0.0,clockno_up.jpg,6.0,57,,,,,,,,,,,,,,,,,,,,,,,,,,,,,,,,
0.0,1.0,0.778235,0.0,30.0,30.0,30.0,1.0,umbrella_15s.jpg,0.0,clockno_default.jpg,6.0,57,,,,,,,,,,,,,,,,,,,,,,,,,,,,,,,,
0.0,1.0,1.204375,0.0,31.0,31.0,31.0,1.0,penlight_12s.jpg,0.0,clockno_default.jpg,6.0,57,,,,,,,,,,,,,,,,,,,,,,,,,,,,,,,,
0.0,1.0,0.542725,0.0,32.0,32.0,32.0,1.0,tuba_12s.jpg,0.0,clockno_default.jpg,6.0,57,,,,,,,,,,,,,,,,,,,,,,,,,,,,,,,,
0.0,1.0,0.708065,0.0,33.0,33.0,33.0,1.0,squirrel_02s.jpg,0.0,clockno_default.jpg,6.0,57,,,,,,,,,,,,,,,,,,,,,,,,,,,,,,,,
0.0,1.0,0.662975,0.0,34.0,34.0,34.0,1.0,iron_13s.jpg,0.0,clockno_default.jpg,6.0,57,,,,,,,,,,,,,,,,,,,,,,,,,,,,,,,,
0.0,1.0,0.725905,0.0,35.0,35.0,35.0,1.0,ram_05s.jpg,0.0,clockno_default.jpg,6.0,57,,,,,,,,,,,,,,,,,,,,,,,,,,,,,,,,
,,,,,,,,,0.0,,,57,0.0,1.0,2.259205,0.0,0.0,0.0,0.0,1.0,potholder_02s.jpg,road_sign_05s.jpg,,,,,,,,,,,,,,,,,,,,,,
,,,,,,,,,1.0,,,57,0.0,0.0,1.360045,0.0,1.0,1.0,1.0,1.0,eiffeltower.jpg,comic_book_02s.jpg,,,,,,,,,,,,,,,,,,,,,,
,,,,,,,,,1.0,,,57,0.0,0.0,1.86761,0.0,2.0,2.0,2.0,1.0,duck_01b.jpg,pillow_03s.jpg,,,,,,,,,,,,,,,,,,,,,,
,,,,,,,,,1.0,,,57,0.0,0.0,1.147775,0.0,3.0,3.0,3.0,1.0,ice-cream_cone_06s.jpg,thread_08s.jpg,,,,,,,,,,,,,,,,,,,,,,
,,,,,,,,,0.0,,,57,1.0,0.0,1.57797,0.0,4.0,4.0,4.0,1.0,ram_05s.jpg,tuba_12s.jpg,,,,,,,,,,,,,,,,,,,,,,
,,,,,,,,,0.0,,,57,1.0,0.0,0.998295,0.0,5.0,5.0,5.0,1.0,phone_01b.jpg,owl_15s.jpg,,,,,,,,,,,,,,,,,,,,,,
,0.0,,,,,,,compass_10n.jpg,0.0,clock_5_1.png,1.0,57,,,,,,,,,,,,,,,,,,0.0,0.0,0.0,0.0,1.0,,,,,,,,,,
0.0,1.0,0.57673,,,,,,rollerskate_03s.jpg,0.0,clock_5_2.png,1.0,57,,,,,,,,,,,,,,,,,,0.0,1.0,1.0,1.0,1.0,,,,,,,,,,
0.0,0.0,1.02949,,,,,,rollerskate_03s.jpg,1.0,clock_5_3.png,1.0,57,,,,,,,,,,,,,,,,,,0.0,2.0,2.0,2.0,1.0,,,,,,,,,,
,0.0,,,,,,,toy_04s.jpg,0.0,clock_5_4.png,1.0,57,,,,,,,,,,,,,,,,,,0.0,3.0,3.0,3.0,1.0,,,,,,,,,,
,0.0,,,,,,,bowler_hat_10s.jpg,0.0,clock_5_5.png,1.0,57,,,,,,,,,,,,,,,,,,0.0,4.0,4.0,4.0,1.0,,,,,,,,,,
,0.0,,,,,,,pan_02s.jpg,0.0,clock_6_1.png,2.0,57,,,,,,,,,,,,,,,,,,0.0,5.0,5.0,5.0,1.0,,,,,,,,,,
0.0,1.0,1.31645,,,,,,camcorder_10s.jpg,0.0,clock_6_2.png,2.0,57,,,,,,,,,,,,,,,,,,0.0,6.0,6.0,6.0,1.0,,,,,,,,,,
,0.0,,,,,,,turtleneck_11s.jpg,0.0,clock_6_3.png,2.0,57,,,,,,,,,,,,,,,,,,0.0,7.0,7.0,7.0,1.0,,,,,,,,,,
0.0,1.0,2.34943,,,,,,pineapple_12s.jpg,0.0,clock_6_4.png,2.0,57,,,,,,,,,,,,,,,,,,0.0,8.0,8.0,8.0,1.0,,,,,,,,,,
,0.0,,,,,,,stingray_02s.jpg,0.0,clock_6_5.png,2.0,57,,,,,,,,,,,,,,,,,,0.0,9.0,9.0,9.0,1.0,,,,,,,,,,
,0.0,,,,,,,polar_bear_02s.jpg,0.0,clock_6_6.png,2.0,57,,,,,,,,,,,,,,,,,,0.0,10.0,10.0,10.0,1.0,,,,,,,,,,
0.0,1.0,1.6204,,,,,,jukebox_03n.jpg,0.0,clock_5_1.png,3.0,57,,,,,,,,,,,,,,,,,,0.0,11.0,11.0,11.0,1.0,,,,,,,,,,
,0.0,,,,,,,tweezers_03s.jpg,0.0,clock_5_2.png,3.0,57,,,,,,,,,,,,,,,,,,0.0,12.0,12.0,12.0,1.0,,,,,,,,,,
0.0,1.0,0.74593,,,,,,clover_04s.jpg,0.0,clock_5_3.png,3.0,57,,,,,,,,,,,,,,,,,,0.0,13.0,13.0,13.0,1.0,,,,,,,,,,
0.0,1.0,1.642135,,,,,,tinsel_12s.jpg,0.0,clock_5_4.png,3.0,57,,,,,,,,,,,,,,,,,,0.0,14.0,14.0,14.0,1.0,,,,,,,,,,
,0.0,,,,,,,rocking_horse_03s.jpg,0.0,clock_5_5.png,3.0,57,,,,,,,,,,,,,,,,,,0.0,15.0,15.0,15.0,1.0,,,,,,,,,,
0.0,1.0,0.991955,,,,,,hyena_16s.jpg,0.0,clock_7_1.png,4.0,57,,,,,,,,,,,,,,,,,,0.0,16.0,16.0,16.0,1.0,,,,,,,,,,
0.0,1.0,0.529235,,,,,,pear_02s.jpg,0.0,clock_7_2.png,4.0,57,,,,,,,,,,,,,,,,,,0.0,17.0,17.0,17.0,1.0,,,,,,,,,,
0.0,1.0,0.763285,,,,,,ink_08s.jpg,0.0,clock_7_3.png,4.0,57,,,,,,,,,,,,,,,,,,0.0,18.0,18.0,18.0,1.0,,,,,,,,,,
0.0,1.0,0.623205,,,,,,inhaler_01b.jpg,0.0,clock_7_4.png,4.0,57,,,,,,,,,,,,,,,,,,0.0,19.0,19.0,19.0,1.0,,,,,,,,,,
0.0,1.0,0.57763,,,,,,clover_04s.jpg,0.0,clock_7_5.png,4.0,57,,,,,,,,,,,,,,,,,,0.0,20.0,20.0,20.0,1.0,,,,,,,,,,
0.0,0.0,0.681615,,,,,,ink_08s.jpg,1.0,clock_7_6.png,4.0,57,,,,,,,,,,,,,,,,,,0.0,21.0,21.0,21.0,1.0,,,,,,,,,,
0.0,1.0,0.736455,,,,,,throne_11s.jpg,0.0,clock_7_7.png,4.0,57,,,,,,,,,,,,,,,,,,0.0,22.0,22.0,22.0,1.0,,,,,,,,,,
0.0,1.0,0.755605,,,,,,medal_04s.jpg,0.0,clock_6_1.png,5.0,57,,,,,,,,,,,,,,,,,,0.0,23.0,23.0,23.0,1.0,,,,,,,,,,
0.0,1.0,1.076415,,,,,,inhaler_01b.jpg,0.0,clock_6_2.png,5.0,57,,,,,,,,,,,,,,,,,,0.0,24.0,24.0,24.0,1.0,,,,,,,,,,
0.0,1.0,0.663595,,,,,,luggage_08s.jpg,0.0,clock_6_3.png,5.0,57,,,,,,,,,,,,,,,,,,0.0,25.0,25.0,25.0,1.0,,,,,,,,,,
1.0,1.0,0.69488,,,,,,medal_04s.jpg,1.0,clock_6_4.png,5.0,57,,,,,,,,,,,,,,,,,,0.0,26.0,26.0,26.0,1.0,,,,,,,,,,
1.0,1.0,1.066785,,,,,,luggage_08s.jpg,1.0,clock_6_5.png,5.0,57,,,,,,,,,,,,,,,,,,0.0,27.0,27.0,27.0,1.0,,,,,,,,,,
0.0,1.0,0.96373,,,,,,eyedropper_12s.jpg,0.0,clock_6_6.png,5.0,57,,,,,,,,,,,,,,,,,,0.0,28.0,28.0,28.0,1.0,,,,,,,,,,
0.0,1.0,0.67198,,,,,,fire_pit_10s.jpg,0.0,clock_7_1.png,6.0,57,,,,,,,,,,,,,,,,,,0.0,29.0,29.0,29.0,1.0,,,,,,,,,,
0.0,1.0,1.741935,,,,,,camcorder_10s.jpg,0.0,clock_7_2.png,6.0,57,,,,,,,,,,,,,,,,,,0.0,30.0,30.0,30.0,1.0,,,,,,,,,,
0.0,1.0,0.853705,,,,,,mixer_12s.jpg,0.0,clock_7_3.png,6.0,57,,,,,,,,,,,,,,,,,,0.0,31.0,31.0,31.0,1.0,,,,,,,,,,
0.0,1.0,0.591195,,,,,,lipstick_02s.jpg,0.0,clock_7_4.png,6.0,57,,,,,,,,,,,,,,,,,,0.0,32.0,32.0,32.0,1.0,,,,,,,,,,
0.0,1.0,0.92766,,,,,,lifesaver_10s.jpg,0.0,clock_7_5.png,6.0,57,,,,,,,,,,,,,,,,,,0.0,33.0,33.0,33.0,1.0,,,,,,,,,,
,0.0,,,,,,,lipstick_02s.jpg,1.0,clock_7_6.png,6.0,57,,,,,,,,,,,,,,,,,,0.0,34.0,34.0,34.0,1.0,,,,,,,,,,
0.0,1.0,0.75261,,,,,,polaroid_05s.jpg,0.0,clock_7_7.png,6.0,57,,,,,,,,,,,,,,,,,,0.0,35.0,35.0,35.0,1.0,,,,,,,,,,
,,,,,,,,,1.0,,,57,0.0,0.0,1.32345,,,,,,eyedropper_12s.jpg,mixer_12s.jpg,,,,,,,,,,,,,0.0,0.0,0.0,0.0,1.0,,,,,
,,,,,,,,,0.0,,,57,0.0,1.0,2.962645,,,,,,turtleneck_11s.jpg,bowler_hat_10s.jpg,,,,,,,,,,,,,0.0,1.0,1.0,1.0,1.0,,,,,
,,,,,,,,,0.0,,,57,1.0,0.0,0.94348,,,,,,tweezers_03s.jpg,stingray_02s.jpg,,,,,,,,,,,,,0.0,2.0,2.0,2.0,1.0,,,,,
,,,,,,,,,1.0,,,57,1.0,1.0,0.835535,,,,,,compass_10n.jpg,toy_04s.jpg,,,,,,,,,,,,,0.0,3.0,3.0,3.0,1.0,,,,,
,,,,,,,,,0.0,,,57,1.0,0.0,0.6281,,,,,,pineapple_12s.jpg,pan_02s.jpg,,,,,,,,,,,,,0.0,4.0,4.0,4.0,1.0,,,,,
,,,,,,,,,1.0,,,57,1.0,1.0,0.726515,,,,,,jukebox_03n.jpg,tinsel_12s.jpg,,,,,,,,,,,,,0.0,5.0,5.0,5.0,1.0,,,,,
,,,,,,,,,,,,57,,,,,,,,,,,,,,,,clock_present_1_6.xlsx,clock_compare_task_1_6.xlsx,,,,,,,,,,,0.0,0.0,0.0,0.0,1.0
0.0,1.0,1.43194,,,,,,olive_05s.jpg,0.0,clock_5_1.png,1.0,57,,,,,,,,,,,,,,,,,,0.0,0.0,0.0,0.0,1.0,,,,,,,,,,
0.0,1.0,1.020555,,,,,,lip_gloss_06s.jpg,0.0,clock_5_2.png,1.0,57,,,,,,,,,,,,,,,,,,0.0,1.0,1.0,1.0,1.0,,,,,,,,,,
1.0,1.0,1.02827,,,,,,lip_gloss_06s.jpg,1.0,clock_5_3.png,1.0,57,,,,,,,,,,,,,,,,,,0.0,2.0,2.0,2.0,1.0,,,,,,,,,,
0.0,1.0,0.746765,,,,,,crab_16s.jpg,0.0,clock_5_4.png,1.0,57,,,,,,,,,,,,,,,,,,0.0,3.0,3.0,3.0,1.0,,,,,,,,,,
0.0,1.0,0.585145,,,,,,omelet_07s.jpg,0.0,clock_5_5.png,1.0,57,,,,,,,,,,,,,,,,,,0.0,4.0,4.0,4.0,1.0,,,,,,,,,,
0.0,1.0,0.64545,,,,,,briefcase_03s.jpg,0.0,clock_6_1.png,2.0,57,,,,,,,,,,,,,,,,,,0.0,5.0,5.0,5.0,1.0,,,,,,,,,,
0.0,1.0,0.684815,,,,,,stopwatch_04s.jpg,0.0,clock_6_2.png,2.0,57,,,,,,,,,,,,,,,,,,0.0,6.0,6.0,6.0,1.0,,,,,,,,,,
0.0,1.0,0.676885,,,,,,insole_11s.jpg,0.0,clock_6_3.png,2.0,57,,,,,,,,,,,,,,,,,,0.0,7.0,7.0,7.0,1.0,,,,,,,,,,
0.0,0.0,0.78126,,,,,,briefcase_03s.jpg,1.0,clock_6_4.png,2.0,57,,,,,,,,,,,,,,,,,,0.0,8.0,8.0,8.0,1.0,,,,,,,,,,
0.0,1.0,0.64718,,,,,,beard_16s.jpg,0.0,clock_6_5.png,2.0,57,,,,,,,,,,,,,,,,,,0.0,9.0,9.0,9.0,1.0,,,,,,,,,,
0.0,1.0,0.608585,,,,,,thorn_13s.jpg,0.0,clock_6_6.png,2.0,57,,,,,,,,,,,,,,,,,,0.0,10.0,10.0,10.0,1.0,,,,,,,,,,
0.0,1.0,0.654185,,,,,,ostrich_06s.jpg,0.0,clock_6_1.png,3.0,57,,,,,,,,,,,,,,,,,,0.0,11.0,11.0,11.0,1.0,,,,,,,,,,
0.0,1.0,0.712225,,,,,,razor_12s.jpg,0.0,clock_6_2.png,3.0,57,,,,,,,,,,,,,,,,,,0.0,12.0,12.0,12.0,1.0,,,,,,,,,,
0.0,1.0,0.157265,,,,,,onion_10s.jpg,0.0,clock_6_3.png,3.0,57,,,,,,,,,,,,,,,,,,0.0,13.0,13.0,13.0,1.0,,,,,,,,,,
0.0,1.0,0.463975,,,,,,olive_05s.jpg,0.0,clock_6_4.png,3.0,57,,,,,,,,,,,,,,,,,,0.0,14.0,14.0,14.0,1.0,,,,,,,,,,
0.0,1.0,0.59951,,,,,,pump_11s.jpg,0.0,clock_6_5.png,3.0,57,,,,,,,,,,,,,,,,,,0.0,15.0,15.0,15.0,1.0,,,,,,,,,,
0.0,1.0,0.421955,,,,,,perfume_06s.jpg,0.0,clock_6_6.png,3.0,57,,,,,,,,,,,,,,,,,,0.0,16.0,16.0,16.0,1.0,,,,,,,,,,
0.0,1.0,0.64145,,,,,,gas_mask_11s.jpg,0.0,clock_7_1.png,4.0,57,,,,,,,,,,,,,,,,,,0.0,17.0,17.0,17.0,1.0,,,,,,,,,,
0.0,1.0,0.41289,,,,,,powder_07s.jpg,0.0,clock_7_2.png,4.0,57,,,,,,,,,,,,,,,,,,0.0,18.0,18.0,18.0,1.0,,,,,,,,,,
0.0,1.0,0.579935,,,,,,quad_04s.jpg,0.0,clock_7_3.png,4.0,57,,,,,,,,,,,,,,,,,,0.0,19.0,19.0,19.0,1.0,,,,,,,,,,
0.0,1.0,0.8059,,,,,,chalice_10s.jpg,0.0,clock_7_4.png,4.0,57,,,,,,,,,,,,,,,,,,0.0,20.0,20.0,20.0,1.0,,,,,,,,,,
0.0,0.0,0.848725,,,,,,chalice_10s.jpg,1.0,clock_7_5.png,4.0,57,,,,,,,,,,,,,,,,,,0.0,21.0,21.0,21.0,1.0,,,,,,,,,,
0.0,1.0,0.92727,,,,,,pencil02a.jpg,0.0,clock_7_6.png,4.0,57,,,,,,,,,,,,,,,,,,0.0,22.0,22.0,22.0,1.0,,,,,,,,,,
0.0,0.0,0.67196,,,,,,quad_04s.jpg,1.0,clock_7_7.png,4.0,57,,,,,,,,,,,,,,,,,,0.0,23.0,23.0,23.0,1.0,,,,,,,,,,
0.0,1.0,0.434865,,,,,,outlet_10s.jpg,0.0,clock_5_1.png,5.0,57,,,,,,,,,,,,,,,,,,0.0,24.0,24.0,24.0,1.0,,,,,,,,,,
0.0,1.0,1.99391,,,,,,pie_08s.jpg,0.0,clock_5_2.png,5.0,57,,,,,,,,,,,,,,,,,,0.0,25.0,25.0,25.0,1.0,,,,,,,,,,
0.0,1.0,0.627565,,,,,,coat_rack_01b.jpg,0.0,clock_5_3.png,5.0,57,,,,,,,,,,,,,,,,,,0.0,26.0,26.0,26.0,1.0,,,,,,,,,,
1.0,1.0,0.798025,,,,,,pie_08s.jpg,1.0,clock_5_4.png,5.0,57,,,,,,,,,,,,,,,,,,0.0,27.0,27.0,27.0,1.0,,,,,,,,,,
,0.0,,,,,,,basket_05s.jpg,0.0,clock_5_5.png,5.0,57,,,,,,,,,,,,,,,,,,0.0,28.0,28.0,28.0,1.0,,,,,,,,,,
,0.0,,,,,,,totem_pole_05s.jpg,0.0,clock_7_1.png,6.0,57,,,,,,,,,,,,,,,,,,0.0,29.0,29.0,29.0,1.0,,,,,,,,,,
,0.0,,,,,,,latch_15s.jpg,0.0,clock_7_2.png,6.0,57,,,,,,,,,,,,,,,,,,0.0,30.0,30.0,30.0,1.0,,,,,,,,,,
0.0,1.0,0.924115,,,,,,sundae_08s.jpg,0.0,clock_7_3.png,6.0,57,,,,,,,,,,,,,,,,,,0.0,31.0,31.0,31.0,1.0,,,,,,,,,,
0.0,1.0,0.36523,,,,,,basket_05s.jpg,0.0,clock_7_4.png,6.0,57,,,,,,,,,,,,,,,,,,0.0,32.0,32.0,32.0,1.0,,,,,,,,,,
0.0,1.0,0.90713,,,,,,rope_16s.jpg,0.0,clock_7_5.png,6.0,57,,,,,,,,,,,,,,,,,,0.0,33.0,33.0,33.0,1.0,,,,,,,,,,
0.0,1.0,0.976185,,,,,,microwave_02s.jpg,0.0,clock_7_6.png,6.0,57,,,,,,,,,,,,,,,,,,0.0,34.0,34.0,34.0,1.0,,,,,,,,,,
0.0,0.0,1.796395,,,,,,rope_16s.jpg,1.0,clock_7_7.png,6.0,57,,,,,,,,,,,,,,,,,,0.0,35.0,35.0,35.0,1.0,,,,,,,,,,
,,,,,,,,,1.0,,,57,0.0,0.0,2.050055,,,,,,coat_rack_01b.jpg,totem_pole_05s.jpg,,,,,,,,,,,,,0.0,0.0,0.0,0.0,1.0,,,,,
,,,,,,,,,0.0,,,57,1.0,0.0,3.8709,,,,,,stopwatch_04s.jpg,crab_16s.jpg,,,,,,,,,,,,,0.0,1.0,1.0,1.0,1.0,,,,,
,,,,,,,,,1.0,,,57,0.0,0.0,0.93718,,,,,,omelet_07s.jpg,insole_11s.jpg,,,,,,,,,,,,,0.0,2.0,2.0,2.0,1.0,,,,,
,,,,,,,,,0.0,,,57,0.0,1.0,1.12841,,,,,,microwave_02s.jpg,sundae_08s.jpg,,,,,,,,,,,,,0.0,3.0,3.0,3.0,1.0,,,,,
,,,,,,,,,0.0,,,57,1.0,0.0,0.66719,,,,,,perfume_06s.jpg,onion_10s.jpg,,,,,,,,,,,,,0.0,4.0,4.0,4.0,1.0,,,,,
,,,,,,,,,1.0,,,57,1.0,1.0,1.064445,,,,,,razor_12s.jpg,pump_11s.jpg,,,,,,,,,,,,,0.0,5.0,5.0,5.0,1.0,,,,,
,,,,,,,,,,,,57,,,,,,,,,,,,,,,,clock_present_2_6.xlsx,clock_compare_task_2_6.xlsx,,,,,,,,,,,0.0,1.0,1.0,1.0,1.0
0.0,1.0,0.6287,,,,,,amber_04s.jpg,0.0,clock_7_1.png,1.0,57,,,,,,,,,,,,,,,,,,0.0,0.0,0.0,0.0,1.0,,,,,,,,,,
0.0,1.0,0.801575,,,,,,mascara_03s.jpg,0.0,clock_7_2.png,1.0,57,,,,,,,,,,,,,,,,,,0.0,1.0,1.0,1.0,1.0,,,,,,,,,,
0.0,0.0,0.5551,,,,,,mascara_03s.jpg,1.0,clock_7_3.png,1.0,57,,,,,,,,,,,,,,,,,,0.0,2.0,2.0,2.0,1.0,,,,,,,,,,
0.0,1.0,0.7348,,,,,,printer_09s.jpg,0.0,clock_7_4.png,1.0,57,,,,,,,,,,,,,,,,,,0.0,3.0,3.0,3.0,1.0,,,,,,,,,,
0.0,1.0,1.692965,,,,,,smokingpipe.jpg,0.0,clock_7_5.png,1.0,57,,,,,,,,,,,,,,,,,,0.0,4.0,4.0,4.0,1.0,,,,,,,,,,
0.0,1.0,0.59505,,,,,,trampoline_13s.jpg,0.0,clock_7_6.png,1.0,57,,,,,,,,,,,,,,,,,,0.0,5.0,5.0,5.0,1.0,,,,,,,,,,
0.0,0.0,0.42589,,,,,,printer_09s.jpg,1.0,clock_7_7.png,1.0,57,,,,,,,,,,,,,,,,,,0.0,6.0,6.0,6.0,1.0,,,,,,,,,,
0.0,1.0,0.63159,,,,,,stump_02s.jpg,0.0,clock_6_1.png,2.0,57,,,,,,,,,,,,,,,,,,0.0,7.0,7.0,7.0,1.0,,,,,,,,,,
0.0,1.0,0.693275,,,,,,pumpkin_03s.jpg,0.0,clock_6_2.png,2.0,57,,,,,,,,,,,,,,,,,,0.0,8.0,8.0,8.0,1.0,,,,,,,,,,
0.0,1.0,0.46627,,,,,,syringe_02s.jpg,0.0,clock_6_3.png,2.0,57,,,,,,,,,,,,,,,,,,0.0,9.0,9.0,9.0,1.0,,,,,,,,,,
0.0,1.0,1.19054,,,,,,lid_10s.jpg,0.0,clock_6_4.png,2.0,57,,,,,,,,,,,,,,,,,,0.0,10.0,10.0,10.0,1.0,,,,,,,,,,
0.0,1.0,0.46207,,,,,,muffin_12n.jpg,0.0,clock_6_5.png,2.0,57,,,,,,,,,,,,,,,,,,0.0,11.0,11.0,11.0,1.0,,,,,,,,,,
0.0,0.0,0.820385,,,,,,syringe_02s.jpg,1.0,clock_6_6.png,2.0,57,,,,,,,,,,,,,,,,,,0.0,12.0,12.0,12.0,1.0,,,,,,,,,,
0.0,1.0,0.628655,,,,,,frog_09s.jpg,0.0,clock_5_1.png,3.0,57,,,,,,,,,,,,,,,,,,0.0,13.0,13.0,13.0,1.0,,,,,,,,,,
0.0,1.0,0.754375,,,,,,sunglasses_11s.jpg,0.0,clock_5_2.png,3.0,57,,,,,,,,,,,,,,,,,,0.0,14.0,14.0,14.0,1.0,,,,,,,,,,
0.0,1.0,0.648145,,,,,,printer_09s.jpg,0.0,clock_5_3.png,3.0,57,,,,,,,,,,,,,,,,,,0.0,15.0,15.0,15.0,1.0,,,,,,,,,,
0.0,0.0,0.595775,,,,,,frog_09s.jpg,1.0,clock_5_4.png,3.0,57,,,,,,,,,,,,,,,,,,0.0,16.0,16.0,16.0,1.0,,,,,,,,,,
0.0,1.0,0.897605,,,,,,jigsaw_puzzle_11s.jpg,0.0,clock_5_5.png,3.0,57,,,,,,,,,,,,,,,,,,0.0,17.0,17.0,17.0,1.0,,,,,,,,,,
0.0,1.0,0.680155,,,,,,gong_02s.jpg,0.0,clock_7_1.png,4.0,57,,,,,,,,,,,,,,,,,,0.0,18.0,18.0,18.0,1.0,,,,,,,,,,
1.0,1.0,0.74332,,,,,,gong_02s.jpg,1.0,clock_7_2.png,4.0,57,,,,,,,,,,,,,,,,,,0.0,19.0,19.0,19.0,1.0,,,,,,,,,,
0.0,1.0,0.749955,,,,,,chip_04s.jpg,0.0,clock_7_3.png,4.0,57,,,,,,,,,,,,,,,,,,0.0,20.0,20.0,20.0,1.0,,,,,,,,,,
0.0,1.0,0.689985,,,,,,tripod_01b.jpg,0.0,clock_7_4.png,4.0,57,,,,,,,,,,,,,,,,,,0.0,21.0,21.0,21.0,1.0,,,,,,,,,,
0.0,1.0,0.756875,,,,,,pepper_mill_03s.jpg,0.0,clock_7_5.png,4.0,57,,,,,,,,,,,,,,,,,,0.0,22.0,22.0,22.0,1.0,,,,,,,,,,
1.0,1.0,0.9567,,,,,,gong_02s.jpg,1.0,clock_7_6.png,4.0,57,,,,,,,,,,,,,,,,,,0.0,23.0,23.0,23.0,1.0,,,,,,,,,,
0.0,1.0,0.62803,,,,,,pomegranate_04s.jpg,0.0,clock_7_7.png,4.0,57,,,,,,,,,,,,,,,,,,0.0,24.0,24.0,24.0,1.0,,,,,,,,,,
0.0,1.0,0.695655,,,,,,funnel_01b.jpg,0.0,clock_5_1.png,5.0,57,,,,,,,,,,,,,,,,,,0.0,25.0,25.0,25.0,1.0,,,,,,,,,,
0.0,1.0,0.738055,,,,,,air_pump_05s.jpg,0.0,clock_5_2.png,5.0,57,,,,,,,,,,,,,,,,,,0.0,26.0,26.0,26.0,1.0,,,,,,,,,,
1.0,1.0,0.88165,,,,,,funnel_01b.jpg,1.0,clock_5_3.png,5.0,57,,,,,,,,,,,,,,,,,,0.0,27.0,27.0,27.0,1.0,,,,,,,,,,
1.0,1.0,0.61886,,,,,,funnel_01b.jpg,1.0,clock_5_4.png,5.0,57,,,,,,,,,,,,,,,,,,0.0,28.0,28.0,28.0,1.0,,,,,,,,,,
0.0,1.0,0.80894,,,,,,fork_04s.jpg,0.0,clock_5_5.png,5.0,57,,,,,,,,,,,,,,,,,,0.0,29.0,29.0,29.0,1.0,,,,,,,,,,
0.0,1.0,0.57732,,,,,,cape_11s.jpg,0.0,clock_6_1.png,6.0,57,,,,,,,,,,,,,,,,,,0.0,30.0,30.0,30.0,1.0,,,,,,,,,,
0.0,1.0,0.881055,,,,,,machine_gun_09s.jpg,0.0,clock_6_2.png,6.0,57,,,,,,,,,,,,,,,,,,0.0,31.0,31.0,31.0,1.0,,,,,,,,,,
0.0,1.0,0.738045,,,,,,timer_03s.jpg,0.0,clock_6_3.png,6.0,57,,,,,,,,,,,,,,,,,,0.0,32.0,32.0,32.0,1.0,,,,,,,,,,
0.0,1.0,0.64009,,,,,,spoon02a.jpg,0.0,clock_6_4.png,6.0,57,,,,,,,,,,,,,,,,,,0.0,33.0,33.0,33.0,1.0,,,,,,,,,,
0.0,1.0,1.025875,,,,,,lid_10s.jpg,0.0,clock_6_5.png,6.0,57,,,,,,,,,,,,,,,,,,0.0,34.0,34.0,34.0,1.0,,,,,,,,,,
0.0,1.0,0.677525,,,,,,reindeer_08s.jpg,0.0,clock_6_6.png,6.0,57,,,,,,,,,,,,,,,,,,0.0,35.0,35.0,35.0,1.0,,,,,,,,,,
,,,,,,,,,1.0,,,57,1.0,1.0,3.26853,,,,,,smokingpipe.jpg,stump_02s.jpg,,,,,,,,,,,,,0.0,0.0,0.0,0.0,1.0,,,,,
,,,,,,,,,0.0,,,57,1.0,0.0,0.815145,,,,,,pumpkin_03s.jpg,trampoline_13s.jpg,,,,,,,,,,,,,0.0,1.0,1.0,1.0,1.0,,,,,
,,,,,,,,,1.0,,,57,0.0,0.0,1.331745,,,,,,jigsaw_puzzle_11s.jpg,chip_04s.jpg,,,,,,,,,,,,,0.0,2.0,2.0,2.0,1.0,,,,,
,,,,,,,,,1.0,,,57,0.0,0.0,0.966055,,,,,,tripod_01b.jpg,pomegranate_04s.jpg,,,,,,,,,,,,,0.0,3.0,3.0,3.0,1.0,,,,,
,,,,,,,,,1.0,,,57,1.0,1.0,1.144485,,,,,,cape_11s.jpg,spoon02a.jpg,,,,,,,,,,,,,0.0,4.0,4.0,4.0,1.0,,,,,
,,,,,,,,,0.0,,,57,1.0,0.0,0.729345,,,,,,fork_04s.jpg,air_pump_05s.jpg,,,,,,,,,,,,,0.0,5.0,5.0,5.0,1.0,,,,,
,,,,,,,,,,,,57,,,,,,,,,,,,,,,,clock_present_3_6.xlsx,clock_compare_task_3_6.xlsx,,,,,,,,,,,0.0,2.0,2.0,2.0,1.0
,0.0,,,,,,,radiator_05s.jpg,0.0,clock_6_1.png,1.0,57,,,,,,,,,,,,,,,,,,0.0,0.0,0.0,0.0,1.0,,,,,,,,,,
1.0,1.0,1.16273,,,,,,radiator_05s.jpg,1.0,clock_6_2.png,1.0,57,,,,,,,,,,,,,,,,,,0.0,1.0,1.0,1.0,1.0,,,,,,,,,,
0.0,1.0,1.59928,,,,,,kilt_18s.jpg,0.0,clock_6_3.png,1.0,57,,,,,,,,,,,,,,,,,,0.0,2.0,2.0,2.0,1.0,,,,,,,,,,
0.0,1.0,0.63207,,,,,,lavender_10s.jpg,0.0,clock_6_4.png,1.0,57,,,,,,,,,,,,,,,,,,0.0,3.0,3.0,3.0,1.0,,,,,,,,,,
1.0,1.0,1.416185,,,,,,kilt_18s.jpg,1.0,clock_6_5.png,1.0,57,,,,,,,,,,,,,,,,,,0.0,4.0,4.0,4.0,1.0,,,,,,,,,,
0.0,1.0,1.043785,,,,,,undershirt_02s.jpg,0.0,clock_6_6.png,1.0,57,,,,,,,,,,,,,,,,,,0.0,5.0,5.0,5.0,1.0,,,,,,,,,,
0.0,1.0,0.730135,,,,,,coconut_08s.jpg,0.0,clock_7_1.png,2.0,57,,,,,,,,,,,,,,,,,,0.0,6.0,6.0,6.0,1.0,,,,,,,,,,
0.0,1.0,0.79585,,,,,,refrigerator_07s.jpg,0.0,clock_7_2.png,2.0,57,,,,,,,,,,,,,,,,,,0.0,7.0,7.0,7.0,1.0,,,,,,,,,,
0.0,1.0,1.380475,,,,,,feather02.jpg,0.0,clock_7_3.png,2.0,57,,,,,,,,,,,,,,,,,,0.0,8.0,8.0,8.0,1.0,,,,,,,,,,
0.0,1.0,0.63542,,,,,,ivy_12s.jpg,0.0,clock_7_4.png,2.0,57,,,,,,,,,,,,,,,,,,0.0,9.0,9.0,9.0,1.0,,,,,,,,,,
0.0,1.0,0.557005,,,,,,tab_09s.jpg,0.0,clock_7_5.png,2.0,57,,,,,,,,,,,,,,,,,,0.0,10.0,10.0,10.0,1.0,,,,,,,,,,
0.0,1.0,0.63679,,,,,,fossil_06s.jpg,0.0,clock_7_6.png,2.0,57,,,,,,,,,,,,,,,,,,0.0,11.0,11.0,11.0,1.0,,,,,,,,,,
0.0,1.0,0.79364,,,,,,puppy_08s.jpg,0.0,clock_7_7.png,2.0,57,,,,,,,,,,,,,,,,,,0.0,12.0,12.0,12.0,1.0,,,,,,,,,,
0.0,1.0,0.559715,,,,,,flip_flop_03s.jpg,0.0,clock_7_1.png,3.0,57,,,,,,,,,,,,,,,,,,0.0,13.0,13.0,13.0,1.0,,,,,,,,,,
0.0,1.0,0.675685,,,,,,slingshot_07s.jpg,0.0,clock_7_2.png,3.0,57,,,,,,,,,,,,,,,,,,0.0,14.0,14.0,14.0,1.0,,,,,,,,,,
1.0,1.0,0.83118,,,,,,flip_flop_03s.jpg,1.0,clock_7_3.png,3.0,57,,,,,,,,,,,,,,,,,,0.0,15.0,15.0,15.0,1.0,,,,,,,,,,
0.0,1.0,0.764705,,,,,,gargoyle_08s.jpg,0.0,clock_7_4.png,3.0,57,,,,,,,,,,,,,,,,,,0.0,16.0,16.0,16.0,1.0,,,,,,,,,,
1.0,0.0,1.065045,,,,,,undershirt_02s.jpg,0.0,clock_7_5.png,3.0,57,,,,,,,,,,,,,,,,,,0.0,17.0,17.0,17.0,1.0,,,,,,,,,,
0.0,1.0,0.545275,,,,,,toilet_paper_12s.jpg,0.0,clock_7_6.png,3.0,57,,,,,,,,,,,,,,,,,,0.0,18.0,18.0,18.0,1.0,,,,,,,,,,
1.0,1.0,1.343075,,,,,,flip_flop_03s.jpg,1.0,clock_7_7.png,3.0,57,,,,,,,,,,,,,,,,,,0.0,19.0,19.0,19.0,1.0,,,,,,,,,,
0.0,1.0,0.6499,,,,,,rocket_02s.jpg,0.0,clock_6_1.png,4.0,57,,,,,,,,,,,,,,,,,,0.0,20.0,20.0,20.0,1.0,,,,,,,,,,
0.0,1.0,0.61403,,,,,,tattoo_14s.jpg,0.0,clock_6_2.png,4.0,57,,,,,,,,,,,,,,,,,,0.0,21.0,21.0,21.0,1.0,,,,,,,,,,
0.0,1.0,0.582075,,,,,,ukulele_02s.jpg,0.0,clock_6_3.png,4.0,57,,,,,,,,,,,,,,,,,,0.0,22.0,22.0,22.0,1.0,,,,,,,,,,
0.0,1.0,0.61262,,,,,,latte_06s.jpg,0.0,clock_6_4.png,4.0,57,,,,,,,,,,,,,,,,,,0.0,23.0,23.0,23.0,1.0,,,,,,,,,,
0.0,1.0,1.123565,,,,,,petri_dish_12s.jpg,0.0,clock_6_5.png,4.0,57,,,,,,,,,,,,,,,,,,0.0,24.0,24.0,24.0,1.0,,,,,,,,,,
0.0,1.0,0.56999,,,,,,tablet_04s.jpg,0.0,clock_6_6.png,4.0,57,,,,,,,,,,,,,,,,,,0.0,25.0,25.0,25.0,1.0,,,,,,,,,,
0.0,1.0,0.811195,,,,,,projector_08s.jpg,0.0,clock_5_1.png,5.0,57,,,,,,,,,,,,,,,,,,0.0,26.0,26.0,26.0,1.0,,,,,,,,,,
0.0,0.0,1.42947,,,,,,projector_08s.jpg,1.0,clock_5_2.png,5.0,57,,,,,,,,,,,,,,,,,,0.0,27.0,27.0,27.0,1.0,,,,,,,,,,
1.0,1.0,1.428805,,,,,,projector_08s.jpg,1.0,clock_5_3.png,5.0,57,,,,,,,,,,,,,,,,,,0.0,28.0,28.0,28.0,1.0,,,,,,,,,,
0.0,1.0,0.608095,,,,,,cushion_08s.jpg,0.0,clock_5_4.png,5.0,57,,,,,,,,,,,,,,,,,,0.0,29.0,29.0,29.0,1.0,,,,,,,,,,
0.0,1.0,0.908705,,,,,,tomato_sauce_09s.jpg,0.0,clock_5_5.png,5.0,57,,,,,,,,,,,,,,,,,,0.0,30.0,30.0,30.0,1.0,,,,,,,,,,
1.0,0.0,0.72819,,,,,,espresso_01b.jpg,0.0,clock_5_1.png,6.0,57,,,,,,,,,,,,,,,,,,0.0,31.0,31.0,31.0,1.0,,,,,,,,,,
0.0,1.0,0.683545,,,,,,telephone_pole_05s.jpg,0.0,clock_5_2.png,6.0,57,,,,,,,,,,,,,,,,,,0.0,32.0,32.0,32.0,1.0,,,,,,,,,,
0.0,1.0,0.47299,,,,,,exhaust_pipe_10s.jpg,0.0,clock_5_3.png,6.0,57,,,,,,,,,,,,,,,,,,0.0,33.0,33.0,33.0,1.0,,,,,,,,,,
0.0,1.0,0.575275,,,,,,pantyhose_07s.jpg,0.0,clock_5_4.png,6.0,57,,,,,,,,,,,,,,,,,,0.0,34.0,34.0,34.0,1.0,,,,,,,,,,
0.0,0.0,0.415935,,,,,,exhaust_pipe_10s.jpg,1.0,clock_5_5.png,6.0,57,,,,,,,,,,,,,,,,,,0.0,35.0,35.0,35.0,1.0,,,,,,,,,,
,,,,,,,,,0.0,,,57,1.0,0.0,2.95631,,,,,,telephone_pole_05s.jpg,cushion_08s.jpg,,,,,,,,,,,,,0.0,0.0,0.0,0.0,1.0,,,,,
,,,,,,,,,1.0,,,57,0.0,0.0,0.952835,,,,,,lavender_10s.jpg,coconut_08s.jpg,,,,,,,,,,,,,0.0,1.0,1.0,1.0,1.0,,,,,
,,,,,,,,,1.0,,,57,0.0,0.0,1.01568,,,,,,fossil_06s.jpg,slingshot_07s.jpg,,,,,,,,,,,,,0.0,2.0,2.0,2.0,1.0,,,,,
,,,,,,,,,0.0,,,57,1.0,0.0,0.666935,,,,,,tab_09s.jpg,refrigerator_07s.jpg,,,,,,,,,,,,,0.0,3.0,3.0,3.0,1.0,,,,,
,,,,,,,,,1.0,,,57,1.0,1.0,0.82825,,,,,,ivy_12s.jpg,puppy_08s.jpg,,,,,,,,,,,,,0.0,4.0,4.0,4.0,1.0,,,,,
,,,,,,,,,0.0,,,57,0.0,1.0,2.9311,,,,,,latte_06s.jpg,rocket_02s.jpg,,,,,,,,,,,,,0.0,5.0,5.0,5.0,1.0,,,,,
,,,,,,,,,,,,57,,,,,,,,,,,,,,,,clock_present_4_6.xlsx,clock_compare_task_4_6.xlsx,,,,,,,,,,,0.0,3.0,3.0,3.0,1.0
0.0,1.0,1.40409,,,,,,mask_09s.jpg,0.0,clock_6_1.png,1.0,57,,,,,,,,,,,,,,,,,,0.0,0.0,0.0,0.0,1.0,,,,,,,,,,
0.0,1.0,0.85966,,,,,,lab_coat_11s.jpg,0.0,clock_6_2.png,1.0,57,,,,,,,,,,,,,,,,,,0.0,1.0,1.0,1.0,1.0,,,,,,,,,,
0.0,1.0,0.489385,,,,,,radio_09s.jpg,0.0,clock_6_3.png,1.0,57,,,,,,,,,,,,,,,,,,0.0,2.0,2.0,2.0,1.0,,,,,,,,,,
0.0,1.0,0.61434,,,,,,breadstick_08s.jpg,0.0,clock_6_4.png,1.0,57,,,,,,,,,,,,,,,,,,0.0,3.0,3.0,3.0,1.0,,,,,,,,,,
0.0,1.0,0.56474,,,,,,mousetrap_15n.jpg,0.0,clock_6_5.png,1.0,57,,,,,,,,,,,,,,,,,,0.0,4.0,4.0,4.0,1.0,,,,,,,,,,
0.0,1.0,0.945105,,,,,,flask_04s.jpg,0.0,clock_6_6.png,1.0,57,,,,,,,,,,,,,,,,,,0.0,5.0,5.0,5.0,1.0,,,,,,,,,,
0.0,1.0,0.84384,,,,,,orange_12s.jpg,0.0,clock_5_1.png,2.0,57,,,,,,,,,,,,,,,,,,0.0,6.0,6.0,6.0,1.0,,,,,,,,,,
0.0,1.0,1.17544,,,,,,mannequin_05s.jpg,0.0,clock_5_2.png,2.0,57,,,,,,,,,,,,,,,,,,0.0,7.0,7.0,7.0,1.0,,,,,,,,,,
0.0,1.0,0.60909,,,,,,bean_06s.jpg,0.0,clock_5_3.png,2.0,57,,,,,,,,,,,,,,,,,,0.0,8.0,8.0,8.0,1.0,,,,,,,,,,
0.0,1.0,0.425245,,,,,,stamp2_08s.jpg,0.0,clock_5_4.png,2.0,57,,,,,,,,,,,,,,,,,,0.0,9.0,9.0,9.0,1.0,,,,,,,,,,
0.0,1.0,0.610455,,,,,,mosquito_12s.jpg,0.0,clock_5_5.png,2.0,57,,,,,,,,,,,,,,,,,,0.0,10.0,10.0,10.0,1.0,,,,,,,,,,
0.0,1.0,0.80929,,,,,,leotard_08s.jpg,0.0,clock_7_1.png,3.0,57,,,,,,,,,,,,,,,,,,0.0,11.0,11.0,11.0,1.0,,,,,,,,,,
1.0,1.0,1.041925,,,,,,leotard_08s.jpg,1.0,clock_7_2.png,3.0,57,,,,,,,,,,,,,,,,,,0.0,12.0,12.0,12.0,1.0,,,,,,,,,,
0.0,1.0,0.66086,,,,,,juicer2_06s.jpg,0.0,clock_7_3.png,3.0,57,,,,,,,,,,,,,,,,,,0.0,13.0,13.0,13.0,1.0,,,,,,,,,,
0.0,1.0,0.464735,,,,,,breadstick_08s.jpg,0.0,clock_7_4.png,3.0,57,,,,,,,,,,,,,,,,,,0.0,14.0,14.0,14.0,1.0,,,,,,,,,,
0.0,1.0,0.81194,,,,,,blazer_02s.jpg,0.0,clock_7_5.png,3.0,57,,,,,,,,,,,,,,,,,,0.0,15.0,15.0,15.0,1.0,,,,,,,,,,
0.0,1.0,0.62651,,,,,,puddle_02s.jpg,0.0,clock_7_6.png,3.0,57,,,,,,,,,,,,,,,,,,0.0,16.0,16.0,16.0,1.0,,,,,,,,,,
1.0,1.0,0.828915,,,,,,puddle_02s.jpg,1.0,clock_7_7.png,3.0,57,,,,,,,,,,,,,,,,,,0.0,17.0,17.0,17.0,1.0,,,,,,,,,,
0.0,1.0,0.64147,,,,,,bathtub_23s.jpg,0.0,clock_6_1.png,4.0,57,,,,,,,,,,,,,,,,,,0.0,18.0,18.0,18.0,1.0,,,,,,,,,,
1.0,1.0,0.89922,,,,,,bathtub_23s.jpg,1.0,clock_6_2.png,4.0,57,,,,,,,,,,,,,,,,,,0.0,19.0,19.0,19.0,1.0,,,,,,,,,,
0.0,1.0,0.60334,,,,,,target_11s.jpg,0.0,clock_6_3.png,4.0,57,,,,,,,,,,,,,,,,,,0.0,20.0,20.0,20.0,1.0,,,,,,,,,,
0.0,1.0,0.663065,,,,,,tiger_06s.jpg,0.0,clock_6_4.png,4.0,57,,,,,,,,,,,,,,,,,,0.0,21.0,21.0,21.0,1.0,,,,,,,,,,
0.0,1.0,0.745155,,,,,,toad_09s.jpg,0.0,clock_6_5.png,4.0,57,,,,,,,,,,,,,,,,,,0.0,22.0,22.0,22.0,1.0,,,,,,,,,,
0.0,1.0,1.926065,,,,,,jalapeno_15s.jpg,0.0,clock_6_6.png,4.0,57,,,,,,,,,,,,,,,,,,0.0,23.0,23.0,23.0,1.0,,,,,,,,,,
,0.0,,,,,,,emerald_02s.jpg,0.0,clock_7_1.png,5.0,57,,,,,,,,,,,,,,,,,,0.0,24.0,24.0,24.0,1.0,,,,,,,,,,
0.0,0.0,1.703955,,,,,,emerald_02s.jpg,1.0,clock_7_2.png,5.0,57,,,,,,,,,,,,,,,,,,0.0,25.0,25.0,25.0,1.0,,,,,,,,,,
0.0,1.0,0.933845,,,,,,ticktacktoe_08s.jpg,0.0,clock_7_3.png,5.0,57,,,,,,,,,,,,,,,,,,0.0,26.0,26.0,26.0,1.0,,,,,,,,,,
,0.0,,,,,,,ticktacktoe_08s.jpg,1.0,clock_7_4.png,5.0,57,,,,,,,,,,,,,,,,,,0.0,27.0,27.0,27.0,1.0,,,,,,,,,,
0.0,1.0,0.51522,,,,,,spacesuit_02s.jpg,0.0,clock_7_5.png,5.0,57,,,,,,,,,,,,,,,,,,0.0,28.0,28.0,28.0,1.0,,,,,,,,,,
0.0,1.0,0.563175,,,,,,sledgehammer_03s.jpg,0.0,clock_7_6.png,5.0,57,,,,,,,,,,,,,,,,,,0.0,29.0,29.0,29.0,1.0,,,,,,,,,,
0.0,1.0,0.63933,,,,,,rhubarb_03s.jpg,0.0,clock_7_7.png,5.0,57,,,,,,,,,,,,,,,,,,0.0,30.0,30.0,30.0,1.0,,,,,,,,,,
0.0,1.0,0.435595,,,,,,kite_04s.jpg,0.0,clock_5_1.png,6.0,57,,,,,,,,,,,,,,,,,,0.0,31.0,31.0,31.0,1.0,,,,,,,,,,
0.0,1.0,0.89722,,,,,,birdcage_08s.jpg,0.0,clock_5_2.png,6.0,57,,,,,,,,,,,,,,,,,,0.0,32.0,32.0,32.0,1.0,,,,,,,,,,
0.0,1.0,0.66635,,,,,,crate_05s.jpg,0.0,clock_5_3.png,6.0,57,,,,,,,,,,,,,,,,,,0.0,33.0,33.0,33.0,1.0,,,,,,,,,,
0.0,1.0,0.811055,,,,,,go-kart_10s.jpg,0.0,clock_5_4.png,6.0,57,,,,,,,,,,,,,,,,,,0.0,34.0,34.0,34.0,1.0,,,,,,,,,,
0.0,0.0,1.97933,,,,,,crate_05s.jpg,1.0,clock_5_5.png,6.0,57,,,,,,,,,,,,,,,,,,0.0,35.0,35.0,35.0,1.0,,,,,,,,,,
,,,,,,,,,1.0,,,57,0.0,0.0,2.502705,,,,,,sledgehammer_03s.jpg,birdcage_08s.jpg,,,,,,,,,,,,,0.0,0.0,0.0,0.0,1.0,,,,,
,,,,,,,,,1.0,,,57,0.0,0.0,0.68395,,,,,,flask_04s.jpg,bean_06s.jpg,,,,,,,,,,,,,0.0,1.0,1.0,1.0,1.0,,,,,
,,,,,,,,,0.0,,,57,1.0,0.0,1.238425,,,,,,juicer2_06s.jpg,mosquito_12s.jpg,,,,,,,,,,,,,0.0,2.0,2.0,2.0,1.0,,,,,
,,,,,,,,,1.0,,,57,1.0,1.0,0.518975,,,,,,orange_12s.jpg,stamp2_08s.jpg,,,,,,,,,,,,,0.0,3.0,3.0,3.0,1.0,,,,,
,,,,,,,,,0.0,,,57,1.0,0.0,0.861135,,,,,,jalapeno_15s.jpg,target_11s.jpg,,,,,,,,,,,,,0.0,4.0,4.0,4.0,1.0,,,,,
,,,,,,,,,0.0,,,57,1.0,0.0,1.034435,,,,,,mousetrap_15n.jpg,lab_coat_11s.jpg,,,,,,,,,,,,,0.0,5.0,5.0,5.0,1.0,,,,,
,,,,,,,,,,,,57,,,,,,,,,,,,,,,,clock_present_5_6.xlsx,clock_compare_task_5_6.xlsx,,,,,,,,,,,0.0,4.0,4.0,4.0,1.0
0.0,1.0,1.239135,,,,,,playpen_11s.jpg,0.0,clock_7_1.png,1.0,57,,,,,,,,,,,,,,,,,,0.0,0.0,0.0,0.0,1.0,,,,,,,,,,
1.0,1.0,1.860095,,,,,,playpen_11s.jpg,1.0,clock_7_2.png,1.0,57,,,,,,,,,,,,,,,,,,0.0,1.0,1.0,1.0,1.0,,,,,,,,,,
0.0,1.0,0.35726,,,,,,abacus_12s.jpg,0.0,clock_7_3.png,1.0,57,,,,,,,,,,,,,,,,,,0.0,2.0,2.0,2.0,1.0,,,,,,,,,,
0.0,1.0,0.66871,,,,,,butter_14s.jpg,0.0,clock_7_4.png,1.0,57,,,,,,,,,,,,,,,,,,0.0,3.0,3.0,3.0,1.0,,,,,,,,,,
1.0,1.0,2.412545,,,,,,abacus_12s.jpg,1.0,clock_7_5.png,1.0,57,,,,,,,,,,,,,,,,,,0.0,4.0,4.0,4.0,1.0,,,,,,,,,,
0.0,1.0,0.678405,,,,,,towel_rack_04s.jpg,0.0,clock_7_6.png,1.0,57,,,,,,,,,,,,,,,,,,0.0,5.0,5.0,5.0,1.0,,,,,,,,,,
0.0,1.0,0.91336,,,,,,bee_20s.jpg,0.0,clock_7_7.png,1.0,57,,,,,,,,,,,,,,,,,,0.0,6.0,6.0,6.0,1.0,,,,,,,,,,
0.0,1.0,0.965125,,,,,,padlock_07s.jpg,0.0,clock_6_1.png,2.0,57,,,,,,,,,,,,,,,,,,0.0,7.0,7.0,7.0,1.0,,,,,,,,,,
0.0,1.0,1.26189,,,,,,butter_14s.jpg,0.0,clock_6_2.png,2.0,57,,,,,,,,,,,,,,,,,,0.0,8.0,8.0,8.0,1.0,,,,,,,,,,
0.0,1.0,0.700725,,,,,,purse_05s.jpg,0.0,clock_6_3.png,2.0,57,,,,,,,,,,,,,,,,,,0.0,9.0,9.0,9.0,1.0,,,,,,,,,,
,0.0,,,,,,,butter_14s.jpg,1.0,clock_6_4.png,2.0,57,,,,,,,,,,,,,,,,,,0.0,10.0,10.0,10.0,1.0,,,,,,,,,,
0.0,1.0,0.71253,,,,,,peppermint_07s.jpg,0.0,clock_6_5.png,2.0,57,,,,,,,,,,,,,,,,,,0.0,11.0,11.0,11.0,1.0,,,,,,,,,,
0.0,1.0,1.23792,,,,,,cucumber_07s.jpg,0.0,clock_6_6.png,2.0,57,,,,,,,,,,,,,,,,,,0.0,12.0,12.0,12.0,1.0,,,,,,,,,,
0.0,1.0,0.768475,,,,,,orangutan_03s.jpg,0.0,clock_5_1.png,3.0,57,,,,,,,,,,,,,,,,,,0.0,13.0,13.0,13.0,1.0,,,,,,,,,,
0.0,1.0,1.218585,,,,,,chime_12s.jpg,0.0,clock_5_2.png,3.0,57,,,,,,,,,,,,,,,,,,0.0,14.0,14.0,14.0,1.0,,,,,,,,,,
,0.0,,,,,,,orangutan_03s.jpg,1.0,clock_5_3.png,3.0,57,,,,,,,,,,,,,,,,,,0.0,15.0,15.0,15.0,1.0,,,,,,,,,,
0.0,1.0,0.49041,,,,,,turkey_10s.jpg,0.0,clock_5_4.png,3.0,57,,,,,,,,,,,,,,,,,,0.0,16.0,16.0,16.0,1.0,,,,,,,,,,
1.0,1.0,1.15973,,,,,,orangutan_03s.jpg,1.0,clock_5_5.png,3.0,57,,,,,,,,,,,,,,,,,,0.0,17.0,17.0,17.0,1.0,,,,,,,,,,
0.0,1.0,0.644975,,,,,,birthday_cake_09s.jpg,0.0,clock_5_1.png,4.0,57,,,,,,,,,,,,,,,,,,0.0,18.0,18.0,18.0,1.0,,,,,,,,,,
0.0,1.0,0.889635,,,,,,lizard_10n.jpg,0.0,clock_5_2.png,4.0,57,,,,,,,,,,,,,,,,,,0.0,19.0,19.0,19.0,1.0,,,,,,,,,,
0.0,1.0,0.65825,,,,,,lava_02s.jpg,0.0,clock_5_3.png,4.0,57,,,,,,,,,,,,,,,,,,0.0,20.0,20.0,20.0,1.0,,,,,,,,,,
0.0,1.0,1.095655,,,,,,rudder_02s.jpg,0.0,clock_5_4.png,4.0,57,,,,,,,,,,,,,,,,,,0.0,21.0,21.0,21.0,1.0,,,,,,,,,,
0.0,1.0,1.12612,,,,,,cap_05s.jpg,0.0,clock_5_5.png,4.0,57,,,,,,,,,,,,,,,,,,0.0,22.0,22.0,22.0,1.0,,,,,,,,,,
0.0,1.0,0.523155,,,,,,eggshell_14s.jpg,0.0,clock_6_1.png,5.0,57,,,,,,,,,,,,,,,,,,0.0,23.0,23.0,23.0,1.0,,,,,,,,,,
0.0,1.0,1.40421,,,,,,gear_07s.jpg,0.0,clock_6_2.png,5.0,57,,,,,,,,,,,,,,,,,,0.0,24.0,24.0,24.0,1.0,,,,,,,,,,
0.0,1.0,0.722285,,,,,,icicle_04s.jpg,0.0,clock_6_3.png,5.0,57,,,,,,,,,,,,,,,,,,0.0,25.0,25.0,25.0,1.0,,,,,,,,,,
0.0,1.0,1.02647,,,,,,submarine_11n.jpg,0.0,clock_6_4.png,5.0,57,,,,,,,,,,,,,,,,,,0.0,26.0,26.0,26.0,1.0,,,,,,,,,,
0.0,1.0,2.21032,,,,,,boar_10s.jpg,0.0,clock_6_5.png,5.0,57,,,,,,,,,,,,,,,,,,0.0,27.0,27.0,27.0,1.0,,,,,,,,,,
0.0,1.0,0.669795,,,,,,plunger_08s.jpg,0.0,clock_6_6.png,5.0,57,,,,,,,,,,,,,,,,,,0.0,28.0,28.0,28.0,1.0,,,,,,,,,,
,0.0,,,,,,,ant_12s.jpg,0.0,clock_7_1.png,6.0,57,,,,,,,,,,,,,,,,,,0.0,29.0,29.0,29.0,1.0,,,,,,,,,,
,0.0,,,,,,,juicer1_08s.jpg,0.0,clock_7_2.png,6.0,57,,,,,,,,,,,,,,,,,,0.0,30.0,30.0,30.0,1.0,,,,,,,,,,
0.0,1.0,1.09422,,,,,,submarine_11n.jpg,0.0,clock_7_3.png,6.0,57,,,,,,,,,,,,,,,,,,0.0,31.0,31.0,31.0,1.0,,,,,,,,,,
0.0,0.0,1.439855,,,,,,juicer1_08s.jpg,1.0,clock_7_4.png,6.0,57,,,,,,,,,,,,,,,,,,0.0,32.0,32.0,32.0,1.0,,,,,,,,,,
0.0,1.0,0.959515,,,,,,cucumber_07s.jpg,0.0,clock_7_5.png,6.0,57,,,,,,,,,,,,,,,,,,0.0,33.0,33.0,33.0,1.0,,,,,,,,,,
0.0,1.0,0.74223,,,,,,mailbox_11s.jpg,0.0,clock_7_6.png,6.0,57,,,,,,,,,,,,,,,,,,0.0,34.0,34.0,34.0,1.0,,,,,,,,,,
0.0,0.0,1.88615,,,,,,juicer1_08s.jpg,1.0,clock_7_7.png,6.0,57,,,,,,,,,,,,,,,,,,0.0,35.0,35.0,35.0,1.0,,,,,,,,,,
,,,,,,,,,1.0,,,57,0.0,0.0,2.00043,,,,,,bee_20s.jpg,purse_05s.jpg,,,,,,,,,,,,,0.0,0.0,0.0,0.0,1.0,,,,,
,,,,,,,,,0.0,,,57,0.0,1.0,0.933395,,,,,,chime_12s.jpg,peppermint_07s.jpg,,,,,,,,,,,,,0.0,1.0,1.0,1.0,1.0,,,,,
,,,,,,,,,1.0,,,57,1.0,1.0,0.74451,,,,,,lava_02s.jpg,eggshell_14s.jpg,,,,,,,,,,,,,0.0,2.0,2.0,2.0,1.0,,,,,
,,,,,,,,,1.0,,,57,1.0,1.0,0.900785,,,,,,birthday_cake_09s.jpg,rudder_02s.jpg,,,,,,,,,,,,,0.0,3.0,3.0,3.0,1.0,,,,,
,,,,,,,,,0.0,,,57,0.0,1.0,0.79248,,,,,,boar_10s.jpg,gear_07s.jpg,,,,,,,,,,,,,0.0,4.0,4.0,4.0,1.0,,,,,
,,,,,,,,,0.0,,,57,0.0,1.0,1.09708,,,,,,plunger_08s.jpg,icicle_04s.jpg,,,,,,,,,,,,,0.0,5.0,5.0,5.0,1.0,,,,,
