key_resp.keys,key_resp.corr,key_resp.rt,noclock_loop.thisRepN,noclock_loop.thisTrialN,noclock_loop.thisN,noclock_loop.thisIndex,noclock_loop.ran,pictures,answer,clock,segment,participant,key_resp_2.keys,key_resp_2.corr,key_resp_2.rt,noclock_loop2.thisRepN,noclock_loop2.thisTrialN,noclock_loop2.thisN,noclock_loop2.thisIndex,noclock_loop2.ran,item_a,item_b,noclock_condition.thisRepN,noclock_condition.thisTrialN,noclock_condition.thisN,noclock_condition.thisIndex,noclock_condition.ran,present,compare,present_segment.thisRepN,present_segment.thisTrialN,present_segment.thisN,present_segment.thisIndex,present_segment.ran,compare_segment.thisRepN,compare_segment.thisTrialN,compare_segment.thisN,compare_segment.thisIndex,compare_segment.ran,clock_conditions.thisRepN,clock_conditions.thisTrialN,clock_conditions.thisN,clock_conditions.thisIndex,clock_conditions.ran
0.0,1.0,1.29062,0.0,0.0,0.0,0.0,1.0,tripod_01b.jpg,0.0,clockno_up.jpg,1.0,41,,,,,,,,,,,,,,,,,,,,,,,,,,,,,,,,
0.0,1.0,0.894405,0.0,1.0,1.0,1.0,1.0,pocket_watch_16s.jpg,0.0,clockno_default.jpg,1.0,41,,,,,,,,,,,,,,,,,,,,,,,,,,,,,,,,
0.0,1.0,0.914985,0.0,2.0,2.0,2.0,1.0,loom_05s.jpg,0.0,clockno_default.jpg,1.0,41,,,,,,,,,,,,,,,,,,,,,,,,,,,,,,,,
1.0,1.0,1.10332,0.0,3.0,3.0,3.0,1.0,tripod_01b.jpg,1.0,clockno_default.jpg,1.0,41,,,,,,,,,,,,,,,,,,,,,,,,,,,,,,,,
0.0,1.0,0.785645,0.0,4.0,4.0,4.0,1.0,thread_08s.jpg,0.0,clockno_default.jpg,1.0,41,,,,,,,,,,,,,,,,,,,,,,,,,,,,,,,,
0.0,1.0,0.83852,0.0,5.0,5.0,5.0,1.0,rocket_02s.jpg,0.0,clockno_default.jpg,1.0,41,,,,,,,,,,,,,,,,,,,,,,,,,,,,,,,,
0.0,1.0,0.81918,0.0,6.0,6.0,6.0,1.0,ladle_04s.jpg,0.0,clockno_up.jpg,2.0,41,,,,,,,,,,,,,,,,,,,,,,,,,,,,,,,,
0.0,1.0,0.81472,0.0,7.0,7.0,7.0,1.0,bubble_01b.jpg,0.0,clockno_default.jpg,2.0,41,,,,,,,,,,,,,,,,,,,,,,,,,,,,,,,,
0.0,1.0,1.132585,0.0,8.0,8.0,8.0,1.0,pocket_watch_16s.jpg,0.0,clockno_default.jpg,2.0,41,,,,,,,,,,,,,,,,,,,,,,,,,,,,,,,,
0.0,1.0,1.990755,0.0,9.0,9.0,9.0,1.0,projector_08s.jpg,0.0,clockno_default.jpg,2.0,41,,,,,,,,,,,,,,,,,,,,,,,,,,,,,,,,
0.0,1.0,0.738735,0.0,10.0,10.0,10.0,1.0,penlight_12s.jpg,0.0,clockno_default.jpg,2.0,41,,,,,,,,,,,,,,,,,,,,,,,,,,,,,,,,
0.0,1.0,1.6947,0.0,11.0,11.0,11.0,1.0,golf_club_03s.jpg,0.0,clockno_up.jpg,3.0,41,,,,,,,,,,,,,,,,,,,,,,,,,,,,,,,,
0.0,1.0,1.59409,0.0,12.0,12.0,12.0,1.0,espresso_01b.jpg,0.0,clockno_default.jpg,3.0,41,,,,,,,,,,,,,,,,,,,,,,,,,,,,,,,,
1.0,1.0,1.36678,0.0,13.0,13.0,13.0,1.0,espresso_01b.jpg,1.0,clockno_default.jpg,3.0,41,,,,,,,,,,,,,,,,,,,,,,,,,,,,,,,,
0.0,1.0,0.69884,0.0,14.0,14.0,14.0,1.0,mannequin_05s.jpg,0.0,clockno_default.jpg,3.0,41,,,,,,,,,,,,,,,,,,,,,,,,,,,,,,,,
1.0,1.0,1.534645,0.0,15.0,15.0,15.0,1.0,golf_club_03s.jpg,1.0,clockno_default.jpg,3.0,41,,,,,,,,,,,,,,,,,,,,,,,,,,,,,,,,
0.0,1.0,1.10015,0.0,16.0,16.0,16.0,1.0,loom_05s.jpg,0.0,clockno_default.jpg,3.0,41,,,,,,,,,,,,,,,,,,,,,,,,,,,,,,,,
0.0,1.0,0.990635,0.0,17.0,17.0,17.0,1.0,machete_06s.jpg,0.0,clockno_up.jpg,4.0,41,,,,,,,,,,,,,,,,,,,,,,,,,,,,,,,,
0.0,1.0,1.24198,0.0,18.0,18.0,18.0,1.0,seahorse_13s.jpg,0.0,clockno_default.jpg,4.0,41,,,,,,,,,,,,,,,,,,,,,,,,,,,,,,,,
0.0,1.0,1.47864,0.0,19.0,19.0,19.0,1.0,mannequin_05s.jpg,0.0,clockno_default.jpg,4.0,41,,,,,,,,,,,,,,,,,,,,,,,,,,,,,,,,
0.0,1.0,0.6666,0.0,20.0,20.0,20.0,1.0,saddle_06s.jpg,0.0,clockno_default.jpg,4.0,41,,,,,,,,,,,,,,,,,,,,,,,,,,,,,,,,
0.0,1.0,0.58187,0.0,21.0,21.0,21.0,1.0,rake_06s.jpg,0.0,clockno_default.jpg,4.0,41,,,,,,,,,,,,,,,,,,,,,,,,,,,,,,,,
0.0,1.0,0.73815,0.0,22.0,22.0,22.0,1.0,jewel_01b.jpg,0.0,clockno_default.jpg,4.0,41,,,,,,,,,,,,,,,,,,,,,,,,,,,,,,,,
0.0,1.0,0.65427,0.0,23.0,23.0,23.0,1.0,ironing_board_07s.jpg,0.0,clockno_default.jpg,4.0,41,,,,,,,,,,,,,,,,,,,,,,,,,,,,,,,,
0.0,1.0,1.00237,0.0,24.0,24.0,24.0,1.0,tuxedo_01b.jpg,0.0,clockno_up.jpg,5.0,41,,,,,,,,,,,,,,,,,,,,,,,,,,,,,,,,
0.0,1.0,0.87044,0.0,25.0,25.0,25.0,1.0,pie_08s.jpg,0.0,clockno_default.jpg,5.0,41,,,,,,,,,,,,,,,,,,,,,,,,,,,,,,,,
0.0,1.0,1.386175,0.0,26.0,26.0,26.0,1.0,mousetrap_15n.jpg,0.0,clockno_default.jpg,5.0,41,,,,,,,,,,,,,,,,,,,,,,,,,,,,,,,,
0.0,1.0,0.798185,0.0,27.0,27.0,27.0,1.0,measuring_cup_02s.jpg,0.0,clockno_default.jpg,5.0,41,,,,,,,,,,,,,,,,,,,,,,,,,,,,,,,,
1.0,1.0,0.98731,0.0,28.0,28.0,28.0,1.0,measuring_cup_02s.jpg,1.0,clockno_default.jpg,5.0,41,,,,,,,,,,,,,,,,,,,,,,,,,,,,,,,,
0.0,1.0,0.926215,0.0,29.0,29.0,29.0,1.0,olive_05s.jpg,0.0,clockno_up.jpg,6.0,41,,,,,,,,,,,,,,,,,,,,,,,,,,,,,,,,
0.0,1.0,0.94841,0.0,30.0,30.0,30.0,1.0,razor_12s.jpg,0.0,clockno_default.jpg,6.0,41,,,,,,,,,,,,,,,,,,,,,,,,,,,,,,,,
0.0,1.0,0.765615,0.0,31.0,31.0,31.0,1.0,footprint_11s.jpg,0.0,clockno_default.jpg,6.0,41,,,,,,,,,,,,,,,,,,,,,,,,,,,,,,,,
0.0,1.0,0.82603,0.0,32.0,32.0,32.0,1.0,reindeer_08s.jpg,0.0,clockno_default.jpg,6.0,41,,,,,,,,,,,,,,,,,,,,,,,,,,,,,,,,
1.0,1.0,1.432695,0.0,33.0,33.0,33.0,1.0,olive_05s.jpg,1.0,clockno_default.jpg,6.0,41,,,,,,,,,,,,,,,,,,,,,,,,,,,,,,,,
1.0,1.0,1.68242,0.0,34.0,34.0,34.0,1.0,razor_12s.jpg,1.0,clockno_default.jpg,6.0,41,,,,,,,,,,,,,,,,,,,,,,,,,,,,,,,,
0.0,1.0,0.781155,0.0,35.0,35.0,35.0,1.0,mold2_04s.jpg,0.0,clockno_default.jpg,6.0,41,,,,,,,,,,,,,,,,,,,,,,,,,,,,,,,,
,,,,,,,,,1.0,,,41,0.0,0.0,2.996055,0.0,0.0,0.0,0.0,1.0,jewel_01b.jpg,pie_08s.jpg,,,,,,,,,,,,,,,,,,,,,,
,,,,,,,,,1.0,,,41,1.0,1.0,7.240215,0.0,1.0,1.0,1.0,1.0,thread_08s.jpg,bubble_01b.jpg,,,,,,,,,,,,,,,,,,,,,,
,,,,,,,,,0.0,,,41,1.0,0.0,3.284225,0.0,2.0,2.0,2.0,1.0,tuxedo_01b.jpg,rake_06s.jpg,,,,,,,,,,,,,,,,,,,,,,
,,,,,,,,,1.0,,,41,1.0,1.0,1.120535,0.0,3.0,3.0,3.0,1.0,ladle_04s.jpg,projector_08s.jpg,,,,,,,,,,,,,,,,,,,,,,
,,,,,,,,,0.0,,,41,1.0,0.0,2.81376,0.0,4.0,4.0,4.0,1.0,saddle_06s.jpg,machete_06s.jpg,,,,,,,,,,,,,,,,,,,,,,
,,,,,,,,,0.0,,,41,0.0,1.0,1.694455,0.0,5.0,5.0,5.0,1.0,mold2_04s.jpg,reindeer_08s.jpg,,,,,,,,,,,,,,,,,,,,,,
,,,,,,,,,,,,41,,,,,,,,,,,0.0,0.0,0.0,0.0,1.0,clockno_present_1_5.xlsx,clockno_compare_task_1_5.xlsx,,,,,,,,,,,,,,,
0.0,1.0,1.77658,0.0,0.0,0.0,0.0,1.0,sushi_08s.jpg,0.0,clockno_up.jpg,1.0,41,,,,,,,,,,,,,,,,,,,,,,,,,,,,,,,,
0.0,1.0,0.72059,0.0,1.0,1.0,1.0,1.0,tweezers_03s.jpg,0.0,clockno_default.jpg,1.0,41,,,,,,,,,,,,,,,,,,,,,,,,,,,,,,,,
0.0,1.0,1.891885,0.0,2.0,2.0,2.0,1.0,teapot_03s.jpg,0.0,clockno_default.jpg,1.0,41,,,,,,,,,,,,,,,,,,,,,,,,,,,,,,,,
0.0,1.0,1.136095,0.0,3.0,3.0,3.0,1.0,tinsel_12s.jpg,0.0,clockno_default.jpg,1.0,41,,,,,,,,,,,,,,,,,,,,,,,,,,,,,,,,
0.0,1.0,0.84465,0.0,4.0,4.0,4.0,1.0,tuba_12s.jpg,0.0,clockno_default.jpg,1.0,41,,,,,,,,,,,,,,,,,,,,,,,,,,,,,,,,
0.0,1.0,0.744385,0.0,5.0,5.0,5.0,1.0,paintbrush_04s.jpg,0.0,clockno_default.jpg,1.0,41,,,,,,,,,,,,,,,,,,,,,,,,,,,,,,,,
0.0,1.0,1.004315,0.0,6.0,6.0,6.0,1.0,lasagna_06s.jpg,0.0,clockno_default.jpg,1.0,41,,,,,,,,,,,,,,,,,,,,,,,,,,,,,,,,
0.0,1.0,0.8817,0.0,7.0,7.0,7.0,1.0,pinwheel_06s.jpg,0.0,clockno_up.jpg,2.0,41,,,,,,,,,,,,,,,,,,,,,,,,,,,,,,,,
0.0,1.0,0.816085,0.0,8.0,8.0,8.0,1.0,owl_15s.jpg,0.0,clockno_default.jpg,2.0,41,,,,,,,,,,,,,,,,,,,,,,,,,,,,,,,,
0.0,1.0,0.88823,0.0,9.0,9.0,9.0,1.0,glasses01a.jpg,0.0,clockno_default.jpg,2.0,41,,,,,,,,,,,,,,,,,,,,,,,,,,,,,,,,
0.0,1.0,1.42774,0.0,10.0,10.0,10.0,1.0,pocketknife_12s.jpg,0.0,clockno_default.jpg,2.0,41,,,,,,,,,,,,,,,,,,,,,,,,,,,,,,,,
0.0,1.0,0.78376,0.0,11.0,11.0,11.0,1.0,fur_coat_11s.jpg,0.0,clockno_default.jpg,2.0,41,,,,,,,,,,,,,,,,,,,,,,,,,,,,,,,,
0.0,1.0,1.717175,0.0,12.0,12.0,12.0,1.0,tongs_08s.jpg,0.0,clockno_up.jpg,3.0,41,,,,,,,,,,,,,,,,,,,,,,,,,,,,,,,,
1.0,1.0,1.16028,0.0,13.0,13.0,13.0,1.0,tongs_08s.jpg,1.0,clockno_default.jpg,3.0,41,,,,,,,,,,,,,,,,,,,,,,,,,,,,,,,,
,0.0,,0.0,14.0,14.0,14.0,1.0,leash_10s.jpg,0.0,clockno_default.jpg,3.0,41,,,,,,,,,,,,,,,,,,,,,,,,,,,,,,,,
0.0,1.0,1.28738,0.0,15.0,15.0,15.0,1.0,spoon02a.jpg,0.0,clockno_default.jpg,3.0,41,,,,,,,,,,,,,,,,,,,,,,,,,,,,,,,,
0.0,1.0,0.81961,0.0,16.0,16.0,16.0,1.0,plunger_08s.jpg,0.0,clockno_default.jpg,3.0,41,,,,,,,,,,,,,,,,,,,,,,,,,,,,,,,,
1.0,1.0,0.944575,0.0,17.0,17.0,17.0,1.0,plunger_08s.jpg,1.0,clockno_default.jpg,3.0,41,,,,,,,,,,,,,,,,,,,,,,,,,,,,,,,,
0.0,1.0,0.75575,0.0,18.0,18.0,18.0,1.0,playpen_11s.jpg,0.0,clockno_up.jpg,4.0,41,,,,,,,,,,,,,,,,,,,,,,,,,,,,,,,,
0.0,1.0,0.839115,0.0,19.0,19.0,19.0,1.0,smoothie_09s.jpg,0.0,clockno_default.jpg,4.0,41,,,,,,,,,,,,,,,,,,,,,,,,,,,,,,,,
0.0,1.0,0.68358,0.0,20.0,20.0,20.0,1.0,gear_07s.jpg,0.0,clockno_default.jpg,4.0,41,,,,,,,,,,,,,,,,,,,,,,,,,,,,,,,,
1.0,1.0,0.983535,0.0,21.0,21.0,21.0,1.0,smoothie_09s.jpg,1.0,clockno_default.jpg,4.0,41,,,,,,,,,,,,,,,,,,,,,,,,,,,,,,,,
0.0,1.0,0.6839,0.0,22.0,22.0,22.0,1.0,lamp_08s.jpg,0.0,clockno_default.jpg,4.0,41,,,,,,,,,,,,,,,,,,,,,,,,,,,,,,,,
0.0,1.0,0.615305,0.0,23.0,23.0,23.0,1.0,lollipop_08s.jpg,0.0,clockno_up.jpg,5.0,41,,,,,,,,,,,,,,,,,,,,,,,,,,,,,,,,
0.0,1.0,0.539975,0.0,24.0,24.0,24.0,1.0,squirt_gun_03s.jpg,0.0,clockno_default.jpg,5.0,41,,,,,,,,,,,,,,,,,,,,,,,,,,,,,,,,
0.0,1.0,1.318945,0.0,25.0,25.0,25.0,1.0,otter_05s.jpg,0.0,clockno_default.jpg,5.0,41,,,,,,,,,,,,,,,,,,,,,,,,,,,,,,,,
0.0,1.0,0.583025,0.0,26.0,26.0,26.0,1.0,tape_06s.jpg,0.0,clockno_default.jpg,5.0,41,,,,,,,,,,,,,,,,,,,,,,,,,,,,,,,,
0.0,1.0,0.43793,0.0,27.0,27.0,27.0,1.0,sunflower_17s.jpg,0.0,clockno_default.jpg,5.0,41,,,,,,,,,,,,,,,,,,,,,,,,,,,,,,,,
0.0,1.0,0.70774,0.0,28.0,28.0,28.0,1.0,fountain_pen_06s.jpg,0.0,clockno_default.jpg,5.0,41,,,,,,,,,,,,,,,,,,,,,,,,,,,,,,,,
0.0,1.0,0.60725,0.0,29.0,29.0,29.0,1.0,ant_12s.jpg,0.0,clockno_up.jpg,6.0,41,,,,,,,,,,,,,,,,,,,,,,,,,,,,,,,,
0.0,1.0,1.05153,0.0,30.0,30.0,30.0,1.0,tattoo_14s.jpg,0.0,clockno_default.jpg,6.0,41,,,,,,,,,,,,,,,,,,,,,,,,,,,,,,,,
0.0,1.0,1.175755,0.0,31.0,31.0,31.0,1.0,gear_07s.jpg,0.0,clockno_default.jpg,6.0,41,,,,,,,,,,,,,,,,,,,,,,,,,,,,,,,,
0.0,1.0,0.875245,0.0,32.0,32.0,32.0,1.0,tiger_06s.jpg,0.0,clockno_default.jpg,6.0,41,,,,,,,,,,,,,,,,,,,,,,,,,,,,,,,,
0.0,1.0,0.79954,0.0,33.0,33.0,33.0,1.0,raccoon_02s.jpg,0.0,clockno_default.jpg,6.0,41,,,,,,,,,,,,,,,,,,,,,,,,,,,,,,,,
0.0,1.0,0.507045,0.0,34.0,34.0,34.0,1.0,toilet_paper_12s.jpg,0.0,clockno_default.jpg,6.0,41,,,,,,,,,,,,,,,,,,,,,,,,,,,,,,,,
1.0,1.0,2.28772,0.0,35.0,35.0,35.0,1.0,tattoo_14s.jpg,1.0,clockno_default.jpg,6.0,41,,,,,,,,,,,,,,,,,,,,,,,,,,,,,,,,
,,,,,,,,,1.0,,,41,1.0,1.0,2.27277,0.0,0.0,0.0,0.0,1.0,spoon02a.jpg,playpen_11s.jpg,,,,,,,,,,,,,,,,,,,,,,
,,,,,,,,,1.0,,,41,0.0,0.0,2.662355,0.0,1.0,1.0,1.0,1.0,lasagna_06s.jpg,glasses01a.jpg,,,,,,,,,,,,,,,,,,,,,,
,,,,,,,,,1.0,,,41,1.0,1.0,1.844665,0.0,2.0,2.0,2.0,1.0,fur_coat_11s.jpg,leash_10s.jpg,,,,,,,,,,,,,,,,,,,,,,
,,,,,,,,,1.0,,,41,1.0,1.0,1.508575,0.0,3.0,3.0,3.0,1.0,sushi_08s.jpg,tinsel_12s.jpg,,,,,,,,,,,,,,,,,,,,,,
,,,,,,,,,1.0,,,41,0.0,0.0,2.113865,0.0,4.0,4.0,4.0,1.0,squirt_gun_03s.jpg,sunflower_17s.jpg,,,,,,,,,,,,,,,,,,,,,,
,,,,,,,,,0.0,,,41,0.0,1.0,1.471555,0.0,5.0,5.0,5.0,1.0,tuba_12s.jpg,tweezers_03s.jpg,,,,,,,,,,,,,,,,,,,,,,
,,,,,,,,,,,,41,,,,,,,,,,,0.0,1.0,1.0,1.0,1.0,clockno_present_2_5.xlsx,clockno_compare_task_2_5.xlsx,,,,,,,,,,,,,,,
0.0,1.0,0.944485,0.0,0.0,0.0,0.0,1.0,ram_05s.jpg,0.0,clockno_up.jpg,1.0,41,,,,,,,,,,,,,,,,,,,,,,,,,,,,,,,,
0.0,1.0,0.561845,0.0,1.0,1.0,1.0,1.0,panda_02s.jpg,0.0,clockno_default.jpg,1.0,41,,,,,,,,,,,,,,,,,,,,,,,,,,,,,,,,
0.0,1.0,0.61461,0.0,2.0,2.0,2.0,1.0,beaker_01b.jpg,0.0,clockno_default.jpg,1.0,41,,,,,,,,,,,,,,,,,,,,,,,,,,,,,,,,
1.0,1.0,1.332535,0.0,3.0,3.0,3.0,1.0,beaker_01b.jpg,1.0,clockno_default.jpg,1.0,41,,,,,,,,,,,,,,,,,,,,,,,,,,,,,,,,
0.0,1.0,0.61423,0.0,4.0,4.0,4.0,1.0,megaphone_03s.jpg,0.0,clockno_default.jpg,1.0,41,,,,,,,,,,,,,,,,,,,,,,,,,,,,,,,,
0.0,1.0,0.841445,0.0,5.0,5.0,5.0,1.0,dashboard_02s.jpg,0.0,clockno_up.jpg,2.0,41,,,,,,,,,,,,,,,,,,,,,,,,,,,,,,,,
0.0,1.0,0.63723,0.0,6.0,6.0,6.0,1.0,juicer2_06s.jpg,0.0,clockno_default.jpg,2.0,41,,,,,,,,,,,,,,,,,,,,,,,,,,,,,,,,
0.0,1.0,0.71451,0.0,7.0,7.0,7.0,1.0,butter_14s.jpg,0.0,clockno_default.jpg,2.0,41,,,,,,,,,,,,,,,,,,,,,,,,,,,,,,,,
0.0,1.0,0.589795,0.0,8.0,8.0,8.0,1.0,quesadilla_07s.jpg,0.0,clockno_default.jpg,2.0,41,,,,,,,,,,,,,,,,,,,,,,,,,,,,,,,,
0.0,1.0,0.569345,0.0,9.0,9.0,9.0,1.0,thumbtack_14s.jpg,0.0,clockno_default.jpg,2.0,41,,,,,,,,,,,,,,,,,,,,,,,,,,,,,,,,
0.0,1.0,0.75727,0.0,10.0,10.0,10.0,1.0,potholder_02s.jpg,0.0,clockno_default.jpg,2.0,41,,,,,,,,,,,,,,,,,,,,,,,,,,,,,,,,
0.0,1.0,0.488645,0.0,11.0,11.0,11.0,1.0,purse_05s.jpg,0.0,clockno_default.jpg,2.0,41,,,,,,,,,,,,,,,,,,,,,,,,,,,,,,,,
0.0,1.0,0.74157,0.0,12.0,12.0,12.0,1.0,binder_21s.jpg,0.0,clockno_up.jpg,3.0,41,,,,,,,,,,,,,,,,,,,,,,,,,,,,,,,,
1.0,1.0,1.626005,0.0,13.0,13.0,13.0,1.0,binder_21s.jpg,1.0,clockno_default.jpg,3.0,41,,,,,,,,,,,,,,,,,,,,,,,,,,,,,,,,
0.0,1.0,0.364875,0.0,14.0,14.0,14.0,1.0,knot_01b.jpg,0.0,clockno_default.jpg,3.0,41,,,,,,,,,,,,,,,,,,,,,,,,,,,,,,,,
1.0,1.0,1.38535,0.0,15.0,15.0,15.0,1.0,binder_21s.jpg,1.0,clockno_default.jpg,3.0,41,,,,,,,,,,,,,,,,,,,,,,,,,,,,,,,,
0.0,1.0,0.653735,0.0,16.0,16.0,16.0,1.0,raspberry_12s.jpg,0.0,clockno_default.jpg,3.0,41,,,,,,,,,,,,,,,,,,,,,,,,,,,,,,,,
0.0,1.0,0.63316,0.0,17.0,17.0,17.0,1.0,padlock_07s.jpg,0.0,clockno_up.jpg,4.0,41,,,,,,,,,,,,,,,,,,,,,,,,,,,,,,,,
0.0,1.0,0.48504,0.0,18.0,18.0,18.0,1.0,phone_01b.jpg,0.0,clockno_default.jpg,4.0,41,,,,,,,,,,,,,,,,,,,,,,,,,,,,,,,,
0.0,1.0,0.64041,0.0,19.0,19.0,19.0,1.0,lizard_10n.jpg,0.0,clockno_default.jpg,4.0,41,,,,,,,,,,,,,,,,,,,,,,,,,,,,,,,,
0.0,1.0,0.4611,0.0,20.0,20.0,20.0,1.0,seagull_01b.jpg,0.0,clockno_default.jpg,4.0,41,,,,,,,,,,,,,,,,,,,,,,,,,,,,,,,,
0.0,1.0,0.85689,0.0,21.0,21.0,21.0,1.0,stapler_01b.jpg,0.0,clockno_default.jpg,4.0,41,,,,,,,,,,,,,,,,,,,,,,,,,,,,,,,,
0.0,1.0,0.804365,0.0,22.0,22.0,22.0,1.0,turtleneck_11s.jpg,0.0,clockno_default.jpg,4.0,41,,,,,,,,,,,,,,,,,,,,,,,,,,,,,,,,
0.0,1.0,0.640505,0.0,23.0,23.0,23.0,1.0,top_hat_11s.jpg,0.0,clockno_up.jpg,5.0,41,,,,,,,,,,,,,,,,,,,,,,,,,,,,,,,,
0.0,1.0,0.653245,0.0,24.0,24.0,24.0,1.0,screwdriver02a.jpg,0.0,clockno_default.jpg,5.0,41,,,,,,,,,,,,,,,,,,,,,,,,,,,,,,,,
0.0,1.0,1.241425,0.0,25.0,25.0,25.0,1.0,raspberry_12s.jpg,0.0,clockno_default.jpg,5.0,41,,,,,,,,,,,,,,,,,,,,,,,,,,,,,,,,
0.0,1.0,0.58144,0.0,26.0,26.0,26.0,1.0,gingerbread_man_03s.jpg,0.0,clockno_default.jpg,5.0,41,,,,,,,,,,,,,,,,,,,,,,,,,,,,,,,,
0.0,1.0,0.56068,0.0,27.0,27.0,27.0,1.0,bagel_15s.jpg,0.0,clockno_default.jpg,5.0,41,,,,,,,,,,,,,,,,,,,,,,,,,,,,,,,,
1.0,1.0,1.50124,0.0,28.0,28.0,28.0,1.0,top_hat_11s.jpg,1.0,clockno_default.jpg,5.0,41,,,,,,,,,,,,,,,,,,,,,,,,,,,,,,,,
0.0,1.0,0.70453,0.0,29.0,29.0,29.0,1.0,smokingpipe.jpg,0.0,clockno_default.jpg,5.0,41,,,,,,,,,,,,,,,,,,,,,,,,,,,,,,,,
0.0,1.0,1.044455,0.0,30.0,30.0,30.0,1.0,sea_urchin_09s.jpg,0.0,clockno_up.jpg,6.0,41,,,,,,,,,,,,,,,,,,,,,,,,,,,,,,,,
0.0,1.0,0.52037,0.0,31.0,31.0,31.0,1.0,tomato_sauce_09s.jpg,0.0,clockno_default.jpg,6.0,41,,,,,,,,,,,,,,,,,,,,,,,,,,,,,,,,
0.0,1.0,0.73298,0.0,32.0,32.0,32.0,1.0,triangle_10s.jpg,0.0,clockno_default.jpg,6.0,41,,,,,,,,,,,,,,,,,,,,,,,,,,,,,,,,
0.0,1.0,0.656875,0.0,33.0,33.0,33.0,1.0,squirrel_02s.jpg,0.0,clockno_default.jpg,6.0,41,,,,,,,,,,,,,,,,,,,,,,,,,,,,,,,,
0.0,1.0,0.860415,0.0,34.0,34.0,34.0,1.0,punch1_10s.jpg,0.0,clockno_default.jpg,6.0,41,,,,,,,,,,,,,,,,,,,,,,,,,,,,,,,,
0.0,1.0,0.91534,0.0,35.0,35.0,35.0,1.0,chalice_10s.jpg,0.0,clockno_default.jpg,6.0,41,,,,,,,,,,,,,,,,,,,,,,,,,,,,,,,,
,,,,,,,,,1.0,,,41,1.0,1.0,2.97057,0.0,0.0,0.0,0.0,1.0,purse_05s.jpg,knot_01b.jpg,,,,,,,,,,,,,,,,,,,,,,
,,,,,,,,,0.0,,,41,0.0,1.0,1.636095,0.0,1.0,1.0,1.0,1.0,butter_14s.jpg,megaphone_03s.jpg,,,,,,,,,,,,,,,,,,,,,,
,,,,,,,,,0.0,,,41,1.0,0.0,2.043655,0.0,2.0,2.0,2.0,1.0,screwdriver02a.jpg,stapler_01b.jpg,,,,,,,,,,,,,,,,,,,,,,
,,,,,,,,,0.0,,,41,0.0,1.0,1.31776,0.0,3.0,3.0,3.0,1.0,quesadilla_07s.jpg,dashboard_02s.jpg,,,,,,,,,,,,,,,,,,,,,,
,,,,,,,,,0.0,,,41,0.0,1.0,1.53679,0.0,4.0,4.0,4.0,1.0,thumbtack_14s.jpg,juicer2_06s.jpg,,,,,,,,,,,,,,,,,,,,,,
,,,,,,,,,0.0,,,41,0.0,1.0,2.029245,0.0,5.0,5.0,5.0,1.0,turtleneck_11s.jpg,lizard_10n.jpg,,,,,,,,,,,,,,,,,,,,,,
,,,,,,,,,,,,41,,,,,,,,,,,0.0,2.0,2.0,2.0,1.0,clockno_present_3_5.xlsx,clockno_compare_task_3_5.xlsx,,,,,,,,,,,,,,,
0.0,1.0,0.741435,0.0,0.0,0.0,0.0,1.0,leotard_08s.jpg,0.0,clockno_up.jpg,1.0,41,,,,,,,,,,,,,,,,,,,,,,,,,,,,,,,,
0.0,1.0,0.824165,0.0,1.0,1.0,1.0,1.0,popsicle_02s.jpg,0.0,clockno_default.jpg,1.0,41,,,,,,,,,,,,,,,,,,,,,,,,,,,,,,,,
1.0,1.0,1.516965,0.0,2.0,2.0,2.0,1.0,popsicle_02s.jpg,1.0,clockno_default.jpg,1.0,41,,,,,,,,,,,,,,,,,,,,,,,,,,,,,,,,
1.0,1.0,1.49961,0.0,3.0,3.0,3.0,1.0,popsicle_02s.jpg,1.0,clockno_default.jpg,1.0,41,,,,,,,,,,,,,,,,,,,,,,,,,,,,,,,,
0.0,1.0,0.715795,0.0,4.0,4.0,4.0,1.0,rocking_horse_03s.jpg,0.0,clockno_default.jpg,1.0,41,,,,,,,,,,,,,,,,,,,,,,,,,,,,,,,,
0.0,1.0,0.48137,0.0,5.0,5.0,5.0,1.0,incense_02s.jpg,0.0,clockno_up.jpg,2.0,41,,,,,,,,,,,,,,,,,,,,,,,,,,,,,,,,
0.0,1.0,0.723965,0.0,6.0,6.0,6.0,1.0,margarita_03s.jpg,0.0,clockno_default.jpg,2.0,41,,,,,,,,,,,,,,,,,,,,,,,,,,,,,,,,
0.0,1.0,0.70363,0.0,7.0,7.0,7.0,1.0,telephone_pole_05s.jpg,0.0,clockno_default.jpg,2.0,41,,,,,,,,,,,,,,,,,,,,,,,,,,,,,,,,
0.0,1.0,0.70813,0.0,8.0,8.0,8.0,1.0,hummingbird_05s.jpg,0.0,clockno_default.jpg,2.0,41,,,,,,,,,,,,,,,,,,,,,,,,,,,,,,,,
0.0,1.0,0.65605,0.0,9.0,9.0,9.0,1.0,pincushion_10s.jpg,0.0,clockno_default.jpg,2.0,41,,,,,,,,,,,,,,,,,,,,,,,,,,,,,,,,
0.0,1.0,0.659875,0.0,10.0,10.0,10.0,1.0,peppermint_07s.jpg,0.0,clockno_default.jpg,2.0,41,,,,,,,,,,,,,,,,,,,,,,,,,,,,,,,,
0.0,1.0,0.94361,0.0,11.0,11.0,11.0,1.0,mattress_01s.jpg,0.0,clockno_up.jpg,3.0,41,,,,,,,,,,,,,,,,,,,,,,,,,,,,,,,,
0.0,1.0,0.540295,0.0,12.0,12.0,12.0,1.0,swimming_pool_17s.jpg,0.0,clockno_default.jpg,3.0,41,,,,,,,,,,,,,,,,,,,,,,,,,,,,,,,,
0.0,1.0,0.944415,0.0,13.0,13.0,13.0,1.0,pincushion_10s.jpg,0.0,clockno_default.jpg,3.0,41,,,,,,,,,,,,,,,,,,,,,,,,,,,,,,,,
0.0,1.0,0.615025,0.0,14.0,14.0,14.0,1.0,pomegranate_04s.jpg,0.0,clockno_default.jpg,3.0,41,,,,,,,,,,,,,,,,,,,,,,,,,,,,,,,,
1.0,1.0,1.43209,0.0,15.0,15.0,15.0,1.0,pincushion_10s.jpg,1.0,clockno_default.jpg,3.0,41,,,,,,,,,,,,,,,,,,,,,,,,,,,,,,,,
0.0,1.0,0.700115,0.0,16.0,16.0,16.0,1.0,soccer_ball_12s.jpg,0.0,clockno_default.jpg,3.0,41,,,,,,,,,,,,,,,,,,,,,,,,,,,,,,,,
0.0,1.0,0.687505,0.0,17.0,17.0,17.0,1.0,swing_set_15s.jpg,0.0,clockno_default.jpg,3.0,41,,,,,,,,,,,,,,,,,,,,,,,,,,,,,,,,
0.0,1.0,0.6838,0.0,18.0,18.0,18.0,1.0,lipstick_02s.jpg,0.0,clockno_up.jpg,4.0,41,,,,,,,,,,,,,,,,,,,,,,,,,,,,,,,,
1.0,1.0,1.43991,0.0,19.0,19.0,19.0,1.0,lipstick_02s.jpg,1.0,clockno_default.jpg,4.0,41,,,,,,,,,,,,,,,,,,,,,,,,,,,,,,,,
0.0,1.0,0.699915,0.0,20.0,20.0,20.0,1.0,tie_03s.jpg,0.0,clockno_default.jpg,4.0,41,,,,,,,,,,,,,,,,,,,,,,,,,,,,,,,,
0.0,1.0,0.607385,0.0,21.0,21.0,21.0,1.0,muffin_12n.jpg,0.0,clockno_default.jpg,4.0,41,,,,,,,,,,,,,,,,,,,,,,,,,,,,,,,,
0.0,1.0,0.64356,0.0,22.0,22.0,22.0,1.0,solar_panel_02s.jpg,0.0,clockno_default.jpg,4.0,41,,,,,,,,,,,,,,,,,,,,,,,,,,,,,,,,
0.0,1.0,0.9831,0.0,23.0,23.0,23.0,1.0,safety_pin_02s.jpg,0.0,clockno_default.jpg,4.0,41,,,,,,,,,,,,,,,,,,,,,,,,,,,,,,,,
0.0,1.0,1.428125,0.0,24.0,24.0,24.0,1.0,rolling_pin_02s.jpg,0.0,clockno_up.jpg,5.0,41,,,,,,,,,,,,,,,,,,,,,,,,,,,,,,,,
0.0,1.0,0.919255,0.0,25.0,25.0,25.0,1.0,toaster_03s.jpg,0.0,clockno_default.jpg,5.0,41,,,,,,,,,,,,,,,,,,,,,,,,,,,,,,,,
0.0,1.0,0.62718,0.0,26.0,26.0,26.0,1.0,umbrella_15s.jpg,0.0,clockno_default.jpg,5.0,41,,,,,,,,,,,,,,,,,,,,,,,,,,,,,,,,
0.0,1.0,0.567205,0.0,27.0,27.0,27.0,1.0,gong_02s.jpg,0.0,clockno_default.jpg,5.0,41,,,,,,,,,,,,,,,,,,,,,,,,,,,,,,,,
0.0,1.0,0.603585,0.0,28.0,28.0,28.0,1.0,plug_08s.jpg,0.0,clockno_default.jpg,5.0,41,,,,,,,,,,,,,,,,,,,,,,,,,,,,,,,,
0.0,1.0,0.51117,0.0,29.0,29.0,29.0,1.0,bonsai_07s.jpg,0.0,clockno_up.jpg,6.0,41,,,,,,,,,,,,,,,,,,,,,,,,,,,,,,,,
0.0,1.0,0.49937,0.0,30.0,30.0,30.0,1.0,raft_09s.jpg,0.0,clockno_default.jpg,6.0,41,,,,,,,,,,,,,,,,,,,,,,,,,,,,,,,,
0.0,1.0,0.502655,0.0,31.0,31.0,31.0,1.0,puppet_01b.jpg,0.0,clockno_default.jpg,6.0,41,,,,,,,,,,,,,,,,,,,,,,,,,,,,,,,,
1.0,1.0,1.37229,0.0,32.0,32.0,32.0,1.0,puppet_01b.jpg,1.0,clockno_default.jpg,6.0,41,,,,,,,,,,,,,,,,,,,,,,,,,,,,,,,,
0.0,1.0,0.623455,0.0,33.0,33.0,33.0,1.0,emerald_02s.jpg,0.0,clockno_default.jpg,6.0,41,,,,,,,,,,,,,,,,,,,,,,,,,,,,,,,,
0.0,1.0,0.78166,0.0,34.0,34.0,34.0,1.0,pencil02a.jpg,0.0,clockno_default.jpg,6.0,41,,,,,,,,,,,,,,,,,,,,,,,,,,,,,,,,
0.0,1.0,0.742415,0.0,35.0,35.0,35.0,1.0,gazelle_10s.jpg,0.0,clockno_default.jpg,6.0,41,,,,,,,,,,,,,,,,,,,,,,,,,,,,,,,,
,,,,,,,,,1.0,,,41,0.0,0.0,1.72741,0.0,0.0,0.0,0.0,1.0,umbrella_15s.jpg,bonsai_07s.jpg,,,,,,,,,,,,,,,,,,,,,,
,,,,,,,,,1.0,,,41,0.0,0.0,3.094955,0.0,1.0,1.0,1.0,1.0,rocking_horse_03s.jpg,telephone_pole_05s.jpg,,,,,,,,,,,,,,,,,,,,,,
,,,,,,,,,1.0,,,41,1.0,1.0,2.452395,0.0,2.0,2.0,2.0,1.0,muffin_12n.jpg,rolling_pin_02s.jpg,,,,,,,,,,,,,,,,,,,,,,
,,,,,,,,,1.0,,,41,0.0,0.0,1.72292,0.0,3.0,3.0,3.0,1.0,incense_02s.jpg,hummingbird_05s.jpg,,,,,,,,,,,,,,,,,,,,,,
,,,,,,,,,0.0,,,41,1.0,0.0,3.1759,0.0,4.0,4.0,4.0,1.0,pomegranate_04s.jpg,mattress_01s.jpg,,,,,,,,,,,,,,,,,,,,,,
,,,,,,,,,1.0,,,41,1.0,1.0,1.900675,0.0,5.0,5.0,5.0,1.0,toaster_03s.jpg,plug_08s.jpg,,,,,,,,,,,,,,,,,,,,,,
,,,,,,,,,,,,41,,,,,,,,,,,0.0,3.0,3.0,3.0,1.0,clockno_present_4_5.xlsx,clockno_compare_task_4_5.xlsx,,,,,,,,,,,,,,,
0.0,1.0,0.94229,0.0,0.0,0.0,0.0,1.0,tiara_05s.jpg,0.0,clockno_up.jpg,1.0,41,,,,,,,,,,,,,,,,,,,,,,,,,,,,,,,,
0.0,1.0,0.763895,0.0,1.0,1.0,1.0,1.0,refrigerator_07s.jpg,0.0,clockno_default.jpg,1.0,41,,,,,,,,,,,,,,,,,,,,,,,,,,,,,,,,
0.0,1.0,1.68496,0.0,2.0,2.0,2.0,1.0,roller_coaster_07s.jpg,0.0,clockno_default.jpg,1.0,41,,,,,,,,,,,,,,,,,,,,,,,,,,,,,,,,
0.0,1.0,1.081545,0.0,3.0,3.0,3.0,1.0,crystal_ball_12s.jpg,0.0,clockno_default.jpg,1.0,41,,,,,,,,,,,,,,,,,,,,,,,,,,,,,,,,
0.0,1.0,0.525615,0.0,4.0,4.0,4.0,1.0,racehorse_03s.jpg,0.0,clockno_default.jpg,1.0,41,,,,,,,,,,,,,,,,,,,,,,,,,,,,,,,,
0.0,1.0,0.82644,0.0,5.0,5.0,5.0,1.0,lamb_chop_07s.jpg,0.0,clockno_default.jpg,1.0,41,,,,,,,,,,,,,,,,,,,,,,,,,,,,,,,,
0.0,1.0,0.58183,0.0,6.0,6.0,6.0,1.0,paper_towel_03s.jpg,0.0,clockno_up.jpg,2.0,41,,,,,,,,,,,,,,,,,,,,,,,,,,,,,,,,
0.0,1.0,0.69815,0.0,7.0,7.0,7.0,1.0,radiator_05s.jpg,0.0,clockno_default.jpg,2.0,41,,,,,,,,,,,,,,,,,,,,,,,,,,,,,,,,
0.0,1.0,0.44722,0.0,8.0,8.0,8.0,1.0,frog_09s.jpg,0.0,clockno_default.jpg,2.0,41,,,,,,,,,,,,,,,,,,,,,,,,,,,,,,,,
1.0,1.0,1.29845,0.0,9.0,9.0,9.0,1.0,radiator_05s.jpg,1.0,clockno_default.jpg,2.0,41,,,,,,,,,,,,,,,,,,,,,,,,,,,,,,,,
0.0,1.0,0.549555,0.0,10.0,10.0,10.0,1.0,chocolate_01b.jpg,0.0,clockno_default.jpg,2.0,41,,,,,,,,,,,,,,,,,,,,,,,,,,,,,,,,
0.0,1.0,0.601825,0.0,11.0,11.0,11.0,1.0,metronome_03s.jpg,0.0,clockno_up.jpg,3.0,41,,,,,,,,,,,,,,,,,,,,,,,,,,,,,,,,
0.0,1.0,0.734265,0.0,12.0,12.0,12.0,1.0,kettle_08s.jpg,0.0,clockno_default.jpg,3.0,41,,,,,,,,,,,,,,,,,,,,,,,,,,,,,,,,
0.0,1.0,0.531685,0.0,13.0,13.0,13.0,1.0,refrigerator_07s.jpg,0.0,clockno_default.jpg,3.0,41,,,,,,,,,,,,,,,,,,,,,,,,,,,,,,,,
0.0,1.0,0.597765,0.0,14.0,14.0,14.0,1.0,eyedropper_12s.jpg,0.0,clockno_default.jpg,3.0,41,,,,,,,,,,,,,,,,,,,,,,,,,,,,,,,,
0.0,1.0,0.673425,0.0,15.0,15.0,15.0,1.0,totem_pole_05s.jpg,0.0,clockno_default.jpg,3.0,41,,,,,,,,,,,,,,,,,,,,,,,,,,,,,,,,
0.0,1.0,0.44677,0.0,16.0,16.0,16.0,1.0,aluminum_foil_08s.jpg,0.0,clockno_default.jpg,3.0,41,,,,,,,,,,,,,,,,,,,,,,,,,,,,,,,,
0.0,1.0,0.505765,0.0,17.0,17.0,17.0,1.0,birdcage_08s.jpg,0.0,clockno_default.jpg,3.0,41,,,,,,,,,,,,,,,,,,,,,,,,,,,,,,,,
0.0,1.0,0.686235,0.0,18.0,18.0,18.0,1.0,gargoyle_08s.jpg,0.0,clockno_up.jpg,4.0,41,,,,,,,,,,,,,,,,,,,,,,,,,,,,,,,,
0.0,1.0,0.385285,0.0,19.0,19.0,19.0,1.0,cobra_05s.jpg,0.0,clockno_default.jpg,4.0,41,,,,,,,,,,,,,,,,,,,,,,,,,,,,,,,,
0.0,1.0,0.677705,0.0,20.0,20.0,20.0,1.0,bank_06s.jpg,0.0,clockno_default.jpg,4.0,41,,,,,,,,,,,,,,,,,,,,,,,,,,,,,,,,
0.0,1.0,1.057905,0.0,21.0,21.0,21.0,1.0,spatula04.jpg,0.0,clockno_default.jpg,4.0,41,,,,,,,,,,,,,,,,,,,,,,,,,,,,,,,,
0.0,1.0,0.63073,0.0,22.0,22.0,22.0,1.0,syringe_02s.jpg,0.0,clockno_default.jpg,4.0,41,,,,,,,,,,,,,,,,,,,,,,,,,,,,,,,,
0.0,1.0,0.593055,0.0,23.0,23.0,23.0,1.0,surfboard_11s.jpg,0.0,clockno_up.jpg,5.0,41,,,,,,,,,,,,,,,,,,,,,,,,,,,,,,,,
0.0,1.0,0.5178,0.0,24.0,24.0,24.0,1.0,birthday_cake_09s.jpg,0.0,clockno_default.jpg,5.0,41,,,,,,,,,,,,,,,,,,,,,,,,,,,,,,,,
0.0,1.0,0.51434,0.0,25.0,25.0,25.0,1.0,pretzel_09s.jpg,0.0,clockno_default.jpg,5.0,41,,,,,,,,,,,,,,,,,,,,,,,,,,,,,,,,
0.0,1.0,0.509505,0.0,26.0,26.0,26.0,1.0,possum_09s.jpg,0.0,clockno_default.jpg,5.0,41,,,,,,,,,,,,,,,,,,,,,,,,,,,,,,,,
0.0,1.0,0.84892,0.0,27.0,27.0,27.0,1.0,magnet_03s.jpg,0.0,clockno_default.jpg,5.0,41,,,,,,,,,,,,,,,,,,,,,,,,,,,,,,,,
0.0,1.0,1.27716,0.0,28.0,28.0,28.0,1.0,crate_05s.jpg,0.0,clockno_default.jpg,5.0,41,,,,,,,,,,,,,,,,,,,,,,,,,,,,,,,,
0.0,1.0,1.24947,0.0,29.0,29.0,29.0,1.0,fossil_06s.jpg,0.0,clockno_up.jpg,6.0,41,,,,,,,,,,,,,,,,,,,,,,,,,,,,,,,,
0.0,1.0,0.509245,0.0,30.0,30.0,30.0,1.0,contact_lens_15s.jpg,0.0,clockno_default.jpg,6.0,41,,,,,,,,,,,,,,,,,,,,,,,,,,,,,,,,
0.0,1.0,0.76081,0.0,31.0,31.0,31.0,1.0,sugar_cube_11s.jpg,0.0,clockno_default.jpg,6.0,41,,,,,,,,,,,,,,,,,,,,,,,,,,,,,,,,
0.0,1.0,0.557915,0.0,32.0,32.0,32.0,1.0,key_07s.jpg,0.0,clockno_default.jpg,6.0,41,,,,,,,,,,,,,,,,,,,,,,,,,,,,,,,,
0.0,1.0,0.993665,0.0,33.0,33.0,33.0,1.0,birthday_cake_09s.jpg,0.0,clockno_default.jpg,6.0,41,,,,,,,,,,,,,,,,,,,,,,,,,,,,,,,,
0.0,1.0,0.69346,0.0,34.0,34.0,34.0,1.0,kangaroo_02s.jpg,0.0,clockno_default.jpg,6.0,41,,,,,,,,,,,,,,,,,,,,,,,,,,,,,,,,
0.0,1.0,0.672525,0.0,35.0,35.0,35.0,1.0,juicer1_08s.jpg,0.0,clockno_default.jpg,6.0,41,,,,,,,,,,,,,,,,,,,,,,,,,,,,,,,,
,,,,,,,,,1.0,,,41,0.0,0.0,3.2193,0.0,0.0,0.0,0.0,1.0,magnet_03s.jpg,contact_lens_15s.jpg,,,,,,,,,,,,,,,,,,,,,,
,,,,,,,,,0.0,,,41,0.0,1.0,1.66618,0.0,1.0,1.0,1.0,1.0,paper_towel_03s.jpg,crystal_ball_12s.jpg,,,,,,,,,,,,,,,,,,,,,,
,,,,,,,,,0.0,,,41,1.0,0.0,2.63369,0.0,2.0,2.0,2.0,1.0,frog_09s.jpg,lamb_chop_07s.jpg,,,,,,,,,,,,,,,,,,,,,,
,,,,,,,,,0.0,,,41,0.0,1.0,3.310365,0.0,3.0,3.0,3.0,1.0,juicer1_08s.jpg,key_07s.jpg,,,,,,,,,,,,,,,,,,,,,,
,,,,,,,,,0.0,,,41,0.0,1.0,1.299635,0.0,4.0,4.0,4.0,1.0,eyedropper_12s.jpg,metronome_03s.jpg,,,,,,,,,,,,,,,,,,,,,,
,,,,,,,,,0.0,,,41,1.0,0.0,4.808585,0.0,5.0,5.0,5.0,1.0,totem_pole_05s.jpg,kettle_08s.jpg,,,,,,,,,,,,,,,,,,,,,,
,,,,,,,,,,,,41,,,,,,,,,,,0.0,4.0,4.0,4.0,1.0,clockno_present_5_5.xlsx,clockno_compare_task_5_5.xlsx,,,,,,,,,,,,,,,
0.0,1.0,1.13622,0.0,0.0,0.0,0.0,1.0,fishhook_06s.jpg,0.0,clockno_up.jpg,1.0,41,,,,,,,,,,,,,,,,,,,,,,,,,,,,,,,,
1.0,1.0,1.265105,0.0,1.0,1.0,1.0,1.0,fishhook_06s.jpg,1.0,clockno_default.jpg,1.0,41,,,,,,,,,,,,,,,,,,,,,,,,,,,,,,,,
1.0,1.0,1.180945,0.0,2.0,2.0,2.0,1.0,fishhook_06s.jpg,1.0,clockno_default.jpg,1.0,41,,,,,,,,,,,,,,,,,,,,,,,,,,,,,,,,
0.0,1.0,0.6871,0.0,3.0,3.0,3.0,1.0,chip_04s.jpg,0.0,clockno_default.jpg,1.0,41,,,,,,,,,,,,,,,,,,,,,,,,,,,,,,,,
0.0,1.0,0.64377,0.0,4.0,4.0,4.0,1.0,kite_04s.jpg,0.0,clockno_default.jpg,1.0,41,,,,,,,,,,,,,,,,,,,,,,,,,,,,,,,,
1.0,1.0,1.544155,0.0,5.0,5.0,5.0,1.0,fishhook_06s.jpg,1.0,clockno_default.jpg,1.0,41,,,,,,,,,,,,,,,,,,,,,,,,,,,,,,,,
0.0,1.0,0.58196,0.0,6.0,6.0,6.0,1.0,potpourri_03s.jpg,0.0,clockno_default.jpg,1.0,41,,,,,,,,,,,,,,,,,,,,,,,,,,,,,,,,
0.0,1.0,0.751025,0.0,7.0,7.0,7.0,1.0,blazer_02s.jpg,0.0,clockno_up.jpg,2.0,41,,,,,,,,,,,,,,,,,,,,,,,,,,,,,,,,
0.0,1.0,0.707685,0.0,8.0,8.0,8.0,1.0,toy_04s.jpg,0.0,clockno_default.jpg,2.0,41,,,,,,,,,,,,,,,,,,,,,,,,,,,,,,,,
0.0,1.0,0.671425,0.0,9.0,9.0,9.0,1.0,poinsettia_04s.jpg,0.0,clockno_default.jpg,2.0,41,,,,,,,,,,,,,,,,,,,,,,,,,,,,,,,,
0.0,1.0,1.051655,0.0,10.0,10.0,10.0,1.0,punch2_09s.jpg,0.0,clockno_default.jpg,2.0,41,,,,,,,,,,,,,,,,,,,,,,,,,,,,,,,,
,0.0,,0.0,11.0,11.0,11.0,1.0,toy_04s.jpg,1.0,clockno_default.jpg,2.0,41,,,,,,,,,,,,,,,,,,,,,,,,,,,,,,,,
0.0,1.0,2.05966,0.0,12.0,12.0,12.0,1.0,quilt_03s.jpg,0.0,clockno_up.jpg,3.0,41,,,,,,,,,,,,,,,,,,,,,,,,,,,,,,,,
1.0,1.0,1.359745,0.0,13.0,13.0,13.0,1.0,quilt_03s.jpg,1.0,clockno_default.jpg,3.0,41,,,,,,,,,,,,,,,,,,,,,,,,,,,,,,,,
0.0,1.0,2.099455,0.0,14.0,14.0,14.0,1.0,toad_09s.jpg,0.0,clockno_default.jpg,3.0,41,,,,,,,,,,,,,,,,,,,,,,,,,,,,,,,,
1.0,1.0,1.62368,0.0,15.0,15.0,15.0,1.0,toad_09s.jpg,1.0,clockno_default.jpg,3.0,41,,,,,,,,,,,,,,,,,,,,,,,,,,,,,,,,
0.0,0.0,1.32357,0.0,16.0,16.0,16.0,1.0,quilt_03s.jpg,1.0,clockno_default.jpg,3.0,41,,,,,,,,,,,,,,,,,,,,,,,,,,,,,,,,
0.0,1.0,0.7672,0.0,17.0,17.0,17.0,1.0,cucumber_07s.jpg,0.0,clockno_default.jpg,3.0,41,,,,,,,,,,,,,,,,,,,,,,,,,,,,,,,,
0.0,1.0,0.786965,0.0,18.0,18.0,18.0,1.0,turf_03s.jpg,0.0,clockno_default.jpg,3.0,41,,,,,,,,,,,,,,,,,,,,,,,,,,,,,,,,
0.0,1.0,0.767045,0.0,19.0,19.0,19.0,1.0,slingshot_07s.jpg,0.0,clockno_up.jpg,4.0,41,,,,,,,,,,,,,,,,,,,,,,,,,,,,,,,,
0.0,1.0,0.982775,0.0,20.0,20.0,20.0,1.0,toy_04s.jpg,0.0,clockno_default.jpg,4.0,41,,,,,,,,,,,,,,,,,,,,,,,,,,,,,,,,
0.0,1.0,1.303435,0.0,21.0,21.0,21.0,1.0,rice_12s.jpg,0.0,clockno_default.jpg,4.0,41,,,,,,,,,,,,,,,,,,,,,,,,,,,,,,,,
0.0,1.0,0.72274,0.0,22.0,22.0,22.0,1.0,flip_flop_03s.jpg,0.0,clockno_default.jpg,4.0,41,,,,,,,,,,,,,,,,,,,,,,,,,,,,,,,,
0.0,1.0,0.68209,0.0,23.0,23.0,23.0,1.0,knitting_needle_04s.jpg,0.0,clockno_default.jpg,4.0,41,,,,,,,,,,,,,,,,,,,,,,,,,,,,,,,,
0.0,1.0,0.651185,0.0,24.0,24.0,24.0,1.0,crossbow_10s.jpg,0.0,clockno_default.jpg,4.0,41,,,,,,,,,,,,,,,,,,,,,,,,,,,,,,,,
0.0,1.0,0.640485,0.0,25.0,25.0,25.0,1.0,rocking_chair_05s.jpg,0.0,clockno_up.jpg,5.0,41,,,,,,,,,,,,,,,,,,,,,,,,,,,,,,,,
0.0,1.0,1.80267,0.0,26.0,26.0,26.0,1.0,fire_pit_10s.jpg,0.0,clockno_default.jpg,5.0,41,,,,,,,,,,,,,,,,,,,,,,,,,,,,,,,,
1.0,1.0,1.39949,0.0,27.0,27.0,27.0,1.0,rocking_chair_05s.jpg,1.0,clockno_default.jpg,5.0,41,,,,,,,,,,,,,,,,,,,,,,,,,,,,,,,,
1.0,1.0,1.907185,0.0,28.0,28.0,28.0,1.0,rocking_chair_05s.jpg,1.0,clockno_default.jpg,5.0,41,,,,,,,,,,,,,,,,,,,,,,,,,,,,,,,,
0.0,1.0,0.783335,0.0,29.0,29.0,29.0,1.0,toad_09s.jpg,0.0,clockno_default.jpg,5.0,41,,,,,,,,,,,,,,,,,,,,,,,,,,,,,,,,
1.0,1.0,1.650975,0.0,30.0,30.0,30.0,1.0,rocking_chair_05s.jpg,1.0,clockno_default.jpg,5.0,41,,,,,,,,,,,,,,,,,,,,,,,,,,,,,,,,
0.0,1.0,1.46592,0.0,31.0,31.0,31.0,1.0,money_07s.jpg,0.0,clockno_up.jpg,6.0,41,,,,,,,,,,,,,,,,,,,,,,,,,,,,,,,,
0.0,1.0,0.87497,0.0,32.0,32.0,32.0,1.0,boomerang_06s.jpg,0.0,clockno_default.jpg,6.0,41,,,,,,,,,,,,,,,,,,,,,,,,,,,,,,,,
0.0,1.0,0.51015,0.0,33.0,33.0,33.0,1.0,mitten_10s.jpg,0.0,clockno_default.jpg,6.0,41,,,,,,,,,,,,,,,,,,,,,,,,,,,,,,,,
0.0,1.0,1.042565,0.0,34.0,34.0,34.0,1.0,cereal_04s.jpg,0.0,clockno_default.jpg,6.0,41,,,,,,,,,,,,,,,,,,,,,,,,,,,,,,,,
0.0,1.0,0.75819,0.0,35.0,35.0,35.0,1.0,mailbox_11s.jpg,0.0,clockno_default.jpg,6.0,41,,,,,,,,,,,,,,,,,,,,,,,,,,,,,,,,
,,,,,,,,,1.0,,,41,1.0,1.0,1.36767,0.0,0.0,0.0,0.0,1.0,knitting_needle_04s.jpg,fire_pit_10s.jpg,,,,,,,,,,,,,,,,,,,,,,
,,,,,,,,,1.0,,,41,1.0,1.0,0.87924,0.0,1.0,1.0,1.0,1.0,kite_04s.jpg,blazer_02s.jpg,,,,,,,,,,,,,,,,,,,,,,
,,,,,,,,,1.0,,,41,1.0,1.0,1.44694,0.0,2.0,2.0,2.0,1.0,potpourri_03s.jpg,poinsettia_04s.jpg,,,,,,,,,,,,,,,,,,,,,,
,,,,,,,,,1.0,,,41,1.0,1.0,1.42319,0.0,3.0,3.0,3.0,1.0,slingshot_07s.jpg,flip_flop_03s.jpg,,,,,,,,,,,,,,,,,,,,,,
,,,,,,,,,1.0,,,41,1.0,1.0,1.272535,0.0,4.0,4.0,4.0,1.0,money_07s.jpg,cereal_04s.jpg,,,,,,,,,,,,,,,,,,,,,,
,,,,,,,,,1.0,,,41,0.0,0.0,1.93535,0.0,5.0,5.0,5.0,1.0,boomerang_06s.jpg,mailbox_11s.jpg,,,,,,,,,,,,,,,,,,,,,,
0.0,1.0,1.372345,,,,,,undershirt_02s.jpg,0.0,clock_5_1.png,1.0,41,,,,,,,,,,,,,,,,,,0.0,0.0,0.0,0.0,1.0,,,,,,,,,,
0.0,1.0,0.79835,,,,,,ladder_15s.jpg,0.0,clock_5_2.png,1.0,41,,,,,,,,,,,,,,,,,,0.0,1.0,1.0,1.0,1.0,,,,,,,,,,
0.0,1.0,0.864875,,,,,,lantern_04s.jpg,0.0,clock_5_3.png,1.0,41,,,,,,,,,,,,,,,,,,0.0,2.0,2.0,2.0,1.0,,,,,,,,,,
0.0,1.0,0.5172,,,,,,cap_05s.jpg,0.0,clock_5_4.png,1.0,41,,,,,,,,,,,,,,,,,,0.0,3.0,3.0,3.0,1.0,,,,,,,,,,
0.0,1.0,1.049015,,,,,,boar_10s.jpg,0.0,clock_5_5.png,1.0,41,,,,,,,,,,,,,,,,,,0.0,4.0,4.0,4.0,1.0,,,,,,,,,,
0.0,1.0,1.24442,,,,,,ring_03s.jpg,0.0,clock_7_1.png,2.0,41,,,,,,,,,,,,,,,,,,0.0,5.0,5.0,5.0,1.0,,,,,,,,,,
0.0,1.0,0.68131,,,,,,kimono_13s.jpg,0.0,clock_7_2.png,2.0,41,,,,,,,,,,,,,,,,,,0.0,6.0,6.0,6.0,1.0,,,,,,,,,,
0.0,1.0,0.85232,,,,,,pacifier_09s.jpg,0.0,clock_7_3.png,2.0,41,,,,,,,,,,,,,,,,,,0.0,7.0,7.0,7.0,1.0,,,,,,,,,,
0.0,1.0,0.656725,,,,,,cape_11s.jpg,0.0,clock_7_4.png,2.0,41,,,,,,,,,,,,,,,,,,0.0,8.0,8.0,8.0,1.0,,,,,,,,,,
0.0,1.0,0.631495,,,,,,spider_web_03s.jpg,0.0,clock_7_5.png,2.0,41,,,,,,,,,,,,,,,,,,0.0,9.0,9.0,9.0,1.0,,,,,,,,,,
0.0,1.0,0.54448,,,,,,pancake_12s.jpg,0.0,clock_7_6.png,2.0,41,,,,,,,,,,,,,,,,,,0.0,10.0,10.0,10.0,1.0,,,,,,,,,,
1.0,1.0,0.84457,,,,,,pancake_12s.jpg,1.0,clock_7_7.png,2.0,41,,,,,,,,,,,,,,,,,,0.0,11.0,11.0,11.0,1.0,,,,,,,,,,
0.0,1.0,0.552425,,,,,,tulip_02s.jpg,0.0,clock_6_1.png,3.0,41,,,,,,,,,,,,,,,,,,0.0,12.0,12.0,12.0,1.0,,,,,,,,,,
0.0,1.0,1.116885,,,,,,pacifier_09s.jpg,0.0,clock_6_2.png,3.0,41,,,,,,,,,,,,,,,,,,0.0,13.0,13.0,13.0,1.0,,,,,,,,,,
0.0,1.0,0.51364,,,,,,gas_mask_11s.jpg,0.0,clock_6_3.png,3.0,41,,,,,,,,,,,,,,,,,,0.0,14.0,14.0,14.0,1.0,,,,,,,,,,
0.0,1.0,0.57176,,,,,,torch_02s.jpg,0.0,clock_6_4.png,3.0,41,,,,,,,,,,,,,,,,,,0.0,15.0,15.0,15.0,1.0,,,,,,,,,,
0.0,1.0,1.082185,,,,,,powder_07s.jpg,0.0,clock_6_5.png,3.0,41,,,,,,,,,,,,,,,,,,0.0,16.0,16.0,16.0,1.0,,,,,,,,,,
0.0,1.0,0.524005,,,,,,lamppost_09s.jpg,0.0,clock_6_6.png,3.0,41,,,,,,,,,,,,,,,,,,0.0,17.0,17.0,17.0,1.0,,,,,,,,,,
0.0,1.0,0.515425,,,,,,rug_09s.jpg,0.0,clock_7_1.png,4.0,41,,,,,,,,,,,,,,,,,,0.0,18.0,18.0,18.0,1.0,,,,,,,,,,
0.0,0.0,0.821075,,,,,,rug_09s.jpg,1.0,clock_7_2.png,4.0,41,,,,,,,,,,,,,,,,,,0.0,19.0,19.0,19.0,1.0,,,,,,,,,,
0.0,1.0,0.60901,,,,,,pencil_sharpener_09n.jpg,0.0,clock_7_3.png,4.0,41,,,,,,,,,,,,,,,,,,0.0,20.0,20.0,20.0,1.0,,,,,,,,,,
0.0,1.0,0.39774,,,,,,trumpet_06s.jpg,0.0,clock_7_4.png,4.0,41,,,,,,,,,,,,,,,,,,0.0,21.0,21.0,21.0,1.0,,,,,,,,,,
0.0,1.0,1.088495,,,,,,typewriter_11s.jpg,0.0,clock_7_5.png,4.0,41,,,,,,,,,,,,,,,,,,0.0,22.0,22.0,22.0,1.0,,,,,,,,,,
0.0,1.0,0.636535,,,,,,swan_11s.jpg,0.0,clock_7_6.png,4.0,41,,,,,,,,,,,,,,,,,,0.0,23.0,23.0,23.0,1.0,,,,,,,,,,
0.0,1.0,1.329545,,,,,,torch_02s.jpg,0.0,clock_7_7.png,4.0,41,,,,,,,,,,,,,,,,,,0.0,24.0,24.0,24.0,1.0,,,,,,,,,,
0.0,1.0,0.70057,,,,,,submarine_11n.jpg,0.0,clock_6_1.png,5.0,41,,,,,,,,,,,,,,,,,,0.0,25.0,25.0,25.0,1.0,,,,,,,,,,
0.0,1.0,0.73624,,,,,,popcorn_09s.jpg,0.0,clock_6_2.png,5.0,41,,,,,,,,,,,,,,,,,,0.0,26.0,26.0,26.0,1.0,,,,,,,,,,
0.0,1.0,0.62044,,,,,,turnstile_08s.jpg,0.0,clock_6_3.png,5.0,41,,,,,,,,,,,,,,,,,,0.0,27.0,27.0,27.0,1.0,,,,,,,,,,
0.0,1.0,0.62446,,,,,,printer_09s.jpg,0.0,clock_6_4.png,5.0,41,,,,,,,,,,,,,,,,,,0.0,28.0,28.0,28.0,1.0,,,,,,,,,,
0.0,1.0,0.5881,,,,,,orange_12s.jpg,0.0,clock_6_5.png,5.0,41,,,,,,,,,,,,,,,,,,0.0,29.0,29.0,29.0,1.0,,,,,,,,,,
1.0,1.0,0.92918,,,,,,submarine_11n.jpg,1.0,clock_6_6.png,5.0,41,,,,,,,,,,,,,,,,,,0.0,30.0,30.0,30.0,1.0,,,,,,,,,,
0.0,1.0,1.933335,,,,,,red_carpet_03s.jpg,0.0,clock_5_1.png,6.0,41,,,,,,,,,,,,,,,,,,0.0,31.0,31.0,31.0,1.0,,,,,,,,,,
0.0,1.0,1.089135,,,,,,spider_web_03s.jpg,0.0,clock_5_2.png,6.0,41,,,,,,,,,,,,,,,,,,0.0,32.0,32.0,32.0,1.0,,,,,,,,,,
0.0,1.0,0.708465,,,,,,fireworks_18s.jpg,0.0,clock_5_3.png,6.0,41,,,,,,,,,,,,,,,,,,0.0,33.0,33.0,33.0,1.0,,,,,,,,,,
0.0,1.0,0.592365,,,,,,piano_13n.jpg,0.0,clock_5_4.png,6.0,41,,,,,,,,,,,,,,,,,,0.0,34.0,34.0,34.0,1.0,,,,,,,,,,
0.0,1.0,0.582025,,,,,,fondue_07s.jpg,0.0,clock_5_5.png,6.0,41,,,,,,,,,,,,,,,,,,0.0,35.0,35.0,35.0,1.0,,,,,,,,,,
,,,,,,,,,1.0,,,41,0.0,0.0,2.401255,,,,,,lantern_04s.jpg,ring_03s.jpg,,,,,,,,,,,,,0.0,0.0,0.0,0.0,1.0,,,,,
,,,,,,,,,1.0,,,41,0.0,0.0,1.134485,,,,,,cap_05s.jpg,kimono_13s.jpg,,,,,,,,,,,,,0.0,1.0,1.0,1.0,1.0,,,,,
,,,,,,,,,0.0,,,41,1.0,0.0,1.275225,,,,,,red_carpet_03s.jpg,printer_09s.jpg,,,,,,,,,,,,,0.0,2.0,2.0,2.0,1.0,,,,,
,,,,,,,,,0.0,,,41,1.0,0.0,1.05032,,,,,,boar_10s.jpg,ladder_15s.jpg,,,,,,,,,,,,,0.0,3.0,3.0,3.0,1.0,,,,,
,,,,,,,,,0.0,,,41,0.0,1.0,2.24214,,,,,,lamppost_09s.jpg,gas_mask_11s.jpg,,,,,,,,,,,,,0.0,4.0,4.0,4.0,1.0,,,,,
,,,,,,,,,1.0,,,41,1.0,1.0,1.499595,,,,,,popcorn_09s.jpg,orange_12s.jpg,,,,,,,,,,,,,0.0,5.0,5.0,5.0,1.0,,,,,
,,,,,,,,,,,,41,,,,,,,,,,,,,,,,clock_present_1_5.xlsx,clock_compare_task_1_5.xlsx,,,,,,,,,,,0.0,0.0,0.0,0.0,1.0
0.0,1.0,1.130315,,,,,,rhinoceros_02s.jpg,0.0,clock_5_1.png,1.0,41,,,,,,,,,,,,,,,,,,0.0,0.0,0.0,0.0,1.0,,,,,,,,,,
0.0,1.0,0.460355,,,,,,laundry_basket_11s.jpg,0.0,clock_5_2.png,1.0,41,,,,,,,,,,,,,,,,,,0.0,1.0,1.0,1.0,1.0,,,,,,,,,,
1.0,1.0,1.500235,,,,,,laundry_basket_11s.jpg,1.0,clock_5_3.png,1.0,41,,,,,,,,,,,,,,,,,,0.0,2.0,2.0,2.0,1.0,,,,,,,,,,
0.0,1.0,0.652195,,,,,,peeler_06s.jpg,0.0,clock_5_4.png,1.0,41,,,,,,,,,,,,,,,,,,0.0,3.0,3.0,3.0,1.0,,,,,,,,,,
0.0,1.0,0.711635,,,,,,pepper_mill_03s.jpg,0.0,clock_5_5.png,1.0,41,,,,,,,,,,,,,,,,,,0.0,4.0,4.0,4.0,1.0,,,,,,,,,,
0.0,1.0,0.62846,,,,,,eiffeltower.jpg,0.0,clock_7_1.png,2.0,41,,,,,,,,,,,,,,,,,,0.0,5.0,5.0,5.0,1.0,,,,,,,,,,
1.0,1.0,1.3286,,,,,,eiffeltower.jpg,1.0,clock_7_2.png,2.0,41,,,,,,,,,,,,,,,,,,0.0,6.0,6.0,6.0,1.0,,,,,,,,,,
0.0,1.0,0.75598,,,,,,blender_08s.jpg,0.0,clock_7_3.png,2.0,41,,,,,,,,,,,,,,,,,,0.0,7.0,7.0,7.0,1.0,,,,,,,,,,
0.0,1.0,0.60827,,,,,,treasure_08s.jpg,0.0,clock_7_4.png,2.0,41,,,,,,,,,,,,,,,,,,0.0,8.0,8.0,8.0,1.0,,,,,,,,,,
0.0,0.0,1.308665,,,,,,eiffeltower.jpg,1.0,clock_7_5.png,2.0,41,,,,,,,,,,,,,,,,,,0.0,9.0,9.0,9.0,1.0,,,,,,,,,,
0.0,1.0,0.56764,,,,,,lamb_04s.jpg,0.0,clock_7_6.png,2.0,41,,,,,,,,,,,,,,,,,,0.0,10.0,10.0,10.0,1.0,,,,,,,,,,
0.0,0.0,1.03596,,,,,,blender_08s.jpg,1.0,clock_7_7.png,2.0,41,,,,,,,,,,,,,,,,,,0.0,11.0,11.0,11.0,1.0,,,,,,,,,,
0.0,1.0,0.648515,,,,,,outlet_10s.jpg,0.0,clock_6_1.png,3.0,41,,,,,,,,,,,,,,,,,,0.0,12.0,12.0,12.0,1.0,,,,,,,,,,
0.0,1.0,0.451595,,,,,,mixer_12s.jpg,0.0,clock_6_2.png,3.0,41,,,,,,,,,,,,,,,,,,0.0,13.0,13.0,13.0,1.0,,,,,,,,,,
0.0,1.0,0.75178,,,,,,toilet_07s.jpg,0.0,clock_6_3.png,3.0,41,,,,,,,,,,,,,,,,,,0.0,14.0,14.0,14.0,1.0,,,,,,,,,,
0.0,1.0,0.581795,,,,,,keyboard_05s.jpg,0.0,clock_6_4.png,3.0,41,,,,,,,,,,,,,,,,,,0.0,15.0,15.0,15.0,1.0,,,,,,,,,,
1.0,1.0,1.520455,,,,,,toilet_07s.jpg,1.0,clock_6_5.png,3.0,41,,,,,,,,,,,,,,,,,,0.0,16.0,16.0,16.0,1.0,,,,,,,,,,
0.0,1.0,0.81972,,,,,,air_pump_05s.jpg,0.0,clock_6_6.png,3.0,41,,,,,,,,,,,,,,,,,,0.0,17.0,17.0,17.0,1.0,,,,,,,,,,
0.0,1.0,0.567395,,,,,,limousine_12s.jpg,0.0,clock_7_1.png,4.0,41,,,,,,,,,,,,,,,,,,0.0,18.0,18.0,18.0,1.0,,,,,,,,,,
1.0,1.0,1.404135,,,,,,limousine_12s.jpg,1.0,clock_7_2.png,4.0,41,,,,,,,,,,,,,,,,,,0.0,19.0,19.0,19.0,1.0,,,,,,,,,,
0.0,1.0,0.543655,,,,,,rope_16s.jpg,0.0,clock_7_3.png,4.0,41,,,,,,,,,,,,,,,,,,0.0,20.0,20.0,20.0,1.0,,,,,,,,,,
0.0,1.0,0.94925,,,,,,omelet_07s.jpg,0.0,clock_7_4.png,4.0,41,,,,,,,,,,,,,,,,,,0.0,21.0,21.0,21.0,1.0,,,,,,,,,,
0.0,1.0,0.58319,,,,,,jigsaw_puzzle_11s.jpg,0.0,clock_7_5.png,4.0,41,,,,,,,,,,,,,,,,,,0.0,22.0,22.0,22.0,1.0,,,,,,,,,,
0.0,1.0,0.548765,,,,,,taxi_15s.jpg,0.0,clock_7_6.png,4.0,41,,,,,,,,,,,,,,,,,,0.0,23.0,23.0,23.0,1.0,,,,,,,,,,
0.0,1.0,0.639065,,,,,,puck_06s.jpg,0.0,clock_7_7.png,4.0,41,,,,,,,,,,,,,,,,,,0.0,24.0,24.0,24.0,1.0,,,,,,,,,,
0.0,1.0,0.627585,,,,,,tube_top_03s.jpg,0.0,clock_5_1.png,5.0,41,,,,,,,,,,,,,,,,,,0.0,25.0,25.0,25.0,1.0,,,,,,,,,,
0.0,1.0,0.687145,,,,,,exhaust_pipe_10s.jpg,0.0,clock_5_2.png,5.0,41,,,,,,,,,,,,,,,,,,0.0,26.0,26.0,26.0,1.0,,,,,,,,,,
0.0,1.0,0.57122,,,,,,polar_bear_02s.jpg,0.0,clock_5_3.png,5.0,41,,,,,,,,,,,,,,,,,,0.0,27.0,27.0,27.0,1.0,,,,,,,,,,
0.0,1.0,0.575625,,,,,,pillow_03s.jpg,0.0,clock_5_4.png,5.0,41,,,,,,,,,,,,,,,,,,0.0,28.0,28.0,28.0,1.0,,,,,,,,,,
0.0,1.0,0.63556,,,,,,harpoon.jpg,0.0,clock_5_5.png,5.0,41,,,,,,,,,,,,,,,,,,0.0,29.0,29.0,29.0,1.0,,,,,,,,,,
0.0,1.0,1.28676,,,,,,turkey_10s.jpg,0.0,clock_6_1.png,6.0,41,,,,,,,,,,,,,,,,,,0.0,30.0,30.0,30.0,1.0,,,,,,,,,,
0.0,1.0,0.52304,,,,,,thermostat_02s.jpg,0.0,clock_6_2.png,6.0,41,,,,,,,,,,,,,,,,,,0.0,31.0,31.0,31.0,1.0,,,,,,,,,,
0.0,1.0,0.50357,,,,,,chopsticks_08s.jpg,0.0,clock_6_3.png,6.0,41,,,,,,,,,,,,,,,,,,0.0,32.0,32.0,32.0,1.0,,,,,,,,,,
0.0,1.0,0.6829,,,,,,tab_09s.jpg,0.0,clock_6_4.png,6.0,41,,,,,,,,,,,,,,,,,,0.0,33.0,33.0,33.0,1.0,,,,,,,,,,
0.0,1.0,0.727305,,,,,,breadstick_08s.jpg,0.0,clock_6_5.png,6.0,41,,,,,,,,,,,,,,,,,,0.0,34.0,34.0,34.0,1.0,,,,,,,,,,
0.0,1.0,1.099885,,,,,,rhinoceros_02s.jpg,0.0,clock_6_6.png,6.0,41,,,,,,,,,,,,,,,,,,0.0,35.0,35.0,35.0,1.0,,,,,,,,,,
,,,,,,,,,0.0,,,41,0.0,1.0,1.648895,,,,,,mixer_12s.jpg,lamb_04s.jpg,,,,,,,,,,,,,0.0,0.0,0.0,0.0,1.0,,,,,
,,,,,,,,,0.0,,,41,1.0,0.0,2.305125,,,,,,rope_16s.jpg,air_pump_05s.jpg,,,,,,,,,,,,,0.0,1.0,1.0,1.0,1.0,,,,,
,,,,,,,,,1.0,,,41,1.0,1.0,1.799835,,,,,,jigsaw_puzzle_11s.jpg,tube_top_03s.jpg,,,,,,,,,,,,,0.0,2.0,2.0,2.0,1.0,,,,,
,,,,,,,,,1.0,,,41,1.0,1.0,1.751215,,,,,,outlet_10s.jpg,keyboard_05s.jpg,,,,,,,,,,,,,0.0,3.0,3.0,3.0,1.0,,,,,
,,,,,,,,,0.0,,,41,0.0,1.0,1.917715,,,,,,puck_06s.jpg,omelet_07s.jpg,,,,,,,,,,,,,0.0,4.0,4.0,4.0,1.0,,,,,
,,,,,,,,,1.0,,,41,1.0,1.0,1.49555,,,,,,turkey_10s.jpg,tab_09s.jpg,,,,,,,,,,,,,0.0,5.0,5.0,5.0,1.0,,,,,
,,,,,,,,,,,,41,,,,,,,,,,,,,,,,clock_present_2_5.xlsx,clock_compare_task_2_5.xlsx,,,,,,,,,,,0.0,1.0,1.0,1.0,1.0
0.0,1.0,0.86173,,,,,,pumpkin_03s.jpg,0.0,clock_7_1.png,1.0,41,,,,,,,,,,,,,,,,,,0.0,0.0,0.0,0.0,1.0,,,,,,,,,,
0.0,1.0,0.58994,,,,,,bottle_opener_11s.jpg,0.0,clock_7_2.png,1.0,41,,,,,,,,,,,,,,,,,,0.0,1.0,1.0,1.0,1.0,,,,,,,,,,
0.0,1.0,0.60143,,,,,,tupperware_09s.jpg,0.0,clock_7_3.png,1.0,41,,,,,,,,,,,,,,,,,,0.0,2.0,2.0,2.0,1.0,,,,,,,,,,
0.0,1.0,0.63054,,,,,,mango_09s.jpg,0.0,clock_7_4.png,1.0,41,,,,,,,,,,,,,,,,,,0.0,3.0,3.0,3.0,1.0,,,,,,,,,,
0.0,1.0,0.737675,,,,,,marker_05s.jpg,0.0,clock_7_5.png,1.0,41,,,,,,,,,,,,,,,,,,0.0,4.0,4.0,4.0,1.0,,,,,,,,,,
0.0,1.0,0.557625,,,,,,bean_06s.jpg,0.0,clock_7_6.png,1.0,41,,,,,,,,,,,,,,,,,,0.0,5.0,5.0,5.0,1.0,,,,,,,,,,
0.0,1.0,0.73075,,,,,,pear_02s.jpg,0.0,clock_7_7.png,1.0,41,,,,,,,,,,,,,,,,,,0.0,6.0,6.0,6.0,1.0,,,,,,,,,,
0.0,1.0,0.781575,,,,,,clover_04s.jpg,0.0,clock_5_1.png,2.0,41,,,,,,,,,,,,,,,,,,0.0,7.0,7.0,7.0,1.0,,,,,,,,,,
0.0,1.0,0.48942,,,,,,perfume_06s.jpg,0.0,clock_5_2.png,2.0,41,,,,,,,,,,,,,,,,,,0.0,8.0,8.0,8.0,1.0,,,,,,,,,,
0.0,1.0,0.637715,,,,,,spacesuit_02s.jpg,0.0,clock_5_3.png,2.0,41,,,,,,,,,,,,,,,,,,0.0,9.0,9.0,9.0,1.0,,,,,,,,,,
0.0,1.0,0.53065,,,,,,recliner_02s.jpg,0.0,clock_5_4.png,2.0,41,,,,,,,,,,,,,,,,,,0.0,10.0,10.0,10.0,1.0,,,,,,,,,,
0.0,1.0,0.50906,,,,,,hyena_16s.jpg,0.0,clock_5_5.png,2.0,41,,,,,,,,,,,,,,,,,,0.0,11.0,11.0,11.0,1.0,,,,,,,,,,
0.0,1.0,0.658385,,,,,,bolo_tie_08s.jpg,0.0,clock_7_1.png,3.0,41,,,,,,,,,,,,,,,,,,0.0,12.0,12.0,12.0,1.0,,,,,,,,,,
0.0,1.0,0.510035,,,,,,plaster_cast_13s.jpg,0.0,clock_7_2.png,3.0,41,,,,,,,,,,,,,,,,,,0.0,13.0,13.0,13.0,1.0,,,,,,,,,,
0.0,1.0,0.497925,,,,,,badge_03s.jpg,0.0,clock_7_3.png,3.0,41,,,,,,,,,,,,,,,,,,0.0,14.0,14.0,14.0,1.0,,,,,,,,,,
0.0,1.0,0.941975,,,,,,swordfish_05s.jpg,0.0,clock_7_4.png,3.0,41,,,,,,,,,,,,,,,,,,0.0,15.0,15.0,15.0,1.0,,,,,,,,,,
0.0,1.0,1.315205,,,,,,perfume_06s.jpg,0.0,clock_7_5.png,3.0,41,,,,,,,,,,,,,,,,,,0.0,16.0,16.0,16.0,1.0,,,,,,,,,,
0.0,1.0,0.806455,,,,,,pear_02s.jpg,0.0,clock_7_6.png,3.0,41,,,,,,,,,,,,,,,,,,0.0,17.0,17.0,17.0,1.0,,,,,,,,,,
0.0,1.0,0.618155,,,,,,quill_09s.jpg,0.0,clock_7_7.png,3.0,41,,,,,,,,,,,,,,,,,,0.0,18.0,18.0,18.0,1.0,,,,,,,,,,
0.0,1.0,0.573035,,,,,,mop_08s.jpg,0.0,clock_6_1.png,4.0,41,,,,,,,,,,,,,,,,,,0.0,19.0,19.0,19.0,1.0,,,,,,,,,,
0.0,1.0,0.914035,,,,,,plaster_cast_13s.jpg,0.0,clock_6_2.png,4.0,41,,,,,,,,,,,,,,,,,,0.0,20.0,20.0,20.0,1.0,,,,,,,,,,
0.0,1.0,0.557915,,,,,,parachute_03s.jpg,0.0,clock_6_3.png,4.0,41,,,,,,,,,,,,,,,,,,0.0,21.0,21.0,21.0,1.0,,,,,,,,,,
0.0,1.0,0.71411,,,,,,inhaler_01b.jpg,0.0,clock_6_4.png,4.0,41,,,,,,,,,,,,,,,,,,0.0,22.0,22.0,22.0,1.0,,,,,,,,,,
0.0,1.0,0.548825,,,,,,diving_board_07s.jpg,0.0,clock_6_5.png,4.0,41,,,,,,,,,,,,,,,,,,0.0,23.0,23.0,23.0,1.0,,,,,,,,,,
0.0,1.0,0.689745,,,,,,lion_18s.jpg,0.0,clock_6_6.png,4.0,41,,,,,,,,,,,,,,,,,,0.0,24.0,24.0,24.0,1.0,,,,,,,,,,
0.0,1.0,1.173845,,,,,,onion_10s.jpg,0.0,clock_6_1.png,5.0,41,,,,,,,,,,,,,,,,,,0.0,25.0,25.0,25.0,1.0,,,,,,,,,,
0.0,1.0,0.59364,,,,,,throne_11s.jpg,0.0,clock_6_2.png,5.0,41,,,,,,,,,,,,,,,,,,0.0,26.0,26.0,26.0,1.0,,,,,,,,,,
0.0,1.0,0.573255,,,,,,quad_04s.jpg,0.0,clock_6_3.png,5.0,41,,,,,,,,,,,,,,,,,,0.0,27.0,27.0,27.0,1.0,,,,,,,,,,
0.0,1.0,0.6421,,,,,,roulette_wheel_04s.jpg,0.0,clock_6_4.png,5.0,41,,,,,,,,,,,,,,,,,,0.0,28.0,28.0,28.0,1.0,,,,,,,,,,
0.0,1.0,0.677855,,,,,,puppy_08s.jpg,0.0,clock_6_5.png,5.0,41,,,,,,,,,,,,,,,,,,0.0,29.0,29.0,29.0,1.0,,,,,,,,,,
0.0,1.0,0.601305,,,,,,thorn_13s.jpg,0.0,clock_6_6.png,5.0,41,,,,,,,,,,,,,,,,,,0.0,30.0,30.0,30.0,1.0,,,,,,,,,,
0.0,1.0,0.509305,,,,,,mirror_12s.jpg,0.0,clock_5_1.png,6.0,41,,,,,,,,,,,,,,,,,,0.0,31.0,31.0,31.0,1.0,,,,,,,,,,
0.0,1.0,0.59368,,,,,,police_car_01s.jpg,0.0,clock_5_2.png,6.0,41,,,,,,,,,,,,,,,,,,0.0,32.0,32.0,32.0,1.0,,,,,,,,,,
1.0,1.0,1.38206,,,,,,mirror_12s.jpg,1.0,clock_5_3.png,6.0,41,,,,,,,,,,,,,,,,,,0.0,33.0,33.0,33.0,1.0,,,,,,,,,,
0.0,1.0,0.60106,,,,,,rooster_03s.jpg,0.0,clock_5_4.png,6.0,41,,,,,,,,,,,,,,,,,,0.0,34.0,34.0,34.0,1.0,,,,,,,,,,
0.0,1.0,0.60459,,,,,,trampoline_13s.jpg,0.0,clock_5_5.png,6.0,41,,,,,,,,,,,,,,,,,,0.0,35.0,35.0,35.0,1.0,,,,,,,,,,
,,,,,,,,,0.0,,,41,1.0,0.0,3.83051,,,,,,badge_03s.jpg,hyena_16s.jpg,,,,,,,,,,,,,0.0,0.0,0.0,0.0,1.0,,,,,
,,,,,,,,,1.0,,,41,0.0,0.0,1.532425,,,,,,spacesuit_02s.jpg,bolo_tie_08s.jpg,,,,,,,,,,,,,0.0,1.0,1.0,1.0,1.0,,,,,
,,,,,,,,,0.0,,,41,1.0,0.0,3.06387,,,,,,throne_11s.jpg,diving_board_07s.jpg,,,,,,,,,,,,,0.0,2.0,2.0,2.0,1.0,,,,,
,,,,,,,,,0.0,,,41,1.0,0.0,4.878235,,,,,,mango_09s.jpg,pumpkin_03s.jpg,,,,,,,,,,,,,0.0,3.0,3.0,3.0,1.0,,,,,
,,,,,,,,,1.0,,,41,1.0,1.0,1.873945,,,,,,tupperware_09s.jpg,bean_06s.jpg,,,,,,,,,,,,,0.0,4.0,4.0,4.0,1.0,,,,,
,,,,,,,,,1.0,,,41,1.0,1.0,1.14501,,,,,,bottle_opener_11s.jpg,marker_05s.jpg,,,,,,,,,,,,,0.0,5.0,5.0,5.0,1.0,,,,,
,,,,,,,,,,,,41,,,,,,,,,,,,,,,,clock_present_3_5.xlsx,clock_compare_task_3_5.xlsx,,,,,,,,,,,0.0,2.0,2.0,2.0,1.0
0.0,1.0,1.43945,,,,,,ginger_09s.jpg,0.0,clock_6_1.png,1.0,41,,,,,,,,,,,,,,,,,,0.0,0.0,0.0,0.0,1.0,,,,,,,,,,
0.0,1.0,1.91596,,,,,,letter_opener_03s.jpg,0.0,clock_6_2.png,1.0,41,,,,,,,,,,,,,,,,,,0.0,1.0,1.0,1.0,1.0,,,,,,,,,,
0.0,1.0,0.65348,,,,,,loveseat_08s.jpg,0.0,clock_6_3.png,1.0,41,,,,,,,,,,,,,,,,,,0.0,2.0,2.0,2.0,1.0,,,,,,,,,,
1.0,1.0,1.577225,,,,,,letter_opener_03s.jpg,1.0,clock_6_4.png,1.0,41,,,,,,,,,,,,,,,,,,0.0,3.0,3.0,3.0,1.0,,,,,,,,,,
1.0,1.0,1.582525,,,,,,loveseat_08s.jpg,1.0,clock_6_5.png,1.0,41,,,,,,,,,,,,,,,,,,0.0,4.0,4.0,4.0,1.0,,,,,,,,,,
0.0,1.0,0.73127,,,,,,towel_rack_04s.jpg,0.0,clock_6_6.png,1.0,41,,,,,,,,,,,,,,,,,,0.0,5.0,5.0,5.0,1.0,,,,,,,,,,
0.0,1.0,0.76528,,,,,,rollerskate_03s.jpg,0.0,clock_5_1.png,2.0,41,,,,,,,,,,,,,,,,,,0.0,6.0,6.0,6.0,1.0,,,,,,,,,,
0.0,1.0,0.62544,,,,,,puddle_02s.jpg,0.0,clock_5_2.png,2.0,41,,,,,,,,,,,,,,,,,,0.0,7.0,7.0,7.0,1.0,,,,,,,,,,
0.0,0.0,1.854315,,,,,,rollerskate_03s.jpg,1.0,clock_5_3.png,2.0,41,,,,,,,,,,,,,,,,,,0.0,8.0,8.0,8.0,1.0,,,,,,,,,,
0.0,1.0,0.601415,,,,,,dirt_bike_11s.jpg,0.0,clock_5_4.png,2.0,41,,,,,,,,,,,,,,,,,,0.0,9.0,9.0,9.0,1.0,,,,,,,,,,
0.0,1.0,1.317535,,,,,,prism_10s.jpg,0.0,clock_5_5.png,2.0,41,,,,,,,,,,,,,,,,,,0.0,10.0,10.0,10.0,1.0,,,,,,,,,,
0.0,1.0,0.80913,,,,,,kayak_08s.jpg,0.0,clock_7_1.png,3.0,41,,,,,,,,,,,,,,,,,,0.0,11.0,11.0,11.0,1.0,,,,,,,,,,
0.0,1.0,0.63719,,,,,,rock_08s.jpg,0.0,clock_7_2.png,3.0,41,,,,,,,,,,,,,,,,,,0.0,12.0,12.0,12.0,1.0,,,,,,,,,,
0.0,1.0,0.649515,,,,,,tile_08s.jpg,0.0,clock_7_3.png,3.0,41,,,,,,,,,,,,,,,,,,0.0,13.0,13.0,13.0,1.0,,,,,,,,,,
1.0,0.0,2.141735,,,,,,dirt_bike_11s.jpg,0.0,clock_7_4.png,3.0,41,,,,,,,,,,,,,,,,,,0.0,14.0,14.0,14.0,1.0,,,,,,,,,,
0.0,1.0,1.177535,,,,,,ginger_09s.jpg,0.0,clock_7_5.png,3.0,41,,,,,,,,,,,,,,,,,,0.0,15.0,15.0,15.0,1.0,,,,,,,,,,
0.0,0.0,1.02164,,,,,,tile_08s.jpg,1.0,clock_7_6.png,3.0,41,,,,,,,,,,,,,,,,,,0.0,16.0,16.0,16.0,1.0,,,,,,,,,,
0.0,1.0,1.80137,,,,,,camcorder_10s.jpg,0.0,clock_7_7.png,3.0,41,,,,,,,,,,,,,,,,,,0.0,17.0,17.0,17.0,1.0,,,,,,,,,,
0.0,1.0,0.901185,,,,,,jet_15s.jpg,0.0,clock_6_1.png,4.0,41,,,,,,,,,,,,,,,,,,0.0,18.0,18.0,18.0,1.0,,,,,,,,,,
1.0,1.0,1.72128,,,,,,jet_15s.jpg,1.0,clock_6_2.png,4.0,41,,,,,,,,,,,,,,,,,,0.0,19.0,19.0,19.0,1.0,,,,,,,,,,
0.0,1.0,0.621285,,,,,,kitten_07s.jpg,0.0,clock_6_3.png,4.0,41,,,,,,,,,,,,,,,,,,0.0,20.0,20.0,20.0,1.0,,,,,,,,,,
1.0,1.0,1.80148,,,,,,jet_15s.jpg,1.0,clock_6_4.png,4.0,41,,,,,,,,,,,,,,,,,,0.0,21.0,21.0,21.0,1.0,,,,,,,,,,
0.0,1.0,1.157155,,,,,,chime_12s.jpg,0.0,clock_6_5.png,4.0,41,,,,,,,,,,,,,,,,,,0.0,22.0,22.0,22.0,1.0,,,,,,,,,,
0.0,1.0,1.54497,,,,,,eggshell_14s.jpg,0.0,clock_6_6.png,4.0,41,,,,,,,,,,,,,,,,,,0.0,23.0,23.0,23.0,1.0,,,,,,,,,,
,0.0,,,,,,,luggage_08s.jpg,0.0,clock_7_1.png,5.0,41,,,,,,,,,,,,,,,,,,0.0,24.0,24.0,24.0,1.0,,,,,,,,,,
0.0,1.0,1.809065,,,,,,mascara_03s.jpg,0.0,clock_7_2.png,5.0,41,,,,,,,,,,,,,,,,,,0.0,25.0,25.0,25.0,1.0,,,,,,,,,,
0.0,1.0,1.46872,,,,,,cotton_candy_01b.jpg,0.0,clock_7_3.png,5.0,41,,,,,,,,,,,,,,,,,,0.0,26.0,26.0,26.0,1.0,,,,,,,,,,
0.0,1.0,0.715645,,,,,,ruby_15s.jpg,0.0,clock_7_4.png,5.0,41,,,,,,,,,,,,,,,,,,0.0,27.0,27.0,27.0,1.0,,,,,,,,,,
0.0,1.0,1.33287,,,,,,razor_blade_01b.jpg,0.0,clock_7_5.png,5.0,41,,,,,,,,,,,,,,,,,,0.0,28.0,28.0,28.0,1.0,,,,,,,,,,
0.0,1.0,0.92888,,,,,,hydrant_10s.jpg,0.0,clock_7_6.png,5.0,41,,,,,,,,,,,,,,,,,,0.0,29.0,29.0,29.0,1.0,,,,,,,,,,
0.0,1.0,0.716585,,,,,,mushroom_10n.jpg,0.0,clock_7_7.png,5.0,41,,,,,,,,,,,,,,,,,,0.0,30.0,30.0,30.0,1.0,,,,,,,,,,
0.0,1.0,0.960605,,,,,,turtle_08s.jpg,0.0,clock_5_1.png,6.0,41,,,,,,,,,,,,,,,,,,0.0,31.0,31.0,31.0,1.0,,,,,,,,,,
0.0,1.0,1.05297,,,,,,sparkler_02s.jpg,0.0,clock_5_2.png,6.0,41,,,,,,,,,,,,,,,,,,0.0,32.0,32.0,32.0,1.0,,,,,,,,,,
0.0,1.0,0.736755,,,,,,tambourine_06s.jpg,0.0,clock_5_3.png,6.0,41,,,,,,,,,,,,,,,,,,0.0,33.0,33.0,33.0,1.0,,,,,,,,,,
0.0,1.0,0.86863,,,,,,lavender_10s.jpg,0.0,clock_5_4.png,6.0,41,,,,,,,,,,,,,,,,,,0.0,34.0,34.0,34.0,1.0,,,,,,,,,,
1.0,1.0,1.27276,,,,,,lavender_10s.jpg,1.0,clock_5_5.png,6.0,41,,,,,,,,,,,,,,,,,,0.0,35.0,35.0,35.0,1.0,,,,,,,,,,
,,,,,,,,,0.0,,,41,0.0,1.0,2.484205,,,,,,kitten_07s.jpg,camcorder_10s.jpg,,,,,,,,,,,,,0.0,0.0,0.0,0.0,1.0,,,,,
,,,,,,,,,0.0,,,41,1.0,0.0,2.011835,,,,,,mascara_03s.jpg,chime_12s.jpg,,,,,,,,,,,,,0.0,1.0,1.0,1.0,1.0,,,,,
,,,,,,,,,0.0,,,41,0.0,1.0,1.612365,,,,,,turtle_08s.jpg,razor_blade_01b.jpg,,,,,,,,,,,,,0.0,2.0,2.0,2.0,1.0,,,,,
,,,,,,,,,1.0,,,41,0.0,0.0,1.01692,,,,,,puddle_02s.jpg,prism_10s.jpg,,,,,,,,,,,,,0.0,3.0,3.0,3.0,1.0,,,,,
,,,,,,,,,0.0,,,41,1.0,0.0,1.45036,,,,,,ruby_15s.jpg,luggage_08s.jpg,,,,,,,,,,,,,0.0,4.0,4.0,4.0,1.0,,,,,
,,,,,,,,,1.0,,,41,0.0,0.0,1.687215,,,,,,cotton_candy_01b.jpg,hydrant_10s.jpg,,,,,,,,,,,,,0.0,5.0,5.0,5.0,1.0,,,,,
,,,,,,,,,,,,41,,,,,,,,,,,,,,,,clock_present_4_5.xlsx,clock_compare_task_4_5.xlsx,,,,,,,,,,,0.0,3.0,3.0,3.0,1.0
0.0,1.0,2.09645,,,,,,marshmallow_08s.jpg,0.0,clock_5_1.png,1.0,41,,,,,,,,,,,,,,,,,,0.0,0.0,0.0,0.0,1.0,,,,,,,,,,
0.0,1.0,0.61895,,,,,,coat_rack_01b.jpg,0.0,clock_5_2.png,1.0,41,,,,,,,,,,,,,,,,,,0.0,1.0,1.0,1.0,1.0,,,,,,,,,,
0.0,1.0,0.63929,,,,,,coral_08s.jpg,0.0,clock_5_3.png,1.0,41,,,,,,,,,,,,,,,,,,0.0,2.0,2.0,2.0,1.0,,,,,,,,,,
0.0,1.0,0.7073,,,,,,fox_13s.jpg,0.0,clock_5_4.png,1.0,41,,,,,,,,,,,,,,,,,,0.0,3.0,3.0,3.0,1.0,,,,,,,,,,
0.0,1.0,0.623245,,,,,,stethoscope_01b.jpg,0.0,clock_5_5.png,1.0,41,,,,,,,,,,,,,,,,,,0.0,4.0,4.0,4.0,1.0,,,,,,,,,,
0.0,1.0,0.443125,,,,,,moth_06n.jpg,0.0,clock_6_1.png,2.0,41,,,,,,,,,,,,,,,,,,0.0,5.0,5.0,5.0,1.0,,,,,,,,,,
0.0,1.0,0.50324,,,,,,licorice_06s.jpg,0.0,clock_6_2.png,2.0,41,,,,,,,,,,,,,,,,,,0.0,6.0,6.0,6.0,1.0,,,,,,,,,,
0.0,1.0,0.68286,,,,,,sleeping_bag_12s.jpg,0.0,clock_6_3.png,2.0,41,,,,,,,,,,,,,,,,,,0.0,7.0,7.0,7.0,1.0,,,,,,,,,,
0.0,1.0,0.69906,,,,,,treadmill_06s.jpg,0.0,clock_6_4.png,2.0,41,,,,,,,,,,,,,,,,,,0.0,8.0,8.0,8.0,1.0,,,,,,,,,,
0.0,1.0,0.675185,,,,,,bathtub_23s.jpg,0.0,clock_6_5.png,2.0,41,,,,,,,,,,,,,,,,,,0.0,9.0,9.0,9.0,1.0,,,,,,,,,,
0.0,1.0,0.470785,,,,,,film_03s.jpg,0.0,clock_6_6.png,2.0,41,,,,,,,,,,,,,,,,,,0.0,10.0,10.0,10.0,1.0,,,,,,,,,,
0.0,1.0,0.538885,,,,,,trident_07s.jpg,0.0,clock_7_1.png,3.0,41,,,,,,,,,,,,,,,,,,0.0,11.0,11.0,11.0,1.0,,,,,,,,,,
0.0,1.0,0.55932,,,,,,coffee_filter_10s.jpg,0.0,clock_7_2.png,3.0,41,,,,,,,,,,,,,,,,,,0.0,12.0,12.0,12.0,1.0,,,,,,,,,,
0.0,1.0,0.658995,,,,,,mud_13s.jpg,0.0,clock_7_3.png,3.0,41,,,,,,,,,,,,,,,,,,0.0,13.0,13.0,13.0,1.0,,,,,,,,,,
0.0,1.0,0.56692,,,,,,fire_alarm_05s.jpg,0.0,clock_7_4.png,3.0,41,,,,,,,,,,,,,,,,,,0.0,14.0,14.0,14.0,1.0,,,,,,,,,,
1.0,1.0,1.571025,,,,,,mud_13s.jpg,1.0,clock_7_5.png,3.0,41,,,,,,,,,,,,,,,,,,0.0,15.0,15.0,15.0,1.0,,,,,,,,,,
0.0,1.0,0.53494,,,,,,timer_03s.jpg,0.0,clock_7_6.png,3.0,41,,,,,,,,,,,,,,,,,,0.0,16.0,16.0,16.0,1.0,,,,,,,,,,
0.0,1.0,0.603045,,,,,,pea_11s.jpg,0.0,clock_7_7.png,3.0,41,,,,,,,,,,,,,,,,,,0.0,17.0,17.0,17.0,1.0,,,,,,,,,,
0.0,1.0,0.518775,,,,,,flask_04s.jpg,0.0,clock_5_1.png,4.0,41,,,,,,,,,,,,,,,,,,0.0,18.0,18.0,18.0,1.0,,,,,,,,,,
0.0,1.0,0.63431,,,,,,iron_13s.jpg,0.0,clock_5_2.png,4.0,41,,,,,,,,,,,,,,,,,,0.0,19.0,19.0,19.0,1.0,,,,,,,,,,
0.0,1.0,1.039405,,,,,,trident_07s.jpg,0.0,clock_5_3.png,4.0,41,,,,,,,,,,,,,,,,,,0.0,20.0,20.0,20.0,1.0,,,,,,,,,,
0.0,1.0,0.79445,,,,,,memory_stick_11s.jpg,0.0,clock_5_4.png,4.0,41,,,,,,,,,,,,,,,,,,0.0,21.0,21.0,21.0,1.0,,,,,,,,,,
0.0,1.0,0.75057,,,,,,oil_02s.jpg,0.0,clock_5_5.png,4.0,41,,,,,,,,,,,,,,,,,,0.0,22.0,22.0,22.0,1.0,,,,,,,,,,
0.0,1.0,0.85043,,,,,,coconut_08s.jpg,0.0,clock_7_1.png,5.0,41,,,,,,,,,,,,,,,,,,0.0,23.0,23.0,23.0,1.0,,,,,,,,,,
1.0,1.0,1.519135,,,,,,coconut_08s.jpg,1.0,clock_7_2.png,5.0,41,,,,,,,,,,,,,,,,,,0.0,24.0,24.0,24.0,1.0,,,,,,,,,,
0.0,1.0,0.722615,,,,,,jelly_bean_06s.jpg,0.0,clock_7_3.png,5.0,41,,,,,,,,,,,,,,,,,,0.0,25.0,25.0,25.0,1.0,,,,,,,,,,
0.0,1.0,0.87035,,,,,,ice-cream_cone_06s.jpg,0.0,clock_7_4.png,5.0,41,,,,,,,,,,,,,,,,,,0.0,26.0,26.0,26.0,1.0,,,,,,,,,,
0.0,1.0,2.40247,,,,,,mud_13s.jpg,0.0,clock_7_5.png,5.0,41,,,,,,,,,,,,,,,,,,0.0,27.0,27.0,27.0,1.0,,,,,,,,,,
0.0,1.0,0.622445,,,,,,feather02.jpg,0.0,clock_7_6.png,5.0,41,,,,,,,,,,,,,,,,,,0.0,28.0,28.0,28.0,1.0,,,,,,,,,,
0.0,1.0,0.68232,,,,,,ukulele_02s.jpg,0.0,clock_7_7.png,5.0,41,,,,,,,,,,,,,,,,,,0.0,29.0,29.0,29.0,1.0,,,,,,,,,,
0.0,1.0,0.598825,,,,,,snowman_02s.jpg,0.0,clock_6_1.png,6.0,41,,,,,,,,,,,,,,,,,,0.0,30.0,30.0,30.0,1.0,,,,,,,,,,
0.0,1.0,0.58606,,,,,,lifesaver_10s.jpg,0.0,clock_6_2.png,6.0,41,,,,,,,,,,,,,,,,,,0.0,31.0,31.0,31.0,1.0,,,,,,,,,,
1.0,1.0,1.42314,,,,,,lifesaver_10s.jpg,1.0,clock_6_3.png,6.0,41,,,,,,,,,,,,,,,,,,0.0,32.0,32.0,32.0,1.0,,,,,,,,,,
0.0,1.0,1.290475,,,,,,scooter.jpg,0.0,clock_6_4.png,6.0,41,,,,,,,,,,,,,,,,,,0.0,33.0,33.0,33.0,1.0,,,,,,,,,,
0.0,1.0,0.88617,,,,,,compass_10n.jpg,0.0,clock_6_5.png,6.0,41,,,,,,,,,,,,,,,,,,0.0,34.0,34.0,34.0,1.0,,,,,,,,,,
0.0,1.0,0.786095,,,,,,denture_03s.jpg,0.0,clock_6_6.png,6.0,41,,,,,,,,,,,,,,,,,,0.0,35.0,35.0,35.0,1.0,,,,,,,,,,
,,,,,,,,,0.0,,,41,1.0,0.0,2.458995,,,,,,moth_06n.jpg,coral_08s.jpg,,,,,,,,,,,,,0.0,0.0,0.0,0.0,1.0,,,,,
,,,,,,,,,1.0,,,41,0.0,0.0,1.418285,,,,,,bathtub_23s.jpg,coffee_filter_10s.jpg,,,,,,,,,,,,,0.0,1.0,1.0,1.0,1.0,,,,,
,,,,,,,,,1.0,,,41,0.0,0.0,1.10762,,,,,,timer_03s.jpg,iron_13s.jpg,,,,,,,,,,,,,0.0,2.0,2.0,2.0,1.0,,,,,
,,,,,,,,,1.0,,,41,1.0,1.0,1.88935,,,,,,fire_alarm_05s.jpg,pea_11s.jpg,,,,,,,,,,,,,0.0,3.0,3.0,3.0,1.0,,,,,
,,,,,,,,,1.0,,,41,1.0,1.0,1.40061,,,,,,flask_04s.jpg,memory_stick_11s.jpg,,,,,,,,,,,,,0.0,4.0,4.0,4.0,1.0,,,,,
,,,,,,,,,0.0,,,41,1.0,0.0,2.21791,,,,,,ukulele_02s.jpg,ice-cream_cone_06s.jpg,,,,,,,,,,,,,0.0,5.0,5.0,5.0,1.0,,,,,
,,,,,,,,,,,,41,,,,,,,,,,,,,,,,clock_present_5_5.xlsx,clock_compare_task_5_5.xlsx,,,,,,,,,,,0.0,4.0,4.0,4.0,1.0
0.0,1.0,1.46559,,,,,,sledgehammer_03s.jpg,0.0,clock_6_1.png,1.0,41,,,,,,,,,,,,,,,,,,0.0,0.0,0.0,0.0,1.0,,,,,,,,,,
0.0,1.0,0.947645,,,,,,basket_05s.jpg,0.0,clock_6_2.png,1.0,41,,,,,,,,,,,,,,,,,,0.0,1.0,1.0,1.0,1.0,,,,,,,,,,
0.0,1.0,0.59989,,,,,,go-kart_10s.jpg,0.0,clock_6_3.png,1.0,41,,,,,,,,,,,,,,,,,,0.0,2.0,2.0,2.0,1.0,,,,,,,,,,
0.0,1.0,0.564345,,,,,,sunglasses_11s.jpg,0.0,clock_6_4.png,1.0,41,,,,,,,,,,,,,,,,,,0.0,3.0,3.0,3.0,1.0,,,,,,,,,,
0.0,1.0,0.59995,,,,,,ostrich_06s.jpg,0.0,clock_6_5.png,1.0,41,,,,,,,,,,,,,,,,,,0.0,4.0,4.0,4.0,1.0,,,,,,,,,,
0.0,1.0,0.555445,,,,,,stingray_02s.jpg,0.0,clock_6_6.png,1.0,41,,,,,,,,,,,,,,,,,,0.0,5.0,5.0,5.0,1.0,,,,,,,,,,
0.0,1.0,0.52755,,,,,,peanut_butter_08s.jpg,0.0,clock_7_1.png,2.0,41,,,,,,,,,,,,,,,,,,0.0,6.0,6.0,6.0,1.0,,,,,,,,,,
1.0,1.0,1.3401,,,,,,peanut_butter_08s.jpg,1.0,clock_7_2.png,2.0,41,,,,,,,,,,,,,,,,,,0.0,7.0,7.0,7.0,1.0,,,,,,,,,,
0.0,1.0,0.887715,,,,,,puffin_19s.jpg,0.0,clock_7_3.png,2.0,41,,,,,,,,,,,,,,,,,,0.0,8.0,8.0,8.0,1.0,,,,,,,,,,
1.0,1.0,1.759165,,,,,,peanut_butter_08s.jpg,1.0,clock_7_4.png,2.0,41,,,,,,,,,,,,,,,,,,0.0,9.0,9.0,9.0,1.0,,,,,,,,,,
1.0,1.0,1.07172,,,,,,puffin_19s.jpg,1.0,clock_7_5.png,2.0,41,,,,,,,,,,,,,,,,,,0.0,10.0,10.0,10.0,1.0,,,,,,,,,,
0.0,1.0,0.634835,,,,,,stamp2_08s.jpg,0.0,clock_7_6.png,2.0,41,,,,,,,,,,,,,,,,,,0.0,11.0,11.0,11.0,1.0,,,,,,,,,,
0.0,1.0,1.25531,,,,,,comic_book_02s.jpg,0.0,clock_7_7.png,2.0,41,,,,,,,,,,,,,,,,,,0.0,12.0,12.0,12.0,1.0,,,,,,,,,,
0.0,1.0,0.603365,,,,,,ink_08s.jpg,0.0,clock_7_1.png,3.0,41,,,,,,,,,,,,,,,,,,0.0,13.0,13.0,13.0,1.0,,,,,,,,,,
0.0,1.0,0.831355,,,,,,doily_13s.jpg,0.0,clock_7_2.png,3.0,41,,,,,,,,,,,,,,,,,,0.0,14.0,14.0,14.0,1.0,,,,,,,,,,
0.0,1.0,0.54814,,,,,,light_switch_02s.jpg,0.0,clock_7_3.png,3.0,41,,,,,,,,,,,,,,,,,,0.0,15.0,15.0,15.0,1.0,,,,,,,,,,
0.0,1.0,0.59129,,,,,,pepper2_21s.jpg,0.0,clock_7_4.png,3.0,41,,,,,,,,,,,,,,,,,,0.0,16.0,16.0,16.0,1.0,,,,,,,,,,
0.0,1.0,0.68332,,,,,,crab_16s.jpg,0.0,clock_7_5.png,3.0,41,,,,,,,,,,,,,,,,,,0.0,17.0,17.0,17.0,1.0,,,,,,,,,,
0.0,1.0,0.59855,,,,,,beard_16s.jpg,0.0,clock_7_6.png,3.0,41,,,,,,,,,,,,,,,,,,0.0,18.0,18.0,18.0,1.0,,,,,,,,,,
0.0,1.0,0.52276,,,,,,mask_09s.jpg,0.0,clock_7_7.png,3.0,41,,,,,,,,,,,,,,,,,,0.0,19.0,19.0,19.0,1.0,,,,,,,,,,
0.0,1.0,0.59073,,,,,,dynamite_01b.jpg,0.0,clock_6_1.png,4.0,41,,,,,,,,,,,,,,,,,,0.0,20.0,20.0,20.0,1.0,,,,,,,,,,
0.0,1.0,0.402995,,,,,,abacus_12s.jpg,0.0,clock_6_2.png,4.0,41,,,,,,,,,,,,,,,,,,0.0,21.0,21.0,21.0,1.0,,,,,,,,,,
0.0,1.0,0.591135,,,,,,icicle_04s.jpg,0.0,clock_6_3.png,4.0,41,,,,,,,,,,,,,,,,,,0.0,22.0,22.0,22.0,1.0,,,,,,,,,,
0.0,1.0,0.603225,,,,,,comic_book_02s.jpg,0.0,clock_6_4.png,4.0,41,,,,,,,,,,,,,,,,,,0.0,23.0,23.0,23.0,1.0,,,,,,,,,,
0.0,0.0,0.760005,,,,,,abacus_12s.jpg,1.0,clock_6_5.png,4.0,41,,,,,,,,,,,,,,,,,,0.0,24.0,24.0,24.0,1.0,,,,,,,,,,
0.0,1.0,0.71495,,,,,,duck_01b.jpg,0.0,clock_6_6.png,4.0,41,,,,,,,,,,,,,,,,,,0.0,25.0,25.0,25.0,1.0,,,,,,,,,,
0.0,1.0,0.58233,,,,,,jetski_10s.jpg,0.0,clock_5_1.png,5.0,41,,,,,,,,,,,,,,,,,,0.0,26.0,26.0,26.0,1.0,,,,,,,,,,
1.0,1.0,1.323405,,,,,,jetski_10s.jpg,1.0,clock_5_2.png,5.0,41,,,,,,,,,,,,,,,,,,0.0,27.0,27.0,27.0,1.0,,,,,,,,,,
0.0,1.0,1.19922,,,,,,latte_06s.jpg,0.0,clock_5_3.png,5.0,41,,,,,,,,,,,,,,,,,,0.0,28.0,28.0,28.0,1.0,,,,,,,,,,
0.0,1.0,0.923275,,,,,,basket_05s.jpg,0.0,clock_5_4.png,5.0,41,,,,,,,,,,,,,,,,,,0.0,29.0,29.0,29.0,1.0,,,,,,,,,,
0.0,1.0,0.590165,,,,,,pump_11s.jpg,0.0,clock_5_5.png,5.0,41,,,,,,,,,,,,,,,,,,0.0,30.0,30.0,30.0,1.0,,,,,,,,,,
0.0,1.0,0.63439,,,,,,bacon_05s.jpg,0.0,clock_5_1.png,6.0,41,,,,,,,,,,,,,,,,,,0.0,31.0,31.0,31.0,1.0,,,,,,,,,,
0.0,1.0,0.54292,,,,,,lectern_08s.jpg,0.0,clock_5_2.png,6.0,41,,,,,,,,,,,,,,,,,,0.0,32.0,32.0,32.0,1.0,,,,,,,,,,
0.0,1.0,0.72791,,,,,,amber_04s.jpg,0.0,clock_5_3.png,6.0,41,,,,,,,,,,,,,,,,,,0.0,33.0,33.0,33.0,1.0,,,,,,,,,,
0.0,1.0,0.631755,,,,,,orangutan_03s.jpg,0.0,clock_5_4.png,6.0,41,,,,,,,,,,,,,,,,,,0.0,34.0,34.0,34.0,1.0,,,,,,,,,,
0.0,1.0,0.50625,,,,,,pan_02s.jpg,0.0,clock_5_5.png,6.0,41,,,,,,,,,,,,,,,,,,0.0,35.0,35.0,35.0,1.0,,,,,,,,,,
,,,,,,,,,1.0,,,41,1.0,1.0,2.86377,,,,,,pump_11s.jpg,amber_04s.jpg,,,,,,,,,,,,,0.0,0.0,0.0,0.0,1.0,,,,,
,,,,,,,,,0.0,,,41,0.0,1.0,1.94647,,,,,,doily_13s.jpg,stamp2_08s.jpg,,,,,,,,,,,,,0.0,1.0,1.0,1.0,1.0,,,,,
,,,,,,,,,1.0,,,41,1.0,1.0,1.718445,,,,,,crab_16s.jpg,dynamite_01b.jpg,,,,,,,,,,,,,0.0,2.0,2.0,2.0,1.0,,,,,
,,,,,,,,,0.0,,,41,0.0,1.0,1.458755,,,,,,sunglasses_11s.jpg,sledgehammer_03s.jpg,,,,,,,,,,,,,0.0,3.0,3.0,3.0,1.0,,,,,
,,,,,,,,,0.0,,,41,0.0,1.0,3.61918,,,,,,stingray_02s.jpg,go-kart_10s.jpg,,,,,,,,,,,,,0.0,4.0,4.0,4.0,1.0,,,,,
,,,,,,,,,0.0,,,41,0.0,1.0,1.257875,,,,,,pepper2_21s.jpg,ink_08s.jpg,,,,,,,,,,,,,0.0,5.0,5.0,5.0,1.0,,,,,
