key_resp.keys,key_resp.corr,key_resp.rt,noclock_loop.thisRepN,noclock_loop.thisTrialN,noclock_loop.thisN,noclock_loop.thisIndex,noclock_loop.ran,pictures,answer,clock,segment,participant,key_resp_2.keys,key_resp_2.corr,key_resp_2.rt,noclock_loop2.thisRepN,noclock_loop2.thisTrialN,noclock_loop2.thisN,noclock_loop2.thisIndex,noclock_loop2.ran,item_a,item_b,noclock_condition.thisRepN,noclock_condition.thisTrialN,noclock_condition.thisN,noclock_condition.thisIndex,noclock_condition.ran,present,compare,present_segment.thisRepN,present_segment.thisTrialN,present_segment.thisN,present_segment.thisIndex,present_segment.ran,compare_segment.thisRepN,compare_segment.thisTrialN,compare_segment.thisN,compare_segment.thisIndex,compare_segment.ran,clock_conditions.thisRepN,clock_conditions.thisTrialN,clock_conditions.thisN,clock_conditions.thisIndex,clock_conditions.ran
0.0,1.0,1.53962,0.0,0.0,0.0,0.0,1.0,tripod_01b.jpg,0.0,clockno_up.jpg,1.0,58,,,,,,,,,,,,,,,,,,,,,,,,,,,,,,,,
0.0,1.0,1.12039,0.0,1.0,1.0,1.0,1.0,pocket_watch_16s.jpg,0.0,clockno_default.jpg,1.0,58,,,,,,,,,,,,,,,,,,,,,,,,,,,,,,,,
0.0,1.0,0.563845,0.0,2.0,2.0,2.0,1.0,loom_05s.jpg,0.0,clockno_default.jpg,1.0,58,,,,,,,,,,,,,,,,,,,,,,,,,,,,,,,,
1.0,1.0,1.306405,0.0,3.0,3.0,3.0,1.0,tripod_01b.jpg,1.0,clockno_default.jpg,1.0,58,,,,,,,,,,,,,,,,,,,,,,,,,,,,,,,,
0.0,1.0,0.72252,0.0,4.0,4.0,4.0,1.0,thread_08s.jpg,0.0,clockno_default.jpg,1.0,58,,,,,,,,,,,,,,,,,,,,,,,,,,,,,,,,
0.0,1.0,0.882465,0.0,5.0,5.0,5.0,1.0,rocket_02s.jpg,0.0,clockno_default.jpg,1.0,58,,,,,,,,,,,,,,,,,,,,,,,,,,,,,,,,
0.0,1.0,0.987595,0.0,6.0,6.0,6.0,1.0,ladle_04s.jpg,0.0,clockno_up.jpg,2.0,58,,,,,,,,,,,,,,,,,,,,,,,,,,,,,,,,
0.0,1.0,1.23538,0.0,7.0,7.0,7.0,1.0,bubble_01b.jpg,0.0,clockno_default.jpg,2.0,58,,,,,,,,,,,,,,,,,,,,,,,,,,,,,,,,
0.0,1.0,1.172535,0.0,8.0,8.0,8.0,1.0,pocket_watch_16s.jpg,0.0,clockno_default.jpg,2.0,58,,,,,,,,,,,,,,,,,,,,,,,,,,,,,,,,
0.0,1.0,1.0922,0.0,9.0,9.0,9.0,1.0,projector_08s.jpg,0.0,clockno_default.jpg,2.0,58,,,,,,,,,,,,,,,,,,,,,,,,,,,,,,,,
0.0,1.0,1.03104,0.0,10.0,10.0,10.0,1.0,penlight_12s.jpg,0.0,clockno_default.jpg,2.0,58,,,,,,,,,,,,,,,,,,,,,,,,,,,,,,,,
0.0,1.0,1.00407,0.0,11.0,11.0,11.0,1.0,golf_club_03s.jpg,0.0,clockno_up.jpg,3.0,58,,,,,,,,,,,,,,,,,,,,,,,,,,,,,,,,
0.0,1.0,1.02108,0.0,12.0,12.0,12.0,1.0,espresso_01b.jpg,0.0,clockno_default.jpg,3.0,58,,,,,,,,,,,,,,,,,,,,,,,,,,,,,,,,
1.0,1.0,0.798185,0.0,13.0,13.0,13.0,1.0,espresso_01b.jpg,1.0,clockno_default.jpg,3.0,58,,,,,,,,,,,,,,,,,,,,,,,,,,,,,,,,
0.0,1.0,1.334415,0.0,14.0,14.0,14.0,1.0,mannequin_05s.jpg,0.0,clockno_default.jpg,3.0,58,,,,,,,,,,,,,,,,,,,,,,,,,,,,,,,,
1.0,1.0,1.35887,0.0,15.0,15.0,15.0,1.0,golf_club_03s.jpg,1.0,clockno_default.jpg,3.0,58,,,,,,,,,,,,,,,,,,,,,,,,,,,,,,,,
0.0,1.0,1.16704,0.0,16.0,16.0,16.0,1.0,loom_05s.jpg,0.0,clockno_default.jpg,3.0,58,,,,,,,,,,,,,,,,,,,,,,,,,,,,,,,,
0.0,1.0,1.03816,0.0,17.0,17.0,17.0,1.0,machete_06s.jpg,0.0,clockno_up.jpg,4.0,58,,,,,,,,,,,,,,,,,,,,,,,,,,,,,,,,
0.0,1.0,0.765925,0.0,18.0,18.0,18.0,1.0,seahorse_13s.jpg,0.0,clockno_default.jpg,4.0,58,,,,,,,,,,,,,,,,,,,,,,,,,,,,,,,,
0.0,1.0,1.264795,0.0,19.0,19.0,19.0,1.0,mannequin_05s.jpg,0.0,clockno_default.jpg,4.0,58,,,,,,,,,,,,,,,,,,,,,,,,,,,,,,,,
0.0,1.0,0.81582,0.0,20.0,20.0,20.0,1.0,saddle_06s.jpg,0.0,clockno_default.jpg,4.0,58,,,,,,,,,,,,,,,,,,,,,,,,,,,,,,,,
0.0,1.0,0.85763,0.0,21.0,21.0,21.0,1.0,rake_06s.jpg,0.0,clockno_default.jpg,4.0,58,,,,,,,,,,,,,,,,,,,,,,,,,,,,,,,,
0.0,1.0,0.920915,0.0,22.0,22.0,22.0,1.0,jewel_01b.jpg,0.0,clockno_default.jpg,4.0,58,,,,,,,,,,,,,,,,,,,,,,,,,,,,,,,,
0.0,1.0,0.842125,0.0,23.0,23.0,23.0,1.0,ironing_board_07s.jpg,0.0,clockno_default.jpg,4.0,58,,,,,,,,,,,,,,,,,,,,,,,,,,,,,,,,
0.0,1.0,0.94597,0.0,24.0,24.0,24.0,1.0,tuxedo_01b.jpg,0.0,clockno_up.jpg,5.0,58,,,,,,,,,,,,,,,,,,,,,,,,,,,,,,,,
0.0,1.0,0.9387,0.0,25.0,25.0,25.0,1.0,pie_08s.jpg,0.0,clockno_default.jpg,5.0,58,,,,,,,,,,,,,,,,,,,,,,,,,,,,,,,,
0.0,1.0,1.09186,0.0,26.0,26.0,26.0,1.0,mousetrap_15n.jpg,0.0,clockno_default.jpg,5.0,58,,,,,,,,,,,,,,,,,,,,,,,,,,,,,,,,
0.0,1.0,0.923905,0.0,27.0,27.0,27.0,1.0,measuring_cup_02s.jpg,0.0,clockno_default.jpg,5.0,58,,,,,,,,,,,,,,,,,,,,,,,,,,,,,,,,
1.0,1.0,1.11696,0.0,28.0,28.0,28.0,1.0,measuring_cup_02s.jpg,1.0,clockno_default.jpg,5.0,58,,,,,,,,,,,,,,,,,,,,,,,,,,,,,,,,
0.0,1.0,1.044415,0.0,29.0,29.0,29.0,1.0,olive_05s.jpg,0.0,clockno_up.jpg,6.0,58,,,,,,,,,,,,,,,,,,,,,,,,,,,,,,,,
0.0,1.0,1.124335,0.0,30.0,30.0,30.0,1.0,razor_12s.jpg,0.0,clockno_default.jpg,6.0,58,,,,,,,,,,,,,,,,,,,,,,,,,,,,,,,,
0.0,1.0,1.2212,0.0,31.0,31.0,31.0,1.0,footprint_11s.jpg,0.0,clockno_default.jpg,6.0,58,,,,,,,,,,,,,,,,,,,,,,,,,,,,,,,,
0.0,1.0,1.221735,0.0,32.0,32.0,32.0,1.0,reindeer_08s.jpg,0.0,clockno_default.jpg,6.0,58,,,,,,,,,,,,,,,,,,,,,,,,,,,,,,,,
1.0,1.0,0.950935,0.0,33.0,33.0,33.0,1.0,olive_05s.jpg,1.0,clockno_default.jpg,6.0,58,,,,,,,,,,,,,,,,,,,,,,,,,,,,,,,,
1.0,1.0,1.000085,0.0,34.0,34.0,34.0,1.0,razor_12s.jpg,1.0,clockno_default.jpg,6.0,58,,,,,,,,,,,,,,,,,,,,,,,,,,,,,,,,
0.0,1.0,1.031215,0.0,35.0,35.0,35.0,1.0,mold2_04s.jpg,0.0,clockno_default.jpg,6.0,58,,,,,,,,,,,,,,,,,,,,,,,,,,,,,,,,
,,,,,,,,,1.0,,,58,1.0,1.0,1.779345,0.0,0.0,0.0,0.0,1.0,jewel_01b.jpg,pie_08s.jpg,,,,,,,,,,,,,,,,,,,,,,
,,,,,,,,,1.0,,,58,0.0,0.0,2.84002,0.0,1.0,1.0,1.0,1.0,thread_08s.jpg,bubble_01b.jpg,,,,,,,,,,,,,,,,,,,,,,
,,,,,,,,,0.0,,,58,0.0,1.0,3.45141,0.0,2.0,2.0,2.0,1.0,tuxedo_01b.jpg,rake_06s.jpg,,,,,,,,,,,,,,,,,,,,,,
,,,,,,,,,1.0,,,58,1.0,1.0,3.60376,0.0,3.0,3.0,3.0,1.0,ladle_04s.jpg,projector_08s.jpg,,,,,,,,,,,,,,,,,,,,,,
,,,,,,,,,0.0,,,58,1.0,0.0,2.51118,0.0,4.0,4.0,4.0,1.0,saddle_06s.jpg,machete_06s.jpg,,,,,,,,,,,,,,,,,,,,,,
,,,,,,,,,0.0,,,58,0.0,1.0,1.29919,0.0,5.0,5.0,5.0,1.0,mold2_04s.jpg,reindeer_08s.jpg,,,,,,,,,,,,,,,,,,,,,,
,,,,,,,,,,,,58,,,,,,,,,,,0.0,0.0,0.0,0.0,1.0,clockno_present_1_5.xlsx,clockno_compare_task_1_5.xlsx,,,,,,,,,,,,,,,
0.0,1.0,1.04889,0.0,0.0,0.0,0.0,1.0,sushi_08s.jpg,0.0,clockno_up.jpg,1.0,58,,,,,,,,,,,,,,,,,,,,,,,,,,,,,,,,
0.0,1.0,1.14826,0.0,1.0,1.0,1.0,1.0,tweezers_03s.jpg,0.0,clockno_default.jpg,1.0,58,,,,,,,,,,,,,,,,,,,,,,,,,,,,,,,,
0.0,1.0,1.309285,0.0,2.0,2.0,2.0,1.0,teapot_03s.jpg,0.0,clockno_default.jpg,1.0,58,,,,,,,,,,,,,,,,,,,,,,,,,,,,,,,,
0.0,1.0,1.295685,0.0,3.0,3.0,3.0,1.0,tinsel_12s.jpg,0.0,clockno_default.jpg,1.0,58,,,,,,,,,,,,,,,,,,,,,,,,,,,,,,,,
0.0,1.0,0.774575,0.0,4.0,4.0,4.0,1.0,tuba_12s.jpg,0.0,clockno_default.jpg,1.0,58,,,,,,,,,,,,,,,,,,,,,,,,,,,,,,,,
0.0,1.0,0.88113,0.0,5.0,5.0,5.0,1.0,paintbrush_04s.jpg,0.0,clockno_default.jpg,1.0,58,,,,,,,,,,,,,,,,,,,,,,,,,,,,,,,,
0.0,1.0,0.998935,0.0,6.0,6.0,6.0,1.0,lasagna_06s.jpg,0.0,clockno_default.jpg,1.0,58,,,,,,,,,,,,,,,,,,,,,,,,,,,,,,,,
0.0,1.0,0.93099,0.0,7.0,7.0,7.0,1.0,pinwheel_06s.jpg,0.0,clockno_up.jpg,2.0,58,,,,,,,,,,,,,,,,,,,,,,,,,,,,,,,,
0.0,1.0,0.960655,0.0,8.0,8.0,8.0,1.0,owl_15s.jpg,0.0,clockno_default.jpg,2.0,58,,,,,,,,,,,,,,,,,,,,,,,,,,,,,,,,
0.0,1.0,0.6552,0.0,9.0,9.0,9.0,1.0,glasses01a.jpg,0.0,clockno_default.jpg,2.0,58,,,,,,,,,,,,,,,,,,,,,,,,,,,,,,,,
0.0,1.0,1.321415,0.0,10.0,10.0,10.0,1.0,pocketknife_12s.jpg,0.0,clockno_default.jpg,2.0,58,,,,,,,,,,,,,,,,,,,,,,,,,,,,,,,,
0.0,1.0,0.98022,0.0,11.0,11.0,11.0,1.0,fur_coat_11s.jpg,0.0,clockno_default.jpg,2.0,58,,,,,,,,,,,,,,,,,,,,,,,,,,,,,,,,
0.0,1.0,1.040975,0.0,12.0,12.0,12.0,1.0,tongs_08s.jpg,0.0,clockno_up.jpg,3.0,58,,,,,,,,,,,,,,,,,,,,,,,,,,,,,,,,
1.0,1.0,1.18768,0.0,13.0,13.0,13.0,1.0,tongs_08s.jpg,1.0,clockno_default.jpg,3.0,58,,,,,,,,,,,,,,,,,,,,,,,,,,,,,,,,
0.0,1.0,1.315315,0.0,14.0,14.0,14.0,1.0,leash_10s.jpg,0.0,clockno_default.jpg,3.0,58,,,,,,,,,,,,,,,,,,,,,,,,,,,,,,,,
0.0,1.0,1.451615,0.0,15.0,15.0,15.0,1.0,spoon02a.jpg,0.0,clockno_default.jpg,3.0,58,,,,,,,,,,,,,,,,,,,,,,,,,,,,,,,,
0.0,1.0,0.74772,0.0,16.0,16.0,16.0,1.0,plunger_08s.jpg,0.0,clockno_default.jpg,3.0,58,,,,,,,,,,,,,,,,,,,,,,,,,,,,,,,,
1.0,1.0,0.939795,0.0,17.0,17.0,17.0,1.0,plunger_08s.jpg,1.0,clockno_default.jpg,3.0,58,,,,,,,,,,,,,,,,,,,,,,,,,,,,,,,,
0.0,1.0,1.052415,0.0,18.0,18.0,18.0,1.0,playpen_11s.jpg,0.0,clockno_up.jpg,4.0,58,,,,,,,,,,,,,,,,,,,,,,,,,,,,,,,,
0.0,1.0,1.24727,0.0,19.0,19.0,19.0,1.0,smoothie_09s.jpg,0.0,clockno_default.jpg,4.0,58,,,,,,,,,,,,,,,,,,,,,,,,,,,,,,,,
0.0,1.0,1.309425,0.0,20.0,20.0,20.0,1.0,gear_07s.jpg,0.0,clockno_default.jpg,4.0,58,,,,,,,,,,,,,,,,,,,,,,,,,,,,,,,,
1.0,1.0,1.06494,0.0,21.0,21.0,21.0,1.0,smoothie_09s.jpg,1.0,clockno_default.jpg,4.0,58,,,,,,,,,,,,,,,,,,,,,,,,,,,,,,,,
0.0,1.0,0.830585,0.0,22.0,22.0,22.0,1.0,lamp_08s.jpg,0.0,clockno_default.jpg,4.0,58,,,,,,,,,,,,,,,,,,,,,,,,,,,,,,,,
0.0,1.0,1.70952,0.0,23.0,23.0,23.0,1.0,lollipop_08s.jpg,0.0,clockno_up.jpg,5.0,58,,,,,,,,,,,,,,,,,,,,,,,,,,,,,,,,
0.0,1.0,1.10898,0.0,24.0,24.0,24.0,1.0,squirt_gun_03s.jpg,0.0,clockno_default.jpg,5.0,58,,,,,,,,,,,,,,,,,,,,,,,,,,,,,,,,
0.0,1.0,1.15,0.0,25.0,25.0,25.0,1.0,otter_05s.jpg,0.0,clockno_default.jpg,5.0,58,,,,,,,,,,,,,,,,,,,,,,,,,,,,,,,,
0.0,1.0,1.303055,0.0,26.0,26.0,26.0,1.0,tape_06s.jpg,0.0,clockno_default.jpg,5.0,58,,,,,,,,,,,,,,,,,,,,,,,,,,,,,,,,
0.0,1.0,0.59066,0.0,27.0,27.0,27.0,1.0,sunflower_17s.jpg,0.0,clockno_default.jpg,5.0,58,,,,,,,,,,,,,,,,,,,,,,,,,,,,,,,,
0.0,1.0,1.59938,0.0,28.0,28.0,28.0,1.0,fountain_pen_06s.jpg,0.0,clockno_default.jpg,5.0,58,,,,,,,,,,,,,,,,,,,,,,,,,,,,,,,,
0.0,1.0,1.591535,0.0,29.0,29.0,29.0,1.0,ant_12s.jpg,0.0,clockno_up.jpg,6.0,58,,,,,,,,,,,,,,,,,,,,,,,,,,,,,,,,
0.0,1.0,0.999315,0.0,30.0,30.0,30.0,1.0,tattoo_14s.jpg,0.0,clockno_default.jpg,6.0,58,,,,,,,,,,,,,,,,,,,,,,,,,,,,,,,,
0.0,1.0,1.14797,0.0,31.0,31.0,31.0,1.0,gear_07s.jpg,0.0,clockno_default.jpg,6.0,58,,,,,,,,,,,,,,,,,,,,,,,,,,,,,,,,
0.0,1.0,1.280685,0.0,32.0,32.0,32.0,1.0,tiger_06s.jpg,0.0,clockno_default.jpg,6.0,58,,,,,,,,,,,,,,,,,,,,,,,,,,,,,,,,
0.0,1.0,1.14691,0.0,33.0,33.0,33.0,1.0,raccoon_02s.jpg,0.0,clockno_default.jpg,6.0,58,,,,,,,,,,,,,,,,,,,,,,,,,,,,,,,,
0.0,1.0,0.753175,0.0,34.0,34.0,34.0,1.0,toilet_paper_12s.jpg,0.0,clockno_default.jpg,6.0,58,,,,,,,,,,,,,,,,,,,,,,,,,,,,,,,,
1.0,1.0,1.58164,0.0,35.0,35.0,35.0,1.0,tattoo_14s.jpg,1.0,clockno_default.jpg,6.0,58,,,,,,,,,,,,,,,,,,,,,,,,,,,,,,,,
,,,,,,,,,1.0,,,58,0.0,0.0,2.476375,0.0,0.0,0.0,0.0,1.0,spoon02a.jpg,playpen_11s.jpg,,,,,,,,,,,,,,,,,,,,,,
,,,,,,,,,1.0,,,58,1.0,1.0,1.316845,0.0,1.0,1.0,1.0,1.0,lasagna_06s.jpg,glasses01a.jpg,,,,,,,,,,,,,,,,,,,,,,
,,,,,,,,,1.0,,,58,1.0,1.0,2.85167,0.0,2.0,2.0,2.0,1.0,fur_coat_11s.jpg,leash_10s.jpg,,,,,,,,,,,,,,,,,,,,,,
,,,,,,,,,1.0,,,58,1.0,1.0,0.973095,0.0,3.0,3.0,3.0,1.0,sushi_08s.jpg,tinsel_12s.jpg,,,,,,,,,,,,,,,,,,,,,,
,,,,,,,,,1.0,,,58,1.0,1.0,4.56552,0.0,4.0,4.0,4.0,1.0,squirt_gun_03s.jpg,sunflower_17s.jpg,,,,,,,,,,,,,,,,,,,,,,
,,,,,,,,,0.0,,,58,1.0,0.0,2.13481,0.0,5.0,5.0,5.0,1.0,tuba_12s.jpg,tweezers_03s.jpg,,,,,,,,,,,,,,,,,,,,,,
,,,,,,,,,,,,58,,,,,,,,,,,0.0,1.0,1.0,1.0,1.0,clockno_present_2_5.xlsx,clockno_compare_task_2_5.xlsx,,,,,,,,,,,,,,,
0.0,1.0,0.86605,0.0,0.0,0.0,0.0,1.0,ram_05s.jpg,0.0,clockno_up.jpg,1.0,58,,,,,,,,,,,,,,,,,,,,,,,,,,,,,,,,
0.0,1.0,0.69916,0.0,1.0,1.0,1.0,1.0,panda_02s.jpg,0.0,clockno_default.jpg,1.0,58,,,,,,,,,,,,,,,,,,,,,,,,,,,,,,,,
0.0,1.0,0.889595,0.0,2.0,2.0,2.0,1.0,beaker_01b.jpg,0.0,clockno_default.jpg,1.0,58,,,,,,,,,,,,,,,,,,,,,,,,,,,,,,,,
1.0,1.0,0.64296,0.0,3.0,3.0,3.0,1.0,beaker_01b.jpg,1.0,clockno_default.jpg,1.0,58,,,,,,,,,,,,,,,,,,,,,,,,,,,,,,,,
0.0,1.0,1.705635,0.0,4.0,4.0,4.0,1.0,megaphone_03s.jpg,0.0,clockno_default.jpg,1.0,58,,,,,,,,,,,,,,,,,,,,,,,,,,,,,,,,
0.0,1.0,0.769875,0.0,5.0,5.0,5.0,1.0,dashboard_02s.jpg,0.0,clockno_up.jpg,2.0,58,,,,,,,,,,,,,,,,,,,,,,,,,,,,,,,,
0.0,1.0,1.827905,0.0,6.0,6.0,6.0,1.0,juicer2_06s.jpg,0.0,clockno_default.jpg,2.0,58,,,,,,,,,,,,,,,,,,,,,,,,,,,,,,,,
0.0,1.0,0.764195,0.0,7.0,7.0,7.0,1.0,butter_14s.jpg,0.0,clockno_default.jpg,2.0,58,,,,,,,,,,,,,,,,,,,,,,,,,,,,,,,,
0.0,1.0,1.13114,0.0,8.0,8.0,8.0,1.0,quesadilla_07s.jpg,0.0,clockno_default.jpg,2.0,58,,,,,,,,,,,,,,,,,,,,,,,,,,,,,,,,
0.0,1.0,1.123945,0.0,9.0,9.0,9.0,1.0,thumbtack_14s.jpg,0.0,clockno_default.jpg,2.0,58,,,,,,,,,,,,,,,,,,,,,,,,,,,,,,,,
0.0,1.0,1.10802,0.0,10.0,10.0,10.0,1.0,potholder_02s.jpg,0.0,clockno_default.jpg,2.0,58,,,,,,,,,,,,,,,,,,,,,,,,,,,,,,,,
0.0,1.0,0.932395,0.0,11.0,11.0,11.0,1.0,purse_05s.jpg,0.0,clockno_default.jpg,2.0,58,,,,,,,,,,,,,,,,,,,,,,,,,,,,,,,,
0.0,1.0,0.99767,0.0,12.0,12.0,12.0,1.0,binder_21s.jpg,0.0,clockno_up.jpg,3.0,58,,,,,,,,,,,,,,,,,,,,,,,,,,,,,,,,
1.0,1.0,0.76559,0.0,13.0,13.0,13.0,1.0,binder_21s.jpg,1.0,clockno_default.jpg,3.0,58,,,,,,,,,,,,,,,,,,,,,,,,,,,,,,,,
0.0,1.0,0.781325,0.0,14.0,14.0,14.0,1.0,knot_01b.jpg,0.0,clockno_default.jpg,3.0,58,,,,,,,,,,,,,,,,,,,,,,,,,,,,,,,,
1.0,1.0,1.097965,0.0,15.0,15.0,15.0,1.0,binder_21s.jpg,1.0,clockno_default.jpg,3.0,58,,,,,,,,,,,,,,,,,,,,,,,,,,,,,,,,
0.0,1.0,0.65409,0.0,16.0,16.0,16.0,1.0,raspberry_12s.jpg,0.0,clockno_default.jpg,3.0,58,,,,,,,,,,,,,,,,,,,,,,,,,,,,,,,,
0.0,1.0,0.79821,0.0,17.0,17.0,17.0,1.0,padlock_07s.jpg,0.0,clockno_up.jpg,4.0,58,,,,,,,,,,,,,,,,,,,,,,,,,,,,,,,,
0.0,1.0,0.85501,0.0,18.0,18.0,18.0,1.0,phone_01b.jpg,0.0,clockno_default.jpg,4.0,58,,,,,,,,,,,,,,,,,,,,,,,,,,,,,,,,
0.0,1.0,0.607145,0.0,19.0,19.0,19.0,1.0,lizard_10n.jpg,0.0,clockno_default.jpg,4.0,58,,,,,,,,,,,,,,,,,,,,,,,,,,,,,,,,
0.0,1.0,0.65559,0.0,20.0,20.0,20.0,1.0,seagull_01b.jpg,0.0,clockno_default.jpg,4.0,58,,,,,,,,,,,,,,,,,,,,,,,,,,,,,,,,
0.0,1.0,1.130705,0.0,21.0,21.0,21.0,1.0,stapler_01b.jpg,0.0,clockno_default.jpg,4.0,58,,,,,,,,,,,,,,,,,,,,,,,,,,,,,,,,
0.0,1.0,0.78426,0.0,22.0,22.0,22.0,1.0,turtleneck_11s.jpg,0.0,clockno_default.jpg,4.0,58,,,,,,,,,,,,,,,,,,,,,,,,,,,,,,,,
0.0,1.0,0.62453,0.0,23.0,23.0,23.0,1.0,top_hat_11s.jpg,0.0,clockno_up.jpg,5.0,58,,,,,,,,,,,,,,,,,,,,,,,,,,,,,,,,
0.0,1.0,1.08177,0.0,24.0,24.0,24.0,1.0,screwdriver02a.jpg,0.0,clockno_default.jpg,5.0,58,,,,,,,,,,,,,,,,,,,,,,,,,,,,,,,,
0.0,1.0,1.057855,0.0,25.0,25.0,25.0,1.0,raspberry_12s.jpg,0.0,clockno_default.jpg,5.0,58,,,,,,,,,,,,,,,,,,,,,,,,,,,,,,,,
0.0,1.0,0.79747,0.0,26.0,26.0,26.0,1.0,gingerbread_man_03s.jpg,0.0,clockno_default.jpg,5.0,58,,,,,,,,,,,,,,,,,,,,,,,,,,,,,,,,
0.0,1.0,0.77049,0.0,27.0,27.0,27.0,1.0,bagel_15s.jpg,0.0,clockno_default.jpg,5.0,58,,,,,,,,,,,,,,,,,,,,,,,,,,,,,,,,
0.0,0.0,1.06802,0.0,28.0,28.0,28.0,1.0,top_hat_11s.jpg,1.0,clockno_default.jpg,5.0,58,,,,,,,,,,,,,,,,,,,,,,,,,,,,,,,,
0.0,1.0,0.7478,0.0,29.0,29.0,29.0,1.0,smokingpipe.jpg,0.0,clockno_default.jpg,5.0,58,,,,,,,,,,,,,,,,,,,,,,,,,,,,,,,,
0.0,1.0,1.1652,0.0,30.0,30.0,30.0,1.0,sea_urchin_09s.jpg,0.0,clockno_up.jpg,6.0,58,,,,,,,,,,,,,,,,,,,,,,,,,,,,,,,,
0.0,1.0,1.075495,0.0,31.0,31.0,31.0,1.0,tomato_sauce_09s.jpg,0.0,clockno_default.jpg,6.0,58,,,,,,,,,,,,,,,,,,,,,,,,,,,,,,,,
0.0,1.0,0.814085,0.0,32.0,32.0,32.0,1.0,triangle_10s.jpg,0.0,clockno_default.jpg,6.0,58,,,,,,,,,,,,,,,,,,,,,,,,,,,,,,,,
0.0,1.0,0.77388,0.0,33.0,33.0,33.0,1.0,squirrel_02s.jpg,0.0,clockno_default.jpg,6.0,58,,,,,,,,,,,,,,,,,,,,,,,,,,,,,,,,
0.0,1.0,0.846945,0.0,34.0,34.0,34.0,1.0,punch1_10s.jpg,0.0,clockno_default.jpg,6.0,58,,,,,,,,,,,,,,,,,,,,,,,,,,,,,,,,
0.0,1.0,0.84749,0.0,35.0,35.0,35.0,1.0,chalice_10s.jpg,0.0,clockno_default.jpg,6.0,58,,,,,,,,,,,,,,,,,,,,,,,,,,,,,,,,
,,,,,,,,,1.0,,,58,0.0,0.0,3.04771,0.0,0.0,0.0,0.0,1.0,purse_05s.jpg,knot_01b.jpg,,,,,,,,,,,,,,,,,,,,,,
,,,,,,,,,0.0,,,58,0.0,1.0,1.585415,0.0,1.0,1.0,1.0,1.0,butter_14s.jpg,megaphone_03s.jpg,,,,,,,,,,,,,,,,,,,,,,
,,,,,,,,,0.0,,,58,0.0,1.0,5.281665,0.0,2.0,2.0,2.0,1.0,screwdriver02a.jpg,stapler_01b.jpg,,,,,,,,,,,,,,,,,,,,,,
,,,,,,,,,0.0,,,58,1.0,0.0,2.582985,0.0,3.0,3.0,3.0,1.0,quesadilla_07s.jpg,dashboard_02s.jpg,,,,,,,,,,,,,,,,,,,,,,
,,,,,,,,,0.0,,,58,0.0,1.0,5.587095,0.0,4.0,4.0,4.0,1.0,thumbtack_14s.jpg,juicer2_06s.jpg,,,,,,,,,,,,,,,,,,,,,,
,,,,,,,,,0.0,,,58,0.0,1.0,3.22223,0.0,5.0,5.0,5.0,1.0,turtleneck_11s.jpg,lizard_10n.jpg,,,,,,,,,,,,,,,,,,,,,,
,,,,,,,,,,,,58,,,,,,,,,,,0.0,2.0,2.0,2.0,1.0,clockno_present_3_5.xlsx,clockno_compare_task_3_5.xlsx,,,,,,,,,,,,,,,
0.0,1.0,1.335475,0.0,0.0,0.0,0.0,1.0,leotard_08s.jpg,0.0,clockno_up.jpg,1.0,58,,,,,,,,,,,,,,,,,,,,,,,,,,,,,,,,
0.0,1.0,0.733805,0.0,1.0,1.0,1.0,1.0,popsicle_02s.jpg,0.0,clockno_default.jpg,1.0,58,,,,,,,,,,,,,,,,,,,,,,,,,,,,,,,,
1.0,1.0,0.936595,0.0,2.0,2.0,2.0,1.0,popsicle_02s.jpg,1.0,clockno_default.jpg,1.0,58,,,,,,,,,,,,,,,,,,,,,,,,,,,,,,,,
1.0,1.0,0.68137,0.0,3.0,3.0,3.0,1.0,popsicle_02s.jpg,1.0,clockno_default.jpg,1.0,58,,,,,,,,,,,,,,,,,,,,,,,,,,,,,,,,
0.0,1.0,0.672345,0.0,4.0,4.0,4.0,1.0,rocking_horse_03s.jpg,0.0,clockno_default.jpg,1.0,58,,,,,,,,,,,,,,,,,,,,,,,,,,,,,,,,
0.0,1.0,1.0803,0.0,5.0,5.0,5.0,1.0,incense_02s.jpg,0.0,clockno_up.jpg,2.0,58,,,,,,,,,,,,,,,,,,,,,,,,,,,,,,,,
0.0,1.0,0.825105,0.0,6.0,6.0,6.0,1.0,margarita_03s.jpg,0.0,clockno_default.jpg,2.0,58,,,,,,,,,,,,,,,,,,,,,,,,,,,,,,,,
0.0,1.0,0.99471,0.0,7.0,7.0,7.0,1.0,telephone_pole_05s.jpg,0.0,clockno_default.jpg,2.0,58,,,,,,,,,,,,,,,,,,,,,,,,,,,,,,,,
0.0,1.0,0.96981,0.0,8.0,8.0,8.0,1.0,hummingbird_05s.jpg,0.0,clockno_default.jpg,2.0,58,,,,,,,,,,,,,,,,,,,,,,,,,,,,,,,,
0.0,1.0,0.930025,0.0,9.0,9.0,9.0,1.0,pincushion_10s.jpg,0.0,clockno_default.jpg,2.0,58,,,,,,,,,,,,,,,,,,,,,,,,,,,,,,,,
0.0,1.0,0.87453,0.0,10.0,10.0,10.0,1.0,peppermint_07s.jpg,0.0,clockno_default.jpg,2.0,58,,,,,,,,,,,,,,,,,,,,,,,,,,,,,,,,
0.0,1.0,1.219305,0.0,11.0,11.0,11.0,1.0,mattress_01s.jpg,0.0,clockno_up.jpg,3.0,58,,,,,,,,,,,,,,,,,,,,,,,,,,,,,,,,
0.0,1.0,1.530755,0.0,12.0,12.0,12.0,1.0,swimming_pool_17s.jpg,0.0,clockno_default.jpg,3.0,58,,,,,,,,,,,,,,,,,,,,,,,,,,,,,,,,
0.0,1.0,1.764685,0.0,13.0,13.0,13.0,1.0,pincushion_10s.jpg,0.0,clockno_default.jpg,3.0,58,,,,,,,,,,,,,,,,,,,,,,,,,,,,,,,,
0.0,1.0,0.836045,0.0,14.0,14.0,14.0,1.0,pomegranate_04s.jpg,0.0,clockno_default.jpg,3.0,58,,,,,,,,,,,,,,,,,,,,,,,,,,,,,,,,
1.0,1.0,1.014545,0.0,15.0,15.0,15.0,1.0,pincushion_10s.jpg,1.0,clockno_default.jpg,3.0,58,,,,,,,,,,,,,,,,,,,,,,,,,,,,,,,,
0.0,1.0,0.869005,0.0,16.0,16.0,16.0,1.0,soccer_ball_12s.jpg,0.0,clockno_default.jpg,3.0,58,,,,,,,,,,,,,,,,,,,,,,,,,,,,,,,,
0.0,1.0,0.965055,0.0,17.0,17.0,17.0,1.0,swing_set_15s.jpg,0.0,clockno_default.jpg,3.0,58,,,,,,,,,,,,,,,,,,,,,,,,,,,,,,,,
0.0,1.0,1.55806,0.0,18.0,18.0,18.0,1.0,lipstick_02s.jpg,0.0,clockno_up.jpg,4.0,58,,,,,,,,,,,,,,,,,,,,,,,,,,,,,,,,
1.0,1.0,0.870605,0.0,19.0,19.0,19.0,1.0,lipstick_02s.jpg,1.0,clockno_default.jpg,4.0,58,,,,,,,,,,,,,,,,,,,,,,,,,,,,,,,,
0.0,1.0,0.6702,0.0,20.0,20.0,20.0,1.0,tie_03s.jpg,0.0,clockno_default.jpg,4.0,58,,,,,,,,,,,,,,,,,,,,,,,,,,,,,,,,
0.0,1.0,0.94257,0.0,21.0,21.0,21.0,1.0,muffin_12n.jpg,0.0,clockno_default.jpg,4.0,58,,,,,,,,,,,,,,,,,,,,,,,,,,,,,,,,
0.0,1.0,0.782465,0.0,22.0,22.0,22.0,1.0,solar_panel_02s.jpg,0.0,clockno_default.jpg,4.0,58,,,,,,,,,,,,,,,,,,,,,,,,,,,,,,,,
0.0,1.0,0.74451,0.0,23.0,23.0,23.0,1.0,safety_pin_02s.jpg,0.0,clockno_default.jpg,4.0,58,,,,,,,,,,,,,,,,,,,,,,,,,,,,,,,,
0.0,1.0,1.231745,0.0,24.0,24.0,24.0,1.0,rolling_pin_02s.jpg,0.0,clockno_up.jpg,5.0,58,,,,,,,,,,,,,,,,,,,,,,,,,,,,,,,,
0.0,1.0,1.00824,0.0,25.0,25.0,25.0,1.0,toaster_03s.jpg,0.0,clockno_default.jpg,5.0,58,,,,,,,,,,,,,,,,,,,,,,,,,,,,,,,,
0.0,1.0,0.641075,0.0,26.0,26.0,26.0,1.0,umbrella_15s.jpg,0.0,clockno_default.jpg,5.0,58,,,,,,,,,,,,,,,,,,,,,,,,,,,,,,,,
0.0,1.0,0.801255,0.0,27.0,27.0,27.0,1.0,gong_02s.jpg,0.0,clockno_default.jpg,5.0,58,,,,,,,,,,,,,,,,,,,,,,,,,,,,,,,,
0.0,1.0,1.16941,0.0,28.0,28.0,28.0,1.0,plug_08s.jpg,0.0,clockno_default.jpg,5.0,58,,,,,,,,,,,,,,,,,,,,,,,,,,,,,,,,
0.0,1.0,0.72175,0.0,29.0,29.0,29.0,1.0,bonsai_07s.jpg,0.0,clockno_up.jpg,6.0,58,,,,,,,,,,,,,,,,,,,,,,,,,,,,,,,,
0.0,1.0,0.81835,0.0,30.0,30.0,30.0,1.0,raft_09s.jpg,0.0,clockno_default.jpg,6.0,58,,,,,,,,,,,,,,,,,,,,,,,,,,,,,,,,
0.0,1.0,1.09722,0.0,31.0,31.0,31.0,1.0,puppet_01b.jpg,0.0,clockno_default.jpg,6.0,58,,,,,,,,,,,,,,,,,,,,,,,,,,,,,,,,
1.0,1.0,0.81446,0.0,32.0,32.0,32.0,1.0,puppet_01b.jpg,1.0,clockno_default.jpg,6.0,58,,,,,,,,,,,,,,,,,,,,,,,,,,,,,,,,
0.0,1.0,0.587385,0.0,33.0,33.0,33.0,1.0,emerald_02s.jpg,0.0,clockno_default.jpg,6.0,58,,,,,,,,,,,,,,,,,,,,,,,,,,,,,,,,
0.0,1.0,0.875295,0.0,34.0,34.0,34.0,1.0,pencil02a.jpg,0.0,clockno_default.jpg,6.0,58,,,,,,,,,,,,,,,,,,,,,,,,,,,,,,,,
0.0,1.0,0.830775,0.0,35.0,35.0,35.0,1.0,gazelle_10s.jpg,0.0,clockno_default.jpg,6.0,58,,,,,,,,,,,,,,,,,,,,,,,,,,,,,,,,
,,,,,,,,,1.0,,,58,1.0,1.0,1.693615,0.0,0.0,0.0,0.0,1.0,umbrella_15s.jpg,bonsai_07s.jpg,,,,,,,,,,,,,,,,,,,,,,
,,,,,,,,,1.0,,,58,1.0,1.0,3.234405,0.0,1.0,1.0,1.0,1.0,rocking_horse_03s.jpg,telephone_pole_05s.jpg,,,,,,,,,,,,,,,,,,,,,,
,,,,,,,,,1.0,,,58,0.0,0.0,1.402855,0.0,2.0,2.0,2.0,1.0,muffin_12n.jpg,rolling_pin_02s.jpg,,,,,,,,,,,,,,,,,,,,,,
,,,,,,,,,1.0,,,58,0.0,0.0,2.94242,0.0,3.0,3.0,3.0,1.0,incense_02s.jpg,hummingbird_05s.jpg,,,,,,,,,,,,,,,,,,,,,,
,,,,,,,,,0.0,,,58,1.0,0.0,2.789165,0.0,4.0,4.0,4.0,1.0,pomegranate_04s.jpg,mattress_01s.jpg,,,,,,,,,,,,,,,,,,,,,,
,,,,,,,,,1.0,,,58,0.0,0.0,1.441305,0.0,5.0,5.0,5.0,1.0,toaster_03s.jpg,plug_08s.jpg,,,,,,,,,,,,,,,,,,,,,,
,,,,,,,,,,,,58,,,,,,,,,,,0.0,3.0,3.0,3.0,1.0,clockno_present_4_5.xlsx,clockno_compare_task_4_5.xlsx,,,,,,,,,,,,,,,
0.0,1.0,1.067695,0.0,0.0,0.0,0.0,1.0,tiara_05s.jpg,0.0,clockno_up.jpg,1.0,58,,,,,,,,,,,,,,,,,,,,,,,,,,,,,,,,
0.0,1.0,0.916205,0.0,1.0,1.0,1.0,1.0,refrigerator_07s.jpg,0.0,clockno_default.jpg,1.0,58,,,,,,,,,,,,,,,,,,,,,,,,,,,,,,,,
0.0,1.0,0.58621,0.0,2.0,2.0,2.0,1.0,roller_coaster_07s.jpg,0.0,clockno_default.jpg,1.0,58,,,,,,,,,,,,,,,,,,,,,,,,,,,,,,,,
0.0,1.0,0.59648,0.0,3.0,3.0,3.0,1.0,crystal_ball_12s.jpg,0.0,clockno_default.jpg,1.0,58,,,,,,,,,,,,,,,,,,,,,,,,,,,,,,,,
0.0,1.0,0.852365,0.0,4.0,4.0,4.0,1.0,racehorse_03s.jpg,0.0,clockno_default.jpg,1.0,58,,,,,,,,,,,,,,,,,,,,,,,,,,,,,,,,
0.0,1.0,1.08392,0.0,5.0,5.0,5.0,1.0,lamb_chop_07s.jpg,0.0,clockno_default.jpg,1.0,58,,,,,,,,,,,,,,,,,,,,,,,,,,,,,,,,
0.0,1.0,1.661415,0.0,6.0,6.0,6.0,1.0,paper_towel_03s.jpg,0.0,clockno_up.jpg,2.0,58,,,,,,,,,,,,,,,,,,,,,,,,,,,,,,,,
0.0,1.0,0.6132,0.0,7.0,7.0,7.0,1.0,radiator_05s.jpg,0.0,clockno_default.jpg,2.0,58,,,,,,,,,,,,,,,,,,,,,,,,,,,,,,,,
0.0,1.0,1.830705,0.0,8.0,8.0,8.0,1.0,frog_09s.jpg,0.0,clockno_default.jpg,2.0,58,,,,,,,,,,,,,,,,,,,,,,,,,,,,,,,,
0.0,0.0,1.357665,0.0,9.0,9.0,9.0,1.0,radiator_05s.jpg,1.0,clockno_default.jpg,2.0,58,,,,,,,,,,,,,,,,,,,,,,,,,,,,,,,,
0.0,1.0,1.57949,0.0,10.0,10.0,10.0,1.0,chocolate_01b.jpg,0.0,clockno_default.jpg,2.0,58,,,,,,,,,,,,,,,,,,,,,,,,,,,,,,,,
0.0,1.0,1.359215,0.0,11.0,11.0,11.0,1.0,metronome_03s.jpg,0.0,clockno_up.jpg,3.0,58,,,,,,,,,,,,,,,,,,,,,,,,,,,,,,,,
0.0,1.0,0.72593,0.0,12.0,12.0,12.0,1.0,kettle_08s.jpg,0.0,clockno_default.jpg,3.0,58,,,,,,,,,,,,,,,,,,,,,,,,,,,,,,,,
0.0,1.0,0.62398,0.0,13.0,13.0,13.0,1.0,refrigerator_07s.jpg,0.0,clockno_default.jpg,3.0,58,,,,,,,,,,,,,,,,,,,,,,,,,,,,,,,,
0.0,1.0,1.208205,0.0,14.0,14.0,14.0,1.0,eyedropper_12s.jpg,0.0,clockno_default.jpg,3.0,58,,,,,,,,,,,,,,,,,,,,,,,,,,,,,,,,
0.0,1.0,1.11503,0.0,15.0,15.0,15.0,1.0,totem_pole_05s.jpg,0.0,clockno_default.jpg,3.0,58,,,,,,,,,,,,,,,,,,,,,,,,,,,,,,,,
0.0,1.0,2.08054,0.0,16.0,16.0,16.0,1.0,aluminum_foil_08s.jpg,0.0,clockno_default.jpg,3.0,58,,,,,,,,,,,,,,,,,,,,,,,,,,,,,,,,
0.0,1.0,1.023165,0.0,17.0,17.0,17.0,1.0,birdcage_08s.jpg,0.0,clockno_default.jpg,3.0,58,,,,,,,,,,,,,,,,,,,,,,,,,,,,,,,,
0.0,1.0,1.222985,0.0,18.0,18.0,18.0,1.0,gargoyle_08s.jpg,0.0,clockno_up.jpg,4.0,58,,,,,,,,,,,,,,,,,,,,,,,,,,,,,,,,
0.0,1.0,0.656955,0.0,19.0,19.0,19.0,1.0,cobra_05s.jpg,0.0,clockno_default.jpg,4.0,58,,,,,,,,,,,,,,,,,,,,,,,,,,,,,,,,
0.0,1.0,1.414785,0.0,20.0,20.0,20.0,1.0,bank_06s.jpg,0.0,clockno_default.jpg,4.0,58,,,,,,,,,,,,,,,,,,,,,,,,,,,,,,,,
0.0,1.0,0.65603,0.0,21.0,21.0,21.0,1.0,spatula04.jpg,0.0,clockno_default.jpg,4.0,58,,,,,,,,,,,,,,,,,,,,,,,,,,,,,,,,
0.0,1.0,1.76348,0.0,22.0,22.0,22.0,1.0,syringe_02s.jpg,0.0,clockno_default.jpg,4.0,58,,,,,,,,,,,,,,,,,,,,,,,,,,,,,,,,
0.0,1.0,0.719145,0.0,23.0,23.0,23.0,1.0,surfboard_11s.jpg,0.0,clockno_up.jpg,5.0,58,,,,,,,,,,,,,,,,,,,,,,,,,,,,,,,,
0.0,1.0,0.690225,0.0,24.0,24.0,24.0,1.0,birthday_cake_09s.jpg,0.0,clockno_default.jpg,5.0,58,,,,,,,,,,,,,,,,,,,,,,,,,,,,,,,,
0.0,1.0,0.640875,0.0,25.0,25.0,25.0,1.0,pretzel_09s.jpg,0.0,clockno_default.jpg,5.0,58,,,,,,,,,,,,,,,,,,,,,,,,,,,,,,,,
0.0,1.0,0.881875,0.0,26.0,26.0,26.0,1.0,possum_09s.jpg,0.0,clockno_default.jpg,5.0,58,,,,,,,,,,,,,,,,,,,,,,,,,,,,,,,,
0.0,1.0,1.415225,0.0,27.0,27.0,27.0,1.0,magnet_03s.jpg,0.0,clockno_default.jpg,5.0,58,,,,,,,,,,,,,,,,,,,,,,,,,,,,,,,,
0.0,1.0,1.770825,0.0,28.0,28.0,28.0,1.0,crate_05s.jpg,0.0,clockno_default.jpg,5.0,58,,,,,,,,,,,,,,,,,,,,,,,,,,,,,,,,
,0.0,,0.0,29.0,29.0,29.0,1.0,fossil_06s.jpg,0.0,clockno_up.jpg,6.0,58,,,,,,,,,,,,,,,,,,,,,,,,,,,,,,,,
0.0,1.0,1.92393,0.0,30.0,30.0,30.0,1.0,contact_lens_15s.jpg,0.0,clockno_default.jpg,6.0,58,,,,,,,,,,,,,,,,,,,,,,,,,,,,,,,,
0.0,1.0,0.700155,0.0,31.0,31.0,31.0,1.0,sugar_cube_11s.jpg,0.0,clockno_default.jpg,6.0,58,,,,,,,,,,,,,,,,,,,,,,,,,,,,,,,,
0.0,1.0,0.92263,0.0,32.0,32.0,32.0,1.0,key_07s.jpg,0.0,clockno_default.jpg,6.0,58,,,,,,,,,,,,,,,,,,,,,,,,,,,,,,,,
0.0,1.0,1.366095,0.0,33.0,33.0,33.0,1.0,birthday_cake_09s.jpg,0.0,clockno_default.jpg,6.0,58,,,,,,,,,,,,,,,,,,,,,,,,,,,,,,,,
0.0,1.0,0.75788,0.0,34.0,34.0,34.0,1.0,kangaroo_02s.jpg,0.0,clockno_default.jpg,6.0,58,,,,,,,,,,,,,,,,,,,,,,,,,,,,,,,,
0.0,1.0,0.70239,0.0,35.0,35.0,35.0,1.0,juicer1_08s.jpg,0.0,clockno_default.jpg,6.0,58,,,,,,,,,,,,,,,,,,,,,,,,,,,,,,,,
,,,,,,,,,1.0,,,58,0.0,0.0,1.092765,0.0,0.0,0.0,0.0,1.0,magnet_03s.jpg,contact_lens_15s.jpg,,,,,,,,,,,,,,,,,,,,,,
,,,,,,,,,0.0,,,58,1.0,0.0,8.546465,0.0,1.0,1.0,1.0,1.0,paper_towel_03s.jpg,crystal_ball_12s.jpg,,,,,,,,,,,,,,,,,,,,,,
,,,,,,,,,0.0,,,58,1.0,0.0,1.061405,0.0,2.0,2.0,2.0,1.0,frog_09s.jpg,lamb_chop_07s.jpg,,,,,,,,,,,,,,,,,,,,,,
,,,,,,,,,0.0,,,58,1.0,0.0,4.05615,0.0,3.0,3.0,3.0,1.0,juicer1_08s.jpg,key_07s.jpg,,,,,,,,,,,,,,,,,,,,,,
,,,,,,,,,0.0,,,58,0.0,1.0,3.56224,0.0,4.0,4.0,4.0,1.0,eyedropper_12s.jpg,metronome_03s.jpg,,,,,,,,,,,,,,,,,,,,,,
,,,,,,,,,0.0,,,58,0.0,1.0,2.67137,0.0,5.0,5.0,5.0,1.0,totem_pole_05s.jpg,kettle_08s.jpg,,,,,,,,,,,,,,,,,,,,,,
,,,,,,,,,,,,58,,,,,,,,,,,0.0,4.0,4.0,4.0,1.0,clockno_present_5_5.xlsx,clockno_compare_task_5_5.xlsx,,,,,,,,,,,,,,,
0.0,1.0,1.3341,0.0,0.0,0.0,0.0,1.0,fishhook_06s.jpg,0.0,clockno_up.jpg,1.0,58,,,,,,,,,,,,,,,,,,,,,,,,,,,,,,,,
1.0,1.0,0.773495,0.0,1.0,1.0,1.0,1.0,fishhook_06s.jpg,1.0,clockno_default.jpg,1.0,58,,,,,,,,,,,,,,,,,,,,,,,,,,,,,,,,
1.0,1.0,0.80609,0.0,2.0,2.0,2.0,1.0,fishhook_06s.jpg,1.0,clockno_default.jpg,1.0,58,,,,,,,,,,,,,,,,,,,,,,,,,,,,,,,,
0.0,1.0,0.88553,0.0,3.0,3.0,3.0,1.0,chip_04s.jpg,0.0,clockno_default.jpg,1.0,58,,,,,,,,,,,,,,,,,,,,,,,,,,,,,,,,
0.0,1.0,0.86485,0.0,4.0,4.0,4.0,1.0,kite_04s.jpg,0.0,clockno_default.jpg,1.0,58,,,,,,,,,,,,,,,,,,,,,,,,,,,,,,,,
1.0,1.0,0.81525,0.0,5.0,5.0,5.0,1.0,fishhook_06s.jpg,1.0,clockno_default.jpg,1.0,58,,,,,,,,,,,,,,,,,,,,,,,,,,,,,,,,
0.0,1.0,0.821865,0.0,6.0,6.0,6.0,1.0,potpourri_03s.jpg,0.0,clockno_default.jpg,1.0,58,,,,,,,,,,,,,,,,,,,,,,,,,,,,,,,,
0.0,1.0,1.463885,0.0,7.0,7.0,7.0,1.0,blazer_02s.jpg,0.0,clockno_up.jpg,2.0,58,,,,,,,,,,,,,,,,,,,,,,,,,,,,,,,,
0.0,1.0,0.70337,0.0,8.0,8.0,8.0,1.0,toy_04s.jpg,0.0,clockno_default.jpg,2.0,58,,,,,,,,,,,,,,,,,,,,,,,,,,,,,,,,
0.0,1.0,0.649995,0.0,9.0,9.0,9.0,1.0,poinsettia_04s.jpg,0.0,clockno_default.jpg,2.0,58,,,,,,,,,,,,,,,,,,,,,,,,,,,,,,,,
0.0,1.0,0.88087,0.0,10.0,10.0,10.0,1.0,punch2_09s.jpg,0.0,clockno_default.jpg,2.0,58,,,,,,,,,,,,,,,,,,,,,,,,,,,,,,,,
0.0,0.0,1.85714,0.0,11.0,11.0,11.0,1.0,toy_04s.jpg,1.0,clockno_default.jpg,2.0,58,,,,,,,,,,,,,,,,,,,,,,,,,,,,,,,,
0.0,1.0,0.872445,0.0,12.0,12.0,12.0,1.0,quilt_03s.jpg,0.0,clockno_up.jpg,3.0,58,,,,,,,,,,,,,,,,,,,,,,,,,,,,,,,,
1.0,1.0,1.23386,0.0,13.0,13.0,13.0,1.0,quilt_03s.jpg,1.0,clockno_default.jpg,3.0,58,,,,,,,,,,,,,,,,,,,,,,,,,,,,,,,,
0.0,1.0,0.682845,0.0,14.0,14.0,14.0,1.0,toad_09s.jpg,0.0,clockno_default.jpg,3.0,58,,,,,,,,,,,,,,,,,,,,,,,,,,,,,,,,
1.0,1.0,0.72236,0.0,15.0,15.0,15.0,1.0,toad_09s.jpg,1.0,clockno_default.jpg,3.0,58,,,,,,,,,,,,,,,,,,,,,,,,,,,,,,,,
1.0,1.0,1.803,0.0,16.0,16.0,16.0,1.0,quilt_03s.jpg,1.0,clockno_default.jpg,3.0,58,,,,,,,,,,,,,,,,,,,,,,,,,,,,,,,,
0.0,1.0,1.139655,0.0,17.0,17.0,17.0,1.0,cucumber_07s.jpg,0.0,clockno_default.jpg,3.0,58,,,,,,,,,,,,,,,,,,,,,,,,,,,,,,,,
0.0,1.0,0.86689,0.0,18.0,18.0,18.0,1.0,turf_03s.jpg,0.0,clockno_default.jpg,3.0,58,,,,,,,,,,,,,,,,,,,,,,,,,,,,,,,,
0.0,1.0,1.30764,0.0,19.0,19.0,19.0,1.0,slingshot_07s.jpg,0.0,clockno_up.jpg,4.0,58,,,,,,,,,,,,,,,,,,,,,,,,,,,,,,,,
0.0,1.0,1.060125,0.0,20.0,20.0,20.0,1.0,toy_04s.jpg,0.0,clockno_default.jpg,4.0,58,,,,,,,,,,,,,,,,,,,,,,,,,,,,,,,,
0.0,1.0,0.59768,0.0,21.0,21.0,21.0,1.0,rice_12s.jpg,0.0,clockno_default.jpg,4.0,58,,,,,,,,,,,,,,,,,,,,,,,,,,,,,,,,
0.0,1.0,0.716735,0.0,22.0,22.0,22.0,1.0,flip_flop_03s.jpg,0.0,clockno_default.jpg,4.0,58,,,,,,,,,,,,,,,,,,,,,,,,,,,,,,,,
0.0,1.0,0.814455,0.0,23.0,23.0,23.0,1.0,knitting_needle_04s.jpg,0.0,clockno_default.jpg,4.0,58,,,,,,,,,,,,,,,,,,,,,,,,,,,,,,,,
0.0,1.0,0.733555,0.0,24.0,24.0,24.0,1.0,crossbow_10s.jpg,0.0,clockno_default.jpg,4.0,58,,,,,,,,,,,,,,,,,,,,,,,,,,,,,,,,
0.0,1.0,0.885875,0.0,25.0,25.0,25.0,1.0,rocking_chair_05s.jpg,0.0,clockno_up.jpg,5.0,58,,,,,,,,,,,,,,,,,,,,,,,,,,,,,,,,
0.0,1.0,0.63028,0.0,26.0,26.0,26.0,1.0,fire_pit_10s.jpg,0.0,clockno_default.jpg,5.0,58,,,,,,,,,,,,,,,,,,,,,,,,,,,,,,,,
1.0,1.0,0.95114,0.0,27.0,27.0,27.0,1.0,rocking_chair_05s.jpg,1.0,clockno_default.jpg,5.0,58,,,,,,,,,,,,,,,,,,,,,,,,,,,,,,,,
1.0,1.0,0.59154,0.0,28.0,28.0,28.0,1.0,rocking_chair_05s.jpg,1.0,clockno_default.jpg,5.0,58,,,,,,,,,,,,,,,,,,,,,,,,,,,,,,,,
0.0,1.0,1.01692,0.0,29.0,29.0,29.0,1.0,toad_09s.jpg,0.0,clockno_default.jpg,5.0,58,,,,,,,,,,,,,,,,,,,,,,,,,,,,,,,,
1.0,1.0,0.800005,0.0,30.0,30.0,30.0,1.0,rocking_chair_05s.jpg,1.0,clockno_default.jpg,5.0,58,,,,,,,,,,,,,,,,,,,,,,,,,,,,,,,,
0.0,1.0,0.91969,0.0,31.0,31.0,31.0,1.0,money_07s.jpg,0.0,clockno_up.jpg,6.0,58,,,,,,,,,,,,,,,,,,,,,,,,,,,,,,,,
0.0,1.0,0.960625,0.0,32.0,32.0,32.0,1.0,boomerang_06s.jpg,0.0,clockno_default.jpg,6.0,58,,,,,,,,,,,,,,,,,,,,,,,,,,,,,,,,
0.0,1.0,1.400915,0.0,33.0,33.0,33.0,1.0,mitten_10s.jpg,0.0,clockno_default.jpg,6.0,58,,,,,,,,,,,,,,,,,,,,,,,,,,,,,,,,
0.0,1.0,1.1373,0.0,34.0,34.0,34.0,1.0,cereal_04s.jpg,0.0,clockno_default.jpg,6.0,58,,,,,,,,,,,,,,,,,,,,,,,,,,,,,,,,
0.0,1.0,0.985545,0.0,35.0,35.0,35.0,1.0,mailbox_11s.jpg,0.0,clockno_default.jpg,6.0,58,,,,,,,,,,,,,,,,,,,,,,,,,,,,,,,,
,,,,,,,,,1.0,,,58,1.0,1.0,1.74382,0.0,0.0,0.0,0.0,1.0,knitting_needle_04s.jpg,fire_pit_10s.jpg,,,,,,,,,,,,,,,,,,,,,,
,,,,,,,,,1.0,,,58,0.0,0.0,2.002605,0.0,1.0,1.0,1.0,1.0,kite_04s.jpg,blazer_02s.jpg,,,,,,,,,,,,,,,,,,,,,,
,,,,,,,,,1.0,,,58,1.0,1.0,4.118855,0.0,2.0,2.0,2.0,1.0,potpourri_03s.jpg,poinsettia_04s.jpg,,,,,,,,,,,,,,,,,,,,,,
,,,,,,,,,1.0,,,58,1.0,1.0,10.264425,0.0,3.0,3.0,3.0,1.0,slingshot_07s.jpg,flip_flop_03s.jpg,,,,,,,,,,,,,,,,,,,,,,
,,,,,,,,,1.0,,,58,0.0,0.0,1.51876,0.0,4.0,4.0,4.0,1.0,money_07s.jpg,cereal_04s.jpg,,,,,,,,,,,,,,,,,,,,,,
,,,,,,,,,1.0,,,58,0.0,0.0,1.56605,0.0,5.0,5.0,5.0,1.0,boomerang_06s.jpg,mailbox_11s.jpg,,,,,,,,,,,,,,,,,,,,,,
0.0,1.0,2.042915,,,,,,undershirt_02s.jpg,0.0,clock_5_1.png,1.0,58,,,,,,,,,,,,,,,,,,0.0,0.0,0.0,0.0,1.0,,,,,,,,,,
0.0,1.0,1.04929,,,,,,ladder_15s.jpg,0.0,clock_5_2.png,1.0,58,,,,,,,,,,,,,,,,,,0.0,1.0,1.0,1.0,1.0,,,,,,,,,,
0.0,1.0,0.769885,,,,,,lantern_04s.jpg,0.0,clock_5_3.png,1.0,58,,,,,,,,,,,,,,,,,,0.0,2.0,2.0,2.0,1.0,,,,,,,,,,
0.0,1.0,0.649565,,,,,,cap_05s.jpg,0.0,clock_5_4.png,1.0,58,,,,,,,,,,,,,,,,,,0.0,3.0,3.0,3.0,1.0,,,,,,,,,,
0.0,1.0,0.56958,,,,,,boar_10s.jpg,0.0,clock_5_5.png,1.0,58,,,,,,,,,,,,,,,,,,0.0,4.0,4.0,4.0,1.0,,,,,,,,,,
0.0,1.0,1.11585,,,,,,ring_03s.jpg,0.0,clock_7_1.png,2.0,58,,,,,,,,,,,,,,,,,,0.0,5.0,5.0,5.0,1.0,,,,,,,,,,
0.0,1.0,0.531425,,,,,,kimono_13s.jpg,0.0,clock_7_2.png,2.0,58,,,,,,,,,,,,,,,,,,0.0,6.0,6.0,6.0,1.0,,,,,,,,,,
0.0,1.0,1.018965,,,,,,pacifier_09s.jpg,0.0,clock_7_3.png,2.0,58,,,,,,,,,,,,,,,,,,0.0,7.0,7.0,7.0,1.0,,,,,,,,,,
0.0,1.0,0.64391,,,,,,cape_11s.jpg,0.0,clock_7_4.png,2.0,58,,,,,,,,,,,,,,,,,,0.0,8.0,8.0,8.0,1.0,,,,,,,,,,
0.0,1.0,0.659865,,,,,,spider_web_03s.jpg,0.0,clock_7_5.png,2.0,58,,,,,,,,,,,,,,,,,,0.0,9.0,9.0,9.0,1.0,,,,,,,,,,
0.0,1.0,0.740635,,,,,,pancake_12s.jpg,0.0,clock_7_6.png,2.0,58,,,,,,,,,,,,,,,,,,0.0,10.0,10.0,10.0,1.0,,,,,,,,,,
1.0,1.0,0.749755,,,,,,pancake_12s.jpg,1.0,clock_7_7.png,2.0,58,,,,,,,,,,,,,,,,,,0.0,11.0,11.0,11.0,1.0,,,,,,,,,,
0.0,1.0,0.6048,,,,,,tulip_02s.jpg,0.0,clock_6_1.png,3.0,58,,,,,,,,,,,,,,,,,,0.0,12.0,12.0,12.0,1.0,,,,,,,,,,
0.0,1.0,1.014295,,,,,,pacifier_09s.jpg,0.0,clock_6_2.png,3.0,58,,,,,,,,,,,,,,,,,,0.0,13.0,13.0,13.0,1.0,,,,,,,,,,
0.0,1.0,0.80418,,,,,,gas_mask_11s.jpg,0.0,clock_6_3.png,3.0,58,,,,,,,,,,,,,,,,,,0.0,14.0,14.0,14.0,1.0,,,,,,,,,,
0.0,1.0,0.863175,,,,,,torch_02s.jpg,0.0,clock_6_4.png,3.0,58,,,,,,,,,,,,,,,,,,0.0,15.0,15.0,15.0,1.0,,,,,,,,,,
0.0,1.0,0.70203,,,,,,powder_07s.jpg,0.0,clock_6_5.png,3.0,58,,,,,,,,,,,,,,,,,,0.0,16.0,16.0,16.0,1.0,,,,,,,,,,
0.0,1.0,0.7498,,,,,,lamppost_09s.jpg,0.0,clock_6_6.png,3.0,58,,,,,,,,,,,,,,,,,,0.0,17.0,17.0,17.0,1.0,,,,,,,,,,
0.0,1.0,0.73081,,,,,,rug_09s.jpg,0.0,clock_7_1.png,4.0,58,,,,,,,,,,,,,,,,,,0.0,18.0,18.0,18.0,1.0,,,,,,,,,,
1.0,1.0,1.46451,,,,,,rug_09s.jpg,1.0,clock_7_2.png,4.0,58,,,,,,,,,,,,,,,,,,0.0,19.0,19.0,19.0,1.0,,,,,,,,,,
0.0,1.0,0.93605,,,,,,pencil_sharpener_09n.jpg,0.0,clock_7_3.png,4.0,58,,,,,,,,,,,,,,,,,,0.0,20.0,20.0,20.0,1.0,,,,,,,,,,
0.0,1.0,0.592435,,,,,,trumpet_06s.jpg,0.0,clock_7_4.png,4.0,58,,,,,,,,,,,,,,,,,,0.0,21.0,21.0,21.0,1.0,,,,,,,,,,
0.0,1.0,0.530965,,,,,,typewriter_11s.jpg,0.0,clock_7_5.png,4.0,58,,,,,,,,,,,,,,,,,,0.0,22.0,22.0,22.0,1.0,,,,,,,,,,
0.0,1.0,0.69804,,,,,,swan_11s.jpg,0.0,clock_7_6.png,4.0,58,,,,,,,,,,,,,,,,,,0.0,23.0,23.0,23.0,1.0,,,,,,,,,,
0.0,1.0,1.241675,,,,,,torch_02s.jpg,0.0,clock_7_7.png,4.0,58,,,,,,,,,,,,,,,,,,0.0,24.0,24.0,24.0,1.0,,,,,,,,,,
0.0,1.0,0.705515,,,,,,submarine_11n.jpg,0.0,clock_6_1.png,5.0,58,,,,,,,,,,,,,,,,,,0.0,25.0,25.0,25.0,1.0,,,,,,,,,,
0.0,1.0,0.58628,,,,,,popcorn_09s.jpg,0.0,clock_6_2.png,5.0,58,,,,,,,,,,,,,,,,,,0.0,26.0,26.0,26.0,1.0,,,,,,,,,,
0.0,1.0,0.458665,,,,,,turnstile_08s.jpg,0.0,clock_6_3.png,5.0,58,,,,,,,,,,,,,,,,,,0.0,27.0,27.0,27.0,1.0,,,,,,,,,,
0.0,1.0,0.797805,,,,,,printer_09s.jpg,0.0,clock_6_4.png,5.0,58,,,,,,,,,,,,,,,,,,0.0,28.0,28.0,28.0,1.0,,,,,,,,,,
0.0,1.0,0.764265,,,,,,orange_12s.jpg,0.0,clock_6_5.png,5.0,58,,,,,,,,,,,,,,,,,,0.0,29.0,29.0,29.0,1.0,,,,,,,,,,
1.0,1.0,0.89941,,,,,,submarine_11n.jpg,1.0,clock_6_6.png,5.0,58,,,,,,,,,,,,,,,,,,0.0,30.0,30.0,30.0,1.0,,,,,,,,,,
0.0,1.0,0.74007,,,,,,red_carpet_03s.jpg,0.0,clock_5_1.png,6.0,58,,,,,,,,,,,,,,,,,,0.0,31.0,31.0,31.0,1.0,,,,,,,,,,
0.0,1.0,0.997935,,,,,,spider_web_03s.jpg,0.0,clock_5_2.png,6.0,58,,,,,,,,,,,,,,,,,,0.0,32.0,32.0,32.0,1.0,,,,,,,,,,
0.0,1.0,0.724465,,,,,,fireworks_18s.jpg,0.0,clock_5_3.png,6.0,58,,,,,,,,,,,,,,,,,,0.0,33.0,33.0,33.0,1.0,,,,,,,,,,
0.0,1.0,0.648205,,,,,,piano_13n.jpg,0.0,clock_5_4.png,6.0,58,,,,,,,,,,,,,,,,,,0.0,34.0,34.0,34.0,1.0,,,,,,,,,,
0.0,1.0,0.740065,,,,,,fondue_07s.jpg,0.0,clock_5_5.png,6.0,58,,,,,,,,,,,,,,,,,,0.0,35.0,35.0,35.0,1.0,,,,,,,,,,
,,,,,,,,,1.0,,,58,0.0,0.0,10.38448,,,,,,lantern_04s.jpg,ring_03s.jpg,,,,,,,,,,,,,0.0,0.0,0.0,0.0,1.0,,,,,
,,,,,,,,,1.0,,,58,0.0,0.0,1.698245,,,,,,cap_05s.jpg,kimono_13s.jpg,,,,,,,,,,,,,0.0,1.0,1.0,1.0,1.0,,,,,
,,,,,,,,,0.0,,,58,0.0,1.0,1.633765,,,,,,red_carpet_03s.jpg,printer_09s.jpg,,,,,,,,,,,,,0.0,2.0,2.0,2.0,1.0,,,,,
,,,,,,,,,0.0,,,58,1.0,0.0,7.17211,,,,,,boar_10s.jpg,ladder_15s.jpg,,,,,,,,,,,,,0.0,3.0,3.0,3.0,1.0,,,,,
,,,,,,,,,0.0,,,58,0.0,1.0,2.23257,,,,,,lamppost_09s.jpg,gas_mask_11s.jpg,,,,,,,,,,,,,0.0,4.0,4.0,4.0,1.0,,,,,
,,,,,,,,,1.0,,,58,1.0,1.0,1.58695,,,,,,popcorn_09s.jpg,orange_12s.jpg,,,,,,,,,,,,,0.0,5.0,5.0,5.0,1.0,,,,,
,,,,,,,,,,,,58,,,,,,,,,,,,,,,,clock_present_1_5.xlsx,clock_compare_task_1_5.xlsx,,,,,,,,,,,0.0,0.0,0.0,0.0,1.0
0.0,1.0,1.011195,,,,,,rhinoceros_02s.jpg,0.0,clock_5_1.png,1.0,58,,,,,,,,,,,,,,,,,,0.0,0.0,0.0,0.0,1.0,,,,,,,,,,
0.0,1.0,0.564405,,,,,,laundry_basket_11s.jpg,0.0,clock_5_2.png,1.0,58,,,,,,,,,,,,,,,,,,0.0,1.0,1.0,1.0,1.0,,,,,,,,,,
1.0,1.0,0.835985,,,,,,laundry_basket_11s.jpg,1.0,clock_5_3.png,1.0,58,,,,,,,,,,,,,,,,,,0.0,2.0,2.0,2.0,1.0,,,,,,,,,,
0.0,1.0,0.79754,,,,,,peeler_06s.jpg,0.0,clock_5_4.png,1.0,58,,,,,,,,,,,,,,,,,,0.0,3.0,3.0,3.0,1.0,,,,,,,,,,
0.0,1.0,0.884275,,,,,,pepper_mill_03s.jpg,0.0,clock_5_5.png,1.0,58,,,,,,,,,,,,,,,,,,0.0,4.0,4.0,4.0,1.0,,,,,,,,,,
0.0,1.0,0.850255,,,,,,eiffeltower.jpg,0.0,clock_7_1.png,2.0,58,,,,,,,,,,,,,,,,,,0.0,5.0,5.0,5.0,1.0,,,,,,,,,,
1.0,1.0,0.80526,,,,,,eiffeltower.jpg,1.0,clock_7_2.png,2.0,58,,,,,,,,,,,,,,,,,,0.0,6.0,6.0,6.0,1.0,,,,,,,,,,
0.0,1.0,0.957215,,,,,,blender_08s.jpg,0.0,clock_7_3.png,2.0,58,,,,,,,,,,,,,,,,,,0.0,7.0,7.0,7.0,1.0,,,,,,,,,,
0.0,1.0,0.652885,,,,,,treasure_08s.jpg,0.0,clock_7_4.png,2.0,58,,,,,,,,,,,,,,,,,,0.0,8.0,8.0,8.0,1.0,,,,,,,,,,
1.0,1.0,0.80644,,,,,,eiffeltower.jpg,1.0,clock_7_5.png,2.0,58,,,,,,,,,,,,,,,,,,0.0,9.0,9.0,9.0,1.0,,,,,,,,,,
0.0,1.0,0.798535,,,,,,lamb_04s.jpg,0.0,clock_7_6.png,2.0,58,,,,,,,,,,,,,,,,,,0.0,10.0,10.0,10.0,1.0,,,,,,,,,,
0.0,0.0,0.639035,,,,,,blender_08s.jpg,1.0,clock_7_7.png,2.0,58,,,,,,,,,,,,,,,,,,0.0,11.0,11.0,11.0,1.0,,,,,,,,,,
0.0,1.0,1.87108,,,,,,outlet_10s.jpg,0.0,clock_6_1.png,3.0,58,,,,,,,,,,,,,,,,,,0.0,12.0,12.0,12.0,1.0,,,,,,,,,,
0.0,1.0,0.798955,,,,,,mixer_12s.jpg,0.0,clock_6_2.png,3.0,58,,,,,,,,,,,,,,,,,,0.0,13.0,13.0,13.0,1.0,,,,,,,,,,
0.0,1.0,0.6553,,,,,,toilet_07s.jpg,0.0,clock_6_3.png,3.0,58,,,,,,,,,,,,,,,,,,0.0,14.0,14.0,14.0,1.0,,,,,,,,,,
0.0,1.0,0.815965,,,,,,keyboard_05s.jpg,0.0,clock_6_4.png,3.0,58,,,,,,,,,,,,,,,,,,0.0,15.0,15.0,15.0,1.0,,,,,,,,,,
1.0,1.0,1.17685,,,,,,toilet_07s.jpg,1.0,clock_6_5.png,3.0,58,,,,,,,,,,,,,,,,,,0.0,16.0,16.0,16.0,1.0,,,,,,,,,,
0.0,1.0,0.768825,,,,,,air_pump_05s.jpg,0.0,clock_6_6.png,3.0,58,,,,,,,,,,,,,,,,,,0.0,17.0,17.0,17.0,1.0,,,,,,,,,,
0.0,1.0,0.61824,,,,,,limousine_12s.jpg,0.0,clock_7_1.png,4.0,58,,,,,,,,,,,,,,,,,,0.0,18.0,18.0,18.0,1.0,,,,,,,,,,
1.0,1.0,0.786835,,,,,,limousine_12s.jpg,1.0,clock_7_2.png,4.0,58,,,,,,,,,,,,,,,,,,0.0,19.0,19.0,19.0,1.0,,,,,,,,,,
0.0,1.0,0.586435,,,,,,rope_16s.jpg,0.0,clock_7_3.png,4.0,58,,,,,,,,,,,,,,,,,,0.0,20.0,20.0,20.0,1.0,,,,,,,,,,
0.0,1.0,0.56471,,,,,,omelet_07s.jpg,0.0,clock_7_4.png,4.0,58,,,,,,,,,,,,,,,,,,0.0,21.0,21.0,21.0,1.0,,,,,,,,,,
0.0,1.0,0.564325,,,,,,jigsaw_puzzle_11s.jpg,0.0,clock_7_5.png,4.0,58,,,,,,,,,,,,,,,,,,0.0,22.0,22.0,22.0,1.0,,,,,,,,,,
0.0,1.0,0.564535,,,,,,taxi_15s.jpg,0.0,clock_7_6.png,4.0,58,,,,,,,,,,,,,,,,,,0.0,23.0,23.0,23.0,1.0,,,,,,,,,,
0.0,1.0,0.820465,,,,,,puck_06s.jpg,0.0,clock_7_7.png,4.0,58,,,,,,,,,,,,,,,,,,0.0,24.0,24.0,24.0,1.0,,,,,,,,,,
0.0,1.0,0.836395,,,,,,tube_top_03s.jpg,0.0,clock_5_1.png,5.0,58,,,,,,,,,,,,,,,,,,0.0,25.0,25.0,25.0,1.0,,,,,,,,,,
0.0,1.0,0.70043,,,,,,exhaust_pipe_10s.jpg,0.0,clock_5_2.png,5.0,58,,,,,,,,,,,,,,,,,,0.0,26.0,26.0,26.0,1.0,,,,,,,,,,
0.0,1.0,0.966205,,,,,,polar_bear_02s.jpg,0.0,clock_5_3.png,5.0,58,,,,,,,,,,,,,,,,,,0.0,27.0,27.0,27.0,1.0,,,,,,,,,,
0.0,1.0,0.848035,,,,,,pillow_03s.jpg,0.0,clock_5_4.png,5.0,58,,,,,,,,,,,,,,,,,,0.0,28.0,28.0,28.0,1.0,,,,,,,,,,
0.0,1.0,0.67766,,,,,,harpoon.jpg,0.0,clock_5_5.png,5.0,58,,,,,,,,,,,,,,,,,,0.0,29.0,29.0,29.0,1.0,,,,,,,,,,
0.0,1.0,0.606425,,,,,,turkey_10s.jpg,0.0,clock_6_1.png,6.0,58,,,,,,,,,,,,,,,,,,0.0,30.0,30.0,30.0,1.0,,,,,,,,,,
0.0,1.0,1.081485,,,,,,thermostat_02s.jpg,0.0,clock_6_2.png,6.0,58,,,,,,,,,,,,,,,,,,0.0,31.0,31.0,31.0,1.0,,,,,,,,,,
0.0,1.0,0.791005,,,,,,chopsticks_08s.jpg,0.0,clock_6_3.png,6.0,58,,,,,,,,,,,,,,,,,,0.0,32.0,32.0,32.0,1.0,,,,,,,,,,
0.0,1.0,0.615435,,,,,,tab_09s.jpg,0.0,clock_6_4.png,6.0,58,,,,,,,,,,,,,,,,,,0.0,33.0,33.0,33.0,1.0,,,,,,,,,,
0.0,1.0,0.697625,,,,,,breadstick_08s.jpg,0.0,clock_6_5.png,6.0,58,,,,,,,,,,,,,,,,,,0.0,34.0,34.0,34.0,1.0,,,,,,,,,,
0.0,1.0,1.8252,,,,,,rhinoceros_02s.jpg,0.0,clock_6_6.png,6.0,58,,,,,,,,,,,,,,,,,,0.0,35.0,35.0,35.0,1.0,,,,,,,,,,
,,,,,,,,,0.0,,,58,0.0,1.0,3.94279,,,,,,mixer_12s.jpg,lamb_04s.jpg,,,,,,,,,,,,,0.0,0.0,0.0,0.0,1.0,,,,,
,,,,,,,,,0.0,,,58,0.0,1.0,3.38181,,,,,,rope_16s.jpg,air_pump_05s.jpg,,,,,,,,,,,,,0.0,1.0,1.0,1.0,1.0,,,,,
,,,,,,,,,1.0,,,58,0.0,0.0,7.20904,,,,,,jigsaw_puzzle_11s.jpg,tube_top_03s.jpg,,,,,,,,,,,,,0.0,2.0,2.0,2.0,1.0,,,,,
,,,,,,,,,1.0,,,58,1.0,1.0,2.292715,,,,,,outlet_10s.jpg,keyboard_05s.jpg,,,,,,,,,,,,,0.0,3.0,3.0,3.0,1.0,,,,,
,,,,,,,,,0.0,,,58,0.0,1.0,2.4374,,,,,,puck_06s.jpg,omelet_07s.jpg,,,,,,,,,,,,,0.0,4.0,4.0,4.0,1.0,,,,,
,,,,,,,,,1.0,,,58,0.0,0.0,3.503335,,,,,,turkey_10s.jpg,tab_09s.jpg,,,,,,,,,,,,,0.0,5.0,5.0,5.0,1.0,,,,,
,,,,,,,,,,,,58,,,,,,,,,,,,,,,,clock_present_2_5.xlsx,clock_compare_task_2_5.xlsx,,,,,,,,,,,0.0,1.0,1.0,1.0,1.0
0.0,1.0,1.19345,,,,,,pumpkin_03s.jpg,0.0,clock_7_1.png,1.0,58,,,,,,,,,,,,,,,,,,0.0,0.0,0.0,0.0,1.0,,,,,,,,,,
0.0,1.0,0.905345,,,,,,bottle_opener_11s.jpg,0.0,clock_7_2.png,1.0,58,,,,,,,,,,,,,,,,,,0.0,1.0,1.0,1.0,1.0,,,,,,,,,,
0.0,1.0,0.601945,,,,,,tupperware_09s.jpg,0.0,clock_7_3.png,1.0,58,,,,,,,,,,,,,,,,,,0.0,2.0,2.0,2.0,1.0,,,,,,,,,,
0.0,1.0,0.65799,,,,,,mango_09s.jpg,0.0,clock_7_4.png,1.0,58,,,,,,,,,,,,,,,,,,0.0,3.0,3.0,3.0,1.0,,,,,,,,,,
0.0,1.0,0.69084,,,,,,marker_05s.jpg,0.0,clock_7_5.png,1.0,58,,,,,,,,,,,,,,,,,,0.0,4.0,4.0,4.0,1.0,,,,,,,,,,
0.0,1.0,0.614455,,,,,,bean_06s.jpg,0.0,clock_7_6.png,1.0,58,,,,,,,,,,,,,,,,,,0.0,5.0,5.0,5.0,1.0,,,,,,,,,,
0.0,1.0,0.65771,,,,,,pear_02s.jpg,0.0,clock_7_7.png,1.0,58,,,,,,,,,,,,,,,,,,0.0,6.0,6.0,6.0,1.0,,,,,,,,,,
0.0,1.0,0.7404,,,,,,clover_04s.jpg,0.0,clock_5_1.png,2.0,58,,,,,,,,,,,,,,,,,,0.0,7.0,7.0,7.0,1.0,,,,,,,,,,
0.0,1.0,0.964285,,,,,,perfume_06s.jpg,0.0,clock_5_2.png,2.0,58,,,,,,,,,,,,,,,,,,0.0,8.0,8.0,8.0,1.0,,,,,,,,,,
0.0,1.0,0.68194,,,,,,spacesuit_02s.jpg,0.0,clock_5_3.png,2.0,58,,,,,,,,,,,,,,,,,,0.0,9.0,9.0,9.0,1.0,,,,,,,,,,
0.0,1.0,0.940945,,,,,,recliner_02s.jpg,0.0,clock_5_4.png,2.0,58,,,,,,,,,,,,,,,,,,0.0,10.0,10.0,10.0,1.0,,,,,,,,,,
0.0,1.0,1.13296,,,,,,hyena_16s.jpg,0.0,clock_5_5.png,2.0,58,,,,,,,,,,,,,,,,,,0.0,11.0,11.0,11.0,1.0,,,,,,,,,,
0.0,1.0,1.133605,,,,,,bolo_tie_08s.jpg,0.0,clock_7_1.png,3.0,58,,,,,,,,,,,,,,,,,,0.0,12.0,12.0,12.0,1.0,,,,,,,,,,
0.0,1.0,1.430845,,,,,,plaster_cast_13s.jpg,0.0,clock_7_2.png,3.0,58,,,,,,,,,,,,,,,,,,0.0,13.0,13.0,13.0,1.0,,,,,,,,,,
0.0,1.0,2.0865,,,,,,badge_03s.jpg,0.0,clock_7_3.png,3.0,58,,,,,,,,,,,,,,,,,,0.0,14.0,14.0,14.0,1.0,,,,,,,,,,
0.0,1.0,1.206435,,,,,,swordfish_05s.jpg,0.0,clock_7_4.png,3.0,58,,,,,,,,,,,,,,,,,,0.0,15.0,15.0,15.0,1.0,,,,,,,,,,
0.0,1.0,1.254865,,,,,,perfume_06s.jpg,0.0,clock_7_5.png,3.0,58,,,,,,,,,,,,,,,,,,0.0,16.0,16.0,16.0,1.0,,,,,,,,,,
0.0,1.0,2.00025,,,,,,pear_02s.jpg,0.0,clock_7_6.png,3.0,58,,,,,,,,,,,,,,,,,,0.0,17.0,17.0,17.0,1.0,,,,,,,,,,
0.0,1.0,0.69754,,,,,,quill_09s.jpg,0.0,clock_7_7.png,3.0,58,,,,,,,,,,,,,,,,,,0.0,18.0,18.0,18.0,1.0,,,,,,,,,,
0.0,1.0,0.931035,,,,,,mop_08s.jpg,0.0,clock_6_1.png,4.0,58,,,,,,,,,,,,,,,,,,0.0,19.0,19.0,19.0,1.0,,,,,,,,,,
0.0,1.0,0.793635,,,,,,plaster_cast_13s.jpg,0.0,clock_6_2.png,4.0,58,,,,,,,,,,,,,,,,,,0.0,20.0,20.0,20.0,1.0,,,,,,,,,,
0.0,1.0,0.747955,,,,,,parachute_03s.jpg,0.0,clock_6_3.png,4.0,58,,,,,,,,,,,,,,,,,,0.0,21.0,21.0,21.0,1.0,,,,,,,,,,
0.0,1.0,0.569725,,,,,,inhaler_01b.jpg,0.0,clock_6_4.png,4.0,58,,,,,,,,,,,,,,,,,,0.0,22.0,22.0,22.0,1.0,,,,,,,,,,
0.0,1.0,0.657155,,,,,,diving_board_07s.jpg,0.0,clock_6_5.png,4.0,58,,,,,,,,,,,,,,,,,,0.0,23.0,23.0,23.0,1.0,,,,,,,,,,
0.0,1.0,0.610755,,,,,,lion_18s.jpg,0.0,clock_6_6.png,4.0,58,,,,,,,,,,,,,,,,,,0.0,24.0,24.0,24.0,1.0,,,,,,,,,,
0.0,1.0,0.731155,,,,,,onion_10s.jpg,0.0,clock_6_1.png,5.0,58,,,,,,,,,,,,,,,,,,0.0,25.0,25.0,25.0,1.0,,,,,,,,,,
0.0,1.0,0.43533,,,,,,throne_11s.jpg,0.0,clock_6_2.png,5.0,58,,,,,,,,,,,,,,,,,,0.0,26.0,26.0,26.0,1.0,,,,,,,,,,
0.0,1.0,0.764715,,,,,,quad_04s.jpg,0.0,clock_6_3.png,5.0,58,,,,,,,,,,,,,,,,,,0.0,27.0,27.0,27.0,1.0,,,,,,,,,,
0.0,1.0,0.884,,,,,,roulette_wheel_04s.jpg,0.0,clock_6_4.png,5.0,58,,,,,,,,,,,,,,,,,,0.0,28.0,28.0,28.0,1.0,,,,,,,,,,
0.0,1.0,0.814495,,,,,,puppy_08s.jpg,0.0,clock_6_5.png,5.0,58,,,,,,,,,,,,,,,,,,0.0,29.0,29.0,29.0,1.0,,,,,,,,,,
0.0,1.0,0.749795,,,,,,thorn_13s.jpg,0.0,clock_6_6.png,5.0,58,,,,,,,,,,,,,,,,,,0.0,30.0,30.0,30.0,1.0,,,,,,,,,,
0.0,1.0,0.653335,,,,,,mirror_12s.jpg,0.0,clock_5_1.png,6.0,58,,,,,,,,,,,,,,,,,,0.0,31.0,31.0,31.0,1.0,,,,,,,,,,
0.0,1.0,0.598055,,,,,,police_car_01s.jpg,0.0,clock_5_2.png,6.0,58,,,,,,,,,,,,,,,,,,0.0,32.0,32.0,32.0,1.0,,,,,,,,,,
1.0,1.0,1.77293,,,,,,mirror_12s.jpg,1.0,clock_5_3.png,6.0,58,,,,,,,,,,,,,,,,,,0.0,33.0,33.0,33.0,1.0,,,,,,,,,,
0.0,1.0,0.60612,,,,,,rooster_03s.jpg,0.0,clock_5_4.png,6.0,58,,,,,,,,,,,,,,,,,,0.0,34.0,34.0,34.0,1.0,,,,,,,,,,
0.0,1.0,0.71807,,,,,,trampoline_13s.jpg,0.0,clock_5_5.png,6.0,58,,,,,,,,,,,,,,,,,,0.0,35.0,35.0,35.0,1.0,,,,,,,,,,
,,,,,,,,,0.0,,,58,1.0,0.0,7.45546,,,,,,badge_03s.jpg,hyena_16s.jpg,,,,,,,,,,,,,0.0,0.0,0.0,0.0,1.0,,,,,
,,,,,,,,,1.0,,,58,0.0,0.0,4.52649,,,,,,spacesuit_02s.jpg,bolo_tie_08s.jpg,,,,,,,,,,,,,0.0,1.0,1.0,1.0,1.0,,,,,
,,,,,,,,,0.0,,,58,0.0,1.0,3.98183,,,,,,throne_11s.jpg,diving_board_07s.jpg,,,,,,,,,,,,,0.0,2.0,2.0,2.0,1.0,,,,,
,,,,,,,,,0.0,,,58,0.0,1.0,2.3509,,,,,,mango_09s.jpg,pumpkin_03s.jpg,,,,,,,,,,,,,0.0,3.0,3.0,3.0,1.0,,,,,
,,,,,,,,,1.0,,,58,0.0,0.0,2.698315,,,,,,tupperware_09s.jpg,bean_06s.jpg,,,,,,,,,,,,,0.0,4.0,4.0,4.0,1.0,,,,,
,,,,,,,,,1.0,,,58,0.0,0.0,6.649205,,,,,,bottle_opener_11s.jpg,marker_05s.jpg,,,,,,,,,,,,,0.0,5.0,5.0,5.0,1.0,,,,,
,,,,,,,,,,,,58,,,,,,,,,,,,,,,,clock_present_3_5.xlsx,clock_compare_task_3_5.xlsx,,,,,,,,,,,0.0,2.0,2.0,2.0,1.0
0.0,1.0,1.05902,,,,,,ginger_09s.jpg,0.0,clock_6_1.png,1.0,58,,,,,,,,,,,,,,,,,,0.0,0.0,0.0,0.0,1.0,,,,,,,,,,
0.0,1.0,0.98699,,,,,,letter_opener_03s.jpg,0.0,clock_6_2.png,1.0,58,,,,,,,,,,,,,,,,,,0.0,1.0,1.0,1.0,1.0,,,,,,,,,,
0.0,1.0,0.965175,,,,,,loveseat_08s.jpg,0.0,clock_6_3.png,1.0,58,,,,,,,,,,,,,,,,,,0.0,2.0,2.0,2.0,1.0,,,,,,,,,,
1.0,1.0,1.108805,,,,,,letter_opener_03s.jpg,1.0,clock_6_4.png,1.0,58,,,,,,,,,,,,,,,,,,0.0,3.0,3.0,3.0,1.0,,,,,,,,,,
1.0,1.0,0.92526,,,,,,loveseat_08s.jpg,1.0,clock_6_5.png,1.0,58,,,,,,,,,,,,,,,,,,0.0,4.0,4.0,4.0,1.0,,,,,,,,,,
0.0,1.0,1.06144,,,,,,towel_rack_04s.jpg,0.0,clock_6_6.png,1.0,58,,,,,,,,,,,,,,,,,,0.0,5.0,5.0,5.0,1.0,,,,,,,,,,
0.0,1.0,0.916485,,,,,,rollerskate_03s.jpg,0.0,clock_5_1.png,2.0,58,,,,,,,,,,,,,,,,,,0.0,6.0,6.0,6.0,1.0,,,,,,,,,,
0.0,1.0,0.70941,,,,,,puddle_02s.jpg,0.0,clock_5_2.png,2.0,58,,,,,,,,,,,,,,,,,,0.0,7.0,7.0,7.0,1.0,,,,,,,,,,
1.0,1.0,1.08684,,,,,,rollerskate_03s.jpg,1.0,clock_5_3.png,2.0,58,,,,,,,,,,,,,,,,,,0.0,8.0,8.0,8.0,1.0,,,,,,,,,,
0.0,1.0,0.766565,,,,,,dirt_bike_11s.jpg,0.0,clock_5_4.png,2.0,58,,,,,,,,,,,,,,,,,,0.0,9.0,9.0,9.0,1.0,,,,,,,,,,
0.0,1.0,0.96687,,,,,,prism_10s.jpg,0.0,clock_5_5.png,2.0,58,,,,,,,,,,,,,,,,,,0.0,10.0,10.0,10.0,1.0,,,,,,,,,,
0.0,1.0,0.935605,,,,,,kayak_08s.jpg,0.0,clock_7_1.png,3.0,58,,,,,,,,,,,,,,,,,,0.0,11.0,11.0,11.0,1.0,,,,,,,,,,
0.0,1.0,0.767305,,,,,,rock_08s.jpg,0.0,clock_7_2.png,3.0,58,,,,,,,,,,,,,,,,,,0.0,12.0,12.0,12.0,1.0,,,,,,,,,,
0.0,1.0,0.806925,,,,,,tile_08s.jpg,0.0,clock_7_3.png,3.0,58,,,,,,,,,,,,,,,,,,0.0,13.0,13.0,13.0,1.0,,,,,,,,,,
0.0,1.0,1.69812,,,,,,dirt_bike_11s.jpg,0.0,clock_7_4.png,3.0,58,,,,,,,,,,,,,,,,,,0.0,14.0,14.0,14.0,1.0,,,,,,,,,,
0.0,1.0,1.314745,,,,,,ginger_09s.jpg,0.0,clock_7_5.png,3.0,58,,,,,,,,,,,,,,,,,,0.0,15.0,15.0,15.0,1.0,,,,,,,,,,
1.0,1.0,1.20053,,,,,,tile_08s.jpg,1.0,clock_7_6.png,3.0,58,,,,,,,,,,,,,,,,,,0.0,16.0,16.0,16.0,1.0,,,,,,,,,,
0.0,1.0,0.80698,,,,,,camcorder_10s.jpg,0.0,clock_7_7.png,3.0,58,,,,,,,,,,,,,,,,,,0.0,17.0,17.0,17.0,1.0,,,,,,,,,,
0.0,1.0,1.152565,,,,,,jet_15s.jpg,0.0,clock_6_1.png,4.0,58,,,,,,,,,,,,,,,,,,0.0,18.0,18.0,18.0,1.0,,,,,,,,,,
1.0,1.0,1.01761,,,,,,jet_15s.jpg,1.0,clock_6_2.png,4.0,58,,,,,,,,,,,,,,,,,,0.0,19.0,19.0,19.0,1.0,,,,,,,,,,
0.0,1.0,1.13755,,,,,,kitten_07s.jpg,0.0,clock_6_3.png,4.0,58,,,,,,,,,,,,,,,,,,0.0,20.0,20.0,20.0,1.0,,,,,,,,,,
1.0,1.0,1.106545,,,,,,jet_15s.jpg,1.0,clock_6_4.png,4.0,58,,,,,,,,,,,,,,,,,,0.0,21.0,21.0,21.0,1.0,,,,,,,,,,
0.0,1.0,0.95414,,,,,,chime_12s.jpg,0.0,clock_6_5.png,4.0,58,,,,,,,,,,,,,,,,,,0.0,22.0,22.0,22.0,1.0,,,,,,,,,,
0.0,1.0,0.997395,,,,,,eggshell_14s.jpg,0.0,clock_6_6.png,4.0,58,,,,,,,,,,,,,,,,,,0.0,23.0,23.0,23.0,1.0,,,,,,,,,,
0.0,1.0,0.85719,,,,,,luggage_08s.jpg,0.0,clock_7_1.png,5.0,58,,,,,,,,,,,,,,,,,,0.0,24.0,24.0,24.0,1.0,,,,,,,,,,
0.0,1.0,0.830395,,,,,,mascara_03s.jpg,0.0,clock_7_2.png,5.0,58,,,,,,,,,,,,,,,,,,0.0,25.0,25.0,25.0,1.0,,,,,,,,,,
0.0,1.0,0.732855,,,,,,cotton_candy_01b.jpg,0.0,clock_7_3.png,5.0,58,,,,,,,,,,,,,,,,,,0.0,26.0,26.0,26.0,1.0,,,,,,,,,,
0.0,1.0,0.87747,,,,,,ruby_15s.jpg,0.0,clock_7_4.png,5.0,58,,,,,,,,,,,,,,,,,,0.0,27.0,27.0,27.0,1.0,,,,,,,,,,
0.0,1.0,1.077415,,,,,,razor_blade_01b.jpg,0.0,clock_7_5.png,5.0,58,,,,,,,,,,,,,,,,,,0.0,28.0,28.0,28.0,1.0,,,,,,,,,,
0.0,1.0,0.757705,,,,,,hydrant_10s.jpg,0.0,clock_7_6.png,5.0,58,,,,,,,,,,,,,,,,,,0.0,29.0,29.0,29.0,1.0,,,,,,,,,,
0.0,1.0,0.774295,,,,,,mushroom_10n.jpg,0.0,clock_7_7.png,5.0,58,,,,,,,,,,,,,,,,,,0.0,30.0,30.0,30.0,1.0,,,,,,,,,,
0.0,1.0,0.75729,,,,,,turtle_08s.jpg,0.0,clock_5_1.png,6.0,58,,,,,,,,,,,,,,,,,,0.0,31.0,31.0,31.0,1.0,,,,,,,,,,
0.0,1.0,1.06401,,,,,,sparkler_02s.jpg,0.0,clock_5_2.png,6.0,58,,,,,,,,,,,,,,,,,,0.0,32.0,32.0,32.0,1.0,,,,,,,,,,
0.0,1.0,0.991045,,,,,,tambourine_06s.jpg,0.0,clock_5_3.png,6.0,58,,,,,,,,,,,,,,,,,,0.0,33.0,33.0,33.0,1.0,,,,,,,,,,
0.0,1.0,1.03909,,,,,,lavender_10s.jpg,0.0,clock_5_4.png,6.0,58,,,,,,,,,,,,,,,,,,0.0,34.0,34.0,34.0,1.0,,,,,,,,,,
1.0,1.0,1.00672,,,,,,lavender_10s.jpg,1.0,clock_5_5.png,6.0,58,,,,,,,,,,,,,,,,,,0.0,35.0,35.0,35.0,1.0,,,,,,,,,,
,,,,,,,,,0.0,,,58,0.0,1.0,15.63883,,,,,,kitten_07s.jpg,camcorder_10s.jpg,,,,,,,,,,,,,0.0,0.0,0.0,0.0,1.0,,,,,
,,,,,,,,,0.0,,,58,1.0,0.0,4.35056,,,,,,mascara_03s.jpg,chime_12s.jpg,,,,,,,,,,,,,0.0,1.0,1.0,1.0,1.0,,,,,
,,,,,,,,,0.0,,,58,0.0,1.0,1.564115,,,,,,turtle_08s.jpg,razor_blade_01b.jpg,,,,,,,,,,,,,0.0,2.0,2.0,2.0,1.0,,,,,
,,,,,,,,,1.0,,,58,1.0,1.0,2.498155,,,,,,puddle_02s.jpg,prism_10s.jpg,,,,,,,,,,,,,0.0,3.0,3.0,3.0,1.0,,,,,
,,,,,,,,,0.0,,,58,1.0,0.0,2.449195,,,,,,ruby_15s.jpg,luggage_08s.jpg,,,,,,,,,,,,,0.0,4.0,4.0,4.0,1.0,,,,,
,,,,,,,,,1.0,,,58,1.0,1.0,2.07369,,,,,,cotton_candy_01b.jpg,hydrant_10s.jpg,,,,,,,,,,,,,0.0,5.0,5.0,5.0,1.0,,,,,
,,,,,,,,,,,,58,,,,,,,,,,,,,,,,clock_present_4_5.xlsx,clock_compare_task_4_5.xlsx,,,,,,,,,,,0.0,3.0,3.0,3.0,1.0
0.0,1.0,1.345935,,,,,,marshmallow_08s.jpg,0.0,clock_5_1.png,1.0,58,,,,,,,,,,,,,,,,,,0.0,0.0,0.0,0.0,1.0,,,,,,,,,,
0.0,1.0,0.744635,,,,,,coat_rack_01b.jpg,0.0,clock_5_2.png,1.0,58,,,,,,,,,,,,,,,,,,0.0,1.0,1.0,1.0,1.0,,,,,,,,,,
0.0,1.0,0.77609,,,,,,coral_08s.jpg,0.0,clock_5_3.png,1.0,58,,,,,,,,,,,,,,,,,,0.0,2.0,2.0,2.0,1.0,,,,,,,,,,
0.0,1.0,0.697635,,,,,,fox_13s.jpg,0.0,clock_5_4.png,1.0,58,,,,,,,,,,,,,,,,,,0.0,3.0,3.0,3.0,1.0,,,,,,,,,,
0.0,1.0,1.057575,,,,,,stethoscope_01b.jpg,0.0,clock_5_5.png,1.0,58,,,,,,,,,,,,,,,,,,0.0,4.0,4.0,4.0,1.0,,,,,,,,,,
0.0,1.0,1.58538,,,,,,moth_06n.jpg,0.0,clock_6_1.png,2.0,58,,,,,,,,,,,,,,,,,,0.0,5.0,5.0,5.0,1.0,,,,,,,,,,
0.0,1.0,1.347885,,,,,,licorice_06s.jpg,0.0,clock_6_2.png,2.0,58,,,,,,,,,,,,,,,,,,0.0,6.0,6.0,6.0,1.0,,,,,,,,,,
0.0,1.0,1.03424,,,,,,sleeping_bag_12s.jpg,0.0,clock_6_3.png,2.0,58,,,,,,,,,,,,,,,,,,0.0,7.0,7.0,7.0,1.0,,,,,,,,,,
0.0,1.0,0.883375,,,,,,treadmill_06s.jpg,0.0,clock_6_4.png,2.0,58,,,,,,,,,,,,,,,,,,0.0,8.0,8.0,8.0,1.0,,,,,,,,,,
0.0,1.0,0.73288,,,,,,bathtub_23s.jpg,0.0,clock_6_5.png,2.0,58,,,,,,,,,,,,,,,,,,0.0,9.0,9.0,9.0,1.0,,,,,,,,,,
0.0,1.0,1.747975,,,,,,film_03s.jpg,0.0,clock_6_6.png,2.0,58,,,,,,,,,,,,,,,,,,0.0,10.0,10.0,10.0,1.0,,,,,,,,,,
0.0,1.0,1.0439,,,,,,trident_07s.jpg,0.0,clock_7_1.png,3.0,58,,,,,,,,,,,,,,,,,,0.0,11.0,11.0,11.0,1.0,,,,,,,,,,
0.0,1.0,1.324095,,,,,,coffee_filter_10s.jpg,0.0,clock_7_2.png,3.0,58,,,,,,,,,,,,,,,,,,0.0,12.0,12.0,12.0,1.0,,,,,,,,,,
0.0,1.0,1.0034,,,,,,mud_13s.jpg,0.0,clock_7_3.png,3.0,58,,,,,,,,,,,,,,,,,,0.0,13.0,13.0,13.0,1.0,,,,,,,,,,
0.0,1.0,0.766065,,,,,,fire_alarm_05s.jpg,0.0,clock_7_4.png,3.0,58,,,,,,,,,,,,,,,,,,0.0,14.0,14.0,14.0,1.0,,,,,,,,,,
1.0,1.0,1.415065,,,,,,mud_13s.jpg,1.0,clock_7_5.png,3.0,58,,,,,,,,,,,,,,,,,,0.0,15.0,15.0,15.0,1.0,,,,,,,,,,
0.0,1.0,0.95831,,,,,,timer_03s.jpg,0.0,clock_7_6.png,3.0,58,,,,,,,,,,,,,,,,,,0.0,16.0,16.0,16.0,1.0,,,,,,,,,,
0.0,1.0,0.85446,,,,,,pea_11s.jpg,0.0,clock_7_7.png,3.0,58,,,,,,,,,,,,,,,,,,0.0,17.0,17.0,17.0,1.0,,,,,,,,,,
0.0,1.0,0.83122,,,,,,flask_04s.jpg,0.0,clock_5_1.png,4.0,58,,,,,,,,,,,,,,,,,,0.0,18.0,18.0,18.0,1.0,,,,,,,,,,
0.0,1.0,0.871385,,,,,,iron_13s.jpg,0.0,clock_5_2.png,4.0,58,,,,,,,,,,,,,,,,,,0.0,19.0,19.0,19.0,1.0,,,,,,,,,,
0.0,1.0,1.35186,,,,,,trident_07s.jpg,0.0,clock_5_3.png,4.0,58,,,,,,,,,,,,,,,,,,0.0,20.0,20.0,20.0,1.0,,,,,,,,,,
0.0,1.0,1.10367,,,,,,memory_stick_11s.jpg,0.0,clock_5_4.png,4.0,58,,,,,,,,,,,,,,,,,,0.0,21.0,21.0,21.0,1.0,,,,,,,,,,
0.0,1.0,1.07199,,,,,,oil_02s.jpg,0.0,clock_5_5.png,4.0,58,,,,,,,,,,,,,,,,,,0.0,22.0,22.0,22.0,1.0,,,,,,,,,,
0.0,1.0,0.864585,,,,,,coconut_08s.jpg,0.0,clock_7_1.png,5.0,58,,,,,,,,,,,,,,,,,,0.0,23.0,23.0,23.0,1.0,,,,,,,,,,
1.0,1.0,1.88969,,,,,,coconut_08s.jpg,1.0,clock_7_2.png,5.0,58,,,,,,,,,,,,,,,,,,0.0,24.0,24.0,24.0,1.0,,,,,,,,,,
0.0,1.0,0.914395,,,,,,jelly_bean_06s.jpg,0.0,clock_7_3.png,5.0,58,,,,,,,,,,,,,,,,,,0.0,25.0,25.0,25.0,1.0,,,,,,,,,,
0.0,1.0,1.200675,,,,,,ice-cream_cone_06s.jpg,0.0,clock_7_4.png,5.0,58,,,,,,,,,,,,,,,,,,0.0,26.0,26.0,26.0,1.0,,,,,,,,,,
0.0,1.0,1.186655,,,,,,mud_13s.jpg,0.0,clock_7_5.png,5.0,58,,,,,,,,,,,,,,,,,,0.0,27.0,27.0,27.0,1.0,,,,,,,,,,
0.0,1.0,1.04213,,,,,,feather02.jpg,0.0,clock_7_6.png,5.0,58,,,,,,,,,,,,,,,,,,0.0,28.0,28.0,28.0,1.0,,,,,,,,,,
0.0,1.0,1.041515,,,,,,ukulele_02s.jpg,0.0,clock_7_7.png,5.0,58,,,,,,,,,,,,,,,,,,0.0,29.0,29.0,29.0,1.0,,,,,,,,,,
0.0,1.0,0.906245,,,,,,snowman_02s.jpg,0.0,clock_6_1.png,6.0,58,,,,,,,,,,,,,,,,,,0.0,30.0,30.0,30.0,1.0,,,,,,,,,,
0.0,1.0,0.87423,,,,,,lifesaver_10s.jpg,0.0,clock_6_2.png,6.0,58,,,,,,,,,,,,,,,,,,0.0,31.0,31.0,31.0,1.0,,,,,,,,,,
1.0,1.0,1.73983,,,,,,lifesaver_10s.jpg,1.0,clock_6_3.png,6.0,58,,,,,,,,,,,,,,,,,,0.0,32.0,32.0,32.0,1.0,,,,,,,,,,
0.0,1.0,0.930565,,,,,,scooter.jpg,0.0,clock_6_4.png,6.0,58,,,,,,,,,,,,,,,,,,0.0,33.0,33.0,33.0,1.0,,,,,,,,,,
0.0,1.0,1.164715,,,,,,compass_10n.jpg,0.0,clock_6_5.png,6.0,58,,,,,,,,,,,,,,,,,,0.0,34.0,34.0,34.0,1.0,,,,,,,,,,
0.0,1.0,0.97226,,,,,,denture_03s.jpg,0.0,clock_6_6.png,6.0,58,,,,,,,,,,,,,,,,,,0.0,35.0,35.0,35.0,1.0,,,,,,,,,,
,,,,,,,,,0.0,,,58,0.0,1.0,3.943705,,,,,,moth_06n.jpg,coral_08s.jpg,,,,,,,,,,,,,0.0,0.0,0.0,0.0,1.0,,,,,
,,,,,,,,,1.0,,,58,0.0,0.0,2.699435,,,,,,bathtub_23s.jpg,coffee_filter_10s.jpg,,,,,,,,,,,,,0.0,1.0,1.0,1.0,1.0,,,,,
,,,,,,,,,1.0,,,58,1.0,1.0,4.40397,,,,,,timer_03s.jpg,iron_13s.jpg,,,,,,,,,,,,,0.0,2.0,2.0,2.0,1.0,,,,,
,,,,,,,,,1.0,,,58,0.0,0.0,1.59038,,,,,,fire_alarm_05s.jpg,pea_11s.jpg,,,,,,,,,,,,,0.0,3.0,3.0,3.0,1.0,,,,,
,,,,,,,,,1.0,,,58,1.0,1.0,2.227885,,,,,,flask_04s.jpg,memory_stick_11s.jpg,,,,,,,,,,,,,0.0,4.0,4.0,4.0,1.0,,,,,
,,,,,,,,,0.0,,,58,0.0,1.0,1.5267,,,,,,ukulele_02s.jpg,ice-cream_cone_06s.jpg,,,,,,,,,,,,,0.0,5.0,5.0,5.0,1.0,,,,,
,,,,,,,,,,,,58,,,,,,,,,,,,,,,,clock_present_5_5.xlsx,clock_compare_task_5_5.xlsx,,,,,,,,,,,0.0,4.0,4.0,4.0,1.0
0.0,1.0,1.20784,,,,,,sledgehammer_03s.jpg,0.0,clock_6_1.png,1.0,58,,,,,,,,,,,,,,,,,,0.0,0.0,0.0,0.0,1.0,,,,,,,,,,
0.0,1.0,0.792995,,,,,,basket_05s.jpg,0.0,clock_6_2.png,1.0,58,,,,,,,,,,,,,,,,,,0.0,1.0,1.0,1.0,1.0,,,,,,,,,,
0.0,1.0,0.641205,,,,,,go-kart_10s.jpg,0.0,clock_6_3.png,1.0,58,,,,,,,,,,,,,,,,,,0.0,2.0,2.0,2.0,1.0,,,,,,,,,,
0.0,1.0,0.72204,,,,,,sunglasses_11s.jpg,0.0,clock_6_4.png,1.0,58,,,,,,,,,,,,,,,,,,0.0,3.0,3.0,3.0,1.0,,,,,,,,,,
0.0,1.0,1.066755,,,,,,ostrich_06s.jpg,0.0,clock_6_5.png,1.0,58,,,,,,,,,,,,,,,,,,0.0,4.0,4.0,4.0,1.0,,,,,,,,,,
0.0,1.0,1.29058,,,,,,stingray_02s.jpg,0.0,clock_6_6.png,1.0,58,,,,,,,,,,,,,,,,,,0.0,5.0,5.0,5.0,1.0,,,,,,,,,,
0.0,1.0,1.002835,,,,,,peanut_butter_08s.jpg,0.0,clock_7_1.png,2.0,58,,,,,,,,,,,,,,,,,,0.0,6.0,6.0,6.0,1.0,,,,,,,,,,
1.0,1.0,1.74759,,,,,,peanut_butter_08s.jpg,1.0,clock_7_2.png,2.0,58,,,,,,,,,,,,,,,,,,0.0,7.0,7.0,7.0,1.0,,,,,,,,,,
0.0,1.0,1.003765,,,,,,puffin_19s.jpg,0.0,clock_7_3.png,2.0,58,,,,,,,,,,,,,,,,,,0.0,8.0,8.0,8.0,1.0,,,,,,,,,,
1.0,1.0,1.1492,,,,,,peanut_butter_08s.jpg,1.0,clock_7_4.png,2.0,58,,,,,,,,,,,,,,,,,,0.0,9.0,9.0,9.0,1.0,,,,,,,,,,
1.0,1.0,1.222365,,,,,,puffin_19s.jpg,1.0,clock_7_5.png,2.0,58,,,,,,,,,,,,,,,,,,0.0,10.0,10.0,10.0,1.0,,,,,,,,,,
0.0,1.0,1.2779,,,,,,stamp2_08s.jpg,0.0,clock_7_6.png,2.0,58,,,,,,,,,,,,,,,,,,0.0,11.0,11.0,11.0,1.0,,,,,,,,,,
0.0,1.0,1.326565,,,,,,comic_book_02s.jpg,0.0,clock_7_7.png,2.0,58,,,,,,,,,,,,,,,,,,0.0,12.0,12.0,12.0,1.0,,,,,,,,,,
0.0,1.0,1.294545,,,,,,ink_08s.jpg,0.0,clock_7_1.png,3.0,58,,,,,,,,,,,,,,,,,,0.0,13.0,13.0,13.0,1.0,,,,,,,,,,
0.0,1.0,1.10297,,,,,,doily_13s.jpg,0.0,clock_7_2.png,3.0,58,,,,,,,,,,,,,,,,,,0.0,14.0,14.0,14.0,1.0,,,,,,,,,,
0.0,1.0,1.119745,,,,,,light_switch_02s.jpg,0.0,clock_7_3.png,3.0,58,,,,,,,,,,,,,,,,,,0.0,15.0,15.0,15.0,1.0,,,,,,,,,,
0.0,1.0,1.06457,,,,,,pepper2_21s.jpg,0.0,clock_7_4.png,3.0,58,,,,,,,,,,,,,,,,,,0.0,16.0,16.0,16.0,1.0,,,,,,,,,,
0.0,1.0,0.991795,,,,,,crab_16s.jpg,0.0,clock_7_5.png,3.0,58,,,,,,,,,,,,,,,,,,0.0,17.0,17.0,17.0,1.0,,,,,,,,,,
0.0,1.0,1.35244,,,,,,beard_16s.jpg,0.0,clock_7_6.png,3.0,58,,,,,,,,,,,,,,,,,,0.0,18.0,18.0,18.0,1.0,,,,,,,,,,
0.0,1.0,1.10497,,,,,,mask_09s.jpg,0.0,clock_7_7.png,3.0,58,,,,,,,,,,,,,,,,,,0.0,19.0,19.0,19.0,1.0,,,,,,,,,,
0.0,1.0,1.177045,,,,,,dynamite_01b.jpg,0.0,clock_6_1.png,4.0,58,,,,,,,,,,,,,,,,,,0.0,20.0,20.0,20.0,1.0,,,,,,,,,,
0.0,1.0,1.170095,,,,,,abacus_12s.jpg,0.0,clock_6_2.png,4.0,58,,,,,,,,,,,,,,,,,,0.0,21.0,21.0,21.0,1.0,,,,,,,,,,
0.0,1.0,1.369885,,,,,,icicle_04s.jpg,0.0,clock_6_3.png,4.0,58,,,,,,,,,,,,,,,,,,0.0,22.0,22.0,22.0,1.0,,,,,,,,,,
0.0,1.0,1.364935,,,,,,comic_book_02s.jpg,0.0,clock_6_4.png,4.0,58,,,,,,,,,,,,,,,,,,0.0,23.0,23.0,23.0,1.0,,,,,,,,,,
1.0,1.0,1.451135,,,,,,abacus_12s.jpg,1.0,clock_6_5.png,4.0,58,,,,,,,,,,,,,,,,,,0.0,24.0,24.0,24.0,1.0,,,,,,,,,,
0.0,1.0,1.306825,,,,,,duck_01b.jpg,0.0,clock_6_6.png,4.0,58,,,,,,,,,,,,,,,,,,0.0,25.0,25.0,25.0,1.0,,,,,,,,,,
0.0,1.0,1.491565,,,,,,jetski_10s.jpg,0.0,clock_5_1.png,5.0,58,,,,,,,,,,,,,,,,,,0.0,26.0,26.0,26.0,1.0,,,,,,,,,,
1.0,1.0,1.16504,,,,,,jetski_10s.jpg,1.0,clock_5_2.png,5.0,58,,,,,,,,,,,,,,,,,,0.0,27.0,27.0,27.0,1.0,,,,,,,,,,
0.0,1.0,1.213095,,,,,,latte_06s.jpg,0.0,clock_5_3.png,5.0,58,,,,,,,,,,,,,,,,,,0.0,28.0,28.0,28.0,1.0,,,,,,,,,,
0.0,1.0,1.46785,,,,,,basket_05s.jpg,0.0,clock_5_4.png,5.0,58,,,,,,,,,,,,,,,,,,0.0,29.0,29.0,29.0,1.0,,,,,,,,,,
0.0,1.0,1.204805,,,,,,pump_11s.jpg,0.0,clock_5_5.png,5.0,58,,,,,,,,,,,,,,,,,,0.0,30.0,30.0,30.0,1.0,,,,,,,,,,
0.0,1.0,1.477455,,,,,,bacon_05s.jpg,0.0,clock_5_1.png,6.0,58,,,,,,,,,,,,,,,,,,0.0,31.0,31.0,31.0,1.0,,,,,,,,,,
0.0,1.0,1.237635,,,,,,lectern_08s.jpg,0.0,clock_5_2.png,6.0,58,,,,,,,,,,,,,,,,,,0.0,32.0,32.0,32.0,1.0,,,,,,,,,,
0.0,1.0,1.17415,,,,,,amber_04s.jpg,0.0,clock_5_3.png,6.0,58,,,,,,,,,,,,,,,,,,0.0,33.0,33.0,33.0,1.0,,,,,,,,,,
0.0,1.0,1.35877,,,,,,orangutan_03s.jpg,0.0,clock_5_4.png,6.0,58,,,,,,,,,,,,,,,,,,0.0,34.0,34.0,34.0,1.0,,,,,,,,,,
0.0,1.0,1.215045,,,,,,pan_02s.jpg,0.0,clock_5_5.png,6.0,58,,,,,,,,,,,,,,,,,,0.0,35.0,35.0,35.0,1.0,,,,,,,,,,
,,,,,,,,,1.0,,,58,1.0,1.0,3.88851,,,,,,pump_11s.jpg,amber_04s.jpg,,,,,,,,,,,,,0.0,0.0,0.0,0.0,1.0,,,,,
,,,,,,,,,0.0,,,58,0.0,1.0,3.07654,,,,,,doily_13s.jpg,stamp2_08s.jpg,,,,,,,,,,,,,0.0,1.0,1.0,1.0,1.0,,,,,
,,,,,,,,,1.0,,,58,1.0,1.0,2.525875,,,,,,crab_16s.jpg,dynamite_01b.jpg,,,,,,,,,,,,,0.0,2.0,2.0,2.0,1.0,,,,,
,,,,,,,,,0.0,,,58,0.0,1.0,2.884075,,,,,,sunglasses_11s.jpg,sledgehammer_03s.jpg,,,,,,,,,,,,,0.0,3.0,3.0,3.0,1.0,,,,,
,,,,,,,,,0.0,,,58,1.0,0.0,5.908505,,,,,,stingray_02s.jpg,go-kart_10s.jpg,,,,,,,,,,,,,0.0,4.0,4.0,4.0,1.0,,,,,
,,,,,,,,,0.0,,,58,1.0,0.0,4.773055,,,,,,pepper2_21s.jpg,ink_08s.jpg,,,,,,,,,,,,,0.0,5.0,5.0,5.0,1.0,,,,,
