key_resp.keys,key_resp.corr,key_resp.rt,noclock_loop.thisRepN,noclock_loop.thisTrialN,noclock_loop.thisN,noclock_loop.thisIndex,noclock_loop.ran,pictures,answer,clock,segment,participant,key_resp_2.keys,key_resp_2.corr,key_resp_2.rt,noclock_loop2.thisRepN,noclock_loop2.thisTrialN,noclock_loop2.thisN,noclock_loop2.thisIndex,noclock_loop2.ran,item_a,item_b,noclock_condition.thisRepN,noclock_condition.thisTrialN,noclock_condition.thisN,noclock_condition.thisIndex,noclock_condition.ran,present,compare,present_segment.thisRepN,present_segment.thisTrialN,present_segment.thisN,present_segment.thisIndex,present_segment.ran,compare_segment.thisRepN,compare_segment.thisTrialN,compare_segment.thisN,compare_segment.thisIndex,compare_segment.ran,clock_conditions.thisRepN,clock_conditions.thisTrialN,clock_conditions.thisN,clock_conditions.thisIndex,clock_conditions.ran
0.0,1.0,1.83027,0.0,0.0,0.0,0.0,1.0,tripod_01b.jpg,0.0,clockno_up.jpg,1.0,19,,,,,,,,,,,,,,,,,,,,,,,,,,,,,,,,
0.0,1.0,1.46743,0.0,1.0,1.0,1.0,1.0,pocket_watch_16s.jpg,0.0,clockno_default.jpg,1.0,19,,,,,,,,,,,,,,,,,,,,,,,,,,,,,,,,
0.0,1.0,2.02443,0.0,2.0,2.0,2.0,1.0,loom_05s.jpg,0.0,clockno_default.jpg,1.0,19,,,,,,,,,,,,,,,,,,,,,,,,,,,,,,,,
1.0,1.0,0.89005,0.0,3.0,3.0,3.0,1.0,tripod_01b.jpg,1.0,clockno_default.jpg,1.0,19,,,,,,,,,,,,,,,,,,,,,,,,,,,,,,,,
0.0,1.0,0.652325,0.0,4.0,4.0,4.0,1.0,thread_08s.jpg,0.0,clockno_default.jpg,1.0,19,,,,,,,,,,,,,,,,,,,,,,,,,,,,,,,,
0.0,1.0,1.075655,0.0,5.0,5.0,5.0,1.0,rocket_02s.jpg,0.0,clockno_default.jpg,1.0,19,,,,,,,,,,,,,,,,,,,,,,,,,,,,,,,,
0.0,1.0,1.360915,0.0,6.0,6.0,6.0,1.0,ladle_04s.jpg,0.0,clockno_up.jpg,2.0,19,,,,,,,,,,,,,,,,,,,,,,,,,,,,,,,,
0.0,1.0,0.827605,0.0,7.0,7.0,7.0,1.0,bubble_01b.jpg,0.0,clockno_default.jpg,2.0,19,,,,,,,,,,,,,,,,,,,,,,,,,,,,,,,,
0.0,1.0,1.09657,0.0,8.0,8.0,8.0,1.0,pocket_watch_16s.jpg,0.0,clockno_default.jpg,2.0,19,,,,,,,,,,,,,,,,,,,,,,,,,,,,,,,,
0.0,1.0,1.42249,0.0,9.0,9.0,9.0,1.0,projector_08s.jpg,0.0,clockno_default.jpg,2.0,19,,,,,,,,,,,,,,,,,,,,,,,,,,,,,,,,
0.0,1.0,1.064235,0.0,10.0,10.0,10.0,1.0,penlight_12s.jpg,0.0,clockno_default.jpg,2.0,19,,,,,,,,,,,,,,,,,,,,,,,,,,,,,,,,
0.0,1.0,1.24128,0.0,11.0,11.0,11.0,1.0,golf_club_03s.jpg,0.0,clockno_up.jpg,3.0,19,,,,,,,,,,,,,,,,,,,,,,,,,,,,,,,,
0.0,1.0,0.92907,0.0,12.0,12.0,12.0,1.0,espresso_01b.jpg,0.0,clockno_default.jpg,3.0,19,,,,,,,,,,,,,,,,,,,,,,,,,,,,,,,,
1.0,1.0,1.417815,0.0,13.0,13.0,13.0,1.0,espresso_01b.jpg,1.0,clockno_default.jpg,3.0,19,,,,,,,,,,,,,,,,,,,,,,,,,,,,,,,,
0.0,1.0,0.994955,0.0,14.0,14.0,14.0,1.0,mannequin_05s.jpg,0.0,clockno_default.jpg,3.0,19,,,,,,,,,,,,,,,,,,,,,,,,,,,,,,,,
1.0,1.0,1.151075,0.0,15.0,15.0,15.0,1.0,golf_club_03s.jpg,1.0,clockno_default.jpg,3.0,19,,,,,,,,,,,,,,,,,,,,,,,,,,,,,,,,
0.0,1.0,1.249455,0.0,16.0,16.0,16.0,1.0,loom_05s.jpg,0.0,clockno_default.jpg,3.0,19,,,,,,,,,,,,,,,,,,,,,,,,,,,,,,,,
0.0,1.0,1.007255,0.0,17.0,17.0,17.0,1.0,machete_06s.jpg,0.0,clockno_up.jpg,4.0,19,,,,,,,,,,,,,,,,,,,,,,,,,,,,,,,,
0.0,1.0,0.791905,0.0,18.0,18.0,18.0,1.0,seahorse_13s.jpg,0.0,clockno_default.jpg,4.0,19,,,,,,,,,,,,,,,,,,,,,,,,,,,,,,,,
0.0,1.0,0.83767,0.0,19.0,19.0,19.0,1.0,mannequin_05s.jpg,0.0,clockno_default.jpg,4.0,19,,,,,,,,,,,,,,,,,,,,,,,,,,,,,,,,
0.0,1.0,0.902315,0.0,20.0,20.0,20.0,1.0,saddle_06s.jpg,0.0,clockno_default.jpg,4.0,19,,,,,,,,,,,,,,,,,,,,,,,,,,,,,,,,
0.0,1.0,0.79479,0.0,21.0,21.0,21.0,1.0,rake_06s.jpg,0.0,clockno_default.jpg,4.0,19,,,,,,,,,,,,,,,,,,,,,,,,,,,,,,,,
0.0,1.0,1.080465,0.0,22.0,22.0,22.0,1.0,jewel_01b.jpg,0.0,clockno_default.jpg,4.0,19,,,,,,,,,,,,,,,,,,,,,,,,,,,,,,,,
0.0,1.0,0.82509,0.0,23.0,23.0,23.0,1.0,ironing_board_07s.jpg,0.0,clockno_default.jpg,4.0,19,,,,,,,,,,,,,,,,,,,,,,,,,,,,,,,,
0.0,1.0,0.79804,0.0,24.0,24.0,24.0,1.0,tuxedo_01b.jpg,0.0,clockno_up.jpg,5.0,19,,,,,,,,,,,,,,,,,,,,,,,,,,,,,,,,
0.0,1.0,1.076645,0.0,25.0,25.0,25.0,1.0,pie_08s.jpg,0.0,clockno_default.jpg,5.0,19,,,,,,,,,,,,,,,,,,,,,,,,,,,,,,,,
0.0,1.0,1.24585,0.0,26.0,26.0,26.0,1.0,mousetrap_15n.jpg,0.0,clockno_default.jpg,5.0,19,,,,,,,,,,,,,,,,,,,,,,,,,,,,,,,,
0.0,1.0,1.123355,0.0,27.0,27.0,27.0,1.0,measuring_cup_02s.jpg,0.0,clockno_default.jpg,5.0,19,,,,,,,,,,,,,,,,,,,,,,,,,,,,,,,,
1.0,1.0,1.075645,0.0,28.0,28.0,28.0,1.0,measuring_cup_02s.jpg,1.0,clockno_default.jpg,5.0,19,,,,,,,,,,,,,,,,,,,,,,,,,,,,,,,,
0.0,1.0,0.751735,0.0,29.0,29.0,29.0,1.0,olive_05s.jpg,0.0,clockno_up.jpg,6.0,19,,,,,,,,,,,,,,,,,,,,,,,,,,,,,,,,
0.0,1.0,1.297345,0.0,30.0,30.0,30.0,1.0,razor_12s.jpg,0.0,clockno_default.jpg,6.0,19,,,,,,,,,,,,,,,,,,,,,,,,,,,,,,,,
0.0,1.0,0.831305,0.0,31.0,31.0,31.0,1.0,footprint_11s.jpg,0.0,clockno_default.jpg,6.0,19,,,,,,,,,,,,,,,,,,,,,,,,,,,,,,,,
0.0,1.0,0.71369,0.0,32.0,32.0,32.0,1.0,reindeer_08s.jpg,0.0,clockno_default.jpg,6.0,19,,,,,,,,,,,,,,,,,,,,,,,,,,,,,,,,
1.0,1.0,0.835085,0.0,33.0,33.0,33.0,1.0,olive_05s.jpg,1.0,clockno_default.jpg,6.0,19,,,,,,,,,,,,,,,,,,,,,,,,,,,,,,,,
1.0,1.0,0.93243,0.0,34.0,34.0,34.0,1.0,razor_12s.jpg,1.0,clockno_default.jpg,6.0,19,,,,,,,,,,,,,,,,,,,,,,,,,,,,,,,,
0.0,1.0,1.20916,0.0,35.0,35.0,35.0,1.0,mold2_04s.jpg,0.0,clockno_default.jpg,6.0,19,,,,,,,,,,,,,,,,,,,,,,,,,,,,,,,,
,,,,,,,,,1.0,,,19,1.0,1.0,2.105795,0.0,0.0,0.0,0.0,1.0,jewel_01b.jpg,pie_08s.jpg,,,,,,,,,,,,,,,,,,,,,,
,,,,,,,,,1.0,,,19,1.0,1.0,1.94411,0.0,1.0,1.0,1.0,1.0,thread_08s.jpg,bubble_01b.jpg,,,,,,,,,,,,,,,,,,,,,,
,,,,,,,,,0.0,,,19,0.0,1.0,1.39346,0.0,2.0,2.0,2.0,1.0,tuxedo_01b.jpg,rake_06s.jpg,,,,,,,,,,,,,,,,,,,,,,
,,,,,,,,,1.0,,,19,0.0,0.0,2.056485,0.0,3.0,3.0,3.0,1.0,ladle_04s.jpg,projector_08s.jpg,,,,,,,,,,,,,,,,,,,,,,
,,,,,,,,,0.0,,,19,0.0,1.0,3.15383,0.0,4.0,4.0,4.0,1.0,saddle_06s.jpg,machete_06s.jpg,,,,,,,,,,,,,,,,,,,,,,
,,,,,,,,,0.0,,,19,0.0,1.0,1.36003,0.0,5.0,5.0,5.0,1.0,mold2_04s.jpg,reindeer_08s.jpg,,,,,,,,,,,,,,,,,,,,,,
,,,,,,,,,,,,19,,,,,,,,,,,0.0,0.0,0.0,0.0,1.0,clockno_present_1_5.xlsx,clockno_compare_task_1_5.xlsx,,,,,,,,,,,,,,,
0.0,1.0,1.468045,0.0,0.0,0.0,0.0,1.0,sushi_08s.jpg,0.0,clockno_up.jpg,1.0,19,,,,,,,,,,,,,,,,,,,,,,,,,,,,,,,,
0.0,1.0,1.05037,0.0,1.0,1.0,1.0,1.0,tweezers_03s.jpg,0.0,clockno_default.jpg,1.0,19,,,,,,,,,,,,,,,,,,,,,,,,,,,,,,,,
0.0,1.0,0.93224,0.0,2.0,2.0,2.0,1.0,teapot_03s.jpg,0.0,clockno_default.jpg,1.0,19,,,,,,,,,,,,,,,,,,,,,,,,,,,,,,,,
0.0,1.0,1.009835,0.0,3.0,3.0,3.0,1.0,tinsel_12s.jpg,0.0,clockno_default.jpg,1.0,19,,,,,,,,,,,,,,,,,,,,,,,,,,,,,,,,
0.0,1.0,0.67402,0.0,4.0,4.0,4.0,1.0,tuba_12s.jpg,0.0,clockno_default.jpg,1.0,19,,,,,,,,,,,,,,,,,,,,,,,,,,,,,,,,
0.0,1.0,0.86054,0.0,5.0,5.0,5.0,1.0,paintbrush_04s.jpg,0.0,clockno_default.jpg,1.0,19,,,,,,,,,,,,,,,,,,,,,,,,,,,,,,,,
0.0,1.0,1.055845,0.0,6.0,6.0,6.0,1.0,lasagna_06s.jpg,0.0,clockno_default.jpg,1.0,19,,,,,,,,,,,,,,,,,,,,,,,,,,,,,,,,
0.0,1.0,1.07996,0.0,7.0,7.0,7.0,1.0,pinwheel_06s.jpg,0.0,clockno_up.jpg,2.0,19,,,,,,,,,,,,,,,,,,,,,,,,,,,,,,,,
0.0,1.0,0.94466,0.0,8.0,8.0,8.0,1.0,owl_15s.jpg,0.0,clockno_default.jpg,2.0,19,,,,,,,,,,,,,,,,,,,,,,,,,,,,,,,,
0.0,1.0,0.81949,0.0,9.0,9.0,9.0,1.0,glasses01a.jpg,0.0,clockno_default.jpg,2.0,19,,,,,,,,,,,,,,,,,,,,,,,,,,,,,,,,
0.0,1.0,1.59756,0.0,10.0,10.0,10.0,1.0,pocketknife_12s.jpg,0.0,clockno_default.jpg,2.0,19,,,,,,,,,,,,,,,,,,,,,,,,,,,,,,,,
0.0,1.0,1.247625,0.0,11.0,11.0,11.0,1.0,fur_coat_11s.jpg,0.0,clockno_default.jpg,2.0,19,,,,,,,,,,,,,,,,,,,,,,,,,,,,,,,,
0.0,1.0,1.347185,0.0,12.0,12.0,12.0,1.0,tongs_08s.jpg,0.0,clockno_up.jpg,3.0,19,,,,,,,,,,,,,,,,,,,,,,,,,,,,,,,,
1.0,1.0,0.935845,0.0,13.0,13.0,13.0,1.0,tongs_08s.jpg,1.0,clockno_default.jpg,3.0,19,,,,,,,,,,,,,,,,,,,,,,,,,,,,,,,,
0.0,1.0,1.247425,0.0,14.0,14.0,14.0,1.0,leash_10s.jpg,0.0,clockno_default.jpg,3.0,19,,,,,,,,,,,,,,,,,,,,,,,,,,,,,,,,
0.0,1.0,0.703655,0.0,15.0,15.0,15.0,1.0,spoon02a.jpg,0.0,clockno_default.jpg,3.0,19,,,,,,,,,,,,,,,,,,,,,,,,,,,,,,,,
0.0,1.0,0.717915,0.0,16.0,16.0,16.0,1.0,plunger_08s.jpg,0.0,clockno_default.jpg,3.0,19,,,,,,,,,,,,,,,,,,,,,,,,,,,,,,,,
1.0,1.0,0.78017,0.0,17.0,17.0,17.0,1.0,plunger_08s.jpg,1.0,clockno_default.jpg,3.0,19,,,,,,,,,,,,,,,,,,,,,,,,,,,,,,,,
0.0,1.0,1.18572,0.0,18.0,18.0,18.0,1.0,playpen_11s.jpg,0.0,clockno_up.jpg,4.0,19,,,,,,,,,,,,,,,,,,,,,,,,,,,,,,,,
0.0,1.0,1.045115,0.0,19.0,19.0,19.0,1.0,smoothie_09s.jpg,0.0,clockno_default.jpg,4.0,19,,,,,,,,,,,,,,,,,,,,,,,,,,,,,,,,
0.0,1.0,0.99205,0.0,20.0,20.0,20.0,1.0,gear_07s.jpg,0.0,clockno_default.jpg,4.0,19,,,,,,,,,,,,,,,,,,,,,,,,,,,,,,,,
1.0,1.0,0.839715,0.0,21.0,21.0,21.0,1.0,smoothie_09s.jpg,1.0,clockno_default.jpg,4.0,19,,,,,,,,,,,,,,,,,,,,,,,,,,,,,,,,
0.0,1.0,0.7731,0.0,22.0,22.0,22.0,1.0,lamp_08s.jpg,0.0,clockno_default.jpg,4.0,19,,,,,,,,,,,,,,,,,,,,,,,,,,,,,,,,
0.0,1.0,1.162515,0.0,23.0,23.0,23.0,1.0,lollipop_08s.jpg,0.0,clockno_up.jpg,5.0,19,,,,,,,,,,,,,,,,,,,,,,,,,,,,,,,,
0.0,1.0,0.869725,0.0,24.0,24.0,24.0,1.0,squirt_gun_03s.jpg,0.0,clockno_default.jpg,5.0,19,,,,,,,,,,,,,,,,,,,,,,,,,,,,,,,,
0.0,1.0,1.054785,0.0,25.0,25.0,25.0,1.0,otter_05s.jpg,0.0,clockno_default.jpg,5.0,19,,,,,,,,,,,,,,,,,,,,,,,,,,,,,,,,
0.0,1.0,1.31079,0.0,26.0,26.0,26.0,1.0,tape_06s.jpg,0.0,clockno_default.jpg,5.0,19,,,,,,,,,,,,,,,,,,,,,,,,,,,,,,,,
0.0,1.0,0.721195,0.0,27.0,27.0,27.0,1.0,sunflower_17s.jpg,0.0,clockno_default.jpg,5.0,19,,,,,,,,,,,,,,,,,,,,,,,,,,,,,,,,
0.0,1.0,1.062915,0.0,28.0,28.0,28.0,1.0,fountain_pen_06s.jpg,0.0,clockno_default.jpg,5.0,19,,,,,,,,,,,,,,,,,,,,,,,,,,,,,,,,
0.0,1.0,1.066415,0.0,29.0,29.0,29.0,1.0,ant_12s.jpg,0.0,clockno_up.jpg,6.0,19,,,,,,,,,,,,,,,,,,,,,,,,,,,,,,,,
0.0,1.0,1.343115,0.0,30.0,30.0,30.0,1.0,tattoo_14s.jpg,0.0,clockno_default.jpg,6.0,19,,,,,,,,,,,,,,,,,,,,,,,,,,,,,,,,
0.0,1.0,1.02135,0.0,31.0,31.0,31.0,1.0,gear_07s.jpg,0.0,clockno_default.jpg,6.0,19,,,,,,,,,,,,,,,,,,,,,,,,,,,,,,,,
0.0,1.0,0.902295,0.0,32.0,32.0,32.0,1.0,tiger_06s.jpg,0.0,clockno_default.jpg,6.0,19,,,,,,,,,,,,,,,,,,,,,,,,,,,,,,,,
0.0,1.0,0.940545,0.0,33.0,33.0,33.0,1.0,raccoon_02s.jpg,0.0,clockno_default.jpg,6.0,19,,,,,,,,,,,,,,,,,,,,,,,,,,,,,,,,
0.0,1.0,0.852065,0.0,34.0,34.0,34.0,1.0,toilet_paper_12s.jpg,0.0,clockno_default.jpg,6.0,19,,,,,,,,,,,,,,,,,,,,,,,,,,,,,,,,
1.0,1.0,1.62973,0.0,35.0,35.0,35.0,1.0,tattoo_14s.jpg,1.0,clockno_default.jpg,6.0,19,,,,,,,,,,,,,,,,,,,,,,,,,,,,,,,,
,,,,,,,,,1.0,,,19,0.0,0.0,2.156135,0.0,0.0,0.0,0.0,1.0,spoon02a.jpg,playpen_11s.jpg,,,,,,,,,,,,,,,,,,,,,,
,,,,,,,,,1.0,,,19,0.0,0.0,2.332925,0.0,1.0,1.0,1.0,1.0,lasagna_06s.jpg,glasses01a.jpg,,,,,,,,,,,,,,,,,,,,,,
,,,,,,,,,1.0,,,19,0.0,0.0,1.348495,0.0,2.0,2.0,2.0,1.0,fur_coat_11s.jpg,leash_10s.jpg,,,,,,,,,,,,,,,,,,,,,,
,,,,,,,,,1.0,,,19,1.0,1.0,1.38893,0.0,3.0,3.0,3.0,1.0,sushi_08s.jpg,tinsel_12s.jpg,,,,,,,,,,,,,,,,,,,,,,
,,,,,,,,,1.0,,,19,0.0,0.0,2.21931,0.0,4.0,4.0,4.0,1.0,squirt_gun_03s.jpg,sunflower_17s.jpg,,,,,,,,,,,,,,,,,,,,,,
,,,,,,,,,0.0,,,19,0.0,1.0,1.684925,0.0,5.0,5.0,5.0,1.0,tuba_12s.jpg,tweezers_03s.jpg,,,,,,,,,,,,,,,,,,,,,,
,,,,,,,,,,,,19,,,,,,,,,,,0.0,1.0,1.0,1.0,1.0,clockno_present_2_5.xlsx,clockno_compare_task_2_5.xlsx,,,,,,,,,,,,,,,
0.0,1.0,1.624195,0.0,0.0,0.0,0.0,1.0,ram_05s.jpg,0.0,clockno_up.jpg,1.0,19,,,,,,,,,,,,,,,,,,,,,,,,,,,,,,,,
0.0,1.0,0.961735,0.0,1.0,1.0,1.0,1.0,panda_02s.jpg,0.0,clockno_default.jpg,1.0,19,,,,,,,,,,,,,,,,,,,,,,,,,,,,,,,,
0.0,1.0,1.109085,0.0,2.0,2.0,2.0,1.0,beaker_01b.jpg,0.0,clockno_default.jpg,1.0,19,,,,,,,,,,,,,,,,,,,,,,,,,,,,,,,,
1.0,1.0,0.956735,0.0,3.0,3.0,3.0,1.0,beaker_01b.jpg,1.0,clockno_default.jpg,1.0,19,,,,,,,,,,,,,,,,,,,,,,,,,,,,,,,,
0.0,1.0,1.141115,0.0,4.0,4.0,4.0,1.0,megaphone_03s.jpg,0.0,clockno_default.jpg,1.0,19,,,,,,,,,,,,,,,,,,,,,,,,,,,,,,,,
0.0,1.0,1.01807,0.0,5.0,5.0,5.0,1.0,dashboard_02s.jpg,0.0,clockno_up.jpg,2.0,19,,,,,,,,,,,,,,,,,,,,,,,,,,,,,,,,
0.0,1.0,1.894195,0.0,6.0,6.0,6.0,1.0,juicer2_06s.jpg,0.0,clockno_default.jpg,2.0,19,,,,,,,,,,,,,,,,,,,,,,,,,,,,,,,,
0.0,1.0,1.00688,0.0,7.0,7.0,7.0,1.0,butter_14s.jpg,0.0,clockno_default.jpg,2.0,19,,,,,,,,,,,,,,,,,,,,,,,,,,,,,,,,
0.0,1.0,1.5358,0.0,8.0,8.0,8.0,1.0,quesadilla_07s.jpg,0.0,clockno_default.jpg,2.0,19,,,,,,,,,,,,,,,,,,,,,,,,,,,,,,,,
0.0,1.0,1.14325,0.0,9.0,9.0,9.0,1.0,thumbtack_14s.jpg,0.0,clockno_default.jpg,2.0,19,,,,,,,,,,,,,,,,,,,,,,,,,,,,,,,,
0.0,1.0,1.222675,0.0,10.0,10.0,10.0,1.0,potholder_02s.jpg,0.0,clockno_default.jpg,2.0,19,,,,,,,,,,,,,,,,,,,,,,,,,,,,,,,,
0.0,1.0,0.945745,0.0,11.0,11.0,11.0,1.0,purse_05s.jpg,0.0,clockno_default.jpg,2.0,19,,,,,,,,,,,,,,,,,,,,,,,,,,,,,,,,
0.0,1.0,1.110825,0.0,12.0,12.0,12.0,1.0,binder_21s.jpg,0.0,clockno_up.jpg,3.0,19,,,,,,,,,,,,,,,,,,,,,,,,,,,,,,,,
1.0,1.0,0.875915,0.0,13.0,13.0,13.0,1.0,binder_21s.jpg,1.0,clockno_default.jpg,3.0,19,,,,,,,,,,,,,,,,,,,,,,,,,,,,,,,,
0.0,1.0,1.0443,0.0,14.0,14.0,14.0,1.0,knot_01b.jpg,0.0,clockno_default.jpg,3.0,19,,,,,,,,,,,,,,,,,,,,,,,,,,,,,,,,
1.0,1.0,0.78267,0.0,15.0,15.0,15.0,1.0,binder_21s.jpg,1.0,clockno_default.jpg,3.0,19,,,,,,,,,,,,,,,,,,,,,,,,,,,,,,,,
0.0,1.0,0.76032,0.0,16.0,16.0,16.0,1.0,raspberry_12s.jpg,0.0,clockno_default.jpg,3.0,19,,,,,,,,,,,,,,,,,,,,,,,,,,,,,,,,
0.0,1.0,0.927275,0.0,17.0,17.0,17.0,1.0,padlock_07s.jpg,0.0,clockno_up.jpg,4.0,19,,,,,,,,,,,,,,,,,,,,,,,,,,,,,,,,
0.0,1.0,0.697565,0.0,18.0,18.0,18.0,1.0,phone_01b.jpg,0.0,clockno_default.jpg,4.0,19,,,,,,,,,,,,,,,,,,,,,,,,,,,,,,,,
0.0,1.0,1.31938,0.0,19.0,19.0,19.0,1.0,lizard_10n.jpg,0.0,clockno_default.jpg,4.0,19,,,,,,,,,,,,,,,,,,,,,,,,,,,,,,,,
0.0,1.0,1.3029,0.0,20.0,20.0,20.0,1.0,seagull_01b.jpg,0.0,clockno_default.jpg,4.0,19,,,,,,,,,,,,,,,,,,,,,,,,,,,,,,,,
0.0,1.0,1.217585,0.0,21.0,21.0,21.0,1.0,stapler_01b.jpg,0.0,clockno_default.jpg,4.0,19,,,,,,,,,,,,,,,,,,,,,,,,,,,,,,,,
0.0,1.0,1.20247,0.0,22.0,22.0,22.0,1.0,turtleneck_11s.jpg,0.0,clockno_default.jpg,4.0,19,,,,,,,,,,,,,,,,,,,,,,,,,,,,,,,,
0.0,1.0,0.96046,0.0,23.0,23.0,23.0,1.0,top_hat_11s.jpg,0.0,clockno_up.jpg,5.0,19,,,,,,,,,,,,,,,,,,,,,,,,,,,,,,,,
0.0,1.0,0.849745,0.0,24.0,24.0,24.0,1.0,screwdriver02a.jpg,0.0,clockno_default.jpg,5.0,19,,,,,,,,,,,,,,,,,,,,,,,,,,,,,,,,
0.0,1.0,1.20776,0.0,25.0,25.0,25.0,1.0,raspberry_12s.jpg,0.0,clockno_default.jpg,5.0,19,,,,,,,,,,,,,,,,,,,,,,,,,,,,,,,,
0.0,1.0,0.933795,0.0,26.0,26.0,26.0,1.0,gingerbread_man_03s.jpg,0.0,clockno_default.jpg,5.0,19,,,,,,,,,,,,,,,,,,,,,,,,,,,,,,,,
0.0,1.0,0.953865,0.0,27.0,27.0,27.0,1.0,bagel_15s.jpg,0.0,clockno_default.jpg,5.0,19,,,,,,,,,,,,,,,,,,,,,,,,,,,,,,,,
1.0,1.0,1.63675,0.0,28.0,28.0,28.0,1.0,top_hat_11s.jpg,1.0,clockno_default.jpg,5.0,19,,,,,,,,,,,,,,,,,,,,,,,,,,,,,,,,
0.0,1.0,1.240015,0.0,29.0,29.0,29.0,1.0,smokingpipe.jpg,0.0,clockno_default.jpg,5.0,19,,,,,,,,,,,,,,,,,,,,,,,,,,,,,,,,
0.0,1.0,1.104765,0.0,30.0,30.0,30.0,1.0,sea_urchin_09s.jpg,0.0,clockno_up.jpg,6.0,19,,,,,,,,,,,,,,,,,,,,,,,,,,,,,,,,
0.0,1.0,0.819675,0.0,31.0,31.0,31.0,1.0,tomato_sauce_09s.jpg,0.0,clockno_default.jpg,6.0,19,,,,,,,,,,,,,,,,,,,,,,,,,,,,,,,,
0.0,1.0,1.033715,0.0,32.0,32.0,32.0,1.0,triangle_10s.jpg,0.0,clockno_default.jpg,6.0,19,,,,,,,,,,,,,,,,,,,,,,,,,,,,,,,,
0.0,1.0,0.77881,0.0,33.0,33.0,33.0,1.0,squirrel_02s.jpg,0.0,clockno_default.jpg,6.0,19,,,,,,,,,,,,,,,,,,,,,,,,,,,,,,,,
0.0,1.0,0.790675,0.0,34.0,34.0,34.0,1.0,punch1_10s.jpg,0.0,clockno_default.jpg,6.0,19,,,,,,,,,,,,,,,,,,,,,,,,,,,,,,,,
0.0,1.0,0.814965,0.0,35.0,35.0,35.0,1.0,chalice_10s.jpg,0.0,clockno_default.jpg,6.0,19,,,,,,,,,,,,,,,,,,,,,,,,,,,,,,,,
,,,,,,,,,1.0,,,19,0.0,0.0,2.118175,0.0,0.0,0.0,0.0,1.0,purse_05s.jpg,knot_01b.jpg,,,,,,,,,,,,,,,,,,,,,,
,,,,,,,,,0.0,,,19,1.0,0.0,1.79531,0.0,1.0,1.0,1.0,1.0,butter_14s.jpg,megaphone_03s.jpg,,,,,,,,,,,,,,,,,,,,,,
,,,,,,,,,0.0,,,19,1.0,0.0,1.546715,0.0,2.0,2.0,2.0,1.0,screwdriver02a.jpg,stapler_01b.jpg,,,,,,,,,,,,,,,,,,,,,,
,,,,,,,,,0.0,,,19,0.0,1.0,2.75539,0.0,3.0,3.0,3.0,1.0,quesadilla_07s.jpg,dashboard_02s.jpg,,,,,,,,,,,,,,,,,,,,,,
,,,,,,,,,0.0,,,19,0.0,1.0,1.84058,0.0,4.0,4.0,4.0,1.0,thumbtack_14s.jpg,juicer2_06s.jpg,,,,,,,,,,,,,,,,,,,,,,
,,,,,,,,,0.0,,,19,1.0,0.0,1.43102,0.0,5.0,5.0,5.0,1.0,turtleneck_11s.jpg,lizard_10n.jpg,,,,,,,,,,,,,,,,,,,,,,
,,,,,,,,,,,,19,,,,,,,,,,,0.0,2.0,2.0,2.0,1.0,clockno_present_3_5.xlsx,clockno_compare_task_3_5.xlsx,,,,,,,,,,,,,,,
0.0,1.0,1.793925,0.0,0.0,0.0,0.0,1.0,leotard_08s.jpg,0.0,clockno_up.jpg,1.0,19,,,,,,,,,,,,,,,,,,,,,,,,,,,,,,,,
0.0,1.0,1.06822,0.0,1.0,1.0,1.0,1.0,popsicle_02s.jpg,0.0,clockno_default.jpg,1.0,19,,,,,,,,,,,,,,,,,,,,,,,,,,,,,,,,
1.0,1.0,0.881615,0.0,2.0,2.0,2.0,1.0,popsicle_02s.jpg,1.0,clockno_default.jpg,1.0,19,,,,,,,,,,,,,,,,,,,,,,,,,,,,,,,,
1.0,1.0,1.02151,0.0,3.0,3.0,3.0,1.0,popsicle_02s.jpg,1.0,clockno_default.jpg,1.0,19,,,,,,,,,,,,,,,,,,,,,,,,,,,,,,,,
0.0,1.0,1.611685,0.0,4.0,4.0,4.0,1.0,rocking_horse_03s.jpg,0.0,clockno_default.jpg,1.0,19,,,,,,,,,,,,,,,,,,,,,,,,,,,,,,,,
0.0,1.0,0.90514,0.0,5.0,5.0,5.0,1.0,incense_02s.jpg,0.0,clockno_up.jpg,2.0,19,,,,,,,,,,,,,,,,,,,,,,,,,,,,,,,,
0.0,1.0,0.941565,0.0,6.0,6.0,6.0,1.0,margarita_03s.jpg,0.0,clockno_default.jpg,2.0,19,,,,,,,,,,,,,,,,,,,,,,,,,,,,,,,,
0.0,1.0,0.96624,0.0,7.0,7.0,7.0,1.0,telephone_pole_05s.jpg,0.0,clockno_default.jpg,2.0,19,,,,,,,,,,,,,,,,,,,,,,,,,,,,,,,,
0.0,1.0,0.727265,0.0,8.0,8.0,8.0,1.0,hummingbird_05s.jpg,0.0,clockno_default.jpg,2.0,19,,,,,,,,,,,,,,,,,,,,,,,,,,,,,,,,
0.0,1.0,0.78505,0.0,9.0,9.0,9.0,1.0,pincushion_10s.jpg,0.0,clockno_default.jpg,2.0,19,,,,,,,,,,,,,,,,,,,,,,,,,,,,,,,,
0.0,1.0,1.265315,0.0,10.0,10.0,10.0,1.0,peppermint_07s.jpg,0.0,clockno_default.jpg,2.0,19,,,,,,,,,,,,,,,,,,,,,,,,,,,,,,,,
0.0,1.0,0.9884,0.0,11.0,11.0,11.0,1.0,mattress_01s.jpg,0.0,clockno_up.jpg,3.0,19,,,,,,,,,,,,,,,,,,,,,,,,,,,,,,,,
0.0,1.0,0.868145,0.0,12.0,12.0,12.0,1.0,swimming_pool_17s.jpg,0.0,clockno_default.jpg,3.0,19,,,,,,,,,,,,,,,,,,,,,,,,,,,,,,,,
0.0,1.0,1.03822,0.0,13.0,13.0,13.0,1.0,pincushion_10s.jpg,0.0,clockno_default.jpg,3.0,19,,,,,,,,,,,,,,,,,,,,,,,,,,,,,,,,
0.0,1.0,1.10934,0.0,14.0,14.0,14.0,1.0,pomegranate_04s.jpg,0.0,clockno_default.jpg,3.0,19,,,,,,,,,,,,,,,,,,,,,,,,,,,,,,,,
1.0,1.0,0.856975,0.0,15.0,15.0,15.0,1.0,pincushion_10s.jpg,1.0,clockno_default.jpg,3.0,19,,,,,,,,,,,,,,,,,,,,,,,,,,,,,,,,
0.0,1.0,1.223195,0.0,16.0,16.0,16.0,1.0,soccer_ball_12s.jpg,0.0,clockno_default.jpg,3.0,19,,,,,,,,,,,,,,,,,,,,,,,,,,,,,,,,
0.0,1.0,0.97758,0.0,17.0,17.0,17.0,1.0,swing_set_15s.jpg,0.0,clockno_default.jpg,3.0,19,,,,,,,,,,,,,,,,,,,,,,,,,,,,,,,,
0.0,1.0,1.49159,0.0,18.0,18.0,18.0,1.0,lipstick_02s.jpg,0.0,clockno_up.jpg,4.0,19,,,,,,,,,,,,,,,,,,,,,,,,,,,,,,,,
1.0,1.0,0.99433,0.0,19.0,19.0,19.0,1.0,lipstick_02s.jpg,1.0,clockno_default.jpg,4.0,19,,,,,,,,,,,,,,,,,,,,,,,,,,,,,,,,
0.0,1.0,1.24407,0.0,20.0,20.0,20.0,1.0,tie_03s.jpg,0.0,clockno_default.jpg,4.0,19,,,,,,,,,,,,,,,,,,,,,,,,,,,,,,,,
0.0,1.0,1.30237,0.0,21.0,21.0,21.0,1.0,muffin_12n.jpg,0.0,clockno_default.jpg,4.0,19,,,,,,,,,,,,,,,,,,,,,,,,,,,,,,,,
0.0,1.0,1.19858,0.0,22.0,22.0,22.0,1.0,solar_panel_02s.jpg,0.0,clockno_default.jpg,4.0,19,,,,,,,,,,,,,,,,,,,,,,,,,,,,,,,,
0.0,1.0,1.056555,0.0,23.0,23.0,23.0,1.0,safety_pin_02s.jpg,0.0,clockno_default.jpg,4.0,19,,,,,,,,,,,,,,,,,,,,,,,,,,,,,,,,
0.0,1.0,1.218095,0.0,24.0,24.0,24.0,1.0,rolling_pin_02s.jpg,0.0,clockno_up.jpg,5.0,19,,,,,,,,,,,,,,,,,,,,,,,,,,,,,,,,
0.0,1.0,0.852415,0.0,25.0,25.0,25.0,1.0,toaster_03s.jpg,0.0,clockno_default.jpg,5.0,19,,,,,,,,,,,,,,,,,,,,,,,,,,,,,,,,
0.0,1.0,0.655105,0.0,26.0,26.0,26.0,1.0,umbrella_15s.jpg,0.0,clockno_default.jpg,5.0,19,,,,,,,,,,,,,,,,,,,,,,,,,,,,,,,,
0.0,1.0,1.101705,0.0,27.0,27.0,27.0,1.0,gong_02s.jpg,0.0,clockno_default.jpg,5.0,19,,,,,,,,,,,,,,,,,,,,,,,,,,,,,,,,
0.0,1.0,0.902225,0.0,28.0,28.0,28.0,1.0,plug_08s.jpg,0.0,clockno_default.jpg,5.0,19,,,,,,,,,,,,,,,,,,,,,,,,,,,,,,,,
0.0,1.0,1.06712,0.0,29.0,29.0,29.0,1.0,bonsai_07s.jpg,0.0,clockno_up.jpg,6.0,19,,,,,,,,,,,,,,,,,,,,,,,,,,,,,,,,
0.0,1.0,0.94413,0.0,30.0,30.0,30.0,1.0,raft_09s.jpg,0.0,clockno_default.jpg,6.0,19,,,,,,,,,,,,,,,,,,,,,,,,,,,,,,,,
0.0,1.0,0.789995,0.0,31.0,31.0,31.0,1.0,puppet_01b.jpg,0.0,clockno_default.jpg,6.0,19,,,,,,,,,,,,,,,,,,,,,,,,,,,,,,,,
0.0,0.0,1.068805,0.0,32.0,32.0,32.0,1.0,puppet_01b.jpg,1.0,clockno_default.jpg,6.0,19,,,,,,,,,,,,,,,,,,,,,,,,,,,,,,,,
0.0,1.0,1.04725,0.0,33.0,33.0,33.0,1.0,emerald_02s.jpg,0.0,clockno_default.jpg,6.0,19,,,,,,,,,,,,,,,,,,,,,,,,,,,,,,,,
0.0,1.0,1.08161,0.0,34.0,34.0,34.0,1.0,pencil02a.jpg,0.0,clockno_default.jpg,6.0,19,,,,,,,,,,,,,,,,,,,,,,,,,,,,,,,,
0.0,1.0,0.891125,0.0,35.0,35.0,35.0,1.0,gazelle_10s.jpg,0.0,clockno_default.jpg,6.0,19,,,,,,,,,,,,,,,,,,,,,,,,,,,,,,,,
,,,,,,,,,1.0,,,19,1.0,1.0,1.589225,0.0,0.0,0.0,0.0,1.0,umbrella_15s.jpg,bonsai_07s.jpg,,,,,,,,,,,,,,,,,,,,,,
,,,,,,,,,1.0,,,19,1.0,1.0,3.126295,0.0,1.0,1.0,1.0,1.0,rocking_horse_03s.jpg,telephone_pole_05s.jpg,,,,,,,,,,,,,,,,,,,,,,
,,,,,,,,,1.0,,,19,1.0,1.0,1.781305,0.0,2.0,2.0,2.0,1.0,muffin_12n.jpg,rolling_pin_02s.jpg,,,,,,,,,,,,,,,,,,,,,,
,,,,,,,,,1.0,,,19,0.0,0.0,1.29891,0.0,3.0,3.0,3.0,1.0,incense_02s.jpg,hummingbird_05s.jpg,,,,,,,,,,,,,,,,,,,,,,
,,,,,,,,,0.0,,,19,1.0,0.0,1.37788,0.0,4.0,4.0,4.0,1.0,pomegranate_04s.jpg,mattress_01s.jpg,,,,,,,,,,,,,,,,,,,,,,
,,,,,,,,,1.0,,,19,0.0,0.0,1.383435,0.0,5.0,5.0,5.0,1.0,toaster_03s.jpg,plug_08s.jpg,,,,,,,,,,,,,,,,,,,,,,
,,,,,,,,,,,,19,,,,,,,,,,,0.0,3.0,3.0,3.0,1.0,clockno_present_4_5.xlsx,clockno_compare_task_4_5.xlsx,,,,,,,,,,,,,,,
0.0,1.0,1.165905,0.0,0.0,0.0,0.0,1.0,tiara_05s.jpg,0.0,clockno_up.jpg,1.0,19,,,,,,,,,,,,,,,,,,,,,,,,,,,,,,,,
0.0,1.0,0.94357,0.0,1.0,1.0,1.0,1.0,refrigerator_07s.jpg,0.0,clockno_default.jpg,1.0,19,,,,,,,,,,,,,,,,,,,,,,,,,,,,,,,,
0.0,1.0,0.66885,0.0,2.0,2.0,2.0,1.0,roller_coaster_07s.jpg,0.0,clockno_default.jpg,1.0,19,,,,,,,,,,,,,,,,,,,,,,,,,,,,,,,,
0.0,1.0,0.83287,0.0,3.0,3.0,3.0,1.0,crystal_ball_12s.jpg,0.0,clockno_default.jpg,1.0,19,,,,,,,,,,,,,,,,,,,,,,,,,,,,,,,,
0.0,1.0,0.96109,0.0,4.0,4.0,4.0,1.0,racehorse_03s.jpg,0.0,clockno_default.jpg,1.0,19,,,,,,,,,,,,,,,,,,,,,,,,,,,,,,,,
0.0,1.0,1.069015,0.0,5.0,5.0,5.0,1.0,lamb_chop_07s.jpg,0.0,clockno_default.jpg,1.0,19,,,,,,,,,,,,,,,,,,,,,,,,,,,,,,,,
0.0,1.0,0.9427,0.0,6.0,6.0,6.0,1.0,paper_towel_03s.jpg,0.0,clockno_up.jpg,2.0,19,,,,,,,,,,,,,,,,,,,,,,,,,,,,,,,,
0.0,1.0,0.786995,0.0,7.0,7.0,7.0,1.0,radiator_05s.jpg,0.0,clockno_default.jpg,2.0,19,,,,,,,,,,,,,,,,,,,,,,,,,,,,,,,,
0.0,1.0,0.6746,0.0,8.0,8.0,8.0,1.0,frog_09s.jpg,0.0,clockno_default.jpg,2.0,19,,,,,,,,,,,,,,,,,,,,,,,,,,,,,,,,
1.0,1.0,1.40851,0.0,9.0,9.0,9.0,1.0,radiator_05s.jpg,1.0,clockno_default.jpg,2.0,19,,,,,,,,,,,,,,,,,,,,,,,,,,,,,,,,
0.0,1.0,0.990915,0.0,10.0,10.0,10.0,1.0,chocolate_01b.jpg,0.0,clockno_default.jpg,2.0,19,,,,,,,,,,,,,,,,,,,,,,,,,,,,,,,,
0.0,1.0,1.052165,0.0,11.0,11.0,11.0,1.0,metronome_03s.jpg,0.0,clockno_up.jpg,3.0,19,,,,,,,,,,,,,,,,,,,,,,,,,,,,,,,,
0.0,1.0,0.900725,0.0,12.0,12.0,12.0,1.0,kettle_08s.jpg,0.0,clockno_default.jpg,3.0,19,,,,,,,,,,,,,,,,,,,,,,,,,,,,,,,,
0.0,1.0,0.99672,0.0,13.0,13.0,13.0,1.0,refrigerator_07s.jpg,0.0,clockno_default.jpg,3.0,19,,,,,,,,,,,,,,,,,,,,,,,,,,,,,,,,
0.0,1.0,0.81382,0.0,14.0,14.0,14.0,1.0,eyedropper_12s.jpg,0.0,clockno_default.jpg,3.0,19,,,,,,,,,,,,,,,,,,,,,,,,,,,,,,,,
0.0,1.0,0.78912,0.0,15.0,15.0,15.0,1.0,totem_pole_05s.jpg,0.0,clockno_default.jpg,3.0,19,,,,,,,,,,,,,,,,,,,,,,,,,,,,,,,,
0.0,1.0,1.40602,0.0,16.0,16.0,16.0,1.0,aluminum_foil_08s.jpg,0.0,clockno_default.jpg,3.0,19,,,,,,,,,,,,,,,,,,,,,,,,,,,,,,,,
0.0,1.0,0.93642,0.0,17.0,17.0,17.0,1.0,birdcage_08s.jpg,0.0,clockno_default.jpg,3.0,19,,,,,,,,,,,,,,,,,,,,,,,,,,,,,,,,
0.0,1.0,1.22313,0.0,18.0,18.0,18.0,1.0,gargoyle_08s.jpg,0.0,clockno_up.jpg,4.0,19,,,,,,,,,,,,,,,,,,,,,,,,,,,,,,,,
0.0,1.0,0.86413,0.0,19.0,19.0,19.0,1.0,cobra_05s.jpg,0.0,clockno_default.jpg,4.0,19,,,,,,,,,,,,,,,,,,,,,,,,,,,,,,,,
0.0,1.0,1.0332,0.0,20.0,20.0,20.0,1.0,bank_06s.jpg,0.0,clockno_default.jpg,4.0,19,,,,,,,,,,,,,,,,,,,,,,,,,,,,,,,,
0.0,1.0,0.826655,0.0,21.0,21.0,21.0,1.0,spatula04.jpg,0.0,clockno_default.jpg,4.0,19,,,,,,,,,,,,,,,,,,,,,,,,,,,,,,,,
0.0,1.0,1.165825,0.0,22.0,22.0,22.0,1.0,syringe_02s.jpg,0.0,clockno_default.jpg,4.0,19,,,,,,,,,,,,,,,,,,,,,,,,,,,,,,,,
0.0,1.0,1.04234,0.0,23.0,23.0,23.0,1.0,surfboard_11s.jpg,0.0,clockno_up.jpg,5.0,19,,,,,,,,,,,,,,,,,,,,,,,,,,,,,,,,
0.0,1.0,1.04891,0.0,24.0,24.0,24.0,1.0,birthday_cake_09s.jpg,0.0,clockno_default.jpg,5.0,19,,,,,,,,,,,,,,,,,,,,,,,,,,,,,,,,
0.0,1.0,0.64625,0.0,25.0,25.0,25.0,1.0,pretzel_09s.jpg,0.0,clockno_default.jpg,5.0,19,,,,,,,,,,,,,,,,,,,,,,,,,,,,,,,,
0.0,1.0,1.323775,0.0,26.0,26.0,26.0,1.0,possum_09s.jpg,0.0,clockno_default.jpg,5.0,19,,,,,,,,,,,,,,,,,,,,,,,,,,,,,,,,
0.0,1.0,0.917205,0.0,27.0,27.0,27.0,1.0,magnet_03s.jpg,0.0,clockno_default.jpg,5.0,19,,,,,,,,,,,,,,,,,,,,,,,,,,,,,,,,
0.0,1.0,1.010215,0.0,28.0,28.0,28.0,1.0,crate_05s.jpg,0.0,clockno_default.jpg,5.0,19,,,,,,,,,,,,,,,,,,,,,,,,,,,,,,,,
0.0,1.0,1.0562,0.0,29.0,29.0,29.0,1.0,fossil_06s.jpg,0.0,clockno_up.jpg,6.0,19,,,,,,,,,,,,,,,,,,,,,,,,,,,,,,,,
0.0,1.0,1.112615,0.0,30.0,30.0,30.0,1.0,contact_lens_15s.jpg,0.0,clockno_default.jpg,6.0,19,,,,,,,,,,,,,,,,,,,,,,,,,,,,,,,,
0.0,1.0,0.903905,0.0,31.0,31.0,31.0,1.0,sugar_cube_11s.jpg,0.0,clockno_default.jpg,6.0,19,,,,,,,,,,,,,,,,,,,,,,,,,,,,,,,,
0.0,1.0,0.69549,0.0,32.0,32.0,32.0,1.0,key_07s.jpg,0.0,clockno_default.jpg,6.0,19,,,,,,,,,,,,,,,,,,,,,,,,,,,,,,,,
0.0,1.0,1.09382,0.0,33.0,33.0,33.0,1.0,birthday_cake_09s.jpg,0.0,clockno_default.jpg,6.0,19,,,,,,,,,,,,,,,,,,,,,,,,,,,,,,,,
0.0,1.0,0.857785,0.0,34.0,34.0,34.0,1.0,kangaroo_02s.jpg,0.0,clockno_default.jpg,6.0,19,,,,,,,,,,,,,,,,,,,,,,,,,,,,,,,,
0.0,1.0,1.053,0.0,35.0,35.0,35.0,1.0,juicer1_08s.jpg,0.0,clockno_default.jpg,6.0,19,,,,,,,,,,,,,,,,,,,,,,,,,,,,,,,,
,,,,,,,,,1.0,,,19,1.0,1.0,1.49918,0.0,0.0,0.0,0.0,1.0,magnet_03s.jpg,contact_lens_15s.jpg,,,,,,,,,,,,,,,,,,,,,,
,,,,,,,,,0.0,,,19,1.0,0.0,3.37234,0.0,1.0,1.0,1.0,1.0,paper_towel_03s.jpg,crystal_ball_12s.jpg,,,,,,,,,,,,,,,,,,,,,,
,,,,,,,,,0.0,,,19,1.0,0.0,1.62303,0.0,2.0,2.0,2.0,1.0,frog_09s.jpg,lamb_chop_07s.jpg,,,,,,,,,,,,,,,,,,,,,,
,,,,,,,,,0.0,,,19,0.0,1.0,1.48194,0.0,3.0,3.0,3.0,1.0,juicer1_08s.jpg,key_07s.jpg,,,,,,,,,,,,,,,,,,,,,,
,,,,,,,,,0.0,,,19,0.0,1.0,1.43617,0.0,4.0,4.0,4.0,1.0,eyedropper_12s.jpg,metronome_03s.jpg,,,,,,,,,,,,,,,,,,,,,,
,,,,,,,,,0.0,,,19,1.0,0.0,1.833895,0.0,5.0,5.0,5.0,1.0,totem_pole_05s.jpg,kettle_08s.jpg,,,,,,,,,,,,,,,,,,,,,,
,,,,,,,,,,,,19,,,,,,,,,,,0.0,4.0,4.0,4.0,1.0,clockno_present_5_5.xlsx,clockno_compare_task_5_5.xlsx,,,,,,,,,,,,,,,
0.0,1.0,1.781335,0.0,0.0,0.0,0.0,1.0,fishhook_06s.jpg,0.0,clockno_up.jpg,1.0,19,,,,,,,,,,,,,,,,,,,,,,,,,,,,,,,,
1.0,1.0,0.7636,0.0,1.0,1.0,1.0,1.0,fishhook_06s.jpg,1.0,clockno_default.jpg,1.0,19,,,,,,,,,,,,,,,,,,,,,,,,,,,,,,,,
1.0,1.0,0.87672,0.0,2.0,2.0,2.0,1.0,fishhook_06s.jpg,1.0,clockno_default.jpg,1.0,19,,,,,,,,,,,,,,,,,,,,,,,,,,,,,,,,
0.0,1.0,0.89276,0.0,3.0,3.0,3.0,1.0,chip_04s.jpg,0.0,clockno_default.jpg,1.0,19,,,,,,,,,,,,,,,,,,,,,,,,,,,,,,,,
0.0,1.0,0.85998,0.0,4.0,4.0,4.0,1.0,kite_04s.jpg,0.0,clockno_default.jpg,1.0,19,,,,,,,,,,,,,,,,,,,,,,,,,,,,,,,,
1.0,1.0,0.99312,0.0,5.0,5.0,5.0,1.0,fishhook_06s.jpg,1.0,clockno_default.jpg,1.0,19,,,,,,,,,,,,,,,,,,,,,,,,,,,,,,,,
0.0,1.0,0.93766,0.0,6.0,6.0,6.0,1.0,potpourri_03s.jpg,0.0,clockno_default.jpg,1.0,19,,,,,,,,,,,,,,,,,,,,,,,,,,,,,,,,
0.0,1.0,1.187085,0.0,7.0,7.0,7.0,1.0,blazer_02s.jpg,0.0,clockno_up.jpg,2.0,19,,,,,,,,,,,,,,,,,,,,,,,,,,,,,,,,
0.0,1.0,1.53973,0.0,8.0,8.0,8.0,1.0,toy_04s.jpg,0.0,clockno_default.jpg,2.0,19,,,,,,,,,,,,,,,,,,,,,,,,,,,,,,,,
0.0,1.0,0.572055,0.0,9.0,9.0,9.0,1.0,poinsettia_04s.jpg,0.0,clockno_default.jpg,2.0,19,,,,,,,,,,,,,,,,,,,,,,,,,,,,,,,,
0.0,1.0,0.96811,0.0,10.0,10.0,10.0,1.0,punch2_09s.jpg,0.0,clockno_default.jpg,2.0,19,,,,,,,,,,,,,,,,,,,,,,,,,,,,,,,,
1.0,1.0,0.69865,0.0,11.0,11.0,11.0,1.0,toy_04s.jpg,1.0,clockno_default.jpg,2.0,19,,,,,,,,,,,,,,,,,,,,,,,,,,,,,,,,
0.0,1.0,1.184935,0.0,12.0,12.0,12.0,1.0,quilt_03s.jpg,0.0,clockno_up.jpg,3.0,19,,,,,,,,,,,,,,,,,,,,,,,,,,,,,,,,
1.0,1.0,1.37343,0.0,13.0,13.0,13.0,1.0,quilt_03s.jpg,1.0,clockno_default.jpg,3.0,19,,,,,,,,,,,,,,,,,,,,,,,,,,,,,,,,
0.0,1.0,1.132545,0.0,14.0,14.0,14.0,1.0,toad_09s.jpg,0.0,clockno_default.jpg,3.0,19,,,,,,,,,,,,,,,,,,,,,,,,,,,,,,,,
1.0,1.0,0.93019,0.0,15.0,15.0,15.0,1.0,toad_09s.jpg,1.0,clockno_default.jpg,3.0,19,,,,,,,,,,,,,,,,,,,,,,,,,,,,,,,,
1.0,1.0,2.060815,0.0,16.0,16.0,16.0,1.0,quilt_03s.jpg,1.0,clockno_default.jpg,3.0,19,,,,,,,,,,,,,,,,,,,,,,,,,,,,,,,,
0.0,1.0,1.09464,0.0,17.0,17.0,17.0,1.0,cucumber_07s.jpg,0.0,clockno_default.jpg,3.0,19,,,,,,,,,,,,,,,,,,,,,,,,,,,,,,,,
0.0,1.0,1.444185,0.0,18.0,18.0,18.0,1.0,turf_03s.jpg,0.0,clockno_default.jpg,3.0,19,,,,,,,,,,,,,,,,,,,,,,,,,,,,,,,,
0.0,1.0,0.96495,0.0,19.0,19.0,19.0,1.0,slingshot_07s.jpg,0.0,clockno_up.jpg,4.0,19,,,,,,,,,,,,,,,,,,,,,,,,,,,,,,,,
0.0,1.0,0.922875,0.0,20.0,20.0,20.0,1.0,toy_04s.jpg,0.0,clockno_default.jpg,4.0,19,,,,,,,,,,,,,,,,,,,,,,,,,,,,,,,,
0.0,1.0,0.9887,0.0,21.0,21.0,21.0,1.0,rice_12s.jpg,0.0,clockno_default.jpg,4.0,19,,,,,,,,,,,,,,,,,,,,,,,,,,,,,,,,
0.0,1.0,0.81848,0.0,22.0,22.0,22.0,1.0,flip_flop_03s.jpg,0.0,clockno_default.jpg,4.0,19,,,,,,,,,,,,,,,,,,,,,,,,,,,,,,,,
0.0,1.0,0.85453,0.0,23.0,23.0,23.0,1.0,knitting_needle_04s.jpg,0.0,clockno_default.jpg,4.0,19,,,,,,,,,,,,,,,,,,,,,,,,,,,,,,,,
0.0,1.0,1.123285,0.0,24.0,24.0,24.0,1.0,crossbow_10s.jpg,0.0,clockno_default.jpg,4.0,19,,,,,,,,,,,,,,,,,,,,,,,,,,,,,,,,
0.0,1.0,1.001835,0.0,25.0,25.0,25.0,1.0,rocking_chair_05s.jpg,0.0,clockno_up.jpg,5.0,19,,,,,,,,,,,,,,,,,,,,,,,,,,,,,,,,
0.0,1.0,1.139035,0.0,26.0,26.0,26.0,1.0,fire_pit_10s.jpg,0.0,clockno_default.jpg,5.0,19,,,,,,,,,,,,,,,,,,,,,,,,,,,,,,,,
1.0,1.0,0.84044,0.0,27.0,27.0,27.0,1.0,rocking_chair_05s.jpg,1.0,clockno_default.jpg,5.0,19,,,,,,,,,,,,,,,,,,,,,,,,,,,,,,,,
1.0,1.0,0.84566,0.0,28.0,28.0,28.0,1.0,rocking_chair_05s.jpg,1.0,clockno_default.jpg,5.0,19,,,,,,,,,,,,,,,,,,,,,,,,,,,,,,,,
0.0,1.0,0.995615,0.0,29.0,29.0,29.0,1.0,toad_09s.jpg,0.0,clockno_default.jpg,5.0,19,,,,,,,,,,,,,,,,,,,,,,,,,,,,,,,,
1.0,1.0,0.85273,0.0,30.0,30.0,30.0,1.0,rocking_chair_05s.jpg,1.0,clockno_default.jpg,5.0,19,,,,,,,,,,,,,,,,,,,,,,,,,,,,,,,,
0.0,1.0,0.97653,0.0,31.0,31.0,31.0,1.0,money_07s.jpg,0.0,clockno_up.jpg,6.0,19,,,,,,,,,,,,,,,,,,,,,,,,,,,,,,,,
0.0,1.0,0.696235,0.0,32.0,32.0,32.0,1.0,boomerang_06s.jpg,0.0,clockno_default.jpg,6.0,19,,,,,,,,,,,,,,,,,,,,,,,,,,,,,,,,
0.0,1.0,0.9934,0.0,33.0,33.0,33.0,1.0,mitten_10s.jpg,0.0,clockno_default.jpg,6.0,19,,,,,,,,,,,,,,,,,,,,,,,,,,,,,,,,
0.0,1.0,0.788885,0.0,34.0,34.0,34.0,1.0,cereal_04s.jpg,0.0,clockno_default.jpg,6.0,19,,,,,,,,,,,,,,,,,,,,,,,,,,,,,,,,
0.0,1.0,0.80594,0.0,35.0,35.0,35.0,1.0,mailbox_11s.jpg,0.0,clockno_default.jpg,6.0,19,,,,,,,,,,,,,,,,,,,,,,,,,,,,,,,,
,,,,,,,,,1.0,,,19,1.0,1.0,1.28591,0.0,0.0,0.0,0.0,1.0,knitting_needle_04s.jpg,fire_pit_10s.jpg,,,,,,,,,,,,,,,,,,,,,,
,,,,,,,,,1.0,,,19,1.0,1.0,1.438205,0.0,1.0,1.0,1.0,1.0,kite_04s.jpg,blazer_02s.jpg,,,,,,,,,,,,,,,,,,,,,,
,,,,,,,,,1.0,,,19,1.0,1.0,1.72753,0.0,2.0,2.0,2.0,1.0,potpourri_03s.jpg,poinsettia_04s.jpg,,,,,,,,,,,,,,,,,,,,,,
,,,,,,,,,1.0,,,19,0.0,0.0,1.30194,0.0,3.0,3.0,3.0,1.0,slingshot_07s.jpg,flip_flop_03s.jpg,,,,,,,,,,,,,,,,,,,,,,
,,,,,,,,,1.0,,,19,1.0,1.0,1.218455,0.0,4.0,4.0,4.0,1.0,money_07s.jpg,cereal_04s.jpg,,,,,,,,,,,,,,,,,,,,,,
,,,,,,,,,1.0,,,19,1.0,1.0,2.09827,0.0,5.0,5.0,5.0,1.0,boomerang_06s.jpg,mailbox_11s.jpg,,,,,,,,,,,,,,,,,,,,,,
0.0,1.0,1.687965,,,,,,undershirt_02s.jpg,0.0,clock_5_1.png,1.0,19,,,,,,,,,,,,,,,,,,0.0,0.0,0.0,0.0,1.0,,,,,,,,,,
0.0,1.0,1.06963,,,,,,ladder_15s.jpg,0.0,clock_5_2.png,1.0,19,,,,,,,,,,,,,,,,,,0.0,1.0,1.0,1.0,1.0,,,,,,,,,,
0.0,1.0,0.900735,,,,,,lantern_04s.jpg,0.0,clock_5_3.png,1.0,19,,,,,,,,,,,,,,,,,,0.0,2.0,2.0,2.0,1.0,,,,,,,,,,
0.0,1.0,0.89225,,,,,,cap_05s.jpg,0.0,clock_5_4.png,1.0,19,,,,,,,,,,,,,,,,,,0.0,3.0,3.0,3.0,1.0,,,,,,,,,,
0.0,1.0,0.92871,,,,,,boar_10s.jpg,0.0,clock_5_5.png,1.0,19,,,,,,,,,,,,,,,,,,0.0,4.0,4.0,4.0,1.0,,,,,,,,,,
0.0,1.0,1.27409,,,,,,ring_03s.jpg,0.0,clock_7_1.png,2.0,19,,,,,,,,,,,,,,,,,,0.0,5.0,5.0,5.0,1.0,,,,,,,,,,
0.0,1.0,0.919795,,,,,,kimono_13s.jpg,0.0,clock_7_2.png,2.0,19,,,,,,,,,,,,,,,,,,0.0,6.0,6.0,6.0,1.0,,,,,,,,,,
0.0,1.0,0.8191,,,,,,pacifier_09s.jpg,0.0,clock_7_3.png,2.0,19,,,,,,,,,,,,,,,,,,0.0,7.0,7.0,7.0,1.0,,,,,,,,,,
0.0,1.0,0.704435,,,,,,cape_11s.jpg,0.0,clock_7_4.png,2.0,19,,,,,,,,,,,,,,,,,,0.0,8.0,8.0,8.0,1.0,,,,,,,,,,
0.0,1.0,0.720205,,,,,,spider_web_03s.jpg,0.0,clock_7_5.png,2.0,19,,,,,,,,,,,,,,,,,,0.0,9.0,9.0,9.0,1.0,,,,,,,,,,
0.0,1.0,0.610405,,,,,,pancake_12s.jpg,0.0,clock_7_6.png,2.0,19,,,,,,,,,,,,,,,,,,0.0,10.0,10.0,10.0,1.0,,,,,,,,,,
1.0,1.0,0.865685,,,,,,pancake_12s.jpg,1.0,clock_7_7.png,2.0,19,,,,,,,,,,,,,,,,,,0.0,11.0,11.0,11.0,1.0,,,,,,,,,,
0.0,1.0,1.182615,,,,,,tulip_02s.jpg,0.0,clock_6_1.png,3.0,19,,,,,,,,,,,,,,,,,,0.0,12.0,12.0,12.0,1.0,,,,,,,,,,
0.0,1.0,1.10446,,,,,,pacifier_09s.jpg,0.0,clock_6_2.png,3.0,19,,,,,,,,,,,,,,,,,,0.0,13.0,13.0,13.0,1.0,,,,,,,,,,
0.0,1.0,1.030705,,,,,,gas_mask_11s.jpg,0.0,clock_6_3.png,3.0,19,,,,,,,,,,,,,,,,,,0.0,14.0,14.0,14.0,1.0,,,,,,,,,,
0.0,1.0,1.006365,,,,,,torch_02s.jpg,0.0,clock_6_4.png,3.0,19,,,,,,,,,,,,,,,,,,0.0,15.0,15.0,15.0,1.0,,,,,,,,,,
0.0,1.0,0.74816,,,,,,powder_07s.jpg,0.0,clock_6_5.png,3.0,19,,,,,,,,,,,,,,,,,,0.0,16.0,16.0,16.0,1.0,,,,,,,,,,
0.0,1.0,0.95865,,,,,,lamppost_09s.jpg,0.0,clock_6_6.png,3.0,19,,,,,,,,,,,,,,,,,,0.0,17.0,17.0,17.0,1.0,,,,,,,,,,
0.0,1.0,1.000665,,,,,,rug_09s.jpg,0.0,clock_7_1.png,4.0,19,,,,,,,,,,,,,,,,,,0.0,18.0,18.0,18.0,1.0,,,,,,,,,,
1.0,1.0,0.781485,,,,,,rug_09s.jpg,1.0,clock_7_2.png,4.0,19,,,,,,,,,,,,,,,,,,0.0,19.0,19.0,19.0,1.0,,,,,,,,,,
0.0,1.0,0.718205,,,,,,pencil_sharpener_09n.jpg,0.0,clock_7_3.png,4.0,19,,,,,,,,,,,,,,,,,,0.0,20.0,20.0,20.0,1.0,,,,,,,,,,
0.0,1.0,0.515265,,,,,,trumpet_06s.jpg,0.0,clock_7_4.png,4.0,19,,,,,,,,,,,,,,,,,,0.0,21.0,21.0,21.0,1.0,,,,,,,,,,
0.0,1.0,0.48431,,,,,,typewriter_11s.jpg,0.0,clock_7_5.png,4.0,19,,,,,,,,,,,,,,,,,,0.0,22.0,22.0,22.0,1.0,,,,,,,,,,
0.0,1.0,0.618475,,,,,,swan_11s.jpg,0.0,clock_7_6.png,4.0,19,,,,,,,,,,,,,,,,,,0.0,23.0,23.0,23.0,1.0,,,,,,,,,,
0.0,1.0,0.951675,,,,,,torch_02s.jpg,0.0,clock_7_7.png,4.0,19,,,,,,,,,,,,,,,,,,0.0,24.0,24.0,24.0,1.0,,,,,,,,,,
0.0,1.0,0.920215,,,,,,submarine_11n.jpg,0.0,clock_6_1.png,5.0,19,,,,,,,,,,,,,,,,,,0.0,25.0,25.0,25.0,1.0,,,,,,,,,,
0.0,1.0,0.63477,,,,,,popcorn_09s.jpg,0.0,clock_6_2.png,5.0,19,,,,,,,,,,,,,,,,,,0.0,26.0,26.0,26.0,1.0,,,,,,,,,,
0.0,1.0,0.74241,,,,,,turnstile_08s.jpg,0.0,clock_6_3.png,5.0,19,,,,,,,,,,,,,,,,,,0.0,27.0,27.0,27.0,1.0,,,,,,,,,,
0.0,1.0,0.715065,,,,,,printer_09s.jpg,0.0,clock_6_4.png,5.0,19,,,,,,,,,,,,,,,,,,0.0,28.0,28.0,28.0,1.0,,,,,,,,,,
0.0,1.0,0.815625,,,,,,orange_12s.jpg,0.0,clock_6_5.png,5.0,19,,,,,,,,,,,,,,,,,,0.0,29.0,29.0,29.0,1.0,,,,,,,,,,
1.0,1.0,0.89858,,,,,,submarine_11n.jpg,1.0,clock_6_6.png,5.0,19,,,,,,,,,,,,,,,,,,0.0,30.0,30.0,30.0,1.0,,,,,,,,,,
0.0,1.0,1.117905,,,,,,red_carpet_03s.jpg,0.0,clock_5_1.png,6.0,19,,,,,,,,,,,,,,,,,,0.0,31.0,31.0,31.0,1.0,,,,,,,,,,
0.0,1.0,1.288755,,,,,,spider_web_03s.jpg,0.0,clock_5_2.png,6.0,19,,,,,,,,,,,,,,,,,,0.0,32.0,32.0,32.0,1.0,,,,,,,,,,
0.0,1.0,1.0969,,,,,,fireworks_18s.jpg,0.0,clock_5_3.png,6.0,19,,,,,,,,,,,,,,,,,,0.0,33.0,33.0,33.0,1.0,,,,,,,,,,
0.0,1.0,0.644235,,,,,,piano_13n.jpg,0.0,clock_5_4.png,6.0,19,,,,,,,,,,,,,,,,,,0.0,34.0,34.0,34.0,1.0,,,,,,,,,,
0.0,1.0,0.911845,,,,,,fondue_07s.jpg,0.0,clock_5_5.png,6.0,19,,,,,,,,,,,,,,,,,,0.0,35.0,35.0,35.0,1.0,,,,,,,,,,
,,,,,,,,,1.0,,,19,1.0,1.0,1.908495,,,,,,lantern_04s.jpg,ring_03s.jpg,,,,,,,,,,,,,0.0,0.0,0.0,0.0,1.0,,,,,
,,,,,,,,,1.0,,,19,0.0,0.0,2.317815,,,,,,cap_05s.jpg,kimono_13s.jpg,,,,,,,,,,,,,0.0,1.0,1.0,1.0,1.0,,,,,
,,,,,,,,,0.0,,,19,1.0,0.0,2.133215,,,,,,red_carpet_03s.jpg,printer_09s.jpg,,,,,,,,,,,,,0.0,2.0,2.0,2.0,1.0,,,,,
,,,,,,,,,0.0,,,19,0.0,1.0,0.87553,,,,,,boar_10s.jpg,ladder_15s.jpg,,,,,,,,,,,,,0.0,3.0,3.0,3.0,1.0,,,,,
,,,,,,,,,0.0,,,19,0.0,1.0,1.36862,,,,,,lamppost_09s.jpg,gas_mask_11s.jpg,,,,,,,,,,,,,0.0,4.0,4.0,4.0,1.0,,,,,
,,,,,,,,,1.0,,,19,1.0,1.0,1.162795,,,,,,popcorn_09s.jpg,orange_12s.jpg,,,,,,,,,,,,,0.0,5.0,5.0,5.0,1.0,,,,,
,,,,,,,,,,,,19,,,,,,,,,,,,,,,,clock_present_1_5.xlsx,clock_compare_task_1_5.xlsx,,,,,,,,,,,0.0,0.0,0.0,0.0,1.0
0.0,1.0,1.078975,,,,,,rhinoceros_02s.jpg,0.0,clock_5_1.png,1.0,19,,,,,,,,,,,,,,,,,,0.0,0.0,0.0,0.0,1.0,,,,,,,,,,
0.0,1.0,0.96605,,,,,,laundry_basket_11s.jpg,0.0,clock_5_2.png,1.0,19,,,,,,,,,,,,,,,,,,0.0,1.0,1.0,1.0,1.0,,,,,,,,,,
1.0,1.0,0.77508,,,,,,laundry_basket_11s.jpg,1.0,clock_5_3.png,1.0,19,,,,,,,,,,,,,,,,,,0.0,2.0,2.0,2.0,1.0,,,,,,,,,,
0.0,1.0,2.05685,,,,,,peeler_06s.jpg,0.0,clock_5_4.png,1.0,19,,,,,,,,,,,,,,,,,,0.0,3.0,3.0,3.0,1.0,,,,,,,,,,
0.0,1.0,0.82825,,,,,,pepper_mill_03s.jpg,0.0,clock_5_5.png,1.0,19,,,,,,,,,,,,,,,,,,0.0,4.0,4.0,4.0,1.0,,,,,,,,,,
0.0,1.0,1.323215,,,,,,eiffeltower.jpg,0.0,clock_7_1.png,2.0,19,,,,,,,,,,,,,,,,,,0.0,5.0,5.0,5.0,1.0,,,,,,,,,,
1.0,1.0,0.77159,,,,,,eiffeltower.jpg,1.0,clock_7_2.png,2.0,19,,,,,,,,,,,,,,,,,,0.0,6.0,6.0,6.0,1.0,,,,,,,,,,
0.0,1.0,1.07773,,,,,,blender_08s.jpg,0.0,clock_7_3.png,2.0,19,,,,,,,,,,,,,,,,,,0.0,7.0,7.0,7.0,1.0,,,,,,,,,,
0.0,1.0,1.3121,,,,,,treasure_08s.jpg,0.0,clock_7_4.png,2.0,19,,,,,,,,,,,,,,,,,,0.0,8.0,8.0,8.0,1.0,,,,,,,,,,
1.0,1.0,1.407575,,,,,,eiffeltower.jpg,1.0,clock_7_5.png,2.0,19,,,,,,,,,,,,,,,,,,0.0,9.0,9.0,9.0,1.0,,,,,,,,,,
0.0,1.0,0.71241,,,,,,lamb_04s.jpg,0.0,clock_7_6.png,2.0,19,,,,,,,,,,,,,,,,,,0.0,10.0,10.0,10.0,1.0,,,,,,,,,,
1.0,1.0,1.16,,,,,,blender_08s.jpg,1.0,clock_7_7.png,2.0,19,,,,,,,,,,,,,,,,,,0.0,11.0,11.0,11.0,1.0,,,,,,,,,,
0.0,1.0,0.760765,,,,,,outlet_10s.jpg,0.0,clock_6_1.png,3.0,19,,,,,,,,,,,,,,,,,,0.0,12.0,12.0,12.0,1.0,,,,,,,,,,
0.0,1.0,0.75922,,,,,,mixer_12s.jpg,0.0,clock_6_2.png,3.0,19,,,,,,,,,,,,,,,,,,0.0,13.0,13.0,13.0,1.0,,,,,,,,,,
0.0,1.0,0.517175,,,,,,toilet_07s.jpg,0.0,clock_6_3.png,3.0,19,,,,,,,,,,,,,,,,,,0.0,14.0,14.0,14.0,1.0,,,,,,,,,,
0.0,1.0,1.206355,,,,,,keyboard_05s.jpg,0.0,clock_6_4.png,3.0,19,,,,,,,,,,,,,,,,,,0.0,15.0,15.0,15.0,1.0,,,,,,,,,,
1.0,1.0,0.905855,,,,,,toilet_07s.jpg,1.0,clock_6_5.png,3.0,19,,,,,,,,,,,,,,,,,,0.0,16.0,16.0,16.0,1.0,,,,,,,,,,
0.0,1.0,0.9509,,,,,,air_pump_05s.jpg,0.0,clock_6_6.png,3.0,19,,,,,,,,,,,,,,,,,,0.0,17.0,17.0,17.0,1.0,,,,,,,,,,
0.0,1.0,1.047305,,,,,,limousine_12s.jpg,0.0,clock_7_1.png,4.0,19,,,,,,,,,,,,,,,,,,0.0,18.0,18.0,18.0,1.0,,,,,,,,,,
1.0,1.0,0.728475,,,,,,limousine_12s.jpg,1.0,clock_7_2.png,4.0,19,,,,,,,,,,,,,,,,,,0.0,19.0,19.0,19.0,1.0,,,,,,,,,,
0.0,1.0,0.829475,,,,,,rope_16s.jpg,0.0,clock_7_3.png,4.0,19,,,,,,,,,,,,,,,,,,0.0,20.0,20.0,20.0,1.0,,,,,,,,,,
0.0,1.0,1.087295,,,,,,omelet_07s.jpg,0.0,clock_7_4.png,4.0,19,,,,,,,,,,,,,,,,,,0.0,21.0,21.0,21.0,1.0,,,,,,,,,,
0.0,1.0,0.860335,,,,,,jigsaw_puzzle_11s.jpg,0.0,clock_7_5.png,4.0,19,,,,,,,,,,,,,,,,,,0.0,22.0,22.0,22.0,1.0,,,,,,,,,,
0.0,1.0,0.955685,,,,,,taxi_15s.jpg,0.0,clock_7_6.png,4.0,19,,,,,,,,,,,,,,,,,,0.0,23.0,23.0,23.0,1.0,,,,,,,,,,
0.0,1.0,0.914985,,,,,,puck_06s.jpg,0.0,clock_7_7.png,4.0,19,,,,,,,,,,,,,,,,,,0.0,24.0,24.0,24.0,1.0,,,,,,,,,,
0.0,1.0,0.738755,,,,,,tube_top_03s.jpg,0.0,clock_5_1.png,5.0,19,,,,,,,,,,,,,,,,,,0.0,25.0,25.0,25.0,1.0,,,,,,,,,,
0.0,1.0,0.72747,,,,,,exhaust_pipe_10s.jpg,0.0,clock_5_2.png,5.0,19,,,,,,,,,,,,,,,,,,0.0,26.0,26.0,26.0,1.0,,,,,,,,,,
0.0,1.0,0.65021,,,,,,polar_bear_02s.jpg,0.0,clock_5_3.png,5.0,19,,,,,,,,,,,,,,,,,,0.0,27.0,27.0,27.0,1.0,,,,,,,,,,
0.0,1.0,0.528285,,,,,,pillow_03s.jpg,0.0,clock_5_4.png,5.0,19,,,,,,,,,,,,,,,,,,0.0,28.0,28.0,28.0,1.0,,,,,,,,,,
0.0,1.0,0.974465,,,,,,harpoon.jpg,0.0,clock_5_5.png,5.0,19,,,,,,,,,,,,,,,,,,0.0,29.0,29.0,29.0,1.0,,,,,,,,,,
0.0,1.0,0.80312,,,,,,turkey_10s.jpg,0.0,clock_6_1.png,6.0,19,,,,,,,,,,,,,,,,,,0.0,30.0,30.0,30.0,1.0,,,,,,,,,,
0.0,1.0,0.72118,,,,,,thermostat_02s.jpg,0.0,clock_6_2.png,6.0,19,,,,,,,,,,,,,,,,,,0.0,31.0,31.0,31.0,1.0,,,,,,,,,,
0.0,1.0,0.653925,,,,,,chopsticks_08s.jpg,0.0,clock_6_3.png,6.0,19,,,,,,,,,,,,,,,,,,0.0,32.0,32.0,32.0,1.0,,,,,,,,,,
0.0,1.0,0.57248,,,,,,tab_09s.jpg,0.0,clock_6_4.png,6.0,19,,,,,,,,,,,,,,,,,,0.0,33.0,33.0,33.0,1.0,,,,,,,,,,
0.0,1.0,0.469005,,,,,,breadstick_08s.jpg,0.0,clock_6_5.png,6.0,19,,,,,,,,,,,,,,,,,,0.0,34.0,34.0,34.0,1.0,,,,,,,,,,
0.0,1.0,0.98587,,,,,,rhinoceros_02s.jpg,0.0,clock_6_6.png,6.0,19,,,,,,,,,,,,,,,,,,0.0,35.0,35.0,35.0,1.0,,,,,,,,,,
,,,,,,,,,0.0,,,19,0.0,1.0,2.162805,,,,,,mixer_12s.jpg,lamb_04s.jpg,,,,,,,,,,,,,0.0,0.0,0.0,0.0,1.0,,,,,
,,,,,,,,,0.0,,,19,0.0,1.0,1.77838,,,,,,rope_16s.jpg,air_pump_05s.jpg,,,,,,,,,,,,,0.0,1.0,1.0,1.0,1.0,,,,,
,,,,,,,,,1.0,,,19,1.0,1.0,1.43359,,,,,,jigsaw_puzzle_11s.jpg,tube_top_03s.jpg,,,,,,,,,,,,,0.0,2.0,2.0,2.0,1.0,,,,,
,,,,,,,,,1.0,,,19,1.0,1.0,1.82348,,,,,,outlet_10s.jpg,keyboard_05s.jpg,,,,,,,,,,,,,0.0,3.0,3.0,3.0,1.0,,,,,
,,,,,,,,,0.0,,,19,1.0,0.0,1.966855,,,,,,puck_06s.jpg,omelet_07s.jpg,,,,,,,,,,,,,0.0,4.0,4.0,4.0,1.0,,,,,
,,,,,,,,,1.0,,,19,1.0,1.0,1.801445,,,,,,turkey_10s.jpg,tab_09s.jpg,,,,,,,,,,,,,0.0,5.0,5.0,5.0,1.0,,,,,
,,,,,,,,,,,,19,,,,,,,,,,,,,,,,clock_present_2_5.xlsx,clock_compare_task_2_5.xlsx,,,,,,,,,,,0.0,1.0,1.0,1.0,1.0
0.0,1.0,1.050335,,,,,,pumpkin_03s.jpg,0.0,clock_7_1.png,1.0,19,,,,,,,,,,,,,,,,,,0.0,0.0,0.0,0.0,1.0,,,,,,,,,,
0.0,1.0,0.9708,,,,,,bottle_opener_11s.jpg,0.0,clock_7_2.png,1.0,19,,,,,,,,,,,,,,,,,,0.0,1.0,1.0,1.0,1.0,,,,,,,,,,
0.0,1.0,0.66863,,,,,,tupperware_09s.jpg,0.0,clock_7_3.png,1.0,19,,,,,,,,,,,,,,,,,,0.0,2.0,2.0,2.0,1.0,,,,,,,,,,
0.0,1.0,0.64443,,,,,,mango_09s.jpg,0.0,clock_7_4.png,1.0,19,,,,,,,,,,,,,,,,,,0.0,3.0,3.0,3.0,1.0,,,,,,,,,,
0.0,1.0,0.63893,,,,,,marker_05s.jpg,0.0,clock_7_5.png,1.0,19,,,,,,,,,,,,,,,,,,0.0,4.0,4.0,4.0,1.0,,,,,,,,,,
0.0,1.0,0.61879,,,,,,bean_06s.jpg,0.0,clock_7_6.png,1.0,19,,,,,,,,,,,,,,,,,,0.0,5.0,5.0,5.0,1.0,,,,,,,,,,
0.0,1.0,0.735075,,,,,,pear_02s.jpg,0.0,clock_7_7.png,1.0,19,,,,,,,,,,,,,,,,,,0.0,6.0,6.0,6.0,1.0,,,,,,,,,,
0.0,1.0,1.10058,,,,,,clover_04s.jpg,0.0,clock_5_1.png,2.0,19,,,,,,,,,,,,,,,,,,0.0,7.0,7.0,7.0,1.0,,,,,,,,,,
0.0,1.0,0.61038,,,,,,perfume_06s.jpg,0.0,clock_5_2.png,2.0,19,,,,,,,,,,,,,,,,,,0.0,8.0,8.0,8.0,1.0,,,,,,,,,,
0.0,1.0,0.46214,,,,,,spacesuit_02s.jpg,0.0,clock_5_3.png,2.0,19,,,,,,,,,,,,,,,,,,0.0,9.0,9.0,9.0,1.0,,,,,,,,,,
0.0,1.0,0.601045,,,,,,recliner_02s.jpg,0.0,clock_5_4.png,2.0,19,,,,,,,,,,,,,,,,,,0.0,10.0,10.0,10.0,1.0,,,,,,,,,,
0.0,1.0,0.641195,,,,,,hyena_16s.jpg,0.0,clock_5_5.png,2.0,19,,,,,,,,,,,,,,,,,,0.0,11.0,11.0,11.0,1.0,,,,,,,,,,
0.0,1.0,2.027465,,,,,,bolo_tie_08s.jpg,0.0,clock_7_1.png,3.0,19,,,,,,,,,,,,,,,,,,0.0,12.0,12.0,12.0,1.0,,,,,,,,,,
0.0,1.0,0.67153,,,,,,plaster_cast_13s.jpg,0.0,clock_7_2.png,3.0,19,,,,,,,,,,,,,,,,,,0.0,13.0,13.0,13.0,1.0,,,,,,,,,,
0.0,1.0,1.03967,,,,,,badge_03s.jpg,0.0,clock_7_3.png,3.0,19,,,,,,,,,,,,,,,,,,0.0,14.0,14.0,14.0,1.0,,,,,,,,,,
0.0,1.0,0.524685,,,,,,swordfish_05s.jpg,0.0,clock_7_4.png,3.0,19,,,,,,,,,,,,,,,,,,0.0,15.0,15.0,15.0,1.0,,,,,,,,,,
0.0,1.0,1.14579,,,,,,perfume_06s.jpg,0.0,clock_7_5.png,3.0,19,,,,,,,,,,,,,,,,,,0.0,16.0,16.0,16.0,1.0,,,,,,,,,,
0.0,1.0,0.892615,,,,,,pear_02s.jpg,0.0,clock_7_6.png,3.0,19,,,,,,,,,,,,,,,,,,0.0,17.0,17.0,17.0,1.0,,,,,,,,,,
0.0,1.0,0.842365,,,,,,quill_09s.jpg,0.0,clock_7_7.png,3.0,19,,,,,,,,,,,,,,,,,,0.0,18.0,18.0,18.0,1.0,,,,,,,,,,
0.0,1.0,1.13019,,,,,,mop_08s.jpg,0.0,clock_6_1.png,4.0,19,,,,,,,,,,,,,,,,,,0.0,19.0,19.0,19.0,1.0,,,,,,,,,,
0.0,1.0,0.89333,,,,,,plaster_cast_13s.jpg,0.0,clock_6_2.png,4.0,19,,,,,,,,,,,,,,,,,,0.0,20.0,20.0,20.0,1.0,,,,,,,,,,
0.0,1.0,0.62172,,,,,,parachute_03s.jpg,0.0,clock_6_3.png,4.0,19,,,,,,,,,,,,,,,,,,0.0,21.0,21.0,21.0,1.0,,,,,,,,,,
0.0,1.0,0.65233,,,,,,inhaler_01b.jpg,0.0,clock_6_4.png,4.0,19,,,,,,,,,,,,,,,,,,0.0,22.0,22.0,22.0,1.0,,,,,,,,,,
0.0,1.0,0.65312,,,,,,diving_board_07s.jpg,0.0,clock_6_5.png,4.0,19,,,,,,,,,,,,,,,,,,0.0,23.0,23.0,23.0,1.0,,,,,,,,,,
0.0,1.0,0.75368,,,,,,lion_18s.jpg,0.0,clock_6_6.png,4.0,19,,,,,,,,,,,,,,,,,,0.0,24.0,24.0,24.0,1.0,,,,,,,,,,
0.0,1.0,0.94493,,,,,,onion_10s.jpg,0.0,clock_6_1.png,5.0,19,,,,,,,,,,,,,,,,,,0.0,25.0,25.0,25.0,1.0,,,,,,,,,,
0.0,1.0,1.009095,,,,,,throne_11s.jpg,0.0,clock_6_2.png,5.0,19,,,,,,,,,,,,,,,,,,0.0,26.0,26.0,26.0,1.0,,,,,,,,,,
0.0,1.0,0.55425,,,,,,quad_04s.jpg,0.0,clock_6_3.png,5.0,19,,,,,,,,,,,,,,,,,,0.0,27.0,27.0,27.0,1.0,,,,,,,,,,
0.0,1.0,0.541695,,,,,,roulette_wheel_04s.jpg,0.0,clock_6_4.png,5.0,19,,,,,,,,,,,,,,,,,,0.0,28.0,28.0,28.0,1.0,,,,,,,,,,
0.0,1.0,0.460965,,,,,,puppy_08s.jpg,0.0,clock_6_5.png,5.0,19,,,,,,,,,,,,,,,,,,0.0,29.0,29.0,29.0,1.0,,,,,,,,,,
0.0,1.0,0.59319,,,,,,thorn_13s.jpg,0.0,clock_6_6.png,5.0,19,,,,,,,,,,,,,,,,,,0.0,30.0,30.0,30.0,1.0,,,,,,,,,,
0.0,1.0,0.904435,,,,,,mirror_12s.jpg,0.0,clock_5_1.png,6.0,19,,,,,,,,,,,,,,,,,,0.0,31.0,31.0,31.0,1.0,,,,,,,,,,
0.0,1.0,0.594185,,,,,,police_car_01s.jpg,0.0,clock_5_2.png,6.0,19,,,,,,,,,,,,,,,,,,0.0,32.0,32.0,32.0,1.0,,,,,,,,,,
1.0,1.0,0.98995,,,,,,mirror_12s.jpg,1.0,clock_5_3.png,6.0,19,,,,,,,,,,,,,,,,,,0.0,33.0,33.0,33.0,1.0,,,,,,,,,,
0.0,1.0,0.75795,,,,,,rooster_03s.jpg,0.0,clock_5_4.png,6.0,19,,,,,,,,,,,,,,,,,,0.0,34.0,34.0,34.0,1.0,,,,,,,,,,
0.0,1.0,0.73595,,,,,,trampoline_13s.jpg,0.0,clock_5_5.png,6.0,19,,,,,,,,,,,,,,,,,,0.0,35.0,35.0,35.0,1.0,,,,,,,,,,
,,,,,,,,,0.0,,,19,0.0,1.0,1.933985,,,,,,badge_03s.jpg,hyena_16s.jpg,,,,,,,,,,,,,0.0,0.0,0.0,0.0,1.0,,,,,
,,,,,,,,,1.0,,,19,0.0,0.0,1.39245,,,,,,spacesuit_02s.jpg,bolo_tie_08s.jpg,,,,,,,,,,,,,0.0,1.0,1.0,1.0,1.0,,,,,
,,,,,,,,,0.0,,,19,1.0,0.0,1.37564,,,,,,throne_11s.jpg,diving_board_07s.jpg,,,,,,,,,,,,,0.0,2.0,2.0,2.0,1.0,,,,,
,,,,,,,,,0.0,,,19,0.0,1.0,1.0544,,,,,,mango_09s.jpg,pumpkin_03s.jpg,,,,,,,,,,,,,0.0,3.0,3.0,3.0,1.0,,,,,
,,,,,,,,,1.0,,,19,1.0,1.0,1.24586,,,,,,tupperware_09s.jpg,bean_06s.jpg,,,,,,,,,,,,,0.0,4.0,4.0,4.0,1.0,,,,,
,,,,,,,,,1.0,,,19,1.0,1.0,1.39166,,,,,,bottle_opener_11s.jpg,marker_05s.jpg,,,,,,,,,,,,,0.0,5.0,5.0,5.0,1.0,,,,,
,,,,,,,,,,,,19,,,,,,,,,,,,,,,,clock_present_3_5.xlsx,clock_compare_task_3_5.xlsx,,,,,,,,,,,0.0,2.0,2.0,2.0,1.0
0.0,1.0,1.165895,,,,,,ginger_09s.jpg,0.0,clock_6_1.png,1.0,19,,,,,,,,,,,,,,,,,,0.0,0.0,0.0,0.0,1.0,,,,,,,,,,
0.0,1.0,1.12293,,,,,,letter_opener_03s.jpg,0.0,clock_6_2.png,1.0,19,,,,,,,,,,,,,,,,,,0.0,1.0,1.0,1.0,1.0,,,,,,,,,,
0.0,1.0,0.758685,,,,,,loveseat_08s.jpg,0.0,clock_6_3.png,1.0,19,,,,,,,,,,,,,,,,,,0.0,2.0,2.0,2.0,1.0,,,,,,,,,,
1.0,1.0,1.033455,,,,,,letter_opener_03s.jpg,1.0,clock_6_4.png,1.0,19,,,,,,,,,,,,,,,,,,0.0,3.0,3.0,3.0,1.0,,,,,,,,,,
1.0,1.0,0.92122,,,,,,loveseat_08s.jpg,1.0,clock_6_5.png,1.0,19,,,,,,,,,,,,,,,,,,0.0,4.0,4.0,4.0,1.0,,,,,,,,,,
0.0,1.0,0.93869,,,,,,towel_rack_04s.jpg,0.0,clock_6_6.png,1.0,19,,,,,,,,,,,,,,,,,,0.0,5.0,5.0,5.0,1.0,,,,,,,,,,
0.0,1.0,1.524895,,,,,,rollerskate_03s.jpg,0.0,clock_5_1.png,2.0,19,,,,,,,,,,,,,,,,,,0.0,6.0,6.0,6.0,1.0,,,,,,,,,,
0.0,1.0,1.179445,,,,,,puddle_02s.jpg,0.0,clock_5_2.png,2.0,19,,,,,,,,,,,,,,,,,,0.0,7.0,7.0,7.0,1.0,,,,,,,,,,
1.0,1.0,1.04331,,,,,,rollerskate_03s.jpg,1.0,clock_5_3.png,2.0,19,,,,,,,,,,,,,,,,,,0.0,8.0,8.0,8.0,1.0,,,,,,,,,,
,0.0,,,,,,,dirt_bike_11s.jpg,0.0,clock_5_4.png,2.0,19,,,,,,,,,,,,,,,,,,0.0,9.0,9.0,9.0,1.0,,,,,,,,,,
0.0,1.0,1.35205,,,,,,prism_10s.jpg,0.0,clock_5_5.png,2.0,19,,,,,,,,,,,,,,,,,,0.0,10.0,10.0,10.0,1.0,,,,,,,,,,
0.0,1.0,0.97166,,,,,,kayak_08s.jpg,0.0,clock_7_1.png,3.0,19,,,,,,,,,,,,,,,,,,0.0,11.0,11.0,11.0,1.0,,,,,,,,,,
0.0,1.0,0.57243,,,,,,rock_08s.jpg,0.0,clock_7_2.png,3.0,19,,,,,,,,,,,,,,,,,,0.0,12.0,12.0,12.0,1.0,,,,,,,,,,
0.0,1.0,0.48785,,,,,,tile_08s.jpg,0.0,clock_7_3.png,3.0,19,,,,,,,,,,,,,,,,,,0.0,13.0,13.0,13.0,1.0,,,,,,,,,,
0.0,1.0,0.92735,,,,,,dirt_bike_11s.jpg,0.0,clock_7_4.png,3.0,19,,,,,,,,,,,,,,,,,,0.0,14.0,14.0,14.0,1.0,,,,,,,,,,
0.0,1.0,0.796535,,,,,,ginger_09s.jpg,0.0,clock_7_5.png,3.0,19,,,,,,,,,,,,,,,,,,0.0,15.0,15.0,15.0,1.0,,,,,,,,,,
1.0,1.0,1.01071,,,,,,tile_08s.jpg,1.0,clock_7_6.png,3.0,19,,,,,,,,,,,,,,,,,,0.0,16.0,16.0,16.0,1.0,,,,,,,,,,
0.0,1.0,0.784345,,,,,,camcorder_10s.jpg,0.0,clock_7_7.png,3.0,19,,,,,,,,,,,,,,,,,,0.0,17.0,17.0,17.0,1.0,,,,,,,,,,
0.0,1.0,0.85927,,,,,,jet_15s.jpg,0.0,clock_6_1.png,4.0,19,,,,,,,,,,,,,,,,,,0.0,18.0,18.0,18.0,1.0,,,,,,,,,,
1.0,1.0,0.88154,,,,,,jet_15s.jpg,1.0,clock_6_2.png,4.0,19,,,,,,,,,,,,,,,,,,0.0,19.0,19.0,19.0,1.0,,,,,,,,,,
0.0,1.0,0.66444,,,,,,kitten_07s.jpg,0.0,clock_6_3.png,4.0,19,,,,,,,,,,,,,,,,,,0.0,20.0,20.0,20.0,1.0,,,,,,,,,,
1.0,1.0,0.70779,,,,,,jet_15s.jpg,1.0,clock_6_4.png,4.0,19,,,,,,,,,,,,,,,,,,0.0,21.0,21.0,21.0,1.0,,,,,,,,,,
0.0,1.0,1.13203,,,,,,chime_12s.jpg,0.0,clock_6_5.png,4.0,19,,,,,,,,,,,,,,,,,,0.0,22.0,22.0,22.0,1.0,,,,,,,,,,
0.0,1.0,0.639185,,,,,,eggshell_14s.jpg,0.0,clock_6_6.png,4.0,19,,,,,,,,,,,,,,,,,,0.0,23.0,23.0,23.0,1.0,,,,,,,,,,
0.0,1.0,1.02581,,,,,,luggage_08s.jpg,0.0,clock_7_1.png,5.0,19,,,,,,,,,,,,,,,,,,0.0,24.0,24.0,24.0,1.0,,,,,,,,,,
0.0,1.0,0.809585,,,,,,mascara_03s.jpg,0.0,clock_7_2.png,5.0,19,,,,,,,,,,,,,,,,,,0.0,25.0,25.0,25.0,1.0,,,,,,,,,,
0.0,1.0,0.515835,,,,,,cotton_candy_01b.jpg,0.0,clock_7_3.png,5.0,19,,,,,,,,,,,,,,,,,,0.0,26.0,26.0,26.0,1.0,,,,,,,,,,
0.0,1.0,0.647885,,,,,,ruby_15s.jpg,0.0,clock_7_4.png,5.0,19,,,,,,,,,,,,,,,,,,0.0,27.0,27.0,27.0,1.0,,,,,,,,,,
0.0,1.0,0.6824,,,,,,razor_blade_01b.jpg,0.0,clock_7_5.png,5.0,19,,,,,,,,,,,,,,,,,,0.0,28.0,28.0,28.0,1.0,,,,,,,,,,
0.0,1.0,0.833285,,,,,,hydrant_10s.jpg,0.0,clock_7_6.png,5.0,19,,,,,,,,,,,,,,,,,,0.0,29.0,29.0,29.0,1.0,,,,,,,,,,
0.0,1.0,1.12756,,,,,,mushroom_10n.jpg,0.0,clock_7_7.png,5.0,19,,,,,,,,,,,,,,,,,,0.0,30.0,30.0,30.0,1.0,,,,,,,,,,
0.0,1.0,0.952905,,,,,,turtle_08s.jpg,0.0,clock_5_1.png,6.0,19,,,,,,,,,,,,,,,,,,0.0,31.0,31.0,31.0,1.0,,,,,,,,,,
0.0,1.0,0.72289,,,,,,sparkler_02s.jpg,0.0,clock_5_2.png,6.0,19,,,,,,,,,,,,,,,,,,0.0,32.0,32.0,32.0,1.0,,,,,,,,,,
0.0,1.0,0.71011,,,,,,tambourine_06s.jpg,0.0,clock_5_3.png,6.0,19,,,,,,,,,,,,,,,,,,0.0,33.0,33.0,33.0,1.0,,,,,,,,,,
0.0,1.0,0.495795,,,,,,lavender_10s.jpg,0.0,clock_5_4.png,6.0,19,,,,,,,,,,,,,,,,,,0.0,34.0,34.0,34.0,1.0,,,,,,,,,,
1.0,1.0,0.869175,,,,,,lavender_10s.jpg,1.0,clock_5_5.png,6.0,19,,,,,,,,,,,,,,,,,,0.0,35.0,35.0,35.0,1.0,,,,,,,,,,
,,,,,,,,,0.0,,,19,0.0,1.0,1.46841,,,,,,kitten_07s.jpg,camcorder_10s.jpg,,,,,,,,,,,,,0.0,0.0,0.0,0.0,1.0,,,,,
,,,,,,,,,0.0,,,19,1.0,0.0,1.44614,,,,,,mascara_03s.jpg,chime_12s.jpg,,,,,,,,,,,,,0.0,1.0,1.0,1.0,1.0,,,,,
,,,,,,,,,0.0,,,19,0.0,1.0,1.6509,,,,,,turtle_08s.jpg,razor_blade_01b.jpg,,,,,,,,,,,,,0.0,2.0,2.0,2.0,1.0,,,,,
,,,,,,,,,1.0,,,19,0.0,0.0,1.50603,,,,,,puddle_02s.jpg,prism_10s.jpg,,,,,,,,,,,,,0.0,3.0,3.0,3.0,1.0,,,,,
,,,,,,,,,0.0,,,19,1.0,0.0,1.516775,,,,,,ruby_15s.jpg,luggage_08s.jpg,,,,,,,,,,,,,0.0,4.0,4.0,4.0,1.0,,,,,
,,,,,,,,,1.0,,,19,1.0,1.0,1.873595,,,,,,cotton_candy_01b.jpg,hydrant_10s.jpg,,,,,,,,,,,,,0.0,5.0,5.0,5.0,1.0,,,,,
,,,,,,,,,,,,19,,,,,,,,,,,,,,,,clock_present_4_5.xlsx,clock_compare_task_4_5.xlsx,,,,,,,,,,,0.0,3.0,3.0,3.0,1.0
0.0,1.0,2.32799,,,,,,marshmallow_08s.jpg,0.0,clock_5_1.png,1.0,19,,,,,,,,,,,,,,,,,,0.0,0.0,0.0,0.0,1.0,,,,,,,,,,
0.0,1.0,0.683725,,,,,,coat_rack_01b.jpg,0.0,clock_5_2.png,1.0,19,,,,,,,,,,,,,,,,,,0.0,1.0,1.0,1.0,1.0,,,,,,,,,,
0.0,1.0,0.578235,,,,,,coral_08s.jpg,0.0,clock_5_3.png,1.0,19,,,,,,,,,,,,,,,,,,0.0,2.0,2.0,2.0,1.0,,,,,,,,,,
0.0,1.0,0.689305,,,,,,fox_13s.jpg,0.0,clock_5_4.png,1.0,19,,,,,,,,,,,,,,,,,,0.0,3.0,3.0,3.0,1.0,,,,,,,,,,
0.0,1.0,0.589665,,,,,,stethoscope_01b.jpg,0.0,clock_5_5.png,1.0,19,,,,,,,,,,,,,,,,,,0.0,4.0,4.0,4.0,1.0,,,,,,,,,,
0.0,1.0,0.953995,,,,,,moth_06n.jpg,0.0,clock_6_1.png,2.0,19,,,,,,,,,,,,,,,,,,0.0,5.0,5.0,5.0,1.0,,,,,,,,,,
0.0,1.0,0.899015,,,,,,licorice_06s.jpg,0.0,clock_6_2.png,2.0,19,,,,,,,,,,,,,,,,,,0.0,6.0,6.0,6.0,1.0,,,,,,,,,,
0.0,1.0,0.690825,,,,,,sleeping_bag_12s.jpg,0.0,clock_6_3.png,2.0,19,,,,,,,,,,,,,,,,,,0.0,7.0,7.0,7.0,1.0,,,,,,,,,,
0.0,1.0,0.55367,,,,,,treadmill_06s.jpg,0.0,clock_6_4.png,2.0,19,,,,,,,,,,,,,,,,,,0.0,8.0,8.0,8.0,1.0,,,,,,,,,,
0.0,1.0,0.38876,,,,,,bathtub_23s.jpg,0.0,clock_6_5.png,2.0,19,,,,,,,,,,,,,,,,,,0.0,9.0,9.0,9.0,1.0,,,,,,,,,,
0.0,1.0,0.94237,,,,,,film_03s.jpg,0.0,clock_6_6.png,2.0,19,,,,,,,,,,,,,,,,,,0.0,10.0,10.0,10.0,1.0,,,,,,,,,,
0.0,1.0,0.86141,,,,,,trident_07s.jpg,0.0,clock_7_1.png,3.0,19,,,,,,,,,,,,,,,,,,0.0,11.0,11.0,11.0,1.0,,,,,,,,,,
0.0,1.0,0.761065,,,,,,coffee_filter_10s.jpg,0.0,clock_7_2.png,3.0,19,,,,,,,,,,,,,,,,,,0.0,12.0,12.0,12.0,1.0,,,,,,,,,,
0.0,1.0,0.73617,,,,,,mud_13s.jpg,0.0,clock_7_3.png,3.0,19,,,,,,,,,,,,,,,,,,0.0,13.0,13.0,13.0,1.0,,,,,,,,,,
0.0,1.0,0.66447,,,,,,fire_alarm_05s.jpg,0.0,clock_7_4.png,3.0,19,,,,,,,,,,,,,,,,,,0.0,14.0,14.0,14.0,1.0,,,,,,,,,,
1.0,1.0,0.827855,,,,,,mud_13s.jpg,1.0,clock_7_5.png,3.0,19,,,,,,,,,,,,,,,,,,0.0,15.0,15.0,15.0,1.0,,,,,,,,,,
0.0,1.0,1.02587,,,,,,timer_03s.jpg,0.0,clock_7_6.png,3.0,19,,,,,,,,,,,,,,,,,,0.0,16.0,16.0,16.0,1.0,,,,,,,,,,
0.0,1.0,0.703295,,,,,,pea_11s.jpg,0.0,clock_7_7.png,3.0,19,,,,,,,,,,,,,,,,,,0.0,17.0,17.0,17.0,1.0,,,,,,,,,,
0.0,1.0,0.94128,,,,,,flask_04s.jpg,0.0,clock_5_1.png,4.0,19,,,,,,,,,,,,,,,,,,0.0,18.0,18.0,18.0,1.0,,,,,,,,,,
0.0,1.0,0.76193,,,,,,iron_13s.jpg,0.0,clock_5_2.png,4.0,19,,,,,,,,,,,,,,,,,,0.0,19.0,19.0,19.0,1.0,,,,,,,,,,
0.0,1.0,1.03073,,,,,,trident_07s.jpg,0.0,clock_5_3.png,4.0,19,,,,,,,,,,,,,,,,,,0.0,20.0,20.0,20.0,1.0,,,,,,,,,,
0.0,1.0,1.15356,,,,,,memory_stick_11s.jpg,0.0,clock_5_4.png,4.0,19,,,,,,,,,,,,,,,,,,0.0,21.0,21.0,21.0,1.0,,,,,,,,,,
0.0,1.0,1.07397,,,,,,oil_02s.jpg,0.0,clock_5_5.png,4.0,19,,,,,,,,,,,,,,,,,,0.0,22.0,22.0,22.0,1.0,,,,,,,,,,
0.0,1.0,1.2209,,,,,,coconut_08s.jpg,0.0,clock_7_1.png,5.0,19,,,,,,,,,,,,,,,,,,0.0,23.0,23.0,23.0,1.0,,,,,,,,,,
1.0,1.0,0.8976,,,,,,coconut_08s.jpg,1.0,clock_7_2.png,5.0,19,,,,,,,,,,,,,,,,,,0.0,24.0,24.0,24.0,1.0,,,,,,,,,,
0.0,1.0,0.54597,,,,,,jelly_bean_06s.jpg,0.0,clock_7_3.png,5.0,19,,,,,,,,,,,,,,,,,,0.0,25.0,25.0,25.0,1.0,,,,,,,,,,
0.0,1.0,0.876955,,,,,,ice-cream_cone_06s.jpg,0.0,clock_7_4.png,5.0,19,,,,,,,,,,,,,,,,,,0.0,26.0,26.0,26.0,1.0,,,,,,,,,,
1.0,0.0,0.747565,,,,,,mud_13s.jpg,0.0,clock_7_5.png,5.0,19,,,,,,,,,,,,,,,,,,0.0,27.0,27.0,27.0,1.0,,,,,,,,,,
0.0,1.0,1.797725,,,,,,feather02.jpg,0.0,clock_7_6.png,5.0,19,,,,,,,,,,,,,,,,,,0.0,28.0,28.0,28.0,1.0,,,,,,,,,,
0.0,1.0,1.09584,,,,,,ukulele_02s.jpg,0.0,clock_7_7.png,5.0,19,,,,,,,,,,,,,,,,,,0.0,29.0,29.0,29.0,1.0,,,,,,,,,,
0.0,1.0,0.69041,,,,,,snowman_02s.jpg,0.0,clock_6_1.png,6.0,19,,,,,,,,,,,,,,,,,,0.0,30.0,30.0,30.0,1.0,,,,,,,,,,
0.0,1.0,0.5899,,,,,,lifesaver_10s.jpg,0.0,clock_6_2.png,6.0,19,,,,,,,,,,,,,,,,,,0.0,31.0,31.0,31.0,1.0,,,,,,,,,,
1.0,1.0,1.043235,,,,,,lifesaver_10s.jpg,1.0,clock_6_3.png,6.0,19,,,,,,,,,,,,,,,,,,0.0,32.0,32.0,32.0,1.0,,,,,,,,,,
0.0,1.0,0.61077,,,,,,scooter.jpg,0.0,clock_6_4.png,6.0,19,,,,,,,,,,,,,,,,,,0.0,33.0,33.0,33.0,1.0,,,,,,,,,,
0.0,1.0,0.65102,,,,,,compass_10n.jpg,0.0,clock_6_5.png,6.0,19,,,,,,,,,,,,,,,,,,0.0,34.0,34.0,34.0,1.0,,,,,,,,,,
0.0,1.0,0.60973,,,,,,denture_03s.jpg,0.0,clock_6_6.png,6.0,19,,,,,,,,,,,,,,,,,,0.0,35.0,35.0,35.0,1.0,,,,,,,,,,
,,,,,,,,,0.0,,,19,0.0,1.0,2.19401,,,,,,moth_06n.jpg,coral_08s.jpg,,,,,,,,,,,,,0.0,0.0,0.0,0.0,1.0,,,,,
,,,,,,,,,1.0,,,19,1.0,1.0,1.388545,,,,,,bathtub_23s.jpg,coffee_filter_10s.jpg,,,,,,,,,,,,,0.0,1.0,1.0,1.0,1.0,,,,,
,,,,,,,,,1.0,,,19,0.0,0.0,2.181255,,,,,,timer_03s.jpg,iron_13s.jpg,,,,,,,,,,,,,0.0,2.0,2.0,2.0,1.0,,,,,
,,,,,,,,,1.0,,,19,0.0,0.0,1.195385,,,,,,fire_alarm_05s.jpg,pea_11s.jpg,,,,,,,,,,,,,0.0,3.0,3.0,3.0,1.0,,,,,
,,,,,,,,,1.0,,,19,1.0,1.0,1.43224,,,,,,flask_04s.jpg,memory_stick_11s.jpg,,,,,,,,,,,,,0.0,4.0,4.0,4.0,1.0,,,,,
,,,,,,,,,0.0,,,19,0.0,1.0,1.37889,,,,,,ukulele_02s.jpg,ice-cream_cone_06s.jpg,,,,,,,,,,,,,0.0,5.0,5.0,5.0,1.0,,,,,
,,,,,,,,,,,,19,,,,,,,,,,,,,,,,clock_present_5_5.xlsx,clock_compare_task_5_5.xlsx,,,,,,,,,,,0.0,4.0,4.0,4.0,1.0
0.0,1.0,1.066005,,,,,,sledgehammer_03s.jpg,0.0,clock_6_1.png,1.0,19,,,,,,,,,,,,,,,,,,0.0,0.0,0.0,0.0,1.0,,,,,,,,,,
0.0,1.0,1.161635,,,,,,basket_05s.jpg,0.0,clock_6_2.png,1.0,19,,,,,,,,,,,,,,,,,,0.0,1.0,1.0,1.0,1.0,,,,,,,,,,
0.0,1.0,0.910625,,,,,,go-kart_10s.jpg,0.0,clock_6_3.png,1.0,19,,,,,,,,,,,,,,,,,,0.0,2.0,2.0,2.0,1.0,,,,,,,,,,
0.0,1.0,0.48494,,,,,,sunglasses_11s.jpg,0.0,clock_6_4.png,1.0,19,,,,,,,,,,,,,,,,,,0.0,3.0,3.0,3.0,1.0,,,,,,,,,,
0.0,1.0,0.77838,,,,,,ostrich_06s.jpg,0.0,clock_6_5.png,1.0,19,,,,,,,,,,,,,,,,,,0.0,4.0,4.0,4.0,1.0,,,,,,,,,,
0.0,1.0,1.09626,,,,,,stingray_02s.jpg,0.0,clock_6_6.png,1.0,19,,,,,,,,,,,,,,,,,,0.0,5.0,5.0,5.0,1.0,,,,,,,,,,
0.0,1.0,1.03168,,,,,,peanut_butter_08s.jpg,0.0,clock_7_1.png,2.0,19,,,,,,,,,,,,,,,,,,0.0,6.0,6.0,6.0,1.0,,,,,,,,,,
1.0,1.0,0.823635,,,,,,peanut_butter_08s.jpg,1.0,clock_7_2.png,2.0,19,,,,,,,,,,,,,,,,,,0.0,7.0,7.0,7.0,1.0,,,,,,,,,,
0.0,1.0,0.983825,,,,,,puffin_19s.jpg,0.0,clock_7_3.png,2.0,19,,,,,,,,,,,,,,,,,,0.0,8.0,8.0,8.0,1.0,,,,,,,,,,
1.0,1.0,0.66676,,,,,,peanut_butter_08s.jpg,1.0,clock_7_4.png,2.0,19,,,,,,,,,,,,,,,,,,0.0,9.0,9.0,9.0,1.0,,,,,,,,,,
1.0,1.0,1.499215,,,,,,puffin_19s.jpg,1.0,clock_7_5.png,2.0,19,,,,,,,,,,,,,,,,,,0.0,10.0,10.0,10.0,1.0,,,,,,,,,,
0.0,1.0,0.699145,,,,,,stamp2_08s.jpg,0.0,clock_7_6.png,2.0,19,,,,,,,,,,,,,,,,,,0.0,11.0,11.0,11.0,1.0,,,,,,,,,,
0.0,1.0,0.575185,,,,,,comic_book_02s.jpg,0.0,clock_7_7.png,2.0,19,,,,,,,,,,,,,,,,,,0.0,12.0,12.0,12.0,1.0,,,,,,,,,,
0.0,1.0,0.919685,,,,,,ink_08s.jpg,0.0,clock_7_1.png,3.0,19,,,,,,,,,,,,,,,,,,0.0,13.0,13.0,13.0,1.0,,,,,,,,,,
0.0,1.0,0.825605,,,,,,doily_13s.jpg,0.0,clock_7_2.png,3.0,19,,,,,,,,,,,,,,,,,,0.0,14.0,14.0,14.0,1.0,,,,,,,,,,
0.0,1.0,0.72569,,,,,,light_switch_02s.jpg,0.0,clock_7_3.png,3.0,19,,,,,,,,,,,,,,,,,,0.0,15.0,15.0,15.0,1.0,,,,,,,,,,
0.0,1.0,0.62136,,,,,,pepper2_21s.jpg,0.0,clock_7_4.png,3.0,19,,,,,,,,,,,,,,,,,,0.0,16.0,16.0,16.0,1.0,,,,,,,,,,
0.0,1.0,0.63198,,,,,,crab_16s.jpg,0.0,clock_7_5.png,3.0,19,,,,,,,,,,,,,,,,,,0.0,17.0,17.0,17.0,1.0,,,,,,,,,,
0.0,1.0,0.90611,,,,,,beard_16s.jpg,0.0,clock_7_6.png,3.0,19,,,,,,,,,,,,,,,,,,0.0,18.0,18.0,18.0,1.0,,,,,,,,,,
0.0,1.0,0.715215,,,,,,mask_09s.jpg,0.0,clock_7_7.png,3.0,19,,,,,,,,,,,,,,,,,,0.0,19.0,19.0,19.0,1.0,,,,,,,,,,
0.0,1.0,0.639435,,,,,,dynamite_01b.jpg,0.0,clock_6_1.png,4.0,19,,,,,,,,,,,,,,,,,,0.0,20.0,20.0,20.0,1.0,,,,,,,,,,
0.0,1.0,0.73772,,,,,,abacus_12s.jpg,0.0,clock_6_2.png,4.0,19,,,,,,,,,,,,,,,,,,0.0,21.0,21.0,21.0,1.0,,,,,,,,,,
0.0,1.0,0.544885,,,,,,icicle_04s.jpg,0.0,clock_6_3.png,4.0,19,,,,,,,,,,,,,,,,,,0.0,22.0,22.0,22.0,1.0,,,,,,,,,,
0.0,1.0,0.662745,,,,,,comic_book_02s.jpg,0.0,clock_6_4.png,4.0,19,,,,,,,,,,,,,,,,,,0.0,23.0,23.0,23.0,1.0,,,,,,,,,,
1.0,1.0,1.011525,,,,,,abacus_12s.jpg,1.0,clock_6_5.png,4.0,19,,,,,,,,,,,,,,,,,,0.0,24.0,24.0,24.0,1.0,,,,,,,,,,
0.0,1.0,1.24193,,,,,,duck_01b.jpg,0.0,clock_6_6.png,4.0,19,,,,,,,,,,,,,,,,,,0.0,25.0,25.0,25.0,1.0,,,,,,,,,,
0.0,1.0,0.819665,,,,,,jetski_10s.jpg,0.0,clock_5_1.png,5.0,19,,,,,,,,,,,,,,,,,,0.0,26.0,26.0,26.0,1.0,,,,,,,,,,
1.0,1.0,0.73354,,,,,,jetski_10s.jpg,1.0,clock_5_2.png,5.0,19,,,,,,,,,,,,,,,,,,0.0,27.0,27.0,27.0,1.0,,,,,,,,,,
0.0,1.0,0.976665,,,,,,latte_06s.jpg,0.0,clock_5_3.png,5.0,19,,,,,,,,,,,,,,,,,,0.0,28.0,28.0,28.0,1.0,,,,,,,,,,
0.0,1.0,0.963255,,,,,,basket_05s.jpg,0.0,clock_5_4.png,5.0,19,,,,,,,,,,,,,,,,,,0.0,29.0,29.0,29.0,1.0,,,,,,,,,,
0.0,1.0,0.733615,,,,,,pump_11s.jpg,0.0,clock_5_5.png,5.0,19,,,,,,,,,,,,,,,,,,0.0,30.0,30.0,30.0,1.0,,,,,,,,,,
0.0,1.0,1.13585,,,,,,bacon_05s.jpg,0.0,clock_5_1.png,6.0,19,,,,,,,,,,,,,,,,,,0.0,31.0,31.0,31.0,1.0,,,,,,,,,,
0.0,1.0,0.798165,,,,,,lectern_08s.jpg,0.0,clock_5_2.png,6.0,19,,,,,,,,,,,,,,,,,,0.0,32.0,32.0,32.0,1.0,,,,,,,,,,
0.0,1.0,0.767925,,,,,,amber_04s.jpg,0.0,clock_5_3.png,6.0,19,,,,,,,,,,,,,,,,,,0.0,33.0,33.0,33.0,1.0,,,,,,,,,,
0.0,1.0,0.565,,,,,,orangutan_03s.jpg,0.0,clock_5_4.png,6.0,19,,,,,,,,,,,,,,,,,,0.0,34.0,34.0,34.0,1.0,,,,,,,,,,
0.0,1.0,0.71162,,,,,,pan_02s.jpg,0.0,clock_5_5.png,6.0,19,,,,,,,,,,,,,,,,,,0.0,35.0,35.0,35.0,1.0,,,,,,,,,,
,,,,,,,,,1.0,,,19,1.0,1.0,6.14945,,,,,,pump_11s.jpg,amber_04s.jpg,,,,,,,,,,,,,0.0,0.0,0.0,0.0,1.0,,,,,
,,,,,,,,,0.0,,,19,0.0,1.0,2.517995,,,,,,doily_13s.jpg,stamp2_08s.jpg,,,,,,,,,,,,,0.0,1.0,1.0,1.0,1.0,,,,,
,,,,,,,,,1.0,,,19,1.0,1.0,2.558795,,,,,,crab_16s.jpg,dynamite_01b.jpg,,,,,,,,,,,,,0.0,2.0,2.0,2.0,1.0,,,,,
,,,,,,,,,0.0,,,19,0.0,1.0,1.717285,,,,,,sunglasses_11s.jpg,sledgehammer_03s.jpg,,,,,,,,,,,,,0.0,3.0,3.0,3.0,1.0,,,,,
,,,,,,,,,0.0,,,19,0.0,1.0,1.48151,,,,,,stingray_02s.jpg,go-kart_10s.jpg,,,,,,,,,,,,,0.0,4.0,4.0,4.0,1.0,,,,,
,,,,,,,,,0.0,,,19,0.0,1.0,1.45495,,,,,,pepper2_21s.jpg,ink_08s.jpg,,,,,,,,,,,,,0.0,5.0,5.0,5.0,1.0,,,,,
