key_resp.keys,key_resp.corr,key_resp.rt,noclock_loop.thisRepN,noclock_loop.thisTrialN,noclock_loop.thisN,noclock_loop.thisIndex,noclock_loop.ran,pictures,answer,clock,segment,participant,key_resp_2.keys,key_resp_2.corr,key_resp_2.rt,noclock_loop2.thisRepN,noclock_loop2.thisTrialN,noclock_loop2.thisN,noclock_loop2.thisIndex,noclock_loop2.ran,item_a,item_b,noclock_condition.thisRepN,noclock_condition.thisTrialN,noclock_condition.thisN,noclock_condition.thisIndex,noclock_condition.ran,present,compare,present_segment.thisRepN,present_segment.thisTrialN,present_segment.thisN,present_segment.thisIndex,present_segment.ran,compare_segment.thisRepN,compare_segment.thisTrialN,compare_segment.thisN,compare_segment.thisIndex,compare_segment.ran,clock_conditions.thisRepN,clock_conditions.thisTrialN,clock_conditions.thisN,clock_conditions.thisIndex,clock_conditions.ran
0.0,1.0,1.53575,0.0,0.0,0.0,0.0,1.0,sunflower_17s.jpg,0.0,clockno_up.jpg,1.0,27,,,,,,,,,,,,,,,,,,,,,,,,,,,,,,,,
0.0,1.0,0.37621,0.0,1.0,1.0,1.0,1.0,briefcase_03s.jpg,0.0,clockno_default.jpg,1.0,27,,,,,,,,,,,,,,,,,,,,,,,,,,,,,,,,
0.0,1.0,1.461775,0.0,2.0,2.0,2.0,1.0,crystal_ball_12s.jpg,0.0,clockno_default.jpg,1.0,27,,,,,,,,,,,,,,,,,,,,,,,,,,,,,,,,
1.0,1.0,0.902005,0.0,3.0,3.0,3.0,1.0,briefcase_03s.jpg,1.0,clockno_default.jpg,1.0,27,,,,,,,,,,,,,,,,,,,,,,,,,,,,,,,,
0.0,1.0,0.793185,0.0,4.0,4.0,4.0,1.0,glue_01s.jpg,0.0,clockno_default.jpg,1.0,27,,,,,,,,,,,,,,,,,,,,,,,,,,,,,,,,
0.0,1.0,0.70236,0.0,5.0,5.0,5.0,1.0,ring_03s.jpg,0.0,clockno_default.jpg,1.0,27,,,,,,,,,,,,,,,,,,,,,,,,,,,,,,,,
0.0,1.0,1.2044,0.0,6.0,6.0,6.0,1.0,machete_06s.jpg,0.0,clockno_up.jpg,2.0,27,,,,,,,,,,,,,,,,,,,,,,,,,,,,,,,,
0.0,0.0,0.617675,0.0,7.0,7.0,7.0,1.0,machete_06s.jpg,1.0,clockno_default.jpg,2.0,27,,,,,,,,,,,,,,,,,,,,,,,,,,,,,,,,
0.0,1.0,0.52818,0.0,8.0,8.0,8.0,1.0,ring_03s.jpg,0.0,clockno_default.jpg,2.0,27,,,,,,,,,,,,,,,,,,,,,,,,,,,,,,,,
0.0,1.0,0.977005,0.0,9.0,9.0,9.0,1.0,pear_02s.jpg,0.0,clockno_default.jpg,2.0,27,,,,,,,,,,,,,,,,,,,,,,,,,,,,,,,,
1.0,1.0,2.015395,0.0,10.0,10.0,10.0,1.0,ring_03s.jpg,1.0,clockno_default.jpg,2.0,27,,,,,,,,,,,,,,,,,,,,,,,,,,,,,,,,
0.0,1.0,1.477115,0.0,11.0,11.0,11.0,1.0,pepper_mill_03s.jpg,0.0,clockno_default.jpg,2.0,27,,,,,,,,,,,,,,,,,,,,,,,,,,,,,,,,
0.0,1.0,1.844395,0.0,12.0,12.0,12.0,1.0,raft_09s.jpg,0.0,clockno_default.jpg,2.0,27,,,,,,,,,,,,,,,,,,,,,,,,,,,,,,,,
0.0,1.0,1.79221,0.0,13.0,13.0,13.0,1.0,flask_04s.jpg,0.0,clockno_up.jpg,3.0,27,,,,,,,,,,,,,,,,,,,,,,,,,,,,,,,,
1.0,1.0,1.461345,0.0,14.0,14.0,14.0,1.0,flask_04s.jpg,1.0,clockno_default.jpg,3.0,27,,,,,,,,,,,,,,,,,,,,,,,,,,,,,,,,
0.0,1.0,1.47981,0.0,15.0,15.0,15.0,1.0,ring_03s.jpg,0.0,clockno_default.jpg,3.0,27,,,,,,,,,,,,,,,,,,,,,,,,,,,,,,,,
1.0,1.0,2.069485,0.0,16.0,16.0,16.0,1.0,flask_04s.jpg,1.0,clockno_default.jpg,3.0,27,,,,,,,,,,,,,,,,,,,,,,,,,,,,,,,,
0.0,1.0,1.527925,0.0,17.0,17.0,17.0,1.0,rake_06s.jpg,0.0,clockno_default.jpg,3.0,27,,,,,,,,,,,,,,,,,,,,,,,,,,,,,,,,
0.0,1.0,1.359755,0.0,18.0,18.0,18.0,1.0,umbrella_15s.jpg,0.0,clockno_up.jpg,4.0,27,,,,,,,,,,,,,,,,,,,,,,,,,,,,,,,,
0.0,1.0,1.18766,0.0,19.0,19.0,19.0,1.0,fountain_pen_06s.jpg,0.0,clockno_default.jpg,4.0,27,,,,,,,,,,,,,,,,,,,,,,,,,,,,,,,,
0.0,1.0,1.19872,0.0,20.0,20.0,20.0,1.0,gargoyle_08s.jpg,0.0,clockno_default.jpg,4.0,27,,,,,,,,,,,,,,,,,,,,,,,,,,,,,,,,
0.0,1.0,1.629305,0.0,21.0,21.0,21.0,1.0,toothpaste_12s.jpg,0.0,clockno_default.jpg,4.0,27,,,,,,,,,,,,,,,,,,,,,,,,,,,,,,,,
0.0,1.0,1.400855,0.0,22.0,22.0,22.0,1.0,peach_04s.jpg,0.0,clockno_default.jpg,4.0,27,,,,,,,,,,,,,,,,,,,,,,,,,,,,,,,,
0.0,1.0,1.47774,0.0,23.0,23.0,23.0,1.0,racehorse_03s.jpg,0.0,clockno_default.jpg,4.0,27,,,,,,,,,,,,,,,,,,,,,,,,,,,,,,,,
0.0,1.0,1.23547,0.0,24.0,24.0,24.0,1.0,fishhook_06s.jpg,0.0,clockno_default.jpg,4.0,27,,,,,,,,,,,,,,,,,,,,,,,,,,,,,,,,
0.0,1.0,2.03115,0.0,25.0,25.0,25.0,1.0,loom_05s.jpg,0.0,clockno_up.jpg,5.0,27,,,,,,,,,,,,,,,,,,,,,,,,,,,,,,,,
0.0,1.0,1.95861,0.0,26.0,26.0,26.0,1.0,popsicle_02s.jpg,0.0,clockno_default.jpg,5.0,27,,,,,,,,,,,,,,,,,,,,,,,,,,,,,,,,
0.0,1.0,0.595205,0.0,27.0,27.0,27.0,1.0,toad_09s.jpg,0.0,clockno_default.jpg,5.0,27,,,,,,,,,,,,,,,,,,,,,,,,,,,,,,,,
0.0,1.0,0.7437,0.0,28.0,28.0,28.0,1.0,razor_blade_01b.jpg,0.0,clockno_default.jpg,5.0,27,,,,,,,,,,,,,,,,,,,,,,,,,,,,,,,,
0.0,1.0,0.64566,0.0,29.0,29.0,29.0,1.0,paper_bag_12s.jpg,0.0,clockno_default.jpg,5.0,27,,,,,,,,,,,,,,,,,,,,,,,,,,,,,,,,
0.0,1.0,1.234775,0.0,30.0,30.0,30.0,1.0,machete_06s.jpg,0.0,clockno_default.jpg,5.0,27,,,,,,,,,,,,,,,,,,,,,,,,,,,,,,,,
0.0,1.0,0.934685,0.0,31.0,31.0,31.0,1.0,punch2_09s.jpg,0.0,clockno_up.jpg,6.0,27,,,,,,,,,,,,,,,,,,,,,,,,,,,,,,,,
1.0,1.0,0.677565,0.0,32.0,32.0,32.0,1.0,punch2_09s.jpg,1.0,clockno_default.jpg,6.0,27,,,,,,,,,,,,,,,,,,,,,,,,,,,,,,,,
1.0,1.0,0.641155,0.0,33.0,33.0,33.0,1.0,punch2_09s.jpg,1.0,clockno_default.jpg,6.0,27,,,,,,,,,,,,,,,,,,,,,,,,,,,,,,,,
0.0,1.0,0.74289,0.0,34.0,34.0,34.0,1.0,fur_coat_11s.jpg,0.0,clockno_default.jpg,6.0,27,,,,,,,,,,,,,,,,,,,,,,,,,,,,,,,,
0.0,1.0,0.89681,0.0,35.0,35.0,35.0,1.0,quilt_03s.jpg,0.0,clockno_default.jpg,6.0,27,,,,,,,,,,,,,,,,,,,,,,,,,,,,,,,,
,,,,,,,,,0.0,,,27,1.0,0.0,2.342455,0.0,0.0,0.0,0.0,1.0,gargoyle_08s.jpg,rake_06s.jpg,,,,,,,,,,,,,,,,,,,,,,
,,,,,,,,,1.0,,,27,0.0,0.0,1.903025,0.0,1.0,1.0,1.0,1.0,fishhook_06s.jpg,toad_09s.jpg,,,,,,,,,,,,,,,,,,,,,,
,,,,,,,,,1.0,,,27,1.0,1.0,1.561735,0.0,2.0,2.0,2.0,1.0,peach_04s.jpg,loom_05s.jpg,,,,,,,,,,,,,,,,,,,,,,
,,,,,,,,,1.0,,,27,0.0,0.0,1.744225,0.0,3.0,3.0,3.0,1.0,pear_02s.jpg,raft_09s.jpg,,,,,,,,,,,,,,,,,,,,,,
,,,,,,,,,1.0,,,27,1.0,1.0,2.528495,0.0,4.0,4.0,4.0,1.0,umbrella_15s.jpg,toothpaste_12s.jpg,,,,,,,,,,,,,,,,,,,,,,
,,,,,,,,,0.0,,,27,1.0,0.0,1.39511,0.0,5.0,5.0,5.0,1.0,paper_bag_12s.jpg,popsicle_02s.jpg,,,,,,,,,,,,,,,,,,,,,,
,,,,,,,,,,,,27,,,,,,,,,,,0.0,0.0,0.0,0.0,1.0,clockno_present_1_1.xlsx,clockno_compare_task_1_1.xlsx,,,,,,,,,,,,,,,
0.0,1.0,1.34208,0.0,0.0,0.0,0.0,1.0,prism_10s.jpg,0.0,clockno_up.jpg,1.0,27,,,,,,,,,,,,,,,,,,,,,,,,,,,,,,,,
0.0,1.0,0.694865,0.0,1.0,1.0,1.0,1.0,teabag_12s.jpg,0.0,clockno_default.jpg,1.0,27,,,,,,,,,,,,,,,,,,,,,,,,,,,,,,,,
0.0,1.0,0.64543,0.0,2.0,2.0,2.0,1.0,chalice_10s.jpg,0.0,clockno_default.jpg,1.0,27,,,,,,,,,,,,,,,,,,,,,,,,,,,,,,,,
0.0,1.0,0.59427,0.0,3.0,3.0,3.0,1.0,tape_06s.jpg,0.0,clockno_default.jpg,1.0,27,,,,,,,,,,,,,,,,,,,,,,,,,,,,,,,,
0.0,1.0,0.59142,0.0,4.0,4.0,4.0,1.0,buoy_04s.jpg,0.0,clockno_default.jpg,1.0,27,,,,,,,,,,,,,,,,,,,,,,,,,,,,,,,,
0.0,1.0,1.358305,0.0,5.0,5.0,5.0,1.0,omelet_07s.jpg,0.0,clockno_default.jpg,1.0,27,,,,,,,,,,,,,,,,,,,,,,,,,,,,,,,,
1.0,1.0,1.127465,0.0,6.0,6.0,6.0,1.0,buoy_04s.jpg,1.0,clockno_default.jpg,1.0,27,,,,,,,,,,,,,,,,,,,,,,,,,,,,,,,,
0.0,1.0,0.64588,0.0,7.0,7.0,7.0,1.0,surfboard_11s.jpg,0.0,clockno_up.jpg,2.0,27,,,,,,,,,,,,,,,,,,,,,,,,,,,,,,,,
0.0,1.0,0.763405,0.0,8.0,8.0,8.0,1.0,possum_09s.jpg,0.0,clockno_default.jpg,2.0,27,,,,,,,,,,,,,,,,,,,,,,,,,,,,,,,,
0.0,1.0,0.80968,0.0,9.0,9.0,9.0,1.0,razor_12s.jpg,0.0,clockno_default.jpg,2.0,27,,,,,,,,,,,,,,,,,,,,,,,,,,,,,,,,
0.0,1.0,0.692595,0.0,10.0,10.0,10.0,1.0,hyena_16s.jpg,0.0,clockno_default.jpg,2.0,27,,,,,,,,,,,,,,,,,,,,,,,,,,,,,,,,
0.0,1.0,0.563415,0.0,11.0,11.0,11.0,1.0,measuring_cup_02s.jpg,0.0,clockno_default.jpg,2.0,27,,,,,,,,,,,,,,,,,,,,,,,,,,,,,,,,
0.0,1.0,0.609585,0.0,12.0,12.0,12.0,1.0,swordfish_05s.jpg,0.0,clockno_up.jpg,3.0,27,,,,,,,,,,,,,,,,,,,,,,,,,,,,,,,,
0.0,1.0,0.73305,0.0,13.0,13.0,13.0,1.0,koala_13s.jpg,0.0,clockno_default.jpg,3.0,27,,,,,,,,,,,,,,,,,,,,,,,,,,,,,,,,
0.0,1.0,0.569205,0.0,14.0,14.0,14.0,1.0,bolo_tie_08s.jpg,0.0,clockno_default.jpg,3.0,27,,,,,,,,,,,,,,,,,,,,,,,,,,,,,,,,
0.0,1.0,1.2695,0.0,15.0,15.0,15.0,1.0,doily_13s.jpg,0.0,clockno_default.jpg,3.0,27,,,,,,,,,,,,,,,,,,,,,,,,,,,,,,,,
0.0,1.0,1.71002,0.0,16.0,16.0,16.0,1.0,mannequin_05s.jpg,0.0,clockno_default.jpg,3.0,27,,,,,,,,,,,,,,,,,,,,,,,,,,,,,,,,
0.0,1.0,0.695655,0.0,17.0,17.0,17.0,1.0,knitting_needle_04s.jpg,0.0,clockno_default.jpg,3.0,27,,,,,,,,,,,,,,,,,,,,,,,,,,,,,,,,
0.0,1.0,1.053545,0.0,18.0,18.0,18.0,1.0,pencil_sharpener_09n.jpg,0.0,clockno_up.jpg,4.0,27,,,,,,,,,,,,,,,,,,,,,,,,,,,,,,,,
1.0,1.0,0.937615,0.0,19.0,19.0,19.0,1.0,pencil_sharpener_09n.jpg,1.0,clockno_default.jpg,4.0,27,,,,,,,,,,,,,,,,,,,,,,,,,,,,,,,,
0.0,1.0,0.71048,0.0,20.0,20.0,20.0,1.0,latch_15s.jpg,0.0,clockno_default.jpg,4.0,27,,,,,,,,,,,,,,,,,,,,,,,,,,,,,,,,
0.0,1.0,0.78748,0.0,21.0,21.0,21.0,1.0,bank_06s.jpg,0.0,clockno_default.jpg,4.0,27,,,,,,,,,,,,,,,,,,,,,,,,,,,,,,,,
1.0,1.0,0.94555,0.0,22.0,22.0,22.0,1.0,bank_06s.jpg,1.0,clockno_default.jpg,4.0,27,,,,,,,,,,,,,,,,,,,,,,,,,,,,,,,,
0.0,1.0,0.606255,0.0,23.0,23.0,23.0,1.0,radiator_05s.jpg,0.0,clockno_default.jpg,4.0,27,,,,,,,,,,,,,,,,,,,,,,,,,,,,,,,,
1.0,1.0,2.085215,0.0,24.0,24.0,24.0,1.0,pencil_sharpener_09n.jpg,1.0,clockno_default.jpg,4.0,27,,,,,,,,,,,,,,,,,,,,,,,,,,,,,,,,
0.0,1.0,1.54427,0.0,25.0,25.0,25.0,1.0,telephone_pole_05s.jpg,0.0,clockno_up.jpg,5.0,27,,,,,,,,,,,,,,,,,,,,,,,,,,,,,,,,
0.0,1.0,1.08472,0.0,26.0,26.0,26.0,1.0,top_hat_11s.jpg,0.0,clockno_default.jpg,5.0,27,,,,,,,,,,,,,,,,,,,,,,,,,,,,,,,,
0.0,1.0,1.4659,0.0,27.0,27.0,27.0,1.0,stingray_02s.jpg,0.0,clockno_default.jpg,5.0,27,,,,,,,,,,,,,,,,,,,,,,,,,,,,,,,,
0.0,1.0,0.91777,0.0,28.0,28.0,28.0,1.0,thread_08s.jpg,0.0,clockno_default.jpg,5.0,27,,,,,,,,,,,,,,,,,,,,,,,,,,,,,,,,
0.0,1.0,1.24295,0.0,29.0,29.0,29.0,1.0,perfume_06s.jpg,0.0,clockno_default.jpg,5.0,27,,,,,,,,,,,,,,,,,,,,,,,,,,,,,,,,
0.0,1.0,0.984875,0.0,30.0,30.0,30.0,1.0,mattress_01s.jpg,0.0,clockno_default.jpg,5.0,27,,,,,,,,,,,,,,,,,,,,,,,,,,,,,,,,
0.0,1.0,1.21647,0.0,31.0,31.0,31.0,1.0,champagne_18s.jpg,0.0,clockno_up.jpg,6.0,27,,,,,,,,,,,,,,,,,,,,,,,,,,,,,,,,
1.0,1.0,1.543235,0.0,32.0,32.0,32.0,1.0,champagne_18s.jpg,1.0,clockno_default.jpg,6.0,27,,,,,,,,,,,,,,,,,,,,,,,,,,,,,,,,
0.0,1.0,1.7373,0.0,33.0,33.0,33.0,1.0,machine_gun_09s.jpg,0.0,clockno_default.jpg,6.0,27,,,,,,,,,,,,,,,,,,,,,,,,,,,,,,,,
1.0,1.0,2.16109,0.0,34.0,34.0,34.0,1.0,champagne_18s.jpg,1.0,clockno_default.jpg,6.0,27,,,,,,,,,,,,,,,,,,,,,,,,,,,,,,,,
0.0,1.0,1.5872,0.0,35.0,35.0,35.0,1.0,cushion_08s.jpg,0.0,clockno_default.jpg,6.0,27,,,,,,,,,,,,,,,,,,,,,,,,,,,,,,,,
,,,,,,,,,1.0,,,27,0.0,0.0,4.22452,0.0,0.0,0.0,0.0,1.0,razor_12s.jpg,swordfish_05s.jpg,,,,,,,,,,,,,,,,,,,,,,
,,,,,,,,,1.0,,,27,1.0,1.0,2.02849,0.0,1.0,1.0,1.0,1.0,mattress_01s.jpg,machine_gun_09s.jpg,,,,,,,,,,,,,,,,,,,,,,
,,,,,,,,,1.0,,,27,1.0,1.0,1.74634,0.0,2.0,2.0,2.0,1.0,omelet_07s.jpg,possum_09s.jpg,,,,,,,,,,,,,,,,,,,,,,
,,,,,,,,,1.0,,,27,0.0,0.0,2.169935,0.0,3.0,3.0,3.0,1.0,prism_10s.jpg,tape_06s.jpg,,,,,,,,,,,,,,,,,,,,,,
,,,,,,,,,0.0,,,27,0.0,1.0,1.055295,0.0,4.0,4.0,4.0,1.0,thread_08s.jpg,telephone_pole_05s.jpg,,,,,,,,,,,,,,,,,,,,,,
,,,,,,,,,0.0,,,27,0.0,1.0,2.3709,0.0,5.0,5.0,5.0,1.0,hyena_16s.jpg,surfboard_11s.jpg,,,,,,,,,,,,,,,,,,,,,,
,,,,,,,,,,,,27,,,,,,,,,,,0.0,1.0,1.0,1.0,1.0,clockno_present_2_1.xlsx,clockno_compare_task_2_1.xlsx,,,,,,,,,,,,,,,
0.0,1.0,0.981835,0.0,0.0,0.0,0.0,1.0,ticktacktoe_08s.jpg,0.0,clockno_up.jpg,1.0,27,,,,,,,,,,,,,,,,,,,,,,,,,,,,,,,,
0.0,1.0,0.637215,0.0,1.0,1.0,1.0,1.0,treasure_08s.jpg,0.0,clockno_default.jpg,1.0,27,,,,,,,,,,,,,,,,,,,,,,,,,,,,,,,,
0.0,1.0,0.4509,0.0,2.0,2.0,2.0,1.0,punch1_10s.jpg,0.0,clockno_default.jpg,1.0,27,,,,,,,,,,,,,,,,,,,,,,,,,,,,,,,,
1.0,1.0,0.65743,0.0,3.0,3.0,3.0,1.0,punch1_10s.jpg,1.0,clockno_default.jpg,1.0,27,,,,,,,,,,,,,,,,,,,,,,,,,,,,,,,,
1.0,1.0,0.879485,0.0,4.0,4.0,4.0,1.0,treasure_08s.jpg,1.0,clockno_default.jpg,1.0,27,,,,,,,,,,,,,,,,,,,,,,,,,,,,,,,,
0.0,1.0,0.570585,0.0,5.0,5.0,5.0,1.0,tinsel_12s.jpg,0.0,clockno_up.jpg,2.0,27,,,,,,,,,,,,,,,,,,,,,,,,,,,,,,,,
0.0,1.0,0.623545,0.0,6.0,6.0,6.0,1.0,ram_05s.jpg,0.0,clockno_default.jpg,2.0,27,,,,,,,,,,,,,,,,,,,,,,,,,,,,,,,,
0.0,1.0,1.308135,0.0,7.0,7.0,7.0,1.0,lifesaver_10s.jpg,0.0,clockno_default.jpg,2.0,27,,,,,,,,,,,,,,,,,,,,,,,,,,,,,,,,
0.0,1.0,0.552665,0.0,8.0,8.0,8.0,1.0,blender_08s.jpg,0.0,clockno_default.jpg,2.0,27,,,,,,,,,,,,,,,,,,,,,,,,,,,,,,,,
0.0,1.0,0.75058,0.0,9.0,9.0,9.0,1.0,butter_14s.jpg,0.0,clockno_default.jpg,2.0,27,,,,,,,,,,,,,,,,,,,,,,,,,,,,,,,,
0.0,1.0,0.62963,0.0,10.0,10.0,10.0,1.0,kilt_18s.jpg,0.0,clockno_default.jpg,2.0,27,,,,,,,,,,,,,,,,,,,,,,,,,,,,,,,,
0.0,1.0,1.61673,0.0,11.0,11.0,11.0,1.0,otter_05s.jpg,0.0,clockno_default.jpg,2.0,27,,,,,,,,,,,,,,,,,,,,,,,,,,,,,,,,
0.0,1.0,0.77213,0.0,12.0,12.0,12.0,1.0,birdcage_08s.jpg,0.0,clockno_up.jpg,3.0,27,,,,,,,,,,,,,,,,,,,,,,,,,,,,,,,,
0.0,1.0,0.56194,0.0,13.0,13.0,13.0,1.0,tube_top_03s.jpg,0.0,clockno_default.jpg,3.0,27,,,,,,,,,,,,,,,,,,,,,,,,,,,,,,,,
0.0,1.0,0.86325,0.0,14.0,14.0,14.0,1.0,birthday_cake_09s.jpg,0.0,clockno_default.jpg,3.0,27,,,,,,,,,,,,,,,,,,,,,,,,,,,,,,,,
0.0,1.0,0.56379,0.0,15.0,15.0,15.0,1.0,rice_12s.jpg,0.0,clockno_default.jpg,3.0,27,,,,,,,,,,,,,,,,,,,,,,,,,,,,,,,,
0.0,1.0,0.640315,0.0,16.0,16.0,16.0,1.0,bottle_opener_11s.jpg,0.0,clockno_default.jpg,3.0,27,,,,,,,,,,,,,,,,,,,,,,,,,,,,,,,,
0.0,1.0,0.83059,0.0,17.0,17.0,17.0,1.0,spoon02a.jpg,0.0,clockno_up.jpg,4.0,27,,,,,,,,,,,,,,,,,,,,,,,,,,,,,,,,
0.0,1.0,0.5632,0.0,18.0,18.0,18.0,1.0,touchpad_11s.jpg,0.0,clockno_default.jpg,4.0,27,,,,,,,,,,,,,,,,,,,,,,,,,,,,,,,,
0.0,1.0,0.78379,0.0,19.0,19.0,19.0,1.0,birdcage_08s.jpg,0.0,clockno_default.jpg,4.0,27,,,,,,,,,,,,,,,,,,,,,,,,,,,,,,,,
0.0,1.0,0.64662,0.0,20.0,20.0,20.0,1.0,tulip_02s.jpg,0.0,clockno_default.jpg,4.0,27,,,,,,,,,,,,,,,,,,,,,,,,,,,,,,,,
0.0,1.0,0.55312,0.0,21.0,21.0,21.0,1.0,gingerbread_man_03s.jpg,0.0,clockno_default.jpg,4.0,27,,,,,,,,,,,,,,,,,,,,,,,,,,,,,,,,
0.0,1.0,0.598215,0.0,22.0,22.0,22.0,1.0,margarita_03s.jpg,0.0,clockno_default.jpg,4.0,27,,,,,,,,,,,,,,,,,,,,,,,,,,,,,,,,
0.0,1.0,0.851555,0.0,23.0,23.0,23.0,1.0,raccoon_02s.jpg,0.0,clockno_up.jpg,5.0,27,,,,,,,,,,,,,,,,,,,,,,,,,,,,,,,,
0.0,1.0,0.64848,0.0,24.0,24.0,24.0,1.0,orange_12s.jpg,0.0,clockno_default.jpg,5.0,27,,,,,,,,,,,,,,,,,,,,,,,,,,,,,,,,
0.0,1.0,0.508705,0.0,25.0,25.0,25.0,1.0,solar_panel_02s.jpg,0.0,clockno_default.jpg,5.0,27,,,,,,,,,,,,,,,,,,,,,,,,,,,,,,,,
1.0,1.0,0.90571,0.0,26.0,26.0,26.0,1.0,orange_12s.jpg,1.0,clockno_default.jpg,5.0,27,,,,,,,,,,,,,,,,,,,,,,,,,,,,,,,,
0.0,1.0,1.728405,0.0,27.0,27.0,27.0,1.0,mop_08s.jpg,0.0,clockno_default.jpg,5.0,27,,,,,,,,,,,,,,,,,,,,,,,,,,,,,,,,
0.0,1.0,0.811675,0.0,28.0,28.0,28.0,1.0,light_switch_02s.jpg,0.0,clockno_default.jpg,5.0,27,,,,,,,,,,,,,,,,,,,,,,,,,,,,,,,,
1.0,1.0,0.91413,0.0,29.0,29.0,29.0,1.0,mop_08s.jpg,1.0,clockno_default.jpg,5.0,27,,,,,,,,,,,,,,,,,,,,,,,,,,,,,,,,
0.0,1.0,1.493645,0.0,30.0,30.0,30.0,1.0,mushroom_10n.jpg,0.0,clockno_up.jpg,6.0,27,,,,,,,,,,,,,,,,,,,,,,,,,,,,,,,,
1.0,1.0,0.972385,0.0,31.0,31.0,31.0,1.0,mushroom_10n.jpg,1.0,clockno_default.jpg,6.0,27,,,,,,,,,,,,,,,,,,,,,,,,,,,,,,,,
0.0,1.0,0.762745,0.0,32.0,32.0,32.0,1.0,tennis_ball_06s.jpg,0.0,clockno_default.jpg,6.0,27,,,,,,,,,,,,,,,,,,,,,,,,,,,,,,,,
1.0,1.0,0.71725,0.0,33.0,33.0,33.0,1.0,mushroom_10n.jpg,1.0,clockno_default.jpg,6.0,27,,,,,,,,,,,,,,,,,,,,,,,,,,,,,,,,
0.0,1.0,0.813085,0.0,34.0,34.0,34.0,1.0,fossil_06s.jpg,0.0,clockno_default.jpg,6.0,27,,,,,,,,,,,,,,,,,,,,,,,,,,,,,,,,
0.0,1.0,0.950205,0.0,35.0,35.0,35.0,1.0,undershirt_02s.jpg,0.0,clockno_default.jpg,6.0,27,,,,,,,,,,,,,,,,,,,,,,,,,,,,,,,,
,,,,,,,,,1.0,,,27,1.0,1.0,2.849845,0.0,0.0,0.0,0.0,1.0,otter_05s.jpg,birthday_cake_09s.jpg,,,,,,,,,,,,,,,,,,,,,,
,,,,,,,,,0.0,,,27,1.0,0.0,1.338475,0.0,1.0,1.0,1.0,1.0,touchpad_11s.jpg,rice_12s.jpg,,,,,,,,,,,,,,,,,,,,,,
,,,,,,,,,1.0,,,27,0.0,0.0,1.20109,0.0,2.0,2.0,2.0,1.0,tulip_02s.jpg,raccoon_02s.jpg,,,,,,,,,,,,,,,,,,,,,,
,,,,,,,,,0.0,,,27,1.0,0.0,1.591385,0.0,3.0,3.0,3.0,1.0,blender_08s.jpg,tinsel_12s.jpg,,,,,,,,,,,,,,,,,,,,,,
,,,,,,,,,1.0,,,27,0.0,0.0,1.158135,0.0,4.0,4.0,4.0,1.0,ram_05s.jpg,butter_14s.jpg,,,,,,,,,,,,,,,,,,,,,,
,,,,,,,,,1.0,,,27,1.0,1.0,1.00386,0.0,5.0,5.0,5.0,1.0,tennis_ball_06s.jpg,undershirt_02s.jpg,,,,,,,,,,,,,,,,,,,,,,
,,,,,,,,,,,,27,,,,,,,,,,,0.0,2.0,2.0,2.0,1.0,clockno_present_3_1.xlsx,clockno_compare_task_3_1.xlsx,,,,,,,,,,,,,,,
0.0,1.0,0.89498,0.0,0.0,0.0,0.0,1.0,turkey_10s.jpg,0.0,clockno_up.jpg,1.0,27,,,,,,,,,,,,,,,,,,,,,,,,,,,,,,,,
0.0,1.0,0.81398,0.0,1.0,1.0,1.0,1.0,lavender_10s.jpg,0.0,clockno_default.jpg,1.0,27,,,,,,,,,,,,,,,,,,,,,,,,,,,,,,,,
0.0,1.0,0.540155,0.0,2.0,2.0,2.0,1.0,coconut_08s.jpg,0.0,clockno_default.jpg,1.0,27,,,,,,,,,,,,,,,,,,,,,,,,,,,,,,,,
1.0,1.0,0.64823,0.0,3.0,3.0,3.0,1.0,lavender_10s.jpg,1.0,clockno_default.jpg,1.0,27,,,,,,,,,,,,,,,,,,,,,,,,,,,,,,,,
0.0,1.0,0.96433,0.0,4.0,4.0,4.0,1.0,tattoo_14s.jpg,0.0,clockno_default.jpg,1.0,27,,,,,,,,,,,,,,,,,,,,,,,,,,,,,,,,
0.0,1.0,0.737745,0.0,5.0,5.0,5.0,1.0,quesadilla_07s.jpg,0.0,clockno_default.jpg,1.0,27,,,,,,,,,,,,,,,,,,,,,,,,,,,,,,,,
1.0,1.0,0.94336,0.0,6.0,6.0,6.0,1.0,tattoo_14s.jpg,1.0,clockno_default.jpg,1.0,27,,,,,,,,,,,,,,,,,,,,,,,,,,,,,,,,
0.0,1.0,0.59603,0.0,7.0,7.0,7.0,1.0,bacon_05s.jpg,0.0,clockno_up.jpg,2.0,27,,,,,,,,,,,,,,,,,,,,,,,,,,,,,,,,
0.0,1.0,0.904435,0.0,8.0,8.0,8.0,1.0,bean_06s.jpg,0.0,clockno_default.jpg,2.0,27,,,,,,,,,,,,,,,,,,,,,,,,,,,,,,,,
0.0,1.0,0.696235,0.0,9.0,9.0,9.0,1.0,eiffeltower.jpg,0.0,clockno_default.jpg,2.0,27,,,,,,,,,,,,,,,,,,,,,,,,,,,,,,,,
0.0,1.0,0.79614,0.0,10.0,10.0,10.0,1.0,syringe_02s.jpg,0.0,clockno_default.jpg,2.0,27,,,,,,,,,,,,,,,,,,,,,,,,,,,,,,,,
0.0,1.0,0.59949,0.0,11.0,11.0,11.0,1.0,rosary_03s.jpg,0.0,clockno_default.jpg,2.0,27,,,,,,,,,,,,,,,,,,,,,,,,,,,,,,,,
0.0,1.0,0.65297,0.0,12.0,12.0,12.0,1.0,cape_11s.jpg,0.0,clockno_default.jpg,2.0,27,,,,,,,,,,,,,,,,,,,,,,,,,,,,,,,,
0.0,1.0,0.63334,0.0,13.0,13.0,13.0,1.0,rocking_chair_05s.jpg,0.0,clockno_up.jpg,3.0,27,,,,,,,,,,,,,,,,,,,,,,,,,,,,,,,,
0.0,1.0,0.742975,0.0,14.0,14.0,14.0,1.0,cardinal_07s.jpg,0.0,clockno_default.jpg,3.0,27,,,,,,,,,,,,,,,,,,,,,,,,,,,,,,,,
0.0,1.0,0.611215,0.0,15.0,15.0,15.0,1.0,totem_pole_05s.jpg,0.0,clockno_default.jpg,3.0,27,,,,,,,,,,,,,,,,,,,,,,,,,,,,,,,,
0.0,1.0,0.56803,0.0,16.0,16.0,16.0,1.0,gear_07s.jpg,0.0,clockno_default.jpg,3.0,27,,,,,,,,,,,,,,,,,,,,,,,,,,,,,,,,
0.0,1.0,0.685995,0.0,17.0,17.0,17.0,1.0,target_11s.jpg,0.0,clockno_default.jpg,3.0,27,,,,,,,,,,,,,,,,,,,,,,,,,,,,,,,,
0.0,1.0,0.78629,0.0,18.0,18.0,18.0,1.0,air_pump_05s.jpg,0.0,clockno_default.jpg,3.0,27,,,,,,,,,,,,,,,,,,,,,,,,,,,,,,,,
0.0,1.0,0.9201,0.0,19.0,19.0,19.0,1.0,tongs_08s.jpg,0.0,clockno_up.jpg,4.0,27,,,,,,,,,,,,,,,,,,,,,,,,,,,,,,,,
1.0,1.0,0.80442,0.0,20.0,20.0,20.0,1.0,tongs_08s.jpg,1.0,clockno_default.jpg,4.0,27,,,,,,,,,,,,,,,,,,,,,,,,,,,,,,,,
0.0,1.0,0.840975,0.0,21.0,21.0,21.0,1.0,ice-cream_cone_06s.jpg,0.0,clockno_default.jpg,4.0,27,,,,,,,,,,,,,,,,,,,,,,,,,,,,,,,,
0.0,1.0,0.630155,0.0,22.0,22.0,22.0,1.0,badge_03s.jpg,0.0,clockno_default.jpg,4.0,27,,,,,,,,,,,,,,,,,,,,,,,,,,,,,,,,
1.0,1.0,2.37097,0.0,23.0,23.0,23.0,1.0,badge_03s.jpg,1.0,clockno_default.jpg,4.0,27,,,,,,,,,,,,,,,,,,,,,,,,,,,,,,,,
0.0,1.0,1.128115,0.0,24.0,24.0,24.0,1.0,lizard_10n.jpg,0.0,clockno_default.jpg,4.0,27,,,,,,,,,,,,,,,,,,,,,,,,,,,,,,,,
1.0,1.0,0.98131,0.0,25.0,25.0,25.0,1.0,lizard_10n.jpg,1.0,clockno_default.jpg,4.0,27,,,,,,,,,,,,,,,,,,,,,,,,,,,,,,,,
0.0,1.0,1.249885,0.0,26.0,26.0,26.0,1.0,tab_09s.jpg,0.0,clockno_up.jpg,5.0,27,,,,,,,,,,,,,,,,,,,,,,,,,,,,,,,,
0.0,1.0,1.28582,0.0,27.0,27.0,27.0,1.0,red_carpet_03s.jpg,0.0,clockno_default.jpg,5.0,27,,,,,,,,,,,,,,,,,,,,,,,,,,,,,,,,
0.0,1.0,0.9076,0.0,28.0,28.0,28.0,1.0,printer_09s.jpg,0.0,clockno_default.jpg,5.0,27,,,,,,,,,,,,,,,,,,,,,,,,,,,,,,,,
0.0,1.0,0.873705,0.0,29.0,29.0,29.0,1.0,bean_06s.jpg,0.0,clockno_default.jpg,5.0,27,,,,,,,,,,,,,,,,,,,,,,,,,,,,,,,,
0.0,1.0,0.974085,0.0,30.0,30.0,30.0,1.0,lizard_10n.jpg,0.0,clockno_default.jpg,5.0,27,,,,,,,,,,,,,,,,,,,,,,,,,,,,,,,,
0.0,1.0,0.731215,0.0,31.0,31.0,31.0,1.0,giraffe_11s.jpg,0.0,clockno_up.jpg,6.0,27,,,,,,,,,,,,,,,,,,,,,,,,,,,,,,,,
0.0,1.0,0.90295,0.0,32.0,32.0,32.0,1.0,seahorse_13s.jpg,0.0,clockno_default.jpg,6.0,27,,,,,,,,,,,,,,,,,,,,,,,,,,,,,,,,
0.0,1.0,0.748915,0.0,33.0,33.0,33.0,1.0,trident_07s.jpg,0.0,clockno_default.jpg,6.0,27,,,,,,,,,,,,,,,,,,,,,,,,,,,,,,,,
0.0,1.0,0.810085,0.0,34.0,34.0,34.0,1.0,coconut_08s.jpg,0.0,clockno_default.jpg,6.0,27,,,,,,,,,,,,,,,,,,,,,,,,,,,,,,,,
0.0,1.0,1.47097,0.0,35.0,35.0,35.0,1.0,metronome_03s.jpg,0.0,clockno_default.jpg,6.0,27,,,,,,,,,,,,,,,,,,,,,,,,,,,,,,,,
,,,,,,,,,1.0,,,27,0.0,0.0,1.5193,0.0,0.0,0.0,0.0,1.0,printer_09s.jpg,giraffe_11s.jpg,,,,,,,,,,,,,,,,,,,,,,
,,,,,,,,,0.0,,,27,0.0,1.0,1.144305,0.0,1.0,1.0,1.0,1.0,cardinal_07s.jpg,rosary_03s.jpg,,,,,,,,,,,,,,,,,,,,,,
,,,,,,,,,0.0,,,27,0.0,1.0,1.439375,0.0,2.0,2.0,2.0,1.0,ice-cream_cone_06s.jpg,air_pump_05s.jpg,,,,,,,,,,,,,,,,,,,,,,
,,,,,,,,,0.0,,,27,1.0,0.0,1.13142,0.0,3.0,3.0,3.0,1.0,metronome_03s.jpg,seahorse_13s.jpg,,,,,,,,,,,,,,,,,,,,,,
,,,,,,,,,0.0,,,27,0.0,1.0,1.51481,0.0,4.0,4.0,4.0,1.0,syringe_02s.jpg,bacon_05s.jpg,,,,,,,,,,,,,,,,,,,,,,
,,,,,,,,,1.0,,,27,0.0,0.0,1.85112,0.0,5.0,5.0,5.0,1.0,eiffeltower.jpg,cape_11s.jpg,,,,,,,,,,,,,,,,,,,,,,
,,,,,,,,,,,,27,,,,,,,,,,,0.0,3.0,3.0,3.0,1.0,clockno_present_4_1.xlsx,clockno_compare_task_4_1.xlsx,,,,,,,,,,,,,,,
0.0,1.0,0.77522,0.0,0.0,0.0,0.0,1.0,ladder_15s.jpg,0.0,clockno_up.jpg,1.0,27,,,,,,,,,,,,,,,,,,,,,,,,,,,,,,,,
0.0,1.0,1.551425,0.0,1.0,1.0,1.0,1.0,iron_13s.jpg,0.0,clockno_default.jpg,1.0,27,,,,,,,,,,,,,,,,,,,,,,,,,,,,,,,,
1.0,1.0,0.63621,0.0,2.0,2.0,2.0,1.0,iron_13s.jpg,1.0,clockno_default.jpg,1.0,27,,,,,,,,,,,,,,,,,,,,,,,,,,,,,,,,
0.0,1.0,0.71154,0.0,3.0,3.0,3.0,1.0,radio_09s.jpg,0.0,clockno_default.jpg,1.0,27,,,,,,,,,,,,,,,,,,,,,,,,,,,,,,,,
1.0,1.0,1.070295,0.0,4.0,4.0,4.0,1.0,radio_09s.jpg,1.0,clockno_default.jpg,1.0,27,,,,,,,,,,,,,,,,,,,,,,,,,,,,,,,,
0.0,1.0,0.81763,0.0,5.0,5.0,5.0,1.0,pocketknife_12s.jpg,0.0,clockno_up.jpg,2.0,27,,,,,,,,,,,,,,,,,,,,,,,,,,,,,,,,
0.0,1.0,0.86179,0.0,6.0,6.0,6.0,1.0,sledgehammer_03s.jpg,0.0,clockno_default.jpg,2.0,27,,,,,,,,,,,,,,,,,,,,,,,,,,,,,,,,
0.0,1.0,0.724425,0.0,7.0,7.0,7.0,1.0,diving_board_07s.jpg,0.0,clockno_default.jpg,2.0,27,,,,,,,,,,,,,,,,,,,,,,,,,,,,,,,,
0.0,1.0,0.953055,0.0,8.0,8.0,8.0,1.0,squirt_gun_03s.jpg,0.0,clockno_default.jpg,2.0,27,,,,,,,,,,,,,,,,,,,,,,,,,,,,,,,,
0.0,1.0,1.032465,0.0,9.0,9.0,9.0,1.0,iron_13s.jpg,0.0,clockno_default.jpg,2.0,27,,,,,,,,,,,,,,,,,,,,,,,,,,,,,,,,
0.0,1.0,0.859515,0.0,10.0,10.0,10.0,1.0,sushi_08s.jpg,0.0,clockno_up.jpg,3.0,27,,,,,,,,,,,,,,,,,,,,,,,,,,,,,,,,
0.0,1.0,0.55204,0.0,11.0,11.0,11.0,1.0,rhubarb_03s.jpg,0.0,clockno_default.jpg,3.0,27,,,,,,,,,,,,,,,,,,,,,,,,,,,,,,,,
0.0,1.0,0.606275,0.0,12.0,12.0,12.0,1.0,rocket_02s.jpg,0.0,clockno_default.jpg,3.0,27,,,,,,,,,,,,,,,,,,,,,,,,,,,,,,,,
0.0,1.0,0.634395,0.0,13.0,13.0,13.0,1.0,abacus_12s.jpg,0.0,clockno_default.jpg,3.0,27,,,,,,,,,,,,,,,,,,,,,,,,,,,,,,,,
0.0,1.0,0.983705,0.0,14.0,14.0,14.0,1.0,turtle_08s.jpg,0.0,clockno_default.jpg,3.0,27,,,,,,,,,,,,,,,,,,,,,,,,,,,,,,,,
0.0,1.0,0.699185,0.0,15.0,15.0,15.0,1.0,lab_coat_11s.jpg,0.0,clockno_default.jpg,3.0,27,,,,,,,,,,,,,,,,,,,,,,,,,,,,,,,,
0.0,1.0,0.75347,0.0,16.0,16.0,16.0,1.0,torch_02s.jpg,0.0,clockno_default.jpg,3.0,27,,,,,,,,,,,,,,,,,,,,,,,,,,,,,,,,
0.0,1.0,0.88684,0.0,17.0,17.0,17.0,1.0,pumpkin_03s.jpg,0.0,clockno_up.jpg,4.0,27,,,,,,,,,,,,,,,,,,,,,,,,,,,,,,,,
1.0,1.0,1.06034,0.0,18.0,18.0,18.0,1.0,pumpkin_03s.jpg,1.0,clockno_default.jpg,4.0,27,,,,,,,,,,,,,,,,,,,,,,,,,,,,,,,,
1.0,1.0,0.64862,0.0,19.0,19.0,19.0,1.0,pumpkin_03s.jpg,1.0,clockno_default.jpg,4.0,27,,,,,,,,,,,,,,,,,,,,,,,,,,,,,,,,
1.0,1.0,0.542005,0.0,20.0,20.0,20.0,1.0,pumpkin_03s.jpg,1.0,clockno_default.jpg,4.0,27,,,,,,,,,,,,,,,,,,,,,,,,,,,,,,,,
0.0,1.0,0.79596,0.0,21.0,21.0,21.0,1.0,teacup_07s.jpg,0.0,clockno_default.jpg,4.0,27,,,,,,,,,,,,,,,,,,,,,,,,,,,,,,,,
0.0,1.0,0.63961,0.0,22.0,22.0,22.0,1.0,marker_05s.jpg,0.0,clockno_default.jpg,4.0,27,,,,,,,,,,,,,,,,,,,,,,,,,,,,,,,,
0.0,1.0,0.72385,0.0,23.0,23.0,23.0,1.0,parachute_03s.jpg,0.0,clockno_default.jpg,4.0,27,,,,,,,,,,,,,,,,,,,,,,,,,,,,,,,,
0.0,1.0,0.85746,0.0,24.0,24.0,24.0,1.0,jet_15s.jpg,0.0,clockno_up.jpg,5.0,27,,,,,,,,,,,,,,,,,,,,,,,,,,,,,,,,
0.0,1.0,0.885895,0.0,25.0,25.0,25.0,1.0,turnstile_08s.jpg,0.0,clockno_default.jpg,5.0,27,,,,,,,,,,,,,,,,,,,,,,,,,,,,,,,,
0.0,1.0,0.849665,0.0,26.0,26.0,26.0,1.0,roller_coaster_07s.jpg,0.0,clockno_default.jpg,5.0,27,,,,,,,,,,,,,,,,,,,,,,,,,,,,,,,,
0.0,1.0,0.839805,0.0,27.0,27.0,27.0,1.0,ukulele_02s.jpg,0.0,clockno_default.jpg,5.0,27,,,,,,,,,,,,,,,,,,,,,,,,,,,,,,,,
0.0,1.0,0.56477,0.0,28.0,28.0,28.0,1.0,ivy_12s.jpg,0.0,clockno_default.jpg,5.0,27,,,,,,,,,,,,,,,,,,,,,,,,,,,,,,,,
1.0,1.0,0.866225,0.0,29.0,29.0,29.0,1.0,ivy_12s.jpg,1.0,clockno_default.jpg,5.0,27,,,,,,,,,,,,,,,,,,,,,,,,,,,,,,,,
0.0,1.0,0.69596,0.0,30.0,30.0,30.0,1.0,piggy_bank_02s.jpg,0.0,clockno_up.jpg,6.0,27,,,,,,,,,,,,,,,,,,,,,,,,,,,,,,,,
0.0,1.0,0.77117,0.0,31.0,31.0,31.0,1.0,pillow_03s.jpg,0.0,clockno_default.jpg,6.0,27,,,,,,,,,,,,,,,,,,,,,,,,,,,,,,,,
0.0,1.0,0.905135,0.0,32.0,32.0,32.0,1.0,bowler_hat_10s.jpg,0.0,clockno_default.jpg,6.0,27,,,,,,,,,,,,,,,,,,,,,,,,,,,,,,,,
0.0,1.0,0.773385,0.0,33.0,33.0,33.0,1.0,power_line_08s.jpg,0.0,clockno_default.jpg,6.0,27,,,,,,,,,,,,,,,,,,,,,,,,,,,,,,,,
,0.0,,0.0,34.0,34.0,34.0,1.0,snowman_02s.jpg,0.0,clockno_default.jpg,6.0,27,,,,,,,,,,,,,,,,,,,,,,,,,,,,,,,,
0.0,0.0,1.016135,0.0,35.0,35.0,35.0,1.0,piggy_bank_02s.jpg,1.0,clockno_default.jpg,6.0,27,,,,,,,,,,,,,,,,,,,,,,,,,,,,,,,,
,,,,,,,,,1.0,,,27,0.0,0.0,6.653495,0.0,0.0,0.0,0.0,1.0,marker_05s.jpg,turnstile_08s.jpg,,,,,,,,,,,,,,,,,,,,,,
,,,,,,,,,0.0,,,27,0.0,1.0,1.446585,0.0,1.0,1.0,1.0,1.0,roller_coaster_07s.jpg,parachute_03s.jpg,,,,,,,,,,,,,,,,,,,,,,
,,,,,,,,,1.0,,,27,0.0,0.0,1.39203,0.0,2.0,2.0,2.0,1.0,diving_board_07s.jpg,sushi_08s.jpg,,,,,,,,,,,,,,,,,,,,,,
,,,,,,,,,0.0,,,27,1.0,0.0,2.14132,0.0,3.0,3.0,3.0,1.0,lab_coat_11s.jpg,rocket_02s.jpg,,,,,,,,,,,,,,,,,,,,,,
,,,,,,,,,1.0,,,27,0.0,0.0,1.269335,0.0,4.0,4.0,4.0,1.0,abacus_12s.jpg,torch_02s.jpg,,,,,,,,,,,,,,,,,,,,,,
,,,,,,,,,1.0,,,27,0.0,0.0,0.81657,0.0,5.0,5.0,5.0,1.0,pillow_03s.jpg,snowman_02s.jpg,,,,,,,,,,,,,,,,,,,,,,
,,,,,,,,,,,,27,,,,,,,,,,,0.0,4.0,4.0,4.0,1.0,clockno_present_5_1.xlsx,clockno_compare_task_5_1.xlsx,,,,,,,,,,,,,,,
0.0,1.0,1.24941,0.0,0.0,0.0,0.0,1.0,pillbox_04s.jpg,0.0,clockno_up.jpg,1.0,27,,,,,,,,,,,,,,,,,,,,,,,,,,,,,,,,
0.0,1.0,0.55101,0.0,1.0,1.0,1.0,1.0,projector_08s.jpg,0.0,clockno_default.jpg,1.0,27,,,,,,,,,,,,,,,,,,,,,,,,,,,,,,,,
0.0,1.0,0.604685,0.0,2.0,2.0,2.0,1.0,lantern_04s.jpg,0.0,clockno_default.jpg,1.0,27,,,,,,,,,,,,,,,,,,,,,,,,,,,,,,,,
0.0,1.0,0.642,0.0,3.0,3.0,3.0,1.0,marshmallow_08s.jpg,0.0,clockno_default.jpg,1.0,27,,,,,,,,,,,,,,,,,,,,,,,,,,,,,,,,
0.0,1.0,0.56657,0.0,4.0,4.0,4.0,1.0,dynamite_01b.jpg,0.0,clockno_default.jpg,1.0,27,,,,,,,,,,,,,,,,,,,,,,,,,,,,,,,,
0.0,0.0,0.43613,0.0,5.0,5.0,5.0,1.0,marshmallow_08s.jpg,1.0,clockno_default.jpg,1.0,27,,,,,,,,,,,,,,,,,,,,,,,,,,,,,,,,
0.0,1.0,0.4332,0.0,6.0,6.0,6.0,1.0,mirror_12s.jpg,0.0,clockno_up.jpg,2.0,27,,,,,,,,,,,,,,,,,,,,,,,,,,,,,,,,
0.0,1.0,0.509445,0.0,7.0,7.0,7.0,1.0,ant_12s.jpg,0.0,clockno_default.jpg,2.0,27,,,,,,,,,,,,,,,,,,,,,,,,,,,,,,,,
0.0,1.0,0.70695,0.0,8.0,8.0,8.0,1.0,marshmallow_08s.jpg,0.0,clockno_default.jpg,2.0,27,,,,,,,,,,,,,,,,,,,,,,,,,,,,,,,,
0.0,1.0,0.359495,0.0,9.0,9.0,9.0,1.0,tile_08s.jpg,0.0,clockno_default.jpg,2.0,27,,,,,,,,,,,,,,,,,,,,,,,,,,,,,,,,
0.0,1.0,0.540545,0.0,10.0,10.0,10.0,1.0,lollipop_08s.jpg,0.0,clockno_default.jpg,2.0,27,,,,,,,,,,,,,,,,,,,,,,,,,,,,,,,,
0.0,1.0,0.553875,0.0,11.0,11.0,11.0,1.0,saddle_06s.jpg,0.0,clockno_default.jpg,2.0,27,,,,,,,,,,,,,,,,,,,,,,,,,,,,,,,,
0.0,1.0,0.470255,0.0,12.0,12.0,12.0,1.0,feather02.jpg,0.0,clockno_up.jpg,3.0,27,,,,,,,,,,,,,,,,,,,,,,,,,,,,,,,,
0.0,1.0,0.70791,0.0,13.0,13.0,13.0,1.0,road_sign_05s.jpg,0.0,clockno_default.jpg,3.0,27,,,,,,,,,,,,,,,,,,,,,,,,,,,,,,,,
0.0,1.0,0.9683,0.0,14.0,14.0,14.0,1.0,tripod_01b.jpg,0.0,clockno_default.jpg,3.0,27,,,,,,,,,,,,,,,,,,,,,,,,,,,,,,,,
0.0,1.0,0.63683,0.0,15.0,15.0,15.0,1.0,sparkler_02s.jpg,0.0,clockno_default.jpg,3.0,27,,,,,,,,,,,,,,,,,,,,,,,,,,,,,,,,
0.0,1.0,0.52274,0.0,16.0,16.0,16.0,1.0,olive_05s.jpg,0.0,clockno_default.jpg,3.0,27,,,,,,,,,,,,,,,,,,,,,,,,,,,,,,,,
0.0,1.0,0.47957,0.0,17.0,17.0,17.0,1.0,contact_lens_15s.jpg,0.0,clockno_default.jpg,3.0,27,,,,,,,,,,,,,,,,,,,,,,,,,,,,,,,,
0.0,0.0,0.67728,0.0,18.0,18.0,18.0,1.0,sparkler_02s.jpg,1.0,clockno_default.jpg,3.0,27,,,,,,,,,,,,,,,,,,,,,,,,,,,,,,,,
0.0,1.0,0.47281,0.0,19.0,19.0,19.0,1.0,puppet_01b.jpg,0.0,clockno_up.jpg,4.0,27,,,,,,,,,,,,,,,,,,,,,,,,,,,,,,,,
0.0,1.0,0.59805,0.0,20.0,20.0,20.0,1.0,toy_04s.jpg,0.0,clockno_default.jpg,4.0,27,,,,,,,,,,,,,,,,,,,,,,,,,,,,,,,,
0.0,1.0,0.8459,0.0,21.0,21.0,21.0,1.0,turtleneck_11s.jpg,0.0,clockno_default.jpg,4.0,27,,,,,,,,,,,,,,,,,,,,,,,,,,,,,,,,
0.0,1.0,0.328635,0.0,22.0,22.0,22.0,1.0,fox_13s.jpg,0.0,clockno_default.jpg,4.0,27,,,,,,,,,,,,,,,,,,,,,,,,,,,,,,,,
0.0,1.0,0.51604,0.0,23.0,23.0,23.0,1.0,knot_01b.jpg,0.0,clockno_default.jpg,4.0,27,,,,,,,,,,,,,,,,,,,,,,,,,,,,,,,,
0.0,1.0,0.58618,0.0,24.0,24.0,24.0,1.0,pinwheel_06s.jpg,0.0,clockno_up.jpg,5.0,27,,,,,,,,,,,,,,,,,,,,,,,,,,,,,,,,
0.0,1.0,0.63082,0.0,25.0,25.0,25.0,1.0,crossbow_10s.jpg,0.0,clockno_default.jpg,5.0,27,,,,,,,,,,,,,,,,,,,,,,,,,,,,,,,,
0.0,1.0,0.772185,0.0,26.0,26.0,26.0,1.0,lamppost_09s.jpg,0.0,clockno_default.jpg,5.0,27,,,,,,,,,,,,,,,,,,,,,,,,,,,,,,,,
1.0,1.0,1.025425,0.0,27.0,27.0,27.0,1.0,crossbow_10s.jpg,1.0,clockno_default.jpg,5.0,27,,,,,,,,,,,,,,,,,,,,,,,,,,,,,,,,
0.0,0.0,0.79057,0.0,28.0,28.0,28.0,1.0,pinwheel_06s.jpg,1.0,clockno_default.jpg,5.0,27,,,,,,,,,,,,,,,,,,,,,,,,,,,,,,,,
1.0,1.0,0.86755,0.0,29.0,29.0,29.0,1.0,pinwheel_06s.jpg,1.0,clockno_default.jpg,5.0,27,,,,,,,,,,,,,,,,,,,,,,,,,,,,,,,,
,0.0,,0.0,30.0,30.0,30.0,1.0,coffee_filter_10s.jpg,0.0,clockno_default.jpg,5.0,27,,,,,,,,,,,,,,,,,,,,,,,,,,,,,,,,
0.0,1.0,0.564695,0.0,31.0,31.0,31.0,1.0,peeler_06s.jpg,0.0,clockno_up.jpg,6.0,27,,,,,,,,,,,,,,,,,,,,,,,,,,,,,,,,
0.0,1.0,0.449265,0.0,32.0,32.0,32.0,1.0,tiger_06s.jpg,0.0,clockno_default.jpg,6.0,27,,,,,,,,,,,,,,,,,,,,,,,,,,,,,,,,
0.0,1.0,0.47664,0.0,33.0,33.0,33.0,1.0,coat_rack_01b.jpg,0.0,clockno_default.jpg,6.0,27,,,,,,,,,,,,,,,,,,,,,,,,,,,,,,,,
0.0,1.0,0.61965,0.0,34.0,34.0,34.0,1.0,toaster_03s.jpg,0.0,clockno_default.jpg,6.0,27,,,,,,,,,,,,,,,,,,,,,,,,,,,,,,,,
1.0,1.0,1.353535,0.0,35.0,35.0,35.0,1.0,coat_rack_01b.jpg,1.0,clockno_default.jpg,6.0,27,,,,,,,,,,,,,,,,,,,,,,,,,,,,,,,,
,,,,,,,,,1.0,,,27,0.0,0.0,1.39465,0.0,0.0,0.0,0.0,1.0,tile_08s.jpg,feather02.jpg,,,,,,,,,,,,,,,,,,,,,,
,,,,,,,,,1.0,,,27,0.0,0.0,1.004965,0.0,1.0,1.0,1.0,1.0,saddle_06s.jpg,tripod_01b.jpg,,,,,,,,,,,,,,,,,,,,,,
,,,,,,,,,1.0,,,27,1.0,1.0,1.00953,0.0,2.0,2.0,2.0,1.0,knot_01b.jpg,lamppost_09s.jpg,,,,,,,,,,,,,,,,,,,,,,
,,,,,,,,,1.0,,,27,1.0,1.0,1.247325,0.0,3.0,3.0,3.0,1.0,peeler_06s.jpg,toaster_03s.jpg,,,,,,,,,,,,,,,,,,,,,,
,,,,,,,,,0.0,,,27,0.0,1.0,2.193595,0.0,4.0,4.0,4.0,1.0,dynamite_01b.jpg,projector_08s.jpg,,,,,,,,,,,,,,,,,,,,,,
,,,,,,,,,0.0,,,27,1.0,0.0,1.1442,0.0,5.0,5.0,5.0,1.0,fox_13s.jpg,puppet_01b.jpg,,,,,,,,,,,,,,,,,,,,,,
0.0,1.0,0.91146,,,,,,film_03s.jpg,0.0,clock_6_1.png,1.0,27,,,,,,,,,,,,,,,,,,0.0,0.0,0.0,0.0,1.0,,,,,,,,,,
0.0,1.0,1.012475,,,,,,tomato_sauce_09s.jpg,0.0,clock_6_2.png,1.0,27,,,,,,,,,,,,,,,,,,0.0,1.0,1.0,1.0,1.0,,,,,,,,,,
0.0,1.0,1.84912,,,,,,puck_06s.jpg,0.0,clock_6_3.png,1.0,27,,,,,,,,,,,,,,,,,,0.0,2.0,2.0,2.0,1.0,,,,,,,,,,
0.0,1.0,1.350295,,,,,,milk_02s.jpg,0.0,clock_6_4.png,1.0,27,,,,,,,,,,,,,,,,,,0.0,3.0,3.0,3.0,1.0,,,,,,,,,,
0.0,1.0,2.203965,,,,,,foam_03s.jpg,0.0,clock_6_5.png,1.0,27,,,,,,,,,,,,,,,,,,0.0,4.0,4.0,4.0,1.0,,,,,,,,,,
0.0,1.0,2.3675,,,,,,juicer2_06s.jpg,0.0,clock_6_6.png,1.0,27,,,,,,,,,,,,,,,,,,0.0,5.0,5.0,5.0,1.0,,,,,,,,,,
0.0,1.0,1.253515,,,,,,pea_11s.jpg,0.0,clock_5_1.png,2.0,27,,,,,,,,,,,,,,,,,,0.0,6.0,6.0,6.0,1.0,,,,,,,,,,
0.0,1.0,0.69825,,,,,,breadstick_08s.jpg,0.0,clock_5_2.png,2.0,27,,,,,,,,,,,,,,,,,,0.0,7.0,7.0,7.0,1.0,,,,,,,,,,
0.0,0.0,0.999665,,,,,,pea_11s.jpg,1.0,clock_5_3.png,2.0,27,,,,,,,,,,,,,,,,,,0.0,8.0,8.0,8.0,1.0,,,,,,,,,,
0.0,1.0,0.98838,,,,,,thumbtack_14s.jpg,0.0,clock_5_4.png,2.0,27,,,,,,,,,,,,,,,,,,0.0,9.0,9.0,9.0,1.0,,,,,,,,,,
0.0,1.0,0.887335,,,,,,gas_mask_11s.jpg,0.0,clock_5_5.png,2.0,27,,,,,,,,,,,,,,,,,,0.0,10.0,10.0,10.0,1.0,,,,,,,,,,
0.0,1.0,1.93313,,,,,,plug_08s.jpg,0.0,clock_7_1.png,3.0,27,,,,,,,,,,,,,,,,,,0.0,11.0,11.0,11.0,1.0,,,,,,,,,,
0.0,1.0,1.02499,,,,,,compass_10n.jpg,0.0,clock_7_2.png,3.0,27,,,,,,,,,,,,,,,,,,0.0,12.0,12.0,12.0,1.0,,,,,,,,,,
,0.0,,,,,,,compass_10n.jpg,1.0,clock_7_3.png,3.0,27,,,,,,,,,,,,,,,,,,0.0,13.0,13.0,13.0,1.0,,,,,,,,,,
0.0,1.0,0.331515,,,,,,seagull_01b.jpg,0.0,clock_7_4.png,3.0,27,,,,,,,,,,,,,,,,,,0.0,14.0,14.0,14.0,1.0,,,,,,,,,,
0.0,0.0,0.648705,,,,,,compass_10n.jpg,1.0,clock_7_5.png,3.0,27,,,,,,,,,,,,,,,,,,0.0,15.0,15.0,15.0,1.0,,,,,,,,,,
0.0,1.0,0.71632,,,,,,laser_pointer_02s.jpg,0.0,clock_7_6.png,3.0,27,,,,,,,,,,,,,,,,,,0.0,16.0,16.0,16.0,1.0,,,,,,,,,,
0.0,1.0,2.186415,,,,,,puck_06s.jpg,0.0,clock_7_7.png,3.0,27,,,,,,,,,,,,,,,,,,0.0,17.0,17.0,17.0,1.0,,,,,,,,,,
0.0,1.0,2.256085,,,,,,onion_10s.jpg,0.0,clock_7_1.png,4.0,27,,,,,,,,,,,,,,,,,,0.0,18.0,18.0,18.0,1.0,,,,,,,,,,
0.0,0.0,2.13261,,,,,,onion_10s.jpg,1.0,clock_7_2.png,4.0,27,,,,,,,,,,,,,,,,,,0.0,19.0,19.0,19.0,1.0,,,,,,,,,,
0.0,1.0,1.71342,,,,,,smokingpipe.jpg,0.0,clock_7_3.png,4.0,27,,,,,,,,,,,,,,,,,,0.0,20.0,20.0,20.0,1.0,,,,,,,,,,
0.0,1.0,1.06249,,,,,,basket_05s.jpg,0.0,clock_7_4.png,4.0,27,,,,,,,,,,,,,,,,,,0.0,21.0,21.0,21.0,1.0,,,,,,,,,,
0.0,1.0,0.556055,,,,,,juicer2_06s.jpg,0.0,clock_7_5.png,4.0,27,,,,,,,,,,,,,,,,,,0.0,22.0,22.0,22.0,1.0,,,,,,,,,,
0.0,1.0,0.60084,,,,,,puck_06s.jpg,0.0,clock_7_6.png,4.0,27,,,,,,,,,,,,,,,,,,0.0,23.0,23.0,23.0,1.0,,,,,,,,,,
0.0,0.0,0.470345,,,,,,onion_10s.jpg,1.0,clock_7_7.png,4.0,27,,,,,,,,,,,,,,,,,,0.0,24.0,24.0,24.0,1.0,,,,,,,,,,
0.0,1.0,0.97034,,,,,,swan_11s.jpg,0.0,clock_6_1.png,5.0,27,,,,,,,,,,,,,,,,,,0.0,25.0,25.0,25.0,1.0,,,,,,,,,,
1.0,1.0,1.4242,,,,,,swan_11s.jpg,1.0,clock_6_2.png,5.0,27,,,,,,,,,,,,,,,,,,0.0,26.0,26.0,26.0,1.0,,,,,,,,,,
1.0,1.0,1.71664,,,,,,swan_11s.jpg,1.0,clock_6_3.png,5.0,27,,,,,,,,,,,,,,,,,,0.0,27.0,27.0,27.0,1.0,,,,,,,,,,
0.0,1.0,1.833515,,,,,,lion_18s.jpg,0.0,clock_6_4.png,5.0,27,,,,,,,,,,,,,,,,,,0.0,28.0,28.0,28.0,1.0,,,,,,,,,,
0.0,1.0,0.89709,,,,,,tiara_05s.jpg,0.0,clock_6_5.png,5.0,27,,,,,,,,,,,,,,,,,,0.0,29.0,29.0,29.0,1.0,,,,,,,,,,
0.0,1.0,0.81909,,,,,,jigsaw_puzzle_11s.jpg,0.0,clock_6_6.png,5.0,27,,,,,,,,,,,,,,,,,,0.0,30.0,30.0,30.0,1.0,,,,,,,,,,
0.0,1.0,0.88081,,,,,,pineapple_12s.jpg,0.0,clock_5_1.png,6.0,27,,,,,,,,,,,,,,,,,,0.0,31.0,31.0,31.0,1.0,,,,,,,,,,
0.0,1.0,0.98898,,,,,,plaster_cast_13s.jpg,0.0,clock_5_2.png,6.0,27,,,,,,,,,,,,,,,,,,0.0,32.0,32.0,32.0,1.0,,,,,,,,,,
0.0,1.0,1.306265,,,,,,boomerang_06s.jpg,0.0,clock_5_3.png,6.0,27,,,,,,,,,,,,,,,,,,0.0,33.0,33.0,33.0,1.0,,,,,,,,,,
0.0,1.0,1.086795,,,,,,kimono_13s.jpg,0.0,clock_5_4.png,6.0,27,,,,,,,,,,,,,,,,,,0.0,34.0,34.0,34.0,1.0,,,,,,,,,,
0.0,1.0,0.53153,,,,,,pantyhose_07s.jpg,0.0,clock_5_5.png,6.0,27,,,,,,,,,,,,,,,,,,0.0,35.0,35.0,35.0,1.0,,,,,,,,,,
,,,,,,,,,1.0,,,27,1.0,1.0,1.058335,,,,,,jigsaw_puzzle_11s.jpg,boomerang_06s.jpg,,,,,,,,,,,,,0.0,0.0,0.0,0.0,1.0,,,,,
,,,,,,,,,0.0,,,27,0.0,1.0,0.7775,,,,,,pineapple_12s.jpg,lion_18s.jpg,,,,,,,,,,,,,0.0,1.0,1.0,1.0,1.0,,,,,
,,,,,,,,,1.0,,,27,0.0,0.0,1.215745,,,,,,tiara_05s.jpg,plaster_cast_13s.jpg,,,,,,,,,,,,,0.0,2.0,2.0,2.0,1.0,,,,,
,,,,,,,,,1.0,,,27,1.0,1.0,1.32407,,,,,,film_03s.jpg,milk_02s.jpg,,,,,,,,,,,,,0.0,3.0,3.0,3.0,1.0,,,,,
,,,,,,,,,1.0,,,27,0.0,0.0,1.23643,,,,,,plug_08s.jpg,seagull_01b.jpg,,,,,,,,,,,,,0.0,4.0,4.0,4.0,1.0,,,,,
,,,,,,,,,0.0,,,27,0.0,1.0,0.808255,,,,,,foam_03s.jpg,tomato_sauce_09s.jpg,,,,,,,,,,,,,0.0,5.0,5.0,5.0,1.0,,,,,
,,,,,,,,,,,,27,,,,,,,,,,,,,,,,clock_present_1_1.xlsx,clock_compare_task_1_1.xlsx,,,,,,,,,,,0.0,0.0,0.0,0.0,1.0
0.0,1.0,2.332635,,,,,,mold2_04s.jpg,0.0,clock_6_1.png,1.0,27,,,,,,,,,,,,,,,,,,0.0,0.0,0.0,0.0,1.0,,,,,,,,,,
1.0,1.0,0.665175,,,,,,mold2_04s.jpg,1.0,clock_6_2.png,1.0,27,,,,,,,,,,,,,,,,,,0.0,1.0,1.0,1.0,1.0,,,,,,,,,,
0.0,1.0,0.9975,,,,,,pomegranate_04s.jpg,0.0,clock_6_3.png,1.0,27,,,,,,,,,,,,,,,,,,0.0,2.0,2.0,2.0,1.0,,,,,,,,,,
0.0,1.0,0.857935,,,,,,treadmill_06s.jpg,0.0,clock_6_4.png,1.0,27,,,,,,,,,,,,,,,,,,0.0,3.0,3.0,3.0,1.0,,,,,,,,,,
0.0,1.0,0.823285,,,,,,candy_cane_06s.jpg,0.0,clock_6_5.png,1.0,27,,,,,,,,,,,,,,,,,,0.0,4.0,4.0,4.0,1.0,,,,,,,,,,
0.0,1.0,0.556675,,,,,,crate_05s.jpg,0.0,clock_6_6.png,1.0,27,,,,,,,,,,,,,,,,,,0.0,5.0,5.0,5.0,1.0,,,,,,,,,,
0.0,1.0,0.609015,,,,,,powder_07s.jpg,0.0,clock_5_1.png,2.0,27,,,,,,,,,,,,,,,,,,0.0,6.0,6.0,6.0,1.0,,,,,,,,,,
0.0,1.0,1.198415,,,,,,glasses01a.jpg,0.0,clock_5_2.png,2.0,27,,,,,,,,,,,,,,,,,,0.0,7.0,7.0,7.0,1.0,,,,,,,,,,
0.0,1.0,0.683085,,,,,,footprint_11s.jpg,0.0,clock_5_3.png,2.0,27,,,,,,,,,,,,,,,,,,0.0,8.0,8.0,8.0,1.0,,,,,,,,,,
0.0,1.0,0.599945,,,,,,petri_dish_12s.jpg,0.0,clock_5_4.png,2.0,27,,,,,,,,,,,,,,,,,,0.0,9.0,9.0,9.0,1.0,,,,,,,,,,
0.0,1.0,0.565435,,,,,,reindeer_08s.jpg,0.0,clock_5_5.png,2.0,27,,,,,,,,,,,,,,,,,,0.0,10.0,10.0,10.0,1.0,,,,,,,,,,
0.0,1.0,0.858055,,,,,,ice_pack_09s.jpg,0.0,clock_6_1.png,3.0,27,,,,,,,,,,,,,,,,,,0.0,11.0,11.0,11.0,1.0,,,,,,,,,,
0.0,1.0,1.08754,,,,,,ostrich_06s.jpg,0.0,clock_6_2.png,3.0,27,,,,,,,,,,,,,,,,,,0.0,12.0,12.0,12.0,1.0,,,,,,,,,,
0.0,1.0,0.772055,,,,,,aluminum_foil_08s.jpg,0.0,clock_6_3.png,3.0,27,,,,,,,,,,,,,,,,,,0.0,13.0,13.0,13.0,1.0,,,,,,,,,,
0.0,1.0,0.904865,,,,,,refrigerator_07s.jpg,0.0,clock_6_4.png,3.0,27,,,,,,,,,,,,,,,,,,0.0,14.0,14.0,14.0,1.0,,,,,,,,,,
0.0,1.0,1.13312,,,,,,luggage_08s.jpg,0.0,clock_6_5.png,3.0,27,,,,,,,,,,,,,,,,,,0.0,15.0,15.0,15.0,1.0,,,,,,,,,,
0.0,1.0,1.722675,,,,,,raspberry_12s.jpg,0.0,clock_6_6.png,3.0,27,,,,,,,,,,,,,,,,,,0.0,16.0,16.0,16.0,1.0,,,,,,,,,,
0.0,1.0,0.729545,,,,,,rock_08s.jpg,0.0,clock_7_1.png,4.0,27,,,,,,,,,,,,,,,,,,0.0,17.0,17.0,17.0,1.0,,,,,,,,,,
0.0,0.0,0.74939,,,,,,rock_08s.jpg,1.0,clock_7_2.png,4.0,27,,,,,,,,,,,,,,,,,,0.0,18.0,18.0,18.0,1.0,,,,,,,,,,
1.0,1.0,0.85046,,,,,,rock_08s.jpg,1.0,clock_7_3.png,4.0,27,,,,,,,,,,,,,,,,,,0.0,19.0,19.0,19.0,1.0,,,,,,,,,,
0.0,1.0,0.83088,,,,,,pancake_12s.jpg,0.0,clock_7_4.png,4.0,27,,,,,,,,,,,,,,,,,,0.0,20.0,20.0,20.0,1.0,,,,,,,,,,
0.0,1.0,1.21909,,,,,,typewriter_11s.jpg,0.0,clock_7_5.png,4.0,27,,,,,,,,,,,,,,,,,,0.0,21.0,21.0,21.0,1.0,,,,,,,,,,
0.0,1.0,1.27282,,,,,,money_07s.jpg,0.0,clock_7_6.png,4.0,27,,,,,,,,,,,,,,,,,,0.0,22.0,22.0,22.0,1.0,,,,,,,,,,
0.0,1.0,1.03761,,,,,,kangaroo_02s.jpg,0.0,clock_7_7.png,4.0,27,,,,,,,,,,,,,,,,,,0.0,23.0,23.0,23.0,1.0,,,,,,,,,,
0.0,1.0,0.890015,,,,,,quad_04s.jpg,0.0,clock_7_1.png,5.0,27,,,,,,,,,,,,,,,,,,0.0,24.0,24.0,24.0,1.0,,,,,,,,,,
0.0,1.0,1.215295,,,,,,flip_flop_03s.jpg,0.0,clock_7_2.png,5.0,27,,,,,,,,,,,,,,,,,,0.0,25.0,25.0,25.0,1.0,,,,,,,,,,
0.0,1.0,0.813385,,,,,,typewriter_11s.jpg,0.0,clock_7_3.png,5.0,27,,,,,,,,,,,,,,,,,,0.0,26.0,26.0,26.0,1.0,,,,,,,,,,
1.0,1.0,0.833965,,,,,,flip_flop_03s.jpg,1.0,clock_7_4.png,5.0,27,,,,,,,,,,,,,,,,,,0.0,27.0,27.0,27.0,1.0,,,,,,,,,,
0.0,1.0,0.8214,,,,,,antenna_01b.jpg,0.0,clock_7_5.png,5.0,27,,,,,,,,,,,,,,,,,,0.0,28.0,28.0,28.0,1.0,,,,,,,,,,
0.0,1.0,0.88318,,,,,,quill_09s.jpg,0.0,clock_7_6.png,5.0,27,,,,,,,,,,,,,,,,,,0.0,29.0,29.0,29.0,1.0,,,,,,,,,,
0.0,1.0,0.92945,,,,,,cap_05s.jpg,0.0,clock_7_7.png,5.0,27,,,,,,,,,,,,,,,,,,0.0,30.0,30.0,30.0,1.0,,,,,,,,,,
0.0,1.0,0.788115,,,,,,toilet_07s.jpg,0.0,clock_5_1.png,6.0,27,,,,,,,,,,,,,,,,,,0.0,31.0,31.0,31.0,1.0,,,,,,,,,,
0.0,1.0,1.69045,,,,,,mitten_10s.jpg,0.0,clock_5_2.png,6.0,27,,,,,,,,,,,,,,,,,,0.0,32.0,32.0,32.0,1.0,,,,,,,,,,
0.0,1.0,0.695995,,,,,,fire_pit_10s.jpg,0.0,clock_5_3.png,6.0,27,,,,,,,,,,,,,,,,,,0.0,33.0,33.0,33.0,1.0,,,,,,,,,,
0.0,1.0,0.572505,,,,,,flip_flop_03s.jpg,0.0,clock_5_4.png,6.0,27,,,,,,,,,,,,,,,,,,0.0,34.0,34.0,34.0,1.0,,,,,,,,,,
0.0,1.0,0.464335,,,,,,beard_16s.jpg,0.0,clock_5_5.png,6.0,27,,,,,,,,,,,,,,,,,,0.0,35.0,35.0,35.0,1.0,,,,,,,,,,
,,,,,,,,,1.0,,,27,1.0,1.0,0.81769,,,,,,antenna_01b.jpg,toilet_07s.jpg,,,,,,,,,,,,,0.0,0.0,0.0,0.0,1.0,,,,,
,,,,,,,,,1.0,,,27,0.0,0.0,1.357285,,,,,,cap_05s.jpg,fire_pit_10s.jpg,,,,,,,,,,,,,0.0,1.0,1.0,1.0,1.0,,,,,
,,,,,,,,,0.0,,,27,0.0,1.0,1.035805,,,,,,powder_07s.jpg,treadmill_06s.jpg,,,,,,,,,,,,,0.0,2.0,2.0,2.0,1.0,,,,,
,,,,,,,,,1.0,,,27,0.0,0.0,0.919425,,,,,,pancake_12s.jpg,kangaroo_02s.jpg,,,,,,,,,,,,,0.0,3.0,3.0,3.0,1.0,,,,,
,,,,,,,,,0.0,,,27,1.0,0.0,0.647775,,,,,,crate_05s.jpg,pomegranate_04s.jpg,,,,,,,,,,,,,0.0,4.0,4.0,4.0,1.0,,,,,
,,,,,,,,,0.0,,,27,0.0,1.0,0.905965,,,,,,refrigerator_07s.jpg,ice_pack_09s.jpg,,,,,,,,,,,,,0.0,5.0,5.0,5.0,1.0,,,,,
,,,,,,,,,,,,27,,,,,,,,,,,,,,,,clock_present_2_1.xlsx,clock_compare_task_2_1.xlsx,,,,,,,,,,,0.0,1.0,1.0,1.0,1.0
0.0,1.0,0.76786,,,,,,chip_04s.jpg,0.0,clock_7_1.png,1.0,27,,,,,,,,,,,,,,,,,,0.0,0.0,0.0,0.0,1.0,,,,,,,,,,
0.0,1.0,0.574155,,,,,,orchid_01b.jpg,0.0,clock_7_2.png,1.0,27,,,,,,,,,,,,,,,,,,0.0,1.0,1.0,1.0,1.0,,,,,,,,,,
0.0,1.0,0.474935,,,,,,boar_10s.jpg,0.0,clock_7_3.png,1.0,27,,,,,,,,,,,,,,,,,,0.0,2.0,2.0,2.0,1.0,,,,,,,,,,
0.0,1.0,0.68035,,,,,,smoothie_09s.jpg,0.0,clock_7_4.png,1.0,27,,,,,,,,,,,,,,,,,,0.0,3.0,3.0,3.0,1.0,,,,,,,,,,
1.0,1.0,1.30098,,,,,,boar_10s.jpg,1.0,clock_7_5.png,1.0,27,,,,,,,,,,,,,,,,,,0.0,4.0,4.0,4.0,1.0,,,,,,,,,,
0.0,1.0,1.00162,,,,,,ruby_15s.jpg,0.0,clock_7_6.png,1.0,27,,,,,,,,,,,,,,,,,,0.0,5.0,5.0,5.0,1.0,,,,,,,,,,
0.0,1.0,1.222575,,,,,,crab_16s.jpg,0.0,clock_7_7.png,1.0,27,,,,,,,,,,,,,,,,,,0.0,6.0,6.0,6.0,1.0,,,,,,,,,,
0.0,1.0,0.413795,,,,,,lamb_chop_07s.jpg,0.0,clock_5_1.png,2.0,27,,,,,,,,,,,,,,,,,,0.0,7.0,7.0,7.0,1.0,,,,,,,,,,
0.0,1.0,1.08065,,,,,,moth_06n.jpg,0.0,clock_5_2.png,2.0,27,,,,,,,,,,,,,,,,,,0.0,8.0,8.0,8.0,1.0,,,,,,,,,,
1.0,1.0,0.813945,,,,,,moth_06n.jpg,1.0,clock_5_3.png,2.0,27,,,,,,,,,,,,,,,,,,0.0,9.0,9.0,9.0,1.0,,,,,,,,,,
0.0,1.0,0.810285,,,,,,bee_20s.jpg,0.0,clock_5_4.png,2.0,27,,,,,,,,,,,,,,,,,,0.0,10.0,10.0,10.0,1.0,,,,,,,,,,
0.0,1.0,0.91308,,,,,,tambourine_06s.jpg,0.0,clock_5_5.png,2.0,27,,,,,,,,,,,,,,,,,,0.0,11.0,11.0,11.0,1.0,,,,,,,,,,
0.0,1.0,0.69155,,,,,,rolling_pin_02s.jpg,0.0,clock_7_1.png,3.0,27,,,,,,,,,,,,,,,,,,0.0,12.0,12.0,12.0,1.0,,,,,,,,,,
0.0,1.0,0.563755,,,,,,soda_fountain_03s.jpg,0.0,clock_7_2.png,3.0,27,,,,,,,,,,,,,,,,,,0.0,13.0,13.0,13.0,1.0,,,,,,,,,,
1.0,1.0,1.967195,,,,,,soda_fountain_03s.jpg,1.0,clock_7_3.png,3.0,27,,,,,,,,,,,,,,,,,,0.0,14.0,14.0,14.0,1.0,,,,,,,,,,
0.0,1.0,1.17098,,,,,,muffin_12n.jpg,0.0,clock_7_4.png,3.0,27,,,,,,,,,,,,,,,,,,0.0,15.0,15.0,15.0,1.0,,,,,,,,,,
0.0,1.0,0.839805,,,,,,harpoon.jpg,0.0,clock_7_5.png,3.0,27,,,,,,,,,,,,,,,,,,0.0,16.0,16.0,16.0,1.0,,,,,,,,,,
0.0,1.0,1.109315,,,,,,taxi_15s.jpg,0.0,clock_7_6.png,3.0,27,,,,,,,,,,,,,,,,,,0.0,17.0,17.0,17.0,1.0,,,,,,,,,,
0.0,1.0,1.089795,,,,,,emerald_02s.jpg,0.0,clock_7_7.png,3.0,27,,,,,,,,,,,,,,,,,,0.0,18.0,18.0,18.0,1.0,,,,,,,,,,
0.0,1.0,1.303165,,,,,,rabbit_03s.jpg,0.0,clock_5_1.png,4.0,27,,,,,,,,,,,,,,,,,,0.0,19.0,19.0,19.0,1.0,,,,,,,,,,
0.0,1.0,1.403725,,,,,,key_07s.jpg,0.0,clock_5_2.png,4.0,27,,,,,,,,,,,,,,,,,,0.0,20.0,20.0,20.0,1.0,,,,,,,,,,
0.0,1.0,1.44134,,,,,,amber_04s.jpg,0.0,clock_5_3.png,4.0,27,,,,,,,,,,,,,,,,,,0.0,21.0,21.0,21.0,1.0,,,,,,,,,,
0.0,1.0,2.2958,,,,,,tambourine_06s.jpg,0.0,clock_5_4.png,4.0,27,,,,,,,,,,,,,,,,,,0.0,22.0,22.0,22.0,1.0,,,,,,,,,,
0.0,1.0,1.738695,,,,,,mascara_03s.jpg,0.0,clock_5_5.png,4.0,27,,,,,,,,,,,,,,,,,,0.0,23.0,23.0,23.0,1.0,,,,,,,,,,
0.0,1.0,1.6152,,,,,,chime_12s.jpg,0.0,clock_6_1.png,5.0,27,,,,,,,,,,,,,,,,,,0.0,24.0,24.0,24.0,1.0,,,,,,,,,,
,0.0,,,,,,,chime_12s.jpg,1.0,clock_6_2.png,5.0,27,,,,,,,,,,,,,,,,,,0.0,25.0,25.0,25.0,1.0,,,,,,,,,,
0.0,1.0,1.64137,,,,,,rudder_02s.jpg,0.0,clock_6_3.png,5.0,27,,,,,,,,,,,,,,,,,,0.0,26.0,26.0,26.0,1.0,,,,,,,,,,
0.0,1.0,2.206515,,,,,,purse_05s.jpg,0.0,clock_6_4.png,5.0,27,,,,,,,,,,,,,,,,,,0.0,27.0,27.0,27.0,1.0,,,,,,,,,,
0.0,1.0,2.28441,,,,,,mixer_12s.jpg,0.0,clock_6_5.png,5.0,27,,,,,,,,,,,,,,,,,,0.0,28.0,28.0,28.0,1.0,,,,,,,,,,
0.0,1.0,2.15222,,,,,,popcorn_09s.jpg,0.0,clock_6_6.png,5.0,27,,,,,,,,,,,,,,,,,,0.0,29.0,29.0,29.0,1.0,,,,,,,,,,
0.0,1.0,1.479165,,,,,,lamb_04s.jpg,0.0,clock_6_1.png,6.0,27,,,,,,,,,,,,,,,,,,0.0,30.0,30.0,30.0,1.0,,,,,,,,,,
0.0,1.0,1.442525,,,,,,ruby_15s.jpg,0.0,clock_6_2.png,6.0,27,,,,,,,,,,,,,,,,,,0.0,31.0,31.0,31.0,1.0,,,,,,,,,,
0.0,1.0,0.7308,,,,,,moth_06n.jpg,0.0,clock_6_3.png,6.0,27,,,,,,,,,,,,,,,,,,0.0,32.0,32.0,32.0,1.0,,,,,,,,,,
0.0,1.0,1.83676,,,,,,clover_04s.jpg,0.0,clock_6_4.png,6.0,27,,,,,,,,,,,,,,,,,,0.0,33.0,33.0,33.0,1.0,,,,,,,,,,
1.0,1.0,1.409695,,,,,,clover_04s.jpg,1.0,clock_6_5.png,6.0,27,,,,,,,,,,,,,,,,,,0.0,34.0,34.0,34.0,1.0,,,,,,,,,,
0.0,1.0,0.574225,,,,,,juicer1_08s.jpg,0.0,clock_6_6.png,6.0,27,,,,,,,,,,,,,,,,,,0.0,35.0,35.0,35.0,1.0,,,,,,,,,,
,,,,,,,,,1.0,,,27,0.0,0.0,0.92421,,,,,,harpoon.jpg,rabbit_03s.jpg,,,,,,,,,,,,,0.0,0.0,0.0,0.0,1.0,,,,,
,,,,,,,,,1.0,,,27,1.0,1.0,0.76011,,,,,,purse_05s.jpg,lamb_04s.jpg,,,,,,,,,,,,,0.0,1.0,1.0,1.0,1.0,,,,,
,,,,,,,,,1.0,,,27,0.0,0.0,0.638805,,,,,,taxi_15s.jpg,key_07s.jpg,,,,,,,,,,,,,0.0,2.0,2.0,2.0,1.0,,,,,
,,,,,,,,,1.0,,,27,1.0,1.0,0.76507,,,,,,chip_04s.jpg,smoothie_09s.jpg,,,,,,,,,,,,,0.0,3.0,3.0,3.0,1.0,,,,,
,,,,,,,,,1.0,,,27,1.0,1.0,1.360155,,,,,,lamb_chop_07s.jpg,bee_20s.jpg,,,,,,,,,,,,,0.0,4.0,4.0,4.0,1.0,,,,,
,,,,,,,,,0.0,,,27,1.0,0.0,1.127105,,,,,,muffin_12n.jpg,rolling_pin_02s.jpg,,,,,,,,,,,,,0.0,5.0,5.0,5.0,1.0,,,,,
,,,,,,,,,,,,27,,,,,,,,,,,,,,,,clock_present_3_1.xlsx,clock_compare_task_3_1.xlsx,,,,,,,,,,,0.0,2.0,2.0,2.0,1.0
0.0,1.0,0.828395,,,,,,keyboard_05s.jpg,0.0,clock_6_1.png,1.0,27,,,,,,,,,,,,,,,,,,0.0,0.0,0.0,0.0,1.0,,,,,,,,,,
0.0,1.0,0.90685,,,,,,panda_02s.jpg,0.0,clock_6_2.png,1.0,27,,,,,,,,,,,,,,,,,,0.0,1.0,1.0,1.0,1.0,,,,,,,,,,
0.0,1.0,0.44832,,,,,,limousine_12s.jpg,0.0,clock_6_3.png,1.0,27,,,,,,,,,,,,,,,,,,0.0,2.0,2.0,2.0,1.0,,,,,,,,,,
0.0,1.0,1.12475,,,,,,icemaker_10s.jpg,0.0,clock_6_4.png,1.0,27,,,,,,,,,,,,,,,,,,0.0,3.0,3.0,3.0,1.0,,,,,,,,,,
0.0,1.0,1.12995,,,,,,safety_pin_02s.jpg,0.0,clock_6_5.png,1.0,27,,,,,,,,,,,,,,,,,,0.0,4.0,4.0,4.0,1.0,,,,,,,,,,
0.0,1.0,1.150455,,,,,,pump_11s.jpg,0.0,clock_6_6.png,1.0,27,,,,,,,,,,,,,,,,,,0.0,5.0,5.0,5.0,1.0,,,,,,,,,,
0.0,1.0,1.524845,,,,,,swimming_pool_17s.jpg,0.0,clock_5_1.png,2.0,27,,,,,,,,,,,,,,,,,,0.0,6.0,6.0,6.0,1.0,,,,,,,,,,
0.0,1.0,0.36757,,,,,,stethoscope_01b.jpg,0.0,clock_5_2.png,2.0,27,,,,,,,,,,,,,,,,,,0.0,7.0,7.0,7.0,1.0,,,,,,,,,,
1.0,1.0,1.221175,,,,,,stethoscope_01b.jpg,1.0,clock_5_3.png,2.0,27,,,,,,,,,,,,,,,,,,0.0,8.0,8.0,8.0,1.0,,,,,,,,,,
1.0,1.0,1.226705,,,,,,swimming_pool_17s.jpg,1.0,clock_5_4.png,2.0,27,,,,,,,,,,,,,,,,,,0.0,9.0,9.0,9.0,1.0,,,,,,,,,,
0.0,1.0,1.055225,,,,,,lectern_08s.jpg,0.0,clock_5_5.png,2.0,27,,,,,,,,,,,,,,,,,,0.0,10.0,10.0,10.0,1.0,,,,,,,,,,
0.0,1.0,1.34083,,,,,,scooter.jpg,0.0,clock_6_1.png,3.0,27,,,,,,,,,,,,,,,,,,0.0,11.0,11.0,11.0,1.0,,,,,,,,,,
0.0,1.0,1.232895,,,,,,fire_alarm_05s.jpg,0.0,clock_6_2.png,3.0,27,,,,,,,,,,,,,,,,,,0.0,12.0,12.0,12.0,1.0,,,,,,,,,,
0.0,1.0,1.26266,,,,,,keyboard_05s.jpg,0.0,clock_6_3.png,3.0,27,,,,,,,,,,,,,,,,,,0.0,13.0,13.0,13.0,1.0,,,,,,,,,,
0.0,1.0,1.06706,,,,,,mailbox_11s.jpg,0.0,clock_6_4.png,3.0,27,,,,,,,,,,,,,,,,,,0.0,14.0,14.0,14.0,1.0,,,,,,,,,,
0.0,1.0,0.86415,,,,,,piano_13n.jpg,0.0,clock_6_5.png,3.0,27,,,,,,,,,,,,,,,,,,0.0,15.0,15.0,15.0,1.0,,,,,,,,,,
0.0,1.0,1.13356,,,,,,cobra_05s.jpg,0.0,clock_6_6.png,3.0,27,,,,,,,,,,,,,,,,,,0.0,16.0,16.0,16.0,1.0,,,,,,,,,,
0.0,1.0,1.095565,,,,,,denture_03s.jpg,0.0,clock_5_1.png,4.0,27,,,,,,,,,,,,,,,,,,0.0,17.0,17.0,17.0,1.0,,,,,,,,,,
0.0,1.0,0.91747,,,,,,go-kart_10s.jpg,0.0,clock_5_2.png,4.0,27,,,,,,,,,,,,,,,,,,0.0,18.0,18.0,18.0,1.0,,,,,,,,,,
0.0,0.0,1.18026,,,,,,denture_03s.jpg,1.0,clock_5_3.png,4.0,27,,,,,,,,,,,,,,,,,,0.0,19.0,19.0,19.0,1.0,,,,,,,,,,
0.0,1.0,0.89331,,,,,,ironing_board_07s.jpg,0.0,clock_5_4.png,4.0,27,,,,,,,,,,,,,,,,,,0.0,20.0,20.0,20.0,1.0,,,,,,,,,,
0.0,1.0,1.338325,,,,,,bubble_01b.jpg,0.0,clock_5_5.png,4.0,27,,,,,,,,,,,,,,,,,,0.0,21.0,21.0,21.0,1.0,,,,,,,,,,
0.0,1.0,0.742665,,,,,,pipe1_10s.jpg,0.0,clock_7_1.png,5.0,27,,,,,,,,,,,,,,,,,,0.0,22.0,22.0,22.0,1.0,,,,,,,,,,
0.0,1.0,0.596805,,,,,,golf_club_03s.jpg,0.0,clock_7_2.png,5.0,27,,,,,,,,,,,,,,,,,,0.0,23.0,23.0,23.0,1.0,,,,,,,,,,
0.0,1.0,0.585255,,,,,,tweezers_03s.jpg,0.0,clock_7_3.png,5.0,27,,,,,,,,,,,,,,,,,,0.0,24.0,24.0,24.0,1.0,,,,,,,,,,
1.0,1.0,1.19045,,,,,,pipe1_10s.jpg,1.0,clock_7_4.png,5.0,27,,,,,,,,,,,,,,,,,,0.0,25.0,25.0,25.0,1.0,,,,,,,,,,
1.0,1.0,1.23488,,,,,,tweezers_03s.jpg,1.0,clock_7_5.png,5.0,27,,,,,,,,,,,,,,,,,,0.0,26.0,26.0,26.0,1.0,,,,,,,,,,
0.0,1.0,0.93615,,,,,,keyboard_05s.jpg,0.0,clock_7_6.png,5.0,27,,,,,,,,,,,,,,,,,,0.0,27.0,27.0,27.0,1.0,,,,,,,,,,
0.0,1.0,0.972585,,,,,,camcorder_10s.jpg,0.0,clock_7_7.png,5.0,27,,,,,,,,,,,,,,,,,,0.0,28.0,28.0,28.0,1.0,,,,,,,,,,
0.0,1.0,0.996585,,,,,,padlock_07s.jpg,0.0,clock_7_1.png,6.0,27,,,,,,,,,,,,,,,,,,0.0,29.0,29.0,29.0,1.0,,,,,,,,,,
0.0,1.0,0.80732,,,,,,bubble_01b.jpg,0.0,clock_7_2.png,6.0,27,,,,,,,,,,,,,,,,,,0.0,30.0,30.0,30.0,1.0,,,,,,,,,,
0.0,1.0,0.68397,,,,,,pan_02s.jpg,0.0,clock_7_3.png,6.0,27,,,,,,,,,,,,,,,,,,0.0,31.0,31.0,31.0,1.0,,,,,,,,,,
0.0,1.0,1.90445,,,,,,turf_03s.jpg,0.0,clock_7_4.png,6.0,27,,,,,,,,,,,,,,,,,,0.0,32.0,32.0,32.0,1.0,,,,,,,,,,
0.0,1.0,0.81343,,,,,,sundae_08s.jpg,0.0,clock_7_5.png,6.0,27,,,,,,,,,,,,,,,,,,0.0,33.0,33.0,33.0,1.0,,,,,,,,,,
0.0,1.0,0.796865,,,,,,jersey_02s.jpg,0.0,clock_7_6.png,6.0,27,,,,,,,,,,,,,,,,,,0.0,34.0,34.0,34.0,1.0,,,,,,,,,,
0.0,1.0,0.808105,,,,,,peppermint_07s.jpg,0.0,clock_7_7.png,6.0,27,,,,,,,,,,,,,,,,,,0.0,35.0,35.0,35.0,1.0,,,,,,,,,,
,,,,,,,,,0.0,,,27,1.0,0.0,1.04844,,,,,,golf_club_03s.jpg,ironing_board_07s.jpg,,,,,,,,,,,,,0.0,0.0,0.0,0.0,1.0,,,,,
,,,,,,,,,1.0,,,27,1.0,1.0,1.203135,,,,,,piano_13n.jpg,go-kart_10s.jpg,,,,,,,,,,,,,0.0,1.0,1.0,1.0,1.0,,,,,
,,,,,,,,,1.0,,,27,0.0,0.0,0.831605,,,,,,camcorder_10s.jpg,pan_02s.jpg,,,,,,,,,,,,,0.0,2.0,2.0,2.0,1.0,,,,,
,,,,,,,,,1.0,,,27,1.0,1.0,0.898985,,,,,,panda_02s.jpg,safety_pin_02s.jpg,,,,,,,,,,,,,0.0,3.0,3.0,3.0,1.0,,,,,
,,,,,,,,,0.0,,,27,1.0,0.0,0.843825,,,,,,pump_11s.jpg,limousine_12s.jpg,,,,,,,,,,,,,0.0,4.0,4.0,4.0,1.0,,,,,
,,,,,,,,,1.0,,,27,0.0,0.0,0.74304,,,,,,scooter.jpg,mailbox_11s.jpg,,,,,,,,,,,,,0.0,5.0,5.0,5.0,1.0,,,,,
,,,,,,,,,,,,27,,,,,,,,,,,,,,,,clock_present_4_1.xlsx,clock_compare_task_4_1.xlsx,,,,,,,,,,,0.0,3.0,3.0,3.0,1.0
0.0,1.0,0.825385,,,,,,pacifier_09s.jpg,0.0,clock_5_1.png,1.0,27,,,,,,,,,,,,,,,,,,0.0,0.0,0.0,0.0,1.0,,,,,,,,,,
0.0,1.0,0.88813,,,,,,thorn_13s.jpg,0.0,clock_5_2.png,1.0,27,,,,,,,,,,,,,,,,,,0.0,1.0,1.0,1.0,1.0,,,,,,,,,,
1.0,1.0,0.789125,,,,,,pacifier_09s.jpg,1.0,clock_5_3.png,1.0,27,,,,,,,,,,,,,,,,,,0.0,2.0,2.0,2.0,1.0,,,,,,,,,,
0.0,1.0,0.641685,,,,,,stump_02s.jpg,0.0,clock_5_4.png,1.0,27,,,,,,,,,,,,,,,,,,0.0,3.0,3.0,3.0,1.0,,,,,,,,,,
0.0,1.0,0.790445,,,,,,peanut_butter_08s.jpg,0.0,clock_5_5.png,1.0,27,,,,,,,,,,,,,,,,,,0.0,4.0,4.0,4.0,1.0,,,,,,,,,,
0.0,1.0,0.97848,,,,,,mussel_11s.jpg,0.0,clock_6_1.png,2.0,27,,,,,,,,,,,,,,,,,,0.0,5.0,5.0,5.0,1.0,,,,,,,,,,
0.0,1.0,0.78426,,,,,,rope_16s.jpg,0.0,clock_6_2.png,2.0,27,,,,,,,,,,,,,,,,,,0.0,6.0,6.0,6.0,1.0,,,,,,,,,,
0.0,1.0,1.75685,,,,,,hummingbird_05s.jpg,0.0,clock_6_3.png,2.0,27,,,,,,,,,,,,,,,,,,0.0,7.0,7.0,7.0,1.0,,,,,,,,,,
0.0,1.0,1.265085,,,,,,rooster_03s.jpg,0.0,clock_6_4.png,2.0,27,,,,,,,,,,,,,,,,,,0.0,8.0,8.0,8.0,1.0,,,,,,,,,,
0.0,1.0,0.73064,,,,,,towel_rack_04s.jpg,0.0,clock_6_5.png,2.0,27,,,,,,,,,,,,,,,,,,0.0,9.0,9.0,9.0,1.0,,,,,,,,,,
0.0,1.0,0.620405,,,,,,kite_04s.jpg,0.0,clock_6_6.png,2.0,27,,,,,,,,,,,,,,,,,,0.0,10.0,10.0,10.0,1.0,,,,,,,,,,
0.0,1.0,1.00959,,,,,,keyhole_03s.jpg,0.0,clock_7_1.png,3.0,27,,,,,,,,,,,,,,,,,,0.0,11.0,11.0,11.0,1.0,,,,,,,,,,
0.0,1.0,0.90102,,,,,,megaphone_03s.jpg,0.0,clock_7_2.png,3.0,27,,,,,,,,,,,,,,,,,,0.0,12.0,12.0,12.0,1.0,,,,,,,,,,
0.0,1.0,1.082965,,,,,,lasagna_06s.jpg,0.0,clock_7_3.png,3.0,27,,,,,,,,,,,,,,,,,,0.0,13.0,13.0,13.0,1.0,,,,,,,,,,
0.0,1.0,0.806355,,,,,,frame_06s.jpg,0.0,clock_7_4.png,3.0,27,,,,,,,,,,,,,,,,,,0.0,14.0,14.0,14.0,1.0,,,,,,,,,,
0.0,1.0,0.85205,,,,,,puddle_02s.jpg,0.0,clock_7_5.png,3.0,27,,,,,,,,,,,,,,,,,,0.0,15.0,15.0,15.0,1.0,,,,,,,,,,
1.0,0.0,1.64631,,,,,,stump_02s.jpg,0.0,clock_7_6.png,3.0,27,,,,,,,,,,,,,,,,,,0.0,16.0,16.0,16.0,1.0,,,,,,,,,,
0.0,1.0,1.113045,,,,,,plunger_08s.jpg,0.0,clock_7_7.png,3.0,27,,,,,,,,,,,,,,,,,,0.0,17.0,17.0,17.0,1.0,,,,,,,,,,
0.0,1.0,1.275945,,,,,,gong_02s.jpg,0.0,clock_5_1.png,4.0,27,,,,,,,,,,,,,,,,,,0.0,18.0,18.0,18.0,1.0,,,,,,,,,,
0.0,1.0,1.208875,,,,,,potholder_02s.jpg,0.0,clock_5_2.png,4.0,27,,,,,,,,,,,,,,,,,,0.0,19.0,19.0,19.0,1.0,,,,,,,,,,
0.0,1.0,1.725645,,,,,,tape_measure_11s.jpg,0.0,clock_5_3.png,4.0,27,,,,,,,,,,,,,,,,,,0.0,20.0,20.0,20.0,1.0,,,,,,,,,,
0.0,1.0,1.098845,,,,,,kite_04s.jpg,0.0,clock_5_4.png,4.0,27,,,,,,,,,,,,,,,,,,0.0,21.0,21.0,21.0,1.0,,,,,,,,,,
0.0,1.0,1.607515,,,,,,gazelle_10s.jpg,0.0,clock_5_5.png,4.0,27,,,,,,,,,,,,,,,,,,0.0,22.0,22.0,22.0,1.0,,,,,,,,,,
0.0,1.0,1.23664,,,,,,ravioli_08s.jpg,0.0,clock_7_1.png,5.0,27,,,,,,,,,,,,,,,,,,0.0,23.0,23.0,23.0,1.0,,,,,,,,,,
0.0,1.0,1.465105,,,,,,soccer_ball_12s.jpg,0.0,clock_7_2.png,5.0,27,,,,,,,,,,,,,,,,,,0.0,24.0,24.0,24.0,1.0,,,,,,,,,,
0.0,1.0,1.999125,,,,,,tupperware_09s.jpg,0.0,clock_7_3.png,5.0,27,,,,,,,,,,,,,,,,,,0.0,25.0,25.0,25.0,1.0,,,,,,,,,,
,0.0,,,,,,,medal_04s.jpg,0.0,clock_7_4.png,5.0,27,,,,,,,,,,,,,,,,,,0.0,26.0,26.0,26.0,1.0,,,,,,,,,,
0.0,1.0,0.85694,,,,,,trumpet_06s.jpg,0.0,clock_7_5.png,5.0,27,,,,,,,,,,,,,,,,,,0.0,27.0,27.0,27.0,1.0,,,,,,,,,,
0.0,1.0,1.00532,,,,,,kettle_08s.jpg,0.0,clock_7_6.png,5.0,27,,,,,,,,,,,,,,,,,,0.0,28.0,28.0,28.0,1.0,,,,,,,,,,
0.0,1.0,1.795685,,,,,,tuxedo_01b.jpg,0.0,clock_7_7.png,5.0,27,,,,,,,,,,,,,,,,,,0.0,29.0,29.0,29.0,1.0,,,,,,,,,,
0.0,1.0,0.534875,,,,,,puffin_19s.jpg,0.0,clock_6_1.png,6.0,27,,,,,,,,,,,,,,,,,,0.0,30.0,30.0,30.0,1.0,,,,,,,,,,
0.0,1.0,1.316785,,,,,,tape_measure_11s.jpg,0.0,clock_6_2.png,6.0,27,,,,,,,,,,,,,,,,,,0.0,31.0,31.0,31.0,1.0,,,,,,,,,,
0.0,1.0,1.336325,,,,,,bathtub_23s.jpg,0.0,clock_6_3.png,6.0,27,,,,,,,,,,,,,,,,,,0.0,32.0,32.0,32.0,1.0,,,,,,,,,,
0.0,1.0,0.725645,,,,,,lip_gloss_06s.jpg,0.0,clock_6_4.png,6.0,27,,,,,,,,,,,,,,,,,,0.0,33.0,33.0,33.0,1.0,,,,,,,,,,
0.0,0.0,0.716145,,,,,,puffin_19s.jpg,1.0,clock_6_5.png,6.0,27,,,,,,,,,,,,,,,,,,0.0,34.0,34.0,34.0,1.0,,,,,,,,,,
0.0,1.0,1.439625,,,,,,swing_set_15s.jpg,0.0,clock_6_6.png,6.0,27,,,,,,,,,,,,,,,,,,0.0,35.0,35.0,35.0,1.0,,,,,,,,,,
,,,,,,,,,1.0,,,27,1.0,1.0,1.624105,,,,,,peanut_butter_08s.jpg,hummingbird_05s.jpg,,,,,,,,,,,,,0.0,0.0,0.0,0.0,1.0,,,,,
,,,,,,,,,1.0,,,27,0.0,0.0,0.781705,,,,,,puddle_02s.jpg,gong_02s.jpg,,,,,,,,,,,,,0.0,1.0,1.0,1.0,1.0,,,,,
,,,,,,,,,1.0,,,27,1.0,1.0,0.82306,,,,,,rooster_03s.jpg,keyhole_03s.jpg,,,,,,,,,,,,,0.0,2.0,2.0,2.0,1.0,,,,,
,,,,,,,,,0.0,,,27,1.0,0.0,1.004145,,,,,,plunger_08s.jpg,frame_06s.jpg,,,,,,,,,,,,,0.0,3.0,3.0,3.0,1.0,,,,,
,,,,,,,,,1.0,,,27,1.0,1.0,1.007885,,,,,,ravioli_08s.jpg,medal_04s.jpg,,,,,,,,,,,,,0.0,4.0,4.0,4.0,1.0,,,,,
,,,,,,,,,1.0,,,27,1.0,1.0,1.1812,,,,,,soccer_ball_12s.jpg,trumpet_06s.jpg,,,,,,,,,,,,,0.0,5.0,5.0,5.0,1.0,,,,,
,,,,,,,,,,,,27,,,,,,,,,,,,,,,,clock_present_5_1.xlsx,clock_compare_task_5_1.xlsx,,,,,,,,,,,0.0,4.0,4.0,4.0,1.0
0.0,1.0,1.092645,,,,,,orangutan_03s.jpg,0.0,clock_6_1.png,1.0,27,,,,,,,,,,,,,,,,,,0.0,0.0,0.0,0.0,1.0,,,,,,,,,,
1.0,1.0,0.846895,,,,,,orangutan_03s.jpg,1.0,clock_6_2.png,1.0,27,,,,,,,,,,,,,,,,,,0.0,1.0,1.0,1.0,1.0,,,,,,,,,,
1.0,1.0,0.64358,,,,,,orangutan_03s.jpg,1.0,clock_6_3.png,1.0,27,,,,,,,,,,,,,,,,,,0.0,2.0,2.0,2.0,1.0,,,,,,,,,,
0.0,1.0,1.080275,,,,,,trampoline_13s.jpg,0.0,clock_6_4.png,1.0,27,,,,,,,,,,,,,,,,,,0.0,3.0,3.0,3.0,1.0,,,,,,,,,,
1.0,1.0,1.85384,,,,,,orangutan_03s.jpg,1.0,clock_6_5.png,1.0,27,,,,,,,,,,,,,,,,,,0.0,4.0,4.0,4.0,1.0,,,,,,,,,,
0.0,1.0,0.657625,,,,,,jetski_10s.jpg,0.0,clock_6_6.png,1.0,27,,,,,,,,,,,,,,,,,,0.0,5.0,5.0,5.0,1.0,,,,,,,,,,
0.0,1.0,1.655295,,,,,,hydrant_10s.jpg,0.0,clock_6_1.png,2.0,27,,,,,,,,,,,,,,,,,,0.0,6.0,6.0,6.0,1.0,,,,,,,,,,
0.0,1.0,2.23634,,,,,,dashboard_02s.jpg,0.0,clock_6_2.png,2.0,27,,,,,,,,,,,,,,,,,,0.0,7.0,7.0,7.0,1.0,,,,,,,,,,
0.0,1.0,1.201005,,,,,,timer_03s.jpg,0.0,clock_6_3.png,2.0,27,,,,,,,,,,,,,,,,,,0.0,8.0,8.0,8.0,1.0,,,,,,,,,,
0.0,1.0,1.69512,,,,,,lid_10s.jpg,0.0,clock_6_4.png,2.0,27,,,,,,,,,,,,,,,,,,0.0,9.0,9.0,9.0,1.0,,,,,,,,,,
0.0,0.0,0.946865,,,,,,hydrant_10s.jpg,1.0,clock_6_5.png,2.0,27,,,,,,,,,,,,,,,,,,0.0,10.0,10.0,10.0,1.0,,,,,,,,,,
0.0,1.0,0.68066,,,,,,roulette_wheel_04s.jpg,0.0,clock_6_6.png,2.0,27,,,,,,,,,,,,,,,,,,0.0,11.0,11.0,11.0,1.0,,,,,,,,,,
0.0,1.0,0.46332,,,,,,throne_11s.jpg,0.0,clock_5_1.png,3.0,27,,,,,,,,,,,,,,,,,,0.0,12.0,12.0,12.0,1.0,,,,,,,,,,
1.0,1.0,1.441775,,,,,,throne_11s.jpg,1.0,clock_5_2.png,3.0,27,,,,,,,,,,,,,,,,,,0.0,13.0,13.0,13.0,1.0,,,,,,,,,,
0.0,1.0,1.246995,,,,,,kitten_07s.jpg,0.0,clock_5_3.png,3.0,27,,,,,,,,,,,,,,,,,,0.0,14.0,14.0,14.0,1.0,,,,,,,,,,
0.0,1.0,1.81965,,,,,,fireworks_18s.jpg,0.0,clock_5_4.png,3.0,27,,,,,,,,,,,,,,,,,,0.0,15.0,15.0,15.0,1.0,,,,,,,,,,
0.0,1.0,1.31264,,,,,,coral_08s.jpg,0.0,clock_5_5.png,3.0,27,,,,,,,,,,,,,,,,,,0.0,16.0,16.0,16.0,1.0,,,,,,,,,,
0.0,1.0,1.701725,,,,,,eyedropper_12s.jpg,0.0,clock_7_1.png,4.0,27,,,,,,,,,,,,,,,,,,0.0,17.0,17.0,17.0,1.0,,,,,,,,,,
0.0,1.0,0.77977,,,,,,paintbrush_04s.jpg,0.0,clock_7_2.png,4.0,27,,,,,,,,,,,,,,,,,,0.0,18.0,18.0,18.0,1.0,,,,,,,,,,
0.0,1.0,0.48823,,,,,,submarine_11n.jpg,0.0,clock_7_3.png,4.0,27,,,,,,,,,,,,,,,,,,0.0,19.0,19.0,19.0,1.0,,,,,,,,,,
0.0,1.0,1.19591,,,,,,comic_book_02s.jpg,0.0,clock_7_4.png,4.0,27,,,,,,,,,,,,,,,,,,0.0,20.0,20.0,20.0,1.0,,,,,,,,,,
0.0,1.0,0.89741,,,,,,insole_11s.jpg,0.0,clock_7_5.png,4.0,27,,,,,,,,,,,,,,,,,,0.0,21.0,21.0,21.0,1.0,,,,,,,,,,
0.0,0.0,0.590495,,,,,,insole_11s.jpg,1.0,clock_7_6.png,4.0,27,,,,,,,,,,,,,,,,,,0.0,22.0,22.0,22.0,1.0,,,,,,,,,,
0.0,1.0,1.667525,,,,,,rhinoceros_02s.jpg,0.0,clock_7_7.png,4.0,27,,,,,,,,,,,,,,,,,,0.0,23.0,23.0,23.0,1.0,,,,,,,,,,
0.0,1.0,1.84826,,,,,,sleeping_bag_12s.jpg,0.0,clock_5_1.png,5.0,27,,,,,,,,,,,,,,,,,,0.0,24.0,24.0,24.0,1.0,,,,,,,,,,
0.0,1.0,1.2961,,,,,,outlet_10s.jpg,0.0,clock_5_2.png,5.0,27,,,,,,,,,,,,,,,,,,0.0,25.0,25.0,25.0,1.0,,,,,,,,,,
0.0,1.0,1.04993,,,,,,potpourri_03s.jpg,0.0,clock_5_3.png,5.0,27,,,,,,,,,,,,,,,,,,0.0,26.0,26.0,26.0,1.0,,,,,,,,,,
0.0,1.0,2.198445,,,,,,stapler_01b.jpg,0.0,clock_5_4.png,5.0,27,,,,,,,,,,,,,,,,,,0.0,27.0,27.0,27.0,1.0,,,,,,,,,,
0.0,1.0,2.021025,,,,,,icicle_04s.jpg,0.0,clock_5_5.png,5.0,27,,,,,,,,,,,,,,,,,,0.0,28.0,28.0,28.0,1.0,,,,,,,,,,
0.0,1.0,1.368955,,,,,,teapot_03s.jpg,0.0,clock_7_1.png,6.0,27,,,,,,,,,,,,,,,,,,0.0,29.0,29.0,29.0,1.0,,,,,,,,,,
0.0,0.0,2.12927,,,,,,teapot_03s.jpg,1.0,clock_7_2.png,6.0,27,,,,,,,,,,,,,,,,,,0.0,30.0,30.0,30.0,1.0,,,,,,,,,,
1.0,1.0,1.96351,,,,,,teapot_03s.jpg,1.0,clock_7_3.png,6.0,27,,,,,,,,,,,,,,,,,,0.0,31.0,31.0,31.0,1.0,,,,,,,,,,
0.0,1.0,0.60805,,,,,,toilet_paper_12s.jpg,0.0,clock_7_4.png,6.0,27,,,,,,,,,,,,,,,,,,0.0,32.0,32.0,32.0,1.0,,,,,,,,,,
0.0,1.0,2.394995,,,,,,pretzel_09s.jpg,0.0,clock_7_5.png,6.0,27,,,,,,,,,,,,,,,,,,0.0,33.0,33.0,33.0,1.0,,,,,,,,,,
0.0,1.0,0.833975,,,,,,eggshell_14s.jpg,0.0,clock_7_6.png,6.0,27,,,,,,,,,,,,,,,,,,0.0,34.0,34.0,34.0,1.0,,,,,,,,,,
0.0,1.0,0.99126,,,,,,throne_11s.jpg,0.0,clock_7_7.png,6.0,27,,,,,,,,,,,,,,,,,,0.0,35.0,35.0,35.0,1.0,,,,,,,,,,
,,,,,,,,,0.0,,,27,0.0,1.0,1.397035,,,,,,paintbrush_04s.jpg,fireworks_18s.jpg,,,,,,,,,,,,,0.0,0.0,0.0,0.0,1.0,,,,,
,,,,,,,,,1.0,,,27,1.0,1.0,0.8559,,,,,,coral_08s.jpg,submarine_11n.jpg,,,,,,,,,,,,,0.0,1.0,1.0,1.0,1.0,,,,,
,,,,,,,,,1.0,,,27,0.0,0.0,0.843,,,,,,jetski_10s.jpg,timer_03s.jpg,,,,,,,,,,,,,0.0,2.0,2.0,2.0,1.0,,,,,
,,,,,,,,,0.0,,,27,1.0,0.0,0.774035,,,,,,stapler_01b.jpg,sleeping_bag_12s.jpg,,,,,,,,,,,,,0.0,3.0,3.0,3.0,1.0,,,,,
,,,,,,,,,1.0,,,27,0.0,0.0,0.852195,,,,,,outlet_10s.jpg,icicle_04s.jpg,,,,,,,,,,,,,0.0,4.0,4.0,4.0,1.0,,,,,
,,,,,,,,,0.0,,,27,0.0,1.0,1.247715,,,,,,comic_book_02s.jpg,eyedropper_12s.jpg,,,,,,,,,,,,,0.0,5.0,5.0,5.0,1.0,,,,,
