key_resp.keys,key_resp.corr,key_resp.rt,present_segment.thisRepN,present_segment.thisTrialN,present_segment.thisN,present_segment.thisIndex,present_segment.ran,pictures,answer,clock,segment,participant,key_resp_2.keys,key_resp_2.corr,key_resp_2.rt,compare_segment.thisRepN,compare_segment.thisTrialN,compare_segment.thisN,compare_segment.thisIndex,compare_segment.ran,item_a,item_b,clock_conditions.thisRepN,clock_conditions.thisTrialN,clock_conditions.thisN,clock_conditions.thisIndex,clock_conditions.ran,present,compare,noclock_present.thisRepN,noclock_present.thisTrialN,noclock_present.thisN,noclock_present.thisIndex,noclock_present.ran,noclock_compare.thisRepN,noclock_compare.thisTrialN,noclock_compare.thisN,noclock_compare.thisIndex,noclock_compare.ran,noclock_conditions.thisRepN,noclock_conditions.thisTrialN,noclock_conditions.thisN,noclock_conditions.thisIndex,noclock_conditions.ran
0.0,1.0,2.462,0.0,0.0,0.0,0.0,1.0,throne_11s.jpg,0.0,clock_7_1.png,1.0,71,,,,,,,,,,,,,,,,,,,,,,,,,,,,,,,,
0.0,1.0,2.213,0.0,1.0,1.0,1.0,1.0,swimming_pool_17s.jpg,0.0,clock_7_2.png,1.0,71,,,,,,,,,,,,,,,,,,,,,,,,,,,,,,,,
,0.0,,0.0,2.0,2.0,2.0,1.0,blowfish_03s.jpg,0.0,clock_7_3.png,1.0,71,,,,,,,,,,,,,,,,,,,,,,,,,,,,,,,,
,0.0,,0.0,3.0,3.0,3.0,1.0,throne_11s.jpg,1.0,clock_7_4.png,1.0,71,,,,,,,,,,,,,,,,,,,,,,,,,,,,,,,,
,0.0,,0.0,4.0,4.0,4.0,1.0,basket_05s.jpg,0.0,clock_7_5.png,1.0,71,,,,,,,,,,,,,,,,,,,,,,,,,,,,,,,,
,0.0,,0.0,5.0,5.0,5.0,1.0,rhubarb_03s.jpg,0.0,clock_7_6.png,1.0,71,,,,,,,,,,,,,,,,,,,,,,,,,,,,,,,,
,0.0,,0.0,6.0,6.0,6.0,1.0,throne_11s.jpg,1.0,clock_7_7.png,1.0,71,,,,,,,,,,,,,,,,,,,,,,,,,,,,,,,,
,0.0,,0.0,7.0,7.0,7.0,1.0,tupperware_09s.jpg,0.0,clock_5_1.png,2.0,71,,,,,,,,,,,,,,,,,,,,,,,,,,,,,,,,
,0.0,,0.0,8.0,8.0,8.0,1.0,seagull_01b.jpg,0.0,clock_5_2.png,2.0,71,,,,,,,,,,,,,,,,,,,,,,,,,,,,,,,,
0.0,1.0,1.165,0.0,9.0,9.0,9.0,1.0,kitten_07s.jpg,0.0,clock_5_3.png,2.0,71,,,,,,,,,,,,,,,,,,,,,,,,,,,,,,,,
0.0,1.0,1.486,0.0,10.0,10.0,10.0,1.0,crate_05s.jpg,0.0,clock_5_4.png,2.0,71,,,,,,,,,,,,,,,,,,,,,,,,,,,,,,,,
,0.0,,0.0,11.0,11.0,11.0,1.0,pocket_watch_16s.jpg,0.0,clock_5_5.png,2.0,71,,,,,,,,,,,,,,,,,,,,,,,,,,,,,,,,
0.0,1.0,2.188,0.0,12.0,12.0,12.0,1.0,pocketknife_12s.jpg,0.0,clock_6_1.png,3.0,71,,,,,,,,,,,,,,,,,,,,,,,,,,,,,,,,
0.0,1.0,0.781,0.0,13.0,13.0,13.0,1.0,jalapeno_15s.jpg,0.0,clock_6_2.png,3.0,71,,,,,,,,,,,,,,,,,,,,,,,,,,,,,,,,
1.0,0.0,2.236,0.0,14.0,14.0,14.0,1.0,tupperware_09s.jpg,0.0,clock_6_3.png,3.0,71,,,,,,,,,,,,,,,,,,,,,,,,,,,,,,,,
0.0,1.0,0.798,0.0,15.0,15.0,15.0,1.0,stapler_01b.jpg,0.0,clock_6_4.png,3.0,71,,,,,,,,,,,,,,,,,,,,,,,,,,,,,,,,
0.0,1.0,0.716,0.0,16.0,16.0,16.0,1.0,cap_05s.jpg,0.0,clock_6_5.png,3.0,71,,,,,,,,,,,,,,,,,,,,,,,,,,,,,,,,
0.0,1.0,0.582,0.0,17.0,17.0,17.0,1.0,lavender_10s.jpg,0.0,clock_6_6.png,3.0,71,,,,,,,,,,,,,,,,,,,,,,,,,,,,,,,,
0.0,1.0,0.699,0.0,18.0,18.0,18.0,1.0,racehorse_03s.jpg,0.0,clock_6_1.png,4.0,71,,,,,,,,,,,,,,,,,,,,,,,,,,,,,,,,
0.0,1.0,0.75,0.0,19.0,19.0,19.0,1.0,teacup_07s.jpg,0.0,clock_6_2.png,4.0,71,,,,,,,,,,,,,,,,,,,,,,,,,,,,,,,,
0.0,1.0,0.753,0.0,20.0,20.0,20.0,1.0,lip_gloss_06s.jpg,0.0,clock_6_3.png,4.0,71,,,,,,,,,,,,,,,,,,,,,,,,,,,,,,,,
1.0,1.0,1.922,0.0,21.0,21.0,21.0,1.0,racehorse_03s.jpg,1.0,clock_6_4.png,4.0,71,,,,,,,,,,,,,,,,,,,,,,,,,,,,,,,,
1.0,1.0,1.882,0.0,22.0,22.0,22.0,1.0,lip_gloss_06s.jpg,1.0,clock_6_5.png,4.0,71,,,,,,,,,,,,,,,,,,,,,,,,,,,,,,,,
0.0,1.0,1.6,0.0,23.0,23.0,23.0,1.0,seahorse_13s.jpg,0.0,clock_6_6.png,4.0,71,,,,,,,,,,,,,,,,,,,,,,,,,,,,,,,,
0.0,1.0,1.216,0.0,24.0,24.0,24.0,1.0,tuxedo_01b.jpg,0.0,clock_5_1.png,5.0,71,,,,,,,,,,,,,,,,,,,,,,,,,,,,,,,,
0.0,1.0,1.383,0.0,25.0,25.0,25.0,1.0,ice-cream_cone_06s.jpg,0.0,clock_5_2.png,5.0,71,,,,,,,,,,,,,,,,,,,,,,,,,,,,,,,,
0.0,1.0,2.108,0.0,26.0,26.0,26.0,1.0,jukebox_03n.jpg,0.0,clock_5_3.png,5.0,71,,,,,,,,,,,,,,,,,,,,,,,,,,,,,,,,
1.0,1.0,2.416,0.0,27.0,27.0,27.0,1.0,ice-cream_cone_06s.jpg,1.0,clock_5_4.png,5.0,71,,,,,,,,,,,,,,,,,,,,,,,,,,,,,,,,
1.0,0.0,2.174,0.0,28.0,28.0,28.0,1.0,teacup_07s.jpg,0.0,clock_5_5.png,5.0,71,,,,,,,,,,,,,,,,,,,,,,,,,,,,,,,,
0.0,1.0,1.649,0.0,29.0,29.0,29.0,1.0,rope_16s.jpg,0.0,clock_7_1.png,6.0,71,,,,,,,,,,,,,,,,,,,,,,,,,,,,,,,,
0.0,1.0,1.78,0.0,30.0,30.0,30.0,1.0,fork_04s.jpg,0.0,clock_7_2.png,6.0,71,,,,,,,,,,,,,,,,,,,,,,,,,,,,,,,,
1.0,1.0,1.806,0.0,31.0,31.0,31.0,1.0,rope_16s.jpg,1.0,clock_7_3.png,6.0,71,,,,,,,,,,,,,,,,,,,,,,,,,,,,,,,,
1.0,1.0,1.919,0.0,32.0,32.0,32.0,1.0,fork_04s.jpg,1.0,clock_7_4.png,6.0,71,,,,,,,,,,,,,,,,,,,,,,,,,,,,,,,,
0.0,1.0,1.781,0.0,33.0,33.0,33.0,1.0,stump_02s.jpg,0.0,clock_7_5.png,6.0,71,,,,,,,,,,,,,,,,,,,,,,,,,,,,,,,,
0.0,1.0,1.87,0.0,34.0,34.0,34.0,1.0,air_pump_05s.jpg,0.0,clock_7_6.png,6.0,71,,,,,,,,,,,,,,,,,,,,,,,,,,,,,,,,
1.0,1.0,1.607,0.0,35.0,35.0,35.0,1.0,air_pump_05s.jpg,1.0,clock_7_7.png,6.0,71,,,,,,,,,,,,,,,,,,,,,,,,,,,,,,,,
,,,,,,,,,0.0,,,71,1.0,0.0,2.98,0.0,0.0,0.0,0.0,1.0,jukebox_03n.jpg,seahorse_13s.jpg,,,,,,,,,,,,,,,,,,,,,,
,,,,,,,,,1.0,,,71,0.0,0.0,1.784,0.0,1.0,1.0,1.0,1.0,kitten_07s.jpg,pocketknife_12s.jpg,,,,,,,,,,,,,,,,,,,,,,
,,,,,,,,,0.0,,,71,1.0,0.0,2.703,0.0,2.0,2.0,2.0,1.0,jalapeno_15s.jpg,crate_05s.jpg,,,,,,,,,,,,,,,,,,,,,,
,,,,,,,,,0.0,,,71,0.0,1.0,1.125,0.0,3.0,3.0,3.0,1.0,basket_05s.jpg,swimming_pool_17s.jpg,,,,,,,,,,,,,,,,,,,,,,
,,,,,,,,,0.0,,,71,0.0,1.0,0.941,0.0,4.0,4.0,4.0,1.0,rhubarb_03s.jpg,blowfish_03s.jpg,,,,,,,,,,,,,,,,,,,,,,
,,,,,,,,,1.0,,,71,0.0,0.0,2.041,0.0,5.0,5.0,5.0,1.0,seagull_01b.jpg,pocket_watch_16s.jpg,,,,,,,,,,,,,,,,,,,,,,
,,,,,,,,,,,,71,,,,,,,,,,,0.0,0.0,0.0,0.0,1.0,clock_present_1_14.xlsx,clock_compare_task_1_14.xlsx,,,,,,,,,,,,,,,
0.0,1.0,0.825,0.0,0.0,0.0,0.0,1.0,bagel_15s.jpg,0.0,clock_5_1.png,1.0,71,,,,,,,,,,,,,,,,,,,,,,,,,,,,,,,,
0.0,1.0,0.89,0.0,1.0,1.0,1.0,1.0,rabbit_03s.jpg,0.0,clock_5_2.png,1.0,71,,,,,,,,,,,,,,,,,,,,,,,,,,,,,,,,
1.0,1.0,1.084,0.0,2.0,2.0,2.0,1.0,bagel_15s.jpg,1.0,clock_5_3.png,1.0,71,,,,,,,,,,,,,,,,,,,,,,,,,,,,,,,,
0.0,1.0,0.932,0.0,3.0,3.0,3.0,1.0,key_07s.jpg,0.0,clock_5_4.png,1.0,71,,,,,,,,,,,,,,,,,,,,,,,,,,,,,,,,
0.0,1.0,1.023,0.0,4.0,4.0,4.0,1.0,mascara_03s.jpg,0.0,clock_5_5.png,1.0,71,,,,,,,,,,,,,,,,,,,,,,,,,,,,,,,,
0.0,1.0,0.568,0.0,5.0,5.0,5.0,1.0,knot_01b.jpg,0.0,clock_6_1.png,2.0,71,,,,,,,,,,,,,,,,,,,,,,,,,,,,,,,,
0.0,1.0,0.65,0.0,6.0,6.0,6.0,1.0,measuring_cup_02s.jpg,0.0,clock_6_2.png,2.0,71,,,,,,,,,,,,,,,,,,,,,,,,,,,,,,,,
0.0,1.0,0.619,0.0,7.0,7.0,7.0,1.0,syringe_02s.jpg,0.0,clock_6_3.png,2.0,71,,,,,,,,,,,,,,,,,,,,,,,,,,,,,,,,
1.0,1.0,0.75,0.0,8.0,8.0,8.0,1.0,knot_01b.jpg,1.0,clock_6_4.png,2.0,71,,,,,,,,,,,,,,,,,,,,,,,,,,,,,,,,
0.0,1.0,1.205,0.0,9.0,9.0,9.0,1.0,pancake_12s.jpg,0.0,clock_6_5.png,2.0,71,,,,,,,,,,,,,,,,,,,,,,,,,,,,,,,,
0.0,1.0,0.999,0.0,10.0,10.0,10.0,1.0,saddle_06s.jpg,0.0,clock_6_6.png,2.0,71,,,,,,,,,,,,,,,,,,,,,,,,,,,,,,,,
0.0,1.0,0.667,0.0,11.0,11.0,11.0,1.0,stingray_02s.jpg,0.0,clock_7_1.png,3.0,71,,,,,,,,,,,,,,,,,,,,,,,,,,,,,,,,
1.0,0.0,0.732,0.0,12.0,12.0,12.0,1.0,pancake_12s.jpg,0.0,clock_7_2.png,3.0,71,,,,,,,,,,,,,,,,,,,,,,,,,,,,,,,,
0.0,1.0,0.517,0.0,13.0,13.0,13.0,1.0,kite_04s.jpg,0.0,clock_7_3.png,3.0,71,,,,,,,,,,,,,,,,,,,,,,,,,,,,,,,,
0.0,1.0,1.336,0.0,14.0,14.0,14.0,1.0,pincushion_10s.jpg,0.0,clock_7_4.png,3.0,71,,,,,,,,,,,,,,,,,,,,,,,,,,,,,,,,
0.0,1.0,0.599,0.0,15.0,15.0,15.0,1.0,ice_pack_09s.jpg,0.0,clock_7_5.png,3.0,71,,,,,,,,,,,,,,,,,,,,,,,,,,,,,,,,
1.0,1.0,1.188,0.0,16.0,16.0,16.0,1.0,kite_04s.jpg,1.0,clock_7_6.png,3.0,71,,,,,,,,,,,,,,,,,,,,,,,,,,,,,,,,
0.0,1.0,0.65,0.0,17.0,17.0,17.0,1.0,thumbtack_14s.jpg,0.0,clock_7_7.png,3.0,71,,,,,,,,,,,,,,,,,,,,,,,,,,,,,,,,
0.0,1.0,0.957,0.0,18.0,18.0,18.0,1.0,stamp1_11s.jpg,0.0,clock_5_1.png,4.0,71,,,,,,,,,,,,,,,,,,,,,,,,,,,,,,,,
1.0,1.0,1.2,0.0,19.0,19.0,19.0,1.0,stamp1_11s.jpg,1.0,clock_5_2.png,4.0,71,,,,,,,,,,,,,,,,,,,,,,,,,,,,,,,,
0.0,1.0,0.983,0.0,20.0,20.0,20.0,1.0,lizard_10n.jpg,0.0,clock_5_3.png,4.0,71,,,,,,,,,,,,,,,,,,,,,,,,,,,,,,,,
0.0,1.0,0.867,0.0,21.0,21.0,21.0,1.0,toilet_paper_12s.jpg,0.0,clock_5_4.png,4.0,71,,,,,,,,,,,,,,,,,,,,,,,,,,,,,,,,
0.0,1.0,0.85,0.0,22.0,22.0,22.0,1.0,gong_02s.jpg,0.0,clock_5_5.png,4.0,71,,,,,,,,,,,,,,,,,,,,,,,,,,,,,,,,
0.0,1.0,0.615,0.0,23.0,23.0,23.0,1.0,rake_06s.jpg,0.0,clock_6_1.png,5.0,71,,,,,,,,,,,,,,,,,,,,,,,,,,,,,,,,
1.0,0.0,1.349,0.0,24.0,24.0,24.0,1.0,syringe_02s.jpg,0.0,clock_6_2.png,5.0,71,,,,,,,,,,,,,,,,,,,,,,,,,,,,,,,,
1.0,0.0,1.404,0.0,25.0,25.0,25.0,1.0,thumbtack_14s.jpg,0.0,clock_6_3.png,5.0,71,,,,,,,,,,,,,,,,,,,,,,,,,,,,,,,,
0.0,1.0,1.608,0.0,26.0,26.0,26.0,1.0,boomerang_06s.jpg,0.0,clock_6_4.png,5.0,71,,,,,,,,,,,,,,,,,,,,,,,,,,,,,,,,
0.0,1.0,0.787,0.0,27.0,27.0,27.0,1.0,kayak_08s.jpg,0.0,clock_6_5.png,5.0,71,,,,,,,,,,,,,,,,,,,,,,,,,,,,,,,,
0.0,1.0,0.839,0.0,28.0,28.0,28.0,1.0,fountain_pen_06s.jpg,0.0,clock_6_6.png,5.0,71,,,,,,,,,,,,,,,,,,,,,,,,,,,,,,,,
0.0,1.0,0.834,0.0,29.0,29.0,29.0,1.0,contact_lens_15s.jpg,0.0,clock_7_1.png,6.0,71,,,,,,,,,,,,,,,,,,,,,,,,,,,,,,,,
0.0,1.0,0.957,0.0,30.0,30.0,30.0,1.0,lamb_chop_07s.jpg,0.0,clock_7_2.png,6.0,71,,,,,,,,,,,,,,,,,,,,,,,,,,,,,,,,
0.0,1.0,0.616,0.0,31.0,31.0,31.0,1.0,pear_02s.jpg,0.0,clock_7_3.png,6.0,71,,,,,,,,,,,,,,,,,,,,,,,,,,,,,,,,
0.0,1.0,0.515,0.0,32.0,32.0,32.0,1.0,potpourri_03s.jpg,0.0,clock_7_4.png,6.0,71,,,,,,,,,,,,,,,,,,,,,,,,,,,,,,,,
1.0,0.0,1.301,0.0,33.0,33.0,33.0,1.0,pincushion_10s.jpg,0.0,clock_7_5.png,6.0,71,,,,,,,,,,,,,,,,,,,,,,,,,,,,,,,,
0.0,1.0,0.623,0.0,34.0,34.0,34.0,1.0,foam_03s.jpg,0.0,clock_7_6.png,6.0,71,,,,,,,,,,,,,,,,,,,,,,,,,,,,,,,,
0.0,1.0,0.651,0.0,35.0,35.0,35.0,1.0,bathtub_23s.jpg,0.0,clock_7_7.png,6.0,71,,,,,,,,,,,,,,,,,,,,,,,,,,,,,,,,
,,,,,,,,,1.0,,,71,1.0,1.0,1.511,0.0,0.0,0.0,0.0,1.0,key_07s.jpg,measuring_cup_02s.jpg,,,,,,,,,,,,,,,,,,,,,,
,,,,,,,,,1.0,,,71,1.0,1.0,2.071,0.0,1.0,1.0,1.0,1.0,kayak_08s.jpg,lamb_chop_07s.jpg,,,,,,,,,,,,,,,,,,,,,,
,,,,,,,,,1.0,,,71,1.0,1.0,2.432,0.0,2.0,2.0,2.0,1.0,lizard_10n.jpg,rake_06s.jpg,,,,,,,,,,,,,,,,,,,,,,
,,,,,,,,,1.0,,,71,0.0,0.0,1.705,0.0,3.0,3.0,3.0,1.0,rabbit_03s.jpg,mascara_03s.jpg,,,,,,,,,,,,,,,,,,,,,,
,,,,,,,,,1.0,,,71,0.0,0.0,3.302,0.0,4.0,4.0,4.0,1.0,potpourri_03s.jpg,bathtub_23s.jpg,,,,,,,,,,,,,,,,,,,,,,
,,,,,,,,,0.0,,,71,0.0,1.0,1.717,0.0,5.0,5.0,5.0,1.0,foam_03s.jpg,pear_02s.jpg,,,,,,,,,,,,,,,,,,,,,,
,,,,,,,,,,,,71,,,,,,,,,,,0.0,1.0,1.0,1.0,1.0,clock_present_2_14.xlsx,clock_compare_task_2_14.xlsx,,,,,,,,,,,,,,,
0.0,1.0,1.557,0.0,0.0,0.0,0.0,1.0,magnet_03s.jpg,0.0,clock_5_1.png,1.0,71,,,,,,,,,,,,,,,,,,,,,,,,,,,,,,,,
1.0,1.0,0.941,0.0,1.0,1.0,1.0,1.0,magnet_03s.jpg,1.0,clock_5_2.png,1.0,71,,,,,,,,,,,,,,,,,,,,,,,,,,,,,,,,
0.0,1.0,1.233,0.0,2.0,2.0,2.0,1.0,insole_11s.jpg,0.0,clock_5_3.png,1.0,71,,,,,,,,,,,,,,,,,,,,,,,,,,,,,,,,
0.0,1.0,0.688,0.0,3.0,3.0,3.0,1.0,safety_pin_02s.jpg,0.0,clock_5_4.png,1.0,71,,,,,,,,,,,,,,,,,,,,,,,,,,,,,,,,
0.0,1.0,1.157,0.0,4.0,4.0,4.0,1.0,pie_08s.jpg,0.0,clock_5_5.png,1.0,71,,,,,,,,,,,,,,,,,,,,,,,,,,,,,,,,
0.0,1.0,1.451,0.0,5.0,5.0,5.0,1.0,flask_04s.jpg,0.0,clock_6_1.png,2.0,71,,,,,,,,,,,,,,,,,,,,,,,,,,,,,,,,
0.0,1.0,0.616,0.0,6.0,6.0,6.0,1.0,stopwatch_04s.jpg,0.0,clock_6_2.png,2.0,71,,,,,,,,,,,,,,,,,,,,,,,,,,,,,,,,
0.0,1.0,1.466,0.0,7.0,7.0,7.0,1.0,olive_05s.jpg,0.0,clock_6_3.png,2.0,71,,,,,,,,,,,,,,,,,,,,,,,,,,,,,,,,
0.0,1.0,0.873,0.0,8.0,8.0,8.0,1.0,laser_pointer_02s.jpg,0.0,clock_6_4.png,2.0,71,,,,,,,,,,,,,,,,,,,,,,,,,,,,,,,,
1.0,0.0,1.401,0.0,9.0,9.0,9.0,1.0,pie_08s.jpg,0.0,clock_6_5.png,2.0,71,,,,,,,,,,,,,,,,,,,,,,,,,,,,,,,,
1.0,1.0,1.349,0.0,10.0,10.0,10.0,1.0,laser_pointer_02s.jpg,1.0,clock_6_6.png,2.0,71,,,,,,,,,,,,,,,,,,,,,,,,,,,,,,,,
0.0,1.0,1.401,0.0,11.0,11.0,11.0,1.0,surfboard_11s.jpg,0.0,clock_6_1.png,3.0,71,,,,,,,,,,,,,,,,,,,,,,,,,,,,,,,,
0.0,1.0,0.786,0.0,12.0,12.0,12.0,1.0,money_07s.jpg,0.0,clock_6_2.png,3.0,71,,,,,,,,,,,,,,,,,,,,,,,,,,,,,,,,
0.0,1.0,0.734,0.0,13.0,13.0,13.0,1.0,bubble_01b.jpg,0.0,clock_6_3.png,3.0,71,,,,,,,,,,,,,,,,,,,,,,,,,,,,,,,,
0.0,1.0,1.021,0.0,14.0,14.0,14.0,1.0,lipstick_02s.jpg,0.0,clock_6_4.png,3.0,71,,,,,,,,,,,,,,,,,,,,,,,,,,,,,,,,
0.0,1.0,1.033,0.0,15.0,15.0,15.0,1.0,leash_10s.jpg,0.0,clock_6_5.png,3.0,71,,,,,,,,,,,,,,,,,,,,,,,,,,,,,,,,
1.0,0.0,1.218,0.0,16.0,16.0,16.0,1.0,flask_04s.jpg,0.0,clock_6_6.png,3.0,71,,,,,,,,,,,,,,,,,,,,,,,,,,,,,,,,
0.0,1.0,1.269,0.0,17.0,17.0,17.0,1.0,puck_06s.jpg,0.0,clock_7_1.png,4.0,71,,,,,,,,,,,,,,,,,,,,,,,,,,,,,,,,
0.0,1.0,0.99,0.0,18.0,18.0,18.0,1.0,paintbrush_04s.jpg,0.0,clock_7_2.png,4.0,71,,,,,,,,,,,,,,,,,,,,,,,,,,,,,,,,
1.0,1.0,0.734,0.0,19.0,19.0,19.0,1.0,puck_06s.jpg,1.0,clock_7_3.png,4.0,71,,,,,,,,,,,,,,,,,,,,,,,,,,,,,,,,
0.0,1.0,0.924,0.0,20.0,20.0,20.0,1.0,tweezers_03s.jpg,0.0,clock_7_4.png,4.0,71,,,,,,,,,,,,,,,,,,,,,,,,,,,,,,,,
1.0,1.0,0.732,0.0,21.0,21.0,21.0,1.0,puck_06s.jpg,1.0,clock_7_5.png,4.0,71,,,,,,,,,,,,,,,,,,,,,,,,,,,,,,,,
0.0,1.0,0.888,0.0,22.0,22.0,22.0,1.0,tulip_02s.jpg,0.0,clock_7_6.png,4.0,71,,,,,,,,,,,,,,,,,,,,,,,,,,,,,,,,
1.0,0.0,0.741,0.0,23.0,23.0,23.0,1.0,bubble_01b.jpg,0.0,clock_7_7.png,4.0,71,,,,,,,,,,,,,,,,,,,,,,,,,,,,,,,,
0.0,1.0,0.915,0.0,24.0,24.0,24.0,1.0,mattress_01s.jpg,0.0,clock_5_1.png,5.0,71,,,,,,,,,,,,,,,,,,,,,,,,,,,,,,,,
1.0,1.0,0.831,0.0,25.0,25.0,25.0,1.0,mattress_01s.jpg,1.0,clock_5_2.png,5.0,71,,,,,,,,,,,,,,,,,,,,,,,,,,,,,,,,
0.0,1.0,1.314,0.0,26.0,26.0,26.0,1.0,puddle_02s.jpg,0.0,clock_5_3.png,5.0,71,,,,,,,,,,,,,,,,,,,,,,,,,,,,,,,,
0.0,1.0,1.27,0.0,27.0,27.0,27.0,1.0,peanut_butter_08s.jpg,0.0,clock_5_4.png,5.0,71,,,,,,,,,,,,,,,,,,,,,,,,,,,,,,,,
0.0,1.0,1.098,0.0,28.0,28.0,28.0,1.0,loveseat_08s.jpg,0.0,clock_5_5.png,5.0,71,,,,,,,,,,,,,,,,,,,,,,,,,,,,,,,,
0.0,1.0,1.076,0.0,29.0,29.0,29.0,1.0,timer_03s.jpg,0.0,clock_7_1.png,6.0,71,,,,,,,,,,,,,,,,,,,,,,,,,,,,,,,,
0.0,1.0,1.107,0.0,30.0,30.0,30.0,1.0,icicle_04s.jpg,0.0,clock_7_2.png,6.0,71,,,,,,,,,,,,,,,,,,,,,,,,,,,,,,,,
0.0,1.0,1.389,0.0,31.0,31.0,31.0,1.0,fishhook_06s.jpg,0.0,clock_7_3.png,6.0,71,,,,,,,,,,,,,,,,,,,,,,,,,,,,,,,,
0.0,1.0,1.762,0.0,32.0,32.0,32.0,1.0,pump_11s.jpg,0.0,clock_7_4.png,6.0,71,,,,,,,,,,,,,,,,,,,,,,,,,,,,,,,,
0.0,1.0,1.054,0.0,33.0,33.0,33.0,1.0,ukulele_02s.jpg,0.0,clock_7_5.png,6.0,71,,,,,,,,,,,,,,,,,,,,,,,,,,,,,,,,
1.0,0.0,0.933,0.0,34.0,34.0,34.0,1.0,safety_pin_02s.jpg,0.0,clock_7_6.png,6.0,71,,,,,,,,,,,,,,,,,,,,,,,,,,,,,,,,
0.0,1.0,1.125,0.0,35.0,35.0,35.0,1.0,sundae_08s.jpg,0.0,clock_7_7.png,6.0,71,,,,,,,,,,,,,,,,,,,,,,,,,,,,,,,,
,,,,,,,,,0.0,,,71,0.0,1.0,1.463,0.0,0.0,0.0,0.0,1.0,fishhook_06s.jpg,loveseat_08s.jpg,,,,,,,,,,,,,,,,,,,,,,
,,,,,,,,,0.0,,,71,0.0,1.0,1.736,0.0,1.0,1.0,1.0,1.0,paintbrush_04s.jpg,leash_10s.jpg,,,,,,,,,,,,,,,,,,,,,,
,,,,,,,,,0.0,,,71,1.0,0.0,1.551,0.0,2.0,2.0,2.0,1.0,timer_03s.jpg,puddle_02s.jpg,,,,,,,,,,,,,,,,,,,,,,
,,,,,,,,,1.0,,,71,1.0,1.0,1.32,0.0,3.0,3.0,3.0,1.0,surfboard_11s.jpg,lipstick_02s.jpg,,,,,,,,,,,,,,,,,,,,,,
,,,,,,,,,0.0,,,71,1.0,0.0,1.398,0.0,4.0,4.0,4.0,1.0,sundae_08s.jpg,pump_11s.jpg,,,,,,,,,,,,,,,,,,,,,,
,,,,,,,,,0.0,,,71,1.0,0.0,1.634,0.0,5.0,5.0,5.0,1.0,ukulele_02s.jpg,icicle_04s.jpg,,,,,,,,,,,,,,,,,,,,,,
,,,,,,,,,,,,71,,,,,,,,,,,0.0,2.0,2.0,2.0,1.0,clock_present_3_14.xlsx,clock_compare_task_3_14.xlsx,,,,,,,,,,,,,,,
0.0,1.0,0.857,0.0,0.0,0.0,0.0,1.0,mold2_04s.jpg,0.0,clock_5_1.png,1.0,71,,,,,,,,,,,,,,,,,,,,,,,,,,,,,,,,
,0.0,,0.0,1.0,1.0,1.0,1.0,mold2_04s.jpg,1.0,clock_5_2.png,1.0,71,,,,,,,,,,,,,,,,,,,,,,,,,,,,,,,,
1.0,1.0,1.0,0.0,2.0,2.0,2.0,1.0,mold2_04s.jpg,1.0,clock_5_3.png,1.0,71,,,,,,,,,,,,,,,,,,,,,,,,,,,,,,,,
1.0,1.0,1.205,0.0,3.0,3.0,3.0,1.0,mold2_04s.jpg,1.0,clock_5_4.png,1.0,71,,,,,,,,,,,,,,,,,,,,,,,,,,,,,,,,
0.0,1.0,1.182,0.0,4.0,4.0,4.0,1.0,sledgehammer_03s.jpg,0.0,clock_5_5.png,1.0,71,,,,,,,,,,,,,,,,,,,,,,,,,,,,,,,,
0.0,1.0,1.858,0.0,5.0,5.0,5.0,1.0,prism_10s.jpg,0.0,clock_7_1.png,2.0,71,,,,,,,,,,,,,,,,,,,,,,,,,,,,,,,,
0.0,1.0,1.188,0.0,6.0,6.0,6.0,1.0,jewel_01b.jpg,0.0,clock_7_2.png,2.0,71,,,,,,,,,,,,,,,,,,,,,,,,,,,,,,,,
0.0,1.0,0.875,0.0,7.0,7.0,7.0,1.0,puffin_19s.jpg,0.0,clock_7_3.png,2.0,71,,,,,,,,,,,,,,,,,,,,,,,,,,,,,,,,
0.0,1.0,0.719,0.0,8.0,8.0,8.0,1.0,screwdriver02a.jpg,0.0,clock_7_4.png,2.0,71,,,,,,,,,,,,,,,,,,,,,,,,,,,,,,,,
0.0,1.0,0.589,0.0,9.0,9.0,9.0,1.0,thermostat_02s.jpg,0.0,clock_7_5.png,2.0,71,,,,,,,,,,,,,,,,,,,,,,,,,,,,,,,,
0.0,0.0,1.301,0.0,10.0,10.0,10.0,1.0,jewel_01b.jpg,1.0,clock_7_6.png,2.0,71,,,,,,,,,,,,,,,,,,,,,,,,,,,,,,,,
0.0,0.0,1.722,0.0,11.0,11.0,11.0,1.0,puffin_19s.jpg,1.0,clock_7_7.png,2.0,71,,,,,,,,,,,,,,,,,,,,,,,,,,,,,,,,
0.0,1.0,1.069,0.0,12.0,12.0,12.0,1.0,petri_dish_12s.jpg,0.0,clock_6_1.png,3.0,71,,,,,,,,,,,,,,,,,,,,,,,,,,,,,,,,
0.0,1.0,1.204,0.0,13.0,13.0,13.0,1.0,plug_08s.jpg,0.0,clock_6_2.png,3.0,71,,,,,,,,,,,,,,,,,,,,,,,,,,,,,,,,
0.0,1.0,0.699,0.0,14.0,14.0,14.0,1.0,hydrant_10s.jpg,0.0,clock_6_3.png,3.0,71,,,,,,,,,,,,,,,,,,,,,,,,,,,,,,,,
1.0,1.0,0.949,0.0,15.0,15.0,15.0,1.0,petri_dish_12s.jpg,1.0,clock_6_4.png,3.0,71,,,,,,,,,,,,,,,,,,,,,,,,,,,,,,,,
0.0,1.0,0.793,0.0,16.0,16.0,16.0,1.0,amber_04s.jpg,0.0,clock_6_5.png,3.0,71,,,,,,,,,,,,,,,,,,,,,,,,,,,,,,,,
0.0,1.0,0.686,0.0,17.0,17.0,17.0,1.0,luggage_08s.jpg,0.0,clock_6_6.png,3.0,71,,,,,,,,,,,,,,,,,,,,,,,,,,,,,,,,
0.0,1.0,0.717,0.0,18.0,18.0,18.0,1.0,cushion_08s.jpg,0.0,clock_7_1.png,4.0,71,,,,,,,,,,,,,,,,,,,,,,,,,,,,,,,,
0.0,1.0,1.1,0.0,19.0,19.0,19.0,1.0,mushroom_10n.jpg,0.0,clock_7_2.png,4.0,71,,,,,,,,,,,,,,,,,,,,,,,,,,,,,,,,
1.0,0.0,0.983,0.0,20.0,20.0,20.0,1.0,puffin_19s.jpg,0.0,clock_7_3.png,4.0,71,,,,,,,,,,,,,,,,,,,,,,,,,,,,,,,,
0.0,1.0,1.183,0.0,21.0,21.0,21.0,1.0,lasagna_06s.jpg,0.0,clock_7_4.png,4.0,71,,,,,,,,,,,,,,,,,,,,,,,,,,,,,,,,
0.0,1.0,1.161,0.0,22.0,22.0,22.0,1.0,thorn_13s.jpg,0.0,clock_7_5.png,4.0,71,,,,,,,,,,,,,,,,,,,,,,,,,,,,,,,,
0.0,1.0,1.118,0.0,23.0,23.0,23.0,1.0,jelly_bean_06s.jpg,0.0,clock_7_6.png,4.0,71,,,,,,,,,,,,,,,,,,,,,,,,,,,,,,,,
0.0,1.0,1.115,0.0,24.0,24.0,24.0,1.0,mosquito_12s.jpg,0.0,clock_7_7.png,4.0,71,,,,,,,,,,,,,,,,,,,,,,,,,,,,,,,,
0.0,1.0,1.238,0.0,25.0,25.0,25.0,1.0,triangle_10s.jpg,0.0,clock_6_1.png,5.0,71,,,,,,,,,,,,,,,,,,,,,,,,,,,,,,,,
,0.0,,0.0,26.0,26.0,26.0,1.0,roulette_wheel_04s.jpg,0.0,clock_6_2.png,5.0,71,,,,,,,,,,,,,,,,,,,,,,,,,,,,,,,,
1.0,1.0,1.398,0.0,27.0,27.0,27.0,1.0,roulette_wheel_04s.jpg,1.0,clock_6_3.png,5.0,71,,,,,,,,,,,,,,,,,,,,,,,,,,,,,,,,
1.0,0.0,1.37,0.0,28.0,28.0,28.0,1.0,puffin_19s.jpg,0.0,clock_6_4.png,5.0,71,,,,,,,,,,,,,,,,,,,,,,,,,,,,,,,,
0.0,1.0,0.999,0.0,29.0,29.0,29.0,1.0,outlet_10s.jpg,0.0,clock_6_5.png,5.0,71,,,,,,,,,,,,,,,,,,,,,,,,,,,,,,,,
0.0,1.0,1.425,0.0,30.0,30.0,30.0,1.0,abacus_12s.jpg,0.0,clock_6_6.png,5.0,71,,,,,,,,,,,,,,,,,,,,,,,,,,,,,,,,
0.0,1.0,1.934,0.0,31.0,31.0,31.0,1.0,pencil02a.jpg,0.0,clock_5_1.png,6.0,71,,,,,,,,,,,,,,,,,,,,,,,,,,,,,,,,
0.0,1.0,1.647,0.0,32.0,32.0,32.0,1.0,pillow_03s.jpg,0.0,clock_5_2.png,6.0,71,,,,,,,,,,,,,,,,,,,,,,,,,,,,,,,,
1.0,1.0,1.003,0.0,33.0,33.0,33.0,1.0,pencil02a.jpg,1.0,clock_5_3.png,6.0,71,,,,,,,,,,,,,,,,,,,,,,,,,,,,,,,,
0.0,1.0,1.517,0.0,34.0,34.0,34.0,1.0,towel_rack_04s.jpg,0.0,clock_5_4.png,6.0,71,,,,,,,,,,,,,,,,,,,,,,,,,,,,,,,,
0.0,1.0,1.924,0.0,35.0,35.0,35.0,1.0,machine_gun_09s.jpg,0.0,clock_5_5.png,6.0,71,,,,,,,,,,,,,,,,,,,,,,,,,,,,,,,,
,,,,,,,,,1.0,,,71,0.0,0.0,1.815,0.0,0.0,0.0,0.0,1.0,thorn_13s.jpg,triangle_10s.jpg,,,,,,,,,,,,,,,,,,,,,,
,,,,,,,,,0.0,,,71,0.0,1.0,1.497,0.0,1.0,1.0,1.0,1.0,pillow_03s.jpg,outlet_10s.jpg,,,,,,,,,,,,,,,,,,,,,,
,,,,,,,,,1.0,,,71,0.0,0.0,1.39,0.0,2.0,2.0,2.0,1.0,amber_04s.jpg,mushroom_10n.jpg,,,,,,,,,,,,,,,,,,,,,,
,,,,,,,,,0.0,,,71,0.0,1.0,1.135,0.0,3.0,3.0,3.0,1.0,screwdriver02a.jpg,prism_10s.jpg,,,,,,,,,,,,,,,,,,,,,,
,,,,,,,,,1.0,,,71,1.0,1.0,1.755,0.0,4.0,4.0,4.0,1.0,hydrant_10s.jpg,luggage_08s.jpg,,,,,,,,,,,,,,,,,,,,,,
,,,,,,,,,1.0,,,71,1.0,1.0,1.35,0.0,5.0,5.0,5.0,1.0,cushion_08s.jpg,lasagna_06s.jpg,,,,,,,,,,,,,,,,,,,,,,
,,,,,,,,,,,,71,,,,,,,,,,,0.0,3.0,3.0,3.0,1.0,clock_present_4_14.xlsx,clock_compare_task_4_14.xlsx,,,,,,,,,,,,,,,
0.0,1.0,1.286,0.0,0.0,0.0,0.0,1.0,checkbook_11s.jpg,0.0,clock_7_1.png,1.0,71,,,,,,,,,,,,,,,,,,,,,,,,,,,,,,,,
0.0,1.0,1.601,0.0,1.0,1.0,1.0,1.0,submarine_11n.jpg,0.0,clock_7_2.png,1.0,71,,,,,,,,,,,,,,,,,,,,,,,,,,,,,,,,
0.0,1.0,1.301,0.0,2.0,2.0,2.0,1.0,doily_13s.jpg,0.0,clock_7_3.png,1.0,71,,,,,,,,,,,,,,,,,,,,,,,,,,,,,,,,
0.0,1.0,1.049,0.0,3.0,3.0,3.0,1.0,briefcase_03s.jpg,0.0,clock_7_4.png,1.0,71,,,,,,,,,,,,,,,,,,,,,,,,,,,,,,,,
0.0,1.0,1.432,0.0,4.0,4.0,4.0,1.0,film_03s.jpg,0.0,clock_7_5.png,1.0,71,,,,,,,,,,,,,,,,,,,,,,,,,,,,,,,,
0.0,1.0,2.422,0.0,5.0,5.0,5.0,1.0,ironing_board_07s.jpg,0.0,clock_7_6.png,1.0,71,,,,,,,,,,,,,,,,,,,,,,,,,,,,,,,,
0.0,0.0,2.346,0.0,6.0,6.0,6.0,1.0,checkbook_11s.jpg,1.0,clock_7_7.png,1.0,71,,,,,,,,,,,,,,,,,,,,,,,,,,,,,,,,
0.0,1.0,1.547,0.0,7.0,7.0,7.0,1.0,sushi_08s.jpg,0.0,clock_6_1.png,2.0,71,,,,,,,,,,,,,,,,,,,,,,,,,,,,,,,,
1.0,0.0,2.369,0.0,8.0,8.0,8.0,1.0,go-kart_10s.jpg,0.0,clock_6_2.png,2.0,71,,,,,,,,,,,,,,,,,,,,,,,,,,,,,,,,
0.0,1.0,0.783,0.0,9.0,9.0,9.0,1.0,tripod_01b.jpg,0.0,clock_6_3.png,2.0,71,,,,,,,,,,,,,,,,,,,,,,,,,,,,,,,,
0.0,1.0,0.533,0.0,10.0,10.0,10.0,1.0,tinsel_12s.jpg,0.0,clock_6_4.png,2.0,71,,,,,,,,,,,,,,,,,,,,,,,,,,,,,,,,
0.0,1.0,0.583,0.0,11.0,11.0,11.0,1.0,microwave_02s.jpg,0.0,clock_6_5.png,2.0,71,,,,,,,,,,,,,,,,,,,,,,,,,,,,,,,,
,0.0,,0.0,12.0,12.0,12.0,1.0,piano_13n.jpg,0.0,clock_6_6.png,2.0,71,,,,,,,,,,,,,,,,,,,,,,,,,,,,,,,,
0.0,1.0,1.051,0.0,13.0,13.0,13.0,1.0,panda_02s.jpg,0.0,clock_5_1.png,3.0,71,,,,,,,,,,,,,,,,,,,,,,,,,,,,,,,,
0.0,1.0,1.065,0.0,14.0,14.0,14.0,1.0,spatula04.jpg,0.0,clock_5_2.png,3.0,71,,,,,,,,,,,,,,,,,,,,,,,,,,,,,,,,
0.0,1.0,1.183,0.0,15.0,15.0,15.0,1.0,razor_12s.jpg,0.0,clock_5_3.png,3.0,71,,,,,,,,,,,,,,,,,,,,,,,,,,,,,,,,
0.0,1.0,0.947,0.0,16.0,16.0,16.0,1.0,jet_15s.jpg,0.0,clock_5_4.png,3.0,71,,,,,,,,,,,,,,,,,,,,,,,,,,,,,,,,
0.0,1.0,0.918,0.0,17.0,17.0,17.0,1.0,spider_web_03s.jpg,0.0,clock_5_5.png,3.0,71,,,,,,,,,,,,,,,,,,,,,,,,,,,,,,,,
0.0,1.0,1.181,0.0,18.0,18.0,18.0,1.0,lamppost_09s.jpg,0.0,clock_5_1.png,4.0,71,,,,,,,,,,,,,,,,,,,,,,,,,,,,,,,,
0.0,1.0,1.749,0.0,19.0,19.0,19.0,1.0,kettle_08s.jpg,0.0,clock_5_2.png,4.0,71,,,,,,,,,,,,,,,,,,,,,,,,,,,,,,,,
0.0,0.0,1.129,0.0,20.0,20.0,20.0,1.0,kettle_08s.jpg,1.0,clock_5_3.png,4.0,71,,,,,,,,,,,,,,,,,,,,,,,,,,,,,,,,
0.0,1.0,1.335,0.0,21.0,21.0,21.0,1.0,jet_15s.jpg,0.0,clock_5_4.png,4.0,71,,,,,,,,,,,,,,,,,,,,,,,,,,,,,,,,
1.0,1.0,1.215,0.0,22.0,22.0,22.0,1.0,kettle_08s.jpg,1.0,clock_5_5.png,4.0,71,,,,,,,,,,,,,,,,,,,,,,,,,,,,,,,,
0.0,1.0,1.698,0.0,23.0,23.0,23.0,1.0,champagne_18s.jpg,0.0,clock_6_1.png,5.0,71,,,,,,,,,,,,,,,,,,,,,,,,,,,,,,,,
0.0,1.0,1.066,0.0,24.0,24.0,24.0,1.0,radiator_05s.jpg,0.0,clock_6_2.png,5.0,71,,,,,,,,,,,,,,,,,,,,,,,,,,,,,,,,
1.0,1.0,1.599,0.0,25.0,25.0,25.0,1.0,radiator_05s.jpg,1.0,clock_6_3.png,5.0,71,,,,,,,,,,,,,,,,,,,,,,,,,,,,,,,,
0.0,1.0,1.449,0.0,26.0,26.0,26.0,1.0,pepper2_21s.jpg,0.0,clock_6_4.png,5.0,71,,,,,,,,,,,,,,,,,,,,,,,,,,,,,,,,
1.0,1.0,1.049,0.0,27.0,27.0,27.0,1.0,pepper2_21s.jpg,1.0,clock_6_5.png,5.0,71,,,,,,,,,,,,,,,,,,,,,,,,,,,,,,,,
0.0,1.0,1.468,0.0,28.0,28.0,28.0,1.0,breadstick_08s.jpg,0.0,clock_6_6.png,5.0,71,,,,,,,,,,,,,,,,,,,,,,,,,,,,,,,,
0.0,1.0,1.291,0.0,29.0,29.0,29.0,1.0,mailbox_11s.jpg,0.0,clock_7_1.png,6.0,71,,,,,,,,,,,,,,,,,,,,,,,,,,,,,,,,
0.0,1.0,1.44,0.0,30.0,30.0,30.0,1.0,crystal_ball_12s.jpg,0.0,clock_7_2.png,6.0,71,,,,,,,,,,,,,,,,,,,,,,,,,,,,,,,,
1.0,1.0,1.598,0.0,31.0,31.0,31.0,1.0,crystal_ball_12s.jpg,1.0,clock_7_3.png,6.0,71,,,,,,,,,,,,,,,,,,,,,,,,,,,,,,,,
1.0,0.0,1.023,0.0,32.0,32.0,32.0,1.0,submarine_11n.jpg,0.0,clock_7_4.png,6.0,71,,,,,,,,,,,,,,,,,,,,,,,,,,,,,,,,
0.0,1.0,1.725,0.0,33.0,33.0,33.0,1.0,ant_12s.jpg,0.0,clock_7_5.png,6.0,71,,,,,,,,,,,,,,,,,,,,,,,,,,,,,,,,
0.0,1.0,1.44,0.0,34.0,34.0,34.0,1.0,smokingpipe.jpg,0.0,clock_7_6.png,6.0,71,,,,,,,,,,,,,,,,,,,,,,,,,,,,,,,,
1.0,1.0,0.985,0.0,35.0,35.0,35.0,1.0,mailbox_11s.jpg,1.0,clock_7_7.png,6.0,71,,,,,,,,,,,,,,,,,,,,,,,,,,,,,,,,
,,,,,,,,,1.0,,,71,1.0,1.0,1.83,0.0,0.0,0.0,0.0,1.0,razor_12s.jpg,lamppost_09s.jpg,,,,,,,,,,,,,,,,,,,,,,
,,,,,,,,,1.0,,,71,0.0,0.0,1.449,0.0,1.0,1.0,1.0,1.0,film_03s.jpg,sushi_08s.jpg,,,,,,,,,,,,,,,,,,,,,,
,,,,,,,,,0.0,,,71,1.0,0.0,0.899,0.0,2.0,2.0,2.0,1.0,panda_02s.jpg,tinsel_12s.jpg,,,,,,,,,,,,,,,,,,,,,,
,,,,,,,,,0.0,,,71,0.0,1.0,1.267,0.0,3.0,3.0,3.0,1.0,ironing_board_07s.jpg,doily_13s.jpg,,,,,,,,,,,,,,,,,,,,,,
,,,,,,,,,0.0,,,71,0.0,1.0,1.252,0.0,4.0,4.0,4.0,1.0,piano_13n.jpg,tripod_01b.jpg,,,,,,,,,,,,,,,,,,,,,,
,,,,,,,,,0.0,,,71,1.0,0.0,0.737,0.0,5.0,5.0,5.0,1.0,spider_web_03s.jpg,spatula04.jpg,,,,,,,,,,,,,,,,,,,,,,
,,,,,,,,,,,,71,,,,,,,,,,,0.0,4.0,4.0,4.0,1.0,clock_present_5_14.xlsx,clock_compare_task_5_14.xlsx,,,,,,,,,,,,,,,
0.0,1.0,1.125,0.0,0.0,0.0,0.0,1.0,orangutan_03s.jpg,0.0,clock_7_1.png,1.0,71,,,,,,,,,,,,,,,,,,,,,,,,,,,,,,,,
0.0,1.0,0.772,0.0,1.0,1.0,1.0,1.0,squirrel_02s.jpg,0.0,clock_7_2.png,1.0,71,,,,,,,,,,,,,,,,,,,,,,,,,,,,,,,,
0.0,1.0,0.681,0.0,2.0,2.0,2.0,1.0,tiara_05s.jpg,0.0,clock_7_3.png,1.0,71,,,,,,,,,,,,,,,,,,,,,,,,,,,,,,,,
1.0,1.0,1.303,0.0,3.0,3.0,3.0,1.0,squirrel_02s.jpg,1.0,clock_7_4.png,1.0,71,,,,,,,,,,,,,,,,,,,,,,,,,,,,,,,,
1.0,1.0,1.572,0.0,4.0,4.0,4.0,1.0,tiara_05s.jpg,1.0,clock_7_5.png,1.0,71,,,,,,,,,,,,,,,,,,,,,,,,,,,,,,,,
0.0,1.0,1.33,0.0,5.0,5.0,5.0,1.0,mannequin_05s.jpg,0.0,clock_7_6.png,1.0,71,,,,,,,,,,,,,,,,,,,,,,,,,,,,,,,,
0.0,1.0,0.7,0.0,6.0,6.0,6.0,1.0,omelet_07s.jpg,0.0,clock_7_7.png,1.0,71,,,,,,,,,,,,,,,,,,,,,,,,,,,,,,,,
0.0,1.0,0.557,0.0,7.0,7.0,7.0,1.0,buoy_04s.jpg,0.0,clock_5_1.png,2.0,71,,,,,,,,,,,,,,,,,,,,,,,,,,,,,,,,
0.0,1.0,0.717,0.0,8.0,8.0,8.0,1.0,meatball_13s.jpg,0.0,clock_5_2.png,2.0,71,,,,,,,,,,,,,,,,,,,,,,,,,,,,,,,,
0.0,1.0,0.548,0.0,9.0,9.0,9.0,1.0,peppermint_07s.jpg,0.0,clock_5_3.png,2.0,71,,,,,,,,,,,,,,,,,,,,,,,,,,,,,,,,
0.0,1.0,1.187,0.0,10.0,10.0,10.0,1.0,letter_opener_03s.jpg,0.0,clock_5_4.png,2.0,71,,,,,,,,,,,,,,,,,,,,,,,,,,,,,,,,
0.0,1.0,0.568,0.0,11.0,11.0,11.0,1.0,jigsaw_puzzle_11s.jpg,0.0,clock_5_5.png,2.0,71,,,,,,,,,,,,,,,,,,,,,,,,,,,,,,,,
0.0,1.0,0.967,0.0,12.0,12.0,12.0,1.0,bean_06s.jpg,0.0,clock_7_1.png,3.0,71,,,,,,,,,,,,,,,,,,,,,,,,,,,,,,,,
1.0,0.0,0.74,0.0,13.0,13.0,13.0,1.0,tiara_05s.jpg,0.0,clock_7_2.png,3.0,71,,,,,,,,,,,,,,,,,,,,,,,,,,,,,,,,
0.0,1.0,1.005,0.0,14.0,14.0,14.0,1.0,toothpaste_12s.jpg,0.0,clock_7_3.png,3.0,71,,,,,,,,,,,,,,,,,,,,,,,,,,,,,,,,
0.0,1.0,0.785,0.0,15.0,15.0,15.0,1.0,toad_09s.jpg,0.0,clock_7_4.png,3.0,71,,,,,,,,,,,,,,,,,,,,,,,,,,,,,,,,
0.0,1.0,0.642,0.0,16.0,16.0,16.0,1.0,reindeer_08s.jpg,0.0,clock_7_5.png,3.0,71,,,,,,,,,,,,,,,,,,,,,,,,,,,,,,,,
0.0,1.0,0.617,0.0,17.0,17.0,17.0,1.0,refrigerator_07s.jpg,0.0,clock_7_6.png,3.0,71,,,,,,,,,,,,,,,,,,,,,,,,,,,,,,,,
0.0,1.0,0.608,0.0,18.0,18.0,18.0,1.0,koala_13s.jpg,0.0,clock_7_7.png,3.0,71,,,,,,,,,,,,,,,,,,,,,,,,,,,,,,,,
0.0,1.0,0.882,0.0,19.0,19.0,19.0,1.0,umbrella_15s.jpg,0.0,clock_5_1.png,4.0,71,,,,,,,,,,,,,,,,,,,,,,,,,,,,,,,,
0.0,1.0,0.606,0.0,20.0,20.0,20.0,1.0,lamp_08s.jpg,0.0,clock_5_2.png,4.0,71,,,,,,,,,,,,,,,,,,,,,,,,,,,,,,,,
0.0,1.0,0.652,0.0,21.0,21.0,21.0,1.0,bacon_05s.jpg,0.0,clock_5_3.png,4.0,71,,,,,,,,,,,,,,,,,,,,,,,,,,,,,,,,
0.0,1.0,1.473,0.0,22.0,22.0,22.0,1.0,mug_06s.jpg,0.0,clock_5_4.png,4.0,71,,,,,,,,,,,,,,,,,,,,,,,,,,,,,,,,
0.0,1.0,0.83,0.0,23.0,23.0,23.0,1.0,telephone_pole_05s.jpg,0.0,clock_5_5.png,4.0,71,,,,,,,,,,,,,,,,,,,,,,,,,,,,,,,,
0.0,1.0,0.66,0.0,24.0,24.0,24.0,1.0,tablet_04s.jpg,0.0,clock_6_1.png,5.0,71,,,,,,,,,,,,,,,,,,,,,,,,,,,,,,,,
0.0,1.0,1.012,0.0,25.0,25.0,25.0,1.0,flip_flop_03s.jpg,0.0,clock_6_2.png,5.0,71,,,,,,,,,,,,,,,,,,,,,,,,,,,,,,,,
0.0,1.0,0.582,0.0,26.0,26.0,26.0,1.0,razor_blade_01b.jpg,0.0,clock_6_3.png,5.0,71,,,,,,,,,,,,,,,,,,,,,,,,,,,,,,,,
0.0,1.0,0.673,0.0,27.0,27.0,27.0,1.0,turkey_10s.jpg,0.0,clock_6_4.png,5.0,71,,,,,,,,,,,,,,,,,,,,,,,,,,,,,,,,
0.0,1.0,1.119,0.0,28.0,28.0,28.0,1.0,polar_bear_02s.jpg,0.0,clock_6_5.png,5.0,71,,,,,,,,,,,,,,,,,,,,,,,,,,,,,,,,
0.0,1.0,0.674,0.0,29.0,29.0,29.0,1.0,pomegranate_04s.jpg,0.0,clock_6_6.png,5.0,71,,,,,,,,,,,,,,,,,,,,,,,,,,,,,,,,
0.0,1.0,0.635,0.0,30.0,30.0,30.0,1.0,jetski_10s.jpg,0.0,clock_6_1.png,6.0,71,,,,,,,,,,,,,,,,,,,,,,,,,,,,,,,,
0.0,1.0,0.807,0.0,31.0,31.0,31.0,1.0,milk_02s.jpg,0.0,clock_6_2.png,6.0,71,,,,,,,,,,,,,,,,,,,,,,,,,,,,,,,,
0.0,1.0,1.458,0.0,32.0,32.0,32.0,1.0,undershirt_02s.jpg,0.0,clock_6_3.png,6.0,71,,,,,,,,,,,,,,,,,,,,,,,,,,,,,,,,
0.0,1.0,0.996,0.0,33.0,33.0,33.0,1.0,megaphone_03s.jpg,0.0,clock_6_4.png,6.0,71,,,,,,,,,,,,,,,,,,,,,,,,,,,,,,,,
0.0,1.0,1.362,0.0,34.0,34.0,34.0,1.0,licorice_06s.jpg,0.0,clock_6_5.png,6.0,71,,,,,,,,,,,,,,,,,,,,,,,,,,,,,,,,
1.0,1.0,1.28,0.0,35.0,35.0,35.0,1.0,jetski_10s.jpg,1.0,clock_6_6.png,6.0,71,,,,,,,,,,,,,,,,,,,,,,,,,,,,,,,,
,,,,,,,,,0.0,,,71,1.0,0.0,3.079,0.0,0.0,0.0,0.0,1.0,peppermint_07s.jpg,omelet_07s.jpg,,,,,,,,,,,,,,,,,,,,,,
,,,,,,,,,0.0,,,71,0.0,1.0,1.242,0.0,1.0,1.0,1.0,1.0,meatball_13s.jpg,mannequin_05s.jpg,,,,,,,,,,,,,,,,,,,,,,
,,,,,,,,,0.0,,,71,1.0,0.0,0.858,0.0,2.0,2.0,2.0,1.0,umbrella_15s.jpg,reindeer_08s.jpg,,,,,,,,,,,,,,,,,,,,,,
,,,,,,,,,0.0,,,71,1.0,0.0,1.448,0.0,3.0,3.0,3.0,1.0,letter_opener_03s.jpg,buoy_04s.jpg,,,,,,,,,,,,,,,,,,,,,,
,,,,,,,,,0.0,,,71,0.0,1.0,1.05,0.0,4.0,4.0,4.0,1.0,toad_09s.jpg,bean_06s.jpg,,,,,,,,,,,,,,,,,,,,,,
,,,,,,,,,0.0,,,71,0.0,1.0,1.709,0.0,5.0,5.0,5.0,1.0,turkey_10s.jpg,tablet_04s.jpg,,,,,,,,,,,,,,,,,,,,,,
0.0,1.0,1.311,,,,,,swan_11s.jpg,0.0,clockno_up.jpg,1.0,71,,,,,,,,,,,,,,,,,,0.0,0.0,0.0,0.0,1.0,,,,,,,,,,
0.0,1.0,1.265,,,,,,hummingbird_05s.jpg,0.0,clockno_default.jpg,1.0,71,,,,,,,,,,,,,,,,,,0.0,1.0,1.0,1.0,1.0,,,,,,,,,,
0.0,1.0,0.667,,,,,,pretzel_09s.jpg,0.0,clockno_default.jpg,1.0,71,,,,,,,,,,,,,,,,,,0.0,2.0,2.0,2.0,1.0,,,,,,,,,,
0.0,0.0,0.972,,,,,,pretzel_09s.jpg,1.0,clockno_default.jpg,1.0,71,,,,,,,,,,,,,,,,,,0.0,3.0,3.0,3.0,1.0,,,,,,,,,,
1.0,1.0,0.802,,,,,,pretzel_09s.jpg,1.0,clockno_default.jpg,1.0,71,,,,,,,,,,,,,,,,,,0.0,4.0,4.0,4.0,1.0,,,,,,,,,,
0.0,1.0,0.783,,,,,,tennis_ball_06s.jpg,0.0,clockno_default.jpg,1.0,71,,,,,,,,,,,,,,,,,,0.0,5.0,5.0,5.0,1.0,,,,,,,,,,
0.0,1.0,0.616,,,,,,perfume_06s.jpg,0.0,clockno_up.jpg,2.0,71,,,,,,,,,,,,,,,,,,0.0,6.0,6.0,6.0,1.0,,,,,,,,,,
1.0,0.0,1.373,,,,,,pretzel_09s.jpg,0.0,clockno_default.jpg,2.0,71,,,,,,,,,,,,,,,,,,0.0,7.0,7.0,7.0,1.0,,,,,,,,,,
0.0,1.0,0.849,,,,,,teapot_03s.jpg,0.0,clockno_default.jpg,2.0,71,,,,,,,,,,,,,,,,,,0.0,8.0,8.0,8.0,1.0,,,,,,,,,,
0.0,1.0,0.703,,,,,,denture_03s.jpg,0.0,clockno_default.jpg,2.0,71,,,,,,,,,,,,,,,,,,0.0,9.0,9.0,9.0,1.0,,,,,,,,,,
0.0,1.0,0.804,,,,,,mitten_10s.jpg,0.0,clockno_default.jpg,2.0,71,,,,,,,,,,,,,,,,,,0.0,10.0,10.0,10.0,1.0,,,,,,,,,,
0.0,1.0,0.599,,,,,,pineapple_12s.jpg,0.0,clockno_up.jpg,3.0,71,,,,,,,,,,,,,,,,,,0.0,11.0,11.0,11.0,1.0,,,,,,,,,,
0.0,1.0,1.456,,,,,,fire_pit_10s.jpg,0.0,clockno_default.jpg,3.0,71,,,,,,,,,,,,,,,,,,0.0,12.0,12.0,12.0,1.0,,,,,,,,,,
0.0,1.0,1.217,,,,,,icemaker_10s.jpg,0.0,clockno_default.jpg,3.0,71,,,,,,,,,,,,,,,,,,0.0,13.0,13.0,13.0,1.0,,,,,,,,,,
1.0,0.0,1.2,,,,,,denture_03s.jpg,0.0,clockno_default.jpg,3.0,71,,,,,,,,,,,,,,,,,,0.0,14.0,14.0,14.0,1.0,,,,,,,,,,
0.0,1.0,1.115,,,,,,tomato_sauce_09s.jpg,0.0,clockno_default.jpg,3.0,71,,,,,,,,,,,,,,,,,,0.0,15.0,15.0,15.0,1.0,,,,,,,,,,
0.0,1.0,0.974,,,,,,chalice_10s.jpg,0.0,clockno_up.jpg,4.0,71,,,,,,,,,,,,,,,,,,0.0,16.0,16.0,16.0,1.0,,,,,,,,,,
0.0,1.0,1.036,,,,,,pepper_mill_03s.jpg,0.0,clockno_default.jpg,4.0,71,,,,,,,,,,,,,,,,,,0.0,17.0,17.0,17.0,1.0,,,,,,,,,,
0.0,1.0,1.39,,,,,,pencil_sharpener_09n.jpg,0.0,clockno_default.jpg,4.0,71,,,,,,,,,,,,,,,,,,0.0,18.0,18.0,18.0,1.0,,,,,,,,,,
0.0,0.0,1.155,,,,,,chalice_10s.jpg,1.0,clockno_default.jpg,4.0,71,,,,,,,,,,,,,,,,,,0.0,19.0,19.0,19.0,1.0,,,,,,,,,,
0.0,1.0,0.882,,,,,,crossbow_10s.jpg,0.0,clockno_default.jpg,4.0,71,,,,,,,,,,,,,,,,,,0.0,20.0,20.0,20.0,1.0,,,,,,,,,,
0.0,1.0,1.299,,,,,,tortilla_06s.jpg,0.0,clockno_default.jpg,4.0,71,,,,,,,,,,,,,,,,,,0.0,21.0,21.0,21.0,1.0,,,,,,,,,,
0.0,1.0,0.923,,,,,,penlight_12s.jpg,0.0,clockno_default.jpg,4.0,71,,,,,,,,,,,,,,,,,,0.0,22.0,22.0,22.0,1.0,,,,,,,,,,
0.0,1.0,0.982,,,,,,keyboard_05s.jpg,0.0,clockno_up.jpg,5.0,71,,,,,,,,,,,,,,,,,,0.0,23.0,23.0,23.0,1.0,,,,,,,,,,
0.0,0.0,1.35,,,,,,keyboard_05s.jpg,1.0,clockno_default.jpg,5.0,71,,,,,,,,,,,,,,,,,,0.0,24.0,24.0,24.0,1.0,,,,,,,,,,
0.0,1.0,1.083,,,,,,sparkler_02s.jpg,0.0,clockno_default.jpg,5.0,71,,,,,,,,,,,,,,,,,,0.0,25.0,25.0,25.0,1.0,,,,,,,,,,
0.0,1.0,1.648,,,,,,pinwheel_06s.jpg,0.0,clockno_default.jpg,5.0,71,,,,,,,,,,,,,,,,,,0.0,26.0,26.0,26.0,1.0,,,,,,,,,,
0.0,1.0,0.59,,,,,,frog_09s.jpg,0.0,clockno_default.jpg,5.0,71,,,,,,,,,,,,,,,,,,0.0,27.0,27.0,27.0,1.0,,,,,,,,,,
0.0,1.0,1.232,,,,,,pepper_mill_03s.jpg,0.0,clockno_default.jpg,5.0,71,,,,,,,,,,,,,,,,,,0.0,28.0,28.0,28.0,1.0,,,,,,,,,,
0.0,1.0,1.25,,,,,,gargoyle_08s.jpg,0.0,clockno_default.jpg,5.0,71,,,,,,,,,,,,,,,,,,0.0,29.0,29.0,29.0,1.0,,,,,,,,,,
0.0,1.0,1.384,,,,,,rosary_03s.jpg,0.0,clockno_up.jpg,6.0,71,,,,,,,,,,,,,,,,,,0.0,30.0,30.0,30.0,1.0,,,,,,,,,,
0.0,0.0,1.526,,,,,,rosary_03s.jpg,1.0,clockno_default.jpg,6.0,71,,,,,,,,,,,,,,,,,,0.0,31.0,31.0,31.0,1.0,,,,,,,,,,
0.0,1.0,0.833,,,,,,chocolate_01b.jpg,0.0,clockno_default.jpg,6.0,71,,,,,,,,,,,,,,,,,,0.0,32.0,32.0,32.0,1.0,,,,,,,,,,
1.0,1.0,1.747,,,,,,chocolate_01b.jpg,1.0,clockno_default.jpg,6.0,71,,,,,,,,,,,,,,,,,,0.0,33.0,33.0,33.0,1.0,,,,,,,,,,
0.0,1.0,1.322,,,,,,raft_09s.jpg,0.0,clockno_default.jpg,6.0,71,,,,,,,,,,,,,,,,,,0.0,34.0,34.0,34.0,1.0,,,,,,,,,,
0.0,1.0,0.923,,,,,,ravioli_08s.jpg,0.0,clockno_default.jpg,6.0,71,,,,,,,,,,,,,,,,,,0.0,35.0,35.0,35.0,1.0,,,,,,,,,,
,,,,,,,,,0.0,,,71,0.0,1.0,2.579,,,,,,teapot_03s.jpg,tennis_ball_06s.jpg,,,,,,,,,,,,,0.0,0.0,0.0,0.0,1.0,,,,,
,,,,,,,,,1.0,,,71,0.0,0.0,1.249,,,,,,mitten_10s.jpg,icemaker_10s.jpg,,,,,,,,,,,,,0.0,1.0,1.0,1.0,1.0,,,,,
,,,,,,,,,0.0,,,71,1.0,0.0,1.382,,,,,,sparkler_02s.jpg,penlight_12s.jpg,,,,,,,,,,,,,0.0,2.0,2.0,2.0,1.0,,,,,
,,,,,,,,,1.0,,,71,0.0,0.0,2.476,,,,,,pinwheel_06s.jpg,gargoyle_08s.jpg,,,,,,,,,,,,,0.0,3.0,3.0,3.0,1.0,,,,,
,,,,,,,,,1.0,,,71,0.0,0.0,1.304,,,,,,fire_pit_10s.jpg,tomato_sauce_09s.jpg,,,,,,,,,,,,,0.0,4.0,4.0,4.0,1.0,,,,,
,,,,,,,,,1.0,,,71,1.0,1.0,1.849,,,,,,pencil_sharpener_09n.jpg,tortilla_06s.jpg,,,,,,,,,,,,,0.0,5.0,5.0,5.0,1.0,,,,,
,,,,,,,,,,,,71,,,,,,,,,,,,,,,,clockno_present_1_14.xlsx,clockno_compare_task_1_14.xlsx,,,,,,,,,,,0.0,0.0,0.0,0.0,1.0
0.0,1.0,0.754,,,,,,mousetrap_15n.jpg,0.0,clockno_up.jpg,1.0,71,,,,,,,,,,,,,,,,,,0.0,0.0,0.0,0.0,1.0,,,,,,,,,,
0.0,1.0,0.859,,,,,,bee_20s.jpg,0.0,clockno_default.jpg,1.0,71,,,,,,,,,,,,,,,,,,0.0,1.0,1.0,1.0,1.0,,,,,,,,,,
1.0,1.0,0.95,,,,,,bee_20s.jpg,1.0,clockno_default.jpg,1.0,71,,,,,,,,,,,,,,,,,,0.0,2.0,2.0,2.0,1.0,,,,,,,,,,
0.0,0.0,1.791,,,,,,mousetrap_15n.jpg,1.0,clockno_default.jpg,1.0,71,,,,,,,,,,,,,,,,,,0.0,3.0,3.0,3.0,1.0,,,,,,,,,,
0.0,0.0,0.899,,,,,,mousetrap_15n.jpg,1.0,clockno_default.jpg,1.0,71,,,,,,,,,,,,,,,,,,0.0,4.0,4.0,4.0,1.0,,,,,,,,,,
0.0,1.0,1.014,,,,,,birdcage_08s.jpg,0.0,clockno_up.jpg,2.0,71,,,,,,,,,,,,,,,,,,0.0,5.0,5.0,5.0,1.0,,,,,,,,,,
0.0,1.0,1.311,,,,,,recliner_02s.jpg,0.0,clockno_default.jpg,2.0,71,,,,,,,,,,,,,,,,,,0.0,6.0,6.0,6.0,1.0,,,,,,,,,,
0.0,1.0,0.884,,,,,,plunger_08s.jpg,0.0,clockno_default.jpg,2.0,71,,,,,,,,,,,,,,,,,,0.0,7.0,7.0,7.0,1.0,,,,,,,,,,
0.0,1.0,1.167,,,,,,marker_05s.jpg,0.0,clockno_default.jpg,2.0,71,,,,,,,,,,,,,,,,,,0.0,8.0,8.0,8.0,1.0,,,,,,,,,,
0.0,1.0,0.999,,,,,,rocking_horse_03s.jpg,0.0,clockno_default.jpg,2.0,71,,,,,,,,,,,,,,,,,,0.0,9.0,9.0,9.0,1.0,,,,,,,,,,
0.0,1.0,0.785,,,,,,tape_06s.jpg,0.0,clockno_default.jpg,2.0,71,,,,,,,,,,,,,,,,,,0.0,10.0,10.0,10.0,1.0,,,,,,,,,,
0.0,1.0,0.688,,,,,,plaster_cast_13s.jpg,0.0,clockno_default.jpg,2.0,71,,,,,,,,,,,,,,,,,,0.0,11.0,11.0,11.0,1.0,,,,,,,,,,
0.0,1.0,0.59,,,,,,diving_board_07s.jpg,0.0,clockno_up.jpg,3.0,71,,,,,,,,,,,,,,,,,,0.0,12.0,12.0,12.0,1.0,,,,,,,,,,
0.0,1.0,0.782,,,,,,ring_03s.jpg,0.0,clockno_default.jpg,3.0,71,,,,,,,,,,,,,,,,,,0.0,13.0,13.0,13.0,1.0,,,,,,,,,,
0.0,1.0,1.139,,,,,,lollipop_08s.jpg,0.0,clockno_default.jpg,3.0,71,,,,,,,,,,,,,,,,,,0.0,14.0,14.0,14.0,1.0,,,,,,,,,,
0.0,0.0,0.971,,,,,,diving_board_07s.jpg,1.0,clockno_default.jpg,3.0,71,,,,,,,,,,,,,,,,,,0.0,15.0,15.0,15.0,1.0,,,,,,,,,,
0.0,1.0,0.52,,,,,,marker_05s.jpg,0.0,clockno_default.jpg,3.0,71,,,,,,,,,,,,,,,,,,0.0,16.0,16.0,16.0,1.0,,,,,,,,,,
0.0,1.0,0.682,,,,,,rooster_03s.jpg,0.0,clockno_default.jpg,3.0,71,,,,,,,,,,,,,,,,,,0.0,17.0,17.0,17.0,1.0,,,,,,,,,,
0.0,1.0,0.968,,,,,,bolo_tie_08s.jpg,0.0,clockno_up.jpg,4.0,71,,,,,,,,,,,,,,,,,,0.0,18.0,18.0,18.0,1.0,,,,,,,,,,
1.0,1.0,1.424,,,,,,bolo_tie_08s.jpg,1.0,clockno_default.jpg,4.0,71,,,,,,,,,,,,,,,,,,0.0,19.0,19.0,19.0,1.0,,,,,,,,,,
1.0,1.0,1.468,,,,,,bolo_tie_08s.jpg,1.0,clockno_default.jpg,4.0,71,,,,,,,,,,,,,,,,,,0.0,20.0,20.0,20.0,1.0,,,,,,,,,,
0.0,1.0,0.625,,,,,,lion_18s.jpg,0.0,clockno_default.jpg,4.0,71,,,,,,,,,,,,,,,,,,0.0,21.0,21.0,21.0,1.0,,,,,,,,,,
0.0,1.0,0.657,,,,,,ladle_04s.jpg,0.0,clockno_default.jpg,4.0,71,,,,,,,,,,,,,,,,,,0.0,22.0,22.0,22.0,1.0,,,,,,,,,,
0.0,1.0,0.718,,,,,,bank_06s.jpg,0.0,clockno_default.jpg,4.0,71,,,,,,,,,,,,,,,,,,0.0,23.0,23.0,23.0,1.0,,,,,,,,,,
0.0,1.0,0.783,,,,,,turtleneck_11s.jpg,0.0,clockno_default.jpg,4.0,71,,,,,,,,,,,,,,,,,,0.0,24.0,24.0,24.0,1.0,,,,,,,,,,
0.0,1.0,0.641,,,,,,funnel_01b.jpg,0.0,clockno_up.jpg,5.0,71,,,,,,,,,,,,,,,,,,0.0,25.0,25.0,25.0,1.0,,,,,,,,,,
0.0,1.0,0.784,,,,,,antenna_01b.jpg,0.0,clockno_default.jpg,5.0,71,,,,,,,,,,,,,,,,,,0.0,26.0,26.0,26.0,1.0,,,,,,,,,,
0.0,1.0,0.633,,,,,,juicer2_06s.jpg,0.0,clockno_default.jpg,5.0,71,,,,,,,,,,,,,,,,,,0.0,27.0,27.0,27.0,1.0,,,,,,,,,,
0.0,0.0,0.52,,,,,,funnel_01b.jpg,1.0,clockno_default.jpg,5.0,71,,,,,,,,,,,,,,,,,,0.0,28.0,28.0,28.0,1.0,,,,,,,,,,
0.0,1.0,0.555,,,,,,sunflower_17s.jpg,0.0,clockno_default.jpg,5.0,71,,,,,,,,,,,,,,,,,,0.0,29.0,29.0,29.0,1.0,,,,,,,,,,
0.0,1.0,0.523,,,,,,crayon_09s.jpg,0.0,clockno_default.jpg,5.0,71,,,,,,,,,,,,,,,,,,0.0,30.0,30.0,30.0,1.0,,,,,,,,,,
0.0,1.0,0.576,,,,,,gas_mask_11s.jpg,0.0,clockno_up.jpg,6.0,71,,,,,,,,,,,,,,,,,,0.0,31.0,31.0,31.0,1.0,,,,,,,,,,
0.0,1.0,0.883,,,,,,inhaler_01b.jpg,0.0,clockno_default.jpg,6.0,71,,,,,,,,,,,,,,,,,,0.0,32.0,32.0,32.0,1.0,,,,,,,,,,
0.0,0.0,1.411,,,,,,gas_mask_11s.jpg,1.0,clockno_default.jpg,6.0,71,,,,,,,,,,,,,,,,,,0.0,33.0,33.0,33.0,1.0,,,,,,,,,,
0.0,1.0,0.551,,,,,,sunglasses_11s.jpg,0.0,clockno_default.jpg,6.0,71,,,,,,,,,,,,,,,,,,0.0,34.0,34.0,34.0,1.0,,,,,,,,,,
0.0,1.0,0.674,,,,,,rooster_03s.jpg,0.0,clockno_default.jpg,6.0,71,,,,,,,,,,,,,,,,,,0.0,35.0,35.0,35.0,1.0,,,,,,,,,,
,,,,,,,,,1.0,,,71,0.0,0.0,2.096,,,,,,plaster_cast_13s.jpg,lollipop_08s.jpg,,,,,,,,,,,,,0.0,0.0,0.0,0.0,1.0,,,,,
,,,,,,,,,1.0,,,71,0.0,0.0,1.954,,,,,,tape_06s.jpg,ring_03s.jpg,,,,,,,,,,,,,0.0,1.0,1.0,1.0,1.0,,,,,
,,,,,,,,,1.0,,,71,1.0,1.0,1.57,,,,,,bank_06s.jpg,antenna_01b.jpg,,,,,,,,,,,,,0.0,2.0,2.0,2.0,1.0,,,,,
,,,,,,,,,1.0,,,71,1.0,1.0,2.509,,,,,,recliner_02s.jpg,rocking_horse_03s.jpg,,,,,,,,,,,,,0.0,3.0,3.0,3.0,1.0,,,,,
,,,,,,,,,0.0,,,71,1.0,0.0,1.536,,,,,,turtleneck_11s.jpg,lion_18s.jpg,,,,,,,,,,,,,0.0,4.0,4.0,4.0,1.0,,,,,
,,,,,,,,,1.0,,,71,0.0,0.0,0.854,,,,,,juicer2_06s.jpg,crayon_09s.jpg,,,,,,,,,,,,,0.0,5.0,5.0,5.0,1.0,,,,,
,,,,,,,,,,,,71,,,,,,,,,,,,,,,,clockno_present_2_14.xlsx,clockno_compare_task_2_14.xlsx,,,,,,,,,,,0.0,1.0,1.0,1.0,1.0
0.0,1.0,1.295,,,,,,phone_01b.jpg,0.0,clockno_up.jpg,1.0,71,,,,,,,,,,,,,,,,,,0.0,0.0,0.0,0.0,1.0,,,,,,,,,,
1.0,1.0,2.323,,,,,,phone_01b.jpg,1.0,clockno_default.jpg,1.0,71,,,,,,,,,,,,,,,,,,0.0,1.0,1.0,1.0,1.0,,,,,,,,,,
0.0,1.0,0.718,,,,,,pan_02s.jpg,0.0,clockno_default.jpg,1.0,71,,,,,,,,,,,,,,,,,,0.0,2.0,2.0,2.0,1.0,,,,,,,,,,
0.0,1.0,0.74,,,,,,turnstile_08s.jpg,0.0,clockno_default.jpg,1.0,71,,,,,,,,,,,,,,,,,,0.0,3.0,3.0,3.0,1.0,,,,,,,,,,
0.0,1.0,1.035,,,,,,rolling_pin_02s.jpg,0.0,clockno_default.jpg,1.0,71,,,,,,,,,,,,,,,,,,0.0,4.0,4.0,4.0,1.0,,,,,,,,,,
0.0,1.0,1.223,,,,,,rocket_02s.jpg,0.0,clockno_default.jpg,1.0,71,,,,,,,,,,,,,,,,,,0.0,5.0,5.0,5.0,1.0,,,,,,,,,,
0.0,1.0,1.037,,,,,,cape_11s.jpg,0.0,clockno_default.jpg,1.0,71,,,,,,,,,,,,,,,,,,0.0,6.0,6.0,6.0,1.0,,,,,,,,,,
0.0,1.0,1.072,,,,,,tube_top_03s.jpg,0.0,clockno_up.jpg,2.0,71,,,,,,,,,,,,,,,,,,0.0,7.0,7.0,7.0,1.0,,,,,,,,,,
0.0,1.0,1.121,,,,,,gingerbread_man_03s.jpg,0.0,clockno_default.jpg,2.0,71,,,,,,,,,,,,,,,,,,0.0,8.0,8.0,8.0,1.0,,,,,,,,,,
0.0,1.0,0.776,,,,,,bottle_opener_11s.jpg,0.0,clockno_default.jpg,2.0,71,,,,,,,,,,,,,,,,,,0.0,9.0,9.0,9.0,1.0,,,,,,,,,,
0.0,1.0,1.0,,,,,,light_switch_02s.jpg,0.0,clockno_default.jpg,2.0,71,,,,,,,,,,,,,,,,,,0.0,10.0,10.0,10.0,1.0,,,,,,,,,,
0.0,0.0,1.566,,,,,,gingerbread_man_03s.jpg,1.0,clockno_default.jpg,2.0,71,,,,,,,,,,,,,,,,,,0.0,11.0,11.0,11.0,1.0,,,,,,,,,,
0.0,1.0,1.972,,,,,,turf_03s.jpg,0.0,clockno_up.jpg,3.0,71,,,,,,,,,,,,,,,,,,0.0,12.0,12.0,12.0,1.0,,,,,,,,,,
0.0,1.0,0.867,,,,,,poinsettia_04s.jpg,0.0,clockno_default.jpg,3.0,71,,,,,,,,,,,,,,,,,,0.0,13.0,13.0,13.0,1.0,,,,,,,,,,
1.0,1.0,1.319,,,,,,turf_03s.jpg,1.0,clockno_default.jpg,3.0,71,,,,,,,,,,,,,,,,,,0.0,14.0,14.0,14.0,1.0,,,,,,,,,,
0.0,1.0,0.688,,,,,,quilt_03s.jpg,0.0,clockno_default.jpg,3.0,71,,,,,,,,,,,,,,,,,,0.0,15.0,15.0,15.0,1.0,,,,,,,,,,
1.0,0.0,1.15,,,,,,tube_top_03s.jpg,0.0,clockno_default.jpg,3.0,71,,,,,,,,,,,,,,,,,,0.0,16.0,16.0,16.0,1.0,,,,,,,,,,
0.0,1.0,0.653,,,,,,compass_10n.jpg,0.0,clockno_default.jpg,3.0,71,,,,,,,,,,,,,,,,,,0.0,17.0,17.0,17.0,1.0,,,,,,,,,,
0.0,1.0,0.968,,,,,,fur_coat_11s.jpg,0.0,clockno_default.jpg,3.0,71,,,,,,,,,,,,,,,,,,0.0,18.0,18.0,18.0,1.0,,,,,,,,,,
0.0,1.0,0.727,,,,,,squirt_gun_03s.jpg,0.0,clockno_up.jpg,4.0,71,,,,,,,,,,,,,,,,,,0.0,19.0,19.0,19.0,1.0,,,,,,,,,,
0.0,0.0,1.28,,,,,,squirt_gun_03s.jpg,1.0,clockno_default.jpg,4.0,71,,,,,,,,,,,,,,,,,,0.0,20.0,20.0,20.0,1.0,,,,,,,,,,
0.0,1.0,0.635,,,,,,candy_cane_06s.jpg,0.0,clockno_default.jpg,4.0,71,,,,,,,,,,,,,,,,,,0.0,21.0,21.0,21.0,1.0,,,,,,,,,,
0.0,1.0,0.785,,,,,,boar_10s.jpg,0.0,clockno_default.jpg,4.0,71,,,,,,,,,,,,,,,,,,0.0,22.0,22.0,22.0,1.0,,,,,,,,,,
0.0,1.0,0.616,,,,,,poinsettia_04s.jpg,0.0,clockno_default.jpg,4.0,71,,,,,,,,,,,,,,,,,,0.0,23.0,23.0,23.0,1.0,,,,,,,,,,
0.0,1.0,0.786,,,,,,possum_09s.jpg,0.0,clockno_default.jpg,4.0,71,,,,,,,,,,,,,,,,,,0.0,24.0,24.0,24.0,1.0,,,,,,,,,,
0.0,1.0,0.739,,,,,,cobra_05s.jpg,0.0,clockno_up.jpg,5.0,71,,,,,,,,,,,,,,,,,,0.0,25.0,25.0,25.0,1.0,,,,,,,,,,
0.0,1.0,0.798,,,,,,chopsticks_08s.jpg,0.0,clockno_default.jpg,5.0,71,,,,,,,,,,,,,,,,,,0.0,26.0,26.0,26.0,1.0,,,,,,,,,,
0.0,1.0,0.637,,,,,,fossil_06s.jpg,0.0,clockno_default.jpg,5.0,71,,,,,,,,,,,,,,,,,,0.0,27.0,27.0,27.0,1.0,,,,,,,,,,
0.0,0.0,0.783,,,,,,fossil_06s.jpg,1.0,clockno_default.jpg,5.0,71,,,,,,,,,,,,,,,,,,0.0,28.0,28.0,28.0,1.0,,,,,,,,,,
0.0,1.0,0.733,,,,,,padlock_07s.jpg,0.0,clockno_default.jpg,5.0,71,,,,,,,,,,,,,,,,,,0.0,29.0,29.0,29.0,1.0,,,,,,,,,,
0.0,1.0,0.753,,,,,,soda_fountain_03s.jpg,0.0,clockno_up.jpg,6.0,71,,,,,,,,,,,,,,,,,,0.0,30.0,30.0,30.0,1.0,,,,,,,,,,
0.0,1.0,0.816,,,,,,pipe1_10s.jpg,0.0,clockno_default.jpg,6.0,71,,,,,,,,,,,,,,,,,,0.0,31.0,31.0,31.0,1.0,,,,,,,,,,
0.0,1.0,0.832,,,,,,loom_05s.jpg,0.0,clockno_default.jpg,6.0,71,,,,,,,,,,,,,,,,,,0.0,32.0,32.0,32.0,1.0,,,,,,,,,,
0.0,1.0,1.073,,,,,,jersey_02s.jpg,0.0,clockno_default.jpg,6.0,71,,,,,,,,,,,,,,,,,,0.0,33.0,33.0,33.0,1.0,,,,,,,,,,
0.0,1.0,0.926,,,,,,mop_08s.jpg,0.0,clockno_default.jpg,6.0,71,,,,,,,,,,,,,,,,,,0.0,34.0,34.0,34.0,1.0,,,,,,,,,,
0.0,1.0,0.615,,,,,,puppet_01b.jpg,0.0,clockno_default.jpg,6.0,71,,,,,,,,,,,,,,,,,,0.0,35.0,35.0,35.0,1.0,,,,,,,,,,
,,,,,,,,,1.0,,,71,1.0,1.0,1.934,,,,,,boar_10s.jpg,cobra_05s.jpg,,,,,,,,,,,,,0.0,0.0,0.0,0.0,1.0,,,,,
,,,,,,,,,0.0,,,71,1.0,0.0,1.18,,,,,,bottle_opener_11s.jpg,cape_11s.jpg,,,,,,,,,,,,,0.0,1.0,1.0,1.0,1.0,,,,,
,,,,,,,,,0.0,,,71,0.0,1.0,1.636,,,,,,candy_cane_06s.jpg,fur_coat_11s.jpg,,,,,,,,,,,,,0.0,2.0,2.0,2.0,1.0,,,,,
,,,,,,,,,0.0,,,71,1.0,0.0,1.303,,,,,,rocket_02s.jpg,pan_02s.jpg,,,,,,,,,,,,,0.0,3.0,3.0,3.0,1.0,,,,,
,,,,,,,,,1.0,,,71,0.0,0.0,1.352,,,,,,soda_fountain_03s.jpg,jersey_02s.jpg,,,,,,,,,,,,,0.0,4.0,4.0,4.0,1.0,,,,,
,,,,,,,,,0.0,,,71,1.0,0.0,0.906,,,,,,mop_08s.jpg,pipe1_10s.jpg,,,,,,,,,,,,,0.0,5.0,5.0,5.0,1.0,,,,,
,,,,,,,,,,,,71,,,,,,,,,,,,,,,,clockno_present_3_14.xlsx,clockno_compare_task_3_14.xlsx,,,,,,,,,,,0.0,2.0,2.0,2.0,1.0
0.0,1.0,1.162,,,,,,beard_16s.jpg,0.0,clockno_up.jpg,1.0,71,,,,,,,,,,,,,,,,,,0.0,0.0,0.0,0.0,1.0,,,,,,,,,,
0.0,0.0,1.58,,,,,,beard_16s.jpg,1.0,clockno_default.jpg,1.0,71,,,,,,,,,,,,,,,,,,0.0,1.0,1.0,1.0,1.0,,,,,,,,,,
0.0,1.0,0.91,,,,,,printer_09s.jpg,0.0,clockno_default.jpg,1.0,71,,,,,,,,,,,,,,,,,,0.0,2.0,2.0,2.0,1.0,,,,,,,,,,
0.0,1.0,0.574,,,,,,juicer1_08s.jpg,0.0,clockno_default.jpg,1.0,71,,,,,,,,,,,,,,,,,,0.0,3.0,3.0,3.0,1.0,,,,,,,,,,
0.0,1.0,0.734,,,,,,cotton_candy_01b.jpg,0.0,clockno_default.jpg,1.0,71,,,,,,,,,,,,,,,,,,0.0,4.0,4.0,4.0,1.0,,,,,,,,,,
0.0,1.0,0.668,,,,,,tape_measure_11s.jpg,0.0,clockno_up.jpg,2.0,71,,,,,,,,,,,,,,,,,,0.0,5.0,5.0,5.0,1.0,,,,,,,,,,
1.0,0.0,1.503,,,,,,beard_16s.jpg,0.0,clockno_default.jpg,2.0,71,,,,,,,,,,,,,,,,,,0.0,6.0,6.0,6.0,1.0,,,,,,,,,,
0.0,1.0,0.484,,,,,,trampoline_13s.jpg,0.0,clockno_default.jpg,2.0,71,,,,,,,,,,,,,,,,,,0.0,7.0,7.0,7.0,1.0,,,,,,,,,,
0.0,0.0,0.7,,,,,,trampoline_13s.jpg,1.0,clockno_default.jpg,2.0,71,,,,,,,,,,,,,,,,,,0.0,8.0,8.0,8.0,1.0,,,,,,,,,,
0.0,0.0,1.424,,,,,,trampoline_13s.jpg,1.0,clockno_default.jpg,2.0,71,,,,,,,,,,,,,,,,,,0.0,9.0,9.0,9.0,1.0,,,,,,,,,,
0.0,1.0,0.817,,,,,,kangaroo_02s.jpg,0.0,clockno_default.jpg,2.0,71,,,,,,,,,,,,,,,,,,0.0,10.0,10.0,10.0,1.0,,,,,,,,,,
0.0,1.0,0.732,,,,,,mirror_12s.jpg,0.0,clockno_default.jpg,2.0,71,,,,,,,,,,,,,,,,,,0.0,11.0,11.0,11.0,1.0,,,,,,,,,,
0.0,1.0,1.051,,,,,,powder_07s.jpg,0.0,clockno_up.jpg,3.0,71,,,,,,,,,,,,,,,,,,0.0,12.0,12.0,12.0,1.0,,,,,,,,,,
0.0,1.0,0.706,,,,,,rollerskate_03s.jpg,0.0,clockno_default.jpg,3.0,71,,,,,,,,,,,,,,,,,,0.0,13.0,13.0,13.0,1.0,,,,,,,,,,
0.0,1.0,0.652,,,,,,gear_07s.jpg,0.0,clockno_default.jpg,3.0,71,,,,,,,,,,,,,,,,,,0.0,14.0,14.0,14.0,1.0,,,,,,,,,,
0.0,1.0,0.67,,,,,,playpen_11s.jpg,0.0,clockno_default.jpg,3.0,71,,,,,,,,,,,,,,,,,,0.0,15.0,15.0,15.0,1.0,,,,,,,,,,
0.0,0.0,0.615,,,,,,playpen_11s.jpg,1.0,clockno_default.jpg,3.0,71,,,,,,,,,,,,,,,,,,0.0,16.0,16.0,16.0,1.0,,,,,,,,,,
0.0,1.0,0.569,,,,,,keyhole_03s.jpg,0.0,clockno_up.jpg,4.0,71,,,,,,,,,,,,,,,,,,0.0,17.0,17.0,17.0,1.0,,,,,,,,,,
0.0,1.0,0.613,,,,,,spoon02a.jpg,0.0,clockno_default.jpg,4.0,71,,,,,,,,,,,,,,,,,,0.0,18.0,18.0,18.0,1.0,,,,,,,,,,
0.0,1.0,0.568,,,,,,mud_13s.jpg,0.0,clockno_default.jpg,4.0,71,,,,,,,,,,,,,,,,,,0.0,19.0,19.0,19.0,1.0,,,,,,,,,,
0.0,1.0,0.501,,,,,,pea_11s.jpg,0.0,clockno_default.jpg,4.0,71,,,,,,,,,,,,,,,,,,0.0,20.0,20.0,20.0,1.0,,,,,,,,,,
1.0,1.0,1.283,,,,,,spoon02a.jpg,1.0,clockno_default.jpg,4.0,71,,,,,,,,,,,,,,,,,,0.0,21.0,21.0,21.0,1.0,,,,,,,,,,
0.0,1.0,0.533,,,,,,turtle_08s.jpg,0.0,clockno_default.jpg,4.0,71,,,,,,,,,,,,,,,,,,0.0,22.0,22.0,22.0,1.0,,,,,,,,,,
0.0,1.0,0.809,,,,,,tattoo_14s.jpg,0.0,clockno_up.jpg,5.0,71,,,,,,,,,,,,,,,,,,0.0,23.0,23.0,23.0,1.0,,,,,,,,,,
0.0,1.0,0.581,,,,,,mirror_12s.jpg,0.0,clockno_default.jpg,5.0,71,,,,,,,,,,,,,,,,,,0.0,24.0,24.0,24.0,1.0,,,,,,,,,,
0.0,1.0,0.622,,,,,,tie_03s.jpg,0.0,clockno_default.jpg,5.0,71,,,,,,,,,,,,,,,,,,0.0,25.0,25.0,25.0,1.0,,,,,,,,,,
0.0,1.0,0.616,,,,,,printer_09s.jpg,0.0,clockno_default.jpg,5.0,71,,,,,,,,,,,,,,,,,,0.0,26.0,26.0,26.0,1.0,,,,,,,,,,
0.0,1.0,0.685,,,,,,roller_coaster_07s.jpg,0.0,clockno_default.jpg,5.0,71,,,,,,,,,,,,,,,,,,0.0,27.0,27.0,27.0,1.0,,,,,,,,,,
0.0,0.0,0.575,,,,,,tattoo_14s.jpg,1.0,clockno_default.jpg,5.0,71,,,,,,,,,,,,,,,,,,0.0,28.0,28.0,28.0,1.0,,,,,,,,,,
0.0,1.0,0.706,,,,,,toy_04s.jpg,0.0,clockno_default.jpg,5.0,71,,,,,,,,,,,,,,,,,,0.0,29.0,29.0,29.0,1.0,,,,,,,,,,
0.0,1.0,0.617,,,,,,projector_08s.jpg,0.0,clockno_up.jpg,6.0,71,,,,,,,,,,,,,,,,,,0.0,30.0,30.0,30.0,1.0,,,,,,,,,,
0.0,1.0,0.616,,,,,,ink_08s.jpg,0.0,clockno_default.jpg,6.0,71,,,,,,,,,,,,,,,,,,0.0,31.0,31.0,31.0,1.0,,,,,,,,,,
0.0,1.0,0.623,,,,,,teabag_12s.jpg,0.0,clockno_default.jpg,6.0,71,,,,,,,,,,,,,,,,,,0.0,32.0,32.0,32.0,1.0,,,,,,,,,,
0.0,1.0,0.565,,,,,,tongs_08s.jpg,0.0,clockno_default.jpg,6.0,71,,,,,,,,,,,,,,,,,,0.0,33.0,33.0,33.0,1.0,,,,,,,,,,
0.0,1.0,0.631,,,,,,power_line_08s.jpg,0.0,clockno_default.jpg,6.0,71,,,,,,,,,,,,,,,,,,0.0,34.0,34.0,34.0,1.0,,,,,,,,,,
0.0,1.0,0.877,,,,,,margarita_03s.jpg,0.0,clockno_default.jpg,6.0,71,,,,,,,,,,,,,,,,,,0.0,35.0,35.0,35.0,1.0,,,,,,,,,,
,,,,,,,,,0.0,,,71,1.0,0.0,1.31,,,,,,rollerskate_03s.jpg,kangaroo_02s.jpg,,,,,,,,,,,,,0.0,0.0,0.0,0.0,1.0,,,,,
,,,,,,,,,0.0,,,71,1.0,0.0,1.409,,,,,,keyhole_03s.jpg,gear_07s.jpg,,,,,,,,,,,,,0.0,1.0,1.0,1.0,1.0,,,,,
,,,,,,,,,0.0,,,71,0.0,1.0,1.548,,,,,,tie_03s.jpg,turtle_08s.jpg,,,,,,,,,,,,,0.0,2.0,2.0,2.0,1.0,,,,,
,,,,,,,,,1.0,,,71,0.0,0.0,1.424,,,,,,ink_08s.jpg,power_line_08s.jpg,,,,,,,,,,,,,0.0,3.0,3.0,3.0,1.0,,,,,
,,,,,,,,,0.0,,,71,1.0,0.0,1.665,,,,,,tongs_08s.jpg,projector_08s.jpg,,,,,,,,,,,,,0.0,4.0,4.0,4.0,1.0,,,,,
,,,,,,,,,1.0,,,71,1.0,1.0,1.441,,,,,,teabag_12s.jpg,margarita_03s.jpg,,,,,,,,,,,,,0.0,5.0,5.0,5.0,1.0,,,,,
,,,,,,,,,,,,71,,,,,,,,,,,,,,,,clockno_present_4_14.xlsx,clockno_compare_task_4_14.xlsx,,,,,,,,,,,0.0,3.0,3.0,3.0,1.0
0.0,1.0,1.157,,,,,,camcorder_10s.jpg,0.0,clockno_up.jpg,1.0,71,,,,,,,,,,,,,,,,,,0.0,0.0,0.0,0.0,1.0,,,,,,,,,,
0.0,1.0,0.759,,,,,,mixer_12s.jpg,0.0,clockno_default.jpg,1.0,71,,,,,,,,,,,,,,,,,,0.0,1.0,1.0,1.0,1.0,,,,,,,,,,
0.0,1.0,0.866,,,,,,comic_book_02s.jpg,0.0,clockno_default.jpg,1.0,71,,,,,,,,,,,,,,,,,,0.0,2.0,2.0,2.0,1.0,,,,,,,,,,
0.0,1.0,0.8,,,,,,treasure_08s.jpg,0.0,clockno_default.jpg,1.0,71,,,,,,,,,,,,,,,,,,0.0,3.0,3.0,3.0,1.0,,,,,,,,,,
0.0,0.0,0.509,,,,,,treasure_08s.jpg,1.0,clockno_default.jpg,1.0,71,,,,,,,,,,,,,,,,,,0.0,4.0,4.0,4.0,1.0,,,,,,,,,,
0.0,1.0,0.818,,,,,,metronome_03s.jpg,0.0,clockno_default.jpg,1.0,71,,,,,,,,,,,,,,,,,,0.0,5.0,5.0,5.0,1.0,,,,,,,,,,
1.0,1.0,1.408,,,,,,treasure_08s.jpg,1.0,clockno_default.jpg,1.0,71,,,,,,,,,,,,,,,,,,0.0,6.0,6.0,6.0,1.0,,,,,,,,,,
0.0,1.0,1.848,,,,,,golf_club_03s.jpg,0.0,clockno_up.jpg,2.0,71,,,,,,,,,,,,,,,,,,0.0,7.0,7.0,7.0,1.0,,,,,,,,,,
0.0,1.0,0.939,,,,,,ruby_15s.jpg,0.0,clockno_default.jpg,2.0,71,,,,,,,,,,,,,,,,,,0.0,8.0,8.0,8.0,1.0,,,,,,,,,,
0.0,1.0,0.872,,,,,,purse_05s.jpg,0.0,clockno_default.jpg,2.0,71,,,,,,,,,,,,,,,,,,0.0,9.0,9.0,9.0,1.0,,,,,,,,,,
0.0,1.0,0.933,,,,,,top_hat_11s.jpg,0.0,clockno_default.jpg,2.0,71,,,,,,,,,,,,,,,,,,0.0,10.0,10.0,10.0,1.0,,,,,,,,,,
0.0,1.0,0.768,,,,,,peach_04s.jpg,0.0,clockno_default.jpg,2.0,71,,,,,,,,,,,,,,,,,,0.0,11.0,11.0,11.0,1.0,,,,,,,,,,
0.0,1.0,0.952,,,,,,coffee_filter_10s.jpg,0.0,clockno_up.jpg,3.0,71,,,,,,,,,,,,,,,,,,0.0,12.0,12.0,12.0,1.0,,,,,,,,,,
0.0,1.0,1.105,,,,,,tiger_06s.jpg,0.0,clockno_default.jpg,3.0,71,,,,,,,,,,,,,,,,,,0.0,13.0,13.0,13.0,1.0,,,,,,,,,,
0.0,1.0,0.817,,,,,,feather02.jpg,0.0,clockno_default.jpg,3.0,71,,,,,,,,,,,,,,,,,,0.0,14.0,14.0,14.0,1.0,,,,,,,,,,
0.0,1.0,0.851,,,,,,coral_08s.jpg,0.0,clockno_default.jpg,3.0,71,,,,,,,,,,,,,,,,,,0.0,15.0,15.0,15.0,1.0,,,,,,,,,,
0.0,1.0,0.853,,,,,,knitting_needle_04s.jpg,0.0,clockno_default.jpg,3.0,71,,,,,,,,,,,,,,,,,,0.0,16.0,16.0,16.0,1.0,,,,,,,,,,
0.0,1.0,0.792,,,,,,coat_rack_01b.jpg,0.0,clockno_up.jpg,4.0,71,,,,,,,,,,,,,,,,,,0.0,17.0,17.0,17.0,1.0,,,,,,,,,,
0.0,1.0,0.774,,,,,,coral_08s.jpg,0.0,clockno_default.jpg,4.0,71,,,,,,,,,,,,,,,,,,0.0,18.0,18.0,18.0,1.0,,,,,,,,,,
0.0,1.0,0.683,,,,,,knitting_needle_04s.jpg,0.0,clockno_default.jpg,4.0,71,,,,,,,,,,,,,,,,,,0.0,19.0,19.0,19.0,1.0,,,,,,,,,,
0.0,0.0,0.551,,,,,,coat_rack_01b.jpg,1.0,clockno_default.jpg,4.0,71,,,,,,,,,,,,,,,,,,0.0,20.0,20.0,20.0,1.0,,,,,,,,,,
0.0,1.0,0.725,,,,,,pacifier_09s.jpg,0.0,clockno_default.jpg,4.0,71,,,,,,,,,,,,,,,,,,0.0,21.0,21.0,21.0,1.0,,,,,,,,,,
1.0,0.0,1.468,,,,,,ruby_15s.jpg,0.0,clockno_default.jpg,4.0,71,,,,,,,,,,,,,,,,,,0.0,22.0,22.0,22.0,1.0,,,,,,,,,,
0.0,1.0,0.71,,,,,,rocking_chair_05s.jpg,0.0,clockno_up.jpg,5.0,71,,,,,,,,,,,,,,,,,,0.0,23.0,23.0,23.0,1.0,,,,,,,,,,
0.0,1.0,0.775,,,,,,binder_21s.jpg,0.0,clockno_default.jpg,5.0,71,,,,,,,,,,,,,,,,,,0.0,24.0,24.0,24.0,1.0,,,,,,,,,,
0.0,1.0,0.787,,,,,,rudder_02s.jpg,0.0,clockno_default.jpg,5.0,71,,,,,,,,,,,,,,,,,,0.0,25.0,25.0,25.0,1.0,,,,,,,,,,
0.0,1.0,0.69,,,,,,totem_pole_05s.jpg,0.0,clockno_default.jpg,5.0,71,,,,,,,,,,,,,,,,,,0.0,26.0,26.0,26.0,1.0,,,,,,,,,,
0.0,0.0,0.773,,,,,,totem_pole_05s.jpg,1.0,clockno_default.jpg,5.0,71,,,,,,,,,,,,,,,,,,0.0,27.0,27.0,27.0,1.0,,,,,,,,,,
0.0,1.0,0.814,,,,,,memory_stick_11s.jpg,0.0,clockno_default.jpg,5.0,71,,,,,,,,,,,,,,,,,,0.0,28.0,28.0,28.0,1.0,,,,,,,,,,
0.0,1.0,0.883,,,,,,slingshot_07s.jpg,0.0,clockno_up.jpg,6.0,71,,,,,,,,,,,,,,,,,,0.0,29.0,29.0,29.0,1.0,,,,,,,,,,
0.0,0.0,0.732,,,,,,slingshot_07s.jpg,1.0,clockno_default.jpg,6.0,71,,,,,,,,,,,,,,,,,,0.0,30.0,30.0,30.0,1.0,,,,,,,,,,
0.0,1.0,0.67,,,,,,duck_01b.jpg,0.0,clockno_default.jpg,6.0,71,,,,,,,,,,,,,,,,,,0.0,31.0,31.0,31.0,1.0,,,,,,,,,,
0.0,1.0,0.717,,,,,,fox_13s.jpg,0.0,clockno_default.jpg,6.0,71,,,,,,,,,,,,,,,,,,0.0,32.0,32.0,32.0,1.0,,,,,,,,,,
0.0,1.0,0.625,,,,,,popcorn_09s.jpg,0.0,clockno_default.jpg,6.0,71,,,,,,,,,,,,,,,,,,0.0,33.0,33.0,33.0,1.0,,,,,,,,,,
0.0,0.0,0.667,,,,,,duck_01b.jpg,1.0,clockno_default.jpg,6.0,71,,,,,,,,,,,,,,,,,,0.0,34.0,34.0,34.0,1.0,,,,,,,,,,
0.0,1.0,0.77,,,,,,stamp2_08s.jpg,0.0,clockno_default.jpg,6.0,71,,,,,,,,,,,,,,,,,,0.0,35.0,35.0,35.0,1.0,,,,,,,,,,
,,,,,,,,,0.0,,,71,1.0,0.0,1.612,,,,,,coffee_filter_10s.jpg,purse_05s.jpg,,,,,,,,,,,,,0.0,0.0,0.0,0.0,1.0,,,,,
,,,,,,,,,1.0,,,71,0.0,0.0,1.165,,,,,,peach_04s.jpg,feather02.jpg,,,,,,,,,,,,,0.0,1.0,1.0,1.0,1.0,,,,,
,,,,,,,,,0.0,,,71,1.0,0.0,0.848,,,,,,binder_21s.jpg,pacifier_09s.jpg,,,,,,,,,,,,,0.0,2.0,2.0,2.0,1.0,,,,,
,,,,,,,,,1.0,,,71,0.0,0.0,1.269,,,,,,comic_book_02s.jpg,metronome_03s.jpg,,,,,,,,,,,,,0.0,3.0,3.0,3.0,1.0,,,,,
,,,,,,,,,1.0,,,71,1.0,1.0,1.89,,,,,,rudder_02s.jpg,memory_stick_11s.jpg,,,,,,,,,,,,,0.0,4.0,4.0,4.0,1.0,,,,,
,,,,,,,,,0.0,,,71,1.0,0.0,1.123,,,,,,stamp2_08s.jpg,fox_13s.jpg,,,,,,,,,,,,,0.0,5.0,5.0,5.0,1.0,,,,,
,,,,,,,,,,,,71,,,,,,,,,,,,,,,,clockno_present_5_14.xlsx,clockno_compare_task_5_14.xlsx,,,,,,,,,,,0.0,4.0,4.0,4.0,1.0
0.0,1.0,2.006,,,,,,popsicle_02s.jpg,0.0,clockno_up.jpg,1.0,71,,,,,,,,,,,,,,,,,,0.0,0.0,0.0,0.0,1.0,,,,,,,,,,
0.0,1.0,1.569,,,,,,emerald_02s.jpg,0.0,clockno_default.jpg,1.0,71,,,,,,,,,,,,,,,,,,0.0,1.0,1.0,1.0,1.0,,,,,,,,,,
1.0,1.0,1.506,,,,,,popsicle_02s.jpg,1.0,clockno_default.jpg,1.0,71,,,,,,,,,,,,,,,,,,0.0,2.0,2.0,2.0,1.0,,,,,,,,,,
0.0,1.0,1.17,,,,,,glue_01s.jpg,0.0,clockno_default.jpg,1.0,71,,,,,,,,,,,,,,,,,,0.0,3.0,3.0,3.0,1.0,,,,,,,,,,
1.0,1.0,1.439,,,,,,popsicle_02s.jpg,1.0,clockno_default.jpg,1.0,71,,,,,,,,,,,,,,,,,,0.0,4.0,4.0,4.0,1.0,,,,,,,,,,
0.0,0.0,0.718,,,,,,emerald_02s.jpg,1.0,clockno_default.jpg,1.0,71,,,,,,,,,,,,,,,,,,0.0,5.0,5.0,5.0,1.0,,,,,,,,,,
0.0,1.0,0.976,,,,,,pillbox_04s.jpg,0.0,clockno_up.jpg,2.0,71,,,,,,,,,,,,,,,,,,0.0,6.0,6.0,6.0,1.0,,,,,,,,,,
0.0,1.0,0.702,,,,,,scooter.jpg,0.0,clockno_default.jpg,2.0,71,,,,,,,,,,,,,,,,,,0.0,7.0,7.0,7.0,1.0,,,,,,,,,,
0.0,1.0,0.665,,,,,,cardinal_07s.jpg,0.0,clockno_default.jpg,2.0,71,,,,,,,,,,,,,,,,,,0.0,8.0,8.0,8.0,1.0,,,,,,,,,,
0.0,0.0,0.765,,,,,,cardinal_07s.jpg,1.0,clockno_default.jpg,2.0,71,,,,,,,,,,,,,,,,,,0.0,9.0,9.0,9.0,1.0,,,,,,,,,,
0.0,1.0,0.543,,,,,,chip_04s.jpg,0.0,clockno_default.jpg,2.0,71,,,,,,,,,,,,,,,,,,0.0,10.0,10.0,10.0,1.0,,,,,,,,,,
0.0,1.0,0.571,,,,,,owl_15s.jpg,0.0,clockno_up.jpg,3.0,71,,,,,,,,,,,,,,,,,,0.0,11.0,11.0,11.0,1.0,,,,,,,,,,
0.0,0.0,1.672,,,,,,owl_15s.jpg,1.0,clockno_default.jpg,3.0,71,,,,,,,,,,,,,,,,,,0.0,12.0,12.0,12.0,1.0,,,,,,,,,,
0.0,1.0,0.7,,,,,,mango_09s.jpg,0.0,clockno_default.jpg,3.0,71,,,,,,,,,,,,,,,,,,0.0,13.0,13.0,13.0,1.0,,,,,,,,,,
0.0,1.0,0.62,,,,,,pantyhose_07s.jpg,0.0,clockno_default.jpg,3.0,71,,,,,,,,,,,,,,,,,,0.0,14.0,14.0,14.0,1.0,,,,,,,,,,
0.0,1.0,0.617,,,,,,coconut_08s.jpg,0.0,clockno_default.jpg,3.0,71,,,,,,,,,,,,,,,,,,0.0,15.0,15.0,15.0,1.0,,,,,,,,,,
0.0,1.0,0.992,,,,,,potholder_02s.jpg,0.0,clockno_default.jpg,3.0,71,,,,,,,,,,,,,,,,,,0.0,16.0,16.0,16.0,1.0,,,,,,,,,,
0.0,1.0,0.932,,,,,,solar_panel_02s.jpg,0.0,clockno_up.jpg,4.0,71,,,,,,,,,,,,,,,,,,0.0,17.0,17.0,17.0,1.0,,,,,,,,,,
0.0,1.0,0.95,,,,,,touchpad_11s.jpg,0.0,clockno_default.jpg,4.0,71,,,,,,,,,,,,,,,,,,0.0,18.0,18.0,18.0,1.0,,,,,,,,,,
0.0,1.0,0.67,,,,,,rice_12s.jpg,0.0,clockno_default.jpg,4.0,71,,,,,,,,,,,,,,,,,,0.0,19.0,19.0,19.0,1.0,,,,,,,,,,
0.0,1.0,0.576,,,,,,machete_06s.jpg,0.0,clockno_default.jpg,4.0,71,,,,,,,,,,,,,,,,,,0.0,20.0,20.0,20.0,1.0,,,,,,,,,,
1.0,1.0,1.4,,,,,,touchpad_11s.jpg,1.0,clockno_default.jpg,4.0,71,,,,,,,,,,,,,,,,,,0.0,21.0,21.0,21.0,1.0,,,,,,,,,,
0.0,1.0,0.63,,,,,,trumpet_06s.jpg,0.0,clockno_default.jpg,4.0,71,,,,,,,,,,,,,,,,,,0.0,22.0,22.0,22.0,1.0,,,,,,,,,,
1.0,1.0,1.168,,,,,,touchpad_11s.jpg,1.0,clockno_default.jpg,4.0,71,,,,,,,,,,,,,,,,,,0.0,23.0,23.0,23.0,1.0,,,,,,,,,,
0.0,1.0,0.751,,,,,,lamb_04s.jpg,0.0,clockno_up.jpg,5.0,71,,,,,,,,,,,,,,,,,,0.0,24.0,24.0,24.0,1.0,,,,,,,,,,
0.0,1.0,0.643,,,,,,cucumber_07s.jpg,0.0,clockno_default.jpg,5.0,71,,,,,,,,,,,,,,,,,,0.0,25.0,25.0,25.0,1.0,,,,,,,,,,
0.0,1.0,0.752,,,,,,police_car_01s.jpg,0.0,clockno_default.jpg,5.0,71,,,,,,,,,,,,,,,,,,0.0,26.0,26.0,26.0,1.0,,,,,,,,,,
0.0,1.0,0.666,,,,,,latte_06s.jpg,0.0,clockno_default.jpg,5.0,71,,,,,,,,,,,,,,,,,,0.0,27.0,27.0,27.0,1.0,,,,,,,,,,
1.0,1.0,1.53,,,,,,police_car_01s.jpg,1.0,clockno_default.jpg,5.0,71,,,,,,,,,,,,,,,,,,0.0,28.0,28.0,28.0,1.0,,,,,,,,,,
0.0,1.0,0.698,,,,,,crab_16s.jpg,0.0,clockno_default.jpg,5.0,71,,,,,,,,,,,,,,,,,,0.0,29.0,29.0,29.0,1.0,,,,,,,,,,
0.0,1.0,0.805,,,,,,toaster_03s.jpg,0.0,clockno_default.jpg,5.0,71,,,,,,,,,,,,,,,,,,0.0,30.0,30.0,30.0,1.0,,,,,,,,,,
0.0,1.0,0.641,,,,,,parachute_03s.jpg,0.0,clockno_up.jpg,6.0,71,,,,,,,,,,,,,,,,,,0.0,31.0,31.0,31.0,1.0,,,,,,,,,,
0.0,1.0,0.581,,,,,,punch2_09s.jpg,0.0,clockno_default.jpg,6.0,71,,,,,,,,,,,,,,,,,,0.0,32.0,32.0,32.0,1.0,,,,,,,,,,
1.0,0.0,1.35,,,,,,touchpad_11s.jpg,0.0,clockno_default.jpg,6.0,71,,,,,,,,,,,,,,,,,,0.0,33.0,33.0,33.0,1.0,,,,,,,,,,
0.0,1.0,0.497,,,,,,ginger_09s.jpg,0.0,clockno_default.jpg,6.0,71,,,,,,,,,,,,,,,,,,0.0,34.0,34.0,34.0,1.0,,,,,,,,,,
0.0,0.0,0.572,,,,,,ginger_09s.jpg,1.0,clockno_default.jpg,6.0,71,,,,,,,,,,,,,,,,,,0.0,35.0,35.0,35.0,1.0,,,,,,,,,,
,,,,,,,,,1.0,,,71,1.0,1.0,1.51,,,,,,glue_01s.jpg,pillbox_04s.jpg,,,,,,,,,,,,,0.0,0.0,0.0,0.0,1.0,,,,,
,,,,,,,,,0.0,,,71,0.0,1.0,1.464,,,,,,punch2_09s.jpg,crab_16s.jpg,,,,,,,,,,,,,0.0,1.0,1.0,1.0,1.0,,,,,
,,,,,,,,,0.0,,,71,0.0,1.0,1.338,,,,,,solar_panel_02s.jpg,pantyhose_07s.jpg,,,,,,,,,,,,,0.0,2.0,2.0,2.0,1.0,,,,,
,,,,,,,,,0.0,,,71,0.0,1.0,1.442,,,,,,latte_06s.jpg,lamb_04s.jpg,,,,,,,,,,,,,0.0,3.0,3.0,3.0,1.0,,,,,
,,,,,,,,,1.0,,,71,0.0,0.0,1.098,,,,,,scooter.jpg,chip_04s.jpg,,,,,,,,,,,,,0.0,4.0,4.0,4.0,1.0,,,,,
,,,,,,,,,1.0,,,71,0.0,0.0,0.825,,,,,,mango_09s.jpg,potholder_02s.jpg,,,,,,,,,,,,,0.0,5.0,5.0,5.0,1.0,,,,,
