key_resp.keys,key_resp.corr,key_resp.rt,noclock_loop.thisRepN,noclock_loop.thisTrialN,noclock_loop.thisN,noclock_loop.thisIndex,noclock_loop.ran,pictures,answer,clock,segment,participant,key_resp_2.keys,key_resp_2.corr,key_resp_2.rt,noclock_loop2.thisRepN,noclock_loop2.thisTrialN,noclock_loop2.thisN,noclock_loop2.thisIndex,noclock_loop2.ran,item_a,item_b,noclock_condition.thisRepN,noclock_condition.thisTrialN,noclock_condition.thisN,noclock_condition.thisIndex,noclock_condition.ran,present,compare,present_segment.thisRepN,present_segment.thisTrialN,present_segment.thisN,present_segment.thisIndex,present_segment.ran,compare_segment.thisRepN,compare_segment.thisTrialN,compare_segment.thisN,compare_segment.thisIndex,compare_segment.ran,clock_conditions.thisRepN,clock_conditions.thisTrialN,clock_conditions.thisN,clock_conditions.thisIndex,clock_conditions.ran
0.0,1.0,1.04018,0.0,0.0,0.0,0.0,1.0,potholder_02s.jpg,0.0,clockno_up.jpg,1.0,46,,,,,,,,,,,,,,,,,,,,,,,,,,,,,,,,
0.0,1.0,0.774005,0.0,1.0,1.0,1.0,1.0,tube_top_03s.jpg,0.0,clockno_default.jpg,1.0,46,,,,,,,,,,,,,,,,,,,,,,,,,,,,,,,,
0.0,1.0,0.871785,0.0,2.0,2.0,2.0,1.0,marker_05s.jpg,0.0,clockno_default.jpg,1.0,46,,,,,,,,,,,,,,,,,,,,,,,,,,,,,,,,
0.0,0.0,0.899825,0.0,3.0,3.0,3.0,1.0,marker_05s.jpg,1.0,clockno_default.jpg,1.0,46,,,,,,,,,,,,,,,,,,,,,,,,,,,,,,,,
0.0,1.0,0.60396,0.0,4.0,4.0,4.0,1.0,cap_05s.jpg,0.0,clockno_default.jpg,1.0,46,,,,,,,,,,,,,,,,,,,,,,,,,,,,,,,,
0.0,1.0,1.64822,0.0,5.0,5.0,5.0,1.0,chime_12s.jpg,0.0,clockno_default.jpg,1.0,46,,,,,,,,,,,,,,,,,,,,,,,,,,,,,,,,
0.0,1.0,0.95638,0.0,6.0,6.0,6.0,1.0,solar_panel_02s.jpg,0.0,clockno_default.jpg,1.0,46,,,,,,,,,,,,,,,,,,,,,,,,,,,,,,,,
0.0,1.0,0.93989,0.0,7.0,7.0,7.0,1.0,pancake_12s.jpg,0.0,clockno_up.jpg,2.0,46,,,,,,,,,,,,,,,,,,,,,,,,,,,,,,,,
0.0,1.0,1.226355,0.0,8.0,8.0,8.0,1.0,tape_measure_11s.jpg,0.0,clockno_default.jpg,2.0,46,,,,,,,,,,,,,,,,,,,,,,,,,,,,,,,,
0.0,1.0,1.924025,0.0,9.0,9.0,9.0,1.0,tomato_sauce_09s.jpg,0.0,clockno_default.jpg,2.0,46,,,,,,,,,,,,,,,,,,,,,,,,,,,,,,,,
0.0,1.0,0.886235,0.0,10.0,10.0,10.0,1.0,pacifier_09s.jpg,0.0,clockno_default.jpg,2.0,46,,,,,,,,,,,,,,,,,,,,,,,,,,,,,,,,
0.0,1.0,0.798155,0.0,11.0,11.0,11.0,1.0,camcorder_10s.jpg,0.0,clockno_default.jpg,2.0,46,,,,,,,,,,,,,,,,,,,,,,,,,,,,,,,,
0.0,1.0,1.37559,0.0,12.0,12.0,12.0,1.0,quilt_03s.jpg,0.0,clockno_up.jpg,3.0,46,,,,,,,,,,,,,,,,,,,,,,,,,,,,,,,,
0.0,1.0,0.842775,0.0,13.0,13.0,13.0,1.0,teabag_12s.jpg,0.0,clockno_default.jpg,3.0,46,,,,,,,,,,,,,,,,,,,,,,,,,,,,,,,,
0.0,1.0,0.807995,0.0,14.0,14.0,14.0,1.0,mussel_11s.jpg,0.0,clockno_default.jpg,3.0,46,,,,,,,,,,,,,,,,,,,,,,,,,,,,,,,,
0.0,1.0,0.758065,0.0,15.0,15.0,15.0,1.0,polaroid_05s.jpg,0.0,clockno_default.jpg,3.0,46,,,,,,,,,,,,,,,,,,,,,,,,,,,,,,,,
1.0,0.0,0.989815,0.0,16.0,16.0,16.0,1.0,solar_panel_02s.jpg,0.0,clockno_default.jpg,3.0,46,,,,,,,,,,,,,,,,,,,,,,,,,,,,,,,,
0.0,1.0,0.778365,0.0,17.0,17.0,17.0,1.0,puck_06s.jpg,0.0,clockno_up.jpg,4.0,46,,,,,,,,,,,,,,,,,,,,,,,,,,,,,,,,
0.0,1.0,0.72945,0.0,18.0,18.0,18.0,1.0,umbrella_15s.jpg,0.0,clockno_default.jpg,4.0,46,,,,,,,,,,,,,,,,,,,,,,,,,,,,,,,,
0.0,1.0,1.216715,0.0,19.0,19.0,19.0,1.0,tomato_sauce_09s.jpg,0.0,clockno_default.jpg,4.0,46,,,,,,,,,,,,,,,,,,,,,,,,,,,,,,,,
0.0,1.0,0.943715,0.0,20.0,20.0,20.0,1.0,surfboard_11s.jpg,0.0,clockno_default.jpg,4.0,46,,,,,,,,,,,,,,,,,,,,,,,,,,,,,,,,
0.0,1.0,1.3568,0.0,21.0,21.0,21.0,1.0,solar_panel_02s.jpg,0.0,clockno_default.jpg,4.0,46,,,,,,,,,,,,,,,,,,,,,,,,,,,,,,,,
0.0,1.0,1.158135,0.0,22.0,22.0,22.0,1.0,machete_06s.jpg,0.0,clockno_default.jpg,4.0,46,,,,,,,,,,,,,,,,,,,,,,,,,,,,,,,,
0.0,1.0,1.28958,0.0,23.0,23.0,23.0,1.0,juicer2_06s.jpg,0.0,clockno_up.jpg,5.0,46,,,,,,,,,,,,,,,,,,,,,,,,,,,,,,,,
0.0,1.0,0.999615,0.0,24.0,24.0,24.0,1.0,marker_05s.jpg,0.0,clockno_default.jpg,5.0,46,,,,,,,,,,,,,,,,,,,,,,,,,,,,,,,,
0.0,1.0,0.98963,0.0,25.0,25.0,25.0,1.0,polaroid_05s.jpg,0.0,clockno_default.jpg,5.0,46,,,,,,,,,,,,,,,,,,,,,,,,,,,,,,,,
0.0,1.0,0.712525,0.0,26.0,26.0,26.0,1.0,pacifier_09s.jpg,0.0,clockno_default.jpg,5.0,46,,,,,,,,,,,,,,,,,,,,,,,,,,,,,,,,
0.0,1.0,1.004885,0.0,27.0,27.0,27.0,1.0,soda_fountain_03s.jpg,0.0,clockno_default.jpg,5.0,46,,,,,,,,,,,,,,,,,,,,,,,,,,,,,,,,
1.0,1.0,1.110255,0.0,28.0,28.0,28.0,1.0,soda_fountain_03s.jpg,1.0,clockno_default.jpg,5.0,46,,,,,,,,,,,,,,,,,,,,,,,,,,,,,,,,
0.0,1.0,1.391035,0.0,29.0,29.0,29.0,1.0,paper_towel_03s.jpg,0.0,clockno_default.jpg,5.0,46,,,,,,,,,,,,,,,,,,,,,,,,,,,,,,,,
0.0,1.0,0.859235,0.0,30.0,30.0,30.0,1.0,fox_13s.jpg,0.0,clockno_up.jpg,6.0,46,,,,,,,,,,,,,,,,,,,,,,,,,,,,,,,,
0.0,1.0,0.978405,0.0,31.0,31.0,31.0,1.0,licorice_06s.jpg,0.0,clockno_default.jpg,6.0,46,,,,,,,,,,,,,,,,,,,,,,,,,,,,,,,,
0.0,1.0,0.840485,0.0,32.0,32.0,32.0,1.0,rug_09s.jpg,0.0,clockno_default.jpg,6.0,46,,,,,,,,,,,,,,,,,,,,,,,,,,,,,,,,
0.0,1.0,0.840355,0.0,33.0,33.0,33.0,1.0,jigsaw_puzzle_11s.jpg,0.0,clockno_default.jpg,6.0,46,,,,,,,,,,,,,,,,,,,,,,,,,,,,,,,,
0.0,1.0,0.909285,0.0,34.0,34.0,34.0,1.0,omelet_07s.jpg,0.0,clockno_default.jpg,6.0,46,,,,,,,,,,,,,,,,,,,,,,,,,,,,,,,,
0.0,1.0,1.02822,0.0,35.0,35.0,35.0,1.0,puck_06s.jpg,0.0,clockno_default.jpg,6.0,46,,,,,,,,,,,,,,,,,,,,,,,,,,,,,,,,
,,,,,,,,,0.0,,,46,0.0,1.0,1.736695,0.0,0.0,0.0,0.0,1.0,juicer2_06s.jpg,surfboard_11s.jpg,,,,,,,,,,,,,,,,,,,,,,
,,,,,,,,,1.0,,,46,1.0,1.0,1.732815,0.0,1.0,1.0,1.0,1.0,paper_towel_03s.jpg,rug_09s.jpg,,,,,,,,,,,,,,,,,,,,,,
,,,,,,,,,1.0,,,46,0.0,0.0,1.274235,0.0,2.0,2.0,2.0,1.0,cap_05s.jpg,pancake_12s.jpg,,,,,,,,,,,,,,,,,,,,,,
,,,,,,,,,1.0,,,46,1.0,1.0,1.491675,0.0,3.0,3.0,3.0,1.0,fox_13s.jpg,jigsaw_puzzle_11s.jpg,,,,,,,,,,,,,,,,,,,,,,
,,,,,,,,,1.0,,,46,1.0,1.0,1.32721,0.0,4.0,4.0,4.0,1.0,licorice_06s.jpg,omelet_07s.jpg,,,,,,,,,,,,,,,,,,,,,,
,,,,,,,,,0.0,,,46,1.0,0.0,1.40513,0.0,5.0,5.0,5.0,1.0,camcorder_10s.jpg,tape_measure_11s.jpg,,,,,,,,,,,,,,,,,,,,,,
,,,,,,,,,,,,46,,,,,,,,,,,0.0,0.0,0.0,0.0,1.0,clockno_present_1_11.xlsx,clockno_compare_task_1_11.xlsx,,,,,,,,,,,,,,,
0.0,1.0,1.04837,0.0,0.0,0.0,0.0,1.0,tab_09s.jpg,0.0,clockno_up.jpg,1.0,46,,,,,,,,,,,,,,,,,,,,,,,,,,,,,,,,
1.0,1.0,0.855845,0.0,1.0,1.0,1.0,1.0,tab_09s.jpg,1.0,clockno_default.jpg,1.0,46,,,,,,,,,,,,,,,,,,,,,,,,,,,,,,,,
1.0,1.0,0.904805,0.0,2.0,2.0,2.0,1.0,tab_09s.jpg,1.0,clockno_default.jpg,1.0,46,,,,,,,,,,,,,,,,,,,,,,,,,,,,,,,,
1.0,1.0,1.295045,0.0,3.0,3.0,3.0,1.0,tab_09s.jpg,1.0,clockno_default.jpg,1.0,46,,,,,,,,,,,,,,,,,,,,,,,,,,,,,,,,
1.0,1.0,0.876715,0.0,4.0,4.0,4.0,1.0,tab_09s.jpg,1.0,clockno_default.jpg,1.0,46,,,,,,,,,,,,,,,,,,,,,,,,,,,,,,,,
0.0,1.0,0.728365,0.0,5.0,5.0,5.0,1.0,telephone_pole_05s.jpg,0.0,clockno_up.jpg,2.0,46,,,,,,,,,,,,,,,,,,,,,,,,,,,,,,,,
0.0,1.0,1.511205,0.0,6.0,6.0,6.0,1.0,laser_pointer_02s.jpg,0.0,clockno_default.jpg,2.0,46,,,,,,,,,,,,,,,,,,,,,,,,,,,,,,,,
0.0,1.0,0.886395,0.0,7.0,7.0,7.0,1.0,popcorn_09s.jpg,0.0,clockno_default.jpg,2.0,46,,,,,,,,,,,,,,,,,,,,,,,,,,,,,,,,
0.0,1.0,0.812545,0.0,8.0,8.0,8.0,1.0,ravioli_08s.jpg,0.0,clockno_default.jpg,2.0,46,,,,,,,,,,,,,,,,,,,,,,,,,,,,,,,,
0.0,1.0,1.39536,0.0,9.0,9.0,9.0,1.0,tab_09s.jpg,0.0,clockno_default.jpg,2.0,46,,,,,,,,,,,,,,,,,,,,,,,,,,,,,,,,
1.0,1.0,0.776265,0.0,10.0,10.0,10.0,1.0,ravioli_08s.jpg,1.0,clockno_default.jpg,2.0,46,,,,,,,,,,,,,,,,,,,,,,,,,,,,,,,,
0.0,1.0,1.307905,0.0,11.0,11.0,11.0,1.0,rosary_03s.jpg,0.0,clockno_up.jpg,3.0,46,,,,,,,,,,,,,,,,,,,,,,,,,,,,,,,,
0.0,1.0,0.95647,0.0,12.0,12.0,12.0,1.0,ravioli_08s.jpg,0.0,clockno_default.jpg,3.0,46,,,,,,,,,,,,,,,,,,,,,,,,,,,,,,,,
0.0,1.0,0.83967,0.0,13.0,13.0,13.0,1.0,tab_09s.jpg,0.0,clockno_default.jpg,3.0,46,,,,,,,,,,,,,,,,,,,,,,,,,,,,,,,,
0.0,1.0,0.572185,0.0,14.0,14.0,14.0,1.0,toy_04s.jpg,0.0,clockno_default.jpg,3.0,46,,,,,,,,,,,,,,,,,,,,,,,,,,,,,,,,
0.0,1.0,1.29756,0.0,15.0,15.0,15.0,1.0,loom_05s.jpg,0.0,clockno_default.jpg,3.0,46,,,,,,,,,,,,,,,,,,,,,,,,,,,,,,,,
0.0,1.0,0.80714,0.0,16.0,16.0,16.0,1.0,rooster_03s.jpg,0.0,clockno_default.jpg,3.0,46,,,,,,,,,,,,,,,,,,,,,,,,,,,,,,,,
0.0,1.0,0.96011,0.0,17.0,17.0,17.0,1.0,popcorn_09s.jpg,0.0,clockno_default.jpg,3.0,46,,,,,,,,,,,,,,,,,,,,,,,,,,,,,,,,
0.0,1.0,1.243075,0.0,18.0,18.0,18.0,1.0,clover_04s.jpg,0.0,clockno_up.jpg,4.0,46,,,,,,,,,,,,,,,,,,,,,,,,,,,,,,,,
0.0,1.0,1.050125,0.0,19.0,19.0,19.0,1.0,koala_13s.jpg,0.0,clockno_default.jpg,4.0,46,,,,,,,,,,,,,,,,,,,,,,,,,,,,,,,,
0.0,1.0,1.02883,0.0,20.0,20.0,20.0,1.0,seagull_01b.jpg,0.0,clockno_default.jpg,4.0,46,,,,,,,,,,,,,,,,,,,,,,,,,,,,,,,,
0.0,1.0,0.64131,0.0,21.0,21.0,21.0,1.0,toothpaste_12s.jpg,0.0,clockno_default.jpg,4.0,46,,,,,,,,,,,,,,,,,,,,,,,,,,,,,,,,
1.0,1.0,0.809735,0.0,22.0,22.0,22.0,1.0,toothpaste_12s.jpg,1.0,clockno_default.jpg,4.0,46,,,,,,,,,,,,,,,,,,,,,,,,,,,,,,,,
0.0,1.0,0.891595,0.0,23.0,23.0,23.0,1.0,frame_06s.jpg,0.0,clockno_up.jpg,5.0,46,,,,,,,,,,,,,,,,,,,,,,,,,,,,,,,,
0.0,1.0,1.03152,0.0,24.0,24.0,24.0,1.0,toaster_03s.jpg,0.0,clockno_default.jpg,5.0,46,,,,,,,,,,,,,,,,,,,,,,,,,,,,,,,,
1.0,1.0,0.904295,0.0,25.0,25.0,25.0,1.0,toaster_03s.jpg,1.0,clockno_default.jpg,5.0,46,,,,,,,,,,,,,,,,,,,,,,,,,,,,,,,,
0.0,1.0,1.526945,0.0,26.0,26.0,26.0,1.0,plunger_08s.jpg,0.0,clockno_default.jpg,5.0,46,,,,,,,,,,,,,,,,,,,,,,,,,,,,,,,,
0.0,1.0,1.755125,0.0,27.0,27.0,27.0,1.0,jukebox_03n.jpg,0.0,clockno_default.jpg,5.0,46,,,,,,,,,,,,,,,,,,,,,,,,,,,,,,,,
0.0,1.0,1.064775,0.0,28.0,28.0,28.0,1.0,tattoo_14s.jpg,0.0,clockno_default.jpg,5.0,46,,,,,,,,,,,,,,,,,,,,,,,,,,,,,,,,
0.0,1.0,1.489135,0.0,29.0,29.0,29.0,1.0,foam_03s.jpg,0.0,clockno_default.jpg,5.0,46,,,,,,,,,,,,,,,,,,,,,,,,,,,,,,,,
0.0,1.0,0.606475,0.0,30.0,30.0,30.0,1.0,target_11s.jpg,0.0,clockno_up.jpg,6.0,46,,,,,,,,,,,,,,,,,,,,,,,,,,,,,,,,
0.0,1.0,0.860425,0.0,31.0,31.0,31.0,1.0,sushi_08s.jpg,0.0,clockno_default.jpg,6.0,46,,,,,,,,,,,,,,,,,,,,,,,,,,,,,,,,
0.0,1.0,1.78998,0.0,32.0,32.0,32.0,1.0,golf_club_03s.jpg,0.0,clockno_default.jpg,6.0,46,,,,,,,,,,,,,,,,,,,,,,,,,,,,,,,,
0.0,1.0,0.77078,0.0,33.0,33.0,33.0,1.0,projector_08s.jpg,0.0,clockno_default.jpg,6.0,46,,,,,,,,,,,,,,,,,,,,,,,,,,,,,,,,
0.0,1.0,1.0758,0.0,34.0,34.0,34.0,1.0,loom_05s.jpg,0.0,clockno_default.jpg,6.0,46,,,,,,,,,,,,,,,,,,,,,,,,,,,,,,,,
1.0,1.0,0.942175,0.0,35.0,35.0,35.0,1.0,golf_club_03s.jpg,1.0,clockno_default.jpg,6.0,46,,,,,,,,,,,,,,,,,,,,,,,,,,,,,,,,
,,,,,,,,,1.0,,,46,0.0,0.0,1.67679,0.0,0.0,0.0,0.0,1.0,rooster_03s.jpg,koala_13s.jpg,,,,,,,,,,,,,,,,,,,,,,
,,,,,,,,,0.0,,,46,1.0,0.0,1.17635,0.0,1.0,1.0,1.0,1.0,sushi_08s.jpg,tattoo_14s.jpg,,,,,,,,,,,,,,,,,,,,,,
,,,,,,,,,1.0,,,46,0.0,0.0,1.175745,0.0,2.0,2.0,2.0,1.0,seagull_01b.jpg,frame_06s.jpg,,,,,,,,,,,,,,,,,,,,,,
,,,,,,,,,1.0,,,46,1.0,1.0,0.97293,0.0,3.0,3.0,3.0,1.0,rosary_03s.jpg,toy_04s.jpg,,,,,,,,,,,,,,,,,,,,,,
,,,,,,,,,0.0,,,46,0.0,1.0,1.043945,0.0,4.0,4.0,4.0,1.0,foam_03s.jpg,plunger_08s.jpg,,,,,,,,,,,,,,,,,,,,,,
,,,,,,,,,1.0,,,46,1.0,1.0,1.09974,0.0,5.0,5.0,5.0,1.0,target_11s.jpg,projector_08s.jpg,,,,,,,,,,,,,,,,,,,,,,
,,,,,,,,,,,,46,,,,,,,,,,,0.0,1.0,1.0,1.0,1.0,clockno_present_2_11.xlsx,clockno_compare_task_2_11.xlsx,,,,,,,,,,,,,,,
0.0,1.0,1.14008,0.0,0.0,0.0,0.0,1.0,memory_stick_11s.jpg,0.0,clockno_up.jpg,1.0,46,,,,,,,,,,,,,,,,,,,,,,,,,,,,,,,,
1.0,1.0,1.05904,0.0,1.0,1.0,1.0,1.0,memory_stick_11s.jpg,1.0,clockno_default.jpg,1.0,46,,,,,,,,,,,,,,,,,,,,,,,,,,,,,,,,
1.0,1.0,0.86168,0.0,2.0,2.0,2.0,1.0,memory_stick_11s.jpg,1.0,clockno_default.jpg,1.0,46,,,,,,,,,,,,,,,,,,,,,,,,,,,,,,,,
0.0,1.0,0.7904,0.0,3.0,3.0,3.0,1.0,doily_13s.jpg,0.0,clockno_default.jpg,1.0,46,,,,,,,,,,,,,,,,,,,,,,,,,,,,,,,,
1.0,1.0,0.84215,0.0,4.0,4.0,4.0,1.0,memory_stick_11s.jpg,1.0,clockno_default.jpg,1.0,46,,,,,,,,,,,,,,,,,,,,,,,,,,,,,,,,
0.0,1.0,0.864095,0.0,5.0,5.0,5.0,1.0,jalapeno_15s.jpg,0.0,clockno_up.jpg,2.0,46,,,,,,,,,,,,,,,,,,,,,,,,,,,,,,,,
1.0,1.0,2.262795,0.0,6.0,6.0,6.0,1.0,jalapeno_15s.jpg,1.0,clockno_default.jpg,2.0,46,,,,,,,,,,,,,,,,,,,,,,,,,,,,,,,,
0.0,1.0,0.829575,0.0,7.0,7.0,7.0,1.0,comic_book_02s.jpg,0.0,clockno_default.jpg,2.0,46,,,,,,,,,,,,,,,,,,,,,,,,,,,,,,,,
0.0,1.0,1.472265,0.0,8.0,8.0,8.0,1.0,doily_13s.jpg,0.0,clockno_default.jpg,2.0,46,,,,,,,,,,,,,,,,,,,,,,,,,,,,,,,,
0.0,1.0,1.175985,0.0,9.0,9.0,9.0,1.0,mousetrap_15n.jpg,0.0,clockno_default.jpg,2.0,46,,,,,,,,,,,,,,,,,,,,,,,,,,,,,,,,
0.0,1.0,0.9216,0.0,10.0,10.0,10.0,1.0,pinwheel_06s.jpg,0.0,clockno_default.jpg,2.0,46,,,,,,,,,,,,,,,,,,,,,,,,,,,,,,,,
0.0,1.0,0.90967,0.0,11.0,11.0,11.0,1.0,plaster_cast_13s.jpg,0.0,clockno_up.jpg,3.0,46,,,,,,,,,,,,,,,,,,,,,,,,,,,,,,,,
0.0,1.0,0.94124,0.0,12.0,12.0,12.0,1.0,memory_stick_11s.jpg,0.0,clockno_default.jpg,3.0,46,,,,,,,,,,,,,,,,,,,,,,,,,,,,,,,,
0.0,1.0,0.63909,0.0,13.0,13.0,13.0,1.0,totem_pole_05s.jpg,0.0,clockno_default.jpg,3.0,46,,,,,,,,,,,,,,,,,,,,,,,,,,,,,,,,
0.0,1.0,0.79296,0.0,14.0,14.0,14.0,1.0,spatula04.jpg,0.0,clockno_default.jpg,3.0,46,,,,,,,,,,,,,,,,,,,,,,,,,,,,,,,,
0.0,1.0,0.941705,0.0,15.0,15.0,15.0,1.0,leash_10s.jpg,0.0,clockno_default.jpg,3.0,46,,,,,,,,,,,,,,,,,,,,,,,,,,,,,,,,
0.0,1.0,0.87711,0.0,16.0,16.0,16.0,1.0,jetski_10s.jpg,0.0,clockno_default.jpg,3.0,46,,,,,,,,,,,,,,,,,,,,,,,,,,,,,,,,
0.0,1.0,1.107245,0.0,17.0,17.0,17.0,1.0,ginger_09s.jpg,0.0,clockno_default.jpg,3.0,46,,,,,,,,,,,,,,,,,,,,,,,,,,,,,,,,
0.0,1.0,0.542295,0.0,18.0,18.0,18.0,1.0,lasagna_06s.jpg,0.0,clockno_up.jpg,4.0,46,,,,,,,,,,,,,,,,,,,,,,,,,,,,,,,,
0.0,1.0,0.807435,0.0,19.0,19.0,19.0,1.0,power_line_08s.jpg,0.0,clockno_default.jpg,4.0,46,,,,,,,,,,,,,,,,,,,,,,,,,,,,,,,,
0.0,1.0,0.613195,0.0,20.0,20.0,20.0,1.0,undershirt_02s.jpg,0.0,clockno_default.jpg,4.0,46,,,,,,,,,,,,,,,,,,,,,,,,,,,,,,,,
0.0,1.0,0.641165,0.0,21.0,21.0,21.0,1.0,roller_coaster_07s.jpg,0.0,clockno_default.jpg,4.0,46,,,,,,,,,,,,,,,,,,,,,,,,,,,,,,,,
0.0,1.0,0.69095,0.0,22.0,22.0,22.0,1.0,compass_10n.jpg,0.0,clockno_default.jpg,4.0,46,,,,,,,,,,,,,,,,,,,,,,,,,,,,,,,,
0.0,1.0,0.677545,0.0,23.0,23.0,23.0,1.0,rice_12s.jpg,0.0,clockno_default.jpg,4.0,46,,,,,,,,,,,,,,,,,,,,,,,,,,,,,,,,
0.0,1.0,0.725235,0.0,24.0,24.0,24.0,1.0,purse_05s.jpg,0.0,clockno_up.jpg,5.0,46,,,,,,,,,,,,,,,,,,,,,,,,,,,,,,,,
1.0,1.0,0.837425,0.0,25.0,25.0,25.0,1.0,purse_05s.jpg,1.0,clockno_default.jpg,5.0,46,,,,,,,,,,,,,,,,,,,,,,,,,,,,,,,,
0.0,1.0,1.038625,0.0,26.0,26.0,26.0,1.0,ice_pack_09s.jpg,0.0,clockno_default.jpg,5.0,46,,,,,,,,,,,,,,,,,,,,,,,,,,,,,,,,
0.0,1.0,0.97612,0.0,27.0,27.0,27.0,1.0,thread_08s.jpg,0.0,clockno_default.jpg,5.0,46,,,,,,,,,,,,,,,,,,,,,,,,,,,,,,,,
0.0,1.0,0.86312,0.0,28.0,28.0,28.0,1.0,hydrant_10s.jpg,0.0,clockno_default.jpg,5.0,46,,,,,,,,,,,,,,,,,,,,,,,,,,,,,,,,
0.0,1.0,0.62871,0.0,29.0,29.0,29.0,1.0,tripod_01b.jpg,0.0,clockno_default.jpg,5.0,46,,,,,,,,,,,,,,,,,,,,,,,,,,,,,,,,
0.0,1.0,0.55393,0.0,30.0,30.0,30.0,1.0,ivy_12s.jpg,0.0,clockno_default.jpg,5.0,46,,,,,,,,,,,,,,,,,,,,,,,,,,,,,,,,
0.0,1.0,1.405525,0.0,31.0,31.0,31.0,1.0,jelly_bean_06s.jpg,0.0,clockno_up.jpg,6.0,46,,,,,,,,,,,,,,,,,,,,,,,,,,,,,,,,
0.0,1.0,1.69401,0.0,32.0,32.0,32.0,1.0,hummingbird_05s.jpg,0.0,clockno_default.jpg,6.0,46,,,,,,,,,,,,,,,,,,,,,,,,,,,,,,,,
0.0,1.0,0.72638,0.0,33.0,33.0,33.0,1.0,inhaler_01b.jpg,0.0,clockno_default.jpg,6.0,46,,,,,,,,,,,,,,,,,,,,,,,,,,,,,,,,
0.0,1.0,0.73871,0.0,34.0,34.0,34.0,1.0,sparkler_02s.jpg,0.0,clockno_default.jpg,6.0,46,,,,,,,,,,,,,,,,,,,,,,,,,,,,,,,,
0.0,1.0,0.791005,0.0,35.0,35.0,35.0,1.0,fire_pit_10s.jpg,0.0,clockno_default.jpg,6.0,46,,,,,,,,,,,,,,,,,,,,,,,,,,,,,,,,
,,,,,,,,,0.0,,,46,0.0,1.0,1.869495,0.0,0.0,0.0,0.0,1.0,lasagna_06s.jpg,leash_10s.jpg,,,,,,,,,,,,,,,,,,,,,,
,,,,,,,,,1.0,,,46,1.0,1.0,1.806655,0.0,1.0,1.0,1.0,1.0,hydrant_10s.jpg,jelly_bean_06s.jpg,,,,,,,,,,,,,,,,,,,,,,
,,,,,,,,,1.0,,,46,1.0,1.0,1.37613,0.0,2.0,2.0,2.0,1.0,ivy_12s.jpg,inhaler_01b.jpg,,,,,,,,,,,,,,,,,,,,,,
,,,,,,,,,1.0,,,46,1.0,1.0,1.020945,0.0,3.0,3.0,3.0,1.0,plaster_cast_13s.jpg,spatula04.jpg,,,,,,,,,,,,,,,,,,,,,,
,,,,,,,,,0.0,,,46,0.0,1.0,1.0822,0.0,4.0,4.0,4.0,1.0,pinwheel_06s.jpg,comic_book_02s.jpg,,,,,,,,,,,,,,,,,,,,,,
,,,,,,,,,1.0,,,46,1.0,1.0,1.07951,0.0,5.0,5.0,5.0,1.0,power_line_08s.jpg,compass_10n.jpg,,,,,,,,,,,,,,,,,,,,,,
,,,,,,,,,,,,46,,,,,,,,,,,0.0,2.0,2.0,2.0,1.0,clockno_present_3_11.xlsx,clockno_compare_task_3_11.xlsx,,,,,,,,,,,,,,,
0.0,1.0,1.17646,0.0,0.0,0.0,0.0,1.0,pillbox_04s.jpg,0.0,clockno_up.jpg,1.0,46,,,,,,,,,,,,,,,,,,,,,,,,,,,,,,,,
0.0,1.0,0.861135,0.0,1.0,1.0,1.0,1.0,kettle_08s.jpg,0.0,clockno_default.jpg,1.0,46,,,,,,,,,,,,,,,,,,,,,,,,,,,,,,,,
1.0,1.0,1.026545,0.0,2.0,2.0,2.0,1.0,kettle_08s.jpg,1.0,clockno_default.jpg,1.0,46,,,,,,,,,,,,,,,,,,,,,,,,,,,,,,,,
1.0,1.0,1.59301,0.0,3.0,3.0,3.0,1.0,pillbox_04s.jpg,1.0,clockno_default.jpg,1.0,46,,,,,,,,,,,,,,,,,,,,,,,,,,,,,,,,
0.0,1.0,1.028535,0.0,4.0,4.0,4.0,1.0,cushion_08s.jpg,0.0,clockno_default.jpg,1.0,46,,,,,,,,,,,,,,,,,,,,,,,,,,,,,,,,
0.0,1.0,1.1967,0.0,5.0,5.0,5.0,1.0,coral_08s.jpg,0.0,clockno_default.jpg,1.0,46,,,,,,,,,,,,,,,,,,,,,,,,,,,,,,,,
0.0,1.0,0.63715,0.0,6.0,6.0,6.0,1.0,mango_09s.jpg,0.0,clockno_default.jpg,1.0,46,,,,,,,,,,,,,,,,,,,,,,,,,,,,,,,,
0.0,1.0,0.65462,0.0,7.0,7.0,7.0,1.0,crate_05s.jpg,0.0,clockno_up.jpg,2.0,46,,,,,,,,,,,,,,,,,,,,,,,,,,,,,,,,
0.0,1.0,0.77555,0.0,8.0,8.0,8.0,1.0,treadmill_06s.jpg,0.0,clockno_default.jpg,2.0,46,,,,,,,,,,,,,,,,,,,,,,,,,,,,,,,,
0.0,1.0,0.67789,0.0,9.0,9.0,9.0,1.0,fondue_07s.jpg,0.0,clockno_default.jpg,2.0,46,,,,,,,,,,,,,,,,,,,,,,,,,,,,,,,,
0.0,1.0,0.89312,0.0,10.0,10.0,10.0,1.0,iron_13s.jpg,0.0,clockno_default.jpg,2.0,46,,,,,,,,,,,,,,,,,,,,,,,,,,,,,,,,
0.0,1.0,1.51363,0.0,11.0,11.0,11.0,1.0,sundae_08s.jpg,0.0,clockno_default.jpg,2.0,46,,,,,,,,,,,,,,,,,,,,,,,,,,,,,,,,
0.0,1.0,1.17234,0.0,12.0,12.0,12.0,1.0,aluminum_foil_08s.jpg,0.0,clockno_up.jpg,3.0,46,,,,,,,,,,,,,,,,,,,,,,,,,,,,,,,,
1.0,1.0,0.83012,0.0,13.0,13.0,13.0,1.0,aluminum_foil_08s.jpg,1.0,clockno_default.jpg,3.0,46,,,,,,,,,,,,,,,,,,,,,,,,,,,,,,,,
0.0,1.0,1.70169,0.0,14.0,14.0,14.0,1.0,kangaroo_02s.jpg,0.0,clockno_default.jpg,3.0,46,,,,,,,,,,,,,,,,,,,,,,,,,,,,,,,,
0.0,1.0,0.722615,0.0,15.0,15.0,15.0,1.0,lantern_04s.jpg,0.0,clockno_default.jpg,3.0,46,,,,,,,,,,,,,,,,,,,,,,,,,,,,,,,,
0.0,1.0,1.490755,0.0,16.0,16.0,16.0,1.0,road_sign_05s.jpg,0.0,clockno_default.jpg,3.0,46,,,,,,,,,,,,,,,,,,,,,,,,,,,,,,,,
0.0,1.0,0.822865,0.0,17.0,17.0,17.0,1.0,pantyhose_07s.jpg,0.0,clockno_up.jpg,4.0,46,,,,,,,,,,,,,,,,,,,,,,,,,,,,,,,,
1.0,1.0,0.789895,0.0,18.0,18.0,18.0,1.0,pantyhose_07s.jpg,1.0,clockno_default.jpg,4.0,46,,,,,,,,,,,,,,,,,,,,,,,,,,,,,,,,
0.0,1.0,0.80571,0.0,19.0,19.0,19.0,1.0,lollipop_08s.jpg,0.0,clockno_default.jpg,4.0,46,,,,,,,,,,,,,,,,,,,,,,,,,,,,,,,,
1.0,1.0,0.9435,0.0,20.0,20.0,20.0,1.0,pantyhose_07s.jpg,1.0,clockno_default.jpg,4.0,46,,,,,,,,,,,,,,,,,,,,,,,,,,,,,,,,
0.0,1.0,1.238215,0.0,21.0,21.0,21.0,1.0,turf_03s.jpg,0.0,clockno_default.jpg,4.0,46,,,,,,,,,,,,,,,,,,,,,,,,,,,,,,,,
0.0,1.0,1.224025,0.0,22.0,22.0,22.0,1.0,toilet_paper_12s.jpg,0.0,clockno_default.jpg,4.0,46,,,,,,,,,,,,,,,,,,,,,,,,,,,,,,,,
0.0,1.0,1.460935,0.0,23.0,23.0,23.0,1.0,punch2_09s.jpg,0.0,clockno_up.jpg,5.0,46,,,,,,,,,,,,,,,,,,,,,,,,,,,,,,,,
,0.0,,0.0,24.0,24.0,24.0,1.0,puddle_02s.jpg,0.0,clockno_default.jpg,5.0,46,,,,,,,,,,,,,,,,,,,,,,,,,,,,,,,,
0.0,1.0,1.426535,0.0,25.0,25.0,25.0,1.0,oil_02s.jpg,0.0,clockno_default.jpg,5.0,46,,,,,,,,,,,,,,,,,,,,,,,,,,,,,,,,
0.0,1.0,1.24797,0.0,26.0,26.0,26.0,1.0,machine_gun_09s.jpg,0.0,clockno_default.jpg,5.0,46,,,,,,,,,,,,,,,,,,,,,,,,,,,,,,,,
0.0,1.0,0.92865,0.0,27.0,27.0,27.0,1.0,feather02.jpg,0.0,clockno_default.jpg,5.0,46,,,,,,,,,,,,,,,,,,,,,,,,,,,,,,,,
0.0,1.0,0.90497,0.0,28.0,28.0,28.0,1.0,lemonade_04s.jpg,0.0,clockno_default.jpg,5.0,46,,,,,,,,,,,,,,,,,,,,,,,,,,,,,,,,
0.0,1.0,0.65929,0.0,29.0,29.0,29.0,1.0,birdcage_08s.jpg,0.0,clockno_default.jpg,5.0,46,,,,,,,,,,,,,,,,,,,,,,,,,,,,,,,,
0.0,1.0,0.608205,0.0,30.0,30.0,30.0,1.0,abacus_12s.jpg,0.0,clockno_up.jpg,6.0,46,,,,,,,,,,,,,,,,,,,,,,,,,,,,,,,,
1.0,1.0,1.623675,0.0,31.0,31.0,31.0,1.0,abacus_12s.jpg,1.0,clockno_default.jpg,6.0,46,,,,,,,,,,,,,,,,,,,,,,,,,,,,,,,,
1.0,1.0,0.78197,0.0,32.0,32.0,32.0,1.0,abacus_12s.jpg,1.0,clockno_default.jpg,6.0,46,,,,,,,,,,,,,,,,,,,,,,,,,,,,,,,,
0.0,1.0,0.979185,0.0,33.0,33.0,33.0,1.0,rollerskate_03s.jpg,0.0,clockno_default.jpg,6.0,46,,,,,,,,,,,,,,,,,,,,,,,,,,,,,,,,
0.0,1.0,1.33031,0.0,34.0,34.0,34.0,1.0,aluminum_foil_08s.jpg,0.0,clockno_default.jpg,6.0,46,,,,,,,,,,,,,,,,,,,,,,,,,,,,,,,,
1.0,1.0,0.777365,0.0,35.0,35.0,35.0,1.0,rollerskate_03s.jpg,1.0,clockno_default.jpg,6.0,46,,,,,,,,,,,,,,,,,,,,,,,,,,,,,,,,
,,,,,,,,,1.0,,,46,1.0,1.0,1.684505,0.0,0.0,0.0,0.0,1.0,mango_09s.jpg,fondue_07s.jpg,,,,,,,,,,,,,,,,,,,,,,
,,,,,,,,,0.0,,,46,1.0,0.0,1.074735,0.0,1.0,1.0,1.0,1.0,crate_05s.jpg,cushion_08s.jpg,,,,,,,,,,,,,,,,,,,,,,
,,,,,,,,,0.0,,,46,0.0,1.0,1.22641,0.0,2.0,2.0,2.0,1.0,treadmill_06s.jpg,coral_08s.jpg,,,,,,,,,,,,,,,,,,,,,,
,,,,,,,,,1.0,,,46,1.0,1.0,1.014625,0.0,3.0,3.0,3.0,1.0,punch2_09s.jpg,machine_gun_09s.jpg,,,,,,,,,,,,,,,,,,,,,,
,,,,,,,,,0.0,,,46,0.0,1.0,1.76276,0.0,4.0,4.0,4.0,1.0,feather02.jpg,puddle_02s.jpg,,,,,,,,,,,,,,,,,,,,,,
,,,,,,,,,0.0,,,46,0.0,1.0,1.24782,0.0,5.0,5.0,5.0,1.0,lemonade_04s.jpg,oil_02s.jpg,,,,,,,,,,,,,,,,,,,,,,
,,,,,,,,,,,,46,,,,,,,,,,,0.0,3.0,3.0,3.0,1.0,clockno_present_4_11.xlsx,clockno_compare_task_4_11.xlsx,,,,,,,,,,,,,,,
0.0,1.0,1.08405,0.0,0.0,0.0,0.0,1.0,chalice_10s.jpg,0.0,clockno_up.jpg,1.0,46,,,,,,,,,,,,,,,,,,,,,,,,,,,,,,,,
1.0,1.0,0.84477,0.0,1.0,1.0,1.0,1.0,chalice_10s.jpg,1.0,clockno_default.jpg,1.0,46,,,,,,,,,,,,,,,,,,,,,,,,,,,,,,,,
0.0,1.0,0.761455,0.0,2.0,2.0,2.0,1.0,mud_13s.jpg,0.0,clockno_default.jpg,1.0,46,,,,,,,,,,,,,,,,,,,,,,,,,,,,,,,,
0.0,1.0,2.025945,0.0,3.0,3.0,3.0,1.0,coat_rack_01b.jpg,0.0,clockno_default.jpg,1.0,46,,,,,,,,,,,,,,,,,,,,,,,,,,,,,,,,
0.0,1.0,1.75102,0.0,4.0,4.0,4.0,1.0,tie_03s.jpg,0.0,clockno_default.jpg,1.0,46,,,,,,,,,,,,,,,,,,,,,,,,,,,,,,,,
0.0,1.0,0.58777,0.0,5.0,5.0,5.0,1.0,piggy_bank_02s.jpg,0.0,clockno_default.jpg,1.0,46,,,,,,,,,,,,,,,,,,,,,,,,,,,,,,,,
0.0,1.0,1.523865,0.0,6.0,6.0,6.0,1.0,spoon02a.jpg,0.0,clockno_up.jpg,2.0,46,,,,,,,,,,,,,,,,,,,,,,,,,,,,,,,,
0.0,1.0,0.97177,0.0,7.0,7.0,7.0,1.0,peppermint_07s.jpg,0.0,clockno_default.jpg,2.0,46,,,,,,,,,,,,,,,,,,,,,,,,,,,,,,,,
0.0,1.0,0.97403,0.0,8.0,8.0,8.0,1.0,pomegranate_04s.jpg,0.0,clockno_default.jpg,2.0,46,,,,,,,,,,,,,,,,,,,,,,,,,,,,,,,,
0.0,1.0,0.595425,0.0,9.0,9.0,9.0,1.0,seahorse_13s.jpg,0.0,clockno_default.jpg,2.0,46,,,,,,,,,,,,,,,,,,,,,,,,,,,,,,,,
,0.0,,0.0,10.0,10.0,10.0,1.0,trampoline_13s.jpg,0.0,clockno_default.jpg,2.0,46,,,,,,,,,,,,,,,,,,,,,,,,,,,,,,,,
0.0,1.0,0.81917,0.0,11.0,11.0,11.0,1.0,tuba_12s.jpg,0.0,clockno_up.jpg,3.0,46,,,,,,,,,,,,,,,,,,,,,,,,,,,,,,,,
0.0,1.0,0.99131,0.0,12.0,12.0,12.0,1.0,screwdriver02a.jpg,0.0,clockno_default.jpg,3.0,46,,,,,,,,,,,,,,,,,,,,,,,,,,,,,,,,
0.0,1.0,0.790915,0.0,13.0,13.0,13.0,1.0,bonsai_07s.jpg,0.0,clockno_default.jpg,3.0,46,,,,,,,,,,,,,,,,,,,,,,,,,,,,,,,,
0.0,1.0,1.77463,0.0,14.0,14.0,14.0,1.0,turkey_10s.jpg,0.0,clockno_default.jpg,3.0,46,,,,,,,,,,,,,,,,,,,,,,,,,,,,,,,,
0.0,1.0,0.559435,0.0,15.0,15.0,15.0,1.0,possum_09s.jpg,0.0,clockno_default.jpg,3.0,46,,,,,,,,,,,,,,,,,,,,,,,,,,,,,,,,
0.0,1.0,0.788725,0.0,16.0,16.0,16.0,1.0,radiator_05s.jpg,0.0,clockno_default.jpg,3.0,46,,,,,,,,,,,,,,,,,,,,,,,,,,,,,,,,
0.0,1.0,1.024195,0.0,17.0,17.0,17.0,1.0,mitten_10s.jpg,0.0,clockno_up.jpg,4.0,46,,,,,,,,,,,,,,,,,,,,,,,,,,,,,,,,
1.0,1.0,0.85382,0.0,18.0,18.0,18.0,1.0,mitten_10s.jpg,1.0,clockno_default.jpg,4.0,46,,,,,,,,,,,,,,,,,,,,,,,,,,,,,,,,
0.0,1.0,1.17443,0.0,19.0,19.0,19.0,1.0,air_pump_05s.jpg,0.0,clockno_default.jpg,4.0,46,,,,,,,,,,,,,,,,,,,,,,,,,,,,,,,,
1.0,1.0,0.75902,0.0,20.0,20.0,20.0,1.0,air_pump_05s.jpg,1.0,clockno_default.jpg,4.0,46,,,,,,,,,,,,,,,,,,,,,,,,,,,,,,,,
0.0,1.0,1.673705,0.0,21.0,21.0,21.0,1.0,rhubarb_03s.jpg,0.0,clockno_default.jpg,4.0,46,,,,,,,,,,,,,,,,,,,,,,,,,,,,,,,,
0.0,1.0,0.909035,0.0,22.0,22.0,22.0,1.0,bowler_hat_10s.jpg,0.0,clockno_default.jpg,4.0,46,,,,,,,,,,,,,,,,,,,,,,,,,,,,,,,,
0.0,1.0,0.859,0.0,23.0,23.0,23.0,1.0,orchid_01b.jpg,0.0,clockno_default.jpg,4.0,46,,,,,,,,,,,,,,,,,,,,,,,,,,,,,,,,
0.0,1.0,0.80793,0.0,24.0,24.0,24.0,1.0,toad_09s.jpg,0.0,clockno_up.jpg,5.0,46,,,,,,,,,,,,,,,,,,,,,,,,,,,,,,,,
0.0,1.0,0.67652,0.0,25.0,25.0,25.0,1.0,sunflower_17s.jpg,0.0,clockno_default.jpg,5.0,46,,,,,,,,,,,,,,,,,,,,,,,,,,,,,,,,
1.0,1.0,0.888905,0.0,26.0,26.0,26.0,1.0,toad_09s.jpg,1.0,clockno_default.jpg,5.0,46,,,,,,,,,,,,,,,,,,,,,,,,,,,,,,,,
0.0,1.0,1.12183,0.0,27.0,27.0,27.0,1.0,mailbox_11s.jpg,0.0,clockno_default.jpg,5.0,46,,,,,,,,,,,,,,,,,,,,,,,,,,,,,,,,
0.0,1.0,0.96177,0.0,28.0,28.0,28.0,1.0,ram_05s.jpg,0.0,clockno_default.jpg,5.0,46,,,,,,,,,,,,,,,,,,,,,,,,,,,,,,,,
0.0,1.0,1.41386,0.0,29.0,29.0,29.0,1.0,peanut_butter_08s.jpg,0.0,clockno_up.jpg,6.0,46,,,,,,,,,,,,,,,,,,,,,,,,,,,,,,,,
0.0,1.0,1.90567,0.0,30.0,30.0,30.0,1.0,medal_04s.jpg,0.0,clockno_default.jpg,6.0,46,,,,,,,,,,,,,,,,,,,,,,,,,,,,,,,,
1.0,1.0,1.747505,0.0,31.0,31.0,31.0,1.0,medal_04s.jpg,1.0,clockno_default.jpg,6.0,46,,,,,,,,,,,,,,,,,,,,,,,,,,,,,,,,
0.0,1.0,1.026915,0.0,32.0,32.0,32.0,1.0,letter_opener_03s.jpg,0.0,clockno_default.jpg,6.0,46,,,,,,,,,,,,,,,,,,,,,,,,,,,,,,,,
0.0,1.0,1.032815,0.0,33.0,33.0,33.0,1.0,possum_09s.jpg,0.0,clockno_default.jpg,6.0,46,,,,,,,,,,,,,,,,,,,,,,,,,,,,,,,,
0.0,1.0,1.215025,0.0,34.0,34.0,34.0,1.0,snowman_02s.jpg,0.0,clockno_default.jpg,6.0,46,,,,,,,,,,,,,,,,,,,,,,,,,,,,,,,,
0.0,1.0,1.165745,0.0,35.0,35.0,35.0,1.0,radiator_05s.jpg,0.0,clockno_default.jpg,6.0,46,,,,,,,,,,,,,,,,,,,,,,,,,,,,,,,,
,,,,,,,,,1.0,,,46,1.0,1.0,1.78386,0.0,0.0,0.0,0.0,1.0,coat_rack_01b.jpg,spoon02a.jpg,,,,,,,,,,,,,,,,,,,,,,
,,,,,,,,,1.0,,,46,0.0,0.0,1.339025,0.0,1.0,1.0,1.0,1.0,tie_03s.jpg,peppermint_07s.jpg,,,,,,,,,,,,,,,,,,,,,,
,,,,,,,,,0.0,,,46,1.0,0.0,0.926705,0.0,2.0,2.0,2.0,1.0,pomegranate_04s.jpg,piggy_bank_02s.jpg,,,,,,,,,,,,,,,,,,,,,,
,,,,,,,,,0.0,,,46,1.0,0.0,2.16623,0.0,3.0,3.0,3.0,1.0,letter_opener_03s.jpg,peanut_butter_08s.jpg,,,,,,,,,,,,,,,,,,,,,,
,,,,,,,,,1.0,,,46,1.0,1.0,1.759195,0.0,4.0,4.0,4.0,1.0,tuba_12s.jpg,turkey_10s.jpg,,,,,,,,,,,,,,,,,,,,,,
,,,,,,,,,1.0,,,46,1.0,1.0,1.65736,0.0,5.0,5.0,5.0,1.0,sunflower_17s.jpg,ram_05s.jpg,,,,,,,,,,,,,,,,,,,,,,
,,,,,,,,,,,,46,,,,,,,,,,,0.0,4.0,4.0,4.0,1.0,clockno_present_5_11.xlsx,clockno_compare_task_5_11.xlsx,,,,,,,,,,,,,,,
0.0,1.0,1.25615,0.0,0.0,0.0,0.0,1.0,tulip_02s.jpg,0.0,clockno_up.jpg,1.0,46,,,,,,,,,,,,,,,,,,,,,,,,,,,,,,,,
1.0,1.0,1.147915,0.0,1.0,1.0,1.0,1.0,tulip_02s.jpg,1.0,clockno_default.jpg,1.0,46,,,,,,,,,,,,,,,,,,,,,,,,,,,,,,,,
,0.0,,0.0,2.0,2.0,2.0,1.0,lavender_10s.jpg,0.0,clockno_default.jpg,1.0,46,,,,,,,,,,,,,,,,,,,,,,,,,,,,,,,,
0.0,1.0,0.726985,0.0,3.0,3.0,3.0,1.0,money_07s.jpg,0.0,clockno_default.jpg,1.0,46,,,,,,,,,,,,,,,,,,,,,,,,,,,,,,,,
1.0,1.0,0.70382,0.0,4.0,4.0,4.0,1.0,lavender_10s.jpg,1.0,clockno_default.jpg,1.0,46,,,,,,,,,,,,,,,,,,,,,,,,,,,,,,,,
0.0,1.0,0.89228,0.0,5.0,5.0,5.0,1.0,trident_07s.jpg,0.0,clockno_default.jpg,1.0,46,,,,,,,,,,,,,,,,,,,,,,,,,,,,,,,,
0.0,1.0,1.22479,0.0,6.0,6.0,6.0,1.0,antenna_01b.jpg,0.0,clockno_default.jpg,1.0,46,,,,,,,,,,,,,,,,,,,,,,,,,,,,,,,,
0.0,1.0,1.420005,0.0,7.0,7.0,7.0,1.0,razor_12s.jpg,0.0,clockno_up.jpg,2.0,46,,,,,,,,,,,,,,,,,,,,,,,,,,,,,,,,
0.0,1.0,0.8808,0.0,8.0,8.0,8.0,1.0,thermostat_02s.jpg,0.0,clockno_default.jpg,2.0,46,,,,,,,,,,,,,,,,,,,,,,,,,,,,,,,,
0.0,1.0,0.74007,0.0,9.0,9.0,9.0,1.0,turtle_08s.jpg,0.0,clockno_default.jpg,2.0,46,,,,,,,,,,,,,,,,,,,,,,,,,,,,,,,,
0.0,1.0,0.907165,0.0,10.0,10.0,10.0,1.0,breadstick_08s.jpg,0.0,clockno_default.jpg,2.0,46,,,,,,,,,,,,,,,,,,,,,,,,,,,,,,,,
0.0,1.0,2.074915,0.0,11.0,11.0,11.0,1.0,ring_03s.jpg,0.0,clockno_default.jpg,2.0,46,,,,,,,,,,,,,,,,,,,,,,,,,,,,,,,,
1.0,0.0,1.15814,0.0,12.0,12.0,12.0,1.0,harpoon.jpg,0.0,clockno_default.jpg,2.0,46,,,,,,,,,,,,,,,,,,,,,,,,,,,,,,,,
0.0,1.0,1.18114,0.0,13.0,13.0,13.0,1.0,duck_01b.jpg,0.0,clockno_up.jpg,3.0,46,,,,,,,,,,,,,,,,,,,,,,,,,,,,,,,,
0.0,1.0,0.85908,0.0,14.0,14.0,14.0,1.0,smokingpipe.jpg,0.0,clockno_default.jpg,3.0,46,,,,,,,,,,,,,,,,,,,,,,,,,,,,,,,,
0.0,1.0,0.712725,0.0,15.0,15.0,15.0,1.0,cobra_05s.jpg,0.0,clockno_default.jpg,3.0,46,,,,,,,,,,,,,,,,,,,,,,,,,,,,,,,,
0.0,1.0,0.704665,0.0,16.0,16.0,16.0,1.0,blazer_02s.jpg,0.0,clockno_default.jpg,3.0,46,,,,,,,,,,,,,,,,,,,,,,,,,,,,,,,,
0.0,1.0,1.22983,0.0,17.0,17.0,17.0,1.0,turtle_08s.jpg,0.0,clockno_default.jpg,3.0,46,,,,,,,,,,,,,,,,,,,,,,,,,,,,,,,,
0.0,1.0,0.90978,0.0,18.0,18.0,18.0,1.0,icicle_04s.jpg,0.0,clockno_default.jpg,3.0,46,,,,,,,,,,,,,,,,,,,,,,,,,,,,,,,,
0.0,1.0,0.740425,0.0,19.0,19.0,19.0,1.0,perfume_06s.jpg,0.0,clockno_default.jpg,3.0,46,,,,,,,,,,,,,,,,,,,,,,,,,,,,,,,,
0.0,1.0,0.89797,0.0,20.0,20.0,20.0,1.0,saddle_06s.jpg,0.0,clockno_up.jpg,4.0,46,,,,,,,,,,,,,,,,,,,,,,,,,,,,,,,,
0.0,1.0,0.64593,0.0,21.0,21.0,21.0,1.0,fur_coat_11s.jpg,0.0,clockno_default.jpg,4.0,46,,,,,,,,,,,,,,,,,,,,,,,,,,,,,,,,
0.0,1.0,0.73988,0.0,22.0,22.0,22.0,1.0,pineapple_12s.jpg,0.0,clockno_default.jpg,4.0,46,,,,,,,,,,,,,,,,,,,,,,,,,,,,,,,,
0.0,1.0,1.25616,0.0,23.0,23.0,23.0,1.0,perfume_06s.jpg,0.0,clockno_default.jpg,4.0,46,,,,,,,,,,,,,,,,,,,,,,,,,,,,,,,,
0.0,1.0,0.91233,0.0,24.0,24.0,24.0,1.0,binder_21s.jpg,0.0,clockno_default.jpg,4.0,46,,,,,,,,,,,,,,,,,,,,,,,,,,,,,,,,
0.0,1.0,1.206445,0.0,25.0,25.0,25.0,1.0,laundry_basket_11s.jpg,0.0,clockno_up.jpg,5.0,46,,,,,,,,,,,,,,,,,,,,,,,,,,,,,,,,
0.0,1.0,1.30428,0.0,26.0,26.0,26.0,1.0,fountain_pen_06s.jpg,0.0,clockno_default.jpg,5.0,46,,,,,,,,,,,,,,,,,,,,,,,,,,,,,,,,
0.0,1.0,0.52241,0.0,27.0,27.0,27.0,1.0,stapler_01b.jpg,0.0,clockno_default.jpg,5.0,46,,,,,,,,,,,,,,,,,,,,,,,,,,,,,,,,
0.0,1.0,0.928715,0.0,28.0,28.0,28.0,1.0,pipe1_10s.jpg,0.0,clockno_default.jpg,5.0,46,,,,,,,,,,,,,,,,,,,,,,,,,,,,,,,,
1.0,1.0,1.162195,0.0,29.0,29.0,29.0,1.0,stapler_01b.jpg,1.0,clockno_default.jpg,5.0,46,,,,,,,,,,,,,,,,,,,,,,,,,,,,,,,,
1.0,1.0,1.31093,0.0,30.0,30.0,30.0,1.0,fountain_pen_06s.jpg,1.0,clockno_default.jpg,5.0,46,,,,,,,,,,,,,,,,,,,,,,,,,,,,,,,,
0.0,1.0,1.17479,0.0,31.0,31.0,31.0,1.0,tennis_ball_06s.jpg,0.0,clockno_up.jpg,6.0,46,,,,,,,,,,,,,,,,,,,,,,,,,,,,,,,,
0.0,1.0,1.041655,0.0,32.0,32.0,32.0,1.0,bathtub_23s.jpg,0.0,clockno_default.jpg,6.0,46,,,,,,,,,,,,,,,,,,,,,,,,,,,,,,,,
0.0,1.0,1.258375,0.0,33.0,33.0,33.0,1.0,contact_lens_15s.jpg,0.0,clockno_default.jpg,6.0,46,,,,,,,,,,,,,,,,,,,,,,,,,,,,,,,,
0.0,1.0,1.109985,0.0,34.0,34.0,34.0,1.0,bacon_05s.jpg,0.0,clockno_default.jpg,6.0,46,,,,,,,,,,,,,,,,,,,,,,,,,,,,,,,,
1.0,1.0,0.97541,0.0,35.0,35.0,35.0,1.0,contact_lens_15s.jpg,1.0,clockno_default.jpg,6.0,46,,,,,,,,,,,,,,,,,,,,,,,,,,,,,,,,
,,,,,,,,,0.0,,,46,0.0,1.0,1.88699,0.0,0.0,0.0,0.0,1.0,thermostat_02s.jpg,trident_07s.jpg,,,,,,,,,,,,,,,,,,,,,,
,,,,,,,,,1.0,,,46,0.0,0.0,1.444655,0.0,1.0,1.0,1.0,1.0,ring_03s.jpg,smokingpipe.jpg,,,,,,,,,,,,,,,,,,,,,,
,,,,,,,,,0.0,,,46,0.0,1.0,1.25727,0.0,2.0,2.0,2.0,1.0,cobra_05s.jpg,harpoon.jpg,,,,,,,,,,,,,,,,,,,,,,
,,,,,,,,,1.0,,,46,1.0,1.0,1.59965,0.0,3.0,3.0,3.0,1.0,money_07s.jpg,antenna_01b.jpg,,,,,,,,,,,,,,,,,,,,,,
,,,,,,,,,0.0,,,46,0.0,1.0,1.44014,0.0,4.0,4.0,4.0,1.0,breadstick_08s.jpg,razor_12s.jpg,,,,,,,,,,,,,,,,,,,,,,
,,,,,,,,,0.0,,,46,0.0,1.0,1.57943,0.0,5.0,5.0,5.0,1.0,blazer_02s.jpg,duck_01b.jpg,,,,,,,,,,,,,,,,,,,,,,
0.0,1.0,1.371035,,,,,,tweezers_03s.jpg,0.0,clock_7_1.png,1.0,46,,,,,,,,,,,,,,,,,,0.0,0.0,0.0,0.0,1.0,,,,,,,,,,
1.0,1.0,0.85721,,,,,,tweezers_03s.jpg,1.0,clock_7_2.png,1.0,46,,,,,,,,,,,,,,,,,,0.0,1.0,1.0,1.0,1.0,,,,,,,,,,
0.0,1.0,1.248455,,,,,,rolling_pin_02s.jpg,0.0,clock_7_3.png,1.0,46,,,,,,,,,,,,,,,,,,0.0,2.0,2.0,2.0,1.0,,,,,,,,,,
1.0,1.0,1.644665,,,,,,rolling_pin_02s.jpg,1.0,clock_7_4.png,1.0,46,,,,,,,,,,,,,,,,,,0.0,3.0,3.0,3.0,1.0,,,,,,,,,,
0.0,1.0,1.056425,,,,,,otter_05s.jpg,0.0,clock_7_5.png,1.0,46,,,,,,,,,,,,,,,,,,0.0,4.0,4.0,4.0,1.0,,,,,,,,,,
1.0,1.0,1.099945,,,,,,tweezers_03s.jpg,1.0,clock_7_6.png,1.0,46,,,,,,,,,,,,,,,,,,0.0,5.0,5.0,5.0,1.0,,,,,,,,,,
0.0,1.0,0.83392,,,,,,loveseat_08s.jpg,0.0,clock_7_7.png,1.0,46,,,,,,,,,,,,,,,,,,0.0,6.0,6.0,6.0,1.0,,,,,,,,,,
0.0,1.0,1.023575,,,,,,moth_06n.jpg,0.0,clock_7_1.png,2.0,46,,,,,,,,,,,,,,,,,,0.0,7.0,7.0,7.0,1.0,,,,,,,,,,
0.0,1.0,1.535195,,,,,,outlet_10s.jpg,0.0,clock_7_2.png,2.0,46,,,,,,,,,,,,,,,,,,0.0,8.0,8.0,8.0,1.0,,,,,,,,,,
0.0,1.0,1.84048,,,,,,tape_06s.jpg,0.0,clock_7_3.png,2.0,46,,,,,,,,,,,,,,,,,,0.0,9.0,9.0,9.0,1.0,,,,,,,,,,
0.0,1.0,1.8252,,,,,,latte_06s.jpg,0.0,clock_7_4.png,2.0,46,,,,,,,,,,,,,,,,,,0.0,10.0,10.0,10.0,1.0,,,,,,,,,,
,0.0,,,,,,,tinsel_12s.jpg,0.0,clock_7_5.png,2.0,46,,,,,,,,,,,,,,,,,,0.0,11.0,11.0,11.0,1.0,,,,,,,,,,
0.0,1.0,1.294845,,,,,,blender_08s.jpg,0.0,clock_7_6.png,2.0,46,,,,,,,,,,,,,,,,,,0.0,12.0,12.0,12.0,1.0,,,,,,,,,,
0.0,1.0,1.6059,,,,,,dirt_bike_11s.jpg,0.0,clock_7_7.png,2.0,46,,,,,,,,,,,,,,,,,,0.0,13.0,13.0,13.0,1.0,,,,,,,,,,
0.0,1.0,1.207015,,,,,,olive_05s.jpg,0.0,clock_5_1.png,3.0,46,,,,,,,,,,,,,,,,,,0.0,14.0,14.0,14.0,1.0,,,,,,,,,,
0.0,1.0,1.17717,,,,,,spacesuit_02s.jpg,0.0,clock_5_2.png,3.0,46,,,,,,,,,,,,,,,,,,0.0,15.0,15.0,15.0,1.0,,,,,,,,,,
0.0,1.0,1.088165,,,,,,ink_08s.jpg,0.0,clock_5_3.png,3.0,46,,,,,,,,,,,,,,,,,,0.0,16.0,16.0,16.0,1.0,,,,,,,,,,
1.0,1.0,1.025985,,,,,,ink_08s.jpg,1.0,clock_5_4.png,3.0,46,,,,,,,,,,,,,,,,,,0.0,17.0,17.0,17.0,1.0,,,,,,,,,,
0.0,1.0,0.855195,,,,,,syringe_02s.jpg,0.0,clock_5_5.png,3.0,46,,,,,,,,,,,,,,,,,,0.0,18.0,18.0,18.0,1.0,,,,,,,,,,
1.0,0.0,2.1764,,,,,,pea_11s.jpg,0.0,clock_5_1.png,4.0,46,,,,,,,,,,,,,,,,,,0.0,19.0,19.0,19.0,1.0,,,,,,,,,,
0.0,1.0,0.5275,,,,,,stump_02s.jpg,0.0,clock_5_2.png,4.0,46,,,,,,,,,,,,,,,,,,0.0,20.0,20.0,20.0,1.0,,,,,,,,,,
0.0,1.0,0.89419,,,,,,mold2_04s.jpg,0.0,clock_5_3.png,4.0,46,,,,,,,,,,,,,,,,,,0.0,21.0,21.0,21.0,1.0,,,,,,,,,,
1.0,1.0,1.125,,,,,,stump_02s.jpg,1.0,clock_5_4.png,4.0,46,,,,,,,,,,,,,,,,,,0.0,22.0,22.0,22.0,1.0,,,,,,,,,,
1.0,1.0,1.427225,,,,,,stump_02s.jpg,1.0,clock_5_5.png,4.0,46,,,,,,,,,,,,,,,,,,0.0,23.0,23.0,23.0,1.0,,,,,,,,,,
0.0,1.0,1.691715,,,,,,prism_10s.jpg,0.0,clock_6_1.png,5.0,46,,,,,,,,,,,,,,,,,,0.0,24.0,24.0,24.0,1.0,,,,,,,,,,
0.0,1.0,0.99936,,,,,,crayon_09s.jpg,0.0,clock_6_2.png,5.0,46,,,,,,,,,,,,,,,,,,0.0,25.0,25.0,25.0,1.0,,,,,,,,,,
0.0,1.0,0.925025,,,,,,boomerang_06s.jpg,0.0,clock_6_3.png,5.0,46,,,,,,,,,,,,,,,,,,0.0,26.0,26.0,26.0,1.0,,,,,,,,,,
0.0,1.0,0.90733,,,,,,briefcase_03s.jpg,0.0,clock_6_4.png,5.0,46,,,,,,,,,,,,,,,,,,0.0,27.0,27.0,27.0,1.0,,,,,,,,,,
0.0,1.0,0.852445,,,,,,tile_08s.jpg,0.0,clock_6_5.png,5.0,46,,,,,,,,,,,,,,,,,,0.0,28.0,28.0,28.0,1.0,,,,,,,,,,
1.0,1.0,1.92891,,,,,,tile_08s.jpg,1.0,clock_6_6.png,5.0,46,,,,,,,,,,,,,,,,,,0.0,29.0,29.0,29.0,1.0,,,,,,,,,,
0.0,1.0,1.27417,,,,,,gear_07s.jpg,0.0,clock_6_1.png,6.0,46,,,,,,,,,,,,,,,,,,0.0,30.0,30.0,30.0,1.0,,,,,,,,,,
0.0,1.0,1.22029,,,,,,mold2_04s.jpg,0.0,clock_6_2.png,6.0,46,,,,,,,,,,,,,,,,,,0.0,31.0,31.0,31.0,1.0,,,,,,,,,,
0.0,1.0,1.37924,,,,,,puppy_08s.jpg,0.0,clock_6_3.png,6.0,46,,,,,,,,,,,,,,,,,,0.0,32.0,32.0,32.0,1.0,,,,,,,,,,
1.0,1.0,1.110685,,,,,,puppy_08s.jpg,1.0,clock_6_4.png,6.0,46,,,,,,,,,,,,,,,,,,0.0,33.0,33.0,33.0,1.0,,,,,,,,,,
0.0,1.0,1.289255,,,,,,gingerbread_man_03s.jpg,0.0,clock_6_5.png,6.0,46,,,,,,,,,,,,,,,,,,0.0,34.0,34.0,34.0,1.0,,,,,,,,,,
1.0,1.0,1.106145,,,,,,gingerbread_man_03s.jpg,1.0,clock_6_6.png,6.0,46,,,,,,,,,,,,,,,,,,0.0,35.0,35.0,35.0,1.0,,,,,,,,,,
,,,,,,,,,0.0,,,46,1.0,0.0,1.908795,,,,,,moth_06n.jpg,otter_05s.jpg,,,,,,,,,,,,,0.0,0.0,0.0,0.0,1.0,,,,,
,,,,,,,,,1.0,,,46,1.0,1.0,1.55809,,,,,,loveseat_08s.jpg,tape_06s.jpg,,,,,,,,,,,,,0.0,1.0,1.0,1.0,1.0,,,,,
,,,,,,,,,1.0,,,46,0.0,0.0,2.43754,,,,,,tinsel_12s.jpg,olive_05s.jpg,,,,,,,,,,,,,0.0,2.0,2.0,2.0,1.0,,,,,
,,,,,,,,,1.0,,,46,1.0,1.0,1.72987,,,,,,latte_06s.jpg,dirt_bike_11s.jpg,,,,,,,,,,,,,0.0,3.0,3.0,3.0,1.0,,,,,
,,,,,,,,,1.0,,,46,0.0,0.0,1.5913,,,,,,spacesuit_02s.jpg,syringe_02s.jpg,,,,,,,,,,,,,0.0,4.0,4.0,4.0,1.0,,,,,
,,,,,,,,,1.0,,,46,0.0,0.0,1.575775,,,,,,prism_10s.jpg,briefcase_03s.jpg,,,,,,,,,,,,,0.0,5.0,5.0,5.0,1.0,,,,,
,,,,,,,,,,,,46,,,,,,,,,,,,,,,,clock_present_1_11.xlsx,clock_compare_task_1_11.xlsx,,,,,,,,,,,0.0,0.0,0.0,0.0,1.0
0.0,1.0,1.18186,,,,,,light_switch_02s.jpg,0.0,clock_5_1.png,1.0,46,,,,,,,,,,,,,,,,,,0.0,0.0,0.0,0.0,1.0,,,,,,,,,,
0.0,1.0,1.388515,,,,,,ukulele_02s.jpg,0.0,clock_5_2.png,1.0,46,,,,,,,,,,,,,,,,,,0.0,1.0,1.0,1.0,1.0,,,,,,,,,,
0.0,1.0,1.29442,,,,,,jersey_02s.jpg,0.0,clock_5_3.png,1.0,46,,,,,,,,,,,,,,,,,,0.0,2.0,2.0,2.0,1.0,,,,,,,,,,
0.0,1.0,0.9912,,,,,,timer_03s.jpg,0.0,clock_5_4.png,1.0,46,,,,,,,,,,,,,,,,,,0.0,3.0,3.0,3.0,1.0,,,,,,,,,,
0.0,1.0,1.19772,,,,,,tortilla_06s.jpg,0.0,clock_5_5.png,1.0,46,,,,,,,,,,,,,,,,,,0.0,4.0,4.0,4.0,1.0,,,,,,,,,,
0.0,1.0,1.091315,,,,,,sea_urchin_09s.jpg,0.0,clock_6_1.png,2.0,46,,,,,,,,,,,,,,,,,,0.0,5.0,5.0,5.0,1.0,,,,,,,,,,
0.0,1.0,1.063505,,,,,,stopwatch_04s.jpg,0.0,clock_6_2.png,2.0,46,,,,,,,,,,,,,,,,,,0.0,6.0,6.0,6.0,1.0,,,,,,,,,,
0.0,1.0,1.183085,,,,,,ladder_15s.jpg,0.0,clock_6_3.png,2.0,46,,,,,,,,,,,,,,,,,,0.0,7.0,7.0,7.0,1.0,,,,,,,,,,
0.0,1.0,0.841335,,,,,,racehorse_03s.jpg,0.0,clock_6_4.png,2.0,46,,,,,,,,,,,,,,,,,,0.0,8.0,8.0,8.0,1.0,,,,,,,,,,
0.0,1.0,1.242415,,,,,,puffin_19s.jpg,0.0,clock_6_5.png,2.0,46,,,,,,,,,,,,,,,,,,0.0,9.0,9.0,9.0,1.0,,,,,,,,,,
0.0,1.0,0.974925,,,,,,tablet_04s.jpg,0.0,clock_6_6.png,2.0,46,,,,,,,,,,,,,,,,,,0.0,10.0,10.0,10.0,1.0,,,,,,,,,,
0.0,1.0,1.01543,,,,,,go-kart_10s.jpg,0.0,clock_7_1.png,3.0,46,,,,,,,,,,,,,,,,,,0.0,11.0,11.0,11.0,1.0,,,,,,,,,,
0.0,1.0,1.52708,,,,,,bank_06s.jpg,0.0,clock_7_2.png,3.0,46,,,,,,,,,,,,,,,,,,0.0,12.0,12.0,12.0,1.0,,,,,,,,,,
1.0,1.0,1.09362,,,,,,bank_06s.jpg,1.0,clock_7_3.png,3.0,46,,,,,,,,,,,,,,,,,,0.0,13.0,13.0,13.0,1.0,,,,,,,,,,
0.0,1.0,1.18759,,,,,,printer_09s.jpg,0.0,clock_7_4.png,3.0,46,,,,,,,,,,,,,,,,,,0.0,14.0,14.0,14.0,1.0,,,,,,,,,,
0.0,1.0,1.81523,,,,,,orange_12s.jpg,0.0,clock_7_5.png,3.0,46,,,,,,,,,,,,,,,,,,0.0,15.0,15.0,15.0,1.0,,,,,,,,,,
0.0,1.0,1.20513,,,,,,turnstile_08s.jpg,0.0,clock_7_6.png,3.0,46,,,,,,,,,,,,,,,,,,0.0,16.0,16.0,16.0,1.0,,,,,,,,,,
0.0,1.0,1.07261,,,,,,mosquito_12s.jpg,0.0,clock_7_7.png,3.0,46,,,,,,,,,,,,,,,,,,0.0,17.0,17.0,17.0,1.0,,,,,,,,,,
0.0,1.0,1.113295,,,,,,rhinoceros_02s.jpg,0.0,clock_7_1.png,4.0,46,,,,,,,,,,,,,,,,,,0.0,18.0,18.0,18.0,1.0,,,,,,,,,,
0.0,1.0,1.676655,,,,,,fossil_06s.jpg,0.0,clock_7_2.png,4.0,46,,,,,,,,,,,,,,,,,,0.0,19.0,19.0,19.0,1.0,,,,,,,,,,
0.0,1.0,1.23217,,,,,,puffin_19s.jpg,0.0,clock_7_3.png,4.0,46,,,,,,,,,,,,,,,,,,0.0,20.0,20.0,20.0,1.0,,,,,,,,,,
0.0,1.0,1.47309,,,,,,stamp2_08s.jpg,0.0,clock_7_4.png,4.0,46,,,,,,,,,,,,,,,,,,0.0,21.0,21.0,21.0,1.0,,,,,,,,,,
0.0,1.0,1.11579,,,,,,sleeping_bag_12s.jpg,0.0,clock_7_5.png,4.0,46,,,,,,,,,,,,,,,,,,0.0,22.0,22.0,22.0,1.0,,,,,,,,,,
0.0,1.0,1.392355,,,,,,muffin_12n.jpg,0.0,clock_7_6.png,4.0,46,,,,,,,,,,,,,,,,,,0.0,23.0,23.0,23.0,1.0,,,,,,,,,,
0.0,1.0,1.36217,,,,,,coconut_08s.jpg,0.0,clock_7_7.png,4.0,46,,,,,,,,,,,,,,,,,,0.0,24.0,24.0,24.0,1.0,,,,,,,,,,
0.0,1.0,1.643235,,,,,,scooter.jpg,0.0,clock_5_1.png,5.0,46,,,,,,,,,,,,,,,,,,0.0,25.0,25.0,25.0,1.0,,,,,,,,,,
1.0,1.0,1.123345,,,,,,scooter.jpg,1.0,clock_5_2.png,5.0,46,,,,,,,,,,,,,,,,,,0.0,26.0,26.0,26.0,1.0,,,,,,,,,,
0.0,1.0,1.68277,,,,,,keyhole_03s.jpg,0.0,clock_5_3.png,5.0,46,,,,,,,,,,,,,,,,,,0.0,27.0,27.0,27.0,1.0,,,,,,,,,,
0.0,1.0,1.65613,,,,,,champagne_18s.jpg,0.0,clock_5_4.png,5.0,46,,,,,,,,,,,,,,,,,,0.0,28.0,28.0,28.0,1.0,,,,,,,,,,
0.0,1.0,1.405535,,,,,,mixer_12s.jpg,0.0,clock_5_5.png,5.0,46,,,,,,,,,,,,,,,,,,0.0,29.0,29.0,29.0,1.0,,,,,,,,,,
0.0,1.0,1.861625,,,,,,glue_01s.jpg,0.0,clock_6_1.png,6.0,46,,,,,,,,,,,,,,,,,,0.0,30.0,30.0,30.0,1.0,,,,,,,,,,
0.0,1.0,1.648,,,,,,glasses01a.jpg,0.0,clock_6_2.png,6.0,46,,,,,,,,,,,,,,,,,,0.0,31.0,31.0,31.0,1.0,,,,,,,,,,
1.0,1.0,1.041755,,,,,,glue_01s.jpg,1.0,clock_6_3.png,6.0,46,,,,,,,,,,,,,,,,,,0.0,32.0,32.0,32.0,1.0,,,,,,,,,,
0.0,1.0,1.193265,,,,,,orange_12s.jpg,0.0,clock_6_4.png,6.0,46,,,,,,,,,,,,,,,,,,0.0,33.0,33.0,33.0,1.0,,,,,,,,,,
1.0,1.0,1.372485,,,,,,glasses01a.jpg,1.0,clock_6_5.png,6.0,46,,,,,,,,,,,,,,,,,,0.0,34.0,34.0,34.0,1.0,,,,,,,,,,
0.0,1.0,1.406795,,,,,,tambourine_06s.jpg,0.0,clock_6_6.png,6.0,46,,,,,,,,,,,,,,,,,,0.0,35.0,35.0,35.0,1.0,,,,,,,,,,
,,,,,,,,,1.0,,,46,0.0,0.0,1.751635,,,,,,jersey_02s.jpg,sea_urchin_09s.jpg,,,,,,,,,,,,,0.0,0.0,0.0,0.0,1.0,,,,,
,,,,,,,,,1.0,,,46,0.0,0.0,1.328115,,,,,,timer_03s.jpg,stopwatch_04s.jpg,,,,,,,,,,,,,0.0,1.0,1.0,1.0,1.0,,,,,
,,,,,,,,,0.0,,,46,1.0,0.0,1.34727,,,,,,fossil_06s.jpg,turnstile_08s.jpg,,,,,,,,,,,,,0.0,2.0,2.0,2.0,1.0,,,,,
,,,,,,,,,1.0,,,46,1.0,1.0,1.246395,,,,,,printer_09s.jpg,mosquito_12s.jpg,,,,,,,,,,,,,0.0,3.0,3.0,3.0,1.0,,,,,
,,,,,,,,,0.0,,,46,0.0,1.0,1.276165,,,,,,stamp2_08s.jpg,rhinoceros_02s.jpg,,,,,,,,,,,,,0.0,4.0,4.0,4.0,1.0,,,,,
,,,,,,,,,0.0,,,46,0.0,1.0,1.91017,,,,,,tortilla_06s.jpg,ukulele_02s.jpg,,,,,,,,,,,,,0.0,5.0,5.0,5.0,1.0,,,,,
,,,,,,,,,,,,46,,,,,,,,,,,,,,,,clock_present_2_11.xlsx,clock_compare_task_2_11.xlsx,,,,,,,,,,,0.0,1.0,1.0,1.0,1.0
0.0,1.0,1.56966,,,,,,gazelle_10s.jpg,0.0,clock_5_1.png,1.0,46,,,,,,,,,,,,,,,,,,0.0,0.0,0.0,0.0,1.0,,,,,,,,,,
0.0,1.0,1.740675,,,,,,panda_02s.jpg,0.0,clock_5_2.png,1.0,46,,,,,,,,,,,,,,,,,,0.0,1.0,1.0,1.0,1.0,,,,,,,,,,
0.0,1.0,0.944195,,,,,,swordfish_05s.jpg,0.0,clock_5_3.png,1.0,46,,,,,,,,,,,,,,,,,,0.0,2.0,2.0,2.0,1.0,,,,,,,,,,
0.0,1.0,1.18124,,,,,,fireworks_18s.jpg,0.0,clock_5_4.png,1.0,46,,,,,,,,,,,,,,,,,,0.0,3.0,3.0,3.0,1.0,,,,,,,,,,
0.0,1.0,1.337965,,,,,,squirt_gun_03s.jpg,0.0,clock_5_5.png,1.0,46,,,,,,,,,,,,,,,,,,0.0,4.0,4.0,4.0,1.0,,,,,,,,,,
0.0,1.0,1.18857,,,,,,lifesaver_10s.jpg,0.0,clock_5_1.png,2.0,46,,,,,,,,,,,,,,,,,,0.0,5.0,5.0,5.0,1.0,,,,,,,,,,
1.0,1.0,1.088905,,,,,,lifesaver_10s.jpg,1.0,clock_5_2.png,2.0,46,,,,,,,,,,,,,,,,,,0.0,6.0,6.0,6.0,1.0,,,,,,,,,,
0.0,1.0,1.473715,,,,,,dashboard_02s.jpg,0.0,clock_5_3.png,2.0,46,,,,,,,,,,,,,,,,,,0.0,7.0,7.0,7.0,1.0,,,,,,,,,,
0.0,1.0,1.443545,,,,,,typewriter_11s.jpg,0.0,clock_5_4.png,2.0,46,,,,,,,,,,,,,,,,,,0.0,8.0,8.0,8.0,1.0,,,,,,,,,,
0.0,1.0,1.6342,,,,,,swing_set_15s.jpg,0.0,clock_5_5.png,2.0,46,,,,,,,,,,,,,,,,,,0.0,9.0,9.0,9.0,1.0,,,,,,,,,,
0.0,1.0,1.543575,,,,,,pretzel_09s.jpg,0.0,clock_7_1.png,3.0,46,,,,,,,,,,,,,,,,,,0.0,10.0,10.0,10.0,1.0,,,,,,,,,,
0.0,1.0,1.00532,,,,,,luggage_08s.jpg,0.0,clock_7_2.png,3.0,46,,,,,,,,,,,,,,,,,,0.0,11.0,11.0,11.0,1.0,,,,,,,,,,
0.0,1.0,1.595765,,,,,,cape_11s.jpg,0.0,clock_7_3.png,3.0,46,,,,,,,,,,,,,,,,,,0.0,12.0,12.0,12.0,1.0,,,,,,,,,,
1.0,1.0,1.114105,,,,,,cape_11s.jpg,1.0,clock_7_4.png,3.0,46,,,,,,,,,,,,,,,,,,0.0,13.0,13.0,13.0,1.0,,,,,,,,,,
0.0,1.0,1.44123,,,,,,thumbtack_14s.jpg,0.0,clock_7_5.png,3.0,46,,,,,,,,,,,,,,,,,,0.0,14.0,14.0,14.0,1.0,,,,,,,,,,
0.0,1.0,1.81407,,,,,,sledgehammer_03s.jpg,0.0,clock_7_6.png,3.0,46,,,,,,,,,,,,,,,,,,0.0,15.0,15.0,15.0,1.0,,,,,,,,,,
0.0,1.0,2.08593,,,,,,pencil02a.jpg,0.0,clock_7_7.png,3.0,46,,,,,,,,,,,,,,,,,,0.0,16.0,16.0,16.0,1.0,,,,,,,,,,
0.0,1.0,1.269965,,,,,,refrigerator_07s.jpg,0.0,clock_6_1.png,4.0,46,,,,,,,,,,,,,,,,,,0.0,17.0,17.0,17.0,1.0,,,,,,,,,,
0.0,1.0,1.481285,,,,,,ant_12s.jpg,0.0,clock_6_2.png,4.0,46,,,,,,,,,,,,,,,,,,0.0,18.0,18.0,18.0,1.0,,,,,,,,,,
1.0,1.0,1.286305,,,,,,ant_12s.jpg,1.0,clock_6_3.png,4.0,46,,,,,,,,,,,,,,,,,,0.0,19.0,19.0,19.0,1.0,,,,,,,,,,
0.0,1.0,1.323135,,,,,,raccoon_02s.jpg,0.0,clock_6_4.png,4.0,46,,,,,,,,,,,,,,,,,,0.0,20.0,20.0,20.0,1.0,,,,,,,,,,
0.0,1.0,1.05767,,,,,,puppet_01b.jpg,0.0,clock_6_5.png,4.0,46,,,,,,,,,,,,,,,,,,0.0,21.0,21.0,21.0,1.0,,,,,,,,,,
1.0,1.0,1.073155,,,,,,ant_12s.jpg,1.0,clock_6_6.png,4.0,46,,,,,,,,,,,,,,,,,,0.0,22.0,22.0,22.0,1.0,,,,,,,,,,
0.0,1.0,1.014045,,,,,,pear_02s.jpg,0.0,clock_6_1.png,5.0,46,,,,,,,,,,,,,,,,,,0.0,23.0,23.0,23.0,1.0,,,,,,,,,,
0.0,1.0,1.271745,,,,,,keyboard_05s.jpg,0.0,clock_6_2.png,5.0,46,,,,,,,,,,,,,,,,,,0.0,24.0,24.0,24.0,1.0,,,,,,,,,,
0.0,1.0,1.356295,,,,,,smoothie_09s.jpg,0.0,clock_6_3.png,5.0,46,,,,,,,,,,,,,,,,,,0.0,25.0,25.0,25.0,1.0,,,,,,,,,,
0.0,1.0,1.24131,,,,,,coffee_filter_10s.jpg,0.0,clock_6_4.png,5.0,46,,,,,,,,,,,,,,,,,,0.0,26.0,26.0,26.0,1.0,,,,,,,,,,
0.0,1.0,1.25679,,,,,,dynamite_01b.jpg,0.0,clock_6_5.png,5.0,46,,,,,,,,,,,,,,,,,,0.0,27.0,27.0,27.0,1.0,,,,,,,,,,
0.0,1.0,1.11014,,,,,,pepper2_21s.jpg,0.0,clock_6_6.png,5.0,46,,,,,,,,,,,,,,,,,,0.0,28.0,28.0,28.0,1.0,,,,,,,,,,
0.0,1.0,1.50892,,,,,,basket_05s.jpg,0.0,clock_7_1.png,6.0,46,,,,,,,,,,,,,,,,,,0.0,29.0,29.0,29.0,1.0,,,,,,,,,,
0.0,1.0,1.06671,,,,,,juicer1_08s.jpg,0.0,clock_7_2.png,6.0,46,,,,,,,,,,,,,,,,,,0.0,30.0,30.0,30.0,1.0,,,,,,,,,,
1.0,1.0,1.257825,,,,,,juicer1_08s.jpg,1.0,clock_7_3.png,6.0,46,,,,,,,,,,,,,,,,,,0.0,31.0,31.0,31.0,1.0,,,,,,,,,,
0.0,1.0,1.40861,,,,,,ladle_04s.jpg,0.0,clock_7_4.png,6.0,46,,,,,,,,,,,,,,,,,,0.0,32.0,32.0,32.0,1.0,,,,,,,,,,
0.0,1.0,1.78789,,,,,,ice-cream_cone_06s.jpg,0.0,clock_7_5.png,6.0,46,,,,,,,,,,,,,,,,,,0.0,33.0,33.0,33.0,1.0,,,,,,,,,,
1.0,1.0,1.07477,,,,,,ladle_04s.jpg,1.0,clock_7_6.png,6.0,46,,,,,,,,,,,,,,,,,,0.0,34.0,34.0,34.0,1.0,,,,,,,,,,
0.0,1.0,1.123545,,,,,,denture_03s.jpg,0.0,clock_7_7.png,6.0,46,,,,,,,,,,,,,,,,,,0.0,35.0,35.0,35.0,1.0,,,,,,,,,,
,,,,,,,,,1.0,,,46,1.0,1.0,1.99123,,,,,,dashboard_02s.jpg,pretzel_09s.jpg,,,,,,,,,,,,,0.0,0.0,0.0,0.0,1.0,,,,,
,,,,,,,,,1.0,,,46,0.0,0.0,1.34403,,,,,,typewriter_11s.jpg,luggage_08s.jpg,,,,,,,,,,,,,0.0,1.0,1.0,1.0,1.0,,,,,
,,,,,,,,,1.0,,,46,0.0,0.0,3.02893,,,,,,puppet_01b.jpg,keyboard_05s.jpg,,,,,,,,,,,,,0.0,2.0,2.0,2.0,1.0,,,,,
,,,,,,,,,0.0,,,46,0.0,1.0,1.425595,,,,,,fireworks_18s.jpg,gazelle_10s.jpg,,,,,,,,,,,,,0.0,3.0,3.0,3.0,1.0,,,,,
,,,,,,,,,0.0,,,46,1.0,0.0,1.65759,,,,,,pepper2_21s.jpg,smoothie_09s.jpg,,,,,,,,,,,,,0.0,4.0,4.0,4.0,1.0,,,,,
,,,,,,,,,1.0,,,46,1.0,1.0,1.35967,,,,,,panda_02s.jpg,squirt_gun_03s.jpg,,,,,,,,,,,,,0.0,5.0,5.0,5.0,1.0,,,,,
,,,,,,,,,,,,46,,,,,,,,,,,,,,,,clock_present_3_11.xlsx,clock_compare_task_3_11.xlsx,,,,,,,,,,,0.0,2.0,2.0,2.0,1.0
0.0,1.0,1.4105,,,,,,popsicle_02s.jpg,0.0,clock_6_1.png,1.0,46,,,,,,,,,,,,,,,,,,0.0,0.0,0.0,0.0,1.0,,,,,,,,,,
1.0,1.0,1.23982,,,,,,popsicle_02s.jpg,1.0,clock_6_2.png,1.0,46,,,,,,,,,,,,,,,,,,0.0,1.0,1.0,1.0,1.0,,,,,,,,,,
0.0,1.0,1.02198,,,,,,swimming_pool_17s.jpg,0.0,clock_6_3.png,1.0,46,,,,,,,,,,,,,,,,,,0.0,2.0,2.0,2.0,1.0,,,,,,,,,,
1.0,1.0,0.99654,,,,,,swimming_pool_17s.jpg,1.0,clock_6_4.png,1.0,46,,,,,,,,,,,,,,,,,,0.0,3.0,3.0,3.0,1.0,,,,,,,,,,
1.0,1.0,1.774705,,,,,,popsicle_02s.jpg,1.0,clock_6_5.png,1.0,46,,,,,,,,,,,,,,,,,,0.0,4.0,4.0,4.0,1.0,,,,,,,,,,
1.0,1.0,1.53945,,,,,,popsicle_02s.jpg,1.0,clock_6_6.png,1.0,46,,,,,,,,,,,,,,,,,,0.0,5.0,5.0,5.0,1.0,,,,,,,,,,
0.0,1.0,1.326705,,,,,,quill_09s.jpg,0.0,clock_6_1.png,2.0,46,,,,,,,,,,,,,,,,,,0.0,6.0,6.0,6.0,1.0,,,,,,,,,,
1.0,1.0,1.490035,,,,,,quill_09s.jpg,1.0,clock_6_2.png,2.0,46,,,,,,,,,,,,,,,,,,0.0,7.0,7.0,7.0,1.0,,,,,,,,,,
0.0,1.0,1.090525,,,,,,police_car_01s.jpg,0.0,clock_6_3.png,2.0,46,,,,,,,,,,,,,,,,,,0.0,8.0,8.0,8.0,1.0,,,,,,,,,,
1.0,1.0,0.961725,,,,,,police_car_01s.jpg,1.0,clock_6_4.png,2.0,46,,,,,,,,,,,,,,,,,,0.0,9.0,9.0,9.0,1.0,,,,,,,,,,
0.0,1.0,1.406215,,,,,,onion_10s.jpg,0.0,clock_6_5.png,2.0,46,,,,,,,,,,,,,,,,,,0.0,10.0,10.0,10.0,1.0,,,,,,,,,,
0.0,1.0,1.39797,,,,,,soccer_ball_12s.jpg,0.0,clock_6_6.png,2.0,46,,,,,,,,,,,,,,,,,,0.0,11.0,11.0,11.0,1.0,,,,,,,,,,
0.0,1.0,1.54918,,,,,,orangutan_03s.jpg,0.0,clock_7_1.png,3.0,46,,,,,,,,,,,,,,,,,,0.0,12.0,12.0,12.0,1.0,,,,,,,,,,
0.0,1.0,1.295935,,,,,,marshmallow_08s.jpg,0.0,clock_7_2.png,3.0,46,,,,,,,,,,,,,,,,,,0.0,13.0,13.0,13.0,1.0,,,,,,,,,,
0.0,1.0,1.42279,,,,,,pie_08s.jpg,0.0,clock_7_3.png,3.0,46,,,,,,,,,,,,,,,,,,0.0,14.0,14.0,14.0,1.0,,,,,,,,,,
0.0,1.0,1.456055,,,,,,flask_04s.jpg,0.0,clock_7_4.png,3.0,46,,,,,,,,,,,,,,,,,,0.0,15.0,15.0,15.0,1.0,,,,,,,,,,
0.0,1.0,1.18072,,,,,,exhaust_pipe_10s.jpg,0.0,clock_7_5.png,3.0,46,,,,,,,,,,,,,,,,,,0.0,16.0,16.0,16.0,1.0,,,,,,,,,,
1.0,1.0,1.314765,,,,,,marshmallow_08s.jpg,1.0,clock_7_6.png,3.0,46,,,,,,,,,,,,,,,,,,0.0,17.0,17.0,17.0,1.0,,,,,,,,,,
0.0,1.0,1.46492,,,,,,rabbit_03s.jpg,0.0,clock_7_7.png,3.0,46,,,,,,,,,,,,,,,,,,0.0,18.0,18.0,18.0,1.0,,,,,,,,,,
0.0,1.0,1.30852,,,,,,stingray_02s.jpg,0.0,clock_5_1.png,4.0,46,,,,,,,,,,,,,,,,,,0.0,19.0,19.0,19.0,1.0,,,,,,,,,,
0.0,1.0,1.458695,,,,,,microwave_02s.jpg,0.0,clock_5_2.png,4.0,46,,,,,,,,,,,,,,,,,,0.0,20.0,20.0,20.0,1.0,,,,,,,,,,
0.0,1.0,1.52128,,,,,,teapot_03s.jpg,0.0,clock_5_3.png,4.0,46,,,,,,,,,,,,,,,,,,0.0,21.0,21.0,21.0,1.0,,,,,,,,,,
0.0,1.0,1.4256,,,,,,radio_09s.jpg,0.0,clock_5_4.png,4.0,46,,,,,,,,,,,,,,,,,,0.0,22.0,22.0,22.0,1.0,,,,,,,,,,
0.0,1.0,1.00739,,,,,,lab_coat_11s.jpg,0.0,clock_5_5.png,4.0,46,,,,,,,,,,,,,,,,,,0.0,23.0,23.0,23.0,1.0,,,,,,,,,,
0.0,1.0,1.639,,,,,,kitten_07s.jpg,0.0,clock_7_1.png,5.0,46,,,,,,,,,,,,,,,,,,0.0,24.0,24.0,24.0,1.0,,,,,,,,,,
1.0,1.0,2.043555,,,,,,kitten_07s.jpg,1.0,clock_7_2.png,5.0,46,,,,,,,,,,,,,,,,,,0.0,25.0,25.0,25.0,1.0,,,,,,,,,,
0.0,1.0,1.13865,,,,,,mug_06s.jpg,0.0,clock_7_3.png,5.0,46,,,,,,,,,,,,,,,,,,0.0,26.0,26.0,26.0,1.0,,,,,,,,,,
1.0,1.0,1.0064,,,,,,mug_06s.jpg,1.0,clock_7_4.png,5.0,46,,,,,,,,,,,,,,,,,,0.0,27.0,27.0,27.0,1.0,,,,,,,,,,
0.0,1.0,1.94634,,,,,,quill_09s.jpg,0.0,clock_7_5.png,5.0,46,,,,,,,,,,,,,,,,,,0.0,28.0,28.0,28.0,1.0,,,,,,,,,,
0.0,1.0,1.240475,,,,,,pepper_mill_03s.jpg,0.0,clock_7_6.png,5.0,46,,,,,,,,,,,,,,,,,,0.0,29.0,29.0,29.0,1.0,,,,,,,,,,
0.0,1.0,1.406345,,,,,,frog_09s.jpg,0.0,clock_7_7.png,5.0,46,,,,,,,,,,,,,,,,,,0.0,30.0,30.0,30.0,1.0,,,,,,,,,,
0.0,1.0,1.256675,,,,,,roulette_wheel_04s.jpg,0.0,clock_5_1.png,6.0,46,,,,,,,,,,,,,,,,,,0.0,31.0,31.0,31.0,1.0,,,,,,,,,,
0.0,1.0,0.998055,,,,,,kayak_08s.jpg,0.0,clock_5_2.png,6.0,46,,,,,,,,,,,,,,,,,,0.0,32.0,32.0,32.0,1.0,,,,,,,,,,
0.0,1.0,1.40569,,,,,,joystick_01b.jpg,0.0,clock_5_3.png,6.0,46,,,,,,,,,,,,,,,,,,0.0,33.0,33.0,33.0,1.0,,,,,,,,,,
1.0,1.0,1.79188,,,,,,roulette_wheel_04s.jpg,1.0,clock_5_4.png,6.0,46,,,,,,,,,,,,,,,,,,0.0,34.0,34.0,34.0,1.0,,,,,,,,,,
0.0,1.0,1.157365,,,,,,pencil_sharpener_09n.jpg,0.0,clock_5_5.png,6.0,46,,,,,,,,,,,,,,,,,,0.0,35.0,35.0,35.0,1.0,,,,,,,,,,
,,,,,,,,,0.0,,,46,1.0,0.0,2.061495,,,,,,pie_08s.jpg,soccer_ball_12s.jpg,,,,,,,,,,,,,0.0,0.0,0.0,0.0,1.0,,,,,
,,,,,,,,,0.0,,,46,1.0,0.0,2.391815,,,,,,joystick_01b.jpg,frog_09s.jpg,,,,,,,,,,,,,0.0,1.0,1.0,1.0,1.0,,,,,
,,,,,,,,,1.0,,,46,0.0,0.0,1.32233,,,,,,exhaust_pipe_10s.jpg,stingray_02s.jpg,,,,,,,,,,,,,0.0,2.0,2.0,2.0,1.0,,,,,
,,,,,,,,,1.0,,,46,1.0,1.0,1.162475,,,,,,orangutan_03s.jpg,flask_04s.jpg,,,,,,,,,,,,,0.0,3.0,3.0,3.0,1.0,,,,,
,,,,,,,,,1.0,,,46,1.0,1.0,2.42027,,,,,,microwave_02s.jpg,lab_coat_11s.jpg,,,,,,,,,,,,,0.0,4.0,4.0,4.0,1.0,,,,,
,,,,,,,,,1.0,,,46,1.0,1.0,1.357005,,,,,,kayak_08s.jpg,pencil_sharpener_09n.jpg,,,,,,,,,,,,,0.0,5.0,5.0,5.0,1.0,,,,,
,,,,,,,,,,,,46,,,,,,,,,,,,,,,,clock_present_4_11.xlsx,clock_compare_task_4_11.xlsx,,,,,,,,,,,0.0,3.0,3.0,3.0,1.0
0.0,1.0,1.232055,,,,,,giraffe_11s.jpg,0.0,clock_5_1.png,1.0,46,,,,,,,,,,,,,,,,,,0.0,0.0,0.0,0.0,1.0,,,,,,,,,,
0.0,1.0,1.080505,,,,,,submarine_11n.jpg,0.0,clock_5_2.png,1.0,46,,,,,,,,,,,,,,,,,,0.0,1.0,1.0,1.0,1.0,,,,,,,,,,
1.0,1.0,1.312365,,,,,,giraffe_11s.jpg,1.0,clock_5_3.png,1.0,46,,,,,,,,,,,,,,,,,,0.0,2.0,2.0,2.0,1.0,,,,,,,,,,
0.0,1.0,1.072825,,,,,,amber_04s.jpg,0.0,clock_5_4.png,1.0,46,,,,,,,,,,,,,,,,,,0.0,3.0,3.0,3.0,1.0,,,,,,,,,,
1.0,1.0,2.44595,,,,,,amber_04s.jpg,1.0,clock_5_5.png,1.0,46,,,,,,,,,,,,,,,,,,0.0,4.0,4.0,4.0,1.0,,,,,,,,,,
0.0,1.0,0.83037,,,,,,throne_11s.jpg,0.0,clock_6_1.png,2.0,46,,,,,,,,,,,,,,,,,,0.0,5.0,5.0,5.0,1.0,,,,,,,,,,
0.0,1.0,1.78939,,,,,,lion_18s.jpg,0.0,clock_6_2.png,2.0,46,,,,,,,,,,,,,,,,,,0.0,6.0,6.0,6.0,1.0,,,,,,,,,,
1.0,1.0,1.056025,,,,,,lion_18s.jpg,1.0,clock_6_3.png,2.0,46,,,,,,,,,,,,,,,,,,0.0,7.0,7.0,7.0,1.0,,,,,,,,,,
0.0,1.0,1.655925,,,,,,birthday_cake_09s.jpg,0.0,clock_6_4.png,2.0,46,,,,,,,,,,,,,,,,,,0.0,8.0,8.0,8.0,1.0,,,,,,,,,,
0.0,1.0,1.004185,,,,,,stethoscope_01b.jpg,0.0,clock_6_5.png,2.0,46,,,,,,,,,,,,,,,,,,0.0,9.0,9.0,9.0,1.0,,,,,,,,,,
0.0,1.0,1.90826,,,,,,mannequin_05s.jpg,0.0,clock_6_6.png,2.0,46,,,,,,,,,,,,,,,,,,0.0,10.0,10.0,10.0,1.0,,,,,,,,,,
0.0,1.0,1.87706,,,,,,plug_08s.jpg,0.0,clock_7_1.png,3.0,46,,,,,,,,,,,,,,,,,,0.0,11.0,11.0,11.0,1.0,,,,,,,,,,
0.0,1.0,1.14285,,,,,,razor_blade_01b.jpg,0.0,clock_7_2.png,3.0,46,,,,,,,,,,,,,,,,,,0.0,12.0,12.0,12.0,1.0,,,,,,,,,,
0.0,1.0,0.872735,,,,,,phone_01b.jpg,0.0,clock_7_3.png,3.0,46,,,,,,,,,,,,,,,,,,0.0,13.0,13.0,13.0,1.0,,,,,,,,,,
0.0,1.0,1.09451,,,,,,rocking_horse_03s.jpg,0.0,clock_7_4.png,3.0,46,,,,,,,,,,,,,,,,,,0.0,14.0,14.0,14.0,1.0,,,,,,,,,,
0.0,1.0,1.6226,,,,,,kimono_13s.jpg,0.0,clock_7_5.png,3.0,46,,,,,,,,,,,,,,,,,,0.0,15.0,15.0,15.0,1.0,,,,,,,,,,
0.0,1.0,1.09682,,,,,,top_hat_11s.jpg,0.0,clock_7_6.png,3.0,46,,,,,,,,,,,,,,,,,,0.0,16.0,16.0,16.0,1.0,,,,,,,,,,
0.0,1.0,1.09601,,,,,,emerald_02s.jpg,0.0,clock_7_7.png,3.0,46,,,,,,,,,,,,,,,,,,0.0,17.0,17.0,17.0,1.0,,,,,,,,,,
0.0,1.0,1.26182,,,,,,powder_07s.jpg,0.0,clock_7_1.png,4.0,46,,,,,,,,,,,,,,,,,,0.0,18.0,18.0,18.0,1.0,,,,,,,,,,
1.0,1.0,1.19355,,,,,,powder_07s.jpg,1.0,clock_7_2.png,4.0,46,,,,,,,,,,,,,,,,,,0.0,19.0,19.0,19.0,1.0,,,,,,,,,,
0.0,1.0,1.00527,,,,,,megaphone_03s.jpg,0.0,clock_7_3.png,4.0,46,,,,,,,,,,,,,,,,,,0.0,20.0,20.0,20.0,1.0,,,,,,,,,,
0.0,1.0,1.36264,,,,,,blowfish_03s.jpg,0.0,clock_7_4.png,4.0,46,,,,,,,,,,,,,,,,,,0.0,21.0,21.0,21.0,1.0,,,,,,,,,,
0.0,1.0,1.158935,,,,,,rock_08s.jpg,0.0,clock_7_5.png,4.0,46,,,,,,,,,,,,,,,,,,0.0,22.0,22.0,22.0,1.0,,,,,,,,,,
0.0,1.0,1.09201,,,,,,lipstick_02s.jpg,0.0,clock_7_6.png,4.0,46,,,,,,,,,,,,,,,,,,0.0,23.0,23.0,23.0,1.0,,,,,,,,,,
0.0,1.0,1.07426,,,,,,stethoscope_01b.jpg,0.0,clock_7_7.png,4.0,46,,,,,,,,,,,,,,,,,,0.0,24.0,24.0,24.0,1.0,,,,,,,,,,
0.0,1.0,0.857925,,,,,,lamp_08s.jpg,0.0,clock_5_1.png,5.0,46,,,,,,,,,,,,,,,,,,0.0,25.0,25.0,25.0,1.0,,,,,,,,,,
1.0,1.0,1.42896,,,,,,lamp_08s.jpg,1.0,clock_5_2.png,5.0,46,,,,,,,,,,,,,,,,,,0.0,26.0,26.0,26.0,1.0,,,,,,,,,,
0.0,1.0,1.37454,,,,,,magnet_03s.jpg,0.0,clock_5_3.png,5.0,46,,,,,,,,,,,,,,,,,,0.0,27.0,27.0,27.0,1.0,,,,,,,,,,
1.0,1.0,1.204945,,,,,,lamp_08s.jpg,1.0,clock_5_4.png,5.0,46,,,,,,,,,,,,,,,,,,0.0,28.0,28.0,28.0,1.0,,,,,,,,,,
0.0,1.0,1.12854,,,,,,ostrich_06s.jpg,0.0,clock_5_5.png,5.0,46,,,,,,,,,,,,,,,,,,0.0,29.0,29.0,29.0,1.0,,,,,,,,,,
0.0,1.0,1.022495,,,,,,pincushion_10s.jpg,0.0,clock_6_1.png,6.0,46,,,,,,,,,,,,,,,,,,0.0,30.0,30.0,30.0,1.0,,,,,,,,,,
0.0,1.0,1.09346,,,,,,birthday_cake_09s.jpg,0.0,clock_6_2.png,6.0,46,,,,,,,,,,,,,,,,,,0.0,31.0,31.0,31.0,1.0,,,,,,,,,,
0.0,1.0,1.10202,,,,,,quad_04s.jpg,0.0,clock_6_3.png,6.0,46,,,,,,,,,,,,,,,,,,0.0,32.0,32.0,32.0,1.0,,,,,,,,,,
0.0,1.0,1.232345,,,,,,lion_18s.jpg,0.0,clock_6_4.png,6.0,46,,,,,,,,,,,,,,,,,,0.0,33.0,33.0,33.0,1.0,,,,,,,,,,
0.0,1.0,1.14227,,,,,,bee_20s.jpg,0.0,clock_6_5.png,6.0,46,,,,,,,,,,,,,,,,,,0.0,34.0,34.0,34.0,1.0,,,,,,,,,,
1.0,1.0,1.473,,,,,,lion_18s.jpg,1.0,clock_6_6.png,6.0,46,,,,,,,,,,,,,,,,,,0.0,35.0,35.0,35.0,1.0,,,,,,,,,,
,,,,,,,,,0.0,,,46,1.0,0.0,1.77134,,,,,,pincushion_10s.jpg,magnet_03s.jpg,,,,,,,,,,,,,0.0,0.0,0.0,0.0,1.0,,,,,
,,,,,,,,,0.0,,,46,0.0,1.0,1.347515,,,,,,quad_04s.jpg,ostrich_06s.jpg,,,,,,,,,,,,,0.0,1.0,1.0,1.0,1.0,,,,,
,,,,,,,,,1.0,,,46,0.0,0.0,1.342235,,,,,,mannequin_05s.jpg,phone_01b.jpg,,,,,,,,,,,,,0.0,2.0,2.0,2.0,1.0,,,,,
,,,,,,,,,1.0,,,46,0.0,0.0,1.947045,,,,,,plug_08s.jpg,rocking_horse_03s.jpg,,,,,,,,,,,,,0.0,3.0,3.0,3.0,1.0,,,,,
,,,,,,,,,0.0,,,46,0.0,1.0,1.36111,,,,,,kimono_13s.jpg,razor_blade_01b.jpg,,,,,,,,,,,,,0.0,4.0,4.0,4.0,1.0,,,,,
,,,,,,,,,0.0,,,46,0.0,1.0,1.07939,,,,,,lipstick_02s.jpg,megaphone_03s.jpg,,,,,,,,,,,,,0.0,5.0,5.0,5.0,1.0,,,,,
,,,,,,,,,,,,46,,,,,,,,,,,,,,,,clock_present_5_11.xlsx,clock_compare_task_5_11.xlsx,,,,,,,,,,,0.0,4.0,4.0,4.0,1.0
0.0,1.0,1.81728,,,,,,squirrel_02s.jpg,0.0,clock_6_1.png,1.0,46,,,,,,,,,,,,,,,,,,0.0,0.0,0.0,0.0,1.0,,,,,,,,,,
1.0,1.0,1.060005,,,,,,squirrel_02s.jpg,1.0,clock_6_2.png,1.0,46,,,,,,,,,,,,,,,,,,0.0,1.0,1.0,1.0,1.0,,,,,,,,,,
0.0,1.0,1.439075,,,,,,parachute_03s.jpg,0.0,clock_6_3.png,1.0,46,,,,,,,,,,,,,,,,,,0.0,2.0,2.0,2.0,1.0,,,,,,,,,,
0.0,1.0,0.974835,,,,,,toilet_07s.jpg,0.0,clock_6_4.png,1.0,46,,,,,,,,,,,,,,,,,,0.0,3.0,3.0,3.0,1.0,,,,,,,,,,
0.0,1.0,0.965685,,,,,,meatball_13s.jpg,0.0,clock_6_5.png,1.0,46,,,,,,,,,,,,,,,,,,0.0,4.0,4.0,4.0,1.0,,,,,,,,,,
1.0,0.0,0.96437,,,,,,red_carpet_03s.jpg,0.0,clock_6_6.png,1.0,46,,,,,,,,,,,,,,,,,,0.0,5.0,5.0,5.0,1.0,,,,,,,,,,
0.0,1.0,1.20338,,,,,,fire_alarm_05s.jpg,0.0,clock_7_1.png,2.0,46,,,,,,,,,,,,,,,,,,0.0,6.0,6.0,6.0,1.0,,,,,,,,,,
0.0,1.0,2.175325,,,,,,pan_02s.jpg,0.0,clock_7_2.png,2.0,46,,,,,,,,,,,,,,,,,,0.0,7.0,7.0,7.0,1.0,,,,,,,,,,
0.0,1.0,0.829615,,,,,,cereal_04s.jpg,0.0,clock_7_3.png,2.0,46,,,,,,,,,,,,,,,,,,0.0,8.0,8.0,8.0,1.0,,,,,,,,,,
0.0,1.0,1.222295,,,,,,eyedropper_12s.jpg,0.0,clock_7_4.png,2.0,46,,,,,,,,,,,,,,,,,,0.0,9.0,9.0,9.0,1.0,,,,,,,,,,
0.0,1.0,0.756105,,,,,,butter_14s.jpg,0.0,clock_7_5.png,2.0,46,,,,,,,,,,,,,,,,,,0.0,10.0,10.0,10.0,1.0,,,,,,,,,,
0.0,1.0,0.791045,,,,,,taxi_15s.jpg,0.0,clock_7_6.png,2.0,46,,,,,,,,,,,,,,,,,,0.0,11.0,11.0,11.0,1.0,,,,,,,,,,
0.0,1.0,0.754155,,,,,,gong_02s.jpg,0.0,clock_7_7.png,2.0,46,,,,,,,,,,,,,,,,,,0.0,12.0,12.0,12.0,1.0,,,,,,,,,,
0.0,1.0,1.342365,,,,,,fork_04s.jpg,0.0,clock_5_1.png,3.0,46,,,,,,,,,,,,,,,,,,0.0,13.0,13.0,13.0,1.0,,,,,,,,,,
0.0,1.0,1.105925,,,,,,raspberry_12s.jpg,0.0,clock_5_2.png,3.0,46,,,,,,,,,,,,,,,,,,0.0,14.0,14.0,14.0,1.0,,,,,,,,,,
0.0,1.0,1.85124,,,,,,ironing_board_07s.jpg,0.0,clock_5_3.png,3.0,46,,,,,,,,,,,,,,,,,,0.0,15.0,15.0,15.0,1.0,,,,,,,,,,
0.0,1.0,1.621345,,,,,,leotard_08s.jpg,0.0,clock_5_4.png,3.0,46,,,,,,,,,,,,,,,,,,0.0,16.0,16.0,16.0,1.0,,,,,,,,,,
0.0,1.0,2.178975,,,,,,rope_16s.jpg,0.0,clock_5_5.png,3.0,46,,,,,,,,,,,,,,,,,,0.0,17.0,17.0,17.0,1.0,,,,,,,,,,
0.0,1.0,2.00552,,,,,,ruby_15s.jpg,0.0,clock_7_1.png,4.0,46,,,,,,,,,,,,,,,,,,0.0,18.0,18.0,18.0,1.0,,,,,,,,,,
0.0,1.0,0.79017,,,,,,kilt_18s.jpg,0.0,clock_7_2.png,4.0,46,,,,,,,,,,,,,,,,,,0.0,19.0,19.0,19.0,1.0,,,,,,,,,,
0.0,1.0,0.8897,,,,,,crystal_ball_12s.jpg,0.0,clock_7_3.png,4.0,46,,,,,,,,,,,,,,,,,,0.0,20.0,20.0,20.0,1.0,,,,,,,,,,
0.0,1.0,0.90422,,,,,,cotton_candy_01b.jpg,0.0,clock_7_4.png,4.0,46,,,,,,,,,,,,,,,,,,0.0,21.0,21.0,21.0,1.0,,,,,,,,,,
0.0,1.0,1.00911,,,,,,mirror_12s.jpg,0.0,clock_7_5.png,4.0,46,,,,,,,,,,,,,,,,,,0.0,22.0,22.0,22.0,1.0,,,,,,,,,,
0.0,1.0,1.04645,,,,,,funnel_01b.jpg,0.0,clock_7_6.png,4.0,46,,,,,,,,,,,,,,,,,,0.0,23.0,23.0,23.0,1.0,,,,,,,,,,
0.0,1.0,0.891175,,,,,,treasure_08s.jpg,0.0,clock_7_7.png,4.0,46,,,,,,,,,,,,,,,,,,0.0,24.0,24.0,24.0,1.0,,,,,,,,,,
0.0,1.0,1.09414,,,,,,bottle_opener_11s.jpg,0.0,clock_6_1.png,5.0,46,,,,,,,,,,,,,,,,,,0.0,25.0,25.0,25.0,1.0,,,,,,,,,,
1.0,1.0,1.14254,,,,,,bottle_opener_11s.jpg,1.0,clock_6_2.png,5.0,46,,,,,,,,,,,,,,,,,,0.0,26.0,26.0,26.0,1.0,,,,,,,,,,
0.0,1.0,1.010365,,,,,,stamp1_11s.jpg,0.0,clock_6_3.png,5.0,46,,,,,,,,,,,,,,,,,,0.0,27.0,27.0,27.0,1.0,,,,,,,,,,
0.0,1.0,0.97441,,,,,,rake_06s.jpg,0.0,clock_6_4.png,5.0,46,,,,,,,,,,,,,,,,,,0.0,28.0,28.0,28.0,1.0,,,,,,,,,,
0.0,1.0,0.9083,,,,,,raft_09s.jpg,0.0,clock_6_5.png,5.0,46,,,,,,,,,,,,,,,,,,0.0,29.0,29.0,29.0,1.0,,,,,,,,,,
0.0,1.0,1.32608,,,,,,metronome_03s.jpg,0.0,clock_6_6.png,5.0,46,,,,,,,,,,,,,,,,,,0.0,30.0,30.0,30.0,1.0,,,,,,,,,,
0.0,1.0,1.043965,,,,,,reindeer_08s.jpg,0.0,clock_5_1.png,6.0,46,,,,,,,,,,,,,,,,,,0.0,31.0,31.0,31.0,1.0,,,,,,,,,,
0.0,1.0,0.958555,,,,,,touchpad_11s.jpg,0.0,clock_5_2.png,6.0,46,,,,,,,,,,,,,,,,,,0.0,32.0,32.0,32.0,1.0,,,,,,,,,,
1.0,1.0,1.109255,,,,,,reindeer_08s.jpg,1.0,clock_5_3.png,6.0,46,,,,,,,,,,,,,,,,,,0.0,33.0,33.0,33.0,1.0,,,,,,,,,,
0.0,1.0,1.341045,,,,,,sunglasses_11s.jpg,0.0,clock_5_4.png,6.0,46,,,,,,,,,,,,,,,,,,0.0,34.0,34.0,34.0,1.0,,,,,,,,,,
0.0,1.0,0.946735,,,,,,footprint_11s.jpg,0.0,clock_5_5.png,6.0,46,,,,,,,,,,,,,,,,,,0.0,35.0,35.0,35.0,1.0,,,,,,,,,,
,,,,,,,,,0.0,,,46,1.0,0.0,1.988335,,,,,,fire_alarm_05s.jpg,toilet_07s.jpg,,,,,,,,,,,,,0.0,0.0,0.0,0.0,1.0,,,,,
,,,,,,,,,0.0,,,46,0.0,1.0,1.20674,,,,,,pan_02s.jpg,meatball_13s.jpg,,,,,,,,,,,,,0.0,1.0,1.0,1.0,1.0,,,,,
,,,,,,,,,0.0,,,46,1.0,0.0,1.86588,,,,,,ironing_board_07s.jpg,gong_02s.jpg,,,,,,,,,,,,,0.0,2.0,2.0,2.0,1.0,,,,,
,,,,,,,,,1.0,,,46,0.0,0.0,1.23287,,,,,,parachute_03s.jpg,red_carpet_03s.jpg,,,,,,,,,,,,,0.0,3.0,3.0,3.0,1.0,,,,,
,,,,,,,,,0.0,,,46,0.0,1.0,2.007055,,,,,,cotton_candy_01b.jpg,ruby_15s.jpg,,,,,,,,,,,,,0.0,4.0,4.0,4.0,1.0,,,,,
,,,,,,,,,0.0,,,46,0.0,1.0,1.860005,,,,,,mirror_12s.jpg,kilt_18s.jpg,,,,,,,,,,,,,0.0,5.0,5.0,5.0,1.0,,,,,
