key_resp.keys,key_resp.corr,key_resp.rt,present_segment.thisRepN,present_segment.thisTrialN,present_segment.thisN,present_segment.thisIndex,present_segment.ran,pictures,answer,clock,segment,participant,key_resp_2.keys,key_resp_2.corr,key_resp_2.rt,compare_segment.thisRepN,compare_segment.thisTrialN,compare_segment.thisN,compare_segment.thisIndex,compare_segment.ran,item_a,item_b,clock_conditions.thisRepN,clock_conditions.thisTrialN,clock_conditions.thisN,clock_conditions.thisIndex,clock_conditions.ran,present,compare,noclock_present.thisRepN,noclock_present.thisTrialN,noclock_present.thisN,noclock_present.thisIndex,noclock_present.ran,noclock_compare.thisRepN,noclock_compare.thisTrialN,noclock_compare.thisN,noclock_compare.thisIndex,noclock_compare.ran,noclock_conditions.thisRepN,noclock_conditions.thisTrialN,noclock_conditions.thisN,noclock_conditions.thisIndex,noclock_conditions.ran
0.0,1.0,0.982,0.0,0.0,0.0,0.0,1.0,rolling_pin_02s.jpg,0.0,clock_7_1.png,1.0,69,,,,,,,,,,,,,,,,,,,,,,,,,,,,,,,,
1.0,1.0,1.238,0.0,1.0,1.0,1.0,1.0,rolling_pin_02s.jpg,1.0,clock_7_2.png,1.0,69,,,,,,,,,,,,,,,,,,,,,,,,,,,,,,,,
0.0,1.0,2.096,0.0,2.0,2.0,2.0,1.0,roller_coaster_07s.jpg,0.0,clock_7_3.png,1.0,69,,,,,,,,,,,,,,,,,,,,,,,,,,,,,,,,
0.0,1.0,0.711,0.0,3.0,3.0,3.0,1.0,ice_pack_09s.jpg,0.0,clock_7_4.png,1.0,69,,,,,,,,,,,,,,,,,,,,,,,,,,,,,,,,
1.0,1.0,0.793,0.0,4.0,4.0,4.0,1.0,rolling_pin_02s.jpg,1.0,clock_7_5.png,1.0,69,,,,,,,,,,,,,,,,,,,,,,,,,,,,,,,,
1.0,1.0,1.263,0.0,5.0,5.0,5.0,1.0,roller_coaster_07s.jpg,1.0,clock_7_6.png,1.0,69,,,,,,,,,,,,,,,,,,,,,,,,,,,,,,,,
0.0,1.0,0.52,0.0,6.0,6.0,6.0,1.0,jalapeno_15s.jpg,0.0,clock_7_7.png,1.0,69,,,,,,,,,,,,,,,,,,,,,,,,,,,,,,,,
0.0,1.0,0.943,0.0,7.0,7.0,7.0,1.0,iron_13s.jpg,0.0,clock_6_1.png,2.0,69,,,,,,,,,,,,,,,,,,,,,,,,,,,,,,,,
0.0,1.0,2.214,0.0,8.0,8.0,8.0,1.0,joystick_01b.jpg,0.0,clock_6_2.png,2.0,69,,,,,,,,,,,,,,,,,,,,,,,,,,,,,,,,
0.0,1.0,0.639,0.0,9.0,9.0,9.0,1.0,tiara_05s.jpg,0.0,clock_6_3.png,2.0,69,,,,,,,,,,,,,,,,,,,,,,,,,,,,,,,,
0.0,1.0,0.608,0.0,10.0,10.0,10.0,1.0,tie_03s.jpg,0.0,clock_6_4.png,2.0,69,,,,,,,,,,,,,,,,,,,,,,,,,,,,,,,,
1.0,1.0,0.831,0.0,11.0,11.0,11.0,1.0,tiara_05s.jpg,1.0,clock_6_5.png,2.0,69,,,,,,,,,,,,,,,,,,,,,,,,,,,,,,,,
0.0,1.0,1.752,0.0,12.0,12.0,12.0,1.0,padlock_07s.jpg,0.0,clock_6_6.png,2.0,69,,,,,,,,,,,,,,,,,,,,,,,,,,,,,,,,
0.0,1.0,0.664,0.0,13.0,13.0,13.0,1.0,keyboard_05s.jpg,0.0,clock_5_1.png,3.0,69,,,,,,,,,,,,,,,,,,,,,,,,,,,,,,,,
0.0,1.0,0.672,0.0,14.0,14.0,14.0,1.0,lamb_chop_07s.jpg,0.0,clock_5_2.png,3.0,69,,,,,,,,,,,,,,,,,,,,,,,,,,,,,,,,
0.0,1.0,0.824,0.0,15.0,15.0,15.0,1.0,projector_08s.jpg,0.0,clock_5_3.png,3.0,69,,,,,,,,,,,,,,,,,,,,,,,,,,,,,,,,
0.0,1.0,0.561,0.0,16.0,16.0,16.0,1.0,soccer_ball_12s.jpg,0.0,clock_5_4.png,3.0,69,,,,,,,,,,,,,,,,,,,,,,,,,,,,,,,,
0.0,1.0,0.553,0.0,17.0,17.0,17.0,1.0,chocolate_01b.jpg,0.0,clock_5_5.png,3.0,69,,,,,,,,,,,,,,,,,,,,,,,,,,,,,,,,
0.0,1.0,0.666,0.0,18.0,18.0,18.0,1.0,sea_urchin_09s.jpg,0.0,clock_5_1.png,4.0,69,,,,,,,,,,,,,,,,,,,,,,,,,,,,,,,,
0.0,1.0,0.873,0.0,19.0,19.0,19.0,1.0,surfboard_11s.jpg,0.0,clock_5_2.png,4.0,69,,,,,,,,,,,,,,,,,,,,,,,,,,,,,,,,
0.0,1.0,0.882,0.0,20.0,20.0,20.0,1.0,ink_08s.jpg,0.0,clock_5_3.png,4.0,69,,,,,,,,,,,,,,,,,,,,,,,,,,,,,,,,
0.0,1.0,0.922,0.0,21.0,21.0,21.0,1.0,air_pump_05s.jpg,0.0,clock_5_4.png,4.0,69,,,,,,,,,,,,,,,,,,,,,,,,,,,,,,,,
0.0,1.0,0.625,0.0,22.0,22.0,22.0,1.0,stamp2_08s.jpg,0.0,clock_5_5.png,4.0,69,,,,,,,,,,,,,,,,,,,,,,,,,,,,,,,,
0.0,1.0,0.585,0.0,23.0,23.0,23.0,1.0,magnet_03s.jpg,0.0,clock_7_1.png,5.0,69,,,,,,,,,,,,,,,,,,,,,,,,,,,,,,,,
0.0,1.0,0.6,0.0,24.0,24.0,24.0,1.0,razor_12s.jpg,0.0,clock_7_2.png,5.0,69,,,,,,,,,,,,,,,,,,,,,,,,,,,,,,,,
0.0,1.0,0.514,0.0,25.0,25.0,25.0,1.0,trident_07s.jpg,0.0,clock_7_3.png,5.0,69,,,,,,,,,,,,,,,,,,,,,,,,,,,,,,,,
1.0,1.0,0.68,0.0,26.0,26.0,26.0,1.0,magnet_03s.jpg,1.0,clock_7_4.png,5.0,69,,,,,,,,,,,,,,,,,,,,,,,,,,,,,,,,
0.0,1.0,0.816,0.0,27.0,27.0,27.0,1.0,lamb_04s.jpg,0.0,clock_7_5.png,5.0,69,,,,,,,,,,,,,,,,,,,,,,,,,,,,,,,,
1.0,1.0,0.834,0.0,28.0,28.0,28.0,1.0,magnet_03s.jpg,1.0,clock_7_6.png,5.0,69,,,,,,,,,,,,,,,,,,,,,,,,,,,,,,,,
0.0,1.0,1.673,0.0,29.0,29.0,29.0,1.0,plug_08s.jpg,0.0,clock_7_7.png,5.0,69,,,,,,,,,,,,,,,,,,,,,,,,,,,,,,,,
0.0,1.0,1.082,0.0,30.0,30.0,30.0,1.0,ticktacktoe_08s.jpg,0.0,clock_6_1.png,6.0,69,,,,,,,,,,,,,,,,,,,,,,,,,,,,,,,,
0.0,1.0,1.049,0.0,31.0,31.0,31.0,1.0,treasure_08s.jpg,0.0,clock_6_2.png,6.0,69,,,,,,,,,,,,,,,,,,,,,,,,,,,,,,,,
0.0,1.0,0.857,0.0,32.0,32.0,32.0,1.0,tulip_02s.jpg,0.0,clock_6_3.png,6.0,69,,,,,,,,,,,,,,,,,,,,,,,,,,,,,,,,
0.0,1.0,0.985,0.0,33.0,33.0,33.0,1.0,telephone_pole_05s.jpg,0.0,clock_6_4.png,6.0,69,,,,,,,,,,,,,,,,,,,,,,,,,,,,,,,,
0.0,1.0,1.889,0.0,34.0,34.0,34.0,1.0,luggage_08s.jpg,0.0,clock_6_5.png,6.0,69,,,,,,,,,,,,,,,,,,,,,,,,,,,,,,,,
0.0,1.0,1.185,0.0,35.0,35.0,35.0,1.0,dirt_bike_11s.jpg,0.0,clock_6_6.png,6.0,69,,,,,,,,,,,,,,,,,,,,,,,,,,,,,,,,
,,,,,,,,,1.0,,,69,1.0,1.0,1.708,0.0,0.0,0.0,0.0,1.0,padlock_07s.jpg,projector_08s.jpg,,,,,,,,,,,,,,,,,,,,,,
,,,,,,,,,0.0,,,69,1.0,0.0,1.669,0.0,1.0,1.0,1.0,1.0,ink_08s.jpg,chocolate_01b.jpg,,,,,,,,,,,,,,,,,,,,,,
,,,,,,,,,0.0,,,69,0.0,1.0,1.358,0.0,2.0,2.0,2.0,1.0,trident_07s.jpg,stamp2_08s.jpg,,,,,,,,,,,,,,,,,,,,,,
,,,,,,,,,1.0,,,69,0.0,0.0,1.626,0.0,3.0,3.0,3.0,1.0,ice_pack_09s.jpg,jalapeno_15s.jpg,,,,,,,,,,,,,,,,,,,,,,
,,,,,,,,,1.0,,,69,1.0,1.0,1.254,0.0,4.0,4.0,4.0,1.0,treasure_08s.jpg,luggage_08s.jpg,,,,,,,,,,,,,,,,,,,,,,
,,,,,,,,,1.0,,,69,0.0,0.0,1.454,0.0,5.0,5.0,5.0,1.0,iron_13s.jpg,tie_03s.jpg,,,,,,,,,,,,,,,,,,,,,,
,,,,,,,,,,,,69,,,,,,,,,,,0.0,0.0,0.0,0.0,1.0,clock_present_1_13.xlsx,clock_compare_task_1_13.xlsx,,,,,,,,,,,,,,,
0.0,1.0,1.593,0.0,0.0,0.0,0.0,1.0,pocket_watch_16s.jpg,0.0,clock_6_1.png,1.0,69,,,,,,,,,,,,,,,,,,,,,,,,,,,,,,,,
0.0,1.0,0.904,0.0,1.0,1.0,1.0,1.0,throne_11s.jpg,0.0,clock_6_2.png,1.0,69,,,,,,,,,,,,,,,,,,,,,,,,,,,,,,,,
0.0,1.0,1.316,0.0,2.0,2.0,2.0,1.0,flask_04s.jpg,0.0,clock_6_3.png,1.0,69,,,,,,,,,,,,,,,,,,,,,,,,,,,,,,,,
0.0,1.0,0.854,0.0,3.0,3.0,3.0,1.0,funnel_01b.jpg,0.0,clock_6_4.png,1.0,69,,,,,,,,,,,,,,,,,,,,,,,,,,,,,,,,
0.0,1.0,1.034,0.0,4.0,4.0,4.0,1.0,lid_10s.jpg,0.0,clock_6_5.png,1.0,69,,,,,,,,,,,,,,,,,,,,,,,,,,,,,,,,
0.0,1.0,2.122,0.0,5.0,5.0,5.0,1.0,polaroid_05s.jpg,0.0,clock_6_6.png,1.0,69,,,,,,,,,,,,,,,,,,,,,,,,,,,,,,,,
0.0,1.0,2.081,0.0,6.0,6.0,6.0,1.0,inhaler_01b.jpg,0.0,clock_7_1.png,2.0,69,,,,,,,,,,,,,,,,,,,,,,,,,,,,,,,,
1.0,1.0,1.055,0.0,7.0,7.0,7.0,1.0,inhaler_01b.jpg,1.0,clock_7_2.png,2.0,69,,,,,,,,,,,,,,,,,,,,,,,,,,,,,,,,
0.0,1.0,2.274,0.0,8.0,8.0,8.0,1.0,jewel_01b.jpg,0.0,clock_7_3.png,2.0,69,,,,,,,,,,,,,,,,,,,,,,,,,,,,,,,,
0.0,1.0,1.794,0.0,9.0,9.0,9.0,1.0,pea_11s.jpg,0.0,clock_7_4.png,2.0,69,,,,,,,,,,,,,,,,,,,,,,,,,,,,,,,,
0.0,1.0,0.842,0.0,10.0,10.0,10.0,1.0,frog_09s.jpg,0.0,clock_7_5.png,2.0,69,,,,,,,,,,,,,,,,,,,,,,,,,,,,,,,,
1.0,1.0,1.306,0.0,11.0,11.0,11.0,1.0,inhaler_01b.jpg,1.0,clock_7_6.png,2.0,69,,,,,,,,,,,,,,,,,,,,,,,,,,,,,,,,
0.0,1.0,0.916,0.0,12.0,12.0,12.0,1.0,purse_05s.jpg,0.0,clock_7_7.png,2.0,69,,,,,,,,,,,,,,,,,,,,,,,,,,,,,,,,
0.0,1.0,0.818,0.0,13.0,13.0,13.0,1.0,hydrant_10s.jpg,0.0,clock_7_1.png,3.0,69,,,,,,,,,,,,,,,,,,,,,,,,,,,,,,,,
,0.0,,0.0,14.0,14.0,14.0,1.0,film_03s.jpg,0.0,clock_7_2.png,3.0,69,,,,,,,,,,,,,,,,,,,,,,,,,,,,,,,,
0.0,1.0,1.604,0.0,15.0,15.0,15.0,1.0,quilt_03s.jpg,0.0,clock_7_3.png,3.0,69,,,,,,,,,,,,,,,,,,,,,,,,,,,,,,,,
0.0,1.0,1.156,0.0,16.0,16.0,16.0,1.0,popsicle_02s.jpg,0.0,clock_7_4.png,3.0,69,,,,,,,,,,,,,,,,,,,,,,,,,,,,,,,,
0.0,1.0,1.354,0.0,17.0,17.0,17.0,1.0,fox_13s.jpg,0.0,clock_7_5.png,3.0,69,,,,,,,,,,,,,,,,,,,,,,,,,,,,,,,,
0.0,1.0,0.628,0.0,18.0,18.0,18.0,1.0,orchid_01b.jpg,0.0,clock_7_6.png,3.0,69,,,,,,,,,,,,,,,,,,,,,,,,,,,,,,,,
0.0,1.0,0.636,0.0,19.0,19.0,19.0,1.0,marshmallow_08s.jpg,0.0,clock_7_7.png,3.0,69,,,,,,,,,,,,,,,,,,,,,,,,,,,,,,,,
0.0,1.0,0.799,0.0,20.0,20.0,20.0,1.0,taxi_15s.jpg,0.0,clock_5_1.png,4.0,69,,,,,,,,,,,,,,,,,,,,,,,,,,,,,,,,
0.0,1.0,0.987,0.0,21.0,21.0,21.0,1.0,fork_04s.jpg,0.0,clock_5_2.png,4.0,69,,,,,,,,,,,,,,,,,,,,,,,,,,,,,,,,
0.0,1.0,0.875,0.0,22.0,22.0,22.0,1.0,puppet_01b.jpg,0.0,clock_5_3.png,4.0,69,,,,,,,,,,,,,,,,,,,,,,,,,,,,,,,,
0.0,1.0,0.676,0.0,23.0,23.0,23.0,1.0,megaphone_03s.jpg,0.0,clock_5_4.png,4.0,69,,,,,,,,,,,,,,,,,,,,,,,,,,,,,,,,
1.0,1.0,0.972,0.0,24.0,24.0,24.0,1.0,megaphone_03s.jpg,1.0,clock_5_5.png,4.0,69,,,,,,,,,,,,,,,,,,,,,,,,,,,,,,,,
0.0,1.0,0.739,0.0,25.0,25.0,25.0,1.0,cotton_candy_01b.jpg,0.0,clock_5_1.png,5.0,69,,,,,,,,,,,,,,,,,,,,,,,,,,,,,,,,
0.0,1.0,0.603,0.0,26.0,26.0,26.0,1.0,puppy_08s.jpg,0.0,clock_5_2.png,5.0,69,,,,,,,,,,,,,,,,,,,,,,,,,,,,,,,,
0.0,1.0,0.652,0.0,27.0,27.0,27.0,1.0,glasses01a.jpg,0.0,clock_5_3.png,5.0,69,,,,,,,,,,,,,,,,,,,,,,,,,,,,,,,,
1.0,1.0,0.868,0.0,28.0,28.0,28.0,1.0,glasses01a.jpg,1.0,clock_5_4.png,5.0,69,,,,,,,,,,,,,,,,,,,,,,,,,,,,,,,,
0.0,1.0,1.316,0.0,29.0,29.0,29.0,1.0,typewriter_11s.jpg,0.0,clock_5_5.png,5.0,69,,,,,,,,,,,,,,,,,,,,,,,,,,,,,,,,
,0.0,,0.0,30.0,30.0,30.0,1.0,fur_coat_11s.jpg,0.0,clock_6_1.png,6.0,69,,,,,,,,,,,,,,,,,,,,,,,,,,,,,,,,
,0.0,,0.0,31.0,31.0,31.0,1.0,rudder_02s.jpg,0.0,clock_6_2.png,6.0,69,,,,,,,,,,,,,,,,,,,,,,,,,,,,,,,,
,0.0,,0.0,32.0,32.0,32.0,1.0,chip_04s.jpg,0.0,clock_6_3.png,6.0,69,,,,,,,,,,,,,,,,,,,,,,,,,,,,,,,,
,0.0,,0.0,33.0,33.0,33.0,1.0,thread_08s.jpg,0.0,clock_6_4.png,6.0,69,,,,,,,,,,,,,,,,,,,,,,,,,,,,,,,,
,0.0,,0.0,34.0,34.0,34.0,1.0,quilt_03s.jpg,0.0,clock_6_5.png,6.0,69,,,,,,,,,,,,,,,,,,,,,,,,,,,,,,,,
,0.0,,0.0,35.0,35.0,35.0,1.0,polar_bear_02s.jpg,0.0,clock_6_6.png,6.0,69,,,,,,,,,,,,,,,,,,,,,,,,,,,,,,,,
,,,,,,,,,0.0,,,69,1.0,0.0,1.757,0.0,0.0,0.0,0.0,1.0,fork_04s.jpg,orchid_01b.jpg,,,,,,,,,,,,,,,,,,,,,,
,,,,,,,,,0.0,,,69,0.0,1.0,1.546,0.0,1.0,1.0,1.0,1.0,cotton_candy_01b.jpg,puppet_01b.jpg,,,,,,,,,,,,,,,,,,,,,,
,,,,,,,,,1.0,,,69,0.0,0.0,1.629,0.0,2.0,2.0,2.0,1.0,polaroid_05s.jpg,jewel_01b.jpg,,,,,,,,,,,,,,,,,,,,,,
,,,,,,,,,1.0,,,69,0.0,0.0,1.841,0.0,3.0,3.0,3.0,1.0,pocket_watch_16s.jpg,funnel_01b.jpg,,,,,,,,,,,,,,,,,,,,,,
,,,,,,,,,0.0,,,69,0.0,1.0,1.658,0.0,4.0,4.0,4.0,1.0,lid_10s.jpg,throne_11s.jpg,,,,,,,,,,,,,,,,,,,,,,
,,,,,,,,,1.0,,,69,1.0,1.0,1.107,0.0,5.0,5.0,5.0,1.0,pea_11s.jpg,purse_05s.jpg,,,,,,,,,,,,,,,,,,,,,,
,,,,,,,,,,,,69,,,,,,,,,,,0.0,1.0,1.0,1.0,1.0,clock_present_2_13.xlsx,clock_compare_task_2_13.xlsx,,,,,,,,,,,,,,,
0.0,1.0,1.543,0.0,0.0,0.0,0.0,1.0,trumpet_06s.jpg,0.0,clock_6_1.png,1.0,69,,,,,,,,,,,,,,,,,,,,,,,,,,,,,,,,
0.0,1.0,0.751,0.0,1.0,1.0,1.0,1.0,pantyhose_07s.jpg,0.0,clock_6_2.png,1.0,69,,,,,,,,,,,,,,,,,,,,,,,,,,,,,,,,
0.0,1.0,0.631,0.0,2.0,2.0,2.0,1.0,latte_06s.jpg,0.0,clock_6_3.png,1.0,69,,,,,,,,,,,,,,,,,,,,,,,,,,,,,,,,
1.0,1.0,0.824,0.0,3.0,3.0,3.0,1.0,trumpet_06s.jpg,1.0,clock_6_4.png,1.0,69,,,,,,,,,,,,,,,,,,,,,,,,,,,,,,,,
0.0,1.0,0.753,0.0,4.0,4.0,4.0,1.0,jetski_10s.jpg,0.0,clock_6_5.png,1.0,69,,,,,,,,,,,,,,,,,,,,,,,,,,,,,,,,
0.0,1.0,0.568,0.0,5.0,5.0,5.0,1.0,toy_04s.jpg,0.0,clock_6_6.png,1.0,69,,,,,,,,,,,,,,,,,,,,,,,,,,,,,,,,
0.0,1.0,1.056,0.0,6.0,6.0,6.0,1.0,espresso_01b.jpg,0.0,clock_5_1.png,2.0,69,,,,,,,,,,,,,,,,,,,,,,,,,,,,,,,,
0.0,1.0,0.984,0.0,7.0,7.0,7.0,1.0,tambourine_06s.jpg,0.0,clock_5_2.png,2.0,69,,,,,,,,,,,,,,,,,,,,,,,,,,,,,,,,
0.0,1.0,1.099,0.0,8.0,8.0,8.0,1.0,comic_book_02s.jpg,0.0,clock_5_3.png,2.0,69,,,,,,,,,,,,,,,,,,,,,,,,,,,,,,,,
0.0,1.0,1.028,0.0,9.0,9.0,9.0,1.0,snowman_02s.jpg,0.0,clock_5_4.png,2.0,69,,,,,,,,,,,,,,,,,,,,,,,,,,,,,,,,
1.0,1.0,1.058,0.0,10.0,10.0,10.0,1.0,espresso_01b.jpg,1.0,clock_5_5.png,2.0,69,,,,,,,,,,,,,,,,,,,,,,,,,,,,,,,,
0.0,1.0,0.915,0.0,11.0,11.0,11.0,1.0,blowfish_03s.jpg,0.0,clock_7_1.png,3.0,69,,,,,,,,,,,,,,,,,,,,,,,,,,,,,,,,
1.0,1.0,1.393,0.0,12.0,12.0,12.0,1.0,blowfish_03s.jpg,1.0,clock_7_2.png,3.0,69,,,,,,,,,,,,,,,,,,,,,,,,,,,,,,,,
1.0,1.0,2.019,0.0,13.0,13.0,13.0,1.0,blowfish_03s.jpg,1.0,clock_7_3.png,3.0,69,,,,,,,,,,,,,,,,,,,,,,,,,,,,,,,,
1.0,1.0,0.587,0.0,14.0,14.0,14.0,1.0,blowfish_03s.jpg,1.0,clock_7_4.png,3.0,69,,,,,,,,,,,,,,,,,,,,,,,,,,,,,,,,
0.0,1.0,0.548,0.0,15.0,15.0,15.0,1.0,beard_16s.jpg,0.0,clock_7_5.png,3.0,69,,,,,,,,,,,,,,,,,,,,,,,,,,,,,,,,
0.0,1.0,0.786,0.0,16.0,16.0,16.0,1.0,police_car_01s.jpg,0.0,clock_7_6.png,3.0,69,,,,,,,,,,,,,,,,,,,,,,,,,,,,,,,,
0.0,1.0,1.37,0.0,17.0,17.0,17.0,1.0,comic_book_02s.jpg,0.0,clock_7_7.png,3.0,69,,,,,,,,,,,,,,,,,,,,,,,,,,,,,,,,
0.0,1.0,0.735,0.0,18.0,18.0,18.0,1.0,gazelle_10s.jpg,0.0,clock_7_1.png,4.0,69,,,,,,,,,,,,,,,,,,,,,,,,,,,,,,,,
0.0,1.0,0.6,0.0,19.0,19.0,19.0,1.0,chalice_10s.jpg,0.0,clock_7_2.png,4.0,69,,,,,,,,,,,,,,,,,,,,,,,,,,,,,,,,
0.0,1.0,1.075,0.0,20.0,20.0,20.0,1.0,foam_03s.jpg,0.0,clock_7_3.png,4.0,69,,,,,,,,,,,,,,,,,,,,,,,,,,,,,,,,
0.0,1.0,0.475,0.0,21.0,21.0,21.0,1.0,jersey_02s.jpg,0.0,clock_7_4.png,4.0,69,,,,,,,,,,,,,,,,,,,,,,,,,,,,,,,,
1.0,1.0,1.171,0.0,22.0,22.0,22.0,1.0,foam_03s.jpg,1.0,clock_7_5.png,4.0,69,,,,,,,,,,,,,,,,,,,,,,,,,,,,,,,,
0.0,1.0,0.987,0.0,23.0,23.0,23.0,1.0,contact_lens_15s.jpg,0.0,clock_7_6.png,4.0,69,,,,,,,,,,,,,,,,,,,,,,,,,,,,,,,,
1.0,1.0,0.875,0.0,24.0,24.0,24.0,1.0,contact_lens_15s.jpg,1.0,clock_7_7.png,4.0,69,,,,,,,,,,,,,,,,,,,,,,,,,,,,,,,,
0.0,1.0,1.05,0.0,25.0,25.0,25.0,1.0,pacifier_09s.jpg,0.0,clock_6_1.png,5.0,69,,,,,,,,,,,,,,,,,,,,,,,,,,,,,,,,
0.0,1.0,1.427,0.0,26.0,26.0,26.0,1.0,onion_10s.jpg,0.0,clock_6_2.png,5.0,69,,,,,,,,,,,,,,,,,,,,,,,,,,,,,,,,
0.0,1.0,1.474,0.0,27.0,27.0,27.0,1.0,knot_01b.jpg,0.0,clock_6_3.png,5.0,69,,,,,,,,,,,,,,,,,,,,,,,,,,,,,,,,
,0.0,,0.0,28.0,28.0,28.0,1.0,cucumber_07s.jpg,0.0,clock_6_4.png,5.0,69,,,,,,,,,,,,,,,,,,,,,,,,,,,,,,,,
,0.0,,0.0,29.0,29.0,29.0,1.0,pump_11s.jpg,0.0,clock_6_5.png,5.0,69,,,,,,,,,,,,,,,,,,,,,,,,,,,,,,,,
,0.0,,0.0,30.0,30.0,30.0,1.0,stingray_02s.jpg,0.0,clock_6_6.png,5.0,69,,,,,,,,,,,,,,,,,,,,,,,,,,,,,,,,
0.0,1.0,1.41,0.0,31.0,31.0,31.0,1.0,spacesuit_02s.jpg,0.0,clock_5_1.png,6.0,69,,,,,,,,,,,,,,,,,,,,,,,,,,,,,,,,
0.0,1.0,1.314,0.0,32.0,32.0,32.0,1.0,contact_lens_15s.jpg,0.0,clock_5_2.png,6.0,69,,,,,,,,,,,,,,,,,,,,,,,,,,,,,,,,
0.0,1.0,0.932,0.0,33.0,33.0,33.0,1.0,paper_towel_03s.jpg,0.0,clock_5_3.png,6.0,69,,,,,,,,,,,,,,,,,,,,,,,,,,,,,,,,
1.0,1.0,0.891,0.0,34.0,34.0,34.0,1.0,paper_towel_03s.jpg,1.0,clock_5_4.png,6.0,69,,,,,,,,,,,,,,,,,,,,,,,,,,,,,,,,
0.0,0.0,0.892,0.0,35.0,35.0,35.0,1.0,spacesuit_02s.jpg,1.0,clock_5_5.png,6.0,69,,,,,,,,,,,,,,,,,,,,,,,,,,,,,,,,
,,,,,,,,,1.0,,,69,1.0,1.0,1.175,0.0,0.0,0.0,0.0,1.0,police_car_01s.jpg,chalice_10s.jpg,,,,,,,,,,,,,,,,,,,,,,
,,,,,,,,,1.0,,,69,1.0,1.0,1.02,0.0,1.0,1.0,1.0,1.0,jetski_10s.jpg,tambourine_06s.jpg,,,,,,,,,,,,,,,,,,,,,,
,,,,,,,,,0.0,,,69,1.0,0.0,1.334,0.0,2.0,2.0,2.0,1.0,gazelle_10s.jpg,beard_16s.jpg,,,,,,,,,,,,,,,,,,,,,,
,,,,,,,,,1.0,,,69,0.0,0.0,1.054,0.0,3.0,3.0,3.0,1.0,latte_06s.jpg,toy_04s.jpg,,,,,,,,,,,,,,,,,,,,,,
,,,,,,,,,1.0,,,69,1.0,1.0,1.023,0.0,4.0,4.0,4.0,1.0,pacifier_09s.jpg,cucumber_07s.jpg,,,,,,,,,,,,,,,,,,,,,,
,,,,,,,,,1.0,,,69,1.0,1.0,1.337,0.0,5.0,5.0,5.0,1.0,onion_10s.jpg,pump_11s.jpg,,,,,,,,,,,,,,,,,,,,,,
,,,,,,,,,,,,69,,,,,,,,,,,0.0,2.0,2.0,2.0,1.0,clock_present_3_13.xlsx,clock_compare_task_3_13.xlsx,,,,,,,,,,,,,,,
0.0,1.0,1.341,0.0,0.0,0.0,0.0,1.0,lipstick_02s.jpg,0.0,clock_7_1.png,1.0,69,,,,,,,,,,,,,,,,,,,,,,,,,,,,,,,,
0.0,1.0,1.803,0.0,1.0,1.0,1.0,1.0,kettle_08s.jpg,0.0,clock_7_2.png,1.0,69,,,,,,,,,,,,,,,,,,,,,,,,,,,,,,,,
1.0,1.0,0.787,0.0,2.0,2.0,2.0,1.0,lipstick_02s.jpg,1.0,clock_7_3.png,1.0,69,,,,,,,,,,,,,,,,,,,,,,,,,,,,,,,,
1.0,1.0,1.627,0.0,3.0,3.0,3.0,1.0,lipstick_02s.jpg,1.0,clock_7_4.png,1.0,69,,,,,,,,,,,,,,,,,,,,,,,,,,,,,,,,
1.0,0.0,1.594,0.0,4.0,4.0,4.0,1.0,pomegranate_04s.jpg,0.0,clock_7_5.png,1.0,69,,,,,,,,,,,,,,,,,,,,,,,,,,,,,,,,
0.0,1.0,1.571,0.0,5.0,5.0,5.0,1.0,pencil02a.jpg,0.0,clock_7_6.png,1.0,69,,,,,,,,,,,,,,,,,,,,,,,,,,,,,,,,
0.0,1.0,0.918,0.0,6.0,6.0,6.0,1.0,lollipop_08s.jpg,0.0,clock_7_7.png,1.0,69,,,,,,,,,,,,,,,,,,,,,,,,,,,,,,,,
0.0,1.0,0.934,0.0,7.0,7.0,7.0,1.0,road_sign_05s.jpg,0.0,clock_6_1.png,2.0,69,,,,,,,,,,,,,,,,,,,,,,,,,,,,,,,,
1.0,1.0,0.835,0.0,8.0,8.0,8.0,1.0,road_sign_05s.jpg,1.0,clock_6_2.png,2.0,69,,,,,,,,,,,,,,,,,,,,,,,,,,,,,,,,
0.0,1.0,0.867,0.0,9.0,9.0,9.0,1.0,leash_10s.jpg,0.0,clock_6_3.png,2.0,69,,,,,,,,,,,,,,,,,,,,,,,,,,,,,,,,
0.0,1.0,0.964,0.0,10.0,10.0,10.0,1.0,licorice_06s.jpg,0.0,clock_6_4.png,2.0,69,,,,,,,,,,,,,,,,,,,,,,,,,,,,,,,,
0.0,1.0,1.435,0.0,11.0,11.0,11.0,1.0,mixer_12s.jpg,0.0,clock_6_5.png,2.0,69,,,,,,,,,,,,,,,,,,,,,,,,,,,,,,,,
0.0,1.0,1.523,0.0,12.0,12.0,12.0,1.0,lipstick_02s.jpg,0.0,clock_6_6.png,2.0,69,,,,,,,,,,,,,,,,,,,,,,,,,,,,,,,,
0.0,1.0,0.725,0.0,13.0,13.0,13.0,1.0,rocking_chair_05s.jpg,0.0,clock_6_1.png,3.0,69,,,,,,,,,,,,,,,,,,,,,,,,,,,,,,,,
0.0,1.0,0.342,0.0,14.0,14.0,14.0,1.0,syringe_02s.jpg,0.0,clock_6_2.png,3.0,69,,,,,,,,,,,,,,,,,,,,,,,,,,,,,,,,
0.0,1.0,0.877,0.0,15.0,15.0,15.0,1.0,golf_club_03s.jpg,0.0,clock_6_3.png,3.0,69,,,,,,,,,,,,,,,,,,,,,,,,,,,,,,,,
0.0,1.0,0.862,0.0,16.0,16.0,16.0,1.0,potholder_02s.jpg,0.0,clock_6_4.png,3.0,69,,,,,,,,,,,,,,,,,,,,,,,,,,,,,,,,
0.0,1.0,0.772,0.0,17.0,17.0,17.0,1.0,pencil02a.jpg,0.0,clock_6_5.png,3.0,69,,,,,,,,,,,,,,,,,,,,,,,,,,,,,,,,
0.0,1.0,0.925,0.0,18.0,18.0,18.0,1.0,fire_pit_10s.jpg,0.0,clock_6_6.png,3.0,69,,,,,,,,,,,,,,,,,,,,,,,,,,,,,,,,
0.0,1.0,1.604,0.0,19.0,19.0,19.0,1.0,tinsel_12s.jpg,0.0,clock_5_1.png,4.0,69,,,,,,,,,,,,,,,,,,,,,,,,,,,,,,,,
0.0,1.0,0.764,0.0,20.0,20.0,20.0,1.0,sledgehammer_03s.jpg,0.0,clock_5_2.png,4.0,69,,,,,,,,,,,,,,,,,,,,,,,,,,,,,,,,
0.0,1.0,1.628,0.0,21.0,21.0,21.0,1.0,pomegranate_04s.jpg,0.0,clock_5_3.png,4.0,69,,,,,,,,,,,,,,,,,,,,,,,,,,,,,,,,
0.0,1.0,0.716,0.0,22.0,22.0,22.0,1.0,tattoo_14s.jpg,0.0,clock_5_4.png,4.0,69,,,,,,,,,,,,,,,,,,,,,,,,,,,,,,,,
0.0,1.0,0.549,0.0,23.0,23.0,23.0,1.0,turkey_10s.jpg,0.0,clock_5_5.png,4.0,69,,,,,,,,,,,,,,,,,,,,,,,,,,,,,,,,
0.0,1.0,0.613,0.0,24.0,24.0,24.0,1.0,eyedropper_12s.jpg,0.0,clock_5_1.png,5.0,69,,,,,,,,,,,,,,,,,,,,,,,,,,,,,,,,
0.0,1.0,0.749,0.0,25.0,25.0,25.0,1.0,fondue_07s.jpg,0.0,clock_5_2.png,5.0,69,,,,,,,,,,,,,,,,,,,,,,,,,,,,,,,,
0.0,1.0,0.816,0.0,26.0,26.0,26.0,1.0,fire_alarm_05s.jpg,0.0,clock_5_3.png,5.0,69,,,,,,,,,,,,,,,,,,,,,,,,,,,,,,,,
0.0,0.0,0.838,0.0,27.0,27.0,27.0,1.0,eyedropper_12s.jpg,1.0,clock_5_4.png,5.0,69,,,,,,,,,,,,,,,,,,,,,,,,,,,,,,,,
1.0,1.0,0.878,0.0,28.0,28.0,28.0,1.0,eyedropper_12s.jpg,1.0,clock_5_5.png,5.0,69,,,,,,,,,,,,,,,,,,,,,,,,,,,,,,,,
0.0,1.0,0.724,0.0,29.0,29.0,29.0,1.0,badge_03s.jpg,0.0,clock_7_1.png,6.0,69,,,,,,,,,,,,,,,,,,,,,,,,,,,,,,,,
,0.0,,0.0,30.0,30.0,30.0,1.0,lion_18s.jpg,0.0,clock_7_2.png,6.0,69,,,,,,,,,,,,,,,,,,,,,,,,,,,,,,,,
0.0,1.0,0.58,0.0,31.0,31.0,31.0,1.0,lasagna_06s.jpg,0.0,clock_7_3.png,6.0,69,,,,,,,,,,,,,,,,,,,,,,,,,,,,,,,,
0.0,1.0,1.139,0.0,32.0,32.0,32.0,1.0,turf_03s.jpg,0.0,clock_7_4.png,6.0,69,,,,,,,,,,,,,,,,,,,,,,,,,,,,,,,,
0.0,1.0,0.628,0.0,33.0,33.0,33.0,1.0,kitten_07s.jpg,0.0,clock_7_5.png,6.0,69,,,,,,,,,,,,,,,,,,,,,,,,,,,,,,,,
0.0,0.0,0.668,0.0,34.0,34.0,34.0,1.0,badge_03s.jpg,1.0,clock_7_6.png,6.0,69,,,,,,,,,,,,,,,,,,,,,,,,,,,,,,,,
1.0,0.0,1.7,0.0,35.0,35.0,35.0,1.0,tinsel_12s.jpg,0.0,clock_7_7.png,6.0,69,,,,,,,,,,,,,,,,,,,,,,,,,,,,,,,,
,,,,,,,,,1.0,,,69,0.0,0.0,1.89,0.0,0.0,0.0,0.0,1.0,lollipop_08s.jpg,leash_10s.jpg,,,,,,,,,,,,,,,,,,,,,,
,,,,,,,,,1.0,,,69,1.0,1.0,1.067,0.0,1.0,1.0,1.0,1.0,mixer_12s.jpg,syringe_02s.jpg,,,,,,,,,,,,,,,,,,,,,,
,,,,,,,,,1.0,,,69,1.0,1.0,1.491,0.0,2.0,2.0,2.0,1.0,tattoo_14s.jpg,fondue_07s.jpg,,,,,,,,,,,,,,,,,,,,,,
,,,,,,,,,1.0,,,69,1.0,1.0,1.122,0.0,3.0,3.0,3.0,1.0,golf_club_03s.jpg,fire_pit_10s.jpg,,,,,,,,,,,,,,,,,,,,,,
,,,,,,,,,0.0,,,69,1.0,0.0,1.483,0.0,4.0,4.0,4.0,1.0,kitten_07s.jpg,lion_18s.jpg,,,,,,,,,,,,,,,,,,,,,,
,,,,,,,,,0.0,,,69,1.0,0.0,1.302,0.0,5.0,5.0,5.0,1.0,potholder_02s.jpg,rocking_chair_05s.jpg,,,,,,,,,,,,,,,,,,,,,,
,,,,,,,,,,,,69,,,,,,,,,,,0.0,3.0,3.0,3.0,1.0,clock_present_4_13.xlsx,clock_compare_task_4_13.xlsx,,,,,,,,,,,,,,,
0.0,1.0,1.899,0.0,0.0,0.0,0.0,1.0,insole_11s.jpg,0.0,clock_7_1.png,1.0,69,,,,,,,,,,,,,,,,,,,,,,,,,,,,,,,,
0.0,1.0,1.144,0.0,1.0,1.0,1.0,1.0,aluminum_foil_08s.jpg,0.0,clock_7_2.png,1.0,69,,,,,,,,,,,,,,,,,,,,,,,,,,,,,,,,
1.0,1.0,1.016,0.0,2.0,2.0,2.0,1.0,aluminum_foil_08s.jpg,1.0,clock_7_3.png,1.0,69,,,,,,,,,,,,,,,,,,,,,,,,,,,,,,,,
1.0,1.0,1.03,0.0,3.0,3.0,3.0,1.0,insole_11s.jpg,1.0,clock_7_4.png,1.0,69,,,,,,,,,,,,,,,,,,,,,,,,,,,,,,,,
0.0,1.0,0.823,0.0,4.0,4.0,4.0,1.0,feather02.jpg,0.0,clock_7_5.png,1.0,69,,,,,,,,,,,,,,,,,,,,,,,,,,,,,,,,
1.0,1.0,1.408,0.0,5.0,5.0,5.0,1.0,aluminum_foil_08s.jpg,1.0,clock_7_6.png,1.0,69,,,,,,,,,,,,,,,,,,,,,,,,,,,,,,,,
0.0,1.0,0.96,0.0,6.0,6.0,6.0,1.0,panda_02s.jpg,0.0,clock_7_7.png,1.0,69,,,,,,,,,,,,,,,,,,,,,,,,,,,,,,,,
0.0,1.0,1.065,0.0,7.0,7.0,7.0,1.0,orange_12s.jpg,0.0,clock_7_1.png,2.0,69,,,,,,,,,,,,,,,,,,,,,,,,,,,,,,,,
1.0,1.0,0.857,0.0,8.0,8.0,8.0,1.0,orange_12s.jpg,1.0,clock_7_2.png,2.0,69,,,,,,,,,,,,,,,,,,,,,,,,,,,,,,,,
0.0,1.0,1.168,0.0,9.0,9.0,9.0,1.0,loom_05s.jpg,0.0,clock_7_3.png,2.0,69,,,,,,,,,,,,,,,,,,,,,,,,,,,,,,,,
0.0,1.0,0.896,0.0,10.0,10.0,10.0,1.0,knitting_needle_04s.jpg,0.0,clock_7_4.png,2.0,69,,,,,,,,,,,,,,,,,,,,,,,,,,,,,,,,
1.0,1.0,0.745,0.0,11.0,11.0,11.0,1.0,knitting_needle_04s.jpg,1.0,clock_7_5.png,2.0,69,,,,,,,,,,,,,,,,,,,,,,,,,,,,,,,,
0.0,1.0,0.8,0.0,12.0,12.0,12.0,1.0,fireworks_18s.jpg,0.0,clock_7_6.png,2.0,69,,,,,,,,,,,,,,,,,,,,,,,,,,,,,,,,
0.0,1.0,1.064,0.0,13.0,13.0,13.0,1.0,panda_02s.jpg,0.0,clock_7_7.png,2.0,69,,,,,,,,,,,,,,,,,,,,,,,,,,,,,,,,
0.0,1.0,1.064,0.0,14.0,14.0,14.0,1.0,bacon_05s.jpg,0.0,clock_5_1.png,3.0,69,,,,,,,,,,,,,,,,,,,,,,,,,,,,,,,,
0.0,1.0,0.624,0.0,15.0,15.0,15.0,1.0,margarita_03s.jpg,0.0,clock_5_2.png,3.0,69,,,,,,,,,,,,,,,,,,,,,,,,,,,,,,,,
0.0,1.0,0.535,0.0,16.0,16.0,16.0,1.0,tiger_06s.jpg,0.0,clock_5_3.png,3.0,69,,,,,,,,,,,,,,,,,,,,,,,,,,,,,,,,
0.0,1.0,0.711,0.0,17.0,17.0,17.0,1.0,outlet_10s.jpg,0.0,clock_5_4.png,3.0,69,,,,,,,,,,,,,,,,,,,,,,,,,,,,,,,,
0.0,1.0,0.912,0.0,18.0,18.0,18.0,1.0,saddle_06s.jpg,0.0,clock_5_5.png,3.0,69,,,,,,,,,,,,,,,,,,,,,,,,,,,,,,,,
0.0,1.0,0.632,0.0,19.0,19.0,19.0,1.0,moth_06n.jpg,0.0,clock_5_1.png,4.0,69,,,,,,,,,,,,,,,,,,,,,,,,,,,,,,,,
1.0,1.0,1.0,0.0,20.0,20.0,20.0,1.0,moth_06n.jpg,1.0,clock_5_2.png,4.0,69,,,,,,,,,,,,,,,,,,,,,,,,,,,,,,,,
0.0,1.0,0.705,0.0,21.0,21.0,21.0,1.0,cardinal_07s.jpg,0.0,clock_5_3.png,4.0,69,,,,,,,,,,,,,,,,,,,,,,,,,,,,,,,,
0.0,1.0,0.889,0.0,22.0,22.0,22.0,1.0,stapler_01b.jpg,0.0,clock_5_4.png,4.0,69,,,,,,,,,,,,,,,,,,,,,,,,,,,,,,,,
0.0,1.0,0.712,0.0,23.0,23.0,23.0,1.0,mitten_10s.jpg,0.0,clock_5_5.png,4.0,69,,,,,,,,,,,,,,,,,,,,,,,,,,,,,,,,
0.0,1.0,0.873,0.0,24.0,24.0,24.0,1.0,sundae_08s.jpg,0.0,clock_6_1.png,5.0,69,,,,,,,,,,,,,,,,,,,,,,,,,,,,,,,,
0.0,1.0,0.775,0.0,25.0,25.0,25.0,1.0,boomerang_06s.jpg,0.0,clock_6_2.png,5.0,69,,,,,,,,,,,,,,,,,,,,,,,,,,,,,,,,
0.0,1.0,0.552,0.0,26.0,26.0,26.0,1.0,toaster_03s.jpg,0.0,clock_6_3.png,5.0,69,,,,,,,,,,,,,,,,,,,,,,,,,,,,,,,,
0.0,1.0,0.85,0.0,27.0,27.0,27.0,1.0,quesadilla_07s.jpg,0.0,clock_6_4.png,5.0,69,,,,,,,,,,,,,,,,,,,,,,,,,,,,,,,,
1.0,1.0,1.583,0.0,28.0,28.0,28.0,1.0,toaster_03s.jpg,1.0,clock_6_5.png,5.0,69,,,,,,,,,,,,,,,,,,,,,,,,,,,,,,,,
0.0,1.0,1.383,0.0,29.0,29.0,29.0,1.0,punch1_10s.jpg,0.0,clock_6_6.png,5.0,69,,,,,,,,,,,,,,,,,,,,,,,,,,,,,,,,
0.0,1.0,1.175,0.0,30.0,30.0,30.0,1.0,tuxedo_01b.jpg,0.0,clock_6_1.png,6.0,69,,,,,,,,,,,,,,,,,,,,,,,,,,,,,,,,
0.0,1.0,0.834,0.0,31.0,31.0,31.0,1.0,kimono_13s.jpg,0.0,clock_6_2.png,6.0,69,,,,,,,,,,,,,,,,,,,,,,,,,,,,,,,,
0.0,1.0,0.783,0.0,32.0,32.0,32.0,1.0,power_line_08s.jpg,0.0,clock_6_3.png,6.0,69,,,,,,,,,,,,,,,,,,,,,,,,,,,,,,,,
0.0,1.0,0.617,0.0,33.0,33.0,33.0,1.0,coral_08s.jpg,0.0,clock_6_4.png,6.0,69,,,,,,,,,,,,,,,,,,,,,,,,,,,,,,,,
0.0,1.0,1.295,0.0,34.0,34.0,34.0,1.0,undershirt_02s.jpg,0.0,clock_6_5.png,6.0,69,,,,,,,,,,,,,,,,,,,,,,,,,,,,,,,,
0.0,1.0,1.118,0.0,35.0,35.0,35.0,1.0,ruby_15s.jpg,0.0,clock_6_6.png,6.0,69,,,,,,,,,,,,,,,,,,,,,,,,,,,,,,,,
,,,,,,,,,0.0,,,69,1.0,0.0,1.19,0.0,0.0,0.0,0.0,1.0,boomerang_06s.jpg,stapler_01b.jpg,,,,,,,,,,,,,,,,,,,,,,
,,,,,,,,,0.0,,,69,1.0,0.0,1.127,0.0,1.0,1.0,1.0,1.0,cardinal_07s.jpg,saddle_06s.jpg,,,,,,,,,,,,,,,,,,,,,,
,,,,,,,,,0.0,,,69,0.0,1.0,1.45,0.0,2.0,2.0,2.0,1.0,power_line_08s.jpg,punch1_10s.jpg,,,,,,,,,,,,,,,,,,,,,,
,,,,,,,,,1.0,,,69,0.0,0.0,1.584,0.0,3.0,3.0,3.0,1.0,bacon_05s.jpg,outlet_10s.jpg,,,,,,,,,,,,,,,,,,,,,,
,,,,,,,,,0.0,,,69,1.0,0.0,1.258,0.0,4.0,4.0,4.0,1.0,undershirt_02s.jpg,kimono_13s.jpg,,,,,,,,,,,,,,,,,,,,,,
,,,,,,,,,0.0,,,69,0.0,1.0,1.151,0.0,5.0,5.0,5.0,1.0,fireworks_18s.jpg,loom_05s.jpg,,,,,,,,,,,,,,,,,,,,,,
,,,,,,,,,,,,69,,,,,,,,,,,0.0,4.0,4.0,4.0,1.0,clock_present_5_13.xlsx,clock_compare_task_5_13.xlsx,,,,,,,,,,,,,,,
0.0,1.0,2.024,0.0,0.0,0.0,0.0,1.0,boar_10s.jpg,0.0,clock_5_1.png,1.0,69,,,,,,,,,,,,,,,,,,,,,,,,,,,,,,,,
0.0,1.0,1.136,0.0,1.0,1.0,1.0,1.0,rocking_horse_03s.jpg,0.0,clock_5_2.png,1.0,69,,,,,,,,,,,,,,,,,,,,,,,,,,,,,,,,
0.0,1.0,0.639,0.0,2.0,2.0,2.0,1.0,playpen_11s.jpg,0.0,clock_5_3.png,1.0,69,,,,,,,,,,,,,,,,,,,,,,,,,,,,,,,,
0.0,1.0,0.535,0.0,3.0,3.0,3.0,1.0,ivy_12s.jpg,0.0,clock_5_4.png,1.0,69,,,,,,,,,,,,,,,,,,,,,,,,,,,,,,,,
0.0,1.0,1.488,0.0,4.0,4.0,4.0,1.0,punch2_09s.jpg,0.0,clock_5_5.png,1.0,69,,,,,,,,,,,,,,,,,,,,,,,,,,,,,,,,
0.0,1.0,0.656,0.0,5.0,5.0,5.0,1.0,pencil_sharpener_09n.jpg,0.0,clock_7_1.png,2.0,69,,,,,,,,,,,,,,,,,,,,,,,,,,,,,,,,
0.0,1.0,1.311,0.0,6.0,6.0,6.0,1.0,prism_10s.jpg,0.0,clock_7_2.png,2.0,69,,,,,,,,,,,,,,,,,,,,,,,,,,,,,,,,
0.0,1.0,0.712,0.0,7.0,7.0,7.0,1.0,bathtub_23s.jpg,0.0,clock_7_3.png,2.0,69,,,,,,,,,,,,,,,,,,,,,,,,,,,,,,,,
0.0,1.0,1.065,0.0,8.0,8.0,8.0,1.0,potpourri_03s.jpg,0.0,clock_7_4.png,2.0,69,,,,,,,,,,,,,,,,,,,,,,,,,,,,,,,,
0.0,1.0,0.832,0.0,9.0,9.0,9.0,1.0,rug_09s.jpg,0.0,clock_7_5.png,2.0,69,,,,,,,,,,,,,,,,,,,,,,,,,,,,,,,,
1.0,1.0,0.743,0.0,10.0,10.0,10.0,1.0,rug_09s.jpg,1.0,clock_7_6.png,2.0,69,,,,,,,,,,,,,,,,,,,,,,,,,,,,,,,,
0.0,1.0,0.904,0.0,11.0,11.0,11.0,1.0,leotard_08s.jpg,0.0,clock_7_7.png,2.0,69,,,,,,,,,,,,,,,,,,,,,,,,,,,,,,,,
0.0,1.0,0.667,0.0,12.0,12.0,12.0,1.0,orangutan_03s.jpg,0.0,clock_7_1.png,3.0,69,,,,,,,,,,,,,,,,,,,,,,,,,,,,,,,,
0.0,1.0,1.577,0.0,13.0,13.0,13.0,1.0,pencil_sharpener_09n.jpg,0.0,clock_7_2.png,3.0,69,,,,,,,,,,,,,,,,,,,,,,,,,,,,,,,,
0.0,1.0,0.617,0.0,14.0,14.0,14.0,1.0,limousine_12s.jpg,0.0,clock_7_3.png,3.0,69,,,,,,,,,,,,,,,,,,,,,,,,,,,,,,,,
0.0,1.0,0.858,0.0,15.0,15.0,15.0,1.0,mirror_12s.jpg,0.0,clock_7_4.png,3.0,69,,,,,,,,,,,,,,,,,,,,,,,,,,,,,,,,
1.0,1.0,1.346,0.0,16.0,16.0,16.0,1.0,orangutan_03s.jpg,1.0,clock_7_5.png,3.0,69,,,,,,,,,,,,,,,,,,,,,,,,,,,,,,,,
0.0,1.0,0.801,0.0,17.0,17.0,17.0,1.0,thumbtack_14s.jpg,0.0,clock_7_6.png,3.0,69,,,,,,,,,,,,,,,,,,,,,,,,,,,,,,,,
0.0,1.0,1.337,0.0,18.0,18.0,18.0,1.0,potpourri_03s.jpg,0.0,clock_7_7.png,3.0,69,,,,,,,,,,,,,,,,,,,,,,,,,,,,,,,,
0.0,1.0,1.015,0.0,19.0,19.0,19.0,1.0,crossbow_10s.jpg,0.0,clock_6_1.png,4.0,69,,,,,,,,,,,,,,,,,,,,,,,,,,,,,,,,
0.0,1.0,0.646,0.0,20.0,20.0,20.0,1.0,mannequin_05s.jpg,0.0,clock_6_2.png,4.0,69,,,,,,,,,,,,,,,,,,,,,,,,,,,,,,,,
0.0,1.0,0.911,0.0,21.0,21.0,21.0,1.0,sparkler_02s.jpg,0.0,clock_6_3.png,4.0,69,,,,,,,,,,,,,,,,,,,,,,,,,,,,,,,,
0.0,1.0,0.751,0.0,22.0,22.0,22.0,1.0,soda_fountain_03s.jpg,0.0,clock_6_4.png,4.0,69,,,,,,,,,,,,,,,,,,,,,,,,,,,,,,,,
0.0,1.0,0.535,0.0,23.0,23.0,23.0,1.0,spider_web_03s.jpg,0.0,clock_6_5.png,4.0,69,,,,,,,,,,,,,,,,,,,,,,,,,,,,,,,,
0.0,1.0,0.551,0.0,24.0,24.0,24.0,1.0,printer_09s.jpg,0.0,clock_6_6.png,4.0,69,,,,,,,,,,,,,,,,,,,,,,,,,,,,,,,,
0.0,1.0,0.607,0.0,25.0,25.0,25.0,1.0,hyena_16s.jpg,0.0,clock_5_1.png,5.0,69,,,,,,,,,,,,,,,,,,,,,,,,,,,,,,,,
0.0,1.0,1.633,0.0,26.0,26.0,26.0,1.0,mirror_12s.jpg,0.0,clock_5_2.png,5.0,69,,,,,,,,,,,,,,,,,,,,,,,,,,,,,,,,
0.0,1.0,1.009,0.0,27.0,27.0,27.0,1.0,cap_05s.jpg,0.0,clock_5_3.png,5.0,69,,,,,,,,,,,,,,,,,,,,,,,,,,,,,,,,
0.0,1.0,0.632,0.0,28.0,28.0,28.0,1.0,briefcase_03s.jpg,0.0,clock_5_4.png,5.0,69,,,,,,,,,,,,,,,,,,,,,,,,,,,,,,,,
1.0,1.0,0.856,0.0,29.0,29.0,29.0,1.0,briefcase_03s.jpg,1.0,clock_5_5.png,5.0,69,,,,,,,,,,,,,,,,,,,,,,,,,,,,,,,,
0.0,1.0,0.913,0.0,30.0,30.0,30.0,1.0,solar_panel_02s.jpg,0.0,clock_6_1.png,6.0,69,,,,,,,,,,,,,,,,,,,,,,,,,,,,,,,,
0.0,1.0,0.719,0.0,31.0,31.0,31.0,1.0,turtleneck_11s.jpg,0.0,clock_6_2.png,6.0,69,,,,,,,,,,,,,,,,,,,,,,,,,,,,,,,,
0.0,1.0,0.617,0.0,32.0,32.0,32.0,1.0,cushion_08s.jpg,0.0,clock_6_3.png,6.0,69,,,,,,,,,,,,,,,,,,,,,,,,,,,,,,,,
0.0,1.0,0.896,0.0,33.0,33.0,33.0,1.0,stethoscope_01b.jpg,0.0,clock_6_4.png,6.0,69,,,,,,,,,,,,,,,,,,,,,,,,,,,,,,,,
1.0,1.0,1.208,0.0,34.0,34.0,34.0,1.0,turtleneck_11s.jpg,1.0,clock_6_5.png,6.0,69,,,,,,,,,,,,,,,,,,,,,,,,,,,,,,,,
0.0,1.0,0.496,0.0,35.0,35.0,35.0,1.0,gear_07s.jpg,0.0,clock_6_6.png,6.0,69,,,,,,,,,,,,,,,,,,,,,,,,,,,,,,,,
,,,,,,,,,1.0,,,69,1.0,1.0,1.935,0.0,0.0,0.0,0.0,1.0,ivy_12s.jpg,prism_10s.jpg,,,,,,,,,,,,,,,,,,,,,,
,,,,,,,,,0.0,,,69,0.0,1.0,1.806,0.0,1.0,1.0,1.0,1.0,bathtub_23s.jpg,punch2_09s.jpg,,,,,,,,,,,,,,,,,,,,,,
,,,,,,,,,1.0,,,69,0.0,0.0,2.002,0.0,2.0,2.0,2.0,1.0,leotard_08s.jpg,limousine_12s.jpg,,,,,,,,,,,,,,,,,,,,,,
,,,,,,,,,0.0,,,69,0.0,1.0,1.461,0.0,3.0,3.0,3.0,1.0,gear_07s.jpg,cushion_08s.jpg,,,,,,,,,,,,,,,,,,,,,,
,,,,,,,,,1.0,,,69,1.0,1.0,1.285,0.0,4.0,4.0,4.0,1.0,crossbow_10s.jpg,soda_fountain_03s.jpg,,,,,,,,,,,,,,,,,,,,,,
,,,,,,,,,1.0,,,69,0.0,0.0,1.423,0.0,5.0,5.0,5.0,1.0,mannequin_05s.jpg,spider_web_03s.jpg,,,,,,,,,,,,,,,,,,,,,,
0.0,1.0,1.561,,,,,,harpoon.jpg,0.0,clockno_up.jpg,1.0,69,,,,,,,,,,,,,,,,,,0.0,0.0,0.0,0.0,1.0,,,,,,,,,,
0.0,1.0,0.737,,,,,,blender_08s.jpg,0.0,clockno_default.jpg,1.0,69,,,,,,,,,,,,,,,,,,0.0,1.0,1.0,1.0,1.0,,,,,,,,,,
0.0,1.0,0.699,,,,,,tube_top_03s.jpg,0.0,clockno_default.jpg,1.0,69,,,,,,,,,,,,,,,,,,0.0,2.0,2.0,2.0,1.0,,,,,,,,,,
0.0,1.0,0.686,,,,,,rocket_02s.jpg,0.0,clockno_default.jpg,1.0,69,,,,,,,,,,,,,,,,,,0.0,3.0,3.0,3.0,1.0,,,,,,,,,,
0.0,1.0,0.639,,,,,,bonsai_07s.jpg,0.0,clockno_default.jpg,1.0,69,,,,,,,,,,,,,,,,,,0.0,4.0,4.0,4.0,1.0,,,,,,,,,,
0.0,0.0,0.591,,,,,,blender_08s.jpg,1.0,clockno_default.jpg,1.0,69,,,,,,,,,,,,,,,,,,0.0,5.0,5.0,5.0,1.0,,,,,,,,,,
0.0,1.0,0.884,,,,,,kayak_08s.jpg,0.0,clockno_up.jpg,2.0,69,,,,,,,,,,,,,,,,,,0.0,6.0,6.0,6.0,1.0,,,,,,,,,,
0.0,1.0,0.951,,,,,,oil_02s.jpg,0.0,clockno_default.jpg,2.0,69,,,,,,,,,,,,,,,,,,0.0,7.0,7.0,7.0,1.0,,,,,,,,,,
0.0,1.0,0.806,,,,,,petri_dish_12s.jpg,0.0,clockno_default.jpg,2.0,69,,,,,,,,,,,,,,,,,,0.0,8.0,8.0,8.0,1.0,,,,,,,,,,
0.0,1.0,1.039,,,,,,ant_12s.jpg,0.0,clockno_default.jpg,2.0,69,,,,,,,,,,,,,,,,,,0.0,9.0,9.0,9.0,1.0,,,,,,,,,,
0.0,1.0,0.781,,,,,,tile_08s.jpg,0.0,clockno_default.jpg,2.0,69,,,,,,,,,,,,,,,,,,0.0,10.0,10.0,10.0,1.0,,,,,,,,,,
0.0,1.0,0.494,,,,,,piano_13n.jpg,0.0,clockno_up.jpg,3.0,69,,,,,,,,,,,,,,,,,,0.0,11.0,11.0,11.0,1.0,,,,,,,,,,
0.0,1.0,1.053,,,,,,beaker_01b.jpg,0.0,clockno_default.jpg,3.0,69,,,,,,,,,,,,,,,,,,0.0,12.0,12.0,12.0,1.0,,,,,,,,,,
0.0,1.0,0.743,,,,,,ladder_15s.jpg,0.0,clockno_default.jpg,3.0,69,,,,,,,,,,,,,,,,,,0.0,13.0,13.0,13.0,1.0,,,,,,,,,,
0.0,1.0,1.15,,,,,,abacus_12s.jpg,0.0,clockno_default.jpg,3.0,69,,,,,,,,,,,,,,,,,,0.0,14.0,14.0,14.0,1.0,,,,,,,,,,
0.0,1.0,1.28,,,,,,puck_06s.jpg,0.0,clockno_default.jpg,3.0,69,,,,,,,,,,,,,,,,,,0.0,15.0,15.0,15.0,1.0,,,,,,,,,,
0.0,1.0,0.511,,,,,,breadstick_08s.jpg,0.0,clockno_default.jpg,3.0,69,,,,,,,,,,,,,,,,,,0.0,16.0,16.0,16.0,1.0,,,,,,,,,,
0.0,1.0,0.584,,,,,,mailbox_11s.jpg,0.0,clockno_up.jpg,4.0,69,,,,,,,,,,,,,,,,,,0.0,17.0,17.0,17.0,1.0,,,,,,,,,,
0.0,1.0,1.2,,,,,,amber_04s.jpg,0.0,clockno_default.jpg,4.0,69,,,,,,,,,,,,,,,,,,0.0,18.0,18.0,18.0,1.0,,,,,,,,,,
0.0,1.0,0.639,,,,,,fishhook_06s.jpg,0.0,clockno_default.jpg,4.0,69,,,,,,,,,,,,,,,,,,0.0,19.0,19.0,19.0,1.0,,,,,,,,,,
0.0,1.0,0.87,,,,,,ukulele_02s.jpg,0.0,clockno_default.jpg,4.0,69,,,,,,,,,,,,,,,,,,0.0,20.0,20.0,20.0,1.0,,,,,,,,,,
0.0,1.0,1.078,,,,,,juicer1_08s.jpg,0.0,clockno_default.jpg,4.0,69,,,,,,,,,,,,,,,,,,0.0,21.0,21.0,21.0,1.0,,,,,,,,,,
0.0,1.0,0.799,,,,,,glue_01s.jpg,0.0,clockno_up.jpg,5.0,69,,,,,,,,,,,,,,,,,,0.0,22.0,22.0,22.0,1.0,,,,,,,,,,
0.0,1.0,0.582,,,,,,stump_02s.jpg,0.0,clockno_default.jpg,5.0,69,,,,,,,,,,,,,,,,,,0.0,23.0,23.0,23.0,1.0,,,,,,,,,,
1.0,1.0,1.017,,,,,,stump_02s.jpg,1.0,clockno_default.jpg,5.0,69,,,,,,,,,,,,,,,,,,0.0,24.0,24.0,24.0,1.0,,,,,,,,,,
1.0,1.0,0.511,,,,,,stump_02s.jpg,1.0,clockno_default.jpg,5.0,69,,,,,,,,,,,,,,,,,,0.0,25.0,25.0,25.0,1.0,,,,,,,,,,
0.0,1.0,1.37,,,,,,tube_top_03s.jpg,0.0,clockno_default.jpg,5.0,69,,,,,,,,,,,,,,,,,,0.0,26.0,26.0,26.0,1.0,,,,,,,,,,
0.0,1.0,2.224,,,,,,red_carpet_03s.jpg,0.0,clockno_default.jpg,5.0,69,,,,,,,,,,,,,,,,,,0.0,27.0,27.0,27.0,1.0,,,,,,,,,,
0.0,1.0,1.409,,,,,,harpoon.jpg,0.0,clockno_default.jpg,5.0,69,,,,,,,,,,,,,,,,,,0.0,28.0,28.0,28.0,1.0,,,,,,,,,,
0.0,1.0,0.697,,,,,,paintbrush_04s.jpg,0.0,clockno_up.jpg,6.0,69,,,,,,,,,,,,,,,,,,0.0,29.0,29.0,29.0,1.0,,,,,,,,,,
0.0,1.0,1.159,,,,,,bank_06s.jpg,0.0,clockno_default.jpg,6.0,69,,,,,,,,,,,,,,,,,,0.0,30.0,30.0,30.0,1.0,,,,,,,,,,
0.0,1.0,0.657,,,,,,doily_13s.jpg,0.0,clockno_default.jpg,6.0,69,,,,,,,,,,,,,,,,,,0.0,31.0,31.0,31.0,1.0,,,,,,,,,,
0.0,1.0,0.743,,,,,,pocketknife_12s.jpg,0.0,clockno_default.jpg,6.0,69,,,,,,,,,,,,,,,,,,0.0,32.0,32.0,32.0,1.0,,,,,,,,,,
1.0,1.0,1.098,,,,,,paintbrush_04s.jpg,1.0,clockno_default.jpg,6.0,69,,,,,,,,,,,,,,,,,,0.0,33.0,33.0,33.0,1.0,,,,,,,,,,
0.0,1.0,1.3,,,,,,hummingbird_05s.jpg,0.0,clockno_default.jpg,6.0,69,,,,,,,,,,,,,,,,,,0.0,34.0,34.0,34.0,1.0,,,,,,,,,,
0.0,1.0,1.449,,,,,,abacus_12s.jpg,0.0,clockno_default.jpg,6.0,69,,,,,,,,,,,,,,,,,,0.0,35.0,35.0,35.0,1.0,,,,,,,,,,
,,,,,,,,,1.0,,,69,0.0,0.0,1.835,,,,,,petri_dish_12s.jpg,piano_13n.jpg,,,,,,,,,,,,,0.0,0.0,0.0,0.0,1.0,,,,,
,,,,,,,,,1.0,,,69,1.0,1.0,1.573,,,,,,fishhook_06s.jpg,glue_01s.jpg,,,,,,,,,,,,,0.0,1.0,1.0,1.0,1.0,,,,,
,,,,,,,,,0.0,,,69,0.0,1.0,1.506,,,,,,bank_06s.jpg,red_carpet_03s.jpg,,,,,,,,,,,,,0.0,2.0,2.0,2.0,1.0,,,,,
,,,,,,,,,0.0,,,69,0.0,1.0,1.433,,,,,,ukulele_02s.jpg,mailbox_11s.jpg,,,,,,,,,,,,,0.0,3.0,3.0,3.0,1.0,,,,,
,,,,,,,,,0.0,,,69,0.0,1.0,1.708,,,,,,hummingbird_05s.jpg,doily_13s.jpg,,,,,,,,,,,,,0.0,4.0,4.0,4.0,1.0,,,,,
,,,,,,,,,1.0,,,69,1.0,1.0,1.031,,,,,,amber_04s.jpg,juicer1_08s.jpg,,,,,,,,,,,,,0.0,5.0,5.0,5.0,1.0,,,,,
,,,,,,,,,,,,69,,,,,,,,,,,,,,,,clockno_present_1_13.xlsx,clockno_compare_task_1_13.xlsx,,,,,,,,,,,0.0,0.0,0.0,0.0,1.0
0.0,1.0,1.405,,,,,,lemonade_04s.jpg,0.0,clockno_up.jpg,1.0,69,,,,,,,,,,,,,,,,,,0.0,0.0,0.0,0.0,1.0,,,,,,,,,,
0.0,1.0,0.744,,,,,,toilet_paper_12s.jpg,0.0,clockno_default.jpg,1.0,69,,,,,,,,,,,,,,,,,,0.0,1.0,1.0,1.0,1.0,,,,,,,,,,
0.0,1.0,0.813,,,,,,teacup_07s.jpg,0.0,clockno_default.jpg,1.0,69,,,,,,,,,,,,,,,,,,0.0,2.0,2.0,2.0,1.0,,,,,,,,,,
1.0,1.0,1.133,,,,,,toilet_paper_12s.jpg,1.0,clockno_default.jpg,1.0,69,,,,,,,,,,,,,,,,,,0.0,3.0,3.0,3.0,1.0,,,,,,,,,,
0.0,1.0,0.708,,,,,,ice-cream_cone_06s.jpg,0.0,clockno_default.jpg,1.0,69,,,,,,,,,,,,,,,,,,0.0,4.0,4.0,4.0,1.0,,,,,,,,,,
0.0,1.0,0.654,,,,,,loveseat_08s.jpg,0.0,clockno_default.jpg,1.0,69,,,,,,,,,,,,,,,,,,0.0,5.0,5.0,5.0,1.0,,,,,,,,,,
0.0,1.0,0.565,,,,,,otter_05s.jpg,0.0,clockno_up.jpg,2.0,69,,,,,,,,,,,,,,,,,,0.0,6.0,6.0,6.0,1.0,,,,,,,,,,
0.0,1.0,0.672,,,,,,rope_16s.jpg,0.0,clockno_default.jpg,2.0,69,,,,,,,,,,,,,,,,,,0.0,7.0,7.0,7.0,1.0,,,,,,,,,,
0.0,1.0,0.517,,,,,,raccoon_02s.jpg,0.0,clockno_default.jpg,2.0,69,,,,,,,,,,,,,,,,,,0.0,8.0,8.0,8.0,1.0,,,,,,,,,,
0.0,1.0,2.38,,,,,,light_switch_02s.jpg,0.0,clockno_default.jpg,2.0,69,,,,,,,,,,,,,,,,,,0.0,9.0,9.0,9.0,1.0,,,,,,,,,,
0.0,1.0,0.676,,,,,,smokingpipe.jpg,0.0,clockno_default.jpg,2.0,69,,,,,,,,,,,,,,,,,,0.0,10.0,10.0,10.0,1.0,,,,,,,,,,
0.0,1.0,1.013,,,,,,radio_09s.jpg,0.0,clockno_default.jpg,2.0,69,,,,,,,,,,,,,,,,,,0.0,11.0,11.0,11.0,1.0,,,,,,,,,,
0.0,1.0,0.453,,,,,,razor_blade_01b.jpg,0.0,clockno_up.jpg,3.0,69,,,,,,,,,,,,,,,,,,0.0,12.0,12.0,12.0,1.0,,,,,,,,,,
0.0,1.0,0.669,,,,,,sugar_cube_11s.jpg,0.0,clockno_default.jpg,3.0,69,,,,,,,,,,,,,,,,,,0.0,13.0,13.0,13.0,1.0,,,,,,,,,,
0.0,1.0,0.719,,,,,,ravioli_08s.jpg,0.0,clockno_default.jpg,3.0,69,,,,,,,,,,,,,,,,,,0.0,14.0,14.0,14.0,1.0,,,,,,,,,,
0.0,1.0,0.703,,,,,,compass_10n.jpg,0.0,clockno_default.jpg,3.0,69,,,,,,,,,,,,,,,,,,0.0,15.0,15.0,15.0,1.0,,,,,,,,,,
0.0,1.0,1.054,,,,,,memory_stick_11s.jpg,0.0,clockno_default.jpg,3.0,69,,,,,,,,,,,,,,,,,,0.0,16.0,16.0,16.0,1.0,,,,,,,,,,
0.0,1.0,0.728,,,,,,pancake_12s.jpg,0.0,clockno_up.jpg,4.0,69,,,,,,,,,,,,,,,,,,0.0,17.0,17.0,17.0,1.0,,,,,,,,,,
0.0,1.0,0.839,,,,,,quill_09s.jpg,0.0,clockno_default.jpg,4.0,69,,,,,,,,,,,,,,,,,,0.0,18.0,18.0,18.0,1.0,,,,,,,,,,
0.0,1.0,0.648,,,,,,footprint_11s.jpg,0.0,clockno_default.jpg,4.0,69,,,,,,,,,,,,,,,,,,0.0,19.0,19.0,19.0,1.0,,,,,,,,,,
0.0,1.0,0.527,,,,,,gas_mask_11s.jpg,0.0,clockno_default.jpg,4.0,69,,,,,,,,,,,,,,,,,,0.0,20.0,20.0,20.0,1.0,,,,,,,,,,
0.0,0.0,1.056,,,,,,pancake_12s.jpg,1.0,clockno_default.jpg,4.0,69,,,,,,,,,,,,,,,,,,0.0,21.0,21.0,21.0,1.0,,,,,,,,,,
0.0,1.0,0.713,,,,,,crayon_09s.jpg,0.0,clockno_default.jpg,4.0,69,,,,,,,,,,,,,,,,,,0.0,22.0,22.0,22.0,1.0,,,,,,,,,,
1.0,1.0,1.058,,,,,,footprint_11s.jpg,1.0,clockno_default.jpg,4.0,69,,,,,,,,,,,,,,,,,,0.0,23.0,23.0,23.0,1.0,,,,,,,,,,
0.0,1.0,0.847,,,,,,pinwheel_06s.jpg,0.0,clockno_up.jpg,5.0,69,,,,,,,,,,,,,,,,,,0.0,24.0,24.0,24.0,1.0,,,,,,,,,,
0.0,1.0,0.751,,,,,,lectern_08s.jpg,0.0,clockno_default.jpg,5.0,69,,,,,,,,,,,,,,,,,,0.0,25.0,25.0,25.0,1.0,,,,,,,,,,
0.0,1.0,0.63,,,,,,puffin_19s.jpg,0.0,clockno_default.jpg,5.0,69,,,,,,,,,,,,,,,,,,0.0,26.0,26.0,26.0,1.0,,,,,,,,,,
0.0,1.0,0.854,,,,,,peach_04s.jpg,0.0,clockno_default.jpg,5.0,69,,,,,,,,,,,,,,,,,,0.0,27.0,27.0,27.0,1.0,,,,,,,,,,
0.0,1.0,0.711,,,,,,raccoon_02s.jpg,0.0,clockno_default.jpg,5.0,69,,,,,,,,,,,,,,,,,,0.0,28.0,28.0,28.0,1.0,,,,,,,,,,
0.0,1.0,0.537,,,,,,gas_mask_11s.jpg,0.0,clockno_default.jpg,5.0,69,,,,,,,,,,,,,,,,,,0.0,29.0,29.0,29.0,1.0,,,,,,,,,,
0.0,1.0,0.846,,,,,,bubble_01b.jpg,0.0,clockno_default.jpg,5.0,69,,,,,,,,,,,,,,,,,,0.0,30.0,30.0,30.0,1.0,,,,,,,,,,
0.0,1.0,0.767,,,,,,pillbox_04s.jpg,0.0,clockno_up.jpg,6.0,69,,,,,,,,,,,,,,,,,,0.0,31.0,31.0,31.0,1.0,,,,,,,,,,
0.0,1.0,1.886,,,,,,chopsticks_08s.jpg,0.0,clockno_default.jpg,6.0,69,,,,,,,,,,,,,,,,,,0.0,32.0,32.0,32.0,1.0,,,,,,,,,,
0.0,1.0,0.615,,,,,,lizard_10n.jpg,0.0,clockno_default.jpg,6.0,69,,,,,,,,,,,,,,,,,,0.0,33.0,33.0,33.0,1.0,,,,,,,,,,
0.0,1.0,0.559,,,,,,mattress_01s.jpg,0.0,clockno_default.jpg,6.0,69,,,,,,,,,,,,,,,,,,0.0,34.0,34.0,34.0,1.0,,,,,,,,,,
0.0,1.0,0.527,,,,,,jukebox_03n.jpg,0.0,clockno_default.jpg,6.0,69,,,,,,,,,,,,,,,,,,0.0,35.0,35.0,35.0,1.0,,,,,,,,,,
,,,,,,,,,0.0,,,69,1.0,0.0,1.54,,,,,,ravioli_08s.jpg,radio_09s.jpg,,,,,,,,,,,,,0.0,0.0,0.0,0.0,1.0,,,,,
,,,,,,,,,0.0,,,69,1.0,0.0,1.111,,,,,,lectern_08s.jpg,crayon_09s.jpg,,,,,,,,,,,,,0.0,1.0,1.0,1.0,1.0,,,,,
,,,,,,,,,1.0,,,69,1.0,1.0,1.261,,,,,,ice-cream_cone_06s.jpg,rope_16s.jpg,,,,,,,,,,,,,0.0,2.0,2.0,2.0,1.0,,,,,
,,,,,,,,,1.0,,,69,0.0,0.0,1.132,,,,,,teacup_07s.jpg,loveseat_08s.jpg,,,,,,,,,,,,,0.0,3.0,3.0,3.0,1.0,,,,,
,,,,,,,,,1.0,,,69,0.0,0.0,1.554,,,,,,pinwheel_06s.jpg,peach_04s.jpg,,,,,,,,,,,,,0.0,4.0,4.0,4.0,1.0,,,,,
,,,,,,,,,0.0,,,69,0.0,1.0,1.665,,,,,,mattress_01s.jpg,pillbox_04s.jpg,,,,,,,,,,,,,0.0,5.0,5.0,5.0,1.0,,,,,
,,,,,,,,,,,,69,,,,,,,,,,,,,,,,clockno_present_2_13.xlsx,clockno_compare_task_2_13.xlsx,,,,,,,,,,,0.0,1.0,1.0,1.0,1.0
,0.0,,,,,,,piggy_bank_02s.jpg,0.0,clockno_up.jpg,1.0,69,,,,,,,,,,,,,,,,,,0.0,0.0,0.0,0.0,1.0,,,,,,,,,,
0.0,1.0,1.063,,,,,,powder_07s.jpg,0.0,clockno_default.jpg,1.0,69,,,,,,,,,,,,,,,,,,0.0,1.0,1.0,1.0,1.0,,,,,,,,,,
0.0,1.0,1.074,,,,,,perfume_06s.jpg,0.0,clockno_default.jpg,1.0,69,,,,,,,,,,,,,,,,,,0.0,2.0,2.0,2.0,1.0,,,,,,,,,,
0.0,1.0,0.632,,,,,,icemaker_10s.jpg,0.0,clockno_default.jpg,1.0,69,,,,,,,,,,,,,,,,,,0.0,3.0,3.0,3.0,1.0,,,,,,,,,,
1.0,1.0,0.835,,,,,,powder_07s.jpg,1.0,clockno_default.jpg,1.0,69,,,,,,,,,,,,,,,,,,0.0,4.0,4.0,4.0,1.0,,,,,,,,,,
0.0,1.0,0.602,,,,,,juicer2_06s.jpg,0.0,clockno_up.jpg,2.0,69,,,,,,,,,,,,,,,,,,0.0,5.0,5.0,5.0,1.0,,,,,,,,,,
0.0,1.0,0.657,,,,,,olive_05s.jpg,0.0,clockno_default.jpg,2.0,69,,,,,,,,,,,,,,,,,,0.0,6.0,6.0,6.0,1.0,,,,,,,,,,
0.0,1.0,0.866,,,,,,pretzel_09s.jpg,0.0,clockno_default.jpg,2.0,69,,,,,,,,,,,,,,,,,,0.0,7.0,7.0,7.0,1.0,,,,,,,,,,
0.0,1.0,0.623,,,,,,totem_pole_05s.jpg,0.0,clockno_default.jpg,2.0,69,,,,,,,,,,,,,,,,,,0.0,8.0,8.0,8.0,1.0,,,,,,,,,,
1.0,1.0,1.507,,,,,,olive_05s.jpg,1.0,clockno_default.jpg,2.0,69,,,,,,,,,,,,,,,,,,0.0,9.0,9.0,9.0,1.0,,,,,,,,,,
0.0,1.0,0.98,,,,,,mussel_11s.jpg,0.0,clockno_default.jpg,2.0,69,,,,,,,,,,,,,,,,,,0.0,10.0,10.0,10.0,1.0,,,,,,,,,,
0.0,1.0,0.689,,,,,,bee_20s.jpg,0.0,clockno_up.jpg,3.0,69,,,,,,,,,,,,,,,,,,0.0,11.0,11.0,11.0,1.0,,,,,,,,,,
1.0,1.0,0.955,,,,,,bee_20s.jpg,1.0,clockno_default.jpg,3.0,69,,,,,,,,,,,,,,,,,,0.0,12.0,12.0,12.0,1.0,,,,,,,,,,
1.0,1.0,0.835,,,,,,bee_20s.jpg,1.0,clockno_default.jpg,3.0,69,,,,,,,,,,,,,,,,,,0.0,13.0,13.0,13.0,1.0,,,,,,,,,,
0.0,1.0,1.858,,,,,,clover_04s.jpg,0.0,clockno_default.jpg,3.0,69,,,,,,,,,,,,,,,,,,0.0,14.0,14.0,14.0,1.0,,,,,,,,,,
0.0,1.0,0.905,,,,,,muffin_12n.jpg,0.0,clockno_default.jpg,3.0,69,,,,,,,,,,,,,,,,,,0.0,15.0,15.0,15.0,1.0,,,,,,,,,,
0.0,1.0,0.952,,,,,,turtle_08s.jpg,0.0,clockno_default.jpg,3.0,69,,,,,,,,,,,,,,,,,,0.0,16.0,16.0,16.0,1.0,,,,,,,,,,
1.0,0.0,0.53,,,,,,blazer_02s.jpg,0.0,clockno_default.jpg,3.0,69,,,,,,,,,,,,,,,,,,0.0,17.0,17.0,17.0,1.0,,,,,,,,,,
0.0,1.0,0.715,,,,,,target_11s.jpg,0.0,clockno_up.jpg,4.0,69,,,,,,,,,,,,,,,,,,0.0,18.0,18.0,18.0,1.0,,,,,,,,,,
0.0,1.0,0.587,,,,,,machine_gun_09s.jpg,0.0,clockno_default.jpg,4.0,69,,,,,,,,,,,,,,,,,,0.0,19.0,19.0,19.0,1.0,,,,,,,,,,
0.0,1.0,0.356,,,,,,eiffeltower.jpg,0.0,clockno_default.jpg,4.0,69,,,,,,,,,,,,,,,,,,0.0,20.0,20.0,20.0,1.0,,,,,,,,,,
1.0,1.0,0.999,,,,,,eiffeltower.jpg,1.0,clockno_default.jpg,4.0,69,,,,,,,,,,,,,,,,,,0.0,21.0,21.0,21.0,1.0,,,,,,,,,,
0.0,1.0,1.01,,,,,,tablet_04s.jpg,0.0,clockno_default.jpg,4.0,69,,,,,,,,,,,,,,,,,,0.0,22.0,22.0,22.0,1.0,,,,,,,,,,
1.0,1.0,1.044,,,,,,target_11s.jpg,1.0,clockno_default.jpg,4.0,69,,,,,,,,,,,,,,,,,,0.0,23.0,23.0,23.0,1.0,,,,,,,,,,
0.0,1.0,0.938,,,,,,ram_05s.jpg,0.0,clockno_up.jpg,5.0,69,,,,,,,,,,,,,,,,,,0.0,24.0,24.0,24.0,1.0,,,,,,,,,,
0.0,1.0,0.747,,,,,,stamp1_11s.jpg,0.0,clockno_default.jpg,5.0,69,,,,,,,,,,,,,,,,,,0.0,25.0,25.0,25.0,1.0,,,,,,,,,,
0.0,1.0,0.626,,,,,,marker_05s.jpg,0.0,clockno_default.jpg,5.0,69,,,,,,,,,,,,,,,,,,0.0,26.0,26.0,26.0,1.0,,,,,,,,,,
0.0,1.0,1.565,,,,,,turtle_08s.jpg,0.0,clockno_default.jpg,5.0,69,,,,,,,,,,,,,,,,,,0.0,27.0,27.0,27.0,1.0,,,,,,,,,,
0.0,1.0,1.058,,,,,,go-kart_10s.jpg,0.0,clockno_default.jpg,5.0,69,,,,,,,,,,,,,,,,,,0.0,28.0,28.0,28.0,1.0,,,,,,,,,,
0.0,1.0,0.874,,,,,,peanut_butter_08s.jpg,0.0,clockno_up.jpg,6.0,69,,,,,,,,,,,,,,,,,,0.0,29.0,29.0,29.0,1.0,,,,,,,,,,
0.0,1.0,1.555,,,,,,measuring_cup_02s.jpg,0.0,clockno_default.jpg,6.0,69,,,,,,,,,,,,,,,,,,0.0,30.0,30.0,30.0,1.0,,,,,,,,,,
0.0,1.0,1.82,,,,,,laser_pointer_02s.jpg,0.0,clockno_default.jpg,6.0,69,,,,,,,,,,,,,,,,,,0.0,31.0,31.0,31.0,1.0,,,,,,,,,,
0.0,1.0,0.74,,,,,,marker_05s.jpg,0.0,clockno_default.jpg,6.0,69,,,,,,,,,,,,,,,,,,0.0,32.0,32.0,32.0,1.0,,,,,,,,,,
0.0,1.0,1.798,,,,,,tuba_12s.jpg,0.0,clockno_default.jpg,6.0,69,,,,,,,,,,,,,,,,,,0.0,33.0,33.0,33.0,1.0,,,,,,,,,,
0.0,1.0,0.788,,,,,,spoon02a.jpg,0.0,clockno_default.jpg,6.0,69,,,,,,,,,,,,,,,,,,0.0,34.0,34.0,34.0,1.0,,,,,,,,,,
0.0,1.0,1.099,,,,,,mosquito_12s.jpg,0.0,clockno_default.jpg,6.0,69,,,,,,,,,,,,,,,,,,0.0,35.0,35.0,35.0,1.0,,,,,,,,,,
,,,,,,,,,0.0,,,69,0.0,1.0,1.417,,,,,,juicer2_06s.jpg,perfume_06s.jpg,,,,,,,,,,,,,0.0,0.0,0.0,0.0,1.0,,,,,
,,,,,,,,,0.0,,,69,0.0,1.0,1.275,,,,,,stamp1_11s.jpg,tablet_04s.jpg,,,,,,,,,,,,,0.0,1.0,1.0,1.0,1.0,,,,,
,,,,,,,,,0.0,,,69,0.0,1.0,2.667,,,,,,laser_pointer_02s.jpg,go-kart_10s.jpg,,,,,,,,,,,,,0.0,2.0,2.0,2.0,1.0,,,,,
,,,,,,,,,1.0,,,69,0.0,0.0,1.15,,,,,,piggy_bank_02s.jpg,icemaker_10s.jpg,,,,,,,,,,,,,0.0,3.0,3.0,3.0,1.0,,,,,
,,,,,,,,,0.0,,,69,0.0,1.0,1.633,,,,,,mussel_11s.jpg,pretzel_09s.jpg,,,,,,,,,,,,,0.0,4.0,4.0,4.0,1.0,,,,,
,,,,,,,,,0.0,,,69,1.0,0.0,2.203,,,,,,blazer_02s.jpg,clover_04s.jpg,,,,,,,,,,,,,0.0,5.0,5.0,5.0,1.0,,,,,
,,,,,,,,,,,,69,,,,,,,,,,,,,,,,clockno_present_3_13.xlsx,clockno_compare_task_3_13.xlsx,,,,,,,,,,,0.0,2.0,2.0,2.0,1.0
0.0,1.0,1.298,,,,,,penguin_16s.jpg,0.0,clockno_up.jpg,1.0,69,,,,,,,,,,,,,,,,,,0.0,0.0,0.0,0.0,1.0,,,,,,,,,,
1.0,1.0,1.804,,,,,,penguin_16s.jpg,1.0,clockno_default.jpg,1.0,69,,,,,,,,,,,,,,,,,,0.0,1.0,1.0,1.0,1.0,,,,,,,,,,
1.0,1.0,0.685,,,,,,penguin_16s.jpg,1.0,clockno_default.jpg,1.0,69,,,,,,,,,,,,,,,,,,0.0,2.0,2.0,2.0,1.0,,,,,,,,,,
1.0,1.0,0.653,,,,,,penguin_16s.jpg,1.0,clockno_default.jpg,1.0,69,,,,,,,,,,,,,,,,,,0.0,3.0,3.0,3.0,1.0,,,,,,,,,,
0.0,1.0,0.746,,,,,,tripod_01b.jpg,0.0,clockno_default.jpg,1.0,69,,,,,,,,,,,,,,,,,,0.0,4.0,4.0,4.0,1.0,,,,,,,,,,
0.0,1.0,0.955,,,,,,touchpad_11s.jpg,0.0,clockno_default.jpg,1.0,69,,,,,,,,,,,,,,,,,,0.0,5.0,5.0,5.0,1.0,,,,,,,,,,
0.0,1.0,0.81,,,,,,possum_09s.jpg,0.0,clockno_up.jpg,2.0,69,,,,,,,,,,,,,,,,,,0.0,6.0,6.0,6.0,1.0,,,,,,,,,,
0.0,1.0,0.789,,,,,,frame_06s.jpg,0.0,clockno_default.jpg,2.0,69,,,,,,,,,,,,,,,,,,0.0,7.0,7.0,7.0,1.0,,,,,,,,,,
0.0,1.0,0.714,,,,,,submarine_11n.jpg,0.0,clockno_default.jpg,2.0,69,,,,,,,,,,,,,,,,,,0.0,8.0,8.0,8.0,1.0,,,,,,,,,,
0.0,1.0,0.907,,,,,,squirt_gun_03s.jpg,0.0,clockno_default.jpg,2.0,69,,,,,,,,,,,,,,,,,,0.0,9.0,9.0,9.0,1.0,,,,,,,,,,
0.0,1.0,0.746,,,,,,screwdriver02a.jpg,0.0,clockno_default.jpg,2.0,69,,,,,,,,,,,,,,,,,,0.0,10.0,10.0,10.0,1.0,,,,,,,,,,
0.0,1.0,0.769,,,,,,icicle_04s.jpg,0.0,clockno_default.jpg,2.0,69,,,,,,,,,,,,,,,,,,0.0,11.0,11.0,11.0,1.0,,,,,,,,,,
0.0,1.0,0.577,,,,,,radiator_05s.jpg,0.0,clockno_up.jpg,3.0,69,,,,,,,,,,,,,,,,,,0.0,12.0,12.0,12.0,1.0,,,,,,,,,,
0.0,1.0,0.722,,,,,,tupperware_09s.jpg,0.0,clockno_default.jpg,3.0,69,,,,,,,,,,,,,,,,,,0.0,13.0,13.0,13.0,1.0,,,,,,,,,,
0.0,1.0,0.555,,,,,,lantern_04s.jpg,0.0,clockno_default.jpg,3.0,69,,,,,,,,,,,,,,,,,,0.0,14.0,14.0,14.0,1.0,,,,,,,,,,
0.0,1.0,0.58,,,,,,quad_04s.jpg,0.0,clockno_default.jpg,3.0,69,,,,,,,,,,,,,,,,,,0.0,15.0,15.0,15.0,1.0,,,,,,,,,,
0.0,1.0,0.788,,,,,,tape_measure_11s.jpg,0.0,clockno_default.jpg,3.0,69,,,,,,,,,,,,,,,,,,0.0,16.0,16.0,16.0,1.0,,,,,,,,,,
0.0,1.0,0.771,,,,,,roulette_wheel_04s.jpg,0.0,clockno_default.jpg,3.0,69,,,,,,,,,,,,,,,,,,0.0,17.0,17.0,17.0,1.0,,,,,,,,,,
0.0,1.0,0.644,,,,,,microwave_02s.jpg,0.0,clockno_default.jpg,3.0,69,,,,,,,,,,,,,,,,,,0.0,18.0,18.0,18.0,1.0,,,,,,,,,,
0.0,1.0,0.681,,,,,,mop_08s.jpg,0.0,clockno_up.jpg,4.0,69,,,,,,,,,,,,,,,,,,0.0,19.0,19.0,19.0,1.0,,,,,,,,,,
0.0,1.0,0.593,,,,,,pipe1_10s.jpg,0.0,clockno_default.jpg,4.0,69,,,,,,,,,,,,,,,,,,0.0,20.0,20.0,20.0,1.0,,,,,,,,,,
0.0,1.0,1.413,,,,,,possum_09s.jpg,0.0,clockno_default.jpg,4.0,69,,,,,,,,,,,,,,,,,,0.0,21.0,21.0,21.0,1.0,,,,,,,,,,
0.0,1.0,0.682,,,,,,turnstile_08s.jpg,0.0,clockno_default.jpg,4.0,69,,,,,,,,,,,,,,,,,,0.0,22.0,22.0,22.0,1.0,,,,,,,,,,
0.0,1.0,1.909,,,,,,raft_09s.jpg,0.0,clockno_default.jpg,4.0,69,,,,,,,,,,,,,,,,,,0.0,23.0,23.0,23.0,1.0,,,,,,,,,,
0.0,1.0,0.883,,,,,,treadmill_06s.jpg,0.0,clockno_up.jpg,5.0,69,,,,,,,,,,,,,,,,,,0.0,24.0,24.0,24.0,1.0,,,,,,,,,,
1.0,0.0,1.245,,,,,,quad_04s.jpg,0.0,clockno_default.jpg,5.0,69,,,,,,,,,,,,,,,,,,0.0,25.0,25.0,25.0,1.0,,,,,,,,,,
1.0,0.0,0.766,,,,,,mop_08s.jpg,0.0,clockno_default.jpg,5.0,69,,,,,,,,,,,,,,,,,,0.0,26.0,26.0,26.0,1.0,,,,,,,,,,
0.0,1.0,0.858,,,,,,pan_02s.jpg,0.0,clockno_default.jpg,5.0,69,,,,,,,,,,,,,,,,,,0.0,27.0,27.0,27.0,1.0,,,,,,,,,,
0.0,1.0,0.588,,,,,,coconut_08s.jpg,0.0,clockno_default.jpg,5.0,69,,,,,,,,,,,,,,,,,,0.0,28.0,28.0,28.0,1.0,,,,,,,,,,
0.0,1.0,0.674,,,,,,key_07s.jpg,0.0,clockno_default.jpg,5.0,69,,,,,,,,,,,,,,,,,,0.0,29.0,29.0,29.0,1.0,,,,,,,,,,
0.0,1.0,0.489,,,,,,sunflower_17s.jpg,0.0,clockno_default.jpg,5.0,69,,,,,,,,,,,,,,,,,,0.0,30.0,30.0,30.0,1.0,,,,,,,,,,
0.0,1.0,0.54,,,,,,pie_08s.jpg,0.0,clockno_up.jpg,6.0,69,,,,,,,,,,,,,,,,,,0.0,31.0,31.0,31.0,1.0,,,,,,,,,,
0.0,1.0,0.548,,,,,,tape_06s.jpg,0.0,clockno_default.jpg,6.0,69,,,,,,,,,,,,,,,,,,0.0,32.0,32.0,32.0,1.0,,,,,,,,,,
0.0,1.0,0.756,,,,,,rooster_03s.jpg,0.0,clockno_default.jpg,6.0,69,,,,,,,,,,,,,,,,,,0.0,33.0,33.0,33.0,1.0,,,,,,,,,,
0.0,1.0,0.46,,,,,,meatball_13s.jpg,0.0,clockno_default.jpg,6.0,69,,,,,,,,,,,,,,,,,,0.0,34.0,34.0,34.0,1.0,,,,,,,,,,
0.0,1.0,1.108,,,,,,mask_09s.jpg,0.0,clockno_default.jpg,6.0,69,,,,,,,,,,,,,,,,,,0.0,35.0,35.0,35.0,1.0,,,,,,,,,,
,,,,,,,,,1.0,,,69,1.0,1.0,1.503,,,,,,squirt_gun_03s.jpg,radiator_05s.jpg,,,,,,,,,,,,,0.0,0.0,0.0,0.0,1.0,,,,,
,,,,,,,,,0.0,,,69,1.0,0.0,1.298,,,,,,frame_06s.jpg,tripod_01b.jpg,,,,,,,,,,,,,0.0,1.0,1.0,1.0,1.0,,,,,
,,,,,,,,,0.0,,,69,1.0,0.0,0.905,,,,,,submarine_11n.jpg,touchpad_11s.jpg,,,,,,,,,,,,,0.0,2.0,2.0,2.0,1.0,,,,,
,,,,,,,,,1.0,,,69,1.0,1.0,1.536,,,,,,treadmill_06s.jpg,pan_02s.jpg,,,,,,,,,,,,,0.0,3.0,3.0,3.0,1.0,,,,,
,,,,,,,,,1.0,,,69,1.0,1.0,1.304,,,,,,tupperware_09s.jpg,tape_measure_11s.jpg,,,,,,,,,,,,,0.0,4.0,4.0,4.0,1.0,,,,,
,,,,,,,,,0.0,,,69,0.0,1.0,1.367,,,,,,raft_09s.jpg,pipe1_10s.jpg,,,,,,,,,,,,,0.0,5.0,5.0,5.0,1.0,,,,,
,,,,,,,,,,,,69,,,,,,,,,,,,,,,,clockno_present_4_13.xlsx,clockno_compare_task_4_13.xlsx,,,,,,,,,,,0.0,3.0,3.0,3.0,1.0
0.0,1.0,1.365,,,,,,dashboard_02s.jpg,0.0,clockno_up.jpg,1.0,69,,,,,,,,,,,,,,,,,,0.0,0.0,0.0,0.0,1.0,,,,,,,,,,
0.0,1.0,0.569,,,,,,jet_15s.jpg,0.0,clockno_default.jpg,1.0,69,,,,,,,,,,,,,,,,,,0.0,1.0,1.0,1.0,1.0,,,,,,,,,,
0.0,1.0,0.476,,,,,,sushi_08s.jpg,0.0,clockno_default.jpg,1.0,69,,,,,,,,,,,,,,,,,,0.0,2.0,2.0,2.0,1.0,,,,,,,,,,
0.0,1.0,0.627,,,,,,denture_03s.jpg,0.0,clockno_default.jpg,1.0,69,,,,,,,,,,,,,,,,,,0.0,3.0,3.0,3.0,1.0,,,,,,,,,,
0.0,1.0,1.179,,,,,,ironing_board_07s.jpg,0.0,clockno_default.jpg,1.0,69,,,,,,,,,,,,,,,,,,0.0,4.0,4.0,4.0,1.0,,,,,,,,,,
1.0,1.0,1.611,,,,,,jet_15s.jpg,1.0,clockno_default.jpg,1.0,69,,,,,,,,,,,,,,,,,,0.0,5.0,5.0,5.0,1.0,,,,,,,,,,
0.0,1.0,0.69,,,,,,owl_15s.jpg,0.0,clockno_up.jpg,2.0,69,,,,,,,,,,,,,,,,,,0.0,6.0,6.0,6.0,1.0,,,,,,,,,,
0.0,1.0,0.747,,,,,,plaster_cast_13s.jpg,0.0,clockno_default.jpg,2.0,69,,,,,,,,,,,,,,,,,,0.0,7.0,7.0,7.0,1.0,,,,,,,,,,
1.0,1.0,1.082,,,,,,owl_15s.jpg,1.0,clockno_default.jpg,2.0,69,,,,,,,,,,,,,,,,,,0.0,8.0,8.0,8.0,1.0,,,,,,,,,,
0.0,1.0,0.722,,,,,,lab_coat_11s.jpg,0.0,clockno_default.jpg,2.0,69,,,,,,,,,,,,,,,,,,0.0,9.0,9.0,9.0,1.0,,,,,,,,,,
0.0,1.0,1.732,,,,,,mold2_04s.jpg,0.0,clockno_default.jpg,2.0,69,,,,,,,,,,,,,,,,,,0.0,10.0,10.0,10.0,1.0,,,,,,,,,,
0.0,1.0,1.019,,,,,,umbrella_15s.jpg,0.0,clockno_default.jpg,2.0,69,,,,,,,,,,,,,,,,,,0.0,11.0,11.0,11.0,1.0,,,,,,,,,,
0.0,1.0,0.706,,,,,,penlight_12s.jpg,0.0,clockno_up.jpg,3.0,69,,,,,,,,,,,,,,,,,,0.0,12.0,12.0,12.0,1.0,,,,,,,,,,
0.0,1.0,0.562,,,,,,machete_06s.jpg,0.0,clockno_default.jpg,3.0,69,,,,,,,,,,,,,,,,,,0.0,13.0,13.0,13.0,1.0,,,,,,,,,,
1.0,1.0,0.789,,,,,,penlight_12s.jpg,1.0,clockno_default.jpg,3.0,69,,,,,,,,,,,,,,,,,,0.0,14.0,14.0,14.0,1.0,,,,,,,,,,
0.0,1.0,0.618,,,,,,keyhole_03s.jpg,0.0,clockno_default.jpg,3.0,69,,,,,,,,,,,,,,,,,,0.0,15.0,15.0,15.0,1.0,,,,,,,,,,
0.0,1.0,0.85,,,,,,ginger_09s.jpg,0.0,clockno_default.jpg,3.0,69,,,,,,,,,,,,,,,,,,0.0,16.0,16.0,16.0,1.0,,,,,,,,,,
0.0,1.0,0.522,,,,,,emerald_02s.jpg,0.0,clockno_up.jpg,4.0,69,,,,,,,,,,,,,,,,,,0.0,17.0,17.0,17.0,1.0,,,,,,,,,,
0.0,1.0,1.091,,,,,,torch_02s.jpg,0.0,clockno_default.jpg,4.0,69,,,,,,,,,,,,,,,,,,0.0,18.0,18.0,18.0,1.0,,,,,,,,,,
0.0,1.0,0.522,,,,,,flip_flop_03s.jpg,0.0,clockno_default.jpg,4.0,69,,,,,,,,,,,,,,,,,,0.0,19.0,19.0,19.0,1.0,,,,,,,,,,
0.0,1.0,0.675,,,,,,plunger_08s.jpg,0.0,clockno_default.jpg,4.0,69,,,,,,,,,,,,,,,,,,0.0,20.0,20.0,20.0,1.0,,,,,,,,,,
0.0,1.0,0.549,,,,,,thorn_13s.jpg,0.0,clockno_default.jpg,4.0,69,,,,,,,,,,,,,,,,,,0.0,21.0,21.0,21.0,1.0,,,,,,,,,,
0.0,1.0,0.562,,,,,,tongs_08s.jpg,0.0,clockno_default.jpg,4.0,69,,,,,,,,,,,,,,,,,,0.0,22.0,22.0,22.0,1.0,,,,,,,,,,
0.0,1.0,0.643,,,,,,teapot_03s.jpg,0.0,clockno_default.jpg,4.0,69,,,,,,,,,,,,,,,,,,0.0,23.0,23.0,23.0,1.0,,,,,,,,,,
0.0,1.0,0.769,,,,,,tennis_ball_06s.jpg,0.0,clockno_up.jpg,5.0,69,,,,,,,,,,,,,,,,,,0.0,24.0,24.0,24.0,1.0,,,,,,,,,,
0.0,1.0,1.261,,,,,,penlight_12s.jpg,0.0,clockno_default.jpg,5.0,69,,,,,,,,,,,,,,,,,,0.0,25.0,25.0,25.0,1.0,,,,,,,,,,
0.0,1.0,0.875,,,,,,dynamite_01b.jpg,0.0,clockno_default.jpg,5.0,69,,,,,,,,,,,,,,,,,,0.0,26.0,26.0,26.0,1.0,,,,,,,,,,
0.0,1.0,0.538,,,,,,rhubarb_03s.jpg,0.0,clockno_default.jpg,5.0,69,,,,,,,,,,,,,,,,,,0.0,27.0,27.0,27.0,1.0,,,,,,,,,,
0.0,1.0,0.458,,,,,,mango_09s.jpg,0.0,clockno_default.jpg,5.0,69,,,,,,,,,,,,,,,,,,0.0,28.0,28.0,28.0,1.0,,,,,,,,,,
0.0,1.0,0.723,,,,,,pear_02s.jpg,0.0,clockno_default.jpg,5.0,69,,,,,,,,,,,,,,,,,,0.0,29.0,29.0,29.0,1.0,,,,,,,,,,
0.0,1.0,0.476,,,,,,tongs_08s.jpg,0.0,clockno_default.jpg,5.0,69,,,,,,,,,,,,,,,,,,0.0,30.0,30.0,30.0,1.0,,,,,,,,,,
0.0,1.0,0.603,,,,,,rock_08s.jpg,0.0,clockno_up.jpg,6.0,69,,,,,,,,,,,,,,,,,,0.0,31.0,31.0,31.0,1.0,,,,,,,,,,
1.0,1.0,0.973,,,,,,rock_08s.jpg,1.0,clockno_default.jpg,6.0,69,,,,,,,,,,,,,,,,,,0.0,32.0,32.0,32.0,1.0,,,,,,,,,,
0.0,1.0,0.627,,,,,,sunglasses_11s.jpg,0.0,clockno_default.jpg,6.0,69,,,,,,,,,,,,,,,,,,0.0,33.0,33.0,33.0,1.0,,,,,,,,,,
0.0,1.0,1.34,,,,,,phone_01b.jpg,0.0,clockno_default.jpg,6.0,69,,,,,,,,,,,,,,,,,,0.0,34.0,34.0,34.0,1.0,,,,,,,,,,
1.0,1.0,2.3,,,,,,phone_01b.jpg,1.0,clockno_default.jpg,6.0,69,,,,,,,,,,,,,,,,,,0.0,35.0,35.0,35.0,1.0,,,,,,,,,,
,,,,,,,,,1.0,,,69,0.0,0.0,1.414,,,,,,ironing_board_07s.jpg,plaster_cast_13s.jpg,,,,,,,,,,,,,0.0,0.0,0.0,0.0,1.0,,,,,
,,,,,,,,,0.0,,,69,0.0,1.0,1.101,,,,,,torch_02s.jpg,keyhole_03s.jpg,,,,,,,,,,,,,0.0,1.0,1.0,1.0,1.0,,,,,
,,,,,,,,,0.0,,,69,1.0,0.0,1.268,,,,,,flip_flop_03s.jpg,ginger_09s.jpg,,,,,,,,,,,,,0.0,2.0,2.0,2.0,1.0,,,,,
,,,,,,,,,1.0,,,69,1.0,1.0,1.157,,,,,,dashboard_02s.jpg,denture_03s.jpg,,,,,,,,,,,,,0.0,3.0,3.0,3.0,1.0,,,,,
,,,,,,,,,0.0,,,69,1.0,0.0,1.619,,,,,,plunger_08s.jpg,emerald_02s.jpg,,,,,,,,,,,,,0.0,4.0,4.0,4.0,1.0,,,,,
,,,,,,,,,1.0,,,69,0.0,0.0,1.302,,,,,,tennis_ball_06s.jpg,rhubarb_03s.jpg,,,,,,,,,,,,,0.0,5.0,5.0,5.0,1.0,,,,,
,,,,,,,,,,,,69,,,,,,,,,,,,,,,,clockno_present_5_13.xlsx,clockno_compare_task_5_13.xlsx,,,,,,,,,,,0.0,4.0,4.0,4.0,1.0
0.0,1.0,1.385,,,,,,kilt_18s.jpg,0.0,clockno_up.jpg,1.0,69,,,,,,,,,,,,,,,,,,0.0,0.0,0.0,0.0,1.0,,,,,,,,,,
1.0,1.0,1.248,,,,,,kilt_18s.jpg,1.0,clockno_default.jpg,1.0,69,,,,,,,,,,,,,,,,,,0.0,1.0,1.0,1.0,1.0,,,,,,,,,,
0.0,1.0,0.903,,,,,,puddle_02s.jpg,0.0,clockno_default.jpg,1.0,69,,,,,,,,,,,,,,,,,,0.0,2.0,2.0,2.0,1.0,,,,,,,,,,
0.0,1.0,1.621,,,,,,ladle_04s.jpg,0.0,clockno_default.jpg,1.0,69,,,,,,,,,,,,,,,,,,0.0,3.0,3.0,3.0,1.0,,,,,,,,,,
0.0,1.0,0.976,,,,,,mud_13s.jpg,0.0,clockno_default.jpg,1.0,69,,,,,,,,,,,,,,,,,,0.0,4.0,4.0,4.0,1.0,,,,,,,,,,
0.0,1.0,0.864,,,,,,popcorn_09s.jpg,0.0,clockno_up.jpg,2.0,69,,,,,,,,,,,,,,,,,,0.0,5.0,5.0,5.0,1.0,,,,,,,,,,
1.0,0.0,1.083,,,,,,kilt_18s.jpg,0.0,clockno_default.jpg,2.0,69,,,,,,,,,,,,,,,,,,0.0,6.0,6.0,6.0,1.0,,,,,,,,,,
0.0,1.0,0.983,,,,,,lip_gloss_06s.jpg,0.0,clockno_default.jpg,2.0,69,,,,,,,,,,,,,,,,,,0.0,7.0,7.0,7.0,1.0,,,,,,,,,,
0.0,1.0,0.92,,,,,,bottle_opener_11s.jpg,0.0,clockno_default.jpg,2.0,69,,,,,,,,,,,,,,,,,,0.0,8.0,8.0,8.0,1.0,,,,,,,,,,
0.0,1.0,0.897,,,,,,cape_11s.jpg,0.0,clockno_default.jpg,2.0,69,,,,,,,,,,,,,,,,,,0.0,9.0,9.0,9.0,1.0,,,,,,,,,,
1.0,0.0,1.169,,,,,,puddle_02s.jpg,0.0,clockno_default.jpg,2.0,69,,,,,,,,,,,,,,,,,,0.0,10.0,10.0,10.0,1.0,,,,,,,,,,
0.0,1.0,0.841,,,,,,mushroom_10n.jpg,0.0,clockno_default.jpg,2.0,69,,,,,,,,,,,,,,,,,,0.0,11.0,11.0,11.0,1.0,,,,,,,,,,
0.0,1.0,0.721,,,,,,paper_bag_12s.jpg,0.0,clockno_up.jpg,3.0,69,,,,,,,,,,,,,,,,,,0.0,12.0,12.0,12.0,1.0,,,,,,,,,,
0.0,1.0,0.706,,,,,,antenna_01b.jpg,0.0,clockno_default.jpg,3.0,69,,,,,,,,,,,,,,,,,,0.0,13.0,13.0,13.0,1.0,,,,,,,,,,
0.0,1.0,0.83,,,,,,kangaroo_02s.jpg,0.0,clockno_default.jpg,3.0,69,,,,,,,,,,,,,,,,,,0.0,14.0,14.0,14.0,1.0,,,,,,,,,,
0.0,1.0,0.768,,,,,,ring_03s.jpg,0.0,clockno_default.jpg,3.0,69,,,,,,,,,,,,,,,,,,0.0,15.0,15.0,15.0,1.0,,,,,,,,,,
0.0,1.0,0.688,,,,,,pineapple_12s.jpg,0.0,clockno_default.jpg,3.0,69,,,,,,,,,,,,,,,,,,0.0,16.0,16.0,16.0,1.0,,,,,,,,,,
0.0,1.0,0.715,,,,,,pillow_03s.jpg,0.0,clockno_default.jpg,3.0,69,,,,,,,,,,,,,,,,,,0.0,17.0,17.0,17.0,1.0,,,,,,,,,,
0.0,1.0,1.265,,,,,,swan_11s.jpg,0.0,clockno_up.jpg,4.0,69,,,,,,,,,,,,,,,,,,0.0,18.0,18.0,18.0,1.0,,,,,,,,,,
0.0,0.0,0.721,,,,,,swan_11s.jpg,1.0,clockno_default.jpg,4.0,69,,,,,,,,,,,,,,,,,,0.0,19.0,19.0,19.0,1.0,,,,,,,,,,
0.0,1.0,1.848,,,,,,coat_rack_01b.jpg,0.0,clockno_default.jpg,4.0,69,,,,,,,,,,,,,,,,,,0.0,20.0,20.0,20.0,1.0,,,,,,,,,,
1.0,0.0,0.849,,,,,,candy_cane_06s.jpg,0.0,clockno_default.jpg,4.0,69,,,,,,,,,,,,,,,,,,0.0,21.0,21.0,21.0,1.0,,,,,,,,,,
0.0,1.0,0.735,,,,,,swimming_pool_17s.jpg,0.0,clockno_default.jpg,4.0,69,,,,,,,,,,,,,,,,,,0.0,22.0,22.0,22.0,1.0,,,,,,,,,,
0.0,1.0,0.809,,,,,,incense_02s.jpg,0.0,clockno_default.jpg,4.0,69,,,,,,,,,,,,,,,,,,0.0,23.0,23.0,23.0,1.0,,,,,,,,,,
0.0,1.0,0.732,,,,,,coffee_filter_10s.jpg,0.0,clockno_default.jpg,4.0,69,,,,,,,,,,,,,,,,,,0.0,24.0,24.0,24.0,1.0,,,,,,,,,,
0.0,1.0,1.152,,,,,,scooter.jpg,0.0,clockno_up.jpg,5.0,69,,,,,,,,,,,,,,,,,,0.0,25.0,25.0,25.0,1.0,,,,,,,,,,
0.0,1.0,0.92,,,,,,sleeping_bag_12s.jpg,0.0,clockno_default.jpg,5.0,69,,,,,,,,,,,,,,,,,,0.0,26.0,26.0,26.0,1.0,,,,,,,,,,
0.0,1.0,0.801,,,,,,pepper_mill_03s.jpg,0.0,clockno_default.jpg,5.0,69,,,,,,,,,,,,,,,,,,0.0,27.0,27.0,27.0,1.0,,,,,,,,,,
0.0,1.0,1.305,,,,,,gargoyle_08s.jpg,0.0,clockno_default.jpg,5.0,69,,,,,,,,,,,,,,,,,,0.0,28.0,28.0,28.0,1.0,,,,,,,,,,
0.0,1.0,1.624,,,,,,safety_pin_02s.jpg,0.0,clockno_default.jpg,5.0,69,,,,,,,,,,,,,,,,,,0.0,29.0,29.0,29.0,1.0,,,,,,,,,,
0.0,1.0,1.337,,,,,,omelet_07s.jpg,0.0,clockno_default.jpg,5.0,69,,,,,,,,,,,,,,,,,,0.0,30.0,30.0,30.0,1.0,,,,,,,,,,
0.0,1.0,0.515,,,,,,rabbit_03s.jpg,0.0,clockno_up.jpg,6.0,69,,,,,,,,,,,,,,,,,,0.0,31.0,31.0,31.0,1.0,,,,,,,,,,
1.0,1.0,0.946,,,,,,rabbit_03s.jpg,1.0,clockno_default.jpg,6.0,69,,,,,,,,,,,,,,,,,,0.0,32.0,32.0,32.0,1.0,,,,,,,,,,
1.0,1.0,1.011,,,,,,rabbit_03s.jpg,1.0,clockno_default.jpg,6.0,69,,,,,,,,,,,,,,,,,,0.0,33.0,33.0,33.0,1.0,,,,,,,,,,
0.0,1.0,1.634,,,,,,letter_opener_03s.jpg,0.0,clockno_default.jpg,6.0,69,,,,,,,,,,,,,,,,,,0.0,34.0,34.0,34.0,1.0,,,,,,,,,,
1.0,0.0,2.426,,,,,,rice_12s.jpg,0.0,clockno_default.jpg,6.0,69,,,,,,,,,,,,,,,,,,0.0,35.0,35.0,35.0,1.0,,,,,,,,,,
,,,,,,,,,1.0,,,69,1.0,1.0,1.553,,,,,,mud_13s.jpg,lip_gloss_06s.jpg,,,,,,,,,,,,,0.0,0.0,0.0,0.0,1.0,,,,,
,,,,,,,,,1.0,,,69,1.0,1.0,1.478,,,,,,cape_11s.jpg,paper_bag_12s.jpg,,,,,,,,,,,,,0.0,1.0,1.0,1.0,1.0,,,,,
,,,,,,,,,1.0,,,69,0.0,0.0,1.287,,,,,,swimming_pool_17s.jpg,scooter.jpg,,,,,,,,,,,,,0.0,2.0,2.0,2.0,1.0,,,,,
,,,,,,,,,0.0,,,69,1.0,0.0,0.942,,,,,,bottle_opener_11s.jpg,popcorn_09s.jpg,,,,,,,,,,,,,0.0,3.0,3.0,3.0,1.0,,,,,
,,,,,,,,,1.0,,,69,1.0,1.0,0.822,,,,,,antenna_01b.jpg,pineapple_12s.jpg,,,,,,,,,,,,,0.0,4.0,4.0,4.0,1.0,,,,,
,,,,,,,,,1.0,,,69,1.0,1.0,1.433,,,,,,candy_cane_06s.jpg,coffee_filter_10s.jpg,,,,,,,,,,,,,0.0,5.0,5.0,5.0,1.0,,,,,
