key_resp.keys,key_resp.corr,key_resp.rt,present_segment.thisRepN,present_segment.thisTrialN,present_segment.thisN,present_segment.thisIndex,present_segment.ran,pictures,answer,clock,segment,participant,key_resp_2.keys,key_resp_2.corr,key_resp_2.rt,compare_segment.thisRepN,compare_segment.thisTrialN,compare_segment.thisN,compare_segment.thisIndex,compare_segment.ran,item_a,item_b,clock_conditions.thisRepN,clock_conditions.thisTrialN,clock_conditions.thisN,clock_conditions.thisIndex,clock_conditions.ran,present,compare,noclock_present.thisRepN,noclock_present.thisTrialN,noclock_present.thisN,noclock_present.thisIndex,noclock_present.ran,noclock_compare.thisRepN,noclock_compare.thisTrialN,noclock_compare.thisN,noclock_compare.thisIndex,noclock_compare.ran,noclock_conditions.thisRepN,noclock_conditions.thisTrialN,noclock_conditions.thisN,noclock_conditions.thisIndex,noclock_conditions.ran
0.0,1.0,1.205,0.0,0.0,0.0,0.0,1.0,spider_web_03s.jpg,0.0,clock_7_1.png,1.0,22,,,,,,,,,,,,,,,,,,,,,,,,,,,,,,,,
0.0,1.0,1.271,0.0,1.0,1.0,1.0,1.0,blender_08s.jpg,0.0,clock_7_2.png,1.0,22,,,,,,,,,,,,,,,,,,,,,,,,,,,,,,,,
0.0,1.0,0.646,0.0,2.0,2.0,2.0,1.0,taxi_15s.jpg,0.0,clock_7_3.png,1.0,22,,,,,,,,,,,,,,,,,,,,,,,,,,,,,,,,
0.0,1.0,0.535,0.0,3.0,3.0,3.0,1.0,toaster_03s.jpg,0.0,clock_7_4.png,1.0,22,,,,,,,,,,,,,,,,,,,,,,,,,,,,,,,,
0.0,1.0,0.435,0.0,4.0,4.0,4.0,1.0,latch_15s.jpg,0.0,clock_7_5.png,1.0,22,,,,,,,,,,,,,,,,,,,,,,,,,,,,,,,,
0.0,0.0,0.586,0.0,5.0,5.0,5.0,1.0,latch_15s.jpg,1.0,clock_7_6.png,1.0,22,,,,,,,,,,,,,,,,,,,,,,,,,,,,,,,,
0.0,1.0,0.667,0.0,6.0,6.0,6.0,1.0,rock_08s.jpg,0.0,clock_7_7.png,1.0,22,,,,,,,,,,,,,,,,,,,,,,,,,,,,,,,,
0.0,1.0,0.494,0.0,7.0,7.0,7.0,1.0,ticktacktoe_08s.jpg,0.0,clock_6_1.png,2.0,22,,,,,,,,,,,,,,,,,,,,,,,,,,,,,,,,
1.0,1.0,0.915,0.0,8.0,8.0,8.0,1.0,ticktacktoe_08s.jpg,1.0,clock_6_2.png,2.0,22,,,,,,,,,,,,,,,,,,,,,,,,,,,,,,,,
1.0,0.0,0.935,0.0,9.0,9.0,9.0,1.0,rhinoceros_02s.jpg,0.0,clock_6_3.png,2.0,22,,,,,,,,,,,,,,,,,,,,,,,,,,,,,,,,
1.0,1.0,0.813,0.0,10.0,10.0,10.0,1.0,rhinoceros_02s.jpg,1.0,clock_6_4.png,2.0,22,,,,,,,,,,,,,,,,,,,,,,,,,,,,,,,,
0.0,1.0,0.537,0.0,11.0,11.0,11.0,1.0,timer_03s.jpg,0.0,clock_6_5.png,2.0,22,,,,,,,,,,,,,,,,,,,,,,,,,,,,,,,,
0.0,1.0,1.788,0.0,12.0,12.0,12.0,1.0,lizard_10n.jpg,0.0,clock_6_6.png,2.0,22,,,,,,,,,,,,,,,,,,,,,,,,,,,,,,,,
0.0,1.0,1.075,0.0,13.0,13.0,13.0,1.0,thorn_13s.jpg,0.0,clock_7_1.png,3.0,22,,,,,,,,,,,,,,,,,,,,,,,,,,,,,,,,
0.0,1.0,0.696,0.0,14.0,14.0,14.0,1.0,turtle_08s.jpg,0.0,clock_7_2.png,3.0,22,,,,,,,,,,,,,,,,,,,,,,,,,,,,,,,,
0.0,1.0,0.763,0.0,15.0,15.0,15.0,1.0,kimono_13s.jpg,0.0,clock_7_3.png,3.0,22,,,,,,,,,,,,,,,,,,,,,,,,,,,,,,,,
0.0,0.0,1.13,0.0,16.0,16.0,16.0,1.0,thorn_13s.jpg,1.0,clock_7_4.png,3.0,22,,,,,,,,,,,,,,,,,,,,,,,,,,,,,,,,
0.0,1.0,0.865,0.0,17.0,17.0,17.0,1.0,sleeping_bag_12s.jpg,0.0,clock_7_5.png,3.0,22,,,,,,,,,,,,,,,,,,,,,,,,,,,,,,,,
1.0,1.0,0.952,0.0,18.0,18.0,18.0,1.0,kimono_13s.jpg,1.0,clock_7_6.png,3.0,22,,,,,,,,,,,,,,,,,,,,,,,,,,,,,,,,
0.0,1.0,0.899,0.0,19.0,19.0,19.0,1.0,ivy_12s.jpg,0.0,clock_7_7.png,3.0,22,,,,,,,,,,,,,,,,,,,,,,,,,,,,,,,,
0.0,1.0,0.614,0.0,20.0,20.0,20.0,1.0,orangutan_03s.jpg,0.0,clock_5_1.png,4.0,22,,,,,,,,,,,,,,,,,,,,,,,,,,,,,,,,
0.0,1.0,0.546,0.0,21.0,21.0,21.0,1.0,eiffeltower.jpg,0.0,clock_5_2.png,4.0,22,,,,,,,,,,,,,,,,,,,,,,,,,,,,,,,,
0.0,1.0,0.464,0.0,22.0,22.0,22.0,1.0,metronome_03s.jpg,0.0,clock_5_3.png,4.0,22,,,,,,,,,,,,,,,,,,,,,,,,,,,,,,,,
0.0,1.0,0.532,0.0,23.0,23.0,23.0,1.0,totem_pole_05s.jpg,0.0,clock_5_4.png,4.0,22,,,,,,,,,,,,,,,,,,,,,,,,,,,,,,,,
0.0,0.0,0.472,0.0,24.0,24.0,24.0,1.0,metronome_03s.jpg,1.0,clock_5_5.png,4.0,22,,,,,,,,,,,,,,,,,,,,,,,,,,,,,,,,
0.0,1.0,0.818,0.0,25.0,25.0,25.0,1.0,peeler_06s.jpg,0.0,clock_5_1.png,5.0,22,,,,,,,,,,,,,,,,,,,,,,,,,,,,,,,,
1.0,0.0,0.685,0.0,26.0,26.0,26.0,1.0,quill_09s.jpg,0.0,clock_5_2.png,5.0,22,,,,,,,,,,,,,,,,,,,,,,,,,,,,,,,,
0.0,1.0,0.621,0.0,27.0,27.0,27.0,1.0,toad_09s.jpg,0.0,clock_5_3.png,5.0,22,,,,,,,,,,,,,,,,,,,,,,,,,,,,,,,,
0.0,1.0,0.563,0.0,28.0,28.0,28.0,1.0,beard_16s.jpg,0.0,clock_5_4.png,5.0,22,,,,,,,,,,,,,,,,,,,,,,,,,,,,,,,,
0.0,1.0,0.437,0.0,29.0,29.0,29.0,1.0,tube_top_03s.jpg,0.0,clock_5_5.png,5.0,22,,,,,,,,,,,,,,,,,,,,,,,,,,,,,,,,
0.0,1.0,0.468,0.0,30.0,30.0,30.0,1.0,power_line_08s.jpg,0.0,clock_6_1.png,6.0,22,,,,,,,,,,,,,,,,,,,,,,,,,,,,,,,,
0.0,1.0,0.58,0.0,31.0,31.0,31.0,1.0,lifesaver_10s.jpg,0.0,clock_6_2.png,6.0,22,,,,,,,,,,,,,,,,,,,,,,,,,,,,,,,,
0.0,1.0,0.382,0.0,32.0,32.0,32.0,1.0,saddle_06s.jpg,0.0,clock_6_3.png,6.0,22,,,,,,,,,,,,,,,,,,,,,,,,,,,,,,,,
0.0,1.0,0.715,0.0,33.0,33.0,33.0,1.0,ginger_09s.jpg,0.0,clock_6_4.png,6.0,22,,,,,,,,,,,,,,,,,,,,,,,,,,,,,,,,
0.0,1.0,0.381,0.0,34.0,34.0,34.0,1.0,orange_12s.jpg,0.0,clock_6_5.png,6.0,22,,,,,,,,,,,,,,,,,,,,,,,,,,,,,,,,
0.0,1.0,0.454,0.0,35.0,35.0,35.0,1.0,tiara_05s.jpg,0.0,clock_6_6.png,6.0,22,,,,,,,,,,,,,,,,,,,,,,,,,,,,,,,,
,,,,,,,,,0.0,,,22,0.0,1.0,1.834,0.0,0.0,0.0,0.0,1.0,turtle_08s.jpg,timer_03s.jpg,,,,,,,,,,,,,,,,,,,,,,
,,,,,,,,,0.0,,,22,1.0,0.0,0.983,0.0,1.0,1.0,1.0,1.0,power_line_08s.jpg,toad_09s.jpg,,,,,,,,,,,,,,,,,,,,,,
,,,,,,,,,1.0,,,22,0.0,0.0,0.756,0.0,2.0,2.0,2.0,1.0,sleeping_bag_12s.jpg,orangutan_03s.jpg,,,,,,,,,,,,,,,,,,,,,,
,,,,,,,,,1.0,,,22,1.0,1.0,1.203,0.0,3.0,3.0,3.0,1.0,spider_web_03s.jpg,toaster_03s.jpg,,,,,,,,,,,,,,,,,,,,,,
,,,,,,,,,0.0,,,22,0.0,1.0,1.337,0.0,4.0,4.0,4.0,1.0,beard_16s.jpg,peeler_06s.jpg,,,,,,,,,,,,,,,,,,,,,,
,,,,,,,,,1.0,,,22,1.0,1.0,1.153,0.0,5.0,5.0,5.0,1.0,lifesaver_10s.jpg,orange_12s.jpg,,,,,,,,,,,,,,,,,,,,,,
,,,,,,,,,,,,22,,,,,,,,,,,0.0,0.0,0.0,0.0,1.0,clock_present_1_10.xlsx,clock_compare_task_1_10.xlsx,,,,,,,,,,,,,,,
0.0,1.0,0.757,0.0,0.0,0.0,0.0,1.0,giraffe_11s.jpg,0.0,clock_6_1.png,1.0,22,,,,,,,,,,,,,,,,,,,,,,,,,,,,,,,,
0.0,1.0,0.682,0.0,1.0,1.0,1.0,1.0,fishhook_06s.jpg,0.0,clock_6_2.png,1.0,22,,,,,,,,,,,,,,,,,,,,,,,,,,,,,,,,
0.0,1.0,0.503,0.0,2.0,2.0,2.0,1.0,tiger_06s.jpg,0.0,clock_6_3.png,1.0,22,,,,,,,,,,,,,,,,,,,,,,,,,,,,,,,,
0.0,1.0,0.713,0.0,3.0,3.0,3.0,1.0,fossil_06s.jpg,0.0,clock_6_4.png,1.0,22,,,,,,,,,,,,,,,,,,,,,,,,,,,,,,,,
0.0,1.0,0.446,0.0,4.0,4.0,4.0,1.0,scooter.jpg,0.0,clock_6_5.png,1.0,22,,,,,,,,,,,,,,,,,,,,,,,,,,,,,,,,
1.0,1.0,0.785,0.0,5.0,5.0,5.0,1.0,tiger_06s.jpg,1.0,clock_6_6.png,1.0,22,,,,,,,,,,,,,,,,,,,,,,,,,,,,,,,,
0.0,1.0,0.63,0.0,6.0,6.0,6.0,1.0,mannequin_05s.jpg,0.0,clock_5_1.png,2.0,22,,,,,,,,,,,,,,,,,,,,,,,,,,,,,,,,
0.0,1.0,0.518,0.0,7.0,7.0,7.0,1.0,air_pump_05s.jpg,0.0,clock_5_2.png,2.0,22,,,,,,,,,,,,,,,,,,,,,,,,,,,,,,,,
0.0,1.0,0.602,0.0,8.0,8.0,8.0,1.0,cushion_08s.jpg,0.0,clock_5_3.png,2.0,22,,,,,,,,,,,,,,,,,,,,,,,,,,,,,,,,
0.0,1.0,0.571,0.0,9.0,9.0,9.0,1.0,crossbow_10s.jpg,0.0,clock_5_4.png,2.0,22,,,,,,,,,,,,,,,,,,,,,,,,,,,,,,,,
0.0,0.0,0.468,0.0,10.0,10.0,10.0,1.0,cushion_08s.jpg,1.0,clock_5_5.png,2.0,22,,,,,,,,,,,,,,,,,,,,,,,,,,,,,,,,
0.0,1.0,0.864,0.0,11.0,11.0,11.0,1.0,thread_08s.jpg,0.0,clock_5_1.png,3.0,22,,,,,,,,,,,,,,,,,,,,,,,,,,,,,,,,
1.0,1.0,0.8,0.0,12.0,12.0,12.0,1.0,thread_08s.jpg,1.0,clock_5_2.png,3.0,22,,,,,,,,,,,,,,,,,,,,,,,,,,,,,,,,
0.0,1.0,1.165,0.0,13.0,13.0,13.0,1.0,tiger_06s.jpg,0.0,clock_5_3.png,3.0,22,,,,,,,,,,,,,,,,,,,,,,,,,,,,,,,,
1.0,1.0,1.221,0.0,14.0,14.0,14.0,1.0,thread_08s.jpg,1.0,clock_5_4.png,3.0,22,,,,,,,,,,,,,,,,,,,,,,,,,,,,,,,,
0.0,1.0,0.615,0.0,15.0,15.0,15.0,1.0,tab_09s.jpg,0.0,clock_5_5.png,3.0,22,,,,,,,,,,,,,,,,,,,,,,,,,,,,,,,,
0.0,1.0,0.447,0.0,16.0,16.0,16.0,1.0,ladle_04s.jpg,0.0,clock_7_1.png,4.0,22,,,,,,,,,,,,,,,,,,,,,,,,,,,,,,,,
0.0,1.0,0.387,0.0,17.0,17.0,17.0,1.0,ice-cream_cone_06s.jpg,0.0,clock_7_2.png,4.0,22,,,,,,,,,,,,,,,,,,,,,,,,,,,,,,,,
0.0,1.0,0.537,0.0,18.0,18.0,18.0,1.0,thermostat_02s.jpg,0.0,clock_7_3.png,4.0,22,,,,,,,,,,,,,,,,,,,,,,,,,,,,,,,,
0.0,0.0,0.489,0.0,19.0,19.0,19.0,1.0,thermostat_02s.jpg,1.0,clock_7_4.png,4.0,22,,,,,,,,,,,,,,,,,,,,,,,,,,,,,,,,
0.0,1.0,0.697,0.0,20.0,20.0,20.0,1.0,rolling_pin_02s.jpg,0.0,clock_7_5.png,4.0,22,,,,,,,,,,,,,,,,,,,,,,,,,,,,,,,,
0.0,1.0,1.739,0.0,21.0,21.0,21.0,1.0,lipstick_02s.jpg,0.0,clock_7_6.png,4.0,22,,,,,,,,,,,,,,,,,,,,,,,,,,,,,,,,
0.0,1.0,1.463,0.0,22.0,22.0,22.0,1.0,incense_02s.jpg,0.0,clock_7_7.png,4.0,22,,,,,,,,,,,,,,,,,,,,,,,,,,,,,,,,
0.0,1.0,0.481,0.0,23.0,23.0,23.0,1.0,rudder_02s.jpg,0.0,clock_6_1.png,5.0,22,,,,,,,,,,,,,,,,,,,,,,,,,,,,,,,,
0.0,1.0,1.04,0.0,24.0,24.0,24.0,1.0,radio_09s.jpg,0.0,clock_6_2.png,5.0,22,,,,,,,,,,,,,,,,,,,,,,,,,,,,,,,,
0.0,1.0,0.406,0.0,25.0,25.0,25.0,1.0,rooster_03s.jpg,0.0,clock_6_3.png,5.0,22,,,,,,,,,,,,,,,,,,,,,,,,,,,,,,,,
0.0,1.0,0.72,0.0,26.0,26.0,26.0,1.0,surfboard_11s.jpg,0.0,clock_6_4.png,5.0,22,,,,,,,,,,,,,,,,,,,,,,,,,,,,,,,,
0.0,1.0,0.689,0.0,27.0,27.0,27.0,1.0,perfume_06s.jpg,0.0,clock_6_5.png,5.0,22,,,,,,,,,,,,,,,,,,,,,,,,,,,,,,,,
0.0,1.0,0.606,0.0,28.0,28.0,28.0,1.0,tortilla_06s.jpg,0.0,clock_6_6.png,5.0,22,,,,,,,,,,,,,,,,,,,,,,,,,,,,,,,,
0.0,1.0,0.568,0.0,29.0,29.0,29.0,1.0,gingerbread_man_03s.jpg,0.0,clock_7_1.png,6.0,22,,,,,,,,,,,,,,,,,,,,,,,,,,,,,,,,
0.0,1.0,0.73,0.0,30.0,30.0,30.0,1.0,tambourine_06s.jpg,0.0,clock_7_2.png,6.0,22,,,,,,,,,,,,,,,,,,,,,,,,,,,,,,,,
0.0,1.0,0.713,0.0,31.0,31.0,31.0,1.0,pomegranate_04s.jpg,0.0,clock_7_3.png,6.0,22,,,,,,,,,,,,,,,,,,,,,,,,,,,,,,,,
0.0,1.0,0.481,0.0,32.0,32.0,32.0,1.0,birdcage_08s.jpg,0.0,clock_7_4.png,6.0,22,,,,,,,,,,,,,,,,,,,,,,,,,,,,,,,,
0.0,1.0,0.532,0.0,33.0,33.0,33.0,1.0,cushion_08s.jpg,0.0,clock_7_5.png,6.0,22,,,,,,,,,,,,,,,,,,,,,,,,,,,,,,,,
0.0,1.0,0.514,0.0,34.0,34.0,34.0,1.0,puppet_01b.jpg,0.0,clock_7_6.png,6.0,22,,,,,,,,,,,,,,,,,,,,,,,,,,,,,,,,
0.0,1.0,0.864,0.0,35.0,35.0,35.0,1.0,briefcase_03s.jpg,0.0,clock_7_7.png,6.0,22,,,,,,,,,,,,,,,,,,,,,,,,,,,,,,,,
,,,,,,,,,1.0,,,22,0.0,0.0,1.214,0.0,0.0,0.0,0.0,1.0,scooter.jpg,air_pump_05s.jpg,,,,,,,,,,,,,,,,,,,,,,
,,,,,,,,,1.0,,,22,0.0,0.0,1.3,0.0,1.0,1.0,1.0,1.0,lipstick_02s.jpg,radio_09s.jpg,,,,,,,,,,,,,,,,,,,,,,
,,,,,,,,,1.0,,,22,1.0,1.0,1.465,0.0,2.0,2.0,2.0,1.0,incense_02s.jpg,rooster_03s.jpg,,,,,,,,,,,,,,,,,,,,,,
,,,,,,,,,1.0,,,22,0.0,0.0,1.337,0.0,3.0,3.0,3.0,1.0,birdcage_08s.jpg,briefcase_03s.jpg,,,,,,,,,,,,,,,,,,,,,,
,,,,,,,,,0.0,,,22,1.0,0.0,0.935,0.0,4.0,4.0,4.0,1.0,fossil_06s.jpg,giraffe_11s.jpg,,,,,,,,,,,,,,,,,,,,,,
,,,,,,,,,1.0,,,22,1.0,1.0,1.137,0.0,5.0,5.0,5.0,1.0,mannequin_05s.jpg,crossbow_10s.jpg,,,,,,,,,,,,,,,,,,,,,,
,,,,,,,,,,,,22,,,,,,,,,,,0.0,1.0,1.0,1.0,1.0,clock_present_2_10.xlsx,clock_compare_task_2_10.xlsx,,,,,,,,,,,,,,,
0.0,1.0,1.574,0.0,0.0,0.0,0.0,1.0,dynamite_01b.jpg,0.0,clock_6_1.png,1.0,22,,,,,,,,,,,,,,,,,,,,,,,,,,,,,,,,
1.0,1.0,0.802,0.0,1.0,1.0,1.0,1.0,dynamite_01b.jpg,1.0,clock_6_2.png,1.0,22,,,,,,,,,,,,,,,,,,,,,,,,,,,,,,,,
1.0,1.0,1.363,0.0,2.0,2.0,2.0,1.0,dynamite_01b.jpg,1.0,clock_6_3.png,1.0,22,,,,,,,,,,,,,,,,,,,,,,,,,,,,,,,,
1.0,1.0,0.54,0.0,3.0,3.0,3.0,1.0,dynamite_01b.jpg,1.0,clock_6_4.png,1.0,22,,,,,,,,,,,,,,,,,,,,,,,,,,,,,,,,
0.0,1.0,0.729,0.0,4.0,4.0,4.0,1.0,lava_02s.jpg,0.0,clock_6_5.png,1.0,22,,,,,,,,,,,,,,,,,,,,,,,,,,,,,,,,
1.0,1.0,0.466,0.0,5.0,5.0,5.0,1.0,dynamite_01b.jpg,1.0,clock_6_6.png,1.0,22,,,,,,,,,,,,,,,,,,,,,,,,,,,,,,,,
0.0,1.0,0.582,0.0,6.0,6.0,6.0,1.0,glue_01s.jpg,0.0,clock_7_1.png,2.0,22,,,,,,,,,,,,,,,,,,,,,,,,,,,,,,,,
0.0,1.0,0.537,0.0,7.0,7.0,7.0,1.0,umbrella_15s.jpg,0.0,clock_7_2.png,2.0,22,,,,,,,,,,,,,,,,,,,,,,,,,,,,,,,,
0.0,1.0,0.33,0.0,8.0,8.0,8.0,1.0,puppy_08s.jpg,0.0,clock_7_3.png,2.0,22,,,,,,,,,,,,,,,,,,,,,,,,,,,,,,,,
0.0,1.0,0.404,0.0,9.0,9.0,9.0,1.0,lab_coat_11s.jpg,0.0,clock_7_4.png,2.0,22,,,,,,,,,,,,,,,,,,,,,,,,,,,,,,,,
0.0,1.0,0.582,0.0,10.0,10.0,10.0,1.0,parachute_03s.jpg,0.0,clock_7_5.png,2.0,22,,,,,,,,,,,,,,,,,,,,,,,,,,,,,,,,
0.0,0.0,0.691,0.0,11.0,11.0,11.0,1.0,parachute_03s.jpg,1.0,clock_7_6.png,2.0,22,,,,,,,,,,,,,,,,,,,,,,,,,,,,,,,,
0.0,1.0,0.93,0.0,12.0,12.0,12.0,1.0,keyhole_03s.jpg,0.0,clock_7_7.png,2.0,22,,,,,,,,,,,,,,,,,,,,,,,,,,,,,,,,
0.0,1.0,0.83,0.0,13.0,13.0,13.0,1.0,marshmallow_08s.jpg,0.0,clock_5_1.png,3.0,22,,,,,,,,,,,,,,,,,,,,,,,,,,,,,,,,
0.0,1.0,0.555,0.0,14.0,14.0,14.0,1.0,undershirt_02s.jpg,0.0,clock_5_2.png,3.0,22,,,,,,,,,,,,,,,,,,,,,,,,,,,,,,,,
0.0,1.0,0.57,0.0,15.0,15.0,15.0,1.0,sushi_08s.jpg,0.0,clock_5_3.png,3.0,22,,,,,,,,,,,,,,,,,,,,,,,,,,,,,,,,
0.0,1.0,0.68,0.0,16.0,16.0,16.0,1.0,piggy_bank_02s.jpg,0.0,clock_5_4.png,3.0,22,,,,,,,,,,,,,,,,,,,,,,,,,,,,,,,,
1.0,1.0,1.449,0.0,17.0,17.0,17.0,1.0,marshmallow_08s.jpg,1.0,clock_5_5.png,3.0,22,,,,,,,,,,,,,,,,,,,,,,,,,,,,,,,,
,0.0,,0.0,18.0,18.0,18.0,1.0,syringe_02s.jpg,0.0,clock_7_1.png,4.0,22,,,,,,,,,,,,,,,,,,,,,,,,,,,,,,,,
1.0,0.0,1.364,0.0,19.0,19.0,19.0,1.0,purse_05s.jpg,0.0,clock_7_2.png,4.0,22,,,,,,,,,,,,,,,,,,,,,,,,,,,,,,,,
0.0,1.0,1.735,0.0,20.0,20.0,20.0,1.0,tongs_08s.jpg,0.0,clock_7_3.png,4.0,22,,,,,,,,,,,,,,,,,,,,,,,,,,,,,,,,
,0.0,,0.0,21.0,21.0,21.0,1.0,pocketknife_12s.jpg,0.0,clock_7_4.png,4.0,22,,,,,,,,,,,,,,,,,,,,,,,,,,,,,,,,
0.0,1.0,0.649,0.0,22.0,22.0,22.0,1.0,rope_16s.jpg,0.0,clock_7_5.png,4.0,22,,,,,,,,,,,,,,,,,,,,,,,,,,,,,,,,
0.0,1.0,1.063,0.0,23.0,23.0,23.0,1.0,duck_01b.jpg,0.0,clock_7_6.png,4.0,22,,,,,,,,,,,,,,,,,,,,,,,,,,,,,,,,
0.0,1.0,1.498,0.0,24.0,24.0,24.0,1.0,machete_06s.jpg,0.0,clock_7_7.png,4.0,22,,,,,,,,,,,,,,,,,,,,,,,,,,,,,,,,
0.0,1.0,1.507,0.0,25.0,25.0,25.0,1.0,eggshell_14s.jpg,0.0,clock_5_1.png,5.0,22,,,,,,,,,,,,,,,,,,,,,,,,,,,,,,,,
0.0,1.0,1.453,0.0,26.0,26.0,26.0,1.0,roulette_wheel_04s.jpg,0.0,clock_5_2.png,5.0,22,,,,,,,,,,,,,,,,,,,,,,,,,,,,,,,,
,0.0,,0.0,27.0,27.0,27.0,1.0,tattoo_14s.jpg,0.0,clock_5_3.png,5.0,22,,,,,,,,,,,,,,,,,,,,,,,,,,,,,,,,
0.0,0.0,0.97,0.0,28.0,28.0,28.0,1.0,roulette_wheel_04s.jpg,1.0,clock_5_4.png,5.0,22,,,,,,,,,,,,,,,,,,,,,,,,,,,,,,,,
0.0,0.0,1.681,0.0,29.0,29.0,29.0,1.0,tattoo_14s.jpg,1.0,clock_5_5.png,5.0,22,,,,,,,,,,,,,,,,,,,,,,,,,,,,,,,,
0.0,1.0,0.698,0.0,30.0,30.0,30.0,1.0,kite_04s.jpg,0.0,clock_6_1.png,6.0,22,,,,,,,,,,,,,,,,,,,,,,,,,,,,,,,,
0.0,1.0,0.647,0.0,31.0,31.0,31.0,1.0,dirt_bike_11s.jpg,0.0,clock_6_2.png,6.0,22,,,,,,,,,,,,,,,,,,,,,,,,,,,,,,,,
0.0,0.0,0.723,0.0,32.0,32.0,32.0,1.0,kite_04s.jpg,1.0,clock_6_3.png,6.0,22,,,,,,,,,,,,,,,,,,,,,,,,,,,,,,,,
0.0,1.0,1.539,0.0,33.0,33.0,33.0,1.0,tongs_08s.jpg,0.0,clock_6_4.png,6.0,22,,,,,,,,,,,,,,,,,,,,,,,,,,,,,,,,
0.0,1.0,0.936,0.0,34.0,34.0,34.0,1.0,go-kart_10s.jpg,0.0,clock_6_5.png,6.0,22,,,,,,,,,,,,,,,,,,,,,,,,,,,,,,,,
0.0,1.0,0.771,0.0,35.0,35.0,35.0,1.0,red_carpet_03s.jpg,0.0,clock_6_6.png,6.0,22,,,,,,,,,,,,,,,,,,,,,,,,,,,,,,,,
,,,,,,,,,0.0,,,22,0.0,1.0,1.454,0.0,0.0,0.0,0.0,1.0,umbrella_15s.jpg,lava_02s.jpg,,,,,,,,,,,,,,,,,,,,,,
,,,,,,,,,0.0,,,22,0.0,1.0,2.064,0.0,1.0,1.0,1.0,1.0,sushi_08s.jpg,keyhole_03s.jpg,,,,,,,,,,,,,,,,,,,,,,
,,,,,,,,,1.0,,,22,1.0,1.0,2.354,0.0,2.0,2.0,2.0,1.0,piggy_bank_02s.jpg,purse_05s.jpg,,,,,,,,,,,,,,,,,,,,,,
,,,,,,,,,1.0,,,22,0.0,0.0,1.264,0.0,3.0,3.0,3.0,1.0,glue_01s.jpg,lab_coat_11s.jpg,,,,,,,,,,,,,,,,,,,,,,
,,,,,,,,,1.0,,,22,0.0,0.0,1.391,0.0,4.0,4.0,4.0,1.0,pocketknife_12s.jpg,machete_06s.jpg,,,,,,,,,,,,,,,,,,,,,,
,,,,,,,,,0.0,,,22,1.0,0.0,0.472,0.0,5.0,5.0,5.0,1.0,go-kart_10s.jpg,dirt_bike_11s.jpg,,,,,,,,,,,,,,,,,,,,,,
,,,,,,,,,,,,22,,,,,,,,,,,0.0,2.0,2.0,2.0,1.0,clock_present_3_10.xlsx,clock_compare_task_3_10.xlsx,,,,,,,,,,,,,,,
0.0,1.0,1.227,0.0,0.0,0.0,0.0,1.0,knitting_needle_04s.jpg,0.0,clock_5_1.png,1.0,22,,,,,,,,,,,,,,,,,,,,,,,,,,,,,,,,
0.0,0.0,0.917,0.0,1.0,1.0,1.0,1.0,knitting_needle_04s.jpg,1.0,clock_5_2.png,1.0,22,,,,,,,,,,,,,,,,,,,,,,,,,,,,,,,,
1.0,1.0,1.449,0.0,2.0,2.0,2.0,1.0,knitting_needle_04s.jpg,1.0,clock_5_3.png,1.0,22,,,,,,,,,,,,,,,,,,,,,,,,,,,,,,,,
0.0,1.0,1.282,0.0,3.0,3.0,3.0,1.0,towel_rack_04s.jpg,0.0,clock_5_4.png,1.0,22,,,,,,,,,,,,,,,,,,,,,,,,,,,,,,,,
0.0,1.0,1.048,0.0,4.0,4.0,4.0,1.0,stump_02s.jpg,0.0,clock_5_5.png,1.0,22,,,,,,,,,,,,,,,,,,,,,,,,,,,,,,,,
0.0,1.0,0.732,0.0,5.0,5.0,5.0,1.0,pan_02s.jpg,0.0,clock_7_1.png,2.0,22,,,,,,,,,,,,,,,,,,,,,,,,,,,,,,,,
0.0,1.0,1.525,0.0,6.0,6.0,6.0,1.0,knitting_needle_04s.jpg,0.0,clock_7_2.png,2.0,22,,,,,,,,,,,,,,,,,,,,,,,,,,,,,,,,
0.0,1.0,0.838,0.0,7.0,7.0,7.0,1.0,lectern_08s.jpg,0.0,clock_7_3.png,2.0,22,,,,,,,,,,,,,,,,,,,,,,,,,,,,,,,,
0.0,1.0,1.163,0.0,8.0,8.0,8.0,1.0,knot_01b.jpg,0.0,clock_7_4.png,2.0,22,,,,,,,,,,,,,,,,,,,,,,,,,,,,,,,,
0.0,1.0,1.298,0.0,9.0,9.0,9.0,1.0,towel_rack_04s.jpg,0.0,clock_7_5.png,2.0,22,,,,,,,,,,,,,,,,,,,,,,,,,,,,,,,,
0.0,1.0,1.283,0.0,10.0,10.0,10.0,1.0,rollerskate_03s.jpg,0.0,clock_7_6.png,2.0,22,,,,,,,,,,,,,,,,,,,,,,,,,,,,,,,,
0.0,1.0,0.617,0.0,11.0,11.0,11.0,1.0,amber_04s.jpg,0.0,clock_7_7.png,2.0,22,,,,,,,,,,,,,,,,,,,,,,,,,,,,,,,,
0.0,1.0,1.131,0.0,12.0,12.0,12.0,1.0,razor_blade_01b.jpg,0.0,clock_5_1.png,3.0,22,,,,,,,,,,,,,,,,,,,,,,,,,,,,,,,,
0.0,1.0,0.707,0.0,13.0,13.0,13.0,1.0,sea_urchin_09s.jpg,0.0,clock_5_2.png,3.0,22,,,,,,,,,,,,,,,,,,,,,,,,,,,,,,,,
0.0,1.0,0.446,0.0,14.0,14.0,14.0,1.0,toilet_07s.jpg,0.0,clock_5_3.png,3.0,22,,,,,,,,,,,,,,,,,,,,,,,,,,,,,,,,
0.0,1.0,0.699,0.0,15.0,15.0,15.0,1.0,police_car_01s.jpg,0.0,clock_5_4.png,3.0,22,,,,,,,,,,,,,,,,,,,,,,,,,,,,,,,,
0.0,0.0,1.073,0.0,16.0,16.0,16.0,1.0,police_car_01s.jpg,1.0,clock_5_5.png,3.0,22,,,,,,,,,,,,,,,,,,,,,,,,,,,,,,,,
0.0,1.0,0.834,0.0,17.0,17.0,17.0,1.0,feather02.jpg,0.0,clock_6_1.png,4.0,22,,,,,,,,,,,,,,,,,,,,,,,,,,,,,,,,
0.0,1.0,1.482,0.0,18.0,18.0,18.0,1.0,mushroom_10n.jpg,0.0,clock_6_2.png,4.0,22,,,,,,,,,,,,,,,,,,,,,,,,,,,,,,,,
0.0,1.0,0.72,0.0,19.0,19.0,19.0,1.0,abacus_12s.jpg,0.0,clock_6_3.png,4.0,22,,,,,,,,,,,,,,,,,,,,,,,,,,,,,,,,
0.0,1.0,0.881,0.0,20.0,20.0,20.0,1.0,hyena_16s.jpg,0.0,clock_6_4.png,4.0,22,,,,,,,,,,,,,,,,,,,,,,,,,,,,,,,,
0.0,1.0,0.715,0.0,21.0,21.0,21.0,1.0,owl_15s.jpg,0.0,clock_6_5.png,4.0,22,,,,,,,,,,,,,,,,,,,,,,,,,,,,,,,,
0.0,0.0,0.873,0.0,22.0,22.0,22.0,1.0,abacus_12s.jpg,1.0,clock_6_6.png,4.0,22,,,,,,,,,,,,,,,,,,,,,,,,,,,,,,,,
0.0,1.0,1.031,0.0,23.0,23.0,23.0,1.0,ostrich_06s.jpg,0.0,clock_7_1.png,5.0,22,,,,,,,,,,,,,,,,,,,,,,,,,,,,,,,,
0.0,1.0,0.397,0.0,24.0,24.0,24.0,1.0,candy_cane_06s.jpg,0.0,clock_7_2.png,5.0,22,,,,,,,,,,,,,,,,,,,,,,,,,,,,,,,,
1.0,1.0,1.487,0.0,25.0,25.0,25.0,1.0,candy_cane_06s.jpg,1.0,clock_7_3.png,5.0,22,,,,,,,,,,,,,,,,,,,,,,,,,,,,,,,,
0.0,1.0,1.177,0.0,26.0,26.0,26.0,1.0,sunflower_17s.jpg,0.0,clock_7_4.png,5.0,22,,,,,,,,,,,,,,,,,,,,,,,,,,,,,,,,
0.0,1.0,0.652,0.0,27.0,27.0,27.0,1.0,paper_bag_12s.jpg,0.0,clock_7_5.png,5.0,22,,,,,,,,,,,,,,,,,,,,,,,,,,,,,,,,
0.0,1.0,0.719,0.0,28.0,28.0,28.0,1.0,submarine_11n.jpg,0.0,clock_7_6.png,5.0,22,,,,,,,,,,,,,,,,,,,,,,,,,,,,,,,,
0.0,1.0,0.634,0.0,29.0,29.0,29.0,1.0,pretzel_09s.jpg,0.0,clock_7_7.png,5.0,22,,,,,,,,,,,,,,,,,,,,,,,,,,,,,,,,
0.0,1.0,1.153,0.0,30.0,30.0,30.0,1.0,potpourri_03s.jpg,0.0,clock_6_1.png,6.0,22,,,,,,,,,,,,,,,,,,,,,,,,,,,,,,,,
0.0,1.0,1.152,0.0,31.0,31.0,31.0,1.0,clover_04s.jpg,0.0,clock_6_2.png,6.0,22,,,,,,,,,,,,,,,,,,,,,,,,,,,,,,,,
0.0,1.0,1.17,0.0,32.0,32.0,32.0,1.0,sledgehammer_03s.jpg,0.0,clock_6_3.png,6.0,22,,,,,,,,,,,,,,,,,,,,,,,,,,,,,,,,
0.0,1.0,0.817,0.0,33.0,33.0,33.0,1.0,aluminum_foil_08s.jpg,0.0,clock_6_4.png,6.0,22,,,,,,,,,,,,,,,,,,,,,,,,,,,,,,,,
0.0,1.0,0.922,0.0,34.0,34.0,34.0,1.0,owl_15s.jpg,0.0,clock_6_5.png,6.0,22,,,,,,,,,,,,,,,,,,,,,,,,,,,,,,,,
0.0,1.0,1.313,0.0,35.0,35.0,35.0,1.0,lamb_chop_07s.jpg,0.0,clock_6_6.png,6.0,22,,,,,,,,,,,,,,,,,,,,,,,,,,,,,,,,
,,,,,,,,,0.0,,,22,0.0,1.0,0.817,0.0,0.0,0.0,0.0,1.0,clover_04s.jpg,submarine_11n.jpg,,,,,,,,,,,,,,,,,,,,,,
,,,,,,,,,1.0,,,22,1.0,1.0,0.88,0.0,1.0,1.0,1.0,1.0,stump_02s.jpg,lectern_08s.jpg,,,,,,,,,,,,,,,,,,,,,,
,,,,,,,,,0.0,,,22,0.0,1.0,0.529,0.0,2.0,2.0,2.0,1.0,sea_urchin_09s.jpg,rollerskate_03s.jpg,,,,,,,,,,,,,,,,,,,,,,
,,,,,,,,,1.0,,,22,0.0,0.0,1.218,0.0,3.0,3.0,3.0,1.0,pan_02s.jpg,knot_01b.jpg,,,,,,,,,,,,,,,,,,,,,,
,,,,,,,,,1.0,,,22,1.0,1.0,0.347,0.0,4.0,4.0,4.0,1.0,ostrich_06s.jpg,sunflower_17s.jpg,,,,,,,,,,,,,,,,,,,,,,
,,,,,,,,,0.0,,,22,0.0,1.0,0.432,0.0,5.0,5.0,5.0,1.0,aluminum_foil_08s.jpg,potpourri_03s.jpg,,,,,,,,,,,,,,,,,,,,,,
,,,,,,,,,,,,22,,,,,,,,,,,0.0,3.0,3.0,3.0,1.0,clock_present_4_10.xlsx,clock_compare_task_4_10.xlsx,,,,,,,,,,,,,,,
0.0,1.0,0.865,0.0,0.0,0.0,0.0,1.0,bathtub_23s.jpg,0.0,clock_7_1.png,1.0,22,,,,,,,,,,,,,,,,,,,,,,,,,,,,,,,,
0.0,0.0,0.466,0.0,1.0,1.0,1.0,1.0,bathtub_23s.jpg,1.0,clock_7_2.png,1.0,22,,,,,,,,,,,,,,,,,,,,,,,,,,,,,,,,
1.0,1.0,1.37,0.0,2.0,2.0,2.0,1.0,bathtub_23s.jpg,1.0,clock_7_3.png,1.0,22,,,,,,,,,,,,,,,,,,,,,,,,,,,,,,,,
1.0,1.0,1.299,0.0,3.0,3.0,3.0,1.0,bathtub_23s.jpg,1.0,clock_7_4.png,1.0,22,,,,,,,,,,,,,,,,,,,,,,,,,,,,,,,,
1.0,1.0,1.089,0.0,4.0,4.0,4.0,1.0,bathtub_23s.jpg,1.0,clock_7_5.png,1.0,22,,,,,,,,,,,,,,,,,,,,,,,,,,,,,,,,
1.0,1.0,1.119,0.0,5.0,5.0,5.0,1.0,bathtub_23s.jpg,1.0,clock_7_6.png,1.0,22,,,,,,,,,,,,,,,,,,,,,,,,,,,,,,,,
1.0,1.0,1.353,0.0,6.0,6.0,6.0,1.0,bathtub_23s.jpg,1.0,clock_7_7.png,1.0,22,,,,,,,,,,,,,,,,,,,,,,,,,,,,,,,,
0.0,1.0,2.08,0.0,7.0,7.0,7.0,1.0,breadstick_08s.jpg,0.0,clock_7_1.png,2.0,22,,,,,,,,,,,,,,,,,,,,,,,,,,,,,,,,
0.0,1.0,1.071,0.0,8.0,8.0,8.0,1.0,petri_dish_12s.jpg,0.0,clock_7_2.png,2.0,22,,,,,,,,,,,,,,,,,,,,,,,,,,,,,,,,
1.0,1.0,1.242,0.0,9.0,9.0,9.0,1.0,petri_dish_12s.jpg,1.0,clock_7_3.png,2.0,22,,,,,,,,,,,,,,,,,,,,,,,,,,,,,,,,
0.0,1.0,1.646,0.0,10.0,10.0,10.0,1.0,penlight_12s.jpg,0.0,clock_7_4.png,2.0,22,,,,,,,,,,,,,,,,,,,,,,,,,,,,,,,,
0.0,0.0,1.732,0.0,11.0,11.0,11.0,1.0,breadstick_08s.jpg,1.0,clock_7_5.png,2.0,22,,,,,,,,,,,,,,,,,,,,,,,,,,,,,,,,
0.0,1.0,1.574,0.0,12.0,12.0,12.0,1.0,blowfish_03s.jpg,0.0,clock_7_6.png,2.0,22,,,,,,,,,,,,,,,,,,,,,,,,,,,,,,,,
0.0,1.0,1.09,0.0,13.0,13.0,13.0,1.0,mosquito_12s.jpg,0.0,clock_7_7.png,2.0,22,,,,,,,,,,,,,,,,,,,,,,,,,,,,,,,,
0.0,1.0,1.237,0.0,14.0,14.0,14.0,1.0,tuxedo_01b.jpg,0.0,clock_6_1.png,3.0,22,,,,,,,,,,,,,,,,,,,,,,,,,,,,,,,,
0.0,1.0,1.499,0.0,15.0,15.0,15.0,1.0,petri_dish_12s.jpg,0.0,clock_6_2.png,3.0,22,,,,,,,,,,,,,,,,,,,,,,,,,,,,,,,,
0.0,1.0,1.479,0.0,16.0,16.0,16.0,1.0,raspberry_12s.jpg,0.0,clock_6_3.png,3.0,22,,,,,,,,,,,,,,,,,,,,,,,,,,,,,,,,
0.0,1.0,1.754,0.0,17.0,17.0,17.0,1.0,pump_11s.jpg,0.0,clock_6_4.png,3.0,22,,,,,,,,,,,,,,,,,,,,,,,,,,,,,,,,
0.0,1.0,1.816,0.0,18.0,18.0,18.0,1.0,omelet_07s.jpg,0.0,clock_6_5.png,3.0,22,,,,,,,,,,,,,,,,,,,,,,,,,,,,,,,,
0.0,1.0,1.48,0.0,19.0,19.0,19.0,1.0,lasagna_06s.jpg,0.0,clock_6_6.png,3.0,22,,,,,,,,,,,,,,,,,,,,,,,,,,,,,,,,
0.0,1.0,0.657,0.0,20.0,20.0,20.0,1.0,lip_gloss_06s.jpg,0.0,clock_5_1.png,4.0,22,,,,,,,,,,,,,,,,,,,,,,,,,,,,,,,,
0.0,1.0,0.547,0.0,21.0,21.0,21.0,1.0,jigsaw_puzzle_11s.jpg,0.0,clock_5_2.png,4.0,22,,,,,,,,,,,,,,,,,,,,,,,,,,,,,,,,
0.0,1.0,0.617,0.0,22.0,22.0,22.0,1.0,flask_04s.jpg,0.0,clock_5_3.png,4.0,22,,,,,,,,,,,,,,,,,,,,,,,,,,,,,,,,
0.0,1.0,0.638,0.0,23.0,23.0,23.0,1.0,bathtub_23s.jpg,0.0,clock_5_4.png,4.0,22,,,,,,,,,,,,,,,,,,,,,,,,,,,,,,,,
0.0,1.0,0.369,0.0,24.0,24.0,24.0,1.0,antenna_01b.jpg,0.0,clock_5_5.png,4.0,22,,,,,,,,,,,,,,,,,,,,,,,,,,,,,,,,
0.0,1.0,0.632,0.0,25.0,25.0,25.0,1.0,chip_04s.jpg,0.0,clock_5_1.png,5.0,22,,,,,,,,,,,,,,,,,,,,,,,,,,,,,,,,
0.0,1.0,0.356,0.0,26.0,26.0,26.0,1.0,kangaroo_02s.jpg,0.0,clock_5_2.png,5.0,22,,,,,,,,,,,,,,,,,,,,,,,,,,,,,,,,
1.0,1.0,1.357,0.0,27.0,27.0,27.0,1.0,kangaroo_02s.jpg,1.0,clock_5_3.png,5.0,22,,,,,,,,,,,,,,,,,,,,,,,,,,,,,,,,
0.0,1.0,0.638,0.0,28.0,28.0,28.0,1.0,tennis_ball_06s.jpg,0.0,clock_5_4.png,5.0,22,,,,,,,,,,,,,,,,,,,,,,,,,,,,,,,,
1.0,1.0,1.266,0.0,29.0,29.0,29.0,1.0,tennis_ball_06s.jpg,1.0,clock_5_5.png,5.0,22,,,,,,,,,,,,,,,,,,,,,,,,,,,,,,,,
0.0,1.0,1.164,0.0,30.0,30.0,30.0,1.0,mixer_12s.jpg,0.0,clock_6_1.png,6.0,22,,,,,,,,,,,,,,,,,,,,,,,,,,,,,,,,
0.0,1.0,1.426,0.0,31.0,31.0,31.0,1.0,treasure_08s.jpg,0.0,clock_6_2.png,6.0,22,,,,,,,,,,,,,,,,,,,,,,,,,,,,,,,,
0.0,1.0,1.471,0.0,32.0,32.0,32.0,1.0,toy_04s.jpg,0.0,clock_6_3.png,6.0,22,,,,,,,,,,,,,,,,,,,,,,,,,,,,,,,,
0.0,1.0,1.771,0.0,33.0,33.0,33.0,1.0,muffin_12n.jpg,0.0,clock_6_4.png,6.0,22,,,,,,,,,,,,,,,,,,,,,,,,,,,,,,,,
0.0,1.0,0.975,0.0,34.0,34.0,34.0,1.0,possum_09s.jpg,0.0,clock_6_5.png,6.0,22,,,,,,,,,,,,,,,,,,,,,,,,,,,,,,,,
0.0,1.0,0.556,0.0,35.0,35.0,35.0,1.0,soda_fountain_03s.jpg,0.0,clock_6_6.png,6.0,22,,,,,,,,,,,,,,,,,,,,,,,,,,,,,,,,
,,,,,,,,,1.0,,,22,0.0,0.0,1.215,0.0,0.0,0.0,0.0,1.0,flask_04s.jpg,chip_04s.jpg,,,,,,,,,,,,,,,,,,,,,,
,,,,,,,,,0.0,,,22,1.0,0.0,2.116,0.0,1.0,1.0,1.0,1.0,lip_gloss_06s.jpg,pump_11s.jpg,,,,,,,,,,,,,,,,,,,,,,
,,,,,,,,,0.0,,,22,0.0,1.0,1.049,0.0,2.0,2.0,2.0,1.0,jigsaw_puzzle_11s.jpg,omelet_07s.jpg,,,,,,,,,,,,,,,,,,,,,,
,,,,,,,,,1.0,,,22,0.0,0.0,1.243,0.0,3.0,3.0,3.0,1.0,mixer_12s.jpg,muffin_12n.jpg,,,,,,,,,,,,,,,,,,,,,,
,,,,,,,,,0.0,,,22,1.0,0.0,0.905,0.0,4.0,4.0,4.0,1.0,possum_09s.jpg,treasure_08s.jpg,,,,,,,,,,,,,,,,,,,,,,
,,,,,,,,,1.0,,,22,0.0,0.0,0.415,0.0,5.0,5.0,5.0,1.0,toy_04s.jpg,soda_fountain_03s.jpg,,,,,,,,,,,,,,,,,,,,,,
,,,,,,,,,,,,22,,,,,,,,,,,0.0,4.0,4.0,4.0,1.0,clock_present_5_10.xlsx,clock_compare_task_5_10.xlsx,,,,,,,,,,,,,,,
0.0,1.0,1.645,0.0,0.0,0.0,0.0,1.0,mattress_01s.jpg,0.0,clock_7_1.png,1.0,22,,,,,,,,,,,,,,,,,,,,,,,,,,,,,,,,
0.0,0.0,0.986,0.0,1.0,1.0,1.0,1.0,mattress_01s.jpg,1.0,clock_7_2.png,1.0,22,,,,,,,,,,,,,,,,,,,,,,,,,,,,,,,,
0.0,1.0,1.374,0.0,2.0,2.0,2.0,1.0,plaster_cast_13s.jpg,0.0,clock_7_3.png,1.0,22,,,,,,,,,,,,,,,,,,,,,,,,,,,,,,,,
1.0,0.0,0.981,0.0,3.0,3.0,3.0,1.0,mussel_11s.jpg,0.0,clock_7_4.png,1.0,22,,,,,,,,,,,,,,,,,,,,,,,,,,,,,,,,
1.0,1.0,2.254,0.0,4.0,4.0,4.0,1.0,plaster_cast_13s.jpg,1.0,clock_7_5.png,1.0,22,,,,,,,,,,,,,,,,,,,,,,,,,,,,,,,,
0.0,1.0,1.264,0.0,5.0,5.0,5.0,1.0,ant_12s.jpg,0.0,clock_7_6.png,1.0,22,,,,,,,,,,,,,,,,,,,,,,,,,,,,,,,,
0.0,0.0,0.782,0.0,6.0,6.0,6.0,1.0,mattress_01s.jpg,1.0,clock_7_7.png,1.0,22,,,,,,,,,,,,,,,,,,,,,,,,,,,,,,,,
0.0,1.0,1.05,0.0,7.0,7.0,7.0,1.0,coffee_filter_10s.jpg,0.0,clock_6_1.png,2.0,22,,,,,,,,,,,,,,,,,,,,,,,,,,,,,,,,
0.0,1.0,0.871,0.0,8.0,8.0,8.0,1.0,comic_book_02s.jpg,0.0,clock_6_2.png,2.0,22,,,,,,,,,,,,,,,,,,,,,,,,,,,,,,,,
0.0,1.0,0.956,0.0,9.0,9.0,9.0,1.0,rocking_chair_05s.jpg,0.0,clock_6_3.png,2.0,22,,,,,,,,,,,,,,,,,,,,,,,,,,,,,,,,
0.0,1.0,1.269,0.0,10.0,10.0,10.0,1.0,squirt_gun_03s.jpg,0.0,clock_6_4.png,2.0,22,,,,,,,,,,,,,,,,,,,,,,,,,,,,,,,,
0.0,1.0,1.525,0.0,11.0,11.0,11.0,1.0,ice_pack_09s.jpg,0.0,clock_6_5.png,2.0,22,,,,,,,,,,,,,,,,,,,,,,,,,,,,,,,,
0.0,1.0,0.75,0.0,12.0,12.0,12.0,1.0,fox_13s.jpg,0.0,clock_6_6.png,2.0,22,,,,,,,,,,,,,,,,,,,,,,,,,,,,,,,,
0.0,1.0,0.816,0.0,13.0,13.0,13.0,1.0,popcorn_09s.jpg,0.0,clock_6_1.png,3.0,22,,,,,,,,,,,,,,,,,,,,,,,,,,,,,,,,
0.0,1.0,0.432,0.0,14.0,14.0,14.0,1.0,bowler_hat_10s.jpg,0.0,clock_6_2.png,3.0,22,,,,,,,,,,,,,,,,,,,,,,,,,,,,,,,,
0.0,1.0,1.032,0.0,15.0,15.0,15.0,1.0,magnet_03s.jpg,0.0,clock_6_3.png,3.0,22,,,,,,,,,,,,,,,,,,,,,,,,,,,,,,,,
0.0,1.0,1.105,0.0,16.0,16.0,16.0,1.0,tinsel_12s.jpg,0.0,clock_6_4.png,3.0,22,,,,,,,,,,,,,,,,,,,,,,,,,,,,,,,,
,0.0,,0.0,17.0,17.0,17.0,1.0,kettle_08s.jpg,0.0,clock_6_5.png,3.0,22,,,,,,,,,,,,,,,,,,,,,,,,,,,,,,,,
0.0,1.0,0.741,0.0,18.0,18.0,18.0,1.0,checkbook_11s.jpg,0.0,clock_6_6.png,3.0,22,,,,,,,,,,,,,,,,,,,,,,,,,,,,,,,,
0.0,1.0,1.098,0.0,19.0,19.0,19.0,1.0,thumbtack_14s.jpg,0.0,clock_5_1.png,4.0,22,,,,,,,,,,,,,,,,,,,,,,,,,,,,,,,,
,0.0,,0.0,20.0,20.0,20.0,1.0,turf_03s.jpg,0.0,clock_5_2.png,4.0,22,,,,,,,,,,,,,,,,,,,,,,,,,,,,,,,,
0.0,1.0,1.369,0.0,21.0,21.0,21.0,1.0,peanut_butter_08s.jpg,0.0,clock_5_3.png,4.0,22,,,,,,,,,,,,,,,,,,,,,,,,,,,,,,,,
0.0,1.0,1.304,0.0,22.0,22.0,22.0,1.0,lamb_04s.jpg,0.0,clock_5_4.png,4.0,22,,,,,,,,,,,,,,,,,,,,,,,,,,,,,,,,
0.0,1.0,1.839,0.0,23.0,23.0,23.0,1.0,telephone_pole_05s.jpg,0.0,clock_5_5.png,4.0,22,,,,,,,,,,,,,,,,,,,,,,,,,,,,,,,,
0.0,1.0,0.647,0.0,24.0,24.0,24.0,1.0,mascara_03s.jpg,0.0,clock_5_1.png,5.0,22,,,,,,,,,,,,,,,,,,,,,,,,,,,,,,,,
0.0,1.0,1.087,0.0,25.0,25.0,25.0,1.0,prism_10s.jpg,0.0,clock_5_2.png,5.0,22,,,,,,,,,,,,,,,,,,,,,,,,,,,,,,,,
0.0,1.0,0.671,0.0,26.0,26.0,26.0,1.0,puffin_19s.jpg,0.0,clock_5_3.png,5.0,22,,,,,,,,,,,,,,,,,,,,,,,,,,,,,,,,
0.0,1.0,0.829,0.0,27.0,27.0,27.0,1.0,lid_10s.jpg,0.0,clock_5_4.png,5.0,22,,,,,,,,,,,,,,,,,,,,,,,,,,,,,,,,
0.0,1.0,0.67,0.0,28.0,28.0,28.0,1.0,keyboard_05s.jpg,0.0,clock_5_5.png,5.0,22,,,,,,,,,,,,,,,,,,,,,,,,,,,,,,,,
0.0,1.0,0.956,0.0,29.0,29.0,29.0,1.0,fire_pit_10s.jpg,0.0,clock_7_1.png,6.0,22,,,,,,,,,,,,,,,,,,,,,,,,,,,,,,,,
0.0,1.0,0.815,0.0,30.0,30.0,30.0,1.0,ice_pack_09s.jpg,0.0,clock_7_2.png,6.0,22,,,,,,,,,,,,,,,,,,,,,,,,,,,,,,,,
0.0,1.0,1.215,0.0,31.0,31.0,31.0,1.0,hydrant_10s.jpg,0.0,clock_7_3.png,6.0,22,,,,,,,,,,,,,,,,,,,,,,,,,,,,,,,,
0.0,0.0,1.464,0.0,32.0,32.0,32.0,1.0,hydrant_10s.jpg,1.0,clock_7_4.png,6.0,22,,,,,,,,,,,,,,,,,,,,,,,,,,,,,,,,
0.0,1.0,1.338,0.0,33.0,33.0,33.0,1.0,tuba_12s.jpg,0.0,clock_7_5.png,6.0,22,,,,,,,,,,,,,,,,,,,,,,,,,,,,,,,,
0.0,1.0,1.153,0.0,34.0,34.0,34.0,1.0,tulip_02s.jpg,0.0,clock_7_6.png,6.0,22,,,,,,,,,,,,,,,,,,,,,,,,,,,,,,,,
0.0,1.0,1.94,0.0,35.0,35.0,35.0,1.0,jetski_10s.jpg,0.0,clock_7_7.png,6.0,22,,,,,,,,,,,,,,,,,,,,,,,,,,,,,,,,
,,,,,,,,,0.0,,,22,0.0,1.0,1.043,0.0,0.0,0.0,0.0,1.0,comic_book_02s.jpg,ant_12s.jpg,,,,,,,,,,,,,,,,,,,,,,
,,,,,,,,,1.0,,,22,0.0,0.0,0.4,0.0,1.0,1.0,1.0,1.0,puffin_19s.jpg,fire_pit_10s.jpg,,,,,,,,,,,,,,,,,,,,,,
,,,,,,,,,0.0,,,22,0.0,1.0,0.238,0.0,2.0,2.0,2.0,1.0,peanut_butter_08s.jpg,checkbook_11s.jpg,,,,,,,,,,,,,,,,,,,,,,
,,,,,,,,,0.0,,,22,0.0,1.0,0.2,0.0,3.0,3.0,3.0,1.0,squirt_gun_03s.jpg,coffee_filter_10s.jpg,,,,,,,,,,,,,,,,,,,,,,
,,,,,,,,,0.0,,,22,0.0,1.0,0.224,0.0,4.0,4.0,4.0,1.0,fox_13s.jpg,rocking_chair_05s.jpg,,,,,,,,,,,,,,,,,,,,,,
,,,,,,,,,0.0,,,22,0.0,1.0,0.184,0.0,5.0,5.0,5.0,1.0,kettle_08s.jpg,bowler_hat_10s.jpg,,,,,,,,,,,,,,,,,,,,,,
0.0,1.0,1.007,,,,,,jelly_bean_06s.jpg,0.0,clockno_up.jpg,1.0,22,,,,,,,,,,,,,,,,,,0.0,0.0,0.0,0.0,1.0,,,,,,,,,,
0.0,1.0,0.53,,,,,,diving_board_07s.jpg,0.0,clockno_default.jpg,1.0,22,,,,,,,,,,,,,,,,,,0.0,1.0,1.0,1.0,1.0,,,,,,,,,,
0.0,0.0,0.382,,,,,,jelly_bean_06s.jpg,1.0,clockno_default.jpg,1.0,22,,,,,,,,,,,,,,,,,,0.0,2.0,2.0,2.0,1.0,,,,,,,,,,
0.0,1.0,0.63,,,,,,top_hat_11s.jpg,0.0,clockno_default.jpg,1.0,22,,,,,,,,,,,,,,,,,,0.0,3.0,3.0,3.0,1.0,,,,,,,,,,
0.0,1.0,0.464,,,,,,olive_05s.jpg,0.0,clockno_default.jpg,1.0,22,,,,,,,,,,,,,,,,,,0.0,4.0,4.0,4.0,1.0,,,,,,,,,,
0.0,0.0,0.766,,,,,,top_hat_11s.jpg,1.0,clockno_default.jpg,1.0,22,,,,,,,,,,,,,,,,,,0.0,5.0,5.0,5.0,1.0,,,,,,,,,,
0.0,1.0,0.656,,,,,,blazer_02s.jpg,0.0,clockno_up.jpg,2.0,22,,,,,,,,,,,,,,,,,,0.0,6.0,6.0,6.0,1.0,,,,,,,,,,
0.0,1.0,1.237,,,,,,top_hat_11s.jpg,0.0,clockno_default.jpg,2.0,22,,,,,,,,,,,,,,,,,,0.0,7.0,7.0,7.0,1.0,,,,,,,,,,
0.0,1.0,0.581,,,,,,mango_09s.jpg,0.0,clockno_default.jpg,2.0,22,,,,,,,,,,,,,,,,,,0.0,8.0,8.0,8.0,1.0,,,,,,,,,,
0.0,1.0,1.103,,,,,,badge_03s.jpg,0.0,clockno_default.jpg,2.0,22,,,,,,,,,,,,,,,,,,0.0,9.0,9.0,9.0,1.0,,,,,,,,,,
0.0,1.0,0.613,,,,,,swing_set_15s.jpg,0.0,clockno_default.jpg,2.0,22,,,,,,,,,,,,,,,,,,0.0,10.0,10.0,10.0,1.0,,,,,,,,,,
0.0,1.0,0.833,,,,,,pepper2_21s.jpg,0.0,clockno_up.jpg,3.0,22,,,,,,,,,,,,,,,,,,0.0,11.0,11.0,11.0,1.0,,,,,,,,,,
0.0,1.0,0.769,,,,,,rosary_03s.jpg,0.0,clockno_default.jpg,3.0,22,,,,,,,,,,,,,,,,,,0.0,12.0,12.0,12.0,1.0,,,,,,,,,,
0.0,1.0,0.648,,,,,,oil_02s.jpg,0.0,clockno_default.jpg,3.0,22,,,,,,,,,,,,,,,,,,0.0,13.0,13.0,13.0,1.0,,,,,,,,,,
0.0,1.0,0.63,,,,,,swan_11s.jpg,0.0,clockno_default.jpg,3.0,22,,,,,,,,,,,,,,,,,,0.0,14.0,14.0,14.0,1.0,,,,,,,,,,
0.0,1.0,0.883,,,,,,stamp1_11s.jpg,0.0,clockno_default.jpg,3.0,22,,,,,,,,,,,,,,,,,,0.0,15.0,15.0,15.0,1.0,,,,,,,,,,
0.0,1.0,0.283,,,,,,contact_lens_15s.jpg,0.0,clockno_default.jpg,3.0,22,,,,,,,,,,,,,,,,,,0.0,16.0,16.0,16.0,1.0,,,,,,,,,,
0.0,1.0,0.642,,,,,,pocket_watch_16s.jpg,0.0,clockno_default.jpg,3.0,22,,,,,,,,,,,,,,,,,,0.0,17.0,17.0,17.0,1.0,,,,,,,,,,
0.0,1.0,0.674,,,,,,pie_08s.jpg,0.0,clockno_up.jpg,4.0,22,,,,,,,,,,,,,,,,,,0.0,18.0,18.0,18.0,1.0,,,,,,,,,,
,0.0,,,,,,,moth_06n.jpg,0.0,clockno_default.jpg,4.0,22,,,,,,,,,,,,,,,,,,0.0,19.0,19.0,19.0,1.0,,,,,,,,,,
0.0,0.0,0.416,,,,,,moth_06n.jpg,1.0,clockno_default.jpg,4.0,22,,,,,,,,,,,,,,,,,,0.0,20.0,20.0,20.0,1.0,,,,,,,,,,
0.0,0.0,0.516,,,,,,moth_06n.jpg,1.0,clockno_default.jpg,4.0,22,,,,,,,,,,,,,,,,,,0.0,21.0,21.0,21.0,1.0,,,,,,,,,,
0.0,1.0,0.718,,,,,,soccer_ball_12s.jpg,0.0,clockno_default.jpg,4.0,22,,,,,,,,,,,,,,,,,,0.0,22.0,22.0,22.0,1.0,,,,,,,,,,
0.0,1.0,1.983,,,,,,lion_18s.jpg,0.0,clockno_default.jpg,4.0,22,,,,,,,,,,,,,,,,,,0.0,23.0,23.0,23.0,1.0,,,,,,,,,,
,0.0,,,,,,,soccer_ball_12s.jpg,1.0,clockno_default.jpg,4.0,22,,,,,,,,,,,,,,,,,,0.0,24.0,24.0,24.0,1.0,,,,,,,,,,
0.0,1.0,0.415,,,,,,tweezers_03s.jpg,0.0,clockno_up.jpg,5.0,22,,,,,,,,,,,,,,,,,,0.0,25.0,25.0,25.0,1.0,,,,,,,,,,
0.0,1.0,0.805,,,,,,tape_06s.jpg,0.0,clockno_default.jpg,5.0,22,,,,,,,,,,,,,,,,,,0.0,26.0,26.0,26.0,1.0,,,,,,,,,,
0.0,1.0,0.521,,,,,,olive_05s.jpg,0.0,clockno_default.jpg,5.0,22,,,,,,,,,,,,,,,,,,0.0,27.0,27.0,27.0,1.0,,,,,,,,,,
0.0,1.0,2.179,,,,,,luggage_08s.jpg,0.0,clockno_default.jpg,5.0,22,,,,,,,,,,,,,,,,,,0.0,28.0,28.0,28.0,1.0,,,,,,,,,,
,0.0,,,,,,,mailbox_11s.jpg,0.0,clockno_default.jpg,5.0,22,,,,,,,,,,,,,,,,,,0.0,29.0,29.0,29.0,1.0,,,,,,,,,,
0.0,1.0,0.303,,,,,,denture_03s.jpg,0.0,clockno_up.jpg,6.0,22,,,,,,,,,,,,,,,,,,0.0,30.0,30.0,30.0,1.0,,,,,,,,,,
,0.0,,,,,,,denture_03s.jpg,1.0,clockno_default.jpg,6.0,22,,,,,,,,,,,,,,,,,,0.0,31.0,31.0,31.0,1.0,,,,,,,,,,
0.0,1.0,0.572,,,,,,megaphone_03s.jpg,0.0,clockno_default.jpg,6.0,22,,,,,,,,,,,,,,,,,,0.0,32.0,32.0,32.0,1.0,,,,,,,,,,
0.0,0.0,0.499,,,,,,megaphone_03s.jpg,1.0,clockno_default.jpg,6.0,22,,,,,,,,,,,,,,,,,,0.0,33.0,33.0,33.0,1.0,,,,,,,,,,
0.0,1.0,0.387,,,,,,basket_05s.jpg,0.0,clockno_default.jpg,6.0,22,,,,,,,,,,,,,,,,,,0.0,34.0,34.0,34.0,1.0,,,,,,,,,,
0.0,1.0,0.492,,,,,,champagne_18s.jpg,0.0,clockno_default.jpg,6.0,22,,,,,,,,,,,,,,,,,,0.0,35.0,35.0,35.0,1.0,,,,,,,,,,
,,,,,,,,,1.0,,,22,0.0,0.0,0.518,,,,,,mango_09s.jpg,pepper2_21s.jpg,,,,,,,,,,,,,0.0,0.0,0.0,0.0,1.0,,,,,
,,,,,,,,,1.0,,,22,0.0,0.0,0.198,,,,,,swing_set_15s.jpg,oil_02s.jpg,,,,,,,,,,,,,0.0,1.0,1.0,1.0,1.0,,,,,
,,,,,,,,,0.0,,,22,0.0,1.0,0.198,,,,,,pie_08s.jpg,stamp1_11s.jpg,,,,,,,,,,,,,0.0,2.0,2.0,2.0,1.0,,,,,
,,,,,,,,,0.0,,,22,0.0,1.0,0.283,,,,,,pocket_watch_16s.jpg,swan_11s.jpg,,,,,,,,,,,,,0.0,3.0,3.0,3.0,1.0,,,,,
,,,,,,,,,0.0,,,22,0.0,1.0,0.157,,,,,,luggage_08s.jpg,tweezers_03s.jpg,,,,,,,,,,,,,0.0,4.0,4.0,4.0,1.0,,,,,
,,,,,,,,,1.0,,,22,0.0,0.0,0.199,,,,,,blazer_02s.jpg,badge_03s.jpg,,,,,,,,,,,,,0.0,5.0,5.0,5.0,1.0,,,,,
,,,,,,,,,,,,22,,,,,,,,,,,,,,,,clockno_present_1_10.xlsx,clockno_compare_task_1_10.xlsx,,,,,,,,,,,0.0,0.0,0.0,0.0,1.0
0.0,1.0,0.903,,,,,,juicer2_06s.jpg,0.0,clockno_up.jpg,1.0,22,,,,,,,,,,,,,,,,,,0.0,0.0,0.0,0.0,1.0,,,,,,,,,,
0.0,0.0,0.771,,,,,,juicer2_06s.jpg,1.0,clockno_default.jpg,1.0,22,,,,,,,,,,,,,,,,,,0.0,1.0,1.0,1.0,1.0,,,,,,,,,,
0.0,1.0,0.569,,,,,,pipe1_10s.jpg,0.0,clockno_default.jpg,1.0,22,,,,,,,,,,,,,,,,,,0.0,2.0,2.0,2.0,1.0,,,,,,,,,,
,0.0,,,,,,,key_07s.jpg,0.0,clockno_default.jpg,1.0,22,,,,,,,,,,,,,,,,,,0.0,3.0,3.0,3.0,1.0,,,,,,,,,,
0.0,0.0,0.624,,,,,,pipe1_10s.jpg,1.0,clockno_default.jpg,1.0,22,,,,,,,,,,,,,,,,,,0.0,4.0,4.0,4.0,1.0,,,,,,,,,,
0.0,1.0,0.481,,,,,,rug_09s.jpg,0.0,clockno_default.jpg,1.0,22,,,,,,,,,,,,,,,,,,0.0,5.0,5.0,5.0,1.0,,,,,,,,,,
0.0,1.0,0.786,,,,,,fireworks_18s.jpg,0.0,clockno_default.jpg,1.0,22,,,,,,,,,,,,,,,,,,0.0,6.0,6.0,6.0,1.0,,,,,,,,,,
,0.0,,,,,,,toilet_paper_12s.jpg,0.0,clockno_up.jpg,2.0,22,,,,,,,,,,,,,,,,,,0.0,7.0,7.0,7.0,1.0,,,,,,,,,,
,0.0,,,,,,,coat_rack_01b.jpg,0.0,clockno_default.jpg,2.0,22,,,,,,,,,,,,,,,,,,0.0,8.0,8.0,8.0,1.0,,,,,,,,,,
0.0,1.0,0.101,,,,,,jewel_01b.jpg,0.0,clockno_default.jpg,2.0,22,,,,,,,,,,,,,,,,,,0.0,9.0,9.0,9.0,1.0,,,,,,,,,,
,0.0,,,,,,,stapler_01b.jpg,0.0,clockno_default.jpg,2.0,22,,,,,,,,,,,,,,,,,,0.0,10.0,10.0,10.0,1.0,,,,,,,,,,
,0.0,,,,,,,mop_08s.jpg,0.0,clockno_default.jpg,2.0,22,,,,,,,,,,,,,,,,,,0.0,11.0,11.0,11.0,1.0,,,,,,,,,,
0.0,1.0,1.648,,,,,,punch1_10s.jpg,0.0,clockno_default.jpg,2.0,22,,,,,,,,,,,,,,,,,,0.0,12.0,12.0,12.0,1.0,,,,,,,,,,
,0.0,,,,,,,safety_pin_02s.jpg,0.0,clockno_up.jpg,3.0,22,,,,,,,,,,,,,,,,,,0.0,13.0,13.0,13.0,1.0,,,,,,,,,,
0.0,1.0,0.675,,,,,,icemaker_10s.jpg,0.0,clockno_default.jpg,3.0,22,,,,,,,,,,,,,,,,,,0.0,14.0,14.0,14.0,1.0,,,,,,,,,,
0.0,1.0,2.37,,,,,,loom_05s.jpg,0.0,clockno_default.jpg,3.0,22,,,,,,,,,,,,,,,,,,0.0,15.0,15.0,15.0,1.0,,,,,,,,,,
,0.0,,,,,,,pipe1_10s.jpg,0.0,clockno_default.jpg,3.0,22,,,,,,,,,,,,,,,,,,0.0,16.0,16.0,16.0,1.0,,,,,,,,,,
,0.0,,,,,,,pillow_03s.jpg,0.0,clockno_default.jpg,3.0,22,,,,,,,,,,,,,,,,,,0.0,17.0,17.0,17.0,1.0,,,,,,,,,,
0.0,1.0,0.665,,,,,,punch2_09s.jpg,0.0,clockno_default.jpg,3.0,22,,,,,,,,,,,,,,,,,,0.0,18.0,18.0,18.0,1.0,,,,,,,,,,
0.0,1.0,0.969,,,,,,ravioli_08s.jpg,0.0,clockno_up.jpg,4.0,22,,,,,,,,,,,,,,,,,,0.0,19.0,19.0,19.0,1.0,,,,,,,,,,
,0.0,,,,,,,key_07s.jpg,0.0,clockno_default.jpg,4.0,22,,,,,,,,,,,,,,,,,,0.0,20.0,20.0,20.0,1.0,,,,,,,,,,
0.0,1.0,1.472,,,,,,light_switch_02s.jpg,0.0,clockno_default.jpg,4.0,22,,,,,,,,,,,,,,,,,,0.0,21.0,21.0,21.0,1.0,,,,,,,,,,
,0.0,,,,,,,birthday_cake_09s.jpg,0.0,clockno_default.jpg,4.0,22,,,,,,,,,,,,,,,,,,0.0,22.0,22.0,22.0,1.0,,,,,,,,,,
0.0,1.0,0.706,,,,,,foam_03s.jpg,0.0,clockno_default.jpg,4.0,22,,,,,,,,,,,,,,,,,,0.0,23.0,23.0,23.0,1.0,,,,,,,,,,
0.0,1.0,0.692,,,,,,meatball_13s.jpg,0.0,clockno_up.jpg,5.0,22,,,,,,,,,,,,,,,,,,0.0,24.0,24.0,24.0,1.0,,,,,,,,,,
,0.0,,,,,,,screwdriver02a.jpg,0.0,clockno_default.jpg,5.0,22,,,,,,,,,,,,,,,,,,0.0,25.0,25.0,25.0,1.0,,,,,,,,,,
0.0,1.0,0.734,,,,,,jewel_01b.jpg,0.0,clockno_default.jpg,5.0,22,,,,,,,,,,,,,,,,,,0.0,26.0,26.0,26.0,1.0,,,,,,,,,,
,0.0,,,,,,,meatball_13s.jpg,1.0,clockno_default.jpg,5.0,22,,,,,,,,,,,,,,,,,,0.0,27.0,27.0,27.0,1.0,,,,,,,,,,
,0.0,,,,,,,screwdriver02a.jpg,1.0,clockno_default.jpg,5.0,22,,,,,,,,,,,,,,,,,,0.0,28.0,28.0,28.0,1.0,,,,,,,,,,
0.0,1.0,1.165,,,,,,jersey_02s.jpg,0.0,clockno_default.jpg,5.0,22,,,,,,,,,,,,,,,,,,0.0,29.0,29.0,29.0,1.0,,,,,,,,,,
0.0,1.0,0.904,,,,,,jukebox_03n.jpg,0.0,clockno_default.jpg,5.0,22,,,,,,,,,,,,,,,,,,0.0,30.0,30.0,30.0,1.0,,,,,,,,,,
,0.0,,,,,,,mousetrap_15n.jpg,0.0,clockno_up.jpg,6.0,22,,,,,,,,,,,,,,,,,,0.0,31.0,31.0,31.0,1.0,,,,,,,,,,
0.0,1.0,1.449,,,,,,bank_06s.jpg,0.0,clockno_default.jpg,6.0,22,,,,,,,,,,,,,,,,,,0.0,32.0,32.0,32.0,1.0,,,,,,,,,,
0.0,1.0,2.472,,,,,,laundry_basket_11s.jpg,0.0,clockno_default.jpg,6.0,22,,,,,,,,,,,,,,,,,,0.0,33.0,33.0,33.0,1.0,,,,,,,,,,
,0.0,,,,,,,margarita_03s.jpg,0.0,clockno_default.jpg,6.0,22,,,,,,,,,,,,,,,,,,0.0,34.0,34.0,34.0,1.0,,,,,,,,,,
0.0,1.0,1.653,,,,,,sundae_08s.jpg,0.0,clockno_default.jpg,6.0,22,,,,,,,,,,,,,,,,,,0.0,35.0,35.0,35.0,1.0,,,,,,,,,,
,,,,,,,,,1.0,,,22,0.0,0.0,0.71,,,,,,jukebox_03n.jpg,laundry_basket_11s.jpg,,,,,,,,,,,,,0.0,0.0,0.0,0.0,1.0,,,,,
,,,,,,,,,0.0,,,22,0.0,1.0,0.682,,,,,,coat_rack_01b.jpg,rug_09s.jpg,,,,,,,,,,,,,0.0,1.0,1.0,1.0,1.0,,,,,
,,,,,,,,,0.0,,,22,0.0,1.0,0.299,,,,,,safety_pin_02s.jpg,stapler_01b.jpg,,,,,,,,,,,,,0.0,2.0,2.0,2.0,1.0,,,,,
,,,,,,,,,0.0,,,22,0.0,1.0,6.566,,,,,,birthday_cake_09s.jpg,ravioli_08s.jpg,,,,,,,,,,,,,0.0,3.0,3.0,3.0,1.0,,,,,
,,,,,,,,,1.0,,,22,0.0,0.0,5.966,,,,,,mousetrap_15n.jpg,margarita_03s.jpg,,,,,,,,,,,,,0.0,4.0,4.0,4.0,1.0,,,,,
,,,,,,,,,0.0,,,22,0.0,1.0,8.153,,,,,,pillow_03s.jpg,icemaker_10s.jpg,,,,,,,,,,,,,0.0,5.0,5.0,5.0,1.0,,,,,
,,,,,,,,,,,,22,,,,,,,,,,,,,,,,clockno_present_2_10.xlsx,clockno_compare_task_2_10.xlsx,,,,,,,,,,,0.0,1.0,1.0,1.0,1.0
0.0,1.0,0.935,,,,,,crayon_09s.jpg,0.0,clockno_up.jpg,1.0,22,,,,,,,,,,,,,,,,,,0.0,0.0,0.0,0.0,1.0,,,,,,,,,,
0.0,1.0,2.131,,,,,,trident_07s.jpg,0.0,clockno_default.jpg,1.0,22,,,,,,,,,,,,,,,,,,0.0,1.0,1.0,1.0,1.0,,,,,,,,,,
,0.0,,,,,,,paintbrush_04s.jpg,0.0,clockno_default.jpg,1.0,22,,,,,,,,,,,,,,,,,,0.0,2.0,2.0,2.0,1.0,,,,,,,,,,
0.0,0.0,0.972,,,,,,paintbrush_04s.jpg,1.0,clockno_default.jpg,1.0,22,,,,,,,,,,,,,,,,,,0.0,3.0,3.0,3.0,1.0,,,,,,,,,,
0.0,0.0,0.688,,,,,,crayon_09s.jpg,1.0,clockno_default.jpg,1.0,22,,,,,,,,,,,,,,,,,,0.0,4.0,4.0,4.0,1.0,,,,,,,,,,
0.0,1.0,1.69,,,,,,dashboard_02s.jpg,0.0,clockno_default.jpg,1.0,22,,,,,,,,,,,,,,,,,,0.0,5.0,5.0,5.0,1.0,,,,,,,,,,
0.0,1.0,0.684,,,,,,laser_pointer_02s.jpg,0.0,clockno_default.jpg,1.0,22,,,,,,,,,,,,,,,,,,0.0,6.0,6.0,6.0,1.0,,,,,,,,,,
0.0,1.0,0.597,,,,,,icicle_04s.jpg,0.0,clockno_up.jpg,2.0,22,,,,,,,,,,,,,,,,,,0.0,7.0,7.0,7.0,1.0,,,,,,,,,,
0.0,1.0,0.397,,,,,,cereal_04s.jpg,0.0,clockno_default.jpg,2.0,22,,,,,,,,,,,,,,,,,,0.0,8.0,8.0,8.0,1.0,,,,,,,,,,
0.0,1.0,0.722,,,,,,teabag_12s.jpg,0.0,clockno_default.jpg,2.0,22,,,,,,,,,,,,,,,,,,0.0,9.0,9.0,9.0,1.0,,,,,,,,,,
0.0,1.0,0.464,,,,,,iron_13s.jpg,0.0,clockno_default.jpg,2.0,22,,,,,,,,,,,,,,,,,,0.0,10.0,10.0,10.0,1.0,,,,,,,,,,
0.0,0.0,1.699,,,,,,teabag_12s.jpg,1.0,clockno_default.jpg,2.0,22,,,,,,,,,,,,,,,,,,0.0,11.0,11.0,11.0,1.0,,,,,,,,,,
0.0,0.0,0.889,,,,,,cereal_04s.jpg,1.0,clockno_default.jpg,2.0,22,,,,,,,,,,,,,,,,,,0.0,12.0,12.0,12.0,1.0,,,,,,,,,,
0.0,1.0,0.74,,,,,,coral_08s.jpg,0.0,clockno_up.jpg,3.0,22,,,,,,,,,,,,,,,,,,0.0,13.0,13.0,13.0,1.0,,,,,,,,,,
0.0,1.0,2.148,,,,,,tape_measure_11s.jpg,0.0,clockno_default.jpg,3.0,22,,,,,,,,,,,,,,,,,,0.0,14.0,14.0,14.0,1.0,,,,,,,,,,
0.0,1.0,0.562,,,,,,chocolate_01b.jpg,0.0,clockno_default.jpg,3.0,22,,,,,,,,,,,,,,,,,,0.0,15.0,15.0,15.0,1.0,,,,,,,,,,
0.0,1.0,0.089,,,,,,iron_13s.jpg,0.0,clockno_default.jpg,3.0,22,,,,,,,,,,,,,,,,,,0.0,16.0,16.0,16.0,1.0,,,,,,,,,,
0.0,0.0,0.147,,,,,,coral_08s.jpg,1.0,clockno_default.jpg,3.0,22,,,,,,,,,,,,,,,,,,0.0,17.0,17.0,17.0,1.0,,,,,,,,,,
0.0,1.0,2.446,,,,,,turnstile_08s.jpg,0.0,clockno_up.jpg,4.0,22,,,,,,,,,,,,,,,,,,0.0,18.0,18.0,18.0,1.0,,,,,,,,,,
0.0,1.0,0.44,,,,,,sparkler_02s.jpg,0.0,clockno_default.jpg,4.0,22,,,,,,,,,,,,,,,,,,0.0,19.0,19.0,19.0,1.0,,,,,,,,,,
0.0,1.0,0.645,,,,,,inhaler_01b.jpg,0.0,clockno_default.jpg,4.0,22,,,,,,,,,,,,,,,,,,0.0,20.0,20.0,20.0,1.0,,,,,,,,,,
0.0,1.0,0.522,,,,,,pencil02a.jpg,0.0,clockno_default.jpg,4.0,22,,,,,,,,,,,,,,,,,,0.0,21.0,21.0,21.0,1.0,,,,,,,,,,
0.0,1.0,0.784,,,,,,bubble_01b.jpg,0.0,clockno_default.jpg,4.0,22,,,,,,,,,,,,,,,,,,0.0,22.0,22.0,22.0,1.0,,,,,,,,,,
,0.0,,,,,,,emerald_02s.jpg,0.0,clockno_default.jpg,4.0,22,,,,,,,,,,,,,,,,,,0.0,23.0,23.0,23.0,1.0,,,,,,,,,,
0.0,1.0,0.64,,,,,,insole_11s.jpg,0.0,clockno_up.jpg,5.0,22,,,,,,,,,,,,,,,,,,0.0,24.0,24.0,24.0,1.0,,,,,,,,,,
0.0,1.0,0.382,,,,,,crayon_09s.jpg,0.0,clockno_default.jpg,5.0,22,,,,,,,,,,,,,,,,,,0.0,25.0,25.0,25.0,1.0,,,,,,,,,,
0.0,1.0,0.599,,,,,,chocolate_01b.jpg,0.0,clockno_default.jpg,5.0,22,,,,,,,,,,,,,,,,,,0.0,26.0,26.0,26.0,1.0,,,,,,,,,,
0.0,1.0,0.382,,,,,,boar_10s.jpg,0.0,clockno_default.jpg,5.0,22,,,,,,,,,,,,,,,,,,0.0,27.0,27.0,27.0,1.0,,,,,,,,,,
0.0,1.0,0.442,,,,,,poinsettia_04s.jpg,0.0,clockno_default.jpg,5.0,22,,,,,,,,,,,,,,,,,,0.0,28.0,28.0,28.0,1.0,,,,,,,,,,
0.0,1.0,0.599,,,,,,bean_06s.jpg,0.0,clockno_default.jpg,5.0,22,,,,,,,,,,,,,,,,,,0.0,29.0,29.0,29.0,1.0,,,,,,,,,,
0.0,1.0,0.563,,,,,,stethoscope_01b.jpg,0.0,clockno_default.jpg,5.0,22,,,,,,,,,,,,,,,,,,0.0,30.0,30.0,30.0,1.0,,,,,,,,,,
0.0,1.0,1.215,,,,,,rice_12s.jpg,0.0,clockno_up.jpg,6.0,22,,,,,,,,,,,,,,,,,,0.0,31.0,31.0,31.0,1.0,,,,,,,,,,
,0.0,,,,,,,camcorder_10s.jpg,0.0,clockno_default.jpg,6.0,22,,,,,,,,,,,,,,,,,,0.0,32.0,32.0,32.0,1.0,,,,,,,,,,
0.0,1.0,0.462,,,,,,glasses01a.jpg,0.0,clockno_default.jpg,6.0,22,,,,,,,,,,,,,,,,,,0.0,33.0,33.0,33.0,1.0,,,,,,,,,,
0.0,1.0,0.431,,,,,,kayak_08s.jpg,0.0,clockno_default.jpg,6.0,22,,,,,,,,,,,,,,,,,,0.0,34.0,34.0,34.0,1.0,,,,,,,,,,
0.0,1.0,0.532,,,,,,triangle_10s.jpg,0.0,clockno_default.jpg,6.0,22,,,,,,,,,,,,,,,,,,0.0,35.0,35.0,35.0,1.0,,,,,,,,,,
,,,,,,,,,1.0,,,22,0.0,0.0,7.214,,,,,,poinsettia_04s.jpg,rice_12s.jpg,,,,,,,,,,,,,0.0,0.0,0.0,0.0,1.0,,,,,
,,,,,,,,,1.0,,,22,0.0,0.0,0.651,,,,,,bean_06s.jpg,camcorder_10s.jpg,,,,,,,,,,,,,0.0,1.0,1.0,1.0,1.0,,,,,
,,,,,,,,,1.0,,,22,0.0,0.0,0.298,,,,,,stethoscope_01b.jpg,glasses01a.jpg,,,,,,,,,,,,,0.0,2.0,2.0,2.0,1.0,,,,,
,,,,,,,,,1.0,,,22,0.0,0.0,0.337,,,,,,sparkler_02s.jpg,bubble_01b.jpg,,,,,,,,,,,,,0.0,3.0,3.0,3.0,1.0,,,,,
,,,,,,,,,0.0,,,22,0.0,1.0,0.338,,,,,,emerald_02s.jpg,inhaler_01b.jpg,,,,,,,,,,,,,0.0,4.0,4.0,4.0,1.0,,,,,
,,,,,,,,,0.0,,,22,0.0,1.0,0.365,,,,,,pencil02a.jpg,turnstile_08s.jpg,,,,,,,,,,,,,0.0,5.0,5.0,5.0,1.0,,,,,
,,,,,,,,,,,,22,,,,,,,,,,,,,,,,clockno_present_3_10.xlsx,clockno_compare_task_3_10.xlsx,,,,,,,,,,,0.0,2.0,2.0,2.0,1.0
0.0,1.0,2.308,,,,,,quad_04s.jpg,0.0,clockno_up.jpg,1.0,22,,,,,,,,,,,,,,,,,,0.0,0.0,0.0,0.0,1.0,,,,,,,,,,
,0.0,,,,,,,quad_04s.jpg,1.0,clockno_default.jpg,1.0,22,,,,,,,,,,,,,,,,,,0.0,1.0,1.0,1.0,1.0,,,,,,,,,,
0.0,1.0,0.604,,,,,,butter_14s.jpg,0.0,clockno_default.jpg,1.0,22,,,,,,,,,,,,,,,,,,0.0,2.0,2.0,2.0,1.0,,,,,,,,,,
0.0,1.0,0.608,,,,,,cardinal_07s.jpg,0.0,clockno_default.jpg,1.0,22,,,,,,,,,,,,,,,,,,0.0,3.0,3.0,3.0,1.0,,,,,,,,,,
0.0,1.0,0.518,,,,,,piano_13n.jpg,0.0,clockno_default.jpg,1.0,22,,,,,,,,,,,,,,,,,,0.0,4.0,4.0,4.0,1.0,,,,,,,,,,
0.0,1.0,0.654,,,,,,sunglasses_11s.jpg,0.0,clockno_up.jpg,2.0,22,,,,,,,,,,,,,,,,,,0.0,5.0,5.0,5.0,1.0,,,,,,,,,,
0.0,1.0,0.621,,,,,,piano_13n.jpg,0.0,clockno_default.jpg,2.0,22,,,,,,,,,,,,,,,,,,0.0,6.0,6.0,6.0,1.0,,,,,,,,,,
0.0,1.0,0.521,,,,,,bacon_05s.jpg,0.0,clockno_default.jpg,2.0,22,,,,,,,,,,,,,,,,,,0.0,7.0,7.0,7.0,1.0,,,,,,,,,,
0.0,1.0,0.338,,,,,,jet_15s.jpg,0.0,clockno_default.jpg,2.0,22,,,,,,,,,,,,,,,,,,0.0,8.0,8.0,8.0,1.0,,,,,,,,,,
0.0,0.0,0.334,,,,,,jet_15s.jpg,1.0,clockno_default.jpg,2.0,22,,,,,,,,,,,,,,,,,,0.0,9.0,9.0,9.0,1.0,,,,,,,,,,
0.0,1.0,0.346,,,,,,ukulele_02s.jpg,0.0,clockno_default.jpg,2.0,22,,,,,,,,,,,,,,,,,,0.0,10.0,10.0,10.0,1.0,,,,,,,,,,
0.0,0.0,1.436,,,,,,jet_15s.jpg,1.0,clockno_default.jpg,2.0,22,,,,,,,,,,,,,,,,,,0.0,11.0,11.0,11.0,1.0,,,,,,,,,,
0.0,1.0,0.614,,,,,,mask_09s.jpg,0.0,clockno_up.jpg,3.0,22,,,,,,,,,,,,,,,,,,0.0,12.0,12.0,12.0,1.0,,,,,,,,,,
0.0,1.0,0.398,,,,,,treadmill_06s.jpg,0.0,clockno_default.jpg,3.0,22,,,,,,,,,,,,,,,,,,0.0,13.0,13.0,13.0,1.0,,,,,,,,,,
0.0,1.0,0.415,,,,,,fondue_07s.jpg,0.0,clockno_default.jpg,3.0,22,,,,,,,,,,,,,,,,,,0.0,14.0,14.0,14.0,1.0,,,,,,,,,,
0.0,1.0,1.114,,,,,,mold2_04s.jpg,0.0,clockno_default.jpg,3.0,22,,,,,,,,,,,,,,,,,,0.0,15.0,15.0,15.0,1.0,,,,,,,,,,
0.0,0.0,0.415,,,,,,mold2_04s.jpg,1.0,clockno_default.jpg,3.0,22,,,,,,,,,,,,,,,,,,0.0,16.0,16.0,16.0,1.0,,,,,,,,,,
0.0,1.0,0.47,,,,,,joystick_01b.jpg,0.0,clockno_up.jpg,4.0,22,,,,,,,,,,,,,,,,,,0.0,17.0,17.0,17.0,1.0,,,,,,,,,,
0.0,1.0,0.448,,,,,,road_sign_05s.jpg,0.0,clockno_default.jpg,4.0,22,,,,,,,,,,,,,,,,,,0.0,18.0,18.0,18.0,1.0,,,,,,,,,,
,0.0,,,,,,,rabbit_03s.jpg,0.0,clockno_default.jpg,4.0,22,,,,,,,,,,,,,,,,,,0.0,19.0,19.0,19.0,1.0,,,,,,,,,,
,0.0,,,,,,,mold2_04s.jpg,0.0,clockno_default.jpg,4.0,22,,,,,,,,,,,,,,,,,,0.0,20.0,20.0,20.0,1.0,,,,,,,,,,
0.0,0.0,2.124,,,,,,joystick_01b.jpg,1.0,clockno_default.jpg,4.0,22,,,,,,,,,,,,,,,,,,0.0,21.0,21.0,21.0,1.0,,,,,,,,,,
0.0,0.0,0.508,,,,,,rabbit_03s.jpg,1.0,clockno_default.jpg,4.0,22,,,,,,,,,,,,,,,,,,0.0,22.0,22.0,22.0,1.0,,,,,,,,,,
,0.0,,,,,,,cap_05s.jpg,0.0,clockno_up.jpg,5.0,22,,,,,,,,,,,,,,,,,,0.0,23.0,23.0,23.0,1.0,,,,,,,,,,
,0.0,,,,,,,doily_13s.jpg,0.0,clockno_default.jpg,5.0,22,,,,,,,,,,,,,,,,,,0.0,24.0,24.0,24.0,1.0,,,,,,,,,,
0.0,1.0,0.614,,,,,,ironing_board_07s.jpg,0.0,clockno_default.jpg,5.0,22,,,,,,,,,,,,,,,,,,0.0,25.0,25.0,25.0,1.0,,,,,,,,,,
0.0,0.0,0.565,,,,,,doily_13s.jpg,1.0,clockno_default.jpg,5.0,22,,,,,,,,,,,,,,,,,,0.0,26.0,26.0,26.0,1.0,,,,,,,,,,
0.0,1.0,0.42,,,,,,lavender_10s.jpg,0.0,clockno_default.jpg,5.0,22,,,,,,,,,,,,,,,,,,0.0,27.0,27.0,27.0,1.0,,,,,,,,,,
0.0,1.0,0.386,,,,,,kilt_18s.jpg,0.0,clockno_default.jpg,5.0,22,,,,,,,,,,,,,,,,,,0.0,28.0,28.0,28.0,1.0,,,,,,,,,,
0.0,1.0,0.529,,,,,,peach_04s.jpg,0.0,clockno_default.jpg,5.0,22,,,,,,,,,,,,,,,,,,0.0,29.0,29.0,29.0,1.0,,,,,,,,,,
,0.0,,,,,,,espresso_01b.jpg,0.0,clockno_up.jpg,6.0,22,,,,,,,,,,,,,,,,,,0.0,30.0,30.0,30.0,1.0,,,,,,,,,,
0.0,1.0,0.396,,,,,,coconut_08s.jpg,0.0,clockno_default.jpg,6.0,22,,,,,,,,,,,,,,,,,,0.0,31.0,31.0,31.0,1.0,,,,,,,,,,
0.0,1.0,0.565,,,,,,slingshot_07s.jpg,0.0,clockno_default.jpg,6.0,22,,,,,,,,,,,,,,,,,,0.0,32.0,32.0,32.0,1.0,,,,,,,,,,
,0.0,,,,,,,swordfish_05s.jpg,0.0,clockno_default.jpg,6.0,22,,,,,,,,,,,,,,,,,,0.0,33.0,33.0,33.0,1.0,,,,,,,,,,
,0.0,,,,,,,tile_08s.jpg,0.0,clockno_default.jpg,6.0,22,,,,,,,,,,,,,,,,,,0.0,34.0,34.0,34.0,1.0,,,,,,,,,,
0.0,1.0,0.953,,,,,,footprint_11s.jpg,0.0,clockno_default.jpg,6.0,22,,,,,,,,,,,,,,,,,,0.0,35.0,35.0,35.0,1.0,,,,,,,,,,
,,,,,,,,,0.0,,,22,0.0,1.0,0.742,,,,,,sunglasses_11s.jpg,butter_14s.jpg,,,,,,,,,,,,,0.0,0.0,0.0,0.0,1.0,,,,,
,,,,,,,,,0.0,,,22,0.0,1.0,0.337,,,,,,treadmill_06s.jpg,ukulele_02s.jpg,,,,,,,,,,,,,0.0,1.0,1.0,1.0,1.0,,,,,
,,,,,,,,,1.0,,,22,0.0,0.0,0.116,,,,,,lavender_10s.jpg,espresso_01b.jpg,,,,,,,,,,,,,0.0,2.0,2.0,2.0,1.0,,,,,
,,,,,,,,,1.0,,,22,0.0,0.0,0.523,,,,,,ironing_board_07s.jpg,kilt_18s.jpg,,,,,,,,,,,,,0.0,3.0,3.0,3.0,1.0,,,,,
,,,,,,,,,0.0,,,22,0.0,1.0,0.282,,,,,,tile_08s.jpg,coconut_08s.jpg,,,,,,,,,,,,,0.0,4.0,4.0,4.0,1.0,,,,,
,,,,,,,,,0.0,,,22,0.0,1.0,0.317,,,,,,footprint_11s.jpg,slingshot_07s.jpg,,,,,,,,,,,,,0.0,5.0,5.0,5.0,1.0,,,,,
,,,,,,,,,,,,22,,,,,,,,,,,,,,,,clockno_present_4_10.xlsx,clockno_compare_task_4_10.xlsx,,,,,,,,,,,0.0,3.0,3.0,3.0,1.0
0.0,1.0,0.608,,,,,,pantyhose_07s.jpg,0.0,clockno_up.jpg,1.0,22,,,,,,,,,,,,,,,,,,0.0,0.0,0.0,0.0,1.0,,,,,,,,,,
0.0,1.0,0.402,,,,,,chime_12s.jpg,0.0,clockno_default.jpg,1.0,22,,,,,,,,,,,,,,,,,,0.0,1.0,1.0,1.0,1.0,,,,,,,,,,
0.0,1.0,0.521,,,,,,smoothie_09s.jpg,0.0,clockno_default.jpg,1.0,22,,,,,,,,,,,,,,,,,,0.0,2.0,2.0,2.0,1.0,,,,,,,,,,
0.0,1.0,0.499,,,,,,tie_03s.jpg,0.0,clockno_default.jpg,1.0,22,,,,,,,,,,,,,,,,,,0.0,3.0,3.0,3.0,1.0,,,,,,,,,,
0.0,1.0,0.538,,,,,,frame_06s.jpg,0.0,clockno_default.jpg,1.0,22,,,,,,,,,,,,,,,,,,0.0,4.0,4.0,4.0,1.0,,,,,,,,,,
0.0,1.0,0.387,,,,,,memory_stick_11s.jpg,0.0,clockno_default.jpg,1.0,22,,,,,,,,,,,,,,,,,,0.0,5.0,5.0,5.0,1.0,,,,,,,,,,
,0.0,,,,,,,limousine_12s.jpg,0.0,clockno_default.jpg,1.0,22,,,,,,,,,,,,,,,,,,0.0,6.0,6.0,6.0,1.0,,,,,,,,,,
0.0,1.0,1.887,,,,,,pineapple_12s.jpg,0.0,clockno_up.jpg,2.0,22,,,,,,,,,,,,,,,,,,0.0,7.0,7.0,7.0,1.0,,,,,,,,,,
0.0,1.0,0.682,,,,,,stopwatch_04s.jpg,0.0,clockno_default.jpg,2.0,22,,,,,,,,,,,,,,,,,,0.0,8.0,8.0,8.0,1.0,,,,,,,,,,
,0.0,,,,,,,pineapple_12s.jpg,1.0,clockno_default.jpg,2.0,22,,,,,,,,,,,,,,,,,,0.0,9.0,9.0,9.0,1.0,,,,,,,,,,
0.0,1.0,0.487,,,,,,squirrel_02s.jpg,0.0,clockno_default.jpg,2.0,22,,,,,,,,,,,,,,,,,,0.0,10.0,10.0,10.0,1.0,,,,,,,,,,
0.0,1.0,1.058,,,,,,puddle_02s.jpg,0.0,clockno_default.jpg,2.0,22,,,,,,,,,,,,,,,,,,0.0,11.0,11.0,11.0,1.0,,,,,,,,,,
0.0,1.0,1.72,,,,,,gas_mask_11s.jpg,0.0,clockno_default.jpg,2.0,22,,,,,,,,,,,,,,,,,,0.0,12.0,12.0,12.0,1.0,,,,,,,,,,
,0.0,,,,,,,golf_club_03s.jpg,0.0,clockno_default.jpg,2.0,22,,,,,,,,,,,,,,,,,,0.0,13.0,13.0,13.0,1.0,,,,,,,,,,
,0.0,,,,,,,rake_06s.jpg,0.0,clockno_up.jpg,3.0,22,,,,,,,,,,,,,,,,,,0.0,14.0,14.0,14.0,1.0,,,,,,,,,,
0.0,0.0,0.464,,,,,,rake_06s.jpg,1.0,clockno_default.jpg,3.0,22,,,,,,,,,,,,,,,,,,0.0,15.0,15.0,15.0,1.0,,,,,,,,,,
0.0,1.0,1.048,,,,,,snowman_02s.jpg,0.0,clockno_default.jpg,3.0,22,,,,,,,,,,,,,,,,,,0.0,16.0,16.0,16.0,1.0,,,,,,,,,,
,0.0,,,,,,,buoy_04s.jpg,0.0,clockno_default.jpg,3.0,22,,,,,,,,,,,,,,,,,,0.0,17.0,17.0,17.0,1.0,,,,,,,,,,
0.0,1.0,1.47,,,,,,crate_05s.jpg,0.0,clockno_default.jpg,3.0,22,,,,,,,,,,,,,,,,,,0.0,18.0,18.0,18.0,1.0,,,,,,,,,,
0.0,1.0,0.54,,,,,,fork_04s.jpg,0.0,clockno_up.jpg,4.0,22,,,,,,,,,,,,,,,,,,0.0,19.0,19.0,19.0,1.0,,,,,,,,,,
0.0,0.0,1.1,,,,,,fork_04s.jpg,1.0,clockno_default.jpg,4.0,22,,,,,,,,,,,,,,,,,,0.0,20.0,20.0,20.0,1.0,,,,,,,,,,
,0.0,,,,,,,frog_09s.jpg,0.0,clockno_default.jpg,4.0,22,,,,,,,,,,,,,,,,,,0.0,21.0,21.0,21.0,1.0,,,,,,,,,,
0.0,1.0,1.232,,,,,,flip_flop_03s.jpg,0.0,clockno_default.jpg,4.0,22,,,,,,,,,,,,,,,,,,0.0,22.0,22.0,22.0,1.0,,,,,,,,,,
,0.0,,,,,,,lamp_08s.jpg,0.0,clockno_default.jpg,4.0,22,,,,,,,,,,,,,,,,,,0.0,23.0,23.0,23.0,1.0,,,,,,,,,,
0.0,1.0,1.972,,,,,,playpen_11s.jpg,0.0,clockno_default.jpg,4.0,22,,,,,,,,,,,,,,,,,,0.0,24.0,24.0,24.0,1.0,,,,,,,,,,
0.0,1.0,1.221,,,,,,crystal_ball_12s.jpg,0.0,clockno_up.jpg,5.0,22,,,,,,,,,,,,,,,,,,0.0,25.0,25.0,25.0,1.0,,,,,,,,,,
0.0,1.0,0.681,,,,,,ram_05s.jpg,0.0,clockno_default.jpg,5.0,22,,,,,,,,,,,,,,,,,,0.0,26.0,26.0,26.0,1.0,,,,,,,,,,
0.0,1.0,1.869,,,,,,teacup_07s.jpg,0.0,clockno_default.jpg,5.0,22,,,,,,,,,,,,,,,,,,0.0,27.0,27.0,27.0,1.0,,,,,,,,,,
0.0,1.0,0.785,,,,,,beaker_01b.jpg,0.0,clockno_default.jpg,5.0,22,,,,,,,,,,,,,,,,,,0.0,28.0,28.0,28.0,1.0,,,,,,,,,,
,0.0,,,,,,,ram_05s.jpg,1.0,clockno_default.jpg,5.0,22,,,,,,,,,,,,,,,,,,0.0,29.0,29.0,29.0,1.0,,,,,,,,,,
0.0,1.0,0.615,,,,,,bottle_opener_11s.jpg,0.0,clockno_up.jpg,6.0,22,,,,,,,,,,,,,,,,,,0.0,30.0,30.0,30.0,1.0,,,,,,,,,,
,0.0,,,,,,,pinwheel_06s.jpg,0.0,clockno_default.jpg,6.0,22,,,,,,,,,,,,,,,,,,0.0,31.0,31.0,31.0,1.0,,,,,,,,,,
0.0,1.0,0.998,,,,,,penguin_16s.jpg,0.0,clockno_default.jpg,6.0,22,,,,,,,,,,,,,,,,,,0.0,32.0,32.0,32.0,1.0,,,,,,,,,,
,0.0,,,,,,,peppermint_07s.jpg,0.0,clockno_default.jpg,6.0,22,,,,,,,,,,,,,,,,,,0.0,33.0,33.0,33.0,1.0,,,,,,,,,,
0.0,1.0,1.837,,,,,,throne_11s.jpg,0.0,clockno_default.jpg,6.0,22,,,,,,,,,,,,,,,,,,0.0,34.0,34.0,34.0,1.0,,,,,,,,,,
0.0,1.0,0.498,,,,,,chime_12s.jpg,0.0,clockno_default.jpg,6.0,22,,,,,,,,,,,,,,,,,,0.0,35.0,35.0,35.0,1.0,,,,,,,,,,
,,,,,,,,,1.0,,,22,0.0,0.0,4.127,,,,,,golf_club_03s.jpg,snowman_02s.jpg,,,,,,,,,,,,,0.0,0.0,0.0,0.0,1.0,,,,,
,,,,,,,,,0.0,,,22,0.0,1.0,0.419,,,,,,frog_09s.jpg,crate_05s.jpg,,,,,,,,,,,,,0.0,1.0,1.0,1.0,1.0,,,,,
,,,,,,,,,1.0,,,22,0.0,0.0,0.182,,,,,,flip_flop_03s.jpg,crystal_ball_12s.jpg,,,,,,,,,,,,,0.0,2.0,2.0,2.0,1.0,,,,,
,,,,,,,,,0.0,,,22,0.0,1.0,0.416,,,,,,tie_03s.jpg,pantyhose_07s.jpg,,,,,,,,,,,,,0.0,3.0,3.0,3.0,1.0,,,,,
,,,,,,,,,0.0,,,22,0.0,1.0,0.331,,,,,,memory_stick_11s.jpg,smoothie_09s.jpg,,,,,,,,,,,,,0.0,4.0,4.0,4.0,1.0,,,,,
,,,,,,,,,0.0,,,22,0.0,1.0,0.471,,,,,,puddle_02s.jpg,stopwatch_04s.jpg,,,,,,,,,,,,,0.0,5.0,5.0,5.0,1.0,,,,,
,,,,,,,,,,,,22,,,,,,,,,,,,,,,,clockno_present_5_10.xlsx,clockno_compare_task_5_10.xlsx,,,,,,,,,,,0.0,4.0,4.0,4.0,1.0
0.0,1.0,0.79,,,,,,potholder_02s.jpg,0.0,clockno_up.jpg,1.0,22,,,,,,,,,,,,,,,,,,0.0,0.0,0.0,0.0,1.0,,,,,,,,,,
0.0,0.0,0.357,,,,,,potholder_02s.jpg,1.0,clockno_default.jpg,1.0,22,,,,,,,,,,,,,,,,,,0.0,1.0,1.0,1.0,1.0,,,,,,,,,,
0.0,1.0,1.715,,,,,,phone_01b.jpg,0.0,clockno_default.jpg,1.0,22,,,,,,,,,,,,,,,,,,0.0,2.0,2.0,2.0,1.0,,,,,,,,,,
0.0,0.0,0.32,,,,,,potholder_02s.jpg,1.0,clockno_default.jpg,1.0,22,,,,,,,,,,,,,,,,,,0.0,3.0,3.0,3.0,1.0,,,,,,,,,,
0.0,0.0,0.724,,,,,,phone_01b.jpg,1.0,clockno_default.jpg,1.0,22,,,,,,,,,,,,,,,,,,0.0,4.0,4.0,4.0,1.0,,,,,,,,,,
0.0,1.0,0.588,,,,,,puck_06s.jpg,0.0,clockno_default.jpg,1.0,22,,,,,,,,,,,,,,,,,,0.0,5.0,5.0,5.0,1.0,,,,,,,,,,
,0.0,,,,,,,bagel_15s.jpg,0.0,clockno_up.jpg,2.0,22,,,,,,,,,,,,,,,,,,0.0,6.0,6.0,6.0,1.0,,,,,,,,,,
0.0,0.0,0.535,,,,,,bagel_15s.jpg,1.0,clockno_default.jpg,2.0,22,,,,,,,,,,,,,,,,,,0.0,7.0,7.0,7.0,1.0,,,,,,,,,,
0.0,1.0,0.42,,,,,,puck_06s.jpg,0.0,clockno_default.jpg,2.0,22,,,,,,,,,,,,,,,,,,0.0,8.0,8.0,8.0,1.0,,,,,,,,,,
,0.0,,,,,,,funnel_01b.jpg,0.0,clockno_default.jpg,2.0,22,,,,,,,,,,,,,,,,,,0.0,9.0,9.0,9.0,1.0,,,,,,,,,,
,0.0,,,,,,,trumpet_06s.jpg,0.0,clockno_default.jpg,2.0,22,,,,,,,,,,,,,,,,,,0.0,10.0,10.0,10.0,1.0,,,,,,,,,,
0.0,1.0,0.403,,,,,,outlet_10s.jpg,0.0,clockno_default.jpg,2.0,22,,,,,,,,,,,,,,,,,,0.0,11.0,11.0,11.0,1.0,,,,,,,,,,
0.0,1.0,0.346,,,,,,reindeer_08s.jpg,0.0,clockno_default.jpg,2.0,22,,,,,,,,,,,,,,,,,,0.0,12.0,12.0,12.0,1.0,,,,,,,,,,
0.0,1.0,0.883,,,,,,tablet_04s.jpg,0.0,clockno_up.jpg,3.0,22,,,,,,,,,,,,,,,,,,0.0,13.0,13.0,13.0,1.0,,,,,,,,,,
,0.0,,,,,,,latte_06s.jpg,0.0,clockno_default.jpg,3.0,22,,,,,,,,,,,,,,,,,,0.0,14.0,14.0,14.0,1.0,,,,,,,,,,
0.0,0.0,0.334,,,,,,latte_06s.jpg,1.0,clockno_default.jpg,3.0,22,,,,,,,,,,,,,,,,,,0.0,15.0,15.0,15.0,1.0,,,,,,,,,,
0.0,1.0,0.381,,,,,,tomato_sauce_09s.jpg,0.0,clockno_default.jpg,3.0,22,,,,,,,,,,,,,,,,,,0.0,16.0,16.0,16.0,1.0,,,,,,,,,,
0.0,1.0,2.007,,,,,,mitten_10s.jpg,0.0,clockno_default.jpg,3.0,22,,,,,,,,,,,,,,,,,,0.0,17.0,17.0,17.0,1.0,,,,,,,,,,
0.0,1.0,0.532,,,,,,otter_05s.jpg,0.0,clockno_up.jpg,4.0,22,,,,,,,,,,,,,,,,,,0.0,18.0,18.0,18.0,1.0,,,,,,,,,,
0.0,1.0,1.42,,,,,,puck_06s.jpg,0.0,clockno_default.jpg,4.0,22,,,,,,,,,,,,,,,,,,0.0,19.0,19.0,19.0,1.0,,,,,,,,,,
0.0,1.0,0.503,,,,,,polar_bear_02s.jpg,0.0,clockno_default.jpg,4.0,22,,,,,,,,,,,,,,,,,,0.0,20.0,20.0,20.0,1.0,,,,,,,,,,
0.0,1.0,0.464,,,,,,crab_16s.jpg,0.0,clockno_default.jpg,4.0,22,,,,,,,,,,,,,,,,,,0.0,21.0,21.0,21.0,1.0,,,,,,,,,,
0.0,1.0,0.599,,,,,,bagel_15s.jpg,0.0,clockno_default.jpg,4.0,22,,,,,,,,,,,,,,,,,,0.0,22.0,22.0,22.0,1.0,,,,,,,,,,
0.0,1.0,0.865,,,,,,radiator_05s.jpg,0.0,clockno_default.jpg,4.0,22,,,,,,,,,,,,,,,,,,0.0,23.0,23.0,23.0,1.0,,,,,,,,,,
0.0,1.0,0.497,,,,,,polaroid_05s.jpg,0.0,clockno_up.jpg,5.0,22,,,,,,,,,,,,,,,,,,0.0,24.0,24.0,24.0,1.0,,,,,,,,,,
,0.0,,,,,,,bee_20s.jpg,0.0,clockno_default.jpg,5.0,22,,,,,,,,,,,,,,,,,,0.0,25.0,25.0,25.0,1.0,,,,,,,,,,
0.0,1.0,0.931,,,,,,swimming_pool_17s.jpg,0.0,clockno_default.jpg,5.0,22,,,,,,,,,,,,,,,,,,0.0,26.0,26.0,26.0,1.0,,,,,,,,,,
0.0,0.0,0.599,,,,,,swimming_pool_17s.jpg,1.0,clockno_default.jpg,5.0,22,,,,,,,,,,,,,,,,,,0.0,27.0,27.0,27.0,1.0,,,,,,,,,,
0.0,1.0,0.588,,,,,,fur_coat_11s.jpg,0.0,clockno_default.jpg,5.0,22,,,,,,,,,,,,,,,,,,0.0,28.0,28.0,28.0,1.0,,,,,,,,,,
0.0,1.0,0.933,,,,,,projector_08s.jpg,0.0,clockno_default.jpg,5.0,22,,,,,,,,,,,,,,,,,,0.0,29.0,29.0,29.0,1.0,,,,,,,,,,
0.0,1.0,0.367,,,,,,raft_09s.jpg,0.0,clockno_default.jpg,5.0,22,,,,,,,,,,,,,,,,,,0.0,30.0,30.0,30.0,1.0,,,,,,,,,,
0.0,1.0,0.87,,,,,,microwave_02s.jpg,0.0,clockno_up.jpg,6.0,22,,,,,,,,,,,,,,,,,,0.0,31.0,31.0,31.0,1.0,,,,,,,,,,
0.0,1.0,0.454,,,,,,bonsai_07s.jpg,0.0,clockno_default.jpg,6.0,22,,,,,,,,,,,,,,,,,,0.0,32.0,32.0,32.0,1.0,,,,,,,,,,
0.0,1.0,0.562,,,,,,torch_02s.jpg,0.0,clockno_default.jpg,6.0,22,,,,,,,,,,,,,,,,,,0.0,33.0,33.0,33.0,1.0,,,,,,,,,,
0.0,1.0,2.419,,,,,,rocket_02s.jpg,0.0,clockno_default.jpg,6.0,22,,,,,,,,,,,,,,,,,,0.0,34.0,34.0,34.0,1.0,,,,,,,,,,
0.0,0.0,0.571,,,,,,rocket_02s.jpg,1.0,clockno_default.jpg,6.0,22,,,,,,,,,,,,,,,,,,0.0,35.0,35.0,35.0,1.0,,,,,,,,,,
,,,,,,,,,1.0,,,22,0.0,0.0,0.544,,,,,,projector_08s.jpg,bonsai_07s.jpg,,,,,,,,,,,,,0.0,0.0,0.0,0.0,1.0,,,,,
,,,,,,,,,0.0,,,22,0.0,1.0,0.175,,,,,,torch_02s.jpg,raft_09s.jpg,,,,,,,,,,,,,0.0,1.0,1.0,1.0,1.0,,,,,
,,,,,,,,,0.0,,,22,0.0,1.0,0.02,,,,,,tablet_04s.jpg,trumpet_06s.jpg,,,,,,,,,,,,,0.0,2.0,2.0,2.0,1.0,,,,,
,,,,,,,,,0.0,,,22,0.0,1.0,0.416,,,,,,reindeer_08s.jpg,funnel_01b.jpg,,,,,,,,,,,,,0.0,3.0,3.0,3.0,1.0,,,,,
,,,,,,,,,1.0,,,22,0.0,0.0,0.15,,,,,,otter_05s.jpg,crab_16s.jpg,,,,,,,,,,,,,0.0,4.0,4.0,4.0,1.0,,,,,
,,,,,,,,,0.0,,,22,0.0,1.0,0.224,,,,,,radiator_05s.jpg,polar_bear_02s.jpg,,,,,,,,,,,,,0.0,5.0,5.0,5.0,1.0,,,,,
