key_resp.keys,key_resp.corr,key_resp.rt,noclock_loop.thisRepN,noclock_loop.thisTrialN,noclock_loop.thisN,noclock_loop.thisIndex,noclock_loop.ran,pictures,answer,clock,segment,participant,key_resp_2.keys,key_resp_2.corr,key_resp_2.rt,noclock_loop2.thisRepN,noclock_loop2.thisTrialN,noclock_loop2.thisN,noclock_loop2.thisIndex,noclock_loop2.ran,item_a,item_b,noclock_condition.thisRepN,noclock_condition.thisTrialN,noclock_condition.thisN,noclock_condition.thisIndex,noclock_condition.ran,present,compare,present_segment.thisRepN,present_segment.thisTrialN,present_segment.thisN,present_segment.thisIndex,present_segment.ran,compare_segment.thisRepN,compare_segment.thisTrialN,compare_segment.thisN,compare_segment.thisIndex,compare_segment.ran,clock_conditions.thisRepN,clock_conditions.thisTrialN,clock_conditions.thisN,clock_conditions.thisIndex,clock_conditions.ran
0.0,1.0,1.665815,0.0,0.0,0.0,0.0,1.0,pillow_03s.jpg,0.0,clockno_up.jpg,1.0,30,,,,,,,,,,,,,,,,,,,,,,,,,,,,,,,,
1.0,1.0,2.1968,0.0,1.0,1.0,1.0,1.0,pillow_03s.jpg,1.0,clockno_default.jpg,1.0,30,,,,,,,,,,,,,,,,,,,,,,,,,,,,,,,,
,0.0,,0.0,2.0,2.0,2.0,1.0,padlock_07s.jpg,0.0,clockno_default.jpg,1.0,30,,,,,,,,,,,,,,,,,,,,,,,,,,,,,,,,
0.0,0.0,1.82742,0.0,3.0,3.0,3.0,1.0,pillow_03s.jpg,1.0,clockno_default.jpg,1.0,30,,,,,,,,,,,,,,,,,,,,,,,,,,,,,,,,
0.0,1.0,0.66084,0.0,4.0,4.0,4.0,1.0,crab_16s.jpg,0.0,clockno_default.jpg,1.0,30,,,,,,,,,,,,,,,,,,,,,,,,,,,,,,,,
0.0,1.0,0.8362,0.0,5.0,5.0,5.0,1.0,exhaust_pipe_10s.jpg,0.0,clockno_default.jpg,1.0,30,,,,,,,,,,,,,,,,,,,,,,,,,,,,,,,,
0.0,1.0,1.161425,0.0,6.0,6.0,6.0,1.0,turkey_10s.jpg,0.0,clockno_up.jpg,2.0,30,,,,,,,,,,,,,,,,,,,,,,,,,,,,,,,,
0.0,1.0,0.746845,0.0,7.0,7.0,7.0,1.0,pomegranate_04s.jpg,0.0,clockno_default.jpg,2.0,30,,,,,,,,,,,,,,,,,,,,,,,,,,,,,,,,
0.0,1.0,0.64596,0.0,8.0,8.0,8.0,1.0,chocolate_01b.jpg,0.0,clockno_default.jpg,2.0,30,,,,,,,,,,,,,,,,,,,,,,,,,,,,,,,,
0.0,1.0,0.74187,0.0,9.0,9.0,9.0,1.0,paper_towel_03s.jpg,0.0,clockno_default.jpg,2.0,30,,,,,,,,,,,,,,,,,,,,,,,,,,,,,,,,
0.0,1.0,1.16978,0.0,10.0,10.0,10.0,1.0,keyhole_03s.jpg,0.0,clockno_default.jpg,2.0,30,,,,,,,,,,,,,,,,,,,,,,,,,,,,,,,,
1.0,1.0,1.417925,0.0,11.0,11.0,11.0,1.0,turkey_10s.jpg,1.0,clockno_default.jpg,2.0,30,,,,,,,,,,,,,,,,,,,,,,,,,,,,,,,,
0.0,1.0,1.00974,0.0,12.0,12.0,12.0,1.0,poinsettia_04s.jpg,0.0,clockno_up.jpg,3.0,30,,,,,,,,,,,,,,,,,,,,,,,,,,,,,,,,
1.0,1.0,1.52887,0.0,13.0,13.0,13.0,1.0,poinsettia_04s.jpg,1.0,clockno_default.jpg,3.0,30,,,,,,,,,,,,,,,,,,,,,,,,,,,,,,,,
0.0,1.0,0.84278,0.0,14.0,14.0,14.0,1.0,tape_measure_11s.jpg,0.0,clockno_default.jpg,3.0,30,,,,,,,,,,,,,,,,,,,,,,,,,,,,,,,,
1.0,1.0,1.27497,0.0,15.0,15.0,15.0,1.0,poinsettia_04s.jpg,1.0,clockno_default.jpg,3.0,30,,,,,,,,,,,,,,,,,,,,,,,,,,,,,,,,
0.0,1.0,0.795205,0.0,16.0,16.0,16.0,1.0,footprint_11s.jpg,0.0,clockno_default.jpg,3.0,30,,,,,,,,,,,,,,,,,,,,,,,,,,,,,,,,
0.0,1.0,1.041725,0.0,17.0,17.0,17.0,1.0,rudder_02s.jpg,0.0,clockno_up.jpg,4.0,30,,,,,,,,,,,,,,,,,,,,,,,,,,,,,,,,
0.0,1.0,1.293635,0.0,18.0,18.0,18.0,1.0,tie_03s.jpg,0.0,clockno_default.jpg,4.0,30,,,,,,,,,,,,,,,,,,,,,,,,,,,,,,,,
0.0,1.0,0.678795,0.0,19.0,19.0,19.0,1.0,sea_urchin_09s.jpg,0.0,clockno_default.jpg,4.0,30,,,,,,,,,,,,,,,,,,,,,,,,,,,,,,,,
0.0,1.0,0.763005,0.0,20.0,20.0,20.0,1.0,bacon_05s.jpg,0.0,clockno_default.jpg,4.0,30,,,,,,,,,,,,,,,,,,,,,,,,,,,,,,,,
0.0,1.0,1.06141,0.0,21.0,21.0,21.0,1.0,peppermint_07s.jpg,0.0,clockno_default.jpg,4.0,30,,,,,,,,,,,,,,,,,,,,,,,,,,,,,,,,
0.0,1.0,0.87816,0.0,22.0,22.0,22.0,1.0,stingray_02s.jpg,0.0,clockno_default.jpg,4.0,30,,,,,,,,,,,,,,,,,,,,,,,,,,,,,,,,
0.0,1.0,1.842195,0.0,23.0,23.0,23.0,1.0,hyena_16s.jpg,0.0,clockno_default.jpg,4.0,30,,,,,,,,,,,,,,,,,,,,,,,,,,,,,,,,
0.0,1.0,1.132475,0.0,24.0,24.0,24.0,1.0,leotard_08s.jpg,0.0,clockno_up.jpg,5.0,30,,,,,,,,,,,,,,,,,,,,,,,,,,,,,,,,
0.0,1.0,0.702285,0.0,25.0,25.0,25.0,1.0,loveseat_08s.jpg,0.0,clockno_default.jpg,5.0,30,,,,,,,,,,,,,,,,,,,,,,,,,,,,,,,,
0.0,1.0,0.88994,0.0,26.0,26.0,26.0,1.0,jetski_10s.jpg,0.0,clockno_default.jpg,5.0,30,,,,,,,,,,,,,,,,,,,,,,,,,,,,,,,,
0.0,1.0,1.208385,0.0,27.0,27.0,27.0,1.0,police_car_01s.jpg,0.0,clockno_default.jpg,5.0,30,,,,,,,,,,,,,,,,,,,,,,,,,,,,,,,,
1.0,1.0,1.071475,0.0,28.0,28.0,28.0,1.0,loveseat_08s.jpg,1.0,clockno_default.jpg,5.0,30,,,,,,,,,,,,,,,,,,,,,,,,,,,,,,,,
1.0,0.0,0.90947,0.0,29.0,29.0,29.0,1.0,tie_03s.jpg,0.0,clockno_default.jpg,5.0,30,,,,,,,,,,,,,,,,,,,,,,,,,,,,,,,,
0.0,1.0,1.01267,0.0,30.0,30.0,30.0,1.0,smoothie_09s.jpg,0.0,clockno_default.jpg,5.0,30,,,,,,,,,,,,,,,,,,,,,,,,,,,,,,,,
0.0,1.0,1.492445,0.0,31.0,31.0,31.0,1.0,mosquito_12s.jpg,0.0,clockno_up.jpg,6.0,30,,,,,,,,,,,,,,,,,,,,,,,,,,,,,,,,
0.0,1.0,1.315835,0.0,32.0,32.0,32.0,1.0,badge_03s.jpg,0.0,clockno_default.jpg,6.0,30,,,,,,,,,,,,,,,,,,,,,,,,,,,,,,,,
0.0,1.0,0.636505,0.0,33.0,33.0,33.0,1.0,seagull_01b.jpg,0.0,clockno_default.jpg,6.0,30,,,,,,,,,,,,,,,,,,,,,,,,,,,,,,,,
0.0,1.0,0.749675,0.0,34.0,34.0,34.0,1.0,rhinoceros_02s.jpg,0.0,clockno_default.jpg,6.0,30,,,,,,,,,,,,,,,,,,,,,,,,,,,,,,,,
1.0,1.0,1.491575,0.0,35.0,35.0,35.0,1.0,badge_03s.jpg,1.0,clockno_default.jpg,6.0,30,,,,,,,,,,,,,,,,,,,,,,,,,,,,,,,,
,,,,,,,,,0.0,,,30,1.0,0.0,2.0922,0.0,0.0,0.0,0.0,1.0,pomegranate_04s.jpg,crab_16s.jpg,,,,,,,,,,,,,,,,,,,,,,
,,,,,,,,,1.0,,,30,0.0,0.0,1.19351,0.0,1.0,1.0,1.0,1.0,exhaust_pipe_10s.jpg,chocolate_01b.jpg,,,,,,,,,,,,,,,,,,,,,,
,,,,,,,,,0.0,,,30,1.0,0.0,1.42807,0.0,2.0,2.0,2.0,1.0,rudder_02s.jpg,tape_measure_11s.jpg,,,,,,,,,,,,,,,,,,,,,,
,,,,,,,,,0.0,,,30,0.0,1.0,2.269185,0.0,3.0,3.0,3.0,1.0,rhinoceros_02s.jpg,mosquito_12s.jpg,,,,,,,,,,,,,,,,,,,,,,
,,,,,,,,,0.0,,,30,0.0,1.0,2.003655,0.0,4.0,4.0,4.0,1.0,stingray_02s.jpg,sea_urchin_09s.jpg,,,,,,,,,,,,,,,,,,,,,,
,,,,,,,,,1.0,,,30,1.0,1.0,1.12546,0.0,5.0,5.0,5.0,1.0,bacon_05s.jpg,hyena_16s.jpg,,,,,,,,,,,,,,,,,,,,,,
,,,,,,,,,,,,30,,,,,,,,,,,0.0,0.0,0.0,0.0,1.0,clockno_present_1_2.xlsx,clockno_compare_task_1_2.xlsx,,,,,,,,,,,,,,,
0.0,1.0,1.17614,0.0,0.0,0.0,0.0,1.0,onion_10s.jpg,0.0,clockno_up.jpg,1.0,30,,,,,,,,,,,,,,,,,,,,,,,,,,,,,,,,
0.0,1.0,0.67519,0.0,1.0,1.0,1.0,1.0,fire_alarm_05s.jpg,0.0,clockno_default.jpg,1.0,30,,,,,,,,,,,,,,,,,,,,,,,,,,,,,,,,
0.0,1.0,0.84508,0.0,2.0,2.0,2.0,1.0,diving_board_07s.jpg,0.0,clockno_default.jpg,1.0,30,,,,,,,,,,,,,,,,,,,,,,,,,,,,,,,,
0.0,1.0,0.61166,0.0,3.0,3.0,3.0,1.0,turnstile_08s.jpg,0.0,clockno_default.jpg,1.0,30,,,,,,,,,,,,,,,,,,,,,,,,,,,,,,,,
1.0,1.0,0.862735,0.0,4.0,4.0,4.0,1.0,onion_10s.jpg,1.0,clockno_default.jpg,1.0,30,,,,,,,,,,,,,,,,,,,,,,,,,,,,,,,,
0.0,1.0,0.81064,0.0,5.0,5.0,5.0,1.0,tripod_01b.jpg,0.0,clockno_default.jpg,1.0,30,,,,,,,,,,,,,,,,,,,,,,,,,,,,,,,,
0.0,1.0,0.7927,0.0,6.0,6.0,6.0,1.0,solar_panel_02s.jpg,0.0,clockno_default.jpg,1.0,30,,,,,,,,,,,,,,,,,,,,,,,,,,,,,,,,
0.0,1.0,1.193145,0.0,7.0,7.0,7.0,1.0,kimono_13s.jpg,0.0,clockno_up.jpg,2.0,30,,,,,,,,,,,,,,,,,,,,,,,,,,,,,,,,
0.0,1.0,0.79582,0.0,8.0,8.0,8.0,1.0,puppy_08s.jpg,0.0,clockno_default.jpg,2.0,30,,,,,,,,,,,,,,,,,,,,,,,,,,,,,,,,
0.0,1.0,0.81011,0.0,9.0,9.0,9.0,1.0,sundae_08s.jpg,0.0,clockno_default.jpg,2.0,30,,,,,,,,,,,,,,,,,,,,,,,,,,,,,,,,
0.0,1.0,0.81107,0.0,10.0,10.0,10.0,1.0,go-kart_10s.jpg,0.0,clockno_default.jpg,2.0,30,,,,,,,,,,,,,,,,,,,,,,,,,,,,,,,,
0.0,1.0,0.792965,0.0,11.0,11.0,11.0,1.0,chalice_10s.jpg,0.0,clockno_default.jpg,2.0,30,,,,,,,,,,,,,,,,,,,,,,,,,,,,,,,,
0.0,1.0,1.146395,0.0,12.0,12.0,12.0,1.0,rope_16s.jpg,0.0,clockno_up.jpg,3.0,30,,,,,,,,,,,,,,,,,,,,,,,,,,,,,,,,
0.0,1.0,0.81592,0.0,13.0,13.0,13.0,1.0,muffin_12n.jpg,0.0,clockno_default.jpg,3.0,30,,,,,,,,,,,,,,,,,,,,,,,,,,,,,,,,
0.0,1.0,0.759835,0.0,14.0,14.0,14.0,1.0,typewriter_11s.jpg,0.0,clockno_default.jpg,3.0,30,,,,,,,,,,,,,,,,,,,,,,,,,,,,,,,,
0.0,1.0,1.03564,0.0,15.0,15.0,15.0,1.0,key_07s.jpg,0.0,clockno_default.jpg,3.0,30,,,,,,,,,,,,,,,,,,,,,,,,,,,,,,,,
0.0,1.0,0.774635,0.0,16.0,16.0,16.0,1.0,mannequin_05s.jpg,0.0,clockno_default.jpg,3.0,30,,,,,,,,,,,,,,,,,,,,,,,,,,,,,,,,
0.0,1.0,1.051055,0.0,17.0,17.0,17.0,1.0,tupperware_09s.jpg,0.0,clockno_default.jpg,3.0,30,,,,,,,,,,,,,,,,,,,,,,,,,,,,,,,,
0.0,1.0,1.10979,0.0,18.0,18.0,18.0,1.0,sleeping_bag_12s.jpg,0.0,clockno_default.jpg,3.0,30,,,,,,,,,,,,,,,,,,,,,,,,,,,,,,,,
0.0,1.0,1.246205,0.0,19.0,19.0,19.0,1.0,lemonade_04s.jpg,0.0,clockno_up.jpg,4.0,30,,,,,,,,,,,,,,,,,,,,,,,,,,,,,,,,
0.0,1.0,0.97866,0.0,20.0,20.0,20.0,1.0,pretzel_09s.jpg,0.0,clockno_default.jpg,4.0,30,,,,,,,,,,,,,,,,,,,,,,,,,,,,,,,,
0.0,1.0,0.62477,0.0,21.0,21.0,21.0,1.0,jet_15s.jpg,0.0,clockno_default.jpg,4.0,30,,,,,,,,,,,,,,,,,,,,,,,,,,,,,,,,
0.0,1.0,0.859725,0.0,22.0,22.0,22.0,1.0,flip_flop_03s.jpg,0.0,clockno_default.jpg,4.0,30,,,,,,,,,,,,,,,,,,,,,,,,,,,,,,,,
0.0,1.0,1.060495,0.0,23.0,23.0,23.0,1.0,air_pump_05s.jpg,0.0,clockno_default.jpg,4.0,30,,,,,,,,,,,,,,,,,,,,,,,,,,,,,,,,
0.0,1.0,1.06002,0.0,24.0,24.0,24.0,1.0,tripod_01b.jpg,0.0,clockno_default.jpg,4.0,30,,,,,,,,,,,,,,,,,,,,,,,,,,,,,,,,
0.0,1.0,0.808415,0.0,25.0,25.0,25.0,1.0,undershirt_02s.jpg,0.0,clockno_up.jpg,5.0,30,,,,,,,,,,,,,,,,,,,,,,,,,,,,,,,,
0.0,0.0,1.359225,0.0,26.0,26.0,26.0,1.0,undershirt_02s.jpg,1.0,clockno_default.jpg,5.0,30,,,,,,,,,,,,,,,,,,,,,,,,,,,,,,,,
0.0,1.0,1.074305,0.0,27.0,27.0,27.0,1.0,bank_06s.jpg,0.0,clockno_default.jpg,5.0,30,,,,,,,,,,,,,,,,,,,,,,,,,,,,,,,,
1.0,1.0,1.82462,0.0,28.0,28.0,28.0,1.0,undershirt_02s.jpg,1.0,clockno_default.jpg,5.0,30,,,,,,,,,,,,,,,,,,,,,,,,,,,,,,,,
0.0,1.0,1.27666,0.0,29.0,29.0,29.0,1.0,lavender_10s.jpg,0.0,clockno_default.jpg,5.0,30,,,,,,,,,,,,,,,,,,,,,,,,,,,,,,,,
0.0,1.0,0.794875,0.0,30.0,30.0,30.0,1.0,sparkler_02s.jpg,0.0,clockno_up.jpg,6.0,30,,,,,,,,,,,,,,,,,,,,,,,,,,,,,,,,
0.0,0.0,1.12535,0.0,31.0,31.0,31.0,1.0,sparkler_02s.jpg,1.0,clockno_default.jpg,6.0,30,,,,,,,,,,,,,,,,,,,,,,,,,,,,,,,,
0.0,1.0,0.871965,0.0,32.0,32.0,32.0,1.0,omelet_07s.jpg,0.0,clockno_default.jpg,6.0,30,,,,,,,,,,,,,,,,,,,,,,,,,,,,,,,,
0.0,1.0,0.765775,0.0,33.0,33.0,33.0,1.0,bathtub_23s.jpg,0.0,clockno_default.jpg,6.0,30,,,,,,,,,,,,,,,,,,,,,,,,,,,,,,,,
0.0,1.0,0.713565,0.0,34.0,34.0,34.0,1.0,crate_05s.jpg,0.0,clockno_default.jpg,6.0,30,,,,,,,,,,,,,,,,,,,,,,,,,,,,,,,,
0.0,1.0,0.72899,0.0,35.0,35.0,35.0,1.0,rocking_horse_03s.jpg,0.0,clockno_default.jpg,6.0,30,,,,,,,,,,,,,,,,,,,,,,,,,,,,,,,,
,,,,,,,,,1.0,,,30,0.0,0.0,1.834655,0.0,0.0,0.0,0.0,1.0,solar_panel_02s.jpg,sundae_08s.jpg,,,,,,,,,,,,,,,,,,,,,,
,,,,,,,,,1.0,,,30,1.0,1.0,1.16304,0.0,1.0,1.0,1.0,1.0,sleeping_bag_12s.jpg,jet_15s.jpg,,,,,,,,,,,,,,,,,,,,,,
,,,,,,,,,0.0,,,30,0.0,1.0,1.556735,0.0,2.0,2.0,2.0,1.0,omelet_07s.jpg,lavender_10s.jpg,,,,,,,,,,,,,,,,,,,,,,
,,,,,,,,,0.0,,,30,0.0,1.0,1.425125,0.0,3.0,3.0,3.0,1.0,go-kart_10s.jpg,kimono_13s.jpg,,,,,,,,,,,,,,,,,,,,,,
,,,,,,,,,0.0,,,30,0.0,1.0,1.0691,0.0,4.0,4.0,4.0,1.0,chalice_10s.jpg,puppy_08s.jpg,,,,,,,,,,,,,,,,,,,,,,
,,,,,,,,,1.0,,,30,0.0,0.0,1.244775,0.0,5.0,5.0,5.0,1.0,rope_16s.jpg,key_07s.jpg,,,,,,,,,,,,,,,,,,,,,,
,,,,,,,,,,,,30,,,,,,,,,,,0.0,1.0,1.0,1.0,1.0,clockno_present_2_2.xlsx,clockno_compare_task_2_2.xlsx,,,,,,,,,,,,,,,
0.0,1.0,1.35508,0.0,0.0,0.0,0.0,1.0,cushion_08s.jpg,0.0,clockno_up.jpg,1.0,30,,,,,,,,,,,,,,,,,,,,,,,,,,,,,,,,
0.0,1.0,0.93109,0.0,1.0,1.0,1.0,1.0,eyedropper_12s.jpg,0.0,clockno_default.jpg,1.0,30,,,,,,,,,,,,,,,,,,,,,,,,,,,,,,,,
0.0,1.0,1.525795,0.0,2.0,2.0,2.0,1.0,projector_08s.jpg,0.0,clockno_default.jpg,1.0,30,,,,,,,,,,,,,,,,,,,,,,,,,,,,,,,,
1.0,1.0,1.79243,0.0,3.0,3.0,3.0,1.0,projector_08s.jpg,1.0,clockno_default.jpg,1.0,30,,,,,,,,,,,,,,,,,,,,,,,,,,,,,,,,
0.0,1.0,0.725185,0.0,4.0,4.0,4.0,1.0,doily_13s.jpg,0.0,clockno_default.jpg,1.0,30,,,,,,,,,,,,,,,,,,,,,,,,,,,,,,,,
0.0,1.0,0.75381,0.0,5.0,5.0,5.0,1.0,dirt_bike_11s.jpg,0.0,clockno_up.jpg,2.0,30,,,,,,,,,,,,,,,,,,,,,,,,,,,,,,,,
0.0,1.0,0.82797,0.0,6.0,6.0,6.0,1.0,pocket_watch_16s.jpg,0.0,clockno_default.jpg,2.0,30,,,,,,,,,,,,,,,,,,,,,,,,,,,,,,,,
0.0,1.0,0.56217,0.0,7.0,7.0,7.0,1.0,lifesaver_10s.jpg,0.0,clockno_default.jpg,2.0,30,,,,,,,,,,,,,,,,,,,,,,,,,,,,,,,,
0.0,1.0,0.9531,0.0,8.0,8.0,8.0,1.0,microwave_02s.jpg,0.0,clockno_default.jpg,2.0,30,,,,,,,,,,,,,,,,,,,,,,,,,,,,,,,,
0.0,1.0,0.64547,0.0,9.0,9.0,9.0,1.0,rice_12s.jpg,0.0,clockno_default.jpg,2.0,30,,,,,,,,,,,,,,,,,,,,,,,,,,,,,,,,
0.0,1.0,0.678725,0.0,10.0,10.0,10.0,1.0,mattress_01s.jpg,0.0,clockno_default.jpg,2.0,30,,,,,,,,,,,,,,,,,,,,,,,,,,,,,,,,
0.0,1.0,0.591545,0.0,11.0,11.0,11.0,1.0,seahorse_13s.jpg,0.0,clockno_default.jpg,2.0,30,,,,,,,,,,,,,,,,,,,,,,,,,,,,,,,,
0.0,1.0,1.1131,0.0,12.0,12.0,12.0,1.0,hummingbird_05s.jpg,0.0,clockno_up.jpg,3.0,30,,,,,,,,,,,,,,,,,,,,,,,,,,,,,,,,
0.0,1.0,0.74426,0.0,13.0,13.0,13.0,1.0,pepper_mill_03s.jpg,0.0,clockno_default.jpg,3.0,30,,,,,,,,,,,,,,,,,,,,,,,,,,,,,,,,
0.0,1.0,1.299825,0.0,14.0,14.0,14.0,1.0,prism_10s.jpg,0.0,clockno_default.jpg,3.0,30,,,,,,,,,,,,,,,,,,,,,,,,,,,,,,,,
1.0,1.0,1.79335,0.0,15.0,15.0,15.0,1.0,pepper_mill_03s.jpg,1.0,clockno_default.jpg,3.0,30,,,,,,,,,,,,,,,,,,,,,,,,,,,,,,,,
0.0,1.0,0.83468,0.0,16.0,16.0,16.0,1.0,taxi_15s.jpg,0.0,clockno_default.jpg,3.0,30,,,,,,,,,,,,,,,,,,,,,,,,,,,,,,,,
0.0,1.0,1.242015,0.0,17.0,17.0,17.0,1.0,amber_04s.jpg,0.0,clockno_up.jpg,4.0,30,,,,,,,,,,,,,,,,,,,,,,,,,,,,,,,,
0.0,1.0,0.75969,0.0,18.0,18.0,18.0,1.0,frog_09s.jpg,0.0,clockno_default.jpg,4.0,30,,,,,,,,,,,,,,,,,,,,,,,,,,,,,,,,
0.0,1.0,0.74289,0.0,19.0,19.0,19.0,1.0,ruby_15s.jpg,0.0,clockno_default.jpg,4.0,30,,,,,,,,,,,,,,,,,,,,,,,,,,,,,,,,
0.0,0.0,2.025775,0.0,20.0,20.0,20.0,1.0,amber_04s.jpg,1.0,clockno_default.jpg,4.0,30,,,,,,,,,,,,,,,,,,,,,,,,,,,,,,,,
0.0,1.0,1.029015,0.0,21.0,21.0,21.0,1.0,peach_04s.jpg,0.0,clockno_default.jpg,4.0,30,,,,,,,,,,,,,,,,,,,,,,,,,,,,,,,,
0.0,1.0,0.794505,0.0,22.0,22.0,22.0,1.0,kilt_18s.jpg,0.0,clockno_default.jpg,4.0,30,,,,,,,,,,,,,,,,,,,,,,,,,,,,,,,,
0.0,1.0,0.81377,0.0,23.0,23.0,23.0,1.0,bee_20s.jpg,0.0,clockno_up.jpg,5.0,30,,,,,,,,,,,,,,,,,,,,,,,,,,,,,,,,
0.0,1.0,0.745865,0.0,24.0,24.0,24.0,1.0,chopsticks_08s.jpg,0.0,clockno_default.jpg,5.0,30,,,,,,,,,,,,,,,,,,,,,,,,,,,,,,,,
1.0,1.0,1.15895,0.0,25.0,25.0,25.0,1.0,bee_20s.jpg,1.0,clockno_default.jpg,5.0,30,,,,,,,,,,,,,,,,,,,,,,,,,,,,,,,,
0.0,1.0,0.77045,0.0,26.0,26.0,26.0,1.0,throne_11s.jpg,0.0,clockno_default.jpg,5.0,30,,,,,,,,,,,,,,,,,,,,,,,,,,,,,,,,
0.0,1.0,0.919435,0.0,27.0,27.0,27.0,1.0,marker_05s.jpg,0.0,clockno_default.jpg,5.0,30,,,,,,,,,,,,,,,,,,,,,,,,,,,,,,,,
0.0,1.0,0.800395,0.0,28.0,28.0,28.0,1.0,rock_08s.jpg,0.0,clockno_default.jpg,5.0,30,,,,,,,,,,,,,,,,,,,,,,,,,,,,,,,,
0.0,1.0,0.933895,0.0,29.0,29.0,29.0,1.0,rake_06s.jpg,0.0,clockno_default.jpg,5.0,30,,,,,,,,,,,,,,,,,,,,,,,,,,,,,,,,
0.0,1.0,0.922405,0.0,30.0,30.0,30.0,1.0,contact_lens_15s.jpg,0.0,clockno_up.jpg,6.0,30,,,,,,,,,,,,,,,,,,,,,,,,,,,,,,,,
0.0,1.0,0.609325,0.0,31.0,31.0,31.0,1.0,ice_pack_09s.jpg,0.0,clockno_default.jpg,6.0,30,,,,,,,,,,,,,,,,,,,,,,,,,,,,,,,,
0.0,1.0,0.760595,0.0,32.0,32.0,32.0,1.0,pinwheel_06s.jpg,0.0,clockno_default.jpg,6.0,30,,,,,,,,,,,,,,,,,,,,,,,,,,,,,,,,
0.0,1.0,0.726215,0.0,33.0,33.0,33.0,1.0,antenna_01b.jpg,0.0,clockno_default.jpg,6.0,30,,,,,,,,,,,,,,,,,,,,,,,,,,,,,,,,
0.0,1.0,0.94128,0.0,34.0,34.0,34.0,1.0,fireworks_18s.jpg,0.0,clockno_default.jpg,6.0,30,,,,,,,,,,,,,,,,,,,,,,,,,,,,,,,,
0.0,1.0,1.13068,0.0,35.0,35.0,35.0,1.0,knitting_needle_04s.jpg,0.0,clockno_default.jpg,6.0,30,,,,,,,,,,,,,,,,,,,,,,,,,,,,,,,,
,,,,,,,,,1.0,,,30,1.0,1.0,1.48985,0.0,0.0,0.0,0.0,1.0,rice_12s.jpg,hummingbird_05s.jpg,,,,,,,,,,,,,,,,,,,,,,
,,,,,,,,,1.0,,,30,1.0,1.0,1.601425,0.0,1.0,1.0,1.0,1.0,seahorse_13s.jpg,prism_10s.jpg,,,,,,,,,,,,,,,,,,,,,,
,,,,,,,,,1.0,,,30,0.0,0.0,1.37112,0.0,2.0,2.0,2.0,1.0,taxi_15s.jpg,ruby_15s.jpg,,,,,,,,,,,,,,,,,,,,,,
,,,,,,,,,0.0,,,30,0.0,1.0,1.65884,0.0,3.0,3.0,3.0,1.0,microwave_02s.jpg,dirt_bike_11s.jpg,,,,,,,,,,,,,,,,,,,,,,
,,,,,,,,,0.0,,,30,0.0,1.0,1.37769,0.0,4.0,4.0,4.0,1.0,doily_13s.jpg,eyedropper_12s.jpg,,,,,,,,,,,,,,,,,,,,,,
,,,,,,,,,1.0,,,30,1.0,1.0,1.35995,0.0,5.0,5.0,5.0,1.0,lifesaver_10s.jpg,mattress_01s.jpg,,,,,,,,,,,,,,,,,,,,,,
,,,,,,,,,,,,30,,,,,,,,,,,0.0,2.0,2.0,2.0,1.0,clockno_present_3_2.xlsx,clockno_compare_task_3_2.xlsx,,,,,,,,,,,,,,,
0.0,1.0,1.05547,0.0,0.0,0.0,0.0,1.0,crayon_09s.jpg,0.0,clockno_up.jpg,1.0,30,,,,,,,,,,,,,,,,,,,,,,,,,,,,,,,,
0.0,1.0,0.96983,0.0,1.0,1.0,1.0,1.0,gargoyle_08s.jpg,0.0,clockno_default.jpg,1.0,30,,,,,,,,,,,,,,,,,,,,,,,,,,,,,,,,
1.0,1.0,1.418495,0.0,2.0,2.0,2.0,1.0,gargoyle_08s.jpg,1.0,clockno_default.jpg,1.0,30,,,,,,,,,,,,,,,,,,,,,,,,,,,,,,,,
0.0,1.0,0.94388,0.0,3.0,3.0,3.0,1.0,ticktacktoe_08s.jpg,0.0,clockno_default.jpg,1.0,30,,,,,,,,,,,,,,,,,,,,,,,,,,,,,,,,
0.0,1.0,0.878745,0.0,4.0,4.0,4.0,1.0,pencil_sharpener_09n.jpg,0.0,clockno_default.jpg,1.0,30,,,,,,,,,,,,,,,,,,,,,,,,,,,,,,,,
0.0,1.0,1.374595,0.0,5.0,5.0,5.0,1.0,pump_11s.jpg,0.0,clockno_up.jpg,2.0,30,,,,,,,,,,,,,,,,,,,,,,,,,,,,,,,,
0.0,1.0,1.011905,0.0,6.0,6.0,6.0,1.0,raspberry_12s.jpg,0.0,clockno_default.jpg,2.0,30,,,,,,,,,,,,,,,,,,,,,,,,,,,,,,,,
0.0,1.0,0.842485,0.0,7.0,7.0,7.0,1.0,red_carpet_03s.jpg,0.0,clockno_default.jpg,2.0,30,,,,,,,,,,,,,,,,,,,,,,,,,,,,,,,,
1.0,0.0,1.03696,0.0,8.0,8.0,8.0,1.0,pencil_sharpener_09n.jpg,0.0,clockno_default.jpg,2.0,30,,,,,,,,,,,,,,,,,,,,,,,,,,,,,,,,
0.0,1.0,0.843715,0.0,9.0,9.0,9.0,1.0,plunger_08s.jpg,0.0,clockno_default.jpg,2.0,30,,,,,,,,,,,,,,,,,,,,,,,,,,,,,,,,
0.0,1.0,0.99292,0.0,10.0,10.0,10.0,1.0,cucumber_07s.jpg,0.0,clockno_default.jpg,2.0,30,,,,,,,,,,,,,,,,,,,,,,,,,,,,,,,,
1.0,1.0,0.95691,0.0,11.0,11.0,11.0,1.0,pump_11s.jpg,1.0,clockno_default.jpg,2.0,30,,,,,,,,,,,,,,,,,,,,,,,,,,,,,,,,
0.0,1.0,0.826695,0.0,12.0,12.0,12.0,1.0,pocketknife_12s.jpg,0.0,clockno_up.jpg,3.0,30,,,,,,,,,,,,,,,,,,,,,,,,,,,,,,,,
0.0,1.0,0.608415,0.0,13.0,13.0,13.0,1.0,roller_coaster_07s.jpg,0.0,clockno_default.jpg,3.0,30,,,,,,,,,,,,,,,,,,,,,,,,,,,,,,,,
0.0,1.0,1.022795,0.0,14.0,14.0,14.0,1.0,golf_club_03s.jpg,0.0,clockno_default.jpg,3.0,30,,,,,,,,,,,,,,,,,,,,,,,,,,,,,,,,
0.0,1.0,0.91852,0.0,15.0,15.0,15.0,1.0,rosary_03s.jpg,0.0,clockno_default.jpg,3.0,30,,,,,,,,,,,,,,,,,,,,,,,,,,,,,,,,
1.0,1.0,0.811415,0.0,16.0,16.0,16.0,1.0,roller_coaster_07s.jpg,1.0,clockno_default.jpg,3.0,30,,,,,,,,,,,,,,,,,,,,,,,,,,,,,,,,
0.0,0.0,1.825685,0.0,17.0,17.0,17.0,1.0,pocketknife_12s.jpg,1.0,clockno_default.jpg,3.0,30,,,,,,,,,,,,,,,,,,,,,,,,,,,,,,,,
0.0,1.0,1.706515,0.0,18.0,18.0,18.0,1.0,gas_mask_11s.jpg,0.0,clockno_up.jpg,4.0,30,,,,,,,,,,,,,,,,,,,,,,,,,,,,,,,,
0.0,1.0,0.542185,0.0,19.0,19.0,19.0,1.0,polaroid_05s.jpg,0.0,clockno_default.jpg,4.0,30,,,,,,,,,,,,,,,,,,,,,,,,,,,,,,,,
0.0,1.0,0.82658,0.0,20.0,20.0,20.0,1.0,rocking_chair_05s.jpg,0.0,clockno_default.jpg,4.0,30,,,,,,,,,,,,,,,,,,,,,,,,,,,,,,,,
0.0,1.0,0.942815,0.0,21.0,21.0,21.0,1.0,pacifier_09s.jpg,0.0,clockno_default.jpg,4.0,30,,,,,,,,,,,,,,,,,,,,,,,,,,,,,,,,
0.0,1.0,1.35777,0.0,22.0,22.0,22.0,1.0,loom_05s.jpg,0.0,clockno_default.jpg,4.0,30,,,,,,,,,,,,,,,,,,,,,,,,,,,,,,,,
0.0,1.0,0.625885,0.0,23.0,23.0,23.0,1.0,bubble_01b.jpg,0.0,clockno_default.jpg,4.0,30,,,,,,,,,,,,,,,,,,,,,,,,,,,,,,,,
1.0,1.0,1.495885,0.0,24.0,24.0,24.0,1.0,rocking_chair_05s.jpg,1.0,clockno_default.jpg,4.0,30,,,,,,,,,,,,,,,,,,,,,,,,,,,,,,,,
0.0,1.0,0.814725,0.0,25.0,25.0,25.0,1.0,hydrant_10s.jpg,0.0,clockno_up.jpg,5.0,30,,,,,,,,,,,,,,,,,,,,,,,,,,,,,,,,
0.0,1.0,0.709045,0.0,26.0,26.0,26.0,1.0,oil_02s.jpg,0.0,clockno_default.jpg,5.0,30,,,,,,,,,,,,,,,,,,,,,,,,,,,,,,,,
0.0,1.0,0.788385,0.0,27.0,27.0,27.0,1.0,racehorse_03s.jpg,0.0,clockno_default.jpg,5.0,30,,,,,,,,,,,,,,,,,,,,,,,,,,,,,,,,
0.0,1.0,0.759575,0.0,28.0,28.0,28.0,1.0,mussel_11s.jpg,0.0,clockno_default.jpg,5.0,30,,,,,,,,,,,,,,,,,,,,,,,,,,,,,,,,
1.0,0.0,1.791205,0.0,29.0,29.0,29.0,1.0,raspberry_12s.jpg,0.0,clockno_default.jpg,5.0,30,,,,,,,,,,,,,,,,,,,,,,,,,,,,,,,,
0.0,1.0,1.54065,0.0,30.0,30.0,30.0,1.0,paper_bag_12s.jpg,0.0,clockno_up.jpg,6.0,30,,,,,,,,,,,,,,,,,,,,,,,,,,,,,,,,
0.0,1.0,0.84478,0.0,31.0,31.0,31.0,1.0,flask_04s.jpg,0.0,clockno_default.jpg,6.0,30,,,,,,,,,,,,,,,,,,,,,,,,,,,,,,,,
0.0,1.0,0.978425,0.0,32.0,32.0,32.0,1.0,triangle_10s.jpg,0.0,clockno_default.jpg,6.0,30,,,,,,,,,,,,,,,,,,,,,,,,,,,,,,,,
0.0,1.0,0.792935,0.0,33.0,33.0,33.0,1.0,sugar_cube_11s.jpg,0.0,clockno_default.jpg,6.0,30,,,,,,,,,,,,,,,,,,,,,,,,,,,,,,,,
0.0,1.0,0.69736,0.0,34.0,34.0,34.0,1.0,thread_08s.jpg,0.0,clockno_default.jpg,6.0,30,,,,,,,,,,,,,,,,,,,,,,,,,,,,,,,,
0.0,1.0,0.766255,0.0,35.0,35.0,35.0,1.0,kitten_07s.jpg,0.0,clockno_default.jpg,6.0,30,,,,,,,,,,,,,,,,,,,,,,,,,,,,,,,,
,,,,,,,,,0.0,,,30,0.0,1.0,1.825645,0.0,0.0,0.0,0.0,1.0,oil_02s.jpg,bubble_01b.jpg,,,,,,,,,,,,,,,,,,,,,,
,,,,,,,,,0.0,,,30,0.0,1.0,1.282665,0.0,1.0,1.0,1.0,1.0,gas_mask_11s.jpg,rosary_03s.jpg,,,,,,,,,,,,,,,,,,,,,,
,,,,,,,,,0.0,,,30,0.0,1.0,1.110995,0.0,2.0,2.0,2.0,1.0,paper_bag_12s.jpg,racehorse_03s.jpg,,,,,,,,,,,,,,,,,,,,,,
,,,,,,,,,0.0,,,30,0.0,1.0,1.41885,0.0,3.0,3.0,3.0,1.0,ticktacktoe_08s.jpg,crayon_09s.jpg,,,,,,,,,,,,,,,,,,,,,,
,,,,,,,,,0.0,,,30,0.0,1.0,1.416195,0.0,4.0,4.0,4.0,1.0,cucumber_07s.jpg,red_carpet_03s.jpg,,,,,,,,,,,,,,,,,,,,,,
,,,,,,,,,1.0,,,30,1.0,1.0,1.477445,0.0,5.0,5.0,5.0,1.0,triangle_10s.jpg,kitten_07s.jpg,,,,,,,,,,,,,,,,,,,,,,
,,,,,,,,,,,,30,,,,,,,,,,,0.0,3.0,3.0,3.0,1.0,clockno_present_4_2.xlsx,clockno_compare_task_4_2.xlsx,,,,,,,,,,,,,,,
0.0,1.0,0.75581,0.0,0.0,0.0,0.0,1.0,limousine_12s.jpg,0.0,clockno_up.jpg,1.0,30,,,,,,,,,,,,,,,,,,,,,,,,,,,,,,,,
0.0,1.0,0.70977,0.0,1.0,1.0,1.0,1.0,memory_stick_11s.jpg,0.0,clockno_default.jpg,1.0,30,,,,,,,,,,,,,,,,,,,,,,,,,,,,,,,,
1.0,1.0,1.594645,0.0,2.0,2.0,2.0,1.0,memory_stick_11s.jpg,1.0,clockno_default.jpg,1.0,30,,,,,,,,,,,,,,,,,,,,,,,,,,,,,,,,
0.0,0.0,2.156935,0.0,3.0,3.0,3.0,1.0,limousine_12s.jpg,1.0,clockno_default.jpg,1.0,30,,,,,,,,,,,,,,,,,,,,,,,,,,,,,,,,
0.0,1.0,0.95821,0.0,4.0,4.0,4.0,1.0,juicer1_08s.jpg,0.0,clockno_default.jpg,1.0,30,,,,,,,,,,,,,,,,,,,,,,,,,,,,,,,,
0.0,1.0,0.76098,0.0,5.0,5.0,5.0,1.0,lipstick_02s.jpg,0.0,clockno_default.jpg,1.0,30,,,,,,,,,,,,,,,,,,,,,,,,,,,,,,,,
0.0,1.0,0.82407,0.0,6.0,6.0,6.0,1.0,possum_09s.jpg,0.0,clockno_up.jpg,2.0,30,,,,,,,,,,,,,,,,,,,,,,,,,,,,,,,,
0.0,1.0,1.15391,0.0,7.0,7.0,7.0,1.0,mug_06s.jpg,0.0,clockno_default.jpg,2.0,30,,,,,,,,,,,,,,,,,,,,,,,,,,,,,,,,
0.0,1.0,0.84601,0.0,8.0,8.0,8.0,1.0,pepper2_21s.jpg,0.0,clockno_default.jpg,2.0,30,,,,,,,,,,,,,,,,,,,,,,,,,,,,,,,,
0.0,1.0,0.69416,0.0,9.0,9.0,9.0,1.0,lab_coat_11s.jpg,0.0,clockno_default.jpg,2.0,30,,,,,,,,,,,,,,,,,,,,,,,,,,,,,,,,
0.0,1.0,0.860425,0.0,10.0,10.0,10.0,1.0,tambourine_06s.jpg,0.0,clockno_default.jpg,2.0,30,,,,,,,,,,,,,,,,,,,,,,,,,,,,,,,,
0.0,1.0,1.08155,0.0,11.0,11.0,11.0,1.0,ostrich_06s.jpg,0.0,clockno_up.jpg,3.0,30,,,,,,,,,,,,,,,,,,,,,,,,,,,,,,,,
0.0,1.0,1.02799,0.0,12.0,12.0,12.0,1.0,incense_02s.jpg,0.0,clockno_default.jpg,3.0,30,,,,,,,,,,,,,,,,,,,,,,,,,,,,,,,,
0.0,1.0,0.677955,0.0,13.0,13.0,13.0,1.0,treasure_08s.jpg,0.0,clockno_default.jpg,3.0,30,,,,,,,,,,,,,,,,,,,,,,,,,,,,,,,,
0.0,1.0,0.76207,0.0,14.0,14.0,14.0,1.0,medal_04s.jpg,0.0,clockno_default.jpg,3.0,30,,,,,,,,,,,,,,,,,,,,,,,,,,,,,,,,
0.0,1.0,0.61119,0.0,15.0,15.0,15.0,1.0,pencil02a.jpg,0.0,clockno_default.jpg,3.0,30,,,,,,,,,,,,,,,,,,,,,,,,,,,,,,,,
0.0,1.0,0.74689,0.0,16.0,16.0,16.0,1.0,toothpaste_12s.jpg,0.0,clockno_default.jpg,3.0,30,,,,,,,,,,,,,,,,,,,,,,,,,,,,,,,,
0.0,1.0,1.71319,0.0,17.0,17.0,17.0,1.0,metronome_03s.jpg,0.0,clockno_default.jpg,3.0,30,,,,,,,,,,,,,,,,,,,,,,,,,,,,,,,,
0.0,1.0,1.52916,0.0,18.0,18.0,18.0,1.0,meatball_13s.jpg,0.0,clockno_up.jpg,4.0,30,,,,,,,,,,,,,,,,,,,,,,,,,,,,,,,,
0.0,1.0,1.30935,0.0,19.0,19.0,19.0,1.0,ink_08s.jpg,0.0,clockno_default.jpg,4.0,30,,,,,,,,,,,,,,,,,,,,,,,,,,,,,,,,
1.0,1.0,2.076015,0.0,20.0,20.0,20.0,1.0,meatball_13s.jpg,1.0,clockno_default.jpg,4.0,30,,,,,,,,,,,,,,,,,,,,,,,,,,,,,,,,
0.0,1.0,0.794365,0.0,21.0,21.0,21.0,1.0,lamb_04s.jpg,0.0,clockno_default.jpg,4.0,30,,,,,,,,,,,,,,,,,,,,,,,,,,,,,,,,
0.0,1.0,0.76587,0.0,22.0,22.0,22.0,1.0,teabag_12s.jpg,0.0,clockno_default.jpg,4.0,30,,,,,,,,,,,,,,,,,,,,,,,,,,,,,,,,
1.0,1.0,1.381345,0.0,23.0,23.0,23.0,1.0,ink_08s.jpg,1.0,clockno_default.jpg,4.0,30,,,,,,,,,,,,,,,,,,,,,,,,,,,,,,,,
0.0,1.0,0.77125,0.0,24.0,24.0,24.0,1.0,touchpad_11s.jpg,0.0,clockno_up.jpg,5.0,30,,,,,,,,,,,,,,,,,,,,,,,,,,,,,,,,
0.0,0.0,1.26236,0.0,25.0,25.0,25.0,1.0,touchpad_11s.jpg,1.0,clockno_default.jpg,5.0,30,,,,,,,,,,,,,,,,,,,,,,,,,,,,,,,,
0.0,1.0,0.610905,0.0,26.0,26.0,26.0,1.0,potpourri_03s.jpg,0.0,clockno_default.jpg,5.0,30,,,,,,,,,,,,,,,,,,,,,,,,,,,,,,,,
0.0,1.0,0.803385,0.0,27.0,27.0,27.0,1.0,knot_01b.jpg,0.0,clockno_default.jpg,5.0,30,,,,,,,,,,,,,,,,,,,,,,,,,,,,,,,,
1.0,0.0,1.725745,0.0,28.0,28.0,28.0,1.0,toothpaste_12s.jpg,0.0,clockno_default.jpg,5.0,30,,,,,,,,,,,,,,,,,,,,,,,,,,,,,,,,
1.0,1.0,0.96768,0.0,29.0,29.0,29.0,1.0,toothpaste_12s.jpg,1.0,clockno_default.jpg,5.0,30,,,,,,,,,,,,,,,,,,,,,,,,,,,,,,,,
1.0,1.0,1.01247,0.0,30.0,30.0,30.0,1.0,touchpad_11s.jpg,1.0,clockno_default.jpg,5.0,30,,,,,,,,,,,,,,,,,,,,,,,,,,,,,,,,
0.0,1.0,1.42637,0.0,31.0,31.0,31.0,1.0,reindeer_08s.jpg,0.0,clockno_up.jpg,6.0,30,,,,,,,,,,,,,,,,,,,,,,,,,,,,,,,,
0.0,0.0,1.260355,0.0,32.0,32.0,32.0,1.0,reindeer_08s.jpg,1.0,clockno_default.jpg,6.0,30,,,,,,,,,,,,,,,,,,,,,,,,,,,,,,,,
0.0,1.0,0.66175,0.0,33.0,33.0,33.0,1.0,popcorn_09s.jpg,0.0,clockno_default.jpg,6.0,30,,,,,,,,,,,,,,,,,,,,,,,,,,,,,,,,
1.0,1.0,2.009235,0.0,34.0,34.0,34.0,1.0,popcorn_09s.jpg,1.0,clockno_default.jpg,6.0,30,,,,,,,,,,,,,,,,,,,,,,,,,,,,,,,,
0.0,1.0,0.561315,0.0,35.0,35.0,35.0,1.0,lava_02s.jpg,0.0,clockno_default.jpg,6.0,30,,,,,,,,,,,,,,,,,,,,,,,,,,,,,,,,
,,,,,,,,,0.0,,,30,1.0,0.0,1.711465,0.0,0.0,0.0,0.0,1.0,pepper2_21s.jpg,lipstick_02s.jpg,,,,,,,,,,,,,,,,,,,,,,
,,,,,,,,,1.0,,,30,0.0,0.0,1.209395,0.0,1.0,1.0,1.0,1.0,juicer1_08s.jpg,mug_06s.jpg,,,,,,,,,,,,,,,,,,,,,,
,,,,,,,,,0.0,,,30,1.0,0.0,1.63146,0.0,2.0,2.0,2.0,1.0,treasure_08s.jpg,tambourine_06s.jpg,,,,,,,,,,,,,,,,,,,,,,
,,,,,,,,,1.0,,,30,0.0,0.0,0.959755,0.0,3.0,3.0,3.0,1.0,medal_04s.jpg,metronome_03s.jpg,,,,,,,,,,,,,,,,,,,,,,
,,,,,,,,,0.0,,,30,1.0,0.0,1.459055,0.0,4.0,4.0,4.0,1.0,lab_coat_11s.jpg,possum_09s.jpg,,,,,,,,,,,,,,,,,,,,,,
,,,,,,,,,0.0,,,30,0.0,1.0,0.961715,0.0,5.0,5.0,5.0,1.0,pencil02a.jpg,incense_02s.jpg,,,,,,,,,,,,,,,,,,,,,,
,,,,,,,,,,,,30,,,,,,,,,,,0.0,4.0,4.0,4.0,1.0,clockno_present_5_2.xlsx,clockno_compare_task_5_2.xlsx,,,,,,,,,,,,,,,
0.0,1.0,1.46759,0.0,0.0,0.0,0.0,1.0,spoon02a.jpg,0.0,clockno_up.jpg,1.0,30,,,,,,,,,,,,,,,,,,,,,,,,,,,,,,,,
0.0,1.0,1.093725,0.0,1.0,1.0,1.0,1.0,target_11s.jpg,0.0,clockno_default.jpg,1.0,30,,,,,,,,,,,,,,,,,,,,,,,,,,,,,,,,
0.0,1.0,1.54376,0.0,2.0,2.0,2.0,1.0,piano_13n.jpg,0.0,clockno_default.jpg,1.0,30,,,,,,,,,,,,,,,,,,,,,,,,,,,,,,,,
0.0,1.0,0.782785,0.0,3.0,3.0,3.0,1.0,pea_11s.jpg,0.0,clockno_default.jpg,1.0,30,,,,,,,,,,,,,,,,,,,,,,,,,,,,,,,,
0.0,1.0,0.758565,0.0,4.0,4.0,4.0,1.0,peanut_butter_08s.jpg,0.0,clockno_default.jpg,1.0,30,,,,,,,,,,,,,,,,,,,,,,,,,,,,,,,,
0.0,1.0,0.79305,0.0,5.0,5.0,5.0,1.0,icicle_04s.jpg,0.0,clockno_default.jpg,1.0,30,,,,,,,,,,,,,,,,,,,,,,,,,,,,,,,,
0.0,1.0,0.762535,0.0,6.0,6.0,6.0,1.0,teapot_03s.jpg,0.0,clockno_default.jpg,1.0,30,,,,,,,,,,,,,,,,,,,,,,,,,,,,,,,,
0.0,1.0,0.759445,0.0,7.0,7.0,7.0,1.0,laser_pointer_02s.jpg,0.0,clockno_up.jpg,2.0,30,,,,,,,,,,,,,,,,,,,,,,,,,,,,,,,,
0.0,0.0,1.227665,0.0,8.0,8.0,8.0,1.0,laser_pointer_02s.jpg,1.0,clockno_default.jpg,2.0,30,,,,,,,,,,,,,,,,,,,,,,,,,,,,,,,,
0.0,1.0,0.730975,0.0,9.0,9.0,9.0,1.0,top_hat_11s.jpg,0.0,clockno_default.jpg,2.0,30,,,,,,,,,,,,,,,,,,,,,,,,,,,,,,,,
0.0,1.0,0.81095,0.0,10.0,10.0,10.0,1.0,playpen_11s.jpg,0.0,clockno_default.jpg,2.0,30,,,,,,,,,,,,,,,,,,,,,,,,,,,,,,,,
0.0,1.0,0.821335,0.0,11.0,11.0,11.0,1.0,ironing_board_07s.jpg,0.0,clockno_default.jpg,2.0,30,,,,,,,,,,,,,,,,,,,,,,,,,,,,,,,,
0.0,1.0,0.97541,0.0,12.0,12.0,12.0,1.0,icemaker_10s.jpg,0.0,clockno_default.jpg,2.0,30,,,,,,,,,,,,,,,,,,,,,,,,,,,,,,,,
0.0,1.0,1.174805,0.0,13.0,13.0,13.0,1.0,espresso_01b.jpg,0.0,clockno_default.jpg,2.0,30,,,,,,,,,,,,,,,,,,,,,,,,,,,,,,,,
0.0,1.0,1.15003,0.0,14.0,14.0,14.0,1.0,penguin_16s.jpg,0.0,clockno_up.jpg,3.0,30,,,,,,,,,,,,,,,,,,,,,,,,,,,,,,,,
0.0,0.0,1.17636,0.0,15.0,15.0,15.0,1.0,penguin_16s.jpg,1.0,clockno_default.jpg,3.0,30,,,,,,,,,,,,,,,,,,,,,,,,,,,,,,,,
0.0,1.0,0.81151,0.0,16.0,16.0,16.0,1.0,inhaler_01b.jpg,0.0,clockno_default.jpg,3.0,30,,,,,,,,,,,,,,,,,,,,,,,,,,,,,,,,
0.0,1.0,0.69518,0.0,17.0,17.0,17.0,1.0,road_sign_05s.jpg,0.0,clockno_default.jpg,3.0,30,,,,,,,,,,,,,,,,,,,,,,,,,,,,,,,,
0.0,1.0,0.875795,0.0,18.0,18.0,18.0,1.0,radio_09s.jpg,0.0,clockno_default.jpg,3.0,30,,,,,,,,,,,,,,,,,,,,,,,,,,,,,,,,
0.0,1.0,1.25927,0.0,19.0,19.0,19.0,1.0,telephone_pole_05s.jpg,0.0,clockno_up.jpg,4.0,30,,,,,,,,,,,,,,,,,,,,,,,,,,,,,,,,
0.0,0.0,1.025,0.0,20.0,20.0,20.0,1.0,telephone_pole_05s.jpg,1.0,clockno_default.jpg,4.0,30,,,,,,,,,,,,,,,,,,,,,,,,,,,,,,,,
0.0,1.0,0.65923,0.0,21.0,21.0,21.0,1.0,lasagna_06s.jpg,0.0,clockno_default.jpg,4.0,30,,,,,,,,,,,,,,,,,,,,,,,,,,,,,,,,
0.0,1.0,0.65883,0.0,22.0,22.0,22.0,1.0,coconut_08s.jpg,0.0,clockno_default.jpg,4.0,30,,,,,,,,,,,,,,,,,,,,,,,,,,,,,,,,
0.0,0.0,1.67769,0.0,23.0,23.0,23.0,1.0,telephone_pole_05s.jpg,1.0,clockno_default.jpg,4.0,30,,,,,,,,,,,,,,,,,,,,,,,,,,,,,,,,
0.0,1.0,1.043415,0.0,24.0,24.0,24.0,1.0,rug_09s.jpg,0.0,clockno_default.jpg,4.0,30,,,,,,,,,,,,,,,,,,,,,,,,,,,,,,,,
0.0,1.0,1.00559,0.0,25.0,25.0,25.0,1.0,phone_01b.jpg,0.0,clockno_up.jpg,5.0,30,,,,,,,,,,,,,,,,,,,,,,,,,,,,,,,,
0.0,1.0,0.84345,0.0,26.0,26.0,26.0,1.0,tuba_12s.jpg,0.0,clockno_default.jpg,5.0,30,,,,,,,,,,,,,,,,,,,,,,,,,,,,,,,,
1.0,1.0,1.29352,0.0,27.0,27.0,27.0,1.0,tuba_12s.jpg,1.0,clockno_default.jpg,5.0,30,,,,,,,,,,,,,,,,,,,,,,,,,,,,,,,,
1.0,0.0,1.159335,0.0,28.0,28.0,28.0,1.0,radio_09s.jpg,0.0,clockno_default.jpg,5.0,30,,,,,,,,,,,,,,,,,,,,,,,,,,,,,,,,
0.0,1.0,1.210435,0.0,29.0,29.0,29.0,1.0,owl_15s.jpg,0.0,clockno_default.jpg,5.0,30,,,,,,,,,,,,,,,,,,,,,,,,,,,,,,,,
0.0,1.0,0.94425,0.0,30.0,30.0,30.0,1.0,ravioli_08s.jpg,0.0,clockno_default.jpg,5.0,30,,,,,,,,,,,,,,,,,,,,,,,,,,,,,,,,
0.0,1.0,1.16237,0.0,31.0,31.0,31.0,1.0,rabbit_03s.jpg,0.0,clockno_up.jpg,6.0,30,,,,,,,,,,,,,,,,,,,,,,,,,,,,,,,,
1.0,0.0,1.022515,0.0,32.0,32.0,32.0,1.0,teapot_03s.jpg,0.0,clockno_default.jpg,6.0,30,,,,,,,,,,,,,,,,,,,,,,,,,,,,,,,,
0.0,1.0,0.84716,0.0,33.0,33.0,33.0,1.0,comic_book_02s.jpg,0.0,clockno_default.jpg,6.0,30,,,,,,,,,,,,,,,,,,,,,,,,,,,,,,,,
0.0,1.0,1.191995,0.0,34.0,34.0,34.0,1.0,spatula04.jpg,0.0,clockno_default.jpg,6.0,30,,,,,,,,,,,,,,,,,,,,,,,,,,,,,,,,
0.0,1.0,0.628775,0.0,35.0,35.0,35.0,1.0,mixer_12s.jpg,0.0,clockno_default.jpg,6.0,30,,,,,,,,,,,,,,,,,,,,,,,,,,,,,,,,
,,,,,,,,,0.0,,,30,0.0,1.0,1.850005,0.0,0.0,0.0,0.0,1.0,phone_01b.jpg,coconut_08s.jpg,,,,,,,,,,,,,,,,,,,,,,
,,,,,,,,,0.0,,,30,0.0,1.0,1.12552,0.0,1.0,1.0,1.0,1.0,comic_book_02s.jpg,ravioli_08s.jpg,,,,,,,,,,,,,,,,,,,,,,
,,,,,,,,,1.0,,,30,0.0,0.0,1.22827,0.0,2.0,2.0,2.0,1.0,espresso_01b.jpg,inhaler_01b.jpg,,,,,,,,,,,,,,,,,,,,,,
,,,,,,,,,0.0,,,30,0.0,1.0,1.459265,0.0,3.0,3.0,3.0,1.0,pea_11s.jpg,spoon02a.jpg,,,,,,,,,,,,,,,,,,,,,,
,,,,,,,,,0.0,,,30,0.0,1.0,1.48028,0.0,4.0,4.0,4.0,1.0,peanut_butter_08s.jpg,target_11s.jpg,,,,,,,,,,,,,,,,,,,,,,
,,,,,,,,,1.0,,,30,1.0,1.0,1.56642,0.0,5.0,5.0,5.0,1.0,piano_13n.jpg,icicle_04s.jpg,,,,,,,,,,,,,,,,,,,,,,
0.0,1.0,0.921045,,,,,,boomerang_06s.jpg,0.0,clock_6_1.png,1.0,30,,,,,,,,,,,,,,,,,,0.0,0.0,0.0,0.0,1.0,,,,,,,,,,
0.0,1.0,1.075055,,,,,,eiffeltower.jpg,0.0,clock_6_2.png,1.0,30,,,,,,,,,,,,,,,,,,0.0,1.0,1.0,1.0,1.0,,,,,,,,,,
0.0,1.0,1.47446,,,,,,bolo_tie_08s.jpg,0.0,clock_6_3.png,1.0,30,,,,,,,,,,,,,,,,,,0.0,2.0,2.0,2.0,1.0,,,,,,,,,,
0.0,1.0,0.958755,,,,,,pear_02s.jpg,0.0,clock_6_4.png,1.0,30,,,,,,,,,,,,,,,,,,0.0,3.0,3.0,3.0,1.0,,,,,,,,,,
0.0,1.0,1.124175,,,,,,lectern_08s.jpg,0.0,clock_6_5.png,1.0,30,,,,,,,,,,,,,,,,,,0.0,4.0,4.0,4.0,1.0,,,,,,,,,,
0.0,0.0,1.16373,,,,,,bolo_tie_08s.jpg,1.0,clock_6_6.png,1.0,30,,,,,,,,,,,,,,,,,,0.0,5.0,5.0,5.0,1.0,,,,,,,,,,
0.0,1.0,1.179605,,,,,,beard_16s.jpg,0.0,clock_7_1.png,2.0,30,,,,,,,,,,,,,,,,,,0.0,6.0,6.0,6.0,1.0,,,,,,,,,,
0.0,1.0,0.845935,,,,,,stethoscope_01b.jpg,0.0,clock_7_2.png,2.0,30,,,,,,,,,,,,,,,,,,0.0,7.0,7.0,7.0,1.0,,,,,,,,,,
0.0,1.0,0.80689,,,,,,safety_pin_02s.jpg,0.0,clock_7_3.png,2.0,30,,,,,,,,,,,,,,,,,,0.0,8.0,8.0,8.0,1.0,,,,,,,,,,
0.0,1.0,0.70753,,,,,,milk_02s.jpg,0.0,clock_7_4.png,2.0,30,,,,,,,,,,,,,,,,,,0.0,9.0,9.0,9.0,1.0,,,,,,,,,,
0.0,1.0,1.407255,,,,,,machine_gun_09s.jpg,0.0,clock_7_5.png,2.0,30,,,,,,,,,,,,,,,,,,0.0,10.0,10.0,10.0,1.0,,,,,,,,,,
0.0,1.0,0.70895,,,,,,trampoline_13s.jpg,0.0,clock_7_6.png,2.0,30,,,,,,,,,,,,,,,,,,0.0,11.0,11.0,11.0,1.0,,,,,,,,,,
0.0,1.0,0.70852,,,,,,mitten_10s.jpg,0.0,clock_7_7.png,2.0,30,,,,,,,,,,,,,,,,,,0.0,12.0,12.0,12.0,1.0,,,,,,,,,,
0.0,1.0,0.72454,,,,,,ice-cream_cone_06s.jpg,0.0,clock_5_1.png,3.0,30,,,,,,,,,,,,,,,,,,0.0,13.0,13.0,13.0,1.0,,,,,,,,,,
0.0,1.0,0.843235,,,,,,mango_09s.jpg,0.0,clock_5_2.png,3.0,30,,,,,,,,,,,,,,,,,,0.0,14.0,14.0,14.0,1.0,,,,,,,,,,
0.0,0.0,1.19136,,,,,,mango_09s.jpg,1.0,clock_5_3.png,3.0,30,,,,,,,,,,,,,,,,,,0.0,15.0,15.0,15.0,1.0,,,,,,,,,,
0.0,1.0,1.056985,,,,,,compass_10n.jpg,0.0,clock_5_4.png,3.0,30,,,,,,,,,,,,,,,,,,0.0,16.0,16.0,16.0,1.0,,,,,,,,,,
0.0,1.0,0.824245,,,,,,tennis_ball_06s.jpg,0.0,clock_5_5.png,3.0,30,,,,,,,,,,,,,,,,,,0.0,17.0,17.0,17.0,1.0,,,,,,,,,,
0.0,1.0,1.09005,,,,,,fork_04s.jpg,0.0,clock_7_1.png,4.0,30,,,,,,,,,,,,,,,,,,0.0,18.0,18.0,18.0,1.0,,,,,,,,,,
0.0,1.0,0.77526,,,,,,timer_03s.jpg,0.0,clock_7_2.png,4.0,30,,,,,,,,,,,,,,,,,,0.0,19.0,19.0,19.0,1.0,,,,,,,,,,
0.0,1.0,0.67431,,,,,,submarine_11n.jpg,0.0,clock_7_3.png,4.0,30,,,,,,,,,,,,,,,,,,0.0,20.0,20.0,20.0,1.0,,,,,,,,,,
0.0,1.0,1.00812,,,,,,fishhook_06s.jpg,0.0,clock_7_4.png,4.0,30,,,,,,,,,,,,,,,,,,0.0,21.0,21.0,21.0,1.0,,,,,,,,,,
0.0,1.0,0.659675,,,,,,tuxedo_01b.jpg,0.0,clock_7_5.png,4.0,30,,,,,,,,,,,,,,,,,,0.0,22.0,22.0,22.0,1.0,,,,,,,,,,
0.0,1.0,0.957555,,,,,,foam_03s.jpg,0.0,clock_7_6.png,4.0,30,,,,,,,,,,,,,,,,,,0.0,23.0,23.0,23.0,1.0,,,,,,,,,,
0.0,1.0,0.890715,,,,,,turf_03s.jpg,0.0,clock_7_7.png,4.0,30,,,,,,,,,,,,,,,,,,0.0,24.0,24.0,24.0,1.0,,,,,,,,,,
0.0,1.0,0.65851,,,,,,pie_08s.jpg,0.0,clock_5_1.png,5.0,30,,,,,,,,,,,,,,,,,,0.0,25.0,25.0,25.0,1.0,,,,,,,,,,
0.0,1.0,0.724495,,,,,,joystick_01b.jpg,0.0,clock_5_2.png,5.0,30,,,,,,,,,,,,,,,,,,0.0,26.0,26.0,26.0,1.0,,,,,,,,,,
0.0,0.0,1.22497,,,,,,pie_08s.jpg,1.0,clock_5_3.png,5.0,30,,,,,,,,,,,,,,,,,,0.0,27.0,27.0,27.0,1.0,,,,,,,,,,
0.0,0.0,1.797935,,,,,,joystick_01b.jpg,1.0,clock_5_4.png,5.0,30,,,,,,,,,,,,,,,,,,0.0,28.0,28.0,28.0,1.0,,,,,,,,,,
0.0,1.0,0.57632,,,,,,ukulele_02s.jpg,0.0,clock_5_5.png,5.0,30,,,,,,,,,,,,,,,,,,0.0,29.0,29.0,29.0,1.0,,,,,,,,,,
0.0,1.0,0.7618,,,,,,lizard_10n.jpg,0.0,clock_6_1.png,6.0,30,,,,,,,,,,,,,,,,,,0.0,30.0,30.0,30.0,1.0,,,,,,,,,,
0.0,1.0,0.576565,,,,,,glasses01a.jpg,0.0,clock_6_2.png,6.0,30,,,,,,,,,,,,,,,,,,0.0,31.0,31.0,31.0,1.0,,,,,,,,,,
0.0,0.0,1.14057,,,,,,glasses01a.jpg,1.0,clock_6_3.png,6.0,30,,,,,,,,,,,,,,,,,,0.0,32.0,32.0,32.0,1.0,,,,,,,,,,
0.0,1.0,0.67588,,,,,,feather02.jpg,0.0,clock_6_4.png,6.0,30,,,,,,,,,,,,,,,,,,0.0,33.0,33.0,33.0,1.0,,,,,,,,,,
0.0,1.0,0.807045,,,,,,mascara_03s.jpg,0.0,clock_6_5.png,6.0,30,,,,,,,,,,,,,,,,,,0.0,34.0,34.0,34.0,1.0,,,,,,,,,,
0.0,1.0,1.01317,,,,,,margarita_03s.jpg,0.0,clock_6_6.png,6.0,30,,,,,,,,,,,,,,,,,,0.0,35.0,35.0,35.0,1.0,,,,,,,,,,
,,,,,,,,,0.0,,,30,1.0,0.0,1.26125,,,,,,submarine_11n.jpg,tennis_ball_06s.jpg,,,,,,,,,,,,,0.0,0.0,0.0,0.0,1.0,,,,,
,,,,,,,,,1.0,,,30,1.0,1.0,1.373415,,,,,,pear_02s.jpg,beard_16s.jpg,,,,,,,,,,,,,0.0,1.0,1.0,1.0,1.0,,,,,
,,,,,,,,,0.0,,,30,0.0,1.0,1.3921,,,,,,stethoscope_01b.jpg,lectern_08s.jpg,,,,,,,,,,,,,0.0,2.0,2.0,2.0,1.0,,,,,
,,,,,,,,,1.0,,,30,0.0,0.0,1.126045,,,,,,safety_pin_02s.jpg,trampoline_13s.jpg,,,,,,,,,,,,,0.0,3.0,3.0,3.0,1.0,,,,,
,,,,,,,,,1.0,,,30,1.0,1.0,1.507855,,,,,,milk_02s.jpg,mitten_10s.jpg,,,,,,,,,,,,,0.0,4.0,4.0,4.0,1.0,,,,,
,,,,,,,,,0.0,,,30,0.0,1.0,1.956925,,,,,,fishhook_06s.jpg,fork_04s.jpg,,,,,,,,,,,,,0.0,5.0,5.0,5.0,1.0,,,,,
,,,,,,,,,,,,30,,,,,,,,,,,,,,,,clock_present_1_2.xlsx,clock_compare_task_1_2.xlsx,,,,,,,,,,,0.0,0.0,0.0,0.0,1.0
0.0,1.0,0.869895,,,,,,butter_14s.jpg,0.0,clock_5_1.png,1.0,30,,,,,,,,,,,,,,,,,,0.0,0.0,0.0,0.0,1.0,,,,,,,,,,
0.0,1.0,0.70684,,,,,,pineapple_12s.jpg,0.0,clock_5_2.png,1.0,30,,,,,,,,,,,,,,,,,,0.0,1.0,1.0,1.0,1.0,,,,,,,,,,
0.0,0.0,1.01628,,,,,,pineapple_12s.jpg,1.0,clock_5_3.png,1.0,30,,,,,,,,,,,,,,,,,,0.0,2.0,2.0,2.0,1.0,,,,,,,,,,
0.0,1.0,0.64567,,,,,,champagne_18s.jpg,0.0,clock_5_4.png,1.0,30,,,,,,,,,,,,,,,,,,0.0,3.0,3.0,3.0,1.0,,,,,,,,,,
0.0,1.0,0.640445,,,,,,funnel_01b.jpg,0.0,clock_5_5.png,1.0,30,,,,,,,,,,,,,,,,,,0.0,4.0,4.0,4.0,1.0,,,,,,,,,,
0.0,1.0,0.675215,,,,,,raft_09s.jpg,0.0,clock_6_1.png,2.0,30,,,,,,,,,,,,,,,,,,0.0,5.0,5.0,5.0,1.0,,,,,,,,,,
0.0,1.0,0.4906,,,,,,jalapeno_15s.jpg,0.0,clock_6_2.png,2.0,30,,,,,,,,,,,,,,,,,,0.0,6.0,6.0,6.0,1.0,,,,,,,,,,
0.0,0.0,0.564075,,,,,,raft_09s.jpg,1.0,clock_6_3.png,2.0,30,,,,,,,,,,,,,,,,,,0.0,7.0,7.0,7.0,1.0,,,,,,,,,,
0.0,1.0,0.813125,,,,,,tortilla_06s.jpg,0.0,clock_6_4.png,2.0,30,,,,,,,,,,,,,,,,,,0.0,8.0,8.0,8.0,1.0,,,,,,,,,,
0.0,1.0,0.888835,,,,,,syringe_02s.jpg,0.0,clock_6_5.png,2.0,30,,,,,,,,,,,,,,,,,,0.0,9.0,9.0,9.0,1.0,,,,,,,,,,
0.0,1.0,0.730315,,,,,,moth_06n.jpg,0.0,clock_6_6.png,2.0,30,,,,,,,,,,,,,,,,,,0.0,10.0,10.0,10.0,1.0,,,,,,,,,,
0.0,1.0,0.65453,,,,,,radiator_05s.jpg,0.0,clock_7_1.png,3.0,30,,,,,,,,,,,,,,,,,,0.0,11.0,11.0,11.0,1.0,,,,,,,,,,
0.0,1.0,0.63874,,,,,,eggshell_14s.jpg,0.0,clock_7_2.png,3.0,30,,,,,,,,,,,,,,,,,,0.0,12.0,12.0,12.0,1.0,,,,,,,,,,
1.0,0.0,2.170825,,,,,,syringe_02s.jpg,0.0,clock_7_3.png,3.0,30,,,,,,,,,,,,,,,,,,0.0,13.0,13.0,13.0,1.0,,,,,,,,,,
0.0,1.0,0.642315,,,,,,mousetrap_15n.jpg,0.0,clock_7_4.png,3.0,30,,,,,,,,,,,,,,,,,,0.0,14.0,14.0,14.0,1.0,,,,,,,,,,
0.0,1.0,0.837615,,,,,,machete_06s.jpg,0.0,clock_7_5.png,3.0,30,,,,,,,,,,,,,,,,,,0.0,15.0,15.0,15.0,1.0,,,,,,,,,,
0.0,0.0,0.937425,,,,,,machete_06s.jpg,1.0,clock_7_6.png,3.0,30,,,,,,,,,,,,,,,,,,0.0,16.0,16.0,16.0,1.0,,,,,,,,,,
0.0,0.0,0.571795,,,,,,eggshell_14s.jpg,1.0,clock_7_7.png,3.0,30,,,,,,,,,,,,,,,,,,0.0,17.0,17.0,17.0,1.0,,,,,,,,,,
0.0,1.0,0.788065,,,,,,kettle_08s.jpg,0.0,clock_5_1.png,4.0,30,,,,,,,,,,,,,,,,,,0.0,18.0,18.0,18.0,1.0,,,,,,,,,,
0.0,1.0,0.62231,,,,,,soccer_ball_12s.jpg,0.0,clock_5_2.png,4.0,30,,,,,,,,,,,,,,,,,,0.0,19.0,19.0,19.0,1.0,,,,,,,,,,
0.0,1.0,0.683675,,,,,,snowman_02s.jpg,0.0,clock_5_3.png,4.0,30,,,,,,,,,,,,,,,,,,0.0,20.0,20.0,20.0,1.0,,,,,,,,,,
0.0,1.0,0.812515,,,,,,magnet_03s.jpg,0.0,clock_5_4.png,4.0,30,,,,,,,,,,,,,,,,,,0.0,21.0,21.0,21.0,1.0,,,,,,,,,,
0.0,1.0,1.224115,,,,,,surfboard_11s.jpg,0.0,clock_5_5.png,4.0,30,,,,,,,,,,,,,,,,,,0.0,22.0,22.0,22.0,1.0,,,,,,,,,,
0.0,1.0,0.99213,,,,,,birthday_cake_09s.jpg,0.0,clock_6_1.png,5.0,30,,,,,,,,,,,,,,,,,,0.0,23.0,23.0,23.0,1.0,,,,,,,,,,
0.0,1.0,0.653285,,,,,,rocket_02s.jpg,0.0,clock_6_2.png,5.0,30,,,,,,,,,,,,,,,,,,0.0,24.0,24.0,24.0,1.0,,,,,,,,,,
0.0,1.0,0.63805,,,,,,crystal_ball_12s.jpg,0.0,clock_6_3.png,5.0,30,,,,,,,,,,,,,,,,,,0.0,25.0,25.0,25.0,1.0,,,,,,,,,,
0.0,1.0,0.57454,,,,,,quilt_03s.jpg,0.0,clock_6_4.png,5.0,30,,,,,,,,,,,,,,,,,,0.0,26.0,26.0,26.0,1.0,,,,,,,,,,
0.0,1.0,0.727555,,,,,,tinsel_12s.jpg,0.0,clock_6_5.png,5.0,30,,,,,,,,,,,,,,,,,,0.0,27.0,27.0,27.0,1.0,,,,,,,,,,
0.0,1.0,0.95046,,,,,,fire_pit_10s.jpg,0.0,clock_6_6.png,5.0,30,,,,,,,,,,,,,,,,,,0.0,28.0,28.0,28.0,1.0,,,,,,,,,,
0.0,1.0,0.854765,,,,,,puppet_01b.jpg,0.0,clock_7_1.png,6.0,30,,,,,,,,,,,,,,,,,,0.0,29.0,29.0,29.0,1.0,,,,,,,,,,
0.0,0.0,1.420175,,,,,,puppet_01b.jpg,1.0,clock_7_2.png,6.0,30,,,,,,,,,,,,,,,,,,0.0,30.0,30.0,30.0,1.0,,,,,,,,,,
0.0,1.0,0.82283,,,,,,slingshot_07s.jpg,0.0,clock_7_3.png,6.0,30,,,,,,,,,,,,,,,,,,0.0,31.0,31.0,31.0,1.0,,,,,,,,,,
0.0,1.0,0.55497,,,,,,thumbtack_14s.jpg,0.0,clock_7_4.png,6.0,30,,,,,,,,,,,,,,,,,,0.0,32.0,32.0,32.0,1.0,,,,,,,,,,
0.0,1.0,1.007655,,,,,,pantyhose_07s.jpg,0.0,clock_7_5.png,6.0,30,,,,,,,,,,,,,,,,,,0.0,33.0,33.0,33.0,1.0,,,,,,,,,,
1.0,0.0,1.39189,,,,,,moth_06n.jpg,0.0,clock_7_6.png,6.0,30,,,,,,,,,,,,,,,,,,0.0,34.0,34.0,34.0,1.0,,,,,,,,,,
0.0,1.0,0.709485,,,,,,thorn_13s.jpg,0.0,clock_7_7.png,6.0,30,,,,,,,,,,,,,,,,,,0.0,35.0,35.0,35.0,1.0,,,,,,,,,,
,,,,,,,,,0.0,,,30,0.0,1.0,1.541305,,,,,,jalapeno_15s.jpg,champagne_18s.jpg,,,,,,,,,,,,,0.0,0.0,0.0,0.0,1.0,,,,,
,,,,,,,,,1.0,,,30,0.0,0.0,1.23835,,,,,,tortilla_06s.jpg,radiator_05s.jpg,,,,,,,,,,,,,0.0,1.0,1.0,1.0,1.0,,,,,
,,,,,,,,,1.0,,,30,1.0,1.0,1.737925,,,,,,snowman_02s.jpg,birthday_cake_09s.jpg,,,,,,,,,,,,,0.0,2.0,2.0,2.0,1.0,,,,,
,,,,,,,,,1.0,,,30,0.0,0.0,1.2689,,,,,,thumbtack_14s.jpg,thorn_13s.jpg,,,,,,,,,,,,,0.0,3.0,3.0,3.0,1.0,,,,,
,,,,,,,,,0.0,,,30,0.0,1.0,1.52749,,,,,,magnet_03s.jpg,kettle_08s.jpg,,,,,,,,,,,,,0.0,4.0,4.0,4.0,1.0,,,,,
,,,,,,,,,1.0,,,30,0.0,0.0,1.437095,,,,,,soccer_ball_12s.jpg,surfboard_11s.jpg,,,,,,,,,,,,,0.0,5.0,5.0,5.0,1.0,,,,,
,,,,,,,,,,,,30,,,,,,,,,,,,,,,,clock_present_2_2.xlsx,clock_compare_task_2_2.xlsx,,,,,,,,,,,0.0,1.0,1.0,1.0,1.0
0.0,1.0,0.883055,,,,,,latch_15s.jpg,0.0,clock_6_1.png,1.0,30,,,,,,,,,,,,,,,,,,0.0,0.0,0.0,0.0,1.0,,,,,,,,,,
0.0,1.0,0.58477,,,,,,ladder_15s.jpg,0.0,clock_6_2.png,1.0,30,,,,,,,,,,,,,,,,,,0.0,1.0,1.0,1.0,1.0,,,,,,,,,,
0.0,1.0,0.488895,,,,,,duck_01b.jpg,0.0,clock_6_3.png,1.0,30,,,,,,,,,,,,,,,,,,0.0,2.0,2.0,2.0,1.0,,,,,,,,,,
1.0,1.0,1.30428,,,,,,duck_01b.jpg,1.0,clock_6_4.png,1.0,30,,,,,,,,,,,,,,,,,,0.0,3.0,3.0,3.0,1.0,,,,,,,,,,
0.0,1.0,0.54783,,,,,,cape_11s.jpg,0.0,clock_6_5.png,1.0,30,,,,,,,,,,,,,,,,,,0.0,4.0,4.0,4.0,1.0,,,,,,,,,,
0.0,0.0,0.56542,,,,,,duck_01b.jpg,1.0,clock_6_6.png,1.0,30,,,,,,,,,,,,,,,,,,0.0,5.0,5.0,5.0,1.0,,,,,,,,,,
0.0,1.0,0.2349,,,,,,tomato_sauce_09s.jpg,0.0,clock_6_1.png,2.0,30,,,,,,,,,,,,,,,,,,0.0,6.0,6.0,6.0,1.0,,,,,,,,,,
0.0,1.0,0.455705,,,,,,spacesuit_02s.jpg,0.0,clock_6_2.png,2.0,30,,,,,,,,,,,,,,,,,,0.0,7.0,7.0,7.0,1.0,,,,,,,,,,
1.0,1.0,0.690935,,,,,,spacesuit_02s.jpg,1.0,clock_6_3.png,2.0,30,,,,,,,,,,,,,,,,,,0.0,8.0,8.0,8.0,1.0,,,,,,,,,,
0.0,1.0,0.79585,,,,,,bagel_15s.jpg,0.0,clock_6_4.png,2.0,30,,,,,,,,,,,,,,,,,,0.0,9.0,9.0,9.0,1.0,,,,,,,,,,
0.0,0.0,1.171885,,,,,,tomato_sauce_09s.jpg,1.0,clock_6_5.png,2.0,30,,,,,,,,,,,,,,,,,,0.0,10.0,10.0,10.0,1.0,,,,,,,,,,
1.0,1.0,1.177225,,,,,,spacesuit_02s.jpg,1.0,clock_6_6.png,2.0,30,,,,,,,,,,,,,,,,,,0.0,11.0,11.0,11.0,1.0,,,,,,,,,,
0.0,1.0,0.707935,,,,,,treadmill_06s.jpg,0.0,clock_7_1.png,3.0,30,,,,,,,,,,,,,,,,,,0.0,12.0,12.0,12.0,1.0,,,,,,,,,,
0.0,1.0,0.801535,,,,,,blowfish_03s.jpg,0.0,clock_7_2.png,3.0,30,,,,,,,,,,,,,,,,,,0.0,13.0,13.0,13.0,1.0,,,,,,,,,,
0.0,1.0,0.827055,,,,,,fox_13s.jpg,0.0,clock_7_3.png,3.0,30,,,,,,,,,,,,,,,,,,0.0,14.0,14.0,14.0,1.0,,,,,,,,,,
0.0,1.0,0.772745,,,,,,tongs_08s.jpg,0.0,clock_7_4.png,3.0,30,,,,,,,,,,,,,,,,,,0.0,15.0,15.0,15.0,1.0,,,,,,,,,,
0.0,1.0,0.860855,,,,,,tape_06s.jpg,0.0,clock_7_5.png,3.0,30,,,,,,,,,,,,,,,,,,0.0,16.0,16.0,16.0,1.0,,,,,,,,,,
0.0,1.0,0.82566,,,,,,quad_04s.jpg,0.0,clock_7_6.png,3.0,30,,,,,,,,,,,,,,,,,,0.0,17.0,17.0,17.0,1.0,,,,,,,,,,
0.0,1.0,0.68841,,,,,,pillbox_04s.jpg,0.0,clock_7_7.png,3.0,30,,,,,,,,,,,,,,,,,,0.0,18.0,18.0,18.0,1.0,,,,,,,,,,
0.0,1.0,0.96202,,,,,,perfume_06s.jpg,0.0,clock_5_1.png,4.0,30,,,,,,,,,,,,,,,,,,0.0,19.0,19.0,19.0,1.0,,,,,,,,,,
1.0,0.0,0.719905,,,,,,tomato_sauce_09s.jpg,0.0,clock_5_2.png,4.0,30,,,,,,,,,,,,,,,,,,0.0,20.0,20.0,20.0,1.0,,,,,,,,,,
0.0,1.0,0.84483,,,,,,trumpet_06s.jpg,0.0,clock_5_3.png,4.0,30,,,,,,,,,,,,,,,,,,0.0,21.0,21.0,21.0,1.0,,,,,,,,,,
1.0,1.0,0.98899,,,,,,perfume_06s.jpg,1.0,clock_5_4.png,4.0,30,,,,,,,,,,,,,,,,,,0.0,22.0,22.0,22.0,1.0,,,,,,,,,,
0.0,1.0,0.70059,,,,,,blazer_02s.jpg,0.0,clock_5_5.png,4.0,30,,,,,,,,,,,,,,,,,,0.0,23.0,23.0,23.0,1.0,,,,,,,,,,
0.0,1.0,0.793465,,,,,,bean_06s.jpg,0.0,clock_7_1.png,5.0,30,,,,,,,,,,,,,,,,,,0.0,24.0,24.0,24.0,1.0,,,,,,,,,,
1.0,1.0,1.06077,,,,,,bean_06s.jpg,1.0,clock_7_2.png,5.0,30,,,,,,,,,,,,,,,,,,0.0,25.0,25.0,25.0,1.0,,,,,,,,,,
0.0,1.0,0.73953,,,,,,bonsai_07s.jpg,0.0,clock_7_3.png,5.0,30,,,,,,,,,,,,,,,,,,0.0,26.0,26.0,26.0,1.0,,,,,,,,,,
0.0,1.0,0.804115,,,,,,stamp2_08s.jpg,0.0,clock_7_4.png,5.0,30,,,,,,,,,,,,,,,,,,0.0,27.0,27.0,27.0,1.0,,,,,,,,,,
1.0,1.0,0.879045,,,,,,stamp2_08s.jpg,1.0,clock_7_5.png,5.0,30,,,,,,,,,,,,,,,,,,0.0,28.0,28.0,28.0,1.0,,,,,,,,,,
0.0,1.0,0.79229,,,,,,fondue_07s.jpg,0.0,clock_7_6.png,5.0,30,,,,,,,,,,,,,,,,,,0.0,29.0,29.0,29.0,1.0,,,,,,,,,,
0.0,1.0,0.89431,,,,,,outlet_10s.jpg,0.0,clock_7_7.png,5.0,30,,,,,,,,,,,,,,,,,,0.0,30.0,30.0,30.0,1.0,,,,,,,,,,
0.0,1.0,0.555945,,,,,,rhubarb_03s.jpg,0.0,clock_5_1.png,6.0,30,,,,,,,,,,,,,,,,,,0.0,31.0,31.0,31.0,1.0,,,,,,,,,,
0.0,1.0,0.71371,,,,,,purse_05s.jpg,0.0,clock_5_2.png,6.0,30,,,,,,,,,,,,,,,,,,0.0,32.0,32.0,32.0,1.0,,,,,,,,,,
0.0,1.0,0.95958,,,,,,puck_06s.jpg,0.0,clock_5_3.png,6.0,30,,,,,,,,,,,,,,,,,,0.0,33.0,33.0,33.0,1.0,,,,,,,,,,
1.0,0.0,1.536495,,,,,,bean_06s.jpg,0.0,clock_5_4.png,6.0,30,,,,,,,,,,,,,,,,,,0.0,34.0,34.0,34.0,1.0,,,,,,,,,,
0.0,1.0,0.788805,,,,,,popsicle_02s.jpg,0.0,clock_5_5.png,6.0,30,,,,,,,,,,,,,,,,,,0.0,35.0,35.0,35.0,1.0,,,,,,,,,,
,,,,,,,,,0.0,,,30,1.0,0.0,2.068725,,,,,,puck_06s.jpg,outlet_10s.jpg,,,,,,,,,,,,,0.0,0.0,0.0,0.0,1.0,,,,,
,,,,,,,,,0.0,,,30,1.0,0.0,1.057945,,,,,,treadmill_06s.jpg,bagel_15s.jpg,,,,,,,,,,,,,0.0,1.0,1.0,1.0,1.0,,,,,
,,,,,,,,,0.0,,,30,0.0,1.0,1.22126,,,,,,trumpet_06s.jpg,pillbox_04s.jpg,,,,,,,,,,,,,0.0,2.0,2.0,2.0,1.0,,,,,
,,,,,,,,,1.0,,,30,0.0,0.0,1.70444,,,,,,ladder_15s.jpg,cape_11s.jpg,,,,,,,,,,,,,0.0,3.0,3.0,3.0,1.0,,,,,
,,,,,,,,,1.0,,,30,0.0,0.0,1.12471,,,,,,blowfish_03s.jpg,tape_06s.jpg,,,,,,,,,,,,,0.0,4.0,4.0,4.0,1.0,,,,,
,,,,,,,,,1.0,,,30,0.0,0.0,1.109915,,,,,,fox_13s.jpg,quad_04s.jpg,,,,,,,,,,,,,0.0,5.0,5.0,5.0,1.0,,,,,
,,,,,,,,,,,,30,,,,,,,,,,,,,,,,clock_present_3_2.xlsx,clock_compare_task_3_2.xlsx,,,,,,,,,,,0.0,2.0,2.0,2.0,1.0
0.0,1.0,0.714035,,,,,,kite_04s.jpg,0.0,clock_7_1.png,1.0,30,,,,,,,,,,,,,,,,,,0.0,0.0,0.0,0.0,1.0,,,,,,,,,,
0.0,1.0,0.745135,,,,,,bowler_hat_10s.jpg,0.0,clock_7_2.png,1.0,30,,,,,,,,,,,,,,,,,,0.0,1.0,1.0,1.0,1.0,,,,,,,,,,
0.0,1.0,0.52403,,,,,,spider_web_03s.jpg,0.0,clock_7_3.png,1.0,30,,,,,,,,,,,,,,,,,,0.0,2.0,2.0,2.0,1.0,,,,,,,,,,
0.0,1.0,0.78666,,,,,,toad_09s.jpg,0.0,clock_7_4.png,1.0,30,,,,,,,,,,,,,,,,,,0.0,3.0,3.0,3.0,1.0,,,,,,,,,,
0.0,1.0,0.886075,,,,,,trident_07s.jpg,0.0,clock_7_5.png,1.0,30,,,,,,,,,,,,,,,,,,0.0,4.0,4.0,4.0,1.0,,,,,,,,,,
0.0,1.0,0.61071,,,,,,jelly_bean_06s.jpg,0.0,clock_7_6.png,1.0,30,,,,,,,,,,,,,,,,,,0.0,5.0,5.0,5.0,1.0,,,,,,,,,,
0.0,0.0,0.599095,,,,,,kite_04s.jpg,1.0,clock_7_7.png,1.0,30,,,,,,,,,,,,,,,,,,0.0,6.0,6.0,6.0,1.0,,,,,,,,,,
0.0,1.0,0.80343,,,,,,quill_09s.jpg,0.0,clock_5_1.png,2.0,30,,,,,,,,,,,,,,,,,,0.0,7.0,7.0,7.0,1.0,,,,,,,,,,
0.0,1.0,0.52795,,,,,,power_line_08s.jpg,0.0,clock_5_2.png,2.0,30,,,,,,,,,,,,,,,,,,0.0,8.0,8.0,8.0,1.0,,,,,,,,,,
1.0,1.0,1.060995,,,,,,power_line_08s.jpg,1.0,clock_5_3.png,2.0,30,,,,,,,,,,,,,,,,,,0.0,9.0,9.0,9.0,1.0,,,,,,,,,,
0.0,1.0,0.67357,,,,,,punch2_09s.jpg,0.0,clock_5_4.png,2.0,30,,,,,,,,,,,,,,,,,,0.0,10.0,10.0,10.0,1.0,,,,,,,,,,
0.0,1.0,0.696125,,,,,,boar_10s.jpg,0.0,clock_5_5.png,2.0,30,,,,,,,,,,,,,,,,,,0.0,11.0,11.0,11.0,1.0,,,,,,,,,,
0.0,1.0,0.90883,,,,,,puffin_19s.jpg,0.0,clock_7_1.png,3.0,30,,,,,,,,,,,,,,,,,,0.0,12.0,12.0,12.0,1.0,,,,,,,,,,
0.0,1.0,0.645435,,,,,,stamp1_11s.jpg,0.0,clock_7_2.png,3.0,30,,,,,,,,,,,,,,,,,,0.0,13.0,13.0,13.0,1.0,,,,,,,,,,
0.0,1.0,1.015805,,,,,,lamp_08s.jpg,0.0,clock_7_3.png,3.0,30,,,,,,,,,,,,,,,,,,0.0,14.0,14.0,14.0,1.0,,,,,,,,,,
0.0,1.0,0.90546,,,,,,mop_08s.jpg,0.0,clock_7_4.png,3.0,30,,,,,,,,,,,,,,,,,,0.0,15.0,15.0,15.0,1.0,,,,,,,,,,
0.0,1.0,1.22052,,,,,,gong_02s.jpg,0.0,clock_7_5.png,3.0,30,,,,,,,,,,,,,,,,,,0.0,16.0,16.0,16.0,1.0,,,,,,,,,,
0.0,1.0,0.64607,,,,,,petri_dish_12s.jpg,0.0,clock_7_6.png,3.0,30,,,,,,,,,,,,,,,,,,0.0,17.0,17.0,17.0,1.0,,,,,,,,,,
0.0,1.0,0.637995,,,,,,kayak_08s.jpg,0.0,clock_7_7.png,3.0,30,,,,,,,,,,,,,,,,,,0.0,18.0,18.0,18.0,1.0,,,,,,,,,,
0.0,1.0,0.8161,,,,,,stopwatch_04s.jpg,0.0,clock_5_1.png,4.0,30,,,,,,,,,,,,,,,,,,0.0,19.0,19.0,19.0,1.0,,,,,,,,,,
0.0,1.0,0.777575,,,,,,umbrella_15s.jpg,0.0,clock_5_2.png,4.0,30,,,,,,,,,,,,,,,,,,0.0,20.0,20.0,20.0,1.0,,,,,,,,,,
1.0,0.0,0.906235,,,,,,punch2_09s.jpg,0.0,clock_5_3.png,4.0,30,,,,,,,,,,,,,,,,,,0.0,21.0,21.0,21.0,1.0,,,,,,,,,,
1.0,1.0,0.776225,,,,,,stopwatch_04s.jpg,1.0,clock_5_4.png,4.0,30,,,,,,,,,,,,,,,,,,0.0,22.0,22.0,22.0,1.0,,,,,,,,,,
0.0,1.0,0.638455,,,,,,toy_04s.jpg,0.0,clock_5_5.png,4.0,30,,,,,,,,,,,,,,,,,,0.0,23.0,23.0,23.0,1.0,,,,,,,,,,
0.0,1.0,0.721615,,,,,,peeler_06s.jpg,0.0,clock_6_1.png,5.0,30,,,,,,,,,,,,,,,,,,0.0,24.0,24.0,24.0,1.0,,,,,,,,,,
0.0,1.0,0.79194,,,,,,teacup_07s.jpg,0.0,clock_6_2.png,5.0,30,,,,,,,,,,,,,,,,,,0.0,25.0,25.0,25.0,1.0,,,,,,,,,,
1.0,1.0,1.09161,,,,,,peeler_06s.jpg,1.0,clock_6_3.png,5.0,30,,,,,,,,,,,,,,,,,,0.0,26.0,26.0,26.0,1.0,,,,,,,,,,
0.0,1.0,1.14165,,,,,,razor_12s.jpg,0.0,clock_6_4.png,5.0,30,,,,,,,,,,,,,,,,,,0.0,27.0,27.0,27.0,1.0,,,,,,,,,,
0.0,1.0,0.82918,,,,,,rollerskate_03s.jpg,0.0,clock_6_5.png,5.0,30,,,,,,,,,,,,,,,,,,0.0,28.0,28.0,28.0,1.0,,,,,,,,,,
0.0,1.0,0.920925,,,,,,coffee_filter_10s.jpg,0.0,clock_6_6.png,5.0,30,,,,,,,,,,,,,,,,,,0.0,29.0,29.0,29.0,1.0,,,,,,,,,,
0.0,1.0,0.67559,,,,,,squirrel_02s.jpg,0.0,clock_6_1.png,6.0,30,,,,,,,,,,,,,,,,,,0.0,30.0,30.0,30.0,1.0,,,,,,,,,,
0.0,1.0,0.712605,,,,,,punch1_10s.jpg,0.0,clock_6_2.png,6.0,30,,,,,,,,,,,,,,,,,,0.0,31.0,31.0,31.0,1.0,,,,,,,,,,
0.0,1.0,0.76196,,,,,,tulip_02s.jpg,0.0,clock_6_3.png,6.0,30,,,,,,,,,,,,,,,,,,0.0,32.0,32.0,32.0,1.0,,,,,,,,,,
0.0,1.0,0.67048,,,,,,lip_gloss_06s.jpg,0.0,clock_6_4.png,6.0,30,,,,,,,,,,,,,,,,,,0.0,33.0,33.0,33.0,1.0,,,,,,,,,,
0.0,1.0,0.60395,,,,,,dashboard_02s.jpg,0.0,clock_6_5.png,6.0,30,,,,,,,,,,,,,,,,,,0.0,34.0,34.0,34.0,1.0,,,,,,,,,,
0.0,1.0,0.67819,,,,,,pipe1_10s.jpg,0.0,clock_6_6.png,6.0,30,,,,,,,,,,,,,,,,,,0.0,35.0,35.0,35.0,1.0,,,,,,,,,,
,,,,,,,,,0.0,,,30,0.0,1.0,1.968655,,,,,,quill_09s.jpg,trident_07s.jpg,,,,,,,,,,,,,0.0,0.0,0.0,0.0,1.0,,,,,
,,,,,,,,,1.0,,,30,0.0,0.0,1.455555,,,,,,boar_10s.jpg,lamp_08s.jpg,,,,,,,,,,,,,0.0,1.0,1.0,1.0,1.0,,,,,
,,,,,,,,,1.0,,,30,1.0,1.0,1.73536,,,,,,razor_12s.jpg,squirrel_02s.jpg,,,,,,,,,,,,,0.0,2.0,2.0,2.0,1.0,,,,,
,,,,,,,,,0.0,,,30,0.0,1.0,1.160445,,,,,,jelly_bean_06s.jpg,spider_web_03s.jpg,,,,,,,,,,,,,0.0,3.0,3.0,3.0,1.0,,,,,
,,,,,,,,,0.0,,,30,0.0,1.0,1.46867,,,,,,mop_08s.jpg,puffin_19s.jpg,,,,,,,,,,,,,0.0,4.0,4.0,4.0,1.0,,,,,
,,,,,,,,,0.0,,,30,1.0,0.0,1.65692,,,,,,gong_02s.jpg,stamp1_11s.jpg,,,,,,,,,,,,,0.0,5.0,5.0,5.0,1.0,,,,,
,,,,,,,,,,,,30,,,,,,,,,,,,,,,,clock_present_4_2.xlsx,clock_compare_task_4_2.xlsx,,,,,,,,,,,0.0,3.0,3.0,3.0,1.0
0.0,1.0,0.669285,,,,,,dynamite_01b.jpg,0.0,clock_5_1.png,1.0,30,,,,,,,,,,,,,,,,,,0.0,0.0,0.0,0.0,1.0,,,,,,,,,,
1.0,1.0,1.423365,,,,,,dynamite_01b.jpg,1.0,clock_5_2.png,1.0,30,,,,,,,,,,,,,,,,,,0.0,1.0,1.0,1.0,1.0,,,,,,,,,,
0.0,1.0,0.760665,,,,,,sushi_08s.jpg,0.0,clock_5_3.png,1.0,30,,,,,,,,,,,,,,,,,,0.0,2.0,2.0,2.0,1.0,,,,,,,,,,
1.0,1.0,1.110085,,,,,,dynamite_01b.jpg,1.0,clock_5_4.png,1.0,30,,,,,,,,,,,,,,,,,,0.0,3.0,3.0,3.0,1.0,,,,,,,,,,
1.0,1.0,0.99769,,,,,,dynamite_01b.jpg,1.0,clock_5_5.png,1.0,30,,,,,,,,,,,,,,,,,,0.0,4.0,4.0,4.0,1.0,,,,,,,,,,
0.0,1.0,0.799175,,,,,,kangaroo_02s.jpg,0.0,clock_7_1.png,2.0,30,,,,,,,,,,,,,,,,,,0.0,5.0,5.0,5.0,1.0,,,,,,,,,,
1.0,1.0,0.941415,,,,,,kangaroo_02s.jpg,1.0,clock_7_2.png,2.0,30,,,,,,,,,,,,,,,,,,0.0,6.0,6.0,6.0,1.0,,,,,,,,,,
1.0,1.0,1.341465,,,,,,kangaroo_02s.jpg,1.0,clock_7_3.png,2.0,30,,,,,,,,,,,,,,,,,,0.0,7.0,7.0,7.0,1.0,,,,,,,,,,
0.0,1.0,0.874825,,,,,,swordfish_05s.jpg,0.0,clock_7_4.png,2.0,30,,,,,,,,,,,,,,,,,,0.0,8.0,8.0,8.0,1.0,,,,,,,,,,
0.0,1.0,0.892755,,,,,,aluminum_foil_08s.jpg,0.0,clock_7_5.png,2.0,30,,,,,,,,,,,,,,,,,,0.0,9.0,9.0,9.0,1.0,,,,,,,,,,
0.0,1.0,0.87325,,,,,,towel_rack_04s.jpg,0.0,clock_7_6.png,2.0,30,,,,,,,,,,,,,,,,,,0.0,10.0,10.0,10.0,1.0,,,,,,,,,,
1.0,1.0,1.340965,,,,,,kangaroo_02s.jpg,1.0,clock_7_7.png,2.0,30,,,,,,,,,,,,,,,,,,0.0,11.0,11.0,11.0,1.0,,,,,,,,,,
0.0,1.0,0.80924,,,,,,refrigerator_07s.jpg,0.0,clock_6_1.png,3.0,30,,,,,,,,,,,,,,,,,,0.0,12.0,12.0,12.0,1.0,,,,,,,,,,
0.0,1.0,1.10818,,,,,,soda_fountain_03s.jpg,0.0,clock_6_2.png,3.0,30,,,,,,,,,,,,,,,,,,0.0,13.0,13.0,13.0,1.0,,,,,,,,,,
1.0,1.0,1.32364,,,,,,soda_fountain_03s.jpg,1.0,clock_6_3.png,3.0,30,,,,,,,,,,,,,,,,,,0.0,14.0,14.0,14.0,1.0,,,,,,,,,,
0.0,1.0,0.758285,,,,,,ladle_04s.jpg,0.0,clock_6_4.png,3.0,30,,,,,,,,,,,,,,,,,,0.0,15.0,15.0,15.0,1.0,,,,,,,,,,
0.0,1.0,0.87444,,,,,,iron_13s.jpg,0.0,clock_6_5.png,3.0,30,,,,,,,,,,,,,,,,,,0.0,16.0,16.0,16.0,1.0,,,,,,,,,,
1.0,1.0,1.140995,,,,,,iron_13s.jpg,1.0,clock_6_6.png,3.0,30,,,,,,,,,,,,,,,,,,0.0,17.0,17.0,17.0,1.0,,,,,,,,,,
0.0,1.0,1.50418,,,,,,tweezers_03s.jpg,0.0,clock_7_1.png,4.0,30,,,,,,,,,,,,,,,,,,0.0,18.0,18.0,18.0,1.0,,,,,,,,,,
0.0,1.0,1.49727,,,,,,piggy_bank_02s.jpg,0.0,clock_7_2.png,4.0,30,,,,,,,,,,,,,,,,,,0.0,19.0,19.0,19.0,1.0,,,,,,,,,,
0.0,1.0,1.17808,,,,,,toilet_paper_12s.jpg,0.0,clock_7_3.png,4.0,30,,,,,,,,,,,,,,,,,,0.0,20.0,20.0,20.0,1.0,,,,,,,,,,
0.0,1.0,0.912475,,,,,,denture_03s.jpg,0.0,clock_7_4.png,4.0,30,,,,,,,,,,,,,,,,,,0.0,21.0,21.0,21.0,1.0,,,,,,,,,,
0.0,1.0,0.948795,,,,,,orchid_01b.jpg,0.0,clock_7_5.png,4.0,30,,,,,,,,,,,,,,,,,,0.0,22.0,22.0,22.0,1.0,,,,,,,,,,
0.0,1.0,1.2941,,,,,,gazelle_10s.jpg,0.0,clock_7_6.png,4.0,30,,,,,,,,,,,,,,,,,,0.0,23.0,23.0,23.0,1.0,,,,,,,,,,
0.0,1.0,1.293405,,,,,,lantern_04s.jpg,0.0,clock_7_7.png,4.0,30,,,,,,,,,,,,,,,,,,0.0,24.0,24.0,24.0,1.0,,,,,,,,,,
0.0,1.0,2.011305,,,,,,lid_10s.jpg,0.0,clock_6_1.png,5.0,30,,,,,,,,,,,,,,,,,,0.0,25.0,25.0,25.0,1.0,,,,,,,,,,
,0.0,,,,,,,totem_pole_05s.jpg,0.0,clock_6_2.png,5.0,30,,,,,,,,,,,,,,,,,,0.0,26.0,26.0,26.0,1.0,,,,,,,,,,
0.0,1.0,0.62837,,,,,,checkbook_11s.jpg,0.0,clock_6_3.png,5.0,30,,,,,,,,,,,,,,,,,,0.0,27.0,27.0,27.0,1.0,,,,,,,,,,
0.0,1.0,0.71054,,,,,,crossbow_10s.jpg,0.0,clock_6_4.png,5.0,30,,,,,,,,,,,,,,,,,,0.0,28.0,28.0,28.0,1.0,,,,,,,,,,
0.0,1.0,0.57876,,,,,,measuring_cup_02s.jpg,0.0,clock_6_5.png,5.0,30,,,,,,,,,,,,,,,,,,0.0,29.0,29.0,29.0,1.0,,,,,,,,,,
0.0,1.0,0.96126,,,,,,ant_12s.jpg,0.0,clock_6_6.png,5.0,30,,,,,,,,,,,,,,,,,,0.0,30.0,30.0,30.0,1.0,,,,,,,,,,
0.0,1.0,1.05497,,,,,,blender_08s.jpg,0.0,clock_5_1.png,6.0,30,,,,,,,,,,,,,,,,,,0.0,31.0,31.0,31.0,1.0,,,,,,,,,,
0.0,1.0,0.65854,,,,,,gingerbread_man_03s.jpg,0.0,clock_5_2.png,6.0,30,,,,,,,,,,,,,,,,,,0.0,32.0,32.0,32.0,1.0,,,,,,,,,,
0.0,1.0,0.64111,,,,,,panda_02s.jpg,0.0,clock_5_3.png,6.0,30,,,,,,,,,,,,,,,,,,0.0,33.0,33.0,33.0,1.0,,,,,,,,,,
0.0,1.0,0.57718,,,,,,quesadilla_07s.jpg,0.0,clock_5_4.png,6.0,30,,,,,,,,,,,,,,,,,,0.0,34.0,34.0,34.0,1.0,,,,,,,,,,
1.0,0.0,1.14142,,,,,,dynamite_01b.jpg,0.0,clock_5_5.png,6.0,30,,,,,,,,,,,,,,,,,,0.0,35.0,35.0,35.0,1.0,,,,,,,,,,
,,,,,,,,,0.0,,,30,0.0,1.0,1.621,,,,,,refrigerator_07s.jpg,aluminum_foil_08s.jpg,,,,,,,,,,,,,0.0,0.0,0.0,0.0,1.0,,,,,
,,,,,,,,,0.0,,,30,1.0,0.0,1.524835,,,,,,gingerbread_man_03s.jpg,measuring_cup_02s.jpg,,,,,,,,,,,,,0.0,1.0,1.0,1.0,1.0,,,,,
,,,,,,,,,1.0,,,30,0.0,0.0,1.275855,,,,,,ant_12s.jpg,panda_02s.jpg,,,,,,,,,,,,,0.0,2.0,2.0,2.0,1.0,,,,,
,,,,,,,,,1.0,,,30,0.0,0.0,1.32376,,,,,,tweezers_03s.jpg,denture_03s.jpg,,,,,,,,,,,,,0.0,3.0,3.0,3.0,1.0,,,,,
,,,,,,,,,1.0,,,30,0.0,0.0,1.31496,,,,,,piggy_bank_02s.jpg,orchid_01b.jpg,,,,,,,,,,,,,0.0,4.0,4.0,4.0,1.0,,,,,
,,,,,,,,,1.0,,,30,0.0,0.0,1.326175,,,,,,toilet_paper_12s.jpg,gazelle_10s.jpg,,,,,,,,,,,,,0.0,5.0,5.0,5.0,1.0,,,,,
,,,,,,,,,,,,30,,,,,,,,,,,,,,,,clock_present_5_2.xlsx,clock_compare_task_5_2.xlsx,,,,,,,,,,,0.0,4.0,4.0,4.0,1.0
1.0,0.0,1.78488,,,,,,coral_08s.jpg,0.0,clock_7_1.png,1.0,30,,,,,,,,,,,,,,,,,,0.0,0.0,0.0,0.0,1.0,,,,,,,,,,
1.0,1.0,0.839,,,,,,coral_08s.jpg,1.0,clock_7_2.png,1.0,30,,,,,,,,,,,,,,,,,,0.0,1.0,1.0,1.0,1.0,,,,,,,,,,
0.0,1.0,0.610255,,,,,,puddle_02s.jpg,0.0,clock_7_3.png,1.0,30,,,,,,,,,,,,,,,,,,0.0,2.0,2.0,2.0,1.0,,,,,,,,,,
0.0,1.0,0.62276,,,,,,laundry_basket_11s.jpg,0.0,clock_7_4.png,1.0,30,,,,,,,,,,,,,,,,,,0.0,3.0,3.0,3.0,1.0,,,,,,,,,,
0.0,1.0,0.77777,,,,,,ring_03s.jpg,0.0,clock_7_5.png,1.0,30,,,,,,,,,,,,,,,,,,0.0,4.0,4.0,4.0,1.0,,,,,,,,,,
0.0,1.0,0.68757,,,,,,luggage_08s.jpg,0.0,clock_7_6.png,1.0,30,,,,,,,,,,,,,,,,,,0.0,5.0,5.0,5.0,1.0,,,,,,,,,,
0.0,1.0,0.84787,,,,,,tiara_05s.jpg,0.0,clock_7_7.png,1.0,30,,,,,,,,,,,,,,,,,,0.0,6.0,6.0,6.0,1.0,,,,,,,,,,
0.0,1.0,0.68434,,,,,,mask_09s.jpg,0.0,clock_5_1.png,2.0,30,,,,,,,,,,,,,,,,,,0.0,7.0,7.0,7.0,1.0,,,,,,,,,,
0.0,1.0,0.50717,,,,,,licorice_06s.jpg,0.0,clock_5_2.png,2.0,30,,,,,,,,,,,,,,,,,,0.0,8.0,8.0,8.0,1.0,,,,,,,,,,
1.0,1.0,1.458165,,,,,,licorice_06s.jpg,1.0,clock_5_3.png,2.0,30,,,,,,,,,,,,,,,,,,0.0,9.0,9.0,9.0,1.0,,,,,,,,,,
,0.0,,,,,,,smokingpipe.jpg,0.0,clock_5_4.png,2.0,30,,,,,,,,,,,,,,,,,,0.0,10.0,10.0,10.0,1.0,,,,,,,,,,
0.0,1.0,0.41018,,,,,,cobra_05s.jpg,0.0,clock_5_5.png,2.0,30,,,,,,,,,,,,,,,,,,0.0,11.0,11.0,11.0,1.0,,,,,,,,,,
0.0,1.0,0.76913,,,,,,gear_07s.jpg,0.0,clock_6_1.png,3.0,30,,,,,,,,,,,,,,,,,,0.0,12.0,12.0,12.0,1.0,,,,,,,,,,
0.0,1.0,0.527025,,,,,,juicer2_06s.jpg,0.0,clock_6_2.png,3.0,30,,,,,,,,,,,,,,,,,,0.0,13.0,13.0,13.0,1.0,,,,,,,,,,
1.0,1.0,1.208565,,,,,,juicer2_06s.jpg,1.0,clock_6_3.png,3.0,30,,,,,,,,,,,,,,,,,,0.0,14.0,14.0,14.0,1.0,,,,,,,,,,
1.0,1.0,1.00711,,,,,,gear_07s.jpg,1.0,clock_6_4.png,3.0,30,,,,,,,,,,,,,,,,,,0.0,15.0,15.0,15.0,1.0,,,,,,,,,,
0.0,1.0,0.674275,,,,,,turtleneck_11s.jpg,0.0,clock_6_5.png,3.0,30,,,,,,,,,,,,,,,,,,0.0,16.0,16.0,16.0,1.0,,,,,,,,,,
1.0,1.0,1.06413,,,,,,turtleneck_11s.jpg,1.0,clock_6_6.png,3.0,30,,,,,,,,,,,,,,,,,,0.0,17.0,17.0,17.0,1.0,,,,,,,,,,
0.0,1.0,1.30482,,,,,,potholder_02s.jpg,0.0,clock_6_1.png,4.0,30,,,,,,,,,,,,,,,,,,0.0,18.0,18.0,18.0,1.0,,,,,,,,,,
,0.0,,,,,,,plaster_cast_13s.jpg,0.0,clock_6_2.png,4.0,30,,,,,,,,,,,,,,,,,,0.0,19.0,19.0,19.0,1.0,,,,,,,,,,
,0.0,,,,,,,marshmallow_08s.jpg,0.0,clock_6_3.png,4.0,30,,,,,,,,,,,,,,,,,,0.0,20.0,20.0,20.0,1.0,,,,,,,,,,
0.0,1.0,0.090045,,,,,,jukebox_03n.jpg,0.0,clock_6_4.png,4.0,30,,,,,,,,,,,,,,,,,,0.0,21.0,21.0,21.0,1.0,,,,,,,,,,
1.0,1.0,0.97987,,,,,,potholder_02s.jpg,1.0,clock_6_5.png,4.0,30,,,,,,,,,,,,,,,,,,0.0,22.0,22.0,22.0,1.0,,,,,,,,,,
1.0,1.0,1.35344,,,,,,potholder_02s.jpg,1.0,clock_6_6.png,4.0,30,,,,,,,,,,,,,,,,,,0.0,23.0,23.0,23.0,1.0,,,,,,,,,,
,0.0,,,,,,,pincushion_10s.jpg,0.0,clock_7_1.png,5.0,30,,,,,,,,,,,,,,,,,,0.0,24.0,24.0,24.0,1.0,,,,,,,,,,
0.0,1.0,0.477855,,,,,,cap_05s.jpg,0.0,clock_7_2.png,5.0,30,,,,,,,,,,,,,,,,,,0.0,25.0,25.0,25.0,1.0,,,,,,,,,,
1.0,1.0,1.27278,,,,,,cap_05s.jpg,1.0,clock_7_3.png,5.0,30,,,,,,,,,,,,,,,,,,0.0,26.0,26.0,26.0,1.0,,,,,,,,,,
,0.0,,,,,,,insole_11s.jpg,0.0,clock_7_4.png,5.0,30,,,,,,,,,,,,,,,,,,0.0,27.0,27.0,27.0,1.0,,,,,,,,,,
,0.0,,,,,,,ginger_09s.jpg,0.0,clock_7_5.png,5.0,30,,,,,,,,,,,,,,,,,,0.0,28.0,28.0,28.0,1.0,,,,,,,,,,
0.0,0.0,0.838825,,,,,,insole_11s.jpg,1.0,clock_7_6.png,5.0,30,,,,,,,,,,,,,,,,,,0.0,29.0,29.0,29.0,1.0,,,,,,,,,,
0.0,1.0,1.823455,,,,,,letter_opener_03s.jpg,0.0,clock_7_7.png,5.0,30,,,,,,,,,,,,,,,,,,0.0,30.0,30.0,30.0,1.0,,,,,,,,,,
,0.0,,,,,,,stapler_01b.jpg,0.0,clock_5_1.png,6.0,30,,,,,,,,,,,,,,,,,,0.0,31.0,31.0,31.0,1.0,,,,,,,,,,
,0.0,,,,,,,powder_07s.jpg,0.0,clock_5_2.png,6.0,30,,,,,,,,,,,,,,,,,,0.0,32.0,32.0,32.0,1.0,,,,,,,,,,
0.0,1.0,0.182615,,,,,,olive_05s.jpg,0.0,clock_5_3.png,6.0,30,,,,,,,,,,,,,,,,,,0.0,33.0,33.0,33.0,1.0,,,,,,,,,,
0.0,0.0,0.784525,,,,,,stapler_01b.jpg,1.0,clock_5_4.png,6.0,30,,,,,,,,,,,,,,,,,,0.0,34.0,34.0,34.0,1.0,,,,,,,,,,
0.0,1.0,0.76967,,,,,,chip_04s.jpg,0.0,clock_5_5.png,6.0,30,,,,,,,,,,,,,,,,,,0.0,35.0,35.0,35.0,1.0,,,,,,,,,,
,,,,,,,,,0.0,,,30,0.0,1.0,0.952225,,,,,,pincushion_10s.jpg,jukebox_03n.jpg,,,,,,,,,,,,,0.0,0.0,0.0,0.0,1.0,,,,,
,,,,,,,,,1.0,,,30,0.0,0.0,0.994995,,,,,,letter_opener_03s.jpg,olive_05s.jpg,,,,,,,,,,,,,0.0,1.0,1.0,1.0,1.0,,,,,
,,,,,,,,,1.0,,,30,0.0,0.0,0.885585,,,,,,ring_03s.jpg,mask_09s.jpg,,,,,,,,,,,,,0.0,2.0,2.0,2.0,1.0,,,,,
,,,,,,,,,0.0,,,30,1.0,0.0,0.941415,,,,,,luggage_08s.jpg,puddle_02s.jpg,,,,,,,,,,,,,0.0,3.0,3.0,3.0,1.0,,,,,
,,,,,,,,,1.0,,,30,0.0,0.0,1.06316,,,,,,laundry_basket_11s.jpg,tiara_05s.jpg,,,,,,,,,,,,,0.0,4.0,4.0,4.0,1.0,,,,,
,,,,,,,,,0.0,,,30,0.0,1.0,0.93962,,,,,,chip_04s.jpg,powder_07s.jpg,,,,,,,,,,,,,0.0,5.0,5.0,5.0,1.0,,,,,
