key_resp.keys,key_resp.corr,key_resp.rt,present_segment.thisRepN,present_segment.thisTrialN,present_segment.thisN,present_segment.thisIndex,present_segment.ran,pictures,answer,clock,segment,participant,key_resp_2.keys,key_resp_2.corr,key_resp_2.rt,compare_segment.thisRepN,compare_segment.thisTrialN,compare_segment.thisN,compare_segment.thisIndex,compare_segment.ran,item_a,item_b,clock_conditions.thisRepN,clock_conditions.thisTrialN,clock_conditions.thisN,clock_conditions.thisIndex,clock_conditions.ran,present,compare,noclock_present.thisRepN,noclock_present.thisTrialN,noclock_present.thisN,noclock_present.thisIndex,noclock_present.ran,noclock_compare.thisRepN,noclock_compare.thisTrialN,noclock_compare.thisN,noclock_compare.thisIndex,noclock_compare.ran,noclock_conditions.thisRepN,noclock_conditions.thisTrialN,noclock_conditions.thisN,noclock_conditions.thisIndex,noclock_conditions.ran
0.0,1.0,0.733545,0.0,0.0,0.0,0.0,1.0,jetski_10s.jpg,0.0,clock_7_1.png,1.0,76,,,,,,,,,,,,,,,,,,,,,,,,,,,,,,,,
,0.0,,0.0,1.0,1.0,1.0,1.0,padlock_07s.jpg,0.0,clock_7_2.png,1.0,76,,,,,,,,,,,,,,,,,,,,,,,,,,,,,,,,
,0.0,,0.0,2.0,2.0,2.0,1.0,antenna_01b.jpg,0.0,clock_7_3.png,1.0,76,,,,,,,,,,,,,,,,,,,,,,,,,,,,,,,,
,0.0,,0.0,3.0,3.0,3.0,1.0,rhubarb_03s.jpg,0.0,clock_7_4.png,1.0,76,,,,,,,,,,,,,,,,,,,,,,,,,,,,,,,,
1.0,1.0,2.14483,0.0,4.0,4.0,4.0,1.0,jetski_10s.jpg,1.0,clock_7_5.png,1.0,76,,,,,,,,,,,,,,,,,,,,,,,,,,,,,,,,
0.0,1.0,0.536135,0.0,5.0,5.0,5.0,1.0,juicer2_06s.jpg,0.0,clock_7_6.png,1.0,76,,,,,,,,,,,,,,,,,,,,,,,,,,,,,,,,
1.0,1.0,1.059075,0.0,6.0,6.0,6.0,1.0,padlock_07s.jpg,1.0,clock_7_7.png,1.0,76,,,,,,,,,,,,,,,,,,,,,,,,,,,,,,,,
0.0,1.0,1.62303,0.0,7.0,7.0,7.0,1.0,insole_11s.jpg,0.0,clock_5_1.png,2.0,76,,,,,,,,,,,,,,,,,,,,,,,,,,,,,,,,
1.0,0.0,1.02065,0.0,8.0,8.0,8.0,1.0,antenna_01b.jpg,0.0,clock_5_2.png,2.0,76,,,,,,,,,,,,,,,,,,,,,,,,,,,,,,,,
0.0,1.0,0.5783,0.0,9.0,9.0,9.0,1.0,stingray_02s.jpg,0.0,clock_5_3.png,2.0,76,,,,,,,,,,,,,,,,,,,,,,,,,,,,,,,,
0.0,1.0,0.86945,0.0,10.0,10.0,10.0,1.0,lectern_08s.jpg,0.0,clock_5_4.png,2.0,76,,,,,,,,,,,,,,,,,,,,,,,,,,,,,,,,
0.0,1.0,0.7291,0.0,11.0,11.0,11.0,1.0,briefcase_03s.jpg,0.0,clock_5_5.png,2.0,76,,,,,,,,,,,,,,,,,,,,,,,,,,,,,,,,
0.0,1.0,1.004185,0.0,12.0,12.0,12.0,1.0,pepper_mill_03s.jpg,0.0,clock_6_1.png,3.0,76,,,,,,,,,,,,,,,,,,,,,,,,,,,,,,,,
0.0,1.0,0.62295,0.0,13.0,13.0,13.0,1.0,light_switch_02s.jpg,0.0,clock_6_2.png,3.0,76,,,,,,,,,,,,,,,,,,,,,,,,,,,,,,,,
0.0,1.0,0.59529,0.0,14.0,14.0,14.0,1.0,lava_02s.jpg,0.0,clock_6_3.png,3.0,76,,,,,,,,,,,,,,,,,,,,,,,,,,,,,,,,
0.0,1.0,0.65651,0.0,15.0,15.0,15.0,1.0,moth_06n.jpg,0.0,clock_6_4.png,3.0,76,,,,,,,,,,,,,,,,,,,,,,,,,,,,,,,,
0.0,1.0,0.420795,0.0,16.0,16.0,16.0,1.0,pincushion_10s.jpg,0.0,clock_6_5.png,3.0,76,,,,,,,,,,,,,,,,,,,,,,,,,,,,,,,,
0.0,1.0,0.391255,0.0,17.0,17.0,17.0,1.0,quad_04s.jpg,0.0,clock_6_6.png,3.0,76,,,,,,,,,,,,,,,,,,,,,,,,,,,,,,,,
0.0,1.0,0.55486,0.0,18.0,18.0,18.0,1.0,keyhole_03s.jpg,0.0,clock_6_1.png,4.0,76,,,,,,,,,,,,,,,,,,,,,,,,,,,,,,,,
0.0,1.0,0.446015,0.0,19.0,19.0,19.0,1.0,trampoline_13s.jpg,0.0,clock_6_2.png,4.0,76,,,,,,,,,,,,,,,,,,,,,,,,,,,,,,,,
1.0,0.0,0.688275,0.0,20.0,20.0,20.0,1.0,lectern_08s.jpg,0.0,clock_6_3.png,4.0,76,,,,,,,,,,,,,,,,,,,,,,,,,,,,,,,,
0.0,1.0,0.66341,0.0,21.0,21.0,21.0,1.0,fork_04s.jpg,0.0,clock_6_4.png,4.0,76,,,,,,,,,,,,,,,,,,,,,,,,,,,,,,,,
0.0,1.0,0.51393,0.0,22.0,22.0,22.0,1.0,petri_dish_12s.jpg,0.0,clock_6_5.png,4.0,76,,,,,,,,,,,,,,,,,,,,,,,,,,,,,,,,
1.0,1.0,0.82939,0.0,23.0,23.0,23.0,1.0,petri_dish_12s.jpg,1.0,clock_6_6.png,4.0,76,,,,,,,,,,,,,,,,,,,,,,,,,,,,,,,,
0.0,1.0,0.435085,0.0,24.0,24.0,24.0,1.0,metronome_03s.jpg,0.0,clock_7_1.png,5.0,76,,,,,,,,,,,,,,,,,,,,,,,,,,,,,,,,
0.0,1.0,0.60563,0.0,25.0,25.0,25.0,1.0,tiara_05s.jpg,0.0,clock_7_2.png,5.0,76,,,,,,,,,,,,,,,,,,,,,,,,,,,,,,,,
0.0,1.0,0.596515,0.0,26.0,26.0,26.0,1.0,undershirt_02s.jpg,0.0,clock_7_3.png,5.0,76,,,,,,,,,,,,,,,,,,,,,,,,,,,,,,,,
0.0,1.0,0.623845,0.0,27.0,27.0,27.0,1.0,tripod_01b.jpg,0.0,clock_7_4.png,5.0,76,,,,,,,,,,,,,,,,,,,,,,,,,,,,,,,,
0.0,1.0,0.43589,0.0,28.0,28.0,28.0,1.0,parachute_03s.jpg,0.0,clock_7_5.png,5.0,76,,,,,,,,,,,,,,,,,,,,,,,,,,,,,,,,
0.0,1.0,0.70214,0.0,29.0,29.0,29.0,1.0,jelly_bean_06s.jpg,0.0,clock_7_6.png,5.0,76,,,,,,,,,,,,,,,,,,,,,,,,,,,,,,,,
0.0,1.0,0.5718,0.0,30.0,30.0,30.0,1.0,stamp1_11s.jpg,0.0,clock_7_7.png,5.0,76,,,,,,,,,,,,,,,,,,,,,,,,,,,,,,,,
0.0,1.0,0.622515,0.0,31.0,31.0,31.0,1.0,throne_11s.jpg,0.0,clock_5_1.png,6.0,76,,,,,,,,,,,,,,,,,,,,,,,,,,,,,,,,
0.0,1.0,0.408305,0.0,32.0,32.0,32.0,1.0,ice_pack_09s.jpg,0.0,clock_5_2.png,6.0,76,,,,,,,,,,,,,,,,,,,,,,,,,,,,,,,,
0.0,1.0,0.679215,0.0,33.0,33.0,33.0,1.0,latch_15s.jpg,0.0,clock_5_3.png,6.0,76,,,,,,,,,,,,,,,,,,,,,,,,,,,,,,,,
0.0,1.0,0.663,0.0,34.0,34.0,34.0,1.0,eggshell_14s.jpg,0.0,clock_5_4.png,6.0,76,,,,,,,,,,,,,,,,,,,,,,,,,,,,,,,,
0.0,1.0,0.52536,0.0,35.0,35.0,35.0,1.0,lifesaver_10s.jpg,0.0,clock_5_5.png,6.0,76,,,,,,,,,,,,,,,,,,,,,,,,,,,,,,,,
,,,,,,,,,1.0,,,76,0.0,0.0,1.33777,0.0,0.0,0.0,0.0,1.0,stingray_02s.jpg,pepper_mill_03s.jpg,,,,,,,,,,,,,,,,,,,,,,
,,,,,,,,,1.0,,,76,1.0,1.0,4.30667,0.0,1.0,1.0,1.0,1.0,briefcase_03s.jpg,lava_02s.jpg,,,,,,,,,,,,,,,,,,,,,,
,,,,,,,,,0.0,,,76,0.0,1.0,2.81304,0.0,2.0,2.0,2.0,1.0,trampoline_13s.jpg,pincushion_10s.jpg,,,,,,,,,,,,,,,,,,,,,,
,,,,,,,,,0.0,,,76,1.0,0.0,5.414405,0.0,3.0,3.0,3.0,1.0,tripod_01b.jpg,metronome_03s.jpg,,,,,,,,,,,,,,,,,,,,,,
,,,,,,,,,0.0,,,76,1.0,0.0,1.681065,0.0,4.0,4.0,4.0,1.0,parachute_03s.jpg,tiara_05s.jpg,,,,,,,,,,,,,,,,,,,,,,
,,,,,,,,,0.0,,,76,0.0,1.0,4.7374,0.0,5.0,5.0,5.0,1.0,jelly_bean_06s.jpg,undershirt_02s.jpg,,,,,,,,,,,,,,,,,,,,,,
,,,,,,,,,,,,76,,,,,,,,,,,0.0,0.0,0.0,0.0,1.0,clock_present_1_15.xlsx,clock_compare_task_1_15.xlsx,,,,,,,,,,,,,,,
0.0,1.0,0.924475,0.0,0.0,0.0,0.0,1.0,target_11s.jpg,0.0,clock_6_1.png,1.0,76,,,,,,,,,,,,,,,,,,,,,,,,,,,,,,,,
0.0,1.0,0.518895,0.0,1.0,1.0,1.0,1.0,olive_05s.jpg,0.0,clock_6_2.png,1.0,76,,,,,,,,,,,,,,,,,,,,,,,,,,,,,,,,
1.0,1.0,0.605005,0.0,2.0,2.0,2.0,1.0,olive_05s.jpg,1.0,clock_6_3.png,1.0,76,,,,,,,,,,,,,,,,,,,,,,,,,,,,,,,,
0.0,1.0,0.45145,0.0,3.0,3.0,3.0,1.0,licorice_06s.jpg,0.0,clock_6_4.png,1.0,76,,,,,,,,,,,,,,,,,,,,,,,,,,,,,,,,
0.0,1.0,1.00429,0.0,4.0,4.0,4.0,1.0,sledgehammer_03s.jpg,0.0,clock_6_5.png,1.0,76,,,,,,,,,,,,,,,,,,,,,,,,,,,,,,,,
0.0,1.0,0.73037,0.0,5.0,5.0,5.0,1.0,fur_coat_11s.jpg,0.0,clock_6_6.png,1.0,76,,,,,,,,,,,,,,,,,,,,,,,,,,,,,,,,
0.0,1.0,0.72516,0.0,6.0,6.0,6.0,1.0,rocket_02s.jpg,0.0,clock_6_1.png,2.0,76,,,,,,,,,,,,,,,,,,,,,,,,,,,,,,,,
1.0,1.0,0.52088,0.0,7.0,7.0,7.0,1.0,rocket_02s.jpg,1.0,clock_6_2.png,2.0,76,,,,,,,,,,,,,,,,,,,,,,,,,,,,,,,,
1.0,1.0,0.574915,0.0,8.0,8.0,8.0,1.0,rocket_02s.jpg,1.0,clock_6_3.png,2.0,76,,,,,,,,,,,,,,,,,,,,,,,,,,,,,,,,
1.0,1.0,0.440905,0.0,9.0,9.0,9.0,1.0,rocket_02s.jpg,1.0,clock_6_4.png,2.0,76,,,,,,,,,,,,,,,,,,,,,,,,,,,,,,,,
0.0,1.0,0.513785,0.0,10.0,10.0,10.0,1.0,rug_09s.jpg,0.0,clock_6_5.png,2.0,76,,,,,,,,,,,,,,,,,,,,,,,,,,,,,,,,
0.0,1.0,0.52971,0.0,11.0,11.0,11.0,1.0,peanut_butter_08s.jpg,0.0,clock_6_6.png,2.0,76,,,,,,,,,,,,,,,,,,,,,,,,,,,,,,,,
0.0,1.0,0.57425,0.0,12.0,12.0,12.0,1.0,tie_03s.jpg,0.0,clock_7_1.png,3.0,76,,,,,,,,,,,,,,,,,,,,,,,,,,,,,,,,
0.0,1.0,0.5597,0.0,13.0,13.0,13.0,1.0,pillow_03s.jpg,0.0,clock_7_2.png,3.0,76,,,,,,,,,,,,,,,,,,,,,,,,,,,,,,,,
1.0,1.0,0.681815,0.0,14.0,14.0,14.0,1.0,pillow_03s.jpg,1.0,clock_7_3.png,3.0,76,,,,,,,,,,,,,,,,,,,,,,,,,,,,,,,,
0.0,1.0,1.181875,0.0,15.0,15.0,15.0,1.0,beaker_01b.jpg,0.0,clock_7_4.png,3.0,76,,,,,,,,,,,,,,,,,,,,,,,,,,,,,,,,
0.0,1.0,0.838535,0.0,16.0,16.0,16.0,1.0,saddle_06s.jpg,0.0,clock_7_5.png,3.0,76,,,,,,,,,,,,,,,,,,,,,,,,,,,,,,,,
0.0,1.0,0.55796,0.0,17.0,17.0,17.0,1.0,harpoon.jpg,0.0,clock_7_6.png,3.0,76,,,,,,,,,,,,,,,,,,,,,,,,,,,,,,,,
0.0,1.0,1.067125,0.0,18.0,18.0,18.0,1.0,poinsettia_04s.jpg,0.0,clock_7_7.png,3.0,76,,,,,,,,,,,,,,,,,,,,,,,,,,,,,,,,
0.0,1.0,0.74612,0.0,19.0,19.0,19.0,1.0,peeler_06s.jpg,0.0,clock_5_1.png,4.0,76,,,,,,,,,,,,,,,,,,,,,,,,,,,,,,,,
0.0,1.0,0.580275,0.0,20.0,20.0,20.0,1.0,laundry_basket_11s.jpg,0.0,clock_5_2.png,4.0,76,,,,,,,,,,,,,,,,,,,,,,,,,,,,,,,,
0.0,1.0,1.258675,0.0,21.0,21.0,21.0,1.0,blender_08s.jpg,0.0,clock_5_3.png,4.0,76,,,,,,,,,,,,,,,,,,,,,,,,,,,,,,,,
1.0,1.0,0.76644,0.0,22.0,22.0,22.0,1.0,peeler_06s.jpg,1.0,clock_5_4.png,4.0,76,,,,,,,,,,,,,,,,,,,,,,,,,,,,,,,,
0.0,1.0,0.64639,0.0,23.0,23.0,23.0,1.0,puppy_08s.jpg,0.0,clock_5_5.png,4.0,76,,,,,,,,,,,,,,,,,,,,,,,,,,,,,,,,
0.0,1.0,0.43525,0.0,24.0,24.0,24.0,1.0,frog_09s.jpg,0.0,clock_5_1.png,5.0,76,,,,,,,,,,,,,,,,,,,,,,,,,,,,,,,,
0.0,1.0,0.630785,0.0,25.0,25.0,25.0,1.0,mousetrap_15n.jpg,0.0,clock_5_2.png,5.0,76,,,,,,,,,,,,,,,,,,,,,,,,,,,,,,,,
0.0,1.0,0.613265,0.0,26.0,26.0,26.0,1.0,candy_cane_06s.jpg,0.0,clock_5_3.png,5.0,76,,,,,,,,,,,,,,,,,,,,,,,,,,,,,,,,
0.0,1.0,0.574975,0.0,27.0,27.0,27.0,1.0,jewel_01b.jpg,0.0,clock_5_4.png,5.0,76,,,,,,,,,,,,,,,,,,,,,,,,,,,,,,,,
0.0,1.0,0.72233,0.0,28.0,28.0,28.0,1.0,bolo_tie_08s.jpg,0.0,clock_5_5.png,5.0,76,,,,,,,,,,,,,,,,,,,,,,,,,,,,,,,,
0.0,1.0,0.465225,0.0,29.0,29.0,29.0,1.0,paper_towel_03s.jpg,0.0,clock_7_1.png,6.0,76,,,,,,,,,,,,,,,,,,,,,,,,,,,,,,,,
1.0,1.0,0.757775,0.0,30.0,30.0,30.0,1.0,paper_towel_03s.jpg,1.0,clock_7_2.png,6.0,76,,,,,,,,,,,,,,,,,,,,,,,,,,,,,,,,
0.0,1.0,0.833855,0.0,31.0,31.0,31.0,1.0,crossbow_10s.jpg,0.0,clock_7_3.png,6.0,76,,,,,,,,,,,,,,,,,,,,,,,,,,,,,,,,
0.0,1.0,0.81321,0.0,32.0,32.0,32.0,1.0,golf_club_03s.jpg,0.0,clock_7_4.png,6.0,76,,,,,,,,,,,,,,,,,,,,,,,,,,,,,,,,
0.0,1.0,0.74668,0.0,33.0,33.0,33.0,1.0,ring_03s.jpg,0.0,clock_7_5.png,6.0,76,,,,,,,,,,,,,,,,,,,,,,,,,,,,,,,,
0.0,1.0,0.69648,0.0,34.0,34.0,34.0,1.0,roller_coaster_07s.jpg,0.0,clock_7_6.png,6.0,76,,,,,,,,,,,,,,,,,,,,,,,,,,,,,,,,
0.0,1.0,0.60262,0.0,35.0,35.0,35.0,1.0,syringe_02s.jpg,0.0,clock_7_7.png,6.0,76,,,,,,,,,,,,,,,,,,,,,,,,,,,,,,,,
,,,,,,,,,0.0,,,76,1.0,0.0,2.41307,0.0,0.0,0.0,0.0,1.0,laundry_basket_11s.jpg,harpoon.jpg,,,,,,,,,,,,,,,,,,,,,,
,,,,,,,,,1.0,,,76,0.0,0.0,1.534265,0.0,1.0,1.0,1.0,1.0,poinsettia_04s.jpg,blender_08s.jpg,,,,,,,,,,,,,,,,,,,,,,
,,,,,,,,,1.0,,,76,1.0,1.0,1.7633,0.0,2.0,2.0,2.0,1.0,puppy_08s.jpg,candy_cane_06s.jpg,,,,,,,,,,,,,,,,,,,,,,
,,,,,,,,,1.0,,,76,0.0,0.0,1.40211,0.0,3.0,3.0,3.0,1.0,target_11s.jpg,licorice_06s.jpg,,,,,,,,,,,,,,,,,,,,,,
,,,,,,,,,0.0,,,76,1.0,0.0,1.20346,0.0,4.0,4.0,4.0,1.0,beaker_01b.jpg,tie_03s.jpg,,,,,,,,,,,,,,,,,,,,,,
,,,,,,,,,1.0,,,76,1.0,1.0,3.144445,0.0,5.0,5.0,5.0,1.0,golf_club_03s.jpg,syringe_02s.jpg,,,,,,,,,,,,,,,,,,,,,,
,,,,,,,,,,,,76,,,,,,,,,,,0.0,1.0,1.0,1.0,1.0,clock_present_2_15.xlsx,clock_compare_task_2_15.xlsx,,,,,,,,,,,,,,,
0.0,1.0,0.93967,0.0,0.0,0.0,0.0,1.0,squirt_gun_03s.jpg,0.0,clock_6_1.png,1.0,76,,,,,,,,,,,,,,,,,,,,,,,,,,,,,,,,
0.0,1.0,0.5638,0.0,1.0,1.0,1.0,1.0,omelet_07s.jpg,0.0,clock_6_2.png,1.0,76,,,,,,,,,,,,,,,,,,,,,,,,,,,,,,,,
0.0,1.0,1.09141,0.0,2.0,2.0,2.0,1.0,quilt_03s.jpg,0.0,clock_6_3.png,1.0,76,,,,,,,,,,,,,,,,,,,,,,,,,,,,,,,,
0.0,1.0,0.50351,0.0,3.0,3.0,3.0,1.0,muffin_12n.jpg,0.0,clock_6_4.png,1.0,76,,,,,,,,,,,,,,,,,,,,,,,,,,,,,,,,
0.0,1.0,0.548045,0.0,4.0,4.0,4.0,1.0,orange_12s.jpg,0.0,clock_6_5.png,1.0,76,,,,,,,,,,,,,,,,,,,,,,,,,,,,,,,,
1.0,1.0,0.99687,0.0,5.0,5.0,5.0,1.0,squirt_gun_03s.jpg,1.0,clock_6_6.png,1.0,76,,,,,,,,,,,,,,,,,,,,,,,,,,,,,,,,
0.0,1.0,1.30179,0.0,6.0,6.0,6.0,1.0,spider_web_03s.jpg,0.0,clock_7_1.png,2.0,76,,,,,,,,,,,,,,,,,,,,,,,,,,,,,,,,
1.0,1.0,1.19637,0.0,7.0,7.0,7.0,1.0,spider_web_03s.jpg,1.0,clock_7_2.png,2.0,76,,,,,,,,,,,,,,,,,,,,,,,,,,,,,,,,
1.0,0.0,0.87471,0.0,8.0,8.0,8.0,1.0,muffin_12n.jpg,0.0,clock_7_3.png,2.0,76,,,,,,,,,,,,,,,,,,,,,,,,,,,,,,,,
1.0,1.0,0.52256,0.0,9.0,9.0,9.0,1.0,muffin_12n.jpg,1.0,clock_7_4.png,2.0,76,,,,,,,,,,,,,,,,,,,,,,,,,,,,,,,,
0.0,1.0,0.5969,0.0,10.0,10.0,10.0,1.0,boar_10s.jpg,0.0,clock_7_5.png,2.0,76,,,,,,,,,,,,,,,,,,,,,,,,,,,,,,,,
0.0,1.0,0.581555,0.0,11.0,11.0,11.0,1.0,tongs_08s.jpg,0.0,clock_7_6.png,2.0,76,,,,,,,,,,,,,,,,,,,,,,,,,,,,,,,,
0.0,1.0,0.64173,0.0,12.0,12.0,12.0,1.0,toaster_03s.jpg,0.0,clock_7_7.png,2.0,76,,,,,,,,,,,,,,,,,,,,,,,,,,,,,,,,
0.0,1.0,0.52996,0.0,13.0,13.0,13.0,1.0,bacon_05s.jpg,0.0,clock_5_1.png,3.0,76,,,,,,,,,,,,,,,,,,,,,,,,,,,,,,,,
0.0,1.0,0.746165,0.0,14.0,14.0,14.0,1.0,letter_opener_03s.jpg,0.0,clock_5_2.png,3.0,76,,,,,,,,,,,,,,,,,,,,,,,,,,,,,,,,
0.0,1.0,0.698755,0.0,15.0,15.0,15.0,1.0,pipe1_10s.jpg,0.0,clock_5_3.png,3.0,76,,,,,,,,,,,,,,,,,,,,,,,,,,,,,,,,
0.0,1.0,0.621505,0.0,16.0,16.0,16.0,1.0,red_carpet_03s.jpg,0.0,clock_5_4.png,3.0,76,,,,,,,,,,,,,,,,,,,,,,,,,,,,,,,,
0.0,0.0,0.92912,0.0,17.0,17.0,17.0,1.0,pipe1_10s.jpg,1.0,clock_5_5.png,3.0,76,,,,,,,,,,,,,,,,,,,,,,,,,,,,,,,,
0.0,1.0,0.673125,0.0,18.0,18.0,18.0,1.0,fountain_pen_06s.jpg,0.0,clock_5_1.png,4.0,76,,,,,,,,,,,,,,,,,,,,,,,,,,,,,,,,
0.0,1.0,0.617025,0.0,19.0,19.0,19.0,1.0,kimono_13s.jpg,0.0,clock_5_2.png,4.0,76,,,,,,,,,,,,,,,,,,,,,,,,,,,,,,,,
0.0,1.0,0.762585,0.0,20.0,20.0,20.0,1.0,bagel_15s.jpg,0.0,clock_5_3.png,4.0,76,,,,,,,,,,,,,,,,,,,,,,,,,,,,,,,,
0.0,1.0,0.51282,0.0,21.0,21.0,21.0,1.0,marker_05s.jpg,0.0,clock_5_4.png,4.0,76,,,,,,,,,,,,,,,,,,,,,,,,,,,,,,,,
0.0,1.0,0.550335,0.0,22.0,22.0,22.0,1.0,chopsticks_08s.jpg,0.0,clock_5_5.png,4.0,76,,,,,,,,,,,,,,,,,,,,,,,,,,,,,,,,
0.0,1.0,0.52545,0.0,23.0,23.0,23.0,1.0,toy_04s.jpg,0.0,clock_6_1.png,5.0,76,,,,,,,,,,,,,,,,,,,,,,,,,,,,,,,,
1.0,1.0,0.62032,0.0,24.0,24.0,24.0,1.0,toy_04s.jpg,1.0,clock_6_2.png,5.0,76,,,,,,,,,,,,,,,,,,,,,,,,,,,,,,,,
0.0,1.0,0.69668,0.0,25.0,25.0,25.0,1.0,swordfish_05s.jpg,0.0,clock_6_3.png,5.0,76,,,,,,,,,,,,,,,,,,,,,,,,,,,,,,,,
0.0,1.0,0.69624,0.0,26.0,26.0,26.0,1.0,snowman_02s.jpg,0.0,clock_6_4.png,5.0,76,,,,,,,,,,,,,,,,,,,,,,,,,,,,,,,,
1.0,1.0,0.586985,0.0,27.0,27.0,27.0,1.0,snowman_02s.jpg,1.0,clock_6_5.png,5.0,76,,,,,,,,,,,,,,,,,,,,,,,,,,,,,,,,
1.0,1.0,0.853725,0.0,28.0,28.0,28.0,1.0,swordfish_05s.jpg,1.0,clock_6_6.png,5.0,76,,,,,,,,,,,,,,,,,,,,,,,,,,,,,,,,
0.0,1.0,0.600545,0.0,29.0,29.0,29.0,1.0,kayak_08s.jpg,0.0,clock_7_1.png,6.0,76,,,,,,,,,,,,,,,,,,,,,,,,,,,,,,,,
0.0,1.0,0.498125,0.0,30.0,30.0,30.0,1.0,emerald_02s.jpg,0.0,clock_7_2.png,6.0,76,,,,,,,,,,,,,,,,,,,,,,,,,,,,,,,,
0.0,1.0,0.484575,0.0,31.0,31.0,31.0,1.0,fireworks_18s.jpg,0.0,clock_7_3.png,6.0,76,,,,,,,,,,,,,,,,,,,,,,,,,,,,,,,,
0.0,1.0,0.4697,0.0,32.0,32.0,32.0,1.0,lipstick_02s.jpg,0.0,clock_7_4.png,6.0,76,,,,,,,,,,,,,,,,,,,,,,,,,,,,,,,,
1.0,1.0,0.6504,0.0,33.0,33.0,33.0,1.0,fireworks_18s.jpg,1.0,clock_7_5.png,6.0,76,,,,,,,,,,,,,,,,,,,,,,,,,,,,,,,,
1.0,1.0,0.81396,0.0,34.0,34.0,34.0,1.0,kayak_08s.jpg,1.0,clock_7_6.png,6.0,76,,,,,,,,,,,,,,,,,,,,,,,,,,,,,,,,
0.0,1.0,0.633335,0.0,35.0,35.0,35.0,1.0,stump_02s.jpg,0.0,clock_7_7.png,6.0,76,,,,,,,,,,,,,,,,,,,,,,,,,,,,,,,,
,,,,,,,,,0.0,,,76,1.0,0.0,2.04795,0.0,0.0,0.0,0.0,1.0,letter_opener_03s.jpg,tongs_08s.jpg,,,,,,,,,,,,,,,,,,,,,,
,,,,,,,,,1.0,,,76,1.0,1.0,1.232465,0.0,1.0,1.0,1.0,1.0,boar_10s.jpg,bacon_05s.jpg,,,,,,,,,,,,,,,,,,,,,,
,,,,,,,,,1.0,,,76,1.0,1.0,1.202955,0.0,2.0,2.0,2.0,1.0,red_carpet_03s.jpg,kimono_13s.jpg,,,,,,,,,,,,,,,,,,,,,,
,,,,,,,,,0.0,,,76,0.0,1.0,1.643335,0.0,3.0,3.0,3.0,1.0,orange_12s.jpg,omelet_07s.jpg,,,,,,,,,,,,,,,,,,,,,,
,,,,,,,,,0.0,,,76,1.0,0.0,1.18365,0.0,4.0,4.0,4.0,1.0,marker_05s.jpg,fountain_pen_06s.jpg,,,,,,,,,,,,,,,,,,,,,,
,,,,,,,,,0.0,,,76,1.0,0.0,1.063205,0.0,5.0,5.0,5.0,1.0,stump_02s.jpg,lipstick_02s.jpg,,,,,,,,,,,,,,,,,,,,,,
,,,,,,,,,,,,76,,,,,,,,,,,0.0,2.0,2.0,2.0,1.0,clock_present_3_15.xlsx,clock_compare_task_3_15.xlsx,,,,,,,,,,,,,,,
0.0,1.0,0.63922,0.0,0.0,0.0,0.0,1.0,refrigerator_07s.jpg,0.0,clock_6_1.png,1.0,76,,,,,,,,,,,,,,,,,,,,,,,,,,,,,,,,
0.0,1.0,0.98235,0.0,1.0,1.0,1.0,1.0,pencil02a.jpg,0.0,clock_6_2.png,1.0,76,,,,,,,,,,,,,,,,,,,,,,,,,,,,,,,,
0.0,1.0,0.499815,0.0,2.0,2.0,2.0,1.0,crystal_ball_12s.jpg,0.0,clock_6_3.png,1.0,76,,,,,,,,,,,,,,,,,,,,,,,,,,,,,,,,
0.0,1.0,0.5136,0.0,3.0,3.0,3.0,1.0,compass_10n.jpg,0.0,clock_6_4.png,1.0,76,,,,,,,,,,,,,,,,,,,,,,,,,,,,,,,,
0.0,1.0,0.74832,0.0,4.0,4.0,4.0,1.0,kilt_18s.jpg,0.0,clock_6_5.png,1.0,76,,,,,,,,,,,,,,,,,,,,,,,,,,,,,,,,
0.0,1.0,1.01534,0.0,5.0,5.0,5.0,1.0,coat_rack_01b.jpg,0.0,clock_6_6.png,1.0,76,,,,,,,,,,,,,,,,,,,,,,,,,,,,,,,,
0.0,1.0,0.8941,0.0,6.0,6.0,6.0,1.0,prism_10s.jpg,0.0,clock_5_1.png,2.0,76,,,,,,,,,,,,,,,,,,,,,,,,,,,,,,,,
1.0,1.0,0.788255,0.0,7.0,7.0,7.0,1.0,prism_10s.jpg,1.0,clock_5_2.png,2.0,76,,,,,,,,,,,,,,,,,,,,,,,,,,,,,,,,
0.0,1.0,0.73815,0.0,8.0,8.0,8.0,1.0,purse_05s.jpg,0.0,clock_5_3.png,2.0,76,,,,,,,,,,,,,,,,,,,,,,,,,,,,,,,,
1.0,0.0,1.4553,0.0,9.0,9.0,9.0,1.0,refrigerator_07s.jpg,0.0,clock_5_4.png,2.0,76,,,,,,,,,,,,,,,,,,,,,,,,,,,,,,,,
0.0,1.0,0.68663,0.0,10.0,10.0,10.0,1.0,lamb_04s.jpg,0.0,clock_5_5.png,2.0,76,,,,,,,,,,,,,,,,,,,,,,,,,,,,,,,,
0.0,1.0,0.66407,0.0,11.0,11.0,11.0,1.0,leotard_08s.jpg,0.0,clock_6_1.png,3.0,76,,,,,,,,,,,,,,,,,,,,,,,,,,,,,,,,
0.0,1.0,0.616495,0.0,12.0,12.0,12.0,1.0,lavender_10s.jpg,0.0,clock_6_2.png,3.0,76,,,,,,,,,,,,,,,,,,,,,,,,,,,,,,,,
0.0,1.0,0.713095,0.0,13.0,13.0,13.0,1.0,bean_06s.jpg,0.0,clock_6_3.png,3.0,76,,,,,,,,,,,,,,,,,,,,,,,,,,,,,,,,
0.0,1.0,0.465375,0.0,14.0,14.0,14.0,1.0,puddle_02s.jpg,0.0,clock_6_4.png,3.0,76,,,,,,,,,,,,,,,,,,,,,,,,,,,,,,,,
1.0,0.0,1.29982,0.0,15.0,15.0,15.0,1.0,pencil02a.jpg,0.0,clock_6_5.png,3.0,76,,,,,,,,,,,,,,,,,,,,,,,,,,,,,,,,
0.0,1.0,0.570375,0.0,16.0,16.0,16.0,1.0,medal_04s.jpg,0.0,clock_6_6.png,3.0,76,,,,,,,,,,,,,,,,,,,,,,,,,,,,,,,,
0.0,1.0,0.76962,0.0,17.0,17.0,17.0,1.0,lion_18s.jpg,0.0,clock_7_1.png,4.0,76,,,,,,,,,,,,,,,,,,,,,,,,,,,,,,,,
0.0,1.0,0.509305,0.0,18.0,18.0,18.0,1.0,treadmill_06s.jpg,0.0,clock_7_2.png,4.0,76,,,,,,,,,,,,,,,,,,,,,,,,,,,,,,,,
0.0,1.0,0.618115,0.0,19.0,19.0,19.0,1.0,mold2_04s.jpg,0.0,clock_7_3.png,4.0,76,,,,,,,,,,,,,,,,,,,,,,,,,,,,,,,,
0.0,1.0,0.78337,0.0,20.0,20.0,20.0,1.0,pan_02s.jpg,0.0,clock_7_4.png,4.0,76,,,,,,,,,,,,,,,,,,,,,,,,,,,,,,,,
0.0,1.0,1.030305,0.0,21.0,21.0,21.0,1.0,reindeer_08s.jpg,0.0,clock_7_5.png,4.0,76,,,,,,,,,,,,,,,,,,,,,,,,,,,,,,,,
0.0,1.0,0.527645,0.0,22.0,22.0,22.0,1.0,top_hat_11s.jpg,0.0,clock_7_6.png,4.0,76,,,,,,,,,,,,,,,,,,,,,,,,,,,,,,,,
1.0,1.0,1.296945,0.0,23.0,23.0,23.0,1.0,treadmill_06s.jpg,1.0,clock_7_7.png,4.0,76,,,,,,,,,,,,,,,,,,,,,,,,,,,,,,,,
0.0,1.0,0.665565,0.0,24.0,24.0,24.0,1.0,sea_urchin_09s.jpg,0.0,clock_7_1.png,5.0,76,,,,,,,,,,,,,,,,,,,,,,,,,,,,,,,,
0.0,1.0,0.5509,0.0,25.0,25.0,25.0,1.0,breadstick_08s.jpg,0.0,clock_7_2.png,5.0,76,,,,,,,,,,,,,,,,,,,,,,,,,,,,,,,,
0.0,1.0,0.51326,0.0,26.0,26.0,26.0,1.0,rabbit_03s.jpg,0.0,clock_7_3.png,5.0,76,,,,,,,,,,,,,,,,,,,,,,,,,,,,,,,,
1.0,1.0,1.030825,0.0,27.0,27.0,27.0,1.0,sea_urchin_09s.jpg,1.0,clock_7_4.png,5.0,76,,,,,,,,,,,,,,,,,,,,,,,,,,,,,,,,
1.0,1.0,0.98692,0.0,28.0,28.0,28.0,1.0,sea_urchin_09s.jpg,1.0,clock_7_5.png,5.0,76,,,,,,,,,,,,,,,,,,,,,,,,,,,,,,,,
0.0,1.0,0.955975,0.0,29.0,29.0,29.0,1.0,bee_20s.jpg,0.0,clock_7_6.png,5.0,76,,,,,,,,,,,,,,,,,,,,,,,,,,,,,,,,
1.0,1.0,0.998705,0.0,30.0,30.0,30.0,1.0,sea_urchin_09s.jpg,1.0,clock_7_7.png,5.0,76,,,,,,,,,,,,,,,,,,,,,,,,,,,,,,,,
0.0,1.0,0.43442,0.0,31.0,31.0,31.0,1.0,pantyhose_07s.jpg,0.0,clock_5_1.png,6.0,76,,,,,,,,,,,,,,,,,,,,,,,,,,,,,,,,
1.0,1.0,1.528225,0.0,32.0,32.0,32.0,1.0,pantyhose_07s.jpg,1.0,clock_5_2.png,6.0,76,,,,,,,,,,,,,,,,,,,,,,,,,,,,,,,,
0.0,1.0,1.493425,0.0,33.0,33.0,33.0,1.0,birthday_cake_09s.jpg,0.0,clock_5_3.png,6.0,76,,,,,,,,,,,,,,,,,,,,,,,,,,,,,,,,
0.0,1.0,1.16947,0.0,34.0,34.0,34.0,1.0,rooster_03s.jpg,0.0,clock_5_4.png,6.0,76,,,,,,,,,,,,,,,,,,,,,,,,,,,,,,,,
1.0,1.0,0.6762,0.0,35.0,35.0,35.0,1.0,rooster_03s.jpg,1.0,clock_5_5.png,6.0,76,,,,,,,,,,,,,,,,,,,,,,,,,,,,,,,,
,,,,,,,,,0.0,,,76,1.0,0.0,1.088725,0.0,0.0,0.0,0.0,1.0,purse_05s.jpg,coat_rack_01b.jpg,,,,,,,,,,,,,,,,,,,,,,
,,,,,,,,,0.0,,,76,0.0,1.0,3.21834,0.0,1.0,1.0,1.0,1.0,bean_06s.jpg,lamb_04s.jpg,,,,,,,,,,,,,,,,,,,,,,
,,,,,,,,,1.0,,,76,0.0,0.0,1.25111,0.0,2.0,2.0,2.0,1.0,top_hat_11s.jpg,breadstick_08s.jpg,,,,,,,,,,,,,,,,,,,,,,
,,,,,,,,,1.0,,,76,1.0,1.0,1.17372,0.0,3.0,3.0,3.0,1.0,rabbit_03s.jpg,bee_20s.jpg,,,,,,,,,,,,,,,,,,,,,,
,,,,,,,,,0.0,,,76,0.0,1.0,1.48985,0.0,4.0,4.0,4.0,1.0,pan_02s.jpg,lion_18s.jpg,,,,,,,,,,,,,,,,,,,,,,
,,,,,,,,,0.0,,,76,0.0,1.0,1.163105,0.0,5.0,5.0,5.0,1.0,puddle_02s.jpg,leotard_08s.jpg,,,,,,,,,,,,,,,,,,,,,,
,,,,,,,,,,,,76,,,,,,,,,,,0.0,3.0,3.0,3.0,1.0,clock_present_4_15.xlsx,clock_compare_task_4_15.xlsx,,,,,,,,,,,,,,,
0.0,1.0,0.806125,0.0,0.0,0.0,0.0,1.0,bowler_hat_10s.jpg,0.0,clock_7_1.png,1.0,76,,,,,,,,,,,,,,,,,,,,,,,,,,,,,,,,
0.0,1.0,0.5146,0.0,1.0,1.0,1.0,1.0,denture_03s.jpg,0.0,clock_7_2.png,1.0,76,,,,,,,,,,,,,,,,,,,,,,,,,,,,,,,,
0.0,1.0,1.21253,0.0,2.0,2.0,2.0,1.0,road_sign_05s.jpg,0.0,clock_7_3.png,1.0,76,,,,,,,,,,,,,,,,,,,,,,,,,,,,,,,,
1.0,1.0,0.78043,0.0,3.0,3.0,3.0,1.0,road_sign_05s.jpg,1.0,clock_7_4.png,1.0,76,,,,,,,,,,,,,,,,,,,,,,,,,,,,,,,,
0.0,1.0,0.90168,0.0,4.0,4.0,4.0,1.0,keyboard_05s.jpg,0.0,clock_7_5.png,1.0,76,,,,,,,,,,,,,,,,,,,,,,,,,,,,,,,,
1.0,1.0,0.61389,0.0,5.0,5.0,5.0,1.0,keyboard_05s.jpg,1.0,clock_7_6.png,1.0,76,,,,,,,,,,,,,,,,,,,,,,,,,,,,,,,,
0.0,1.0,0.62396,0.0,6.0,6.0,6.0,1.0,pinwheel_06s.jpg,0.0,clock_7_7.png,1.0,76,,,,,,,,,,,,,,,,,,,,,,,,,,,,,,,,
0.0,1.0,1.156795,0.0,7.0,7.0,7.0,1.0,giraffe_11s.jpg,0.0,clock_6_1.png,2.0,76,,,,,,,,,,,,,,,,,,,,,,,,,,,,,,,,
0.0,1.0,0.510945,0.0,8.0,8.0,8.0,1.0,scooter.jpg,0.0,clock_6_2.png,2.0,76,,,,,,,,,,,,,,,,,,,,,,,,,,,,,,,,
0.0,1.0,0.50494,0.0,9.0,9.0,9.0,1.0,turkey_10s.jpg,0.0,clock_6_3.png,2.0,76,,,,,,,,,,,,,,,,,,,,,,,,,,,,,,,,
0.0,1.0,0.660905,0.0,10.0,10.0,10.0,1.0,bubble_01b.jpg,0.0,clock_6_4.png,2.0,76,,,,,,,,,,,,,,,,,,,,,,,,,,,,,,,,
0.0,1.0,0.730555,0.0,11.0,11.0,11.0,1.0,mixer_12s.jpg,0.0,clock_6_5.png,2.0,76,,,,,,,,,,,,,,,,,,,,,,,,,,,,,,,,
0.0,1.0,0.47904,0.0,12.0,12.0,12.0,1.0,gear_07s.jpg,0.0,clock_6_6.png,2.0,76,,,,,,,,,,,,,,,,,,,,,,,,,,,,,,,,
0.0,1.0,0.67902,0.0,13.0,13.0,13.0,1.0,mannequin_05s.jpg,0.0,clock_6_1.png,3.0,76,,,,,,,,,,,,,,,,,,,,,,,,,,,,,,,,
0.0,1.0,0.623455,0.0,14.0,14.0,14.0,1.0,cap_05s.jpg,0.0,clock_6_2.png,3.0,76,,,,,,,,,,,,,,,,,,,,,,,,,,,,,,,,
0.0,1.0,0.585855,0.0,15.0,15.0,15.0,1.0,gazelle_10s.jpg,0.0,clock_6_3.png,3.0,76,,,,,,,,,,,,,,,,,,,,,,,,,,,,,,,,
1.0,1.0,0.69741,0.0,16.0,16.0,16.0,1.0,gazelle_10s.jpg,1.0,clock_6_4.png,3.0,76,,,,,,,,,,,,,,,,,,,,,,,,,,,,,,,,
0.0,1.0,0.49648,0.0,17.0,17.0,17.0,1.0,projector_08s.jpg,0.0,clock_6_5.png,3.0,76,,,,,,,,,,,,,,,,,,,,,,,,,,,,,,,,
1.0,1.0,1.248295,0.0,18.0,18.0,18.0,1.0,mannequin_05s.jpg,1.0,clock_6_6.png,3.0,76,,,,,,,,,,,,,,,,,,,,,,,,,,,,,,,,
0.0,1.0,0.706985,0.0,19.0,19.0,19.0,1.0,fishhook_06s.jpg,0.0,clock_5_1.png,4.0,76,,,,,,,,,,,,,,,,,,,,,,,,,,,,,,,,
0.0,1.0,0.580115,0.0,20.0,20.0,20.0,1.0,buoy_04s.jpg,0.0,clock_5_2.png,4.0,76,,,,,,,,,,,,,,,,,,,,,,,,,,,,,,,,
0.0,1.0,0.94161,0.0,21.0,21.0,21.0,1.0,ant_12s.jpg,0.0,clock_5_3.png,4.0,76,,,,,,,,,,,,,,,,,,,,,,,,,,,,,,,,
0.0,1.0,0.713885,0.0,22.0,22.0,22.0,1.0,tab_09s.jpg,0.0,clock_5_4.png,4.0,76,,,,,,,,,,,,,,,,,,,,,,,,,,,,,,,,
0.0,1.0,0.629795,0.0,23.0,23.0,23.0,1.0,footprint_11s.jpg,0.0,clock_5_5.png,4.0,76,,,,,,,,,,,,,,,,,,,,,,,,,,,,,,,,
0.0,1.0,0.56603,0.0,24.0,24.0,24.0,1.0,blazer_02s.jpg,0.0,clock_7_1.png,5.0,76,,,,,,,,,,,,,,,,,,,,,,,,,,,,,,,,
0.0,1.0,0.580285,0.0,25.0,25.0,25.0,1.0,eyedropper_12s.jpg,0.0,clock_7_2.png,5.0,76,,,,,,,,,,,,,,,,,,,,,,,,,,,,,,,,
1.0,0.0,0.96912,0.0,26.0,26.0,26.0,1.0,bowler_hat_10s.jpg,0.0,clock_7_3.png,5.0,76,,,,,,,,,,,,,,,,,,,,,,,,,,,,,,,,
1.0,1.0,0.925545,0.0,27.0,27.0,27.0,1.0,eyedropper_12s.jpg,1.0,clock_7_4.png,5.0,76,,,,,,,,,,,,,,,,,,,,,,,,,,,,,,,,
0.0,1.0,0.54057,0.0,28.0,28.0,28.0,1.0,incense_02s.jpg,0.0,clock_7_5.png,5.0,76,,,,,,,,,,,,,,,,,,,,,,,,,,,,,,,,
0.0,1.0,0.65308,0.0,29.0,29.0,29.0,1.0,loom_05s.jpg,0.0,clock_7_6.png,5.0,76,,,,,,,,,,,,,,,,,,,,,,,,,,,,,,,,
0.0,1.0,1.52014,0.0,30.0,30.0,30.0,1.0,cape_11s.jpg,0.0,clock_7_7.png,5.0,76,,,,,,,,,,,,,,,,,,,,,,,,,,,,,,,,
0.0,1.0,0.58045,0.0,31.0,31.0,31.0,1.0,coconut_08s.jpg,0.0,clock_5_1.png,6.0,76,,,,,,,,,,,,,,,,,,,,,,,,,,,,,,,,
,0.0,,0.0,32.0,32.0,32.0,1.0,road_sign_05s.jpg,0.0,clock_5_2.png,6.0,76,,,,,,,,,,,,,,,,,,,,,,,,,,,,,,,,
0.0,1.0,0.466055,0.0,33.0,33.0,33.0,1.0,screwdriver02a.jpg,0.0,clock_5_3.png,6.0,76,,,,,,,,,,,,,,,,,,,,,,,,,,,,,,,,
0.0,1.0,1.339345,0.0,34.0,34.0,34.0,1.0,turnstile_08s.jpg,0.0,clock_5_4.png,6.0,76,,,,,,,,,,,,,,,,,,,,,,,,,,,,,,,,
0.0,1.0,0.66746,0.0,35.0,35.0,35.0,1.0,peppermint_07s.jpg,0.0,clock_5_5.png,6.0,76,,,,,,,,,,,,,,,,,,,,,,,,,,,,,,,,
,,,,,,,,,1.0,,,76,1.0,1.0,2.566065,0.0,0.0,0.0,0.0,1.0,ant_12s.jpg,blazer_02s.jpg,,,,,,,,,,,,,,,,,,,,,,
,,,,,,,,,1.0,,,76,0.0,0.0,1.598955,0.0,1.0,1.0,1.0,1.0,cape_11s.jpg,screwdriver02a.jpg,,,,,,,,,,,,,,,,,,,,,,
,,,,,,,,,1.0,,,76,0.0,0.0,1.32393,0.0,2.0,2.0,2.0,1.0,pinwheel_06s.jpg,turkey_10s.jpg,,,,,,,,,,,,,,,,,,,,,,
,,,,,,,,,1.0,,,76,0.0,0.0,2.61167,0.0,3.0,3.0,3.0,1.0,giraffe_11s.jpg,bubble_01b.jpg,,,,,,,,,,,,,,,,,,,,,,
,,,,,,,,,0.0,,,76,1.0,0.0,0.91431,0.0,4.0,4.0,4.0,1.0,tab_09s.jpg,fishhook_06s.jpg,,,,,,,,,,,,,,,,,,,,,,
,,,,,,,,,0.0,,,76,1.0,0.0,1.080785,0.0,5.0,5.0,5.0,1.0,mixer_12s.jpg,scooter.jpg,,,,,,,,,,,,,,,,,,,,,,
,,,,,,,,,,,,76,,,,,,,,,,,0.0,4.0,4.0,4.0,1.0,clock_present_5_15.xlsx,clock_compare_task_5_15.xlsx,,,,,,,,,,,,,,,
0.0,1.0,0.59923,0.0,0.0,0.0,0.0,1.0,glue_01s.jpg,0.0,clock_7_1.png,1.0,76,,,,,,,,,,,,,,,,,,,,,,,,,,,,,,,,
1.0,1.0,0.689655,0.0,1.0,1.0,1.0,1.0,glue_01s.jpg,1.0,clock_7_2.png,1.0,76,,,,,,,,,,,,,,,,,,,,,,,,,,,,,,,,
0.0,1.0,0.61472,0.0,2.0,2.0,2.0,1.0,tape_06s.jpg,0.0,clock_7_3.png,1.0,76,,,,,,,,,,,,,,,,,,,,,,,,,,,,,,,,
1.0,1.0,0.714085,0.0,3.0,3.0,3.0,1.0,glue_01s.jpg,1.0,clock_7_4.png,1.0,76,,,,,,,,,,,,,,,,,,,,,,,,,,,,,,,,
1.0,1.0,0.762625,0.0,4.0,4.0,4.0,1.0,glue_01s.jpg,1.0,clock_7_5.png,1.0,76,,,,,,,,,,,,,,,,,,,,,,,,,,,,,,,,
0.0,1.0,0.57353,0.0,5.0,5.0,5.0,1.0,powder_07s.jpg,0.0,clock_7_6.png,1.0,76,,,,,,,,,,,,,,,,,,,,,,,,,,,,,,,,
0.0,1.0,1.037425,0.0,6.0,6.0,6.0,1.0,swan_11s.jpg,0.0,clock_7_7.png,1.0,76,,,,,,,,,,,,,,,,,,,,,,,,,,,,,,,,
0.0,1.0,0.51333,0.0,7.0,7.0,7.0,1.0,badge_03s.jpg,0.0,clock_5_1.png,2.0,76,,,,,,,,,,,,,,,,,,,,,,,,,,,,,,,,
0.0,1.0,0.53119,0.0,8.0,8.0,8.0,1.0,turf_03s.jpg,0.0,clock_5_2.png,2.0,76,,,,,,,,,,,,,,,,,,,,,,,,,,,,,,,,
0.0,1.0,0.812985,0.0,9.0,9.0,9.0,1.0,stapler_01b.jpg,0.0,clock_5_3.png,2.0,76,,,,,,,,,,,,,,,,,,,,,,,,,,,,,,,,
0.0,1.0,0.648335,0.0,10.0,10.0,10.0,1.0,taxi_15s.jpg,0.0,clock_5_4.png,2.0,76,,,,,,,,,,,,,,,,,,,,,,,,,,,,,,,,
1.0,1.0,0.616665,0.0,11.0,11.0,11.0,1.0,turf_03s.jpg,1.0,clock_5_5.png,2.0,76,,,,,,,,,,,,,,,,,,,,,,,,,,,,,,,,
0.0,1.0,0.537685,0.0,12.0,12.0,12.0,1.0,turtleneck_11s.jpg,0.0,clock_5_1.png,3.0,76,,,,,,,,,,,,,,,,,,,,,,,,,,,,,,,,
0.0,1.0,0.486175,0.0,13.0,13.0,13.0,1.0,safety_pin_02s.jpg,0.0,clock_5_2.png,3.0,76,,,,,,,,,,,,,,,,,,,,,,,,,,,,,,,,
0.0,1.0,1.18559,0.0,14.0,14.0,14.0,1.0,powder_07s.jpg,0.0,clock_5_3.png,3.0,76,,,,,,,,,,,,,,,,,,,,,,,,,,,,,,,,
0.0,1.0,0.68024,0.0,15.0,15.0,15.0,1.0,lizard_10n.jpg,0.0,clock_5_4.png,3.0,76,,,,,,,,,,,,,,,,,,,,,,,,,,,,,,,,
0.0,1.0,0.558285,0.0,16.0,16.0,16.0,1.0,crate_05s.jpg,0.0,clock_5_5.png,3.0,76,,,,,,,,,,,,,,,,,,,,,,,,,,,,,,,,
0.0,1.0,0.516085,0.0,17.0,17.0,17.0,1.0,tablet_04s.jpg,0.0,clock_7_1.png,4.0,76,,,,,,,,,,,,,,,,,,,,,,,,,,,,,,,,
0.0,1.0,0.45751,0.0,18.0,18.0,18.0,1.0,rudder_02s.jpg,0.0,clock_7_2.png,4.0,76,,,,,,,,,,,,,,,,,,,,,,,,,,,,,,,,
0.0,1.0,1.32422,0.0,19.0,19.0,19.0,1.0,lizard_10n.jpg,0.0,clock_7_3.png,4.0,76,,,,,,,,,,,,,,,,,,,,,,,,,,,,,,,,
0.0,1.0,0.49753,0.0,20.0,20.0,20.0,1.0,limousine_12s.jpg,0.0,clock_7_4.png,4.0,76,,,,,,,,,,,,,,,,,,,,,,,,,,,,,,,,
0.0,1.0,0.382675,0.0,21.0,21.0,21.0,1.0,sleeping_bag_12s.jpg,0.0,clock_7_5.png,4.0,76,,,,,,,,,,,,,,,,,,,,,,,,,,,,,,,,
0.0,1.0,0.38333,0.0,22.0,22.0,22.0,1.0,tennis_ball_06s.jpg,0.0,clock_7_6.png,4.0,76,,,,,,,,,,,,,,,,,,,,,,,,,,,,,,,,
0.0,1.0,0.80266,0.0,23.0,23.0,23.0,1.0,pea_11s.jpg,0.0,clock_7_7.png,4.0,76,,,,,,,,,,,,,,,,,,,,,,,,,,,,,,,,
0.0,1.0,0.45796,0.0,24.0,24.0,24.0,1.0,tile_08s.jpg,0.0,clock_6_1.png,5.0,76,,,,,,,,,,,,,,,,,,,,,,,,,,,,,,,,
0.0,1.0,0.38352,0.0,25.0,25.0,25.0,1.0,paper_bag_12s.jpg,0.0,clock_6_2.png,5.0,76,,,,,,,,,,,,,,,,,,,,,,,,,,,,,,,,
0.0,1.0,0.470575,0.0,26.0,26.0,26.0,1.0,umbrella_15s.jpg,0.0,clock_6_3.png,5.0,76,,,,,,,,,,,,,,,,,,,,,,,,,,,,,,,,
1.0,1.0,0.515925,0.0,27.0,27.0,27.0,1.0,umbrella_15s.jpg,1.0,clock_6_4.png,5.0,76,,,,,,,,,,,,,,,,,,,,,,,,,,,,,,,,
0.0,1.0,0.5052,0.0,28.0,28.0,28.0,1.0,bank_06s.jpg,0.0,clock_6_5.png,5.0,76,,,,,,,,,,,,,,,,,,,,,,,,,,,,,,,,
1.0,1.0,0.656355,0.0,29.0,29.0,29.0,1.0,bank_06s.jpg,1.0,clock_6_6.png,5.0,76,,,,,,,,,,,,,,,,,,,,,,,,,,,,,,,,
0.0,1.0,0.34901,0.0,30.0,30.0,30.0,1.0,crayon_09s.jpg,0.0,clock_6_1.png,6.0,76,,,,,,,,,,,,,,,,,,,,,,,,,,,,,,,,
0.0,1.0,0.84744,0.0,31.0,31.0,31.0,1.0,amber_04s.jpg,0.0,clock_6_2.png,6.0,76,,,,,,,,,,,,,,,,,,,,,,,,,,,,,,,,
0.0,1.0,0.57796,0.0,32.0,32.0,32.0,1.0,towel_rack_04s.jpg,0.0,clock_6_3.png,6.0,76,,,,,,,,,,,,,,,,,,,,,,,,,,,,,,,,
0.0,1.0,0.46611,0.0,33.0,33.0,33.0,1.0,puck_06s.jpg,0.0,clock_6_4.png,6.0,76,,,,,,,,,,,,,,,,,,,,,,,,,,,,,,,,
0.0,1.0,0.536845,0.0,34.0,34.0,34.0,1.0,iron_13s.jpg,0.0,clock_6_5.png,6.0,76,,,,,,,,,,,,,,,,,,,,,,,,,,,,,,,,
0.0,1.0,0.770785,0.0,35.0,35.0,35.0,1.0,rocking_chair_05s.jpg,0.0,clock_6_6.png,6.0,76,,,,,,,,,,,,,,,,,,,,,,,,,,,,,,,,
,,,,,,,,,0.0,,,76,0.0,1.0,1.75954,0.0,0.0,0.0,0.0,1.0,stapler_01b.jpg,swan_11s.jpg,,,,,,,,,,,,,,,,,,,,,,
,,,,,,,,,1.0,,,76,1.0,1.0,1.086395,0.0,1.0,1.0,1.0,1.0,tennis_ball_06s.jpg,paper_bag_12s.jpg,,,,,,,,,,,,,,,,,,,,,,
,,,,,,,,,0.0,,,76,0.0,1.0,1.197265,0.0,2.0,2.0,2.0,1.0,tile_08s.jpg,sleeping_bag_12s.jpg,,,,,,,,,,,,,,,,,,,,,,
,,,,,,,,,1.0,,,76,0.0,0.0,1.535995,0.0,3.0,3.0,3.0,1.0,tablet_04s.jpg,limousine_12s.jpg,,,,,,,,,,,,,,,,,,,,,,
,,,,,,,,,1.0,,,76,1.0,1.0,2.730865,0.0,4.0,4.0,4.0,1.0,crayon_09s.jpg,puck_06s.jpg,,,,,,,,,,,,,,,,,,,,,,
,,,,,,,,,1.0,,,76,1.0,1.0,1.22115,0.0,5.0,5.0,5.0,1.0,amber_04s.jpg,iron_13s.jpg,,,,,,,,,,,,,,,,,,,,,,
0.0,1.0,0.655455,,,,,,lasagna_06s.jpg,0.0,clockno_up.jpg,1.0,76,,,,,,,,,,,,,,,,,,0.0,0.0,0.0,0.0,1.0,,,,,,,,,,
0.0,1.0,0.61621,,,,,,kitten_07s.jpg,0.0,clockno_default.jpg,1.0,76,,,,,,,,,,,,,,,,,,0.0,1.0,1.0,1.0,1.0,,,,,,,,,,
0.0,1.0,0.41195,,,,,,dashboard_02s.jpg,0.0,clockno_default.jpg,1.0,76,,,,,,,,,,,,,,,,,,0.0,2.0,2.0,2.0,1.0,,,,,,,,,,
0.0,1.0,0.573665,,,,,,tattoo_14s.jpg,0.0,clockno_default.jpg,1.0,76,,,,,,,,,,,,,,,,,,0.0,3.0,3.0,3.0,1.0,,,,,,,,,,
0.0,1.0,0.54652,,,,,,razor_12s.jpg,0.0,clockno_default.jpg,1.0,76,,,,,,,,,,,,,,,,,,0.0,4.0,4.0,4.0,1.0,,,,,,,,,,
0.0,1.0,0.4274,,,,,,pumpkin_03s.jpg,0.0,clockno_default.jpg,1.0,76,,,,,,,,,,,,,,,,,,0.0,5.0,5.0,5.0,1.0,,,,,,,,,,
0.0,1.0,0.51348,,,,,,doily_13s.jpg,0.0,clockno_default.jpg,1.0,76,,,,,,,,,,,,,,,,,,0.0,6.0,6.0,6.0,1.0,,,,,,,,,,
0.0,1.0,0.827695,,,,,,lollipop_08s.jpg,0.0,clockno_up.jpg,2.0,76,,,,,,,,,,,,,,,,,,0.0,7.0,7.0,7.0,1.0,,,,,,,,,,
0.0,1.0,0.811295,,,,,,measuring_cup_02s.jpg,0.0,clockno_default.jpg,2.0,76,,,,,,,,,,,,,,,,,,0.0,8.0,8.0,8.0,1.0,,,,,,,,,,
0.0,1.0,1.25801,,,,,,puffin_19s.jpg,0.0,clockno_default.jpg,2.0,76,,,,,,,,,,,,,,,,,,0.0,9.0,9.0,9.0,1.0,,,,,,,,,,
0.0,1.0,1.405805,,,,,,ukulele_02s.jpg,0.0,clockno_default.jpg,2.0,76,,,,,,,,,,,,,,,,,,0.0,10.0,10.0,10.0,1.0,,,,,,,,,,
0.0,1.0,1.119325,,,,,,plunger_08s.jpg,0.0,clockno_default.jpg,2.0,76,,,,,,,,,,,,,,,,,,0.0,11.0,11.0,11.0,1.0,,,,,,,,,,
1.0,1.0,1.57431,,,,,,plunger_08s.jpg,1.0,clockno_default.jpg,2.0,76,,,,,,,,,,,,,,,,,,0.0,12.0,12.0,12.0,1.0,,,,,,,,,,
0.0,1.0,1.241795,,,,,,tupperware_09s.jpg,0.0,clockno_up.jpg,3.0,76,,,,,,,,,,,,,,,,,,0.0,13.0,13.0,13.0,1.0,,,,,,,,,,
1.0,1.0,2.0403,,,,,,tupperware_09s.jpg,1.0,clockno_default.jpg,3.0,76,,,,,,,,,,,,,,,,,,0.0,14.0,14.0,14.0,1.0,,,,,,,,,,
,0.0,,,,,,,puffin_19s.jpg,0.0,clockno_default.jpg,3.0,76,,,,,,,,,,,,,,,,,,0.0,15.0,15.0,15.0,1.0,,,,,,,,,,
1.0,1.0,1.329665,,,,,,tupperware_09s.jpg,1.0,clockno_default.jpg,3.0,76,,,,,,,,,,,,,,,,,,0.0,16.0,16.0,16.0,1.0,,,,,,,,,,
0.0,1.0,1.13203,,,,,,thread_08s.jpg,0.0,clockno_default.jpg,3.0,76,,,,,,,,,,,,,,,,,,0.0,17.0,17.0,17.0,1.0,,,,,,,,,,
0.0,1.0,0.471075,,,,,,knot_01b.jpg,0.0,clockno_default.jpg,3.0,76,,,,,,,,,,,,,,,,,,0.0,18.0,18.0,18.0,1.0,,,,,,,,,,
0.0,1.0,0.71423,,,,,,tulip_02s.jpg,0.0,clockno_up.jpg,4.0,76,,,,,,,,,,,,,,,,,,0.0,19.0,19.0,19.0,1.0,,,,,,,,,,
0.0,1.0,0.78893,,,,,,oil_02s.jpg,0.0,clockno_default.jpg,4.0,76,,,,,,,,,,,,,,,,,,0.0,20.0,20.0,20.0,1.0,,,,,,,,,,
0.0,1.0,0.56287,,,,,,luggage_08s.jpg,0.0,clockno_default.jpg,4.0,76,,,,,,,,,,,,,,,,,,0.0,21.0,21.0,21.0,1.0,,,,,,,,,,
0.0,1.0,0.656885,,,,,,treasure_08s.jpg,0.0,clockno_default.jpg,4.0,76,,,,,,,,,,,,,,,,,,0.0,22.0,22.0,22.0,1.0,,,,,,,,,,
0.0,1.0,0.487055,,,,,,mango_09s.jpg,0.0,clockno_default.jpg,4.0,76,,,,,,,,,,,,,,,,,,0.0,23.0,23.0,23.0,1.0,,,,,,,,,,
0.0,1.0,0.48648,,,,,,printer_09s.jpg,0.0,clockno_default.jpg,4.0,76,,,,,,,,,,,,,,,,,,0.0,24.0,24.0,24.0,1.0,,,,,,,,,,
0.0,1.0,0.60282,,,,,,pump_11s.jpg,0.0,clockno_default.jpg,4.0,76,,,,,,,,,,,,,,,,,,0.0,25.0,25.0,25.0,1.0,,,,,,,,,,
0.0,1.0,0.7958,,,,,,sugar_cube_11s.jpg,0.0,clockno_up.jpg,5.0,76,,,,,,,,,,,,,,,,,,0.0,26.0,26.0,26.0,1.0,,,,,,,,,,
0.0,1.0,0.530855,,,,,,cotton_candy_01b.jpg,0.0,clockno_default.jpg,5.0,76,,,,,,,,,,,,,,,,,,0.0,27.0,27.0,27.0,1.0,,,,,,,,,,
0.0,1.0,1.228745,,,,,,treasure_08s.jpg,0.0,clockno_default.jpg,5.0,76,,,,,,,,,,,,,,,,,,0.0,28.0,28.0,28.0,1.0,,,,,,,,,,
1.0,1.0,0.771575,,,,,,cotton_candy_01b.jpg,1.0,clockno_default.jpg,5.0,76,,,,,,,,,,,,,,,,,,0.0,29.0,29.0,29.0,1.0,,,,,,,,,,
0.0,1.0,0.77347,,,,,,popsicle_02s.jpg,0.0,clockno_default.jpg,5.0,76,,,,,,,,,,,,,,,,,,0.0,30.0,30.0,30.0,1.0,,,,,,,,,,
0.0,1.0,0.663435,,,,,,polar_bear_02s.jpg,0.0,clockno_up.jpg,6.0,76,,,,,,,,,,,,,,,,,,0.0,31.0,31.0,31.0,1.0,,,,,,,,,,
0.0,1.0,0.621595,,,,,,leash_10s.jpg,0.0,clockno_default.jpg,6.0,76,,,,,,,,,,,,,,,,,,0.0,32.0,32.0,32.0,1.0,,,,,,,,,,
0.0,1.0,0.48506,,,,,,rocking_horse_03s.jpg,0.0,clockno_default.jpg,6.0,76,,,,,,,,,,,,,,,,,,0.0,33.0,33.0,33.0,1.0,,,,,,,,,,
1.0,1.0,0.895845,,,,,,leash_10s.jpg,1.0,clockno_default.jpg,6.0,76,,,,,,,,,,,,,,,,,,0.0,34.0,34.0,34.0,1.0,,,,,,,,,,
1.0,1.0,0.61848,,,,,,leash_10s.jpg,1.0,clockno_default.jpg,6.0,76,,,,,,,,,,,,,,,,,,0.0,35.0,35.0,35.0,1.0,,,,,,,,,,
,,,,,,,,,1.0,,,76,1.0,1.0,1.925635,,,,,,popsicle_02s.jpg,rocking_horse_03s.jpg,,,,,,,,,,,,,0.0,0.0,0.0,0.0,1.0,,,,,
,,,,,,,,,1.0,,,76,1.0,1.0,1.041945,,,,,,pumpkin_03s.jpg,measuring_cup_02s.jpg,,,,,,,,,,,,,0.0,1.0,1.0,1.0,1.0,,,,,
,,,,,,,,,1.0,,,76,1.0,1.0,2.87996,,,,,,thread_08s.jpg,oil_02s.jpg,,,,,,,,,,,,,0.0,2.0,2.0,2.0,1.0,,,,,
,,,,,,,,,1.0,,,76,1.0,1.0,1.912225,,,,,,lasagna_06s.jpg,tattoo_14s.jpg,,,,,,,,,,,,,0.0,3.0,3.0,3.0,1.0,,,,,
,,,,,,,,,1.0,,,76,1.0,1.0,1.166045,,,,,,kitten_07s.jpg,razor_12s.jpg,,,,,,,,,,,,,0.0,4.0,4.0,4.0,1.0,,,,,
,,,,,,,,,1.0,,,76,1.0,1.0,1.954915,,,,,,lollipop_08s.jpg,ukulele_02s.jpg,,,,,,,,,,,,,0.0,5.0,5.0,5.0,1.0,,,,,
,,,,,,,,,,,,76,,,,,,,,,,,,,,,,clockno_present_1_15.xlsx,clockno_compare_task_1_15.xlsx,,,,,,,,,,,0.0,0.0,0.0,0.0,1.0
0.0,1.0,0.8968,,,,,,teapot_03s.jpg,0.0,clockno_up.jpg,1.0,76,,,,,,,,,,,,,,,,,,0.0,0.0,0.0,0.0,1.0,,,,,,,,,,
0.0,1.0,0.568315,,,,,,ticktacktoe_08s.jpg,0.0,clockno_default.jpg,1.0,76,,,,,,,,,,,,,,,,,,0.0,1.0,1.0,1.0,1.0,,,,,,,,,,
0.0,1.0,0.519115,,,,,,espresso_01b.jpg,0.0,clockno_default.jpg,1.0,76,,,,,,,,,,,,,,,,,,0.0,2.0,2.0,2.0,1.0,,,,,,,,,,
0.0,1.0,0.462515,,,,,,smoothie_09s.jpg,0.0,clockno_default.jpg,1.0,76,,,,,,,,,,,,,,,,,,0.0,3.0,3.0,3.0,1.0,,,,,,,,,,
1.0,1.0,1.196025,,,,,,espresso_01b.jpg,1.0,clockno_default.jpg,1.0,76,,,,,,,,,,,,,,,,,,0.0,4.0,4.0,4.0,1.0,,,,,,,,,,
0.0,1.0,1.066275,,,,,,latte_06s.jpg,0.0,clockno_default.jpg,1.0,76,,,,,,,,,,,,,,,,,,0.0,5.0,5.0,5.0,1.0,,,,,,,,,,
1.0,1.0,1.80268,,,,,,smoothie_09s.jpg,1.0,clockno_default.jpg,1.0,76,,,,,,,,,,,,,,,,,,0.0,6.0,6.0,6.0,1.0,,,,,,,,,,
0.0,1.0,2.18122,,,,,,milk_02s.jpg,0.0,clockno_up.jpg,2.0,76,,,,,,,,,,,,,,,,,,0.0,7.0,7.0,7.0,1.0,,,,,,,,,,
0.0,1.0,1.096835,,,,,,teapot_03s.jpg,0.0,clockno_default.jpg,2.0,76,,,,,,,,,,,,,,,,,,0.0,8.0,8.0,8.0,1.0,,,,,,,,,,
0.0,1.0,0.43907,,,,,,koala_13s.jpg,0.0,clockno_default.jpg,2.0,76,,,,,,,,,,,,,,,,,,0.0,9.0,9.0,9.0,1.0,,,,,,,,,,
0.0,1.0,0.81779,,,,,,machete_06s.jpg,0.0,clockno_default.jpg,2.0,76,,,,,,,,,,,,,,,,,,0.0,10.0,10.0,10.0,1.0,,,,,,,,,,
1.0,1.0,0.62777,,,,,,teapot_03s.jpg,1.0,clockno_default.jpg,2.0,76,,,,,,,,,,,,,,,,,,0.0,11.0,11.0,11.0,1.0,,,,,,,,,,
0.0,1.0,0.55468,,,,,,mascara_03s.jpg,0.0,clockno_default.jpg,2.0,76,,,,,,,,,,,,,,,,,,0.0,12.0,12.0,12.0,1.0,,,,,,,,,,
0.0,1.0,0.75734,,,,,,hydrant_10s.jpg,0.0,clockno_up.jpg,3.0,76,,,,,,,,,,,,,,,,,,0.0,13.0,13.0,13.0,1.0,,,,,,,,,,
0.0,1.0,0.43076,,,,,,feather02.jpg,0.0,clockno_default.jpg,3.0,76,,,,,,,,,,,,,,,,,,0.0,14.0,14.0,14.0,1.0,,,,,,,,,,
0.0,1.0,1.552575,,,,,,fox_13s.jpg,0.0,clockno_default.jpg,3.0,76,,,,,,,,,,,,,,,,,,0.0,15.0,15.0,15.0,1.0,,,,,,,,,,
0.0,1.0,0.76194,,,,,,thermostat_02s.jpg,0.0,clockno_default.jpg,3.0,76,,,,,,,,,,,,,,,,,,0.0,16.0,16.0,16.0,1.0,,,,,,,,,,
0.0,1.0,1.300385,,,,,,possum_09s.jpg,0.0,clockno_default.jpg,3.0,76,,,,,,,,,,,,,,,,,,0.0,17.0,17.0,17.0,1.0,,,,,,,,,,
0.0,1.0,0.71742,,,,,,memory_stick_11s.jpg,0.0,clockno_up.jpg,4.0,76,,,,,,,,,,,,,,,,,,0.0,18.0,18.0,18.0,1.0,,,,,,,,,,
1.0,1.0,1.386625,,,,,,memory_stick_11s.jpg,1.0,clockno_default.jpg,4.0,76,,,,,,,,,,,,,,,,,,0.0,19.0,19.0,19.0,1.0,,,,,,,,,,
0.0,1.0,1.83458,,,,,,mascara_03s.jpg,0.0,clockno_default.jpg,4.0,76,,,,,,,,,,,,,,,,,,0.0,20.0,20.0,20.0,1.0,,,,,,,,,,
0.0,1.0,0.55795,,,,,,ice-cream_cone_06s.jpg,0.0,clockno_default.jpg,4.0,76,,,,,,,,,,,,,,,,,,0.0,21.0,21.0,21.0,1.0,,,,,,,,,,
0.0,1.0,0.523485,,,,,,cucumber_07s.jpg,0.0,clockno_default.jpg,4.0,76,,,,,,,,,,,,,,,,,,0.0,22.0,22.0,22.0,1.0,,,,,,,,,,
0.0,1.0,0.56241,,,,,,punch1_10s.jpg,0.0,clockno_default.jpg,4.0,76,,,,,,,,,,,,,,,,,,0.0,23.0,23.0,23.0,1.0,,,,,,,,,,
0.0,1.0,0.58777,,,,,,fondue_07s.jpg,0.0,clockno_up.jpg,5.0,76,,,,,,,,,,,,,,,,,,0.0,24.0,24.0,24.0,1.0,,,,,,,,,,
0.0,1.0,0.44082,,,,,,kangaroo_02s.jpg,0.0,clockno_default.jpg,5.0,76,,,,,,,,,,,,,,,,,,0.0,25.0,25.0,25.0,1.0,,,,,,,,,,
0.0,1.0,0.42889,,,,,,teacup_07s.jpg,0.0,clockno_default.jpg,5.0,76,,,,,,,,,,,,,,,,,,0.0,26.0,26.0,26.0,1.0,,,,,,,,,,
0.0,1.0,0.421425,,,,,,lid_10s.jpg,0.0,clockno_default.jpg,5.0,76,,,,,,,,,,,,,,,,,,0.0,27.0,27.0,27.0,1.0,,,,,,,,,,
0.0,1.0,0.438235,,,,,,pear_02s.jpg,0.0,clockno_default.jpg,5.0,76,,,,,,,,,,,,,,,,,,0.0,28.0,28.0,28.0,1.0,,,,,,,,,,
0.0,1.0,0.39873,,,,,,pacifier_09s.jpg,0.0,clockno_up.jpg,6.0,76,,,,,,,,,,,,,,,,,,0.0,29.0,29.0,29.0,1.0,,,,,,,,,,
0.0,1.0,0.353515,,,,,,raspberry_12s.jpg,0.0,clockno_default.jpg,6.0,76,,,,,,,,,,,,,,,,,,0.0,30.0,30.0,30.0,1.0,,,,,,,,,,
1.0,1.0,0.90014,,,,,,pacifier_09s.jpg,1.0,clockno_default.jpg,6.0,76,,,,,,,,,,,,,,,,,,0.0,31.0,31.0,31.0,1.0,,,,,,,,,,
1.0,1.0,0.80382,,,,,,raspberry_12s.jpg,1.0,clockno_default.jpg,6.0,76,,,,,,,,,,,,,,,,,,0.0,32.0,32.0,32.0,1.0,,,,,,,,,,
1.0,1.0,0.480135,,,,,,raspberry_12s.jpg,1.0,clockno_default.jpg,6.0,76,,,,,,,,,,,,,,,,,,0.0,33.0,33.0,33.0,1.0,,,,,,,,,,
1.0,1.0,0.8753,,,,,,pacifier_09s.jpg,1.0,clockno_default.jpg,6.0,76,,,,,,,,,,,,,,,,,,0.0,34.0,34.0,34.0,1.0,,,,,,,,,,
0.0,1.0,0.55254,,,,,,cereal_04s.jpg,0.0,clockno_default.jpg,6.0,76,,,,,,,,,,,,,,,,,,0.0,35.0,35.0,35.0,1.0,,,,,,,,,,
,,,,,,,,,0.0,,,76,1.0,0.0,1.583325,,,,,,teacup_07s.jpg,punch1_10s.jpg,,,,,,,,,,,,,0.0,0.0,0.0,0.0,1.0,,,,,
,,,,,,,,,1.0,,,76,1.0,1.0,1.081505,,,,,,ice-cream_cone_06s.jpg,fondue_07s.jpg,,,,,,,,,,,,,0.0,1.0,1.0,1.0,1.0,,,,,
,,,,,,,,,1.0,,,76,0.0,0.0,1.70919,,,,,,cucumber_07s.jpg,kangaroo_02s.jpg,,,,,,,,,,,,,0.0,2.0,2.0,2.0,1.0,,,,,
,,,,,,,,,0.0,,,76,1.0,0.0,1.19725,,,,,,possum_09s.jpg,feather02.jpg,,,,,,,,,,,,,0.0,3.0,3.0,3.0,1.0,,,,,
,,,,,,,,,1.0,,,76,0.0,0.0,1.655235,,,,,,milk_02s.jpg,machete_06s.jpg,,,,,,,,,,,,,0.0,4.0,4.0,4.0,1.0,,,,,
,,,,,,,,,1.0,,,76,0.0,0.0,1.66442,,,,,,hydrant_10s.jpg,thermostat_02s.jpg,,,,,,,,,,,,,0.0,5.0,5.0,5.0,1.0,,,,,
,,,,,,,,,,,,76,,,,,,,,,,,,,,,,clockno_present_2_15.xlsx,clockno_compare_task_2_15.xlsx,,,,,,,,,,,0.0,1.0,1.0,1.0,1.0
,0.0,,,,,,,soda_fountain_03s.jpg,0.0,clockno_up.jpg,1.0,76,,,,,,,,,,,,,,,,,,0.0,0.0,0.0,0.0,1.0,,,,,,,,,,
0.0,1.0,0.341155,,,,,,playpen_11s.jpg,0.0,clockno_default.jpg,1.0,76,,,,,,,,,,,,,,,,,,0.0,1.0,1.0,1.0,1.0,,,,,,,,,,
0.0,1.0,0.280815,,,,,,spatula04.jpg,0.0,clockno_default.jpg,1.0,76,,,,,,,,,,,,,,,,,,0.0,2.0,2.0,2.0,1.0,,,,,,,,,,
0.0,1.0,0.48336,,,,,,mitten_10s.jpg,0.0,clockno_default.jpg,1.0,76,,,,,,,,,,,,,,,,,,0.0,3.0,3.0,3.0,1.0,,,,,,,,,,
1.0,1.0,0.733195,,,,,,playpen_11s.jpg,1.0,clockno_default.jpg,1.0,76,,,,,,,,,,,,,,,,,,0.0,4.0,4.0,4.0,1.0,,,,,,,,,,
0.0,1.0,0.69954,,,,,,icemaker_10s.jpg,0.0,clockno_up.jpg,2.0,76,,,,,,,,,,,,,,,,,,0.0,5.0,5.0,5.0,1.0,,,,,,,,,,
0.0,1.0,0.453475,,,,,,teabag_12s.jpg,0.0,clockno_default.jpg,2.0,76,,,,,,,,,,,,,,,,,,0.0,6.0,6.0,6.0,1.0,,,,,,,,,,
0.0,1.0,0.299425,,,,,,trumpet_06s.jpg,0.0,clockno_default.jpg,2.0,76,,,,,,,,,,,,,,,,,,0.0,7.0,7.0,7.0,1.0,,,,,,,,,,
0.0,1.0,0.41816,,,,,,tweezers_03s.jpg,0.0,clockno_default.jpg,2.0,76,,,,,,,,,,,,,,,,,,0.0,8.0,8.0,8.0,1.0,,,,,,,,,,
0.0,1.0,0.48041,,,,,,spatula04.jpg,0.0,clockno_default.jpg,2.0,76,,,,,,,,,,,,,,,,,,0.0,9.0,9.0,9.0,1.0,,,,,,,,,,
0.0,1.0,0.53749,,,,,,clover_04s.jpg,0.0,clockno_default.jpg,2.0,76,,,,,,,,,,,,,,,,,,0.0,10.0,10.0,10.0,1.0,,,,,,,,,,
0.0,1.0,0.401195,,,,,,ivy_12s.jpg,0.0,clockno_default.jpg,2.0,76,,,,,,,,,,,,,,,,,,0.0,11.0,11.0,11.0,1.0,,,,,,,,,,
0.0,1.0,0.574435,,,,,,marshmallow_08s.jpg,0.0,clockno_up.jpg,3.0,76,,,,,,,,,,,,,,,,,,0.0,12.0,12.0,12.0,1.0,,,,,,,,,,
0.0,1.0,0.54856,,,,,,eiffeltower.jpg,0.0,clockno_default.jpg,3.0,76,,,,,,,,,,,,,,,,,,0.0,13.0,13.0,13.0,1.0,,,,,,,,,,
0.0,1.0,0.33202,,,,,,exhaust_pipe_10s.jpg,0.0,clockno_default.jpg,3.0,76,,,,,,,,,,,,,,,,,,0.0,14.0,14.0,14.0,1.0,,,,,,,,,,
0.0,1.0,0.34233,,,,,,rock_08s.jpg,0.0,clockno_default.jpg,3.0,76,,,,,,,,,,,,,,,,,,0.0,15.0,15.0,15.0,1.0,,,,,,,,,,
0.0,1.0,0.37949,,,,,,aluminum_foil_08s.jpg,0.0,clockno_default.jpg,3.0,76,,,,,,,,,,,,,,,,,,0.0,16.0,16.0,16.0,1.0,,,,,,,,,,
0.0,1.0,0.5203,,,,,,diving_board_07s.jpg,0.0,clockno_up.jpg,4.0,76,,,,,,,,,,,,,,,,,,0.0,17.0,17.0,17.0,1.0,,,,,,,,,,
0.0,1.0,0.33239,,,,,,checkbook_11s.jpg,0.0,clockno_default.jpg,4.0,76,,,,,,,,,,,,,,,,,,0.0,18.0,18.0,18.0,1.0,,,,,,,,,,
0.0,1.0,0.3682,,,,,,quill_09s.jpg,0.0,clockno_default.jpg,4.0,76,,,,,,,,,,,,,,,,,,0.0,19.0,19.0,19.0,1.0,,,,,,,,,,
0.0,1.0,0.43394,,,,,,radio_09s.jpg,0.0,clockno_default.jpg,4.0,76,,,,,,,,,,,,,,,,,,0.0,20.0,20.0,20.0,1.0,,,,,,,,,,
1.0,1.0,0.62023,,,,,,radio_09s.jpg,1.0,clockno_default.jpg,4.0,76,,,,,,,,,,,,,,,,,,0.0,21.0,21.0,21.0,1.0,,,,,,,,,,
0.0,1.0,1.444485,,,,,,onion_10s.jpg,0.0,clockno_default.jpg,4.0,76,,,,,,,,,,,,,,,,,,0.0,22.0,22.0,22.0,1.0,,,,,,,,,,
0.0,1.0,0.396925,,,,,,money_07s.jpg,0.0,clockno_up.jpg,5.0,76,,,,,,,,,,,,,,,,,,0.0,23.0,23.0,23.0,1.0,,,,,,,,,,
0.0,1.0,0.421655,,,,,,paintbrush_04s.jpg,0.0,clockno_default.jpg,5.0,76,,,,,,,,,,,,,,,,,,0.0,24.0,24.0,24.0,1.0,,,,,,,,,,
1.0,1.0,0.867485,,,,,,money_07s.jpg,1.0,clockno_default.jpg,5.0,76,,,,,,,,,,,,,,,,,,0.0,25.0,25.0,25.0,1.0,,,,,,,,,,
0.0,1.0,0.406245,,,,,,surfboard_11s.jpg,0.0,clockno_default.jpg,5.0,76,,,,,,,,,,,,,,,,,,0.0,26.0,26.0,26.0,1.0,,,,,,,,,,
1.0,1.0,0.73428,,,,,,money_07s.jpg,1.0,clockno_default.jpg,5.0,76,,,,,,,,,,,,,,,,,,0.0,27.0,27.0,27.0,1.0,,,,,,,,,,
0.0,1.0,0.550025,,,,,,coffee_filter_10s.jpg,0.0,clockno_default.jpg,5.0,76,,,,,,,,,,,,,,,,,,0.0,28.0,28.0,28.0,1.0,,,,,,,,,,
0.0,1.0,0.44225,,,,,,radiator_05s.jpg,0.0,clockno_default.jpg,5.0,76,,,,,,,,,,,,,,,,,,0.0,29.0,29.0,29.0,1.0,,,,,,,,,,
0.0,1.0,0.74939,,,,,,birdcage_08s.jpg,0.0,clockno_up.jpg,6.0,76,,,,,,,,,,,,,,,,,,0.0,30.0,30.0,30.0,1.0,,,,,,,,,,
0.0,1.0,0.33279,,,,,,peach_04s.jpg,0.0,clockno_default.jpg,6.0,76,,,,,,,,,,,,,,,,,,0.0,31.0,31.0,31.0,1.0,,,,,,,,,,
0.0,1.0,0.45986,,,,,,crab_16s.jpg,0.0,clockno_default.jpg,6.0,76,,,,,,,,,,,,,,,,,,0.0,32.0,32.0,32.0,1.0,,,,,,,,,,
0.0,1.0,0.725175,,,,,,penguin_16s.jpg,0.0,clockno_default.jpg,6.0,76,,,,,,,,,,,,,,,,,,0.0,33.0,33.0,33.0,1.0,,,,,,,,,,
0.0,1.0,0.45171,,,,,,stethoscope_01b.jpg,0.0,clockno_default.jpg,6.0,76,,,,,,,,,,,,,,,,,,0.0,34.0,34.0,34.0,1.0,,,,,,,,,,
0.0,1.0,0.451125,,,,,,puppet_01b.jpg,0.0,clockno_default.jpg,6.0,76,,,,,,,,,,,,,,,,,,0.0,35.0,35.0,35.0,1.0,,,,,,,,,,
,,,,,,,,,1.0,,,76,1.0,1.0,1.368535,,,,,,exhaust_pipe_10s.jpg,diving_board_07s.jpg,,,,,,,,,,,,,0.0,0.0,0.0,0.0,1.0,,,,,
,,,,,,,,,0.0,,,76,1.0,0.0,0.97961,,,,,,teabag_12s.jpg,mitten_10s.jpg,,,,,,,,,,,,,0.0,1.0,1.0,1.0,1.0,,,,,
,,,,,,,,,0.0,,,76,1.0,0.0,1.11946,,,,,,checkbook_11s.jpg,rock_08s.jpg,,,,,,,,,,,,,0.0,2.0,2.0,2.0,1.0,,,,,
,,,,,,,,,0.0,,,76,0.0,1.0,1.2832,,,,,,tweezers_03s.jpg,icemaker_10s.jpg,,,,,,,,,,,,,0.0,3.0,3.0,3.0,1.0,,,,,
,,,,,,,,,1.0,,,76,0.0,0.0,1.467455,,,,,,birdcage_08s.jpg,penguin_16s.jpg,,,,,,,,,,,,,0.0,4.0,4.0,4.0,1.0,,,,,
,,,,,,,,,0.0,,,76,1.0,0.0,1.290995,,,,,,clover_04s.jpg,trumpet_06s.jpg,,,,,,,,,,,,,0.0,5.0,5.0,5.0,1.0,,,,,
,,,,,,,,,,,,76,,,,,,,,,,,,,,,,clockno_present_3_15.xlsx,clockno_compare_task_3_15.xlsx,,,,,,,,,,,0.0,2.0,2.0,2.0,1.0
0.0,1.0,0.58172,,,,,,mosquito_12s.jpg,0.0,clockno_up.jpg,1.0,76,,,,,,,,,,,,,,,,,,0.0,0.0,0.0,0.0,1.0,,,,,,,,,,
0.0,1.0,0.755165,,,,,,pocketknife_12s.jpg,0.0,clockno_default.jpg,1.0,76,,,,,,,,,,,,,,,,,,0.0,1.0,1.0,1.0,1.0,,,,,,,,,,
0.0,1.0,0.2959,,,,,,timer_03s.jpg,0.0,clockno_default.jpg,1.0,76,,,,,,,,,,,,,,,,,,0.0,2.0,2.0,2.0,1.0,,,,,,,,,,
1.0,1.0,2.208455,,,,,,mosquito_12s.jpg,1.0,clockno_default.jpg,1.0,76,,,,,,,,,,,,,,,,,,0.0,3.0,3.0,3.0,1.0,,,,,,,,,,
0.0,1.0,0.41908,,,,,,rhinoceros_02s.jpg,0.0,clockno_default.jpg,1.0,76,,,,,,,,,,,,,,,,,,0.0,4.0,4.0,4.0,1.0,,,,,,,,,,
0.0,1.0,0.708995,,,,,,spacesuit_02s.jpg,0.0,clockno_default.jpg,1.0,76,,,,,,,,,,,,,,,,,,0.0,5.0,5.0,5.0,1.0,,,,,,,,,,
0.0,1.0,0.58565,,,,,,lamb_chop_07s.jpg,0.0,clockno_default.jpg,1.0,76,,,,,,,,,,,,,,,,,,0.0,6.0,6.0,6.0,1.0,,,,,,,,,,
0.0,1.0,0.23682,,,,,,piano_13n.jpg,0.0,clockno_up.jpg,2.0,76,,,,,,,,,,,,,,,,,,0.0,7.0,7.0,7.0,1.0,,,,,,,,,,
1.0,1.0,0.842615,,,,,,piano_13n.jpg,1.0,clockno_default.jpg,2.0,76,,,,,,,,,,,,,,,,,,0.0,8.0,8.0,8.0,1.0,,,,,,,,,,
0.0,1.0,0.416515,,,,,,lemonade_04s.jpg,0.0,clockno_default.jpg,2.0,76,,,,,,,,,,,,,,,,,,0.0,9.0,9.0,9.0,1.0,,,,,,,,,,
0.0,1.0,0.75621,,,,,,lip_gloss_06s.jpg,0.0,clockno_default.jpg,2.0,76,,,,,,,,,,,,,,,,,,0.0,10.0,10.0,10.0,1.0,,,,,,,,,,
1.0,1.0,0.71945,,,,,,lemonade_04s.jpg,1.0,clockno_default.jpg,2.0,76,,,,,,,,,,,,,,,,,,0.0,11.0,11.0,11.0,1.0,,,,,,,,,,
0.0,1.0,0.672705,,,,,,popcorn_09s.jpg,0.0,clockno_up.jpg,3.0,76,,,,,,,,,,,,,,,,,,0.0,12.0,12.0,12.0,1.0,,,,,,,,,,
0.0,1.0,1.438105,,,,,,tuxedo_01b.jpg,0.0,clockno_default.jpg,3.0,76,,,,,,,,,,,,,,,,,,0.0,13.0,13.0,13.0,1.0,,,,,,,,,,
0.0,1.0,0.52513,,,,,,key_07s.jpg,0.0,clockno_default.jpg,3.0,76,,,,,,,,,,,,,,,,,,0.0,14.0,14.0,14.0,1.0,,,,,,,,,,
0.0,1.0,0.47028,,,,,,blowfish_03s.jpg,0.0,clockno_default.jpg,3.0,76,,,,,,,,,,,,,,,,,,0.0,15.0,15.0,15.0,1.0,,,,,,,,,,
1.0,1.0,1.33502,,,,,,popcorn_09s.jpg,1.0,clockno_default.jpg,3.0,76,,,,,,,,,,,,,,,,,,0.0,16.0,16.0,16.0,1.0,,,,,,,,,,
0.0,1.0,0.596215,,,,,,mirror_12s.jpg,0.0,clockno_default.jpg,3.0,76,,,,,,,,,,,,,,,,,,0.0,17.0,17.0,17.0,1.0,,,,,,,,,,
0.0,1.0,0.775235,,,,,,trident_07s.jpg,0.0,clockno_up.jpg,4.0,76,,,,,,,,,,,,,,,,,,0.0,18.0,18.0,18.0,1.0,,,,,,,,,,
0.0,1.0,0.91224,,,,,,knitting_needle_04s.jpg,0.0,clockno_default.jpg,4.0,76,,,,,,,,,,,,,,,,,,0.0,19.0,19.0,19.0,1.0,,,,,,,,,,
0.0,1.0,0.79816,,,,,,orangutan_03s.jpg,0.0,clockno_default.jpg,4.0,76,,,,,,,,,,,,,,,,,,0.0,20.0,20.0,20.0,1.0,,,,,,,,,,
0.0,1.0,0.997435,,,,,,spoon02a.jpg,0.0,clockno_default.jpg,4.0,76,,,,,,,,,,,,,,,,,,0.0,21.0,21.0,21.0,1.0,,,,,,,,,,
0.0,1.0,0.446975,,,,,,mushroom_10n.jpg,0.0,clockno_default.jpg,4.0,76,,,,,,,,,,,,,,,,,,0.0,22.0,22.0,22.0,1.0,,,,,,,,,,
0.0,1.0,0.37942,,,,,,owl_15s.jpg,0.0,clockno_up.jpg,5.0,76,,,,,,,,,,,,,,,,,,0.0,23.0,23.0,23.0,1.0,,,,,,,,,,
0.0,1.0,0.463125,,,,,,racehorse_03s.jpg,0.0,clockno_default.jpg,5.0,76,,,,,,,,,,,,,,,,,,0.0,24.0,24.0,24.0,1.0,,,,,,,,,,
0.0,1.0,0.55764,,,,,,dirt_bike_11s.jpg,0.0,clockno_default.jpg,5.0,76,,,,,,,,,,,,,,,,,,0.0,25.0,25.0,25.0,1.0,,,,,,,,,,
0.0,1.0,0.52282,,,,,,plaster_cast_13s.jpg,0.0,clockno_default.jpg,5.0,76,,,,,,,,,,,,,,,,,,0.0,26.0,26.0,26.0,1.0,,,,,,,,,,
1.0,1.0,0.942215,,,,,,racehorse_03s.jpg,1.0,clockno_default.jpg,5.0,76,,,,,,,,,,,,,,,,,,0.0,27.0,27.0,27.0,1.0,,,,,,,,,,
0.0,1.0,1.11366,,,,,,spacesuit_02s.jpg,0.0,clockno_default.jpg,5.0,76,,,,,,,,,,,,,,,,,,0.0,28.0,28.0,28.0,1.0,,,,,,,,,,
0.0,1.0,0.430135,,,,,,slingshot_07s.jpg,0.0,clockno_up.jpg,6.0,76,,,,,,,,,,,,,,,,,,0.0,29.0,29.0,29.0,1.0,,,,,,,,,,
0.0,1.0,0.3992,,,,,,potholder_02s.jpg,0.0,clockno_default.jpg,6.0,76,,,,,,,,,,,,,,,,,,0.0,30.0,30.0,30.0,1.0,,,,,,,,,,
0.0,1.0,0.96312,,,,,,squirrel_02s.jpg,0.0,clockno_default.jpg,6.0,76,,,,,,,,,,,,,,,,,,0.0,31.0,31.0,31.0,1.0,,,,,,,,,,
0.0,1.0,0.53297,,,,,,outlet_10s.jpg,0.0,clockno_default.jpg,6.0,76,,,,,,,,,,,,,,,,,,0.0,32.0,32.0,32.0,1.0,,,,,,,,,,
0.0,1.0,0.68232,,,,,,potpourri_03s.jpg,0.0,clockno_default.jpg,6.0,76,,,,,,,,,,,,,,,,,,0.0,33.0,33.0,33.0,1.0,,,,,,,,,,
0.0,1.0,0.46374,,,,,,margarita_03s.jpg,0.0,clockno_default.jpg,6.0,76,,,,,,,,,,,,,,,,,,0.0,34.0,34.0,34.0,1.0,,,,,,,,,,
1.0,1.0,0.755315,,,,,,outlet_10s.jpg,1.0,clockno_default.jpg,6.0,76,,,,,,,,,,,,,,,,,,0.0,35.0,35.0,35.0,1.0,,,,,,,,,,
,,,,,,,,,1.0,,,76,0.0,0.0,1.29512,,,,,,lip_gloss_06s.jpg,tuxedo_01b.jpg,,,,,,,,,,,,,0.0,0.0,0.0,0.0,1.0,,,,,
,,,,,,,,,1.0,,,76,1.0,1.0,1.238655,,,,,,blowfish_03s.jpg,trident_07s.jpg,,,,,,,,,,,,,0.0,1.0,1.0,1.0,1.0,,,,,
,,,,,,,,,0.0,,,76,1.0,0.0,1.180785,,,,,,orangutan_03s.jpg,mirror_12s.jpg,,,,,,,,,,,,,0.0,2.0,2.0,2.0,1.0,,,,,
,,,,,,,,,1.0,,,76,1.0,1.0,0.78356,,,,,,pocketknife_12s.jpg,rhinoceros_02s.jpg,,,,,,,,,,,,,0.0,3.0,3.0,3.0,1.0,,,,,
,,,,,,,,,1.0,,,76,1.0,1.0,1.08672,,,,,,potholder_02s.jpg,potpourri_03s.jpg,,,,,,,,,,,,,0.0,4.0,4.0,4.0,1.0,,,,,
,,,,,,,,,1.0,,,76,1.0,1.0,1.11744,,,,,,squirrel_02s.jpg,margarita_03s.jpg,,,,,,,,,,,,,0.0,5.0,5.0,5.0,1.0,,,,,
,,,,,,,,,,,,76,,,,,,,,,,,,,,,,clockno_present_4_15.xlsx,clockno_compare_task_4_15.xlsx,,,,,,,,,,,0.0,3.0,3.0,3.0,1.0
0.0,1.0,1.86142,,,,,,piggy_bank_02s.jpg,0.0,clockno_up.jpg,1.0,76,,,,,,,,,,,,,,,,,,0.0,0.0,0.0,0.0,1.0,,,,,,,,,,
0.0,1.0,0.3207,,,,,,quesadilla_07s.jpg,0.0,clockno_default.jpg,1.0,76,,,,,,,,,,,,,,,,,,0.0,1.0,1.0,1.0,1.0,,,,,,,,,,
1.0,1.0,0.579835,,,,,,quesadilla_07s.jpg,1.0,clockno_default.jpg,1.0,76,,,,,,,,,,,,,,,,,,0.0,2.0,2.0,2.0,1.0,,,,,,,,,,
0.0,1.0,0.52063,,,,,,turtle_08s.jpg,0.0,clockno_default.jpg,1.0,76,,,,,,,,,,,,,,,,,,0.0,3.0,3.0,3.0,1.0,,,,,,,,,,
1.0,1.0,0.853335,,,,,,quesadilla_07s.jpg,1.0,clockno_default.jpg,1.0,76,,,,,,,,,,,,,,,,,,0.0,4.0,4.0,4.0,1.0,,,,,,,,,,
0.0,1.0,1.13376,,,,,,pie_08s.jpg,0.0,clockno_default.jpg,1.0,76,,,,,,,,,,,,,,,,,,0.0,5.0,5.0,5.0,1.0,,,,,,,,,,
1.0,1.0,0.537545,,,,,,quesadilla_07s.jpg,1.0,clockno_default.jpg,1.0,76,,,,,,,,,,,,,,,,,,0.0,6.0,6.0,6.0,1.0,,,,,,,,,,
0.0,1.0,1.46173,,,,,,coral_08s.jpg,0.0,clockno_up.jpg,2.0,76,,,,,,,,,,,,,,,,,,0.0,7.0,7.0,7.0,1.0,,,,,,,,,,
0.0,1.0,1.404725,,,,,,bottle_opener_11s.jpg,0.0,clockno_default.jpg,2.0,76,,,,,,,,,,,,,,,,,,0.0,8.0,8.0,8.0,1.0,,,,,,,,,,
0.0,1.0,0.45756,,,,,,solar_panel_02s.jpg,0.0,clockno_default.jpg,2.0,76,,,,,,,,,,,,,,,,,,0.0,9.0,9.0,9.0,1.0,,,,,,,,,,
0.0,1.0,0.57473,,,,,,sunglasses_11s.jpg,0.0,clockno_default.jpg,2.0,76,,,,,,,,,,,,,,,,,,0.0,10.0,10.0,10.0,1.0,,,,,,,,,,
0.0,1.0,1.31169,,,,,,lamppost_09s.jpg,0.0,clockno_default.jpg,2.0,76,,,,,,,,,,,,,,,,,,0.0,11.0,11.0,11.0,1.0,,,,,,,,,,
0.0,1.0,0.55291,,,,,,pineapple_12s.jpg,0.0,clockno_up.jpg,3.0,76,,,,,,,,,,,,,,,,,,0.0,12.0,12.0,12.0,1.0,,,,,,,,,,
0.0,1.0,0.77344,,,,,,pretzel_09s.jpg,0.0,clockno_default.jpg,3.0,76,,,,,,,,,,,,,,,,,,0.0,13.0,13.0,13.0,1.0,,,,,,,,,,
0.0,1.0,0.54797,,,,,,fire_pit_10s.jpg,0.0,clockno_default.jpg,3.0,76,,,,,,,,,,,,,,,,,,0.0,14.0,14.0,14.0,1.0,,,,,,,,,,
0.0,1.0,0.528465,,,,,,microwave_02s.jpg,0.0,clockno_default.jpg,3.0,76,,,,,,,,,,,,,,,,,,0.0,15.0,15.0,15.0,1.0,,,,,,,,,,
0.0,1.0,0.848165,,,,,,dynamite_01b.jpg,0.0,clockno_default.jpg,3.0,76,,,,,,,,,,,,,,,,,,0.0,16.0,16.0,16.0,1.0,,,,,,,,,,
0.0,1.0,0.38525,,,,,,megaphone_03s.jpg,0.0,clockno_default.jpg,3.0,76,,,,,,,,,,,,,,,,,,0.0,17.0,17.0,17.0,1.0,,,,,,,,,,
0.0,1.0,0.404375,,,,,,tortilla_06s.jpg,0.0,clockno_up.jpg,4.0,76,,,,,,,,,,,,,,,,,,0.0,18.0,18.0,18.0,1.0,,,,,,,,,,
1.0,1.0,0.67965,,,,,,tortilla_06s.jpg,1.0,clockno_default.jpg,4.0,76,,,,,,,,,,,,,,,,,,0.0,19.0,19.0,19.0,1.0,,,,,,,,,,
0.0,1.0,0.531655,,,,,,mud_13s.jpg,0.0,clockno_default.jpg,4.0,76,,,,,,,,,,,,,,,,,,0.0,20.0,20.0,20.0,1.0,,,,,,,,,,
0.0,1.0,0.40079,,,,,,toilet_paper_12s.jpg,0.0,clockno_default.jpg,4.0,76,,,,,,,,,,,,,,,,,,0.0,21.0,21.0,21.0,1.0,,,,,,,,,,
0.0,1.0,0.54671,,,,,,go-kart_10s.jpg,0.0,clockno_default.jpg,4.0,76,,,,,,,,,,,,,,,,,,0.0,22.0,22.0,22.0,1.0,,,,,,,,,,
0.0,1.0,0.401805,,,,,,magnet_03s.jpg,0.0,clockno_up.jpg,5.0,76,,,,,,,,,,,,,,,,,,0.0,23.0,23.0,23.0,1.0,,,,,,,,,,
1.0,1.0,0.707325,,,,,,magnet_03s.jpg,1.0,clockno_default.jpg,5.0,76,,,,,,,,,,,,,,,,,,0.0,24.0,24.0,24.0,1.0,,,,,,,,,,
1.0,1.0,0.679205,,,,,,magnet_03s.jpg,1.0,clockno_default.jpg,5.0,76,,,,,,,,,,,,,,,,,,0.0,25.0,25.0,25.0,1.0,,,,,,,,,,
0.0,1.0,0.51564,,,,,,phone_01b.jpg,0.0,clockno_default.jpg,5.0,76,,,,,,,,,,,,,,,,,,0.0,26.0,26.0,26.0,1.0,,,,,,,,,,
0.0,1.0,0.46692,,,,,,duck_01b.jpg,0.0,clockno_default.jpg,5.0,76,,,,,,,,,,,,,,,,,,0.0,27.0,27.0,27.0,1.0,,,,,,,,,,
0.0,1.0,0.52508,,,,,,lamppost_09s.jpg,0.0,clockno_default.jpg,5.0,76,,,,,,,,,,,,,,,,,,0.0,28.0,28.0,28.0,1.0,,,,,,,,,,
0.0,1.0,0.31363,,,,,,mussel_11s.jpg,0.0,clockno_up.jpg,6.0,76,,,,,,,,,,,,,,,,,,0.0,29.0,29.0,29.0,1.0,,,,,,,,,,
0.0,1.0,0.565705,,,,,,sundae_08s.jpg,0.0,clockno_default.jpg,6.0,76,,,,,,,,,,,,,,,,,,0.0,30.0,30.0,30.0,1.0,,,,,,,,,,
0.0,1.0,0.5488,,,,,,telephone_pole_05s.jpg,0.0,clockno_default.jpg,6.0,76,,,,,,,,,,,,,,,,,,0.0,31.0,31.0,31.0,1.0,,,,,,,,,,
0.0,1.0,0.564135,,,,,,basket_05s.jpg,0.0,clockno_default.jpg,6.0,76,,,,,,,,,,,,,,,,,,0.0,32.0,32.0,32.0,1.0,,,,,,,,,,
0.0,1.0,0.91632,,,,,,turtle_08s.jpg,0.0,clockno_default.jpg,6.0,76,,,,,,,,,,,,,,,,,,0.0,33.0,33.0,33.0,1.0,,,,,,,,,,
0.0,1.0,0.71865,,,,,,otter_05s.jpg,0.0,clockno_default.jpg,6.0,76,,,,,,,,,,,,,,,,,,0.0,34.0,34.0,34.0,1.0,,,,,,,,,,
1.0,1.0,0.751785,,,,,,otter_05s.jpg,1.0,clockno_default.jpg,6.0,76,,,,,,,,,,,,,,,,,,0.0,35.0,35.0,35.0,1.0,,,,,,,,,,
,,,,,,,,,1.0,,,76,0.0,0.0,1.224535,,,,,,pie_08s.jpg,bottle_opener_11s.jpg,,,,,,,,,,,,,0.0,0.0,0.0,0.0,1.0,,,,,
,,,,,,,,,0.0,,,76,1.0,0.0,1.29797,,,,,,sundae_08s.jpg,duck_01b.jpg,,,,,,,,,,,,,0.0,1.0,1.0,1.0,1.0,,,,,
,,,,,,,,,1.0,,,76,1.0,1.0,1.17979,,,,,,solar_panel_02s.jpg,pineapple_12s.jpg,,,,,,,,,,,,,0.0,2.0,2.0,2.0,1.0,,,,,
,,,,,,,,,1.0,,,76,1.0,1.0,1.56406,,,,,,coral_08s.jpg,sunglasses_11s.jpg,,,,,,,,,,,,,0.0,3.0,3.0,3.0,1.0,,,,,
,,,,,,,,,0.0,,,76,0.0,1.0,2.812785,,,,,,dynamite_01b.jpg,pretzel_09s.jpg,,,,,,,,,,,,,0.0,4.0,4.0,4.0,1.0,,,,,
,,,,,,,,,1.0,,,76,0.0,0.0,1.470695,,,,,,fire_pit_10s.jpg,megaphone_03s.jpg,,,,,,,,,,,,,0.0,5.0,5.0,5.0,1.0,,,,,
,,,,,,,,,,,,76,,,,,,,,,,,,,,,,clockno_present_5_15.xlsx,clockno_compare_task_5_15.xlsx,,,,,,,,,,,0.0,4.0,4.0,4.0,1.0
0.0,1.0,2.08921,,,,,,mattress_01s.jpg,0.0,clockno_up.jpg,1.0,76,,,,,,,,,,,,,,,,,,0.0,0.0,0.0,0.0,1.0,,,,,,,,,,
0.0,1.0,0.486845,,,,,,ravioli_08s.jpg,0.0,clockno_default.jpg,1.0,76,,,,,,,,,,,,,,,,,,0.0,1.0,1.0,1.0,1.0,,,,,,,,,,
,0.0,,,,,,,tambourine_06s.jpg,0.0,clockno_default.jpg,1.0,76,,,,,,,,,,,,,,,,,,0.0,2.0,2.0,2.0,1.0,,,,,,,,,,
0.0,1.0,0.330675,,,,,,ram_05s.jpg,0.0,clockno_default.jpg,1.0,76,,,,,,,,,,,,,,,,,,0.0,3.0,3.0,3.0,1.0,,,,,,,,,,
1.0,1.0,0.633155,,,,,,ram_05s.jpg,1.0,clockno_default.jpg,1.0,76,,,,,,,,,,,,,,,,,,0.0,4.0,4.0,4.0,1.0,,,,,,,,,,
1.0,1.0,0.75755,,,,,,mattress_01s.jpg,1.0,clockno_default.jpg,1.0,76,,,,,,,,,,,,,,,,,,0.0,5.0,5.0,5.0,1.0,,,,,,,,,,
0.0,1.0,1.299785,,,,,,panda_02s.jpg,0.0,clockno_default.jpg,1.0,76,,,,,,,,,,,,,,,,,,0.0,6.0,6.0,6.0,1.0,,,,,,,,,,
0.0,1.0,1.337995,,,,,,mailbox_11s.jpg,0.0,clockno_up.jpg,2.0,76,,,,,,,,,,,,,,,,,,0.0,7.0,7.0,7.0,1.0,,,,,,,,,,
0.0,1.0,0.9418,,,,,,air_pump_05s.jpg,0.0,clockno_default.jpg,2.0,76,,,,,,,,,,,,,,,,,,0.0,8.0,8.0,8.0,1.0,,,,,,,,,,
1.0,1.0,1.40544,,,,,,air_pump_05s.jpg,1.0,clockno_default.jpg,2.0,76,,,,,,,,,,,,,,,,,,0.0,9.0,9.0,9.0,1.0,,,,,,,,,,
0.0,1.0,0.73309,,,,,,thorn_13s.jpg,0.0,clockno_default.jpg,2.0,76,,,,,,,,,,,,,,,,,,0.0,10.0,10.0,10.0,1.0,,,,,,,,,,
0.0,1.0,1.02424,,,,,,kite_04s.jpg,0.0,clockno_default.jpg,2.0,76,,,,,,,,,,,,,,,,,,0.0,11.0,11.0,11.0,1.0,,,,,,,,,,
0.0,0.0,0.476675,,,,,,mailbox_11s.jpg,1.0,clockno_default.jpg,2.0,76,,,,,,,,,,,,,,,,,,0.0,12.0,12.0,12.0,1.0,,,,,,,,,,
0.0,1.0,0.520135,,,,,,lamp_08s.jpg,0.0,clockno_up.jpg,3.0,76,,,,,,,,,,,,,,,,,,0.0,13.0,13.0,13.0,1.0,,,,,,,,,,
0.0,1.0,0.89622,,,,,,smokingpipe.jpg,0.0,clockno_default.jpg,3.0,76,,,,,,,,,,,,,,,,,,0.0,14.0,14.0,14.0,1.0,,,,,,,,,,
0.0,1.0,0.804235,,,,,,swing_set_15s.jpg,0.0,clockno_default.jpg,3.0,76,,,,,,,,,,,,,,,,,,0.0,15.0,15.0,15.0,1.0,,,,,,,,,,
0.0,1.0,0.61387,,,,,,torch_02s.jpg,0.0,clockno_default.jpg,3.0,76,,,,,,,,,,,,,,,,,,0.0,16.0,16.0,16.0,1.0,,,,,,,,,,
0.0,1.0,0.69642,,,,,,police_car_01s.jpg,0.0,clockno_default.jpg,3.0,76,,,,,,,,,,,,,,,,,,0.0,17.0,17.0,17.0,1.0,,,,,,,,,,
1.0,1.0,1.037845,,,,,,police_car_01s.jpg,1.0,clockno_default.jpg,3.0,76,,,,,,,,,,,,,,,,,,0.0,18.0,18.0,18.0,1.0,,,,,,,,,,
0.0,1.0,1.1168,,,,,,pocket_watch_16s.jpg,0.0,clockno_default.jpg,3.0,76,,,,,,,,,,,,,,,,,,0.0,19.0,19.0,19.0,1.0,,,,,,,,,,
0.0,1.0,0.897145,,,,,,totem_pole_05s.jpg,0.0,clockno_up.jpg,4.0,76,,,,,,,,,,,,,,,,,,0.0,20.0,20.0,20.0,1.0,,,,,,,,,,
0.0,1.0,1.02273,,,,,,toad_09s.jpg,0.0,clockno_default.jpg,4.0,76,,,,,,,,,,,,,,,,,,0.0,21.0,21.0,21.0,1.0,,,,,,,,,,
0.0,1.0,1.598855,,,,,,typewriter_11s.jpg,0.0,clockno_default.jpg,4.0,76,,,,,,,,,,,,,,,,,,0.0,22.0,22.0,22.0,1.0,,,,,,,,,,
0.0,1.0,1.099225,,,,,,camcorder_10s.jpg,0.0,clockno_default.jpg,4.0,76,,,,,,,,,,,,,,,,,,0.0,23.0,23.0,23.0,1.0,,,,,,,,,,
1.0,0.0,1.74605,,,,,,torch_02s.jpg,0.0,clockno_default.jpg,4.0,76,,,,,,,,,,,,,,,,,,0.0,24.0,24.0,24.0,1.0,,,,,,,,,,
0.0,1.0,1.327935,,,,,,kettle_08s.jpg,0.0,clockno_default.jpg,4.0,76,,,,,,,,,,,,,,,,,,0.0,25.0,25.0,25.0,1.0,,,,,,,,,,
0.0,1.0,1.262845,,,,,,comic_book_02s.jpg,0.0,clockno_up.jpg,5.0,76,,,,,,,,,,,,,,,,,,0.0,26.0,26.0,26.0,1.0,,,,,,,,,,
0.0,1.0,1.108445,,,,,,binder_21s.jpg,0.0,clockno_default.jpg,5.0,76,,,,,,,,,,,,,,,,,,0.0,27.0,27.0,27.0,1.0,,,,,,,,,,
0.0,1.0,1.29995,,,,,,inhaler_01b.jpg,0.0,clockno_default.jpg,5.0,76,,,,,,,,,,,,,,,,,,0.0,28.0,28.0,28.0,1.0,,,,,,,,,,
0.0,1.0,0.93893,,,,,,abacus_12s.jpg,0.0,clockno_default.jpg,5.0,76,,,,,,,,,,,,,,,,,,0.0,29.0,29.0,29.0,1.0,,,,,,,,,,
0.0,1.0,0.60333,,,,,,hummingbird_05s.jpg,0.0,clockno_default.jpg,5.0,76,,,,,,,,,,,,,,,,,,0.0,30.0,30.0,30.0,1.0,,,,,,,,,,
0.0,1.0,0.732615,,,,,,polaroid_05s.jpg,0.0,clockno_up.jpg,6.0,76,,,,,,,,,,,,,,,,,,0.0,31.0,31.0,31.0,1.0,,,,,,,,,,
0.0,1.0,0.56521,,,,,,rosary_03s.jpg,0.0,clockno_default.jpg,6.0,76,,,,,,,,,,,,,,,,,,0.0,32.0,32.0,32.0,1.0,,,,,,,,,,
0.0,1.0,0.70706,,,,,,raft_09s.jpg,0.0,clockno_default.jpg,6.0,76,,,,,,,,,,,,,,,,,,0.0,33.0,33.0,33.0,1.0,,,,,,,,,,
1.0,1.0,1.45259,,,,,,polaroid_05s.jpg,1.0,clockno_default.jpg,6.0,76,,,,,,,,,,,,,,,,,,0.0,34.0,34.0,34.0,1.0,,,,,,,,,,
1.0,1.0,1.36314,,,,,,raft_09s.jpg,1.0,clockno_default.jpg,6.0,76,,,,,,,,,,,,,,,,,,0.0,35.0,35.0,35.0,1.0,,,,,,,,,,
,,,,,,,,,1.0,,,76,0.0,0.0,1.860295,,,,,,thorn_13s.jpg,lamp_08s.jpg,,,,,,,,,,,,,0.0,0.0,0.0,0.0,1.0,,,,,
,,,,,,,,,0.0,,,76,1.0,0.0,0.957925,,,,,,smokingpipe.jpg,kite_04s.jpg,,,,,,,,,,,,,0.0,1.0,1.0,1.0,1.0,,,,,
,,,,,,,,,1.0,,,76,1.0,1.0,1.138585,,,,,,pocket_watch_16s.jpg,typewriter_11s.jpg,,,,,,,,,,,,,0.0,2.0,2.0,2.0,1.0,,,,,
,,,,,,,,,0.0,,,76,0.0,1.0,1.731275,,,,,,hummingbird_05s.jpg,binder_21s.jpg,,,,,,,,,,,,,0.0,3.0,3.0,3.0,1.0,,,,,
,,,,,,,,,0.0,,,76,0.0,1.0,1.124765,,,,,,camcorder_10s.jpg,totem_pole_05s.jpg,,,,,,,,,,,,,0.0,4.0,4.0,4.0,1.0,,,,,
,,,,,,,,,1.0,,,76,1.0,1.0,1.052715,,,,,,comic_book_02s.jpg,abacus_12s.jpg,,,,,,,,,,,,,0.0,5.0,5.0,5.0,1.0,,,,,
