key_resp.keys,key_resp.corr,key_resp.rt,noclock_loop.thisRepN,noclock_loop.thisTrialN,noclock_loop.thisN,noclock_loop.thisIndex,noclock_loop.ran,pictures,answer,clock,segment,participant,key_resp_2.keys,key_resp_2.corr,key_resp_2.rt,noclock_loop2.thisRepN,noclock_loop2.thisTrialN,noclock_loop2.thisN,noclock_loop2.thisIndex,noclock_loop2.ran,item_a,item_b,noclock_condition.thisRepN,noclock_condition.thisTrialN,noclock_condition.thisN,noclock_condition.thisIndex,noclock_condition.ran,present,compare,present_segment.thisRepN,present_segment.thisTrialN,present_segment.thisN,present_segment.thisIndex,present_segment.ran,compare_segment.thisRepN,compare_segment.thisTrialN,compare_segment.thisN,compare_segment.thisIndex,compare_segment.ran,clock_conditions.thisRepN,clock_conditions.thisTrialN,clock_conditions.thisN,clock_conditions.thisIndex,clock_conditions.ran
0.0,1.0,1.75418,0.0,0.0,0.0,0.0,1.0,breadstick_08s.jpg,0.0,clockno_up.jpg,1.0,6,,,,,,,,,,,,,,,,,,,,,,,,,,,,,,,,
0.0,1.0,2.074375,0.0,1.0,1.0,1.0,1.0,sea_urchin_09s.jpg,0.0,clockno_default.jpg,1.0,6,,,,,,,,,,,,,,,,,,,,,,,,,,,,,,,,
1.0,1.0,0.9005,0.0,2.0,2.0,2.0,1.0,breadstick_08s.jpg,1.0,clockno_default.jpg,1.0,6,,,,,,,,,,,,,,,,,,,,,,,,,,,,,,,,
1.0,1.0,0.819545,0.0,3.0,3.0,3.0,1.0,sea_urchin_09s.jpg,1.0,clockno_default.jpg,1.0,6,,,,,,,,,,,,,,,,,,,,,,,,,,,,,,,,
0.0,1.0,1.00258,0.0,4.0,4.0,4.0,1.0,saddle_06s.jpg,0.0,clockno_default.jpg,1.0,6,,,,,,,,,,,,,,,,,,,,,,,,,,,,,,,,
1.0,1.0,0.66348,0.0,5.0,5.0,5.0,1.0,saddle_06s.jpg,1.0,clockno_default.jpg,1.0,6,,,,,,,,,,,,,,,,,,,,,,,,,,,,,,,,
0.0,1.0,0.76386,0.0,6.0,6.0,6.0,1.0,mousetrap_15n.jpg,0.0,clockno_up.jpg,2.0,6,,,,,,,,,,,,,,,,,,,,,,,,,,,,,,,,
0.0,1.0,0.48692,0.0,7.0,7.0,7.0,1.0,owl_15s.jpg,0.0,clockno_default.jpg,2.0,6,,,,,,,,,,,,,,,,,,,,,,,,,,,,,,,,
1.0,1.0,0.74735,0.0,8.0,8.0,8.0,1.0,mousetrap_15n.jpg,1.0,clockno_default.jpg,2.0,6,,,,,,,,,,,,,,,,,,,,,,,,,,,,,,,,
1.0,1.0,0.632725,0.0,9.0,9.0,9.0,1.0,owl_15s.jpg,1.0,clockno_default.jpg,2.0,6,,,,,,,,,,,,,,,,,,,,,,,,,,,,,,,,
1.0,1.0,0.641065,0.0,10.0,10.0,10.0,1.0,owl_15s.jpg,1.0,clockno_default.jpg,2.0,6,,,,,,,,,,,,,,,,,,,,,,,,,,,,,,,,
0.0,1.0,0.550695,0.0,11.0,11.0,11.0,1.0,popsicle_02s.jpg,0.0,clockno_default.jpg,2.0,6,,,,,,,,,,,,,,,,,,,,,,,,,,,,,,,,
0.0,1.0,0.748505,0.0,12.0,12.0,12.0,1.0,screwdriver02a.jpg,0.0,clockno_default.jpg,2.0,6,,,,,,,,,,,,,,,,,,,,,,,,,,,,,,,,
0.0,1.0,0.463225,0.0,13.0,13.0,13.0,1.0,paper_towel_03s.jpg,0.0,clockno_up.jpg,3.0,6,,,,,,,,,,,,,,,,,,,,,,,,,,,,,,,,
0.0,1.0,0.65608,0.0,14.0,14.0,14.0,1.0,mug_06s.jpg,0.0,clockno_default.jpg,3.0,6,,,,,,,,,,,,,,,,,,,,,,,,,,,,,,,,
0.0,1.0,1.248865,0.0,15.0,15.0,15.0,1.0,undershirt_02s.jpg,0.0,clockno_default.jpg,3.0,6,,,,,,,,,,,,,,,,,,,,,,,,,,,,,,,,
0.0,1.0,1.12326,0.0,16.0,16.0,16.0,1.0,cape_11s.jpg,0.0,clockno_default.jpg,3.0,6,,,,,,,,,,,,,,,,,,,,,,,,,,,,,,,,
0.0,1.0,0.79669,0.0,17.0,17.0,17.0,1.0,lamp_08s.jpg,0.0,clockno_default.jpg,3.0,6,,,,,,,,,,,,,,,,,,,,,,,,,,,,,,,,
0.0,1.0,0.669295,0.0,18.0,18.0,18.0,1.0,padlock_07s.jpg,0.0,clockno_default.jpg,3.0,6,,,,,,,,,,,,,,,,,,,,,,,,,,,,,,,,
0.0,1.0,0.784015,0.0,19.0,19.0,19.0,1.0,lab_coat_11s.jpg,0.0,clockno_default.jpg,3.0,6,,,,,,,,,,,,,,,,,,,,,,,,,,,,,,,,
0.0,1.0,0.642755,0.0,20.0,20.0,20.0,1.0,badge_03s.jpg,0.0,clockno_up.jpg,4.0,6,,,,,,,,,,,,,,,,,,,,,,,,,,,,,,,,
0.0,1.0,0.520285,0.0,21.0,21.0,21.0,1.0,go-kart_10s.jpg,0.0,clockno_default.jpg,4.0,6,,,,,,,,,,,,,,,,,,,,,,,,,,,,,,,,
0.0,1.0,0.58999,0.0,22.0,22.0,22.0,1.0,parachute_03s.jpg,0.0,clockno_default.jpg,4.0,6,,,,,,,,,,,,,,,,,,,,,,,,,,,,,,,,
0.0,1.0,0.61408,0.0,23.0,23.0,23.0,1.0,scooter.jpg,0.0,clockno_default.jpg,4.0,6,,,,,,,,,,,,,,,,,,,,,,,,,,,,,,,,
0.0,1.0,1.046845,0.0,24.0,24.0,24.0,1.0,letter_opener_03s.jpg,0.0,clockno_default.jpg,4.0,6,,,,,,,,,,,,,,,,,,,,,,,,,,,,,,,,
1.0,1.0,1.27268,0.0,25.0,25.0,25.0,1.0,parachute_03s.jpg,1.0,clockno_default.jpg,4.0,6,,,,,,,,,,,,,,,,,,,,,,,,,,,,,,,,
0.0,1.0,0.585505,0.0,26.0,26.0,26.0,1.0,throne_11s.jpg,0.0,clockno_up.jpg,5.0,6,,,,,,,,,,,,,,,,,,,,,,,,,,,,,,,,
0.0,1.0,0.480955,0.0,27.0,27.0,27.0,1.0,owl_15s.jpg,0.0,clockno_default.jpg,5.0,6,,,,,,,,,,,,,,,,,,,,,,,,,,,,,,,,
1.0,1.0,0.63982,0.0,28.0,28.0,28.0,1.0,throne_11s.jpg,1.0,clockno_default.jpg,5.0,6,,,,,,,,,,,,,,,,,,,,,,,,,,,,,,,,
0.0,1.0,0.768765,0.0,29.0,29.0,29.0,1.0,rocking_horse_03s.jpg,0.0,clockno_default.jpg,5.0,6,,,,,,,,,,,,,,,,,,,,,,,,,,,,,,,,
0.0,1.0,0.702705,0.0,30.0,30.0,30.0,1.0,swordfish_05s.jpg,0.0,clockno_default.jpg,5.0,6,,,,,,,,,,,,,,,,,,,,,,,,,,,,,,,,
0.0,1.0,0.71579,0.0,31.0,31.0,31.0,1.0,tupperware_09s.jpg,0.0,clockno_up.jpg,6.0,6,,,,,,,,,,,,,,,,,,,,,,,,,,,,,,,,
0.0,1.0,0.445945,0.0,32.0,32.0,32.0,1.0,rocking_chair_05s.jpg,0.0,clockno_default.jpg,6.0,6,,,,,,,,,,,,,,,,,,,,,,,,,,,,,,,,
0.0,1.0,0.736735,0.0,33.0,33.0,33.0,1.0,padlock_07s.jpg,0.0,clockno_default.jpg,6.0,6,,,,,,,,,,,,,,,,,,,,,,,,,,,,,,,,
0.0,1.0,0.99102,0.0,34.0,34.0,34.0,1.0,machete_06s.jpg,0.0,clockno_default.jpg,6.0,6,,,,,,,,,,,,,,,,,,,,,,,,,,,,,,,,
1.0,1.0,0.68463,0.0,35.0,35.0,35.0,1.0,tupperware_09s.jpg,1.0,clockno_default.jpg,6.0,6,,,,,,,,,,,,,,,,,,,,,,,,,,,,,,,,
,,,,,,,,,1.0,,,6,1.0,1.0,1.95625,0.0,0.0,0.0,0.0,1.0,screwdriver02a.jpg,undershirt_02s.jpg,,,,,,,,,,,,,,,,,,,,,,
,,,,,,,,,0.0,,,6,1.0,0.0,0.94272,0.0,1.0,1.0,1.0,1.0,rocking_chair_05s.jpg,rocking_horse_03s.jpg,,,,,,,,,,,,,,,,,,,,,,
,,,,,,,,,0.0,,,6,1.0,0.0,0.94217,0.0,2.0,2.0,2.0,1.0,mug_06s.jpg,popsicle_02s.jpg,,,,,,,,,,,,,,,,,,,,,,
,,,,,,,,,1.0,,,6,1.0,1.0,1.336445,0.0,3.0,3.0,3.0,1.0,paper_towel_03s.jpg,cape_11s.jpg,,,,,,,,,,,,,,,,,,,,,,
,,,,,,,,,1.0,,,6,0.0,0.0,1.54083,0.0,4.0,4.0,4.0,1.0,go-kart_10s.jpg,letter_opener_03s.jpg,,,,,,,,,,,,,,,,,,,,,,
,,,,,,,,,0.0,,,6,1.0,0.0,1.956005,0.0,5.0,5.0,5.0,1.0,scooter.jpg,badge_03s.jpg,,,,,,,,,,,,,,,,,,,,,,
,,,,,,,,,,,,6,,,,,,,,,,,0.0,0.0,0.0,0.0,1.0,clockno_present_1_8.xlsx,clockno_compare_task_1_8.xlsx,,,,,,,,,,,,,,,
0.0,1.0,1.06776,0.0,0.0,0.0,0.0,1.0,towel_rack_04s.jpg,0.0,clockno_up.jpg,1.0,6,,,,,,,,,,,,,,,,,,,,,,,,,,,,,,,,
0.0,1.0,0.70634,0.0,1.0,1.0,1.0,1.0,microwave_02s.jpg,0.0,clockno_default.jpg,1.0,6,,,,,,,,,,,,,,,,,,,,,,,,,,,,,,,,
0.0,1.0,0.50693,0.0,2.0,2.0,2.0,1.0,quesadilla_07s.jpg,0.0,clockno_default.jpg,1.0,6,,,,,,,,,,,,,,,,,,,,,,,,,,,,,,,,
0.0,1.0,1.190865,0.0,3.0,3.0,3.0,1.0,ring_03s.jpg,0.0,clockno_default.jpg,1.0,6,,,,,,,,,,,,,,,,,,,,,,,,,,,,,,,,
0.0,1.0,0.53342,0.0,4.0,4.0,4.0,1.0,jalapeno_15s.jpg,0.0,clockno_default.jpg,1.0,6,,,,,,,,,,,,,,,,,,,,,,,,,,,,,,,,
0.0,1.0,0.662365,0.0,5.0,5.0,5.0,1.0,rollerskate_03s.jpg,0.0,clockno_default.jpg,1.0,6,,,,,,,,,,,,,,,,,,,,,,,,,,,,,,,,
1.0,1.0,0.680515,0.0,6.0,6.0,6.0,1.0,jalapeno_15s.jpg,1.0,clockno_default.jpg,1.0,6,,,,,,,,,,,,,,,,,,,,,,,,,,,,,,,,
0.0,1.0,0.49493,0.0,7.0,7.0,7.0,1.0,thermostat_02s.jpg,0.0,clockno_up.jpg,2.0,6,,,,,,,,,,,,,,,,,,,,,,,,,,,,,,,,
1.0,1.0,0.528905,0.0,8.0,8.0,8.0,1.0,thermostat_02s.jpg,1.0,clockno_default.jpg,2.0,6,,,,,,,,,,,,,,,,,,,,,,,,,,,,,,,,
0.0,1.0,0.60776,0.0,9.0,9.0,9.0,1.0,pepper2_21s.jpg,0.0,clockno_default.jpg,2.0,6,,,,,,,,,,,,,,,,,,,,,,,,,,,,,,,,
0.0,1.0,0.668055,0.0,10.0,10.0,10.0,1.0,lava_02s.jpg,0.0,clockno_default.jpg,2.0,6,,,,,,,,,,,,,,,,,,,,,,,,,,,,,,,,
0.0,1.0,0.499555,0.0,11.0,11.0,11.0,1.0,butter_14s.jpg,0.0,clockno_default.jpg,2.0,6,,,,,,,,,,,,,,,,,,,,,,,,,,,,,,,,
0.0,1.0,0.55825,0.0,12.0,12.0,12.0,1.0,hummingbird_05s.jpg,0.0,clockno_up.jpg,3.0,6,,,,,,,,,,,,,,,,,,,,,,,,,,,,,,,,
1.0,0.0,0.87677,0.0,13.0,13.0,13.0,1.0,jalapeno_15s.jpg,0.0,clockno_default.jpg,3.0,6,,,,,,,,,,,,,,,,,,,,,,,,,,,,,,,,
0.0,1.0,1.029325,0.0,14.0,14.0,14.0,1.0,stump_02s.jpg,0.0,clockno_default.jpg,3.0,6,,,,,,,,,,,,,,,,,,,,,,,,,,,,,,,,
0.0,1.0,0.96467,0.0,15.0,15.0,15.0,1.0,luggage_08s.jpg,0.0,clockno_default.jpg,3.0,6,,,,,,,,,,,,,,,,,,,,,,,,,,,,,,,,
1.0,1.0,0.824995,0.0,16.0,16.0,16.0,1.0,luggage_08s.jpg,1.0,clockno_default.jpg,3.0,6,,,,,,,,,,,,,,,,,,,,,,,,,,,,,,,,
0.0,1.0,0.80111,0.0,17.0,17.0,17.0,1.0,pomegranate_04s.jpg,0.0,clockno_default.jpg,3.0,6,,,,,,,,,,,,,,,,,,,,,,,,,,,,,,,,
0.0,1.0,0.55675,0.0,18.0,18.0,18.0,1.0,swing_set_15s.jpg,0.0,clockno_default.jpg,3.0,6,,,,,,,,,,,,,,,,,,,,,,,,,,,,,,,,
0.0,1.0,1.407565,0.0,19.0,19.0,19.0,1.0,jigsaw_puzzle_11s.jpg,0.0,clockno_up.jpg,4.0,6,,,,,,,,,,,,,,,,,,,,,,,,,,,,,,,,
0.0,1.0,0.50025,0.0,20.0,20.0,20.0,1.0,toilet_07s.jpg,0.0,clockno_default.jpg,4.0,6,,,,,,,,,,,,,,,,,,,,,,,,,,,,,,,,
0.0,1.0,0.55454,0.0,21.0,21.0,21.0,1.0,turtleneck_11s.jpg,0.0,clockno_default.jpg,4.0,6,,,,,,,,,,,,,,,,,,,,,,,,,,,,,,,,
0.0,1.0,0.519825,0.0,22.0,22.0,22.0,1.0,trident_07s.jpg,0.0,clockno_default.jpg,4.0,6,,,,,,,,,,,,,,,,,,,,,,,,,,,,,,,,
0.0,1.0,0.597055,0.0,23.0,23.0,23.0,1.0,contact_lens_15s.jpg,0.0,clockno_default.jpg,4.0,6,,,,,,,,,,,,,,,,,,,,,,,,,,,,,,,,
0.0,1.0,0.83218,0.0,24.0,24.0,24.0,1.0,plunger_08s.jpg,0.0,clockno_default.jpg,4.0,6,,,,,,,,,,,,,,,,,,,,,,,,,,,,,,,,
0.0,1.0,0.989555,0.0,25.0,25.0,25.0,1.0,timer_03s.jpg,0.0,clockno_up.jpg,5.0,6,,,,,,,,,,,,,,,,,,,,,,,,,,,,,,,,
1.0,1.0,0.671275,0.0,26.0,26.0,26.0,1.0,timer_03s.jpg,1.0,clockno_default.jpg,5.0,6,,,,,,,,,,,,,,,,,,,,,,,,,,,,,,,,
0.0,1.0,0.553065,0.0,27.0,27.0,27.0,1.0,spacesuit_02s.jpg,0.0,clockno_default.jpg,5.0,6,,,,,,,,,,,,,,,,,,,,,,,,,,,,,,,,
0.0,1.0,0.5977,0.0,28.0,28.0,28.0,1.0,roller_coaster_07s.jpg,0.0,clockno_default.jpg,5.0,6,,,,,,,,,,,,,,,,,,,,,,,,,,,,,,,,
0.0,1.0,0.771435,0.0,29.0,29.0,29.0,1.0,pocketknife_12s.jpg,0.0,clockno_default.jpg,5.0,6,,,,,,,,,,,,,,,,,,,,,,,,,,,,,,,,
0.0,1.0,1.136465,0.0,30.0,30.0,30.0,1.0,jewel_01b.jpg,0.0,clockno_up.jpg,6.0,6,,,,,,,,,,,,,,,,,,,,,,,,,,,,,,,,
0.0,1.0,0.67347,0.0,31.0,31.0,31.0,1.0,harpoon.jpg,0.0,clockno_default.jpg,6.0,6,,,,,,,,,,,,,,,,,,,,,,,,,,,,,,,,
0.0,1.0,0.93049,0.0,32.0,32.0,32.0,1.0,tinsel_12s.jpg,0.0,clockno_default.jpg,6.0,6,,,,,,,,,,,,,,,,,,,,,,,,,,,,,,,,
1.0,1.0,0.681885,0.0,33.0,33.0,33.0,1.0,tinsel_12s.jpg,1.0,clockno_default.jpg,6.0,6,,,,,,,,,,,,,,,,,,,,,,,,,,,,,,,,
1.0,1.0,0.869485,0.0,34.0,34.0,34.0,1.0,jewel_01b.jpg,1.0,clockno_default.jpg,6.0,6,,,,,,,,,,,,,,,,,,,,,,,,,,,,,,,,
0.0,1.0,0.70428,0.0,35.0,35.0,35.0,1.0,submarine_11n.jpg,0.0,clockno_default.jpg,6.0,6,,,,,,,,,,,,,,,,,,,,,,,,,,,,,,,,
,,,,,,,,,1.0,,,6,0.0,0.0,2.673265,0.0,0.0,0.0,0.0,1.0,pepper2_21s.jpg,hummingbird_05s.jpg,,,,,,,,,,,,,,,,,,,,,,
,,,,,,,,,0.0,,,6,1.0,0.0,2.789225,0.0,1.0,1.0,1.0,1.0,harpoon.jpg,roller_coaster_07s.jpg,,,,,,,,,,,,,,,,,,,,,,
,,,,,,,,,1.0,,,6,1.0,1.0,0.996645,0.0,2.0,2.0,2.0,1.0,butter_14s.jpg,stump_02s.jpg,,,,,,,,,,,,,,,,,,,,,,
,,,,,,,,,0.0,,,6,0.0,1.0,2.798435,0.0,3.0,3.0,3.0,1.0,ring_03s.jpg,towel_rack_04s.jpg,,,,,,,,,,,,,,,,,,,,,,
,,,,,,,,,0.0,,,6,0.0,1.0,0.87243,0.0,4.0,4.0,4.0,1.0,rollerskate_03s.jpg,quesadilla_07s.jpg,,,,,,,,,,,,,,,,,,,,,,
,,,,,,,,,0.0,,,6,0.0,1.0,1.148775,0.0,5.0,5.0,5.0,1.0,trident_07s.jpg,jigsaw_puzzle_11s.jpg,,,,,,,,,,,,,,,,,,,,,,
,,,,,,,,,,,,6,,,,,,,,,,,0.0,1.0,1.0,1.0,1.0,clockno_present_2_8.xlsx,clockno_compare_task_2_8.xlsx,,,,,,,,,,,,,,,
0.0,1.0,0.57877,0.0,0.0,0.0,0.0,1.0,peppermint_07s.jpg,0.0,clockno_up.jpg,1.0,6,,,,,,,,,,,,,,,,,,,,,,,,,,,,,,,,
0.0,1.0,0.54846,0.0,1.0,1.0,1.0,1.0,teapot_03s.jpg,0.0,clockno_default.jpg,1.0,6,,,,,,,,,,,,,,,,,,,,,,,,,,,,,,,,
0.0,1.0,0.48032,0.0,2.0,2.0,2.0,1.0,funnel_01b.jpg,0.0,clockno_default.jpg,1.0,6,,,,,,,,,,,,,,,,,,,,,,,,,,,,,,,,
0.0,1.0,0.576185,0.0,3.0,3.0,3.0,1.0,incense_02s.jpg,0.0,clockno_default.jpg,1.0,6,,,,,,,,,,,,,,,,,,,,,,,,,,,,,,,,
1.0,1.0,0.70558,0.0,4.0,4.0,4.0,1.0,teapot_03s.jpg,1.0,clockno_default.jpg,1.0,6,,,,,,,,,,,,,,,,,,,,,,,,,,,,,,,,
0.0,1.0,0.9208,0.0,5.0,5.0,5.0,1.0,licorice_06s.jpg,0.0,clockno_up.jpg,2.0,6,,,,,,,,,,,,,,,,,,,,,,,,,,,,,,,,
0.0,1.0,0.540285,0.0,6.0,6.0,6.0,1.0,sunglasses_11s.jpg,0.0,clockno_default.jpg,2.0,6,,,,,,,,,,,,,,,,,,,,,,,,,,,,,,,,
0.0,1.0,0.845515,0.0,7.0,7.0,7.0,1.0,funnel_01b.jpg,0.0,clockno_default.jpg,2.0,6,,,,,,,,,,,,,,,,,,,,,,,,,,,,,,,,
0.0,1.0,0.79593,0.0,8.0,8.0,8.0,1.0,rice_12s.jpg,0.0,clockno_default.jpg,2.0,6,,,,,,,,,,,,,,,,,,,,,,,,,,,,,,,,
1.0,1.0,0.68065,0.0,9.0,9.0,9.0,1.0,rice_12s.jpg,1.0,clockno_default.jpg,2.0,6,,,,,,,,,,,,,,,,,,,,,,,,,,,,,,,,
0.0,1.0,0.99816,0.0,10.0,10.0,10.0,1.0,emerald_02s.jpg,0.0,clockno_default.jpg,2.0,6,,,,,,,,,,,,,,,,,,,,,,,,,,,,,,,,
0.0,1.0,0.94682,0.0,11.0,11.0,11.0,1.0,raccoon_02s.jpg,0.0,clockno_default.jpg,2.0,6,,,,,,,,,,,,,,,,,,,,,,,,,,,,,,,,
0.0,1.0,0.83546,0.0,12.0,12.0,12.0,1.0,cushion_08s.jpg,0.0,clockno_up.jpg,3.0,6,,,,,,,,,,,,,,,,,,,,,,,,,,,,,,,,
0.0,1.0,0.62959,0.0,13.0,13.0,13.0,1.0,tiger_06s.jpg,0.0,clockno_default.jpg,3.0,6,,,,,,,,,,,,,,,,,,,,,,,,,,,,,,,,
1.0,1.0,0.73072,0.0,14.0,14.0,14.0,1.0,cushion_08s.jpg,1.0,clockno_default.jpg,3.0,6,,,,,,,,,,,,,,,,,,,,,,,,,,,,,,,,
0.0,1.0,0.88176,0.0,15.0,15.0,15.0,1.0,stamp1_11s.jpg,0.0,clockno_default.jpg,3.0,6,,,,,,,,,,,,,,,,,,,,,,,,,,,,,,,,
0.0,1.0,1.70508,0.0,16.0,16.0,16.0,1.0,cereal_04s.jpg,0.0,clockno_default.jpg,3.0,6,,,,,,,,,,,,,,,,,,,,,,,,,,,,,,,,
0.0,1.0,0.710975,0.0,17.0,17.0,17.0,1.0,jersey_02s.jpg,0.0,clockno_up.jpg,4.0,6,,,,,,,,,,,,,,,,,,,,,,,,,,,,,,,,
0.0,1.0,0.58402,0.0,18.0,18.0,18.0,1.0,tomato_sauce_09s.jpg,0.0,clockno_default.jpg,4.0,6,,,,,,,,,,,,,,,,,,,,,,,,,,,,,,,,
0.0,1.0,0.59074,0.0,19.0,19.0,19.0,1.0,toad_09s.jpg,0.0,clockno_default.jpg,4.0,6,,,,,,,,,,,,,,,,,,,,,,,,,,,,,,,,
0.0,1.0,0.808245,0.0,20.0,20.0,20.0,1.0,fire_pit_10s.jpg,0.0,clockno_default.jpg,4.0,6,,,,,,,,,,,,,,,,,,,,,,,,,,,,,,,,
0.0,1.0,0.715395,0.0,21.0,21.0,21.0,1.0,keyhole_03s.jpg,0.0,clockno_default.jpg,4.0,6,,,,,,,,,,,,,,,,,,,,,,,,,,,,,,,,
0.0,1.0,0.79825,0.0,22.0,22.0,22.0,1.0,comic_book_02s.jpg,0.0,clockno_default.jpg,4.0,6,,,,,,,,,,,,,,,,,,,,,,,,,,,,,,,,
0.0,1.0,0.68332,0.0,23.0,23.0,23.0,1.0,pencil02a.jpg,0.0,clockno_up.jpg,5.0,6,,,,,,,,,,,,,,,,,,,,,,,,,,,,,,,,
0.0,1.0,0.92493,0.0,24.0,24.0,24.0,1.0,punch2_09s.jpg,0.0,clockno_default.jpg,5.0,6,,,,,,,,,,,,,,,,,,,,,,,,,,,,,,,,
0.0,1.0,0.86134,0.0,25.0,25.0,25.0,1.0,chime_12s.jpg,0.0,clockno_default.jpg,5.0,6,,,,,,,,,,,,,,,,,,,,,,,,,,,,,,,,
1.0,1.0,0.777355,0.0,26.0,26.0,26.0,1.0,pencil02a.jpg,1.0,clockno_default.jpg,5.0,6,,,,,,,,,,,,,,,,,,,,,,,,,,,,,,,,
0.0,1.0,0.840395,0.0,27.0,27.0,27.0,1.0,lip_gloss_06s.jpg,0.0,clockno_default.jpg,5.0,6,,,,,,,,,,,,,,,,,,,,,,,,,,,,,,,,
0.0,1.0,0.70054,0.0,28.0,28.0,28.0,1.0,rocket_02s.jpg,0.0,clockno_default.jpg,5.0,6,,,,,,,,,,,,,,,,,,,,,,,,,,,,,,,,
,0.0,,0.0,29.0,29.0,29.0,1.0,punch2_09s.jpg,1.0,clockno_default.jpg,5.0,6,,,,,,,,,,,,,,,,,,,,,,,,,,,,,,,,
0.0,1.0,0.91539,0.0,30.0,30.0,30.0,1.0,crate_05s.jpg,0.0,clockno_up.jpg,6.0,6,,,,,,,,,,,,,,,,,,,,,,,,,,,,,,,,
1.0,1.0,0.654475,0.0,31.0,31.0,31.0,1.0,crate_05s.jpg,1.0,clockno_default.jpg,6.0,6,,,,,,,,,,,,,,,,,,,,,,,,,,,,,,,,
0.0,1.0,0.521695,0.0,32.0,32.0,32.0,1.0,blazer_02s.jpg,0.0,clockno_default.jpg,6.0,6,,,,,,,,,,,,,,,,,,,,,,,,,,,,,,,,
0.0,1.0,0.61615,0.0,33.0,33.0,33.0,1.0,fork_04s.jpg,0.0,clockno_default.jpg,6.0,6,,,,,,,,,,,,,,,,,,,,,,,,,,,,,,,,
0.0,1.0,0.57924,0.0,34.0,34.0,34.0,1.0,target_11s.jpg,0.0,clockno_default.jpg,6.0,6,,,,,,,,,,,,,,,,,,,,,,,,,,,,,,,,
0.0,1.0,0.706865,0.0,35.0,35.0,35.0,1.0,meatball_13s.jpg,0.0,clockno_default.jpg,6.0,6,,,,,,,,,,,,,,,,,,,,,,,,,,,,,,,,
,,,,,,,,,1.0,,,6,0.0,0.0,2.15542,0.0,0.0,0.0,0.0,1.0,incense_02s.jpg,sunglasses_11s.jpg,,,,,,,,,,,,,,,,,,,,,,
,,,,,,,,,0.0,,,6,1.0,0.0,1.49172,0.0,1.0,1.0,1.0,1.0,tiger_06s.jpg,emerald_02s.jpg,,,,,,,,,,,,,,,,,,,,,,
,,,,,,,,,1.0,,,6,1.0,1.0,0.932765,0.0,2.0,2.0,2.0,1.0,stamp1_11s.jpg,tomato_sauce_09s.jpg,,,,,,,,,,,,,,,,,,,,,,
,,,,,,,,,0.0,,,6,1.0,0.0,1.695595,0.0,3.0,3.0,3.0,1.0,fire_pit_10s.jpg,jersey_02s.jpg,,,,,,,,,,,,,,,,,,,,,,
,,,,,,,,,0.0,,,6,1.0,0.0,1.35548,0.0,4.0,4.0,4.0,1.0,meatball_13s.jpg,blazer_02s.jpg,,,,,,,,,,,,,,,,,,,,,,
,,,,,,,,,0.0,,,6,1.0,0.0,1.67846,0.0,5.0,5.0,5.0,1.0,rocket_02s.jpg,chime_12s.jpg,,,,,,,,,,,,,,,,,,,,,,
,,,,,,,,,,,,6,,,,,,,,,,,0.0,2.0,2.0,2.0,1.0,clockno_present_3_8.xlsx,clockno_compare_task_3_8.xlsx,,,,,,,,,,,,,,,
0.0,1.0,0.88948,0.0,0.0,0.0,0.0,1.0,kangaroo_02s.jpg,0.0,clockno_up.jpg,1.0,6,,,,,,,,,,,,,,,,,,,,,,,,,,,,,,,,
1.0,1.0,0.75911,0.0,1.0,1.0,1.0,1.0,kangaroo_02s.jpg,1.0,clockno_default.jpg,1.0,6,,,,,,,,,,,,,,,,,,,,,,,,,,,,,,,,
0.0,1.0,0.748085,0.0,2.0,2.0,2.0,1.0,kettle_08s.jpg,0.0,clockno_default.jpg,1.0,6,,,,,,,,,,,,,,,,,,,,,,,,,,,,,,,,
0.0,1.0,0.509425,0.0,3.0,3.0,3.0,1.0,cotton_candy_01b.jpg,0.0,clockno_default.jpg,1.0,6,,,,,,,,,,,,,,,,,,,,,,,,,,,,,,,,
1.0,1.0,0.856045,0.0,4.0,4.0,4.0,1.0,kettle_08s.jpg,1.0,clockno_default.jpg,1.0,6,,,,,,,,,,,,,,,,,,,,,,,,,,,,,,,,
0.0,1.0,0.631305,0.0,5.0,5.0,5.0,1.0,lamb_04s.jpg,0.0,clockno_default.jpg,1.0,6,,,,,,,,,,,,,,,,,,,,,,,,,,,,,,,,
0.0,1.0,0.52389,0.0,6.0,6.0,6.0,1.0,checkbook_11s.jpg,0.0,clockno_up.jpg,2.0,6,,,,,,,,,,,,,,,,,,,,,,,,,,,,,,,,
0.0,1.0,0.48131,0.0,7.0,7.0,7.0,1.0,gargoyle_08s.jpg,0.0,clockno_default.jpg,2.0,6,,,,,,,,,,,,,,,,,,,,,,,,,,,,,,,,
0.0,1.0,0.54641,0.0,8.0,8.0,8.0,1.0,megaphone_03s.jpg,0.0,clockno_default.jpg,2.0,6,,,,,,,,,,,,,,,,,,,,,,,,,,,,,,,,
0.0,1.0,0.66366,0.0,9.0,9.0,9.0,1.0,dirt_bike_11s.jpg,0.0,clockno_default.jpg,2.0,6,,,,,,,,,,,,,,,,,,,,,,,,,,,,,,,,
0.0,1.0,0.96569,0.0,10.0,10.0,10.0,1.0,stamp2_08s.jpg,0.0,clockno_default.jpg,2.0,6,,,,,,,,,,,,,,,,,,,,,,,,,,,,,,,,
0.0,1.0,0.624185,0.0,11.0,11.0,11.0,1.0,rope_16s.jpg,0.0,clockno_default.jpg,2.0,6,,,,,,,,,,,,,,,,,,,,,,,,,,,,,,,,
0.0,1.0,0.69089,0.0,12.0,12.0,12.0,1.0,lamb_chop_07s.jpg,0.0,clockno_default.jpg,2.0,6,,,,,,,,,,,,,,,,,,,,,,,,,,,,,,,,
0.0,1.0,0.567305,0.0,13.0,13.0,13.0,1.0,taxi_15s.jpg,0.0,clockno_up.jpg,3.0,6,,,,,,,,,,,,,,,,,,,,,,,,,,,,,,,,
0.0,1.0,0.562205,0.0,14.0,14.0,14.0,1.0,recliner_02s.jpg,0.0,clockno_default.jpg,3.0,6,,,,,,,,,,,,,,,,,,,,,,,,,,,,,,,,
0.0,1.0,0.565545,0.0,15.0,15.0,15.0,1.0,jelly_bean_06s.jpg,0.0,clockno_default.jpg,3.0,6,,,,,,,,,,,,,,,,,,,,,,,,,,,,,,,,
0.0,1.0,0.706885,0.0,16.0,16.0,16.0,1.0,smoothie_09s.jpg,0.0,clockno_default.jpg,3.0,6,,,,,,,,,,,,,,,,,,,,,,,,,,,,,,,,
1.0,1.0,0.7227,0.0,17.0,17.0,17.0,1.0,taxi_15s.jpg,1.0,clockno_default.jpg,3.0,6,,,,,,,,,,,,,,,,,,,,,,,,,,,,,,,,
1.0,1.0,0.618685,0.0,18.0,18.0,18.0,1.0,taxi_15s.jpg,1.0,clockno_default.jpg,3.0,6,,,,,,,,,,,,,,,,,,,,,,,,,,,,,,,,
0.0,1.0,0.59689,0.0,19.0,19.0,19.0,1.0,sushi_08s.jpg,0.0,clockno_default.jpg,3.0,6,,,,,,,,,,,,,,,,,,,,,,,,,,,,,,,,
0.0,1.0,0.98159,0.0,20.0,20.0,20.0,1.0,penlight_12s.jpg,0.0,clockno_up.jpg,4.0,6,,,,,,,,,,,,,,,,,,,,,,,,,,,,,,,,
1.0,1.0,0.690425,0.0,21.0,21.0,21.0,1.0,penlight_12s.jpg,1.0,clockno_default.jpg,4.0,6,,,,,,,,,,,,,,,,,,,,,,,,,,,,,,,,
1.0,1.0,0.689855,0.0,22.0,22.0,22.0,1.0,penlight_12s.jpg,1.0,clockno_default.jpg,4.0,6,,,,,,,,,,,,,,,,,,,,,,,,,,,,,,,,
0.0,1.0,0.71998,0.0,23.0,23.0,23.0,1.0,jet_15s.jpg,0.0,clockno_default.jpg,4.0,6,,,,,,,,,,,,,,,,,,,,,,,,,,,,,,,,
0.0,1.0,0.79959,0.0,24.0,24.0,24.0,1.0,power_line_08s.jpg,0.0,clockno_default.jpg,4.0,6,,,,,,,,,,,,,,,,,,,,,,,,,,,,,,,,
0.0,1.0,1.068345,0.0,25.0,25.0,25.0,1.0,orange_12s.jpg,0.0,clockno_up.jpg,5.0,6,,,,,,,,,,,,,,,,,,,,,,,,,,,,,,,,
0.0,1.0,0.641055,0.0,26.0,26.0,26.0,1.0,fishhook_06s.jpg,0.0,clockno_default.jpg,5.0,6,,,,,,,,,,,,,,,,,,,,,,,,,,,,,,,,
0.0,1.0,0.50191,0.0,27.0,27.0,27.0,1.0,crystal_ball_12s.jpg,0.0,clockno_default.jpg,5.0,6,,,,,,,,,,,,,,,,,,,,,,,,,,,,,,,,
0.0,1.0,0.809075,0.0,28.0,28.0,28.0,1.0,taxi_15s.jpg,0.0,clockno_default.jpg,5.0,6,,,,,,,,,,,,,,,,,,,,,,,,,,,,,,,,
0.0,1.0,0.72303,0.0,29.0,29.0,29.0,1.0,pineapple_12s.jpg,0.0,clockno_default.jpg,5.0,6,,,,,,,,,,,,,,,,,,,,,,,,,,,,,,,,
0.0,1.0,0.54602,0.0,30.0,30.0,30.0,1.0,tulip_02s.jpg,0.0,clockno_default.jpg,5.0,6,,,,,,,,,,,,,,,,,,,,,,,,,,,,,,,,
0.0,1.0,0.96517,0.0,31.0,31.0,31.0,1.0,tongs_08s.jpg,0.0,clockno_up.jpg,6.0,6,,,,,,,,,,,,,,,,,,,,,,,,,,,,,,,,
0.0,1.0,0.646345,0.0,32.0,32.0,32.0,1.0,orchid_01b.jpg,0.0,clockno_default.jpg,6.0,6,,,,,,,,,,,,,,,,,,,,,,,,,,,,,,,,
1.0,1.0,0.688595,0.0,33.0,33.0,33.0,1.0,tongs_08s.jpg,1.0,clockno_default.jpg,6.0,6,,,,,,,,,,,,,,,,,,,,,,,,,,,,,,,,
1.0,1.0,0.80781,0.0,34.0,34.0,34.0,1.0,tongs_08s.jpg,1.0,clockno_default.jpg,6.0,6,,,,,,,,,,,,,,,,,,,,,,,,,,,,,,,,
1.0,1.0,1.011675,0.0,35.0,35.0,35.0,1.0,orchid_01b.jpg,1.0,clockno_default.jpg,6.0,6,,,,,,,,,,,,,,,,,,,,,,,,,,,,,,,,
,,,,,,,,,1.0,,,6,1.0,1.0,1.778125,0.0,0.0,0.0,0.0,1.0,cotton_candy_01b.jpg,checkbook_11s.jpg,,,,,,,,,,,,,,,,,,,,,,
,,,,,,,,,1.0,,,6,0.0,0.0,2.49102,0.0,1.0,1.0,1.0,1.0,lamb_04s.jpg,megaphone_03s.jpg,,,,,,,,,,,,,,,,,,,,,,
,,,,,,,,,0.0,,,6,1.0,0.0,1.12416,0.0,2.0,2.0,2.0,1.0,recliner_02s.jpg,rope_16s.jpg,,,,,,,,,,,,,,,,,,,,,,
,,,,,,,,,0.0,,,6,1.0,0.0,2.525065,0.0,3.0,3.0,3.0,1.0,stamp2_08s.jpg,gargoyle_08s.jpg,,,,,,,,,,,,,,,,,,,,,,
,,,,,,,,,1.0,,,6,1.0,1.0,1.992545,0.0,4.0,4.0,4.0,1.0,smoothie_09s.jpg,sushi_08s.jpg,,,,,,,,,,,,,,,,,,,,,,
,,,,,,,,,1.0,,,6,0.0,0.0,1.011735,0.0,5.0,5.0,5.0,1.0,dirt_bike_11s.jpg,lamb_chop_07s.jpg,,,,,,,,,,,,,,,,,,,,,,
,,,,,,,,,,,,6,,,,,,,,,,,0.0,3.0,3.0,3.0,1.0,clockno_present_4_8.xlsx,clockno_compare_task_4_8.xlsx,,,,,,,,,,,,,,,
0.0,1.0,0.62488,0.0,0.0,0.0,0.0,1.0,ice-cream_cone_06s.jpg,0.0,clockno_up.jpg,1.0,6,,,,,,,,,,,,,,,,,,,,,,,,,,,,,,,,
0.0,1.0,0.797305,0.0,1.0,1.0,1.0,1.0,teabag_12s.jpg,0.0,clockno_default.jpg,1.0,6,,,,,,,,,,,,,,,,,,,,,,,,,,,,,,,,
0.0,1.0,0.67306,0.0,2.0,2.0,2.0,1.0,giraffe_11s.jpg,0.0,clockno_default.jpg,1.0,6,,,,,,,,,,,,,,,,,,,,,,,,,,,,,,,,
0.0,1.0,1.02186,0.0,3.0,3.0,3.0,1.0,ivy_12s.jpg,0.0,clockno_default.jpg,1.0,6,,,,,,,,,,,,,,,,,,,,,,,,,,,,,,,,
0.0,1.0,0.742475,0.0,4.0,4.0,4.0,1.0,plug_08s.jpg,0.0,clockno_default.jpg,1.0,6,,,,,,,,,,,,,,,,,,,,,,,,,,,,,,,,
0.0,1.0,0.62452,0.0,5.0,5.0,5.0,1.0,sparkler_02s.jpg,0.0,clockno_default.jpg,1.0,6,,,,,,,,,,,,,,,,,,,,,,,,,,,,,,,,
0.0,1.0,0.69857,0.0,6.0,6.0,6.0,1.0,otter_05s.jpg,0.0,clockno_default.jpg,1.0,6,,,,,,,,,,,,,,,,,,,,,,,,,,,,,,,,
0.0,1.0,0.71407,0.0,7.0,7.0,7.0,1.0,tie_03s.jpg,0.0,clockno_up.jpg,2.0,6,,,,,,,,,,,,,,,,,,,,,,,,,,,,,,,,
1.0,1.0,0.68282,0.0,8.0,8.0,8.0,1.0,tie_03s.jpg,1.0,clockno_default.jpg,2.0,6,,,,,,,,,,,,,,,,,,,,,,,,,,,,,,,,
0.0,1.0,0.758475,0.0,9.0,9.0,9.0,1.0,petri_dish_12s.jpg,0.0,clockno_default.jpg,2.0,6,,,,,,,,,,,,,,,,,,,,,,,,,,,,,,,,
0.0,1.0,1.35612,0.0,10.0,10.0,10.0,1.0,squirrel_02s.jpg,0.0,clockno_default.jpg,2.0,6,,,,,,,,,,,,,,,,,,,,,,,,,,,,,,,,
0.0,1.0,1.570505,0.0,11.0,11.0,11.0,1.0,ivy_12s.jpg,0.0,clockno_default.jpg,2.0,6,,,,,,,,,,,,,,,,,,,,,,,,,,,,,,,,
1.0,1.0,0.67221,0.0,12.0,12.0,12.0,1.0,squirrel_02s.jpg,1.0,clockno_default.jpg,2.0,6,,,,,,,,,,,,,,,,,,,,,,,,,,,,,,,,
0.0,1.0,0.74196,0.0,13.0,13.0,13.0,1.0,spider_web_03s.jpg,0.0,clockno_up.jpg,3.0,6,,,,,,,,,,,,,,,,,,,,,,,,,,,,,,,,
0.0,1.0,0.712825,0.0,14.0,14.0,14.0,1.0,toaster_03s.jpg,0.0,clockno_default.jpg,3.0,6,,,,,,,,,,,,,,,,,,,,,,,,,,,,,,,,
0.0,1.0,0.6638,0.0,15.0,15.0,15.0,1.0,thumbtack_14s.jpg,0.0,clockno_default.jpg,3.0,6,,,,,,,,,,,,,,,,,,,,,,,,,,,,,,,,
0.0,1.0,0.644115,0.0,16.0,16.0,16.0,1.0,moth_06n.jpg,0.0,clockno_default.jpg,3.0,6,,,,,,,,,,,,,,,,,,,,,,,,,,,,,,,,
0.0,1.0,0.766505,0.0,17.0,17.0,17.0,1.0,coral_08s.jpg,0.0,clockno_default.jpg,3.0,6,,,,,,,,,,,,,,,,,,,,,,,,,,,,,,,,
0.0,1.0,0.59965,0.0,18.0,18.0,18.0,1.0,lamppost_09s.jpg,0.0,clockno_default.jpg,3.0,6,,,,,,,,,,,,,,,,,,,,,,,,,,,,,,,,
0.0,1.0,0.72444,0.0,19.0,19.0,19.0,1.0,prism_10s.jpg,0.0,clockno_up.jpg,4.0,6,,,,,,,,,,,,,,,,,,,,,,,,,,,,,,,,
0.0,1.0,0.97139,0.0,20.0,20.0,20.0,1.0,tie_03s.jpg,0.0,clockno_default.jpg,4.0,6,,,,,,,,,,,,,,,,,,,,,,,,,,,,,,,,
0.0,1.0,0.5859,0.0,21.0,21.0,21.0,1.0,pumpkin_03s.jpg,0.0,clockno_default.jpg,4.0,6,,,,,,,,,,,,,,,,,,,,,,,,,,,,,,,,
1.0,1.0,0.62062,0.0,22.0,22.0,22.0,1.0,pumpkin_03s.jpg,1.0,clockno_default.jpg,4.0,6,,,,,,,,,,,,,,,,,,,,,,,,,,,,,,,,
0.0,1.0,0.59717,0.0,23.0,23.0,23.0,1.0,bacon_05s.jpg,0.0,clockno_default.jpg,4.0,6,,,,,,,,,,,,,,,,,,,,,,,,,,,,,,,,
0.0,1.0,1.012435,0.0,24.0,24.0,24.0,1.0,mold2_04s.jpg,0.0,clockno_up.jpg,5.0,6,,,,,,,,,,,,,,,,,,,,,,,,,,,,,,,,
0.0,1.0,0.706825,0.0,25.0,25.0,25.0,1.0,pumpkin_03s.jpg,0.0,clockno_default.jpg,5.0,6,,,,,,,,,,,,,,,,,,,,,,,,,,,,,,,,
0.0,1.0,0.64922,0.0,26.0,26.0,26.0,1.0,police_car_01s.jpg,0.0,clockno_default.jpg,5.0,6,,,,,,,,,,,,,,,,,,,,,,,,,,,,,,,,
0.0,1.0,0.64683,0.0,27.0,27.0,27.0,1.0,limousine_12s.jpg,0.0,clockno_default.jpg,5.0,6,,,,,,,,,,,,,,,,,,,,,,,,,,,,,,,,
0.0,1.0,0.62932,0.0,28.0,28.0,28.0,1.0,pump_11s.jpg,0.0,clockno_default.jpg,5.0,6,,,,,,,,,,,,,,,,,,,,,,,,,,,,,,,,
0.0,1.0,1.346055,0.0,29.0,29.0,29.0,1.0,raspberry_12s.jpg,0.0,clockno_default.jpg,5.0,6,,,,,,,,,,,,,,,,,,,,,,,,,,,,,,,,
0.0,1.0,1.619225,0.0,30.0,30.0,30.0,1.0,bee_20s.jpg,0.0,clockno_default.jpg,5.0,6,,,,,,,,,,,,,,,,,,,,,,,,,,,,,,,,
0.0,1.0,1.141515,0.0,31.0,31.0,31.0,1.0,machine_gun_09s.jpg,0.0,clockno_up.jpg,6.0,6,,,,,,,,,,,,,,,,,,,,,,,,,,,,,,,,
1.0,1.0,0.688235,0.0,32.0,32.0,32.0,1.0,machine_gun_09s.jpg,1.0,clockno_default.jpg,6.0,6,,,,,,,,,,,,,,,,,,,,,,,,,,,,,,,,
0.0,1.0,0.68794,0.0,33.0,33.0,33.0,1.0,boomerang_06s.jpg,0.0,clockno_default.jpg,6.0,6,,,,,,,,,,,,,,,,,,,,,,,,,,,,,,,,
0.0,1.0,0.721055,0.0,34.0,34.0,34.0,1.0,roulette_wheel_04s.jpg,0.0,clockno_default.jpg,6.0,6,,,,,,,,,,,,,,,,,,,,,,,,,,,,,,,,
0.0,1.0,0.574215,0.0,35.0,35.0,35.0,1.0,perfume_06s.jpg,0.0,clockno_default.jpg,6.0,6,,,,,,,,,,,,,,,,,,,,,,,,,,,,,,,,
,,,,,,,,,0.0,,,6,0.0,1.0,2.295175,0.0,0.0,0.0,0.0,1.0,petri_dish_12s.jpg,otter_05s.jpg,,,,,,,,,,,,,,,,,,,,,,
,,,,,,,,,0.0,,,6,0.0,1.0,2.248325,0.0,1.0,1.0,1.0,1.0,prism_10s.jpg,moth_06n.jpg,,,,,,,,,,,,,,,,,,,,,,
,,,,,,,,,1.0,,,6,0.0,0.0,1.7508,0.0,2.0,2.0,2.0,1.0,bacon_05s.jpg,police_car_01s.jpg,,,,,,,,,,,,,,,,,,,,,,
,,,,,,,,,1.0,,,6,1.0,1.0,1.01999,0.0,3.0,3.0,3.0,1.0,teabag_12s.jpg,plug_08s.jpg,,,,,,,,,,,,,,,,,,,,,,
,,,,,,,,,0.0,,,6,1.0,0.0,1.4044,0.0,4.0,4.0,4.0,1.0,sparkler_02s.jpg,giraffe_11s.jpg,,,,,,,,,,,,,,,,,,,,,,
,,,,,,,,,0.0,,,6,0.0,1.0,2.457915,0.0,5.0,5.0,5.0,1.0,coral_08s.jpg,toaster_03s.jpg,,,,,,,,,,,,,,,,,,,,,,
,,,,,,,,,,,,6,,,,,,,,,,,0.0,4.0,4.0,4.0,1.0,clockno_present_5_8.xlsx,clockno_compare_task_5_8.xlsx,,,,,,,,,,,,,,,
0.0,1.0,0.505485,0.0,0.0,0.0,0.0,1.0,rooster_03s.jpg,0.0,clockno_up.jpg,1.0,6,,,,,,,,,,,,,,,,,,,,,,,,,,,,,,,,
1.0,1.0,0.599965,0.0,1.0,1.0,1.0,1.0,rooster_03s.jpg,1.0,clockno_default.jpg,1.0,6,,,,,,,,,,,,,,,,,,,,,,,,,,,,,,,,
1.0,1.0,0.644595,0.0,2.0,2.0,2.0,1.0,rooster_03s.jpg,1.0,clockno_default.jpg,1.0,6,,,,,,,,,,,,,,,,,,,,,,,,,,,,,,,,
0.0,1.0,0.66538,0.0,3.0,3.0,3.0,1.0,birdcage_08s.jpg,0.0,clockno_default.jpg,1.0,6,,,,,,,,,,,,,,,,,,,,,,,,,,,,,,,,
1.0,1.0,0.54036,0.0,4.0,4.0,4.0,1.0,birdcage_08s.jpg,1.0,clockno_default.jpg,1.0,6,,,,,,,,,,,,,,,,,,,,,,,,,,,,,,,,
0.0,1.0,0.420595,0.0,5.0,5.0,5.0,1.0,bowler_hat_10s.jpg,0.0,clockno_default.jpg,1.0,6,,,,,,,,,,,,,,,,,,,,,,,,,,,,,,,,
0.0,1.0,0.83722,0.0,6.0,6.0,6.0,1.0,potholder_02s.jpg,0.0,clockno_up.jpg,2.0,6,,,,,,,,,,,,,,,,,,,,,,,,,,,,,,,,
0.0,1.0,0.648855,0.0,7.0,7.0,7.0,1.0,rooster_03s.jpg,0.0,clockno_default.jpg,2.0,6,,,,,,,,,,,,,,,,,,,,,,,,,,,,,,,,
0.0,1.0,0.746425,0.0,8.0,8.0,8.0,1.0,mango_09s.jpg,0.0,clockno_default.jpg,2.0,6,,,,,,,,,,,,,,,,,,,,,,,,,,,,,,,,
1.0,1.0,0.629985,0.0,9.0,9.0,9.0,1.0,rooster_03s.jpg,1.0,clockno_default.jpg,2.0,6,,,,,,,,,,,,,,,,,,,,,,,,,,,,,,,,
0.0,1.0,0.881245,0.0,10.0,10.0,10.0,1.0,orangutan_03s.jpg,0.0,clockno_default.jpg,2.0,6,,,,,,,,,,,,,,,,,,,,,,,,,,,,,,,,
0.0,1.0,0.82381,0.0,11.0,11.0,11.0,1.0,latch_15s.jpg,0.0,clockno_default.jpg,2.0,6,,,,,,,,,,,,,,,,,,,,,,,,,,,,,,,,
0.0,1.0,0.678335,0.0,12.0,12.0,12.0,1.0,soccer_ball_12s.jpg,0.0,clockno_default.jpg,2.0,6,,,,,,,,,,,,,,,,,,,,,,,,,,,,,,,,
0.0,1.0,0.721805,0.0,13.0,13.0,13.0,1.0,gear_07s.jpg,0.0,clockno_up.jpg,3.0,6,,,,,,,,,,,,,,,,,,,,,,,,,,,,,,,,
1.0,1.0,0.58248,0.0,14.0,14.0,14.0,1.0,gear_07s.jpg,1.0,clockno_default.jpg,3.0,6,,,,,,,,,,,,,,,,,,,,,,,,,,,,,,,,
0.0,1.0,0.56816,0.0,15.0,15.0,15.0,1.0,flip_flop_03s.jpg,0.0,clockno_default.jpg,3.0,6,,,,,,,,,,,,,,,,,,,,,,,,,,,,,,,,
0.0,1.0,0.52562,0.0,16.0,16.0,16.0,1.0,coffee_filter_10s.jpg,0.0,clockno_default.jpg,3.0,6,,,,,,,,,,,,,,,,,,,,,,,,,,,,,,,,
1.0,1.0,0.703175,0.0,17.0,17.0,17.0,1.0,coffee_filter_10s.jpg,1.0,clockno_default.jpg,3.0,6,,,,,,,,,,,,,,,,,,,,,,,,,,,,,,,,
0.0,1.0,1.16481,0.0,18.0,18.0,18.0,1.0,golf_club_03s.jpg,0.0,clockno_up.jpg,4.0,6,,,,,,,,,,,,,,,,,,,,,,,,,,,,,,,,
0.0,1.0,0.40458,0.0,19.0,19.0,19.0,1.0,icemaker_10s.jpg,0.0,clockno_default.jpg,4.0,6,,,,,,,,,,,,,,,,,,,,,,,,,,,,,,,,
0.0,1.0,0.746275,0.0,20.0,20.0,20.0,1.0,sleeping_bag_12s.jpg,0.0,clockno_default.jpg,4.0,6,,,,,,,,,,,,,,,,,,,,,,,,,,,,,,,,
0.0,1.0,0.55756,0.0,21.0,21.0,21.0,1.0,tape_06s.jpg,0.0,clockno_default.jpg,4.0,6,,,,,,,,,,,,,,,,,,,,,,,,,,,,,,,,
0.0,1.0,0.622555,0.0,22.0,22.0,22.0,1.0,red_carpet_03s.jpg,0.0,clockno_default.jpg,4.0,6,,,,,,,,,,,,,,,,,,,,,,,,,,,,,,,,
1.0,1.0,0.74109,0.0,23.0,23.0,23.0,1.0,red_carpet_03s.jpg,1.0,clockno_default.jpg,4.0,6,,,,,,,,,,,,,,,,,,,,,,,,,,,,,,,,
1.0,1.0,0.67017,0.0,24.0,24.0,24.0,1.0,sleeping_bag_12s.jpg,1.0,clockno_default.jpg,4.0,6,,,,,,,,,,,,,,,,,,,,,,,,,,,,,,,,
0.0,1.0,0.85023,0.0,25.0,25.0,25.0,1.0,quilt_03s.jpg,0.0,clockno_up.jpg,5.0,6,,,,,,,,,,,,,,,,,,,,,,,,,,,,,,,,
0.0,1.0,0.59938,0.0,26.0,26.0,26.0,1.0,torch_02s.jpg,0.0,clockno_default.jpg,5.0,6,,,,,,,,,,,,,,,,,,,,,,,,,,,,,,,,
0.0,1.0,0.483595,0.0,27.0,27.0,27.0,1.0,pancake_12s.jpg,0.0,clockno_default.jpg,5.0,6,,,,,,,,,,,,,,,,,,,,,,,,,,,,,,,,
0.0,1.0,0.6545,0.0,28.0,28.0,28.0,1.0,umbrella_15s.jpg,0.0,clockno_default.jpg,5.0,6,,,,,,,,,,,,,,,,,,,,,,,,,,,,,,,,
0.0,1.0,0.64668,0.0,29.0,29.0,29.0,1.0,measuring_cup_02s.jpg,0.0,clockno_default.jpg,5.0,6,,,,,,,,,,,,,,,,,,,,,,,,,,,,,,,,
0.0,1.0,1.15761,0.0,30.0,30.0,30.0,1.0,briefcase_03s.jpg,0.0,clockno_up.jpg,6.0,6,,,,,,,,,,,,,,,,,,,,,,,,,,,,,,,,
0.0,1.0,0.526895,0.0,31.0,31.0,31.0,1.0,birdcage_08s.jpg,0.0,clockno_default.jpg,6.0,6,,,,,,,,,,,,,,,,,,,,,,,,,,,,,,,,
0.0,1.0,0.54315,0.0,32.0,32.0,32.0,1.0,trumpet_06s.jpg,0.0,clockno_default.jpg,6.0,6,,,,,,,,,,,,,,,,,,,,,,,,,,,,,,,,
0.0,1.0,0.83985,0.0,33.0,33.0,33.0,1.0,pepper_mill_03s.jpg,0.0,clockno_default.jpg,6.0,6,,,,,,,,,,,,,,,,,,,,,,,,,,,,,,,,
0.0,1.0,0.704595,0.0,34.0,34.0,34.0,1.0,turtle_08s.jpg,0.0,clockno_default.jpg,6.0,6,,,,,,,,,,,,,,,,,,,,,,,,,,,,,,,,
0.0,1.0,0.599365,0.0,35.0,35.0,35.0,1.0,juicer1_08s.jpg,0.0,clockno_default.jpg,6.0,6,,,,,,,,,,,,,,,,,,,,,,,,,,,,,,,,
,,,,,,,,,1.0,,,6,0.0,0.0,1.21654,0.0,0.0,0.0,0.0,1.0,soccer_ball_12s.jpg,flip_flop_03s.jpg,,,,,,,,,,,,,,,,,,,,,,
,,,,,,,,,1.0,,,6,1.0,1.0,1.15236,0.0,1.0,1.0,1.0,1.0,bowler_hat_10s.jpg,mango_09s.jpg,,,,,,,,,,,,,,,,,,,,,,
,,,,,,,,,1.0,,,6,1.0,1.0,2.79218,0.0,2.0,2.0,2.0,1.0,pancake_12s.jpg,briefcase_03s.jpg,,,,,,,,,,,,,,,,,,,,,,
,,,,,,,,,0.0,,,6,0.0,1.0,1.71538,0.0,3.0,3.0,3.0,1.0,umbrella_15s.jpg,quilt_03s.jpg,,,,,,,,,,,,,,,,,,,,,,
,,,,,,,,,0.0,,,6,1.0,0.0,1.09127,0.0,4.0,4.0,4.0,1.0,tape_06s.jpg,golf_club_03s.jpg,,,,,,,,,,,,,,,,,,,,,,
,,,,,,,,,1.0,,,6,1.0,1.0,1.344175,0.0,5.0,5.0,5.0,1.0,torch_02s.jpg,measuring_cup_02s.jpg,,,,,,,,,,,,,,,,,,,,,,
0.0,1.0,1.450175,,,,,,mixer_12s.jpg,0.0,clock_7_1.png,1.0,6,,,,,,,,,,,,,,,,,,0.0,0.0,0.0,0.0,1.0,,,,,,,,,,
0.0,1.0,0.666725,,,,,,mushroom_10n.jpg,0.0,clock_7_2.png,1.0,6,,,,,,,,,,,,,,,,,,0.0,1.0,1.0,1.0,1.0,,,,,,,,,,
0.0,1.0,0.5811,,,,,,ink_08s.jpg,0.0,clock_7_3.png,1.0,6,,,,,,,,,,,,,,,,,,0.0,2.0,2.0,2.0,1.0,,,,,,,,,,
0.0,1.0,1.028485,,,,,,amber_04s.jpg,0.0,clock_7_4.png,1.0,6,,,,,,,,,,,,,,,,,,0.0,3.0,3.0,3.0,1.0,,,,,,,,,,
0.0,1.0,0.6716,,,,,,glasses01a.jpg,0.0,clock_7_5.png,1.0,6,,,,,,,,,,,,,,,,,,0.0,4.0,4.0,4.0,1.0,,,,,,,,,,
0.0,1.0,0.546155,,,,,,chip_04s.jpg,0.0,clock_7_6.png,1.0,6,,,,,,,,,,,,,,,,,,0.0,5.0,5.0,5.0,1.0,,,,,,,,,,
0.0,1.0,0.93049,,,,,,kilt_18s.jpg,0.0,clock_7_7.png,1.0,6,,,,,,,,,,,,,,,,,,0.0,6.0,6.0,6.0,1.0,,,,,,,,,,
0.0,1.0,0.39162,,,,,,film_03s.jpg,0.0,clock_6_1.png,2.0,6,,,,,,,,,,,,,,,,,,0.0,7.0,7.0,7.0,1.0,,,,,,,,,,
0.0,1.0,0.770815,,,,,,footprint_11s.jpg,0.0,clock_6_2.png,2.0,6,,,,,,,,,,,,,,,,,,0.0,8.0,8.0,8.0,1.0,,,,,,,,,,
0.0,1.0,1.90178,,,,,,teacup_07s.jpg,0.0,clock_6_3.png,2.0,6,,,,,,,,,,,,,,,,,,0.0,9.0,9.0,9.0,1.0,,,,,,,,,,
0.0,1.0,0.565565,,,,,,razor_12s.jpg,0.0,clock_6_4.png,2.0,6,,,,,,,,,,,,,,,,,,0.0,10.0,10.0,10.0,1.0,,,,,,,,,,
0.0,1.0,0.849445,,,,,,turkey_10s.jpg,0.0,clock_6_5.png,2.0,6,,,,,,,,,,,,,,,,,,0.0,11.0,11.0,11.0,1.0,,,,,,,,,,
1.0,0.0,1.790205,,,,,,amber_04s.jpg,0.0,clock_6_6.png,2.0,6,,,,,,,,,,,,,,,,,,0.0,12.0,12.0,12.0,1.0,,,,,,,,,,
0.0,1.0,0.45013,,,,,,lantern_04s.jpg,0.0,clock_7_1.png,3.0,6,,,,,,,,,,,,,,,,,,0.0,13.0,13.0,13.0,1.0,,,,,,,,,,
0.0,1.0,0.48017,,,,,,film_03s.jpg,0.0,clock_7_2.png,3.0,6,,,,,,,,,,,,,,,,,,0.0,14.0,14.0,14.0,1.0,,,,,,,,,,
0.0,1.0,0.54067,,,,,,kitten_07s.jpg,0.0,clock_7_3.png,3.0,6,,,,,,,,,,,,,,,,,,0.0,15.0,15.0,15.0,1.0,,,,,,,,,,
0.0,1.0,0.636895,,,,,,mosquito_12s.jpg,0.0,clock_7_4.png,3.0,6,,,,,,,,,,,,,,,,,,0.0,16.0,16.0,16.0,1.0,,,,,,,,,,
0.0,1.0,0.63189,,,,,,memory_stick_11s.jpg,0.0,clock_7_5.png,3.0,6,,,,,,,,,,,,,,,,,,0.0,17.0,17.0,17.0,1.0,,,,,,,,,,
0.0,1.0,0.576325,,,,,,lipstick_02s.jpg,0.0,clock_7_6.png,3.0,6,,,,,,,,,,,,,,,,,,0.0,18.0,18.0,18.0,1.0,,,,,,,,,,
1.0,1.0,0.747355,,,,,,kitten_07s.jpg,1.0,clock_7_7.png,3.0,6,,,,,,,,,,,,,,,,,,0.0,19.0,19.0,19.0,1.0,,,,,,,,,,
0.0,1.0,0.388535,,,,,,mattress_01s.jpg,0.0,clock_5_1.png,4.0,6,,,,,,,,,,,,,,,,,,0.0,20.0,20.0,20.0,1.0,,,,,,,,,,
0.0,1.0,0.60094,,,,,,fondue_07s.jpg,0.0,clock_5_2.png,4.0,6,,,,,,,,,,,,,,,,,,0.0,21.0,21.0,21.0,1.0,,,,,,,,,,
0.0,1.0,0.58387,,,,,,espresso_01b.jpg,0.0,clock_5_3.png,4.0,6,,,,,,,,,,,,,,,,,,0.0,22.0,22.0,22.0,1.0,,,,,,,,,,
0.0,1.0,0.663015,,,,,,tiara_05s.jpg,0.0,clock_5_4.png,4.0,6,,,,,,,,,,,,,,,,,,0.0,23.0,23.0,23.0,1.0,,,,,,,,,,
1.0,1.0,0.724795,,,,,,espresso_01b.jpg,1.0,clock_5_5.png,4.0,6,,,,,,,,,,,,,,,,,,0.0,24.0,24.0,24.0,1.0,,,,,,,,,,
0.0,1.0,0.639645,,,,,,flask_04s.jpg,0.0,clock_6_1.png,5.0,6,,,,,,,,,,,,,,,,,,0.0,25.0,25.0,25.0,1.0,,,,,,,,,,
0.0,1.0,0.869945,,,,,,duck_01b.jpg,0.0,clock_6_2.png,5.0,6,,,,,,,,,,,,,,,,,,0.0,26.0,26.0,26.0,1.0,,,,,,,,,,
0.0,1.0,0.618635,,,,,,ukulele_02s.jpg,0.0,clock_6_3.png,5.0,6,,,,,,,,,,,,,,,,,,0.0,27.0,27.0,27.0,1.0,,,,,,,,,,
0.0,1.0,0.583225,,,,,,polaroid_05s.jpg,0.0,clock_6_4.png,5.0,6,,,,,,,,,,,,,,,,,,0.0,28.0,28.0,28.0,1.0,,,,,,,,,,
0.0,1.0,0.665405,,,,,,kite_04s.jpg,0.0,clock_6_5.png,5.0,6,,,,,,,,,,,,,,,,,,0.0,29.0,29.0,29.0,1.0,,,,,,,,,,
1.0,1.0,0.67115,,,,,,kite_04s.jpg,1.0,clock_6_6.png,5.0,6,,,,,,,,,,,,,,,,,,0.0,30.0,30.0,30.0,1.0,,,,,,,,,,
0.0,1.0,0.439255,,,,,,denture_03s.jpg,0.0,clock_5_1.png,6.0,6,,,,,,,,,,,,,,,,,,0.0,31.0,31.0,31.0,1.0,,,,,,,,,,
0.0,1.0,0.686745,,,,,,frog_09s.jpg,0.0,clock_5_2.png,6.0,6,,,,,,,,,,,,,,,,,,0.0,32.0,32.0,32.0,1.0,,,,,,,,,,
0.0,1.0,0.751775,,,,,,diving_board_07s.jpg,0.0,clock_5_3.png,6.0,6,,,,,,,,,,,,,,,,,,0.0,33.0,33.0,33.0,1.0,,,,,,,,,,
1.0,1.0,0.77403,,,,,,denture_03s.jpg,1.0,clock_5_4.png,6.0,6,,,,,,,,,,,,,,,,,,0.0,34.0,34.0,34.0,1.0,,,,,,,,,,
0.0,1.0,0.61694,,,,,,telephone_pole_05s.jpg,0.0,clock_5_5.png,6.0,6,,,,,,,,,,,,,,,,,,0.0,35.0,35.0,35.0,1.0,,,,,,,,,,
,,,,,,,,,1.0,,,6,0.0,0.0,0.982995,,,,,,kilt_18s.jpg,teacup_07s.jpg,,,,,,,,,,,,,0.0,0.0,0.0,0.0,1.0,,,,,
,,,,,,,,,1.0,,,6,0.0,0.0,2.026555,,,,,,lipstick_02s.jpg,fondue_07s.jpg,,,,,,,,,,,,,0.0,1.0,1.0,1.0,1.0,,,,,
,,,,,,,,,0.0,,,6,1.0,0.0,4.667555,,,,,,lantern_04s.jpg,razor_12s.jpg,,,,,,,,,,,,,0.0,2.0,2.0,2.0,1.0,,,,,
,,,,,,,,,0.0,,,6,0.0,1.0,1.138385,,,,,,glasses01a.jpg,mushroom_10n.jpg,,,,,,,,,,,,,0.0,3.0,3.0,3.0,1.0,,,,,
,,,,,,,,,0.0,,,6,1.0,0.0,0.87883,,,,,,polaroid_05s.jpg,flask_04s.jpg,,,,,,,,,,,,,0.0,4.0,4.0,4.0,1.0,,,,,
,,,,,,,,,1.0,,,6,1.0,1.0,1.5502,,,,,,frog_09s.jpg,telephone_pole_05s.jpg,,,,,,,,,,,,,0.0,5.0,5.0,5.0,1.0,,,,,
,,,,,,,,,,,,6,,,,,,,,,,,,,,,,clock_present_1_8.xlsx,clock_compare_task_1_8.xlsx,,,,,,,,,,,0.0,0.0,0.0,0.0,1.0
0.0,1.0,1.02588,,,,,,spatula04.jpg,0.0,clock_5_1.png,1.0,6,,,,,,,,,,,,,,,,,,0.0,0.0,0.0,0.0,1.0,,,,,,,,,,
0.0,1.0,0.625935,,,,,,cardinal_07s.jpg,0.0,clock_5_2.png,1.0,6,,,,,,,,,,,,,,,,,,0.0,1.0,1.0,1.0,1.0,,,,,,,,,,
1.0,1.0,0.72118,,,,,,spatula04.jpg,1.0,clock_5_3.png,1.0,6,,,,,,,,,,,,,,,,,,0.0,2.0,2.0,2.0,1.0,,,,,,,,,,
0.0,1.0,0.734595,,,,,,fossil_06s.jpg,0.0,clock_5_4.png,1.0,6,,,,,,,,,,,,,,,,,,0.0,3.0,3.0,3.0,1.0,,,,,,,,,,
0.0,1.0,1.421215,,,,,,lavender_10s.jpg,0.0,clock_5_5.png,1.0,6,,,,,,,,,,,,,,,,,,0.0,4.0,4.0,4.0,1.0,,,,,,,,,,
0.0,1.0,0.53567,,,,,,dashboard_02s.jpg,0.0,clock_7_1.png,2.0,6,,,,,,,,,,,,,,,,,,0.0,5.0,5.0,5.0,1.0,,,,,,,,,,
1.0,1.0,0.70956,,,,,,dashboard_02s.jpg,1.0,clock_7_2.png,2.0,6,,,,,,,,,,,,,,,,,,0.0,6.0,6.0,6.0,1.0,,,,,,,,,,
0.0,1.0,0.637735,,,,,,rudder_02s.jpg,0.0,clock_7_3.png,2.0,6,,,,,,,,,,,,,,,,,,0.0,7.0,7.0,7.0,1.0,,,,,,,,,,
0.0,1.0,0.79997,,,,,,loveseat_08s.jpg,0.0,clock_7_4.png,2.0,6,,,,,,,,,,,,,,,,,,0.0,8.0,8.0,8.0,1.0,,,,,,,,,,
0.0,1.0,0.56696,,,,,,hydrant_10s.jpg,0.0,clock_7_5.png,2.0,6,,,,,,,,,,,,,,,,,,0.0,9.0,9.0,9.0,1.0,,,,,,,,,,
0.0,1.0,0.73644,,,,,,seagull_01b.jpg,0.0,clock_7_6.png,2.0,6,,,,,,,,,,,,,,,,,,0.0,10.0,10.0,10.0,1.0,,,,,,,,,,
1.0,0.0,0.684275,,,,,,cardinal_07s.jpg,0.0,clock_7_7.png,2.0,6,,,,,,,,,,,,,,,,,,0.0,11.0,11.0,11.0,1.0,,,,,,,,,,
0.0,1.0,0.45802,,,,,,bottle_opener_11s.jpg,0.0,clock_5_1.png,3.0,6,,,,,,,,,,,,,,,,,,0.0,12.0,12.0,12.0,1.0,,,,,,,,,,
0.0,1.0,0.479875,,,,,,mirror_12s.jpg,0.0,clock_5_2.png,3.0,6,,,,,,,,,,,,,,,,,,0.0,13.0,13.0,13.0,1.0,,,,,,,,,,
0.0,1.0,0.63043,,,,,,candy_cane_06s.jpg,0.0,clock_5_3.png,3.0,6,,,,,,,,,,,,,,,,,,0.0,14.0,14.0,14.0,1.0,,,,,,,,,,
0.0,1.0,0.72021,,,,,,aluminum_foil_08s.jpg,0.0,clock_5_4.png,3.0,6,,,,,,,,,,,,,,,,,,0.0,15.0,15.0,15.0,1.0,,,,,,,,,,
0.0,1.0,0.745495,,,,,,latte_06s.jpg,0.0,clock_5_5.png,3.0,6,,,,,,,,,,,,,,,,,,0.0,16.0,16.0,16.0,1.0,,,,,,,,,,
0.0,1.0,0.973065,,,,,,sledgehammer_03s.jpg,0.0,clock_6_1.png,4.0,6,,,,,,,,,,,,,,,,,,0.0,17.0,17.0,17.0,1.0,,,,,,,,,,
1.0,1.0,1.721635,,,,,,sledgehammer_03s.jpg,1.0,clock_6_2.png,4.0,6,,,,,,,,,,,,,,,,,,0.0,18.0,18.0,18.0,1.0,,,,,,,,,,
0.0,1.0,0.700665,,,,,,rosary_03s.jpg,0.0,clock_6_3.png,4.0,6,,,,,,,,,,,,,,,,,,0.0,19.0,19.0,19.0,1.0,,,,,,,,,,
0.0,1.0,0.67616,,,,,,crossbow_10s.jpg,0.0,clock_6_4.png,4.0,6,,,,,,,,,,,,,,,,,,0.0,20.0,20.0,20.0,1.0,,,,,,,,,,
1.0,1.0,0.70585,,,,,,rosary_03s.jpg,1.0,clock_6_5.png,4.0,6,,,,,,,,,,,,,,,,,,0.0,21.0,21.0,21.0,1.0,,,,,,,,,,
1.0,1.0,0.69152,,,,,,sledgehammer_03s.jpg,1.0,clock_6_6.png,4.0,6,,,,,,,,,,,,,,,,,,0.0,22.0,22.0,22.0,1.0,,,,,,,,,,
0.0,1.0,0.87388,,,,,,ticktacktoe_08s.jpg,0.0,clock_7_1.png,5.0,6,,,,,,,,,,,,,,,,,,0.0,23.0,23.0,23.0,1.0,,,,,,,,,,
0.0,1.0,0.57863,,,,,,swimming_pool_17s.jpg,0.0,clock_7_2.png,5.0,6,,,,,,,,,,,,,,,,,,0.0,24.0,24.0,24.0,1.0,,,,,,,,,,
1.0,1.0,0.8007,,,,,,swimming_pool_17s.jpg,1.0,clock_7_3.png,5.0,6,,,,,,,,,,,,,,,,,,0.0,25.0,25.0,25.0,1.0,,,,,,,,,,
0.0,1.0,0.78087,,,,,,bagel_15s.jpg,0.0,clock_7_4.png,5.0,6,,,,,,,,,,,,,,,,,,0.0,26.0,26.0,26.0,1.0,,,,,,,,,,
0.0,1.0,0.580645,,,,,,rosary_03s.jpg,0.0,clock_7_5.png,5.0,6,,,,,,,,,,,,,,,,,,0.0,27.0,27.0,27.0,1.0,,,,,,,,,,
0.0,1.0,0.66027,,,,,,lavender_10s.jpg,0.0,clock_7_6.png,5.0,6,,,,,,,,,,,,,,,,,,0.0,28.0,28.0,28.0,1.0,,,,,,,,,,
0.0,1.0,0.756205,,,,,,bean_06s.jpg,0.0,clock_7_7.png,5.0,6,,,,,,,,,,,,,,,,,,0.0,29.0,29.0,29.0,1.0,,,,,,,,,,
0.0,1.0,1.802125,,,,,,radiator_05s.jpg,0.0,clock_6_1.png,6.0,6,,,,,,,,,,,,,,,,,,0.0,30.0,30.0,30.0,1.0,,,,,,,,,,
0.0,1.0,0.636715,,,,,,ladle_04s.jpg,0.0,clock_6_2.png,6.0,6,,,,,,,,,,,,,,,,,,0.0,31.0,31.0,31.0,1.0,,,,,,,,,,
0.0,1.0,0.51762,,,,,,beaker_01b.jpg,0.0,clock_6_3.png,6.0,6,,,,,,,,,,,,,,,,,,0.0,32.0,32.0,32.0,1.0,,,,,,,,,,
0.0,1.0,0.500965,,,,,,sundae_08s.jpg,0.0,clock_6_4.png,6.0,6,,,,,,,,,,,,,,,,,,0.0,33.0,33.0,33.0,1.0,,,,,,,,,,
0.0,1.0,0.61705,,,,,,frame_06s.jpg,0.0,clock_6_5.png,6.0,6,,,,,,,,,,,,,,,,,,0.0,34.0,34.0,34.0,1.0,,,,,,,,,,
0.0,1.0,0.78458,,,,,,coat_rack_01b.jpg,0.0,clock_6_6.png,6.0,6,,,,,,,,,,,,,,,,,,0.0,35.0,35.0,35.0,1.0,,,,,,,,,,
,,,,,,,,,1.0,,,6,0.0,0.0,1.023245,,,,,,hydrant_10s.jpg,bottle_opener_11s.jpg,,,,,,,,,,,,,0.0,0.0,0.0,0.0,1.0,,,,,
,,,,,,,,,0.0,,,6,0.0,1.0,0.75494,,,,,,ticktacktoe_08s.jpg,crossbow_10s.jpg,,,,,,,,,,,,,0.0,1.0,1.0,1.0,1.0,,,,,
,,,,,,,,,1.0,,,6,1.0,1.0,0.58155,,,,,,seagull_01b.jpg,mirror_12s.jpg,,,,,,,,,,,,,0.0,2.0,2.0,2.0,1.0,,,,,
,,,,,,,,,0.0,,,6,1.0,0.0,0.635595,,,,,,sundae_08s.jpg,radiator_05s.jpg,,,,,,,,,,,,,0.0,3.0,3.0,3.0,1.0,,,,,
,,,,,,,,,0.0,,,6,0.0,1.0,0.839975,,,,,,frame_06s.jpg,ladle_04s.jpg,,,,,,,,,,,,,0.0,4.0,4.0,4.0,1.0,,,,,
,,,,,,,,,0.0,,,6,1.0,0.0,1.02645,,,,,,bean_06s.jpg,bagel_15s.jpg,,,,,,,,,,,,,0.0,5.0,5.0,5.0,1.0,,,,,
,,,,,,,,,,,,6,,,,,,,,,,,,,,,,clock_present_2_8.xlsx,clock_compare_task_2_8.xlsx,,,,,,,,,,,0.0,1.0,1.0,1.0,1.0
0.0,1.0,0.74956,,,,,,blender_08s.jpg,0.0,clock_7_1.png,1.0,6,,,,,,,,,,,,,,,,,,0.0,0.0,0.0,0.0,1.0,,,,,,,,,,
0.0,1.0,0.40726,,,,,,knot_01b.jpg,0.0,clock_7_2.png,1.0,6,,,,,,,,,,,,,,,,,,0.0,1.0,1.0,1.0,1.0,,,,,,,,,,
1.0,1.0,0.709885,,,,,,blender_08s.jpg,1.0,clock_7_3.png,1.0,6,,,,,,,,,,,,,,,,,,0.0,2.0,2.0,2.0,1.0,,,,,,,,,,
1.0,1.0,1.29463,,,,,,blender_08s.jpg,1.0,clock_7_4.png,1.0,6,,,,,,,,,,,,,,,,,,0.0,3.0,3.0,3.0,1.0,,,,,,,,,,
0.0,1.0,0.663265,,,,,,joystick_01b.jpg,0.0,clock_7_5.png,1.0,6,,,,,,,,,,,,,,,,,,0.0,4.0,4.0,4.0,1.0,,,,,,,,,,
0.0,1.0,0.525665,,,,,,tuxedo_01b.jpg,0.0,clock_7_6.png,1.0,6,,,,,,,,,,,,,,,,,,0.0,5.0,5.0,5.0,1.0,,,,,,,,,,
0.0,1.0,0.614195,,,,,,lid_10s.jpg,0.0,clock_7_7.png,1.0,6,,,,,,,,,,,,,,,,,,0.0,6.0,6.0,6.0,1.0,,,,,,,,,,
0.0,1.0,1.654865,,,,,,bubble_01b.jpg,0.0,clock_5_1.png,2.0,6,,,,,,,,,,,,,,,,,,0.0,7.0,7.0,7.0,1.0,,,,,,,,,,
0.0,1.0,0.613315,,,,,,stopwatch_04s.jpg,0.0,clock_5_2.png,2.0,6,,,,,,,,,,,,,,,,,,0.0,8.0,8.0,8.0,1.0,,,,,,,,,,
0.0,1.0,0.733855,,,,,,mud_13s.jpg,0.0,clock_5_3.png,2.0,6,,,,,,,,,,,,,,,,,,0.0,9.0,9.0,9.0,1.0,,,,,,,,,,
1.0,0.0,1.88024,,,,,,joystick_01b.jpg,0.0,clock_5_4.png,2.0,6,,,,,,,,,,,,,,,,,,0.0,10.0,10.0,10.0,1.0,,,,,,,,,,
0.0,1.0,1.10088,,,,,,printer_09s.jpg,0.0,clock_5_5.png,2.0,6,,,,,,,,,,,,,,,,,,0.0,11.0,11.0,11.0,1.0,,,,,,,,,,
0.0,1.0,0.871875,,,,,,totem_pole_05s.jpg,0.0,clock_7_1.png,3.0,6,,,,,,,,,,,,,,,,,,0.0,12.0,12.0,12.0,1.0,,,,,,,,,,
0.0,1.0,0.62876,,,,,,eiffeltower.jpg,0.0,clock_7_2.png,3.0,6,,,,,,,,,,,,,,,,,,0.0,13.0,13.0,13.0,1.0,,,,,,,,,,
0.0,1.0,0.641385,,,,,,bathtub_23s.jpg,0.0,clock_7_3.png,3.0,6,,,,,,,,,,,,,,,,,,0.0,14.0,14.0,14.0,1.0,,,,,,,,,,
1.0,1.0,1.74245,,,,,,eiffeltower.jpg,1.0,clock_7_4.png,3.0,6,,,,,,,,,,,,,,,,,,0.0,15.0,15.0,15.0,1.0,,,,,,,,,,
1.0,1.0,1.671705,,,,,,totem_pole_05s.jpg,1.0,clock_7_5.png,3.0,6,,,,,,,,,,,,,,,,,,0.0,16.0,16.0,16.0,1.0,,,,,,,,,,
0.0,1.0,2.46472,,,,,,jetski_10s.jpg,0.0,clock_7_6.png,3.0,6,,,,,,,,,,,,,,,,,,0.0,17.0,17.0,17.0,1.0,,,,,,,,,,
0.0,1.0,1.090815,,,,,,pillbox_04s.jpg,0.0,clock_7_7.png,3.0,6,,,,,,,,,,,,,,,,,,0.0,18.0,18.0,18.0,1.0,,,,,,,,,,
0.0,1.0,0.70936,,,,,,coconut_08s.jpg,0.0,clock_6_1.png,4.0,6,,,,,,,,,,,,,,,,,,0.0,19.0,19.0,19.0,1.0,,,,,,,,,,
0.0,1.0,1.43837,,,,,,lid_10s.jpg,0.0,clock_6_2.png,4.0,6,,,,,,,,,,,,,,,,,,0.0,20.0,20.0,20.0,1.0,,,,,,,,,,
0.0,1.0,0.920145,,,,,,inhaler_01b.jpg,0.0,clock_6_3.png,4.0,6,,,,,,,,,,,,,,,,,,0.0,21.0,21.0,21.0,1.0,,,,,,,,,,
0.0,1.0,1.00931,,,,,,printer_09s.jpg,0.0,clock_6_4.png,4.0,6,,,,,,,,,,,,,,,,,,0.0,22.0,22.0,22.0,1.0,,,,,,,,,,
0.0,1.0,0.635075,,,,,,trampoline_13s.jpg,0.0,clock_6_5.png,4.0,6,,,,,,,,,,,,,,,,,,0.0,23.0,23.0,23.0,1.0,,,,,,,,,,
0.0,1.0,0.749515,,,,,,crab_16s.jpg,0.0,clock_6_6.png,4.0,6,,,,,,,,,,,,,,,,,,0.0,24.0,24.0,24.0,1.0,,,,,,,,,,
0.0,1.0,1.452875,,,,,,thread_08s.jpg,0.0,clock_5_1.png,5.0,6,,,,,,,,,,,,,,,,,,0.0,25.0,25.0,25.0,1.0,,,,,,,,,,
0.0,1.0,0.5084,,,,,,trampoline_13s.jpg,0.0,clock_5_2.png,5.0,6,,,,,,,,,,,,,,,,,,0.0,26.0,26.0,26.0,1.0,,,,,,,,,,
0.0,1.0,0.817825,,,,,,jetski_10s.jpg,0.0,clock_5_3.png,5.0,6,,,,,,,,,,,,,,,,,,0.0,27.0,27.0,27.0,1.0,,,,,,,,,,
0.0,1.0,0.58799,,,,,,turnstile_08s.jpg,0.0,clock_5_4.png,5.0,6,,,,,,,,,,,,,,,,,,0.0,28.0,28.0,28.0,1.0,,,,,,,,,,
0.0,1.0,0.653285,,,,,,bonsai_07s.jpg,0.0,clock_5_5.png,5.0,6,,,,,,,,,,,,,,,,,,0.0,29.0,29.0,29.0,1.0,,,,,,,,,,
0.0,1.0,0.64836,,,,,,surfboard_11s.jpg,0.0,clock_6_1.png,6.0,6,,,,,,,,,,,,,,,,,,0.0,30.0,30.0,30.0,1.0,,,,,,,,,,
0.0,1.0,0.61453,,,,,,touchpad_11s.jpg,0.0,clock_6_2.png,6.0,6,,,,,,,,,,,,,,,,,,0.0,31.0,31.0,31.0,1.0,,,,,,,,,,
0.0,1.0,0.59817,,,,,,tab_09s.jpg,0.0,clock_6_3.png,6.0,6,,,,,,,,,,,,,,,,,,0.0,32.0,32.0,32.0,1.0,,,,,,,,,,
0.0,1.0,0.51674,,,,,,tambourine_06s.jpg,0.0,clock_6_4.png,6.0,6,,,,,,,,,,,,,,,,,,0.0,33.0,33.0,33.0,1.0,,,,,,,,,,
0.0,1.0,1.28051,,,,,,tube_top_03s.jpg,0.0,clock_6_5.png,6.0,6,,,,,,,,,,,,,,,,,,0.0,34.0,34.0,34.0,1.0,,,,,,,,,,
0.0,1.0,0.737535,,,,,,mud_13s.jpg,0.0,clock_6_6.png,6.0,6,,,,,,,,,,,,,,,,,,0.0,35.0,35.0,35.0,1.0,,,,,,,,,,
,,,,,,,,,1.0,,,6,0.0,0.0,1.280305,,,,,,tuxedo_01b.jpg,stopwatch_04s.jpg,,,,,,,,,,,,,0.0,0.0,0.0,0.0,1.0,,,,,
,,,,,,,,,0.0,,,6,0.0,1.0,1.15795,,,,,,tab_09s.jpg,bonsai_07s.jpg,,,,,,,,,,,,,0.0,1.0,1.0,1.0,1.0,,,,,
,,,,,,,,,0.0,,,6,1.0,0.0,1.24117,,,,,,inhaler_01b.jpg,pillbox_04s.jpg,,,,,,,,,,,,,0.0,2.0,2.0,2.0,1.0,,,,,
,,,,,,,,,1.0,,,6,0.0,0.0,1.090555,,,,,,surfboard_11s.jpg,tambourine_06s.jpg,,,,,,,,,,,,,0.0,3.0,3.0,3.0,1.0,,,,,
,,,,,,,,,0.0,,,6,1.0,0.0,0.98225,,,,,,turnstile_08s.jpg,thread_08s.jpg,,,,,,,,,,,,,0.0,4.0,4.0,4.0,1.0,,,,,
,,,,,,,,,0.0,,,6,0.0,1.0,0.977255,,,,,,tube_top_03s.jpg,touchpad_11s.jpg,,,,,,,,,,,,,0.0,5.0,5.0,5.0,1.0,,,,,
,,,,,,,,,,,,6,,,,,,,,,,,,,,,,clock_present_3_8.xlsx,clock_compare_task_3_8.xlsx,,,,,,,,,,,0.0,2.0,2.0,2.0,1.0
0.0,1.0,0.55593,,,,,,rug_09s.jpg,0.0,clock_5_1.png,1.0,6,,,,,,,,,,,,,,,,,,0.0,0.0,0.0,0.0,1.0,,,,,,,,,,
1.0,1.0,0.712585,,,,,,rug_09s.jpg,1.0,clock_5_2.png,1.0,6,,,,,,,,,,,,,,,,,,0.0,1.0,1.0,1.0,1.0,,,,,,,,,,
0.0,1.0,0.457935,,,,,,pear_02s.jpg,0.0,clock_5_3.png,1.0,6,,,,,,,,,,,,,,,,,,0.0,2.0,2.0,2.0,1.0,,,,,,,,,,
1.0,1.0,0.5325,,,,,,rug_09s.jpg,1.0,clock_5_4.png,1.0,6,,,,,,,,,,,,,,,,,,0.0,3.0,3.0,3.0,1.0,,,,,,,,,,
0.0,1.0,0.63057,,,,,,lasagna_06s.jpg,0.0,clock_5_5.png,1.0,6,,,,,,,,,,,,,,,,,,0.0,4.0,4.0,4.0,1.0,,,,,,,,,,
0.0,1.0,0.32528,,,,,,crayon_09s.jpg,0.0,clock_6_1.png,2.0,6,,,,,,,,,,,,,,,,,,0.0,5.0,5.0,5.0,1.0,,,,,,,,,,
0.0,1.0,0.49836,,,,,,puppet_01b.jpg,0.0,clock_6_2.png,2.0,6,,,,,,,,,,,,,,,,,,0.0,6.0,6.0,6.0,1.0,,,,,,,,,,
0.0,1.0,0.48664,,,,,,clover_04s.jpg,0.0,clock_6_3.png,2.0,6,,,,,,,,,,,,,,,,,,0.0,7.0,7.0,7.0,1.0,,,,,,,,,,
0.0,1.0,0.544995,,,,,,eyedropper_12s.jpg,0.0,clock_6_4.png,2.0,6,,,,,,,,,,,,,,,,,,0.0,8.0,8.0,8.0,1.0,,,,,,,,,,
0.0,1.0,0.700195,,,,,,compass_10n.jpg,0.0,clock_6_5.png,2.0,6,,,,,,,,,,,,,,,,,,0.0,9.0,9.0,9.0,1.0,,,,,,,,,,
0.0,1.0,0.64262,,,,,,beard_16s.jpg,0.0,clock_6_6.png,2.0,6,,,,,,,,,,,,,,,,,,0.0,10.0,10.0,10.0,1.0,,,,,,,,,,
0.0,1.0,0.60469,,,,,,paintbrush_04s.jpg,0.0,clock_7_1.png,3.0,6,,,,,,,,,,,,,,,,,,0.0,11.0,11.0,11.0,1.0,,,,,,,,,,
0.0,1.0,0.519395,,,,,,typewriter_11s.jpg,0.0,clock_7_2.png,3.0,6,,,,,,,,,,,,,,,,,,0.0,12.0,12.0,12.0,1.0,,,,,,,,,,
0.0,1.0,0.43777,,,,,,peach_04s.jpg,0.0,clock_7_3.png,3.0,6,,,,,,,,,,,,,,,,,,0.0,13.0,13.0,13.0,1.0,,,,,,,,,,
0.0,1.0,0.46808,,,,,,punch1_10s.jpg,0.0,clock_7_4.png,3.0,6,,,,,,,,,,,,,,,,,,0.0,14.0,14.0,14.0,1.0,,,,,,,,,,
0.0,1.0,0.57835,,,,,,glue_01s.jpg,0.0,clock_7_5.png,3.0,6,,,,,,,,,,,,,,,,,,0.0,15.0,15.0,15.0,1.0,,,,,,,,,,
0.0,1.0,0.59889,,,,,,magnet_03s.jpg,0.0,clock_7_6.png,3.0,6,,,,,,,,,,,,,,,,,,0.0,16.0,16.0,16.0,1.0,,,,,,,,,,
0.0,1.0,2.13814,,,,,,fur_coat_11s.jpg,0.0,clock_7_7.png,3.0,6,,,,,,,,,,,,,,,,,,0.0,17.0,17.0,17.0,1.0,,,,,,,,,,
0.0,1.0,0.74862,,,,,,marker_05s.jpg,0.0,clock_7_1.png,4.0,6,,,,,,,,,,,,,,,,,,0.0,18.0,18.0,18.0,1.0,,,,,,,,,,
1.0,1.0,1.763785,,,,,,marker_05s.jpg,1.0,clock_7_2.png,4.0,6,,,,,,,,,,,,,,,,,,0.0,19.0,19.0,19.0,1.0,,,,,,,,,,
0.0,1.0,0.805485,,,,,,rug_09s.jpg,0.0,clock_7_3.png,4.0,6,,,,,,,,,,,,,,,,,,0.0,20.0,20.0,20.0,1.0,,,,,,,,,,
0.0,1.0,0.56395,,,,,,abacus_12s.jpg,0.0,clock_7_4.png,4.0,6,,,,,,,,,,,,,,,,,,0.0,21.0,21.0,21.0,1.0,,,,,,,,,,
0.0,1.0,0.460435,,,,,,toy_04s.jpg,0.0,clock_7_5.png,4.0,6,,,,,,,,,,,,,,,,,,0.0,22.0,22.0,22.0,1.0,,,,,,,,,,
0.0,1.0,0.575595,,,,,,air_pump_05s.jpg,0.0,clock_7_6.png,4.0,6,,,,,,,,,,,,,,,,,,0.0,23.0,23.0,23.0,1.0,,,,,,,,,,
0.0,1.0,0.881425,,,,,,rhubarb_03s.jpg,0.0,clock_7_7.png,4.0,6,,,,,,,,,,,,,,,,,,0.0,24.0,24.0,24.0,1.0,,,,,,,,,,
0.0,1.0,0.502235,,,,,,boar_10s.jpg,0.0,clock_6_1.png,5.0,6,,,,,,,,,,,,,,,,,,0.0,25.0,25.0,25.0,1.0,,,,,,,,,,
0.0,1.0,0.781395,,,,,,abacus_12s.jpg,0.0,clock_6_2.png,5.0,6,,,,,,,,,,,,,,,,,,0.0,26.0,26.0,26.0,1.0,,,,,,,,,,
0.0,1.0,0.638695,,,,,,potpourri_03s.jpg,0.0,clock_6_3.png,5.0,6,,,,,,,,,,,,,,,,,,0.0,27.0,27.0,27.0,1.0,,,,,,,,,,
0.0,1.0,0.503755,,,,,,typewriter_11s.jpg,0.0,clock_6_4.png,5.0,6,,,,,,,,,,,,,,,,,,0.0,28.0,28.0,28.0,1.0,,,,,,,,,,
0.0,1.0,0.460165,,,,,,pea_11s.jpg,0.0,clock_6_5.png,5.0,6,,,,,,,,,,,,,,,,,,0.0,29.0,29.0,29.0,1.0,,,,,,,,,,
0.0,1.0,0.48567,,,,,,polar_bear_02s.jpg,0.0,clock_6_6.png,5.0,6,,,,,,,,,,,,,,,,,,0.0,30.0,30.0,30.0,1.0,,,,,,,,,,
0.0,1.0,0.589505,,,,,,laundry_basket_11s.jpg,0.0,clock_5_1.png,6.0,6,,,,,,,,,,,,,,,,,,0.0,31.0,31.0,31.0,1.0,,,,,,,,,,
0.0,1.0,0.518315,,,,,,chopsticks_08s.jpg,0.0,clock_5_2.png,6.0,6,,,,,,,,,,,,,,,,,,0.0,32.0,32.0,32.0,1.0,,,,,,,,,,
1.0,1.0,1.440715,,,,,,chopsticks_08s.jpg,1.0,clock_5_3.png,6.0,6,,,,,,,,,,,,,,,,,,0.0,33.0,33.0,33.0,1.0,,,,,,,,,,
0.0,1.0,0.903495,,,,,,safety_pin_02s.jpg,0.0,clock_5_4.png,6.0,6,,,,,,,,,,,,,,,,,,0.0,34.0,34.0,34.0,1.0,,,,,,,,,,
0.0,1.0,0.61691,,,,,,cobra_05s.jpg,0.0,clock_5_5.png,6.0,6,,,,,,,,,,,,,,,,,,0.0,35.0,35.0,35.0,1.0,,,,,,,,,,
,,,,,,,,,0.0,,,6,1.0,0.0,1.265305,,,,,,boar_10s.jpg,toy_04s.jpg,,,,,,,,,,,,,0.0,0.0,0.0,0.0,1.0,,,,,
,,,,,,,,,0.0,,,6,0.0,1.0,1.221215,,,,,,crayon_09s.jpg,pear_02s.jpg,,,,,,,,,,,,,0.0,1.0,1.0,1.0,1.0,,,,,
,,,,,,,,,1.0,,,6,1.0,1.0,1.22473,,,,,,lasagna_06s.jpg,clover_04s.jpg,,,,,,,,,,,,,0.0,2.0,2.0,2.0,1.0,,,,,
,,,,,,,,,1.0,,,6,1.0,1.0,1.145455,,,,,,puppet_01b.jpg,compass_10n.jpg,,,,,,,,,,,,,0.0,3.0,3.0,3.0,1.0,,,,,
,,,,,,,,,0.0,,,6,0.0,1.0,0.611445,,,,,,fur_coat_11s.jpg,punch1_10s.jpg,,,,,,,,,,,,,0.0,4.0,4.0,4.0,1.0,,,,,
,,,,,,,,,1.0,,,6,0.0,0.0,0.72225,,,,,,laundry_basket_11s.jpg,safety_pin_02s.jpg,,,,,,,,,,,,,0.0,5.0,5.0,5.0,1.0,,,,,
,,,,,,,,,,,,6,,,,,,,,,,,,,,,,clock_present_4_8.xlsx,clock_compare_task_4_8.xlsx,,,,,,,,,,,0.0,3.0,3.0,3.0,1.0
0.0,1.0,0.567545,,,,,,projector_08s.jpg,0.0,clock_5_1.png,1.0,6,,,,,,,,,,,,,,,,,,0.0,0.0,0.0,0.0,1.0,,,,,,,,,,
0.0,1.0,0.653095,,,,,,gingerbread_man_03s.jpg,0.0,clock_5_2.png,1.0,6,,,,,,,,,,,,,,,,,,0.0,1.0,1.0,1.0,1.0,,,,,,,,,,
1.0,1.0,1.05205,,,,,,gingerbread_man_03s.jpg,1.0,clock_5_3.png,1.0,6,,,,,,,,,,,,,,,,,,0.0,2.0,2.0,2.0,1.0,,,,,,,,,,
0.0,0.0,0.740225,,,,,,projector_08s.jpg,1.0,clock_5_4.png,1.0,6,,,,,,,,,,,,,,,,,,0.0,3.0,3.0,3.0,1.0,,,,,,,,,,
1.0,1.0,0.54971,,,,,,projector_08s.jpg,1.0,clock_5_5.png,1.0,6,,,,,,,,,,,,,,,,,,0.0,4.0,4.0,4.0,1.0,,,,,,,,,,
0.0,1.0,0.544155,,,,,,sunflower_17s.jpg,0.0,clock_5_1.png,2.0,6,,,,,,,,,,,,,,,,,,0.0,5.0,5.0,5.0,1.0,,,,,,,,,,
0.0,1.0,0.621935,,,,,,gingerbread_man_03s.jpg,0.0,clock_5_2.png,2.0,6,,,,,,,,,,,,,,,,,,0.0,6.0,6.0,6.0,1.0,,,,,,,,,,
0.0,1.0,1.5667,,,,,,puppy_08s.jpg,0.0,clock_5_3.png,2.0,6,,,,,,,,,,,,,,,,,,0.0,7.0,7.0,7.0,1.0,,,,,,,,,,
0.0,1.0,0.846475,,,,,,quill_09s.jpg,0.0,clock_5_4.png,2.0,6,,,,,,,,,,,,,,,,,,0.0,8.0,8.0,8.0,1.0,,,,,,,,,,
0.0,1.0,0.476485,,,,,,mascara_03s.jpg,0.0,clock_5_5.png,2.0,6,,,,,,,,,,,,,,,,,,0.0,9.0,9.0,9.0,1.0,,,,,,,,,,
0.0,1.0,0.516065,,,,,,lifesaver_10s.jpg,0.0,clock_6_1.png,3.0,6,,,,,,,,,,,,,,,,,,0.0,10.0,10.0,10.0,1.0,,,,,,,,,,
0.0,1.0,0.714735,,,,,,lollipop_08s.jpg,0.0,clock_6_2.png,3.0,6,,,,,,,,,,,,,,,,,,0.0,11.0,11.0,11.0,1.0,,,,,,,,,,
0.0,1.0,0.448835,,,,,,stapler_01b.jpg,0.0,clock_6_3.png,3.0,6,,,,,,,,,,,,,,,,,,0.0,12.0,12.0,12.0,1.0,,,,,,,,,,
0.0,1.0,0.382555,,,,,,panda_02s.jpg,0.0,clock_6_4.png,3.0,6,,,,,,,,,,,,,,,,,,0.0,13.0,13.0,13.0,1.0,,,,,,,,,,
0.0,1.0,0.74227,,,,,,puddle_02s.jpg,0.0,clock_6_5.png,3.0,6,,,,,,,,,,,,,,,,,,0.0,14.0,14.0,14.0,1.0,,,,,,,,,,
0.0,0.0,0.834345,,,,,,lifesaver_10s.jpg,1.0,clock_6_6.png,3.0,6,,,,,,,,,,,,,,,,,,0.0,15.0,15.0,15.0,1.0,,,,,,,,,,
0.0,1.0,0.6534,,,,,,key_07s.jpg,0.0,clock_6_1.png,4.0,6,,,,,,,,,,,,,,,,,,0.0,16.0,16.0,16.0,1.0,,,,,,,,,,
0.0,1.0,0.32212,,,,,,toilet_paper_12s.jpg,0.0,clock_6_2.png,4.0,6,,,,,,,,,,,,,,,,,,0.0,17.0,17.0,17.0,1.0,,,,,,,,,,
0.0,1.0,0.41445,,,,,,doily_13s.jpg,0.0,clock_6_3.png,4.0,6,,,,,,,,,,,,,,,,,,0.0,18.0,18.0,18.0,1.0,,,,,,,,,,
0.0,1.0,0.49894,,,,,,ginger_09s.jpg,0.0,clock_6_4.png,4.0,6,,,,,,,,,,,,,,,,,,0.0,19.0,19.0,19.0,1.0,,,,,,,,,,
0.0,1.0,0.80931,,,,,,eggshell_14s.jpg,0.0,clock_6_5.png,4.0,6,,,,,,,,,,,,,,,,,,0.0,20.0,20.0,20.0,1.0,,,,,,,,,,
0.0,1.0,0.6109,,,,,,refrigerator_07s.jpg,0.0,clock_6_6.png,4.0,6,,,,,,,,,,,,,,,,,,0.0,21.0,21.0,21.0,1.0,,,,,,,,,,
0.0,1.0,0.59596,,,,,,oil_02s.jpg,0.0,clock_7_1.png,5.0,6,,,,,,,,,,,,,,,,,,0.0,22.0,22.0,22.0,1.0,,,,,,,,,,
1.0,1.0,0.61908,,,,,,oil_02s.jpg,1.0,clock_7_2.png,5.0,6,,,,,,,,,,,,,,,,,,0.0,23.0,23.0,23.0,1.0,,,,,,,,,,
0.0,1.0,0.537675,,,,,,fox_13s.jpg,0.0,clock_7_3.png,5.0,6,,,,,,,,,,,,,,,,,,0.0,24.0,24.0,24.0,1.0,,,,,,,,,,
0.0,1.0,0.482615,,,,,,seahorse_13s.jpg,0.0,clock_7_4.png,5.0,6,,,,,,,,,,,,,,,,,,0.0,25.0,25.0,25.0,1.0,,,,,,,,,,
0.0,1.0,0.434305,,,,,,triangle_10s.jpg,0.0,clock_7_5.png,5.0,6,,,,,,,,,,,,,,,,,,0.0,26.0,26.0,26.0,1.0,,,,,,,,,,
0.0,1.0,0.730835,,,,,,popcorn_09s.jpg,0.0,clock_7_6.png,5.0,6,,,,,,,,,,,,,,,,,,0.0,27.0,27.0,27.0,1.0,,,,,,,,,,
0.0,0.0,0.635735,,,,,,seahorse_13s.jpg,1.0,clock_7_7.png,5.0,6,,,,,,,,,,,,,,,,,,0.0,28.0,28.0,28.0,1.0,,,,,,,,,,
0.0,1.0,0.61398,,,,,,leash_10s.jpg,0.0,clock_7_1.png,6.0,6,,,,,,,,,,,,,,,,,,0.0,29.0,29.0,29.0,1.0,,,,,,,,,,
1.0,1.0,0.660415,,,,,,leash_10s.jpg,1.0,clock_7_2.png,6.0,6,,,,,,,,,,,,,,,,,,0.0,30.0,30.0,30.0,1.0,,,,,,,,,,
0.0,1.0,0.789065,,,,,,mussel_11s.jpg,0.0,clock_7_3.png,6.0,6,,,,,,,,,,,,,,,,,,0.0,31.0,31.0,31.0,1.0,,,,,,,,,,
0.0,1.0,0.578745,,,,,,tablet_04s.jpg,0.0,clock_7_4.png,6.0,6,,,,,,,,,,,,,,,,,,0.0,32.0,32.0,32.0,1.0,,,,,,,,,,
1.0,1.0,1.10541,,,,,,leash_10s.jpg,1.0,clock_7_5.png,6.0,6,,,,,,,,,,,,,,,,,,0.0,33.0,33.0,33.0,1.0,,,,,,,,,,
1.0,1.0,0.760205,,,,,,mussel_11s.jpg,1.0,clock_7_6.png,6.0,6,,,,,,,,,,,,,,,,,,0.0,34.0,34.0,34.0,1.0,,,,,,,,,,
1.0,1.0,0.74663,,,,,,mussel_11s.jpg,1.0,clock_7_7.png,6.0,6,,,,,,,,,,,,,,,,,,0.0,35.0,35.0,35.0,1.0,,,,,,,,,,
,,,,,,,,,1.0,,,6,0.0,0.0,0.854995,,,,,,mascara_03s.jpg,stapler_01b.jpg,,,,,,,,,,,,,0.0,0.0,0.0,0.0,1.0,,,,,
,,,,,,,,,1.0,,,6,0.0,0.0,0.753765,,,,,,panda_02s.jpg,key_07s.jpg,,,,,,,,,,,,,0.0,1.0,1.0,1.0,1.0,,,,,
,,,,,,,,,1.0,,,6,1.0,1.0,0.52532,,,,,,quill_09s.jpg,lollipop_08s.jpg,,,,,,,,,,,,,0.0,2.0,2.0,2.0,1.0,,,,,
,,,,,,,,,0.0,,,6,0.0,1.0,0.78825,,,,,,eggshell_14s.jpg,toilet_paper_12s.jpg,,,,,,,,,,,,,0.0,3.0,3.0,3.0,1.0,,,,,
,,,,,,,,,0.0,,,6,0.0,1.0,1.02138,,,,,,refrigerator_07s.jpg,doily_13s.jpg,,,,,,,,,,,,,0.0,4.0,4.0,4.0,1.0,,,,,
,,,,,,,,,1.0,,,6,1.0,1.0,0.675405,,,,,,fox_13s.jpg,popcorn_09s.jpg,,,,,,,,,,,,,0.0,5.0,5.0,5.0,1.0,,,,,
,,,,,,,,,,,,6,,,,,,,,,,,,,,,,clock_present_5_8.xlsx,clock_compare_task_5_8.xlsx,,,,,,,,,,,0.0,4.0,4.0,4.0,1.0
0.0,1.0,0.59388,,,,,,turf_03s.jpg,0.0,clock_5_1.png,1.0,6,,,,,,,,,,,,,,,,,,0.0,0.0,0.0,0.0,1.0,,,,,,,,,,
0.0,1.0,0.57307,,,,,,spoon02a.jpg,0.0,clock_5_2.png,1.0,6,,,,,,,,,,,,,,,,,,0.0,1.0,1.0,1.0,1.0,,,,,,,,,,
0.0,1.0,0.5694,,,,,,knitting_needle_04s.jpg,0.0,clock_5_3.png,1.0,6,,,,,,,,,,,,,,,,,,0.0,2.0,2.0,2.0,1.0,,,,,,,,,,
0.0,1.0,0.659205,,,,,,syringe_02s.jpg,0.0,clock_5_4.png,1.0,6,,,,,,,,,,,,,,,,,,0.0,3.0,3.0,3.0,1.0,,,,,,,,,,
0.0,1.0,0.52411,,,,,,ice_pack_09s.jpg,0.0,clock_5_5.png,1.0,6,,,,,,,,,,,,,,,,,,0.0,4.0,4.0,4.0,1.0,,,,,,,,,,
0.0,1.0,0.499075,,,,,,blowfish_03s.jpg,0.0,clock_6_1.png,2.0,6,,,,,,,,,,,,,,,,,,0.0,5.0,5.0,5.0,1.0,,,,,,,,,,
1.0,1.0,1.132745,,,,,,blowfish_03s.jpg,1.0,clock_6_2.png,2.0,6,,,,,,,,,,,,,,,,,,0.0,6.0,6.0,6.0,1.0,,,,,,,,,,
0.0,1.0,0.975195,,,,,,tennis_ball_06s.jpg,0.0,clock_6_3.png,2.0,6,,,,,,,,,,,,,,,,,,0.0,7.0,7.0,7.0,1.0,,,,,,,,,,
0.0,1.0,0.521265,,,,,,tripod_01b.jpg,0.0,clock_6_4.png,2.0,6,,,,,,,,,,,,,,,,,,0.0,8.0,8.0,8.0,1.0,,,,,,,,,,
0.0,1.0,0.51791,,,,,,mannequin_05s.jpg,0.0,clock_6_5.png,2.0,6,,,,,,,,,,,,,,,,,,0.0,9.0,9.0,9.0,1.0,,,,,,,,,,
0.0,1.0,0.571315,,,,,,margarita_03s.jpg,0.0,clock_6_6.png,2.0,6,,,,,,,,,,,,,,,,,,0.0,10.0,10.0,10.0,1.0,,,,,,,,,,
0.0,1.0,0.799515,,,,,,light_switch_02s.jpg,0.0,clock_7_1.png,3.0,6,,,,,,,,,,,,,,,,,,0.0,11.0,11.0,11.0,1.0,,,,,,,,,,
0.0,1.0,0.52526,,,,,,fire_alarm_05s.jpg,0.0,clock_7_2.png,3.0,6,,,,,,,,,,,,,,,,,,0.0,12.0,12.0,12.0,1.0,,,,,,,,,,
0.0,0.0,0.500255,,,,,,fire_alarm_05s.jpg,1.0,clock_7_3.png,3.0,6,,,,,,,,,,,,,,,,,,0.0,13.0,13.0,13.0,1.0,,,,,,,,,,
1.0,1.0,0.886275,,,,,,light_switch_02s.jpg,1.0,clock_7_4.png,3.0,6,,,,,,,,,,,,,,,,,,0.0,14.0,14.0,14.0,1.0,,,,,,,,,,
0.0,1.0,0.69954,,,,,,iron_13s.jpg,0.0,clock_7_5.png,3.0,6,,,,,,,,,,,,,,,,,,0.0,15.0,15.0,15.0,1.0,,,,,,,,,,
0.0,1.0,0.498445,,,,,,slingshot_07s.jpg,0.0,clock_7_6.png,3.0,6,,,,,,,,,,,,,,,,,,0.0,16.0,16.0,16.0,1.0,,,,,,,,,,
0.0,1.0,0.952925,,,,,,plaster_cast_13s.jpg,0.0,clock_7_7.png,3.0,6,,,,,,,,,,,,,,,,,,0.0,17.0,17.0,17.0,1.0,,,,,,,,,,
0.0,1.0,0.90322,,,,,,dynamite_01b.jpg,0.0,clock_6_1.png,4.0,6,,,,,,,,,,,,,,,,,,0.0,18.0,18.0,18.0,1.0,,,,,,,,,,
0.0,1.0,0.70538,,,,,,radio_09s.jpg,0.0,clock_6_2.png,4.0,6,,,,,,,,,,,,,,,,,,0.0,19.0,19.0,19.0,1.0,,,,,,,,,,
0.0,1.0,0.64773,,,,,,gong_02s.jpg,0.0,clock_6_3.png,4.0,6,,,,,,,,,,,,,,,,,,0.0,20.0,20.0,20.0,1.0,,,,,,,,,,
0.0,1.0,1.034955,,,,,,phone_01b.jpg,0.0,clock_6_4.png,4.0,6,,,,,,,,,,,,,,,,,,0.0,21.0,21.0,21.0,1.0,,,,,,,,,,
0.0,1.0,0.623705,,,,,,puck_06s.jpg,0.0,clock_6_5.png,4.0,6,,,,,,,,,,,,,,,,,,0.0,22.0,22.0,22.0,1.0,,,,,,,,,,
0.0,1.0,1.023715,,,,,,fireworks_18s.jpg,0.0,clock_6_6.png,4.0,6,,,,,,,,,,,,,,,,,,0.0,23.0,23.0,23.0,1.0,,,,,,,,,,
0.0,1.0,0.717275,,,,,,kayak_08s.jpg,0.0,clock_5_1.png,5.0,6,,,,,,,,,,,,,,,,,,0.0,24.0,24.0,24.0,1.0,,,,,,,,,,
0.0,1.0,0.623055,,,,,,antenna_01b.jpg,0.0,clock_5_2.png,5.0,6,,,,,,,,,,,,,,,,,,0.0,25.0,25.0,25.0,1.0,,,,,,,,,,
0.0,1.0,0.4981,,,,,,syringe_02s.jpg,0.0,clock_5_3.png,5.0,6,,,,,,,,,,,,,,,,,,0.0,26.0,26.0,26.0,1.0,,,,,,,,,,
0.0,0.0,0.682525,,,,,,antenna_01b.jpg,1.0,clock_5_4.png,5.0,6,,,,,,,,,,,,,,,,,,0.0,27.0,27.0,27.0,1.0,,,,,,,,,,
0.0,1.0,0.632795,,,,,,outlet_10s.jpg,0.0,clock_5_5.png,5.0,6,,,,,,,,,,,,,,,,,,0.0,28.0,28.0,28.0,1.0,,,,,,,,,,
0.0,1.0,0.51863,,,,,,racehorse_03s.jpg,0.0,clock_7_1.png,6.0,6,,,,,,,,,,,,,,,,,,0.0,29.0,29.0,29.0,1.0,,,,,,,,,,
0.0,1.0,1.384585,,,,,,lion_18s.jpg,0.0,clock_7_2.png,6.0,6,,,,,,,,,,,,,,,,,,0.0,30.0,30.0,30.0,1.0,,,,,,,,,,
0.0,1.0,0.67333,,,,,,stingray_02s.jpg,0.0,clock_7_3.png,6.0,6,,,,,,,,,,,,,,,,,,0.0,31.0,31.0,31.0,1.0,,,,,,,,,,
0.0,0.0,1.060705,,,,,,racehorse_03s.jpg,1.0,clock_7_4.png,6.0,6,,,,,,,,,,,,,,,,,,0.0,32.0,32.0,32.0,1.0,,,,,,,,,,
0.0,1.0,0.530295,,,,,,swan_11s.jpg,0.0,clock_7_5.png,6.0,6,,,,,,,,,,,,,,,,,,0.0,33.0,33.0,33.0,1.0,,,,,,,,,,
0.0,1.0,0.60825,,,,,,rabbit_03s.jpg,0.0,clock_7_6.png,6.0,6,,,,,,,,,,,,,,,,,,0.0,34.0,34.0,34.0,1.0,,,,,,,,,,
0.0,1.0,0.88051,,,,,,pocket_watch_16s.jpg,0.0,clock_7_7.png,6.0,6,,,,,,,,,,,,,,,,,,0.0,35.0,35.0,35.0,1.0,,,,,,,,,,
,,,,,,,,,0.0,,,6,0.0,1.0,1.211485,,,,,,dynamite_01b.jpg,iron_13s.jpg,,,,,,,,,,,,,0.0,0.0,0.0,0.0,1.0,,,,,
,,,,,,,,,0.0,,,6,1.0,0.0,0.659205,,,,,,radio_09s.jpg,slingshot_07s.jpg,,,,,,,,,,,,,0.0,1.0,1.0,1.0,1.0,,,,,
,,,,,,,,,1.0,,,6,0.0,0.0,0.849205,,,,,,plaster_cast_13s.jpg,gong_02s.jpg,,,,,,,,,,,,,0.0,2.0,2.0,2.0,1.0,,,,,
,,,,,,,,,0.0,,,6,0.0,1.0,0.69149,,,,,,swan_11s.jpg,lion_18s.jpg,,,,,,,,,,,,,0.0,3.0,3.0,3.0,1.0,,,,,
,,,,,,,,,0.0,,,6,1.0,0.0,0.405625,,,,,,ice_pack_09s.jpg,spoon02a.jpg,,,,,,,,,,,,,0.0,4.0,4.0,4.0,1.0,,,,,
,,,,,,,,,0.0,,,6,0.0,1.0,0.271805,,,,,,margarita_03s.jpg,tennis_ball_06s.jpg,,,,,,,,,,,,,0.0,5.0,5.0,5.0,1.0,,,,,
