key_resp.keys,key_resp.corr,key_resp.rt,present_segment.thisRepN,present_segment.thisTrialN,present_segment.thisN,present_segment.thisIndex,present_segment.ran,pictures,answer,clock,segment,participant,key_resp_2.keys,key_resp_2.corr,key_resp_2.rt,compare_segment.thisRepN,compare_segment.thisTrialN,compare_segment.thisN,compare_segment.thisIndex,compare_segment.ran,item_a,item_b,clock_conditions.thisRepN,clock_conditions.thisTrialN,clock_conditions.thisN,clock_conditions.thisIndex,clock_conditions.ran,present,compare,noclock_present.thisRepN,noclock_present.thisTrialN,noclock_present.thisN,noclock_present.thisIndex,noclock_present.ran,noclock_compare.thisRepN,noclock_compare.thisTrialN,noclock_compare.thisN,noclock_compare.thisIndex,noclock_compare.ran,noclock_conditions.thisRepN,noclock_conditions.thisTrialN,noclock_conditions.thisN,noclock_conditions.thisIndex,noclock_conditions.ran
0.0,1.0,0.63778,0.0,0.0,0.0,0.0,1.0,spider_web_03s.jpg,0.0,clock_7_1.png,1.0,49,,,,,,,,,,,,,,,,,,,,,,,,,,,,,,,,
0.0,1.0,0.73822,0.0,1.0,1.0,1.0,1.0,blender_08s.jpg,0.0,clock_7_2.png,1.0,49,,,,,,,,,,,,,,,,,,,,,,,,,,,,,,,,
0.0,1.0,0.38197,0.0,2.0,2.0,2.0,1.0,taxi_15s.jpg,0.0,clock_7_3.png,1.0,49,,,,,,,,,,,,,,,,,,,,,,,,,,,,,,,,
0.0,1.0,0.62284,0.0,3.0,3.0,3.0,1.0,toaster_03s.jpg,0.0,clock_7_4.png,1.0,49,,,,,,,,,,,,,,,,,,,,,,,,,,,,,,,,
0.0,1.0,0.7535,0.0,4.0,4.0,4.0,1.0,latch_15s.jpg,0.0,clock_7_5.png,1.0,49,,,,,,,,,,,,,,,,,,,,,,,,,,,,,,,,
1.0,1.0,0.735405,0.0,5.0,5.0,5.0,1.0,latch_15s.jpg,1.0,clock_7_6.png,1.0,49,,,,,,,,,,,,,,,,,,,,,,,,,,,,,,,,
0.0,1.0,1.11498,0.0,6.0,6.0,6.0,1.0,rock_08s.jpg,0.0,clock_7_7.png,1.0,49,,,,,,,,,,,,,,,,,,,,,,,,,,,,,,,,
0.0,1.0,0.87398,0.0,7.0,7.0,7.0,1.0,ticktacktoe_08s.jpg,0.0,clock_6_1.png,2.0,49,,,,,,,,,,,,,,,,,,,,,,,,,,,,,,,,
0.0,0.0,1.50336,0.0,8.0,8.0,8.0,1.0,ticktacktoe_08s.jpg,1.0,clock_6_2.png,2.0,49,,,,,,,,,,,,,,,,,,,,,,,,,,,,,,,,
0.0,1.0,0.742075,0.0,9.0,9.0,9.0,1.0,rhinoceros_02s.jpg,0.0,clock_6_3.png,2.0,49,,,,,,,,,,,,,,,,,,,,,,,,,,,,,,,,
1.0,1.0,0.553615,0.0,10.0,10.0,10.0,1.0,rhinoceros_02s.jpg,1.0,clock_6_4.png,2.0,49,,,,,,,,,,,,,,,,,,,,,,,,,,,,,,,,
0.0,1.0,0.8819,0.0,11.0,11.0,11.0,1.0,timer_03s.jpg,0.0,clock_6_5.png,2.0,49,,,,,,,,,,,,,,,,,,,,,,,,,,,,,,,,
0.0,1.0,0.79423,0.0,12.0,12.0,12.0,1.0,lizard_10n.jpg,0.0,clock_6_6.png,2.0,49,,,,,,,,,,,,,,,,,,,,,,,,,,,,,,,,
0.0,1.0,1.117045,0.0,13.0,13.0,13.0,1.0,thorn_13s.jpg,0.0,clock_7_1.png,3.0,49,,,,,,,,,,,,,,,,,,,,,,,,,,,,,,,,
0.0,1.0,0.55092,0.0,14.0,14.0,14.0,1.0,turtle_08s.jpg,0.0,clock_7_2.png,3.0,49,,,,,,,,,,,,,,,,,,,,,,,,,,,,,,,,
0.0,1.0,0.853065,0.0,15.0,15.0,15.0,1.0,kimono_13s.jpg,0.0,clock_7_3.png,3.0,49,,,,,,,,,,,,,,,,,,,,,,,,,,,,,,,,
1.0,1.0,1.152485,0.0,16.0,16.0,16.0,1.0,thorn_13s.jpg,1.0,clock_7_4.png,3.0,49,,,,,,,,,,,,,,,,,,,,,,,,,,,,,,,,
0.0,1.0,1.07916,0.0,17.0,17.0,17.0,1.0,sleeping_bag_12s.jpg,0.0,clock_7_5.png,3.0,49,,,,,,,,,,,,,,,,,,,,,,,,,,,,,,,,
1.0,1.0,1.432965,0.0,18.0,18.0,18.0,1.0,kimono_13s.jpg,1.0,clock_7_6.png,3.0,49,,,,,,,,,,,,,,,,,,,,,,,,,,,,,,,,
0.0,1.0,1.481145,0.0,19.0,19.0,19.0,1.0,ivy_12s.jpg,0.0,clock_7_7.png,3.0,49,,,,,,,,,,,,,,,,,,,,,,,,,,,,,,,,
0.0,1.0,1.29546,0.0,20.0,20.0,20.0,1.0,orangutan_03s.jpg,0.0,clock_5_1.png,4.0,49,,,,,,,,,,,,,,,,,,,,,,,,,,,,,,,,
0.0,1.0,1.08386,0.0,21.0,21.0,21.0,1.0,eiffeltower.jpg,0.0,clock_5_2.png,4.0,49,,,,,,,,,,,,,,,,,,,,,,,,,,,,,,,,
0.0,1.0,1.17031,0.0,22.0,22.0,22.0,1.0,metronome_03s.jpg,0.0,clock_5_3.png,4.0,49,,,,,,,,,,,,,,,,,,,,,,,,,,,,,,,,
0.0,1.0,1.120185,0.0,23.0,23.0,23.0,1.0,totem_pole_05s.jpg,0.0,clock_5_4.png,4.0,49,,,,,,,,,,,,,,,,,,,,,,,,,,,,,,,,
1.0,1.0,1.61521,0.0,24.0,24.0,24.0,1.0,metronome_03s.jpg,1.0,clock_5_5.png,4.0,49,,,,,,,,,,,,,,,,,,,,,,,,,,,,,,,,
0.0,1.0,1.863745,0.0,25.0,25.0,25.0,1.0,peeler_06s.jpg,0.0,clock_5_1.png,5.0,49,,,,,,,,,,,,,,,,,,,,,,,,,,,,,,,,
0.0,1.0,1.044015,0.0,26.0,26.0,26.0,1.0,quill_09s.jpg,0.0,clock_5_2.png,5.0,49,,,,,,,,,,,,,,,,,,,,,,,,,,,,,,,,
0.0,1.0,1.274885,0.0,27.0,27.0,27.0,1.0,toad_09s.jpg,0.0,clock_5_3.png,5.0,49,,,,,,,,,,,,,,,,,,,,,,,,,,,,,,,,
0.0,1.0,0.72206,0.0,28.0,28.0,28.0,1.0,beard_16s.jpg,0.0,clock_5_4.png,5.0,49,,,,,,,,,,,,,,,,,,,,,,,,,,,,,,,,
0.0,1.0,1.05396,0.0,29.0,29.0,29.0,1.0,tube_top_03s.jpg,0.0,clock_5_5.png,5.0,49,,,,,,,,,,,,,,,,,,,,,,,,,,,,,,,,
0.0,1.0,2.04667,0.0,30.0,30.0,30.0,1.0,power_line_08s.jpg,0.0,clock_6_1.png,6.0,49,,,,,,,,,,,,,,,,,,,,,,,,,,,,,,,,
0.0,1.0,0.95877,0.0,31.0,31.0,31.0,1.0,lifesaver_10s.jpg,0.0,clock_6_2.png,6.0,49,,,,,,,,,,,,,,,,,,,,,,,,,,,,,,,,
0.0,1.0,0.902755,0.0,32.0,32.0,32.0,1.0,saddle_06s.jpg,0.0,clock_6_3.png,6.0,49,,,,,,,,,,,,,,,,,,,,,,,,,,,,,,,,
0.0,1.0,0.88553,0.0,33.0,33.0,33.0,1.0,ginger_09s.jpg,0.0,clock_6_4.png,6.0,49,,,,,,,,,,,,,,,,,,,,,,,,,,,,,,,,
0.0,1.0,1.68213,0.0,34.0,34.0,34.0,1.0,orange_12s.jpg,0.0,clock_6_5.png,6.0,49,,,,,,,,,,,,,,,,,,,,,,,,,,,,,,,,
0.0,1.0,1.06165,0.0,35.0,35.0,35.0,1.0,tiara_05s.jpg,0.0,clock_6_6.png,6.0,49,,,,,,,,,,,,,,,,,,,,,,,,,,,,,,,,
,,,,,,,,,0.0,,,49,0.0,1.0,3.03289,0.0,0.0,0.0,0.0,1.0,turtle_08s.jpg,timer_03s.jpg,,,,,,,,,,,,,,,,,,,,,,
,,,,,,,,,0.0,,,49,1.0,0.0,1.692265,0.0,1.0,1.0,1.0,1.0,power_line_08s.jpg,toad_09s.jpg,,,,,,,,,,,,,,,,,,,,,,
,,,,,,,,,1.0,,,49,1.0,1.0,1.07107,0.0,2.0,2.0,2.0,1.0,sleeping_bag_12s.jpg,orangutan_03s.jpg,,,,,,,,,,,,,,,,,,,,,,
,,,,,,,,,1.0,,,49,0.0,0.0,1.6313,0.0,3.0,3.0,3.0,1.0,spider_web_03s.jpg,toaster_03s.jpg,,,,,,,,,,,,,,,,,,,,,,
,,,,,,,,,0.0,,,49,0.0,1.0,1.36228,0.0,4.0,4.0,4.0,1.0,beard_16s.jpg,peeler_06s.jpg,,,,,,,,,,,,,,,,,,,,,,
,,,,,,,,,1.0,,,49,1.0,1.0,1.220525,0.0,5.0,5.0,5.0,1.0,lifesaver_10s.jpg,orange_12s.jpg,,,,,,,,,,,,,,,,,,,,,,
,,,,,,,,,,,,49,,,,,,,,,,,0.0,0.0,0.0,0.0,1.0,clock_present_1_10.xlsx,clock_compare_task_1_10.xlsx,,,,,,,,,,,,,,,
0.0,1.0,0.719865,0.0,0.0,0.0,0.0,1.0,giraffe_11s.jpg,0.0,clock_6_1.png,1.0,49,,,,,,,,,,,,,,,,,,,,,,,,,,,,,,,,
0.0,1.0,0.64486,0.0,1.0,1.0,1.0,1.0,fishhook_06s.jpg,0.0,clock_6_2.png,1.0,49,,,,,,,,,,,,,,,,,,,,,,,,,,,,,,,,
0.0,1.0,0.440075,0.0,2.0,2.0,2.0,1.0,tiger_06s.jpg,0.0,clock_6_3.png,1.0,49,,,,,,,,,,,,,,,,,,,,,,,,,,,,,,,,
0.0,1.0,0.446085,0.0,3.0,3.0,3.0,1.0,fossil_06s.jpg,0.0,clock_6_4.png,1.0,49,,,,,,,,,,,,,,,,,,,,,,,,,,,,,,,,
0.0,1.0,0.51495,0.0,4.0,4.0,4.0,1.0,scooter.jpg,0.0,clock_6_5.png,1.0,49,,,,,,,,,,,,,,,,,,,,,,,,,,,,,,,,
0.0,0.0,0.73875,0.0,5.0,5.0,5.0,1.0,tiger_06s.jpg,1.0,clock_6_6.png,1.0,49,,,,,,,,,,,,,,,,,,,,,,,,,,,,,,,,
0.0,1.0,0.38237,0.0,6.0,6.0,6.0,1.0,mannequin_05s.jpg,0.0,clock_5_1.png,2.0,49,,,,,,,,,,,,,,,,,,,,,,,,,,,,,,,,
0.0,1.0,0.633515,0.0,7.0,7.0,7.0,1.0,air_pump_05s.jpg,0.0,clock_5_2.png,2.0,49,,,,,,,,,,,,,,,,,,,,,,,,,,,,,,,,
0.0,1.0,0.396585,0.0,8.0,8.0,8.0,1.0,cushion_08s.jpg,0.0,clock_5_3.png,2.0,49,,,,,,,,,,,,,,,,,,,,,,,,,,,,,,,,
0.0,1.0,0.38059,0.0,9.0,9.0,9.0,1.0,crossbow_10s.jpg,0.0,clock_5_4.png,2.0,49,,,,,,,,,,,,,,,,,,,,,,,,,,,,,,,,
1.0,1.0,0.92687,0.0,10.0,10.0,10.0,1.0,cushion_08s.jpg,1.0,clock_5_5.png,2.0,49,,,,,,,,,,,,,,,,,,,,,,,,,,,,,,,,
0.0,1.0,0.38813,0.0,11.0,11.0,11.0,1.0,thread_08s.jpg,0.0,clock_5_1.png,3.0,49,,,,,,,,,,,,,,,,,,,,,,,,,,,,,,,,
1.0,1.0,1.240985,0.0,12.0,12.0,12.0,1.0,thread_08s.jpg,1.0,clock_5_2.png,3.0,49,,,,,,,,,,,,,,,,,,,,,,,,,,,,,,,,
0.0,1.0,0.322415,0.0,13.0,13.0,13.0,1.0,tiger_06s.jpg,0.0,clock_5_3.png,3.0,49,,,,,,,,,,,,,,,,,,,,,,,,,,,,,,,,
1.0,1.0,0.46489,0.0,14.0,14.0,14.0,1.0,thread_08s.jpg,1.0,clock_5_4.png,3.0,49,,,,,,,,,,,,,,,,,,,,,,,,,,,,,,,,
0.0,1.0,0.44166,0.0,15.0,15.0,15.0,1.0,tab_09s.jpg,0.0,clock_5_5.png,3.0,49,,,,,,,,,,,,,,,,,,,,,,,,,,,,,,,,
0.0,1.0,0.568145,0.0,16.0,16.0,16.0,1.0,ladle_04s.jpg,0.0,clock_7_1.png,4.0,49,,,,,,,,,,,,,,,,,,,,,,,,,,,,,,,,
0.0,1.0,0.564505,0.0,17.0,17.0,17.0,1.0,ice-cream_cone_06s.jpg,0.0,clock_7_2.png,4.0,49,,,,,,,,,,,,,,,,,,,,,,,,,,,,,,,,
0.0,1.0,0.750255,0.0,18.0,18.0,18.0,1.0,thermostat_02s.jpg,0.0,clock_7_3.png,4.0,49,,,,,,,,,,,,,,,,,,,,,,,,,,,,,,,,
0.0,0.0,0.64704,0.0,19.0,19.0,19.0,1.0,thermostat_02s.jpg,1.0,clock_7_4.png,4.0,49,,,,,,,,,,,,,,,,,,,,,,,,,,,,,,,,
0.0,1.0,0.372835,0.0,20.0,20.0,20.0,1.0,rolling_pin_02s.jpg,0.0,clock_7_5.png,4.0,49,,,,,,,,,,,,,,,,,,,,,,,,,,,,,,,,
0.0,1.0,0.658775,0.0,21.0,21.0,21.0,1.0,lipstick_02s.jpg,0.0,clock_7_6.png,4.0,49,,,,,,,,,,,,,,,,,,,,,,,,,,,,,,,,
0.0,1.0,0.52233,0.0,22.0,22.0,22.0,1.0,incense_02s.jpg,0.0,clock_7_7.png,4.0,49,,,,,,,,,,,,,,,,,,,,,,,,,,,,,,,,
0.0,1.0,0.414395,0.0,23.0,23.0,23.0,1.0,rudder_02s.jpg,0.0,clock_6_1.png,5.0,49,,,,,,,,,,,,,,,,,,,,,,,,,,,,,,,,
0.0,1.0,0.4635,0.0,24.0,24.0,24.0,1.0,radio_09s.jpg,0.0,clock_6_2.png,5.0,49,,,,,,,,,,,,,,,,,,,,,,,,,,,,,,,,
0.0,1.0,0.868485,0.0,25.0,25.0,25.0,1.0,rooster_03s.jpg,0.0,clock_6_3.png,5.0,49,,,,,,,,,,,,,,,,,,,,,,,,,,,,,,,,
0.0,1.0,0.72922,0.0,26.0,26.0,26.0,1.0,surfboard_11s.jpg,0.0,clock_6_4.png,5.0,49,,,,,,,,,,,,,,,,,,,,,,,,,,,,,,,,
0.0,1.0,1.11179,0.0,27.0,27.0,27.0,1.0,perfume_06s.jpg,0.0,clock_6_5.png,5.0,49,,,,,,,,,,,,,,,,,,,,,,,,,,,,,,,,
0.0,1.0,0.679405,0.0,28.0,28.0,28.0,1.0,tortilla_06s.jpg,0.0,clock_6_6.png,5.0,49,,,,,,,,,,,,,,,,,,,,,,,,,,,,,,,,
0.0,1.0,0.391925,0.0,29.0,29.0,29.0,1.0,gingerbread_man_03s.jpg,0.0,clock_7_1.png,6.0,49,,,,,,,,,,,,,,,,,,,,,,,,,,,,,,,,
0.0,1.0,0.7808,0.0,30.0,30.0,30.0,1.0,tambourine_06s.jpg,0.0,clock_7_2.png,6.0,49,,,,,,,,,,,,,,,,,,,,,,,,,,,,,,,,
0.0,1.0,0.674345,0.0,31.0,31.0,31.0,1.0,pomegranate_04s.jpg,0.0,clock_7_3.png,6.0,49,,,,,,,,,,,,,,,,,,,,,,,,,,,,,,,,
0.0,1.0,1.115255,0.0,32.0,32.0,32.0,1.0,birdcage_08s.jpg,0.0,clock_7_4.png,6.0,49,,,,,,,,,,,,,,,,,,,,,,,,,,,,,,,,
0.0,1.0,0.604835,0.0,33.0,33.0,33.0,1.0,cushion_08s.jpg,0.0,clock_7_5.png,6.0,49,,,,,,,,,,,,,,,,,,,,,,,,,,,,,,,,
0.0,1.0,0.3492,0.0,34.0,34.0,34.0,1.0,puppet_01b.jpg,0.0,clock_7_6.png,6.0,49,,,,,,,,,,,,,,,,,,,,,,,,,,,,,,,,
0.0,1.0,0.60551,0.0,35.0,35.0,35.0,1.0,briefcase_03s.jpg,0.0,clock_7_7.png,6.0,49,,,,,,,,,,,,,,,,,,,,,,,,,,,,,,,,
,,,,,,,,,1.0,,,49,0.0,0.0,1.336795,0.0,0.0,0.0,0.0,1.0,scooter.jpg,air_pump_05s.jpg,,,,,,,,,,,,,,,,,,,,,,
,,,,,,,,,1.0,,,49,1.0,1.0,1.514705,0.0,1.0,1.0,1.0,1.0,lipstick_02s.jpg,radio_09s.jpg,,,,,,,,,,,,,,,,,,,,,,
,,,,,,,,,1.0,,,49,1.0,1.0,1.413135,0.0,2.0,2.0,2.0,1.0,incense_02s.jpg,rooster_03s.jpg,,,,,,,,,,,,,,,,,,,,,,
,,,,,,,,,1.0,,,49,0.0,0.0,1.32872,0.0,3.0,3.0,3.0,1.0,birdcage_08s.jpg,briefcase_03s.jpg,,,,,,,,,,,,,,,,,,,,,,
,,,,,,,,,0.0,,,49,1.0,0.0,0.78316,0.0,4.0,4.0,4.0,1.0,fossil_06s.jpg,giraffe_11s.jpg,,,,,,,,,,,,,,,,,,,,,,
,,,,,,,,,1.0,,,49,1.0,1.0,0.764955,0.0,5.0,5.0,5.0,1.0,mannequin_05s.jpg,crossbow_10s.jpg,,,,,,,,,,,,,,,,,,,,,,
,,,,,,,,,,,,49,,,,,,,,,,,0.0,1.0,1.0,1.0,1.0,clock_present_2_10.xlsx,clock_compare_task_2_10.xlsx,,,,,,,,,,,,,,,
0.0,1.0,0.91901,0.0,0.0,0.0,0.0,1.0,dynamite_01b.jpg,0.0,clock_6_1.png,1.0,49,,,,,,,,,,,,,,,,,,,,,,,,,,,,,,,,
0.0,0.0,0.913395,0.0,1.0,1.0,1.0,1.0,dynamite_01b.jpg,1.0,clock_6_2.png,1.0,49,,,,,,,,,,,,,,,,,,,,,,,,,,,,,,,,
1.0,1.0,0.541815,0.0,2.0,2.0,2.0,1.0,dynamite_01b.jpg,1.0,clock_6_3.png,1.0,49,,,,,,,,,,,,,,,,,,,,,,,,,,,,,,,,
1.0,1.0,0.6297,0.0,3.0,3.0,3.0,1.0,dynamite_01b.jpg,1.0,clock_6_4.png,1.0,49,,,,,,,,,,,,,,,,,,,,,,,,,,,,,,,,
0.0,1.0,0.62438,0.0,4.0,4.0,4.0,1.0,lava_02s.jpg,0.0,clock_6_5.png,1.0,49,,,,,,,,,,,,,,,,,,,,,,,,,,,,,,,,
1.0,1.0,1.407065,0.0,5.0,5.0,5.0,1.0,dynamite_01b.jpg,1.0,clock_6_6.png,1.0,49,,,,,,,,,,,,,,,,,,,,,,,,,,,,,,,,
0.0,1.0,0.656635,0.0,6.0,6.0,6.0,1.0,glue_01s.jpg,0.0,clock_7_1.png,2.0,49,,,,,,,,,,,,,,,,,,,,,,,,,,,,,,,,
0.0,1.0,1.14424,0.0,7.0,7.0,7.0,1.0,umbrella_15s.jpg,0.0,clock_7_2.png,2.0,49,,,,,,,,,,,,,,,,,,,,,,,,,,,,,,,,
0.0,1.0,0.822875,0.0,8.0,8.0,8.0,1.0,puppy_08s.jpg,0.0,clock_7_3.png,2.0,49,,,,,,,,,,,,,,,,,,,,,,,,,,,,,,,,
0.0,1.0,1.285875,0.0,9.0,9.0,9.0,1.0,lab_coat_11s.jpg,0.0,clock_7_4.png,2.0,49,,,,,,,,,,,,,,,,,,,,,,,,,,,,,,,,
0.0,1.0,1.965255,0.0,10.0,10.0,10.0,1.0,parachute_03s.jpg,0.0,clock_7_5.png,2.0,49,,,,,,,,,,,,,,,,,,,,,,,,,,,,,,,,
,0.0,,0.0,11.0,11.0,11.0,1.0,parachute_03s.jpg,1.0,clock_7_6.png,2.0,49,,,,,,,,,,,,,,,,,,,,,,,,,,,,,,,,
0.0,1.0,0.55553,0.0,12.0,12.0,12.0,1.0,keyhole_03s.jpg,0.0,clock_7_7.png,2.0,49,,,,,,,,,,,,,,,,,,,,,,,,,,,,,,,,
0.0,1.0,0.63124,0.0,13.0,13.0,13.0,1.0,marshmallow_08s.jpg,0.0,clock_5_1.png,3.0,49,,,,,,,,,,,,,,,,,,,,,,,,,,,,,,,,
0.0,1.0,0.79453,0.0,14.0,14.0,14.0,1.0,undershirt_02s.jpg,0.0,clock_5_2.png,3.0,49,,,,,,,,,,,,,,,,,,,,,,,,,,,,,,,,
0.0,1.0,0.36656,0.0,15.0,15.0,15.0,1.0,sushi_08s.jpg,0.0,clock_5_3.png,3.0,49,,,,,,,,,,,,,,,,,,,,,,,,,,,,,,,,
0.0,1.0,0.589275,0.0,16.0,16.0,16.0,1.0,piggy_bank_02s.jpg,0.0,clock_5_4.png,3.0,49,,,,,,,,,,,,,,,,,,,,,,,,,,,,,,,,
0.0,0.0,0.944375,0.0,17.0,17.0,17.0,1.0,marshmallow_08s.jpg,1.0,clock_5_5.png,3.0,49,,,,,,,,,,,,,,,,,,,,,,,,,,,,,,,,
0.0,1.0,0.587815,0.0,18.0,18.0,18.0,1.0,syringe_02s.jpg,0.0,clock_7_1.png,4.0,49,,,,,,,,,,,,,,,,,,,,,,,,,,,,,,,,
0.0,1.0,0.45344,0.0,19.0,19.0,19.0,1.0,purse_05s.jpg,0.0,clock_7_2.png,4.0,49,,,,,,,,,,,,,,,,,,,,,,,,,,,,,,,,
0.0,1.0,0.532875,0.0,20.0,20.0,20.0,1.0,tongs_08s.jpg,0.0,clock_7_3.png,4.0,49,,,,,,,,,,,,,,,,,,,,,,,,,,,,,,,,
0.0,1.0,0.95839,0.0,21.0,21.0,21.0,1.0,pocketknife_12s.jpg,0.0,clock_7_4.png,4.0,49,,,,,,,,,,,,,,,,,,,,,,,,,,,,,,,,
0.0,1.0,0.62753,0.0,22.0,22.0,22.0,1.0,rope_16s.jpg,0.0,clock_7_5.png,4.0,49,,,,,,,,,,,,,,,,,,,,,,,,,,,,,,,,
0.0,1.0,0.58073,0.0,23.0,23.0,23.0,1.0,duck_01b.jpg,0.0,clock_7_6.png,4.0,49,,,,,,,,,,,,,,,,,,,,,,,,,,,,,,,,
0.0,1.0,0.99307,0.0,24.0,24.0,24.0,1.0,machete_06s.jpg,0.0,clock_7_7.png,4.0,49,,,,,,,,,,,,,,,,,,,,,,,,,,,,,,,,
0.0,1.0,0.91982,0.0,25.0,25.0,25.0,1.0,eggshell_14s.jpg,0.0,clock_5_1.png,5.0,49,,,,,,,,,,,,,,,,,,,,,,,,,,,,,,,,
0.0,1.0,0.72382,0.0,26.0,26.0,26.0,1.0,roulette_wheel_04s.jpg,0.0,clock_5_2.png,5.0,49,,,,,,,,,,,,,,,,,,,,,,,,,,,,,,,,
0.0,1.0,0.56543,0.0,27.0,27.0,27.0,1.0,tattoo_14s.jpg,0.0,clock_5_3.png,5.0,49,,,,,,,,,,,,,,,,,,,,,,,,,,,,,,,,
1.0,1.0,1.011255,0.0,28.0,28.0,28.0,1.0,roulette_wheel_04s.jpg,1.0,clock_5_4.png,5.0,49,,,,,,,,,,,,,,,,,,,,,,,,,,,,,,,,
1.0,1.0,0.85772,0.0,29.0,29.0,29.0,1.0,tattoo_14s.jpg,1.0,clock_5_5.png,5.0,49,,,,,,,,,,,,,,,,,,,,,,,,,,,,,,,,
0.0,1.0,0.92403,0.0,30.0,30.0,30.0,1.0,kite_04s.jpg,0.0,clock_6_1.png,6.0,49,,,,,,,,,,,,,,,,,,,,,,,,,,,,,,,,
0.0,1.0,0.82169,0.0,31.0,31.0,31.0,1.0,dirt_bike_11s.jpg,0.0,clock_6_2.png,6.0,49,,,,,,,,,,,,,,,,,,,,,,,,,,,,,,,,
1.0,1.0,1.36551,0.0,32.0,32.0,32.0,1.0,kite_04s.jpg,1.0,clock_6_3.png,6.0,49,,,,,,,,,,,,,,,,,,,,,,,,,,,,,,,,
0.0,1.0,0.75852,0.0,33.0,33.0,33.0,1.0,tongs_08s.jpg,0.0,clock_6_4.png,6.0,49,,,,,,,,,,,,,,,,,,,,,,,,,,,,,,,,
0.0,1.0,0.673975,0.0,34.0,34.0,34.0,1.0,go-kart_10s.jpg,0.0,clock_6_5.png,6.0,49,,,,,,,,,,,,,,,,,,,,,,,,,,,,,,,,
0.0,1.0,0.629825,0.0,35.0,35.0,35.0,1.0,red_carpet_03s.jpg,0.0,clock_6_6.png,6.0,49,,,,,,,,,,,,,,,,,,,,,,,,,,,,,,,,
,,,,,,,,,0.0,,,49,0.0,1.0,1.325805,0.0,0.0,0.0,0.0,1.0,umbrella_15s.jpg,lava_02s.jpg,,,,,,,,,,,,,,,,,,,,,,
,,,,,,,,,0.0,,,49,1.0,0.0,1.185105,0.0,1.0,1.0,1.0,1.0,sushi_08s.jpg,keyhole_03s.jpg,,,,,,,,,,,,,,,,,,,,,,
,,,,,,,,,1.0,,,49,1.0,1.0,1.42908,0.0,2.0,2.0,2.0,1.0,piggy_bank_02s.jpg,purse_05s.jpg,,,,,,,,,,,,,,,,,,,,,,
,,,,,,,,,1.0,,,49,1.0,1.0,0.83406,0.0,3.0,3.0,3.0,1.0,glue_01s.jpg,lab_coat_11s.jpg,,,,,,,,,,,,,,,,,,,,,,
,,,,,,,,,1.0,,,49,1.0,1.0,1.28523,0.0,4.0,4.0,4.0,1.0,pocketknife_12s.jpg,machete_06s.jpg,,,,,,,,,,,,,,,,,,,,,,
,,,,,,,,,0.0,,,49,1.0,0.0,0.882765,0.0,5.0,5.0,5.0,1.0,go-kart_10s.jpg,dirt_bike_11s.jpg,,,,,,,,,,,,,,,,,,,,,,
,,,,,,,,,,,,49,,,,,,,,,,,0.0,2.0,2.0,2.0,1.0,clock_present_3_10.xlsx,clock_compare_task_3_10.xlsx,,,,,,,,,,,,,,,
0.0,1.0,0.660885,0.0,0.0,0.0,0.0,1.0,knitting_needle_04s.jpg,0.0,clock_5_1.png,1.0,49,,,,,,,,,,,,,,,,,,,,,,,,,,,,,,,,
1.0,1.0,1.06229,0.0,1.0,1.0,1.0,1.0,knitting_needle_04s.jpg,1.0,clock_5_2.png,1.0,49,,,,,,,,,,,,,,,,,,,,,,,,,,,,,,,,
1.0,1.0,1.11356,0.0,2.0,2.0,2.0,1.0,knitting_needle_04s.jpg,1.0,clock_5_3.png,1.0,49,,,,,,,,,,,,,,,,,,,,,,,,,,,,,,,,
0.0,1.0,0.769985,0.0,3.0,3.0,3.0,1.0,towel_rack_04s.jpg,0.0,clock_5_4.png,1.0,49,,,,,,,,,,,,,,,,,,,,,,,,,,,,,,,,
0.0,1.0,0.72266,0.0,4.0,4.0,4.0,1.0,stump_02s.jpg,0.0,clock_5_5.png,1.0,49,,,,,,,,,,,,,,,,,,,,,,,,,,,,,,,,
0.0,1.0,0.490985,0.0,5.0,5.0,5.0,1.0,pan_02s.jpg,0.0,clock_7_1.png,2.0,49,,,,,,,,,,,,,,,,,,,,,,,,,,,,,,,,
0.0,1.0,2.35704,0.0,6.0,6.0,6.0,1.0,knitting_needle_04s.jpg,0.0,clock_7_2.png,2.0,49,,,,,,,,,,,,,,,,,,,,,,,,,,,,,,,,
0.0,1.0,0.844595,0.0,7.0,7.0,7.0,1.0,lectern_08s.jpg,0.0,clock_7_3.png,2.0,49,,,,,,,,,,,,,,,,,,,,,,,,,,,,,,,,
0.0,1.0,1.65792,0.0,8.0,8.0,8.0,1.0,knot_01b.jpg,0.0,clock_7_4.png,2.0,49,,,,,,,,,,,,,,,,,,,,,,,,,,,,,,,,
0.0,1.0,1.290775,0.0,9.0,9.0,9.0,1.0,towel_rack_04s.jpg,0.0,clock_7_5.png,2.0,49,,,,,,,,,,,,,,,,,,,,,,,,,,,,,,,,
0.0,1.0,0.873975,0.0,10.0,10.0,10.0,1.0,rollerskate_03s.jpg,0.0,clock_7_6.png,2.0,49,,,,,,,,,,,,,,,,,,,,,,,,,,,,,,,,
0.0,1.0,1.09439,0.0,11.0,11.0,11.0,1.0,amber_04s.jpg,0.0,clock_7_7.png,2.0,49,,,,,,,,,,,,,,,,,,,,,,,,,,,,,,,,
0.0,1.0,0.866825,0.0,12.0,12.0,12.0,1.0,razor_blade_01b.jpg,0.0,clock_5_1.png,3.0,49,,,,,,,,,,,,,,,,,,,,,,,,,,,,,,,,
0.0,1.0,0.796395,0.0,13.0,13.0,13.0,1.0,sea_urchin_09s.jpg,0.0,clock_5_2.png,3.0,49,,,,,,,,,,,,,,,,,,,,,,,,,,,,,,,,
0.0,1.0,0.72984,0.0,14.0,14.0,14.0,1.0,toilet_07s.jpg,0.0,clock_5_3.png,3.0,49,,,,,,,,,,,,,,,,,,,,,,,,,,,,,,,,
0.0,1.0,1.087765,0.0,15.0,15.0,15.0,1.0,police_car_01s.jpg,0.0,clock_5_4.png,3.0,49,,,,,,,,,,,,,,,,,,,,,,,,,,,,,,,,
1.0,1.0,1.133945,0.0,16.0,16.0,16.0,1.0,police_car_01s.jpg,1.0,clock_5_5.png,3.0,49,,,,,,,,,,,,,,,,,,,,,,,,,,,,,,,,
0.0,1.0,0.665685,0.0,17.0,17.0,17.0,1.0,feather02.jpg,0.0,clock_6_1.png,4.0,49,,,,,,,,,,,,,,,,,,,,,,,,,,,,,,,,
0.0,1.0,1.078275,0.0,18.0,18.0,18.0,1.0,mushroom_10n.jpg,0.0,clock_6_2.png,4.0,49,,,,,,,,,,,,,,,,,,,,,,,,,,,,,,,,
0.0,1.0,0.82982,0.0,19.0,19.0,19.0,1.0,abacus_12s.jpg,0.0,clock_6_3.png,4.0,49,,,,,,,,,,,,,,,,,,,,,,,,,,,,,,,,
0.0,1.0,1.135335,0.0,20.0,20.0,20.0,1.0,hyena_16s.jpg,0.0,clock_6_4.png,4.0,49,,,,,,,,,,,,,,,,,,,,,,,,,,,,,,,,
0.0,1.0,0.498005,0.0,21.0,21.0,21.0,1.0,owl_15s.jpg,0.0,clock_6_5.png,4.0,49,,,,,,,,,,,,,,,,,,,,,,,,,,,,,,,,
1.0,1.0,2.362925,0.0,22.0,22.0,22.0,1.0,abacus_12s.jpg,1.0,clock_6_6.png,4.0,49,,,,,,,,,,,,,,,,,,,,,,,,,,,,,,,,
0.0,1.0,0.849745,0.0,23.0,23.0,23.0,1.0,ostrich_06s.jpg,0.0,clock_7_1.png,5.0,49,,,,,,,,,,,,,,,,,,,,,,,,,,,,,,,,
0.0,1.0,0.93117,0.0,24.0,24.0,24.0,1.0,candy_cane_06s.jpg,0.0,clock_7_2.png,5.0,49,,,,,,,,,,,,,,,,,,,,,,,,,,,,,,,,
1.0,1.0,1.265,0.0,25.0,25.0,25.0,1.0,candy_cane_06s.jpg,1.0,clock_7_3.png,5.0,49,,,,,,,,,,,,,,,,,,,,,,,,,,,,,,,,
0.0,1.0,0.997525,0.0,26.0,26.0,26.0,1.0,sunflower_17s.jpg,0.0,clock_7_4.png,5.0,49,,,,,,,,,,,,,,,,,,,,,,,,,,,,,,,,
0.0,1.0,0.584305,0.0,27.0,27.0,27.0,1.0,paper_bag_12s.jpg,0.0,clock_7_5.png,5.0,49,,,,,,,,,,,,,,,,,,,,,,,,,,,,,,,,
0.0,1.0,0.890105,0.0,28.0,28.0,28.0,1.0,submarine_11n.jpg,0.0,clock_7_6.png,5.0,49,,,,,,,,,,,,,,,,,,,,,,,,,,,,,,,,
0.0,1.0,0.898165,0.0,29.0,29.0,29.0,1.0,pretzel_09s.jpg,0.0,clock_7_7.png,5.0,49,,,,,,,,,,,,,,,,,,,,,,,,,,,,,,,,
0.0,1.0,0.885235,0.0,30.0,30.0,30.0,1.0,potpourri_03s.jpg,0.0,clock_6_1.png,6.0,49,,,,,,,,,,,,,,,,,,,,,,,,,,,,,,,,
0.0,1.0,0.766425,0.0,31.0,31.0,31.0,1.0,clover_04s.jpg,0.0,clock_6_2.png,6.0,49,,,,,,,,,,,,,,,,,,,,,,,,,,,,,,,,
0.0,1.0,0.404135,0.0,32.0,32.0,32.0,1.0,sledgehammer_03s.jpg,0.0,clock_6_3.png,6.0,49,,,,,,,,,,,,,,,,,,,,,,,,,,,,,,,,
0.0,1.0,1.366365,0.0,33.0,33.0,33.0,1.0,aluminum_foil_08s.jpg,0.0,clock_6_4.png,6.0,49,,,,,,,,,,,,,,,,,,,,,,,,,,,,,,,,
1.0,0.0,2.19892,0.0,34.0,34.0,34.0,1.0,owl_15s.jpg,0.0,clock_6_5.png,6.0,49,,,,,,,,,,,,,,,,,,,,,,,,,,,,,,,,
0.0,1.0,0.915885,0.0,35.0,35.0,35.0,1.0,lamb_chop_07s.jpg,0.0,clock_6_6.png,6.0,49,,,,,,,,,,,,,,,,,,,,,,,,,,,,,,,,
,,,,,,,,,0.0,,,49,0.0,1.0,1.58221,0.0,0.0,0.0,0.0,1.0,clover_04s.jpg,submarine_11n.jpg,,,,,,,,,,,,,,,,,,,,,,
,,,,,,,,,1.0,,,49,1.0,1.0,0.841595,0.0,1.0,1.0,1.0,1.0,stump_02s.jpg,lectern_08s.jpg,,,,,,,,,,,,,,,,,,,,,,
,,,,,,,,,0.0,,,49,1.0,0.0,0.900725,0.0,2.0,2.0,2.0,1.0,sea_urchin_09s.jpg,rollerskate_03s.jpg,,,,,,,,,,,,,,,,,,,,,,
,,,,,,,,,1.0,,,49,0.0,0.0,0.96206,0.0,3.0,3.0,3.0,1.0,pan_02s.jpg,knot_01b.jpg,,,,,,,,,,,,,,,,,,,,,,
,,,,,,,,,1.0,,,49,0.0,0.0,0.93016,0.0,4.0,4.0,4.0,1.0,ostrich_06s.jpg,sunflower_17s.jpg,,,,,,,,,,,,,,,,,,,,,,
,,,,,,,,,0.0,,,49,1.0,0.0,0.911125,0.0,5.0,5.0,5.0,1.0,aluminum_foil_08s.jpg,potpourri_03s.jpg,,,,,,,,,,,,,,,,,,,,,,
,,,,,,,,,,,,49,,,,,,,,,,,0.0,3.0,3.0,3.0,1.0,clock_present_4_10.xlsx,clock_compare_task_4_10.xlsx,,,,,,,,,,,,,,,
0.0,1.0,0.760175,0.0,0.0,0.0,0.0,1.0,bathtub_23s.jpg,0.0,clock_7_1.png,1.0,49,,,,,,,,,,,,,,,,,,,,,,,,,,,,,,,,
0.0,0.0,1.635635,0.0,1.0,1.0,1.0,1.0,bathtub_23s.jpg,1.0,clock_7_2.png,1.0,49,,,,,,,,,,,,,,,,,,,,,,,,,,,,,,,,
1.0,1.0,0.571925,0.0,2.0,2.0,2.0,1.0,bathtub_23s.jpg,1.0,clock_7_3.png,1.0,49,,,,,,,,,,,,,,,,,,,,,,,,,,,,,,,,
1.0,1.0,0.940365,0.0,3.0,3.0,3.0,1.0,bathtub_23s.jpg,1.0,clock_7_4.png,1.0,49,,,,,,,,,,,,,,,,,,,,,,,,,,,,,,,,
1.0,1.0,0.4331,0.0,4.0,4.0,4.0,1.0,bathtub_23s.jpg,1.0,clock_7_5.png,1.0,49,,,,,,,,,,,,,,,,,,,,,,,,,,,,,,,,
1.0,1.0,0.37984,0.0,5.0,5.0,5.0,1.0,bathtub_23s.jpg,1.0,clock_7_6.png,1.0,49,,,,,,,,,,,,,,,,,,,,,,,,,,,,,,,,
1.0,1.0,0.6025,0.0,6.0,6.0,6.0,1.0,bathtub_23s.jpg,1.0,clock_7_7.png,1.0,49,,,,,,,,,,,,,,,,,,,,,,,,,,,,,,,,
0.0,1.0,0.512335,0.0,7.0,7.0,7.0,1.0,breadstick_08s.jpg,0.0,clock_7_1.png,2.0,49,,,,,,,,,,,,,,,,,,,,,,,,,,,,,,,,
0.0,1.0,0.579045,0.0,8.0,8.0,8.0,1.0,petri_dish_12s.jpg,0.0,clock_7_2.png,2.0,49,,,,,,,,,,,,,,,,,,,,,,,,,,,,,,,,
1.0,1.0,1.066805,0.0,9.0,9.0,9.0,1.0,petri_dish_12s.jpg,1.0,clock_7_3.png,2.0,49,,,,,,,,,,,,,,,,,,,,,,,,,,,,,,,,
0.0,1.0,1.16599,0.0,10.0,10.0,10.0,1.0,penlight_12s.jpg,0.0,clock_7_4.png,2.0,49,,,,,,,,,,,,,,,,,,,,,,,,,,,,,,,,
1.0,1.0,1.35044,0.0,11.0,11.0,11.0,1.0,breadstick_08s.jpg,1.0,clock_7_5.png,2.0,49,,,,,,,,,,,,,,,,,,,,,,,,,,,,,,,,
0.0,1.0,1.08219,0.0,12.0,12.0,12.0,1.0,blowfish_03s.jpg,0.0,clock_7_6.png,2.0,49,,,,,,,,,,,,,,,,,,,,,,,,,,,,,,,,
0.0,1.0,0.660315,0.0,13.0,13.0,13.0,1.0,mosquito_12s.jpg,0.0,clock_7_7.png,2.0,49,,,,,,,,,,,,,,,,,,,,,,,,,,,,,,,,
0.0,1.0,0.93189,0.0,14.0,14.0,14.0,1.0,tuxedo_01b.jpg,0.0,clock_6_1.png,3.0,49,,,,,,,,,,,,,,,,,,,,,,,,,,,,,,,,
0.0,1.0,0.812295,0.0,15.0,15.0,15.0,1.0,petri_dish_12s.jpg,0.0,clock_6_2.png,3.0,49,,,,,,,,,,,,,,,,,,,,,,,,,,,,,,,,
0.0,1.0,0.898265,0.0,16.0,16.0,16.0,1.0,raspberry_12s.jpg,0.0,clock_6_3.png,3.0,49,,,,,,,,,,,,,,,,,,,,,,,,,,,,,,,,
0.0,1.0,0.762535,0.0,17.0,17.0,17.0,1.0,pump_11s.jpg,0.0,clock_6_4.png,3.0,49,,,,,,,,,,,,,,,,,,,,,,,,,,,,,,,,
0.0,1.0,0.483185,0.0,18.0,18.0,18.0,1.0,omelet_07s.jpg,0.0,clock_6_5.png,3.0,49,,,,,,,,,,,,,,,,,,,,,,,,,,,,,,,,
0.0,1.0,1.22145,0.0,19.0,19.0,19.0,1.0,lasagna_06s.jpg,0.0,clock_6_6.png,3.0,49,,,,,,,,,,,,,,,,,,,,,,,,,,,,,,,,
0.0,1.0,0.607705,0.0,20.0,20.0,20.0,1.0,lip_gloss_06s.jpg,0.0,clock_5_1.png,4.0,49,,,,,,,,,,,,,,,,,,,,,,,,,,,,,,,,
0.0,1.0,1.94384,0.0,21.0,21.0,21.0,1.0,jigsaw_puzzle_11s.jpg,0.0,clock_5_2.png,4.0,49,,,,,,,,,,,,,,,,,,,,,,,,,,,,,,,,
0.0,1.0,1.235695,0.0,22.0,22.0,22.0,1.0,flask_04s.jpg,0.0,clock_5_3.png,4.0,49,,,,,,,,,,,,,,,,,,,,,,,,,,,,,,,,
0.0,1.0,1.22897,0.0,23.0,23.0,23.0,1.0,bathtub_23s.jpg,0.0,clock_5_4.png,4.0,49,,,,,,,,,,,,,,,,,,,,,,,,,,,,,,,,
0.0,1.0,0.632075,0.0,24.0,24.0,24.0,1.0,antenna_01b.jpg,0.0,clock_5_5.png,4.0,49,,,,,,,,,,,,,,,,,,,,,,,,,,,,,,,,
0.0,1.0,0.78813,0.0,25.0,25.0,25.0,1.0,chip_04s.jpg,0.0,clock_5_1.png,5.0,49,,,,,,,,,,,,,,,,,,,,,,,,,,,,,,,,
0.0,1.0,0.68413,0.0,26.0,26.0,26.0,1.0,kangaroo_02s.jpg,0.0,clock_5_2.png,5.0,49,,,,,,,,,,,,,,,,,,,,,,,,,,,,,,,,
,0.0,,0.0,27.0,27.0,27.0,1.0,kangaroo_02s.jpg,1.0,clock_5_3.png,5.0,49,,,,,,,,,,,,,,,,,,,,,,,,,,,,,,,,
0.0,1.0,0.57814,0.0,28.0,28.0,28.0,1.0,tennis_ball_06s.jpg,0.0,clock_5_4.png,5.0,49,,,,,,,,,,,,,,,,,,,,,,,,,,,,,,,,
1.0,1.0,1.12604,0.0,29.0,29.0,29.0,1.0,tennis_ball_06s.jpg,1.0,clock_5_5.png,5.0,49,,,,,,,,,,,,,,,,,,,,,,,,,,,,,,,,
0.0,1.0,1.18498,0.0,30.0,30.0,30.0,1.0,mixer_12s.jpg,0.0,clock_6_1.png,6.0,49,,,,,,,,,,,,,,,,,,,,,,,,,,,,,,,,
0.0,1.0,0.837705,0.0,31.0,31.0,31.0,1.0,treasure_08s.jpg,0.0,clock_6_2.png,6.0,49,,,,,,,,,,,,,,,,,,,,,,,,,,,,,,,,
0.0,1.0,0.94404,0.0,32.0,32.0,32.0,1.0,toy_04s.jpg,0.0,clock_6_3.png,6.0,49,,,,,,,,,,,,,,,,,,,,,,,,,,,,,,,,
0.0,1.0,0.666685,0.0,33.0,33.0,33.0,1.0,muffin_12n.jpg,0.0,clock_6_4.png,6.0,49,,,,,,,,,,,,,,,,,,,,,,,,,,,,,,,,
0.0,1.0,0.73619,0.0,34.0,34.0,34.0,1.0,possum_09s.jpg,0.0,clock_6_5.png,6.0,49,,,,,,,,,,,,,,,,,,,,,,,,,,,,,,,,
0.0,1.0,0.539945,0.0,35.0,35.0,35.0,1.0,soda_fountain_03s.jpg,0.0,clock_6_6.png,6.0,49,,,,,,,,,,,,,,,,,,,,,,,,,,,,,,,,
,,,,,,,,,1.0,,,49,1.0,1.0,1.03622,0.0,0.0,0.0,0.0,1.0,flask_04s.jpg,chip_04s.jpg,,,,,,,,,,,,,,,,,,,,,,
,,,,,,,,,0.0,,,49,1.0,0.0,1.424085,0.0,1.0,1.0,1.0,1.0,lip_gloss_06s.jpg,pump_11s.jpg,,,,,,,,,,,,,,,,,,,,,,
,,,,,,,,,0.0,,,49,0.0,1.0,1.348085,0.0,2.0,2.0,2.0,1.0,jigsaw_puzzle_11s.jpg,omelet_07s.jpg,,,,,,,,,,,,,,,,,,,,,,
,,,,,,,,,1.0,,,49,1.0,1.0,1.103865,0.0,3.0,3.0,3.0,1.0,mixer_12s.jpg,muffin_12n.jpg,,,,,,,,,,,,,,,,,,,,,,
,,,,,,,,,0.0,,,49,1.0,0.0,0.843235,0.0,4.0,4.0,4.0,1.0,possum_09s.jpg,treasure_08s.jpg,,,,,,,,,,,,,,,,,,,,,,
,,,,,,,,,1.0,,,49,1.0,1.0,1.051595,0.0,5.0,5.0,5.0,1.0,toy_04s.jpg,soda_fountain_03s.jpg,,,,,,,,,,,,,,,,,,,,,,
,,,,,,,,,,,,49,,,,,,,,,,,0.0,4.0,4.0,4.0,1.0,clock_present_5_10.xlsx,clock_compare_task_5_10.xlsx,,,,,,,,,,,,,,,
0.0,1.0,1.23838,0.0,0.0,0.0,0.0,1.0,mattress_01s.jpg,0.0,clock_7_1.png,1.0,49,,,,,,,,,,,,,,,,,,,,,,,,,,,,,,,,
1.0,1.0,0.457585,0.0,1.0,1.0,1.0,1.0,mattress_01s.jpg,1.0,clock_7_2.png,1.0,49,,,,,,,,,,,,,,,,,,,,,,,,,,,,,,,,
0.0,1.0,0.929725,0.0,2.0,2.0,2.0,1.0,plaster_cast_13s.jpg,0.0,clock_7_3.png,1.0,49,,,,,,,,,,,,,,,,,,,,,,,,,,,,,,,,
0.0,1.0,0.432815,0.0,3.0,3.0,3.0,1.0,mussel_11s.jpg,0.0,clock_7_4.png,1.0,49,,,,,,,,,,,,,,,,,,,,,,,,,,,,,,,,
1.0,1.0,0.906955,0.0,4.0,4.0,4.0,1.0,plaster_cast_13s.jpg,1.0,clock_7_5.png,1.0,49,,,,,,,,,,,,,,,,,,,,,,,,,,,,,,,,
0.0,1.0,0.513825,0.0,5.0,5.0,5.0,1.0,ant_12s.jpg,0.0,clock_7_6.png,1.0,49,,,,,,,,,,,,,,,,,,,,,,,,,,,,,,,,
1.0,1.0,1.603405,0.0,6.0,6.0,6.0,1.0,mattress_01s.jpg,1.0,clock_7_7.png,1.0,49,,,,,,,,,,,,,,,,,,,,,,,,,,,,,,,,
0.0,1.0,0.877165,0.0,7.0,7.0,7.0,1.0,coffee_filter_10s.jpg,0.0,clock_6_1.png,2.0,49,,,,,,,,,,,,,,,,,,,,,,,,,,,,,,,,
0.0,1.0,0.52459,0.0,8.0,8.0,8.0,1.0,comic_book_02s.jpg,0.0,clock_6_2.png,2.0,49,,,,,,,,,,,,,,,,,,,,,,,,,,,,,,,,
0.0,1.0,0.723635,0.0,9.0,9.0,9.0,1.0,rocking_chair_05s.jpg,0.0,clock_6_3.png,2.0,49,,,,,,,,,,,,,,,,,,,,,,,,,,,,,,,,
0.0,1.0,0.737735,0.0,10.0,10.0,10.0,1.0,squirt_gun_03s.jpg,0.0,clock_6_4.png,2.0,49,,,,,,,,,,,,,,,,,,,,,,,,,,,,,,,,
0.0,1.0,0.570895,0.0,11.0,11.0,11.0,1.0,ice_pack_09s.jpg,0.0,clock_6_5.png,2.0,49,,,,,,,,,,,,,,,,,,,,,,,,,,,,,,,,
0.0,1.0,0.904275,0.0,12.0,12.0,12.0,1.0,fox_13s.jpg,0.0,clock_6_6.png,2.0,49,,,,,,,,,,,,,,,,,,,,,,,,,,,,,,,,
0.0,1.0,1.496965,0.0,13.0,13.0,13.0,1.0,popcorn_09s.jpg,0.0,clock_6_1.png,3.0,49,,,,,,,,,,,,,,,,,,,,,,,,,,,,,,,,
0.0,1.0,0.508895,0.0,14.0,14.0,14.0,1.0,bowler_hat_10s.jpg,0.0,clock_6_2.png,3.0,49,,,,,,,,,,,,,,,,,,,,,,,,,,,,,,,,
0.0,1.0,1.124795,0.0,15.0,15.0,15.0,1.0,magnet_03s.jpg,0.0,clock_6_3.png,3.0,49,,,,,,,,,,,,,,,,,,,,,,,,,,,,,,,,
0.0,1.0,1.62873,0.0,16.0,16.0,16.0,1.0,tinsel_12s.jpg,0.0,clock_6_4.png,3.0,49,,,,,,,,,,,,,,,,,,,,,,,,,,,,,,,,
0.0,1.0,1.83829,0.0,17.0,17.0,17.0,1.0,kettle_08s.jpg,0.0,clock_6_5.png,3.0,49,,,,,,,,,,,,,,,,,,,,,,,,,,,,,,,,
0.0,1.0,0.645455,0.0,18.0,18.0,18.0,1.0,checkbook_11s.jpg,0.0,clock_6_6.png,3.0,49,,,,,,,,,,,,,,,,,,,,,,,,,,,,,,,,
0.0,1.0,0.463935,0.0,19.0,19.0,19.0,1.0,thumbtack_14s.jpg,0.0,clock_5_1.png,4.0,49,,,,,,,,,,,,,,,,,,,,,,,,,,,,,,,,
0.0,1.0,1.197945,0.0,20.0,20.0,20.0,1.0,turf_03s.jpg,0.0,clock_5_2.png,4.0,49,,,,,,,,,,,,,,,,,,,,,,,,,,,,,,,,
0.0,1.0,1.212305,0.0,21.0,21.0,21.0,1.0,peanut_butter_08s.jpg,0.0,clock_5_3.png,4.0,49,,,,,,,,,,,,,,,,,,,,,,,,,,,,,,,,
0.0,1.0,0.52862,0.0,22.0,22.0,22.0,1.0,lamb_04s.jpg,0.0,clock_5_4.png,4.0,49,,,,,,,,,,,,,,,,,,,,,,,,,,,,,,,,
0.0,1.0,0.59909,0.0,23.0,23.0,23.0,1.0,telephone_pole_05s.jpg,0.0,clock_5_5.png,4.0,49,,,,,,,,,,,,,,,,,,,,,,,,,,,,,,,,
0.0,1.0,0.911265,0.0,24.0,24.0,24.0,1.0,mascara_03s.jpg,0.0,clock_5_1.png,5.0,49,,,,,,,,,,,,,,,,,,,,,,,,,,,,,,,,
0.0,1.0,0.599745,0.0,25.0,25.0,25.0,1.0,prism_10s.jpg,0.0,clock_5_2.png,5.0,49,,,,,,,,,,,,,,,,,,,,,,,,,,,,,,,,
0.0,1.0,0.565585,0.0,26.0,26.0,26.0,1.0,puffin_19s.jpg,0.0,clock_5_3.png,5.0,49,,,,,,,,,,,,,,,,,,,,,,,,,,,,,,,,
0.0,1.0,0.945005,0.0,27.0,27.0,27.0,1.0,lid_10s.jpg,0.0,clock_5_4.png,5.0,49,,,,,,,,,,,,,,,,,,,,,,,,,,,,,,,,
0.0,1.0,0.515965,0.0,28.0,28.0,28.0,1.0,keyboard_05s.jpg,0.0,clock_5_5.png,5.0,49,,,,,,,,,,,,,,,,,,,,,,,,,,,,,,,,
0.0,1.0,1.5054,0.0,29.0,29.0,29.0,1.0,fire_pit_10s.jpg,0.0,clock_7_1.png,6.0,49,,,,,,,,,,,,,,,,,,,,,,,,,,,,,,,,
0.0,1.0,1.49139,0.0,30.0,30.0,30.0,1.0,ice_pack_09s.jpg,0.0,clock_7_2.png,6.0,49,,,,,,,,,,,,,,,,,,,,,,,,,,,,,,,,
0.0,1.0,0.53352,0.0,31.0,31.0,31.0,1.0,hydrant_10s.jpg,0.0,clock_7_3.png,6.0,49,,,,,,,,,,,,,,,,,,,,,,,,,,,,,,,,
1.0,1.0,1.65583,0.0,32.0,32.0,32.0,1.0,hydrant_10s.jpg,1.0,clock_7_4.png,6.0,49,,,,,,,,,,,,,,,,,,,,,,,,,,,,,,,,
0.0,1.0,1.33035,0.0,33.0,33.0,33.0,1.0,tuba_12s.jpg,0.0,clock_7_5.png,6.0,49,,,,,,,,,,,,,,,,,,,,,,,,,,,,,,,,
0.0,1.0,0.827965,0.0,34.0,34.0,34.0,1.0,tulip_02s.jpg,0.0,clock_7_6.png,6.0,49,,,,,,,,,,,,,,,,,,,,,,,,,,,,,,,,
0.0,1.0,1.853985,0.0,35.0,35.0,35.0,1.0,jetski_10s.jpg,0.0,clock_7_7.png,6.0,49,,,,,,,,,,,,,,,,,,,,,,,,,,,,,,,,
,,,,,,,,,0.0,,,49,1.0,0.0,4.403005,0.0,0.0,0.0,0.0,1.0,comic_book_02s.jpg,ant_12s.jpg,,,,,,,,,,,,,,,,,,,,,,
,,,,,,,,,1.0,,,49,0.0,0.0,1.08797,0.0,1.0,1.0,1.0,1.0,puffin_19s.jpg,fire_pit_10s.jpg,,,,,,,,,,,,,,,,,,,,,,
,,,,,,,,,0.0,,,49,1.0,0.0,0.98099,0.0,2.0,2.0,2.0,1.0,peanut_butter_08s.jpg,checkbook_11s.jpg,,,,,,,,,,,,,,,,,,,,,,
,,,,,,,,,0.0,,,49,1.0,0.0,0.811475,0.0,3.0,3.0,3.0,1.0,squirt_gun_03s.jpg,coffee_filter_10s.jpg,,,,,,,,,,,,,,,,,,,,,,
,,,,,,,,,0.0,,,49,1.0,0.0,0.76462,0.0,4.0,4.0,4.0,1.0,fox_13s.jpg,rocking_chair_05s.jpg,,,,,,,,,,,,,,,,,,,,,,
,,,,,,,,,0.0,,,49,0.0,1.0,0.83822,0.0,5.0,5.0,5.0,1.0,kettle_08s.jpg,bowler_hat_10s.jpg,,,,,,,,,,,,,,,,,,,,,,
0.0,1.0,1.40873,,,,,,jelly_bean_06s.jpg,0.0,clockno_up.jpg,1.0,49,,,,,,,,,,,,,,,,,,0.0,0.0,0.0,0.0,1.0,,,,,,,,,,
0.0,1.0,1.65399,,,,,,diving_board_07s.jpg,0.0,clockno_default.jpg,1.0,49,,,,,,,,,,,,,,,,,,0.0,1.0,1.0,1.0,1.0,,,,,,,,,,
1.0,1.0,1.609085,,,,,,jelly_bean_06s.jpg,1.0,clockno_default.jpg,1.0,49,,,,,,,,,,,,,,,,,,0.0,2.0,2.0,2.0,1.0,,,,,,,,,,
0.0,1.0,0.683035,,,,,,top_hat_11s.jpg,0.0,clockno_default.jpg,1.0,49,,,,,,,,,,,,,,,,,,0.0,3.0,3.0,3.0,1.0,,,,,,,,,,
0.0,1.0,0.53928,,,,,,olive_05s.jpg,0.0,clockno_default.jpg,1.0,49,,,,,,,,,,,,,,,,,,0.0,4.0,4.0,4.0,1.0,,,,,,,,,,
1.0,1.0,1.739785,,,,,,top_hat_11s.jpg,1.0,clockno_default.jpg,1.0,49,,,,,,,,,,,,,,,,,,0.0,5.0,5.0,5.0,1.0,,,,,,,,,,
0.0,1.0,0.6061,,,,,,blazer_02s.jpg,0.0,clockno_up.jpg,2.0,49,,,,,,,,,,,,,,,,,,0.0,6.0,6.0,6.0,1.0,,,,,,,,,,
0.0,1.0,1.15557,,,,,,top_hat_11s.jpg,0.0,clockno_default.jpg,2.0,49,,,,,,,,,,,,,,,,,,0.0,7.0,7.0,7.0,1.0,,,,,,,,,,
0.0,1.0,0.577145,,,,,,mango_09s.jpg,0.0,clockno_default.jpg,2.0,49,,,,,,,,,,,,,,,,,,0.0,8.0,8.0,8.0,1.0,,,,,,,,,,
0.0,1.0,0.662455,,,,,,badge_03s.jpg,0.0,clockno_default.jpg,2.0,49,,,,,,,,,,,,,,,,,,0.0,9.0,9.0,9.0,1.0,,,,,,,,,,
0.0,1.0,0.959595,,,,,,swing_set_15s.jpg,0.0,clockno_default.jpg,2.0,49,,,,,,,,,,,,,,,,,,0.0,10.0,10.0,10.0,1.0,,,,,,,,,,
0.0,1.0,1.38347,,,,,,pepper2_21s.jpg,0.0,clockno_up.jpg,3.0,49,,,,,,,,,,,,,,,,,,0.0,11.0,11.0,11.0,1.0,,,,,,,,,,
0.0,1.0,0.481435,,,,,,rosary_03s.jpg,0.0,clockno_default.jpg,3.0,49,,,,,,,,,,,,,,,,,,0.0,12.0,12.0,12.0,1.0,,,,,,,,,,
0.0,1.0,0.822635,,,,,,oil_02s.jpg,0.0,clockno_default.jpg,3.0,49,,,,,,,,,,,,,,,,,,0.0,13.0,13.0,13.0,1.0,,,,,,,,,,
0.0,1.0,1.083485,,,,,,swan_11s.jpg,0.0,clockno_default.jpg,3.0,49,,,,,,,,,,,,,,,,,,0.0,14.0,14.0,14.0,1.0,,,,,,,,,,
0.0,1.0,0.640275,,,,,,stamp1_11s.jpg,0.0,clockno_default.jpg,3.0,49,,,,,,,,,,,,,,,,,,0.0,15.0,15.0,15.0,1.0,,,,,,,,,,
0.0,1.0,0.532555,,,,,,contact_lens_15s.jpg,0.0,clockno_default.jpg,3.0,49,,,,,,,,,,,,,,,,,,0.0,16.0,16.0,16.0,1.0,,,,,,,,,,
0.0,1.0,0.485405,,,,,,pocket_watch_16s.jpg,0.0,clockno_default.jpg,3.0,49,,,,,,,,,,,,,,,,,,0.0,17.0,17.0,17.0,1.0,,,,,,,,,,
0.0,1.0,0.585615,,,,,,pie_08s.jpg,0.0,clockno_up.jpg,4.0,49,,,,,,,,,,,,,,,,,,0.0,18.0,18.0,18.0,1.0,,,,,,,,,,
0.0,1.0,1.426645,,,,,,moth_06n.jpg,0.0,clockno_default.jpg,4.0,49,,,,,,,,,,,,,,,,,,0.0,19.0,19.0,19.0,1.0,,,,,,,,,,
1.0,1.0,1.348565,,,,,,moth_06n.jpg,1.0,clockno_default.jpg,4.0,49,,,,,,,,,,,,,,,,,,0.0,20.0,20.0,20.0,1.0,,,,,,,,,,
1.0,1.0,0.9062,,,,,,moth_06n.jpg,1.0,clockno_default.jpg,4.0,49,,,,,,,,,,,,,,,,,,0.0,21.0,21.0,21.0,1.0,,,,,,,,,,
0.0,1.0,0.43008,,,,,,soccer_ball_12s.jpg,0.0,clockno_default.jpg,4.0,49,,,,,,,,,,,,,,,,,,0.0,22.0,22.0,22.0,1.0,,,,,,,,,,
0.0,1.0,0.515015,,,,,,lion_18s.jpg,0.0,clockno_default.jpg,4.0,49,,,,,,,,,,,,,,,,,,0.0,23.0,23.0,23.0,1.0,,,,,,,,,,
1.0,1.0,1.389815,,,,,,soccer_ball_12s.jpg,1.0,clockno_default.jpg,4.0,49,,,,,,,,,,,,,,,,,,0.0,24.0,24.0,24.0,1.0,,,,,,,,,,
0.0,1.0,1.045565,,,,,,tweezers_03s.jpg,0.0,clockno_up.jpg,5.0,49,,,,,,,,,,,,,,,,,,0.0,25.0,25.0,25.0,1.0,,,,,,,,,,
0.0,1.0,0.6173,,,,,,tape_06s.jpg,0.0,clockno_default.jpg,5.0,49,,,,,,,,,,,,,,,,,,0.0,26.0,26.0,26.0,1.0,,,,,,,,,,
0.0,1.0,0.521305,,,,,,olive_05s.jpg,0.0,clockno_default.jpg,5.0,49,,,,,,,,,,,,,,,,,,0.0,27.0,27.0,27.0,1.0,,,,,,,,,,
0.0,1.0,0.847455,,,,,,luggage_08s.jpg,0.0,clockno_default.jpg,5.0,49,,,,,,,,,,,,,,,,,,0.0,28.0,28.0,28.0,1.0,,,,,,,,,,
0.0,1.0,0.948245,,,,,,mailbox_11s.jpg,0.0,clockno_default.jpg,5.0,49,,,,,,,,,,,,,,,,,,0.0,29.0,29.0,29.0,1.0,,,,,,,,,,
0.0,1.0,0.782135,,,,,,denture_03s.jpg,0.0,clockno_up.jpg,6.0,49,,,,,,,,,,,,,,,,,,0.0,30.0,30.0,30.0,1.0,,,,,,,,,,
1.0,1.0,0.768705,,,,,,denture_03s.jpg,1.0,clockno_default.jpg,6.0,49,,,,,,,,,,,,,,,,,,0.0,31.0,31.0,31.0,1.0,,,,,,,,,,
0.0,1.0,0.566015,,,,,,megaphone_03s.jpg,0.0,clockno_default.jpg,6.0,49,,,,,,,,,,,,,,,,,,0.0,32.0,32.0,32.0,1.0,,,,,,,,,,
1.0,1.0,1.333975,,,,,,megaphone_03s.jpg,1.0,clockno_default.jpg,6.0,49,,,,,,,,,,,,,,,,,,0.0,33.0,33.0,33.0,1.0,,,,,,,,,,
0.0,1.0,1.213915,,,,,,basket_05s.jpg,0.0,clockno_default.jpg,6.0,49,,,,,,,,,,,,,,,,,,0.0,34.0,34.0,34.0,1.0,,,,,,,,,,
0.0,1.0,0.647325,,,,,,champagne_18s.jpg,0.0,clockno_default.jpg,6.0,49,,,,,,,,,,,,,,,,,,0.0,35.0,35.0,35.0,1.0,,,,,,,,,,
,,,,,,,,,1.0,,,49,1.0,1.0,1.259155,,,,,,mango_09s.jpg,pepper2_21s.jpg,,,,,,,,,,,,,0.0,0.0,0.0,0.0,1.0,,,,,
,,,,,,,,,1.0,,,49,0.0,0.0,1.163795,,,,,,swing_set_15s.jpg,oil_02s.jpg,,,,,,,,,,,,,0.0,1.0,1.0,1.0,1.0,,,,,
,,,,,,,,,0.0,,,49,1.0,0.0,1.152835,,,,,,pie_08s.jpg,stamp1_11s.jpg,,,,,,,,,,,,,0.0,2.0,2.0,2.0,1.0,,,,,
,,,,,,,,,0.0,,,49,1.0,0.0,0.882725,,,,,,pocket_watch_16s.jpg,swan_11s.jpg,,,,,,,,,,,,,0.0,3.0,3.0,3.0,1.0,,,,,
,,,,,,,,,0.0,,,49,1.0,0.0,1.09474,,,,,,luggage_08s.jpg,tweezers_03s.jpg,,,,,,,,,,,,,0.0,4.0,4.0,4.0,1.0,,,,,
,,,,,,,,,1.0,,,49,1.0,1.0,0.85056,,,,,,blazer_02s.jpg,badge_03s.jpg,,,,,,,,,,,,,0.0,5.0,5.0,5.0,1.0,,,,,
,,,,,,,,,,,,49,,,,,,,,,,,,,,,,clockno_present_1_10.xlsx,clockno_compare_task_1_10.xlsx,,,,,,,,,,,0.0,0.0,0.0,0.0,1.0
0.0,1.0,1.070385,,,,,,juicer2_06s.jpg,0.0,clockno_up.jpg,1.0,49,,,,,,,,,,,,,,,,,,0.0,0.0,0.0,0.0,1.0,,,,,,,,,,
1.0,1.0,0.457515,,,,,,juicer2_06s.jpg,1.0,clockno_default.jpg,1.0,49,,,,,,,,,,,,,,,,,,0.0,1.0,1.0,1.0,1.0,,,,,,,,,,
0.0,1.0,0.432825,,,,,,pipe1_10s.jpg,0.0,clockno_default.jpg,1.0,49,,,,,,,,,,,,,,,,,,0.0,2.0,2.0,2.0,1.0,,,,,,,,,,
0.0,1.0,1.195265,,,,,,key_07s.jpg,0.0,clockno_default.jpg,1.0,49,,,,,,,,,,,,,,,,,,0.0,3.0,3.0,3.0,1.0,,,,,,,,,,
1.0,1.0,0.62725,,,,,,pipe1_10s.jpg,1.0,clockno_default.jpg,1.0,49,,,,,,,,,,,,,,,,,,0.0,4.0,4.0,4.0,1.0,,,,,,,,,,
0.0,1.0,0.506615,,,,,,rug_09s.jpg,0.0,clockno_default.jpg,1.0,49,,,,,,,,,,,,,,,,,,0.0,5.0,5.0,5.0,1.0,,,,,,,,,,
0.0,1.0,0.815215,,,,,,fireworks_18s.jpg,0.0,clockno_default.jpg,1.0,49,,,,,,,,,,,,,,,,,,0.0,6.0,6.0,6.0,1.0,,,,,,,,,,
0.0,1.0,1.32911,,,,,,toilet_paper_12s.jpg,0.0,clockno_up.jpg,2.0,49,,,,,,,,,,,,,,,,,,0.0,7.0,7.0,7.0,1.0,,,,,,,,,,
0.0,1.0,0.60713,,,,,,coat_rack_01b.jpg,0.0,clockno_default.jpg,2.0,49,,,,,,,,,,,,,,,,,,0.0,8.0,8.0,8.0,1.0,,,,,,,,,,
0.0,1.0,0.44526,,,,,,jewel_01b.jpg,0.0,clockno_default.jpg,2.0,49,,,,,,,,,,,,,,,,,,0.0,9.0,9.0,9.0,1.0,,,,,,,,,,
0.0,1.0,0.6723,,,,,,stapler_01b.jpg,0.0,clockno_default.jpg,2.0,49,,,,,,,,,,,,,,,,,,0.0,10.0,10.0,10.0,1.0,,,,,,,,,,
0.0,1.0,0.761305,,,,,,mop_08s.jpg,0.0,clockno_default.jpg,2.0,49,,,,,,,,,,,,,,,,,,0.0,11.0,11.0,11.0,1.0,,,,,,,,,,
0.0,1.0,0.44191,,,,,,punch1_10s.jpg,0.0,clockno_default.jpg,2.0,49,,,,,,,,,,,,,,,,,,0.0,12.0,12.0,12.0,1.0,,,,,,,,,,
0.0,1.0,0.894595,,,,,,safety_pin_02s.jpg,0.0,clockno_up.jpg,3.0,49,,,,,,,,,,,,,,,,,,0.0,13.0,13.0,13.0,1.0,,,,,,,,,,
0.0,1.0,0.60231,,,,,,icemaker_10s.jpg,0.0,clockno_default.jpg,3.0,49,,,,,,,,,,,,,,,,,,0.0,14.0,14.0,14.0,1.0,,,,,,,,,,
0.0,1.0,0.7872,,,,,,loom_05s.jpg,0.0,clockno_default.jpg,3.0,49,,,,,,,,,,,,,,,,,,0.0,15.0,15.0,15.0,1.0,,,,,,,,,,
0.0,1.0,0.77391,,,,,,pipe1_10s.jpg,0.0,clockno_default.jpg,3.0,49,,,,,,,,,,,,,,,,,,0.0,16.0,16.0,16.0,1.0,,,,,,,,,,
0.0,1.0,0.60072,,,,,,pillow_03s.jpg,0.0,clockno_default.jpg,3.0,49,,,,,,,,,,,,,,,,,,0.0,17.0,17.0,17.0,1.0,,,,,,,,,,
0.0,1.0,1.204785,,,,,,punch2_09s.jpg,0.0,clockno_default.jpg,3.0,49,,,,,,,,,,,,,,,,,,0.0,18.0,18.0,18.0,1.0,,,,,,,,,,
0.0,1.0,0.538375,,,,,,ravioli_08s.jpg,0.0,clockno_up.jpg,4.0,49,,,,,,,,,,,,,,,,,,0.0,19.0,19.0,19.0,1.0,,,,,,,,,,
0.0,1.0,1.6443,,,,,,key_07s.jpg,0.0,clockno_default.jpg,4.0,49,,,,,,,,,,,,,,,,,,0.0,20.0,20.0,20.0,1.0,,,,,,,,,,
0.0,1.0,1.20239,,,,,,light_switch_02s.jpg,0.0,clockno_default.jpg,4.0,49,,,,,,,,,,,,,,,,,,0.0,21.0,21.0,21.0,1.0,,,,,,,,,,
0.0,1.0,0.995775,,,,,,birthday_cake_09s.jpg,0.0,clockno_default.jpg,4.0,49,,,,,,,,,,,,,,,,,,0.0,22.0,22.0,22.0,1.0,,,,,,,,,,
0.0,1.0,0.504855,,,,,,foam_03s.jpg,0.0,clockno_default.jpg,4.0,49,,,,,,,,,,,,,,,,,,0.0,23.0,23.0,23.0,1.0,,,,,,,,,,
0.0,1.0,0.50455,,,,,,meatball_13s.jpg,0.0,clockno_up.jpg,5.0,49,,,,,,,,,,,,,,,,,,0.0,24.0,24.0,24.0,1.0,,,,,,,,,,
0.0,1.0,0.725085,,,,,,screwdriver02a.jpg,0.0,clockno_default.jpg,5.0,49,,,,,,,,,,,,,,,,,,0.0,25.0,25.0,25.0,1.0,,,,,,,,,,
0.0,1.0,2.004025,,,,,,jewel_01b.jpg,0.0,clockno_default.jpg,5.0,49,,,,,,,,,,,,,,,,,,0.0,26.0,26.0,26.0,1.0,,,,,,,,,,
0.0,0.0,1.267915,,,,,,meatball_13s.jpg,1.0,clockno_default.jpg,5.0,49,,,,,,,,,,,,,,,,,,0.0,27.0,27.0,27.0,1.0,,,,,,,,,,
0.0,0.0,0.728055,,,,,,screwdriver02a.jpg,1.0,clockno_default.jpg,5.0,49,,,,,,,,,,,,,,,,,,0.0,28.0,28.0,28.0,1.0,,,,,,,,,,
0.0,1.0,0.386155,,,,,,jersey_02s.jpg,0.0,clockno_default.jpg,5.0,49,,,,,,,,,,,,,,,,,,0.0,29.0,29.0,29.0,1.0,,,,,,,,,,
0.0,1.0,2.03496,,,,,,jukebox_03n.jpg,0.0,clockno_default.jpg,5.0,49,,,,,,,,,,,,,,,,,,0.0,30.0,30.0,30.0,1.0,,,,,,,,,,
0.0,1.0,1.9277,,,,,,mousetrap_15n.jpg,0.0,clockno_up.jpg,6.0,49,,,,,,,,,,,,,,,,,,0.0,31.0,31.0,31.0,1.0,,,,,,,,,,
0.0,1.0,1.86441,,,,,,bank_06s.jpg,0.0,clockno_default.jpg,6.0,49,,,,,,,,,,,,,,,,,,0.0,32.0,32.0,32.0,1.0,,,,,,,,,,
0.0,1.0,2.234745,,,,,,laundry_basket_11s.jpg,0.0,clockno_default.jpg,6.0,49,,,,,,,,,,,,,,,,,,0.0,33.0,33.0,33.0,1.0,,,,,,,,,,
0.0,1.0,1.51553,,,,,,margarita_03s.jpg,0.0,clockno_default.jpg,6.0,49,,,,,,,,,,,,,,,,,,0.0,34.0,34.0,34.0,1.0,,,,,,,,,,
0.0,1.0,1.328795,,,,,,sundae_08s.jpg,0.0,clockno_default.jpg,6.0,49,,,,,,,,,,,,,,,,,,0.0,35.0,35.0,35.0,1.0,,,,,,,,,,
,,,,,,,,,1.0,,,49,1.0,1.0,2.215665,,,,,,jukebox_03n.jpg,laundry_basket_11s.jpg,,,,,,,,,,,,,0.0,0.0,0.0,0.0,1.0,,,,,
,,,,,,,,,0.0,,,49,1.0,0.0,0.839395,,,,,,coat_rack_01b.jpg,rug_09s.jpg,,,,,,,,,,,,,0.0,1.0,1.0,1.0,1.0,,,,,
,,,,,,,,,0.0,,,49,0.0,1.0,1.081125,,,,,,safety_pin_02s.jpg,stapler_01b.jpg,,,,,,,,,,,,,0.0,2.0,2.0,2.0,1.0,,,,,
,,,,,,,,,0.0,,,49,1.0,0.0,0.79919,,,,,,birthday_cake_09s.jpg,ravioli_08s.jpg,,,,,,,,,,,,,0.0,3.0,3.0,3.0,1.0,,,,,
,,,,,,,,,1.0,,,49,0.0,0.0,0.93163,,,,,,mousetrap_15n.jpg,margarita_03s.jpg,,,,,,,,,,,,,0.0,4.0,4.0,4.0,1.0,,,,,
,,,,,,,,,0.0,,,49,1.0,0.0,0.86345,,,,,,pillow_03s.jpg,icemaker_10s.jpg,,,,,,,,,,,,,0.0,5.0,5.0,5.0,1.0,,,,,
,,,,,,,,,,,,49,,,,,,,,,,,,,,,,clockno_present_2_10.xlsx,clockno_compare_task_2_10.xlsx,,,,,,,,,,,0.0,1.0,1.0,1.0,1.0
0.0,1.0,0.507535,,,,,,crayon_09s.jpg,0.0,clock_7_1.png,1.0,49,,,,,,,,,,,,,,,,,,0.0,0.0,0.0,0.0,1.0,,,,,,,,,,
0.0,1.0,0.827905,,,,,,trident_07s.jpg,0.0,clock_7_2.png,1.0,49,,,,,,,,,,,,,,,,,,0.0,1.0,1.0,1.0,1.0,,,,,,,,,,
0.0,1.0,0.652245,,,,,,paintbrush_04s.jpg,0.0,clock_7_3.png,1.0,49,,,,,,,,,,,,,,,,,,0.0,2.0,2.0,2.0,1.0,,,,,,,,,,
1.0,1.0,1.242565,,,,,,paintbrush_04s.jpg,1.0,clock_7_4.png,1.0,49,,,,,,,,,,,,,,,,,,0.0,3.0,3.0,3.0,1.0,,,,,,,,,,
0.0,0.0,1.464995,,,,,,crayon_09s.jpg,1.0,clock_7_5.png,1.0,49,,,,,,,,,,,,,,,,,,0.0,4.0,4.0,4.0,1.0,,,,,,,,,,
0.0,1.0,0.729995,,,,,,dashboard_02s.jpg,0.0,clock_7_6.png,1.0,49,,,,,,,,,,,,,,,,,,0.0,5.0,5.0,5.0,1.0,,,,,,,,,,
0.0,1.0,0.636425,,,,,,laser_pointer_02s.jpg,0.0,clock_7_7.png,1.0,49,,,,,,,,,,,,,,,,,,0.0,6.0,6.0,6.0,1.0,,,,,,,,,,
0.0,1.0,0.693545,,,,,,icicle_04s.jpg,0.0,clock_6_1.png,2.0,49,,,,,,,,,,,,,,,,,,0.0,7.0,7.0,7.0,1.0,,,,,,,,,,
0.0,1.0,1.34619,,,,,,cereal_04s.jpg,0.0,clock_6_2.png,2.0,49,,,,,,,,,,,,,,,,,,0.0,8.0,8.0,8.0,1.0,,,,,,,,,,
0.0,1.0,0.652185,,,,,,teabag_12s.jpg,0.0,clock_6_3.png,2.0,49,,,,,,,,,,,,,,,,,,0.0,9.0,9.0,9.0,1.0,,,,,,,,,,
0.0,1.0,0.603135,,,,,,iron_13s.jpg,0.0,clock_6_4.png,2.0,49,,,,,,,,,,,,,,,,,,0.0,10.0,10.0,10.0,1.0,,,,,,,,,,
1.0,1.0,1.98088,,,,,,teabag_12s.jpg,1.0,clock_6_5.png,2.0,49,,,,,,,,,,,,,,,,,,0.0,11.0,11.0,11.0,1.0,,,,,,,,,,
1.0,1.0,1.444065,,,,,,cereal_04s.jpg,1.0,clock_6_6.png,2.0,49,,,,,,,,,,,,,,,,,,0.0,12.0,12.0,12.0,1.0,,,,,,,,,,
0.0,1.0,0.72294,,,,,,coral_08s.jpg,0.0,clock_5_1.png,3.0,49,,,,,,,,,,,,,,,,,,0.0,13.0,13.0,13.0,1.0,,,,,,,,,,
0.0,1.0,0.762215,,,,,,tape_measure_11s.jpg,0.0,clock_5_2.png,3.0,49,,,,,,,,,,,,,,,,,,0.0,14.0,14.0,14.0,1.0,,,,,,,,,,
0.0,1.0,0.640165,,,,,,chocolate_01b.jpg,0.0,clock_5_3.png,3.0,49,,,,,,,,,,,,,,,,,,0.0,15.0,15.0,15.0,1.0,,,,,,,,,,
0.0,1.0,0.967675,,,,,,iron_13s.jpg,0.0,clock_5_4.png,3.0,49,,,,,,,,,,,,,,,,,,0.0,16.0,16.0,16.0,1.0,,,,,,,,,,
0.0,0.0,0.385605,,,,,,coral_08s.jpg,1.0,clock_5_5.png,3.0,49,,,,,,,,,,,,,,,,,,0.0,17.0,17.0,17.0,1.0,,,,,,,,,,
0.0,1.0,1.01523,,,,,,turnstile_08s.jpg,0.0,clock_6_1.png,4.0,49,,,,,,,,,,,,,,,,,,0.0,18.0,18.0,18.0,1.0,,,,,,,,,,
0.0,1.0,0.638515,,,,,,sparkler_02s.jpg,0.0,clock_6_2.png,4.0,49,,,,,,,,,,,,,,,,,,0.0,19.0,19.0,19.0,1.0,,,,,,,,,,
0.0,1.0,1.17397,,,,,,inhaler_01b.jpg,0.0,clock_6_3.png,4.0,49,,,,,,,,,,,,,,,,,,0.0,20.0,20.0,20.0,1.0,,,,,,,,,,
0.0,1.0,0.904135,,,,,,pencil02a.jpg,0.0,clock_6_4.png,4.0,49,,,,,,,,,,,,,,,,,,0.0,21.0,21.0,21.0,1.0,,,,,,,,,,
0.0,1.0,1.272145,,,,,,bubble_01b.jpg,0.0,clock_6_5.png,4.0,49,,,,,,,,,,,,,,,,,,0.0,22.0,22.0,22.0,1.0,,,,,,,,,,
0.0,1.0,2.015385,,,,,,emerald_02s.jpg,0.0,clock_6_6.png,4.0,49,,,,,,,,,,,,,,,,,,0.0,23.0,23.0,23.0,1.0,,,,,,,,,,
0.0,1.0,1.112715,,,,,,insole_11s.jpg,0.0,clock_7_1.png,5.0,49,,,,,,,,,,,,,,,,,,0.0,24.0,24.0,24.0,1.0,,,,,,,,,,
0.0,1.0,1.330965,,,,,,crayon_09s.jpg,0.0,clock_7_2.png,5.0,49,,,,,,,,,,,,,,,,,,0.0,25.0,25.0,25.0,1.0,,,,,,,,,,
0.0,1.0,1.217345,,,,,,chocolate_01b.jpg,0.0,clock_7_3.png,5.0,49,,,,,,,,,,,,,,,,,,0.0,26.0,26.0,26.0,1.0,,,,,,,,,,
0.0,1.0,1.066375,,,,,,boar_10s.jpg,0.0,clock_7_4.png,5.0,49,,,,,,,,,,,,,,,,,,0.0,27.0,27.0,27.0,1.0,,,,,,,,,,
0.0,1.0,0.848925,,,,,,poinsettia_04s.jpg,0.0,clock_7_5.png,5.0,49,,,,,,,,,,,,,,,,,,0.0,28.0,28.0,28.0,1.0,,,,,,,,,,
0.0,1.0,2.01417,,,,,,bean_06s.jpg,0.0,clock_7_6.png,5.0,49,,,,,,,,,,,,,,,,,,0.0,29.0,29.0,29.0,1.0,,,,,,,,,,
0.0,1.0,1.016905,,,,,,stethoscope_01b.jpg,0.0,clock_7_7.png,5.0,49,,,,,,,,,,,,,,,,,,0.0,30.0,30.0,30.0,1.0,,,,,,,,,,
0.0,1.0,0.6605,,,,,,rice_12s.jpg,0.0,clock_5_1.png,6.0,49,,,,,,,,,,,,,,,,,,0.0,31.0,31.0,31.0,1.0,,,,,,,,,,
0.0,1.0,0.61741,,,,,,camcorder_10s.jpg,0.0,clock_5_2.png,6.0,49,,,,,,,,,,,,,,,,,,0.0,32.0,32.0,32.0,1.0,,,,,,,,,,
0.0,1.0,0.776705,,,,,,glasses01a.jpg,0.0,clock_5_3.png,6.0,49,,,,,,,,,,,,,,,,,,0.0,33.0,33.0,33.0,1.0,,,,,,,,,,
0.0,1.0,1.17174,,,,,,kayak_08s.jpg,0.0,clock_5_4.png,6.0,49,,,,,,,,,,,,,,,,,,0.0,34.0,34.0,34.0,1.0,,,,,,,,,,
0.0,1.0,0.665895,,,,,,triangle_10s.jpg,0.0,clock_5_5.png,6.0,49,,,,,,,,,,,,,,,,,,0.0,35.0,35.0,35.0,1.0,,,,,,,,,,
,,,,,,,,,1.0,,,49,1.0,1.0,1.584945,,,,,,poinsettia_04s.jpg,rice_12s.jpg,,,,,,,,,,,,,0.0,0.0,0.0,0.0,1.0,,,,,
,,,,,,,,,1.0,,,49,0.0,0.0,1.262865,,,,,,bean_06s.jpg,camcorder_10s.jpg,,,,,,,,,,,,,0.0,1.0,1.0,1.0,1.0,,,,,
,,,,,,,,,1.0,,,49,1.0,1.0,1.03858,,,,,,stethoscope_01b.jpg,glasses01a.jpg,,,,,,,,,,,,,0.0,2.0,2.0,2.0,1.0,,,,,
,,,,,,,,,1.0,,,49,1.0,1.0,0.717,,,,,,sparkler_02s.jpg,bubble_01b.jpg,,,,,,,,,,,,,0.0,3.0,3.0,3.0,1.0,,,,,
,,,,,,,,,0.0,,,49,0.0,1.0,0.99015,,,,,,emerald_02s.jpg,inhaler_01b.jpg,,,,,,,,,,,,,0.0,4.0,4.0,4.0,1.0,,,,,
,,,,,,,,,0.0,,,49,0.0,1.0,0.834645,,,,,,pencil02a.jpg,turnstile_08s.jpg,,,,,,,,,,,,,0.0,5.0,5.0,5.0,1.0,,,,,
,,,,,,,,,,,,49,,,,,,,,,,,,,,,,clockno_present_3_10.xlsx,clockno_compare_task_3_10.xlsx,,,,,,,,,,,0.0,2.0,2.0,2.0,1.0
0.0,1.0,0.56608,,,,,,quad_04s.jpg,0.0,clockno_up.jpg,1.0,49,,,,,,,,,,,,,,,,,,0.0,0.0,0.0,0.0,1.0,,,,,,,,,,
1.0,1.0,0.86953,,,,,,quad_04s.jpg,1.0,clockno_default.jpg,1.0,49,,,,,,,,,,,,,,,,,,0.0,1.0,1.0,1.0,1.0,,,,,,,,,,
0.0,1.0,0.7771,,,,,,butter_14s.jpg,0.0,clockno_default.jpg,1.0,49,,,,,,,,,,,,,,,,,,0.0,2.0,2.0,2.0,1.0,,,,,,,,,,
0.0,1.0,1.10028,,,,,,cardinal_07s.jpg,0.0,clockno_default.jpg,1.0,49,,,,,,,,,,,,,,,,,,0.0,3.0,3.0,3.0,1.0,,,,,,,,,,
0.0,1.0,0.656305,,,,,,piano_13n.jpg,0.0,clockno_default.jpg,1.0,49,,,,,,,,,,,,,,,,,,0.0,4.0,4.0,4.0,1.0,,,,,,,,,,
0.0,1.0,1.29455,,,,,,sunglasses_11s.jpg,0.0,clockno_up.jpg,2.0,49,,,,,,,,,,,,,,,,,,0.0,5.0,5.0,5.0,1.0,,,,,,,,,,
0.0,1.0,2.10792,,,,,,piano_13n.jpg,0.0,clockno_default.jpg,2.0,49,,,,,,,,,,,,,,,,,,0.0,6.0,6.0,6.0,1.0,,,,,,,,,,
0.0,1.0,0.991655,,,,,,bacon_05s.jpg,0.0,clockno_default.jpg,2.0,49,,,,,,,,,,,,,,,,,,0.0,7.0,7.0,7.0,1.0,,,,,,,,,,
0.0,1.0,1.24921,,,,,,jet_15s.jpg,0.0,clockno_default.jpg,2.0,49,,,,,,,,,,,,,,,,,,0.0,8.0,8.0,8.0,1.0,,,,,,,,,,
1.0,1.0,1.67353,,,,,,jet_15s.jpg,1.0,clockno_default.jpg,2.0,49,,,,,,,,,,,,,,,,,,0.0,9.0,9.0,9.0,1.0,,,,,,,,,,
0.0,1.0,1.31496,,,,,,ukulele_02s.jpg,0.0,clockno_default.jpg,2.0,49,,,,,,,,,,,,,,,,,,0.0,10.0,10.0,10.0,1.0,,,,,,,,,,
0.0,0.0,0.92335,,,,,,jet_15s.jpg,1.0,clockno_default.jpg,2.0,49,,,,,,,,,,,,,,,,,,0.0,11.0,11.0,11.0,1.0,,,,,,,,,,
0.0,1.0,1.85622,,,,,,mask_09s.jpg,0.0,clockno_up.jpg,3.0,49,,,,,,,,,,,,,,,,,,0.0,12.0,12.0,12.0,1.0,,,,,,,,,,
0.0,1.0,0.591215,,,,,,treadmill_06s.jpg,0.0,clockno_default.jpg,3.0,49,,,,,,,,,,,,,,,,,,0.0,13.0,13.0,13.0,1.0,,,,,,,,,,
0.0,1.0,0.433165,,,,,,fondue_07s.jpg,0.0,clockno_default.jpg,3.0,49,,,,,,,,,,,,,,,,,,0.0,14.0,14.0,14.0,1.0,,,,,,,,,,
0.0,1.0,1.021735,,,,,,mold2_04s.jpg,0.0,clockno_default.jpg,3.0,49,,,,,,,,,,,,,,,,,,0.0,15.0,15.0,15.0,1.0,,,,,,,,,,
1.0,1.0,1.88118,,,,,,mold2_04s.jpg,1.0,clockno_default.jpg,3.0,49,,,,,,,,,,,,,,,,,,0.0,16.0,16.0,16.0,1.0,,,,,,,,,,
0.0,1.0,1.891635,,,,,,joystick_01b.jpg,0.0,clockno_up.jpg,4.0,49,,,,,,,,,,,,,,,,,,0.0,17.0,17.0,17.0,1.0,,,,,,,,,,
0.0,1.0,1.140925,,,,,,road_sign_05s.jpg,0.0,clockno_default.jpg,4.0,49,,,,,,,,,,,,,,,,,,0.0,18.0,18.0,18.0,1.0,,,,,,,,,,
0.0,1.0,0.63899,,,,,,rabbit_03s.jpg,0.0,clockno_default.jpg,4.0,49,,,,,,,,,,,,,,,,,,0.0,19.0,19.0,19.0,1.0,,,,,,,,,,
1.0,0.0,0.747595,,,,,,mold2_04s.jpg,0.0,clockno_default.jpg,4.0,49,,,,,,,,,,,,,,,,,,0.0,20.0,20.0,20.0,1.0,,,,,,,,,,
0.0,0.0,1.24537,,,,,,joystick_01b.jpg,1.0,clockno_default.jpg,4.0,49,,,,,,,,,,,,,,,,,,0.0,21.0,21.0,21.0,1.0,,,,,,,,,,
0.0,0.0,2.291885,,,,,,rabbit_03s.jpg,1.0,clockno_default.jpg,4.0,49,,,,,,,,,,,,,,,,,,0.0,22.0,22.0,22.0,1.0,,,,,,,,,,
,0.0,,,,,,,cap_05s.jpg,0.0,clockno_up.jpg,5.0,49,,,,,,,,,,,,,,,,,,0.0,23.0,23.0,23.0,1.0,,,,,,,,,,
0.0,1.0,1.502175,,,,,,doily_13s.jpg,0.0,clockno_default.jpg,5.0,49,,,,,,,,,,,,,,,,,,0.0,24.0,24.0,24.0,1.0,,,,,,,,,,
0.0,1.0,1.317395,,,,,,ironing_board_07s.jpg,0.0,clockno_default.jpg,5.0,49,,,,,,,,,,,,,,,,,,0.0,25.0,25.0,25.0,1.0,,,,,,,,,,
1.0,1.0,1.080335,,,,,,doily_13s.jpg,1.0,clockno_default.jpg,5.0,49,,,,,,,,,,,,,,,,,,0.0,26.0,26.0,26.0,1.0,,,,,,,,,,
0.0,1.0,0.735615,,,,,,lavender_10s.jpg,0.0,clockno_default.jpg,5.0,49,,,,,,,,,,,,,,,,,,0.0,27.0,27.0,27.0,1.0,,,,,,,,,,
0.0,1.0,0.391955,,,,,,kilt_18s.jpg,0.0,clockno_default.jpg,5.0,49,,,,,,,,,,,,,,,,,,0.0,28.0,28.0,28.0,1.0,,,,,,,,,,
0.0,1.0,0.64621,,,,,,peach_04s.jpg,0.0,clockno_default.jpg,5.0,49,,,,,,,,,,,,,,,,,,0.0,29.0,29.0,29.0,1.0,,,,,,,,,,
0.0,1.0,1.371835,,,,,,espresso_01b.jpg,0.0,clockno_up.jpg,6.0,49,,,,,,,,,,,,,,,,,,0.0,30.0,30.0,30.0,1.0,,,,,,,,,,
0.0,1.0,0.976,,,,,,coconut_08s.jpg,0.0,clockno_default.jpg,6.0,49,,,,,,,,,,,,,,,,,,0.0,31.0,31.0,31.0,1.0,,,,,,,,,,
0.0,1.0,1.96826,,,,,,slingshot_07s.jpg,0.0,clockno_default.jpg,6.0,49,,,,,,,,,,,,,,,,,,0.0,32.0,32.0,32.0,1.0,,,,,,,,,,
0.0,1.0,1.364665,,,,,,swordfish_05s.jpg,0.0,clockno_default.jpg,6.0,49,,,,,,,,,,,,,,,,,,0.0,33.0,33.0,33.0,1.0,,,,,,,,,,
0.0,1.0,0.53952,,,,,,tile_08s.jpg,0.0,clockno_default.jpg,6.0,49,,,,,,,,,,,,,,,,,,0.0,34.0,34.0,34.0,1.0,,,,,,,,,,
0.0,1.0,0.714755,,,,,,footprint_11s.jpg,0.0,clockno_default.jpg,6.0,49,,,,,,,,,,,,,,,,,,0.0,35.0,35.0,35.0,1.0,,,,,,,,,,
,,,,,,,,,0.0,,,49,1.0,0.0,1.16793,,,,,,sunglasses_11s.jpg,butter_14s.jpg,,,,,,,,,,,,,0.0,0.0,0.0,0.0,1.0,,,,,
,,,,,,,,,0.0,,,49,1.0,0.0,1.064285,,,,,,treadmill_06s.jpg,ukulele_02s.jpg,,,,,,,,,,,,,0.0,1.0,1.0,1.0,1.0,,,,,
,,,,,,,,,1.0,,,49,1.0,1.0,1.265245,,,,,,lavender_10s.jpg,espresso_01b.jpg,,,,,,,,,,,,,0.0,2.0,2.0,2.0,1.0,,,,,
,,,,,,,,,1.0,,,49,1.0,1.0,1.097885,,,,,,ironing_board_07s.jpg,kilt_18s.jpg,,,,,,,,,,,,,0.0,3.0,3.0,3.0,1.0,,,,,
,,,,,,,,,0.0,,,49,1.0,0.0,0.97592,,,,,,tile_08s.jpg,coconut_08s.jpg,,,,,,,,,,,,,0.0,4.0,4.0,4.0,1.0,,,,,
,,,,,,,,,0.0,,,49,0.0,1.0,1.089855,,,,,,footprint_11s.jpg,slingshot_07s.jpg,,,,,,,,,,,,,0.0,5.0,5.0,5.0,1.0,,,,,
,,,,,,,,,,,,49,,,,,,,,,,,,,,,,clockno_present_4_10.xlsx,clockno_compare_task_4_10.xlsx,,,,,,,,,,,0.0,3.0,3.0,3.0,1.0
0.0,1.0,1.362875,,,,,,pantyhose_07s.jpg,0.0,clockno_up.jpg,1.0,49,,,,,,,,,,,,,,,,,,0.0,0.0,0.0,0.0,1.0,,,,,,,,,,
0.0,1.0,1.22566,,,,,,chime_12s.jpg,0.0,clockno_default.jpg,1.0,49,,,,,,,,,,,,,,,,,,0.0,1.0,1.0,1.0,1.0,,,,,,,,,,
0.0,1.0,0.629005,,,,,,smoothie_09s.jpg,0.0,clockno_default.jpg,1.0,49,,,,,,,,,,,,,,,,,,0.0,2.0,2.0,2.0,1.0,,,,,,,,,,
0.0,1.0,0.9242,,,,,,tie_03s.jpg,0.0,clockno_default.jpg,1.0,49,,,,,,,,,,,,,,,,,,0.0,3.0,3.0,3.0,1.0,,,,,,,,,,
0.0,1.0,0.556645,,,,,,frame_06s.jpg,0.0,clockno_default.jpg,1.0,49,,,,,,,,,,,,,,,,,,0.0,4.0,4.0,4.0,1.0,,,,,,,,,,
0.0,1.0,0.847765,,,,,,memory_stick_11s.jpg,0.0,clockno_default.jpg,1.0,49,,,,,,,,,,,,,,,,,,0.0,5.0,5.0,5.0,1.0,,,,,,,,,,
0.0,1.0,0.758355,,,,,,limousine_12s.jpg,0.0,clockno_default.jpg,1.0,49,,,,,,,,,,,,,,,,,,0.0,6.0,6.0,6.0,1.0,,,,,,,,,,
0.0,1.0,0.55678,,,,,,pineapple_12s.jpg,0.0,clockno_up.jpg,2.0,49,,,,,,,,,,,,,,,,,,0.0,7.0,7.0,7.0,1.0,,,,,,,,,,
0.0,1.0,0.59249,,,,,,stopwatch_04s.jpg,0.0,clockno_default.jpg,2.0,49,,,,,,,,,,,,,,,,,,0.0,8.0,8.0,8.0,1.0,,,,,,,,,,
1.0,1.0,0.79468,,,,,,pineapple_12s.jpg,1.0,clockno_default.jpg,2.0,49,,,,,,,,,,,,,,,,,,0.0,9.0,9.0,9.0,1.0,,,,,,,,,,
,0.0,,,,,,,squirrel_02s.jpg,0.0,clockno_default.jpg,2.0,49,,,,,,,,,,,,,,,,,,0.0,10.0,10.0,10.0,1.0,,,,,,,,,,
0.0,1.0,0.42466,,,,,,puddle_02s.jpg,0.0,clockno_default.jpg,2.0,49,,,,,,,,,,,,,,,,,,0.0,11.0,11.0,11.0,1.0,,,,,,,,,,
0.0,1.0,0.617335,,,,,,gas_mask_11s.jpg,0.0,clockno_default.jpg,2.0,49,,,,,,,,,,,,,,,,,,0.0,12.0,12.0,12.0,1.0,,,,,,,,,,
0.0,1.0,0.59341,,,,,,golf_club_03s.jpg,0.0,clockno_default.jpg,2.0,49,,,,,,,,,,,,,,,,,,0.0,13.0,13.0,13.0,1.0,,,,,,,,,,
0.0,1.0,0.64779,,,,,,rake_06s.jpg,0.0,clockno_up.jpg,3.0,49,,,,,,,,,,,,,,,,,,0.0,14.0,14.0,14.0,1.0,,,,,,,,,,
1.0,1.0,1.66066,,,,,,rake_06s.jpg,1.0,clockno_default.jpg,3.0,49,,,,,,,,,,,,,,,,,,0.0,15.0,15.0,15.0,1.0,,,,,,,,,,
0.0,1.0,0.943855,,,,,,snowman_02s.jpg,0.0,clockno_default.jpg,3.0,49,,,,,,,,,,,,,,,,,,0.0,16.0,16.0,16.0,1.0,,,,,,,,,,
0.0,1.0,0.725195,,,,,,buoy_04s.jpg,0.0,clockno_default.jpg,3.0,49,,,,,,,,,,,,,,,,,,0.0,17.0,17.0,17.0,1.0,,,,,,,,,,
0.0,1.0,0.659345,,,,,,crate_05s.jpg,0.0,clockno_default.jpg,3.0,49,,,,,,,,,,,,,,,,,,0.0,18.0,18.0,18.0,1.0,,,,,,,,,,
0.0,1.0,0.642255,,,,,,fork_04s.jpg,0.0,clockno_up.jpg,4.0,49,,,,,,,,,,,,,,,,,,0.0,19.0,19.0,19.0,1.0,,,,,,,,,,
1.0,1.0,2.12015,,,,,,fork_04s.jpg,1.0,clockno_default.jpg,4.0,49,,,,,,,,,,,,,,,,,,0.0,20.0,20.0,20.0,1.0,,,,,,,,,,
0.0,1.0,1.00821,,,,,,frog_09s.jpg,0.0,clockno_default.jpg,4.0,49,,,,,,,,,,,,,,,,,,0.0,21.0,21.0,21.0,1.0,,,,,,,,,,
0.0,1.0,0.500765,,,,,,flip_flop_03s.jpg,0.0,clockno_default.jpg,4.0,49,,,,,,,,,,,,,,,,,,0.0,22.0,22.0,22.0,1.0,,,,,,,,,,
0.0,1.0,0.503195,,,,,,lamp_08s.jpg,0.0,clockno_default.jpg,4.0,49,,,,,,,,,,,,,,,,,,0.0,23.0,23.0,23.0,1.0,,,,,,,,,,
0.0,1.0,0.906295,,,,,,playpen_11s.jpg,0.0,clockno_default.jpg,4.0,49,,,,,,,,,,,,,,,,,,0.0,24.0,24.0,24.0,1.0,,,,,,,,,,
0.0,1.0,0.65631,,,,,,crystal_ball_12s.jpg,0.0,clockno_up.jpg,5.0,49,,,,,,,,,,,,,,,,,,0.0,25.0,25.0,25.0,1.0,,,,,,,,,,
0.0,1.0,1.19757,,,,,,ram_05s.jpg,0.0,clockno_default.jpg,5.0,49,,,,,,,,,,,,,,,,,,0.0,26.0,26.0,26.0,1.0,,,,,,,,,,
0.0,1.0,0.646725,,,,,,teacup_07s.jpg,0.0,clockno_default.jpg,5.0,49,,,,,,,,,,,,,,,,,,0.0,27.0,27.0,27.0,1.0,,,,,,,,,,
0.0,1.0,0.798945,,,,,,beaker_01b.jpg,0.0,clockno_default.jpg,5.0,49,,,,,,,,,,,,,,,,,,0.0,28.0,28.0,28.0,1.0,,,,,,,,,,
0.0,0.0,0.691105,,,,,,ram_05s.jpg,1.0,clockno_default.jpg,5.0,49,,,,,,,,,,,,,,,,,,0.0,29.0,29.0,29.0,1.0,,,,,,,,,,
0.0,1.0,0.385915,,,,,,bottle_opener_11s.jpg,0.0,clockno_up.jpg,6.0,49,,,,,,,,,,,,,,,,,,0.0,30.0,30.0,30.0,1.0,,,,,,,,,,
0.0,1.0,0.601535,,,,,,pinwheel_06s.jpg,0.0,clockno_default.jpg,6.0,49,,,,,,,,,,,,,,,,,,0.0,31.0,31.0,31.0,1.0,,,,,,,,,,
0.0,1.0,0.77385,,,,,,penguin_16s.jpg,0.0,clockno_default.jpg,6.0,49,,,,,,,,,,,,,,,,,,0.0,32.0,32.0,32.0,1.0,,,,,,,,,,
0.0,1.0,1.62273,,,,,,peppermint_07s.jpg,0.0,clockno_default.jpg,6.0,49,,,,,,,,,,,,,,,,,,0.0,33.0,33.0,33.0,1.0,,,,,,,,,,
0.0,1.0,1.385015,,,,,,throne_11s.jpg,0.0,clockno_default.jpg,6.0,49,,,,,,,,,,,,,,,,,,0.0,34.0,34.0,34.0,1.0,,,,,,,,,,
0.0,1.0,0.823725,,,,,,chime_12s.jpg,0.0,clockno_default.jpg,6.0,49,,,,,,,,,,,,,,,,,,0.0,35.0,35.0,35.0,1.0,,,,,,,,,,
,,,,,,,,,1.0,,,49,1.0,1.0,1.118695,,,,,,golf_club_03s.jpg,snowman_02s.jpg,,,,,,,,,,,,,0.0,0.0,0.0,0.0,1.0,,,,,
,,,,,,,,,0.0,,,49,1.0,0.0,0.70291,,,,,,frog_09s.jpg,crate_05s.jpg,,,,,,,,,,,,,0.0,1.0,1.0,1.0,1.0,,,,,
,,,,,,,,,1.0,,,49,1.0,1.0,0.71111,,,,,,flip_flop_03s.jpg,crystal_ball_12s.jpg,,,,,,,,,,,,,0.0,2.0,2.0,2.0,1.0,,,,,
,,,,,,,,,0.0,,,49,1.0,0.0,0.68533,,,,,,tie_03s.jpg,pantyhose_07s.jpg,,,,,,,,,,,,,0.0,3.0,3.0,3.0,1.0,,,,,
,,,,,,,,,0.0,,,49,1.0,0.0,0.970605,,,,,,memory_stick_11s.jpg,smoothie_09s.jpg,,,,,,,,,,,,,0.0,4.0,4.0,4.0,1.0,,,,,
,,,,,,,,,0.0,,,49,1.0,0.0,1.63037,,,,,,puddle_02s.jpg,stopwatch_04s.jpg,,,,,,,,,,,,,0.0,5.0,5.0,5.0,1.0,,,,,
,,,,,,,,,,,,49,,,,,,,,,,,,,,,,clockno_present_5_10.xlsx,clockno_compare_task_5_10.xlsx,,,,,,,,,,,0.0,4.0,4.0,4.0,1.0
0.0,1.0,1.03793,,,,,,potholder_02s.jpg,0.0,clock_6_1.png,1.0,49,,,,,,,,,,,,,,,,,,0.0,0.0,0.0,0.0,1.0,,,,,,,,,,
1.0,1.0,1.01357,,,,,,potholder_02s.jpg,1.0,clock_6_2.png,1.0,49,,,,,,,,,,,,,,,,,,0.0,1.0,1.0,1.0,1.0,,,,,,,,,,
0.0,1.0,1.27345,,,,,,phone_01b.jpg,0.0,clock_6_3.png,1.0,49,,,,,,,,,,,,,,,,,,0.0,2.0,2.0,2.0,1.0,,,,,,,,,,
1.0,1.0,0.586885,,,,,,potholder_02s.jpg,1.0,clock_6_4.png,1.0,49,,,,,,,,,,,,,,,,,,0.0,3.0,3.0,3.0,1.0,,,,,,,,,,
0.0,0.0,0.96499,,,,,,phone_01b.jpg,1.0,clock_6_5.png,1.0,49,,,,,,,,,,,,,,,,,,0.0,4.0,4.0,4.0,1.0,,,,,,,,,,
0.0,1.0,0.479415,,,,,,puck_06s.jpg,0.0,clock_6_6.png,1.0,49,,,,,,,,,,,,,,,,,,0.0,5.0,5.0,5.0,1.0,,,,,,,,,,
0.0,1.0,0.59273,,,,,,bagel_15s.jpg,0.0,clock_7_1.png,2.0,49,,,,,,,,,,,,,,,,,,0.0,6.0,6.0,6.0,1.0,,,,,,,,,,
0.0,0.0,0.58387,,,,,,bagel_15s.jpg,1.0,clock_7_2.png,2.0,49,,,,,,,,,,,,,,,,,,0.0,7.0,7.0,7.0,1.0,,,,,,,,,,
0.0,1.0,0.983965,,,,,,puck_06s.jpg,0.0,clock_7_3.png,2.0,49,,,,,,,,,,,,,,,,,,0.0,8.0,8.0,8.0,1.0,,,,,,,,,,
0.0,1.0,0.766495,,,,,,funnel_01b.jpg,0.0,clock_7_4.png,2.0,49,,,,,,,,,,,,,,,,,,0.0,9.0,9.0,9.0,1.0,,,,,,,,,,
0.0,1.0,0.636155,,,,,,trumpet_06s.jpg,0.0,clock_7_5.png,2.0,49,,,,,,,,,,,,,,,,,,0.0,10.0,10.0,10.0,1.0,,,,,,,,,,
0.0,1.0,0.719925,,,,,,outlet_10s.jpg,0.0,clock_7_6.png,2.0,49,,,,,,,,,,,,,,,,,,0.0,11.0,11.0,11.0,1.0,,,,,,,,,,
0.0,1.0,0.96136,,,,,,reindeer_08s.jpg,0.0,clock_7_7.png,2.0,49,,,,,,,,,,,,,,,,,,0.0,12.0,12.0,12.0,1.0,,,,,,,,,,
0.0,1.0,1.333375,,,,,,tablet_04s.jpg,0.0,clock_5_1.png,3.0,49,,,,,,,,,,,,,,,,,,0.0,13.0,13.0,13.0,1.0,,,,,,,,,,
0.0,1.0,0.9712,,,,,,latte_06s.jpg,0.0,clock_5_2.png,3.0,49,,,,,,,,,,,,,,,,,,0.0,14.0,14.0,14.0,1.0,,,,,,,,,,
1.0,1.0,0.91412,,,,,,latte_06s.jpg,1.0,clock_5_3.png,3.0,49,,,,,,,,,,,,,,,,,,0.0,15.0,15.0,15.0,1.0,,,,,,,,,,
0.0,1.0,0.53837,,,,,,tomato_sauce_09s.jpg,0.0,clock_5_4.png,3.0,49,,,,,,,,,,,,,,,,,,0.0,16.0,16.0,16.0,1.0,,,,,,,,,,
0.0,1.0,0.541945,,,,,,mitten_10s.jpg,0.0,clock_5_5.png,3.0,49,,,,,,,,,,,,,,,,,,0.0,17.0,17.0,17.0,1.0,,,,,,,,,,
0.0,1.0,0.4542,,,,,,otter_05s.jpg,0.0,clock_6_1.png,4.0,49,,,,,,,,,,,,,,,,,,0.0,18.0,18.0,18.0,1.0,,,,,,,,,,
0.0,1.0,0.62404,,,,,,puck_06s.jpg,0.0,clock_6_2.png,4.0,49,,,,,,,,,,,,,,,,,,0.0,19.0,19.0,19.0,1.0,,,,,,,,,,
0.0,1.0,0.536385,,,,,,polar_bear_02s.jpg,0.0,clock_6_3.png,4.0,49,,,,,,,,,,,,,,,,,,0.0,20.0,20.0,20.0,1.0,,,,,,,,,,
0.0,1.0,0.71827,,,,,,crab_16s.jpg,0.0,clock_6_4.png,4.0,49,,,,,,,,,,,,,,,,,,0.0,21.0,21.0,21.0,1.0,,,,,,,,,,
0.0,1.0,0.99537,,,,,,bagel_15s.jpg,0.0,clock_6_5.png,4.0,49,,,,,,,,,,,,,,,,,,0.0,22.0,22.0,22.0,1.0,,,,,,,,,,
0.0,1.0,1.03883,,,,,,radiator_05s.jpg,0.0,clock_6_6.png,4.0,49,,,,,,,,,,,,,,,,,,0.0,23.0,23.0,23.0,1.0,,,,,,,,,,
0.0,1.0,1.44336,,,,,,polaroid_05s.jpg,0.0,clock_7_1.png,5.0,49,,,,,,,,,,,,,,,,,,0.0,24.0,24.0,24.0,1.0,,,,,,,,,,
0.0,1.0,0.647415,,,,,,bee_20s.jpg,0.0,clock_7_2.png,5.0,49,,,,,,,,,,,,,,,,,,0.0,25.0,25.0,25.0,1.0,,,,,,,,,,
0.0,1.0,0.467435,,,,,,swimming_pool_17s.jpg,0.0,clock_7_3.png,5.0,49,,,,,,,,,,,,,,,,,,0.0,26.0,26.0,26.0,1.0,,,,,,,,,,
1.0,1.0,1.08298,,,,,,swimming_pool_17s.jpg,1.0,clock_7_4.png,5.0,49,,,,,,,,,,,,,,,,,,0.0,27.0,27.0,27.0,1.0,,,,,,,,,,
0.0,1.0,0.709995,,,,,,fur_coat_11s.jpg,0.0,clock_7_5.png,5.0,49,,,,,,,,,,,,,,,,,,0.0,28.0,28.0,28.0,1.0,,,,,,,,,,
0.0,1.0,0.649725,,,,,,projector_08s.jpg,0.0,clock_7_6.png,5.0,49,,,,,,,,,,,,,,,,,,0.0,29.0,29.0,29.0,1.0,,,,,,,,,,
0.0,1.0,0.731935,,,,,,raft_09s.jpg,0.0,clock_7_7.png,5.0,49,,,,,,,,,,,,,,,,,,0.0,30.0,30.0,30.0,1.0,,,,,,,,,,
0.0,1.0,1.48795,,,,,,microwave_02s.jpg,0.0,clock_5_1.png,6.0,49,,,,,,,,,,,,,,,,,,0.0,31.0,31.0,31.0,1.0,,,,,,,,,,
0.0,1.0,0.69123,,,,,,bonsai_07s.jpg,0.0,clock_5_2.png,6.0,49,,,,,,,,,,,,,,,,,,0.0,32.0,32.0,32.0,1.0,,,,,,,,,,
0.0,1.0,0.688505,,,,,,torch_02s.jpg,0.0,clock_5_3.png,6.0,49,,,,,,,,,,,,,,,,,,0.0,33.0,33.0,33.0,1.0,,,,,,,,,,
0.0,1.0,0.815385,,,,,,rocket_02s.jpg,0.0,clock_5_4.png,6.0,49,,,,,,,,,,,,,,,,,,0.0,34.0,34.0,34.0,1.0,,,,,,,,,,
1.0,1.0,2.394115,,,,,,rocket_02s.jpg,1.0,clock_5_5.png,6.0,49,,,,,,,,,,,,,,,,,,0.0,35.0,35.0,35.0,1.0,,,,,,,,,,
,,,,,,,,,1.0,,,49,1.0,1.0,1.609,,,,,,projector_08s.jpg,bonsai_07s.jpg,,,,,,,,,,,,,0.0,0.0,0.0,0.0,1.0,,,,,
,,,,,,,,,0.0,,,49,1.0,0.0,1.013485,,,,,,torch_02s.jpg,raft_09s.jpg,,,,,,,,,,,,,0.0,1.0,1.0,1.0,1.0,,,,,
,,,,,,,,,0.0,,,49,0.0,1.0,1.428955,,,,,,tablet_04s.jpg,trumpet_06s.jpg,,,,,,,,,,,,,0.0,2.0,2.0,2.0,1.0,,,,,
,,,,,,,,,0.0,,,49,0.0,1.0,0.91331,,,,,,reindeer_08s.jpg,funnel_01b.jpg,,,,,,,,,,,,,0.0,3.0,3.0,3.0,1.0,,,,,
,,,,,,,,,1.0,,,49,1.0,1.0,0.9365,,,,,,otter_05s.jpg,crab_16s.jpg,,,,,,,,,,,,,0.0,4.0,4.0,4.0,1.0,,,,,
,,,,,,,,,0.0,,,49,1.0,0.0,0.884715,,,,,,radiator_05s.jpg,polar_bear_02s.jpg,,,,,,,,,,,,,0.0,5.0,5.0,5.0,1.0,,,,,
