key_resp.keys,key_resp.corr,key_resp.rt,noclock_loop.thisRepN,noclock_loop.thisTrialN,noclock_loop.thisN,noclock_loop.thisIndex,noclock_loop.ran,pictures,answer,clock,segment,participant,key_resp_2.keys,key_resp_2.corr,key_resp_2.rt,noclock_loop2.thisRepN,noclock_loop2.thisTrialN,noclock_loop2.thisN,noclock_loop2.thisIndex,noclock_loop2.ran,item_a,item_b,noclock_condition.thisRepN,noclock_condition.thisTrialN,noclock_condition.thisN,noclock_condition.thisIndex,noclock_condition.ran,present,compare,present_segment.thisRepN,present_segment.thisTrialN,present_segment.thisN,present_segment.thisIndex,present_segment.ran,compare_segment.thisRepN,compare_segment.thisTrialN,compare_segment.thisN,compare_segment.thisIndex,compare_segment.ran,clock_conditions.thisRepN,clock_conditions.thisTrialN,clock_conditions.thisN,clock_conditions.thisIndex,clock_conditions.ran
0.0,1.0,0.545,0.0,0.0,0.0,0.0,1.0,quill_09s.jpg,0.0,clockno_up.jpg,1.0,8,,,,,,,,,,,,,,,,,,,,,,,,,,,,,,,,
1.0,1.0,0.846,0.0,1.0,1.0,1.0,1.0,quill_09s.jpg,1.0,clockno_default.jpg,1.0,8,,,,,,,,,,,,,,,,,,,,,,,,,,,,,,,,
0.0,1.0,0.725,0.0,2.0,2.0,2.0,1.0,ostrich_06s.jpg,0.0,clockno_default.jpg,1.0,8,,,,,,,,,,,,,,,,,,,,,,,,,,,,,,,,
0.0,1.0,0.808,0.0,3.0,3.0,3.0,1.0,crab_16s.jpg,0.0,clockno_default.jpg,1.0,8,,,,,,,,,,,,,,,,,,,,,,,,,,,,,,,,
0.0,1.0,1.092,0.0,4.0,4.0,4.0,1.0,ladder_15s.jpg,0.0,clockno_default.jpg,1.0,8,,,,,,,,,,,,,,,,,,,,,,,,,,,,,,,,
1.0,1.0,1.134,0.0,5.0,5.0,5.0,1.0,ladder_15s.jpg,1.0,clockno_default.jpg,1.0,8,,,,,,,,,,,,,,,,,,,,,,,,,,,,,,,,
0.0,1.0,1.338,0.0,6.0,6.0,6.0,1.0,harpoon.jpg,0.0,clockno_up.jpg,2.0,8,,,,,,,,,,,,,,,,,,,,,,,,,,,,,,,,
0.0,1.0,1.071,0.0,7.0,7.0,7.0,1.0,razor_12s.jpg,0.0,clockno_default.jpg,2.0,8,,,,,,,,,,,,,,,,,,,,,,,,,,,,,,,,
0.0,1.0,0.662,0.0,8.0,8.0,8.0,1.0,bee_20s.jpg,0.0,clockno_default.jpg,2.0,8,,,,,,,,,,,,,,,,,,,,,,,,,,,,,,,,
0.0,1.0,0.698,0.0,9.0,9.0,9.0,1.0,thumbtack_14s.jpg,0.0,clockno_default.jpg,2.0,8,,,,,,,,,,,,,,,,,,,,,,,,,,,,,,,,
0.0,1.0,0.724,0.0,10.0,10.0,10.0,1.0,mug_06s.jpg,0.0,clockno_default.jpg,2.0,8,,,,,,,,,,,,,,,,,,,,,,,,,,,,,,,,
0.0,1.0,1.459,0.0,11.0,11.0,11.0,1.0,ticktacktoe_08s.jpg,0.0,clockno_up.jpg,3.0,8,,,,,,,,,,,,,,,,,,,,,,,,,,,,,,,,
1.0,1.0,0.8,0.0,12.0,12.0,12.0,1.0,ticktacktoe_08s.jpg,1.0,clockno_default.jpg,3.0,8,,,,,,,,,,,,,,,,,,,,,,,,,,,,,,,,
0.0,1.0,0.635,0.0,13.0,13.0,13.0,1.0,fireworks_18s.jpg,0.0,clockno_default.jpg,3.0,8,,,,,,,,,,,,,,,,,,,,,,,,,,,,,,,,
0.0,1.0,1.064,0.0,14.0,14.0,14.0,1.0,buoy_04s.jpg,0.0,clockno_default.jpg,3.0,8,,,,,,,,,,,,,,,,,,,,,,,,,,,,,,,,
0.0,1.0,1.877,0.0,15.0,15.0,15.0,1.0,lip_gloss_06s.jpg,0.0,clockno_default.jpg,3.0,8,,,,,,,,,,,,,,,,,,,,,,,,,,,,,,,,
0.0,1.0,0.845,0.0,16.0,16.0,16.0,1.0,surfboard_11s.jpg,0.0,clockno_up.jpg,4.0,8,,,,,,,,,,,,,,,,,,,,,,,,,,,,,,,,
1.0,1.0,0.842,0.0,17.0,17.0,17.0,1.0,surfboard_11s.jpg,1.0,clockno_default.jpg,4.0,8,,,,,,,,,,,,,,,,,,,,,,,,,,,,,,,,
0.0,1.0,0.822,0.0,18.0,18.0,18.0,1.0,jigsaw_puzzle_11s.jpg,0.0,clockno_default.jpg,4.0,8,,,,,,,,,,,,,,,,,,,,,,,,,,,,,,,,
1.0,1.0,0.813,0.0,19.0,19.0,19.0,1.0,surfboard_11s.jpg,1.0,clockno_default.jpg,4.0,8,,,,,,,,,,,,,,,,,,,,,,,,,,,,,,,,
0.0,1.0,0.742,0.0,20.0,20.0,20.0,1.0,timer_03s.jpg,0.0,clockno_default.jpg,4.0,8,,,,,,,,,,,,,,,,,,,,,,,,,,,,,,,,
,0.0,,0.0,21.0,21.0,21.0,1.0,fireworks_18s.jpg,0.0,clockno_default.jpg,4.0,8,,,,,,,,,,,,,,,,,,,,,,,,,,,,,,,,
0.0,1.0,0.938,0.0,22.0,22.0,22.0,1.0,turtleneck_11s.jpg,0.0,clockno_up.jpg,5.0,8,,,,,,,,,,,,,,,,,,,,,,,,,,,,,,,,
0.0,1.0,0.781,0.0,23.0,23.0,23.0,1.0,slingshot_07s.jpg,0.0,clockno_default.jpg,5.0,8,,,,,,,,,,,,,,,,,,,,,,,,,,,,,,,,
0.0,1.0,0.818,0.0,24.0,24.0,24.0,1.0,lid_10s.jpg,0.0,clockno_default.jpg,5.0,8,,,,,,,,,,,,,,,,,,,,,,,,,,,,,,,,
0.0,1.0,0.616,0.0,25.0,25.0,25.0,1.0,lasagna_06s.jpg,0.0,clockno_default.jpg,5.0,8,,,,,,,,,,,,,,,,,,,,,,,,,,,,,,,,
0.0,1.0,0.593,0.0,26.0,26.0,26.0,1.0,mud_13s.jpg,0.0,clockno_default.jpg,5.0,8,,,,,,,,,,,,,,,,,,,,,,,,,,,,,,,,
0.0,1.0,1.024,0.0,27.0,27.0,27.0,1.0,juicer1_08s.jpg,0.0,clockno_default.jpg,5.0,8,,,,,,,,,,,,,,,,,,,,,,,,,,,,,,,,
0.0,1.0,0.586,0.0,28.0,28.0,28.0,1.0,sunflower_17s.jpg,0.0,clockno_default.jpg,5.0,8,,,,,,,,,,,,,,,,,,,,,,,,,,,,,,,,
0.0,1.0,1.011,0.0,29.0,29.0,29.0,1.0,pepper_mill_03s.jpg,0.0,clockno_up.jpg,6.0,8,,,,,,,,,,,,,,,,,,,,,,,,,,,,,,,,
1.0,1.0,0.877,0.0,30.0,30.0,30.0,1.0,pepper_mill_03s.jpg,1.0,clockno_default.jpg,6.0,8,,,,,,,,,,,,,,,,,,,,,,,,,,,,,,,,
0.0,1.0,0.643,0.0,31.0,31.0,31.0,1.0,bank_06s.jpg,0.0,clockno_default.jpg,6.0,8,,,,,,,,,,,,,,,,,,,,,,,,,,,,,,,,
0.0,1.0,0.725,0.0,32.0,32.0,32.0,1.0,hyena_16s.jpg,0.0,clockno_default.jpg,6.0,8,,,,,,,,,,,,,,,,,,,,,,,,,,,,,,,,
0.0,1.0,0.632,0.0,33.0,33.0,33.0,1.0,ruby_15s.jpg,0.0,clockno_default.jpg,6.0,8,,,,,,,,,,,,,,,,,,,,,,,,,,,,,,,,
0.0,1.0,1.142,0.0,34.0,34.0,34.0,1.0,bee_20s.jpg,0.0,clockno_default.jpg,6.0,8,,,,,,,,,,,,,,,,,,,,,,,,,,,,,,,,
0.0,1.0,0.793,0.0,35.0,35.0,35.0,1.0,air_pump_05s.jpg,0.0,clockno_default.jpg,6.0,8,,,,,,,,,,,,,,,,,,,,,,,,,,,,,,,,
,,,,,,,,,0.0,,,8,1.0,0.0,1.864,0.0,0.0,0.0,0.0,1.0,jigsaw_puzzle_11s.jpg,lip_gloss_06s.jpg,,,,,,,,,,,,,,,,,,,,,,
,,,,,,,,,0.0,,,8,1.0,0.0,1.112,0.0,1.0,1.0,1.0,1.0,harpoon.jpg,crab_16s.jpg,,,,,,,,,,,,,,,,,,,,,,
,,,,,,,,,0.0,,,8,1.0,0.0,1.169,0.0,2.0,2.0,2.0,1.0,slingshot_07s.jpg,timer_03s.jpg,,,,,,,,,,,,,,,,,,,,,,
,,,,,,,,,0.0,,,8,0.0,1.0,1.128,0.0,3.0,3.0,3.0,1.0,mug_06s.jpg,razor_12s.jpg,,,,,,,,,,,,,,,,,,,,,,
,,,,,,,,,0.0,,,8,1.0,0.0,0.832,0.0,4.0,4.0,4.0,1.0,lasagna_06s.jpg,turtleneck_11s.jpg,,,,,,,,,,,,,,,,,,,,,,
,,,,,,,,,1.0,,,8,1.0,1.0,1.415,0.0,5.0,5.0,5.0,1.0,lid_10s.jpg,juicer1_08s.jpg,,,,,,,,,,,,,,,,,,,,,,
,,,,,,,,,,,,8,,,,,,,,,,,0.0,0.0,0.0,0.0,1.0,clockno_present_1_9.xlsx,clockno_compare_task_1_9.xlsx,,,,,,,,,,,,,,,
0.0,1.0,0.763,0.0,0.0,0.0,0.0,1.0,ink_08s.jpg,0.0,clockno_up.jpg,1.0,8,,,,,,,,,,,,,,,,,,,,,,,,,,,,,,,,
0.0,1.0,1.167,0.0,1.0,1.0,1.0,1.0,tuba_12s.jpg,0.0,clockno_default.jpg,1.0,8,,,,,,,,,,,,,,,,,,,,,,,,,,,,,,,,
0.0,1.0,0.66,0.0,2.0,2.0,2.0,1.0,top_hat_11s.jpg,0.0,clockno_default.jpg,1.0,8,,,,,,,,,,,,,,,,,,,,,,,,,,,,,,,,
0.0,1.0,0.642,0.0,3.0,3.0,3.0,1.0,cape_11s.jpg,0.0,clockno_default.jpg,1.0,8,,,,,,,,,,,,,,,,,,,,,,,,,,,,,,,,
0.0,1.0,0.638,0.0,4.0,4.0,4.0,1.0,mango_09s.jpg,0.0,clockno_default.jpg,1.0,8,,,,,,,,,,,,,,,,,,,,,,,,,,,,,,,,
0.0,1.0,1.126,0.0,5.0,5.0,5.0,1.0,spacesuit_02s.jpg,0.0,clockno_up.jpg,2.0,8,,,,,,,,,,,,,,,,,,,,,,,,,,,,,,,,
0.0,1.0,1.386,0.0,6.0,6.0,6.0,1.0,iron_13s.jpg,0.0,clockno_default.jpg,2.0,8,,,,,,,,,,,,,,,,,,,,,,,,,,,,,,,,
0.0,1.0,0.779,0.0,7.0,7.0,7.0,1.0,lectern_08s.jpg,0.0,clockno_default.jpg,2.0,8,,,,,,,,,,,,,,,,,,,,,,,,,,,,,,,,
0.0,1.0,0.76,0.0,8.0,8.0,8.0,1.0,contact_lens_15s.jpg,0.0,clockno_default.jpg,2.0,8,,,,,,,,,,,,,,,,,,,,,,,,,,,,,,,,
1.0,1.0,0.847,0.0,9.0,9.0,9.0,1.0,lectern_08s.jpg,1.0,clockno_default.jpg,2.0,8,,,,,,,,,,,,,,,,,,,,,,,,,,,,,,,,
0.0,1.0,0.804,0.0,10.0,10.0,10.0,1.0,funnel_01b.jpg,0.0,clockno_default.jpg,2.0,8,,,,,,,,,,,,,,,,,,,,,,,,,,,,,,,,
1.0,1.0,0.777,0.0,11.0,11.0,11.0,1.0,lectern_08s.jpg,1.0,clockno_default.jpg,2.0,8,,,,,,,,,,,,,,,,,,,,,,,,,,,,,,,,
0.0,1.0,0.87,0.0,12.0,12.0,12.0,1.0,rosary_03s.jpg,0.0,clockno_up.jpg,3.0,8,,,,,,,,,,,,,,,,,,,,,,,,,,,,,,,,
0.0,1.0,0.614,0.0,13.0,13.0,13.0,1.0,joystick_01b.jpg,0.0,clockno_default.jpg,3.0,8,,,,,,,,,,,,,,,,,,,,,,,,,,,,,,,,
0.0,1.0,0.583,0.0,14.0,14.0,14.0,1.0,peppermint_07s.jpg,0.0,clockno_default.jpg,3.0,8,,,,,,,,,,,,,,,,,,,,,,,,,,,,,,,,
1.0,1.0,0.787,0.0,15.0,15.0,15.0,1.0,peppermint_07s.jpg,1.0,clockno_default.jpg,3.0,8,,,,,,,,,,,,,,,,,,,,,,,,,,,,,,,,
0.0,1.0,0.83,0.0,16.0,16.0,16.0,1.0,pear_02s.jpg,0.0,clockno_default.jpg,3.0,8,,,,,,,,,,,,,,,,,,,,,,,,,,,,,,,,
1.0,1.0,0.99,0.0,17.0,17.0,17.0,1.0,pear_02s.jpg,1.0,clockno_default.jpg,3.0,8,,,,,,,,,,,,,,,,,,,,,,,,,,,,,,,,
0.0,1.0,0.699,0.0,18.0,18.0,18.0,1.0,treasure_08s.jpg,0.0,clockno_up.jpg,4.0,8,,,,,,,,,,,,,,,,,,,,,,,,,,,,,,,,
1.0,0.0,0.759,0.0,19.0,19.0,19.0,1.0,peppermint_07s.jpg,0.0,clockno_default.jpg,4.0,8,,,,,,,,,,,,,,,,,,,,,,,,,,,,,,,,
0.0,1.0,0.844,0.0,20.0,20.0,20.0,1.0,mixer_12s.jpg,0.0,clockno_default.jpg,4.0,8,,,,,,,,,,,,,,,,,,,,,,,,,,,,,,,,
0.0,1.0,0.801,0.0,21.0,21.0,21.0,1.0,hydrant_10s.jpg,0.0,clockno_default.jpg,4.0,8,,,,,,,,,,,,,,,,,,,,,,,,,,,,,,,,
0.0,1.0,0.849,0.0,22.0,22.0,22.0,1.0,sugar_cube_11s.jpg,0.0,clockno_default.jpg,4.0,8,,,,,,,,,,,,,,,,,,,,,,,,,,,,,,,,
0.0,1.0,0.876,0.0,23.0,23.0,23.0,1.0,margarita_03s.jpg,0.0,clockno_up.jpg,5.0,8,,,,,,,,,,,,,,,,,,,,,,,,,,,,,,,,
0.0,1.0,0.555,0.0,24.0,24.0,24.0,1.0,submarine_11n.jpg,0.0,clockno_default.jpg,5.0,8,,,,,,,,,,,,,,,,,,,,,,,,,,,,,,,,
0.0,1.0,0.976,0.0,25.0,25.0,25.0,1.0,mascara_03s.jpg,0.0,clockno_default.jpg,5.0,8,,,,,,,,,,,,,,,,,,,,,,,,,,,,,,,,
1.0,1.0,0.876,0.0,26.0,26.0,26.0,1.0,mascara_03s.jpg,1.0,clockno_default.jpg,5.0,8,,,,,,,,,,,,,,,,,,,,,,,,,,,,,,,,
0.0,1.0,0.698,0.0,27.0,27.0,27.0,1.0,seagull_01b.jpg,0.0,clockno_default.jpg,5.0,8,,,,,,,,,,,,,,,,,,,,,,,,,,,,,,,,
0.0,1.0,0.688,0.0,28.0,28.0,28.0,1.0,koala_13s.jpg,0.0,clockno_default.jpg,5.0,8,,,,,,,,,,,,,,,,,,,,,,,,,,,,,,,,
0.0,1.0,0.73,0.0,29.0,29.0,29.0,1.0,umbrella_15s.jpg,0.0,clockno_up.jpg,6.0,8,,,,,,,,,,,,,,,,,,,,,,,,,,,,,,,,
1.0,1.0,0.7,0.0,30.0,30.0,30.0,1.0,umbrella_15s.jpg,1.0,clockno_default.jpg,6.0,8,,,,,,,,,,,,,,,,,,,,,,,,,,,,,,,,
1.0,1.0,0.793,0.0,31.0,31.0,31.0,1.0,umbrella_15s.jpg,1.0,clockno_default.jpg,6.0,8,,,,,,,,,,,,,,,,,,,,,,,,,,,,,,,,
1.0,1.0,0.916,0.0,32.0,32.0,32.0,1.0,umbrella_15s.jpg,1.0,clockno_default.jpg,6.0,8,,,,,,,,,,,,,,,,,,,,,,,,,,,,,,,,
0.0,1.0,0.767,0.0,33.0,33.0,33.0,1.0,stopwatch_04s.jpg,0.0,clockno_default.jpg,6.0,8,,,,,,,,,,,,,,,,,,,,,,,,,,,,,,,,
0.0,1.0,0.836,0.0,34.0,34.0,34.0,1.0,gazelle_10s.jpg,0.0,clockno_default.jpg,6.0,8,,,,,,,,,,,,,,,,,,,,,,,,,,,,,,,,
0.0,1.0,1.065,0.0,35.0,35.0,35.0,1.0,peppermint_07s.jpg,0.0,clockno_default.jpg,6.0,8,,,,,,,,,,,,,,,,,,,,,,,,,,,,,,,,
,,,,,,,,,0.0,,,8,0.0,1.0,1.733,0.0,0.0,0.0,0.0,1.0,joystick_01b.jpg,funnel_01b.jpg,,,,,,,,,,,,,,,,,,,,,,
,,,,,,,,,0.0,,,8,1.0,0.0,1.684,0.0,1.0,1.0,1.0,1.0,margarita_03s.jpg,mixer_12s.jpg,,,,,,,,,,,,,,,,,,,,,,
,,,,,,,,,0.0,,,8,0.0,1.0,1.148,0.0,2.0,2.0,2.0,1.0,spacesuit_02s.jpg,top_hat_11s.jpg,,,,,,,,,,,,,,,,,,,,,,
,,,,,,,,,1.0,,,8,0.0,0.0,1.11,0.0,3.0,3.0,3.0,1.0,tuba_12s.jpg,mango_09s.jpg,,,,,,,,,,,,,,,,,,,,,,
,,,,,,,,,0.0,,,8,1.0,0.0,0.978,0.0,4.0,4.0,4.0,1.0,cape_11s.jpg,ink_08s.jpg,,,,,,,,,,,,,,,,,,,,,,
,,,,,,,,,0.0,,,8,1.0,0.0,1.61,0.0,5.0,5.0,5.0,1.0,hydrant_10s.jpg,treasure_08s.jpg,,,,,,,,,,,,,,,,,,,,,,
,,,,,,,,,,,,8,,,,,,,,,,,0.0,1.0,1.0,1.0,1.0,clockno_present_2_9.xlsx,clockno_compare_task_2_9.xlsx,,,,,,,,,,,,,,,
0.0,1.0,1.051,0.0,0.0,0.0,0.0,1.0,rolling_pin_02s.jpg,0.0,clockno_up.jpg,1.0,8,,,,,,,,,,,,,,,,,,,,,,,,,,,,,,,,
0.0,1.0,0.666,0.0,1.0,1.0,1.0,1.0,purse_05s.jpg,0.0,clockno_default.jpg,1.0,8,,,,,,,,,,,,,,,,,,,,,,,,,,,,,,,,
0.0,1.0,1.534,0.0,2.0,2.0,2.0,1.0,mosquito_12s.jpg,0.0,clockno_default.jpg,1.0,8,,,,,,,,,,,,,,,,,,,,,,,,,,,,,,,,
1.0,1.0,1.627,0.0,3.0,3.0,3.0,1.0,rolling_pin_02s.jpg,1.0,clockno_default.jpg,1.0,8,,,,,,,,,,,,,,,,,,,,,,,,,,,,,,,,
0.0,1.0,0.651,0.0,4.0,4.0,4.0,1.0,raccoon_02s.jpg,0.0,clockno_default.jpg,1.0,8,,,,,,,,,,,,,,,,,,,,,,,,,,,,,,,,
0.0,1.0,1.716,0.0,5.0,5.0,5.0,1.0,cushion_08s.jpg,0.0,clockno_up.jpg,2.0,8,,,,,,,,,,,,,,,,,,,,,,,,,,,,,,,,
1.0,1.0,0.897,0.0,6.0,6.0,6.0,1.0,cushion_08s.jpg,1.0,clockno_default.jpg,2.0,8,,,,,,,,,,,,,,,,,,,,,,,,,,,,,,,,
0.0,1.0,0.956,0.0,7.0,7.0,7.0,1.0,pocketknife_12s.jpg,0.0,clockno_default.jpg,2.0,8,,,,,,,,,,,,,,,,,,,,,,,,,,,,,,,,
0.0,1.0,1.897,0.0,8.0,8.0,8.0,1.0,mosquito_12s.jpg,0.0,clockno_default.jpg,2.0,8,,,,,,,,,,,,,,,,,,,,,,,,,,,,,,,,
1.0,1.0,0.887,0.0,9.0,9.0,9.0,1.0,cushion_08s.jpg,1.0,clockno_default.jpg,2.0,8,,,,,,,,,,,,,,,,,,,,,,,,,,,,,,,,
0.0,1.0,0.664,0.0,10.0,10.0,10.0,1.0,stump_02s.jpg,0.0,clockno_default.jpg,2.0,8,,,,,,,,,,,,,,,,,,,,,,,,,,,,,,,,
0.0,1.0,1.421,0.0,11.0,11.0,11.0,1.0,kite_04s.jpg,0.0,clockno_up.jpg,3.0,8,,,,,,,,,,,,,,,,,,,,,,,,,,,,,,,,
1.0,1.0,0.776,0.0,12.0,12.0,12.0,1.0,kite_04s.jpg,1.0,clockno_default.jpg,3.0,8,,,,,,,,,,,,,,,,,,,,,,,,,,,,,,,,
0.0,1.0,0.553,0.0,13.0,13.0,13.0,1.0,letter_opener_03s.jpg,0.0,clockno_default.jpg,3.0,8,,,,,,,,,,,,,,,,,,,,,,,,,,,,,,,,
0.0,1.0,1.017,0.0,14.0,14.0,14.0,1.0,sundae_08s.jpg,0.0,clockno_default.jpg,3.0,8,,,,,,,,,,,,,,,,,,,,,,,,,,,,,,,,
1.0,0.0,1.267,0.0,15.0,15.0,15.0,1.0,cushion_08s.jpg,0.0,clockno_default.jpg,3.0,8,,,,,,,,,,,,,,,,,,,,,,,,,,,,,,,,
0.0,1.0,0.709,0.0,16.0,16.0,16.0,1.0,eggshell_14s.jpg,0.0,clockno_default.jpg,3.0,8,,,,,,,,,,,,,,,,,,,,,,,,,,,,,,,,
0.0,1.0,0.85,0.0,17.0,17.0,17.0,1.0,raft_09s.jpg,0.0,clockno_default.jpg,3.0,8,,,,,,,,,,,,,,,,,,,,,,,,,,,,,,,,
0.0,1.0,0.708,0.0,18.0,18.0,18.0,1.0,potpourri_03s.jpg,0.0,clockno_up.jpg,4.0,8,,,,,,,,,,,,,,,,,,,,,,,,,,,,,,,,
1.0,1.0,0.774,0.0,19.0,19.0,19.0,1.0,potpourri_03s.jpg,1.0,clockno_default.jpg,4.0,8,,,,,,,,,,,,,,,,,,,,,,,,,,,,,,,,
0.0,1.0,0.666,0.0,20.0,20.0,20.0,1.0,cobra_05s.jpg,0.0,clockno_default.jpg,4.0,8,,,,,,,,,,,,,,,,,,,,,,,,,,,,,,,,
1.0,1.0,0.787,0.0,21.0,21.0,21.0,1.0,potpourri_03s.jpg,1.0,clockno_default.jpg,4.0,8,,,,,,,,,,,,,,,,,,,,,,,,,,,,,,,,
0.0,1.0,0.753,0.0,22.0,22.0,22.0,1.0,rocking_horse_03s.jpg,0.0,clockno_default.jpg,4.0,8,,,,,,,,,,,,,,,,,,,,,,,,,,,,,,,,
0.0,1.0,1.174,0.0,23.0,23.0,23.0,1.0,bonsai_07s.jpg,0.0,clockno_up.jpg,5.0,8,,,,,,,,,,,,,,,,,,,,,,,,,,,,,,,,
0.0,1.0,0.669,0.0,24.0,24.0,24.0,1.0,kangaroo_02s.jpg,0.0,clockno_default.jpg,5.0,8,,,,,,,,,,,,,,,,,,,,,,,,,,,,,,,,
0.0,1.0,0.813,0.0,25.0,25.0,25.0,1.0,onion_10s.jpg,0.0,clockno_default.jpg,5.0,8,,,,,,,,,,,,,,,,,,,,,,,,,,,,,,,,
0.0,1.0,0.961,0.0,26.0,26.0,26.0,1.0,mosquito_12s.jpg,0.0,clockno_default.jpg,5.0,8,,,,,,,,,,,,,,,,,,,,,,,,,,,,,,,,
0.0,1.0,0.85,0.0,27.0,27.0,27.0,1.0,money_07s.jpg,0.0,clockno_default.jpg,5.0,8,,,,,,,,,,,,,,,,,,,,,,,,,,,,,,,,
0.0,1.0,0.745,0.0,28.0,28.0,28.0,1.0,pretzel_09s.jpg,0.0,clockno_default.jpg,5.0,8,,,,,,,,,,,,,,,,,,,,,,,,,,,,,,,,
0.0,1.0,1.085,0.0,29.0,29.0,29.0,1.0,magnet_03s.jpg,0.0,clockno_up.jpg,6.0,8,,,,,,,,,,,,,,,,,,,,,,,,,,,,,,,,
0.0,1.0,0.593,0.0,30.0,30.0,30.0,1.0,outlet_10s.jpg,0.0,clockno_default.jpg,6.0,8,,,,,,,,,,,,,,,,,,,,,,,,,,,,,,,,
0.0,1.0,0.955,0.0,31.0,31.0,31.0,1.0,candy_cane_06s.jpg,0.0,clockno_default.jpg,6.0,8,,,,,,,,,,,,,,,,,,,,,,,,,,,,,,,,
0.0,1.0,0.868,0.0,32.0,32.0,32.0,1.0,treadmill_06s.jpg,0.0,clockno_default.jpg,6.0,8,,,,,,,,,,,,,,,,,,,,,,,,,,,,,,,,
1.0,1.0,0.921,0.0,33.0,33.0,33.0,1.0,treadmill_06s.jpg,1.0,clockno_default.jpg,6.0,8,,,,,,,,,,,,,,,,,,,,,,,,,,,,,,,,
0.0,1.0,0.765,0.0,34.0,34.0,34.0,1.0,boomerang_06s.jpg,0.0,clockno_default.jpg,6.0,8,,,,,,,,,,,,,,,,,,,,,,,,,,,,,,,,
,0.0,,0.0,35.0,35.0,35.0,1.0,rocking_horse_03s.jpg,0.0,clockno_default.jpg,6.0,8,,,,,,,,,,,,,,,,,,,,,,,,,,,,,,,,
,,,,,,,,,1.0,,,8,1.0,1.0,2.203,0.0,0.0,0.0,0.0,1.0,cobra_05s.jpg,bonsai_07s.jpg,,,,,,,,,,,,,,,,,,,,,,
,,,,,,,,,0.0,,,8,1.0,0.0,1.264,0.0,1.0,1.0,1.0,1.0,outlet_10s.jpg,money_07s.jpg,,,,,,,,,,,,,,,,,,,,,,
,,,,,,,,,0.0,,,8,0.0,1.0,0.842,0.0,2.0,2.0,2.0,1.0,pocketknife_12s.jpg,raccoon_02s.jpg,,,,,,,,,,,,,,,,,,,,,,
,,,,,,,,,1.0,,,8,1.0,1.0,1.978,0.0,3.0,3.0,3.0,1.0,letter_opener_03s.jpg,eggshell_14s.jpg,,,,,,,,,,,,,,,,,,,,,,
,,,,,,,,,0.0,,,8,0.0,1.0,1.775,0.0,4.0,4.0,4.0,1.0,raft_09s.jpg,sundae_08s.jpg,,,,,,,,,,,,,,,,,,,,,,
,,,,,,,,,1.0,,,8,1.0,1.0,2.1,0.0,5.0,5.0,5.0,1.0,onion_10s.jpg,pretzel_09s.jpg,,,,,,,,,,,,,,,,,,,,,,
,,,,,,,,,,,,8,,,,,,,,,,,0.0,2.0,2.0,2.0,1.0,clockno_present_3_9.xlsx,clockno_compare_task_3_9.xlsx,,,,,,,,,,,,,,,
0.0,1.0,1.038,0.0,0.0,0.0,0.0,1.0,rock_08s.jpg,0.0,clockno_up.jpg,1.0,8,,,,,,,,,,,,,,,,,,,,,,,,,,,,,,,,
0.0,1.0,0.903,0.0,1.0,1.0,1.0,1.0,poinsettia_04s.jpg,0.0,clockno_default.jpg,1.0,8,,,,,,,,,,,,,,,,,,,,,,,,,,,,,,,,
0.0,1.0,2.47,0.0,2.0,2.0,2.0,1.0,briefcase_03s.jpg,0.0,clockno_default.jpg,1.0,8,,,,,,,,,,,,,,,,,,,,,,,,,,,,,,,,
0.0,0.0,0.785,0.0,3.0,3.0,3.0,1.0,rock_08s.jpg,1.0,clockno_default.jpg,1.0,8,,,,,,,,,,,,,,,,,,,,,,,,,,,,,,,,
0.0,1.0,0.635,0.0,4.0,4.0,4.0,1.0,pincushion_10s.jpg,0.0,clockno_default.jpg,1.0,8,,,,,,,,,,,,,,,,,,,,,,,,,,,,,,,,
1.0,1.0,0.783,0.0,5.0,5.0,5.0,1.0,briefcase_03s.jpg,1.0,clockno_default.jpg,1.0,8,,,,,,,,,,,,,,,,,,,,,,,,,,,,,,,,
0.0,1.0,0.852,0.0,6.0,6.0,6.0,1.0,ant_12s.jpg,0.0,clockno_up.jpg,2.0,8,,,,,,,,,,,,,,,,,,,,,,,,,,,,,,,,
1.0,1.0,0.766,0.0,7.0,7.0,7.0,1.0,ant_12s.jpg,1.0,clockno_default.jpg,2.0,8,,,,,,,,,,,,,,,,,,,,,,,,,,,,,,,,
0.0,1.0,1.41,0.0,8.0,8.0,8.0,1.0,measuring_cup_02s.jpg,0.0,clockno_default.jpg,2.0,8,,,,,,,,,,,,,,,,,,,,,,,,,,,,,,,,
0.0,1.0,0.732,0.0,9.0,9.0,9.0,1.0,glue_01s.jpg,0.0,clockno_default.jpg,2.0,8,,,,,,,,,,,,,,,,,,,,,,,,,,,,,,,,
0.0,1.0,0.812,0.0,10.0,10.0,10.0,1.0,rice_12s.jpg,0.0,clockno_default.jpg,2.0,8,,,,,,,,,,,,,,,,,,,,,,,,,,,,,,,,
0.0,1.0,0.747,0.0,11.0,11.0,11.0,1.0,toad_09s.jpg,0.0,clockno_default.jpg,2.0,8,,,,,,,,,,,,,,,,,,,,,,,,,,,,,,,,
0.0,1.0,0.738,0.0,12.0,12.0,12.0,1.0,rudder_02s.jpg,0.0,clockno_default.jpg,2.0,8,,,,,,,,,,,,,,,,,,,,,,,,,,,,,,,,
0.0,1.0,0.577,0.0,13.0,13.0,13.0,1.0,lamb_04s.jpg,0.0,clockno_up.jpg,3.0,8,,,,,,,,,,,,,,,,,,,,,,,,,,,,,,,,
0.0,1.0,0.612,0.0,14.0,14.0,14.0,1.0,rhinoceros_02s.jpg,0.0,clockno_default.jpg,3.0,8,,,,,,,,,,,,,,,,,,,,,,,,,,,,,,,,
0.0,1.0,0.582,0.0,15.0,15.0,15.0,1.0,crystal_ball_12s.jpg,0.0,clockno_default.jpg,3.0,8,,,,,,,,,,,,,,,,,,,,,,,,,,,,,,,,
0.0,1.0,0.676,0.0,16.0,16.0,16.0,1.0,ivy_12s.jpg,0.0,clockno_default.jpg,3.0,8,,,,,,,,,,,,,,,,,,,,,,,,,,,,,,,,
0.0,1.0,1.289,0.0,17.0,17.0,17.0,1.0,bathtub_23s.jpg,0.0,clockno_default.jpg,3.0,8,,,,,,,,,,,,,,,,,,,,,,,,,,,,,,,,
0.0,1.0,0.718,0.0,18.0,18.0,18.0,1.0,omelet_07s.jpg,0.0,clockno_up.jpg,4.0,8,,,,,,,,,,,,,,,,,,,,,,,,,,,,,,,,
1.0,1.0,0.878,0.0,19.0,19.0,19.0,1.0,omelet_07s.jpg,1.0,clockno_default.jpg,4.0,8,,,,,,,,,,,,,,,,,,,,,,,,,,,,,,,,
0.0,1.0,1.208,0.0,20.0,20.0,20.0,1.0,lamb_04s.jpg,0.0,clockno_default.jpg,4.0,8,,,,,,,,,,,,,,,,,,,,,,,,,,,,,,,,
0.0,1.0,0.865,0.0,21.0,21.0,21.0,1.0,amber_04s.jpg,0.0,clockno_default.jpg,4.0,8,,,,,,,,,,,,,,,,,,,,,,,,,,,,,,,,
0.0,1.0,0.892,0.0,22.0,22.0,22.0,1.0,rug_09s.jpg,0.0,clockno_default.jpg,4.0,8,,,,,,,,,,,,,,,,,,,,,,,,,,,,,,,,
0.0,1.0,0.735,0.0,23.0,23.0,23.0,1.0,go-kart_10s.jpg,0.0,clockno_default.jpg,4.0,8,,,,,,,,,,,,,,,,,,,,,,,,,,,,,,,,
0.0,1.0,1.065,0.0,24.0,24.0,24.0,1.0,clover_04s.jpg,0.0,clockno_default.jpg,4.0,8,,,,,,,,,,,,,,,,,,,,,,,,,,,,,,,,
0.0,1.0,0.746,0.0,25.0,25.0,25.0,1.0,mattress_01s.jpg,0.0,clockno_up.jpg,5.0,8,,,,,,,,,,,,,,,,,,,,,,,,,,,,,,,,
0.0,1.0,1.22,0.0,26.0,26.0,26.0,1.0,refrigerator_07s.jpg,0.0,clockno_default.jpg,5.0,8,,,,,,,,,,,,,,,,,,,,,,,,,,,,,,,,
0.0,1.0,0.898,0.0,27.0,27.0,27.0,1.0,briefcase_03s.jpg,0.0,clockno_default.jpg,5.0,8,,,,,,,,,,,,,,,,,,,,,,,,,,,,,,,,
0.0,1.0,0.765,0.0,28.0,28.0,28.0,1.0,footprint_11s.jpg,0.0,clockno_default.jpg,5.0,8,,,,,,,,,,,,,,,,,,,,,,,,,,,,,,,,
0.0,1.0,0.783,0.0,29.0,29.0,29.0,1.0,penlight_12s.jpg,0.0,clockno_default.jpg,5.0,8,,,,,,,,,,,,,,,,,,,,,,,,,,,,,,,,
0.0,1.0,0.605,0.0,30.0,30.0,30.0,1.0,rabbit_03s.jpg,0.0,clockno_default.jpg,5.0,8,,,,,,,,,,,,,,,,,,,,,,,,,,,,,,,,
0.0,1.0,1.184,0.0,31.0,31.0,31.0,1.0,pacifier_09s.jpg,0.0,clockno_up.jpg,6.0,8,,,,,,,,,,,,,,,,,,,,,,,,,,,,,,,,
0.0,1.0,1.127,0.0,32.0,32.0,32.0,1.0,meatball_13s.jpg,0.0,clockno_default.jpg,6.0,8,,,,,,,,,,,,,,,,,,,,,,,,,,,,,,,,
0.0,1.0,0.978,0.0,33.0,33.0,33.0,1.0,ladle_04s.jpg,0.0,clockno_default.jpg,6.0,8,,,,,,,,,,,,,,,,,,,,,,,,,,,,,,,,
0.0,1.0,0.644,0.0,34.0,34.0,34.0,1.0,fishhook_06s.jpg,0.0,clockno_default.jpg,6.0,8,,,,,,,,,,,,,,,,,,,,,,,,,,,,,,,,
0.0,1.0,0.982,0.0,35.0,35.0,35.0,1.0,piano_13n.jpg,0.0,clockno_default.jpg,6.0,8,,,,,,,,,,,,,,,,,,,,,,,,,,,,,,,,
,,,,,,,,,1.0,,,8,1.0,1.0,1.557,0.0,0.0,0.0,0.0,1.0,rabbit_03s.jpg,ladle_04s.jpg,,,,,,,,,,,,,,,,,,,,,,
,,,,,,,,,1.0,,,8,0.0,0.0,1.001,0.0,1.0,1.0,1.0,1.0,rudder_02s.jpg,crystal_ball_12s.jpg,,,,,,,,,,,,,,,,,,,,,,
,,,,,,,,,0.0,,,8,0.0,1.0,1.812,0.0,2.0,2.0,2.0,1.0,mattress_01s.jpg,rug_09s.jpg,,,,,,,,,,,,,,,,,,,,,,
,,,,,,,,,0.0,,,8,0.0,1.0,1.08,0.0,3.0,3.0,3.0,1.0,pincushion_10s.jpg,poinsettia_04s.jpg,,,,,,,,,,,,,,,,,,,,,,
,,,,,,,,,0.0,,,8,0.0,1.0,1.678,0.0,4.0,4.0,4.0,1.0,clover_04s.jpg,amber_04s.jpg,,,,,,,,,,,,,,,,,,,,,,
,,,,,,,,,1.0,,,8,1.0,1.0,1.282,0.0,5.0,5.0,5.0,1.0,measuring_cup_02s.jpg,toad_09s.jpg,,,,,,,,,,,,,,,,,,,,,,
,,,,,,,,,,,,8,,,,,,,,,,,0.0,3.0,3.0,3.0,1.0,clockno_present_4_9.xlsx,clockno_compare_task_4_9.xlsx,,,,,,,,,,,,,,,
0.0,1.0,0.664,0.0,0.0,0.0,0.0,1.0,basket_05s.jpg,0.0,clockno_up.jpg,1.0,8,,,,,,,,,,,,,,,,,,,,,,,,,,,,,,,,
0.0,1.0,0.669,0.0,1.0,1.0,1.0,1.0,glasses01a.jpg,0.0,clockno_default.jpg,1.0,8,,,,,,,,,,,,,,,,,,,,,,,,,,,,,,,,
0.0,0.0,0.425,0.0,2.0,2.0,2.0,1.0,basket_05s.jpg,1.0,clockno_default.jpg,1.0,8,,,,,,,,,,,,,,,,,,,,,,,,,,,,,,,,
1.0,1.0,1.495,0.0,3.0,3.0,3.0,1.0,glasses01a.jpg,1.0,clockno_default.jpg,1.0,8,,,,,,,,,,,,,,,,,,,,,,,,,,,,,,,,
1.0,1.0,0.739,0.0,4.0,4.0,4.0,1.0,basket_05s.jpg,1.0,clockno_default.jpg,1.0,8,,,,,,,,,,,,,,,,,,,,,,,,,,,,,,,,
1.0,1.0,0.9,0.0,5.0,5.0,5.0,1.0,basket_05s.jpg,1.0,clockno_default.jpg,1.0,8,,,,,,,,,,,,,,,,,,,,,,,,,,,,,,,,
0.0,1.0,0.687,0.0,6.0,6.0,6.0,1.0,gong_02s.jpg,0.0,clockno_default.jpg,1.0,8,,,,,,,,,,,,,,,,,,,,,,,,,,,,,,,,
0.0,1.0,0.993,0.0,7.0,7.0,7.0,1.0,frog_09s.jpg,0.0,clockno_up.jpg,2.0,8,,,,,,,,,,,,,,,,,,,,,,,,,,,,,,,,
0.0,1.0,0.832,0.0,8.0,8.0,8.0,1.0,luggage_08s.jpg,0.0,clockno_default.jpg,2.0,8,,,,,,,,,,,,,,,,,,,,,,,,,,,,,,,,
0.0,1.0,1.14,0.0,9.0,9.0,9.0,1.0,basket_05s.jpg,0.0,clockno_default.jpg,2.0,8,,,,,,,,,,,,,,,,,,,,,,,,,,,,,,,,
1.0,1.0,0.938,0.0,10.0,10.0,10.0,1.0,luggage_08s.jpg,1.0,clockno_default.jpg,2.0,8,,,,,,,,,,,,,,,,,,,,,,,,,,,,,,,,
0.0,1.0,1.088,0.0,11.0,11.0,11.0,1.0,glasses01a.jpg,0.0,clockno_default.jpg,2.0,8,,,,,,,,,,,,,,,,,,,,,,,,,,,,,,,,
0.0,1.0,1.285,0.0,12.0,12.0,12.0,1.0,lemonade_04s.jpg,0.0,clockno_up.jpg,3.0,8,,,,,,,,,,,,,,,,,,,,,,,,,,,,,,,,
0.0,1.0,0.726,0.0,13.0,13.0,13.0,1.0,trampoline_13s.jpg,0.0,clockno_default.jpg,3.0,8,,,,,,,,,,,,,,,,,,,,,,,,,,,,,,,,
0.0,1.0,0.661,0.0,14.0,14.0,14.0,1.0,pancake_12s.jpg,0.0,clockno_default.jpg,3.0,8,,,,,,,,,,,,,,,,,,,,,,,,,,,,,,,,
0.0,1.0,1.216,0.0,15.0,15.0,15.0,1.0,glasses01a.jpg,0.0,clockno_default.jpg,3.0,8,,,,,,,,,,,,,,,,,,,,,,,,,,,,,,,,
0.0,1.0,1.138,0.0,16.0,16.0,16.0,1.0,fire_alarm_05s.jpg,0.0,clockno_default.jpg,3.0,8,,,,,,,,,,,,,,,,,,,,,,,,,,,,,,,,
0.0,1.0,0.697,0.0,17.0,17.0,17.0,1.0,piggy_bank_02s.jpg,0.0,clockno_up.jpg,4.0,8,,,,,,,,,,,,,,,,,,,,,,,,,,,,,,,,
0.0,1.0,0.755,0.0,18.0,18.0,18.0,1.0,solar_panel_02s.jpg,0.0,clockno_default.jpg,4.0,8,,,,,,,,,,,,,,,,,,,,,,,,,,,,,,,,
1.0,1.0,0.926,0.0,19.0,19.0,19.0,1.0,piggy_bank_02s.jpg,1.0,clockno_default.jpg,4.0,8,,,,,,,,,,,,,,,,,,,,,,,,,,,,,,,,
0.0,1.0,0.957,0.0,20.0,20.0,20.0,1.0,eyedropper_12s.jpg,0.0,clockno_default.jpg,4.0,8,,,,,,,,,,,,,,,,,,,,,,,,,,,,,,,,
0.0,1.0,0.71,0.0,21.0,21.0,21.0,1.0,tile_08s.jpg,0.0,clockno_default.jpg,4.0,8,,,,,,,,,,,,,,,,,,,,,,,,,,,,,,,,
0.0,1.0,0.668,0.0,22.0,22.0,22.0,1.0,cereal_04s.jpg,0.0,clockno_default.jpg,4.0,8,,,,,,,,,,,,,,,,,,,,,,,,,,,,,,,,
0.0,1.0,0.772,0.0,23.0,23.0,23.0,1.0,kettle_08s.jpg,0.0,clockno_up.jpg,5.0,8,,,,,,,,,,,,,,,,,,,,,,,,,,,,,,,,
0.0,1.0,0.81,0.0,24.0,24.0,24.0,1.0,ironing_board_07s.jpg,0.0,clockno_default.jpg,5.0,8,,,,,,,,,,,,,,,,,,,,,,,,,,,,,,,,
1.0,1.0,1.087,0.0,25.0,25.0,25.0,1.0,ironing_board_07s.jpg,1.0,clockno_default.jpg,5.0,8,,,,,,,,,,,,,,,,,,,,,,,,,,,,,,,,
0.0,1.0,1.335,0.0,26.0,26.0,26.0,1.0,turf_03s.jpg,0.0,clockno_default.jpg,5.0,8,,,,,,,,,,,,,,,,,,,,,,,,,,,,,,,,
0.0,1.0,0.855,0.0,27.0,27.0,27.0,1.0,keyboard_05s.jpg,0.0,clockno_default.jpg,5.0,8,,,,,,,,,,,,,,,,,,,,,,,,,,,,,,,,
0.0,1.0,0.519,0.0,28.0,28.0,28.0,1.0,pocket_watch_16s.jpg,0.0,clockno_default.jpg,5.0,8,,,,,,,,,,,,,,,,,,,,,,,,,,,,,,,,
0.0,1.0,0.528,0.0,29.0,29.0,29.0,1.0,emerald_02s.jpg,0.0,clockno_default.jpg,5.0,8,,,,,,,,,,,,,,,,,,,,,,,,,,,,,,,,
0.0,1.0,0.565,0.0,30.0,30.0,30.0,1.0,pineapple_12s.jpg,0.0,clockno_up.jpg,6.0,8,,,,,,,,,,,,,,,,,,,,,,,,,,,,,,,,
0.0,1.0,0.532,0.0,31.0,31.0,31.0,1.0,blazer_02s.jpg,0.0,clockno_default.jpg,6.0,8,,,,,,,,,,,,,,,,,,,,,,,,,,,,,,,,
0.0,1.0,0.423,0.0,32.0,32.0,32.0,1.0,pinwheel_06s.jpg,0.0,clockno_default.jpg,6.0,8,,,,,,,,,,,,,,,,,,,,,,,,,,,,,,,,
0.0,1.0,1.948,0.0,33.0,33.0,33.0,1.0,sushi_08s.jpg,0.0,clockno_default.jpg,6.0,8,,,,,,,,,,,,,,,,,,,,,,,,,,,,,,,,
0.0,1.0,0.611,0.0,34.0,34.0,34.0,1.0,kilt_18s.jpg,0.0,clockno_default.jpg,6.0,8,,,,,,,,,,,,,,,,,,,,,,,,,,,,,,,,
0.0,1.0,0.705,0.0,35.0,35.0,35.0,1.0,tab_09s.jpg,0.0,clockno_default.jpg,6.0,8,,,,,,,,,,,,,,,,,,,,,,,,,,,,,,,,
,,,,,,,,,0.0,,,8,0.0,1.0,2.005,0.0,0.0,0.0,0.0,1.0,kettle_08s.jpg,eyedropper_12s.jpg,,,,,,,,,,,,,,,,,,,,,,
,,,,,,,,,0.0,,,8,0.0,1.0,2.743,0.0,1.0,1.0,1.0,1.0,pineapple_12s.jpg,keyboard_05s.jpg,,,,,,,,,,,,,,,,,,,,,,
,,,,,,,,,1.0,,,8,0.0,0.0,1.717,0.0,2.0,2.0,2.0,1.0,pocket_watch_16s.jpg,blazer_02s.jpg,,,,,,,,,,,,,,,,,,,,,,
,,,,,,,,,1.0,,,8,0.0,0.0,1.427,0.0,3.0,3.0,3.0,1.0,trampoline_13s.jpg,fire_alarm_05s.jpg,,,,,,,,,,,,,,,,,,,,,,
,,,,,,,,,0.0,,,8,0.0,1.0,1.583,0.0,4.0,4.0,4.0,1.0,tile_08s.jpg,solar_panel_02s.jpg,,,,,,,,,,,,,,,,,,,,,,
,,,,,,,,,0.0,,,8,1.0,0.0,1.226,0.0,5.0,5.0,5.0,1.0,emerald_02s.jpg,turf_03s.jpg,,,,,,,,,,,,,,,,,,,,,,
,,,,,,,,,,,,8,,,,,,,,,,,0.0,4.0,4.0,4.0,1.0,clockno_present_5_9.xlsx,clockno_compare_task_5_9.xlsx,,,,,,,,,,,,,,,
0.0,1.0,0.832,0.0,0.0,0.0,0.0,1.0,undershirt_02s.jpg,0.0,clockno_up.jpg,1.0,8,,,,,,,,,,,,,,,,,,,,,,,,,,,,,,,,
0.0,1.0,0.702,0.0,1.0,1.0,1.0,1.0,giraffe_11s.jpg,0.0,clockno_default.jpg,1.0,8,,,,,,,,,,,,,,,,,,,,,,,,,,,,,,,,
1.0,1.0,0.909,0.0,2.0,2.0,2.0,1.0,undershirt_02s.jpg,1.0,clockno_default.jpg,1.0,8,,,,,,,,,,,,,,,,,,,,,,,,,,,,,,,,
0.0,1.0,0.506,0.0,3.0,3.0,3.0,1.0,puffin_19s.jpg,0.0,clockno_default.jpg,1.0,8,,,,,,,,,,,,,,,,,,,,,,,,,,,,,,,,
0.0,1.0,0.775,0.0,4.0,4.0,4.0,1.0,puddle_02s.jpg,0.0,clockno_default.jpg,1.0,8,,,,,,,,,,,,,,,,,,,,,,,,,,,,,,,,
1.0,1.0,1.764,0.0,5.0,5.0,5.0,1.0,giraffe_11s.jpg,1.0,clockno_default.jpg,1.0,8,,,,,,,,,,,,,,,,,,,,,,,,,,,,,,,,
0.0,1.0,0.687,0.0,6.0,6.0,6.0,1.0,lipstick_02s.jpg,0.0,clockno_default.jpg,1.0,8,,,,,,,,,,,,,,,,,,,,,,,,,,,,,,,,
0.0,1.0,1.116,0.0,7.0,7.0,7.0,1.0,cotton_candy_01b.jpg,0.0,clockno_up.jpg,2.0,8,,,,,,,,,,,,,,,,,,,,,,,,,,,,,,,,
1.0,1.0,1.06,0.0,8.0,8.0,8.0,1.0,cotton_candy_01b.jpg,1.0,clockno_default.jpg,2.0,8,,,,,,,,,,,,,,,,,,,,,,,,,,,,,,,,
0.0,1.0,1.091,0.0,9.0,9.0,9.0,1.0,abacus_12s.jpg,0.0,clockno_default.jpg,2.0,8,,,,,,,,,,,,,,,,,,,,,,,,,,,,,,,,
0.0,1.0,0.724,0.0,10.0,10.0,10.0,1.0,toaster_03s.jpg,0.0,clockno_default.jpg,2.0,8,,,,,,,,,,,,,,,,,,,,,,,,,,,,,,,,
1.0,1.0,0.748,0.0,11.0,11.0,11.0,1.0,toaster_03s.jpg,1.0,clockno_default.jpg,2.0,8,,,,,,,,,,,,,,,,,,,,,,,,,,,,,,,,
0.0,1.0,0.649,0.0,12.0,12.0,12.0,1.0,toy_04s.jpg,0.0,clockno_default.jpg,2.0,8,,,,,,,,,,,,,,,,,,,,,,,,,,,,,,,,
0.0,1.0,1.13,0.0,13.0,13.0,13.0,1.0,chip_04s.jpg,0.0,clockno_up.jpg,3.0,8,,,,,,,,,,,,,,,,,,,,,,,,,,,,,,,,
0.0,1.0,0.682,0.0,14.0,14.0,14.0,1.0,flask_04s.jpg,0.0,clockno_default.jpg,3.0,8,,,,,,,,,,,,,,,,,,,,,,,,,,,,,,,,
0.0,1.0,0.562,0.0,15.0,15.0,15.0,1.0,lamppost_09s.jpg,0.0,clockno_default.jpg,3.0,8,,,,,,,,,,,,,,,,,,,,,,,,,,,,,,,,
1.0,1.0,0.799,0.0,16.0,16.0,16.0,1.0,lamppost_09s.jpg,1.0,clockno_default.jpg,3.0,8,,,,,,,,,,,,,,,,,,,,,,,,,,,,,,,,
0.0,1.0,0.762,0.0,17.0,17.0,17.0,1.0,tripod_01b.jpg,0.0,clockno_default.jpg,3.0,8,,,,,,,,,,,,,,,,,,,,,,,,,,,,,,,,
0.0,1.0,0.899,0.0,18.0,18.0,18.0,1.0,flip_flop_03s.jpg,0.0,clockno_up.jpg,4.0,8,,,,,,,,,,,,,,,,,,,,,,,,,,,,,,,,
1.0,1.0,0.767,0.0,19.0,19.0,19.0,1.0,flip_flop_03s.jpg,1.0,clockno_default.jpg,4.0,8,,,,,,,,,,,,,,,,,,,,,,,,,,,,,,,,
0.0,1.0,0.814,0.0,20.0,20.0,20.0,1.0,abacus_12s.jpg,0.0,clockno_default.jpg,4.0,8,,,,,,,,,,,,,,,,,,,,,,,,,,,,,,,,
1.0,1.0,1.149,0.0,21.0,21.0,21.0,1.0,flip_flop_03s.jpg,1.0,clockno_default.jpg,4.0,8,,,,,,,,,,,,,,,,,,,,,,,,,,,,,,,,
0.0,1.0,0.633,0.0,22.0,22.0,22.0,1.0,rooster_03s.jpg,0.0,clockno_default.jpg,4.0,8,,,,,,,,,,,,,,,,,,,,,,,,,,,,,,,,
0.0,1.0,1.043,0.0,23.0,23.0,23.0,1.0,boar_10s.jpg,0.0,clockno_up.jpg,5.0,8,,,,,,,,,,,,,,,,,,,,,,,,,,,,,,,,
0.0,1.0,0.504,0.0,24.0,24.0,24.0,1.0,spoon02a.jpg,0.0,clockno_default.jpg,5.0,8,,,,,,,,,,,,,,,,,,,,,,,,,,,,,,,,
0.0,1.0,0.736,0.0,25.0,25.0,25.0,1.0,rhubarb_03s.jpg,0.0,clockno_default.jpg,5.0,8,,,,,,,,,,,,,,,,,,,,,,,,,,,,,,,,
0.0,1.0,0.773,0.0,26.0,26.0,26.0,1.0,thorn_13s.jpg,0.0,clockno_default.jpg,5.0,8,,,,,,,,,,,,,,,,,,,,,,,,,,,,,,,,
0.0,1.0,1.203,0.0,27.0,27.0,27.0,1.0,badge_03s.jpg,0.0,clockno_default.jpg,5.0,8,,,,,,,,,,,,,,,,,,,,,,,,,,,,,,,,
0.0,1.0,0.721,0.0,28.0,28.0,28.0,1.0,penguin_16s.jpg,0.0,clockno_default.jpg,5.0,8,,,,,,,,,,,,,,,,,,,,,,,,,,,,,,,,
0.0,1.0,0.863,0.0,29.0,29.0,29.0,1.0,fur_coat_11s.jpg,0.0,clockno_default.jpg,5.0,8,,,,,,,,,,,,,,,,,,,,,,,,,,,,,,,,
0.0,1.0,0.854,0.0,30.0,30.0,30.0,1.0,quesadilla_07s.jpg,0.0,clockno_up.jpg,6.0,8,,,,,,,,,,,,,,,,,,,,,,,,,,,,,,,,
0.0,1.0,0.509,0.0,31.0,31.0,31.0,1.0,teabag_12s.jpg,0.0,clockno_default.jpg,6.0,8,,,,,,,,,,,,,,,,,,,,,,,,,,,,,,,,
0.0,1.0,0.679,0.0,32.0,32.0,32.0,1.0,smoothie_09s.jpg,0.0,clockno_default.jpg,6.0,8,,,,,,,,,,,,,,,,,,,,,,,,,,,,,,,,
0.0,1.0,0.463,0.0,33.0,33.0,33.0,1.0,lava_02s.jpg,0.0,clockno_default.jpg,6.0,8,,,,,,,,,,,,,,,,,,,,,,,,,,,,,,,,
0.0,1.0,0.645,0.0,34.0,34.0,34.0,1.0,denture_03s.jpg,0.0,clockno_default.jpg,6.0,8,,,,,,,,,,,,,,,,,,,,,,,,,,,,,,,,
1.0,1.0,1.356,0.0,35.0,35.0,35.0,1.0,denture_03s.jpg,1.0,clockno_default.jpg,6.0,8,,,,,,,,,,,,,,,,,,,,,,,,,,,,,,,,
,,,,,,,,,0.0,,,8,1.0,0.0,2.256,0.0,0.0,0.0,0.0,1.0,rhubarb_03s.jpg,rooster_03s.jpg,,,,,,,,,,,,,,,,,,,,,,
,,,,,,,,,1.0,,,8,1.0,1.0,2.026,0.0,1.0,1.0,1.0,1.0,penguin_16s.jpg,teabag_12s.jpg,,,,,,,,,,,,,,,,,,,,,,
,,,,,,,,,0.0,,,8,1.0,0.0,2.37,0.0,2.0,2.0,2.0,1.0,smoothie_09s.jpg,fur_coat_11s.jpg,,,,,,,,,,,,,,,,,,,,,,
,,,,,,,,,1.0,,,8,0.0,0.0,1.216,0.0,3.0,3.0,3.0,1.0,puffin_19s.jpg,lipstick_02s.jpg,,,,,,,,,,,,,,,,,,,,,,
,,,,,,,,,1.0,,,8,1.0,1.0,1.293,0.0,4.0,4.0,4.0,1.0,flask_04s.jpg,tripod_01b.jpg,,,,,,,,,,,,,,,,,,,,,,
,,,,,,,,,0.0,,,8,0.0,1.0,0.898,0.0,5.0,5.0,5.0,1.0,thorn_13s.jpg,boar_10s.jpg,,,,,,,,,,,,,,,,,,,,,,
0.0,1.0,0.909,,,,,,mop_08s.jpg,0.0,clock_5_1.png,1.0,8,,,,,,,,,,,,,,,,,,0.0,0.0,0.0,0.0,1.0,,,,,,,,,,
0.0,1.0,0.773,,,,,,inhaler_01b.jpg,0.0,clock_5_2.png,1.0,8,,,,,,,,,,,,,,,,,,0.0,1.0,1.0,1.0,1.0,,,,,,,,,,
0.0,1.0,1.201,,,,,,racehorse_03s.jpg,0.0,clock_5_3.png,1.0,8,,,,,,,,,,,,,,,,,,0.0,2.0,2.0,2.0,1.0,,,,,,,,,,
1.0,1.0,0.766,,,,,,inhaler_01b.jpg,1.0,clock_5_4.png,1.0,8,,,,,,,,,,,,,,,,,,0.0,3.0,3.0,3.0,1.0,,,,,,,,,,
1.0,1.0,0.734,,,,,,inhaler_01b.jpg,1.0,clock_5_5.png,1.0,8,,,,,,,,,,,,,,,,,,0.0,4.0,4.0,4.0,1.0,,,,,,,,,,
0.0,1.0,0.517,,,,,,crossbow_10s.jpg,0.0,clock_7_1.png,2.0,8,,,,,,,,,,,,,,,,,,0.0,5.0,5.0,5.0,1.0,,,,,,,,,,
0.0,1.0,1.35,,,,,,quad_04s.jpg,0.0,clock_7_2.png,2.0,8,,,,,,,,,,,,,,,,,,0.0,6.0,6.0,6.0,1.0,,,,,,,,,,
0.0,1.0,0.51,,,,,,mannequin_05s.jpg,0.0,clock_7_3.png,2.0,8,,,,,,,,,,,,,,,,,,0.0,7.0,7.0,7.0,1.0,,,,,,,,,,
1.0,1.0,0.911,,,,,,crossbow_10s.jpg,1.0,clock_7_4.png,2.0,8,,,,,,,,,,,,,,,,,,0.0,8.0,8.0,8.0,1.0,,,,,,,,,,
0.0,1.0,0.643,,,,,,squirt_gun_03s.jpg,0.0,clock_7_5.png,2.0,8,,,,,,,,,,,,,,,,,,0.0,9.0,9.0,9.0,1.0,,,,,,,,,,
1.0,1.0,0.747,,,,,,squirt_gun_03s.jpg,1.0,clock_7_6.png,2.0,8,,,,,,,,,,,,,,,,,,0.0,10.0,10.0,10.0,1.0,,,,,,,,,,
0.0,1.0,1.326,,,,,,coconut_08s.jpg,0.0,clock_7_7.png,2.0,8,,,,,,,,,,,,,,,,,,0.0,11.0,11.0,11.0,1.0,,,,,,,,,,
0.0,1.0,1.224,,,,,,leash_10s.jpg,0.0,clock_6_1.png,3.0,8,,,,,,,,,,,,,,,,,,0.0,12.0,12.0,12.0,1.0,,,,,,,,,,
0.0,1.0,0.658,,,,,,tattoo_14s.jpg,0.0,clock_6_2.png,3.0,8,,,,,,,,,,,,,,,,,,0.0,13.0,13.0,13.0,1.0,,,,,,,,,,
0.0,1.0,0.526,,,,,,bowler_hat_10s.jpg,0.0,clock_6_3.png,3.0,8,,,,,,,,,,,,,,,,,,0.0,14.0,14.0,14.0,1.0,,,,,,,,,,
0.0,1.0,0.708,,,,,,powder_07s.jpg,0.0,clock_6_4.png,3.0,8,,,,,,,,,,,,,,,,,,0.0,15.0,15.0,15.0,1.0,,,,,,,,,,
1.0,1.0,0.926,,,,,,powder_07s.jpg,1.0,clock_6_5.png,3.0,8,,,,,,,,,,,,,,,,,,0.0,16.0,16.0,16.0,1.0,,,,,,,,,,
0.0,1.0,0.957,,,,,,trident_07s.jpg,0.0,clock_6_6.png,3.0,8,,,,,,,,,,,,,,,,,,0.0,17.0,17.0,17.0,1.0,,,,,,,,,,
0.0,1.0,0.721,,,,,,stingray_02s.jpg,0.0,clock_6_1.png,4.0,8,,,,,,,,,,,,,,,,,,0.0,18.0,18.0,18.0,1.0,,,,,,,,,,
0.0,1.0,0.557,,,,,,target_11s.jpg,0.0,clock_6_2.png,4.0,8,,,,,,,,,,,,,,,,,,0.0,19.0,19.0,19.0,1.0,,,,,,,,,,
0.0,1.0,0.721,,,,,,parachute_03s.jpg,0.0,clock_6_3.png,4.0,8,,,,,,,,,,,,,,,,,,0.0,20.0,20.0,20.0,1.0,,,,,,,,,,
0.0,1.0,0.577,,,,,,orangutan_03s.jpg,0.0,clock_6_4.png,4.0,8,,,,,,,,,,,,,,,,,,0.0,21.0,21.0,21.0,1.0,,,,,,,,,,
0.0,1.0,0.614,,,,,,fondue_07s.jpg,0.0,clock_6_5.png,4.0,8,,,,,,,,,,,,,,,,,,0.0,22.0,22.0,22.0,1.0,,,,,,,,,,
0.0,1.0,0.919,,,,,,mask_09s.jpg,0.0,clock_6_6.png,4.0,8,,,,,,,,,,,,,,,,,,0.0,23.0,23.0,23.0,1.0,,,,,,,,,,
0.0,1.0,0.948,,,,,,chopsticks_08s.jpg,0.0,clock_5_1.png,5.0,8,,,,,,,,,,,,,,,,,,0.0,24.0,24.0,24.0,1.0,,,,,,,,,,
0.0,1.0,0.917,,,,,,dynamite_01b.jpg,0.0,clock_5_2.png,5.0,8,,,,,,,,,,,,,,,,,,0.0,25.0,25.0,25.0,1.0,,,,,,,,,,
0.0,1.0,0.616,,,,,,quilt_03s.jpg,0.0,clock_5_3.png,5.0,8,,,,,,,,,,,,,,,,,,0.0,26.0,26.0,26.0,1.0,,,,,,,,,,
0.0,1.0,0.527,,,,,,lantern_04s.jpg,0.0,clock_5_4.png,5.0,8,,,,,,,,,,,,,,,,,,0.0,27.0,27.0,27.0,1.0,,,,,,,,,,
1.0,0.0,1.139,,,,,,fondue_07s.jpg,0.0,clock_5_5.png,5.0,8,,,,,,,,,,,,,,,,,,0.0,28.0,28.0,28.0,1.0,,,,,,,,,,
0.0,1.0,0.675,,,,,,road_sign_05s.jpg,0.0,clock_7_1.png,6.0,8,,,,,,,,,,,,,,,,,,0.0,29.0,29.0,29.0,1.0,,,,,,,,,,
0.0,1.0,0.484,,,,,,swan_11s.jpg,0.0,clock_7_2.png,6.0,8,,,,,,,,,,,,,,,,,,0.0,30.0,30.0,30.0,1.0,,,,,,,,,,
0.0,1.0,0.488,,,,,,laser_pointer_02s.jpg,0.0,clock_7_3.png,6.0,8,,,,,,,,,,,,,,,,,,0.0,31.0,31.0,31.0,1.0,,,,,,,,,,
0.0,1.0,0.628,,,,,,toilet_paper_12s.jpg,0.0,clock_7_4.png,6.0,8,,,,,,,,,,,,,,,,,,0.0,32.0,32.0,32.0,1.0,,,,,,,,,,
0.0,1.0,0.486,,,,,,crate_05s.jpg,0.0,clock_7_5.png,6.0,8,,,,,,,,,,,,,,,,,,0.0,33.0,33.0,33.0,1.0,,,,,,,,,,
0.0,1.0,0.432,,,,,,recliner_02s.jpg,0.0,clock_7_6.png,6.0,8,,,,,,,,,,,,,,,,,,0.0,34.0,34.0,34.0,1.0,,,,,,,,,,
1.0,1.0,1.382,,,,,,laser_pointer_02s.jpg,1.0,clock_7_7.png,6.0,8,,,,,,,,,,,,,,,,,,0.0,35.0,35.0,35.0,1.0,,,,,,,,,,
,,,,,,,,,1.0,,,8,0.0,0.0,2.326,,,,,,coconut_08s.jpg,bowler_hat_10s.jpg,,,,,,,,,,,,,0.0,0.0,0.0,0.0,1.0,,,,,
,,,,,,,,,0.0,,,8,1.0,0.0,1.418,,,,,,quilt_03s.jpg,mask_09s.jpg,,,,,,,,,,,,,0.0,1.0,1.0,1.0,1.0,,,,,
,,,,,,,,,0.0,,,8,1.0,0.0,1.444,,,,,,parachute_03s.jpg,trident_07s.jpg,,,,,,,,,,,,,0.0,2.0,2.0,2.0,1.0,,,,,
,,,,,,,,,1.0,,,8,0.0,0.0,1.258,,,,,,stingray_02s.jpg,orangutan_03s.jpg,,,,,,,,,,,,,0.0,3.0,3.0,3.0,1.0,,,,,
,,,,,,,,,0.0,,,8,1.0,0.0,1.378,,,,,,toilet_paper_12s.jpg,road_sign_05s.jpg,,,,,,,,,,,,,0.0,4.0,4.0,4.0,1.0,,,,,
,,,,,,,,,0.0,,,8,0.0,1.0,1.116,,,,,,crate_05s.jpg,swan_11s.jpg,,,,,,,,,,,,,0.0,5.0,5.0,5.0,1.0,,,,,
,,,,,,,,,,,,8,,,,,,,,,,,,,,,,clock_present_1_9.xlsx,clock_compare_task_1_9.xlsx,,,,,,,,,,,0.0,0.0,0.0,0.0,1.0
0.0,1.0,0.737,,,,,,rocket_02s.jpg,0.0,clock_5_1.png,1.0,8,,,,,,,,,,,,,,,,,,0.0,0.0,0.0,0.0,1.0,,,,,,,,,,
0.0,1.0,0.517,,,,,,paintbrush_04s.jpg,0.0,clock_5_2.png,1.0,8,,,,,,,,,,,,,,,,,,0.0,1.0,1.0,1.0,1.0,,,,,,,,,,
0.0,1.0,1.583,,,,,,blender_08s.jpg,0.0,clock_5_3.png,1.0,8,,,,,,,,,,,,,,,,,,0.0,2.0,2.0,2.0,1.0,,,,,,,,,,
0.0,1.0,0.523,,,,,,owl_15s.jpg,0.0,clock_5_4.png,1.0,8,,,,,,,,,,,,,,,,,,0.0,3.0,3.0,3.0,1.0,,,,,,,,,,
1.0,1.0,0.81,,,,,,paintbrush_04s.jpg,1.0,clock_5_5.png,1.0,8,,,,,,,,,,,,,,,,,,0.0,4.0,4.0,4.0,1.0,,,,,,,,,,
0.0,1.0,0.725,,,,,,sparkler_02s.jpg,0.0,clock_7_1.png,2.0,8,,,,,,,,,,,,,,,,,,0.0,5.0,5.0,5.0,1.0,,,,,,,,,,
1.0,1.0,0.85,,,,,,sparkler_02s.jpg,1.0,clock_7_2.png,2.0,8,,,,,,,,,,,,,,,,,,0.0,6.0,6.0,6.0,1.0,,,,,,,,,,
0.0,1.0,0.965,,,,,,paper_towel_03s.jpg,0.0,clock_7_3.png,2.0,8,,,,,,,,,,,,,,,,,,0.0,7.0,7.0,7.0,1.0,,,,,,,,,,
1.0,1.0,0.741,,,,,,paper_towel_03s.jpg,1.0,clock_7_4.png,2.0,8,,,,,,,,,,,,,,,,,,0.0,8.0,8.0,8.0,1.0,,,,,,,,,,
0.0,1.0,0.716,,,,,,punch1_10s.jpg,0.0,clock_7_5.png,2.0,8,,,,,,,,,,,,,,,,,,0.0,9.0,9.0,9.0,1.0,,,,,,,,,,
0.0,1.0,0.729,,,,,,puppet_01b.jpg,0.0,clock_7_6.png,2.0,8,,,,,,,,,,,,,,,,,,0.0,10.0,10.0,10.0,1.0,,,,,,,,,,
0.0,1.0,1.375,,,,,,latte_06s.jpg,0.0,clock_7_7.png,2.0,8,,,,,,,,,,,,,,,,,,0.0,11.0,11.0,11.0,1.0,,,,,,,,,,
0.0,1.0,0.791,,,,,,popcorn_09s.jpg,0.0,clock_6_1.png,3.0,8,,,,,,,,,,,,,,,,,,0.0,12.0,12.0,12.0,1.0,,,,,,,,,,
0.0,1.0,1.058,,,,,,juicer2_06s.jpg,0.0,clock_6_2.png,3.0,8,,,,,,,,,,,,,,,,,,0.0,13.0,13.0,13.0,1.0,,,,,,,,,,
0.0,1.0,0.575,,,,,,teacup_07s.jpg,0.0,clock_6_3.png,3.0,8,,,,,,,,,,,,,,,,,,0.0,14.0,14.0,14.0,1.0,,,,,,,,,,
0.0,1.0,0.498,,,,,,perfume_06s.jpg,0.0,clock_6_4.png,3.0,8,,,,,,,,,,,,,,,,,,0.0,15.0,15.0,15.0,1.0,,,,,,,,,,
0.0,1.0,0.557,,,,,,megaphone_03s.jpg,0.0,clock_6_5.png,3.0,8,,,,,,,,,,,,,,,,,,0.0,16.0,16.0,16.0,1.0,,,,,,,,,,
0.0,1.0,0.678,,,,,,beard_16s.jpg,0.0,clock_6_6.png,3.0,8,,,,,,,,,,,,,,,,,,0.0,17.0,17.0,17.0,1.0,,,,,,,,,,
0.0,1.0,0.591,,,,,,telephone_pole_05s.jpg,0.0,clock_5_1.png,4.0,8,,,,,,,,,,,,,,,,,,0.0,18.0,18.0,18.0,1.0,,,,,,,,,,
0.0,1.0,0.493,,,,,,mousetrap_15n.jpg,0.0,clock_5_2.png,4.0,8,,,,,,,,,,,,,,,,,,0.0,19.0,19.0,19.0,1.0,,,,,,,,,,
0.0,1.0,1.136,,,,,,peanut_butter_08s.jpg,0.0,clock_5_3.png,4.0,8,,,,,,,,,,,,,,,,,,0.0,20.0,20.0,20.0,1.0,,,,,,,,,,
1.0,1.0,0.93,,,,,,mousetrap_15n.jpg,1.0,clock_5_4.png,4.0,8,,,,,,,,,,,,,,,,,,0.0,21.0,21.0,21.0,1.0,,,,,,,,,,
0.0,1.0,0.832,,,,,,thermostat_02s.jpg,0.0,clock_5_5.png,4.0,8,,,,,,,,,,,,,,,,,,0.0,22.0,22.0,22.0,1.0,,,,,,,,,,
0.0,1.0,0.687,,,,,,petri_dish_12s.jpg,0.0,clock_6_1.png,5.0,8,,,,,,,,,,,,,,,,,,0.0,23.0,23.0,23.0,1.0,,,,,,,,,,
1.0,1.0,0.691,,,,,,petri_dish_12s.jpg,1.0,clock_6_2.png,5.0,8,,,,,,,,,,,,,,,,,,0.0,24.0,24.0,24.0,1.0,,,,,,,,,,
0.0,1.0,0.584,,,,,,limousine_12s.jpg,0.0,clock_6_3.png,5.0,8,,,,,,,,,,,,,,,,,,0.0,25.0,25.0,25.0,1.0,,,,,,,,,,
0.0,1.0,0.948,,,,,,loveseat_08s.jpg,0.0,clock_6_4.png,5.0,8,,,,,,,,,,,,,,,,,,0.0,26.0,26.0,26.0,1.0,,,,,,,,,,
0.0,1.0,0.736,,,,,,muffin_12n.jpg,0.0,clock_6_5.png,5.0,8,,,,,,,,,,,,,,,,,,0.0,27.0,27.0,27.0,1.0,,,,,,,,,,
0.0,1.0,0.726,,,,,,orchid_01b.jpg,0.0,clock_6_6.png,5.0,8,,,,,,,,,,,,,,,,,,0.0,28.0,28.0,28.0,1.0,,,,,,,,,,
0.0,1.0,0.758,,,,,,incense_02s.jpg,0.0,clock_7_1.png,6.0,8,,,,,,,,,,,,,,,,,,0.0,29.0,29.0,29.0,1.0,,,,,,,,,,
0.0,1.0,0.859,,,,,,exhaust_pipe_10s.jpg,0.0,clock_7_2.png,6.0,8,,,,,,,,,,,,,,,,,,0.0,30.0,30.0,30.0,1.0,,,,,,,,,,
0.0,1.0,0.57,,,,,,plunger_08s.jpg,0.0,clock_7_3.png,6.0,8,,,,,,,,,,,,,,,,,,0.0,31.0,31.0,31.0,1.0,,,,,,,,,,
0.0,1.0,0.582,,,,,,orchid_01b.jpg,0.0,clock_7_4.png,6.0,8,,,,,,,,,,,,,,,,,,0.0,32.0,32.0,32.0,1.0,,,,,,,,,,
0.0,1.0,0.625,,,,,,tongs_08s.jpg,0.0,clock_7_5.png,6.0,8,,,,,,,,,,,,,,,,,,0.0,33.0,33.0,33.0,1.0,,,,,,,,,,
0.0,1.0,0.66,,,,,,pomegranate_04s.jpg,0.0,clock_7_6.png,6.0,8,,,,,,,,,,,,,,,,,,0.0,34.0,34.0,34.0,1.0,,,,,,,,,,
0.0,0.0,0.494,,,,,,exhaust_pipe_10s.jpg,1.0,clock_7_7.png,6.0,8,,,,,,,,,,,,,,,,,,0.0,35.0,35.0,35.0,1.0,,,,,,,,,,
,,,,,,,,,0.0,,,8,0.0,1.0,1.411,,,,,,limousine_12s.jpg,thermostat_02s.jpg,,,,,,,,,,,,,0.0,0.0,0.0,0.0,1.0,,,,,
,,,,,,,,,0.0,,,8,0.0,1.0,1.517,,,,,,incense_02s.jpg,loveseat_08s.jpg,,,,,,,,,,,,,0.0,1.0,1.0,1.0,1.0,,,,,
,,,,,,,,,1.0,,,8,1.0,1.0,2.665,,,,,,punch1_10s.jpg,popcorn_09s.jpg,,,,,,,,,,,,,0.0,2.0,2.0,2.0,1.0,,,,,
,,,,,,,,,0.0,,,8,1.0,0.0,1.69,,,,,,owl_15s.jpg,rocket_02s.jpg,,,,,,,,,,,,,0.0,3.0,3.0,3.0,1.0,,,,,
,,,,,,,,,0.0,,,8,0.0,1.0,1.502,,,,,,pomegranate_04s.jpg,plunger_08s.jpg,,,,,,,,,,,,,0.0,4.0,4.0,4.0,1.0,,,,,
,,,,,,,,,0.0,,,8,0.0,1.0,1.329,,,,,,megaphone_03s.jpg,juicer2_06s.jpg,,,,,,,,,,,,,0.0,5.0,5.0,5.0,1.0,,,,,
,,,,,,,,,,,,8,,,,,,,,,,,,,,,,clock_present_2_9.xlsx,clock_compare_task_2_9.xlsx,,,,,,,,,,,0.0,1.0,1.0,1.0,1.0
0.0,1.0,0.47,,,,,,teapot_03s.jpg,0.0,clock_5_1.png,1.0,8,,,,,,,,,,,,,,,,,,0.0,0.0,0.0,0.0,1.0,,,,,,,,,,
0.0,1.0,0.503,,,,,,tweezers_03s.jpg,0.0,clock_5_2.png,1.0,8,,,,,,,,,,,,,,,,,,0.0,1.0,1.0,1.0,1.0,,,,,,,,,,
0.0,0.0,0.449,,,,,,teapot_03s.jpg,1.0,clock_5_3.png,1.0,8,,,,,,,,,,,,,,,,,,0.0,2.0,2.0,2.0,1.0,,,,,,,,,,
0.0,1.0,0.679,,,,,,rocking_chair_05s.jpg,0.0,clock_5_4.png,1.0,8,,,,,,,,,,,,,,,,,,0.0,3.0,3.0,3.0,1.0,,,,,,,,,,
1.0,1.0,0.905,,,,,,rocking_chair_05s.jpg,1.0,clock_5_5.png,1.0,8,,,,,,,,,,,,,,,,,,0.0,4.0,4.0,4.0,1.0,,,,,,,,,,
0.0,1.0,0.934,,,,,,memory_stick_11s.jpg,0.0,clock_6_1.png,2.0,8,,,,,,,,,,,,,,,,,,0.0,5.0,5.0,5.0,1.0,,,,,,,,,,
1.0,1.0,0.892,,,,,,memory_stick_11s.jpg,1.0,clock_6_2.png,2.0,8,,,,,,,,,,,,,,,,,,0.0,6.0,6.0,6.0,1.0,,,,,,,,,,
0.0,1.0,0.659,,,,,,power_line_08s.jpg,0.0,clock_6_3.png,2.0,8,,,,,,,,,,,,,,,,,,0.0,7.0,7.0,7.0,1.0,,,,,,,,,,
0.0,1.0,0.707,,,,,,tambourine_06s.jpg,0.0,clock_6_4.png,2.0,8,,,,,,,,,,,,,,,,,,0.0,8.0,8.0,8.0,1.0,,,,,,,,,,
1.0,0.0,1.85,,,,,,lifesaver_10s.jpg,0.0,clock_6_5.png,2.0,8,,,,,,,,,,,,,,,,,,0.0,9.0,9.0,9.0,1.0,,,,,,,,,,
0.0,1.0,0.502,,,,,,punch2_09s.jpg,0.0,clock_6_6.png,2.0,8,,,,,,,,,,,,,,,,,,0.0,10.0,10.0,10.0,1.0,,,,,,,,,,
0.0,1.0,0.538,,,,,,feather02.jpg,0.0,clock_7_1.png,3.0,8,,,,,,,,,,,,,,,,,,0.0,11.0,11.0,11.0,1.0,,,,,,,,,,
0.0,1.0,1.415,,,,,,pencil02a.jpg,0.0,clock_7_2.png,3.0,8,,,,,,,,,,,,,,,,,,0.0,12.0,12.0,12.0,1.0,,,,,,,,,,
0.0,1.0,0.74,,,,,,radiator_05s.jpg,0.0,clock_7_3.png,3.0,8,,,,,,,,,,,,,,,,,,0.0,13.0,13.0,13.0,1.0,,,,,,,,,,
0.0,1.0,0.889,,,,,,olive_05s.jpg,0.0,clock_7_4.png,3.0,8,,,,,,,,,,,,,,,,,,0.0,14.0,14.0,14.0,1.0,,,,,,,,,,
1.0,1.0,1.849,,,,,,radiator_05s.jpg,1.0,clock_7_5.png,3.0,8,,,,,,,,,,,,,,,,,,0.0,15.0,15.0,15.0,1.0,,,,,,,,,,
0.0,1.0,0.781,,,,,,marshmallow_08s.jpg,0.0,clock_7_6.png,3.0,8,,,,,,,,,,,,,,,,,,0.0,16.0,16.0,16.0,1.0,,,,,,,,,,
0.0,1.0,1.713,,,,,,pillbox_04s.jpg,0.0,clock_7_7.png,3.0,8,,,,,,,,,,,,,,,,,,0.0,17.0,17.0,17.0,1.0,,,,,,,,,,
0.0,1.0,0.983,,,,,,laundry_basket_11s.jpg,0.0,clock_5_1.png,4.0,8,,,,,,,,,,,,,,,,,,0.0,18.0,18.0,18.0,1.0,,,,,,,,,,
1.0,1.0,0.874,,,,,,laundry_basket_11s.jpg,1.0,clock_5_2.png,4.0,8,,,,,,,,,,,,,,,,,,0.0,19.0,19.0,19.0,1.0,,,,,,,,,,
1.0,1.0,1.0,,,,,,laundry_basket_11s.jpg,1.0,clock_5_3.png,4.0,8,,,,,,,,,,,,,,,,,,0.0,20.0,20.0,20.0,1.0,,,,,,,,,,
0.0,1.0,0.758,,,,,,knitting_needle_04s.jpg,0.0,clock_5_4.png,4.0,8,,,,,,,,,,,,,,,,,,0.0,21.0,21.0,21.0,1.0,,,,,,,,,,
0.0,1.0,1.064,,,,,,machete_06s.jpg,0.0,clock_5_5.png,4.0,8,,,,,,,,,,,,,,,,,,0.0,22.0,22.0,22.0,1.0,,,,,,,,,,
0.0,1.0,0.55,,,,,,marker_05s.jpg,0.0,clock_6_1.png,5.0,8,,,,,,,,,,,,,,,,,,0.0,23.0,23.0,23.0,1.0,,,,,,,,,,
0.0,1.0,0.518,,,,,,ram_05s.jpg,0.0,clock_6_2.png,5.0,8,,,,,,,,,,,,,,,,,,0.0,24.0,24.0,24.0,1.0,,,,,,,,,,
0.0,1.0,0.707,,,,,,ukulele_02s.jpg,0.0,clock_6_3.png,5.0,8,,,,,,,,,,,,,,,,,,0.0,25.0,25.0,25.0,1.0,,,,,,,,,,
0.0,1.0,0.809,,,,,,stamp2_08s.jpg,0.0,clock_6_4.png,5.0,8,,,,,,,,,,,,,,,,,,0.0,26.0,26.0,26.0,1.0,,,,,,,,,,
0.0,1.0,0.666,,,,,,plaster_cast_13s.jpg,0.0,clock_6_5.png,5.0,8,,,,,,,,,,,,,,,,,,0.0,27.0,27.0,27.0,1.0,,,,,,,,,,
0.0,1.0,0.86,,,,,,tape_measure_11s.jpg,0.0,clock_6_6.png,5.0,8,,,,,,,,,,,,,,,,,,0.0,28.0,28.0,28.0,1.0,,,,,,,,,,
0.0,1.0,0.52,,,,,,pantyhose_07s.jpg,0.0,clock_7_1.png,6.0,8,,,,,,,,,,,,,,,,,,0.0,29.0,29.0,29.0,1.0,,,,,,,,,,
0.0,1.0,0.446,,,,,,spatula04.jpg,0.0,clock_7_2.png,6.0,8,,,,,,,,,,,,,,,,,,0.0,30.0,30.0,30.0,1.0,,,,,,,,,,
0.0,1.0,0.693,,,,,,checkbook_11s.jpg,0.0,clock_7_3.png,6.0,8,,,,,,,,,,,,,,,,,,0.0,31.0,31.0,31.0,1.0,,,,,,,,,,
0.0,1.0,0.493,,,,,,phone_01b.jpg,0.0,clock_7_4.png,6.0,8,,,,,,,,,,,,,,,,,,0.0,32.0,32.0,32.0,1.0,,,,,,,,,,
0.0,1.0,1.007,,,,,,ram_05s.jpg,0.0,clock_7_5.png,6.0,8,,,,,,,,,,,,,,,,,,0.0,33.0,33.0,33.0,1.0,,,,,,,,,,
0.0,1.0,0.851,,,,,,pillbox_04s.jpg,0.0,clock_7_6.png,6.0,8,,,,,,,,,,,,,,,,,,0.0,34.0,34.0,34.0,1.0,,,,,,,,,,
0.0,1.0,0.582,,,,,,tulip_02s.jpg,0.0,clock_7_7.png,6.0,8,,,,,,,,,,,,,,,,,,0.0,35.0,35.0,35.0,1.0,,,,,,,,,,
,,,,,,,,,0.0,,,8,0.0,1.0,1.55,,,,,,pencil02a.jpg,lifesaver_10s.jpg,,,,,,,,,,,,,0.0,0.0,0.0,0.0,1.0,,,,,
,,,,,,,,,1.0,,,8,0.0,0.0,1.511,,,,,,plaster_cast_13s.jpg,spatula04.jpg,,,,,,,,,,,,,0.0,1.0,1.0,1.0,1.0,,,,,
,,,,,,,,,1.0,,,8,0.0,0.0,1.295,,,,,,tambourine_06s.jpg,feather02.jpg,,,,,,,,,,,,,0.0,2.0,2.0,2.0,1.0,,,,,
,,,,,,,,,0.0,,,8,1.0,0.0,1.044,,,,,,punch2_09s.jpg,power_line_08s.jpg,,,,,,,,,,,,,0.0,3.0,3.0,3.0,1.0,,,,,
,,,,,,,,,1.0,,,8,1.0,1.0,1.609,,,,,,phone_01b.jpg,tulip_02s.jpg,,,,,,,,,,,,,0.0,4.0,4.0,4.0,1.0,,,,,
,,,,,,,,,1.0,,,8,1.0,1.0,1.648,,,,,,marker_05s.jpg,stamp2_08s.jpg,,,,,,,,,,,,,0.0,5.0,5.0,5.0,1.0,,,,,
,,,,,,,,,,,,8,,,,,,,,,,,,,,,,clock_present_3_9.xlsx,clock_compare_task_3_9.xlsx,,,,,,,,,,,0.0,2.0,2.0,2.0,1.0
0.0,1.0,0.562,,,,,,comic_book_02s.jpg,0.0,clock_6_1.png,1.0,8,,,,,,,,,,,,,,,,,,0.0,0.0,0.0,0.0,1.0,,,,,,,,,,
0.0,1.0,0.83,,,,,,bolo_tie_08s.jpg,0.0,clock_6_2.png,1.0,8,,,,,,,,,,,,,,,,,,0.0,1.0,1.0,1.0,1.0,,,,,,,,,,
0.0,0.0,0.977,,,,,,comic_book_02s.jpg,1.0,clock_6_3.png,1.0,8,,,,,,,,,,,,,,,,,,0.0,2.0,2.0,2.0,1.0,,,,,,,,,,
0.0,1.0,0.631,,,,,,tomato_sauce_09s.jpg,0.0,clock_6_4.png,1.0,8,,,,,,,,,,,,,,,,,,0.0,3.0,3.0,3.0,1.0,,,,,,,,,,
0.0,1.0,0.778,,,,,,tiger_06s.jpg,0.0,clock_6_5.png,1.0,8,,,,,,,,,,,,,,,,,,0.0,4.0,4.0,4.0,1.0,,,,,,,,,,
0.0,1.0,1.235,,,,,,ice-cream_cone_06s.jpg,0.0,clock_6_6.png,1.0,8,,,,,,,,,,,,,,,,,,0.0,5.0,5.0,5.0,1.0,,,,,,,,,,
,0.0,,,,,,,bacon_05s.jpg,0.0,clock_6_1.png,2.0,8,,,,,,,,,,,,,,,,,,0.0,6.0,6.0,6.0,1.0,,,,,,,,,,
0.0,1.0,0.544,,,,,,padlock_07s.jpg,0.0,clock_6_2.png,2.0,8,,,,,,,,,,,,,,,,,,0.0,7.0,7.0,7.0,1.0,,,,,,,,,,
0.0,1.0,0.732,,,,,,pepper2_21s.jpg,0.0,clock_6_3.png,2.0,8,,,,,,,,,,,,,,,,,,0.0,8.0,8.0,8.0,1.0,,,,,,,,,,
0.0,1.0,1.015,,,,,,possum_09s.jpg,0.0,clock_6_4.png,2.0,8,,,,,,,,,,,,,,,,,,0.0,9.0,9.0,9.0,1.0,,,,,,,,,,
0.0,1.0,0.826,,,,,,golf_club_03s.jpg,0.0,clock_6_5.png,2.0,8,,,,,,,,,,,,,,,,,,0.0,10.0,10.0,10.0,1.0,,,,,,,,,,
0.0,0.0,0.426,,,,,,golf_club_03s.jpg,1.0,clock_6_6.png,2.0,8,,,,,,,,,,,,,,,,,,0.0,11.0,11.0,11.0,1.0,,,,,,,,,,
0.0,1.0,0.631,,,,,,gear_07s.jpg,0.0,clock_7_1.png,3.0,8,,,,,,,,,,,,,,,,,,0.0,12.0,12.0,12.0,1.0,,,,,,,,,,
0.0,1.0,1.019,,,,,,lion_18s.jpg,0.0,clock_7_2.png,3.0,8,,,,,,,,,,,,,,,,,,0.0,13.0,13.0,13.0,1.0,,,,,,,,,,
0.0,1.0,0.818,,,,,,stapler_01b.jpg,0.0,clock_7_3.png,3.0,8,,,,,,,,,,,,,,,,,,0.0,14.0,14.0,14.0,1.0,,,,,,,,,,
0.0,1.0,0.932,,,,,,camcorder_10s.jpg,0.0,clock_7_4.png,3.0,8,,,,,,,,,,,,,,,,,,0.0,15.0,15.0,15.0,1.0,,,,,,,,,,
0.0,1.0,0.949,,,,,,gingerbread_man_03s.jpg,0.0,clock_7_5.png,3.0,8,,,,,,,,,,,,,,,,,,0.0,16.0,16.0,16.0,1.0,,,,,,,,,,
0.0,1.0,1.449,,,,,,pepper2_21s.jpg,0.0,clock_7_6.png,3.0,8,,,,,,,,,,,,,,,,,,0.0,17.0,17.0,17.0,1.0,,,,,,,,,,
0.0,1.0,0.631,,,,,,pea_11s.jpg,0.0,clock_7_7.png,3.0,8,,,,,,,,,,,,,,,,,,0.0,18.0,18.0,18.0,1.0,,,,,,,,,,
0.0,1.0,0.759,,,,,,peach_04s.jpg,0.0,clock_5_1.png,4.0,8,,,,,,,,,,,,,,,,,,0.0,19.0,19.0,19.0,1.0,,,,,,,,,,
0.0,1.0,0.793,,,,,,mushroom_10n.jpg,0.0,clock_5_2.png,4.0,8,,,,,,,,,,,,,,,,,,0.0,20.0,20.0,20.0,1.0,,,,,,,,,,
0.0,1.0,0.766,,,,,,swimming_pool_17s.jpg,0.0,clock_5_3.png,4.0,8,,,,,,,,,,,,,,,,,,0.0,21.0,21.0,21.0,1.0,,,,,,,,,,
0.0,1.0,0.836,,,,,,pan_02s.jpg,0.0,clock_5_4.png,4.0,8,,,,,,,,,,,,,,,,,,0.0,22.0,22.0,22.0,1.0,,,,,,,,,,
0.0,1.0,1.22,,,,,,fox_13s.jpg,0.0,clock_5_5.png,4.0,8,,,,,,,,,,,,,,,,,,0.0,23.0,23.0,23.0,1.0,,,,,,,,,,
0.0,1.0,0.729,,,,,,latch_15s.jpg,0.0,clock_7_1.png,5.0,8,,,,,,,,,,,,,,,,,,0.0,24.0,24.0,24.0,1.0,,,,,,,,,,
0.0,1.0,0.615,,,,,,tinsel_12s.jpg,0.0,clock_7_2.png,5.0,8,,,,,,,,,,,,,,,,,,0.0,25.0,25.0,25.0,1.0,,,,,,,,,,
0.0,1.0,0.785,,,,,,oil_02s.jpg,0.0,clock_7_3.png,5.0,8,,,,,,,,,,,,,,,,,,0.0,26.0,26.0,26.0,1.0,,,,,,,,,,
0.0,1.0,0.9,,,,,,pepper2_21s.jpg,0.0,clock_7_4.png,5.0,8,,,,,,,,,,,,,,,,,,0.0,27.0,27.0,27.0,1.0,,,,,,,,,,
1.0,1.0,0.993,,,,,,latch_15s.jpg,1.0,clock_7_5.png,5.0,8,,,,,,,,,,,,,,,,,,0.0,28.0,28.0,28.0,1.0,,,,,,,,,,
0.0,1.0,1.044,,,,,,sunglasses_11s.jpg,0.0,clock_7_6.png,5.0,8,,,,,,,,,,,,,,,,,,0.0,29.0,29.0,29.0,1.0,,,,,,,,,,
0.0,1.0,0.925,,,,,,diving_board_07s.jpg,0.0,clock_7_7.png,5.0,8,,,,,,,,,,,,,,,,,,0.0,30.0,30.0,30.0,1.0,,,,,,,,,,
0.0,1.0,0.658,,,,,,smokingpipe.jpg,0.0,clock_5_1.png,6.0,8,,,,,,,,,,,,,,,,,,0.0,31.0,31.0,31.0,1.0,,,,,,,,,,
0.0,1.0,0.546,,,,,,possum_09s.jpg,0.0,clock_5_2.png,6.0,8,,,,,,,,,,,,,,,,,,0.0,32.0,32.0,32.0,1.0,,,,,,,,,,
0.0,1.0,0.645,,,,,,beaker_01b.jpg,0.0,clock_5_3.png,6.0,8,,,,,,,,,,,,,,,,,,0.0,33.0,33.0,33.0,1.0,,,,,,,,,,
0.0,1.0,1.067,,,,,,milk_02s.jpg,0.0,clock_5_4.png,6.0,8,,,,,,,,,,,,,,,,,,0.0,34.0,34.0,34.0,1.0,,,,,,,,,,
0.0,1.0,0.842,,,,,,tuxedo_01b.jpg,0.0,clock_5_5.png,6.0,8,,,,,,,,,,,,,,,,,,0.0,35.0,35.0,35.0,1.0,,,,,,,,,,
,,,,,,,,,0.0,,,8,0.0,1.0,0.879,,,,,,bacon_05s.jpg,tomato_sauce_09s.jpg,,,,,,,,,,,,,0.0,0.0,0.0,0.0,1.0,,,,,
,,,,,,,,,1.0,,,8,1.0,1.0,2.059,,,,,,diving_board_07s.jpg,beaker_01b.jpg,,,,,,,,,,,,,0.0,1.0,1.0,1.0,1.0,,,,,
,,,,,,,,,1.0,,,8,1.0,1.0,1.944,,,,,,tiger_06s.jpg,padlock_07s.jpg,,,,,,,,,,,,,0.0,2.0,2.0,2.0,1.0,,,,,
,,,,,,,,,0.0,,,8,1.0,0.0,1.584,,,,,,camcorder_10s.jpg,gear_07s.jpg,,,,,,,,,,,,,0.0,3.0,3.0,3.0,1.0,,,,,
,,,,,,,,,1.0,,,8,1.0,1.0,1.98,,,,,,smokingpipe.jpg,milk_02s.jpg,,,,,,,,,,,,,0.0,4.0,4.0,4.0,1.0,,,,,
,,,,,,,,,0.0,,,8,0.0,1.0,1.723,,,,,,gingerbread_man_03s.jpg,lion_18s.jpg,,,,,,,,,,,,,0.0,5.0,5.0,5.0,1.0,,,,,
,,,,,,,,,,,,8,,,,,,,,,,,,,,,,clock_present_4_9.xlsx,clock_compare_task_4_9.xlsx,,,,,,,,,,,0.0,3.0,3.0,3.0,1.0
0.0,1.0,0.59,,,,,,swordfish_05s.jpg,0.0,clock_5_1.png,1.0,8,,,,,,,,,,,,,,,,,,0.0,0.0,0.0,0.0,1.0,,,,,,,,,,
0.0,1.0,0.554,,,,,,sleeping_bag_12s.jpg,0.0,clock_5_2.png,1.0,8,,,,,,,,,,,,,,,,,,0.0,1.0,1.0,1.0,1.0,,,,,,,,,,
0.0,1.0,0.601,,,,,,turnstile_08s.jpg,0.0,clock_5_3.png,1.0,8,,,,,,,,,,,,,,,,,,0.0,2.0,2.0,2.0,1.0,,,,,,,,,,
0.0,1.0,0.547,,,,,,otter_05s.jpg,0.0,clock_5_4.png,1.0,8,,,,,,,,,,,,,,,,,,0.0,3.0,3.0,3.0,1.0,,,,,,,,,,
0.0,1.0,0.61,,,,,,frame_06s.jpg,0.0,clock_5_5.png,1.0,8,,,,,,,,,,,,,,,,,,0.0,4.0,4.0,4.0,1.0,,,,,,,,,,
0.0,1.0,0.994,,,,,,icemaker_10s.jpg,0.0,clock_6_1.png,2.0,8,,,,,,,,,,,,,,,,,,0.0,5.0,5.0,5.0,1.0,,,,,,,,,,
0.0,1.0,0.615,,,,,,playpen_11s.jpg,0.0,clock_6_2.png,2.0,8,,,,,,,,,,,,,,,,,,0.0,6.0,6.0,6.0,1.0,,,,,,,,,,
0.0,1.0,0.516,,,,,,insole_11s.jpg,0.0,clock_6_3.png,2.0,8,,,,,,,,,,,,,,,,,,0.0,7.0,7.0,7.0,1.0,,,,,,,,,,
0.0,0.0,0.565,,,,,,playpen_11s.jpg,1.0,clock_6_4.png,2.0,8,,,,,,,,,,,,,,,,,,0.0,8.0,8.0,8.0,1.0,,,,,,,,,,
0.0,1.0,0.784,,,,,,metronome_03s.jpg,0.0,clock_6_5.png,2.0,8,,,,,,,,,,,,,,,,,,0.0,9.0,9.0,9.0,1.0,,,,,,,,,,
0.0,1.0,0.663,,,,,,chime_12s.jpg,0.0,clock_6_6.png,2.0,8,,,,,,,,,,,,,,,,,,0.0,10.0,10.0,10.0,1.0,,,,,,,,,,
0.0,1.0,0.643,,,,,,thread_08s.jpg,0.0,clock_7_1.png,3.0,8,,,,,,,,,,,,,,,,,,0.0,11.0,11.0,11.0,1.0,,,,,,,,,,
0.0,1.0,0.701,,,,,,lizard_10n.jpg,0.0,clock_7_2.png,3.0,8,,,,,,,,,,,,,,,,,,0.0,12.0,12.0,12.0,1.0,,,,,,,,,,
0.0,1.0,0.52,,,,,,kayak_08s.jpg,0.0,clock_7_3.png,3.0,8,,,,,,,,,,,,,,,,,,0.0,13.0,13.0,13.0,1.0,,,,,,,,,,
0.0,1.0,0.644,,,,,,coral_08s.jpg,0.0,clock_7_4.png,3.0,8,,,,,,,,,,,,,,,,,,0.0,14.0,14.0,14.0,1.0,,,,,,,,,,
1.0,1.0,0.781,,,,,,kayak_08s.jpg,1.0,clock_7_5.png,3.0,8,,,,,,,,,,,,,,,,,,0.0,15.0,15.0,15.0,1.0,,,,,,,,,,
0.0,1.0,0.739,,,,,,mailbox_11s.jpg,0.0,clock_7_6.png,3.0,8,,,,,,,,,,,,,,,,,,0.0,16.0,16.0,16.0,1.0,,,,,,,,,,
0.0,1.0,0.69,,,,,,rope_16s.jpg,0.0,clock_7_7.png,3.0,8,,,,,,,,,,,,,,,,,,0.0,17.0,17.0,17.0,1.0,,,,,,,,,,
0.0,1.0,0.862,,,,,,saddle_06s.jpg,0.0,clock_7_1.png,4.0,8,,,,,,,,,,,,,,,,,,0.0,18.0,18.0,18.0,1.0,,,,,,,,,,
0.0,1.0,0.608,,,,,,duck_01b.jpg,0.0,clock_7_2.png,4.0,8,,,,,,,,,,,,,,,,,,0.0,19.0,19.0,19.0,1.0,,,,,,,,,,
1.0,1.0,1.621,,,,,,duck_01b.jpg,1.0,clock_7_3.png,4.0,8,,,,,,,,,,,,,,,,,,0.0,20.0,20.0,20.0,1.0,,,,,,,,,,
0.0,1.0,0.743,,,,,,mitten_10s.jpg,0.0,clock_7_4.png,4.0,8,,,,,,,,,,,,,,,,,,0.0,21.0,21.0,21.0,1.0,,,,,,,,,,
0.0,1.0,0.609,,,,,,birdcage_08s.jpg,0.0,clock_7_5.png,4.0,8,,,,,,,,,,,,,,,,,,0.0,22.0,22.0,22.0,1.0,,,,,,,,,,
0.0,1.0,1.262,,,,,,birthday_cake_09s.jpg,0.0,clock_7_6.png,4.0,8,,,,,,,,,,,,,,,,,,0.0,23.0,23.0,23.0,1.0,,,,,,,,,,
1.0,1.0,0.804,,,,,,duck_01b.jpg,1.0,clock_7_7.png,4.0,8,,,,,,,,,,,,,,,,,,0.0,24.0,24.0,24.0,1.0,,,,,,,,,,
0.0,1.0,0.833,,,,,,printer_09s.jpg,0.0,clock_6_1.png,5.0,8,,,,,,,,,,,,,,,,,,0.0,25.0,25.0,25.0,1.0,,,,,,,,,,
0.0,1.0,0.61,,,,,,syringe_02s.jpg,0.0,clock_6_2.png,5.0,8,,,,,,,,,,,,,,,,,,0.0,26.0,26.0,26.0,1.0,,,,,,,,,,
0.0,1.0,0.839,,,,,,jewel_01b.jpg,0.0,clock_6_3.png,5.0,8,,,,,,,,,,,,,,,,,,0.0,27.0,27.0,27.0,1.0,,,,,,,,,,
0.0,1.0,1.076,,,,,,paper_bag_12s.jpg,0.0,clock_6_4.png,5.0,8,,,,,,,,,,,,,,,,,,0.0,28.0,28.0,28.0,1.0,,,,,,,,,,
0.0,1.0,0.914,,,,,,gargoyle_08s.jpg,0.0,clock_6_5.png,5.0,8,,,,,,,,,,,,,,,,,,0.0,29.0,29.0,29.0,1.0,,,,,,,,,,
0.0,1.0,1.018,,,,,,otter_05s.jpg,0.0,clock_6_6.png,5.0,8,,,,,,,,,,,,,,,,,,0.0,30.0,30.0,30.0,1.0,,,,,,,,,,
0.0,1.0,0.741,,,,,,seahorse_13s.jpg,0.0,clock_5_1.png,6.0,8,,,,,,,,,,,,,,,,,,0.0,31.0,31.0,31.0,1.0,,,,,,,,,,
0.0,1.0,0.607,,,,,,metronome_03s.jpg,0.0,clock_5_2.png,6.0,8,,,,,,,,,,,,,,,,,,0.0,32.0,32.0,32.0,1.0,,,,,,,,,,
0.0,1.0,0.661,,,,,,sea_urchin_09s.jpg,0.0,clock_5_3.png,6.0,8,,,,,,,,,,,,,,,,,,0.0,33.0,33.0,33.0,1.0,,,,,,,,,,
0.0,1.0,0.584,,,,,,orange_12s.jpg,0.0,clock_5_4.png,6.0,8,,,,,,,,,,,,,,,,,,0.0,34.0,34.0,34.0,1.0,,,,,,,,,,
0.0,1.0,0.743,,,,,,safety_pin_02s.jpg,0.0,clock_5_5.png,6.0,8,,,,,,,,,,,,,,,,,,0.0,35.0,35.0,35.0,1.0,,,,,,,,,,
,,,,,,,,,0.0,,,8,1.0,0.0,1.216,,,,,,icemaker_10s.jpg,turnstile_08s.jpg,,,,,,,,,,,,,0.0,0.0,0.0,0.0,1.0,,,,,
,,,,,,,,,1.0,,,8,1.0,1.0,1.325,,,,,,birdcage_08s.jpg,printer_09s.jpg,,,,,,,,,,,,,0.0,1.0,1.0,1.0,1.0,,,,,
,,,,,,,,,1.0,,,8,1.0,1.0,1.36,,,,,,birthday_cake_09s.jpg,syringe_02s.jpg,,,,,,,,,,,,,0.0,2.0,2.0,2.0,1.0,,,,,
,,,,,,,,,1.0,,,8,0.0,0.0,1.448,,,,,,thread_08s.jpg,coral_08s.jpg,,,,,,,,,,,,,0.0,3.0,3.0,3.0,1.0,,,,,
,,,,,,,,,0.0,,,8,0.0,1.0,1.1,,,,,,mitten_10s.jpg,saddle_06s.jpg,,,,,,,,,,,,,0.0,4.0,4.0,4.0,1.0,,,,,
,,,,,,,,,1.0,,,8,0.0,0.0,0.898,,,,,,sleeping_bag_12s.jpg,frame_06s.jpg,,,,,,,,,,,,,0.0,5.0,5.0,5.0,1.0,,,,,
,,,,,,,,,,,,8,,,,,,,,,,,,,,,,clock_present_5_9.xlsx,clock_compare_task_5_9.xlsx,,,,,,,,,,,0.0,4.0,4.0,4.0,1.0
0.0,1.0,0.506,,,,,,hummingbird_05s.jpg,0.0,clock_6_1.png,1.0,8,,,,,,,,,,,,,,,,,,0.0,0.0,0.0,0.0,1.0,,,,,,,,,,
0.0,1.0,0.393,,,,,,soccer_ball_12s.jpg,0.0,clock_6_2.png,1.0,8,,,,,,,,,,,,,,,,,,0.0,1.0,1.0,1.0,1.0,,,,,,,,,,
1.0,1.0,0.933,,,,,,hummingbird_05s.jpg,1.0,clock_6_3.png,1.0,8,,,,,,,,,,,,,,,,,,0.0,2.0,2.0,2.0,1.0,,,,,,,,,,
0.0,1.0,0.642,,,,,,reindeer_08s.jpg,0.0,clock_6_4.png,1.0,8,,,,,,,,,,,,,,,,,,0.0,3.0,3.0,3.0,1.0,,,,,,,,,,
0.0,1.0,1.526,,,,,,coat_rack_01b.jpg,0.0,clock_6_5.png,1.0,8,,,,,,,,,,,,,,,,,,0.0,4.0,4.0,4.0,1.0,,,,,,,,,,
0.0,1.0,1.092,,,,,,turkey_10s.jpg,0.0,clock_6_6.png,1.0,8,,,,,,,,,,,,,,,,,,0.0,5.0,5.0,5.0,1.0,,,,,,,,,,
0.0,1.0,0.643,,,,,,trumpet_06s.jpg,0.0,clock_5_1.png,2.0,8,,,,,,,,,,,,,,,,,,0.0,6.0,6.0,6.0,1.0,,,,,,,,,,
1.0,1.0,0.813,,,,,,trumpet_06s.jpg,1.0,clock_5_2.png,2.0,8,,,,,,,,,,,,,,,,,,0.0,7.0,7.0,7.0,1.0,,,,,,,,,,
1.0,1.0,0.745,,,,,,trumpet_06s.jpg,1.0,clock_5_3.png,2.0,8,,,,,,,,,,,,,,,,,,0.0,8.0,8.0,8.0,1.0,,,,,,,,,,
0.0,1.0,1.265,,,,,,hummingbird_05s.jpg,0.0,clock_5_4.png,2.0,8,,,,,,,,,,,,,,,,,,0.0,9.0,9.0,9.0,1.0,,,,,,,,,,
0.0,1.0,0.915,,,,,,projector_08s.jpg,0.0,clock_5_5.png,2.0,8,,,,,,,,,,,,,,,,,,0.0,10.0,10.0,10.0,1.0,,,,,,,,,,
0.0,1.0,0.909,,,,,,ravioli_08s.jpg,0.0,clock_5_1.png,3.0,8,,,,,,,,,,,,,,,,,,0.0,11.0,11.0,11.0,1.0,,,,,,,,,,
0.0,1.0,0.782,,,,,,pencil_sharpener_09n.jpg,0.0,clock_5_2.png,3.0,8,,,,,,,,,,,,,,,,,,0.0,12.0,12.0,12.0,1.0,,,,,,,,,,
1.0,1.0,1.053,,,,,,ravioli_08s.jpg,1.0,clock_5_3.png,3.0,8,,,,,,,,,,,,,,,,,,0.0,13.0,13.0,13.0,1.0,,,,,,,,,,
0.0,1.0,2.001,,,,,,red_carpet_03s.jpg,0.0,clock_5_4.png,3.0,8,,,,,,,,,,,,,,,,,,0.0,14.0,14.0,14.0,1.0,,,,,,,,,,
0.0,1.0,1.261,,,,,,chocolate_01b.jpg,0.0,clock_5_5.png,3.0,8,,,,,,,,,,,,,,,,,,0.0,15.0,15.0,15.0,1.0,,,,,,,,,,
0.0,1.0,0.674,,,,,,puppy_08s.jpg,0.0,clock_6_1.png,4.0,8,,,,,,,,,,,,,,,,,,0.0,16.0,16.0,16.0,1.0,,,,,,,,,,
0.0,1.0,0.934,,,,,,lab_coat_11s.jpg,0.0,clock_6_2.png,4.0,8,,,,,,,,,,,,,,,,,,0.0,17.0,17.0,17.0,1.0,,,,,,,,,,
0.0,1.0,0.835,,,,,,jet_15s.jpg,0.0,clock_6_3.png,4.0,8,,,,,,,,,,,,,,,,,,0.0,18.0,18.0,18.0,1.0,,,,,,,,,,
0.0,1.0,0.815,,,,,,pipe1_10s.jpg,0.0,clock_6_4.png,4.0,8,,,,,,,,,,,,,,,,,,0.0,19.0,19.0,19.0,1.0,,,,,,,,,,
0.0,1.0,0.8,,,,,,roller_coaster_07s.jpg,0.0,clock_6_5.png,4.0,8,,,,,,,,,,,,,,,,,,0.0,20.0,20.0,20.0,1.0,,,,,,,,,,
0.0,1.0,0.766,,,,,,rake_06s.jpg,0.0,clock_6_6.png,4.0,8,,,,,,,,,,,,,,,,,,0.0,21.0,21.0,21.0,1.0,,,,,,,,,,
0.0,1.0,0.755,,,,,,stethoscope_01b.jpg,0.0,clock_7_1.png,5.0,8,,,,,,,,,,,,,,,,,,0.0,22.0,22.0,22.0,1.0,,,,,,,,,,
0.0,1.0,0.943,,,,,,towel_rack_04s.jpg,0.0,clock_7_2.png,5.0,8,,,,,,,,,,,,,,,,,,0.0,23.0,23.0,23.0,1.0,,,,,,,,,,
0.0,1.0,0.757,,,,,,pie_08s.jpg,0.0,clock_7_3.png,5.0,8,,,,,,,,,,,,,,,,,,0.0,24.0,24.0,24.0,1.0,,,,,,,,,,
0.0,1.0,0.534,,,,,,key_07s.jpg,0.0,clock_7_4.png,5.0,8,,,,,,,,,,,,,,,,,,0.0,25.0,25.0,25.0,1.0,,,,,,,,,,
0.0,1.0,1.145,,,,,,jersey_02s.jpg,0.0,clock_7_5.png,5.0,8,,,,,,,,,,,,,,,,,,0.0,26.0,26.0,26.0,1.0,,,,,,,,,,
0.0,1.0,1.148,,,,,,tennis_ball_06s.jpg,0.0,clock_7_6.png,5.0,8,,,,,,,,,,,,,,,,,,0.0,27.0,27.0,27.0,1.0,,,,,,,,,,
0.0,1.0,1.549,,,,,,bean_06s.jpg,0.0,clock_7_7.png,5.0,8,,,,,,,,,,,,,,,,,,0.0,28.0,28.0,28.0,1.0,,,,,,,,,,
0.0,1.0,0.676,,,,,,scooter.jpg,0.0,clock_7_1.png,6.0,8,,,,,,,,,,,,,,,,,,0.0,29.0,29.0,29.0,1.0,,,,,,,,,,
1.0,1.0,0.936,,,,,,scooter.jpg,1.0,clock_7_2.png,6.0,8,,,,,,,,,,,,,,,,,,0.0,30.0,30.0,30.0,1.0,,,,,,,,,,
1.0,1.0,0.693,,,,,,scooter.jpg,1.0,clock_7_3.png,6.0,8,,,,,,,,,,,,,,,,,,0.0,31.0,31.0,31.0,1.0,,,,,,,,,,
0.0,1.0,0.744,,,,,,bubble_01b.jpg,0.0,clock_7_4.png,6.0,8,,,,,,,,,,,,,,,,,,0.0,32.0,32.0,32.0,1.0,,,,,,,,,,
,0.0,,,,,,,ice_pack_09s.jpg,0.0,clock_7_5.png,6.0,8,,,,,,,,,,,,,,,,,,0.0,33.0,33.0,33.0,1.0,,,,,,,,,,
0.0,1.0,0.693,,,,,,leotard_08s.jpg,0.0,clock_7_6.png,6.0,8,,,,,,,,,,,,,,,,,,0.0,34.0,34.0,34.0,1.0,,,,,,,,,,
0.0,1.0,0.662,,,,,,espresso_01b.jpg,0.0,clock_7_7.png,6.0,8,,,,,,,,,,,,,,,,,,0.0,35.0,35.0,35.0,1.0,,,,,,,,,,
,,,,,,,,,0.0,,,8,0.0,1.0,2.445,,,,,,lab_coat_11s.jpg,red_carpet_03s.jpg,,,,,,,,,,,,,0.0,0.0,0.0,0.0,1.0,,,,,
,,,,,,,,,1.0,,,8,1.0,1.0,1.549,,,,,,chocolate_01b.jpg,jet_15s.jpg,,,,,,,,,,,,,0.0,1.0,1.0,1.0,1.0,,,,,
,,,,,,,,,0.0,,,8,0.0,1.0,1.249,,,,,,stethoscope_01b.jpg,pipe1_10s.jpg,,,,,,,,,,,,,0.0,2.0,2.0,2.0,1.0,,,,,
,,,,,,,,,0.0,,,8,0.0,1.0,1.833,,,,,,coat_rack_01b.jpg,soccer_ball_12s.jpg,,,,,,,,,,,,,0.0,3.0,3.0,3.0,1.0,,,,,
,,,,,,,,,1.0,,,8,1.0,1.0,1.989,,,,,,key_07s.jpg,bean_06s.jpg,,,,,,,,,,,,,0.0,4.0,4.0,4.0,1.0,,,,,
,,,,,,,,,1.0,,,8,0.0,0.0,1.646,,,,,,bubble_01b.jpg,espresso_01b.jpg,,,,,,,,,,,,,0.0,5.0,5.0,5.0,1.0,,,,,
