key_resp.keys,key_resp.corr,key_resp.rt,noclock_loop.thisRepN,noclock_loop.thisTrialN,noclock_loop.thisN,noclock_loop.thisIndex,noclock_loop.ran,pictures,answer,clock,segment,participant,key_resp_2.keys,key_resp_2.corr,key_resp_2.rt,noclock_loop2.thisRepN,noclock_loop2.thisTrialN,noclock_loop2.thisN,noclock_loop2.thisIndex,noclock_loop2.ran,item_a,item_b,noclock_condition.thisRepN,noclock_condition.thisTrialN,noclock_condition.thisN,noclock_condition.thisIndex,noclock_condition.ran,present,compare,present_segment.thisRepN,present_segment.thisTrialN,present_segment.thisN,present_segment.thisIndex,present_segment.ran,compare_segment.thisRepN,compare_segment.thisTrialN,compare_segment.thisN,compare_segment.thisIndex,compare_segment.ran,clock_conditions.thisRepN,clock_conditions.thisTrialN,clock_conditions.thisN,clock_conditions.thisIndex,clock_conditions.ran
0.0,1.0,1.63709,0.0,0.0,0.0,0.0,1.0,breadstick_08s.jpg,0.0,clockno_up.jpg,1.0,43,,,,,,,,,,,,,,,,,,,,,,,,,,,,,,,,
0.0,1.0,0.98996,0.0,1.0,1.0,1.0,1.0,sea_urchin_09s.jpg,0.0,clockno_default.jpg,1.0,43,,,,,,,,,,,,,,,,,,,,,,,,,,,,,,,,
1.0,1.0,0.938395,0.0,2.0,2.0,2.0,1.0,breadstick_08s.jpg,1.0,clockno_default.jpg,1.0,43,,,,,,,,,,,,,,,,,,,,,,,,,,,,,,,,
1.0,1.0,1.03383,0.0,3.0,3.0,3.0,1.0,sea_urchin_09s.jpg,1.0,clockno_default.jpg,1.0,43,,,,,,,,,,,,,,,,,,,,,,,,,,,,,,,,
0.0,1.0,1.91035,0.0,4.0,4.0,4.0,1.0,saddle_06s.jpg,0.0,clockno_default.jpg,1.0,43,,,,,,,,,,,,,,,,,,,,,,,,,,,,,,,,
1.0,1.0,1.96153,0.0,5.0,5.0,5.0,1.0,saddle_06s.jpg,1.0,clockno_default.jpg,1.0,43,,,,,,,,,,,,,,,,,,,,,,,,,,,,,,,,
0.0,1.0,1.28889,0.0,6.0,6.0,6.0,1.0,mousetrap_15n.jpg,0.0,clockno_up.jpg,2.0,43,,,,,,,,,,,,,,,,,,,,,,,,,,,,,,,,
0.0,1.0,0.782785,0.0,7.0,7.0,7.0,1.0,owl_15s.jpg,0.0,clockno_default.jpg,2.0,43,,,,,,,,,,,,,,,,,,,,,,,,,,,,,,,,
1.0,1.0,0.737395,0.0,8.0,8.0,8.0,1.0,mousetrap_15n.jpg,1.0,clockno_default.jpg,2.0,43,,,,,,,,,,,,,,,,,,,,,,,,,,,,,,,,
1.0,1.0,0.83451,0.0,9.0,9.0,9.0,1.0,owl_15s.jpg,1.0,clockno_default.jpg,2.0,43,,,,,,,,,,,,,,,,,,,,,,,,,,,,,,,,
1.0,1.0,0.849015,0.0,10.0,10.0,10.0,1.0,owl_15s.jpg,1.0,clockno_default.jpg,2.0,43,,,,,,,,,,,,,,,,,,,,,,,,,,,,,,,,
0.0,1.0,0.86167,0.0,11.0,11.0,11.0,1.0,popsicle_02s.jpg,0.0,clockno_default.jpg,2.0,43,,,,,,,,,,,,,,,,,,,,,,,,,,,,,,,,
0.0,1.0,1.13559,0.0,12.0,12.0,12.0,1.0,screwdriver02a.jpg,0.0,clockno_default.jpg,2.0,43,,,,,,,,,,,,,,,,,,,,,,,,,,,,,,,,
0.0,1.0,0.779555,0.0,13.0,13.0,13.0,1.0,paper_towel_03s.jpg,0.0,clockno_up.jpg,3.0,43,,,,,,,,,,,,,,,,,,,,,,,,,,,,,,,,
0.0,1.0,0.74273,0.0,14.0,14.0,14.0,1.0,mug_06s.jpg,0.0,clockno_default.jpg,3.0,43,,,,,,,,,,,,,,,,,,,,,,,,,,,,,,,,
0.0,1.0,0.79441,0.0,15.0,15.0,15.0,1.0,undershirt_02s.jpg,0.0,clockno_default.jpg,3.0,43,,,,,,,,,,,,,,,,,,,,,,,,,,,,,,,,
0.0,1.0,0.789235,0.0,16.0,16.0,16.0,1.0,cape_11s.jpg,0.0,clockno_default.jpg,3.0,43,,,,,,,,,,,,,,,,,,,,,,,,,,,,,,,,
0.0,1.0,0.82337,0.0,17.0,17.0,17.0,1.0,lamp_08s.jpg,0.0,clockno_default.jpg,3.0,43,,,,,,,,,,,,,,,,,,,,,,,,,,,,,,,,
0.0,1.0,1.111025,0.0,18.0,18.0,18.0,1.0,padlock_07s.jpg,0.0,clockno_default.jpg,3.0,43,,,,,,,,,,,,,,,,,,,,,,,,,,,,,,,,
0.0,1.0,0.79489,0.0,19.0,19.0,19.0,1.0,lab_coat_11s.jpg,0.0,clockno_default.jpg,3.0,43,,,,,,,,,,,,,,,,,,,,,,,,,,,,,,,,
0.0,1.0,0.966585,0.0,20.0,20.0,20.0,1.0,badge_03s.jpg,0.0,clockno_up.jpg,4.0,43,,,,,,,,,,,,,,,,,,,,,,,,,,,,,,,,
0.0,1.0,0.681685,0.0,21.0,21.0,21.0,1.0,go-kart_10s.jpg,0.0,clockno_default.jpg,4.0,43,,,,,,,,,,,,,,,,,,,,,,,,,,,,,,,,
0.0,1.0,0.52974,0.0,22.0,22.0,22.0,1.0,parachute_03s.jpg,0.0,clockno_default.jpg,4.0,43,,,,,,,,,,,,,,,,,,,,,,,,,,,,,,,,
0.0,1.0,0.957275,0.0,23.0,23.0,23.0,1.0,scooter.jpg,0.0,clockno_default.jpg,4.0,43,,,,,,,,,,,,,,,,,,,,,,,,,,,,,,,,
0.0,1.0,0.601155,0.0,24.0,24.0,24.0,1.0,letter_opener_03s.jpg,0.0,clockno_default.jpg,4.0,43,,,,,,,,,,,,,,,,,,,,,,,,,,,,,,,,
1.0,1.0,1.12299,0.0,25.0,25.0,25.0,1.0,parachute_03s.jpg,1.0,clockno_default.jpg,4.0,43,,,,,,,,,,,,,,,,,,,,,,,,,,,,,,,,
0.0,1.0,0.8462,0.0,26.0,26.0,26.0,1.0,throne_11s.jpg,0.0,clockno_up.jpg,5.0,43,,,,,,,,,,,,,,,,,,,,,,,,,,,,,,,,
0.0,1.0,1.397305,0.0,27.0,27.0,27.0,1.0,owl_15s.jpg,0.0,clockno_default.jpg,5.0,43,,,,,,,,,,,,,,,,,,,,,,,,,,,,,,,,
1.0,1.0,0.89312,0.0,28.0,28.0,28.0,1.0,throne_11s.jpg,1.0,clockno_default.jpg,5.0,43,,,,,,,,,,,,,,,,,,,,,,,,,,,,,,,,
0.0,1.0,1.34416,0.0,29.0,29.0,29.0,1.0,rocking_horse_03s.jpg,0.0,clockno_default.jpg,5.0,43,,,,,,,,,,,,,,,,,,,,,,,,,,,,,,,,
0.0,1.0,1.225615,0.0,30.0,30.0,30.0,1.0,swordfish_05s.jpg,0.0,clockno_default.jpg,5.0,43,,,,,,,,,,,,,,,,,,,,,,,,,,,,,,,,
0.0,1.0,0.759595,0.0,31.0,31.0,31.0,1.0,tupperware_09s.jpg,0.0,clockno_up.jpg,6.0,43,,,,,,,,,,,,,,,,,,,,,,,,,,,,,,,,
0.0,1.0,0.63441,0.0,32.0,32.0,32.0,1.0,rocking_chair_05s.jpg,0.0,clockno_default.jpg,6.0,43,,,,,,,,,,,,,,,,,,,,,,,,,,,,,,,,
0.0,1.0,0.885335,0.0,33.0,33.0,33.0,1.0,padlock_07s.jpg,0.0,clockno_default.jpg,6.0,43,,,,,,,,,,,,,,,,,,,,,,,,,,,,,,,,
0.0,1.0,0.559445,0.0,34.0,34.0,34.0,1.0,machete_06s.jpg,0.0,clockno_default.jpg,6.0,43,,,,,,,,,,,,,,,,,,,,,,,,,,,,,,,,
1.0,1.0,2.02611,0.0,35.0,35.0,35.0,1.0,tupperware_09s.jpg,1.0,clockno_default.jpg,6.0,43,,,,,,,,,,,,,,,,,,,,,,,,,,,,,,,,
,,,,,,,,,1.0,,,43,1.0,1.0,4.24806,0.0,0.0,0.0,0.0,1.0,screwdriver02a.jpg,undershirt_02s.jpg,,,,,,,,,,,,,,,,,,,,,,
,,,,,,,,,0.0,,,43,0.0,1.0,7.02622,0.0,1.0,1.0,1.0,1.0,rocking_chair_05s.jpg,rocking_horse_03s.jpg,,,,,,,,,,,,,,,,,,,,,,
,,,,,,,,,0.0,,,43,1.0,0.0,2.035135,0.0,2.0,2.0,2.0,1.0,mug_06s.jpg,popsicle_02s.jpg,,,,,,,,,,,,,,,,,,,,,,
,,,,,,,,,1.0,,,43,1.0,1.0,2.40211,0.0,3.0,3.0,3.0,1.0,paper_towel_03s.jpg,cape_11s.jpg,,,,,,,,,,,,,,,,,,,,,,
,,,,,,,,,1.0,,,43,1.0,1.0,5.02297,0.0,4.0,4.0,4.0,1.0,go-kart_10s.jpg,letter_opener_03s.jpg,,,,,,,,,,,,,,,,,,,,,,
,,,,,,,,,0.0,,,43,0.0,1.0,3.98758,0.0,5.0,5.0,5.0,1.0,scooter.jpg,badge_03s.jpg,,,,,,,,,,,,,,,,,,,,,,
,,,,,,,,,,,,43,,,,,,,,,,,0.0,0.0,0.0,0.0,1.0,clockno_present_1_8.xlsx,clockno_compare_task_1_8.xlsx,,,,,,,,,,,,,,,
0.0,1.0,1.076025,0.0,0.0,0.0,0.0,1.0,towel_rack_04s.jpg,0.0,clockno_up.jpg,1.0,43,,,,,,,,,,,,,,,,,,,,,,,,,,,,,,,,
0.0,1.0,1.12901,0.0,1.0,1.0,1.0,1.0,microwave_02s.jpg,0.0,clockno_default.jpg,1.0,43,,,,,,,,,,,,,,,,,,,,,,,,,,,,,,,,
0.0,1.0,0.828075,0.0,2.0,2.0,2.0,1.0,quesadilla_07s.jpg,0.0,clockno_default.jpg,1.0,43,,,,,,,,,,,,,,,,,,,,,,,,,,,,,,,,
0.0,1.0,0.903975,0.0,3.0,3.0,3.0,1.0,ring_03s.jpg,0.0,clockno_default.jpg,1.0,43,,,,,,,,,,,,,,,,,,,,,,,,,,,,,,,,
0.0,1.0,0.79232,0.0,4.0,4.0,4.0,1.0,jalapeno_15s.jpg,0.0,clockno_default.jpg,1.0,43,,,,,,,,,,,,,,,,,,,,,,,,,,,,,,,,
0.0,1.0,1.299145,0.0,5.0,5.0,5.0,1.0,rollerskate_03s.jpg,0.0,clockno_default.jpg,1.0,43,,,,,,,,,,,,,,,,,,,,,,,,,,,,,,,,
1.0,1.0,1.32056,0.0,6.0,6.0,6.0,1.0,jalapeno_15s.jpg,1.0,clockno_default.jpg,1.0,43,,,,,,,,,,,,,,,,,,,,,,,,,,,,,,,,
0.0,1.0,0.77,0.0,7.0,7.0,7.0,1.0,thermostat_02s.jpg,0.0,clockno_up.jpg,2.0,43,,,,,,,,,,,,,,,,,,,,,,,,,,,,,,,,
1.0,1.0,1.03673,0.0,8.0,8.0,8.0,1.0,thermostat_02s.jpg,1.0,clockno_default.jpg,2.0,43,,,,,,,,,,,,,,,,,,,,,,,,,,,,,,,,
0.0,1.0,2.00994,0.0,9.0,9.0,9.0,1.0,pepper2_21s.jpg,0.0,clockno_default.jpg,2.0,43,,,,,,,,,,,,,,,,,,,,,,,,,,,,,,,,
0.0,1.0,1.138275,0.0,10.0,10.0,10.0,1.0,lava_02s.jpg,0.0,clockno_default.jpg,2.0,43,,,,,,,,,,,,,,,,,,,,,,,,,,,,,,,,
0.0,1.0,0.7504,0.0,11.0,11.0,11.0,1.0,butter_14s.jpg,0.0,clockno_default.jpg,2.0,43,,,,,,,,,,,,,,,,,,,,,,,,,,,,,,,,
0.0,1.0,0.902375,0.0,12.0,12.0,12.0,1.0,hummingbird_05s.jpg,0.0,clockno_up.jpg,3.0,43,,,,,,,,,,,,,,,,,,,,,,,,,,,,,,,,
0.0,1.0,0.942405,0.0,13.0,13.0,13.0,1.0,jalapeno_15s.jpg,0.0,clockno_default.jpg,3.0,43,,,,,,,,,,,,,,,,,,,,,,,,,,,,,,,,
0.0,1.0,0.97212,0.0,14.0,14.0,14.0,1.0,stump_02s.jpg,0.0,clockno_default.jpg,3.0,43,,,,,,,,,,,,,,,,,,,,,,,,,,,,,,,,
0.0,1.0,0.836205,0.0,15.0,15.0,15.0,1.0,luggage_08s.jpg,0.0,clockno_default.jpg,3.0,43,,,,,,,,,,,,,,,,,,,,,,,,,,,,,,,,
1.0,1.0,0.982795,0.0,16.0,16.0,16.0,1.0,luggage_08s.jpg,1.0,clockno_default.jpg,3.0,43,,,,,,,,,,,,,,,,,,,,,,,,,,,,,,,,
0.0,1.0,1.0343,0.0,17.0,17.0,17.0,1.0,pomegranate_04s.jpg,0.0,clockno_default.jpg,3.0,43,,,,,,,,,,,,,,,,,,,,,,,,,,,,,,,,
0.0,1.0,1.10128,0.0,18.0,18.0,18.0,1.0,swing_set_15s.jpg,0.0,clockno_default.jpg,3.0,43,,,,,,,,,,,,,,,,,,,,,,,,,,,,,,,,
0.0,1.0,1.142655,0.0,19.0,19.0,19.0,1.0,jigsaw_puzzle_11s.jpg,0.0,clockno_up.jpg,4.0,43,,,,,,,,,,,,,,,,,,,,,,,,,,,,,,,,
0.0,1.0,2.03365,0.0,20.0,20.0,20.0,1.0,toilet_07s.jpg,0.0,clockno_default.jpg,4.0,43,,,,,,,,,,,,,,,,,,,,,,,,,,,,,,,,
0.0,1.0,0.740915,0.0,21.0,21.0,21.0,1.0,turtleneck_11s.jpg,0.0,clockno_default.jpg,4.0,43,,,,,,,,,,,,,,,,,,,,,,,,,,,,,,,,
0.0,1.0,0.798935,0.0,22.0,22.0,22.0,1.0,trident_07s.jpg,0.0,clockno_default.jpg,4.0,43,,,,,,,,,,,,,,,,,,,,,,,,,,,,,,,,
0.0,1.0,0.781805,0.0,23.0,23.0,23.0,1.0,contact_lens_15s.jpg,0.0,clockno_default.jpg,4.0,43,,,,,,,,,,,,,,,,,,,,,,,,,,,,,,,,
0.0,1.0,1.020855,0.0,24.0,24.0,24.0,1.0,plunger_08s.jpg,0.0,clockno_default.jpg,4.0,43,,,,,,,,,,,,,,,,,,,,,,,,,,,,,,,,
0.0,1.0,0.916435,0.0,25.0,25.0,25.0,1.0,timer_03s.jpg,0.0,clockno_up.jpg,5.0,43,,,,,,,,,,,,,,,,,,,,,,,,,,,,,,,,
1.0,1.0,0.937435,0.0,26.0,26.0,26.0,1.0,timer_03s.jpg,1.0,clockno_default.jpg,5.0,43,,,,,,,,,,,,,,,,,,,,,,,,,,,,,,,,
0.0,1.0,1.03527,0.0,27.0,27.0,27.0,1.0,spacesuit_02s.jpg,0.0,clockno_default.jpg,5.0,43,,,,,,,,,,,,,,,,,,,,,,,,,,,,,,,,
0.0,1.0,0.8142,0.0,28.0,28.0,28.0,1.0,roller_coaster_07s.jpg,0.0,clockno_default.jpg,5.0,43,,,,,,,,,,,,,,,,,,,,,,,,,,,,,,,,
0.0,1.0,0.781565,0.0,29.0,29.0,29.0,1.0,pocketknife_12s.jpg,0.0,clockno_default.jpg,5.0,43,,,,,,,,,,,,,,,,,,,,,,,,,,,,,,,,
0.0,1.0,1.883905,0.0,30.0,30.0,30.0,1.0,jewel_01b.jpg,0.0,clockno_up.jpg,6.0,43,,,,,,,,,,,,,,,,,,,,,,,,,,,,,,,,
0.0,1.0,0.723135,0.0,31.0,31.0,31.0,1.0,harpoon.jpg,0.0,clockno_default.jpg,6.0,43,,,,,,,,,,,,,,,,,,,,,,,,,,,,,,,,
0.0,1.0,0.818655,0.0,32.0,32.0,32.0,1.0,tinsel_12s.jpg,0.0,clockno_default.jpg,6.0,43,,,,,,,,,,,,,,,,,,,,,,,,,,,,,,,,
1.0,1.0,0.79006,0.0,33.0,33.0,33.0,1.0,tinsel_12s.jpg,1.0,clockno_default.jpg,6.0,43,,,,,,,,,,,,,,,,,,,,,,,,,,,,,,,,
1.0,1.0,2.06085,0.0,34.0,34.0,34.0,1.0,jewel_01b.jpg,1.0,clockno_default.jpg,6.0,43,,,,,,,,,,,,,,,,,,,,,,,,,,,,,,,,
0.0,1.0,1.173615,0.0,35.0,35.0,35.0,1.0,submarine_11n.jpg,0.0,clockno_default.jpg,6.0,43,,,,,,,,,,,,,,,,,,,,,,,,,,,,,,,,
,,,,,,,,,1.0,,,43,1.0,1.0,1.281,0.0,0.0,0.0,0.0,1.0,pepper2_21s.jpg,hummingbird_05s.jpg,,,,,,,,,,,,,,,,,,,,,,
,,,,,,,,,0.0,,,43,0.0,1.0,1.63213,0.0,1.0,1.0,1.0,1.0,harpoon.jpg,roller_coaster_07s.jpg,,,,,,,,,,,,,,,,,,,,,,
,,,,,,,,,1.0,,,43,1.0,1.0,1.910705,0.0,2.0,2.0,2.0,1.0,butter_14s.jpg,stump_02s.jpg,,,,,,,,,,,,,,,,,,,,,,
,,,,,,,,,0.0,,,43,0.0,1.0,1.69392,0.0,3.0,3.0,3.0,1.0,ring_03s.jpg,towel_rack_04s.jpg,,,,,,,,,,,,,,,,,,,,,,
,,,,,,,,,0.0,,,43,0.0,1.0,1.575375,0.0,4.0,4.0,4.0,1.0,rollerskate_03s.jpg,quesadilla_07s.jpg,,,,,,,,,,,,,,,,,,,,,,
,,,,,,,,,0.0,,,43,0.0,1.0,1.84711,0.0,5.0,5.0,5.0,1.0,trident_07s.jpg,jigsaw_puzzle_11s.jpg,,,,,,,,,,,,,,,,,,,,,,
,,,,,,,,,,,,43,,,,,,,,,,,0.0,1.0,1.0,1.0,1.0,clockno_present_2_8.xlsx,clockno_compare_task_2_8.xlsx,,,,,,,,,,,,,,,
0.0,1.0,2.285575,0.0,0.0,0.0,0.0,1.0,peppermint_07s.jpg,0.0,clockno_up.jpg,1.0,43,,,,,,,,,,,,,,,,,,,,,,,,,,,,,,,,
0.0,1.0,0.78221,0.0,1.0,1.0,1.0,1.0,teapot_03s.jpg,0.0,clockno_default.jpg,1.0,43,,,,,,,,,,,,,,,,,,,,,,,,,,,,,,,,
0.0,1.0,1.114445,0.0,2.0,2.0,2.0,1.0,funnel_01b.jpg,0.0,clockno_default.jpg,1.0,43,,,,,,,,,,,,,,,,,,,,,,,,,,,,,,,,
0.0,1.0,0.665625,0.0,3.0,3.0,3.0,1.0,incense_02s.jpg,0.0,clockno_default.jpg,1.0,43,,,,,,,,,,,,,,,,,,,,,,,,,,,,,,,,
1.0,1.0,1.87105,0.0,4.0,4.0,4.0,1.0,teapot_03s.jpg,1.0,clockno_default.jpg,1.0,43,,,,,,,,,,,,,,,,,,,,,,,,,,,,,,,,
0.0,1.0,1.111825,0.0,5.0,5.0,5.0,1.0,licorice_06s.jpg,0.0,clockno_up.jpg,2.0,43,,,,,,,,,,,,,,,,,,,,,,,,,,,,,,,,
0.0,1.0,0.643755,0.0,6.0,6.0,6.0,1.0,sunglasses_11s.jpg,0.0,clockno_default.jpg,2.0,43,,,,,,,,,,,,,,,,,,,,,,,,,,,,,,,,
0.0,1.0,1.05189,0.0,7.0,7.0,7.0,1.0,funnel_01b.jpg,0.0,clockno_default.jpg,2.0,43,,,,,,,,,,,,,,,,,,,,,,,,,,,,,,,,
0.0,1.0,0.63483,0.0,8.0,8.0,8.0,1.0,rice_12s.jpg,0.0,clockno_default.jpg,2.0,43,,,,,,,,,,,,,,,,,,,,,,,,,,,,,,,,
1.0,1.0,0.99542,0.0,9.0,9.0,9.0,1.0,rice_12s.jpg,1.0,clockno_default.jpg,2.0,43,,,,,,,,,,,,,,,,,,,,,,,,,,,,,,,,
0.0,1.0,1.148645,0.0,10.0,10.0,10.0,1.0,emerald_02s.jpg,0.0,clockno_default.jpg,2.0,43,,,,,,,,,,,,,,,,,,,,,,,,,,,,,,,,
0.0,1.0,0.883375,0.0,11.0,11.0,11.0,1.0,raccoon_02s.jpg,0.0,clockno_default.jpg,2.0,43,,,,,,,,,,,,,,,,,,,,,,,,,,,,,,,,
0.0,1.0,0.792255,0.0,12.0,12.0,12.0,1.0,cushion_08s.jpg,0.0,clockno_up.jpg,3.0,43,,,,,,,,,,,,,,,,,,,,,,,,,,,,,,,,
0.0,1.0,1.71941,0.0,13.0,13.0,13.0,1.0,tiger_06s.jpg,0.0,clockno_default.jpg,3.0,43,,,,,,,,,,,,,,,,,,,,,,,,,,,,,,,,
1.0,1.0,0.978175,0.0,14.0,14.0,14.0,1.0,cushion_08s.jpg,1.0,clockno_default.jpg,3.0,43,,,,,,,,,,,,,,,,,,,,,,,,,,,,,,,,
0.0,1.0,0.69811,0.0,15.0,15.0,15.0,1.0,stamp1_11s.jpg,0.0,clockno_default.jpg,3.0,43,,,,,,,,,,,,,,,,,,,,,,,,,,,,,,,,
0.0,1.0,0.98437,0.0,16.0,16.0,16.0,1.0,cereal_04s.jpg,0.0,clockno_default.jpg,3.0,43,,,,,,,,,,,,,,,,,,,,,,,,,,,,,,,,
0.0,1.0,1.031725,0.0,17.0,17.0,17.0,1.0,jersey_02s.jpg,0.0,clockno_up.jpg,4.0,43,,,,,,,,,,,,,,,,,,,,,,,,,,,,,,,,
0.0,1.0,0.636895,0.0,18.0,18.0,18.0,1.0,tomato_sauce_09s.jpg,0.0,clockno_default.jpg,4.0,43,,,,,,,,,,,,,,,,,,,,,,,,,,,,,,,,
0.0,1.0,0.8085,0.0,19.0,19.0,19.0,1.0,toad_09s.jpg,0.0,clockno_default.jpg,4.0,43,,,,,,,,,,,,,,,,,,,,,,,,,,,,,,,,
0.0,1.0,0.65038,0.0,20.0,20.0,20.0,1.0,fire_pit_10s.jpg,0.0,clockno_default.jpg,4.0,43,,,,,,,,,,,,,,,,,,,,,,,,,,,,,,,,
0.0,1.0,0.667805,0.0,21.0,21.0,21.0,1.0,keyhole_03s.jpg,0.0,clockno_default.jpg,4.0,43,,,,,,,,,,,,,,,,,,,,,,,,,,,,,,,,
0.0,1.0,0.876985,0.0,22.0,22.0,22.0,1.0,comic_book_02s.jpg,0.0,clockno_default.jpg,4.0,43,,,,,,,,,,,,,,,,,,,,,,,,,,,,,,,,
0.0,1.0,0.588915,0.0,23.0,23.0,23.0,1.0,pencil02a.jpg,0.0,clockno_up.jpg,5.0,43,,,,,,,,,,,,,,,,,,,,,,,,,,,,,,,,
0.0,1.0,0.768645,0.0,24.0,24.0,24.0,1.0,punch2_09s.jpg,0.0,clockno_default.jpg,5.0,43,,,,,,,,,,,,,,,,,,,,,,,,,,,,,,,,
0.0,1.0,0.71644,0.0,25.0,25.0,25.0,1.0,chime_12s.jpg,0.0,clockno_default.jpg,5.0,43,,,,,,,,,,,,,,,,,,,,,,,,,,,,,,,,
1.0,1.0,1.215735,0.0,26.0,26.0,26.0,1.0,pencil02a.jpg,1.0,clockno_default.jpg,5.0,43,,,,,,,,,,,,,,,,,,,,,,,,,,,,,,,,
0.0,1.0,1.3086,0.0,27.0,27.0,27.0,1.0,lip_gloss_06s.jpg,0.0,clockno_default.jpg,5.0,43,,,,,,,,,,,,,,,,,,,,,,,,,,,,,,,,
0.0,1.0,0.931195,0.0,28.0,28.0,28.0,1.0,rocket_02s.jpg,0.0,clockno_default.jpg,5.0,43,,,,,,,,,,,,,,,,,,,,,,,,,,,,,,,,
1.0,1.0,1.32314,0.0,29.0,29.0,29.0,1.0,punch2_09s.jpg,1.0,clockno_default.jpg,5.0,43,,,,,,,,,,,,,,,,,,,,,,,,,,,,,,,,
0.0,1.0,0.7675,0.0,30.0,30.0,30.0,1.0,crate_05s.jpg,0.0,clockno_up.jpg,6.0,43,,,,,,,,,,,,,,,,,,,,,,,,,,,,,,,,
1.0,1.0,1.04076,0.0,31.0,31.0,31.0,1.0,crate_05s.jpg,1.0,clockno_default.jpg,6.0,43,,,,,,,,,,,,,,,,,,,,,,,,,,,,,,,,
0.0,1.0,0.716865,0.0,32.0,32.0,32.0,1.0,blazer_02s.jpg,0.0,clockno_default.jpg,6.0,43,,,,,,,,,,,,,,,,,,,,,,,,,,,,,,,,
0.0,1.0,1.195405,0.0,33.0,33.0,33.0,1.0,fork_04s.jpg,0.0,clockno_default.jpg,6.0,43,,,,,,,,,,,,,,,,,,,,,,,,,,,,,,,,
0.0,1.0,0.801495,0.0,34.0,34.0,34.0,1.0,target_11s.jpg,0.0,clockno_default.jpg,6.0,43,,,,,,,,,,,,,,,,,,,,,,,,,,,,,,,,
0.0,1.0,0.62122,0.0,35.0,35.0,35.0,1.0,meatball_13s.jpg,0.0,clockno_default.jpg,6.0,43,,,,,,,,,,,,,,,,,,,,,,,,,,,,,,,,
,,,,,,,,,1.0,,,43,0.0,0.0,2.283225,0.0,0.0,0.0,0.0,1.0,incense_02s.jpg,sunglasses_11s.jpg,,,,,,,,,,,,,,,,,,,,,,
,,,,,,,,,0.0,,,43,1.0,0.0,6.747445,0.0,1.0,1.0,1.0,1.0,tiger_06s.jpg,emerald_02s.jpg,,,,,,,,,,,,,,,,,,,,,,
,,,,,,,,,1.0,,,43,1.0,1.0,1.430145,0.0,2.0,2.0,2.0,1.0,stamp1_11s.jpg,tomato_sauce_09s.jpg,,,,,,,,,,,,,,,,,,,,,,
,,,,,,,,,0.0,,,43,0.0,1.0,1.70174,0.0,3.0,3.0,3.0,1.0,fire_pit_10s.jpg,jersey_02s.jpg,,,,,,,,,,,,,,,,,,,,,,
,,,,,,,,,0.0,,,43,0.0,1.0,2.781085,0.0,4.0,4.0,4.0,1.0,meatball_13s.jpg,blazer_02s.jpg,,,,,,,,,,,,,,,,,,,,,,
,,,,,,,,,0.0,,,43,1.0,0.0,1.574165,0.0,5.0,5.0,5.0,1.0,rocket_02s.jpg,chime_12s.jpg,,,,,,,,,,,,,,,,,,,,,,
,,,,,,,,,,,,43,,,,,,,,,,,0.0,2.0,2.0,2.0,1.0,clockno_present_3_8.xlsx,clockno_compare_task_3_8.xlsx,,,,,,,,,,,,,,,
0.0,1.0,1.582985,0.0,0.0,0.0,0.0,1.0,kangaroo_02s.jpg,0.0,clockno_up.jpg,1.0,43,,,,,,,,,,,,,,,,,,,,,,,,,,,,,,,,
1.0,1.0,0.759235,0.0,1.0,1.0,1.0,1.0,kangaroo_02s.jpg,1.0,clockno_default.jpg,1.0,43,,,,,,,,,,,,,,,,,,,,,,,,,,,,,,,,
0.0,1.0,0.667935,0.0,2.0,2.0,2.0,1.0,kettle_08s.jpg,0.0,clockno_default.jpg,1.0,43,,,,,,,,,,,,,,,,,,,,,,,,,,,,,,,,
0.0,1.0,1.047275,0.0,3.0,3.0,3.0,1.0,cotton_candy_01b.jpg,0.0,clockno_default.jpg,1.0,43,,,,,,,,,,,,,,,,,,,,,,,,,,,,,,,,
1.0,1.0,0.858745,0.0,4.0,4.0,4.0,1.0,kettle_08s.jpg,1.0,clockno_default.jpg,1.0,43,,,,,,,,,,,,,,,,,,,,,,,,,,,,,,,,
0.0,1.0,0.74411,0.0,5.0,5.0,5.0,1.0,lamb_04s.jpg,0.0,clockno_default.jpg,1.0,43,,,,,,,,,,,,,,,,,,,,,,,,,,,,,,,,
0.0,1.0,1.64227,0.0,6.0,6.0,6.0,1.0,checkbook_11s.jpg,0.0,clockno_up.jpg,2.0,43,,,,,,,,,,,,,,,,,,,,,,,,,,,,,,,,
0.0,1.0,0.62298,0.0,7.0,7.0,7.0,1.0,gargoyle_08s.jpg,0.0,clockno_default.jpg,2.0,43,,,,,,,,,,,,,,,,,,,,,,,,,,,,,,,,
0.0,1.0,0.553685,0.0,8.0,8.0,8.0,1.0,megaphone_03s.jpg,0.0,clockno_default.jpg,2.0,43,,,,,,,,,,,,,,,,,,,,,,,,,,,,,,,,
0.0,1.0,0.711245,0.0,9.0,9.0,9.0,1.0,dirt_bike_11s.jpg,0.0,clockno_default.jpg,2.0,43,,,,,,,,,,,,,,,,,,,,,,,,,,,,,,,,
0.0,1.0,1.1923,0.0,10.0,10.0,10.0,1.0,stamp2_08s.jpg,0.0,clockno_default.jpg,2.0,43,,,,,,,,,,,,,,,,,,,,,,,,,,,,,,,,
0.0,1.0,0.69934,0.0,11.0,11.0,11.0,1.0,rope_16s.jpg,0.0,clockno_default.jpg,2.0,43,,,,,,,,,,,,,,,,,,,,,,,,,,,,,,,,
0.0,1.0,0.783115,0.0,12.0,12.0,12.0,1.0,lamb_chop_07s.jpg,0.0,clockno_default.jpg,2.0,43,,,,,,,,,,,,,,,,,,,,,,,,,,,,,,,,
0.0,1.0,1.075585,0.0,13.0,13.0,13.0,1.0,taxi_15s.jpg,0.0,clockno_up.jpg,3.0,43,,,,,,,,,,,,,,,,,,,,,,,,,,,,,,,,
0.0,1.0,0.663985,0.0,14.0,14.0,14.0,1.0,recliner_02s.jpg,0.0,clockno_default.jpg,3.0,43,,,,,,,,,,,,,,,,,,,,,,,,,,,,,,,,
0.0,1.0,0.56282,0.0,15.0,15.0,15.0,1.0,jelly_bean_06s.jpg,0.0,clockno_default.jpg,3.0,43,,,,,,,,,,,,,,,,,,,,,,,,,,,,,,,,
0.0,1.0,0.74982,0.0,16.0,16.0,16.0,1.0,smoothie_09s.jpg,0.0,clockno_default.jpg,3.0,43,,,,,,,,,,,,,,,,,,,,,,,,,,,,,,,,
1.0,1.0,1.047195,0.0,17.0,17.0,17.0,1.0,taxi_15s.jpg,1.0,clockno_default.jpg,3.0,43,,,,,,,,,,,,,,,,,,,,,,,,,,,,,,,,
1.0,1.0,1.23914,0.0,18.0,18.0,18.0,1.0,taxi_15s.jpg,1.0,clockno_default.jpg,3.0,43,,,,,,,,,,,,,,,,,,,,,,,,,,,,,,,,
0.0,1.0,1.092935,0.0,19.0,19.0,19.0,1.0,sushi_08s.jpg,0.0,clockno_default.jpg,3.0,43,,,,,,,,,,,,,,,,,,,,,,,,,,,,,,,,
0.0,1.0,1.56415,0.0,20.0,20.0,20.0,1.0,penlight_12s.jpg,0.0,clockno_up.jpg,4.0,43,,,,,,,,,,,,,,,,,,,,,,,,,,,,,,,,
1.0,1.0,0.90998,0.0,21.0,21.0,21.0,1.0,penlight_12s.jpg,1.0,clockno_default.jpg,4.0,43,,,,,,,,,,,,,,,,,,,,,,,,,,,,,,,,
1.0,1.0,1.11946,0.0,22.0,22.0,22.0,1.0,penlight_12s.jpg,1.0,clockno_default.jpg,4.0,43,,,,,,,,,,,,,,,,,,,,,,,,,,,,,,,,
0.0,1.0,0.71671,0.0,23.0,23.0,23.0,1.0,jet_15s.jpg,0.0,clockno_default.jpg,4.0,43,,,,,,,,,,,,,,,,,,,,,,,,,,,,,,,,
0.0,1.0,0.974395,0.0,24.0,24.0,24.0,1.0,power_line_08s.jpg,0.0,clockno_default.jpg,4.0,43,,,,,,,,,,,,,,,,,,,,,,,,,,,,,,,,
0.0,1.0,1.553965,0.0,25.0,25.0,25.0,1.0,orange_12s.jpg,0.0,clockno_up.jpg,5.0,43,,,,,,,,,,,,,,,,,,,,,,,,,,,,,,,,
0.0,1.0,0.67143,0.0,26.0,26.0,26.0,1.0,fishhook_06s.jpg,0.0,clockno_default.jpg,5.0,43,,,,,,,,,,,,,,,,,,,,,,,,,,,,,,,,
0.0,1.0,0.624355,0.0,27.0,27.0,27.0,1.0,crystal_ball_12s.jpg,0.0,clockno_default.jpg,5.0,43,,,,,,,,,,,,,,,,,,,,,,,,,,,,,,,,
0.0,1.0,0.88695,0.0,28.0,28.0,28.0,1.0,taxi_15s.jpg,0.0,clockno_default.jpg,5.0,43,,,,,,,,,,,,,,,,,,,,,,,,,,,,,,,,
0.0,1.0,0.932305,0.0,29.0,29.0,29.0,1.0,pineapple_12s.jpg,0.0,clockno_default.jpg,5.0,43,,,,,,,,,,,,,,,,,,,,,,,,,,,,,,,,
0.0,1.0,0.644955,0.0,30.0,30.0,30.0,1.0,tulip_02s.jpg,0.0,clockno_default.jpg,5.0,43,,,,,,,,,,,,,,,,,,,,,,,,,,,,,,,,
0.0,1.0,1.493745,0.0,31.0,31.0,31.0,1.0,tongs_08s.jpg,0.0,clockno_up.jpg,6.0,43,,,,,,,,,,,,,,,,,,,,,,,,,,,,,,,,
0.0,1.0,0.754975,0.0,32.0,32.0,32.0,1.0,orchid_01b.jpg,0.0,clockno_default.jpg,6.0,43,,,,,,,,,,,,,,,,,,,,,,,,,,,,,,,,
1.0,1.0,1.14143,0.0,33.0,33.0,33.0,1.0,tongs_08s.jpg,1.0,clockno_default.jpg,6.0,43,,,,,,,,,,,,,,,,,,,,,,,,,,,,,,,,
1.0,1.0,1.251245,0.0,34.0,34.0,34.0,1.0,tongs_08s.jpg,1.0,clockno_default.jpg,6.0,43,,,,,,,,,,,,,,,,,,,,,,,,,,,,,,,,
1.0,1.0,0.75112,0.0,35.0,35.0,35.0,1.0,orchid_01b.jpg,1.0,clockno_default.jpg,6.0,43,,,,,,,,,,,,,,,,,,,,,,,,,,,,,,,,
,,,,,,,,,1.0,,,43,1.0,1.0,1.95904,0.0,0.0,0.0,0.0,1.0,cotton_candy_01b.jpg,checkbook_11s.jpg,,,,,,,,,,,,,,,,,,,,,,
,,,,,,,,,1.0,,,43,1.0,1.0,1.931205,0.0,1.0,1.0,1.0,1.0,lamb_04s.jpg,megaphone_03s.jpg,,,,,,,,,,,,,,,,,,,,,,
,,,,,,,,,0.0,,,43,1.0,0.0,1.41216,0.0,2.0,2.0,2.0,1.0,recliner_02s.jpg,rope_16s.jpg,,,,,,,,,,,,,,,,,,,,,,
,,,,,,,,,0.0,,,43,0.0,1.0,1.372605,0.0,3.0,3.0,3.0,1.0,stamp2_08s.jpg,gargoyle_08s.jpg,,,,,,,,,,,,,,,,,,,,,,
,,,,,,,,,1.0,,,43,1.0,1.0,1.756065,0.0,4.0,4.0,4.0,1.0,smoothie_09s.jpg,sushi_08s.jpg,,,,,,,,,,,,,,,,,,,,,,
,,,,,,,,,1.0,,,43,1.0,1.0,1.23469,0.0,5.0,5.0,5.0,1.0,dirt_bike_11s.jpg,lamb_chop_07s.jpg,,,,,,,,,,,,,,,,,,,,,,
,,,,,,,,,,,,43,,,,,,,,,,,0.0,3.0,3.0,3.0,1.0,clockno_present_4_8.xlsx,clockno_compare_task_4_8.xlsx,,,,,,,,,,,,,,,
0.0,1.0,0.928035,0.0,0.0,0.0,0.0,1.0,ice-cream_cone_06s.jpg,0.0,clockno_up.jpg,1.0,43,,,,,,,,,,,,,,,,,,,,,,,,,,,,,,,,
0.0,1.0,0.803285,0.0,1.0,1.0,1.0,1.0,teabag_12s.jpg,0.0,clockno_default.jpg,1.0,43,,,,,,,,,,,,,,,,,,,,,,,,,,,,,,,,
0.0,1.0,0.750385,0.0,2.0,2.0,2.0,1.0,giraffe_11s.jpg,0.0,clockno_default.jpg,1.0,43,,,,,,,,,,,,,,,,,,,,,,,,,,,,,,,,
0.0,1.0,0.644395,0.0,3.0,3.0,3.0,1.0,ivy_12s.jpg,0.0,clockno_default.jpg,1.0,43,,,,,,,,,,,,,,,,,,,,,,,,,,,,,,,,
0.0,1.0,0.94252,0.0,4.0,4.0,4.0,1.0,plug_08s.jpg,0.0,clockno_default.jpg,1.0,43,,,,,,,,,,,,,,,,,,,,,,,,,,,,,,,,
0.0,1.0,0.676065,0.0,5.0,5.0,5.0,1.0,sparkler_02s.jpg,0.0,clockno_default.jpg,1.0,43,,,,,,,,,,,,,,,,,,,,,,,,,,,,,,,,
0.0,1.0,1.43363,0.0,6.0,6.0,6.0,1.0,otter_05s.jpg,0.0,clockno_default.jpg,1.0,43,,,,,,,,,,,,,,,,,,,,,,,,,,,,,,,,
0.0,1.0,0.89991,0.0,7.0,7.0,7.0,1.0,tie_03s.jpg,0.0,clockno_up.jpg,2.0,43,,,,,,,,,,,,,,,,,,,,,,,,,,,,,,,,
1.0,1.0,0.87101,0.0,8.0,8.0,8.0,1.0,tie_03s.jpg,1.0,clockno_default.jpg,2.0,43,,,,,,,,,,,,,,,,,,,,,,,,,,,,,,,,
0.0,1.0,0.95003,0.0,9.0,9.0,9.0,1.0,petri_dish_12s.jpg,0.0,clockno_default.jpg,2.0,43,,,,,,,,,,,,,,,,,,,,,,,,,,,,,,,,
0.0,1.0,0.79989,0.0,10.0,10.0,10.0,1.0,squirrel_02s.jpg,0.0,clockno_default.jpg,2.0,43,,,,,,,,,,,,,,,,,,,,,,,,,,,,,,,,
0.0,1.0,1.441995,0.0,11.0,11.0,11.0,1.0,ivy_12s.jpg,0.0,clockno_default.jpg,2.0,43,,,,,,,,,,,,,,,,,,,,,,,,,,,,,,,,
1.0,1.0,1.088145,0.0,12.0,12.0,12.0,1.0,squirrel_02s.jpg,1.0,clockno_default.jpg,2.0,43,,,,,,,,,,,,,,,,,,,,,,,,,,,,,,,,
0.0,1.0,1.119245,0.0,13.0,13.0,13.0,1.0,spider_web_03s.jpg,0.0,clockno_up.jpg,3.0,43,,,,,,,,,,,,,,,,,,,,,,,,,,,,,,,,
0.0,1.0,0.75008,0.0,14.0,14.0,14.0,1.0,toaster_03s.jpg,0.0,clockno_default.jpg,3.0,43,,,,,,,,,,,,,,,,,,,,,,,,,,,,,,,,
0.0,1.0,0.79939,0.0,15.0,15.0,15.0,1.0,thumbtack_14s.jpg,0.0,clockno_default.jpg,3.0,43,,,,,,,,,,,,,,,,,,,,,,,,,,,,,,,,
0.0,1.0,0.716735,0.0,16.0,16.0,16.0,1.0,moth_06n.jpg,0.0,clockno_default.jpg,3.0,43,,,,,,,,,,,,,,,,,,,,,,,,,,,,,,,,
0.0,1.0,0.70504,0.0,17.0,17.0,17.0,1.0,coral_08s.jpg,0.0,clockno_default.jpg,3.0,43,,,,,,,,,,,,,,,,,,,,,,,,,,,,,,,,
0.0,1.0,0.616975,0.0,18.0,18.0,18.0,1.0,lamppost_09s.jpg,0.0,clockno_default.jpg,3.0,43,,,,,,,,,,,,,,,,,,,,,,,,,,,,,,,,
0.0,1.0,1.06743,0.0,19.0,19.0,19.0,1.0,prism_10s.jpg,0.0,clockno_up.jpg,4.0,43,,,,,,,,,,,,,,,,,,,,,,,,,,,,,,,,
0.0,1.0,1.116915,0.0,20.0,20.0,20.0,1.0,tie_03s.jpg,0.0,clockno_default.jpg,4.0,43,,,,,,,,,,,,,,,,,,,,,,,,,,,,,,,,
0.0,1.0,1.94361,0.0,21.0,21.0,21.0,1.0,pumpkin_03s.jpg,0.0,clockno_default.jpg,4.0,43,,,,,,,,,,,,,,,,,,,,,,,,,,,,,,,,
1.0,1.0,2.0291,0.0,22.0,22.0,22.0,1.0,pumpkin_03s.jpg,1.0,clockno_default.jpg,4.0,43,,,,,,,,,,,,,,,,,,,,,,,,,,,,,,,,
0.0,1.0,1.603105,0.0,23.0,23.0,23.0,1.0,bacon_05s.jpg,0.0,clockno_default.jpg,4.0,43,,,,,,,,,,,,,,,,,,,,,,,,,,,,,,,,
0.0,1.0,1.22593,0.0,24.0,24.0,24.0,1.0,mold2_04s.jpg,0.0,clockno_up.jpg,5.0,43,,,,,,,,,,,,,,,,,,,,,,,,,,,,,,,,
0.0,1.0,1.04889,0.0,25.0,25.0,25.0,1.0,pumpkin_03s.jpg,0.0,clockno_default.jpg,5.0,43,,,,,,,,,,,,,,,,,,,,,,,,,,,,,,,,
0.0,1.0,0.96105,0.0,26.0,26.0,26.0,1.0,police_car_01s.jpg,0.0,clockno_default.jpg,5.0,43,,,,,,,,,,,,,,,,,,,,,,,,,,,,,,,,
0.0,1.0,0.80005,0.0,27.0,27.0,27.0,1.0,limousine_12s.jpg,0.0,clockno_default.jpg,5.0,43,,,,,,,,,,,,,,,,,,,,,,,,,,,,,,,,
0.0,1.0,1.07594,0.0,28.0,28.0,28.0,1.0,pump_11s.jpg,0.0,clockno_default.jpg,5.0,43,,,,,,,,,,,,,,,,,,,,,,,,,,,,,,,,
0.0,1.0,1.0794,0.0,29.0,29.0,29.0,1.0,raspberry_12s.jpg,0.0,clockno_default.jpg,5.0,43,,,,,,,,,,,,,,,,,,,,,,,,,,,,,,,,
0.0,1.0,0.88376,0.0,30.0,30.0,30.0,1.0,bee_20s.jpg,0.0,clockno_default.jpg,5.0,43,,,,,,,,,,,,,,,,,,,,,,,,,,,,,,,,
0.0,1.0,1.03318,0.0,31.0,31.0,31.0,1.0,machine_gun_09s.jpg,0.0,clockno_up.jpg,6.0,43,,,,,,,,,,,,,,,,,,,,,,,,,,,,,,,,
1.0,1.0,1.0466,0.0,32.0,32.0,32.0,1.0,machine_gun_09s.jpg,1.0,clockno_default.jpg,6.0,43,,,,,,,,,,,,,,,,,,,,,,,,,,,,,,,,
0.0,1.0,0.854415,0.0,33.0,33.0,33.0,1.0,boomerang_06s.jpg,0.0,clockno_default.jpg,6.0,43,,,,,,,,,,,,,,,,,,,,,,,,,,,,,,,,
0.0,1.0,0.83023,0.0,34.0,34.0,34.0,1.0,roulette_wheel_04s.jpg,0.0,clockno_default.jpg,6.0,43,,,,,,,,,,,,,,,,,,,,,,,,,,,,,,,,
0.0,1.0,0.84314,0.0,35.0,35.0,35.0,1.0,perfume_06s.jpg,0.0,clockno_default.jpg,6.0,43,,,,,,,,,,,,,,,,,,,,,,,,,,,,,,,,
,,,,,,,,,0.0,,,43,0.0,1.0,2.15294,0.0,0.0,0.0,0.0,1.0,petri_dish_12s.jpg,otter_05s.jpg,,,,,,,,,,,,,,,,,,,,,,
,,,,,,,,,0.0,,,43,1.0,0.0,1.998195,0.0,1.0,1.0,1.0,1.0,prism_10s.jpg,moth_06n.jpg,,,,,,,,,,,,,,,,,,,,,,
,,,,,,,,,1.0,,,43,1.0,1.0,1.552805,0.0,2.0,2.0,2.0,1.0,bacon_05s.jpg,police_car_01s.jpg,,,,,,,,,,,,,,,,,,,,,,
,,,,,,,,,1.0,,,43,1.0,1.0,1.241955,0.0,3.0,3.0,3.0,1.0,teabag_12s.jpg,plug_08s.jpg,,,,,,,,,,,,,,,,,,,,,,
,,,,,,,,,0.0,,,43,1.0,0.0,1.320855,0.0,4.0,4.0,4.0,1.0,sparkler_02s.jpg,giraffe_11s.jpg,,,,,,,,,,,,,,,,,,,,,,
,,,,,,,,,0.0,,,43,0.0,1.0,1.77111,0.0,5.0,5.0,5.0,1.0,coral_08s.jpg,toaster_03s.jpg,,,,,,,,,,,,,,,,,,,,,,
,,,,,,,,,,,,43,,,,,,,,,,,0.0,4.0,4.0,4.0,1.0,clockno_present_5_8.xlsx,clockno_compare_task_5_8.xlsx,,,,,,,,,,,,,,,
0.0,1.0,0.953385,0.0,0.0,0.0,0.0,1.0,rooster_03s.jpg,0.0,clockno_up.jpg,1.0,43,,,,,,,,,,,,,,,,,,,,,,,,,,,,,,,,
1.0,1.0,1.82437,0.0,1.0,1.0,1.0,1.0,rooster_03s.jpg,1.0,clockno_default.jpg,1.0,43,,,,,,,,,,,,,,,,,,,,,,,,,,,,,,,,
1.0,1.0,1.32259,0.0,2.0,2.0,2.0,1.0,rooster_03s.jpg,1.0,clockno_default.jpg,1.0,43,,,,,,,,,,,,,,,,,,,,,,,,,,,,,,,,
0.0,1.0,1.813485,0.0,3.0,3.0,3.0,1.0,birdcage_08s.jpg,0.0,clockno_default.jpg,1.0,43,,,,,,,,,,,,,,,,,,,,,,,,,,,,,,,,
1.0,1.0,2.360655,0.0,4.0,4.0,4.0,1.0,birdcage_08s.jpg,1.0,clockno_default.jpg,1.0,43,,,,,,,,,,,,,,,,,,,,,,,,,,,,,,,,
0.0,1.0,1.121505,0.0,5.0,5.0,5.0,1.0,bowler_hat_10s.jpg,0.0,clockno_default.jpg,1.0,43,,,,,,,,,,,,,,,,,,,,,,,,,,,,,,,,
0.0,1.0,2.026325,0.0,6.0,6.0,6.0,1.0,potholder_02s.jpg,0.0,clockno_up.jpg,2.0,43,,,,,,,,,,,,,,,,,,,,,,,,,,,,,,,,
0.0,1.0,1.46247,0.0,7.0,7.0,7.0,1.0,rooster_03s.jpg,0.0,clockno_default.jpg,2.0,43,,,,,,,,,,,,,,,,,,,,,,,,,,,,,,,,
0.0,1.0,1.55281,0.0,8.0,8.0,8.0,1.0,mango_09s.jpg,0.0,clockno_default.jpg,2.0,43,,,,,,,,,,,,,,,,,,,,,,,,,,,,,,,,
1.0,1.0,0.8005,0.0,9.0,9.0,9.0,1.0,rooster_03s.jpg,1.0,clockno_default.jpg,2.0,43,,,,,,,,,,,,,,,,,,,,,,,,,,,,,,,,
0.0,1.0,0.95021,0.0,10.0,10.0,10.0,1.0,orangutan_03s.jpg,0.0,clockno_default.jpg,2.0,43,,,,,,,,,,,,,,,,,,,,,,,,,,,,,,,,
0.0,1.0,0.91945,0.0,11.0,11.0,11.0,1.0,latch_15s.jpg,0.0,clockno_default.jpg,2.0,43,,,,,,,,,,,,,,,,,,,,,,,,,,,,,,,,
0.0,1.0,0.716365,0.0,12.0,12.0,12.0,1.0,soccer_ball_12s.jpg,0.0,clockno_default.jpg,2.0,43,,,,,,,,,,,,,,,,,,,,,,,,,,,,,,,,
0.0,1.0,0.78775,0.0,13.0,13.0,13.0,1.0,gear_07s.jpg,0.0,clockno_up.jpg,3.0,43,,,,,,,,,,,,,,,,,,,,,,,,,,,,,,,,
1.0,1.0,0.750115,0.0,14.0,14.0,14.0,1.0,gear_07s.jpg,1.0,clockno_default.jpg,3.0,43,,,,,,,,,,,,,,,,,,,,,,,,,,,,,,,,
0.0,1.0,1.518235,0.0,15.0,15.0,15.0,1.0,flip_flop_03s.jpg,0.0,clockno_default.jpg,3.0,43,,,,,,,,,,,,,,,,,,,,,,,,,,,,,,,,
0.0,1.0,0.67131,0.0,16.0,16.0,16.0,1.0,coffee_filter_10s.jpg,0.0,clockno_default.jpg,3.0,43,,,,,,,,,,,,,,,,,,,,,,,,,,,,,,,,
1.0,1.0,0.83615,0.0,17.0,17.0,17.0,1.0,coffee_filter_10s.jpg,1.0,clockno_default.jpg,3.0,43,,,,,,,,,,,,,,,,,,,,,,,,,,,,,,,,
0.0,1.0,1.7468,0.0,18.0,18.0,18.0,1.0,golf_club_03s.jpg,0.0,clockno_up.jpg,4.0,43,,,,,,,,,,,,,,,,,,,,,,,,,,,,,,,,
0.0,1.0,0.63917,0.0,19.0,19.0,19.0,1.0,icemaker_10s.jpg,0.0,clockno_default.jpg,4.0,43,,,,,,,,,,,,,,,,,,,,,,,,,,,,,,,,
0.0,1.0,0.713145,0.0,20.0,20.0,20.0,1.0,sleeping_bag_12s.jpg,0.0,clockno_default.jpg,4.0,43,,,,,,,,,,,,,,,,,,,,,,,,,,,,,,,,
0.0,1.0,0.673735,0.0,21.0,21.0,21.0,1.0,tape_06s.jpg,0.0,clockno_default.jpg,4.0,43,,,,,,,,,,,,,,,,,,,,,,,,,,,,,,,,
0.0,1.0,0.685615,0.0,22.0,22.0,22.0,1.0,red_carpet_03s.jpg,0.0,clockno_default.jpg,4.0,43,,,,,,,,,,,,,,,,,,,,,,,,,,,,,,,,
1.0,1.0,0.87471,0.0,23.0,23.0,23.0,1.0,red_carpet_03s.jpg,1.0,clockno_default.jpg,4.0,43,,,,,,,,,,,,,,,,,,,,,,,,,,,,,,,,
1.0,1.0,1.13027,0.0,24.0,24.0,24.0,1.0,sleeping_bag_12s.jpg,1.0,clockno_default.jpg,4.0,43,,,,,,,,,,,,,,,,,,,,,,,,,,,,,,,,
0.0,1.0,1.39567,0.0,25.0,25.0,25.0,1.0,quilt_03s.jpg,0.0,clockno_up.jpg,5.0,43,,,,,,,,,,,,,,,,,,,,,,,,,,,,,,,,
0.0,1.0,0.91249,0.0,26.0,26.0,26.0,1.0,torch_02s.jpg,0.0,clockno_default.jpg,5.0,43,,,,,,,,,,,,,,,,,,,,,,,,,,,,,,,,
0.0,1.0,1.27455,0.0,27.0,27.0,27.0,1.0,pancake_12s.jpg,0.0,clockno_default.jpg,5.0,43,,,,,,,,,,,,,,,,,,,,,,,,,,,,,,,,
0.0,1.0,1.02513,0.0,28.0,28.0,28.0,1.0,umbrella_15s.jpg,0.0,clockno_default.jpg,5.0,43,,,,,,,,,,,,,,,,,,,,,,,,,,,,,,,,
0.0,1.0,1.16894,0.0,29.0,29.0,29.0,1.0,measuring_cup_02s.jpg,0.0,clockno_default.jpg,5.0,43,,,,,,,,,,,,,,,,,,,,,,,,,,,,,,,,
0.0,1.0,1.28542,0.0,30.0,30.0,30.0,1.0,briefcase_03s.jpg,0.0,clockno_up.jpg,6.0,43,,,,,,,,,,,,,,,,,,,,,,,,,,,,,,,,
0.0,1.0,1.408575,0.0,31.0,31.0,31.0,1.0,birdcage_08s.jpg,0.0,clockno_default.jpg,6.0,43,,,,,,,,,,,,,,,,,,,,,,,,,,,,,,,,
0.0,1.0,0.82458,0.0,32.0,32.0,32.0,1.0,trumpet_06s.jpg,0.0,clockno_default.jpg,6.0,43,,,,,,,,,,,,,,,,,,,,,,,,,,,,,,,,
0.0,1.0,0.756085,0.0,33.0,33.0,33.0,1.0,pepper_mill_03s.jpg,0.0,clockno_default.jpg,6.0,43,,,,,,,,,,,,,,,,,,,,,,,,,,,,,,,,
0.0,1.0,0.951505,0.0,34.0,34.0,34.0,1.0,turtle_08s.jpg,0.0,clockno_default.jpg,6.0,43,,,,,,,,,,,,,,,,,,,,,,,,,,,,,,,,
0.0,1.0,0.905715,0.0,35.0,35.0,35.0,1.0,juicer1_08s.jpg,0.0,clockno_default.jpg,6.0,43,,,,,,,,,,,,,,,,,,,,,,,,,,,,,,,,
,,,,,,,,,1.0,,,43,0.0,0.0,1.7873,0.0,0.0,0.0,0.0,1.0,soccer_ball_12s.jpg,flip_flop_03s.jpg,,,,,,,,,,,,,,,,,,,,,,
,,,,,,,,,1.0,,,43,1.0,1.0,1.67834,0.0,1.0,1.0,1.0,1.0,bowler_hat_10s.jpg,mango_09s.jpg,,,,,,,,,,,,,,,,,,,,,,
,,,,,,,,,1.0,,,43,0.0,0.0,2.35424,0.0,2.0,2.0,2.0,1.0,pancake_12s.jpg,briefcase_03s.jpg,,,,,,,,,,,,,,,,,,,,,,
,,,,,,,,,0.0,,,43,1.0,0.0,1.82132,0.0,3.0,3.0,3.0,1.0,umbrella_15s.jpg,quilt_03s.jpg,,,,,,,,,,,,,,,,,,,,,,
,,,,,,,,,0.0,,,43,0.0,1.0,2.003925,0.0,4.0,4.0,4.0,1.0,tape_06s.jpg,golf_club_03s.jpg,,,,,,,,,,,,,,,,,,,,,,
,,,,,,,,,1.0,,,43,1.0,1.0,2.27043,0.0,5.0,5.0,5.0,1.0,torch_02s.jpg,measuring_cup_02s.jpg,,,,,,,,,,,,,,,,,,,,,,
0.0,1.0,1.801935,,,,,,mixer_12s.jpg,0.0,clock_7_1.png,1.0,43,,,,,,,,,,,,,,,,,,0.0,0.0,0.0,0.0,1.0,,,,,,,,,,
0.0,1.0,1.66296,,,,,,mushroom_10n.jpg,0.0,clock_7_2.png,1.0,43,,,,,,,,,,,,,,,,,,0.0,1.0,1.0,1.0,1.0,,,,,,,,,,
0.0,1.0,0.682825,,,,,,ink_08s.jpg,0.0,clock_7_3.png,1.0,43,,,,,,,,,,,,,,,,,,0.0,2.0,2.0,2.0,1.0,,,,,,,,,,
0.0,1.0,0.770175,,,,,,amber_04s.jpg,0.0,clock_7_4.png,1.0,43,,,,,,,,,,,,,,,,,,0.0,3.0,3.0,3.0,1.0,,,,,,,,,,
0.0,1.0,0.79129,,,,,,glasses01a.jpg,0.0,clock_7_5.png,1.0,43,,,,,,,,,,,,,,,,,,0.0,4.0,4.0,4.0,1.0,,,,,,,,,,
0.0,1.0,1.56684,,,,,,chip_04s.jpg,0.0,clock_7_6.png,1.0,43,,,,,,,,,,,,,,,,,,0.0,5.0,5.0,5.0,1.0,,,,,,,,,,
0.0,1.0,0.83893,,,,,,kilt_18s.jpg,0.0,clock_7_7.png,1.0,43,,,,,,,,,,,,,,,,,,0.0,6.0,6.0,6.0,1.0,,,,,,,,,,
0.0,1.0,1.216785,,,,,,film_03s.jpg,0.0,clock_6_1.png,2.0,43,,,,,,,,,,,,,,,,,,0.0,7.0,7.0,7.0,1.0,,,,,,,,,,
0.0,1.0,0.640605,,,,,,footprint_11s.jpg,0.0,clock_6_2.png,2.0,43,,,,,,,,,,,,,,,,,,0.0,8.0,8.0,8.0,1.0,,,,,,,,,,
0.0,1.0,0.685295,,,,,,teacup_07s.jpg,0.0,clock_6_3.png,2.0,43,,,,,,,,,,,,,,,,,,0.0,9.0,9.0,9.0,1.0,,,,,,,,,,
0.0,1.0,0.7431,,,,,,razor_12s.jpg,0.0,clock_6_4.png,2.0,43,,,,,,,,,,,,,,,,,,0.0,10.0,10.0,10.0,1.0,,,,,,,,,,
0.0,1.0,0.639125,,,,,,turkey_10s.jpg,0.0,clock_6_5.png,2.0,43,,,,,,,,,,,,,,,,,,0.0,11.0,11.0,11.0,1.0,,,,,,,,,,
0.0,1.0,1.68436,,,,,,amber_04s.jpg,0.0,clock_6_6.png,2.0,43,,,,,,,,,,,,,,,,,,0.0,12.0,12.0,12.0,1.0,,,,,,,,,,
0.0,1.0,1.518355,,,,,,lantern_04s.jpg,0.0,clock_7_1.png,3.0,43,,,,,,,,,,,,,,,,,,0.0,13.0,13.0,13.0,1.0,,,,,,,,,,
0.0,1.0,1.23255,,,,,,film_03s.jpg,0.0,clock_7_2.png,3.0,43,,,,,,,,,,,,,,,,,,0.0,14.0,14.0,14.0,1.0,,,,,,,,,,
0.0,1.0,0.774925,,,,,,kitten_07s.jpg,0.0,clock_7_3.png,3.0,43,,,,,,,,,,,,,,,,,,0.0,15.0,15.0,15.0,1.0,,,,,,,,,,
0.0,1.0,0.839035,,,,,,mosquito_12s.jpg,0.0,clock_7_4.png,3.0,43,,,,,,,,,,,,,,,,,,0.0,16.0,16.0,16.0,1.0,,,,,,,,,,
0.0,1.0,0.791315,,,,,,memory_stick_11s.jpg,0.0,clock_7_5.png,3.0,43,,,,,,,,,,,,,,,,,,0.0,17.0,17.0,17.0,1.0,,,,,,,,,,
0.0,1.0,0.665195,,,,,,lipstick_02s.jpg,0.0,clock_7_6.png,3.0,43,,,,,,,,,,,,,,,,,,0.0,18.0,18.0,18.0,1.0,,,,,,,,,,
1.0,1.0,0.95023,,,,,,kitten_07s.jpg,1.0,clock_7_7.png,3.0,43,,,,,,,,,,,,,,,,,,0.0,19.0,19.0,19.0,1.0,,,,,,,,,,
0.0,1.0,0.35211,,,,,,mattress_01s.jpg,0.0,clock_5_1.png,4.0,43,,,,,,,,,,,,,,,,,,0.0,20.0,20.0,20.0,1.0,,,,,,,,,,
0.0,1.0,0.702835,,,,,,fondue_07s.jpg,0.0,clock_5_2.png,4.0,43,,,,,,,,,,,,,,,,,,0.0,21.0,21.0,21.0,1.0,,,,,,,,,,
0.0,1.0,0.838685,,,,,,espresso_01b.jpg,0.0,clock_5_3.png,4.0,43,,,,,,,,,,,,,,,,,,0.0,22.0,22.0,22.0,1.0,,,,,,,,,,
0.0,1.0,0.65859,,,,,,tiara_05s.jpg,0.0,clock_5_4.png,4.0,43,,,,,,,,,,,,,,,,,,0.0,23.0,23.0,23.0,1.0,,,,,,,,,,
1.0,1.0,1.30967,,,,,,espresso_01b.jpg,1.0,clock_5_5.png,4.0,43,,,,,,,,,,,,,,,,,,0.0,24.0,24.0,24.0,1.0,,,,,,,,,,
0.0,1.0,1.436395,,,,,,flask_04s.jpg,0.0,clock_6_1.png,5.0,43,,,,,,,,,,,,,,,,,,0.0,25.0,25.0,25.0,1.0,,,,,,,,,,
0.0,1.0,0.97366,,,,,,duck_01b.jpg,0.0,clock_6_2.png,5.0,43,,,,,,,,,,,,,,,,,,0.0,26.0,26.0,26.0,1.0,,,,,,,,,,
0.0,1.0,1.0353,,,,,,ukulele_02s.jpg,0.0,clock_6_3.png,5.0,43,,,,,,,,,,,,,,,,,,0.0,27.0,27.0,27.0,1.0,,,,,,,,,,
0.0,1.0,0.681655,,,,,,polaroid_05s.jpg,0.0,clock_6_4.png,5.0,43,,,,,,,,,,,,,,,,,,0.0,28.0,28.0,28.0,1.0,,,,,,,,,,
0.0,1.0,0.676445,,,,,,kite_04s.jpg,0.0,clock_6_5.png,5.0,43,,,,,,,,,,,,,,,,,,0.0,29.0,29.0,29.0,1.0,,,,,,,,,,
1.0,1.0,1.11769,,,,,,kite_04s.jpg,1.0,clock_6_6.png,5.0,43,,,,,,,,,,,,,,,,,,0.0,30.0,30.0,30.0,1.0,,,,,,,,,,
0.0,1.0,0.915285,,,,,,denture_03s.jpg,0.0,clock_5_1.png,6.0,43,,,,,,,,,,,,,,,,,,0.0,31.0,31.0,31.0,1.0,,,,,,,,,,
0.0,1.0,0.564875,,,,,,frog_09s.jpg,0.0,clock_5_2.png,6.0,43,,,,,,,,,,,,,,,,,,0.0,32.0,32.0,32.0,1.0,,,,,,,,,,
0.0,1.0,0.823025,,,,,,diving_board_07s.jpg,0.0,clock_5_3.png,6.0,43,,,,,,,,,,,,,,,,,,0.0,33.0,33.0,33.0,1.0,,,,,,,,,,
1.0,1.0,2.13815,,,,,,denture_03s.jpg,1.0,clock_5_4.png,6.0,43,,,,,,,,,,,,,,,,,,0.0,34.0,34.0,34.0,1.0,,,,,,,,,,
0.0,1.0,1.792625,,,,,,telephone_pole_05s.jpg,0.0,clock_5_5.png,6.0,43,,,,,,,,,,,,,,,,,,0.0,35.0,35.0,35.0,1.0,,,,,,,,,,
,,,,,,,,,1.0,,,43,1.0,1.0,1.367815,,,,,,kilt_18s.jpg,teacup_07s.jpg,,,,,,,,,,,,,0.0,0.0,0.0,0.0,1.0,,,,,
,,,,,,,,,1.0,,,43,0.0,0.0,1.50306,,,,,,lipstick_02s.jpg,fondue_07s.jpg,,,,,,,,,,,,,0.0,1.0,1.0,1.0,1.0,,,,,
,,,,,,,,,0.0,,,43,0.0,1.0,2.050495,,,,,,lantern_04s.jpg,razor_12s.jpg,,,,,,,,,,,,,0.0,2.0,2.0,2.0,1.0,,,,,
,,,,,,,,,0.0,,,43,0.0,1.0,1.293435,,,,,,glasses01a.jpg,mushroom_10n.jpg,,,,,,,,,,,,,0.0,3.0,3.0,3.0,1.0,,,,,
,,,,,,,,,0.0,,,43,0.0,1.0,2.16581,,,,,,polaroid_05s.jpg,flask_04s.jpg,,,,,,,,,,,,,0.0,4.0,4.0,4.0,1.0,,,,,
,,,,,,,,,1.0,,,43,1.0,1.0,1.98083,,,,,,frog_09s.jpg,telephone_pole_05s.jpg,,,,,,,,,,,,,0.0,5.0,5.0,5.0,1.0,,,,,
,,,,,,,,,,,,43,,,,,,,,,,,,,,,,clock_present_1_8.xlsx,clock_compare_task_1_8.xlsx,,,,,,,,,,,0.0,0.0,0.0,0.0,1.0
0.0,1.0,1.731745,,,,,,spatula04.jpg,0.0,clock_5_1.png,1.0,43,,,,,,,,,,,,,,,,,,0.0,0.0,0.0,0.0,1.0,,,,,,,,,,
0.0,1.0,0.576175,,,,,,cardinal_07s.jpg,0.0,clock_5_2.png,1.0,43,,,,,,,,,,,,,,,,,,0.0,1.0,1.0,1.0,1.0,,,,,,,,,,
1.0,1.0,1.18509,,,,,,spatula04.jpg,1.0,clock_5_3.png,1.0,43,,,,,,,,,,,,,,,,,,0.0,2.0,2.0,2.0,1.0,,,,,,,,,,
0.0,1.0,1.797405,,,,,,fossil_06s.jpg,0.0,clock_5_4.png,1.0,43,,,,,,,,,,,,,,,,,,0.0,3.0,3.0,3.0,1.0,,,,,,,,,,
0.0,1.0,1.835575,,,,,,lavender_10s.jpg,0.0,clock_5_5.png,1.0,43,,,,,,,,,,,,,,,,,,0.0,4.0,4.0,4.0,1.0,,,,,,,,,,
0.0,1.0,1.535495,,,,,,dashboard_02s.jpg,0.0,clock_7_1.png,2.0,43,,,,,,,,,,,,,,,,,,0.0,5.0,5.0,5.0,1.0,,,,,,,,,,
1.0,1.0,0.79661,,,,,,dashboard_02s.jpg,1.0,clock_7_2.png,2.0,43,,,,,,,,,,,,,,,,,,0.0,6.0,6.0,6.0,1.0,,,,,,,,,,
0.0,1.0,2.19718,,,,,,rudder_02s.jpg,0.0,clock_7_3.png,2.0,43,,,,,,,,,,,,,,,,,,0.0,7.0,7.0,7.0,1.0,,,,,,,,,,
0.0,1.0,0.969765,,,,,,loveseat_08s.jpg,0.0,clock_7_4.png,2.0,43,,,,,,,,,,,,,,,,,,0.0,8.0,8.0,8.0,1.0,,,,,,,,,,
0.0,1.0,0.68309,,,,,,hydrant_10s.jpg,0.0,clock_7_5.png,2.0,43,,,,,,,,,,,,,,,,,,0.0,9.0,9.0,9.0,1.0,,,,,,,,,,
0.0,1.0,0.64626,,,,,,seagull_01b.jpg,0.0,clock_7_6.png,2.0,43,,,,,,,,,,,,,,,,,,0.0,10.0,10.0,10.0,1.0,,,,,,,,,,
0.0,1.0,1.047895,,,,,,cardinal_07s.jpg,0.0,clock_7_7.png,2.0,43,,,,,,,,,,,,,,,,,,0.0,11.0,11.0,11.0,1.0,,,,,,,,,,
0.0,1.0,0.3622,,,,,,bottle_opener_11s.jpg,0.0,clock_5_1.png,3.0,43,,,,,,,,,,,,,,,,,,0.0,12.0,12.0,12.0,1.0,,,,,,,,,,
0.0,1.0,0.57858,,,,,,mirror_12s.jpg,0.0,clock_5_2.png,3.0,43,,,,,,,,,,,,,,,,,,0.0,13.0,13.0,13.0,1.0,,,,,,,,,,
0.0,1.0,0.717145,,,,,,candy_cane_06s.jpg,0.0,clock_5_3.png,3.0,43,,,,,,,,,,,,,,,,,,0.0,14.0,14.0,14.0,1.0,,,,,,,,,,
0.0,1.0,0.78388,,,,,,aluminum_foil_08s.jpg,0.0,clock_5_4.png,3.0,43,,,,,,,,,,,,,,,,,,0.0,15.0,15.0,15.0,1.0,,,,,,,,,,
0.0,1.0,1.539555,,,,,,latte_06s.jpg,0.0,clock_5_5.png,3.0,43,,,,,,,,,,,,,,,,,,0.0,16.0,16.0,16.0,1.0,,,,,,,,,,
0.0,1.0,0.650795,,,,,,sledgehammer_03s.jpg,0.0,clock_6_1.png,4.0,43,,,,,,,,,,,,,,,,,,0.0,17.0,17.0,17.0,1.0,,,,,,,,,,
1.0,1.0,0.757295,,,,,,sledgehammer_03s.jpg,1.0,clock_6_2.png,4.0,43,,,,,,,,,,,,,,,,,,0.0,18.0,18.0,18.0,1.0,,,,,,,,,,
0.0,1.0,0.67749,,,,,,rosary_03s.jpg,0.0,clock_6_3.png,4.0,43,,,,,,,,,,,,,,,,,,0.0,19.0,19.0,19.0,1.0,,,,,,,,,,
0.0,1.0,1.70682,,,,,,crossbow_10s.jpg,0.0,clock_6_4.png,4.0,43,,,,,,,,,,,,,,,,,,0.0,20.0,20.0,20.0,1.0,,,,,,,,,,
1.0,1.0,1.127175,,,,,,rosary_03s.jpg,1.0,clock_6_5.png,4.0,43,,,,,,,,,,,,,,,,,,0.0,21.0,21.0,21.0,1.0,,,,,,,,,,
1.0,1.0,1.14739,,,,,,sledgehammer_03s.jpg,1.0,clock_6_6.png,4.0,43,,,,,,,,,,,,,,,,,,0.0,22.0,22.0,22.0,1.0,,,,,,,,,,
0.0,1.0,1.551885,,,,,,ticktacktoe_08s.jpg,0.0,clock_7_1.png,5.0,43,,,,,,,,,,,,,,,,,,0.0,23.0,23.0,23.0,1.0,,,,,,,,,,
0.0,1.0,1.411615,,,,,,swimming_pool_17s.jpg,0.0,clock_7_2.png,5.0,43,,,,,,,,,,,,,,,,,,0.0,24.0,24.0,24.0,1.0,,,,,,,,,,
1.0,1.0,1.018495,,,,,,swimming_pool_17s.jpg,1.0,clock_7_3.png,5.0,43,,,,,,,,,,,,,,,,,,0.0,25.0,25.0,25.0,1.0,,,,,,,,,,
0.0,1.0,1.28435,,,,,,bagel_15s.jpg,0.0,clock_7_4.png,5.0,43,,,,,,,,,,,,,,,,,,0.0,26.0,26.0,26.0,1.0,,,,,,,,,,
0.0,1.0,1.99104,,,,,,rosary_03s.jpg,0.0,clock_7_5.png,5.0,43,,,,,,,,,,,,,,,,,,0.0,27.0,27.0,27.0,1.0,,,,,,,,,,
0.0,1.0,1.06901,,,,,,lavender_10s.jpg,0.0,clock_7_6.png,5.0,43,,,,,,,,,,,,,,,,,,0.0,28.0,28.0,28.0,1.0,,,,,,,,,,
0.0,1.0,0.970125,,,,,,bean_06s.jpg,0.0,clock_7_7.png,5.0,43,,,,,,,,,,,,,,,,,,0.0,29.0,29.0,29.0,1.0,,,,,,,,,,
0.0,1.0,0.95371,,,,,,radiator_05s.jpg,0.0,clock_6_1.png,6.0,43,,,,,,,,,,,,,,,,,,0.0,30.0,30.0,30.0,1.0,,,,,,,,,,
0.0,1.0,1.06229,,,,,,ladle_04s.jpg,0.0,clock_6_2.png,6.0,43,,,,,,,,,,,,,,,,,,0.0,31.0,31.0,31.0,1.0,,,,,,,,,,
0.0,1.0,0.866955,,,,,,beaker_01b.jpg,0.0,clock_6_3.png,6.0,43,,,,,,,,,,,,,,,,,,0.0,32.0,32.0,32.0,1.0,,,,,,,,,,
0.0,1.0,0.850615,,,,,,sundae_08s.jpg,0.0,clock_6_4.png,6.0,43,,,,,,,,,,,,,,,,,,0.0,33.0,33.0,33.0,1.0,,,,,,,,,,
0.0,1.0,0.7099,,,,,,frame_06s.jpg,0.0,clock_6_5.png,6.0,43,,,,,,,,,,,,,,,,,,0.0,34.0,34.0,34.0,1.0,,,,,,,,,,
0.0,1.0,0.684505,,,,,,coat_rack_01b.jpg,0.0,clock_6_6.png,6.0,43,,,,,,,,,,,,,,,,,,0.0,35.0,35.0,35.0,1.0,,,,,,,,,,
,,,,,,,,,1.0,,,43,0.0,0.0,1.574825,,,,,,hydrant_10s.jpg,bottle_opener_11s.jpg,,,,,,,,,,,,,0.0,0.0,0.0,0.0,1.0,,,,,
,,,,,,,,,0.0,,,43,0.0,1.0,2.139685,,,,,,ticktacktoe_08s.jpg,crossbow_10s.jpg,,,,,,,,,,,,,0.0,1.0,1.0,1.0,1.0,,,,,
,,,,,,,,,1.0,,,43,0.0,0.0,3.405685,,,,,,seagull_01b.jpg,mirror_12s.jpg,,,,,,,,,,,,,0.0,2.0,2.0,2.0,1.0,,,,,
,,,,,,,,,0.0,,,43,0.0,1.0,2.404,,,,,,sundae_08s.jpg,radiator_05s.jpg,,,,,,,,,,,,,0.0,3.0,3.0,3.0,1.0,,,,,
,,,,,,,,,0.0,,,43,1.0,0.0,2.024315,,,,,,frame_06s.jpg,ladle_04s.jpg,,,,,,,,,,,,,0.0,4.0,4.0,4.0,1.0,,,,,
,,,,,,,,,0.0,,,43,1.0,0.0,2.302925,,,,,,bean_06s.jpg,bagel_15s.jpg,,,,,,,,,,,,,0.0,5.0,5.0,5.0,1.0,,,,,
,,,,,,,,,,,,43,,,,,,,,,,,,,,,,clock_present_2_8.xlsx,clock_compare_task_2_8.xlsx,,,,,,,,,,,0.0,1.0,1.0,1.0,1.0
0.0,1.0,1.125235,,,,,,blender_08s.jpg,0.0,clock_7_1.png,1.0,43,,,,,,,,,,,,,,,,,,0.0,0.0,0.0,0.0,1.0,,,,,,,,,,
0.0,1.0,0.900445,,,,,,knot_01b.jpg,0.0,clock_7_2.png,1.0,43,,,,,,,,,,,,,,,,,,0.0,1.0,1.0,1.0,1.0,,,,,,,,,,
1.0,1.0,2.01313,,,,,,blender_08s.jpg,1.0,clock_7_3.png,1.0,43,,,,,,,,,,,,,,,,,,0.0,2.0,2.0,2.0,1.0,,,,,,,,,,
1.0,1.0,1.117455,,,,,,blender_08s.jpg,1.0,clock_7_4.png,1.0,43,,,,,,,,,,,,,,,,,,0.0,3.0,3.0,3.0,1.0,,,,,,,,,,
0.0,1.0,1.697135,,,,,,joystick_01b.jpg,0.0,clock_7_5.png,1.0,43,,,,,,,,,,,,,,,,,,0.0,4.0,4.0,4.0,1.0,,,,,,,,,,
0.0,1.0,1.2735,,,,,,tuxedo_01b.jpg,0.0,clock_7_6.png,1.0,43,,,,,,,,,,,,,,,,,,0.0,5.0,5.0,5.0,1.0,,,,,,,,,,
0.0,1.0,1.567905,,,,,,lid_10s.jpg,0.0,clock_7_7.png,1.0,43,,,,,,,,,,,,,,,,,,0.0,6.0,6.0,6.0,1.0,,,,,,,,,,
0.0,1.0,0.50545,,,,,,bubble_01b.jpg,0.0,clock_5_1.png,2.0,43,,,,,,,,,,,,,,,,,,0.0,7.0,7.0,7.0,1.0,,,,,,,,,,
0.0,1.0,0.717295,,,,,,stopwatch_04s.jpg,0.0,clock_5_2.png,2.0,43,,,,,,,,,,,,,,,,,,0.0,8.0,8.0,8.0,1.0,,,,,,,,,,
0.0,1.0,0.76372,,,,,,mud_13s.jpg,0.0,clock_5_3.png,2.0,43,,,,,,,,,,,,,,,,,,0.0,9.0,9.0,9.0,1.0,,,,,,,,,,
0.0,1.0,1.41837,,,,,,joystick_01b.jpg,0.0,clock_5_4.png,2.0,43,,,,,,,,,,,,,,,,,,0.0,10.0,10.0,10.0,1.0,,,,,,,,,,
0.0,1.0,0.668875,,,,,,printer_09s.jpg,0.0,clock_5_5.png,2.0,43,,,,,,,,,,,,,,,,,,0.0,11.0,11.0,11.0,1.0,,,,,,,,,,
0.0,1.0,0.40775,,,,,,totem_pole_05s.jpg,0.0,clock_7_1.png,3.0,43,,,,,,,,,,,,,,,,,,0.0,12.0,12.0,12.0,1.0,,,,,,,,,,
0.0,1.0,0.661635,,,,,,eiffeltower.jpg,0.0,clock_7_2.png,3.0,43,,,,,,,,,,,,,,,,,,0.0,13.0,13.0,13.0,1.0,,,,,,,,,,
0.0,1.0,0.862745,,,,,,bathtub_23s.jpg,0.0,clock_7_3.png,3.0,43,,,,,,,,,,,,,,,,,,0.0,14.0,14.0,14.0,1.0,,,,,,,,,,
1.0,1.0,0.974765,,,,,,eiffeltower.jpg,1.0,clock_7_4.png,3.0,43,,,,,,,,,,,,,,,,,,0.0,15.0,15.0,15.0,1.0,,,,,,,,,,
1.0,1.0,1.10398,,,,,,totem_pole_05s.jpg,1.0,clock_7_5.png,3.0,43,,,,,,,,,,,,,,,,,,0.0,16.0,16.0,16.0,1.0,,,,,,,,,,
1.0,0.0,0.891975,,,,,,jetski_10s.jpg,0.0,clock_7_6.png,3.0,43,,,,,,,,,,,,,,,,,,0.0,17.0,17.0,17.0,1.0,,,,,,,,,,
0.0,1.0,2.05447,,,,,,pillbox_04s.jpg,0.0,clock_7_7.png,3.0,43,,,,,,,,,,,,,,,,,,0.0,18.0,18.0,18.0,1.0,,,,,,,,,,
0.0,1.0,1.19153,,,,,,coconut_08s.jpg,0.0,clock_6_1.png,4.0,43,,,,,,,,,,,,,,,,,,0.0,19.0,19.0,19.0,1.0,,,,,,,,,,
0.0,1.0,1.112205,,,,,,lid_10s.jpg,0.0,clock_6_2.png,4.0,43,,,,,,,,,,,,,,,,,,0.0,20.0,20.0,20.0,1.0,,,,,,,,,,
0.0,1.0,0.62223,,,,,,inhaler_01b.jpg,0.0,clock_6_3.png,4.0,43,,,,,,,,,,,,,,,,,,0.0,21.0,21.0,21.0,1.0,,,,,,,,,,
0.0,1.0,0.928105,,,,,,printer_09s.jpg,0.0,clock_6_4.png,4.0,43,,,,,,,,,,,,,,,,,,0.0,22.0,22.0,22.0,1.0,,,,,,,,,,
0.0,1.0,0.974665,,,,,,trampoline_13s.jpg,0.0,clock_6_5.png,4.0,43,,,,,,,,,,,,,,,,,,0.0,23.0,23.0,23.0,1.0,,,,,,,,,,
0.0,1.0,0.6798,,,,,,crab_16s.jpg,0.0,clock_6_6.png,4.0,43,,,,,,,,,,,,,,,,,,0.0,24.0,24.0,24.0,1.0,,,,,,,,,,
0.0,1.0,1.02707,,,,,,thread_08s.jpg,0.0,clock_5_1.png,5.0,43,,,,,,,,,,,,,,,,,,0.0,25.0,25.0,25.0,1.0,,,,,,,,,,
0.0,1.0,1.956605,,,,,,trampoline_13s.jpg,0.0,clock_5_2.png,5.0,43,,,,,,,,,,,,,,,,,,0.0,26.0,26.0,26.0,1.0,,,,,,,,,,
0.0,1.0,1.46023,,,,,,jetski_10s.jpg,0.0,clock_5_3.png,5.0,43,,,,,,,,,,,,,,,,,,0.0,27.0,27.0,27.0,1.0,,,,,,,,,,
0.0,1.0,0.6687,,,,,,turnstile_08s.jpg,0.0,clock_5_4.png,5.0,43,,,,,,,,,,,,,,,,,,0.0,28.0,28.0,28.0,1.0,,,,,,,,,,
0.0,1.0,0.824985,,,,,,bonsai_07s.jpg,0.0,clock_5_5.png,5.0,43,,,,,,,,,,,,,,,,,,0.0,29.0,29.0,29.0,1.0,,,,,,,,,,
0.0,1.0,0.758135,,,,,,surfboard_11s.jpg,0.0,clock_6_1.png,6.0,43,,,,,,,,,,,,,,,,,,0.0,30.0,30.0,30.0,1.0,,,,,,,,,,
0.0,1.0,0.71804,,,,,,touchpad_11s.jpg,0.0,clock_6_2.png,6.0,43,,,,,,,,,,,,,,,,,,0.0,31.0,31.0,31.0,1.0,,,,,,,,,,
0.0,1.0,1.776415,,,,,,tab_09s.jpg,0.0,clock_6_3.png,6.0,43,,,,,,,,,,,,,,,,,,0.0,32.0,32.0,32.0,1.0,,,,,,,,,,
0.0,1.0,1.113205,,,,,,tambourine_06s.jpg,0.0,clock_6_4.png,6.0,43,,,,,,,,,,,,,,,,,,0.0,33.0,33.0,33.0,1.0,,,,,,,,,,
0.0,1.0,1.30405,,,,,,tube_top_03s.jpg,0.0,clock_6_5.png,6.0,43,,,,,,,,,,,,,,,,,,0.0,34.0,34.0,34.0,1.0,,,,,,,,,,
0.0,1.0,1.208085,,,,,,mud_13s.jpg,0.0,clock_6_6.png,6.0,43,,,,,,,,,,,,,,,,,,0.0,35.0,35.0,35.0,1.0,,,,,,,,,,
,,,,,,,,,1.0,,,43,0.0,0.0,2.104885,,,,,,tuxedo_01b.jpg,stopwatch_04s.jpg,,,,,,,,,,,,,0.0,0.0,0.0,0.0,1.0,,,,,
,,,,,,,,,0.0,,,43,1.0,0.0,1.806945,,,,,,tab_09s.jpg,bonsai_07s.jpg,,,,,,,,,,,,,0.0,1.0,1.0,1.0,1.0,,,,,
,,,,,,,,,0.0,,,43,0.0,1.0,2.242125,,,,,,inhaler_01b.jpg,pillbox_04s.jpg,,,,,,,,,,,,,0.0,2.0,2.0,2.0,1.0,,,,,
,,,,,,,,,1.0,,,43,1.0,1.0,1.47024,,,,,,surfboard_11s.jpg,tambourine_06s.jpg,,,,,,,,,,,,,0.0,3.0,3.0,3.0,1.0,,,,,
,,,,,,,,,0.0,,,43,1.0,0.0,1.228085,,,,,,turnstile_08s.jpg,thread_08s.jpg,,,,,,,,,,,,,0.0,4.0,4.0,4.0,1.0,,,,,
,,,,,,,,,0.0,,,43,0.0,1.0,1.47579,,,,,,tube_top_03s.jpg,touchpad_11s.jpg,,,,,,,,,,,,,0.0,5.0,5.0,5.0,1.0,,,,,
,,,,,,,,,,,,43,,,,,,,,,,,,,,,,clock_present_3_8.xlsx,clock_compare_task_3_8.xlsx,,,,,,,,,,,0.0,2.0,2.0,2.0,1.0
0.0,1.0,0.95007,,,,,,rug_09s.jpg,0.0,clock_5_1.png,1.0,43,,,,,,,,,,,,,,,,,,0.0,0.0,0.0,0.0,1.0,,,,,,,,,,
1.0,1.0,0.87303,,,,,,rug_09s.jpg,1.0,clock_5_2.png,1.0,43,,,,,,,,,,,,,,,,,,0.0,1.0,1.0,1.0,1.0,,,,,,,,,,
0.0,1.0,0.5902,,,,,,pear_02s.jpg,0.0,clock_5_3.png,1.0,43,,,,,,,,,,,,,,,,,,0.0,2.0,2.0,2.0,1.0,,,,,,,,,,
1.0,1.0,0.824745,,,,,,rug_09s.jpg,1.0,clock_5_4.png,1.0,43,,,,,,,,,,,,,,,,,,0.0,3.0,3.0,3.0,1.0,,,,,,,,,,
0.0,1.0,1.124145,,,,,,lasagna_06s.jpg,0.0,clock_5_5.png,1.0,43,,,,,,,,,,,,,,,,,,0.0,4.0,4.0,4.0,1.0,,,,,,,,,,
0.0,1.0,0.86954,,,,,,crayon_09s.jpg,0.0,clock_6_1.png,2.0,43,,,,,,,,,,,,,,,,,,0.0,5.0,5.0,5.0,1.0,,,,,,,,,,
0.0,1.0,0.873235,,,,,,puppet_01b.jpg,0.0,clock_6_2.png,2.0,43,,,,,,,,,,,,,,,,,,0.0,6.0,6.0,6.0,1.0,,,,,,,,,,
0.0,1.0,0.7344,,,,,,clover_04s.jpg,0.0,clock_6_3.png,2.0,43,,,,,,,,,,,,,,,,,,0.0,7.0,7.0,7.0,1.0,,,,,,,,,,
,0.0,,,,,,,eyedropper_12s.jpg,0.0,clock_6_4.png,2.0,43,,,,,,,,,,,,,,,,,,0.0,8.0,8.0,8.0,1.0,,,,,,,,,,
0.0,1.0,1.15101,,,,,,compass_10n.jpg,0.0,clock_6_5.png,2.0,43,,,,,,,,,,,,,,,,,,0.0,9.0,9.0,9.0,1.0,,,,,,,,,,
0.0,1.0,1.541545,,,,,,beard_16s.jpg,0.0,clock_6_6.png,2.0,43,,,,,,,,,,,,,,,,,,0.0,10.0,10.0,10.0,1.0,,,,,,,,,,
0.0,1.0,1.017585,,,,,,paintbrush_04s.jpg,0.0,clock_7_1.png,3.0,43,,,,,,,,,,,,,,,,,,0.0,11.0,11.0,11.0,1.0,,,,,,,,,,
0.0,1.0,0.53591,,,,,,typewriter_11s.jpg,0.0,clock_7_2.png,3.0,43,,,,,,,,,,,,,,,,,,0.0,12.0,12.0,12.0,1.0,,,,,,,,,,
0.0,1.0,0.706905,,,,,,peach_04s.jpg,0.0,clock_7_3.png,3.0,43,,,,,,,,,,,,,,,,,,0.0,13.0,13.0,13.0,1.0,,,,,,,,,,
0.0,1.0,0.64147,,,,,,punch1_10s.jpg,0.0,clock_7_4.png,3.0,43,,,,,,,,,,,,,,,,,,0.0,14.0,14.0,14.0,1.0,,,,,,,,,,
0.0,1.0,0.65924,,,,,,glue_01s.jpg,0.0,clock_7_5.png,3.0,43,,,,,,,,,,,,,,,,,,0.0,15.0,15.0,15.0,1.0,,,,,,,,,,
0.0,1.0,1.287035,,,,,,magnet_03s.jpg,0.0,clock_7_6.png,3.0,43,,,,,,,,,,,,,,,,,,0.0,16.0,16.0,16.0,1.0,,,,,,,,,,
0.0,1.0,1.08923,,,,,,fur_coat_11s.jpg,0.0,clock_7_7.png,3.0,43,,,,,,,,,,,,,,,,,,0.0,17.0,17.0,17.0,1.0,,,,,,,,,,
0.0,1.0,0.60215,,,,,,marker_05s.jpg,0.0,clock_7_1.png,4.0,43,,,,,,,,,,,,,,,,,,0.0,18.0,18.0,18.0,1.0,,,,,,,,,,
1.0,1.0,1.231745,,,,,,marker_05s.jpg,1.0,clock_7_2.png,4.0,43,,,,,,,,,,,,,,,,,,0.0,19.0,19.0,19.0,1.0,,,,,,,,,,
0.0,1.0,1.27044,,,,,,rug_09s.jpg,0.0,clock_7_3.png,4.0,43,,,,,,,,,,,,,,,,,,0.0,20.0,20.0,20.0,1.0,,,,,,,,,,
0.0,1.0,1.39326,,,,,,abacus_12s.jpg,0.0,clock_7_4.png,4.0,43,,,,,,,,,,,,,,,,,,0.0,21.0,21.0,21.0,1.0,,,,,,,,,,
0.0,1.0,1.55141,,,,,,toy_04s.jpg,0.0,clock_7_5.png,4.0,43,,,,,,,,,,,,,,,,,,0.0,22.0,22.0,22.0,1.0,,,,,,,,,,
0.0,1.0,0.89157,,,,,,air_pump_05s.jpg,0.0,clock_7_6.png,4.0,43,,,,,,,,,,,,,,,,,,0.0,23.0,23.0,23.0,1.0,,,,,,,,,,
0.0,1.0,0.70711,,,,,,rhubarb_03s.jpg,0.0,clock_7_7.png,4.0,43,,,,,,,,,,,,,,,,,,0.0,24.0,24.0,24.0,1.0,,,,,,,,,,
0.0,1.0,0.91514,,,,,,boar_10s.jpg,0.0,clock_6_1.png,5.0,43,,,,,,,,,,,,,,,,,,0.0,25.0,25.0,25.0,1.0,,,,,,,,,,
0.0,1.0,1.280705,,,,,,abacus_12s.jpg,0.0,clock_6_2.png,5.0,43,,,,,,,,,,,,,,,,,,0.0,26.0,26.0,26.0,1.0,,,,,,,,,,
0.0,1.0,0.74099,,,,,,potpourri_03s.jpg,0.0,clock_6_3.png,5.0,43,,,,,,,,,,,,,,,,,,0.0,27.0,27.0,27.0,1.0,,,,,,,,,,
0.0,1.0,0.98823,,,,,,typewriter_11s.jpg,0.0,clock_6_4.png,5.0,43,,,,,,,,,,,,,,,,,,0.0,28.0,28.0,28.0,1.0,,,,,,,,,,
0.0,1.0,0.947015,,,,,,pea_11s.jpg,0.0,clock_6_5.png,5.0,43,,,,,,,,,,,,,,,,,,0.0,29.0,29.0,29.0,1.0,,,,,,,,,,
0.0,1.0,0.709145,,,,,,polar_bear_02s.jpg,0.0,clock_6_6.png,5.0,43,,,,,,,,,,,,,,,,,,0.0,30.0,30.0,30.0,1.0,,,,,,,,,,
0.0,1.0,0.87999,,,,,,laundry_basket_11s.jpg,0.0,clock_5_1.png,6.0,43,,,,,,,,,,,,,,,,,,0.0,31.0,31.0,31.0,1.0,,,,,,,,,,
0.0,1.0,0.68931,,,,,,chopsticks_08s.jpg,0.0,clock_5_2.png,6.0,43,,,,,,,,,,,,,,,,,,0.0,32.0,32.0,32.0,1.0,,,,,,,,,,
1.0,1.0,1.034445,,,,,,chopsticks_08s.jpg,1.0,clock_5_3.png,6.0,43,,,,,,,,,,,,,,,,,,0.0,33.0,33.0,33.0,1.0,,,,,,,,,,
0.0,1.0,0.683975,,,,,,safety_pin_02s.jpg,0.0,clock_5_4.png,6.0,43,,,,,,,,,,,,,,,,,,0.0,34.0,34.0,34.0,1.0,,,,,,,,,,
0.0,1.0,1.747765,,,,,,cobra_05s.jpg,0.0,clock_5_5.png,6.0,43,,,,,,,,,,,,,,,,,,0.0,35.0,35.0,35.0,1.0,,,,,,,,,,
,,,,,,,,,0.0,,,43,1.0,0.0,1.72906,,,,,,boar_10s.jpg,toy_04s.jpg,,,,,,,,,,,,,0.0,0.0,0.0,0.0,1.0,,,,,
,,,,,,,,,0.0,,,43,0.0,1.0,2.0243,,,,,,crayon_09s.jpg,pear_02s.jpg,,,,,,,,,,,,,0.0,1.0,1.0,1.0,1.0,,,,,
,,,,,,,,,1.0,,,43,0.0,0.0,1.414535,,,,,,lasagna_06s.jpg,clover_04s.jpg,,,,,,,,,,,,,0.0,2.0,2.0,2.0,1.0,,,,,
,,,,,,,,,1.0,,,43,1.0,1.0,2.61224,,,,,,puppet_01b.jpg,compass_10n.jpg,,,,,,,,,,,,,0.0,3.0,3.0,3.0,1.0,,,,,
,,,,,,,,,0.0,,,43,1.0,0.0,1.5112,,,,,,fur_coat_11s.jpg,punch1_10s.jpg,,,,,,,,,,,,,0.0,4.0,4.0,4.0,1.0,,,,,
,,,,,,,,,1.0,,,43,0.0,0.0,1.86479,,,,,,laundry_basket_11s.jpg,safety_pin_02s.jpg,,,,,,,,,,,,,0.0,5.0,5.0,5.0,1.0,,,,,
,,,,,,,,,,,,43,,,,,,,,,,,,,,,,clock_present_4_8.xlsx,clock_compare_task_4_8.xlsx,,,,,,,,,,,0.0,3.0,3.0,3.0,1.0
0.0,1.0,1.87245,,,,,,projector_08s.jpg,0.0,clock_5_1.png,1.0,43,,,,,,,,,,,,,,,,,,0.0,0.0,0.0,0.0,1.0,,,,,,,,,,
0.0,1.0,0.81964,,,,,,gingerbread_man_03s.jpg,0.0,clock_5_2.png,1.0,43,,,,,,,,,,,,,,,,,,0.0,1.0,1.0,1.0,1.0,,,,,,,,,,
1.0,1.0,0.78836,,,,,,gingerbread_man_03s.jpg,1.0,clock_5_3.png,1.0,43,,,,,,,,,,,,,,,,,,0.0,2.0,2.0,2.0,1.0,,,,,,,,,,
1.0,1.0,1.056355,,,,,,projector_08s.jpg,1.0,clock_5_4.png,1.0,43,,,,,,,,,,,,,,,,,,0.0,3.0,3.0,3.0,1.0,,,,,,,,,,
1.0,1.0,1.11899,,,,,,projector_08s.jpg,1.0,clock_5_5.png,1.0,43,,,,,,,,,,,,,,,,,,0.0,4.0,4.0,4.0,1.0,,,,,,,,,,
0.0,1.0,0.6205,,,,,,sunflower_17s.jpg,0.0,clock_5_1.png,2.0,43,,,,,,,,,,,,,,,,,,0.0,5.0,5.0,5.0,1.0,,,,,,,,,,
0.0,1.0,1.15135,,,,,,gingerbread_man_03s.jpg,0.0,clock_5_2.png,2.0,43,,,,,,,,,,,,,,,,,,0.0,6.0,6.0,6.0,1.0,,,,,,,,,,
0.0,1.0,0.97008,,,,,,puppy_08s.jpg,0.0,clock_5_3.png,2.0,43,,,,,,,,,,,,,,,,,,0.0,7.0,7.0,7.0,1.0,,,,,,,,,,
0.0,1.0,1.304245,,,,,,quill_09s.jpg,0.0,clock_5_4.png,2.0,43,,,,,,,,,,,,,,,,,,0.0,8.0,8.0,8.0,1.0,,,,,,,,,,
0.0,1.0,0.87452,,,,,,mascara_03s.jpg,0.0,clock_5_5.png,2.0,43,,,,,,,,,,,,,,,,,,0.0,9.0,9.0,9.0,1.0,,,,,,,,,,
0.0,1.0,0.771015,,,,,,lifesaver_10s.jpg,0.0,clock_6_1.png,3.0,43,,,,,,,,,,,,,,,,,,0.0,10.0,10.0,10.0,1.0,,,,,,,,,,
0.0,1.0,1.000175,,,,,,lollipop_08s.jpg,0.0,clock_6_2.png,3.0,43,,,,,,,,,,,,,,,,,,0.0,11.0,11.0,11.0,1.0,,,,,,,,,,
0.0,1.0,0.69964,,,,,,stapler_01b.jpg,0.0,clock_6_3.png,3.0,43,,,,,,,,,,,,,,,,,,0.0,12.0,12.0,12.0,1.0,,,,,,,,,,
0.0,1.0,0.68759,,,,,,panda_02s.jpg,0.0,clock_6_4.png,3.0,43,,,,,,,,,,,,,,,,,,0.0,13.0,13.0,13.0,1.0,,,,,,,,,,
0.0,1.0,0.67201,,,,,,puddle_02s.jpg,0.0,clock_6_5.png,3.0,43,,,,,,,,,,,,,,,,,,0.0,14.0,14.0,14.0,1.0,,,,,,,,,,
1.0,1.0,1.08978,,,,,,lifesaver_10s.jpg,1.0,clock_6_6.png,3.0,43,,,,,,,,,,,,,,,,,,0.0,15.0,15.0,15.0,1.0,,,,,,,,,,
0.0,1.0,1.429805,,,,,,key_07s.jpg,0.0,clock_6_1.png,4.0,43,,,,,,,,,,,,,,,,,,0.0,16.0,16.0,16.0,1.0,,,,,,,,,,
0.0,1.0,1.79328,,,,,,toilet_paper_12s.jpg,0.0,clock_6_2.png,4.0,43,,,,,,,,,,,,,,,,,,0.0,17.0,17.0,17.0,1.0,,,,,,,,,,
0.0,1.0,0.678355,,,,,,doily_13s.jpg,0.0,clock_6_3.png,4.0,43,,,,,,,,,,,,,,,,,,0.0,18.0,18.0,18.0,1.0,,,,,,,,,,
0.0,1.0,0.749655,,,,,,ginger_09s.jpg,0.0,clock_6_4.png,4.0,43,,,,,,,,,,,,,,,,,,0.0,19.0,19.0,19.0,1.0,,,,,,,,,,
0.0,1.0,0.580075,,,,,,eggshell_14s.jpg,0.0,clock_6_5.png,4.0,43,,,,,,,,,,,,,,,,,,0.0,20.0,20.0,20.0,1.0,,,,,,,,,,
0.0,1.0,0.65606,,,,,,refrigerator_07s.jpg,0.0,clock_6_6.png,4.0,43,,,,,,,,,,,,,,,,,,0.0,21.0,21.0,21.0,1.0,,,,,,,,,,
0.0,1.0,0.813195,,,,,,oil_02s.jpg,0.0,clock_7_1.png,5.0,43,,,,,,,,,,,,,,,,,,0.0,22.0,22.0,22.0,1.0,,,,,,,,,,
1.0,1.0,0.834755,,,,,,oil_02s.jpg,1.0,clock_7_2.png,5.0,43,,,,,,,,,,,,,,,,,,0.0,23.0,23.0,23.0,1.0,,,,,,,,,,
0.0,1.0,1.006685,,,,,,fox_13s.jpg,0.0,clock_7_3.png,5.0,43,,,,,,,,,,,,,,,,,,0.0,24.0,24.0,24.0,1.0,,,,,,,,,,
0.0,1.0,0.716515,,,,,,seahorse_13s.jpg,0.0,clock_7_4.png,5.0,43,,,,,,,,,,,,,,,,,,0.0,25.0,25.0,25.0,1.0,,,,,,,,,,
0.0,1.0,1.01437,,,,,,triangle_10s.jpg,0.0,clock_7_5.png,5.0,43,,,,,,,,,,,,,,,,,,0.0,26.0,26.0,26.0,1.0,,,,,,,,,,
0.0,1.0,0.78982,,,,,,popcorn_09s.jpg,0.0,clock_7_6.png,5.0,43,,,,,,,,,,,,,,,,,,0.0,27.0,27.0,27.0,1.0,,,,,,,,,,
1.0,1.0,1.83808,,,,,,seahorse_13s.jpg,1.0,clock_7_7.png,5.0,43,,,,,,,,,,,,,,,,,,0.0,28.0,28.0,28.0,1.0,,,,,,,,,,
0.0,1.0,0.549805,,,,,,leash_10s.jpg,0.0,clock_7_1.png,6.0,43,,,,,,,,,,,,,,,,,,0.0,29.0,29.0,29.0,1.0,,,,,,,,,,
1.0,1.0,0.830105,,,,,,leash_10s.jpg,1.0,clock_7_2.png,6.0,43,,,,,,,,,,,,,,,,,,0.0,30.0,30.0,30.0,1.0,,,,,,,,,,
0.0,1.0,0.61812,,,,,,mussel_11s.jpg,0.0,clock_7_3.png,6.0,43,,,,,,,,,,,,,,,,,,0.0,31.0,31.0,31.0,1.0,,,,,,,,,,
0.0,1.0,0.878535,,,,,,tablet_04s.jpg,0.0,clock_7_4.png,6.0,43,,,,,,,,,,,,,,,,,,0.0,32.0,32.0,32.0,1.0,,,,,,,,,,
,0.0,,,,,,,leash_10s.jpg,1.0,clock_7_5.png,6.0,43,,,,,,,,,,,,,,,,,,0.0,33.0,33.0,33.0,1.0,,,,,,,,,,
1.0,1.0,1.39564,,,,,,mussel_11s.jpg,1.0,clock_7_6.png,6.0,43,,,,,,,,,,,,,,,,,,0.0,34.0,34.0,34.0,1.0,,,,,,,,,,
1.0,1.0,0.896655,,,,,,mussel_11s.jpg,1.0,clock_7_7.png,6.0,43,,,,,,,,,,,,,,,,,,0.0,35.0,35.0,35.0,1.0,,,,,,,,,,
,,,,,,,,,1.0,,,43,1.0,1.0,1.640365,,,,,,mascara_03s.jpg,stapler_01b.jpg,,,,,,,,,,,,,0.0,0.0,0.0,0.0,1.0,,,,,
,,,,,,,,,1.0,,,43,0.0,0.0,1.33546,,,,,,panda_02s.jpg,key_07s.jpg,,,,,,,,,,,,,0.0,1.0,1.0,1.0,1.0,,,,,
,,,,,,,,,1.0,,,43,1.0,1.0,1.29346,,,,,,quill_09s.jpg,lollipop_08s.jpg,,,,,,,,,,,,,0.0,2.0,2.0,2.0,1.0,,,,,
,,,,,,,,,0.0,,,43,1.0,0.0,1.537775,,,,,,eggshell_14s.jpg,toilet_paper_12s.jpg,,,,,,,,,,,,,0.0,3.0,3.0,3.0,1.0,,,,,
,,,,,,,,,0.0,,,43,1.0,0.0,1.49114,,,,,,refrigerator_07s.jpg,doily_13s.jpg,,,,,,,,,,,,,0.0,4.0,4.0,4.0,1.0,,,,,
,,,,,,,,,1.0,,,43,1.0,1.0,1.487055,,,,,,fox_13s.jpg,popcorn_09s.jpg,,,,,,,,,,,,,0.0,5.0,5.0,5.0,1.0,,,,,
,,,,,,,,,,,,43,,,,,,,,,,,,,,,,clock_present_5_8.xlsx,clock_compare_task_5_8.xlsx,,,,,,,,,,,0.0,4.0,4.0,4.0,1.0
0.0,1.0,1.45277,,,,,,turf_03s.jpg,0.0,clock_5_1.png,1.0,43,,,,,,,,,,,,,,,,,,0.0,0.0,0.0,0.0,1.0,,,,,,,,,,
0.0,1.0,0.90833,,,,,,spoon02a.jpg,0.0,clock_5_2.png,1.0,43,,,,,,,,,,,,,,,,,,0.0,1.0,1.0,1.0,1.0,,,,,,,,,,
0.0,1.0,1.60181,,,,,,knitting_needle_04s.jpg,0.0,clock_5_3.png,1.0,43,,,,,,,,,,,,,,,,,,0.0,2.0,2.0,2.0,1.0,,,,,,,,,,
0.0,1.0,0.85906,,,,,,syringe_02s.jpg,0.0,clock_5_4.png,1.0,43,,,,,,,,,,,,,,,,,,0.0,3.0,3.0,3.0,1.0,,,,,,,,,,
0.0,1.0,0.807935,,,,,,ice_pack_09s.jpg,0.0,clock_5_5.png,1.0,43,,,,,,,,,,,,,,,,,,0.0,4.0,4.0,4.0,1.0,,,,,,,,,,
0.0,1.0,0.338505,,,,,,blowfish_03s.jpg,0.0,clock_6_1.png,2.0,43,,,,,,,,,,,,,,,,,,0.0,5.0,5.0,5.0,1.0,,,,,,,,,,
1.0,1.0,1.06393,,,,,,blowfish_03s.jpg,1.0,clock_6_2.png,2.0,43,,,,,,,,,,,,,,,,,,0.0,6.0,6.0,6.0,1.0,,,,,,,,,,
0.0,1.0,1.7351,,,,,,tennis_ball_06s.jpg,0.0,clock_6_3.png,2.0,43,,,,,,,,,,,,,,,,,,0.0,7.0,7.0,7.0,1.0,,,,,,,,,,
0.0,1.0,0.78731,,,,,,tripod_01b.jpg,0.0,clock_6_4.png,2.0,43,,,,,,,,,,,,,,,,,,0.0,8.0,8.0,8.0,1.0,,,,,,,,,,
0.0,1.0,0.700065,,,,,,mannequin_05s.jpg,0.0,clock_6_5.png,2.0,43,,,,,,,,,,,,,,,,,,0.0,9.0,9.0,9.0,1.0,,,,,,,,,,
0.0,1.0,0.851325,,,,,,margarita_03s.jpg,0.0,clock_6_6.png,2.0,43,,,,,,,,,,,,,,,,,,0.0,10.0,10.0,10.0,1.0,,,,,,,,,,
0.0,1.0,0.700045,,,,,,light_switch_02s.jpg,0.0,clock_7_1.png,3.0,43,,,,,,,,,,,,,,,,,,0.0,11.0,11.0,11.0,1.0,,,,,,,,,,
0.0,1.0,0.60452,,,,,,fire_alarm_05s.jpg,0.0,clock_7_2.png,3.0,43,,,,,,,,,,,,,,,,,,0.0,12.0,12.0,12.0,1.0,,,,,,,,,,
1.0,1.0,0.77936,,,,,,fire_alarm_05s.jpg,1.0,clock_7_3.png,3.0,43,,,,,,,,,,,,,,,,,,0.0,13.0,13.0,13.0,1.0,,,,,,,,,,
1.0,1.0,1.05573,,,,,,light_switch_02s.jpg,1.0,clock_7_4.png,3.0,43,,,,,,,,,,,,,,,,,,0.0,14.0,14.0,14.0,1.0,,,,,,,,,,
0.0,1.0,1.10999,,,,,,iron_13s.jpg,0.0,clock_7_5.png,3.0,43,,,,,,,,,,,,,,,,,,0.0,15.0,15.0,15.0,1.0,,,,,,,,,,
0.0,1.0,1.107905,,,,,,slingshot_07s.jpg,0.0,clock_7_6.png,3.0,43,,,,,,,,,,,,,,,,,,0.0,16.0,16.0,16.0,1.0,,,,,,,,,,
0.0,1.0,0.70048,,,,,,plaster_cast_13s.jpg,0.0,clock_7_7.png,3.0,43,,,,,,,,,,,,,,,,,,0.0,17.0,17.0,17.0,1.0,,,,,,,,,,
0.0,1.0,0.71175,,,,,,dynamite_01b.jpg,0.0,clock_6_1.png,4.0,43,,,,,,,,,,,,,,,,,,0.0,18.0,18.0,18.0,1.0,,,,,,,,,,
0.0,1.0,0.516635,,,,,,radio_09s.jpg,0.0,clock_6_2.png,4.0,43,,,,,,,,,,,,,,,,,,0.0,19.0,19.0,19.0,1.0,,,,,,,,,,
0.0,1.0,0.77887,,,,,,gong_02s.jpg,0.0,clock_6_3.png,4.0,43,,,,,,,,,,,,,,,,,,0.0,20.0,20.0,20.0,1.0,,,,,,,,,,
0.0,1.0,0.763385,,,,,,phone_01b.jpg,0.0,clock_6_4.png,4.0,43,,,,,,,,,,,,,,,,,,0.0,21.0,21.0,21.0,1.0,,,,,,,,,,
0.0,1.0,0.6462,,,,,,puck_06s.jpg,0.0,clock_6_5.png,4.0,43,,,,,,,,,,,,,,,,,,0.0,22.0,22.0,22.0,1.0,,,,,,,,,,
0.0,1.0,0.6471,,,,,,fireworks_18s.jpg,0.0,clock_6_6.png,4.0,43,,,,,,,,,,,,,,,,,,0.0,23.0,23.0,23.0,1.0,,,,,,,,,,
0.0,1.0,1.06941,,,,,,kayak_08s.jpg,0.0,clock_5_1.png,5.0,43,,,,,,,,,,,,,,,,,,0.0,24.0,24.0,24.0,1.0,,,,,,,,,,
0.0,1.0,0.617365,,,,,,antenna_01b.jpg,0.0,clock_5_2.png,5.0,43,,,,,,,,,,,,,,,,,,0.0,25.0,25.0,25.0,1.0,,,,,,,,,,
0.0,1.0,0.612975,,,,,,syringe_02s.jpg,0.0,clock_5_3.png,5.0,43,,,,,,,,,,,,,,,,,,0.0,26.0,26.0,26.0,1.0,,,,,,,,,,
,0.0,,,,,,,antenna_01b.jpg,1.0,clock_5_4.png,5.0,43,,,,,,,,,,,,,,,,,,0.0,27.0,27.0,27.0,1.0,,,,,,,,,,
0.0,1.0,1.61892,,,,,,outlet_10s.jpg,0.0,clock_5_5.png,5.0,43,,,,,,,,,,,,,,,,,,0.0,28.0,28.0,28.0,1.0,,,,,,,,,,
0.0,1.0,0.66817,,,,,,racehorse_03s.jpg,0.0,clock_7_1.png,6.0,43,,,,,,,,,,,,,,,,,,0.0,29.0,29.0,29.0,1.0,,,,,,,,,,
0.0,1.0,0.533265,,,,,,lion_18s.jpg,0.0,clock_7_2.png,6.0,43,,,,,,,,,,,,,,,,,,0.0,30.0,30.0,30.0,1.0,,,,,,,,,,
0.0,1.0,0.53437,,,,,,stingray_02s.jpg,0.0,clock_7_3.png,6.0,43,,,,,,,,,,,,,,,,,,0.0,31.0,31.0,31.0,1.0,,,,,,,,,,
0.0,0.0,0.985935,,,,,,racehorse_03s.jpg,1.0,clock_7_4.png,6.0,43,,,,,,,,,,,,,,,,,,0.0,32.0,32.0,32.0,1.0,,,,,,,,,,
0.0,1.0,1.24056,,,,,,swan_11s.jpg,0.0,clock_7_5.png,6.0,43,,,,,,,,,,,,,,,,,,0.0,33.0,33.0,33.0,1.0,,,,,,,,,,
0.0,1.0,0.59344,,,,,,rabbit_03s.jpg,0.0,clock_7_6.png,6.0,43,,,,,,,,,,,,,,,,,,0.0,34.0,34.0,34.0,1.0,,,,,,,,,,
0.0,1.0,0.65227,,,,,,pocket_watch_16s.jpg,0.0,clock_7_7.png,6.0,43,,,,,,,,,,,,,,,,,,0.0,35.0,35.0,35.0,1.0,,,,,,,,,,
,,,,,,,,,0.0,,,43,1.0,0.0,1.527095,,,,,,dynamite_01b.jpg,iron_13s.jpg,,,,,,,,,,,,,0.0,0.0,0.0,0.0,1.0,,,,,
,,,,,,,,,0.0,,,43,1.0,0.0,1.31406,,,,,,radio_09s.jpg,slingshot_07s.jpg,,,,,,,,,,,,,0.0,1.0,1.0,1.0,1.0,,,,,
,,,,,,,,,1.0,,,43,0.0,0.0,1.172765,,,,,,plaster_cast_13s.jpg,gong_02s.jpg,,,,,,,,,,,,,0.0,2.0,2.0,2.0,1.0,,,,,
,,,,,,,,,0.0,,,43,0.0,1.0,0.954555,,,,,,swan_11s.jpg,lion_18s.jpg,,,,,,,,,,,,,0.0,3.0,3.0,3.0,1.0,,,,,
,,,,,,,,,0.0,,,43,1.0,0.0,0.82183,,,,,,ice_pack_09s.jpg,spoon02a.jpg,,,,,,,,,,,,,0.0,4.0,4.0,4.0,1.0,,,,,
,,,,,,,,,0.0,,,43,1.0,0.0,1.172175,,,,,,margarita_03s.jpg,tennis_ball_06s.jpg,,,,,,,,,,,,,0.0,5.0,5.0,5.0,1.0,,,,,
