key_resp.keys,key_resp.corr,key_resp.rt,present_segment.thisRepN,present_segment.thisTrialN,present_segment.thisN,present_segment.thisIndex,present_segment.ran,pictures,answer,clock,segment,participant,key_resp_2.keys,key_resp_2.corr,key_resp_2.rt,compare_segment.thisRepN,compare_segment.thisTrialN,compare_segment.thisN,compare_segment.thisIndex,compare_segment.ran,item_a,item_b,clock_conditions.thisRepN,clock_conditions.thisTrialN,clock_conditions.thisN,clock_conditions.thisIndex,clock_conditions.ran,present,compare,noclock_present.thisRepN,noclock_present.thisTrialN,noclock_present.thisN,noclock_present.thisIndex,noclock_present.ran,noclock_compare.thisRepN,noclock_compare.thisTrialN,noclock_compare.thisN,noclock_compare.thisIndex,noclock_compare.ran,noclock_conditions.thisRepN,noclock_conditions.thisTrialN,noclock_conditions.thisN,noclock_conditions.thisIndex,noclock_conditions.ran
0.0,1.0,2.339,0.0,0.0,0.0,0.0,1.0,throne_11s.jpg,0.0,clock_7_1.png,1.0,16,,,,,,,,,,,,,,,,,,,,,,,,,,,,,,,,
0.0,1.0,2.153,0.0,1.0,1.0,1.0,1.0,swimming_pool_17s.jpg,0.0,clock_7_2.png,1.0,16,,,,,,,,,,,,,,,,,,,,,,,,,,,,,,,,
0.0,1.0,1.787,0.0,2.0,2.0,2.0,1.0,blowfish_03s.jpg,0.0,clock_7_3.png,1.0,16,,,,,,,,,,,,,,,,,,,,,,,,,,,,,,,,
1.0,1.0,1.589,0.0,3.0,3.0,3.0,1.0,throne_11s.jpg,1.0,clock_7_4.png,1.0,16,,,,,,,,,,,,,,,,,,,,,,,,,,,,,,,,
0.0,1.0,1.353,0.0,4.0,4.0,4.0,1.0,basket_05s.jpg,0.0,clock_7_5.png,1.0,16,,,,,,,,,,,,,,,,,,,,,,,,,,,,,,,,
0.0,1.0,2.057,0.0,5.0,5.0,5.0,1.0,rhubarb_03s.jpg,0.0,clock_7_6.png,1.0,16,,,,,,,,,,,,,,,,,,,,,,,,,,,,,,,,
1.0,1.0,2.378,0.0,6.0,6.0,6.0,1.0,throne_11s.jpg,1.0,clock_7_7.png,1.0,16,,,,,,,,,,,,,,,,,,,,,,,,,,,,,,,,
0.0,1.0,1.445,0.0,7.0,7.0,7.0,1.0,tupperware_09s.jpg,0.0,clock_5_1.png,2.0,16,,,,,,,,,,,,,,,,,,,,,,,,,,,,,,,,
0.0,1.0,1.484,0.0,8.0,8.0,8.0,1.0,seagull_01b.jpg,0.0,clock_5_2.png,2.0,16,,,,,,,,,,,,,,,,,,,,,,,,,,,,,,,,
0.0,1.0,1.967,0.0,9.0,9.0,9.0,1.0,kitten_07s.jpg,0.0,clock_5_3.png,2.0,16,,,,,,,,,,,,,,,,,,,,,,,,,,,,,,,,
0.0,1.0,1.785,0.0,10.0,10.0,10.0,1.0,crate_05s.jpg,0.0,clock_5_4.png,2.0,16,,,,,,,,,,,,,,,,,,,,,,,,,,,,,,,,
0.0,1.0,1.322,0.0,11.0,11.0,11.0,1.0,pocket_watch_16s.jpg,0.0,clock_5_5.png,2.0,16,,,,,,,,,,,,,,,,,,,,,,,,,,,,,,,,
0.0,1.0,1.841,0.0,12.0,12.0,12.0,1.0,pocketknife_12s.jpg,0.0,clock_6_1.png,3.0,16,,,,,,,,,,,,,,,,,,,,,,,,,,,,,,,,
0.0,1.0,1.589,0.0,13.0,13.0,13.0,1.0,jalapeno_15s.jpg,0.0,clock_6_2.png,3.0,16,,,,,,,,,,,,,,,,,,,,,,,,,,,,,,,,
0.0,1.0,1.745,0.0,14.0,14.0,14.0,1.0,tupperware_09s.jpg,0.0,clock_6_3.png,3.0,16,,,,,,,,,,,,,,,,,,,,,,,,,,,,,,,,
0.0,1.0,1.151,0.0,15.0,15.0,15.0,1.0,stapler_01b.jpg,0.0,clock_6_4.png,3.0,16,,,,,,,,,,,,,,,,,,,,,,,,,,,,,,,,
0.0,1.0,2.319,0.0,16.0,16.0,16.0,1.0,cap_05s.jpg,0.0,clock_6_5.png,3.0,16,,,,,,,,,,,,,,,,,,,,,,,,,,,,,,,,
0.0,1.0,1.312,0.0,17.0,17.0,17.0,1.0,lavender_10s.jpg,0.0,clock_6_6.png,3.0,16,,,,,,,,,,,,,,,,,,,,,,,,,,,,,,,,
0.0,1.0,1.514,0.0,18.0,18.0,18.0,1.0,racehorse_03s.jpg,0.0,clock_6_1.png,4.0,16,,,,,,,,,,,,,,,,,,,,,,,,,,,,,,,,
0.0,1.0,1.733,0.0,19.0,19.0,19.0,1.0,teacup_07s.jpg,0.0,clock_6_2.png,4.0,16,,,,,,,,,,,,,,,,,,,,,,,,,,,,,,,,
0.0,1.0,1.481,0.0,20.0,20.0,20.0,1.0,lip_gloss_06s.jpg,0.0,clock_6_3.png,4.0,16,,,,,,,,,,,,,,,,,,,,,,,,,,,,,,,,
0.0,0.0,2.347,0.0,21.0,21.0,21.0,1.0,racehorse_03s.jpg,1.0,clock_6_4.png,4.0,16,,,,,,,,,,,,,,,,,,,,,,,,,,,,,,,,
1.0,1.0,1.997,0.0,22.0,22.0,22.0,1.0,lip_gloss_06s.jpg,1.0,clock_6_5.png,4.0,16,,,,,,,,,,,,,,,,,,,,,,,,,,,,,,,,
0.0,1.0,1.898,0.0,23.0,23.0,23.0,1.0,seahorse_13s.jpg,0.0,clock_6_6.png,4.0,16,,,,,,,,,,,,,,,,,,,,,,,,,,,,,,,,
0.0,1.0,1.73,0.0,24.0,24.0,24.0,1.0,tuxedo_01b.jpg,0.0,clock_5_1.png,5.0,16,,,,,,,,,,,,,,,,,,,,,,,,,,,,,,,,
0.0,1.0,1.807,0.0,25.0,25.0,25.0,1.0,ice-cream_cone_06s.jpg,0.0,clock_5_2.png,5.0,16,,,,,,,,,,,,,,,,,,,,,,,,,,,,,,,,
0.0,1.0,1.228,0.0,26.0,26.0,26.0,1.0,jukebox_03n.jpg,0.0,clock_5_3.png,5.0,16,,,,,,,,,,,,,,,,,,,,,,,,,,,,,,,,
1.0,1.0,1.975,0.0,27.0,27.0,27.0,1.0,ice-cream_cone_06s.jpg,1.0,clock_5_4.png,5.0,16,,,,,,,,,,,,,,,,,,,,,,,,,,,,,,,,
0.0,1.0,2.344,0.0,28.0,28.0,28.0,1.0,teacup_07s.jpg,0.0,clock_5_5.png,5.0,16,,,,,,,,,,,,,,,,,,,,,,,,,,,,,,,,
0.0,1.0,1.98,0.0,29.0,29.0,29.0,1.0,rope_16s.jpg,0.0,clock_7_1.png,6.0,16,,,,,,,,,,,,,,,,,,,,,,,,,,,,,,,,
0.0,1.0,1.362,0.0,30.0,30.0,30.0,1.0,fork_04s.jpg,0.0,clock_7_2.png,6.0,16,,,,,,,,,,,,,,,,,,,,,,,,,,,,,,,,
1.0,1.0,1.762,0.0,31.0,31.0,31.0,1.0,rope_16s.jpg,1.0,clock_7_3.png,6.0,16,,,,,,,,,,,,,,,,,,,,,,,,,,,,,,,,
1.0,1.0,1.905,0.0,32.0,32.0,32.0,1.0,fork_04s.jpg,1.0,clock_7_4.png,6.0,16,,,,,,,,,,,,,,,,,,,,,,,,,,,,,,,,
0.0,1.0,1.495,0.0,33.0,33.0,33.0,1.0,stump_02s.jpg,0.0,clock_7_5.png,6.0,16,,,,,,,,,,,,,,,,,,,,,,,,,,,,,,,,
1.0,0.0,1.978,0.0,34.0,34.0,34.0,1.0,air_pump_05s.jpg,0.0,clock_7_6.png,6.0,16,,,,,,,,,,,,,,,,,,,,,,,,,,,,,,,,
1.0,1.0,1.859,0.0,35.0,35.0,35.0,1.0,air_pump_05s.jpg,1.0,clock_7_7.png,6.0,16,,,,,,,,,,,,,,,,,,,,,,,,,,,,,,,,
,,,,,,,,,0.0,,,16,1.0,0.0,1.699,0.0,0.0,0.0,0.0,1.0,jukebox_03n.jpg,seahorse_13s.jpg,,,,,,,,,,,,,,,,,,,,,,
,,,,,,,,,1.0,,,16,0.0,0.0,1.711,0.0,1.0,1.0,1.0,1.0,kitten_07s.jpg,pocketknife_12s.jpg,,,,,,,,,,,,,,,,,,,,,,
,,,,,,,,,0.0,,,16,0.0,1.0,4.291,0.0,2.0,2.0,2.0,1.0,jalapeno_15s.jpg,crate_05s.jpg,,,,,,,,,,,,,,,,,,,,,,
,,,,,,,,,0.0,,,16,0.0,1.0,1.562,0.0,3.0,3.0,3.0,1.0,basket_05s.jpg,swimming_pool_17s.jpg,,,,,,,,,,,,,,,,,,,,,,
,,,,,,,,,0.0,,,16,0.0,1.0,1.335,0.0,4.0,4.0,4.0,1.0,rhubarb_03s.jpg,blowfish_03s.jpg,,,,,,,,,,,,,,,,,,,,,,
,,,,,,,,,1.0,,,16,0.0,0.0,2.082,0.0,5.0,5.0,5.0,1.0,seagull_01b.jpg,pocket_watch_16s.jpg,,,,,,,,,,,,,,,,,,,,,,
,,,,,,,,,,,,16,,,,,,,,,,,0.0,0.0,0.0,0.0,1.0,clock_present_1_14.xlsx,clock_compare_task_1_14.xlsx,,,,,,,,,,,,,,,
0.0,1.0,2.041,0.0,0.0,0.0,0.0,1.0,bagel_15s.jpg,0.0,clock_5_1.png,1.0,16,,,,,,,,,,,,,,,,,,,,,,,,,,,,,,,,
0.0,1.0,1.359,0.0,1.0,1.0,1.0,1.0,rabbit_03s.jpg,0.0,clock_5_2.png,1.0,16,,,,,,,,,,,,,,,,,,,,,,,,,,,,,,,,
1.0,1.0,1.713,0.0,2.0,2.0,2.0,1.0,bagel_15s.jpg,1.0,clock_5_3.png,1.0,16,,,,,,,,,,,,,,,,,,,,,,,,,,,,,,,,
0.0,1.0,1.897,0.0,3.0,3.0,3.0,1.0,key_07s.jpg,0.0,clock_5_4.png,1.0,16,,,,,,,,,,,,,,,,,,,,,,,,,,,,,,,,
0.0,1.0,2.212,0.0,4.0,4.0,4.0,1.0,mascara_03s.jpg,0.0,clock_5_5.png,1.0,16,,,,,,,,,,,,,,,,,,,,,,,,,,,,,,,,
,0.0,,0.0,5.0,5.0,5.0,1.0,knot_01b.jpg,0.0,clock_6_1.png,2.0,16,,,,,,,,,,,,,,,,,,,,,,,,,,,,,,,,
0.0,1.0,1.279,0.0,6.0,6.0,6.0,1.0,measuring_cup_02s.jpg,0.0,clock_6_2.png,2.0,16,,,,,,,,,,,,,,,,,,,,,,,,,,,,,,,,
0.0,1.0,1.896,0.0,7.0,7.0,7.0,1.0,syringe_02s.jpg,0.0,clock_6_3.png,2.0,16,,,,,,,,,,,,,,,,,,,,,,,,,,,,,,,,
0.0,0.0,2.344,0.0,8.0,8.0,8.0,1.0,knot_01b.jpg,1.0,clock_6_4.png,2.0,16,,,,,,,,,,,,,,,,,,,,,,,,,,,,,,,,
0.0,1.0,1.431,0.0,9.0,9.0,9.0,1.0,pancake_12s.jpg,0.0,clock_6_5.png,2.0,16,,,,,,,,,,,,,,,,,,,,,,,,,,,,,,,,
0.0,1.0,1.043,0.0,10.0,10.0,10.0,1.0,saddle_06s.jpg,0.0,clock_6_6.png,2.0,16,,,,,,,,,,,,,,,,,,,,,,,,,,,,,,,,
0.0,1.0,1.049,0.0,11.0,11.0,11.0,1.0,stingray_02s.jpg,0.0,clock_7_1.png,3.0,16,,,,,,,,,,,,,,,,,,,,,,,,,,,,,,,,
0.0,1.0,1.613,0.0,12.0,12.0,12.0,1.0,pancake_12s.jpg,0.0,clock_7_2.png,3.0,16,,,,,,,,,,,,,,,,,,,,,,,,,,,,,,,,
0.0,1.0,1.229,0.0,13.0,13.0,13.0,1.0,kite_04s.jpg,0.0,clock_7_3.png,3.0,16,,,,,,,,,,,,,,,,,,,,,,,,,,,,,,,,
0.0,1.0,1.296,0.0,14.0,14.0,14.0,1.0,pincushion_10s.jpg,0.0,clock_7_4.png,3.0,16,,,,,,,,,,,,,,,,,,,,,,,,,,,,,,,,
0.0,1.0,1.132,0.0,15.0,15.0,15.0,1.0,ice_pack_09s.jpg,0.0,clock_7_5.png,3.0,16,,,,,,,,,,,,,,,,,,,,,,,,,,,,,,,,
1.0,1.0,1.514,0.0,16.0,16.0,16.0,1.0,kite_04s.jpg,1.0,clock_7_6.png,3.0,16,,,,,,,,,,,,,,,,,,,,,,,,,,,,,,,,
0.0,1.0,1.264,0.0,17.0,17.0,17.0,1.0,thumbtack_14s.jpg,0.0,clock_7_7.png,3.0,16,,,,,,,,,,,,,,,,,,,,,,,,,,,,,,,,
0.0,1.0,2.081,0.0,18.0,18.0,18.0,1.0,stamp1_11s.jpg,0.0,clock_5_1.png,4.0,16,,,,,,,,,,,,,,,,,,,,,,,,,,,,,,,,
1.0,1.0,2.463,0.0,19.0,19.0,19.0,1.0,stamp1_11s.jpg,1.0,clock_5_2.png,4.0,16,,,,,,,,,,,,,,,,,,,,,,,,,,,,,,,,
0.0,1.0,1.196,0.0,20.0,20.0,20.0,1.0,lizard_10n.jpg,0.0,clock_5_3.png,4.0,16,,,,,,,,,,,,,,,,,,,,,,,,,,,,,,,,
0.0,1.0,1.403,0.0,21.0,21.0,21.0,1.0,toilet_paper_12s.jpg,0.0,clock_5_4.png,4.0,16,,,,,,,,,,,,,,,,,,,,,,,,,,,,,,,,
0.0,1.0,1.063,0.0,22.0,22.0,22.0,1.0,gong_02s.jpg,0.0,clock_5_5.png,4.0,16,,,,,,,,,,,,,,,,,,,,,,,,,,,,,,,,
0.0,1.0,1.431,0.0,23.0,23.0,23.0,1.0,rake_06s.jpg,0.0,clock_6_1.png,5.0,16,,,,,,,,,,,,,,,,,,,,,,,,,,,,,,,,
0.0,1.0,1.71,0.0,24.0,24.0,24.0,1.0,syringe_02s.jpg,0.0,clock_6_2.png,5.0,16,,,,,,,,,,,,,,,,,,,,,,,,,,,,,,,,
0.0,1.0,1.33,0.0,25.0,25.0,25.0,1.0,thumbtack_14s.jpg,0.0,clock_6_3.png,5.0,16,,,,,,,,,,,,,,,,,,,,,,,,,,,,,,,,
0.0,1.0,2.045,0.0,26.0,26.0,26.0,1.0,boomerang_06s.jpg,0.0,clock_6_4.png,5.0,16,,,,,,,,,,,,,,,,,,,,,,,,,,,,,,,,
0.0,1.0,1.235,0.0,27.0,27.0,27.0,1.0,kayak_08s.jpg,0.0,clock_6_5.png,5.0,16,,,,,,,,,,,,,,,,,,,,,,,,,,,,,,,,
0.0,1.0,1.15,0.0,28.0,28.0,28.0,1.0,fountain_pen_06s.jpg,0.0,clock_6_6.png,5.0,16,,,,,,,,,,,,,,,,,,,,,,,,,,,,,,,,
0.0,1.0,1.25,0.0,29.0,29.0,29.0,1.0,contact_lens_15s.jpg,0.0,clock_7_1.png,6.0,16,,,,,,,,,,,,,,,,,,,,,,,,,,,,,,,,
0.0,1.0,1.003,0.0,30.0,30.0,30.0,1.0,lamb_chop_07s.jpg,0.0,clock_7_2.png,6.0,16,,,,,,,,,,,,,,,,,,,,,,,,,,,,,,,,
0.0,1.0,1.347,0.0,31.0,31.0,31.0,1.0,pear_02s.jpg,0.0,clock_7_3.png,6.0,16,,,,,,,,,,,,,,,,,,,,,,,,,,,,,,,,
0.0,1.0,1.196,0.0,32.0,32.0,32.0,1.0,potpourri_03s.jpg,0.0,clock_7_4.png,6.0,16,,,,,,,,,,,,,,,,,,,,,,,,,,,,,,,,
0.0,1.0,1.012,0.0,33.0,33.0,33.0,1.0,pincushion_10s.jpg,0.0,clock_7_5.png,6.0,16,,,,,,,,,,,,,,,,,,,,,,,,,,,,,,,,
0.0,1.0,0.964,0.0,34.0,34.0,34.0,1.0,foam_03s.jpg,0.0,clock_7_6.png,6.0,16,,,,,,,,,,,,,,,,,,,,,,,,,,,,,,,,
0.0,1.0,1.481,0.0,35.0,35.0,35.0,1.0,bathtub_23s.jpg,0.0,clock_7_7.png,6.0,16,,,,,,,,,,,,,,,,,,,,,,,,,,,,,,,,
,,,,,,,,,1.0,,,16,1.0,1.0,0.793,0.0,0.0,0.0,0.0,1.0,key_07s.jpg,measuring_cup_02s.jpg,,,,,,,,,,,,,,,,,,,,,,
,,,,,,,,,1.0,,,16,1.0,1.0,2.033,0.0,1.0,1.0,1.0,1.0,kayak_08s.jpg,lamb_chop_07s.jpg,,,,,,,,,,,,,,,,,,,,,,
,,,,,,,,,1.0,,,16,1.0,1.0,1.383,0.0,2.0,2.0,2.0,1.0,lizard_10n.jpg,rake_06s.jpg,,,,,,,,,,,,,,,,,,,,,,
,,,,,,,,,1.0,,,16,1.0,1.0,1.446,0.0,3.0,3.0,3.0,1.0,rabbit_03s.jpg,mascara_03s.jpg,,,,,,,,,,,,,,,,,,,,,,
,,,,,,,,,1.0,,,16,1.0,1.0,1.549,0.0,4.0,4.0,4.0,1.0,potpourri_03s.jpg,bathtub_23s.jpg,,,,,,,,,,,,,,,,,,,,,,
,,,,,,,,,0.0,,,16,0.0,1.0,1.26,0.0,5.0,5.0,5.0,1.0,foam_03s.jpg,pear_02s.jpg,,,,,,,,,,,,,,,,,,,,,,
,,,,,,,,,,,,16,,,,,,,,,,,0.0,1.0,1.0,1.0,1.0,clock_present_2_14.xlsx,clock_compare_task_2_14.xlsx,,,,,,,,,,,,,,,
0.0,1.0,2.133,0.0,0.0,0.0,0.0,1.0,magnet_03s.jpg,0.0,clock_5_1.png,1.0,16,,,,,,,,,,,,,,,,,,,,,,,,,,,,,,,,
0.0,0.0,2.442,0.0,1.0,1.0,1.0,1.0,magnet_03s.jpg,1.0,clock_5_2.png,1.0,16,,,,,,,,,,,,,,,,,,,,,,,,,,,,,,,,
0.0,1.0,2.462,0.0,2.0,2.0,2.0,1.0,insole_11s.jpg,0.0,clock_5_3.png,1.0,16,,,,,,,,,,,,,,,,,,,,,,,,,,,,,,,,
0.0,1.0,1.113,0.0,3.0,3.0,3.0,1.0,safety_pin_02s.jpg,0.0,clock_5_4.png,1.0,16,,,,,,,,,,,,,,,,,,,,,,,,,,,,,,,,
0.0,1.0,1.361,0.0,4.0,4.0,4.0,1.0,pie_08s.jpg,0.0,clock_5_5.png,1.0,16,,,,,,,,,,,,,,,,,,,,,,,,,,,,,,,,
0.0,1.0,1.078,0.0,5.0,5.0,5.0,1.0,flask_04s.jpg,0.0,clock_6_1.png,2.0,16,,,,,,,,,,,,,,,,,,,,,,,,,,,,,,,,
0.0,1.0,1.947,0.0,6.0,6.0,6.0,1.0,stopwatch_04s.jpg,0.0,clock_6_2.png,2.0,16,,,,,,,,,,,,,,,,,,,,,,,,,,,,,,,,
0.0,1.0,1.18,0.0,7.0,7.0,7.0,1.0,olive_05s.jpg,0.0,clock_6_3.png,2.0,16,,,,,,,,,,,,,,,,,,,,,,,,,,,,,,,,
0.0,1.0,2.079,0.0,8.0,8.0,8.0,1.0,laser_pointer_02s.jpg,0.0,clock_6_4.png,2.0,16,,,,,,,,,,,,,,,,,,,,,,,,,,,,,,,,
1.0,0.0,2.146,0.0,9.0,9.0,9.0,1.0,pie_08s.jpg,0.0,clock_6_5.png,2.0,16,,,,,,,,,,,,,,,,,,,,,,,,,,,,,,,,
1.0,1.0,1.725,0.0,10.0,10.0,10.0,1.0,laser_pointer_02s.jpg,1.0,clock_6_6.png,2.0,16,,,,,,,,,,,,,,,,,,,,,,,,,,,,,,,,
0.0,1.0,1.581,0.0,11.0,11.0,11.0,1.0,surfboard_11s.jpg,0.0,clock_6_1.png,3.0,16,,,,,,,,,,,,,,,,,,,,,,,,,,,,,,,,
0.0,1.0,1.181,0.0,12.0,12.0,12.0,1.0,money_07s.jpg,0.0,clock_6_2.png,3.0,16,,,,,,,,,,,,,,,,,,,,,,,,,,,,,,,,
0.0,1.0,1.43,0.0,13.0,13.0,13.0,1.0,bubble_01b.jpg,0.0,clock_6_3.png,3.0,16,,,,,,,,,,,,,,,,,,,,,,,,,,,,,,,,
0.0,1.0,1.515,0.0,14.0,14.0,14.0,1.0,lipstick_02s.jpg,0.0,clock_6_4.png,3.0,16,,,,,,,,,,,,,,,,,,,,,,,,,,,,,,,,
0.0,1.0,1.315,0.0,15.0,15.0,15.0,1.0,leash_10s.jpg,0.0,clock_6_5.png,3.0,16,,,,,,,,,,,,,,,,,,,,,,,,,,,,,,,,
1.0,0.0,2.102,0.0,16.0,16.0,16.0,1.0,flask_04s.jpg,0.0,clock_6_6.png,3.0,16,,,,,,,,,,,,,,,,,,,,,,,,,,,,,,,,
0.0,1.0,1.33,0.0,17.0,17.0,17.0,1.0,puck_06s.jpg,0.0,clock_7_1.png,4.0,16,,,,,,,,,,,,,,,,,,,,,,,,,,,,,,,,
0.0,1.0,1.379,0.0,18.0,18.0,18.0,1.0,paintbrush_04s.jpg,0.0,clock_7_2.png,4.0,16,,,,,,,,,,,,,,,,,,,,,,,,,,,,,,,,
1.0,1.0,2.164,0.0,19.0,19.0,19.0,1.0,puck_06s.jpg,1.0,clock_7_3.png,4.0,16,,,,,,,,,,,,,,,,,,,,,,,,,,,,,,,,
0.0,1.0,1.885,0.0,20.0,20.0,20.0,1.0,tweezers_03s.jpg,0.0,clock_7_4.png,4.0,16,,,,,,,,,,,,,,,,,,,,,,,,,,,,,,,,
1.0,1.0,1.797,0.0,21.0,21.0,21.0,1.0,puck_06s.jpg,1.0,clock_7_5.png,4.0,16,,,,,,,,,,,,,,,,,,,,,,,,,,,,,,,,
0.0,1.0,1.177,0.0,22.0,22.0,22.0,1.0,tulip_02s.jpg,0.0,clock_7_6.png,4.0,16,,,,,,,,,,,,,,,,,,,,,,,,,,,,,,,,
0.0,1.0,1.63,0.0,23.0,23.0,23.0,1.0,bubble_01b.jpg,0.0,clock_7_7.png,4.0,16,,,,,,,,,,,,,,,,,,,,,,,,,,,,,,,,
0.0,1.0,1.562,0.0,24.0,24.0,24.0,1.0,mattress_01s.jpg,0.0,clock_5_1.png,5.0,16,,,,,,,,,,,,,,,,,,,,,,,,,,,,,,,,
1.0,1.0,2.428,0.0,25.0,25.0,25.0,1.0,mattress_01s.jpg,1.0,clock_5_2.png,5.0,16,,,,,,,,,,,,,,,,,,,,,,,,,,,,,,,,
0.0,1.0,1.813,0.0,26.0,26.0,26.0,1.0,puddle_02s.jpg,0.0,clock_5_3.png,5.0,16,,,,,,,,,,,,,,,,,,,,,,,,,,,,,,,,
0.0,1.0,2.014,0.0,27.0,27.0,27.0,1.0,peanut_butter_08s.jpg,0.0,clock_5_4.png,5.0,16,,,,,,,,,,,,,,,,,,,,,,,,,,,,,,,,
0.0,1.0,1.628,0.0,28.0,28.0,28.0,1.0,loveseat_08s.jpg,0.0,clock_5_5.png,5.0,16,,,,,,,,,,,,,,,,,,,,,,,,,,,,,,,,
0.0,1.0,1.315,0.0,29.0,29.0,29.0,1.0,timer_03s.jpg,0.0,clock_7_1.png,6.0,16,,,,,,,,,,,,,,,,,,,,,,,,,,,,,,,,
0.0,1.0,1.432,0.0,30.0,30.0,30.0,1.0,icicle_04s.jpg,0.0,clock_7_2.png,6.0,16,,,,,,,,,,,,,,,,,,,,,,,,,,,,,,,,
0.0,1.0,1.349,0.0,31.0,31.0,31.0,1.0,fishhook_06s.jpg,0.0,clock_7_3.png,6.0,16,,,,,,,,,,,,,,,,,,,,,,,,,,,,,,,,
0.0,1.0,1.466,0.0,32.0,32.0,32.0,1.0,pump_11s.jpg,0.0,clock_7_4.png,6.0,16,,,,,,,,,,,,,,,,,,,,,,,,,,,,,,,,
0.0,1.0,1.335,0.0,33.0,33.0,33.0,1.0,ukulele_02s.jpg,0.0,clock_7_5.png,6.0,16,,,,,,,,,,,,,,,,,,,,,,,,,,,,,,,,
1.0,0.0,2.465,0.0,34.0,34.0,34.0,1.0,safety_pin_02s.jpg,0.0,clock_7_6.png,6.0,16,,,,,,,,,,,,,,,,,,,,,,,,,,,,,,,,
0.0,1.0,1.381,0.0,35.0,35.0,35.0,1.0,sundae_08s.jpg,0.0,clock_7_7.png,6.0,16,,,,,,,,,,,,,,,,,,,,,,,,,,,,,,,,
,,,,,,,,,0.0,,,16,0.0,1.0,2.511,0.0,0.0,0.0,0.0,1.0,fishhook_06s.jpg,loveseat_08s.jpg,,,,,,,,,,,,,,,,,,,,,,
,,,,,,,,,0.0,,,16,1.0,0.0,1.353,0.0,1.0,1.0,1.0,1.0,paintbrush_04s.jpg,leash_10s.jpg,,,,,,,,,,,,,,,,,,,,,,
,,,,,,,,,0.0,,,16,1.0,0.0,2.935,0.0,2.0,2.0,2.0,1.0,timer_03s.jpg,puddle_02s.jpg,,,,,,,,,,,,,,,,,,,,,,
,,,,,,,,,1.0,,,16,0.0,0.0,1.564,0.0,3.0,3.0,3.0,1.0,surfboard_11s.jpg,lipstick_02s.jpg,,,,,,,,,,,,,,,,,,,,,,
,,,,,,,,,0.0,,,16,1.0,0.0,1.632,0.0,4.0,4.0,4.0,1.0,sundae_08s.jpg,pump_11s.jpg,,,,,,,,,,,,,,,,,,,,,,
,,,,,,,,,0.0,,,16,1.0,0.0,1.297,0.0,5.0,5.0,5.0,1.0,ukulele_02s.jpg,icicle_04s.jpg,,,,,,,,,,,,,,,,,,,,,,
,,,,,,,,,,,,16,,,,,,,,,,,0.0,2.0,2.0,2.0,1.0,clock_present_3_14.xlsx,clock_compare_task_3_14.xlsx,,,,,,,,,,,,,,,
0.0,1.0,2.384,0.0,0.0,0.0,0.0,1.0,mold2_04s.jpg,0.0,clock_5_1.png,1.0,16,,,,,,,,,,,,,,,,,,,,,,,,,,,,,,,,
1.0,1.0,1.411,0.0,1.0,1.0,1.0,1.0,mold2_04s.jpg,1.0,clock_5_2.png,1.0,16,,,,,,,,,,,,,,,,,,,,,,,,,,,,,,,,
1.0,1.0,1.715,0.0,2.0,2.0,2.0,1.0,mold2_04s.jpg,1.0,clock_5_3.png,1.0,16,,,,,,,,,,,,,,,,,,,,,,,,,,,,,,,,
1.0,1.0,1.184,0.0,3.0,3.0,3.0,1.0,mold2_04s.jpg,1.0,clock_5_4.png,1.0,16,,,,,,,,,,,,,,,,,,,,,,,,,,,,,,,,
0.0,1.0,1.964,0.0,4.0,4.0,4.0,1.0,sledgehammer_03s.jpg,0.0,clock_5_5.png,1.0,16,,,,,,,,,,,,,,,,,,,,,,,,,,,,,,,,
0.0,1.0,1.603,0.0,5.0,5.0,5.0,1.0,prism_10s.jpg,0.0,clock_7_1.png,2.0,16,,,,,,,,,,,,,,,,,,,,,,,,,,,,,,,,
0.0,1.0,2.33,0.0,6.0,6.0,6.0,1.0,jewel_01b.jpg,0.0,clock_7_2.png,2.0,16,,,,,,,,,,,,,,,,,,,,,,,,,,,,,,,,
0.0,1.0,1.381,0.0,7.0,7.0,7.0,1.0,puffin_19s.jpg,0.0,clock_7_3.png,2.0,16,,,,,,,,,,,,,,,,,,,,,,,,,,,,,,,,
0.0,1.0,1.428,0.0,8.0,8.0,8.0,1.0,screwdriver02a.jpg,0.0,clock_7_4.png,2.0,16,,,,,,,,,,,,,,,,,,,,,,,,,,,,,,,,
0.0,1.0,1.38,0.0,9.0,9.0,9.0,1.0,thermostat_02s.jpg,0.0,clock_7_5.png,2.0,16,,,,,,,,,,,,,,,,,,,,,,,,,,,,,,,,
,0.0,,0.0,10.0,10.0,10.0,1.0,jewel_01b.jpg,1.0,clock_7_6.png,2.0,16,,,,,,,,,,,,,,,,,,,,,,,,,,,,,,,,
1.0,1.0,2.315,0.0,11.0,11.0,11.0,1.0,puffin_19s.jpg,1.0,clock_7_7.png,2.0,16,,,,,,,,,,,,,,,,,,,,,,,,,,,,,,,,
0.0,1.0,1.413,0.0,12.0,12.0,12.0,1.0,petri_dish_12s.jpg,0.0,clock_6_1.png,3.0,16,,,,,,,,,,,,,,,,,,,,,,,,,,,,,,,,
0.0,1.0,1.554,0.0,13.0,13.0,13.0,1.0,plug_08s.jpg,0.0,clock_6_2.png,3.0,16,,,,,,,,,,,,,,,,,,,,,,,,,,,,,,,,
0.0,1.0,1.629,0.0,14.0,14.0,14.0,1.0,hydrant_10s.jpg,0.0,clock_6_3.png,3.0,16,,,,,,,,,,,,,,,,,,,,,,,,,,,,,,,,
0.0,0.0,1.929,0.0,15.0,15.0,15.0,1.0,petri_dish_12s.jpg,1.0,clock_6_4.png,3.0,16,,,,,,,,,,,,,,,,,,,,,,,,,,,,,,,,
0.0,1.0,1.581,0.0,16.0,16.0,16.0,1.0,amber_04s.jpg,0.0,clock_6_5.png,3.0,16,,,,,,,,,,,,,,,,,,,,,,,,,,,,,,,,
0.0,1.0,1.497,0.0,17.0,17.0,17.0,1.0,luggage_08s.jpg,0.0,clock_6_6.png,3.0,16,,,,,,,,,,,,,,,,,,,,,,,,,,,,,,,,
0.0,1.0,1.546,0.0,18.0,18.0,18.0,1.0,cushion_08s.jpg,0.0,clock_7_1.png,4.0,16,,,,,,,,,,,,,,,,,,,,,,,,,,,,,,,,
0.0,1.0,1.662,0.0,19.0,19.0,19.0,1.0,mushroom_10n.jpg,0.0,clock_7_2.png,4.0,16,,,,,,,,,,,,,,,,,,,,,,,,,,,,,,,,
0.0,1.0,1.644,0.0,20.0,20.0,20.0,1.0,puffin_19s.jpg,0.0,clock_7_3.png,4.0,16,,,,,,,,,,,,,,,,,,,,,,,,,,,,,,,,
0.0,1.0,2.431,0.0,21.0,21.0,21.0,1.0,lasagna_06s.jpg,0.0,clock_7_4.png,4.0,16,,,,,,,,,,,,,,,,,,,,,,,,,,,,,,,,
0.0,1.0,1.68,0.0,22.0,22.0,22.0,1.0,thorn_13s.jpg,0.0,clock_7_5.png,4.0,16,,,,,,,,,,,,,,,,,,,,,,,,,,,,,,,,
0.0,1.0,1.683,0.0,23.0,23.0,23.0,1.0,jelly_bean_06s.jpg,0.0,clock_7_6.png,4.0,16,,,,,,,,,,,,,,,,,,,,,,,,,,,,,,,,
0.0,1.0,1.547,0.0,24.0,24.0,24.0,1.0,mosquito_12s.jpg,0.0,clock_7_7.png,4.0,16,,,,,,,,,,,,,,,,,,,,,,,,,,,,,,,,
0.0,1.0,1.266,0.0,25.0,25.0,25.0,1.0,triangle_10s.jpg,0.0,clock_6_1.png,5.0,16,,,,,,,,,,,,,,,,,,,,,,,,,,,,,,,,
0.0,1.0,1.182,0.0,26.0,26.0,26.0,1.0,roulette_wheel_04s.jpg,0.0,clock_6_2.png,5.0,16,,,,,,,,,,,,,,,,,,,,,,,,,,,,,,,,
1.0,1.0,2.302,0.0,27.0,27.0,27.0,1.0,roulette_wheel_04s.jpg,1.0,clock_6_3.png,5.0,16,,,,,,,,,,,,,,,,,,,,,,,,,,,,,,,,
0.0,1.0,2.199,0.0,28.0,28.0,28.0,1.0,puffin_19s.jpg,0.0,clock_6_4.png,5.0,16,,,,,,,,,,,,,,,,,,,,,,,,,,,,,,,,
0.0,1.0,1.615,0.0,29.0,29.0,29.0,1.0,outlet_10s.jpg,0.0,clock_6_5.png,5.0,16,,,,,,,,,,,,,,,,,,,,,,,,,,,,,,,,
0.0,1.0,1.814,0.0,30.0,30.0,30.0,1.0,abacus_12s.jpg,0.0,clock_6_6.png,5.0,16,,,,,,,,,,,,,,,,,,,,,,,,,,,,,,,,
0.0,1.0,1.3,0.0,31.0,31.0,31.0,1.0,pencil02a.jpg,0.0,clock_5_1.png,6.0,16,,,,,,,,,,,,,,,,,,,,,,,,,,,,,,,,
0.0,1.0,2.164,0.0,32.0,32.0,32.0,1.0,pillow_03s.jpg,0.0,clock_5_2.png,6.0,16,,,,,,,,,,,,,,,,,,,,,,,,,,,,,,,,
1.0,1.0,2.296,0.0,33.0,33.0,33.0,1.0,pencil02a.jpg,1.0,clock_5_3.png,6.0,16,,,,,,,,,,,,,,,,,,,,,,,,,,,,,,,,
0.0,1.0,1.564,0.0,34.0,34.0,34.0,1.0,towel_rack_04s.jpg,0.0,clock_5_4.png,6.0,16,,,,,,,,,,,,,,,,,,,,,,,,,,,,,,,,
0.0,1.0,1.33,0.0,35.0,35.0,35.0,1.0,machine_gun_09s.jpg,0.0,clock_5_5.png,6.0,16,,,,,,,,,,,,,,,,,,,,,,,,,,,,,,,,
,,,,,,,,,1.0,,,16,1.0,1.0,2.747,0.0,0.0,0.0,0.0,1.0,thorn_13s.jpg,triangle_10s.jpg,,,,,,,,,,,,,,,,,,,,,,
,,,,,,,,,0.0,,,16,0.0,1.0,1.146,0.0,1.0,1.0,1.0,1.0,pillow_03s.jpg,outlet_10s.jpg,,,,,,,,,,,,,,,,,,,,,,
,,,,,,,,,1.0,,,16,1.0,1.0,1.38,0.0,2.0,2.0,2.0,1.0,amber_04s.jpg,mushroom_10n.jpg,,,,,,,,,,,,,,,,,,,,,,
,,,,,,,,,0.0,,,16,0.0,1.0,1.379,0.0,3.0,3.0,3.0,1.0,screwdriver02a.jpg,prism_10s.jpg,,,,,,,,,,,,,,,,,,,,,,
,,,,,,,,,1.0,,,16,1.0,1.0,1.398,0.0,4.0,4.0,4.0,1.0,hydrant_10s.jpg,luggage_08s.jpg,,,,,,,,,,,,,,,,,,,,,,
,,,,,,,,,1.0,,,16,1.0,1.0,1.315,0.0,5.0,5.0,5.0,1.0,cushion_08s.jpg,lasagna_06s.jpg,,,,,,,,,,,,,,,,,,,,,,
,,,,,,,,,,,,16,,,,,,,,,,,0.0,3.0,3.0,3.0,1.0,clock_present_4_14.xlsx,clock_compare_task_4_14.xlsx,,,,,,,,,,,,,,,
0.0,1.0,1.981,0.0,0.0,0.0,0.0,1.0,checkbook_11s.jpg,0.0,clock_7_1.png,1.0,16,,,,,,,,,,,,,,,,,,,,,,,,,,,,,,,,
0.0,1.0,1.229,0.0,1.0,1.0,1.0,1.0,submarine_11n.jpg,0.0,clock_7_2.png,1.0,16,,,,,,,,,,,,,,,,,,,,,,,,,,,,,,,,
0.0,1.0,1.367,0.0,2.0,2.0,2.0,1.0,doily_13s.jpg,0.0,clock_7_3.png,1.0,16,,,,,,,,,,,,,,,,,,,,,,,,,,,,,,,,
0.0,1.0,1.382,0.0,3.0,3.0,3.0,1.0,briefcase_03s.jpg,0.0,clock_7_4.png,1.0,16,,,,,,,,,,,,,,,,,,,,,,,,,,,,,,,,
0.0,1.0,1.546,0.0,4.0,4.0,4.0,1.0,film_03s.jpg,0.0,clock_7_5.png,1.0,16,,,,,,,,,,,,,,,,,,,,,,,,,,,,,,,,
0.0,1.0,1.346,0.0,5.0,5.0,5.0,1.0,ironing_board_07s.jpg,0.0,clock_7_6.png,1.0,16,,,,,,,,,,,,,,,,,,,,,,,,,,,,,,,,
1.0,1.0,2.399,0.0,6.0,6.0,6.0,1.0,checkbook_11s.jpg,1.0,clock_7_7.png,1.0,16,,,,,,,,,,,,,,,,,,,,,,,,,,,,,,,,
0.0,1.0,1.242,0.0,7.0,7.0,7.0,1.0,sushi_08s.jpg,0.0,clock_6_1.png,2.0,16,,,,,,,,,,,,,,,,,,,,,,,,,,,,,,,,
0.0,1.0,1.394,0.0,8.0,8.0,8.0,1.0,go-kart_10s.jpg,0.0,clock_6_2.png,2.0,16,,,,,,,,,,,,,,,,,,,,,,,,,,,,,,,,
0.0,1.0,1.528,0.0,9.0,9.0,9.0,1.0,tripod_01b.jpg,0.0,clock_6_3.png,2.0,16,,,,,,,,,,,,,,,,,,,,,,,,,,,,,,,,
0.0,1.0,1.66,0.0,10.0,10.0,10.0,1.0,tinsel_12s.jpg,0.0,clock_6_4.png,2.0,16,,,,,,,,,,,,,,,,,,,,,,,,,,,,,,,,
0.0,1.0,1.629,0.0,11.0,11.0,11.0,1.0,microwave_02s.jpg,0.0,clock_6_5.png,2.0,16,,,,,,,,,,,,,,,,,,,,,,,,,,,,,,,,
0.0,1.0,1.71,0.0,12.0,12.0,12.0,1.0,piano_13n.jpg,0.0,clock_6_6.png,2.0,16,,,,,,,,,,,,,,,,,,,,,,,,,,,,,,,,
0.0,1.0,1.356,0.0,13.0,13.0,13.0,1.0,panda_02s.jpg,0.0,clock_5_1.png,3.0,16,,,,,,,,,,,,,,,,,,,,,,,,,,,,,,,,
0.0,1.0,1.594,0.0,14.0,14.0,14.0,1.0,spatula04.jpg,0.0,clock_5_2.png,3.0,16,,,,,,,,,,,,,,,,,,,,,,,,,,,,,,,,
0.0,1.0,1.511,0.0,15.0,15.0,15.0,1.0,razor_12s.jpg,0.0,clock_5_3.png,3.0,16,,,,,,,,,,,,,,,,,,,,,,,,,,,,,,,,
0.0,1.0,1.511,0.0,16.0,16.0,16.0,1.0,jet_15s.jpg,0.0,clock_5_4.png,3.0,16,,,,,,,,,,,,,,,,,,,,,,,,,,,,,,,,
0.0,1.0,1.212,0.0,17.0,17.0,17.0,1.0,spider_web_03s.jpg,0.0,clock_5_5.png,3.0,16,,,,,,,,,,,,,,,,,,,,,,,,,,,,,,,,
0.0,1.0,1.679,0.0,18.0,18.0,18.0,1.0,lamppost_09s.jpg,0.0,clock_5_1.png,4.0,16,,,,,,,,,,,,,,,,,,,,,,,,,,,,,,,,
0.0,1.0,2.146,0.0,19.0,19.0,19.0,1.0,kettle_08s.jpg,0.0,clock_5_2.png,4.0,16,,,,,,,,,,,,,,,,,,,,,,,,,,,,,,,,
1.0,1.0,2.329,0.0,20.0,20.0,20.0,1.0,kettle_08s.jpg,1.0,clock_5_3.png,4.0,16,,,,,,,,,,,,,,,,,,,,,,,,,,,,,,,,
0.0,1.0,1.493,0.0,21.0,21.0,21.0,1.0,jet_15s.jpg,0.0,clock_5_4.png,4.0,16,,,,,,,,,,,,,,,,,,,,,,,,,,,,,,,,
1.0,1.0,2.219,0.0,22.0,22.0,22.0,1.0,kettle_08s.jpg,1.0,clock_5_5.png,4.0,16,,,,,,,,,,,,,,,,,,,,,,,,,,,,,,,,
0.0,1.0,1.347,0.0,23.0,23.0,23.0,1.0,champagne_18s.jpg,0.0,clock_6_1.png,5.0,16,,,,,,,,,,,,,,,,,,,,,,,,,,,,,,,,
0.0,1.0,1.397,0.0,24.0,24.0,24.0,1.0,radiator_05s.jpg,0.0,clock_6_2.png,5.0,16,,,,,,,,,,,,,,,,,,,,,,,,,,,,,,,,
1.0,1.0,2.409,0.0,25.0,25.0,25.0,1.0,radiator_05s.jpg,1.0,clock_6_3.png,5.0,16,,,,,,,,,,,,,,,,,,,,,,,,,,,,,,,,
0.0,1.0,1.509,0.0,26.0,26.0,26.0,1.0,pepper2_21s.jpg,0.0,clock_6_4.png,5.0,16,,,,,,,,,,,,,,,,,,,,,,,,,,,,,,,,
1.0,1.0,2.375,0.0,27.0,27.0,27.0,1.0,pepper2_21s.jpg,1.0,clock_6_5.png,5.0,16,,,,,,,,,,,,,,,,,,,,,,,,,,,,,,,,
0.0,1.0,1.793,0.0,28.0,28.0,28.0,1.0,breadstick_08s.jpg,0.0,clock_6_6.png,5.0,16,,,,,,,,,,,,,,,,,,,,,,,,,,,,,,,,
0.0,1.0,2.429,0.0,29.0,29.0,29.0,1.0,mailbox_11s.jpg,0.0,clock_7_1.png,6.0,16,,,,,,,,,,,,,,,,,,,,,,,,,,,,,,,,
0.0,1.0,1.379,0.0,30.0,30.0,30.0,1.0,crystal_ball_12s.jpg,0.0,clock_7_2.png,6.0,16,,,,,,,,,,,,,,,,,,,,,,,,,,,,,,,,
1.0,1.0,2.463,0.0,31.0,31.0,31.0,1.0,crystal_ball_12s.jpg,1.0,clock_7_3.png,6.0,16,,,,,,,,,,,,,,,,,,,,,,,,,,,,,,,,
0.0,1.0,1.692,0.0,32.0,32.0,32.0,1.0,submarine_11n.jpg,0.0,clock_7_4.png,6.0,16,,,,,,,,,,,,,,,,,,,,,,,,,,,,,,,,
0.0,1.0,1.512,0.0,33.0,33.0,33.0,1.0,ant_12s.jpg,0.0,clock_7_5.png,6.0,16,,,,,,,,,,,,,,,,,,,,,,,,,,,,,,,,
0.0,1.0,1.798,0.0,34.0,34.0,34.0,1.0,smokingpipe.jpg,0.0,clock_7_6.png,6.0,16,,,,,,,,,,,,,,,,,,,,,,,,,,,,,,,,
1.0,1.0,2.311,0.0,35.0,35.0,35.0,1.0,mailbox_11s.jpg,1.0,clock_7_7.png,6.0,16,,,,,,,,,,,,,,,,,,,,,,,,,,,,,,,,
,,,,,,,,,1.0,,,16,1.0,1.0,1.934,0.0,0.0,0.0,0.0,1.0,razor_12s.jpg,lamppost_09s.jpg,,,,,,,,,,,,,,,,,,,,,,
,,,,,,,,,1.0,,,16,0.0,0.0,1.498,0.0,1.0,1.0,1.0,1.0,film_03s.jpg,sushi_08s.jpg,,,,,,,,,,,,,,,,,,,,,,
,,,,,,,,,0.0,,,16,1.0,0.0,1.215,0.0,2.0,2.0,2.0,1.0,panda_02s.jpg,tinsel_12s.jpg,,,,,,,,,,,,,,,,,,,,,,
,,,,,,,,,0.0,,,16,0.0,1.0,2.036,0.0,3.0,3.0,3.0,1.0,ironing_board_07s.jpg,doily_13s.jpg,,,,,,,,,,,,,,,,,,,,,,
,,,,,,,,,0.0,,,16,1.0,0.0,1.119,0.0,4.0,4.0,4.0,1.0,piano_13n.jpg,tripod_01b.jpg,,,,,,,,,,,,,,,,,,,,,,
,,,,,,,,,0.0,,,16,0.0,1.0,1.265,0.0,5.0,5.0,5.0,1.0,spider_web_03s.jpg,spatula04.jpg,,,,,,,,,,,,,,,,,,,,,,
,,,,,,,,,,,,16,,,,,,,,,,,0.0,4.0,4.0,4.0,1.0,clock_present_5_14.xlsx,clock_compare_task_5_14.xlsx,,,,,,,,,,,,,,,
0.0,1.0,2.112,0.0,0.0,0.0,0.0,1.0,orangutan_03s.jpg,0.0,clock_7_1.png,1.0,16,,,,,,,,,,,,,,,,,,,,,,,,,,,,,,,,
0.0,1.0,1.813,0.0,1.0,1.0,1.0,1.0,squirrel_02s.jpg,0.0,clock_7_2.png,1.0,16,,,,,,,,,,,,,,,,,,,,,,,,,,,,,,,,
0.0,1.0,1.465,0.0,2.0,2.0,2.0,1.0,tiara_05s.jpg,0.0,clock_7_3.png,1.0,16,,,,,,,,,,,,,,,,,,,,,,,,,,,,,,,,
1.0,1.0,2.043,0.0,3.0,3.0,3.0,1.0,squirrel_02s.jpg,1.0,clock_7_4.png,1.0,16,,,,,,,,,,,,,,,,,,,,,,,,,,,,,,,,
1.0,1.0,2.244,0.0,4.0,4.0,4.0,1.0,tiara_05s.jpg,1.0,clock_7_5.png,1.0,16,,,,,,,,,,,,,,,,,,,,,,,,,,,,,,,,
0.0,1.0,2.315,0.0,5.0,5.0,5.0,1.0,mannequin_05s.jpg,0.0,clock_7_6.png,1.0,16,,,,,,,,,,,,,,,,,,,,,,,,,,,,,,,,
0.0,1.0,1.784,0.0,6.0,6.0,6.0,1.0,omelet_07s.jpg,0.0,clock_7_7.png,1.0,16,,,,,,,,,,,,,,,,,,,,,,,,,,,,,,,,
0.0,1.0,1.378,0.0,7.0,7.0,7.0,1.0,buoy_04s.jpg,0.0,clock_5_1.png,2.0,16,,,,,,,,,,,,,,,,,,,,,,,,,,,,,,,,
0.0,1.0,1.191,0.0,8.0,8.0,8.0,1.0,meatball_13s.jpg,0.0,clock_5_2.png,2.0,16,,,,,,,,,,,,,,,,,,,,,,,,,,,,,,,,
0.0,1.0,1.422,0.0,9.0,9.0,9.0,1.0,peppermint_07s.jpg,0.0,clock_5_3.png,2.0,16,,,,,,,,,,,,,,,,,,,,,,,,,,,,,,,,
0.0,1.0,2.313,0.0,10.0,10.0,10.0,1.0,letter_opener_03s.jpg,0.0,clock_5_4.png,2.0,16,,,,,,,,,,,,,,,,,,,,,,,,,,,,,,,,
0.0,1.0,1.778,0.0,11.0,11.0,11.0,1.0,jigsaw_puzzle_11s.jpg,0.0,clock_5_5.png,2.0,16,,,,,,,,,,,,,,,,,,,,,,,,,,,,,,,,
0.0,1.0,1.781,0.0,12.0,12.0,12.0,1.0,bean_06s.jpg,0.0,clock_7_1.png,3.0,16,,,,,,,,,,,,,,,,,,,,,,,,,,,,,,,,
0.0,1.0,1.8,0.0,13.0,13.0,13.0,1.0,tiara_05s.jpg,0.0,clock_7_2.png,3.0,16,,,,,,,,,,,,,,,,,,,,,,,,,,,,,,,,
,0.0,,0.0,14.0,14.0,14.0,1.0,toothpaste_12s.jpg,0.0,clock_7_3.png,3.0,16,,,,,,,,,,,,,,,,,,,,,,,,,,,,,,,,
,0.0,,0.0,15.0,15.0,15.0,1.0,toad_09s.jpg,0.0,clock_7_4.png,3.0,16,,,,,,,,,,,,,,,,,,,,,,,,,,,,,,,,
,0.0,,0.0,16.0,16.0,16.0,1.0,reindeer_08s.jpg,0.0,clock_7_5.png,3.0,16,,,,,,,,,,,,,,,,,,,,,,,,,,,,,,,,
,0.0,,0.0,17.0,17.0,17.0,1.0,refrigerator_07s.jpg,0.0,clock_7_6.png,3.0,16,,,,,,,,,,,,,,,,,,,,,,,,,,,,,,,,
,0.0,,0.0,18.0,18.0,18.0,1.0,koala_13s.jpg,0.0,clock_7_7.png,3.0,16,,,,,,,,,,,,,,,,,,,,,,,,,,,,,,,,
0.0,1.0,2.017,0.0,19.0,19.0,19.0,1.0,umbrella_15s.jpg,0.0,clock_5_1.png,4.0,16,,,,,,,,,,,,,,,,,,,,,,,,,,,,,,,,
1.0,0.0,2.38,0.0,20.0,20.0,20.0,1.0,lamp_08s.jpg,0.0,clock_5_2.png,4.0,16,,,,,,,,,,,,,,,,,,,,,,,,,,,,,,,,
0.0,1.0,2.029,0.0,21.0,21.0,21.0,1.0,bacon_05s.jpg,0.0,clock_5_3.png,4.0,16,,,,,,,,,,,,,,,,,,,,,,,,,,,,,,,,
0.0,1.0,1.45,0.0,22.0,22.0,22.0,1.0,mug_06s.jpg,0.0,clock_5_4.png,4.0,16,,,,,,,,,,,,,,,,,,,,,,,,,,,,,,,,
0.0,1.0,1.633,0.0,23.0,23.0,23.0,1.0,telephone_pole_05s.jpg,0.0,clock_5_5.png,4.0,16,,,,,,,,,,,,,,,,,,,,,,,,,,,,,,,,
0.0,1.0,1.355,0.0,24.0,24.0,24.0,1.0,tablet_04s.jpg,0.0,clock_6_1.png,5.0,16,,,,,,,,,,,,,,,,,,,,,,,,,,,,,,,,
0.0,1.0,1.126,0.0,25.0,25.0,25.0,1.0,flip_flop_03s.jpg,0.0,clock_6_2.png,5.0,16,,,,,,,,,,,,,,,,,,,,,,,,,,,,,,,,
0.0,1.0,1.374,0.0,26.0,26.0,26.0,1.0,razor_blade_01b.jpg,0.0,clock_6_3.png,5.0,16,,,,,,,,,,,,,,,,,,,,,,,,,,,,,,,,
0.0,1.0,1.643,0.0,27.0,27.0,27.0,1.0,turkey_10s.jpg,0.0,clock_6_4.png,5.0,16,,,,,,,,,,,,,,,,,,,,,,,,,,,,,,,,
0.0,1.0,1.51,0.0,28.0,28.0,28.0,1.0,polar_bear_02s.jpg,0.0,clock_6_5.png,5.0,16,,,,,,,,,,,,,,,,,,,,,,,,,,,,,,,,
0.0,1.0,1.607,0.0,29.0,29.0,29.0,1.0,pomegranate_04s.jpg,0.0,clock_6_6.png,5.0,16,,,,,,,,,,,,,,,,,,,,,,,,,,,,,,,,
0.0,1.0,1.663,0.0,30.0,30.0,30.0,1.0,jetski_10s.jpg,0.0,clock_6_1.png,6.0,16,,,,,,,,,,,,,,,,,,,,,,,,,,,,,,,,
0.0,1.0,1.031,0.0,31.0,31.0,31.0,1.0,milk_02s.jpg,0.0,clock_6_2.png,6.0,16,,,,,,,,,,,,,,,,,,,,,,,,,,,,,,,,
0.0,1.0,1.594,0.0,32.0,32.0,32.0,1.0,undershirt_02s.jpg,0.0,clock_6_3.png,6.0,16,,,,,,,,,,,,,,,,,,,,,,,,,,,,,,,,
0.0,1.0,1.408,0.0,33.0,33.0,33.0,1.0,megaphone_03s.jpg,0.0,clock_6_4.png,6.0,16,,,,,,,,,,,,,,,,,,,,,,,,,,,,,,,,
0.0,1.0,1.733,0.0,34.0,34.0,34.0,1.0,licorice_06s.jpg,0.0,clock_6_5.png,6.0,16,,,,,,,,,,,,,,,,,,,,,,,,,,,,,,,,
1.0,1.0,2.397,0.0,35.0,35.0,35.0,1.0,jetski_10s.jpg,1.0,clock_6_6.png,6.0,16,,,,,,,,,,,,,,,,,,,,,,,,,,,,,,,,
,,,,,,,,,0.0,,,16,0.0,1.0,3.485,0.0,0.0,0.0,0.0,1.0,peppermint_07s.jpg,omelet_07s.jpg,,,,,,,,,,,,,,,,,,,,,,
,,,,,,,,,0.0,,,16,1.0,0.0,1.999,0.0,1.0,1.0,1.0,1.0,meatball_13s.jpg,mannequin_05s.jpg,,,,,,,,,,,,,,,,,,,,,,
,,,,,,,,,0.0,,,16,1.0,0.0,1.581,0.0,2.0,2.0,2.0,1.0,umbrella_15s.jpg,reindeer_08s.jpg,,,,,,,,,,,,,,,,,,,,,,
,,,,,,,,,0.0,,,16,1.0,0.0,1.257,0.0,3.0,3.0,3.0,1.0,letter_opener_03s.jpg,buoy_04s.jpg,,,,,,,,,,,,,,,,,,,,,,
,,,,,,,,,0.0,,,16,1.0,0.0,1.715,0.0,4.0,4.0,4.0,1.0,toad_09s.jpg,bean_06s.jpg,,,,,,,,,,,,,,,,,,,,,,
,,,,,,,,,0.0,,,16,1.0,0.0,1.577,0.0,5.0,5.0,5.0,1.0,turkey_10s.jpg,tablet_04s.jpg,,,,,,,,,,,,,,,,,,,,,,
0.0,1.0,1.49,,,,,,swan_11s.jpg,0.0,clockno_up.jpg,1.0,16,,,,,,,,,,,,,,,,,,0.0,0.0,0.0,0.0,1.0,,,,,,,,,,
0.0,1.0,2.297,,,,,,hummingbird_05s.jpg,0.0,clockno_default.jpg,1.0,16,,,,,,,,,,,,,,,,,,0.0,1.0,1.0,1.0,1.0,,,,,,,,,,
0.0,1.0,1.362,,,,,,pretzel_09s.jpg,0.0,clockno_default.jpg,1.0,16,,,,,,,,,,,,,,,,,,0.0,2.0,2.0,2.0,1.0,,,,,,,,,,
1.0,1.0,2.264,,,,,,pretzel_09s.jpg,1.0,clockno_default.jpg,1.0,16,,,,,,,,,,,,,,,,,,0.0,3.0,3.0,3.0,1.0,,,,,,,,,,
1.0,1.0,1.231,,,,,,pretzel_09s.jpg,1.0,clockno_default.jpg,1.0,16,,,,,,,,,,,,,,,,,,0.0,4.0,4.0,4.0,1.0,,,,,,,,,,
0.0,1.0,2.333,,,,,,tennis_ball_06s.jpg,0.0,clockno_default.jpg,1.0,16,,,,,,,,,,,,,,,,,,0.0,5.0,5.0,5.0,1.0,,,,,,,,,,
0.0,1.0,1.647,,,,,,perfume_06s.jpg,0.0,clockno_up.jpg,2.0,16,,,,,,,,,,,,,,,,,,0.0,6.0,6.0,6.0,1.0,,,,,,,,,,
0.0,1.0,1.63,,,,,,pretzel_09s.jpg,0.0,clockno_default.jpg,2.0,16,,,,,,,,,,,,,,,,,,0.0,7.0,7.0,7.0,1.0,,,,,,,,,,
0.0,1.0,1.58,,,,,,teapot_03s.jpg,0.0,clockno_default.jpg,2.0,16,,,,,,,,,,,,,,,,,,0.0,8.0,8.0,8.0,1.0,,,,,,,,,,
0.0,1.0,1.647,,,,,,denture_03s.jpg,0.0,clockno_default.jpg,2.0,16,,,,,,,,,,,,,,,,,,0.0,9.0,9.0,9.0,1.0,,,,,,,,,,
0.0,1.0,1.315,,,,,,mitten_10s.jpg,0.0,clockno_default.jpg,2.0,16,,,,,,,,,,,,,,,,,,0.0,10.0,10.0,10.0,1.0,,,,,,,,,,
0.0,1.0,1.13,,,,,,pineapple_12s.jpg,0.0,clockno_up.jpg,3.0,16,,,,,,,,,,,,,,,,,,0.0,11.0,11.0,11.0,1.0,,,,,,,,,,
0.0,1.0,1.646,,,,,,fire_pit_10s.jpg,0.0,clockno_default.jpg,3.0,16,,,,,,,,,,,,,,,,,,0.0,12.0,12.0,12.0,1.0,,,,,,,,,,
0.0,1.0,1.526,,,,,,icemaker_10s.jpg,0.0,clockno_default.jpg,3.0,16,,,,,,,,,,,,,,,,,,0.0,13.0,13.0,13.0,1.0,,,,,,,,,,
,0.0,,,,,,,denture_03s.jpg,0.0,clockno_default.jpg,3.0,16,,,,,,,,,,,,,,,,,,0.0,14.0,14.0,14.0,1.0,,,,,,,,,,
0.0,1.0,1.547,,,,,,tomato_sauce_09s.jpg,0.0,clockno_default.jpg,3.0,16,,,,,,,,,,,,,,,,,,0.0,15.0,15.0,15.0,1.0,,,,,,,,,,
0.0,1.0,1.431,,,,,,chalice_10s.jpg,0.0,clockno_up.jpg,4.0,16,,,,,,,,,,,,,,,,,,0.0,16.0,16.0,16.0,1.0,,,,,,,,,,
0.0,1.0,1.363,,,,,,pepper_mill_03s.jpg,0.0,clockno_default.jpg,4.0,16,,,,,,,,,,,,,,,,,,0.0,17.0,17.0,17.0,1.0,,,,,,,,,,
0.0,1.0,1.399,,,,,,pencil_sharpener_09n.jpg,0.0,clockno_default.jpg,4.0,16,,,,,,,,,,,,,,,,,,0.0,18.0,18.0,18.0,1.0,,,,,,,,,,
1.0,1.0,2.05,,,,,,chalice_10s.jpg,1.0,clockno_default.jpg,4.0,16,,,,,,,,,,,,,,,,,,0.0,19.0,19.0,19.0,1.0,,,,,,,,,,
0.0,1.0,1.35,,,,,,crossbow_10s.jpg,0.0,clockno_default.jpg,4.0,16,,,,,,,,,,,,,,,,,,0.0,20.0,20.0,20.0,1.0,,,,,,,,,,
0.0,1.0,1.333,,,,,,tortilla_06s.jpg,0.0,clockno_default.jpg,4.0,16,,,,,,,,,,,,,,,,,,0.0,21.0,21.0,21.0,1.0,,,,,,,,,,
0.0,1.0,1.472,,,,,,penlight_12s.jpg,0.0,clockno_default.jpg,4.0,16,,,,,,,,,,,,,,,,,,0.0,22.0,22.0,22.0,1.0,,,,,,,,,,
0.0,1.0,1.394,,,,,,keyboard_05s.jpg,0.0,clockno_up.jpg,5.0,16,,,,,,,,,,,,,,,,,,0.0,23.0,23.0,23.0,1.0,,,,,,,,,,
1.0,1.0,1.842,,,,,,keyboard_05s.jpg,1.0,clockno_default.jpg,5.0,16,,,,,,,,,,,,,,,,,,0.0,24.0,24.0,24.0,1.0,,,,,,,,,,
0.0,1.0,1.225,,,,,,sparkler_02s.jpg,0.0,clockno_default.jpg,5.0,16,,,,,,,,,,,,,,,,,,0.0,25.0,25.0,25.0,1.0,,,,,,,,,,
0.0,1.0,1.265,,,,,,pinwheel_06s.jpg,0.0,clockno_default.jpg,5.0,16,,,,,,,,,,,,,,,,,,0.0,26.0,26.0,26.0,1.0,,,,,,,,,,
0.0,1.0,1.282,,,,,,frog_09s.jpg,0.0,clockno_default.jpg,5.0,16,,,,,,,,,,,,,,,,,,0.0,27.0,27.0,27.0,1.0,,,,,,,,,,
0.0,1.0,1.817,,,,,,pepper_mill_03s.jpg,0.0,clockno_default.jpg,5.0,16,,,,,,,,,,,,,,,,,,0.0,28.0,28.0,28.0,1.0,,,,,,,,,,
0.0,1.0,1.595,,,,,,gargoyle_08s.jpg,0.0,clockno_default.jpg,5.0,16,,,,,,,,,,,,,,,,,,0.0,29.0,29.0,29.0,1.0,,,,,,,,,,
0.0,1.0,1.482,,,,,,rosary_03s.jpg,0.0,clockno_up.jpg,6.0,16,,,,,,,,,,,,,,,,,,0.0,30.0,30.0,30.0,1.0,,,,,,,,,,
1.0,1.0,2.332,,,,,,rosary_03s.jpg,1.0,clockno_default.jpg,6.0,16,,,,,,,,,,,,,,,,,,0.0,31.0,31.0,31.0,1.0,,,,,,,,,,
0.0,1.0,2.116,,,,,,chocolate_01b.jpg,0.0,clockno_default.jpg,6.0,16,,,,,,,,,,,,,,,,,,0.0,32.0,32.0,32.0,1.0,,,,,,,,,,
1.0,1.0,2.331,,,,,,chocolate_01b.jpg,1.0,clockno_default.jpg,6.0,16,,,,,,,,,,,,,,,,,,0.0,33.0,33.0,33.0,1.0,,,,,,,,,,
0.0,1.0,2.072,,,,,,raft_09s.jpg,0.0,clockno_default.jpg,6.0,16,,,,,,,,,,,,,,,,,,0.0,34.0,34.0,34.0,1.0,,,,,,,,,,
0.0,1.0,1.333,,,,,,ravioli_08s.jpg,0.0,clockno_default.jpg,6.0,16,,,,,,,,,,,,,,,,,,0.0,35.0,35.0,35.0,1.0,,,,,,,,,,
,,,,,,,,,0.0,,,16,0.0,1.0,2.319,,,,,,teapot_03s.jpg,tennis_ball_06s.jpg,,,,,,,,,,,,,0.0,0.0,0.0,0.0,1.0,,,,,
,,,,,,,,,1.0,,,16,0.0,0.0,1.416,,,,,,mitten_10s.jpg,icemaker_10s.jpg,,,,,,,,,,,,,0.0,1.0,1.0,1.0,1.0,,,,,
,,,,,,,,,0.0,,,16,0.0,1.0,2.695,,,,,,sparkler_02s.jpg,penlight_12s.jpg,,,,,,,,,,,,,0.0,2.0,2.0,2.0,1.0,,,,,
,,,,,,,,,1.0,,,16,1.0,1.0,2.4,,,,,,pinwheel_06s.jpg,gargoyle_08s.jpg,,,,,,,,,,,,,0.0,3.0,3.0,3.0,1.0,,,,,
,,,,,,,,,1.0,,,16,1.0,1.0,1.281,,,,,,fire_pit_10s.jpg,tomato_sauce_09s.jpg,,,,,,,,,,,,,0.0,4.0,4.0,4.0,1.0,,,,,
,,,,,,,,,1.0,,,16,1.0,1.0,1.067,,,,,,pencil_sharpener_09n.jpg,tortilla_06s.jpg,,,,,,,,,,,,,0.0,5.0,5.0,5.0,1.0,,,,,
,,,,,,,,,,,,16,,,,,,,,,,,,,,,,clockno_present_1_14.xlsx,clockno_compare_task_1_14.xlsx,,,,,,,,,,,0.0,0.0,0.0,0.0,1.0
0.0,1.0,1.718,,,,,,mousetrap_15n.jpg,0.0,clockno_up.jpg,1.0,16,,,,,,,,,,,,,,,,,,0.0,0.0,0.0,0.0,1.0,,,,,,,,,,
0.0,1.0,1.448,,,,,,bee_20s.jpg,0.0,clockno_default.jpg,1.0,16,,,,,,,,,,,,,,,,,,0.0,1.0,1.0,1.0,1.0,,,,,,,,,,
1.0,1.0,2.081,,,,,,bee_20s.jpg,1.0,clockno_default.jpg,1.0,16,,,,,,,,,,,,,,,,,,0.0,2.0,2.0,2.0,1.0,,,,,,,,,,
1.0,1.0,2.026,,,,,,mousetrap_15n.jpg,1.0,clockno_default.jpg,1.0,16,,,,,,,,,,,,,,,,,,0.0,3.0,3.0,3.0,1.0,,,,,,,,,,
1.0,1.0,1.464,,,,,,mousetrap_15n.jpg,1.0,clockno_default.jpg,1.0,16,,,,,,,,,,,,,,,,,,0.0,4.0,4.0,4.0,1.0,,,,,,,,,,
,0.0,,,,,,,birdcage_08s.jpg,0.0,clockno_up.jpg,2.0,16,,,,,,,,,,,,,,,,,,0.0,5.0,5.0,5.0,1.0,,,,,,,,,,
0.0,1.0,1.899,,,,,,recliner_02s.jpg,0.0,clockno_default.jpg,2.0,16,,,,,,,,,,,,,,,,,,0.0,6.0,6.0,6.0,1.0,,,,,,,,,,
0.0,1.0,1.849,,,,,,plunger_08s.jpg,0.0,clockno_default.jpg,2.0,16,,,,,,,,,,,,,,,,,,0.0,7.0,7.0,7.0,1.0,,,,,,,,,,
0.0,1.0,1.118,,,,,,marker_05s.jpg,0.0,clockno_default.jpg,2.0,16,,,,,,,,,,,,,,,,,,0.0,8.0,8.0,8.0,1.0,,,,,,,,,,
0.0,1.0,1.5,,,,,,rocking_horse_03s.jpg,0.0,clockno_default.jpg,2.0,16,,,,,,,,,,,,,,,,,,0.0,9.0,9.0,9.0,1.0,,,,,,,,,,
0.0,1.0,1.249,,,,,,tape_06s.jpg,0.0,clockno_default.jpg,2.0,16,,,,,,,,,,,,,,,,,,0.0,10.0,10.0,10.0,1.0,,,,,,,,,,
0.0,1.0,1.249,,,,,,plaster_cast_13s.jpg,0.0,clockno_default.jpg,2.0,16,,,,,,,,,,,,,,,,,,0.0,11.0,11.0,11.0,1.0,,,,,,,,,,
0.0,1.0,1.316,,,,,,diving_board_07s.jpg,0.0,clockno_up.jpg,3.0,16,,,,,,,,,,,,,,,,,,0.0,12.0,12.0,12.0,1.0,,,,,,,,,,
0.0,1.0,1.134,,,,,,ring_03s.jpg,0.0,clockno_default.jpg,3.0,16,,,,,,,,,,,,,,,,,,0.0,13.0,13.0,13.0,1.0,,,,,,,,,,
0.0,1.0,1.165,,,,,,lollipop_08s.jpg,0.0,clockno_default.jpg,3.0,16,,,,,,,,,,,,,,,,,,0.0,14.0,14.0,14.0,1.0,,,,,,,,,,
0.0,0.0,1.415,,,,,,diving_board_07s.jpg,1.0,clockno_default.jpg,3.0,16,,,,,,,,,,,,,,,,,,0.0,15.0,15.0,15.0,1.0,,,,,,,,,,
0.0,1.0,1.299,,,,,,marker_05s.jpg,0.0,clockno_default.jpg,3.0,16,,,,,,,,,,,,,,,,,,0.0,16.0,16.0,16.0,1.0,,,,,,,,,,
0.0,1.0,1.365,,,,,,rooster_03s.jpg,0.0,clockno_default.jpg,3.0,16,,,,,,,,,,,,,,,,,,0.0,17.0,17.0,17.0,1.0,,,,,,,,,,
0.0,1.0,1.536,,,,,,bolo_tie_08s.jpg,0.0,clockno_up.jpg,4.0,16,,,,,,,,,,,,,,,,,,0.0,18.0,18.0,18.0,1.0,,,,,,,,,,
1.0,1.0,2.314,,,,,,bolo_tie_08s.jpg,1.0,clockno_default.jpg,4.0,16,,,,,,,,,,,,,,,,,,0.0,19.0,19.0,19.0,1.0,,,,,,,,,,
1.0,1.0,2.315,,,,,,bolo_tie_08s.jpg,1.0,clockno_default.jpg,4.0,16,,,,,,,,,,,,,,,,,,0.0,20.0,20.0,20.0,1.0,,,,,,,,,,
0.0,1.0,1.934,,,,,,lion_18s.jpg,0.0,clockno_default.jpg,4.0,16,,,,,,,,,,,,,,,,,,0.0,21.0,21.0,21.0,1.0,,,,,,,,,,
0.0,1.0,1.147,,,,,,ladle_04s.jpg,0.0,clockno_default.jpg,4.0,16,,,,,,,,,,,,,,,,,,0.0,22.0,22.0,22.0,1.0,,,,,,,,,,
0.0,1.0,1.732,,,,,,bank_06s.jpg,0.0,clockno_default.jpg,4.0,16,,,,,,,,,,,,,,,,,,0.0,23.0,23.0,23.0,1.0,,,,,,,,,,
0.0,1.0,1.449,,,,,,turtleneck_11s.jpg,0.0,clockno_default.jpg,4.0,16,,,,,,,,,,,,,,,,,,0.0,24.0,24.0,24.0,1.0,,,,,,,,,,
0.0,1.0,1.251,,,,,,funnel_01b.jpg,0.0,clockno_up.jpg,5.0,16,,,,,,,,,,,,,,,,,,0.0,25.0,25.0,25.0,1.0,,,,,,,,,,
0.0,1.0,1.096,,,,,,antenna_01b.jpg,0.0,clockno_default.jpg,5.0,16,,,,,,,,,,,,,,,,,,0.0,26.0,26.0,26.0,1.0,,,,,,,,,,
1.0,0.0,2.315,,,,,,juicer2_06s.jpg,0.0,clockno_default.jpg,5.0,16,,,,,,,,,,,,,,,,,,0.0,27.0,27.0,27.0,1.0,,,,,,,,,,
1.0,1.0,1.598,,,,,,funnel_01b.jpg,1.0,clockno_default.jpg,5.0,16,,,,,,,,,,,,,,,,,,0.0,28.0,28.0,28.0,1.0,,,,,,,,,,
0.0,1.0,2.395,,,,,,sunflower_17s.jpg,0.0,clockno_default.jpg,5.0,16,,,,,,,,,,,,,,,,,,0.0,29.0,29.0,29.0,1.0,,,,,,,,,,
0.0,1.0,1.562,,,,,,crayon_09s.jpg,0.0,clockno_default.jpg,5.0,16,,,,,,,,,,,,,,,,,,0.0,30.0,30.0,30.0,1.0,,,,,,,,,,
,0.0,,,,,,,gas_mask_11s.jpg,0.0,clockno_up.jpg,6.0,16,,,,,,,,,,,,,,,,,,0.0,31.0,31.0,31.0,1.0,,,,,,,,,,
,0.0,,,,,,,inhaler_01b.jpg,0.0,clockno_default.jpg,6.0,16,,,,,,,,,,,,,,,,,,0.0,32.0,32.0,32.0,1.0,,,,,,,,,,
,0.0,,,,,,,gas_mask_11s.jpg,1.0,clockno_default.jpg,6.0,16,,,,,,,,,,,,,,,,,,0.0,33.0,33.0,33.0,1.0,,,,,,,,,,
,0.0,,,,,,,sunglasses_11s.jpg,0.0,clockno_default.jpg,6.0,16,,,,,,,,,,,,,,,,,,0.0,34.0,34.0,34.0,1.0,,,,,,,,,,
,0.0,,,,,,,rooster_03s.jpg,0.0,clockno_default.jpg,6.0,16,,,,,,,,,,,,,,,,,,0.0,35.0,35.0,35.0,1.0,,,,,,,,,,
,,,,,,,,,1.0,,,16,0.0,0.0,15.117,,,,,,plaster_cast_13s.jpg,lollipop_08s.jpg,,,,,,,,,,,,,0.0,0.0,0.0,0.0,1.0,,,,,
,,,,,,,,,1.0,,,16,0.0,0.0,2.025,,,,,,tape_06s.jpg,ring_03s.jpg,,,,,,,,,,,,,0.0,1.0,1.0,1.0,1.0,,,,,
,,,,,,,,,1.0,,,16,0.0,0.0,0.994,,,,,,bank_06s.jpg,antenna_01b.jpg,,,,,,,,,,,,,0.0,2.0,2.0,2.0,1.0,,,,,
,,,,,,,,,1.0,,,16,0.0,0.0,1.12,,,,,,recliner_02s.jpg,rocking_horse_03s.jpg,,,,,,,,,,,,,0.0,3.0,3.0,3.0,1.0,,,,,
,,,,,,,,,0.0,,,16,0.0,1.0,1.112,,,,,,turtleneck_11s.jpg,lion_18s.jpg,,,,,,,,,,,,,0.0,4.0,4.0,4.0,1.0,,,,,
,,,,,,,,,1.0,,,16,0.0,0.0,1.142,,,,,,juicer2_06s.jpg,crayon_09s.jpg,,,,,,,,,,,,,0.0,5.0,5.0,5.0,1.0,,,,,
,,,,,,,,,,,,16,,,,,,,,,,,,,,,,clockno_present_2_14.xlsx,clockno_compare_task_2_14.xlsx,,,,,,,,,,,0.0,1.0,1.0,1.0,1.0
0.0,1.0,1.648,,,,,,phone_01b.jpg,0.0,clockno_up.jpg,1.0,16,,,,,,,,,,,,,,,,,,0.0,0.0,0.0,0.0,1.0,,,,,,,,,,
1.0,1.0,1.628,,,,,,phone_01b.jpg,1.0,clockno_default.jpg,1.0,16,,,,,,,,,,,,,,,,,,0.0,1.0,1.0,1.0,1.0,,,,,,,,,,
0.0,1.0,1.049,,,,,,pan_02s.jpg,0.0,clockno_default.jpg,1.0,16,,,,,,,,,,,,,,,,,,0.0,2.0,2.0,2.0,1.0,,,,,,,,,,
0.0,1.0,1.013,,,,,,turnstile_08s.jpg,0.0,clockno_default.jpg,1.0,16,,,,,,,,,,,,,,,,,,0.0,3.0,3.0,3.0,1.0,,,,,,,,,,
0.0,1.0,1.978,,,,,,rolling_pin_02s.jpg,0.0,clockno_default.jpg,1.0,16,,,,,,,,,,,,,,,,,,0.0,4.0,4.0,4.0,1.0,,,,,,,,,,
0.0,1.0,1.564,,,,,,rocket_02s.jpg,0.0,clockno_default.jpg,1.0,16,,,,,,,,,,,,,,,,,,0.0,5.0,5.0,5.0,1.0,,,,,,,,,,
0.0,1.0,1.311,,,,,,cape_11s.jpg,0.0,clockno_default.jpg,1.0,16,,,,,,,,,,,,,,,,,,0.0,6.0,6.0,6.0,1.0,,,,,,,,,,
0.0,1.0,1.665,,,,,,tube_top_03s.jpg,0.0,clockno_up.jpg,2.0,16,,,,,,,,,,,,,,,,,,0.0,7.0,7.0,7.0,1.0,,,,,,,,,,
0.0,1.0,1.468,,,,,,gingerbread_man_03s.jpg,0.0,clockno_default.jpg,2.0,16,,,,,,,,,,,,,,,,,,0.0,8.0,8.0,8.0,1.0,,,,,,,,,,
0.0,1.0,0.966,,,,,,bottle_opener_11s.jpg,0.0,clockno_default.jpg,2.0,16,,,,,,,,,,,,,,,,,,0.0,9.0,9.0,9.0,1.0,,,,,,,,,,
0.0,1.0,1.332,,,,,,light_switch_02s.jpg,0.0,clockno_default.jpg,2.0,16,,,,,,,,,,,,,,,,,,0.0,10.0,10.0,10.0,1.0,,,,,,,,,,
1.0,1.0,1.742,,,,,,gingerbread_man_03s.jpg,1.0,clockno_default.jpg,2.0,16,,,,,,,,,,,,,,,,,,0.0,11.0,11.0,11.0,1.0,,,,,,,,,,
0.0,1.0,1.546,,,,,,turf_03s.jpg,0.0,clockno_up.jpg,3.0,16,,,,,,,,,,,,,,,,,,0.0,12.0,12.0,12.0,1.0,,,,,,,,,,
0.0,1.0,0.881,,,,,,poinsettia_04s.jpg,0.0,clockno_default.jpg,3.0,16,,,,,,,,,,,,,,,,,,0.0,13.0,13.0,13.0,1.0,,,,,,,,,,
1.0,1.0,1.579,,,,,,turf_03s.jpg,1.0,clockno_default.jpg,3.0,16,,,,,,,,,,,,,,,,,,0.0,14.0,14.0,14.0,1.0,,,,,,,,,,
0.0,1.0,0.946,,,,,,quilt_03s.jpg,0.0,clockno_default.jpg,3.0,16,,,,,,,,,,,,,,,,,,0.0,15.0,15.0,15.0,1.0,,,,,,,,,,
0.0,1.0,1.577,,,,,,tube_top_03s.jpg,0.0,clockno_default.jpg,3.0,16,,,,,,,,,,,,,,,,,,0.0,16.0,16.0,16.0,1.0,,,,,,,,,,
0.0,1.0,1.113,,,,,,compass_10n.jpg,0.0,clockno_default.jpg,3.0,16,,,,,,,,,,,,,,,,,,0.0,17.0,17.0,17.0,1.0,,,,,,,,,,
0.0,1.0,1.182,,,,,,fur_coat_11s.jpg,0.0,clockno_default.jpg,3.0,16,,,,,,,,,,,,,,,,,,0.0,18.0,18.0,18.0,1.0,,,,,,,,,,
0.0,1.0,1.297,,,,,,squirt_gun_03s.jpg,0.0,clockno_up.jpg,4.0,16,,,,,,,,,,,,,,,,,,0.0,19.0,19.0,19.0,1.0,,,,,,,,,,
1.0,1.0,1.365,,,,,,squirt_gun_03s.jpg,1.0,clockno_default.jpg,4.0,16,,,,,,,,,,,,,,,,,,0.0,20.0,20.0,20.0,1.0,,,,,,,,,,
0.0,1.0,1.217,,,,,,candy_cane_06s.jpg,0.0,clockno_default.jpg,4.0,16,,,,,,,,,,,,,,,,,,0.0,21.0,21.0,21.0,1.0,,,,,,,,,,
0.0,1.0,1.048,,,,,,boar_10s.jpg,0.0,clockno_default.jpg,4.0,16,,,,,,,,,,,,,,,,,,0.0,22.0,22.0,22.0,1.0,,,,,,,,,,
0.0,1.0,1.413,,,,,,poinsettia_04s.jpg,0.0,clockno_default.jpg,4.0,16,,,,,,,,,,,,,,,,,,0.0,23.0,23.0,23.0,1.0,,,,,,,,,,
0.0,1.0,1.099,,,,,,possum_09s.jpg,0.0,clockno_default.jpg,4.0,16,,,,,,,,,,,,,,,,,,0.0,24.0,24.0,24.0,1.0,,,,,,,,,,
0.0,1.0,1.26,,,,,,cobra_05s.jpg,0.0,clockno_up.jpg,5.0,16,,,,,,,,,,,,,,,,,,0.0,25.0,25.0,25.0,1.0,,,,,,,,,,
0.0,1.0,1.313,,,,,,chopsticks_08s.jpg,0.0,clockno_default.jpg,5.0,16,,,,,,,,,,,,,,,,,,0.0,26.0,26.0,26.0,1.0,,,,,,,,,,
0.0,1.0,1.2,,,,,,fossil_06s.jpg,0.0,clockno_default.jpg,5.0,16,,,,,,,,,,,,,,,,,,0.0,27.0,27.0,27.0,1.0,,,,,,,,,,
1.0,1.0,2.016,,,,,,fossil_06s.jpg,1.0,clockno_default.jpg,5.0,16,,,,,,,,,,,,,,,,,,0.0,28.0,28.0,28.0,1.0,,,,,,,,,,
0.0,1.0,1.133,,,,,,padlock_07s.jpg,0.0,clockno_default.jpg,5.0,16,,,,,,,,,,,,,,,,,,0.0,29.0,29.0,29.0,1.0,,,,,,,,,,
0.0,1.0,1.302,,,,,,soda_fountain_03s.jpg,0.0,clockno_up.jpg,6.0,16,,,,,,,,,,,,,,,,,,0.0,30.0,30.0,30.0,1.0,,,,,,,,,,
0.0,1.0,1.331,,,,,,pipe1_10s.jpg,0.0,clockno_default.jpg,6.0,16,,,,,,,,,,,,,,,,,,0.0,31.0,31.0,31.0,1.0,,,,,,,,,,
0.0,1.0,1.152,,,,,,loom_05s.jpg,0.0,clockno_default.jpg,6.0,16,,,,,,,,,,,,,,,,,,0.0,32.0,32.0,32.0,1.0,,,,,,,,,,
0.0,1.0,1.186,,,,,,jersey_02s.jpg,0.0,clockno_default.jpg,6.0,16,,,,,,,,,,,,,,,,,,0.0,33.0,33.0,33.0,1.0,,,,,,,,,,
0.0,1.0,1.317,,,,,,mop_08s.jpg,0.0,clockno_default.jpg,6.0,16,,,,,,,,,,,,,,,,,,0.0,34.0,34.0,34.0,1.0,,,,,,,,,,
0.0,1.0,1.182,,,,,,puppet_01b.jpg,0.0,clockno_default.jpg,6.0,16,,,,,,,,,,,,,,,,,,0.0,35.0,35.0,35.0,1.0,,,,,,,,,,
,,,,,,,,,1.0,,,16,1.0,1.0,2.753,,,,,,boar_10s.jpg,cobra_05s.jpg,,,,,,,,,,,,,0.0,0.0,0.0,0.0,1.0,,,,,
,,,,,,,,,0.0,,,16,0.0,1.0,1.385,,,,,,bottle_opener_11s.jpg,cape_11s.jpg,,,,,,,,,,,,,0.0,1.0,1.0,1.0,1.0,,,,,
,,,,,,,,,0.0,,,16,0.0,1.0,1.733,,,,,,candy_cane_06s.jpg,fur_coat_11s.jpg,,,,,,,,,,,,,0.0,2.0,2.0,2.0,1.0,,,,,
,,,,,,,,,0.0,,,16,0.0,1.0,1.831,,,,,,rocket_02s.jpg,pan_02s.jpg,,,,,,,,,,,,,0.0,3.0,3.0,3.0,1.0,,,,,
,,,,,,,,,1.0,,,16,1.0,1.0,1.564,,,,,,soda_fountain_03s.jpg,jersey_02s.jpg,,,,,,,,,,,,,0.0,4.0,4.0,4.0,1.0,,,,,
,,,,,,,,,0.0,,,16,1.0,0.0,1.349,,,,,,mop_08s.jpg,pipe1_10s.jpg,,,,,,,,,,,,,0.0,5.0,5.0,5.0,1.0,,,,,
,,,,,,,,,,,,16,,,,,,,,,,,,,,,,clockno_present_3_14.xlsx,clockno_compare_task_3_14.xlsx,,,,,,,,,,,0.0,2.0,2.0,2.0,1.0
0.0,1.0,2.214,,,,,,beard_16s.jpg,0.0,clockno_up.jpg,1.0,16,,,,,,,,,,,,,,,,,,0.0,0.0,0.0,0.0,1.0,,,,,,,,,,
1.0,1.0,1.397,,,,,,beard_16s.jpg,1.0,clockno_default.jpg,1.0,16,,,,,,,,,,,,,,,,,,0.0,1.0,1.0,1.0,1.0,,,,,,,,,,
0.0,1.0,1.246,,,,,,printer_09s.jpg,0.0,clockno_default.jpg,1.0,16,,,,,,,,,,,,,,,,,,0.0,2.0,2.0,2.0,1.0,,,,,,,,,,
0.0,1.0,1.331,,,,,,juicer1_08s.jpg,0.0,clockno_default.jpg,1.0,16,,,,,,,,,,,,,,,,,,0.0,3.0,3.0,3.0,1.0,,,,,,,,,,
0.0,1.0,1.112,,,,,,cotton_candy_01b.jpg,0.0,clockno_default.jpg,1.0,16,,,,,,,,,,,,,,,,,,0.0,4.0,4.0,4.0,1.0,,,,,,,,,,
0.0,1.0,1.114,,,,,,tape_measure_11s.jpg,0.0,clockno_up.jpg,2.0,16,,,,,,,,,,,,,,,,,,0.0,5.0,5.0,5.0,1.0,,,,,,,,,,
1.0,0.0,2.097,,,,,,beard_16s.jpg,0.0,clockno_default.jpg,2.0,16,,,,,,,,,,,,,,,,,,0.0,6.0,6.0,6.0,1.0,,,,,,,,,,
0.0,1.0,1.24,,,,,,trampoline_13s.jpg,0.0,clockno_default.jpg,2.0,16,,,,,,,,,,,,,,,,,,0.0,7.0,7.0,7.0,1.0,,,,,,,,,,
1.0,1.0,1.465,,,,,,trampoline_13s.jpg,1.0,clockno_default.jpg,2.0,16,,,,,,,,,,,,,,,,,,0.0,8.0,8.0,8.0,1.0,,,,,,,,,,
1.0,1.0,1.135,,,,,,trampoline_13s.jpg,1.0,clockno_default.jpg,2.0,16,,,,,,,,,,,,,,,,,,0.0,9.0,9.0,9.0,1.0,,,,,,,,,,
0.0,1.0,1.414,,,,,,kangaroo_02s.jpg,0.0,clockno_default.jpg,2.0,16,,,,,,,,,,,,,,,,,,0.0,10.0,10.0,10.0,1.0,,,,,,,,,,
0.0,1.0,1.198,,,,,,mirror_12s.jpg,0.0,clockno_default.jpg,2.0,16,,,,,,,,,,,,,,,,,,0.0,11.0,11.0,11.0,1.0,,,,,,,,,,
0.0,1.0,1.562,,,,,,powder_07s.jpg,0.0,clockno_up.jpg,3.0,16,,,,,,,,,,,,,,,,,,0.0,12.0,12.0,12.0,1.0,,,,,,,,,,
0.0,1.0,1.082,,,,,,rollerskate_03s.jpg,0.0,clockno_default.jpg,3.0,16,,,,,,,,,,,,,,,,,,0.0,13.0,13.0,13.0,1.0,,,,,,,,,,
0.0,1.0,1.281,,,,,,gear_07s.jpg,0.0,clockno_default.jpg,3.0,16,,,,,,,,,,,,,,,,,,0.0,14.0,14.0,14.0,1.0,,,,,,,,,,
0.0,1.0,1.463,,,,,,playpen_11s.jpg,0.0,clockno_default.jpg,3.0,16,,,,,,,,,,,,,,,,,,0.0,15.0,15.0,15.0,1.0,,,,,,,,,,
1.0,1.0,1.712,,,,,,playpen_11s.jpg,1.0,clockno_default.jpg,3.0,16,,,,,,,,,,,,,,,,,,0.0,16.0,16.0,16.0,1.0,,,,,,,,,,
0.0,1.0,1.333,,,,,,keyhole_03s.jpg,0.0,clockno_up.jpg,4.0,16,,,,,,,,,,,,,,,,,,0.0,17.0,17.0,17.0,1.0,,,,,,,,,,
0.0,1.0,1.234,,,,,,spoon02a.jpg,0.0,clockno_default.jpg,4.0,16,,,,,,,,,,,,,,,,,,0.0,18.0,18.0,18.0,1.0,,,,,,,,,,
0.0,1.0,1.45,,,,,,mud_13s.jpg,0.0,clockno_default.jpg,4.0,16,,,,,,,,,,,,,,,,,,0.0,19.0,19.0,19.0,1.0,,,,,,,,,,
0.0,1.0,1.313,,,,,,pea_11s.jpg,0.0,clockno_default.jpg,4.0,16,,,,,,,,,,,,,,,,,,0.0,20.0,20.0,20.0,1.0,,,,,,,,,,
1.0,1.0,1.698,,,,,,spoon02a.jpg,1.0,clockno_default.jpg,4.0,16,,,,,,,,,,,,,,,,,,0.0,21.0,21.0,21.0,1.0,,,,,,,,,,
0.0,1.0,1.564,,,,,,turtle_08s.jpg,0.0,clockno_default.jpg,4.0,16,,,,,,,,,,,,,,,,,,0.0,22.0,22.0,22.0,1.0,,,,,,,,,,
0.0,1.0,1.5,,,,,,tattoo_14s.jpg,0.0,clockno_up.jpg,5.0,16,,,,,,,,,,,,,,,,,,0.0,23.0,23.0,23.0,1.0,,,,,,,,,,
0.0,1.0,1.648,,,,,,mirror_12s.jpg,0.0,clockno_default.jpg,5.0,16,,,,,,,,,,,,,,,,,,0.0,24.0,24.0,24.0,1.0,,,,,,,,,,
0.0,1.0,1.348,,,,,,tie_03s.jpg,0.0,clockno_default.jpg,5.0,16,,,,,,,,,,,,,,,,,,0.0,25.0,25.0,25.0,1.0,,,,,,,,,,
0.0,1.0,1.282,,,,,,printer_09s.jpg,0.0,clockno_default.jpg,5.0,16,,,,,,,,,,,,,,,,,,0.0,26.0,26.0,26.0,1.0,,,,,,,,,,
0.0,1.0,1.317,,,,,,roller_coaster_07s.jpg,0.0,clockno_default.jpg,5.0,16,,,,,,,,,,,,,,,,,,0.0,27.0,27.0,27.0,1.0,,,,,,,,,,
0.0,0.0,2.348,,,,,,tattoo_14s.jpg,1.0,clockno_default.jpg,5.0,16,,,,,,,,,,,,,,,,,,0.0,28.0,28.0,28.0,1.0,,,,,,,,,,
0.0,1.0,1.283,,,,,,toy_04s.jpg,0.0,clockno_default.jpg,5.0,16,,,,,,,,,,,,,,,,,,0.0,29.0,29.0,29.0,1.0,,,,,,,,,,
0.0,1.0,1.399,,,,,,projector_08s.jpg,0.0,clockno_up.jpg,6.0,16,,,,,,,,,,,,,,,,,,0.0,30.0,30.0,30.0,1.0,,,,,,,,,,
0.0,1.0,1.515,,,,,,ink_08s.jpg,0.0,clockno_default.jpg,6.0,16,,,,,,,,,,,,,,,,,,0.0,31.0,31.0,31.0,1.0,,,,,,,,,,
0.0,1.0,1.881,,,,,,teabag_12s.jpg,0.0,clockno_default.jpg,6.0,16,,,,,,,,,,,,,,,,,,0.0,32.0,32.0,32.0,1.0,,,,,,,,,,
0.0,1.0,1.314,,,,,,tongs_08s.jpg,0.0,clockno_default.jpg,6.0,16,,,,,,,,,,,,,,,,,,0.0,33.0,33.0,33.0,1.0,,,,,,,,,,
0.0,1.0,1.064,,,,,,power_line_08s.jpg,0.0,clockno_default.jpg,6.0,16,,,,,,,,,,,,,,,,,,0.0,34.0,34.0,34.0,1.0,,,,,,,,,,
0.0,1.0,2.001,,,,,,margarita_03s.jpg,0.0,clockno_default.jpg,6.0,16,,,,,,,,,,,,,,,,,,0.0,35.0,35.0,35.0,1.0,,,,,,,,,,
,,,,,,,,,0.0,,,16,1.0,0.0,1.464,,,,,,rollerskate_03s.jpg,kangaroo_02s.jpg,,,,,,,,,,,,,0.0,0.0,0.0,0.0,1.0,,,,,
,,,,,,,,,0.0,,,16,1.0,0.0,1.33,,,,,,keyhole_03s.jpg,gear_07s.jpg,,,,,,,,,,,,,0.0,1.0,1.0,1.0,1.0,,,,,
,,,,,,,,,0.0,,,16,1.0,0.0,1.832,,,,,,tie_03s.jpg,turtle_08s.jpg,,,,,,,,,,,,,0.0,2.0,2.0,2.0,1.0,,,,,
,,,,,,,,,1.0,,,16,1.0,1.0,1.31,,,,,,ink_08s.jpg,power_line_08s.jpg,,,,,,,,,,,,,0.0,3.0,3.0,3.0,1.0,,,,,
,,,,,,,,,0.0,,,16,1.0,0.0,1.131,,,,,,tongs_08s.jpg,projector_08s.jpg,,,,,,,,,,,,,0.0,4.0,4.0,4.0,1.0,,,,,
,,,,,,,,,1.0,,,16,1.0,1.0,1.196,,,,,,teabag_12s.jpg,margarita_03s.jpg,,,,,,,,,,,,,0.0,5.0,5.0,5.0,1.0,,,,,
,,,,,,,,,,,,16,,,,,,,,,,,,,,,,clockno_present_4_14.xlsx,clockno_compare_task_4_14.xlsx,,,,,,,,,,,0.0,3.0,3.0,3.0,1.0
0.0,1.0,1.192,,,,,,camcorder_10s.jpg,0.0,clockno_up.jpg,1.0,16,,,,,,,,,,,,,,,,,,0.0,0.0,0.0,0.0,1.0,,,,,,,,,,
0.0,1.0,1.595,,,,,,mixer_12s.jpg,0.0,clockno_default.jpg,1.0,16,,,,,,,,,,,,,,,,,,0.0,1.0,1.0,1.0,1.0,,,,,,,,,,
0.0,1.0,1.177,,,,,,comic_book_02s.jpg,0.0,clockno_default.jpg,1.0,16,,,,,,,,,,,,,,,,,,0.0,2.0,2.0,2.0,1.0,,,,,,,,,,
0.0,1.0,1.28,,,,,,treasure_08s.jpg,0.0,clockno_default.jpg,1.0,16,,,,,,,,,,,,,,,,,,0.0,3.0,3.0,3.0,1.0,,,,,,,,,,
1.0,1.0,1.414,,,,,,treasure_08s.jpg,1.0,clockno_default.jpg,1.0,16,,,,,,,,,,,,,,,,,,0.0,4.0,4.0,4.0,1.0,,,,,,,,,,
0.0,1.0,1.447,,,,,,metronome_03s.jpg,0.0,clockno_default.jpg,1.0,16,,,,,,,,,,,,,,,,,,0.0,5.0,5.0,5.0,1.0,,,,,,,,,,
1.0,1.0,1.433,,,,,,treasure_08s.jpg,1.0,clockno_default.jpg,1.0,16,,,,,,,,,,,,,,,,,,0.0,6.0,6.0,6.0,1.0,,,,,,,,,,
0.0,1.0,1.131,,,,,,golf_club_03s.jpg,0.0,clockno_up.jpg,2.0,16,,,,,,,,,,,,,,,,,,0.0,7.0,7.0,7.0,1.0,,,,,,,,,,
0.0,1.0,1.313,,,,,,ruby_15s.jpg,0.0,clockno_default.jpg,2.0,16,,,,,,,,,,,,,,,,,,0.0,8.0,8.0,8.0,1.0,,,,,,,,,,
0.0,1.0,1.798,,,,,,purse_05s.jpg,0.0,clockno_default.jpg,2.0,16,,,,,,,,,,,,,,,,,,0.0,9.0,9.0,9.0,1.0,,,,,,,,,,
0.0,1.0,1.275,,,,,,top_hat_11s.jpg,0.0,clockno_default.jpg,2.0,16,,,,,,,,,,,,,,,,,,0.0,10.0,10.0,10.0,1.0,,,,,,,,,,
0.0,1.0,1.149,,,,,,peach_04s.jpg,0.0,clockno_default.jpg,2.0,16,,,,,,,,,,,,,,,,,,0.0,11.0,11.0,11.0,1.0,,,,,,,,,,
0.0,1.0,1.214,,,,,,coffee_filter_10s.jpg,0.0,clockno_up.jpg,3.0,16,,,,,,,,,,,,,,,,,,0.0,12.0,12.0,12.0,1.0,,,,,,,,,,
0.0,1.0,1.247,,,,,,tiger_06s.jpg,0.0,clockno_default.jpg,3.0,16,,,,,,,,,,,,,,,,,,0.0,13.0,13.0,13.0,1.0,,,,,,,,,,
0.0,1.0,1.18,,,,,,feather02.jpg,0.0,clockno_default.jpg,3.0,16,,,,,,,,,,,,,,,,,,0.0,14.0,14.0,14.0,1.0,,,,,,,,,,
0.0,1.0,1.314,,,,,,coral_08s.jpg,0.0,clockno_default.jpg,3.0,16,,,,,,,,,,,,,,,,,,0.0,15.0,15.0,15.0,1.0,,,,,,,,,,
0.0,1.0,2.416,,,,,,knitting_needle_04s.jpg,0.0,clockno_default.jpg,3.0,16,,,,,,,,,,,,,,,,,,0.0,16.0,16.0,16.0,1.0,,,,,,,,,,
0.0,1.0,1.333,,,,,,coat_rack_01b.jpg,0.0,clockno_up.jpg,4.0,16,,,,,,,,,,,,,,,,,,0.0,17.0,17.0,17.0,1.0,,,,,,,,,,
0.0,1.0,1.984,,,,,,coral_08s.jpg,0.0,clockno_default.jpg,4.0,16,,,,,,,,,,,,,,,,,,0.0,18.0,18.0,18.0,1.0,,,,,,,,,,
1.0,0.0,1.964,,,,,,knitting_needle_04s.jpg,0.0,clockno_default.jpg,4.0,16,,,,,,,,,,,,,,,,,,0.0,19.0,19.0,19.0,1.0,,,,,,,,,,
1.0,1.0,2.285,,,,,,coat_rack_01b.jpg,1.0,clockno_default.jpg,4.0,16,,,,,,,,,,,,,,,,,,0.0,20.0,20.0,20.0,1.0,,,,,,,,,,
0.0,1.0,1.163,,,,,,pacifier_09s.jpg,0.0,clockno_default.jpg,4.0,16,,,,,,,,,,,,,,,,,,0.0,21.0,21.0,21.0,1.0,,,,,,,,,,
0.0,1.0,1.632,,,,,,ruby_15s.jpg,0.0,clockno_default.jpg,4.0,16,,,,,,,,,,,,,,,,,,0.0,22.0,22.0,22.0,1.0,,,,,,,,,,
0.0,1.0,1.45,,,,,,rocking_chair_05s.jpg,0.0,clockno_up.jpg,5.0,16,,,,,,,,,,,,,,,,,,0.0,23.0,23.0,23.0,1.0,,,,,,,,,,
0.0,1.0,1.415,,,,,,binder_21s.jpg,0.0,clockno_default.jpg,5.0,16,,,,,,,,,,,,,,,,,,0.0,24.0,24.0,24.0,1.0,,,,,,,,,,
0.0,1.0,2.451,,,,,,rudder_02s.jpg,0.0,clockno_default.jpg,5.0,16,,,,,,,,,,,,,,,,,,0.0,25.0,25.0,25.0,1.0,,,,,,,,,,
0.0,1.0,1.218,,,,,,totem_pole_05s.jpg,0.0,clockno_default.jpg,5.0,16,,,,,,,,,,,,,,,,,,0.0,26.0,26.0,26.0,1.0,,,,,,,,,,
1.0,1.0,2.203,,,,,,totem_pole_05s.jpg,1.0,clockno_default.jpg,5.0,16,,,,,,,,,,,,,,,,,,0.0,27.0,27.0,27.0,1.0,,,,,,,,,,
0.0,1.0,1.132,,,,,,memory_stick_11s.jpg,0.0,clockno_default.jpg,5.0,16,,,,,,,,,,,,,,,,,,0.0,28.0,28.0,28.0,1.0,,,,,,,,,,
0.0,1.0,1.498,,,,,,slingshot_07s.jpg,0.0,clockno_up.jpg,6.0,16,,,,,,,,,,,,,,,,,,0.0,29.0,29.0,29.0,1.0,,,,,,,,,,
1.0,1.0,1.33,,,,,,slingshot_07s.jpg,1.0,clockno_default.jpg,6.0,16,,,,,,,,,,,,,,,,,,0.0,30.0,30.0,30.0,1.0,,,,,,,,,,
0.0,1.0,1.364,,,,,,duck_01b.jpg,0.0,clockno_default.jpg,6.0,16,,,,,,,,,,,,,,,,,,0.0,31.0,31.0,31.0,1.0,,,,,,,,,,
0.0,1.0,1.181,,,,,,fox_13s.jpg,0.0,clockno_default.jpg,6.0,16,,,,,,,,,,,,,,,,,,0.0,32.0,32.0,32.0,1.0,,,,,,,,,,
0.0,1.0,1.164,,,,,,popcorn_09s.jpg,0.0,clockno_default.jpg,6.0,16,,,,,,,,,,,,,,,,,,0.0,33.0,33.0,33.0,1.0,,,,,,,,,,
1.0,1.0,1.797,,,,,,duck_01b.jpg,1.0,clockno_default.jpg,6.0,16,,,,,,,,,,,,,,,,,,0.0,34.0,34.0,34.0,1.0,,,,,,,,,,
0.0,1.0,1.499,,,,,,stamp2_08s.jpg,0.0,clockno_default.jpg,6.0,16,,,,,,,,,,,,,,,,,,0.0,35.0,35.0,35.0,1.0,,,,,,,,,,
,,,,,,,,,0.0,,,16,1.0,0.0,1.728,,,,,,coffee_filter_10s.jpg,purse_05s.jpg,,,,,,,,,,,,,0.0,0.0,0.0,0.0,1.0,,,,,
,,,,,,,,,1.0,,,16,0.0,0.0,1.379,,,,,,peach_04s.jpg,feather02.jpg,,,,,,,,,,,,,0.0,1.0,1.0,1.0,1.0,,,,,
,,,,,,,,,0.0,,,16,1.0,0.0,2.499,,,,,,binder_21s.jpg,pacifier_09s.jpg,,,,,,,,,,,,,0.0,2.0,2.0,2.0,1.0,,,,,
,,,,,,,,,1.0,,,16,0.0,0.0,1.295,,,,,,comic_book_02s.jpg,metronome_03s.jpg,,,,,,,,,,,,,0.0,3.0,3.0,3.0,1.0,,,,,
,,,,,,,,,1.0,,,16,1.0,1.0,1.098,,,,,,rudder_02s.jpg,memory_stick_11s.jpg,,,,,,,,,,,,,0.0,4.0,4.0,4.0,1.0,,,,,
,,,,,,,,,0.0,,,16,1.0,0.0,1.112,,,,,,stamp2_08s.jpg,fox_13s.jpg,,,,,,,,,,,,,0.0,5.0,5.0,5.0,1.0,,,,,
,,,,,,,,,,,,16,,,,,,,,,,,,,,,,clockno_present_5_14.xlsx,clockno_compare_task_5_14.xlsx,,,,,,,,,,,0.0,4.0,4.0,4.0,1.0
0.0,1.0,1.663,,,,,,popsicle_02s.jpg,0.0,clockno_up.jpg,1.0,16,,,,,,,,,,,,,,,,,,0.0,0.0,0.0,0.0,1.0,,,,,,,,,,
0.0,1.0,1.58,,,,,,emerald_02s.jpg,0.0,clockno_default.jpg,1.0,16,,,,,,,,,,,,,,,,,,0.0,1.0,1.0,1.0,1.0,,,,,,,,,,
1.0,1.0,2.383,,,,,,popsicle_02s.jpg,1.0,clockno_default.jpg,1.0,16,,,,,,,,,,,,,,,,,,0.0,2.0,2.0,2.0,1.0,,,,,,,,,,
0.0,1.0,1.331,,,,,,glue_01s.jpg,0.0,clockno_default.jpg,1.0,16,,,,,,,,,,,,,,,,,,0.0,3.0,3.0,3.0,1.0,,,,,,,,,,
1.0,1.0,1.749,,,,,,popsicle_02s.jpg,1.0,clockno_default.jpg,1.0,16,,,,,,,,,,,,,,,,,,0.0,4.0,4.0,4.0,1.0,,,,,,,,,,
1.0,1.0,1.452,,,,,,emerald_02s.jpg,1.0,clockno_default.jpg,1.0,16,,,,,,,,,,,,,,,,,,0.0,5.0,5.0,5.0,1.0,,,,,,,,,,
0.0,1.0,1.498,,,,,,pillbox_04s.jpg,0.0,clockno_up.jpg,2.0,16,,,,,,,,,,,,,,,,,,0.0,6.0,6.0,6.0,1.0,,,,,,,,,,
0.0,1.0,1.182,,,,,,scooter.jpg,0.0,clockno_default.jpg,2.0,16,,,,,,,,,,,,,,,,,,0.0,7.0,7.0,7.0,1.0,,,,,,,,,,
0.0,1.0,1.231,,,,,,cardinal_07s.jpg,0.0,clockno_default.jpg,2.0,16,,,,,,,,,,,,,,,,,,0.0,8.0,8.0,8.0,1.0,,,,,,,,,,
1.0,1.0,1.548,,,,,,cardinal_07s.jpg,1.0,clockno_default.jpg,2.0,16,,,,,,,,,,,,,,,,,,0.0,9.0,9.0,9.0,1.0,,,,,,,,,,
0.0,1.0,1.73,,,,,,chip_04s.jpg,0.0,clockno_default.jpg,2.0,16,,,,,,,,,,,,,,,,,,0.0,10.0,10.0,10.0,1.0,,,,,,,,,,
0.0,1.0,1.348,,,,,,owl_15s.jpg,0.0,clockno_up.jpg,3.0,16,,,,,,,,,,,,,,,,,,0.0,11.0,11.0,11.0,1.0,,,,,,,,,,
1.0,1.0,1.666,,,,,,owl_15s.jpg,1.0,clockno_default.jpg,3.0,16,,,,,,,,,,,,,,,,,,0.0,12.0,12.0,12.0,1.0,,,,,,,,,,
0.0,1.0,2.331,,,,,,mango_09s.jpg,0.0,clockno_default.jpg,3.0,16,,,,,,,,,,,,,,,,,,0.0,13.0,13.0,13.0,1.0,,,,,,,,,,
1.0,0.0,2.033,,,,,,pantyhose_07s.jpg,0.0,clockno_default.jpg,3.0,16,,,,,,,,,,,,,,,,,,0.0,14.0,14.0,14.0,1.0,,,,,,,,,,
0.0,1.0,1.215,,,,,,coconut_08s.jpg,0.0,clockno_default.jpg,3.0,16,,,,,,,,,,,,,,,,,,0.0,15.0,15.0,15.0,1.0,,,,,,,,,,
0.0,1.0,2.399,,,,,,potholder_02s.jpg,0.0,clockno_default.jpg,3.0,16,,,,,,,,,,,,,,,,,,0.0,16.0,16.0,16.0,1.0,,,,,,,,,,
0.0,1.0,1.014,,,,,,solar_panel_02s.jpg,0.0,clockno_up.jpg,4.0,16,,,,,,,,,,,,,,,,,,0.0,17.0,17.0,17.0,1.0,,,,,,,,,,
0.0,1.0,1.065,,,,,,touchpad_11s.jpg,0.0,clockno_default.jpg,4.0,16,,,,,,,,,,,,,,,,,,0.0,18.0,18.0,18.0,1.0,,,,,,,,,,
0.0,1.0,1.198,,,,,,rice_12s.jpg,0.0,clockno_default.jpg,4.0,16,,,,,,,,,,,,,,,,,,0.0,19.0,19.0,19.0,1.0,,,,,,,,,,
0.0,1.0,1.482,,,,,,machete_06s.jpg,0.0,clockno_default.jpg,4.0,16,,,,,,,,,,,,,,,,,,0.0,20.0,20.0,20.0,1.0,,,,,,,,,,
1.0,1.0,1.629,,,,,,touchpad_11s.jpg,1.0,clockno_default.jpg,4.0,16,,,,,,,,,,,,,,,,,,0.0,21.0,21.0,21.0,1.0,,,,,,,,,,
0.0,1.0,1.433,,,,,,trumpet_06s.jpg,0.0,clockno_default.jpg,4.0,16,,,,,,,,,,,,,,,,,,0.0,22.0,22.0,22.0,1.0,,,,,,,,,,
1.0,1.0,1.632,,,,,,touchpad_11s.jpg,1.0,clockno_default.jpg,4.0,16,,,,,,,,,,,,,,,,,,0.0,23.0,23.0,23.0,1.0,,,,,,,,,,
0.0,1.0,1.582,,,,,,lamb_04s.jpg,0.0,clockno_up.jpg,5.0,16,,,,,,,,,,,,,,,,,,0.0,24.0,24.0,24.0,1.0,,,,,,,,,,
0.0,1.0,1.478,,,,,,cucumber_07s.jpg,0.0,clockno_default.jpg,5.0,16,,,,,,,,,,,,,,,,,,0.0,25.0,25.0,25.0,1.0,,,,,,,,,,
0.0,1.0,0.913,,,,,,police_car_01s.jpg,0.0,clockno_default.jpg,5.0,16,,,,,,,,,,,,,,,,,,0.0,26.0,26.0,26.0,1.0,,,,,,,,,,
0.0,1.0,1.48,,,,,,latte_06s.jpg,0.0,clockno_default.jpg,5.0,16,,,,,,,,,,,,,,,,,,0.0,27.0,27.0,27.0,1.0,,,,,,,,,,
1.0,1.0,1.563,,,,,,police_car_01s.jpg,1.0,clockno_default.jpg,5.0,16,,,,,,,,,,,,,,,,,,0.0,28.0,28.0,28.0,1.0,,,,,,,,,,
0.0,1.0,1.48,,,,,,crab_16s.jpg,0.0,clockno_default.jpg,5.0,16,,,,,,,,,,,,,,,,,,0.0,29.0,29.0,29.0,1.0,,,,,,,,,,
0.0,1.0,1.366,,,,,,toaster_03s.jpg,0.0,clockno_default.jpg,5.0,16,,,,,,,,,,,,,,,,,,0.0,30.0,30.0,30.0,1.0,,,,,,,,,,
0.0,1.0,2.1,,,,,,parachute_03s.jpg,0.0,clockno_up.jpg,6.0,16,,,,,,,,,,,,,,,,,,0.0,31.0,31.0,31.0,1.0,,,,,,,,,,
0.0,1.0,1.347,,,,,,punch2_09s.jpg,0.0,clockno_default.jpg,6.0,16,,,,,,,,,,,,,,,,,,0.0,32.0,32.0,32.0,1.0,,,,,,,,,,
0.0,1.0,1.235,,,,,,touchpad_11s.jpg,0.0,clockno_default.jpg,6.0,16,,,,,,,,,,,,,,,,,,0.0,33.0,33.0,33.0,1.0,,,,,,,,,,
0.0,1.0,1.368,,,,,,ginger_09s.jpg,0.0,clockno_default.jpg,6.0,16,,,,,,,,,,,,,,,,,,0.0,34.0,34.0,34.0,1.0,,,,,,,,,,
1.0,1.0,1.964,,,,,,ginger_09s.jpg,1.0,clockno_default.jpg,6.0,16,,,,,,,,,,,,,,,,,,0.0,35.0,35.0,35.0,1.0,,,,,,,,,,
,,,,,,,,,1.0,,,16,1.0,1.0,1.89,,,,,,glue_01s.jpg,pillbox_04s.jpg,,,,,,,,,,,,,0.0,0.0,0.0,0.0,1.0,,,,,
,,,,,,,,,0.0,,,16,1.0,0.0,1.282,,,,,,punch2_09s.jpg,crab_16s.jpg,,,,,,,,,,,,,0.0,1.0,1.0,1.0,1.0,,,,,
,,,,,,,,,0.0,,,16,1.0,0.0,1.367,,,,,,solar_panel_02s.jpg,pantyhose_07s.jpg,,,,,,,,,,,,,0.0,2.0,2.0,2.0,1.0,,,,,
,,,,,,,,,0.0,,,16,0.0,1.0,1.348,,,,,,latte_06s.jpg,lamb_04s.jpg,,,,,,,,,,,,,0.0,3.0,3.0,3.0,1.0,,,,,
,,,,,,,,,1.0,,,16,0.0,0.0,1.184,,,,,,scooter.jpg,chip_04s.jpg,,,,,,,,,,,,,0.0,4.0,4.0,4.0,1.0,,,,,
,,,,,,,,,1.0,,,16,1.0,1.0,1.596,,,,,,mango_09s.jpg,potholder_02s.jpg,,,,,,,,,,,,,0.0,5.0,5.0,5.0,1.0,,,,,
