key_resp.keys,key_resp.corr,key_resp.rt,noclock_loop.thisRepN,noclock_loop.thisTrialN,noclock_loop.thisN,noclock_loop.thisIndex,noclock_loop.ran,pictures,answer,clock,segment,participant,key_resp_2.keys,key_resp_2.corr,key_resp_2.rt,noclock_loop2.thisRepN,noclock_loop2.thisTrialN,noclock_loop2.thisN,noclock_loop2.thisIndex,noclock_loop2.ran,item_a,item_b,noclock_condition.thisRepN,noclock_condition.thisTrialN,noclock_condition.thisN,noclock_condition.thisIndex,noclock_condition.ran,present,compare,present_segment.thisRepN,present_segment.thisTrialN,present_segment.thisN,present_segment.thisIndex,present_segment.ran,compare_segment.thisRepN,compare_segment.thisTrialN,compare_segment.thisN,compare_segment.thisIndex,compare_segment.ran,clock_conditions.thisRepN,clock_conditions.thisTrialN,clock_conditions.thisN,clock_conditions.thisIndex,clock_conditions.ran
0.0,1.0,1.053135,0.0,0.0,0.0,0.0,1.0,stamp1_11s.jpg,0.0,clockno_up.jpg,1.0,33,,,,,,,,,,,,,,,,,,,,,,,,,,,,,,,,
,0.0,,0.0,1.0,1.0,1.0,1.0,stamp1_11s.jpg,1.0,clockno_default.jpg,1.0,33,,,,,,,,,,,,,,,,,,,,,,,,,,,,,,,,
0.0,1.0,1.075405,0.0,2.0,2.0,2.0,1.0,bacon_05s.jpg,0.0,clockno_default.jpg,1.0,33,,,,,,,,,,,,,,,,,,,,,,,,,,,,,,,,
0.0,1.0,1.106595,0.0,3.0,3.0,3.0,1.0,owl_15s.jpg,0.0,clockno_default.jpg,1.0,33,,,,,,,,,,,,,,,,,,,,,,,,,,,,,,,,
1.0,1.0,1.041225,0.0,4.0,4.0,4.0,1.0,owl_15s.jpg,1.0,clockno_default.jpg,1.0,33,,,,,,,,,,,,,,,,,,,,,,,,,,,,,,,,
0.0,1.0,1.415985,0.0,5.0,5.0,5.0,1.0,eiffeltower.jpg,0.0,clockno_up.jpg,2.0,33,,,,,,,,,,,,,,,,,,,,,,,,,,,,,,,,
0.0,1.0,1.35172,0.0,6.0,6.0,6.0,1.0,film_03s.jpg,0.0,clockno_default.jpg,2.0,33,,,,,,,,,,,,,,,,,,,,,,,,,,,,,,,,
1.0,1.0,1.023125,0.0,7.0,7.0,7.0,1.0,eiffeltower.jpg,1.0,clockno_default.jpg,2.0,33,,,,,,,,,,,,,,,,,,,,,,,,,,,,,,,,
0.0,1.0,1.00681,0.0,8.0,8.0,8.0,1.0,abacus_12s.jpg,0.0,clockno_default.jpg,2.0,33,,,,,,,,,,,,,,,,,,,,,,,,,,,,,,,,
1.0,1.0,1.361465,0.0,9.0,9.0,9.0,1.0,eiffeltower.jpg,1.0,clockno_default.jpg,2.0,33,,,,,,,,,,,,,,,,,,,,,,,,,,,,,,,,
0.0,1.0,0.96534,0.0,10.0,10.0,10.0,1.0,ram_05s.jpg,0.0,clockno_up.jpg,3.0,33,,,,,,,,,,,,,,,,,,,,,,,,,,,,,,,,
0.0,1.0,0.74398,0.0,11.0,11.0,11.0,1.0,fox_13s.jpg,0.0,clockno_default.jpg,3.0,33,,,,,,,,,,,,,,,,,,,,,,,,,,,,,,,,
0.0,1.0,0.81428,0.0,12.0,12.0,12.0,1.0,triangle_10s.jpg,0.0,clockno_default.jpg,3.0,33,,,,,,,,,,,,,,,,,,,,,,,,,,,,,,,,
0.0,1.0,0.791555,0.0,13.0,13.0,13.0,1.0,key_07s.jpg,0.0,clockno_default.jpg,3.0,33,,,,,,,,,,,,,,,,,,,,,,,,,,,,,,,,
0.0,1.0,1.043125,0.0,14.0,14.0,14.0,1.0,plaster_cast_13s.jpg,0.0,clockno_default.jpg,3.0,33,,,,,,,,,,,,,,,,,,,,,,,,,,,,,,,,
0.0,1.0,0.82438,0.0,15.0,15.0,15.0,1.0,fishhook_06s.jpg,0.0,clockno_default.jpg,3.0,33,,,,,,,,,,,,,,,,,,,,,,,,,,,,,,,,
0.0,1.0,0.935805,0.0,16.0,16.0,16.0,1.0,poinsettia_04s.jpg,0.0,clockno_default.jpg,3.0,33,,,,,,,,,,,,,,,,,,,,,,,,,,,,,,,,
0.0,1.0,0.91808,0.0,17.0,17.0,17.0,1.0,teacup_07s.jpg,0.0,clockno_up.jpg,4.0,33,,,,,,,,,,,,,,,,,,,,,,,,,,,,,,,,
0.0,1.0,0.790945,0.0,18.0,18.0,18.0,1.0,rabbit_03s.jpg,0.0,clockno_default.jpg,4.0,33,,,,,,,,,,,,,,,,,,,,,,,,,,,,,,,,
1.0,1.0,0.99406,0.0,19.0,19.0,19.0,1.0,rabbit_03s.jpg,1.0,clockno_default.jpg,4.0,33,,,,,,,,,,,,,,,,,,,,,,,,,,,,,,,,
0.0,1.0,0.778865,0.0,20.0,20.0,20.0,1.0,powder_07s.jpg,0.0,clockno_default.jpg,4.0,33,,,,,,,,,,,,,,,,,,,,,,,,,,,,,,,,
0.0,1.0,0.89573,0.0,21.0,21.0,21.0,1.0,gas_mask_11s.jpg,0.0,clockno_default.jpg,4.0,33,,,,,,,,,,,,,,,,,,,,,,,,,,,,,,,,
0.0,1.0,0.90566,0.0,22.0,22.0,22.0,1.0,loveseat_08s.jpg,0.0,clockno_default.jpg,4.0,33,,,,,,,,,,,,,,,,,,,,,,,,,,,,,,,,
0.0,1.0,1.19374,0.0,23.0,23.0,23.0,1.0,pan_02s.jpg,0.0,clockno_up.jpg,5.0,33,,,,,,,,,,,,,,,,,,,,,,,,,,,,,,,,
0.0,1.0,0.73984,0.0,24.0,24.0,24.0,1.0,mirror_12s.jpg,0.0,clockno_default.jpg,5.0,33,,,,,,,,,,,,,,,,,,,,,,,,,,,,,,,,
0.0,1.0,0.83204,0.0,25.0,25.0,25.0,1.0,puppy_08s.jpg,0.0,clockno_default.jpg,5.0,33,,,,,,,,,,,,,,,,,,,,,,,,,,,,,,,,
0.0,1.0,0.70638,0.0,26.0,26.0,26.0,1.0,laser_pointer_02s.jpg,0.0,clockno_default.jpg,5.0,33,,,,,,,,,,,,,,,,,,,,,,,,,,,,,,,,
1.0,1.0,1.06883,0.0,27.0,27.0,27.0,1.0,puppy_08s.jpg,1.0,clockno_default.jpg,5.0,33,,,,,,,,,,,,,,,,,,,,,,,,,,,,,,,,
0.0,1.0,0.8131,0.0,28.0,28.0,28.0,1.0,tablet_04s.jpg,0.0,clockno_default.jpg,5.0,33,,,,,,,,,,,,,,,,,,,,,,,,,,,,,,,,
0.0,1.0,0.75685,0.0,29.0,29.0,29.0,1.0,jewel_01b.jpg,0.0,clockno_default.jpg,5.0,33,,,,,,,,,,,,,,,,,,,,,,,,,,,,,,,,
0.0,1.0,0.8474,0.0,30.0,30.0,30.0,1.0,crystal_ball_12s.jpg,0.0,clockno_up.jpg,6.0,33,,,,,,,,,,,,,,,,,,,,,,,,,,,,,,,,
0.0,1.0,0.87559,0.0,31.0,31.0,31.0,1.0,mud_13s.jpg,0.0,clockno_default.jpg,6.0,33,,,,,,,,,,,,,,,,,,,,,,,,,,,,,,,,
0.0,1.0,0.94137,0.0,32.0,32.0,32.0,1.0,bee_20s.jpg,0.0,clockno_default.jpg,6.0,33,,,,,,,,,,,,,,,,,,,,,,,,,,,,,,,,
1.0,1.0,1.07666,0.0,33.0,33.0,33.0,1.0,mud_13s.jpg,1.0,clockno_default.jpg,6.0,33,,,,,,,,,,,,,,,,,,,,,,,,,,,,,,,,
0.0,1.0,0.845865,0.0,34.0,34.0,34.0,1.0,glue_01s.jpg,0.0,clockno_default.jpg,6.0,33,,,,,,,,,,,,,,,,,,,,,,,,,,,,,,,,
0.0,1.0,0.996435,0.0,35.0,35.0,35.0,1.0,potpourri_03s.jpg,0.0,clockno_default.jpg,6.0,33,,,,,,,,,,,,,,,,,,,,,,,,,,,,,,,,
,,,,,,,,,0.0,,,33,1.0,0.0,3.37075,0.0,0.0,0.0,0.0,1.0,mirror_12s.jpg,gas_mask_11s.jpg,,,,,,,,,,,,,,,,,,,,,,
,,,,,,,,,0.0,,,33,1.0,0.0,2.64683,0.0,1.0,1.0,1.0,1.0,fox_13s.jpg,abacus_12s.jpg,,,,,,,,,,,,,,,,,,,,,,
,,,,,,,,,1.0,,,33,0.0,0.0,2.94464,0.0,2.0,2.0,2.0,1.0,plaster_cast_13s.jpg,teacup_07s.jpg,,,,,,,,,,,,,,,,,,,,,,
,,,,,,,,,1.0,,,33,1.0,1.0,2.591015,0.0,3.0,3.0,3.0,1.0,ram_05s.jpg,key_07s.jpg,,,,,,,,,,,,,,,,,,,,,,
,,,,,,,,,0.0,,,33,1.0,0.0,1.64148,0.0,4.0,4.0,4.0,1.0,fishhook_06s.jpg,triangle_10s.jpg,,,,,,,,,,,,,,,,,,,,,,
,,,,,,,,,1.0,,,33,1.0,1.0,3.33865,0.0,5.0,5.0,5.0,1.0,pan_02s.jpg,laser_pointer_02s.jpg,,,,,,,,,,,,,,,,,,,,,,
,,,,,,,,,,,,33,,,,,,,,,,,0.0,0.0,0.0,0.0,1.0,clockno_present_1_17.xlsx,clockno_compare_task_1_17.xlsx,,,,,,,,,,,,,,,
1.0,0.0,2.035405,0.0,0.0,0.0,0.0,1.0,rope_16s.jpg,0.0,clockno_up.jpg,1.0,33,,,,,,,,,,,,,,,,,,,,,,,,,,,,,,,,
0.0,1.0,0.85538,0.0,1.0,1.0,1.0,1.0,stopwatch_04s.jpg,0.0,clockno_default.jpg,1.0,33,,,,,,,,,,,,,,,,,,,,,,,,,,,,,,,,
1.0,1.0,1.462655,0.0,2.0,2.0,2.0,1.0,rope_16s.jpg,1.0,clockno_default.jpg,1.0,33,,,,,,,,,,,,,,,,,,,,,,,,,,,,,,,,
0.0,1.0,0.69895,0.0,3.0,3.0,3.0,1.0,milk_02s.jpg,0.0,clockno_default.jpg,1.0,33,,,,,,,,,,,,,,,,,,,,,,,,,,,,,,,,
1.0,1.0,1.876275,0.0,4.0,4.0,4.0,1.0,milk_02s.jpg,1.0,clockno_default.jpg,1.0,33,,,,,,,,,,,,,,,,,,,,,,,,,,,,,,,,
0.0,1.0,1.4806,0.0,5.0,5.0,5.0,1.0,bathtub_23s.jpg,0.0,clockno_up.jpg,2.0,33,,,,,,,,,,,,,,,,,,,,,,,,,,,,,,,,
,0.0,,0.0,6.0,6.0,6.0,1.0,bathtub_23s.jpg,1.0,clockno_default.jpg,2.0,33,,,,,,,,,,,,,,,,,,,,,,,,,,,,,,,,
0.0,1.0,0.96183,0.0,7.0,7.0,7.0,1.0,playpen_11s.jpg,0.0,clockno_default.jpg,2.0,33,,,,,,,,,,,,,,,,,,,,,,,,,,,,,,,,
0.0,1.0,1.24021,0.0,8.0,8.0,8.0,1.0,fork_04s.jpg,0.0,clockno_default.jpg,2.0,33,,,,,,,,,,,,,,,,,,,,,,,,,,,,,,,,
1.0,0.0,1.19757,0.0,9.0,9.0,9.0,1.0,milk_02s.jpg,0.0,clockno_default.jpg,2.0,33,,,,,,,,,,,,,,,,,,,,,,,,,,,,,,,,
0.0,1.0,0.760005,0.0,10.0,10.0,10.0,1.0,orchid_01b.jpg,0.0,clockno_default.jpg,2.0,33,,,,,,,,,,,,,,,,,,,,,,,,,,,,,,,,
0.0,1.0,0.868145,0.0,11.0,11.0,11.0,1.0,tiger_06s.jpg,0.0,clockno_default.jpg,2.0,33,,,,,,,,,,,,,,,,,,,,,,,,,,,,,,,,
0.0,1.0,1.268815,0.0,12.0,12.0,12.0,1.0,toad_09s.jpg,0.0,clockno_up.jpg,3.0,33,,,,,,,,,,,,,,,,,,,,,,,,,,,,,,,,
0.0,1.0,0.838025,0.0,13.0,13.0,13.0,1.0,keyhole_03s.jpg,0.0,clockno_default.jpg,3.0,33,,,,,,,,,,,,,,,,,,,,,,,,,,,,,,,,
0.0,1.0,0.79139,0.0,14.0,14.0,14.0,1.0,roulette_wheel_04s.jpg,0.0,clockno_default.jpg,3.0,33,,,,,,,,,,,,,,,,,,,,,,,,,,,,,,,,
0.0,1.0,0.789985,0.0,15.0,15.0,15.0,1.0,lid_10s.jpg,0.0,clockno_default.jpg,3.0,33,,,,,,,,,,,,,,,,,,,,,,,,,,,,,,,,
0.0,1.0,1.15706,0.0,16.0,16.0,16.0,1.0,exhaust_pipe_10s.jpg,0.0,clockno_default.jpg,3.0,33,,,,,,,,,,,,,,,,,,,,,,,,,,,,,,,,
0.0,1.0,0.843285,0.0,17.0,17.0,17.0,1.0,sugar_cube_11s.jpg,0.0,clockno_default.jpg,3.0,33,,,,,,,,,,,,,,,,,,,,,,,,,,,,,,,,
0.0,1.0,0.921855,0.0,18.0,18.0,18.0,1.0,rooster_03s.jpg,0.0,clockno_up.jpg,4.0,33,,,,,,,,,,,,,,,,,,,,,,,,,,,,,,,,
0.0,1.0,0.898715,0.0,19.0,19.0,19.0,1.0,fire_alarm_05s.jpg,0.0,clockno_default.jpg,4.0,33,,,,,,,,,,,,,,,,,,,,,,,,,,,,,,,,
0.0,1.0,0.95636,0.0,20.0,20.0,20.0,1.0,playpen_11s.jpg,0.0,clockno_default.jpg,4.0,33,,,,,,,,,,,,,,,,,,,,,,,,,,,,,,,,
0.0,1.0,0.89112,0.0,21.0,21.0,21.0,1.0,keyhole_03s.jpg,0.0,clockno_default.jpg,4.0,33,,,,,,,,,,,,,,,,,,,,,,,,,,,,,,,,
1.0,1.0,1.27848,0.0,22.0,22.0,22.0,1.0,keyhole_03s.jpg,1.0,clockno_default.jpg,4.0,33,,,,,,,,,,,,,,,,,,,,,,,,,,,,,,,,
0.0,1.0,1.199645,0.0,23.0,23.0,23.0,1.0,mosquito_12s.jpg,0.0,clockno_default.jpg,4.0,33,,,,,,,,,,,,,,,,,,,,,,,,,,,,,,,,
0.0,1.0,1.394865,0.0,24.0,24.0,24.0,1.0,light_switch_02s.jpg,0.0,clockno_default.jpg,4.0,33,,,,,,,,,,,,,,,,,,,,,,,,,,,,,,,,
0.0,1.0,0.94125,0.0,25.0,25.0,25.0,1.0,koala_13s.jpg,0.0,clockno_up.jpg,5.0,33,,,,,,,,,,,,,,,,,,,,,,,,,,,,,,,,
0.0,1.0,0.72471,0.0,26.0,26.0,26.0,1.0,leash_10s.jpg,0.0,clockno_default.jpg,5.0,33,,,,,,,,,,,,,,,,,,,,,,,,,,,,,,,,
0.0,1.0,0.59804,0.0,27.0,27.0,27.0,1.0,sunglasses_11s.jpg,0.0,clockno_default.jpg,5.0,33,,,,,,,,,,,,,,,,,,,,,,,,,,,,,,,,
1.0,1.0,1.214705,0.0,28.0,28.0,28.0,1.0,sunglasses_11s.jpg,1.0,clockno_default.jpg,5.0,33,,,,,,,,,,,,,,,,,,,,,,,,,,,,,,,,
0.0,1.0,1.107345,0.0,29.0,29.0,29.0,1.0,insole_11s.jpg,0.0,clockno_default.jpg,5.0,33,,,,,,,,,,,,,,,,,,,,,,,,,,,,,,,,
0.0,1.0,1.16176,0.0,30.0,30.0,30.0,1.0,juicer2_06s.jpg,0.0,clockno_default.jpg,5.0,33,,,,,,,,,,,,,,,,,,,,,,,,,,,,,,,,
0.0,1.0,1.30711,0.0,31.0,31.0,31.0,1.0,stethoscope_01b.jpg,0.0,clockno_up.jpg,6.0,33,,,,,,,,,,,,,,,,,,,,,,,,,,,,,,,,
0.0,1.0,0.757895,0.0,32.0,32.0,32.0,1.0,torch_02s.jpg,0.0,clockno_default.jpg,6.0,33,,,,,,,,,,,,,,,,,,,,,,,,,,,,,,,,
0.0,1.0,0.73081,0.0,33.0,33.0,33.0,1.0,duck_01b.jpg,0.0,clockno_default.jpg,6.0,33,,,,,,,,,,,,,,,,,,,,,,,,,,,,,,,,
0.0,1.0,0.841735,0.0,34.0,34.0,34.0,1.0,jigsaw_puzzle_11s.jpg,0.0,clockno_default.jpg,6.0,33,,,,,,,,,,,,,,,,,,,,,,,,,,,,,,,,
0.0,1.0,0.85835,0.0,35.0,35.0,35.0,1.0,mop_08s.jpg,0.0,clockno_default.jpg,6.0,33,,,,,,,,,,,,,,,,,,,,,,,,,,,,,,,,
,,,,,,,,,0.0,,,33,0.0,1.0,6.50872,0.0,0.0,0.0,0.0,1.0,fire_alarm_05s.jpg,exhaust_pipe_10s.jpg,,,,,,,,,,,,,,,,,,,,,,
,,,,,,,,,1.0,,,33,1.0,1.0,2.175715,0.0,1.0,1.0,1.0,1.0,juicer2_06s.jpg,duck_01b.jpg,,,,,,,,,,,,,,,,,,,,,,
,,,,,,,,,1.0,,,33,1.0,1.0,1.543995,0.0,2.0,2.0,2.0,1.0,lid_10s.jpg,rooster_03s.jpg,,,,,,,,,,,,,,,,,,,,,,
,,,,,,,,,1.0,,,33,1.0,1.0,2.497035,0.0,3.0,3.0,3.0,1.0,stethoscope_01b.jpg,jigsaw_puzzle_11s.jpg,,,,,,,,,,,,,,,,,,,,,,
,,,,,,,,,0.0,,,33,1.0,0.0,1.440895,0.0,4.0,4.0,4.0,1.0,tiger_06s.jpg,fork_04s.jpg,,,,,,,,,,,,,,,,,,,,,,
,,,,,,,,,0.0,,,33,0.0,1.0,0.928925,0.0,5.0,5.0,5.0,1.0,sugar_cube_11s.jpg,roulette_wheel_04s.jpg,,,,,,,,,,,,,,,,,,,,,,
,,,,,,,,,,,,33,,,,,,,,,,,0.0,1.0,1.0,1.0,1.0,clockno_present_2_17.xlsx,clockno_compare_task_2_17.xlsx,,,,,,,,,,,,,,,
0.0,1.0,1.185165,0.0,0.0,0.0,0.0,1.0,fossil_06s.jpg,0.0,clockno_up.jpg,1.0,33,,,,,,,,,,,,,,,,,,,,,,,,,,,,,,,,
0.0,1.0,0.840935,0.0,1.0,1.0,1.0,1.0,ladle_04s.jpg,0.0,clockno_default.jpg,1.0,33,,,,,,,,,,,,,,,,,,,,,,,,,,,,,,,,
0.0,1.0,0.873325,0.0,2.0,2.0,2.0,1.0,moth_06n.jpg,0.0,clockno_default.jpg,1.0,33,,,,,,,,,,,,,,,,,,,,,,,,,,,,,,,,
0.0,1.0,0.628685,0.0,3.0,3.0,3.0,1.0,magnet_03s.jpg,0.0,clockno_default.jpg,1.0,33,,,,,,,,,,,,,,,,,,,,,,,,,,,,,,,,
0.0,0.0,1.141855,0.0,4.0,4.0,4.0,1.0,fossil_06s.jpg,1.0,clockno_default.jpg,1.0,33,,,,,,,,,,,,,,,,,,,,,,,,,,,,,,,,
0.0,1.0,1.00384,0.0,5.0,5.0,5.0,1.0,joystick_01b.jpg,0.0,clockno_up.jpg,2.0,33,,,,,,,,,,,,,,,,,,,,,,,,,,,,,,,,
0.0,1.0,0.77664,0.0,6.0,6.0,6.0,1.0,giraffe_11s.jpg,0.0,clockno_default.jpg,2.0,33,,,,,,,,,,,,,,,,,,,,,,,,,,,,,,,,
0.0,1.0,0.930745,0.0,7.0,7.0,7.0,1.0,money_07s.jpg,0.0,clockno_default.jpg,2.0,33,,,,,,,,,,,,,,,,,,,,,,,,,,,,,,,,
0.0,1.0,0.86181,0.0,8.0,8.0,8.0,1.0,lemonade_04s.jpg,0.0,clockno_default.jpg,2.0,33,,,,,,,,,,,,,,,,,,,,,,,,,,,,,,,,
0.0,1.0,1.376845,0.0,9.0,9.0,9.0,1.0,fossil_06s.jpg,0.0,clockno_default.jpg,2.0,33,,,,,,,,,,,,,,,,,,,,,,,,,,,,,,,,
0.0,1.0,1.74939,0.0,10.0,10.0,10.0,1.0,lectern_08s.jpg,0.0,clockno_default.jpg,2.0,33,,,,,,,,,,,,,,,,,,,,,,,,,,,,,,,,
0.0,1.0,1.407735,0.0,11.0,11.0,11.0,1.0,bottle_opener_11s.jpg,0.0,clockno_up.jpg,3.0,33,,,,,,,,,,,,,,,,,,,,,,,,,,,,,,,,
0.0,1.0,0.958455,0.0,12.0,12.0,12.0,1.0,pie_08s.jpg,0.0,clockno_default.jpg,3.0,33,,,,,,,,,,,,,,,,,,,,,,,,,,,,,,,,
0.0,1.0,0.60866,0.0,13.0,13.0,13.0,1.0,ivy_12s.jpg,0.0,clockno_default.jpg,3.0,33,,,,,,,,,,,,,,,,,,,,,,,,,,,,,,,,
0.0,1.0,1.0142,0.0,14.0,14.0,14.0,1.0,fossil_06s.jpg,0.0,clockno_default.jpg,3.0,33,,,,,,,,,,,,,,,,,,,,,,,,,,,,,,,,
0.0,1.0,1.006065,0.0,15.0,15.0,15.0,1.0,thermostat_02s.jpg,0.0,clockno_default.jpg,3.0,33,,,,,,,,,,,,,,,,,,,,,,,,,,,,,,,,
0.0,1.0,1.10732,0.0,16.0,16.0,16.0,1.0,plunger_08s.jpg,0.0,clockno_default.jpg,3.0,33,,,,,,,,,,,,,,,,,,,,,,,,,,,,,,,,
0.0,1.0,1.16219,0.0,17.0,17.0,17.0,1.0,pepper_mill_03s.jpg,0.0,clockno_default.jpg,3.0,33,,,,,,,,,,,,,,,,,,,,,,,,,,,,,,,,
0.0,1.0,2.104265,0.0,18.0,18.0,18.0,1.0,penguin_16s.jpg,0.0,clockno_up.jpg,4.0,33,,,,,,,,,,,,,,,,,,,,,,,,,,,,,,,,
0.0,1.0,0.82483,0.0,19.0,19.0,19.0,1.0,turtle_08s.jpg,0.0,clockno_default.jpg,4.0,33,,,,,,,,,,,,,,,,,,,,,,,,,,,,,,,,
0.0,1.0,0.693935,0.0,20.0,20.0,20.0,1.0,onion_10s.jpg,0.0,clockno_default.jpg,4.0,33,,,,,,,,,,,,,,,,,,,,,,,,,,,,,,,,
0.0,1.0,1.21077,0.0,21.0,21.0,21.0,1.0,bottle_opener_11s.jpg,0.0,clockno_default.jpg,4.0,33,,,,,,,,,,,,,,,,,,,,,,,,,,,,,,,,
0.0,1.0,0.7236,0.0,22.0,22.0,22.0,1.0,lava_02s.jpg,0.0,clockno_default.jpg,4.0,33,,,,,,,,,,,,,,,,,,,,,,,,,,,,,,,,
0.0,1.0,0.657405,0.0,23.0,23.0,23.0,1.0,pillow_03s.jpg,0.0,clockno_default.jpg,4.0,33,,,,,,,,,,,,,,,,,,,,,,,,,,,,,,,,
0.0,1.0,1.04916,0.0,24.0,24.0,24.0,1.0,ink_08s.jpg,0.0,clockno_up.jpg,5.0,33,,,,,,,,,,,,,,,,,,,,,,,,,,,,,,,,
0.0,1.0,0.823855,0.0,25.0,25.0,25.0,1.0,juicer1_08s.jpg,0.0,clockno_default.jpg,5.0,33,,,,,,,,,,,,,,,,,,,,,,,,,,,,,,,,
0.0,1.0,0.9298,0.0,26.0,26.0,26.0,1.0,crate_05s.jpg,0.0,clockno_default.jpg,5.0,33,,,,,,,,,,,,,,,,,,,,,,,,,,,,,,,,
0.0,1.0,0.640025,0.0,27.0,27.0,27.0,1.0,gargoyle_08s.jpg,0.0,clockno_default.jpg,5.0,33,,,,,,,,,,,,,,,,,,,,,,,,,,,,,,,,
0.0,1.0,0.74366,0.0,28.0,28.0,28.0,1.0,basket_05s.jpg,0.0,clockno_default.jpg,5.0,33,,,,,,,,,,,,,,,,,,,,,,,,,,,,,,,,
0.0,1.0,1.39264,0.0,29.0,29.0,29.0,1.0,pepper_mill_03s.jpg,0.0,clockno_default.jpg,5.0,33,,,,,,,,,,,,,,,,,,,,,,,,,,,,,,,,
0.0,1.0,1.013265,0.0,30.0,30.0,30.0,1.0,penguin_16s.jpg,0.0,clockno_default.jpg,5.0,33,,,,,,,,,,,,,,,,,,,,,,,,,,,,,,,,
0.0,1.0,1.092775,0.0,31.0,31.0,31.0,1.0,quill_09s.jpg,0.0,clockno_up.jpg,6.0,33,,,,,,,,,,,,,,,,,,,,,,,,,,,,,,,,
0.0,1.0,0.97459,0.0,32.0,32.0,32.0,1.0,roller_coaster_07s.jpg,0.0,clockno_default.jpg,6.0,33,,,,,,,,,,,,,,,,,,,,,,,,,,,,,,,,
1.0,1.0,1.157795,0.0,33.0,33.0,33.0,1.0,roller_coaster_07s.jpg,1.0,clockno_default.jpg,6.0,33,,,,,,,,,,,,,,,,,,,,,,,,,,,,,,,,
0.0,1.0,0.889755,0.0,34.0,34.0,34.0,1.0,peppermint_07s.jpg,0.0,clockno_default.jpg,6.0,33,,,,,,,,,,,,,,,,,,,,,,,,,,,,,,,,
1.0,1.0,2.14609,0.0,35.0,35.0,35.0,1.0,quill_09s.jpg,1.0,clockno_default.jpg,6.0,33,,,,,,,,,,,,,,,,,,,,,,,,,,,,,,,,
,,,,,,,,,1.0,,,33,1.0,1.0,2.17313,0.0,0.0,0.0,0.0,1.0,magnet_03s.jpg,giraffe_11s.jpg,,,,,,,,,,,,,,,,,,,,,,
,,,,,,,,,0.0,,,33,0.0,1.0,4.01429,0.0,1.0,1.0,1.0,1.0,joystick_01b.jpg,moth_06n.jpg,,,,,,,,,,,,,,,,,,,,,,
,,,,,,,,,1.0,,,33,1.0,1.0,2.46163,0.0,2.0,2.0,2.0,1.0,pillow_03s.jpg,crate_05s.jpg,,,,,,,,,,,,,,,,,,,,,,
,,,,,,,,,1.0,,,33,1.0,1.0,2.659165,0.0,3.0,3.0,3.0,1.0,pie_08s.jpg,thermostat_02s.jpg,,,,,,,,,,,,,,,,,,,,,,
,,,,,,,,,0.0,,,33,0.0,1.0,1.461325,0.0,4.0,4.0,4.0,1.0,gargoyle_08s.jpg,ink_08s.jpg,,,,,,,,,,,,,,,,,,,,,,
,,,,,,,,,0.0,,,33,0.0,1.0,2.344645,0.0,5.0,5.0,5.0,1.0,lectern_08s.jpg,money_07s.jpg,,,,,,,,,,,,,,,,,,,,,,
,,,,,,,,,,,,33,,,,,,,,,,,0.0,2.0,2.0,2.0,1.0,clockno_present_3_17.xlsx,clockno_compare_task_3_17.xlsx,,,,,,,,,,,,,,,
0.0,1.0,1.769895,0.0,0.0,0.0,0.0,1.0,luggage_08s.jpg,0.0,clockno_up.jpg,1.0,33,,,,,,,,,,,,,,,,,,,,,,,,,,,,,,,,
0.0,1.0,0.88063,0.0,1.0,1.0,1.0,1.0,lamp_08s.jpg,0.0,clockno_default.jpg,1.0,33,,,,,,,,,,,,,,,,,,,,,,,,,,,,,,,,
0.0,1.0,0.712605,0.0,2.0,2.0,2.0,1.0,paper_towel_03s.jpg,0.0,clockno_default.jpg,1.0,33,,,,,,,,,,,,,,,,,,,,,,,,,,,,,,,,
0.0,1.0,0.807265,0.0,3.0,3.0,3.0,1.0,jalapeno_15s.jpg,0.0,clockno_default.jpg,1.0,33,,,,,,,,,,,,,,,,,,,,,,,,,,,,,,,,
0.0,1.0,0.755305,0.0,4.0,4.0,4.0,1.0,sledgehammer_03s.jpg,0.0,clockno_default.jpg,1.0,33,,,,,,,,,,,,,,,,,,,,,,,,,,,,,,,,
0.0,1.0,0.84048,0.0,5.0,5.0,5.0,1.0,memory_stick_11s.jpg,0.0,clockno_default.jpg,1.0,33,,,,,,,,,,,,,,,,,,,,,,,,,,,,,,,,
0.0,1.0,0.97528,0.0,6.0,6.0,6.0,1.0,thorn_13s.jpg,0.0,clockno_up.jpg,2.0,33,,,,,,,,,,,,,,,,,,,,,,,,,,,,,,,,
1.0,1.0,1.2449,0.0,7.0,7.0,7.0,1.0,thorn_13s.jpg,1.0,clockno_default.jpg,2.0,33,,,,,,,,,,,,,,,,,,,,,,,,,,,,,,,,
0.0,1.0,1.275645,0.0,8.0,8.0,8.0,1.0,butter_14s.jpg,0.0,clockno_default.jpg,2.0,33,,,,,,,,,,,,,,,,,,,,,,,,,,,,,,,,
0.0,1.0,0.808035,0.0,9.0,9.0,9.0,1.0,mug_06s.jpg,0.0,clockno_default.jpg,2.0,33,,,,,,,,,,,,,,,,,,,,,,,,,,,,,,,,
0.0,1.0,0.758345,0.0,10.0,10.0,10.0,1.0,gingerbread_man_03s.jpg,0.0,clockno_default.jpg,2.0,33,,,,,,,,,,,,,,,,,,,,,,,,,,,,,,,,
0.0,1.0,0.8264,0.0,11.0,11.0,11.0,1.0,paper_bag_12s.jpg,0.0,clockno_up.jpg,3.0,33,,,,,,,,,,,,,,,,,,,,,,,,,,,,,,,,
0.0,1.0,0.976215,0.0,12.0,12.0,12.0,1.0,machete_06s.jpg,0.0,clockno_default.jpg,3.0,33,,,,,,,,,,,,,,,,,,,,,,,,,,,,,,,,
0.0,1.0,0.876515,0.0,13.0,13.0,13.0,1.0,quad_04s.jpg,0.0,clockno_default.jpg,3.0,33,,,,,,,,,,,,,,,,,,,,,,,,,,,,,,,,
0.0,1.0,0.9057,0.0,14.0,14.0,14.0,1.0,amber_04s.jpg,0.0,clockno_default.jpg,3.0,33,,,,,,,,,,,,,,,,,,,,,,,,,,,,,,,,
0.0,1.0,1.37363,0.0,15.0,15.0,15.0,1.0,mold2_04s.jpg,0.0,clockno_default.jpg,3.0,33,,,,,,,,,,,,,,,,,,,,,,,,,,,,,,,,
0.0,1.0,1.074605,0.0,16.0,16.0,16.0,1.0,plug_08s.jpg,0.0,clockno_default.jpg,3.0,33,,,,,,,,,,,,,,,,,,,,,,,,,,,,,,,,
0.0,1.0,1.662305,0.0,17.0,17.0,17.0,1.0,ticktacktoe_08s.jpg,0.0,clockno_up.jpg,4.0,33,,,,,,,,,,,,,,,,,,,,,,,,,,,,,,,,
0.0,1.0,0.744025,0.0,18.0,18.0,18.0,1.0,tape_measure_11s.jpg,0.0,clockno_default.jpg,4.0,33,,,,,,,,,,,,,,,,,,,,,,,,,,,,,,,,
0.0,1.0,0.87376,0.0,19.0,19.0,19.0,1.0,cape_11s.jpg,0.0,clockno_default.jpg,4.0,33,,,,,,,,,,,,,,,,,,,,,,,,,,,,,,,,
1.0,1.0,1.388275,0.0,20.0,20.0,20.0,1.0,tape_measure_11s.jpg,1.0,clockno_default.jpg,4.0,33,,,,,,,,,,,,,,,,,,,,,,,,,,,,,,,,
0.0,1.0,1.057295,0.0,21.0,21.0,21.0,1.0,machete_06s.jpg,0.0,clockno_default.jpg,4.0,33,,,,,,,,,,,,,,,,,,,,,,,,,,,,,,,,
0.0,1.0,0.657225,0.0,22.0,22.0,22.0,1.0,bowler_hat_10s.jpg,0.0,clockno_default.jpg,4.0,33,,,,,,,,,,,,,,,,,,,,,,,,,,,,,,,,
0.0,1.0,0.895375,0.0,23.0,23.0,23.0,1.0,punch2_09s.jpg,0.0,clockno_default.jpg,4.0,33,,,,,,,,,,,,,,,,,,,,,,,,,,,,,,,,
0.0,1.0,1.310345,0.0,24.0,24.0,24.0,1.0,blowfish_03s.jpg,0.0,clockno_up.jpg,5.0,33,,,,,,,,,,,,,,,,,,,,,,,,,,,,,,,,
0.0,1.0,1.03153,0.0,25.0,25.0,25.0,1.0,plug_08s.jpg,0.0,clockno_default.jpg,5.0,33,,,,,,,,,,,,,,,,,,,,,,,,,,,,,,,,
0.0,1.0,0.84408,0.0,26.0,26.0,26.0,1.0,icemaker_10s.jpg,0.0,clockno_default.jpg,5.0,33,,,,,,,,,,,,,,,,,,,,,,,,,,,,,,,,
0.0,1.0,0.76522,0.0,27.0,27.0,27.0,1.0,cucumber_07s.jpg,0.0,clockno_default.jpg,5.0,33,,,,,,,,,,,,,,,,,,,,,,,,,,,,,,,,
0.0,1.0,1.012945,0.0,28.0,28.0,28.0,1.0,jetski_10s.jpg,0.0,clockno_default.jpg,5.0,33,,,,,,,,,,,,,,,,,,,,,,,,,,,,,,,,
0.0,1.0,0.92642,0.0,29.0,29.0,29.0,1.0,glasses01a.jpg,0.0,clockno_default.jpg,5.0,33,,,,,,,,,,,,,,,,,,,,,,,,,,,,,,,,
0.0,1.0,0.96045,0.0,30.0,30.0,30.0,1.0,kitten_07s.jpg,0.0,clockno_default.jpg,5.0,33,,,,,,,,,,,,,,,,,,,,,,,,,,,,,,,,
0.0,1.0,1.141675,0.0,31.0,31.0,31.0,1.0,taxi_15s.jpg,0.0,clockno_up.jpg,6.0,33,,,,,,,,,,,,,,,,,,,,,,,,,,,,,,,,
0.0,1.0,0.831435,0.0,32.0,32.0,32.0,1.0,lifesaver_10s.jpg,0.0,clockno_default.jpg,6.0,33,,,,,,,,,,,,,,,,,,,,,,,,,,,,,,,,
0.0,1.0,0.723505,0.0,33.0,33.0,33.0,1.0,power_line_08s.jpg,0.0,clockno_default.jpg,6.0,33,,,,,,,,,,,,,,,,,,,,,,,,,,,,,,,,
0.0,1.0,0.94229,0.0,34.0,34.0,34.0,1.0,lasagna_06s.jpg,0.0,clockno_default.jpg,6.0,33,,,,,,,,,,,,,,,,,,,,,,,,,,,,,,,,
1.0,1.0,2.3032,0.0,35.0,35.0,35.0,1.0,lifesaver_10s.jpg,1.0,clockno_default.jpg,6.0,33,,,,,,,,,,,,,,,,,,,,,,,,,,,,,,,,
,,,,,,,,,1.0,,,33,1.0,1.0,2.71019,0.0,0.0,0.0,0.0,1.0,gingerbread_man_03s.jpg,quad_04s.jpg,,,,,,,,,,,,,,,,,,,,,,
,,,,,,,,,1.0,,,33,0.0,0.0,1.241805,0.0,1.0,1.0,1.0,1.0,memory_stick_11s.jpg,butter_14s.jpg,,,,,,,,,,,,,,,,,,,,,,
,,,,,,,,,0.0,,,33,1.0,0.0,1.95034,0.0,2.0,2.0,2.0,1.0,ticktacktoe_08s.jpg,amber_04s.jpg,,,,,,,,,,,,,,,,,,,,,,
,,,,,,,,,1.0,,,33,1.0,1.0,2.347115,0.0,3.0,3.0,3.0,1.0,luggage_08s.jpg,jalapeno_15s.jpg,,,,,,,,,,,,,,,,,,,,,,
,,,,,,,,,0.0,,,33,1.0,0.0,2.42736,0.0,4.0,4.0,4.0,1.0,sledgehammer_03s.jpg,lamp_08s.jpg,,,,,,,,,,,,,,,,,,,,,,
,,,,,,,,,0.0,,,33,0.0,1.0,1.657245,0.0,5.0,5.0,5.0,1.0,bowler_hat_10s.jpg,cape_11s.jpg,,,,,,,,,,,,,,,,,,,,,,
,,,,,,,,,,,,33,,,,,,,,,,,0.0,3.0,3.0,3.0,1.0,clockno_present_4_17.xlsx,clockno_compare_task_4_17.xlsx,,,,,,,,,,,,,,,
0.0,1.0,1.20524,0.0,0.0,0.0,0.0,1.0,puck_06s.jpg,0.0,clockno_up.jpg,1.0,33,,,,,,,,,,,,,,,,,,,,,,,,,,,,,,,,
1.0,1.0,0.874855,0.0,1.0,1.0,1.0,1.0,puck_06s.jpg,1.0,clockno_default.jpg,1.0,33,,,,,,,,,,,,,,,,,,,,,,,,,,,,,,,,
0.0,1.0,0.765,0.0,2.0,2.0,2.0,1.0,mannequin_05s.jpg,0.0,clockno_default.jpg,1.0,33,,,,,,,,,,,,,,,,,,,,,,,,,,,,,,,,
0.0,1.0,0.776655,0.0,3.0,3.0,3.0,1.0,rhinoceros_02s.jpg,0.0,clockno_default.jpg,1.0,33,,,,,,,,,,,,,,,,,,,,,,,,,,,,,,,,
1.0,1.0,1.02383,0.0,4.0,4.0,4.0,1.0,rhinoceros_02s.jpg,1.0,clockno_default.jpg,1.0,33,,,,,,,,,,,,,,,,,,,,,,,,,,,,,,,,
0.0,1.0,1.1182,0.0,5.0,5.0,5.0,1.0,megaphone_03s.jpg,0.0,clockno_default.jpg,1.0,33,,,,,,,,,,,,,,,,,,,,,,,,,,,,,,,,
0.0,1.0,1.22465,0.0,6.0,6.0,6.0,1.0,tulip_02s.jpg,0.0,clockno_up.jpg,2.0,33,,,,,,,,,,,,,,,,,,,,,,,,,,,,,,,,
0.0,1.0,0.82408,0.0,7.0,7.0,7.0,1.0,smoothie_09s.jpg,0.0,clockno_default.jpg,2.0,33,,,,,,,,,,,,,,,,,,,,,,,,,,,,,,,,
1.0,1.0,1.17416,0.0,8.0,8.0,8.0,1.0,smoothie_09s.jpg,1.0,clockno_default.jpg,2.0,33,,,,,,,,,,,,,,,,,,,,,,,,,,,,,,,,
0.0,1.0,1.69138,0.0,9.0,9.0,9.0,1.0,mannequin_05s.jpg,0.0,clockno_default.jpg,2.0,33,,,,,,,,,,,,,,,,,,,,,,,,,,,,,,,,
0.0,1.0,0.9407,0.0,10.0,10.0,10.0,1.0,mascara_03s.jpg,0.0,clockno_default.jpg,2.0,33,,,,,,,,,,,,,,,,,,,,,,,,,,,,,,,,
0.0,1.0,0.84613,0.0,11.0,11.0,11.0,1.0,badge_03s.jpg,0.0,clockno_default.jpg,2.0,33,,,,,,,,,,,,,,,,,,,,,,,,,,,,,,,,
0.0,1.0,1.057685,0.0,12.0,12.0,12.0,1.0,megaphone_03s.jpg,0.0,clockno_default.jpg,2.0,33,,,,,,,,,,,,,,,,,,,,,,,,,,,,,,,,
0.0,1.0,1.11676,0.0,13.0,13.0,13.0,1.0,latch_15s.jpg,0.0,clockno_up.jpg,3.0,33,,,,,,,,,,,,,,,,,,,,,,,,,,,,,,,,
0.0,1.0,2.471265,0.0,14.0,14.0,14.0,1.0,pipe1_10s.jpg,0.0,clockno_default.jpg,3.0,33,,,,,,,,,,,,,,,,,,,,,,,,,,,,,,,,
0.0,1.0,0.986215,0.0,15.0,15.0,15.0,1.0,fire_pit_10s.jpg,0.0,clockno_default.jpg,3.0,33,,,,,,,,,,,,,,,,,,,,,,,,,,,,,,,,
0.0,1.0,0.915985,0.0,16.0,16.0,16.0,1.0,pump_11s.jpg,0.0,clockno_default.jpg,3.0,33,,,,,,,,,,,,,,,,,,,,,,,,,,,,,,,,
0.0,1.0,0.747895,0.0,17.0,17.0,17.0,1.0,puppet_01b.jpg,0.0,clockno_default.jpg,3.0,33,,,,,,,,,,,,,,,,,,,,,,,,,,,,,,,,
0.0,1.0,0.880525,0.0,18.0,18.0,18.0,1.0,rhinoceros_02s.jpg,0.0,clockno_default.jpg,3.0,33,,,,,,,,,,,,,,,,,,,,,,,,,,,,,,,,
0.0,1.0,0.808025,0.0,19.0,19.0,19.0,1.0,camcorder_10s.jpg,0.0,clockno_default.jpg,3.0,33,,,,,,,,,,,,,,,,,,,,,,,,,,,,,,,,
0.0,1.0,1.158375,0.0,20.0,20.0,20.0,1.0,blender_08s.jpg,0.0,clockno_up.jpg,4.0,33,,,,,,,,,,,,,,,,,,,,,,,,,,,,,,,,
0.0,1.0,0.966045,0.0,21.0,21.0,21.0,1.0,scooter.jpg,0.0,clockno_default.jpg,4.0,33,,,,,,,,,,,,,,,,,,,,,,,,,,,,,,,,
0.0,1.0,0.92195,0.0,22.0,22.0,22.0,1.0,rocking_horse_03s.jpg,0.0,clockno_default.jpg,4.0,33,,,,,,,,,,,,,,,,,,,,,,,,,,,,,,,,
1.0,1.0,1.508375,0.0,23.0,23.0,23.0,1.0,blender_08s.jpg,1.0,clockno_default.jpg,4.0,33,,,,,,,,,,,,,,,,,,,,,,,,,,,,,,,,
0.0,1.0,1.047085,0.0,24.0,24.0,24.0,1.0,kayak_08s.jpg,0.0,clockno_default.jpg,4.0,33,,,,,,,,,,,,,,,,,,,,,,,,,,,,,,,,
0.0,1.0,0.606615,0.0,25.0,25.0,25.0,1.0,radio_09s.jpg,0.0,clockno_up.jpg,5.0,33,,,,,,,,,,,,,,,,,,,,,,,,,,,,,,,,
1.0,1.0,1.329015,0.0,26.0,26.0,26.0,1.0,radio_09s.jpg,1.0,clockno_default.jpg,5.0,33,,,,,,,,,,,,,,,,,,,,,,,,,,,,,,,,
0.0,1.0,0.748105,0.0,27.0,27.0,27.0,1.0,coffee_filter_10s.jpg,0.0,clockno_default.jpg,5.0,33,,,,,,,,,,,,,,,,,,,,,,,,,,,,,,,,
0.0,1.0,0.82474,0.0,28.0,28.0,28.0,1.0,toilet_07s.jpg,0.0,clockno_default.jpg,5.0,33,,,,,,,,,,,,,,,,,,,,,,,,,,,,,,,,
0.0,1.0,1.058705,0.0,29.0,29.0,29.0,1.0,mitten_10s.jpg,0.0,clockno_default.jpg,5.0,33,,,,,,,,,,,,,,,,,,,,,,,,,,,,,,,,
0.0,1.0,1.392315,0.0,30.0,30.0,30.0,1.0,dynamite_01b.jpg,0.0,clockno_up.jpg,6.0,33,,,,,,,,,,,,,,,,,,,,,,,,,,,,,,,,
0.0,1.0,0.87371,0.0,31.0,31.0,31.0,1.0,mask_09s.jpg,0.0,clockno_default.jpg,6.0,33,,,,,,,,,,,,,,,,,,,,,,,,,,,,,,,,
0.0,1.0,0.823225,0.0,32.0,32.0,32.0,1.0,scooter.jpg,0.0,clockno_default.jpg,6.0,33,,,,,,,,,,,,,,,,,,,,,,,,,,,,,,,,
0.0,1.0,1.16589,0.0,33.0,33.0,33.0,1.0,tambourine_06s.jpg,0.0,clockno_default.jpg,6.0,33,,,,,,,,,,,,,,,,,,,,,,,,,,,,,,,,
0.0,1.0,0.792365,0.0,34.0,34.0,34.0,1.0,top_hat_11s.jpg,0.0,clockno_default.jpg,6.0,33,,,,,,,,,,,,,,,,,,,,,,,,,,,,,,,,
0.0,1.0,0.713225,0.0,35.0,35.0,35.0,1.0,outlet_10s.jpg,0.0,clockno_default.jpg,6.0,33,,,,,,,,,,,,,,,,,,,,,,,,,,,,,,,,
,,,,,,,,,1.0,,,33,0.0,0.0,2.89196,0.0,0.0,0.0,0.0,1.0,kayak_08s.jpg,coffee_filter_10s.jpg,,,,,,,,,,,,,,,,,,,,,,
,,,,,,,,,0.0,,,33,1.0,0.0,3.36257,0.0,1.0,1.0,1.0,1.0,latch_15s.jpg,mascara_03s.jpg,,,,,,,,,,,,,,,,,,,,,,
,,,,,,,,,0.0,,,33,1.0,0.0,3.06092,0.0,2.0,2.0,2.0,1.0,pipe1_10s.jpg,badge_03s.jpg,,,,,,,,,,,,,,,,,,,,,,
,,,,,,,,,1.0,,,33,1.0,1.0,3.334125,0.0,3.0,3.0,3.0,1.0,pump_11s.jpg,camcorder_10s.jpg,,,,,,,,,,,,,,,,,,,,,,
,,,,,,,,,0.0,,,33,0.0,1.0,1.89678,0.0,4.0,4.0,4.0,1.0,tambourine_06s.jpg,dynamite_01b.jpg,,,,,,,,,,,,,,,,,,,,,,
,,,,,,,,,0.0,,,33,0.0,1.0,2.643605,0.0,5.0,5.0,5.0,1.0,top_hat_11s.jpg,mask_09s.jpg,,,,,,,,,,,,,,,,,,,,,,
,,,,,,,,,,,,33,,,,,,,,,,,0.0,4.0,4.0,4.0,1.0,clockno_present_5_17.xlsx,clockno_compare_task_5_17.xlsx,,,,,,,,,,,,,,,
0.0,1.0,1.07916,0.0,0.0,0.0,0.0,1.0,refrigerator_07s.jpg,0.0,clockno_up.jpg,1.0,33,,,,,,,,,,,,,,,,,,,,,,,,,,,,,,,,
0.0,1.0,0.638865,0.0,1.0,1.0,1.0,1.0,blazer_02s.jpg,0.0,clockno_default.jpg,1.0,33,,,,,,,,,,,,,,,,,,,,,,,,,,,,,,,,
0.0,1.0,0.790795,0.0,2.0,2.0,2.0,1.0,rudder_02s.jpg,0.0,clockno_default.jpg,1.0,33,,,,,,,,,,,,,,,,,,,,,,,,,,,,,,,,
0.0,1.0,0.58701,0.0,3.0,3.0,3.0,1.0,comic_book_02s.jpg,0.0,clockno_default.jpg,1.0,33,,,,,,,,,,,,,,,,,,,,,,,,,,,,,,,,
1.0,1.0,1.235385,0.0,4.0,4.0,4.0,1.0,comic_book_02s.jpg,1.0,clockno_default.jpg,1.0,33,,,,,,,,,,,,,,,,,,,,,,,,,,,,,,,,
0.0,1.0,0.827845,0.0,5.0,5.0,5.0,1.0,trident_07s.jpg,0.0,clockno_up.jpg,2.0,33,,,,,,,,,,,,,,,,,,,,,,,,,,,,,,,,
0.0,1.0,0.757255,0.0,6.0,6.0,6.0,1.0,candy_cane_06s.jpg,0.0,clockno_default.jpg,2.0,33,,,,,,,,,,,,,,,,,,,,,,,,,,,,,,,,
0.0,1.0,0.64041,0.0,7.0,7.0,7.0,1.0,quilt_03s.jpg,0.0,clockno_default.jpg,2.0,33,,,,,,,,,,,,,,,,,,,,,,,,,,,,,,,,
0.0,1.0,0.82912,0.0,8.0,8.0,8.0,1.0,teapot_03s.jpg,0.0,clockno_default.jpg,2.0,33,,,,,,,,,,,,,,,,,,,,,,,,,,,,,,,,
1.0,1.0,1.007525,0.0,9.0,9.0,9.0,1.0,teapot_03s.jpg,1.0,clockno_default.jpg,2.0,33,,,,,,,,,,,,,,,,,,,,,,,,,,,,,,,,
0.0,1.0,0.912205,0.0,10.0,10.0,10.0,1.0,telephone_pole_05s.jpg,0.0,clockno_default.jpg,2.0,33,,,,,,,,,,,,,,,,,,,,,,,,,,,,,,,,
0.0,1.0,0.96856,0.0,11.0,11.0,11.0,1.0,rolling_pin_02s.jpg,0.0,clockno_default.jpg,2.0,33,,,,,,,,,,,,,,,,,,,,,,,,,,,,,,,,
0.0,1.0,1.245355,0.0,12.0,12.0,12.0,1.0,tuba_12s.jpg,0.0,clockno_up.jpg,3.0,33,,,,,,,,,,,,,,,,,,,,,,,,,,,,,,,,
0.0,1.0,0.67904,0.0,13.0,13.0,13.0,1.0,smokingpipe.jpg,0.0,clockno_default.jpg,3.0,33,,,,,,,,,,,,,,,,,,,,,,,,,,,,,,,,
0.0,1.0,0.581705,0.0,14.0,14.0,14.0,1.0,panda_02s.jpg,0.0,clockno_default.jpg,3.0,33,,,,,,,,,,,,,,,,,,,,,,,,,,,,,,,,
0.0,1.0,0.755145,0.0,15.0,15.0,15.0,1.0,sleeping_bag_12s.jpg,0.0,clockno_default.jpg,3.0,33,,,,,,,,,,,,,,,,,,,,,,,,,,,,,,,,
0.0,1.0,1.08606,0.0,16.0,16.0,16.0,1.0,stamp2_08s.jpg,0.0,clockno_default.jpg,3.0,33,,,,,,,,,,,,,,,,,,,,,,,,,,,,,,,,
0.0,1.0,1.090055,0.0,17.0,17.0,17.0,1.0,kite_04s.jpg,0.0,clockno_up.jpg,4.0,33,,,,,,,,,,,,,,,,,,,,,,,,,,,,,,,,
0.0,1.0,1.091615,0.0,18.0,18.0,18.0,1.0,rocking_chair_05s.jpg,0.0,clockno_default.jpg,4.0,33,,,,,,,,,,,,,,,,,,,,,,,,,,,,,,,,
0.0,1.0,0.866575,0.0,19.0,19.0,19.0,1.0,marker_05s.jpg,0.0,clockno_default.jpg,4.0,33,,,,,,,,,,,,,,,,,,,,,,,,,,,,,,,,
0.0,1.0,0.761495,0.0,20.0,20.0,20.0,1.0,chip_04s.jpg,0.0,clockno_default.jpg,4.0,33,,,,,,,,,,,,,,,,,,,,,,,,,,,,,,,,
0.0,1.0,0.890775,0.0,21.0,21.0,21.0,1.0,pretzel_09s.jpg,0.0,clockno_default.jpg,4.0,33,,,,,,,,,,,,,,,,,,,,,,,,,,,,,,,,
0.0,1.0,1.07319,0.0,22.0,22.0,22.0,1.0,swimming_pool_17s.jpg,0.0,clockno_default.jpg,4.0,33,,,,,,,,,,,,,,,,,,,,,,,,,,,,,,,,
0.0,1.0,1.08947,0.0,23.0,23.0,23.0,1.0,spacesuit_02s.jpg,0.0,clockno_up.jpg,5.0,33,,,,,,,,,,,,,,,,,,,,,,,,,,,,,,,,
0.0,1.0,0.86002,0.0,24.0,24.0,24.0,1.0,letter_opener_03s.jpg,0.0,clockno_default.jpg,5.0,33,,,,,,,,,,,,,,,,,,,,,,,,,,,,,,,,
0.0,1.0,0.958245,0.0,25.0,25.0,25.0,1.0,cotton_candy_01b.jpg,0.0,clockno_default.jpg,5.0,33,,,,,,,,,,,,,,,,,,,,,,,,,,,,,,,,
0.0,1.0,0.93457,0.0,26.0,26.0,26.0,1.0,spatula04.jpg,0.0,clockno_default.jpg,5.0,33,,,,,,,,,,,,,,,,,,,,,,,,,,,,,,,,
0.0,0.0,1.95978,0.0,27.0,27.0,27.0,1.0,cotton_candy_01b.jpg,1.0,clockno_default.jpg,5.0,33,,,,,,,,,,,,,,,,,,,,,,,,,,,,,,,,
0.0,1.0,1.160325,0.0,28.0,28.0,28.0,1.0,boomerang_06s.jpg,0.0,clockno_default.jpg,5.0,33,,,,,,,,,,,,,,,,,,,,,,,,,,,,,,,,
0.0,1.0,1.03031,0.0,29.0,29.0,29.0,1.0,sea_urchin_09s.jpg,0.0,clockno_up.jpg,6.0,33,,,,,,,,,,,,,,,,,,,,,,,,,,,,,,,,
0.0,1.0,0.8561,0.0,30.0,30.0,30.0,1.0,slingshot_07s.jpg,0.0,clockno_default.jpg,6.0,33,,,,,,,,,,,,,,,,,,,,,,,,,,,,,,,,
0.0,1.0,0.83061,0.0,31.0,31.0,31.0,1.0,toilet_paper_12s.jpg,0.0,clockno_default.jpg,6.0,33,,,,,,,,,,,,,,,,,,,,,,,,,,,,,,,,
0.0,1.0,0.598085,0.0,32.0,32.0,32.0,1.0,polaroid_05s.jpg,0.0,clockno_default.jpg,6.0,33,,,,,,,,,,,,,,,,,,,,,,,,,,,,,,,,
0.0,1.0,0.713165,0.0,33.0,33.0,33.0,1.0,cardinal_07s.jpg,0.0,clockno_default.jpg,6.0,33,,,,,,,,,,,,,,,,,,,,,,,,,,,,,,,,
0.0,1.0,0.749805,0.0,34.0,34.0,34.0,1.0,eggshell_14s.jpg,0.0,clockno_default.jpg,6.0,33,,,,,,,,,,,,,,,,,,,,,,,,,,,,,,,,
0.0,1.0,1.027745,0.0,35.0,35.0,35.0,1.0,puddle_02s.jpg,0.0,clockno_default.jpg,6.0,33,,,,,,,,,,,,,,,,,,,,,,,,,,,,,,,,
,,,,,,,,,0.0,,,33,1.0,0.0,2.22301,0.0,0.0,0.0,0.0,1.0,trident_07s.jpg,rudder_02s.jpg,,,,,,,,,,,,,,,,,,,,,,
,,,,,,,,,0.0,,,33,0.0,1.0,3.195275,0.0,1.0,1.0,1.0,1.0,panda_02s.jpg,rolling_pin_02s.jpg,,,,,,,,,,,,,,,,,,,,,,
,,,,,,,,,1.0,,,33,1.0,1.0,1.928015,0.0,2.0,2.0,2.0,1.0,pretzel_09s.jpg,letter_opener_03s.jpg,,,,,,,,,,,,,,,,,,,,,,
,,,,,,,,,1.0,,,33,1.0,1.0,1.44166,0.0,3.0,3.0,3.0,1.0,slingshot_07s.jpg,cardinal_07s.jpg,,,,,,,,,,,,,,,,,,,,,,
,,,,,,,,,1.0,,,33,0.0,0.0,1.69401,0.0,4.0,4.0,4.0,1.0,polaroid_05s.jpg,puddle_02s.jpg,,,,,,,,,,,,,,,,,,,,,,
,,,,,,,,,0.0,,,33,0.0,1.0,2.54888,0.0,5.0,5.0,5.0,1.0,telephone_pole_05s.jpg,quilt_03s.jpg,,,,,,,,,,,,,,,,,,,,,,
0.0,1.0,1.53762,,,,,,racehorse_03s.jpg,0.0,clock_6_1.png,1.0,33,,,,,,,,,,,,,,,,,,0.0,0.0,0.0,0.0,1.0,,,,,,,,,,
1.0,1.0,1.59302,,,,,,racehorse_03s.jpg,1.0,clock_6_2.png,1.0,33,,,,,,,,,,,,,,,,,,0.0,1.0,1.0,1.0,1.0,,,,,,,,,,
1.0,0.0,1.89202,,,,,,ravioli_08s.jpg,0.0,clock_6_3.png,1.0,33,,,,,,,,,,,,,,,,,,0.0,2.0,2.0,2.0,1.0,,,,,,,,,,
1.0,1.0,0.941475,,,,,,racehorse_03s.jpg,1.0,clock_6_4.png,1.0,33,,,,,,,,,,,,,,,,,,0.0,3.0,3.0,3.0,1.0,,,,,,,,,,
0.0,1.0,0.757895,,,,,,swing_set_15s.jpg,0.0,clock_6_5.png,1.0,33,,,,,,,,,,,,,,,,,,0.0,4.0,4.0,4.0,1.0,,,,,,,,,,
1.0,1.0,1.03232,,,,,,swing_set_15s.jpg,1.0,clock_6_6.png,1.0,33,,,,,,,,,,,,,,,,,,0.0,5.0,5.0,5.0,1.0,,,,,,,,,,
0.0,1.0,0.440925,,,,,,ruby_15s.jpg,0.0,clock_7_1.png,2.0,33,,,,,,,,,,,,,,,,,,0.0,6.0,6.0,6.0,1.0,,,,,,,,,,
0.0,1.0,0.724715,,,,,,loom_05s.jpg,0.0,clock_7_2.png,2.0,33,,,,,,,,,,,,,,,,,,0.0,7.0,7.0,7.0,1.0,,,,,,,,,,
0.0,1.0,0.840515,,,,,,pocket_watch_16s.jpg,0.0,clock_7_3.png,2.0,33,,,,,,,,,,,,,,,,,,0.0,8.0,8.0,8.0,1.0,,,,,,,,,,
0.0,1.0,0.87356,,,,,,peanut_butter_08s.jpg,0.0,clock_7_4.png,2.0,33,,,,,,,,,,,,,,,,,,0.0,9.0,9.0,9.0,1.0,,,,,,,,,,
0.0,1.0,0.810935,,,,,,piano_13n.jpg,0.0,clock_7_5.png,2.0,33,,,,,,,,,,,,,,,,,,0.0,10.0,10.0,10.0,1.0,,,,,,,,,,
0.0,1.0,0.845965,,,,,,emerald_02s.jpg,0.0,clock_7_6.png,2.0,33,,,,,,,,,,,,,,,,,,0.0,11.0,11.0,11.0,1.0,,,,,,,,,,
0.0,1.0,0.99463,,,,,,swing_set_15s.jpg,0.0,clock_7_7.png,2.0,33,,,,,,,,,,,,,,,,,,0.0,12.0,12.0,12.0,1.0,,,,,,,,,,
0.0,1.0,0.827,,,,,,gong_02s.jpg,0.0,clock_5_1.png,3.0,33,,,,,,,,,,,,,,,,,,0.0,13.0,13.0,13.0,1.0,,,,,,,,,,
0.0,1.0,0.72398,,,,,,turf_03s.jpg,0.0,clock_5_2.png,3.0,33,,,,,,,,,,,,,,,,,,0.0,14.0,14.0,14.0,1.0,,,,,,,,,,
0.0,1.0,0.855375,,,,,,tie_03s.jpg,0.0,clock_5_3.png,3.0,33,,,,,,,,,,,,,,,,,,0.0,15.0,15.0,15.0,1.0,,,,,,,,,,
0.0,1.0,1.024325,,,,,,swan_11s.jpg,0.0,clock_5_4.png,3.0,33,,,,,,,,,,,,,,,,,,0.0,16.0,16.0,16.0,1.0,,,,,,,,,,
0.0,1.0,1.111485,,,,,,margarita_03s.jpg,0.0,clock_5_5.png,3.0,33,,,,,,,,,,,,,,,,,,0.0,17.0,17.0,17.0,1.0,,,,,,,,,,
0.0,1.0,0.8239,,,,,,denture_03s.jpg,0.0,clock_5_1.png,4.0,33,,,,,,,,,,,,,,,,,,0.0,18.0,18.0,18.0,1.0,,,,,,,,,,
0.0,1.0,0.887615,,,,,,pincushion_10s.jpg,0.0,clock_5_2.png,4.0,33,,,,,,,,,,,,,,,,,,0.0,19.0,19.0,19.0,1.0,,,,,,,,,,
0.0,1.0,0.79055,,,,,,lavender_10s.jpg,0.0,clock_5_3.png,4.0,33,,,,,,,,,,,,,,,,,,0.0,20.0,20.0,20.0,1.0,,,,,,,,,,
0.0,1.0,1.31162,,,,,,treadmill_06s.jpg,0.0,clock_5_4.png,4.0,33,,,,,,,,,,,,,,,,,,0.0,21.0,21.0,21.0,1.0,,,,,,,,,,
0.0,1.0,0.87555,,,,,,seagull_01b.jpg,0.0,clock_5_5.png,4.0,33,,,,,,,,,,,,,,,,,,0.0,22.0,22.0,22.0,1.0,,,,,,,,,,
0.0,1.0,0.84994,,,,,,omelet_07s.jpg,0.0,clock_6_1.png,5.0,33,,,,,,,,,,,,,,,,,,0.0,23.0,23.0,23.0,1.0,,,,,,,,,,
0.0,1.0,0.6236,,,,,,pear_02s.jpg,0.0,clock_6_2.png,5.0,33,,,,,,,,,,,,,,,,,,0.0,24.0,24.0,24.0,1.0,,,,,,,,,,
0.0,1.0,0.81312,,,,,,knitting_needle_04s.jpg,0.0,clock_6_3.png,5.0,33,,,,,,,,,,,,,,,,,,0.0,25.0,25.0,25.0,1.0,,,,,,,,,,
0.0,1.0,1.03151,,,,,,loom_05s.jpg,0.0,clock_6_4.png,5.0,33,,,,,,,,,,,,,,,,,,0.0,26.0,26.0,26.0,1.0,,,,,,,,,,
1.0,1.0,1.582455,,,,,,omelet_07s.jpg,1.0,clock_6_5.png,5.0,33,,,,,,,,,,,,,,,,,,0.0,27.0,27.0,27.0,1.0,,,,,,,,,,
0.0,1.0,1.00586,,,,,,beaker_01b.jpg,0.0,clock_6_6.png,5.0,33,,,,,,,,,,,,,,,,,,0.0,28.0,28.0,28.0,1.0,,,,,,,,,,
0.0,1.0,0.74848,,,,,,ginger_09s.jpg,0.0,clock_7_1.png,6.0,33,,,,,,,,,,,,,,,,,,0.0,29.0,29.0,29.0,1.0,,,,,,,,,,
0.0,1.0,0.799415,,,,,,kilt_18s.jpg,0.0,clock_7_2.png,6.0,33,,,,,,,,,,,,,,,,,,0.0,30.0,30.0,30.0,1.0,,,,,,,,,,
1.0,1.0,1.006655,,,,,,ginger_09s.jpg,1.0,clock_7_3.png,6.0,33,,,,,,,,,,,,,,,,,,0.0,31.0,31.0,31.0,1.0,,,,,,,,,,
1.0,1.0,1.065315,,,,,,ginger_09s.jpg,1.0,clock_7_4.png,6.0,33,,,,,,,,,,,,,,,,,,0.0,32.0,32.0,32.0,1.0,,,,,,,,,,
1.0,1.0,1.11339,,,,,,kilt_18s.jpg,1.0,clock_7_5.png,6.0,33,,,,,,,,,,,,,,,,,,0.0,33.0,33.0,33.0,1.0,,,,,,,,,,
0.0,1.0,0.94141,,,,,,raccoon_02s.jpg,0.0,clock_7_6.png,6.0,33,,,,,,,,,,,,,,,,,,0.0,34.0,34.0,34.0,1.0,,,,,,,,,,
0.0,1.0,1.2102,,,,,,mixer_12s.jpg,0.0,clock_7_7.png,6.0,33,,,,,,,,,,,,,,,,,,0.0,35.0,35.0,35.0,1.0,,,,,,,,,,
,,,,,,,,,1.0,,,33,0.0,0.0,2.518295,,,,,,piano_13n.jpg,gong_02s.jpg,,,,,,,,,,,,,0.0,0.0,0.0,0.0,1.0,,,,,
,,,,,,,,,1.0,,,33,1.0,1.0,2.191165,,,,,,tie_03s.jpg,denture_03s.jpg,,,,,,,,,,,,,0.0,1.0,1.0,1.0,1.0,,,,,
,,,,,,,,,1.0,,,33,0.0,0.0,3.82187,,,,,,margarita_03s.jpg,lavender_10s.jpg,,,,,,,,,,,,,0.0,2.0,2.0,2.0,1.0,,,,,
,,,,,,,,,1.0,,,33,1.0,1.0,1.77543,,,,,,ruby_15s.jpg,peanut_butter_08s.jpg,,,,,,,,,,,,,0.0,3.0,3.0,3.0,1.0,,,,,
,,,,,,,,,1.0,,,33,1.0,1.0,3.11196,,,,,,pocket_watch_16s.jpg,emerald_02s.jpg,,,,,,,,,,,,,0.0,4.0,4.0,4.0,1.0,,,,,
,,,,,,,,,1.0,,,33,1.0,1.0,1.99835,,,,,,knitting_needle_04s.jpg,beaker_01b.jpg,,,,,,,,,,,,,0.0,5.0,5.0,5.0,1.0,,,,,
,,,,,,,,,,,,33,,,,,,,,,,,,,,,,clock_present_1_17.xlsx,clock_compare_task_1_17.xlsx,,,,,,,,,,,0.0,0.0,0.0,0.0,1.0
0.0,1.0,1.128705,,,,,,polar_bear_02s.jpg,0.0,clock_6_1.png,1.0,33,,,,,,,,,,,,,,,,,,0.0,0.0,0.0,0.0,1.0,,,,,,,,,,
0.0,1.0,0.6737,,,,,,radiator_05s.jpg,0.0,clock_6_2.png,1.0,33,,,,,,,,,,,,,,,,,,0.0,1.0,1.0,1.0,1.0,,,,,,,,,,
0.0,1.0,0.55631,,,,,,target_11s.jpg,0.0,clock_6_3.png,1.0,33,,,,,,,,,,,,,,,,,,0.0,2.0,2.0,2.0,1.0,,,,,,,,,,
1.0,1.0,1.6838,,,,,,polar_bear_02s.jpg,1.0,clock_6_4.png,1.0,33,,,,,,,,,,,,,,,,,,0.0,3.0,3.0,3.0,1.0,,,,,,,,,,
0.0,1.0,1.177965,,,,,,sundae_08s.jpg,0.0,clock_6_5.png,1.0,33,,,,,,,,,,,,,,,,,,0.0,4.0,4.0,4.0,1.0,,,,,,,,,,
1.0,1.0,1.13048,,,,,,polar_bear_02s.jpg,1.0,clock_6_6.png,1.0,33,,,,,,,,,,,,,,,,,,0.0,5.0,5.0,5.0,1.0,,,,,,,,,,
0.0,1.0,0.929065,,,,,,flask_04s.jpg,0.0,clock_7_1.png,2.0,33,,,,,,,,,,,,,,,,,,0.0,6.0,6.0,6.0,1.0,,,,,,,,,,
1.0,1.0,1.490815,,,,,,flask_04s.jpg,1.0,clock_7_2.png,2.0,33,,,,,,,,,,,,,,,,,,0.0,7.0,7.0,7.0,1.0,,,,,,,,,,
0.0,1.0,0.57296,,,,,,rake_06s.jpg,0.0,clock_7_3.png,2.0,33,,,,,,,,,,,,,,,,,,0.0,8.0,8.0,8.0,1.0,,,,,,,,,,
1.0,1.0,1.373655,,,,,,flask_04s.jpg,1.0,clock_7_4.png,2.0,33,,,,,,,,,,,,,,,,,,0.0,9.0,9.0,9.0,1.0,,,,,,,,,,
0.0,1.0,0.862075,,,,,,cap_05s.jpg,0.0,clock_7_5.png,2.0,33,,,,,,,,,,,,,,,,,,0.0,10.0,10.0,10.0,1.0,,,,,,,,,,
1.0,1.0,1.00745,,,,,,rake_06s.jpg,1.0,clock_7_6.png,2.0,33,,,,,,,,,,,,,,,,,,0.0,11.0,11.0,11.0,1.0,,,,,,,,,,
0.0,1.0,0.811875,,,,,,marshmallow_08s.jpg,0.0,clock_7_7.png,2.0,33,,,,,,,,,,,,,,,,,,0.0,12.0,12.0,12.0,1.0,,,,,,,,,,
0.0,1.0,0.32192,,,,,,padlock_07s.jpg,0.0,clock_5_1.png,3.0,33,,,,,,,,,,,,,,,,,,0.0,13.0,13.0,13.0,1.0,,,,,,,,,,
0.0,1.0,1.255665,,,,,,rake_06s.jpg,0.0,clock_5_2.png,3.0,33,,,,,,,,,,,,,,,,,,0.0,14.0,14.0,14.0,1.0,,,,,,,,,,
0.0,1.0,0.84865,,,,,,hydrant_10s.jpg,0.0,clock_5_3.png,3.0,33,,,,,,,,,,,,,,,,,,0.0,15.0,15.0,15.0,1.0,,,,,,,,,,
0.0,1.0,1.076625,,,,,,petri_dish_12s.jpg,0.0,clock_5_4.png,3.0,33,,,,,,,,,,,,,,,,,,0.0,16.0,16.0,16.0,1.0,,,,,,,,,,
0.0,1.0,0.92433,,,,,,soda_fountain_03s.jpg,0.0,clock_5_5.png,3.0,33,,,,,,,,,,,,,,,,,,0.0,17.0,17.0,17.0,1.0,,,,,,,,,,
0.0,1.0,0.75637,,,,,,boar_10s.jpg,0.0,clock_6_1.png,4.0,33,,,,,,,,,,,,,,,,,,0.0,18.0,18.0,18.0,1.0,,,,,,,,,,
0.0,1.0,0.70863,,,,,,rocket_02s.jpg,0.0,clock_6_2.png,4.0,33,,,,,,,,,,,,,,,,,,0.0,19.0,19.0,19.0,1.0,,,,,,,,,,
0.0,1.0,1.313615,,,,,,knot_01b.jpg,0.0,clock_6_3.png,4.0,33,,,,,,,,,,,,,,,,,,0.0,20.0,20.0,20.0,1.0,,,,,,,,,,
0.0,1.0,0.87995,,,,,,tab_09s.jpg,0.0,clock_6_4.png,4.0,33,,,,,,,,,,,,,,,,,,0.0,21.0,21.0,21.0,1.0,,,,,,,,,,
0.0,1.0,1.718825,,,,,,lipstick_02s.jpg,0.0,clock_6_5.png,4.0,33,,,,,,,,,,,,,,,,,,0.0,22.0,22.0,22.0,1.0,,,,,,,,,,
0.0,1.0,0.89545,,,,,,jersey_02s.jpg,0.0,clock_6_6.png,4.0,33,,,,,,,,,,,,,,,,,,0.0,23.0,23.0,23.0,1.0,,,,,,,,,,
0.0,1.0,0.64001,,,,,,ostrich_06s.jpg,0.0,clock_5_1.png,5.0,33,,,,,,,,,,,,,,,,,,0.0,24.0,24.0,24.0,1.0,,,,,,,,,,
0.0,1.0,0.973165,,,,,,jukebox_03n.jpg,0.0,clock_5_2.png,5.0,33,,,,,,,,,,,,,,,,,,0.0,25.0,25.0,25.0,1.0,,,,,,,,,,
0.0,1.0,0.857015,,,,,,umbrella_15s.jpg,0.0,clock_5_3.png,5.0,33,,,,,,,,,,,,,,,,,,0.0,26.0,26.0,26.0,1.0,,,,,,,,,,
0.0,1.0,1.02402,,,,,,machine_gun_09s.jpg,0.0,clock_5_4.png,5.0,33,,,,,,,,,,,,,,,,,,0.0,27.0,27.0,27.0,1.0,,,,,,,,,,
0.0,1.0,1.112605,,,,,,inhaler_01b.jpg,0.0,clock_5_5.png,5.0,33,,,,,,,,,,,,,,,,,,0.0,28.0,28.0,28.0,1.0,,,,,,,,,,
0.0,1.0,0.746995,,,,,,screwdriver02a.jpg,0.0,clock_7_1.png,6.0,33,,,,,,,,,,,,,,,,,,0.0,29.0,29.0,29.0,1.0,,,,,,,,,,
0.0,1.0,0.981145,,,,,,thread_08s.jpg,0.0,clock_7_2.png,6.0,33,,,,,,,,,,,,,,,,,,0.0,30.0,30.0,30.0,1.0,,,,,,,,,,
0.0,1.0,0.598445,,,,,,ironing_board_07s.jpg,0.0,clock_7_3.png,6.0,33,,,,,,,,,,,,,,,,,,0.0,31.0,31.0,31.0,1.0,,,,,,,,,,
0.0,1.0,0.90964,,,,,,lip_gloss_06s.jpg,0.0,clock_7_4.png,6.0,33,,,,,,,,,,,,,,,,,,0.0,32.0,32.0,32.0,1.0,,,,,,,,,,
0.0,1.0,0.889705,,,,,,espresso_01b.jpg,0.0,clock_7_5.png,6.0,33,,,,,,,,,,,,,,,,,,0.0,33.0,33.0,33.0,1.0,,,,,,,,,,
0.0,1.0,2.411735,,,,,,checkbook_11s.jpg,0.0,clock_7_6.png,6.0,33,,,,,,,,,,,,,,,,,,0.0,34.0,34.0,34.0,1.0,,,,,,,,,,
0.0,1.0,1.47639,,,,,,rollerskate_03s.jpg,0.0,clock_7_7.png,6.0,33,,,,,,,,,,,,,,,,,,0.0,35.0,35.0,35.0,1.0,,,,,,,,,,
,,,,,,,,,0.0,,,33,0.0,1.0,2.171395,,,,,,hydrant_10s.jpg,marshmallow_08s.jpg,,,,,,,,,,,,,0.0,0.0,0.0,0.0,1.0,,,,,
,,,,,,,,,1.0,,,33,0.0,0.0,3.208625,,,,,,cap_05s.jpg,padlock_07s.jpg,,,,,,,,,,,,,0.0,1.0,1.0,1.0,1.0,,,,,
,,,,,,,,,0.0,,,33,1.0,0.0,4.17656,,,,,,knot_01b.jpg,soda_fountain_03s.jpg,,,,,,,,,,,,,0.0,2.0,2.0,2.0,1.0,,,,,
,,,,,,,,,0.0,,,33,1.0,0.0,3.585245,,,,,,sundae_08s.jpg,radiator_05s.jpg,,,,,,,,,,,,,0.0,3.0,3.0,3.0,1.0,,,,,
,,,,,,,,,0.0,,,33,1.0,0.0,4.448225,,,,,,rollerskate_03s.jpg,lip_gloss_06s.jpg,,,,,,,,,,,,,0.0,4.0,4.0,4.0,1.0,,,,,
,,,,,,,,,0.0,,,33,1.0,0.0,2.29315,,,,,,espresso_01b.jpg,thread_08s.jpg,,,,,,,,,,,,,0.0,5.0,5.0,5.0,1.0,,,,,
,,,,,,,,,,,,33,,,,,,,,,,,,,,,,clock_present_2_17.xlsx,clock_compare_task_2_17.xlsx,,,,,,,,,,,0.0,1.0,1.0,1.0,1.0
0.0,1.0,0.83532,,,,,,tripod_01b.jpg,0.0,clock_6_1.png,1.0,33,,,,,,,,,,,,,,,,,,0.0,0.0,0.0,0.0,1.0,,,,,,,,,,
0.0,1.0,1.67332,,,,,,doily_13s.jpg,0.0,clock_6_2.png,1.0,33,,,,,,,,,,,,,,,,,,0.0,1.0,1.0,1.0,1.0,,,,,,,,,,
0.0,1.0,0.77224,,,,,,sushi_08s.jpg,0.0,clock_6_3.png,1.0,33,,,,,,,,,,,,,,,,,,0.0,2.0,2.0,2.0,1.0,,,,,,,,,,
0.0,1.0,0.94038,,,,,,bubble_01b.jpg,0.0,clock_6_4.png,1.0,33,,,,,,,,,,,,,,,,,,0.0,3.0,3.0,3.0,1.0,,,,,,,,,,
0.0,1.0,0.79203,,,,,,swordfish_05s.jpg,0.0,clock_6_5.png,1.0,33,,,,,,,,,,,,,,,,,,0.0,4.0,4.0,4.0,1.0,,,,,,,,,,
0.0,1.0,0.896705,,,,,,keyboard_05s.jpg,0.0,clock_6_6.png,1.0,33,,,,,,,,,,,,,,,,,,0.0,5.0,5.0,5.0,1.0,,,,,,,,,,
0.0,1.0,0.90638,,,,,,perfume_06s.jpg,0.0,clock_7_1.png,2.0,33,,,,,,,,,,,,,,,,,,0.0,6.0,6.0,6.0,1.0,,,,,,,,,,
0.0,1.0,0.959745,,,,,,mango_09s.jpg,0.0,clock_7_2.png,2.0,33,,,,,,,,,,,,,,,,,,0.0,7.0,7.0,7.0,1.0,,,,,,,,,,
0.0,1.0,0.94546,,,,,,tube_top_03s.jpg,0.0,clock_7_3.png,2.0,33,,,,,,,,,,,,,,,,,,0.0,8.0,8.0,8.0,1.0,,,,,,,,,,
0.0,1.0,1.08644,,,,,,birdcage_08s.jpg,0.0,clock_7_4.png,2.0,33,,,,,,,,,,,,,,,,,,0.0,9.0,9.0,9.0,1.0,,,,,,,,,,
0.0,1.0,0.574005,,,,,,typewriter_11s.jpg,0.0,clock_7_5.png,2.0,33,,,,,,,,,,,,,,,,,,0.0,10.0,10.0,10.0,1.0,,,,,,,,,,
0.0,1.0,1.244,,,,,,rug_09s.jpg,0.0,clock_7_6.png,2.0,33,,,,,,,,,,,,,,,,,,0.0,11.0,11.0,11.0,1.0,,,,,,,,,,
0.0,1.0,1.7717,,,,,,sushi_08s.jpg,0.0,clock_7_7.png,2.0,33,,,,,,,,,,,,,,,,,,0.0,12.0,12.0,12.0,1.0,,,,,,,,,,
0.0,1.0,0.7945,,,,,,puffin_19s.jpg,0.0,clock_6_1.png,3.0,33,,,,,,,,,,,,,,,,,,0.0,13.0,13.0,13.0,1.0,,,,,,,,,,
0.0,1.0,0.793895,,,,,,orange_12s.jpg,0.0,clock_6_2.png,3.0,33,,,,,,,,,,,,,,,,,,0.0,14.0,14.0,14.0,1.0,,,,,,,,,,
0.0,1.0,0.657255,,,,,,iron_13s.jpg,0.0,clock_6_3.png,3.0,33,,,,,,,,,,,,,,,,,,0.0,15.0,15.0,15.0,1.0,,,,,,,,,,
1.0,1.0,1.285155,,,,,,puffin_19s.jpg,1.0,clock_6_4.png,3.0,33,,,,,,,,,,,,,,,,,,0.0,16.0,16.0,16.0,1.0,,,,,,,,,,
0.0,1.0,0.80675,,,,,,punch1_10s.jpg,0.0,clock_6_5.png,3.0,33,,,,,,,,,,,,,,,,,,0.0,17.0,17.0,17.0,1.0,,,,,,,,,,
0.0,1.0,0.87405,,,,,,penlight_12s.jpg,0.0,clock_6_6.png,3.0,33,,,,,,,,,,,,,,,,,,0.0,18.0,18.0,18.0,1.0,,,,,,,,,,
0.0,1.0,0.994155,,,,,,crossbow_10s.jpg,0.0,clock_5_1.png,4.0,33,,,,,,,,,,,,,,,,,,0.0,19.0,19.0,19.0,1.0,,,,,,,,,,
0.0,1.0,0.84069,,,,,,diving_board_07s.jpg,0.0,clock_5_2.png,4.0,33,,,,,,,,,,,,,,,,,,0.0,20.0,20.0,20.0,1.0,,,,,,,,,,
1.0,1.0,1.605875,,,,,,diving_board_07s.jpg,1.0,clock_5_3.png,4.0,33,,,,,,,,,,,,,,,,,,0.0,21.0,21.0,21.0,1.0,,,,,,,,,,
0.0,1.0,1.18998,,,,,,eyedropper_12s.jpg,0.0,clock_5_4.png,4.0,33,,,,,,,,,,,,,,,,,,0.0,22.0,22.0,22.0,1.0,,,,,,,,,,
0.0,1.0,1.81572,,,,,,reindeer_08s.jpg,0.0,clock_5_5.png,4.0,33,,,,,,,,,,,,,,,,,,0.0,23.0,23.0,23.0,1.0,,,,,,,,,,
0.0,1.0,1.210455,,,,,,stapler_01b.jpg,0.0,clock_7_1.png,5.0,33,,,,,,,,,,,,,,,,,,0.0,24.0,24.0,24.0,1.0,,,,,,,,,,
1.0,1.0,1.651795,,,,,,stapler_01b.jpg,1.0,clock_7_2.png,5.0,33,,,,,,,,,,,,,,,,,,0.0,25.0,25.0,25.0,1.0,,,,,,,,,,
1.0,1.0,1.18156,,,,,,stapler_01b.jpg,1.0,clock_7_3.png,5.0,33,,,,,,,,,,,,,,,,,,0.0,26.0,26.0,26.0,1.0,,,,,,,,,,
0.0,1.0,1.52512,,,,,,fountain_pen_06s.jpg,0.0,clock_7_4.png,5.0,33,,,,,,,,,,,,,,,,,,0.0,27.0,27.0,27.0,1.0,,,,,,,,,,
0.0,1.0,1.17407,,,,,,toaster_03s.jpg,0.0,clock_7_5.png,5.0,33,,,,,,,,,,,,,,,,,,0.0,28.0,28.0,28.0,1.0,,,,,,,,,,
0.0,1.0,1.104245,,,,,,sushi_08s.jpg,0.0,clock_7_6.png,5.0,33,,,,,,,,,,,,,,,,,,0.0,29.0,29.0,29.0,1.0,,,,,,,,,,
0.0,1.0,1.092055,,,,,,chocolate_01b.jpg,0.0,clock_7_7.png,5.0,33,,,,,,,,,,,,,,,,,,0.0,30.0,30.0,30.0,1.0,,,,,,,,,,
0.0,1.0,1.035165,,,,,,microwave_02s.jpg,0.0,clock_5_1.png,6.0,33,,,,,,,,,,,,,,,,,,0.0,31.0,31.0,31.0,1.0,,,,,,,,,,
0.0,1.0,0.611985,,,,,,champagne_18s.jpg,0.0,clock_5_2.png,6.0,33,,,,,,,,,,,,,,,,,,0.0,32.0,32.0,32.0,1.0,,,,,,,,,,
0.0,1.0,0.60743,,,,,,phone_01b.jpg,0.0,clock_5_3.png,6.0,33,,,,,,,,,,,,,,,,,,0.0,33.0,33.0,33.0,1.0,,,,,,,,,,
1.0,1.0,1.376095,,,,,,phone_01b.jpg,1.0,clock_5_4.png,6.0,33,,,,,,,,,,,,,,,,,,0.0,34.0,34.0,34.0,1.0,,,,,,,,,,
0.0,1.0,1.0631,,,,,,perfume_06s.jpg,0.0,clock_5_5.png,6.0,33,,,,,,,,,,,,,,,,,,0.0,35.0,35.0,35.0,1.0,,,,,,,,,,
,,,,,,,,,0.0,,,33,1.0,0.0,4.42298,,,,,,microwave_02s.jpg,toaster_03s.jpg,,,,,,,,,,,,,0.0,0.0,0.0,0.0,1.0,,,,,
,,,,,,,,,1.0,,,33,1.0,1.0,2.155465,,,,,,keyboard_05s.jpg,tube_top_03s.jpg,,,,,,,,,,,,,0.0,1.0,1.0,1.0,1.0,,,,,
,,,,,,,,,0.0,,,33,0.0,1.0,2.117275,,,,,,mango_09s.jpg,swordfish_05s.jpg,,,,,,,,,,,,,0.0,2.0,2.0,2.0,1.0,,,,,
,,,,,,,,,1.0,,,33,0.0,0.0,1.16418,,,,,,tripod_01b.jpg,bubble_01b.jpg,,,,,,,,,,,,,0.0,3.0,3.0,3.0,1.0,,,,,
,,,,,,,,,1.0,,,33,1.0,1.0,1.861695,,,,,,iron_13s.jpg,penlight_12s.jpg,,,,,,,,,,,,,0.0,4.0,4.0,4.0,1.0,,,,,
,,,,,,,,,0.0,,,33,1.0,0.0,3.89749,,,,,,eyedropper_12s.jpg,crossbow_10s.jpg,,,,,,,,,,,,,0.0,5.0,5.0,5.0,1.0,,,,,
,,,,,,,,,,,,33,,,,,,,,,,,,,,,,clock_present_3_17.xlsx,clock_compare_task_3_17.xlsx,,,,,,,,,,,0.0,2.0,2.0,2.0,1.0
0.0,1.0,1.267015,,,,,,aluminum_foil_08s.jpg,0.0,clock_5_1.png,1.0,33,,,,,,,,,,,,,,,,,,0.0,0.0,0.0,0.0,1.0,,,,,,,,,,
0.0,1.0,0.757735,,,,,,kimono_13s.jpg,0.0,clock_5_2.png,1.0,33,,,,,,,,,,,,,,,,,,0.0,1.0,1.0,1.0,1.0,,,,,,,,,,
1.0,1.0,1.15823,,,,,,aluminum_foil_08s.jpg,1.0,clock_5_3.png,1.0,33,,,,,,,,,,,,,,,,,,0.0,2.0,2.0,2.0,1.0,,,,,,,,,,
0.0,1.0,0.999975,,,,,,air_pump_05s.jpg,0.0,clock_5_4.png,1.0,33,,,,,,,,,,,,,,,,,,0.0,3.0,3.0,3.0,1.0,,,,,,,,,,
0.0,1.0,0.84448,,,,,,submarine_11n.jpg,0.0,clock_5_5.png,1.0,33,,,,,,,,,,,,,,,,,,0.0,4.0,4.0,4.0,1.0,,,,,,,,,,
0.0,1.0,0.710315,,,,,,totem_pole_05s.jpg,0.0,clock_5_1.png,2.0,33,,,,,,,,,,,,,,,,,,0.0,5.0,5.0,5.0,1.0,,,,,,,,,,
0.0,1.0,0.889365,,,,,,mattress_01s.jpg,0.0,clock_5_2.png,2.0,33,,,,,,,,,,,,,,,,,,0.0,6.0,6.0,6.0,1.0,,,,,,,,,,
1.0,1.0,1.49053,,,,,,totem_pole_05s.jpg,1.0,clock_5_3.png,2.0,33,,,,,,,,,,,,,,,,,,0.0,7.0,7.0,7.0,1.0,,,,,,,,,,
0.0,1.0,0.64959,,,,,,stump_02s.jpg,0.0,clock_5_4.png,2.0,33,,,,,,,,,,,,,,,,,,0.0,8.0,8.0,8.0,1.0,,,,,,,,,,
1.0,1.0,1.439715,,,,,,mattress_01s.jpg,1.0,clock_5_5.png,2.0,33,,,,,,,,,,,,,,,,,,0.0,9.0,9.0,9.0,1.0,,,,,,,,,,
0.0,1.0,1.04008,,,,,,pantyhose_07s.jpg,0.0,clock_7_1.png,3.0,33,,,,,,,,,,,,,,,,,,0.0,10.0,10.0,10.0,1.0,,,,,,,,,,
0.0,1.0,1.52955,,,,,,olive_05s.jpg,0.0,clock_7_2.png,3.0,33,,,,,,,,,,,,,,,,,,0.0,11.0,11.0,11.0,1.0,,,,,,,,,,
0.0,1.0,0.6724,,,,,,ukulele_02s.jpg,0.0,clock_7_3.png,3.0,33,,,,,,,,,,,,,,,,,,0.0,12.0,12.0,12.0,1.0,,,,,,,,,,
0.0,1.0,0.814905,,,,,,dashboard_02s.jpg,0.0,clock_7_4.png,3.0,33,,,,,,,,,,,,,,,,,,0.0,13.0,13.0,13.0,1.0,,,,,,,,,,
0.0,1.0,0.674525,,,,,,toy_04s.jpg,0.0,clock_7_5.png,3.0,33,,,,,,,,,,,,,,,,,,0.0,14.0,14.0,14.0,1.0,,,,,,,,,,
1.0,1.0,1.140675,,,,,,ukulele_02s.jpg,1.0,clock_7_6.png,3.0,33,,,,,,,,,,,,,,,,,,0.0,15.0,15.0,15.0,1.0,,,,,,,,,,
0.0,1.0,0.932325,,,,,,squirrel_02s.jpg,0.0,clock_7_7.png,3.0,33,,,,,,,,,,,,,,,,,,0.0,16.0,16.0,16.0,1.0,,,,,,,,,,
0.0,1.0,0.38647,,,,,,tweezers_03s.jpg,0.0,clock_6_1.png,4.0,33,,,,,,,,,,,,,,,,,,0.0,17.0,17.0,17.0,1.0,,,,,,,,,,
0.0,1.0,0.78858,,,,,,lantern_04s.jpg,0.0,clock_6_2.png,4.0,33,,,,,,,,,,,,,,,,,,0.0,18.0,18.0,18.0,1.0,,,,,,,,,,
0.0,1.0,0.70529,,,,,,lab_coat_11s.jpg,0.0,clock_6_3.png,4.0,33,,,,,,,,,,,,,,,,,,0.0,19.0,19.0,19.0,1.0,,,,,,,,,,
0.0,1.0,1.0413,,,,,,bank_06s.jpg,0.0,clock_6_4.png,4.0,33,,,,,,,,,,,,,,,,,,0.0,20.0,20.0,20.0,1.0,,,,,,,,,,
1.0,1.0,2.458795,,,,,,bank_06s.jpg,1.0,clock_6_5.png,4.0,33,,,,,,,,,,,,,,,,,,0.0,21.0,21.0,21.0,1.0,,,,,,,,,,
0.0,1.0,0.806985,,,,,,medal_04s.jpg,0.0,clock_6_6.png,4.0,33,,,,,,,,,,,,,,,,,,0.0,22.0,22.0,22.0,1.0,,,,,,,,,,
0.0,1.0,1.10864,,,,,,prism_10s.jpg,0.0,clock_6_1.png,5.0,33,,,,,,,,,,,,,,,,,,0.0,23.0,23.0,23.0,1.0,,,,,,,,,,
0.0,1.0,1.198875,,,,,,rock_08s.jpg,0.0,clock_6_2.png,5.0,33,,,,,,,,,,,,,,,,,,0.0,24.0,24.0,24.0,1.0,,,,,,,,,,
1.0,1.0,1.16819,,,,,,rock_08s.jpg,1.0,clock_6_3.png,5.0,33,,,,,,,,,,,,,,,,,,0.0,25.0,25.0,25.0,1.0,,,,,,,,,,
0.0,0.0,1.88239,,,,,,prism_10s.jpg,1.0,clock_6_4.png,5.0,33,,,,,,,,,,,,,,,,,,0.0,26.0,26.0,26.0,1.0,,,,,,,,,,
0.0,1.0,0.982615,,,,,,aluminum_foil_08s.jpg,0.0,clock_6_5.png,5.0,33,,,,,,,,,,,,,,,,,,0.0,27.0,27.0,27.0,1.0,,,,,,,,,,
0.0,1.0,0.893875,,,,,,coconut_08s.jpg,0.0,clock_6_6.png,5.0,33,,,,,,,,,,,,,,,,,,0.0,28.0,28.0,28.0,1.0,,,,,,,,,,
0.0,1.0,1.04815,,,,,,mousetrap_15n.jpg,0.0,clock_7_1.png,6.0,33,,,,,,,,,,,,,,,,,,0.0,29.0,29.0,29.0,1.0,,,,,,,,,,
0.0,1.0,0.9095,,,,,,pinwheel_06s.jpg,0.0,clock_7_2.png,6.0,33,,,,,,,,,,,,,,,,,,0.0,30.0,30.0,30.0,1.0,,,,,,,,,,
0.0,1.0,0.840435,,,,,,compass_10n.jpg,0.0,clock_7_3.png,6.0,33,,,,,,,,,,,,,,,,,,0.0,31.0,31.0,31.0,1.0,,,,,,,,,,
0.0,1.0,0.775515,,,,,,fireworks_18s.jpg,0.0,clock_7_4.png,6.0,33,,,,,,,,,,,,,,,,,,0.0,32.0,32.0,32.0,1.0,,,,,,,,,,
0.0,1.0,0.91447,,,,,,muffin_12n.jpg,0.0,clock_7_5.png,6.0,33,,,,,,,,,,,,,,,,,,0.0,33.0,33.0,33.0,1.0,,,,,,,,,,
1.0,1.0,1.108815,,,,,,compass_10n.jpg,1.0,clock_7_6.png,6.0,33,,,,,,,,,,,,,,,,,,0.0,34.0,34.0,34.0,1.0,,,,,,,,,,
0.0,1.0,1.1414,,,,,,totem_pole_05s.jpg,0.0,clock_7_7.png,6.0,33,,,,,,,,,,,,,,,,,,0.0,35.0,35.0,35.0,1.0,,,,,,,,,,
,,,,,,,,,1.0,,,33,0.0,0.0,3.31015,,,,,,stump_02s.jpg,olive_05s.jpg,,,,,,,,,,,,,0.0,0.0,0.0,0.0,1.0,,,,,
,,,,,,,,,0.0,,,33,1.0,0.0,1.542595,,,,,,tweezers_03s.jpg,toy_04s.jpg,,,,,,,,,,,,,0.0,1.0,1.0,1.0,1.0,,,,,
,,,,,,,,,0.0,,,33,0.0,1.0,4.362905,,,,,,lab_coat_11s.jpg,squirrel_02s.jpg,,,,,,,,,,,,,0.0,2.0,2.0,2.0,1.0,,,,,
,,,,,,,,,1.0,,,33,0.0,0.0,2.22588,,,,,,kimono_13s.jpg,submarine_11n.jpg,,,,,,,,,,,,,0.0,3.0,3.0,3.0,1.0,,,,,
,,,,,,,,,1.0,,,33,1.0,1.0,1.78334,,,,,,pantyhose_07s.jpg,dashboard_02s.jpg,,,,,,,,,,,,,0.0,4.0,4.0,4.0,1.0,,,,,
,,,,,,,,,0.0,,,33,1.0,0.0,1.40946,,,,,,fireworks_18s.jpg,mousetrap_15n.jpg,,,,,,,,,,,,,0.0,5.0,5.0,5.0,1.0,,,,,
,,,,,,,,,,,,33,,,,,,,,,,,,,,,,clock_present_4_17.xlsx,clock_compare_task_4_17.xlsx,,,,,,,,,,,0.0,3.0,3.0,3.0,1.0
0.0,1.0,1.304605,,,,,,timer_03s.jpg,0.0,clock_6_1.png,1.0,33,,,,,,,,,,,,,,,,,,0.0,0.0,0.0,0.0,1.0,,,,,,,,,,
0.0,1.0,0.707385,,,,,,cobra_05s.jpg,0.0,clock_6_2.png,1.0,33,,,,,,,,,,,,,,,,,,0.0,1.0,1.0,1.0,1.0,,,,,,,,,,
0.0,1.0,0.62263,,,,,,lizard_10n.jpg,0.0,clock_6_3.png,1.0,33,,,,,,,,,,,,,,,,,,0.0,2.0,2.0,2.0,1.0,,,,,,,,,,
0.0,0.0,0.95819,,,,,,cobra_05s.jpg,1.0,clock_6_4.png,1.0,33,,,,,,,,,,,,,,,,,,0.0,3.0,3.0,3.0,1.0,,,,,,,,,,
0.0,1.0,0.896515,,,,,,teabag_12s.jpg,0.0,clock_6_5.png,1.0,33,,,,,,,,,,,,,,,,,,0.0,4.0,4.0,4.0,1.0,,,,,,,,,,
0.0,0.0,1.058015,,,,,,timer_03s.jpg,1.0,clock_6_6.png,1.0,33,,,,,,,,,,,,,,,,,,0.0,5.0,5.0,5.0,1.0,,,,,,,,,,
0.0,1.0,0.614915,,,,,,tile_08s.jpg,0.0,clock_6_1.png,2.0,33,,,,,,,,,,,,,,,,,,0.0,6.0,6.0,6.0,1.0,,,,,,,,,,
0.0,1.0,0.618815,,,,,,undershirt_02s.jpg,0.0,clock_6_2.png,2.0,33,,,,,,,,,,,,,,,,,,0.0,7.0,7.0,7.0,1.0,,,,,,,,,,
0.0,1.0,0.80621,,,,,,surfboard_11s.jpg,0.0,clock_6_3.png,2.0,33,,,,,,,,,,,,,,,,,,0.0,8.0,8.0,8.0,1.0,,,,,,,,,,
0.0,1.0,0.80028,,,,,,chime_12s.jpg,0.0,clock_6_4.png,2.0,33,,,,,,,,,,,,,,,,,,0.0,9.0,9.0,9.0,1.0,,,,,,,,,,
1.0,1.0,1.347765,,,,,,surfboard_11s.jpg,1.0,clock_6_5.png,2.0,33,,,,,,,,,,,,,,,,,,0.0,10.0,10.0,10.0,1.0,,,,,,,,,,
0.0,1.0,1.59207,,,,,,crab_16s.jpg,0.0,clock_6_6.png,2.0,33,,,,,,,,,,,,,,,,,,0.0,11.0,11.0,11.0,1.0,,,,,,,,,,
0.0,1.0,1.541725,,,,,,frog_09s.jpg,0.0,clock_5_1.png,3.0,33,,,,,,,,,,,,,,,,,,0.0,12.0,12.0,12.0,1.0,,,,,,,,,,
0.0,1.0,0.77339,,,,,,squirt_gun_03s.jpg,0.0,clock_5_2.png,3.0,33,,,,,,,,,,,,,,,,,,0.0,13.0,13.0,13.0,1.0,,,,,,,,,,
0.0,1.0,1.10873,,,,,,undershirt_02s.jpg,0.0,clock_5_3.png,3.0,33,,,,,,,,,,,,,,,,,,0.0,14.0,14.0,14.0,1.0,,,,,,,,,,
0.0,1.0,0.981695,,,,,,razor_blade_01b.jpg,0.0,clock_5_4.png,3.0,33,,,,,,,,,,,,,,,,,,0.0,15.0,15.0,15.0,1.0,,,,,,,,,,
0.0,1.0,1.43061,,,,,,teabag_12s.jpg,0.0,clock_5_5.png,3.0,33,,,,,,,,,,,,,,,,,,0.0,16.0,16.0,16.0,1.0,,,,,,,,,,
0.0,1.0,1.059185,,,,,,fur_coat_11s.jpg,0.0,clock_7_1.png,4.0,33,,,,,,,,,,,,,,,,,,0.0,17.0,17.0,17.0,1.0,,,,,,,,,,
1.0,1.0,1.60616,,,,,,fur_coat_11s.jpg,1.0,clock_7_2.png,4.0,33,,,,,,,,,,,,,,,,,,0.0,18.0,18.0,18.0,1.0,,,,,,,,,,
0.0,1.0,0.62782,,,,,,mushroom_10n.jpg,0.0,clock_7_3.png,4.0,33,,,,,,,,,,,,,,,,,,0.0,19.0,19.0,19.0,1.0,,,,,,,,,,
0.0,1.0,0.83279,,,,,,snowman_02s.jpg,0.0,clock_7_4.png,4.0,33,,,,,,,,,,,,,,,,,,0.0,20.0,20.0,20.0,1.0,,,,,,,,,,
1.0,1.0,1.60566,,,,,,snowman_02s.jpg,1.0,clock_7_5.png,4.0,33,,,,,,,,,,,,,,,,,,0.0,21.0,21.0,21.0,1.0,,,,,,,,,,
0.0,1.0,0.898855,,,,,,safety_pin_02s.jpg,0.0,clock_7_6.png,4.0,33,,,,,,,,,,,,,,,,,,0.0,22.0,22.0,22.0,1.0,,,,,,,,,,
0.0,1.0,1.306355,,,,,,surfboard_11s.jpg,0.0,clock_7_7.png,4.0,33,,,,,,,,,,,,,,,,,,0.0,23.0,23.0,23.0,1.0,,,,,,,,,,
0.0,1.0,1.464305,,,,,,oil_02s.jpg,0.0,clock_7_1.png,5.0,33,,,,,,,,,,,,,,,,,,0.0,24.0,24.0,24.0,1.0,,,,,,,,,,
0.0,1.0,1.047,,,,,,ice-cream_cone_06s.jpg,0.0,clock_7_2.png,5.0,33,,,,,,,,,,,,,,,,,,0.0,25.0,25.0,25.0,1.0,,,,,,,,,,
0.0,1.0,1.05564,,,,,,tennis_ball_06s.jpg,0.0,clock_7_3.png,5.0,33,,,,,,,,,,,,,,,,,,0.0,26.0,26.0,26.0,1.0,,,,,,,,,,
0.0,1.0,0.856075,,,,,,pencil_sharpener_09n.jpg,0.0,clock_7_4.png,5.0,33,,,,,,,,,,,,,,,,,,0.0,27.0,27.0,27.0,1.0,,,,,,,,,,
0.0,1.0,0.864325,,,,,,pumpkin_03s.jpg,0.0,clock_7_5.png,5.0,33,,,,,,,,,,,,,,,,,,0.0,28.0,28.0,28.0,1.0,,,,,,,,,,
0.0,1.0,1.059385,,,,,,ring_03s.jpg,0.0,clock_7_6.png,5.0,33,,,,,,,,,,,,,,,,,,0.0,29.0,29.0,29.0,1.0,,,,,,,,,,
0.0,1.0,0.640085,,,,,,police_car_01s.jpg,0.0,clock_7_7.png,5.0,33,,,,,,,,,,,,,,,,,,0.0,30.0,30.0,30.0,1.0,,,,,,,,,,
0.0,1.0,1.061305,,,,,,bolo_tie_08s.jpg,0.0,clock_5_1.png,6.0,33,,,,,,,,,,,,,,,,,,0.0,31.0,31.0,31.0,1.0,,,,,,,,,,
0.0,1.0,0.846585,,,,,,jelly_bean_06s.jpg,0.0,clock_5_2.png,6.0,33,,,,,,,,,,,,,,,,,,0.0,32.0,32.0,32.0,1.0,,,,,,,,,,
0.0,1.0,0.776495,,,,,,pencil02a.jpg,0.0,clock_5_3.png,6.0,33,,,,,,,,,,,,,,,,,,0.0,33.0,33.0,33.0,1.0,,,,,,,,,,
0.0,1.0,1.28161,,,,,,lizard_10n.jpg,0.0,clock_5_4.png,6.0,33,,,,,,,,,,,,,,,,,,0.0,34.0,34.0,34.0,1.0,,,,,,,,,,
0.0,1.0,0.713375,,,,,,pepper2_21s.jpg,0.0,clock_5_5.png,6.0,33,,,,,,,,,,,,,,,,,,0.0,35.0,35.0,35.0,1.0,,,,,,,,,,
,,,,,,,,,0.0,,,33,0.0,1.0,3.12227,,,,,,bolo_tie_08s.jpg,pumpkin_03s.jpg,,,,,,,,,,,,,0.0,0.0,0.0,0.0,1.0,,,,,
,,,,,,,,,1.0,,,33,1.0,1.0,2.54711,,,,,,police_car_01s.jpg,pencil02a.jpg,,,,,,,,,,,,,0.0,1.0,1.0,1.0,1.0,,,,,
,,,,,,,,,1.0,,,33,0.0,0.0,3.00769,,,,,,chime_12s.jpg,frog_09s.jpg,,,,,,,,,,,,,0.0,2.0,2.0,2.0,1.0,,,,,
,,,,,,,,,0.0,,,33,0.0,1.0,2.89624,,,,,,pencil_sharpener_09n.jpg,oil_02s.jpg,,,,,,,,,,,,,0.0,3.0,3.0,3.0,1.0,,,,,
,,,,,,,,,0.0,,,33,0.0,1.0,1.230205,,,,,,safety_pin_02s.jpg,mushroom_10n.jpg,,,,,,,,,,,,,0.0,4.0,4.0,4.0,1.0,,,,,
,,,,,,,,,0.0,,,33,0.0,1.0,2.378955,,,,,,ring_03s.jpg,tennis_ball_06s.jpg,,,,,,,,,,,,,0.0,5.0,5.0,5.0,1.0,,,,,
,,,,,,,,,,,,33,,,,,,,,,,,,,,,,clock_present_5_17.xlsx,clock_compare_task_5_17.xlsx,,,,,,,,,,,0.0,4.0,4.0,4.0,1.0
0.0,1.0,0.97415,,,,,,recliner_02s.jpg,0.0,clock_6_1.png,1.0,33,,,,,,,,,,,,,,,,,,0.0,0.0,0.0,0.0,1.0,,,,,,,,,,
0.0,1.0,0.728685,,,,,,purse_05s.jpg,0.0,clock_6_2.png,1.0,33,,,,,,,,,,,,,,,,,,0.0,1.0,1.0,1.0,1.0,,,,,,,,,,
0.0,1.0,0.86222,,,,,,treasure_08s.jpg,0.0,clock_6_3.png,1.0,33,,,,,,,,,,,,,,,,,,0.0,2.0,2.0,2.0,1.0,,,,,,,,,,
0.0,1.0,1.023275,,,,,,tongs_08s.jpg,0.0,clock_6_4.png,1.0,33,,,,,,,,,,,,,,,,,,0.0,3.0,3.0,3.0,1.0,,,,,,,,,,
1.0,1.0,1.66496,,,,,,tongs_08s.jpg,1.0,clock_6_5.png,1.0,33,,,,,,,,,,,,,,,,,,0.0,4.0,4.0,4.0,1.0,,,,,,,,,,
0.0,1.0,2.008275,,,,,,feather02.jpg,0.0,clock_6_6.png,1.0,33,,,,,,,,,,,,,,,,,,0.0,5.0,5.0,5.0,1.0,,,,,,,,,,
0.0,1.0,1.02709,,,,,,pocketknife_12s.jpg,0.0,clock_7_1.png,2.0,33,,,,,,,,,,,,,,,,,,0.0,6.0,6.0,6.0,1.0,,,,,,,,,,
0.0,1.0,1.220725,,,,,,bagel_15s.jpg,0.0,clock_7_2.png,2.0,33,,,,,,,,,,,,,,,,,,0.0,7.0,7.0,7.0,1.0,,,,,,,,,,
0.0,1.0,1.02359,,,,,,turtleneck_11s.jpg,0.0,clock_7_3.png,2.0,33,,,,,,,,,,,,,,,,,,0.0,8.0,8.0,8.0,1.0,,,,,,,,,,
1.0,1.0,1.15963,,,,,,turtleneck_11s.jpg,1.0,clock_7_4.png,2.0,33,,,,,,,,,,,,,,,,,,0.0,9.0,9.0,9.0,1.0,,,,,,,,,,
0.0,1.0,0.74223,,,,,,kangaroo_02s.jpg,0.0,clock_7_5.png,2.0,33,,,,,,,,,,,,,,,,,,0.0,10.0,10.0,10.0,1.0,,,,,,,,,,
1.0,1.0,1.289785,,,,,,turtleneck_11s.jpg,1.0,clock_7_6.png,2.0,33,,,,,,,,,,,,,,,,,,0.0,11.0,11.0,11.0,1.0,,,,,,,,,,
0.0,1.0,1.129335,,,,,,tongs_08s.jpg,0.0,clock_7_7.png,2.0,33,,,,,,,,,,,,,,,,,,0.0,12.0,12.0,12.0,1.0,,,,,,,,,,
0.0,1.0,0.80959,,,,,,incense_02s.jpg,0.0,clock_6_1.png,3.0,33,,,,,,,,,,,,,,,,,,0.0,13.0,13.0,13.0,1.0,,,,,,,,,,
0.0,1.0,0.71542,,,,,,peeler_06s.jpg,0.0,clock_6_2.png,3.0,33,,,,,,,,,,,,,,,,,,0.0,14.0,14.0,14.0,1.0,,,,,,,,,,
0.0,1.0,0.922765,,,,,,lollipop_08s.jpg,0.0,clock_6_3.png,3.0,33,,,,,,,,,,,,,,,,,,0.0,15.0,15.0,15.0,1.0,,,,,,,,,,
0.0,1.0,1.107095,,,,,,soccer_ball_12s.jpg,0.0,clock_6_4.png,3.0,33,,,,,,,,,,,,,,,,,,0.0,16.0,16.0,16.0,1.0,,,,,,,,,,
0.0,1.0,0.58114,,,,,,parachute_03s.jpg,0.0,clock_6_5.png,3.0,33,,,,,,,,,,,,,,,,,,0.0,17.0,17.0,17.0,1.0,,,,,,,,,,
0.0,1.0,1.822685,,,,,,pillbox_04s.jpg,0.0,clock_6_6.png,3.0,33,,,,,,,,,,,,,,,,,,0.0,18.0,18.0,18.0,1.0,,,,,,,,,,
0.0,1.0,0.341145,,,,,,solar_panel_02s.jpg,0.0,clock_5_1.png,4.0,33,,,,,,,,,,,,,,,,,,0.0,19.0,19.0,19.0,1.0,,,,,,,,,,
0.0,1.0,0.76318,,,,,,pomegranate_04s.jpg,0.0,clock_5_2.png,4.0,33,,,,,,,,,,,,,,,,,,0.0,20.0,20.0,20.0,1.0,,,,,,,,,,
0.0,1.0,0.730455,,,,,,kettle_08s.jpg,0.0,clock_5_3.png,4.0,33,,,,,,,,,,,,,,,,,,0.0,21.0,21.0,21.0,1.0,,,,,,,,,,
1.0,1.0,1.374685,,,,,,solar_panel_02s.jpg,1.0,clock_5_4.png,4.0,33,,,,,,,,,,,,,,,,,,0.0,22.0,22.0,22.0,1.0,,,,,,,,,,
0.0,1.0,1.07369,,,,,,lollipop_08s.jpg,0.0,clock_5_5.png,4.0,33,,,,,,,,,,,,,,,,,,0.0,23.0,23.0,23.0,1.0,,,,,,,,,,
0.0,1.0,0.361525,,,,,,hummingbird_05s.jpg,0.0,clock_5_1.png,5.0,33,,,,,,,,,,,,,,,,,,0.0,24.0,24.0,24.0,1.0,,,,,,,,,,
0.0,1.0,1.100515,,,,,,quesadilla_07s.jpg,0.0,clock_5_2.png,5.0,33,,,,,,,,,,,,,,,,,,0.0,25.0,25.0,25.0,1.0,,,,,,,,,,
0.0,1.0,1.727805,,,,,,jet_15s.jpg,0.0,clock_5_3.png,5.0,33,,,,,,,,,,,,,,,,,,0.0,26.0,26.0,26.0,1.0,,,,,,,,,,
1.0,1.0,1.09487,,,,,,quesadilla_07s.jpg,1.0,clock_5_4.png,5.0,33,,,,,,,,,,,,,,,,,,0.0,27.0,27.0,27.0,1.0,,,,,,,,,,
0.0,1.0,1.6484,,,,,,soccer_ball_12s.jpg,0.0,clock_5_5.png,5.0,33,,,,,,,,,,,,,,,,,,0.0,28.0,28.0,28.0,1.0,,,,,,,,,,
0.0,1.0,0.81896,,,,,,tomato_sauce_09s.jpg,0.0,clock_7_1.png,6.0,33,,,,,,,,,,,,,,,,,,0.0,29.0,29.0,29.0,1.0,,,,,,,,,,
0.0,1.0,0.91277,,,,,,tiara_05s.jpg,0.0,clock_7_2.png,6.0,33,,,,,,,,,,,,,,,,,,0.0,30.0,30.0,30.0,1.0,,,,,,,,,,
0.0,1.0,0.641475,,,,,,binder_21s.jpg,0.0,clock_7_3.png,6.0,33,,,,,,,,,,,,,,,,,,0.0,31.0,31.0,31.0,1.0,,,,,,,,,,
0.0,1.0,1.041515,,,,,,printer_09s.jpg,0.0,clock_7_4.png,6.0,33,,,,,,,,,,,,,,,,,,0.0,32.0,32.0,32.0,1.0,,,,,,,,,,
0.0,1.0,0.899455,,,,,,hyena_16s.jpg,0.0,clock_7_5.png,6.0,33,,,,,,,,,,,,,,,,,,0.0,33.0,33.0,33.0,1.0,,,,,,,,,,
0.0,1.0,1.11382,,,,,,cushion_08s.jpg,0.0,clock_7_6.png,6.0,33,,,,,,,,,,,,,,,,,,0.0,34.0,34.0,34.0,1.0,,,,,,,,,,
0.0,1.0,1.74095,,,,,,towel_rack_04s.jpg,0.0,clock_7_7.png,6.0,33,,,,,,,,,,,,,,,,,,0.0,35.0,35.0,35.0,1.0,,,,,,,,,,
,,,,,,,,,0.0,,,33,0.0,1.0,2.25558,,,,,,kettle_08s.jpg,pillbox_04s.jpg,,,,,,,,,,,,,0.0,0.0,0.0,0.0,1.0,,,,,
,,,,,,,,,0.0,,,33,0.0,1.0,1.84538,,,,,,incense_02s.jpg,kangaroo_02s.jpg,,,,,,,,,,,,,0.0,1.0,1.0,1.0,1.0,,,,,
,,,,,,,,,0.0,,,33,1.0,0.0,1.80882,,,,,,pomegranate_04s.jpg,parachute_03s.jpg,,,,,,,,,,,,,0.0,2.0,2.0,2.0,1.0,,,,,
,,,,,,,,,1.0,,,33,1.0,1.0,2.834265,,,,,,treasure_08s.jpg,feather02.jpg,,,,,,,,,,,,,0.0,3.0,3.0,3.0,1.0,,,,,
,,,,,,,,,0.0,,,33,0.0,1.0,1.62868,,,,,,hyena_16s.jpg,tiara_05s.jpg,,,,,,,,,,,,,0.0,4.0,4.0,4.0,1.0,,,,,
,,,,,,,,,1.0,,,33,1.0,1.0,1.776335,,,,,,binder_21s.jpg,cushion_08s.jpg,,,,,,,,,,,,,0.0,5.0,5.0,5.0,1.0,,,,,
