key_resp.keys,key_resp.corr,key_resp.rt,noclock_loop.thisRepN,noclock_loop.thisTrialN,noclock_loop.thisN,noclock_loop.thisIndex,noclock_loop.ran,pictures,answer,clock,segment,participant,key_resp_2.keys,key_resp_2.corr,key_resp_2.rt,noclock_loop2.thisRepN,noclock_loop2.thisTrialN,noclock_loop2.thisN,noclock_loop2.thisIndex,noclock_loop2.ran,item_a,item_b,noclock_condition.thisRepN,noclock_condition.thisTrialN,noclock_condition.thisN,noclock_condition.thisIndex,noclock_condition.ran,present,compare,present_segment.thisRepN,present_segment.thisTrialN,present_segment.thisN,present_segment.thisIndex,present_segment.ran,compare_segment.thisRepN,compare_segment.thisTrialN,compare_segment.thisN,compare_segment.thisIndex,compare_segment.ran,clock_conditions.thisRepN,clock_conditions.thisTrialN,clock_conditions.thisN,clock_conditions.thisIndex,clock_conditions.ran
0.0,1.0,1.17109,0.0,0.0,0.0,0.0,1.0,stamp1_11s.jpg,0.0,clockno_up.jpg,1.0,79,,,,,,,,,,,,,,,,,,,,,,,,,,,,,,,,
1.0,1.0,0.77142,0.0,1.0,1.0,1.0,1.0,stamp1_11s.jpg,1.0,clockno_default.jpg,1.0,79,,,,,,,,,,,,,,,,,,,,,,,,,,,,,,,,
0.0,1.0,1.165115,0.0,2.0,2.0,2.0,1.0,bacon_05s.jpg,0.0,clockno_default.jpg,1.0,79,,,,,,,,,,,,,,,,,,,,,,,,,,,,,,,,
0.0,1.0,0.676745,0.0,3.0,3.0,3.0,1.0,owl_15s.jpg,0.0,clockno_default.jpg,1.0,79,,,,,,,,,,,,,,,,,,,,,,,,,,,,,,,,
1.0,1.0,0.82754,0.0,4.0,4.0,4.0,1.0,owl_15s.jpg,1.0,clockno_default.jpg,1.0,79,,,,,,,,,,,,,,,,,,,,,,,,,,,,,,,,
0.0,1.0,1.17299,0.0,5.0,5.0,5.0,1.0,eiffeltower.jpg,0.0,clockno_up.jpg,2.0,79,,,,,,,,,,,,,,,,,,,,,,,,,,,,,,,,
0.0,1.0,1.09475,0.0,6.0,6.0,6.0,1.0,film_03s.jpg,0.0,clockno_default.jpg,2.0,79,,,,,,,,,,,,,,,,,,,,,,,,,,,,,,,,
1.0,1.0,0.908595,0.0,7.0,7.0,7.0,1.0,eiffeltower.jpg,1.0,clockno_default.jpg,2.0,79,,,,,,,,,,,,,,,,,,,,,,,,,,,,,,,,
0.0,1.0,0.859165,0.0,8.0,8.0,8.0,1.0,abacus_12s.jpg,0.0,clockno_default.jpg,2.0,79,,,,,,,,,,,,,,,,,,,,,,,,,,,,,,,,
1.0,1.0,0.792755,0.0,9.0,9.0,9.0,1.0,eiffeltower.jpg,1.0,clockno_default.jpg,2.0,79,,,,,,,,,,,,,,,,,,,,,,,,,,,,,,,,
0.0,1.0,1.109095,0.0,10.0,10.0,10.0,1.0,ram_05s.jpg,0.0,clockno_up.jpg,3.0,79,,,,,,,,,,,,,,,,,,,,,,,,,,,,,,,,
0.0,1.0,0.84235,0.0,11.0,11.0,11.0,1.0,fox_13s.jpg,0.0,clockno_default.jpg,3.0,79,,,,,,,,,,,,,,,,,,,,,,,,,,,,,,,,
0.0,1.0,1.095905,0.0,12.0,12.0,12.0,1.0,triangle_10s.jpg,0.0,clockno_default.jpg,3.0,79,,,,,,,,,,,,,,,,,,,,,,,,,,,,,,,,
0.0,1.0,0.687395,0.0,13.0,13.0,13.0,1.0,key_07s.jpg,0.0,clockno_default.jpg,3.0,79,,,,,,,,,,,,,,,,,,,,,,,,,,,,,,,,
0.0,1.0,1.173025,0.0,14.0,14.0,14.0,1.0,plaster_cast_13s.jpg,0.0,clockno_default.jpg,3.0,79,,,,,,,,,,,,,,,,,,,,,,,,,,,,,,,,
0.0,1.0,0.747325,0.0,15.0,15.0,15.0,1.0,fishhook_06s.jpg,0.0,clockno_default.jpg,3.0,79,,,,,,,,,,,,,,,,,,,,,,,,,,,,,,,,
0.0,1.0,0.74196,0.0,16.0,16.0,16.0,1.0,poinsettia_04s.jpg,0.0,clockno_default.jpg,3.0,79,,,,,,,,,,,,,,,,,,,,,,,,,,,,,,,,
0.0,1.0,0.864415,0.0,17.0,17.0,17.0,1.0,teacup_07s.jpg,0.0,clockno_up.jpg,4.0,79,,,,,,,,,,,,,,,,,,,,,,,,,,,,,,,,
0.0,1.0,0.54709,0.0,18.0,18.0,18.0,1.0,rabbit_03s.jpg,0.0,clockno_default.jpg,4.0,79,,,,,,,,,,,,,,,,,,,,,,,,,,,,,,,,
1.0,1.0,0.82569,0.0,19.0,19.0,19.0,1.0,rabbit_03s.jpg,1.0,clockno_default.jpg,4.0,79,,,,,,,,,,,,,,,,,,,,,,,,,,,,,,,,
0.0,1.0,1.53154,0.0,20.0,20.0,20.0,1.0,powder_07s.jpg,0.0,clockno_default.jpg,4.0,79,,,,,,,,,,,,,,,,,,,,,,,,,,,,,,,,
0.0,1.0,0.86083,0.0,21.0,21.0,21.0,1.0,gas_mask_11s.jpg,0.0,clockno_default.jpg,4.0,79,,,,,,,,,,,,,,,,,,,,,,,,,,,,,,,,
0.0,1.0,0.71916,0.0,22.0,22.0,22.0,1.0,loveseat_08s.jpg,0.0,clockno_default.jpg,4.0,79,,,,,,,,,,,,,,,,,,,,,,,,,,,,,,,,
0.0,1.0,0.984695,0.0,23.0,23.0,23.0,1.0,pan_02s.jpg,0.0,clockno_up.jpg,5.0,79,,,,,,,,,,,,,,,,,,,,,,,,,,,,,,,,
0.0,1.0,0.69294,0.0,24.0,24.0,24.0,1.0,mirror_12s.jpg,0.0,clockno_default.jpg,5.0,79,,,,,,,,,,,,,,,,,,,,,,,,,,,,,,,,
0.0,1.0,0.64811,0.0,25.0,25.0,25.0,1.0,puppy_08s.jpg,0.0,clockno_default.jpg,5.0,79,,,,,,,,,,,,,,,,,,,,,,,,,,,,,,,,
0.0,1.0,0.72202,0.0,26.0,26.0,26.0,1.0,laser_pointer_02s.jpg,0.0,clockno_default.jpg,5.0,79,,,,,,,,,,,,,,,,,,,,,,,,,,,,,,,,
1.0,1.0,0.96897,0.0,27.0,27.0,27.0,1.0,puppy_08s.jpg,1.0,clockno_default.jpg,5.0,79,,,,,,,,,,,,,,,,,,,,,,,,,,,,,,,,
0.0,1.0,0.912285,0.0,28.0,28.0,28.0,1.0,tablet_04s.jpg,0.0,clockno_default.jpg,5.0,79,,,,,,,,,,,,,,,,,,,,,,,,,,,,,,,,
0.0,1.0,1.2516,0.0,29.0,29.0,29.0,1.0,jewel_01b.jpg,0.0,clockno_default.jpg,5.0,79,,,,,,,,,,,,,,,,,,,,,,,,,,,,,,,,
0.0,1.0,0.760485,0.0,30.0,30.0,30.0,1.0,crystal_ball_12s.jpg,0.0,clockno_up.jpg,6.0,79,,,,,,,,,,,,,,,,,,,,,,,,,,,,,,,,
0.0,1.0,0.75508,0.0,31.0,31.0,31.0,1.0,mud_13s.jpg,0.0,clockno_default.jpg,6.0,79,,,,,,,,,,,,,,,,,,,,,,,,,,,,,,,,
0.0,1.0,0.847185,0.0,32.0,32.0,32.0,1.0,bee_20s.jpg,0.0,clockno_default.jpg,6.0,79,,,,,,,,,,,,,,,,,,,,,,,,,,,,,,,,
1.0,1.0,0.888265,0.0,33.0,33.0,33.0,1.0,mud_13s.jpg,1.0,clockno_default.jpg,6.0,79,,,,,,,,,,,,,,,,,,,,,,,,,,,,,,,,
0.0,1.0,0.711295,0.0,34.0,34.0,34.0,1.0,glue_01s.jpg,0.0,clockno_default.jpg,6.0,79,,,,,,,,,,,,,,,,,,,,,,,,,,,,,,,,
0.0,1.0,0.77394,0.0,35.0,35.0,35.0,1.0,potpourri_03s.jpg,0.0,clockno_default.jpg,6.0,79,,,,,,,,,,,,,,,,,,,,,,,,,,,,,,,,
,,,,,,,,,0.0,,,79,0.0,1.0,1.61798,0.0,0.0,0.0,0.0,1.0,mirror_12s.jpg,gas_mask_11s.jpg,,,,,,,,,,,,,,,,,,,,,,
,,,,,,,,,0.0,,,79,1.0,0.0,5.325425,0.0,1.0,1.0,1.0,1.0,fox_13s.jpg,abacus_12s.jpg,,,,,,,,,,,,,,,,,,,,,,
,,,,,,,,,1.0,,,79,0.0,0.0,5.927375,0.0,2.0,2.0,2.0,1.0,plaster_cast_13s.jpg,teacup_07s.jpg,,,,,,,,,,,,,,,,,,,,,,
,,,,,,,,,1.0,,,79,1.0,1.0,2.35378,0.0,3.0,3.0,3.0,1.0,ram_05s.jpg,key_07s.jpg,,,,,,,,,,,,,,,,,,,,,,
,,,,,,,,,0.0,,,79,0.0,1.0,2.251845,0.0,4.0,4.0,4.0,1.0,fishhook_06s.jpg,triangle_10s.jpg,,,,,,,,,,,,,,,,,,,,,,
,,,,,,,,,1.0,,,79,1.0,1.0,1.134805,0.0,5.0,5.0,5.0,1.0,pan_02s.jpg,laser_pointer_02s.jpg,,,,,,,,,,,,,,,,,,,,,,
,,,,,,,,,,,,79,,,,,,,,,,,0.0,0.0,0.0,0.0,1.0,clockno_present_1_17.xlsx,clockno_compare_task_1_17.xlsx,,,,,,,,,,,,,,,
0.0,1.0,1.248965,0.0,0.0,0.0,0.0,1.0,rope_16s.jpg,0.0,clockno_up.jpg,1.0,79,,,,,,,,,,,,,,,,,,,,,,,,,,,,,,,,
0.0,1.0,1.08153,0.0,1.0,1.0,1.0,1.0,stopwatch_04s.jpg,0.0,clockno_default.jpg,1.0,79,,,,,,,,,,,,,,,,,,,,,,,,,,,,,,,,
1.0,1.0,0.75844,0.0,2.0,2.0,2.0,1.0,rope_16s.jpg,1.0,clockno_default.jpg,1.0,79,,,,,,,,,,,,,,,,,,,,,,,,,,,,,,,,
0.0,1.0,0.642315,0.0,3.0,3.0,3.0,1.0,milk_02s.jpg,0.0,clockno_default.jpg,1.0,79,,,,,,,,,,,,,,,,,,,,,,,,,,,,,,,,
1.0,1.0,1.06167,0.0,4.0,4.0,4.0,1.0,milk_02s.jpg,1.0,clockno_default.jpg,1.0,79,,,,,,,,,,,,,,,,,,,,,,,,,,,,,,,,
0.0,1.0,1.206985,0.0,5.0,5.0,5.0,1.0,bathtub_23s.jpg,0.0,clockno_up.jpg,2.0,79,,,,,,,,,,,,,,,,,,,,,,,,,,,,,,,,
1.0,1.0,1.052335,0.0,6.0,6.0,6.0,1.0,bathtub_23s.jpg,1.0,clockno_default.jpg,2.0,79,,,,,,,,,,,,,,,,,,,,,,,,,,,,,,,,
0.0,1.0,1.26506,0.0,7.0,7.0,7.0,1.0,playpen_11s.jpg,0.0,clockno_default.jpg,2.0,79,,,,,,,,,,,,,,,,,,,,,,,,,,,,,,,,
0.0,1.0,0.713355,0.0,8.0,8.0,8.0,1.0,fork_04s.jpg,0.0,clockno_default.jpg,2.0,79,,,,,,,,,,,,,,,,,,,,,,,,,,,,,,,,
0.0,1.0,0.89749,0.0,9.0,9.0,9.0,1.0,milk_02s.jpg,0.0,clockno_default.jpg,2.0,79,,,,,,,,,,,,,,,,,,,,,,,,,,,,,,,,
0.0,1.0,0.896905,0.0,10.0,10.0,10.0,1.0,orchid_01b.jpg,0.0,clockno_default.jpg,2.0,79,,,,,,,,,,,,,,,,,,,,,,,,,,,,,,,,
0.0,1.0,0.848755,0.0,11.0,11.0,11.0,1.0,tiger_06s.jpg,0.0,clockno_default.jpg,2.0,79,,,,,,,,,,,,,,,,,,,,,,,,,,,,,,,,
0.0,1.0,0.96063,0.0,12.0,12.0,12.0,1.0,toad_09s.jpg,0.0,clockno_up.jpg,3.0,79,,,,,,,,,,,,,,,,,,,,,,,,,,,,,,,,
0.0,1.0,0.959535,0.0,13.0,13.0,13.0,1.0,keyhole_03s.jpg,0.0,clockno_default.jpg,3.0,79,,,,,,,,,,,,,,,,,,,,,,,,,,,,,,,,
0.0,1.0,0.67897,0.0,14.0,14.0,14.0,1.0,roulette_wheel_04s.jpg,0.0,clockno_default.jpg,3.0,79,,,,,,,,,,,,,,,,,,,,,,,,,,,,,,,,
0.0,1.0,0.95875,0.0,15.0,15.0,15.0,1.0,lid_10s.jpg,0.0,clockno_default.jpg,3.0,79,,,,,,,,,,,,,,,,,,,,,,,,,,,,,,,,
0.0,1.0,0.60964,0.0,16.0,16.0,16.0,1.0,exhaust_pipe_10s.jpg,0.0,clockno_default.jpg,3.0,79,,,,,,,,,,,,,,,,,,,,,,,,,,,,,,,,
0.0,1.0,0.67165,0.0,17.0,17.0,17.0,1.0,sugar_cube_11s.jpg,0.0,clockno_default.jpg,3.0,79,,,,,,,,,,,,,,,,,,,,,,,,,,,,,,,,
0.0,1.0,0.86978,0.0,18.0,18.0,18.0,1.0,rooster_03s.jpg,0.0,clockno_up.jpg,4.0,79,,,,,,,,,,,,,,,,,,,,,,,,,,,,,,,,
0.0,1.0,2.18417,0.0,19.0,19.0,19.0,1.0,fire_alarm_05s.jpg,0.0,clockno_default.jpg,4.0,79,,,,,,,,,,,,,,,,,,,,,,,,,,,,,,,,
0.0,1.0,0.878375,0.0,20.0,20.0,20.0,1.0,playpen_11s.jpg,0.0,clockno_default.jpg,4.0,79,,,,,,,,,,,,,,,,,,,,,,,,,,,,,,,,
0.0,1.0,0.87916,0.0,21.0,21.0,21.0,1.0,keyhole_03s.jpg,0.0,clockno_default.jpg,4.0,79,,,,,,,,,,,,,,,,,,,,,,,,,,,,,,,,
1.0,1.0,0.99975,0.0,22.0,22.0,22.0,1.0,keyhole_03s.jpg,1.0,clockno_default.jpg,4.0,79,,,,,,,,,,,,,,,,,,,,,,,,,,,,,,,,
0.0,1.0,0.71708,0.0,23.0,23.0,23.0,1.0,mosquito_12s.jpg,0.0,clockno_default.jpg,4.0,79,,,,,,,,,,,,,,,,,,,,,,,,,,,,,,,,
0.0,1.0,0.72481,0.0,24.0,24.0,24.0,1.0,light_switch_02s.jpg,0.0,clockno_default.jpg,4.0,79,,,,,,,,,,,,,,,,,,,,,,,,,,,,,,,,
0.0,1.0,0.90851,0.0,25.0,25.0,25.0,1.0,koala_13s.jpg,0.0,clockno_up.jpg,5.0,79,,,,,,,,,,,,,,,,,,,,,,,,,,,,,,,,
0.0,1.0,1.202505,0.0,26.0,26.0,26.0,1.0,leash_10s.jpg,0.0,clockno_default.jpg,5.0,79,,,,,,,,,,,,,,,,,,,,,,,,,,,,,,,,
0.0,1.0,0.907185,0.0,27.0,27.0,27.0,1.0,sunglasses_11s.jpg,0.0,clockno_default.jpg,5.0,79,,,,,,,,,,,,,,,,,,,,,,,,,,,,,,,,
1.0,1.0,0.92784,0.0,28.0,28.0,28.0,1.0,sunglasses_11s.jpg,1.0,clockno_default.jpg,5.0,79,,,,,,,,,,,,,,,,,,,,,,,,,,,,,,,,
0.0,1.0,0.826455,0.0,29.0,29.0,29.0,1.0,insole_11s.jpg,0.0,clockno_default.jpg,5.0,79,,,,,,,,,,,,,,,,,,,,,,,,,,,,,,,,
0.0,1.0,1.01277,0.0,30.0,30.0,30.0,1.0,juicer2_06s.jpg,0.0,clockno_default.jpg,5.0,79,,,,,,,,,,,,,,,,,,,,,,,,,,,,,,,,
0.0,1.0,1.293285,0.0,31.0,31.0,31.0,1.0,stethoscope_01b.jpg,0.0,clockno_up.jpg,6.0,79,,,,,,,,,,,,,,,,,,,,,,,,,,,,,,,,
0.0,1.0,0.68355,0.0,32.0,32.0,32.0,1.0,torch_02s.jpg,0.0,clockno_default.jpg,6.0,79,,,,,,,,,,,,,,,,,,,,,,,,,,,,,,,,
0.0,1.0,1.38777,0.0,33.0,33.0,33.0,1.0,duck_01b.jpg,0.0,clockno_default.jpg,6.0,79,,,,,,,,,,,,,,,,,,,,,,,,,,,,,,,,
0.0,1.0,1.06101,0.0,34.0,34.0,34.0,1.0,jigsaw_puzzle_11s.jpg,0.0,clockno_default.jpg,6.0,79,,,,,,,,,,,,,,,,,,,,,,,,,,,,,,,,
0.0,1.0,0.87469,0.0,35.0,35.0,35.0,1.0,mop_08s.jpg,0.0,clockno_default.jpg,6.0,79,,,,,,,,,,,,,,,,,,,,,,,,,,,,,,,,
,,,,,,,,,0.0,,,79,0.0,1.0,1.974165,0.0,0.0,0.0,0.0,1.0,fire_alarm_05s.jpg,exhaust_pipe_10s.jpg,,,,,,,,,,,,,,,,,,,,,,
,,,,,,,,,1.0,,,79,1.0,1.0,3.786975,0.0,1.0,1.0,1.0,1.0,juicer2_06s.jpg,duck_01b.jpg,,,,,,,,,,,,,,,,,,,,,,
,,,,,,,,,1.0,,,79,0.0,0.0,1.998705,0.0,2.0,2.0,2.0,1.0,lid_10s.jpg,rooster_03s.jpg,,,,,,,,,,,,,,,,,,,,,,
,,,,,,,,,1.0,,,79,1.0,1.0,1.219675,0.0,3.0,3.0,3.0,1.0,stethoscope_01b.jpg,jigsaw_puzzle_11s.jpg,,,,,,,,,,,,,,,,,,,,,,
,,,,,,,,,0.0,,,79,0.0,1.0,2.263205,0.0,4.0,4.0,4.0,1.0,tiger_06s.jpg,fork_04s.jpg,,,,,,,,,,,,,,,,,,,,,,
,,,,,,,,,0.0,,,79,0.0,1.0,5.429355,0.0,5.0,5.0,5.0,1.0,sugar_cube_11s.jpg,roulette_wheel_04s.jpg,,,,,,,,,,,,,,,,,,,,,,
,,,,,,,,,,,,79,,,,,,,,,,,0.0,1.0,1.0,1.0,1.0,clockno_present_2_17.xlsx,clockno_compare_task_2_17.xlsx,,,,,,,,,,,,,,,
0.0,1.0,1.51479,0.0,0.0,0.0,0.0,1.0,fossil_06s.jpg,0.0,clockno_up.jpg,1.0,79,,,,,,,,,,,,,,,,,,,,,,,,,,,,,,,,
0.0,1.0,1.11445,0.0,1.0,1.0,1.0,1.0,ladle_04s.jpg,0.0,clockno_default.jpg,1.0,79,,,,,,,,,,,,,,,,,,,,,,,,,,,,,,,,
0.0,1.0,0.899465,0.0,2.0,2.0,2.0,1.0,moth_06n.jpg,0.0,clockno_default.jpg,1.0,79,,,,,,,,,,,,,,,,,,,,,,,,,,,,,,,,
0.0,1.0,0.980525,0.0,3.0,3.0,3.0,1.0,magnet_03s.jpg,0.0,clockno_default.jpg,1.0,79,,,,,,,,,,,,,,,,,,,,,,,,,,,,,,,,
1.0,1.0,0.87836,0.0,4.0,4.0,4.0,1.0,fossil_06s.jpg,1.0,clockno_default.jpg,1.0,79,,,,,,,,,,,,,,,,,,,,,,,,,,,,,,,,
0.0,1.0,1.129065,0.0,5.0,5.0,5.0,1.0,joystick_01b.jpg,0.0,clockno_up.jpg,2.0,79,,,,,,,,,,,,,,,,,,,,,,,,,,,,,,,,
0.0,1.0,1.084675,0.0,6.0,6.0,6.0,1.0,giraffe_11s.jpg,0.0,clockno_default.jpg,2.0,79,,,,,,,,,,,,,,,,,,,,,,,,,,,,,,,,
0.0,1.0,1.075165,0.0,7.0,7.0,7.0,1.0,money_07s.jpg,0.0,clockno_default.jpg,2.0,79,,,,,,,,,,,,,,,,,,,,,,,,,,,,,,,,
0.0,1.0,1.052815,0.0,8.0,8.0,8.0,1.0,lemonade_04s.jpg,0.0,clockno_default.jpg,2.0,79,,,,,,,,,,,,,,,,,,,,,,,,,,,,,,,,
0.0,1.0,0.97217,0.0,9.0,9.0,9.0,1.0,fossil_06s.jpg,0.0,clockno_default.jpg,2.0,79,,,,,,,,,,,,,,,,,,,,,,,,,,,,,,,,
0.0,1.0,1.04069,0.0,10.0,10.0,10.0,1.0,lectern_08s.jpg,0.0,clockno_default.jpg,2.0,79,,,,,,,,,,,,,,,,,,,,,,,,,,,,,,,,
0.0,1.0,1.334735,0.0,11.0,11.0,11.0,1.0,bottle_opener_11s.jpg,0.0,clockno_up.jpg,3.0,79,,,,,,,,,,,,,,,,,,,,,,,,,,,,,,,,
0.0,1.0,0.98453,0.0,12.0,12.0,12.0,1.0,pie_08s.jpg,0.0,clockno_default.jpg,3.0,79,,,,,,,,,,,,,,,,,,,,,,,,,,,,,,,,
0.0,1.0,0.819475,0.0,13.0,13.0,13.0,1.0,ivy_12s.jpg,0.0,clockno_default.jpg,3.0,79,,,,,,,,,,,,,,,,,,,,,,,,,,,,,,,,
0.0,1.0,0.97965,0.0,14.0,14.0,14.0,1.0,fossil_06s.jpg,0.0,clockno_default.jpg,3.0,79,,,,,,,,,,,,,,,,,,,,,,,,,,,,,,,,
0.0,1.0,1.33754,0.0,15.0,15.0,15.0,1.0,thermostat_02s.jpg,0.0,clockno_default.jpg,3.0,79,,,,,,,,,,,,,,,,,,,,,,,,,,,,,,,,
0.0,1.0,1.10846,0.0,16.0,16.0,16.0,1.0,plunger_08s.jpg,0.0,clockno_default.jpg,3.0,79,,,,,,,,,,,,,,,,,,,,,,,,,,,,,,,,
0.0,1.0,1.20734,0.0,17.0,17.0,17.0,1.0,pepper_mill_03s.jpg,0.0,clockno_default.jpg,3.0,79,,,,,,,,,,,,,,,,,,,,,,,,,,,,,,,,
0.0,1.0,1.05455,0.0,18.0,18.0,18.0,1.0,penguin_16s.jpg,0.0,clockno_up.jpg,4.0,79,,,,,,,,,,,,,,,,,,,,,,,,,,,,,,,,
0.0,1.0,0.76648,0.0,19.0,19.0,19.0,1.0,turtle_08s.jpg,0.0,clockno_default.jpg,4.0,79,,,,,,,,,,,,,,,,,,,,,,,,,,,,,,,,
0.0,1.0,0.809265,0.0,20.0,20.0,20.0,1.0,onion_10s.jpg,0.0,clockno_default.jpg,4.0,79,,,,,,,,,,,,,,,,,,,,,,,,,,,,,,,,
0.0,1.0,1.0792,0.0,21.0,21.0,21.0,1.0,bottle_opener_11s.jpg,0.0,clockno_default.jpg,4.0,79,,,,,,,,,,,,,,,,,,,,,,,,,,,,,,,,
0.0,1.0,1.04044,0.0,22.0,22.0,22.0,1.0,lava_02s.jpg,0.0,clockno_default.jpg,4.0,79,,,,,,,,,,,,,,,,,,,,,,,,,,,,,,,,
0.0,1.0,0.919315,0.0,23.0,23.0,23.0,1.0,pillow_03s.jpg,0.0,clockno_default.jpg,4.0,79,,,,,,,,,,,,,,,,,,,,,,,,,,,,,,,,
0.0,1.0,1.179055,0.0,24.0,24.0,24.0,1.0,ink_08s.jpg,0.0,clockno_up.jpg,5.0,79,,,,,,,,,,,,,,,,,,,,,,,,,,,,,,,,
0.0,1.0,1.252335,0.0,25.0,25.0,25.0,1.0,juicer1_08s.jpg,0.0,clockno_default.jpg,5.0,79,,,,,,,,,,,,,,,,,,,,,,,,,,,,,,,,
0.0,1.0,1.09326,0.0,26.0,26.0,26.0,1.0,crate_05s.jpg,0.0,clockno_default.jpg,5.0,79,,,,,,,,,,,,,,,,,,,,,,,,,,,,,,,,
0.0,1.0,0.87806,0.0,27.0,27.0,27.0,1.0,gargoyle_08s.jpg,0.0,clockno_default.jpg,5.0,79,,,,,,,,,,,,,,,,,,,,,,,,,,,,,,,,
0.0,1.0,1.029685,0.0,28.0,28.0,28.0,1.0,basket_05s.jpg,0.0,clockno_default.jpg,5.0,79,,,,,,,,,,,,,,,,,,,,,,,,,,,,,,,,
0.0,1.0,1.237825,0.0,29.0,29.0,29.0,1.0,pepper_mill_03s.jpg,0.0,clockno_default.jpg,5.0,79,,,,,,,,,,,,,,,,,,,,,,,,,,,,,,,,
0.0,1.0,1.57613,0.0,30.0,30.0,30.0,1.0,penguin_16s.jpg,0.0,clockno_default.jpg,5.0,79,,,,,,,,,,,,,,,,,,,,,,,,,,,,,,,,
0.0,1.0,1.20993,0.0,31.0,31.0,31.0,1.0,quill_09s.jpg,0.0,clockno_up.jpg,6.0,79,,,,,,,,,,,,,,,,,,,,,,,,,,,,,,,,
0.0,1.0,0.91134,0.0,32.0,32.0,32.0,1.0,roller_coaster_07s.jpg,0.0,clockno_default.jpg,6.0,79,,,,,,,,,,,,,,,,,,,,,,,,,,,,,,,,
1.0,1.0,1.458825,0.0,33.0,33.0,33.0,1.0,roller_coaster_07s.jpg,1.0,clockno_default.jpg,6.0,79,,,,,,,,,,,,,,,,,,,,,,,,,,,,,,,,
0.0,1.0,0.92652,0.0,34.0,34.0,34.0,1.0,peppermint_07s.jpg,0.0,clockno_default.jpg,6.0,79,,,,,,,,,,,,,,,,,,,,,,,,,,,,,,,,
1.0,1.0,1.18864,0.0,35.0,35.0,35.0,1.0,quill_09s.jpg,1.0,clockno_default.jpg,6.0,79,,,,,,,,,,,,,,,,,,,,,,,,,,,,,,,,
,,,,,,,,,1.0,,,79,1.0,1.0,5.002655,0.0,0.0,0.0,0.0,1.0,magnet_03s.jpg,giraffe_11s.jpg,,,,,,,,,,,,,,,,,,,,,,
,,,,,,,,,0.0,,,79,0.0,1.0,3.398955,0.0,1.0,1.0,1.0,1.0,joystick_01b.jpg,moth_06n.jpg,,,,,,,,,,,,,,,,,,,,,,
,,,,,,,,,1.0,,,79,1.0,1.0,20.690675,0.0,2.0,2.0,2.0,1.0,pillow_03s.jpg,crate_05s.jpg,,,,,,,,,,,,,,,,,,,,,,
,,,,,,,,,1.0,,,79,1.0,1.0,7.64129,0.0,3.0,3.0,3.0,1.0,pie_08s.jpg,thermostat_02s.jpg,,,,,,,,,,,,,,,,,,,,,,
,,,,,,,,,0.0,,,79,0.0,1.0,3.959105,0.0,4.0,4.0,4.0,1.0,gargoyle_08s.jpg,ink_08s.jpg,,,,,,,,,,,,,,,,,,,,,,
,,,,,,,,,0.0,,,79,0.0,1.0,4.834895,0.0,5.0,5.0,5.0,1.0,lectern_08s.jpg,money_07s.jpg,,,,,,,,,,,,,,,,,,,,,,
,,,,,,,,,,,,79,,,,,,,,,,,0.0,2.0,2.0,2.0,1.0,clockno_present_3_17.xlsx,clockno_compare_task_3_17.xlsx,,,,,,,,,,,,,,,
0.0,1.0,1.31987,0.0,0.0,0.0,0.0,1.0,luggage_08s.jpg,0.0,clockno_up.jpg,1.0,79,,,,,,,,,,,,,,,,,,,,,,,,,,,,,,,,
0.0,1.0,0.870635,0.0,1.0,1.0,1.0,1.0,lamp_08s.jpg,0.0,clockno_default.jpg,1.0,79,,,,,,,,,,,,,,,,,,,,,,,,,,,,,,,,
0.0,1.0,1.618985,0.0,2.0,2.0,2.0,1.0,paper_towel_03s.jpg,0.0,clockno_default.jpg,1.0,79,,,,,,,,,,,,,,,,,,,,,,,,,,,,,,,,
0.0,1.0,1.85796,0.0,3.0,3.0,3.0,1.0,jalapeno_15s.jpg,0.0,clockno_default.jpg,1.0,79,,,,,,,,,,,,,,,,,,,,,,,,,,,,,,,,
0.0,1.0,0.94545,0.0,4.0,4.0,4.0,1.0,sledgehammer_03s.jpg,0.0,clockno_default.jpg,1.0,79,,,,,,,,,,,,,,,,,,,,,,,,,,,,,,,,
0.0,1.0,1.132465,0.0,5.0,5.0,5.0,1.0,memory_stick_11s.jpg,0.0,clockno_default.jpg,1.0,79,,,,,,,,,,,,,,,,,,,,,,,,,,,,,,,,
0.0,1.0,1.61656,0.0,6.0,6.0,6.0,1.0,thorn_13s.jpg,0.0,clockno_up.jpg,2.0,79,,,,,,,,,,,,,,,,,,,,,,,,,,,,,,,,
1.0,1.0,1.511845,0.0,7.0,7.0,7.0,1.0,thorn_13s.jpg,1.0,clockno_default.jpg,2.0,79,,,,,,,,,,,,,,,,,,,,,,,,,,,,,,,,
0.0,1.0,0.808905,0.0,8.0,8.0,8.0,1.0,butter_14s.jpg,0.0,clockno_default.jpg,2.0,79,,,,,,,,,,,,,,,,,,,,,,,,,,,,,,,,
0.0,1.0,1.02983,0.0,9.0,9.0,9.0,1.0,mug_06s.jpg,0.0,clockno_default.jpg,2.0,79,,,,,,,,,,,,,,,,,,,,,,,,,,,,,,,,
0.0,1.0,0.872045,0.0,10.0,10.0,10.0,1.0,gingerbread_man_03s.jpg,0.0,clockno_default.jpg,2.0,79,,,,,,,,,,,,,,,,,,,,,,,,,,,,,,,,
0.0,1.0,1.06413,0.0,11.0,11.0,11.0,1.0,paper_bag_12s.jpg,0.0,clockno_up.jpg,3.0,79,,,,,,,,,,,,,,,,,,,,,,,,,,,,,,,,
0.0,1.0,0.763135,0.0,12.0,12.0,12.0,1.0,machete_06s.jpg,0.0,clockno_default.jpg,3.0,79,,,,,,,,,,,,,,,,,,,,,,,,,,,,,,,,
0.0,1.0,0.94422,0.0,13.0,13.0,13.0,1.0,quad_04s.jpg,0.0,clockno_default.jpg,3.0,79,,,,,,,,,,,,,,,,,,,,,,,,,,,,,,,,
0.0,1.0,1.03078,0.0,14.0,14.0,14.0,1.0,amber_04s.jpg,0.0,clockno_default.jpg,3.0,79,,,,,,,,,,,,,,,,,,,,,,,,,,,,,,,,
0.0,1.0,0.83221,0.0,15.0,15.0,15.0,1.0,mold2_04s.jpg,0.0,clockno_default.jpg,3.0,79,,,,,,,,,,,,,,,,,,,,,,,,,,,,,,,,
0.0,1.0,1.353865,0.0,16.0,16.0,16.0,1.0,plug_08s.jpg,0.0,clockno_default.jpg,3.0,79,,,,,,,,,,,,,,,,,,,,,,,,,,,,,,,,
0.0,1.0,1.10922,0.0,17.0,17.0,17.0,1.0,ticktacktoe_08s.jpg,0.0,clockno_up.jpg,4.0,79,,,,,,,,,,,,,,,,,,,,,,,,,,,,,,,,
0.0,1.0,0.915175,0.0,18.0,18.0,18.0,1.0,tape_measure_11s.jpg,0.0,clockno_default.jpg,4.0,79,,,,,,,,,,,,,,,,,,,,,,,,,,,,,,,,
0.0,1.0,1.01117,0.0,19.0,19.0,19.0,1.0,cape_11s.jpg,0.0,clockno_default.jpg,4.0,79,,,,,,,,,,,,,,,,,,,,,,,,,,,,,,,,
1.0,1.0,1.24631,0.0,20.0,20.0,20.0,1.0,tape_measure_11s.jpg,1.0,clockno_default.jpg,4.0,79,,,,,,,,,,,,,,,,,,,,,,,,,,,,,,,,
0.0,1.0,1.745105,0.0,21.0,21.0,21.0,1.0,machete_06s.jpg,0.0,clockno_default.jpg,4.0,79,,,,,,,,,,,,,,,,,,,,,,,,,,,,,,,,
0.0,1.0,1.29594,0.0,22.0,22.0,22.0,1.0,bowler_hat_10s.jpg,0.0,clockno_default.jpg,4.0,79,,,,,,,,,,,,,,,,,,,,,,,,,,,,,,,,
0.0,1.0,1.44236,0.0,23.0,23.0,23.0,1.0,punch2_09s.jpg,0.0,clockno_default.jpg,4.0,79,,,,,,,,,,,,,,,,,,,,,,,,,,,,,,,,
0.0,1.0,1.280035,0.0,24.0,24.0,24.0,1.0,blowfish_03s.jpg,0.0,clockno_up.jpg,5.0,79,,,,,,,,,,,,,,,,,,,,,,,,,,,,,,,,
0.0,1.0,1.295885,0.0,25.0,25.0,25.0,1.0,plug_08s.jpg,0.0,clockno_default.jpg,5.0,79,,,,,,,,,,,,,,,,,,,,,,,,,,,,,,,,
0.0,1.0,1.115875,0.0,26.0,26.0,26.0,1.0,icemaker_10s.jpg,0.0,clockno_default.jpg,5.0,79,,,,,,,,,,,,,,,,,,,,,,,,,,,,,,,,
0.0,1.0,1.0282,0.0,27.0,27.0,27.0,1.0,cucumber_07s.jpg,0.0,clockno_default.jpg,5.0,79,,,,,,,,,,,,,,,,,,,,,,,,,,,,,,,,
0.0,1.0,2.0658,0.0,28.0,28.0,28.0,1.0,jetski_10s.jpg,0.0,clockno_default.jpg,5.0,79,,,,,,,,,,,,,,,,,,,,,,,,,,,,,,,,
0.0,1.0,0.92255,0.0,29.0,29.0,29.0,1.0,glasses01a.jpg,0.0,clockno_default.jpg,5.0,79,,,,,,,,,,,,,,,,,,,,,,,,,,,,,,,,
0.0,1.0,1.05104,0.0,30.0,30.0,30.0,1.0,kitten_07s.jpg,0.0,clockno_default.jpg,5.0,79,,,,,,,,,,,,,,,,,,,,,,,,,,,,,,,,
0.0,1.0,0.907395,0.0,31.0,31.0,31.0,1.0,taxi_15s.jpg,0.0,clockno_up.jpg,6.0,79,,,,,,,,,,,,,,,,,,,,,,,,,,,,,,,,
0.0,1.0,1.29782,0.0,32.0,32.0,32.0,1.0,lifesaver_10s.jpg,0.0,clockno_default.jpg,6.0,79,,,,,,,,,,,,,,,,,,,,,,,,,,,,,,,,
0.0,1.0,0.90762,0.0,33.0,33.0,33.0,1.0,power_line_08s.jpg,0.0,clockno_default.jpg,6.0,79,,,,,,,,,,,,,,,,,,,,,,,,,,,,,,,,
0.0,1.0,1.13797,0.0,34.0,34.0,34.0,1.0,lasagna_06s.jpg,0.0,clockno_default.jpg,6.0,79,,,,,,,,,,,,,,,,,,,,,,,,,,,,,,,,
1.0,1.0,1.10632,0.0,35.0,35.0,35.0,1.0,lifesaver_10s.jpg,1.0,clockno_default.jpg,6.0,79,,,,,,,,,,,,,,,,,,,,,,,,,,,,,,,,
,,,,,,,,,1.0,,,79,1.0,1.0,16.5279,0.0,0.0,0.0,0.0,1.0,gingerbread_man_03s.jpg,quad_04s.jpg,,,,,,,,,,,,,,,,,,,,,,
,,,,,,,,,1.0,,,79,1.0,1.0,4.021395,0.0,1.0,1.0,1.0,1.0,memory_stick_11s.jpg,butter_14s.jpg,,,,,,,,,,,,,,,,,,,,,,
,,,,,,,,,0.0,,,79,0.0,1.0,3.507315,0.0,2.0,2.0,2.0,1.0,ticktacktoe_08s.jpg,amber_04s.jpg,,,,,,,,,,,,,,,,,,,,,,
,,,,,,,,,1.0,,,79,1.0,1.0,2.19409,0.0,3.0,3.0,3.0,1.0,luggage_08s.jpg,jalapeno_15s.jpg,,,,,,,,,,,,,,,,,,,,,,
,,,,,,,,,0.0,,,79,0.0,1.0,5.55694,0.0,4.0,4.0,4.0,1.0,sledgehammer_03s.jpg,lamp_08s.jpg,,,,,,,,,,,,,,,,,,,,,,
,,,,,,,,,0.0,,,79,0.0,1.0,10.38564,0.0,5.0,5.0,5.0,1.0,bowler_hat_10s.jpg,cape_11s.jpg,,,,,,,,,,,,,,,,,,,,,,
,,,,,,,,,,,,79,,,,,,,,,,,0.0,3.0,3.0,3.0,1.0,clockno_present_4_17.xlsx,clockno_compare_task_4_17.xlsx,,,,,,,,,,,,,,,
0.0,1.0,1.311005,0.0,0.0,0.0,0.0,1.0,puck_06s.jpg,0.0,clockno_up.jpg,1.0,79,,,,,,,,,,,,,,,,,,,,,,,,,,,,,,,,
1.0,1.0,1.002675,0.0,1.0,1.0,1.0,1.0,puck_06s.jpg,1.0,clockno_default.jpg,1.0,79,,,,,,,,,,,,,,,,,,,,,,,,,,,,,,,,
0.0,1.0,0.908955,0.0,2.0,2.0,2.0,1.0,mannequin_05s.jpg,0.0,clockno_default.jpg,1.0,79,,,,,,,,,,,,,,,,,,,,,,,,,,,,,,,,
0.0,1.0,1.63972,0.0,3.0,3.0,3.0,1.0,rhinoceros_02s.jpg,0.0,clockno_default.jpg,1.0,79,,,,,,,,,,,,,,,,,,,,,,,,,,,,,,,,
1.0,1.0,0.99701,0.0,4.0,4.0,4.0,1.0,rhinoceros_02s.jpg,1.0,clockno_default.jpg,1.0,79,,,,,,,,,,,,,,,,,,,,,,,,,,,,,,,,
0.0,1.0,0.96006,0.0,5.0,5.0,5.0,1.0,megaphone_03s.jpg,0.0,clockno_default.jpg,1.0,79,,,,,,,,,,,,,,,,,,,,,,,,,,,,,,,,
0.0,1.0,1.35912,0.0,6.0,6.0,6.0,1.0,tulip_02s.jpg,0.0,clockno_up.jpg,2.0,79,,,,,,,,,,,,,,,,,,,,,,,,,,,,,,,,
0.0,1.0,0.95097,0.0,7.0,7.0,7.0,1.0,smoothie_09s.jpg,0.0,clockno_default.jpg,2.0,79,,,,,,,,,,,,,,,,,,,,,,,,,,,,,,,,
1.0,1.0,1.02494,0.0,8.0,8.0,8.0,1.0,smoothie_09s.jpg,1.0,clockno_default.jpg,2.0,79,,,,,,,,,,,,,,,,,,,,,,,,,,,,,,,,
0.0,1.0,1.10624,0.0,9.0,9.0,9.0,1.0,mannequin_05s.jpg,0.0,clockno_default.jpg,2.0,79,,,,,,,,,,,,,,,,,,,,,,,,,,,,,,,,
0.0,1.0,1.57215,0.0,10.0,10.0,10.0,1.0,mascara_03s.jpg,0.0,clockno_default.jpg,2.0,79,,,,,,,,,,,,,,,,,,,,,,,,,,,,,,,,
0.0,1.0,1.15181,0.0,11.0,11.0,11.0,1.0,badge_03s.jpg,0.0,clockno_default.jpg,2.0,79,,,,,,,,,,,,,,,,,,,,,,,,,,,,,,,,
0.0,1.0,1.254515,0.0,12.0,12.0,12.0,1.0,megaphone_03s.jpg,0.0,clockno_default.jpg,2.0,79,,,,,,,,,,,,,,,,,,,,,,,,,,,,,,,,
0.0,1.0,1.33665,0.0,13.0,13.0,13.0,1.0,latch_15s.jpg,0.0,clockno_up.jpg,3.0,79,,,,,,,,,,,,,,,,,,,,,,,,,,,,,,,,
0.0,1.0,1.27488,0.0,14.0,14.0,14.0,1.0,pipe1_10s.jpg,0.0,clockno_default.jpg,3.0,79,,,,,,,,,,,,,,,,,,,,,,,,,,,,,,,,
0.0,1.0,0.92528,0.0,15.0,15.0,15.0,1.0,fire_pit_10s.jpg,0.0,clockno_default.jpg,3.0,79,,,,,,,,,,,,,,,,,,,,,,,,,,,,,,,,
0.0,1.0,0.964665,0.0,16.0,16.0,16.0,1.0,pump_11s.jpg,0.0,clockno_default.jpg,3.0,79,,,,,,,,,,,,,,,,,,,,,,,,,,,,,,,,
0.0,1.0,0.9149,0.0,17.0,17.0,17.0,1.0,puppet_01b.jpg,0.0,clockno_default.jpg,3.0,79,,,,,,,,,,,,,,,,,,,,,,,,,,,,,,,,
0.0,1.0,1.012745,0.0,18.0,18.0,18.0,1.0,rhinoceros_02s.jpg,0.0,clockno_default.jpg,3.0,79,,,,,,,,,,,,,,,,,,,,,,,,,,,,,,,,
0.0,1.0,1.34733,0.0,19.0,19.0,19.0,1.0,camcorder_10s.jpg,0.0,clockno_default.jpg,3.0,79,,,,,,,,,,,,,,,,,,,,,,,,,,,,,,,,
0.0,1.0,1.06853,0.0,20.0,20.0,20.0,1.0,blender_08s.jpg,0.0,clockno_up.jpg,4.0,79,,,,,,,,,,,,,,,,,,,,,,,,,,,,,,,,
0.0,1.0,0.979335,0.0,21.0,21.0,21.0,1.0,scooter.jpg,0.0,clockno_default.jpg,4.0,79,,,,,,,,,,,,,,,,,,,,,,,,,,,,,,,,
0.0,1.0,0.986565,0.0,22.0,22.0,22.0,1.0,rocking_horse_03s.jpg,0.0,clockno_default.jpg,4.0,79,,,,,,,,,,,,,,,,,,,,,,,,,,,,,,,,
1.0,1.0,1.66985,0.0,23.0,23.0,23.0,1.0,blender_08s.jpg,1.0,clockno_default.jpg,4.0,79,,,,,,,,,,,,,,,,,,,,,,,,,,,,,,,,
0.0,1.0,1.193145,0.0,24.0,24.0,24.0,1.0,kayak_08s.jpg,0.0,clockno_default.jpg,4.0,79,,,,,,,,,,,,,,,,,,,,,,,,,,,,,,,,
0.0,1.0,1.214165,0.0,25.0,25.0,25.0,1.0,radio_09s.jpg,0.0,clockno_up.jpg,5.0,79,,,,,,,,,,,,,,,,,,,,,,,,,,,,,,,,
1.0,1.0,1.346995,0.0,26.0,26.0,26.0,1.0,radio_09s.jpg,1.0,clockno_default.jpg,5.0,79,,,,,,,,,,,,,,,,,,,,,,,,,,,,,,,,
0.0,1.0,1.378295,0.0,27.0,27.0,27.0,1.0,coffee_filter_10s.jpg,0.0,clockno_default.jpg,5.0,79,,,,,,,,,,,,,,,,,,,,,,,,,,,,,,,,
0.0,1.0,1.09438,0.0,28.0,28.0,28.0,1.0,toilet_07s.jpg,0.0,clockno_default.jpg,5.0,79,,,,,,,,,,,,,,,,,,,,,,,,,,,,,,,,
0.0,1.0,0.92739,0.0,29.0,29.0,29.0,1.0,mitten_10s.jpg,0.0,clockno_default.jpg,5.0,79,,,,,,,,,,,,,,,,,,,,,,,,,,,,,,,,
0.0,1.0,1.04404,0.0,30.0,30.0,30.0,1.0,dynamite_01b.jpg,0.0,clockno_up.jpg,6.0,79,,,,,,,,,,,,,,,,,,,,,,,,,,,,,,,,
0.0,1.0,1.628085,0.0,31.0,31.0,31.0,1.0,mask_09s.jpg,0.0,clockno_default.jpg,6.0,79,,,,,,,,,,,,,,,,,,,,,,,,,,,,,,,,
0.0,1.0,1.177395,0.0,32.0,32.0,32.0,1.0,scooter.jpg,0.0,clockno_default.jpg,6.0,79,,,,,,,,,,,,,,,,,,,,,,,,,,,,,,,,
0.0,1.0,1.096685,0.0,33.0,33.0,33.0,1.0,tambourine_06s.jpg,0.0,clockno_default.jpg,6.0,79,,,,,,,,,,,,,,,,,,,,,,,,,,,,,,,,
0.0,1.0,1.260015,0.0,34.0,34.0,34.0,1.0,top_hat_11s.jpg,0.0,clockno_default.jpg,6.0,79,,,,,,,,,,,,,,,,,,,,,,,,,,,,,,,,
0.0,1.0,1.19486,0.0,35.0,35.0,35.0,1.0,outlet_10s.jpg,0.0,clockno_default.jpg,6.0,79,,,,,,,,,,,,,,,,,,,,,,,,,,,,,,,,
,,,,,,,,,1.0,,,79,1.0,1.0,7.39894,0.0,0.0,0.0,0.0,1.0,kayak_08s.jpg,coffee_filter_10s.jpg,,,,,,,,,,,,,,,,,,,,,,
,,,,,,,,,0.0,,,79,0.0,1.0,6.22158,0.0,1.0,1.0,1.0,1.0,latch_15s.jpg,mascara_03s.jpg,,,,,,,,,,,,,,,,,,,,,,
,,,,,,,,,0.0,,,79,0.0,1.0,7.38504,0.0,2.0,2.0,2.0,1.0,pipe1_10s.jpg,badge_03s.jpg,,,,,,,,,,,,,,,,,,,,,,
,,,,,,,,,1.0,,,79,1.0,1.0,13.204405,0.0,3.0,3.0,3.0,1.0,pump_11s.jpg,camcorder_10s.jpg,,,,,,,,,,,,,,,,,,,,,,
,,,,,,,,,0.0,,,79,0.0,1.0,3.6683,0.0,4.0,4.0,4.0,1.0,tambourine_06s.jpg,dynamite_01b.jpg,,,,,,,,,,,,,,,,,,,,,,
,,,,,,,,,0.0,,,79,0.0,1.0,3.27864,0.0,5.0,5.0,5.0,1.0,top_hat_11s.jpg,mask_09s.jpg,,,,,,,,,,,,,,,,,,,,,,
,,,,,,,,,,,,79,,,,,,,,,,,0.0,4.0,4.0,4.0,1.0,clockno_present_5_17.xlsx,clockno_compare_task_5_17.xlsx,,,,,,,,,,,,,,,
0.0,1.0,1.022435,0.0,0.0,0.0,0.0,1.0,refrigerator_07s.jpg,0.0,clockno_up.jpg,1.0,79,,,,,,,,,,,,,,,,,,,,,,,,,,,,,,,,
0.0,1.0,1.599815,0.0,1.0,1.0,1.0,1.0,blazer_02s.jpg,0.0,clockno_default.jpg,1.0,79,,,,,,,,,,,,,,,,,,,,,,,,,,,,,,,,
0.0,1.0,1.012995,0.0,2.0,2.0,2.0,1.0,rudder_02s.jpg,0.0,clockno_default.jpg,1.0,79,,,,,,,,,,,,,,,,,,,,,,,,,,,,,,,,
0.0,1.0,1.57882,0.0,3.0,3.0,3.0,1.0,comic_book_02s.jpg,0.0,clockno_default.jpg,1.0,79,,,,,,,,,,,,,,,,,,,,,,,,,,,,,,,,
1.0,1.0,1.105665,0.0,4.0,4.0,4.0,1.0,comic_book_02s.jpg,1.0,clockno_default.jpg,1.0,79,,,,,,,,,,,,,,,,,,,,,,,,,,,,,,,,
0.0,1.0,1.159135,0.0,5.0,5.0,5.0,1.0,trident_07s.jpg,0.0,clockno_up.jpg,2.0,79,,,,,,,,,,,,,,,,,,,,,,,,,,,,,,,,
0.0,1.0,1.215255,0.0,6.0,6.0,6.0,1.0,candy_cane_06s.jpg,0.0,clockno_default.jpg,2.0,79,,,,,,,,,,,,,,,,,,,,,,,,,,,,,,,,
0.0,1.0,1.047345,0.0,7.0,7.0,7.0,1.0,quilt_03s.jpg,0.0,clockno_default.jpg,2.0,79,,,,,,,,,,,,,,,,,,,,,,,,,,,,,,,,
0.0,1.0,1.163795,0.0,8.0,8.0,8.0,1.0,teapot_03s.jpg,0.0,clockno_default.jpg,2.0,79,,,,,,,,,,,,,,,,,,,,,,,,,,,,,,,,
1.0,1.0,0.81985,0.0,9.0,9.0,9.0,1.0,teapot_03s.jpg,1.0,clockno_default.jpg,2.0,79,,,,,,,,,,,,,,,,,,,,,,,,,,,,,,,,
0.0,1.0,1.08193,0.0,10.0,10.0,10.0,1.0,telephone_pole_05s.jpg,0.0,clockno_default.jpg,2.0,79,,,,,,,,,,,,,,,,,,,,,,,,,,,,,,,,
0.0,1.0,1.145465,0.0,11.0,11.0,11.0,1.0,rolling_pin_02s.jpg,0.0,clockno_default.jpg,2.0,79,,,,,,,,,,,,,,,,,,,,,,,,,,,,,,,,
0.0,1.0,1.078365,0.0,12.0,12.0,12.0,1.0,tuba_12s.jpg,0.0,clockno_up.jpg,3.0,79,,,,,,,,,,,,,,,,,,,,,,,,,,,,,,,,
0.0,1.0,0.97423,0.0,13.0,13.0,13.0,1.0,smokingpipe.jpg,0.0,clockno_default.jpg,3.0,79,,,,,,,,,,,,,,,,,,,,,,,,,,,,,,,,
0.0,1.0,0.98562,0.0,14.0,14.0,14.0,1.0,panda_02s.jpg,0.0,clockno_default.jpg,3.0,79,,,,,,,,,,,,,,,,,,,,,,,,,,,,,,,,
0.0,1.0,1.729455,0.0,15.0,15.0,15.0,1.0,sleeping_bag_12s.jpg,0.0,clockno_default.jpg,3.0,79,,,,,,,,,,,,,,,,,,,,,,,,,,,,,,,,
0.0,1.0,1.23847,0.0,16.0,16.0,16.0,1.0,stamp2_08s.jpg,0.0,clockno_default.jpg,3.0,79,,,,,,,,,,,,,,,,,,,,,,,,,,,,,,,,
0.0,1.0,1.275735,0.0,17.0,17.0,17.0,1.0,kite_04s.jpg,0.0,clockno_up.jpg,4.0,79,,,,,,,,,,,,,,,,,,,,,,,,,,,,,,,,
0.0,1.0,1.32127,0.0,18.0,18.0,18.0,1.0,rocking_chair_05s.jpg,0.0,clockno_default.jpg,4.0,79,,,,,,,,,,,,,,,,,,,,,,,,,,,,,,,,
0.0,1.0,1.89391,0.0,19.0,19.0,19.0,1.0,marker_05s.jpg,0.0,clockno_default.jpg,4.0,79,,,,,,,,,,,,,,,,,,,,,,,,,,,,,,,,
0.0,1.0,2.31915,0.0,20.0,20.0,20.0,1.0,chip_04s.jpg,0.0,clockno_default.jpg,4.0,79,,,,,,,,,,,,,,,,,,,,,,,,,,,,,,,,
0.0,1.0,1.132345,0.0,21.0,21.0,21.0,1.0,pretzel_09s.jpg,0.0,clockno_default.jpg,4.0,79,,,,,,,,,,,,,,,,,,,,,,,,,,,,,,,,
0.0,1.0,1.07418,0.0,22.0,22.0,22.0,1.0,swimming_pool_17s.jpg,0.0,clockno_default.jpg,4.0,79,,,,,,,,,,,,,,,,,,,,,,,,,,,,,,,,
0.0,1.0,1.089895,0.0,23.0,23.0,23.0,1.0,spacesuit_02s.jpg,0.0,clockno_up.jpg,5.0,79,,,,,,,,,,,,,,,,,,,,,,,,,,,,,,,,
0.0,1.0,1.475605,0.0,24.0,24.0,24.0,1.0,letter_opener_03s.jpg,0.0,clockno_default.jpg,5.0,79,,,,,,,,,,,,,,,,,,,,,,,,,,,,,,,,
0.0,1.0,1.211315,0.0,25.0,25.0,25.0,1.0,cotton_candy_01b.jpg,0.0,clockno_default.jpg,5.0,79,,,,,,,,,,,,,,,,,,,,,,,,,,,,,,,,
0.0,1.0,1.51302,0.0,26.0,26.0,26.0,1.0,spatula04.jpg,0.0,clockno_default.jpg,5.0,79,,,,,,,,,,,,,,,,,,,,,,,,,,,,,,,,
1.0,1.0,1.25126,0.0,27.0,27.0,27.0,1.0,cotton_candy_01b.jpg,1.0,clockno_default.jpg,5.0,79,,,,,,,,,,,,,,,,,,,,,,,,,,,,,,,,
0.0,1.0,1.291035,0.0,28.0,28.0,28.0,1.0,boomerang_06s.jpg,0.0,clockno_default.jpg,5.0,79,,,,,,,,,,,,,,,,,,,,,,,,,,,,,,,,
0.0,1.0,1.25357,0.0,29.0,29.0,29.0,1.0,sea_urchin_09s.jpg,0.0,clockno_up.jpg,6.0,79,,,,,,,,,,,,,,,,,,,,,,,,,,,,,,,,
0.0,1.0,1.808785,0.0,30.0,30.0,30.0,1.0,slingshot_07s.jpg,0.0,clockno_default.jpg,6.0,79,,,,,,,,,,,,,,,,,,,,,,,,,,,,,,,,
0.0,1.0,1.9135,0.0,31.0,31.0,31.0,1.0,toilet_paper_12s.jpg,0.0,clockno_default.jpg,6.0,79,,,,,,,,,,,,,,,,,,,,,,,,,,,,,,,,
0.0,1.0,1.410455,0.0,32.0,32.0,32.0,1.0,polaroid_05s.jpg,0.0,clockno_default.jpg,6.0,79,,,,,,,,,,,,,,,,,,,,,,,,,,,,,,,,
0.0,1.0,1.34752,0.0,33.0,33.0,33.0,1.0,cardinal_07s.jpg,0.0,clockno_default.jpg,6.0,79,,,,,,,,,,,,,,,,,,,,,,,,,,,,,,,,
0.0,1.0,1.38158,0.0,34.0,34.0,34.0,1.0,eggshell_14s.jpg,0.0,clockno_default.jpg,6.0,79,,,,,,,,,,,,,,,,,,,,,,,,,,,,,,,,
0.0,1.0,1.472035,0.0,35.0,35.0,35.0,1.0,puddle_02s.jpg,0.0,clockno_default.jpg,6.0,79,,,,,,,,,,,,,,,,,,,,,,,,,,,,,,,,
,,,,,,,,,0.0,,,79,0.0,1.0,4.81349,0.0,0.0,0.0,0.0,1.0,trident_07s.jpg,rudder_02s.jpg,,,,,,,,,,,,,,,,,,,,,,
,,,,,,,,,0.0,,,79,1.0,0.0,4.08209,0.0,1.0,1.0,1.0,1.0,panda_02s.jpg,rolling_pin_02s.jpg,,,,,,,,,,,,,,,,,,,,,,
,,,,,,,,,1.0,,,79,1.0,1.0,4.498065,0.0,2.0,2.0,2.0,1.0,pretzel_09s.jpg,letter_opener_03s.jpg,,,,,,,,,,,,,,,,,,,,,,
,,,,,,,,,1.0,,,79,1.0,1.0,1.68479,0.0,3.0,3.0,3.0,1.0,slingshot_07s.jpg,cardinal_07s.jpg,,,,,,,,,,,,,,,,,,,,,,
,,,,,,,,,1.0,,,79,1.0,1.0,1.85035,0.0,4.0,4.0,4.0,1.0,polaroid_05s.jpg,puddle_02s.jpg,,,,,,,,,,,,,,,,,,,,,,
,,,,,,,,,0.0,,,79,1.0,0.0,3.19918,0.0,5.0,5.0,5.0,1.0,telephone_pole_05s.jpg,quilt_03s.jpg,,,,,,,,,,,,,,,,,,,,,,
0.0,1.0,1.865985,,,,,,racehorse_03s.jpg,0.0,clock_6_1.png,1.0,79,,,,,,,,,,,,,,,,,,0.0,0.0,0.0,0.0,1.0,,,,,,,,,,
1.0,1.0,0.948235,,,,,,racehorse_03s.jpg,1.0,clock_6_2.png,1.0,79,,,,,,,,,,,,,,,,,,0.0,1.0,1.0,1.0,1.0,,,,,,,,,,
0.0,1.0,1.433985,,,,,,ravioli_08s.jpg,0.0,clock_6_3.png,1.0,79,,,,,,,,,,,,,,,,,,0.0,2.0,2.0,2.0,1.0,,,,,,,,,,
1.0,1.0,1.596915,,,,,,racehorse_03s.jpg,1.0,clock_6_4.png,1.0,79,,,,,,,,,,,,,,,,,,0.0,3.0,3.0,3.0,1.0,,,,,,,,,,
0.0,1.0,0.81822,,,,,,swing_set_15s.jpg,0.0,clock_6_5.png,1.0,79,,,,,,,,,,,,,,,,,,0.0,4.0,4.0,4.0,1.0,,,,,,,,,,
1.0,1.0,0.972425,,,,,,swing_set_15s.jpg,1.0,clock_6_6.png,1.0,79,,,,,,,,,,,,,,,,,,0.0,5.0,5.0,5.0,1.0,,,,,,,,,,
0.0,1.0,0.91407,,,,,,ruby_15s.jpg,0.0,clock_7_1.png,2.0,79,,,,,,,,,,,,,,,,,,0.0,6.0,6.0,6.0,1.0,,,,,,,,,,
0.0,1.0,1.55131,,,,,,loom_05s.jpg,0.0,clock_7_2.png,2.0,79,,,,,,,,,,,,,,,,,,0.0,7.0,7.0,7.0,1.0,,,,,,,,,,
0.0,1.0,0.913965,,,,,,pocket_watch_16s.jpg,0.0,clock_7_3.png,2.0,79,,,,,,,,,,,,,,,,,,0.0,8.0,8.0,8.0,1.0,,,,,,,,,,
0.0,1.0,1.363435,,,,,,peanut_butter_08s.jpg,0.0,clock_7_4.png,2.0,79,,,,,,,,,,,,,,,,,,0.0,9.0,9.0,9.0,1.0,,,,,,,,,,
0.0,1.0,1.477565,,,,,,piano_13n.jpg,0.0,clock_7_5.png,2.0,79,,,,,,,,,,,,,,,,,,0.0,10.0,10.0,10.0,1.0,,,,,,,,,,
0.0,1.0,1.79277,,,,,,emerald_02s.jpg,0.0,clock_7_6.png,2.0,79,,,,,,,,,,,,,,,,,,0.0,11.0,11.0,11.0,1.0,,,,,,,,,,
0.0,1.0,0.931395,,,,,,swing_set_15s.jpg,0.0,clock_7_7.png,2.0,79,,,,,,,,,,,,,,,,,,0.0,12.0,12.0,12.0,1.0,,,,,,,,,,
0.0,1.0,0.91667,,,,,,gong_02s.jpg,0.0,clock_5_1.png,3.0,79,,,,,,,,,,,,,,,,,,0.0,13.0,13.0,13.0,1.0,,,,,,,,,,
0.0,1.0,1.369655,,,,,,turf_03s.jpg,0.0,clock_5_2.png,3.0,79,,,,,,,,,,,,,,,,,,0.0,14.0,14.0,14.0,1.0,,,,,,,,,,
0.0,1.0,1.35734,,,,,,tie_03s.jpg,0.0,clock_5_3.png,3.0,79,,,,,,,,,,,,,,,,,,0.0,15.0,15.0,15.0,1.0,,,,,,,,,,
0.0,1.0,1.14576,,,,,,swan_11s.jpg,0.0,clock_5_4.png,3.0,79,,,,,,,,,,,,,,,,,,0.0,16.0,16.0,16.0,1.0,,,,,,,,,,
0.0,1.0,1.13554,,,,,,margarita_03s.jpg,0.0,clock_5_5.png,3.0,79,,,,,,,,,,,,,,,,,,0.0,17.0,17.0,17.0,1.0,,,,,,,,,,
0.0,1.0,0.86697,,,,,,denture_03s.jpg,0.0,clock_5_1.png,4.0,79,,,,,,,,,,,,,,,,,,0.0,18.0,18.0,18.0,1.0,,,,,,,,,,
0.0,1.0,1.034775,,,,,,pincushion_10s.jpg,0.0,clock_5_2.png,4.0,79,,,,,,,,,,,,,,,,,,0.0,19.0,19.0,19.0,1.0,,,,,,,,,,
0.0,1.0,1.30637,,,,,,lavender_10s.jpg,0.0,clock_5_3.png,4.0,79,,,,,,,,,,,,,,,,,,0.0,20.0,20.0,20.0,1.0,,,,,,,,,,
0.0,1.0,1.25754,,,,,,treadmill_06s.jpg,0.0,clock_5_4.png,4.0,79,,,,,,,,,,,,,,,,,,0.0,21.0,21.0,21.0,1.0,,,,,,,,,,
0.0,1.0,1.121635,,,,,,seagull_01b.jpg,0.0,clock_5_5.png,4.0,79,,,,,,,,,,,,,,,,,,0.0,22.0,22.0,22.0,1.0,,,,,,,,,,
0.0,1.0,1.24921,,,,,,omelet_07s.jpg,0.0,clock_6_1.png,5.0,79,,,,,,,,,,,,,,,,,,0.0,23.0,23.0,23.0,1.0,,,,,,,,,,
0.0,1.0,1.216675,,,,,,pear_02s.jpg,0.0,clock_6_2.png,5.0,79,,,,,,,,,,,,,,,,,,0.0,24.0,24.0,24.0,1.0,,,,,,,,,,
0.0,1.0,2.279,,,,,,knitting_needle_04s.jpg,0.0,clock_6_3.png,5.0,79,,,,,,,,,,,,,,,,,,0.0,25.0,25.0,25.0,1.0,,,,,,,,,,
0.0,1.0,1.336075,,,,,,loom_05s.jpg,0.0,clock_6_4.png,5.0,79,,,,,,,,,,,,,,,,,,0.0,26.0,26.0,26.0,1.0,,,,,,,,,,
1.0,1.0,0.96285,,,,,,omelet_07s.jpg,1.0,clock_6_5.png,5.0,79,,,,,,,,,,,,,,,,,,0.0,27.0,27.0,27.0,1.0,,,,,,,,,,
0.0,1.0,1.632095,,,,,,beaker_01b.jpg,0.0,clock_6_6.png,5.0,79,,,,,,,,,,,,,,,,,,0.0,28.0,28.0,28.0,1.0,,,,,,,,,,
0.0,1.0,1.20681,,,,,,ginger_09s.jpg,0.0,clock_7_1.png,6.0,79,,,,,,,,,,,,,,,,,,0.0,29.0,29.0,29.0,1.0,,,,,,,,,,
0.0,1.0,0.826275,,,,,,kilt_18s.jpg,0.0,clock_7_2.png,6.0,79,,,,,,,,,,,,,,,,,,0.0,30.0,30.0,30.0,1.0,,,,,,,,,,
1.0,1.0,0.81731,,,,,,ginger_09s.jpg,1.0,clock_7_3.png,6.0,79,,,,,,,,,,,,,,,,,,0.0,31.0,31.0,31.0,1.0,,,,,,,,,,
1.0,1.0,1.20563,,,,,,ginger_09s.jpg,1.0,clock_7_4.png,6.0,79,,,,,,,,,,,,,,,,,,0.0,32.0,32.0,32.0,1.0,,,,,,,,,,
0.0,0.0,0.983615,,,,,,kilt_18s.jpg,1.0,clock_7_5.png,6.0,79,,,,,,,,,,,,,,,,,,0.0,33.0,33.0,33.0,1.0,,,,,,,,,,
0.0,1.0,1.24503,,,,,,raccoon_02s.jpg,0.0,clock_7_6.png,6.0,79,,,,,,,,,,,,,,,,,,0.0,34.0,34.0,34.0,1.0,,,,,,,,,,
0.0,1.0,0.89908,,,,,,mixer_12s.jpg,0.0,clock_7_7.png,6.0,79,,,,,,,,,,,,,,,,,,0.0,35.0,35.0,35.0,1.0,,,,,,,,,,
,,,,,,,,,1.0,,,79,1.0,1.0,5.50957,,,,,,piano_13n.jpg,gong_02s.jpg,,,,,,,,,,,,,0.0,0.0,0.0,0.0,1.0,,,,,
,,,,,,,,,1.0,,,79,1.0,1.0,6.16255,,,,,,tie_03s.jpg,denture_03s.jpg,,,,,,,,,,,,,0.0,1.0,1.0,1.0,1.0,,,,,
,,,,,,,,,1.0,,,79,1.0,1.0,6.63398,,,,,,margarita_03s.jpg,lavender_10s.jpg,,,,,,,,,,,,,0.0,2.0,2.0,2.0,1.0,,,,,
,,,,,,,,,1.0,,,79,1.0,1.0,1.861735,,,,,,ruby_15s.jpg,peanut_butter_08s.jpg,,,,,,,,,,,,,0.0,3.0,3.0,3.0,1.0,,,,,
,,,,,,,,,1.0,,,79,1.0,1.0,1.72885,,,,,,pocket_watch_16s.jpg,emerald_02s.jpg,,,,,,,,,,,,,0.0,4.0,4.0,4.0,1.0,,,,,
,,,,,,,,,1.0,,,79,1.0,1.0,1.350165,,,,,,knitting_needle_04s.jpg,beaker_01b.jpg,,,,,,,,,,,,,0.0,5.0,5.0,5.0,1.0,,,,,
,,,,,,,,,,,,79,,,,,,,,,,,,,,,,clock_present_1_17.xlsx,clock_compare_task_1_17.xlsx,,,,,,,,,,,0.0,0.0,0.0,0.0,1.0
0.0,1.0,1.13698,,,,,,polar_bear_02s.jpg,0.0,clock_6_1.png,1.0,79,,,,,,,,,,,,,,,,,,0.0,0.0,0.0,0.0,1.0,,,,,,,,,,
0.0,1.0,1.423525,,,,,,radiator_05s.jpg,0.0,clock_6_2.png,1.0,79,,,,,,,,,,,,,,,,,,0.0,1.0,1.0,1.0,1.0,,,,,,,,,,
0.0,1.0,1.091745,,,,,,target_11s.jpg,0.0,clock_6_3.png,1.0,79,,,,,,,,,,,,,,,,,,0.0,2.0,2.0,2.0,1.0,,,,,,,,,,
1.0,1.0,1.424425,,,,,,polar_bear_02s.jpg,1.0,clock_6_4.png,1.0,79,,,,,,,,,,,,,,,,,,0.0,3.0,3.0,3.0,1.0,,,,,,,,,,
0.0,1.0,0.77944,,,,,,sundae_08s.jpg,0.0,clock_6_5.png,1.0,79,,,,,,,,,,,,,,,,,,0.0,4.0,4.0,4.0,1.0,,,,,,,,,,
1.0,1.0,0.93349,,,,,,polar_bear_02s.jpg,1.0,clock_6_6.png,1.0,79,,,,,,,,,,,,,,,,,,0.0,5.0,5.0,5.0,1.0,,,,,,,,,,
0.0,1.0,0.833055,,,,,,flask_04s.jpg,0.0,clock_7_1.png,2.0,79,,,,,,,,,,,,,,,,,,0.0,6.0,6.0,6.0,1.0,,,,,,,,,,
1.0,1.0,1.45236,,,,,,flask_04s.jpg,1.0,clock_7_2.png,2.0,79,,,,,,,,,,,,,,,,,,0.0,7.0,7.0,7.0,1.0,,,,,,,,,,
0.0,1.0,1.05909,,,,,,rake_06s.jpg,0.0,clock_7_3.png,2.0,79,,,,,,,,,,,,,,,,,,0.0,8.0,8.0,8.0,1.0,,,,,,,,,,
1.0,1.0,0.761525,,,,,,flask_04s.jpg,1.0,clock_7_4.png,2.0,79,,,,,,,,,,,,,,,,,,0.0,9.0,9.0,9.0,1.0,,,,,,,,,,
0.0,1.0,0.759075,,,,,,cap_05s.jpg,0.0,clock_7_5.png,2.0,79,,,,,,,,,,,,,,,,,,0.0,10.0,10.0,10.0,1.0,,,,,,,,,,
1.0,1.0,0.92893,,,,,,rake_06s.jpg,1.0,clock_7_6.png,2.0,79,,,,,,,,,,,,,,,,,,0.0,11.0,11.0,11.0,1.0,,,,,,,,,,
0.0,1.0,0.91288,,,,,,marshmallow_08s.jpg,0.0,clock_7_7.png,2.0,79,,,,,,,,,,,,,,,,,,0.0,12.0,12.0,12.0,1.0,,,,,,,,,,
0.0,1.0,1.39417,,,,,,padlock_07s.jpg,0.0,clock_5_1.png,3.0,79,,,,,,,,,,,,,,,,,,0.0,13.0,13.0,13.0,1.0,,,,,,,,,,
0.0,1.0,0.95269,,,,,,rake_06s.jpg,0.0,clock_5_2.png,3.0,79,,,,,,,,,,,,,,,,,,0.0,14.0,14.0,14.0,1.0,,,,,,,,,,
0.0,1.0,0.982445,,,,,,hydrant_10s.jpg,0.0,clock_5_3.png,3.0,79,,,,,,,,,,,,,,,,,,0.0,15.0,15.0,15.0,1.0,,,,,,,,,,
0.0,1.0,1.29598,,,,,,petri_dish_12s.jpg,0.0,clock_5_4.png,3.0,79,,,,,,,,,,,,,,,,,,0.0,16.0,16.0,16.0,1.0,,,,,,,,,,
0.0,1.0,1.865205,,,,,,soda_fountain_03s.jpg,0.0,clock_5_5.png,3.0,79,,,,,,,,,,,,,,,,,,0.0,17.0,17.0,17.0,1.0,,,,,,,,,,
0.0,1.0,1.091655,,,,,,boar_10s.jpg,0.0,clock_6_1.png,4.0,79,,,,,,,,,,,,,,,,,,0.0,18.0,18.0,18.0,1.0,,,,,,,,,,
0.0,1.0,0.746265,,,,,,rocket_02s.jpg,0.0,clock_6_2.png,4.0,79,,,,,,,,,,,,,,,,,,0.0,19.0,19.0,19.0,1.0,,,,,,,,,,
0.0,1.0,1.45523,,,,,,knot_01b.jpg,0.0,clock_6_3.png,4.0,79,,,,,,,,,,,,,,,,,,0.0,20.0,20.0,20.0,1.0,,,,,,,,,,
0.0,1.0,1.41606,,,,,,tab_09s.jpg,0.0,clock_6_4.png,4.0,79,,,,,,,,,,,,,,,,,,0.0,21.0,21.0,21.0,1.0,,,,,,,,,,
0.0,1.0,0.71353,,,,,,lipstick_02s.jpg,0.0,clock_6_5.png,4.0,79,,,,,,,,,,,,,,,,,,0.0,22.0,22.0,22.0,1.0,,,,,,,,,,
0.0,1.0,0.864145,,,,,,jersey_02s.jpg,0.0,clock_6_6.png,4.0,79,,,,,,,,,,,,,,,,,,0.0,23.0,23.0,23.0,1.0,,,,,,,,,,
0.0,1.0,0.560585,,,,,,ostrich_06s.jpg,0.0,clock_5_1.png,5.0,79,,,,,,,,,,,,,,,,,,0.0,24.0,24.0,24.0,1.0,,,,,,,,,,
0.0,1.0,1.40573,,,,,,jukebox_03n.jpg,0.0,clock_5_2.png,5.0,79,,,,,,,,,,,,,,,,,,0.0,25.0,25.0,25.0,1.0,,,,,,,,,,
0.0,1.0,1.29472,,,,,,umbrella_15s.jpg,0.0,clock_5_3.png,5.0,79,,,,,,,,,,,,,,,,,,0.0,26.0,26.0,26.0,1.0,,,,,,,,,,
0.0,1.0,1.75054,,,,,,machine_gun_09s.jpg,0.0,clock_5_4.png,5.0,79,,,,,,,,,,,,,,,,,,0.0,27.0,27.0,27.0,1.0,,,,,,,,,,
0.0,1.0,1.38167,,,,,,inhaler_01b.jpg,0.0,clock_5_5.png,5.0,79,,,,,,,,,,,,,,,,,,0.0,28.0,28.0,28.0,1.0,,,,,,,,,,
0.0,1.0,1.346985,,,,,,screwdriver02a.jpg,0.0,clock_7_1.png,6.0,79,,,,,,,,,,,,,,,,,,0.0,29.0,29.0,29.0,1.0,,,,,,,,,,
0.0,1.0,0.920845,,,,,,thread_08s.jpg,0.0,clock_7_2.png,6.0,79,,,,,,,,,,,,,,,,,,0.0,30.0,30.0,30.0,1.0,,,,,,,,,,
0.0,1.0,1.543375,,,,,,ironing_board_07s.jpg,0.0,clock_7_3.png,6.0,79,,,,,,,,,,,,,,,,,,0.0,31.0,31.0,31.0,1.0,,,,,,,,,,
0.0,1.0,1.299885,,,,,,lip_gloss_06s.jpg,0.0,clock_7_4.png,6.0,79,,,,,,,,,,,,,,,,,,0.0,32.0,32.0,32.0,1.0,,,,,,,,,,
0.0,1.0,0.81835,,,,,,espresso_01b.jpg,0.0,clock_7_5.png,6.0,79,,,,,,,,,,,,,,,,,,0.0,33.0,33.0,33.0,1.0,,,,,,,,,,
0.0,1.0,0.836045,,,,,,checkbook_11s.jpg,0.0,clock_7_6.png,6.0,79,,,,,,,,,,,,,,,,,,0.0,34.0,34.0,34.0,1.0,,,,,,,,,,
0.0,1.0,0.7231,,,,,,rollerskate_03s.jpg,0.0,clock_7_7.png,6.0,79,,,,,,,,,,,,,,,,,,0.0,35.0,35.0,35.0,1.0,,,,,,,,,,
,,,,,,,,,0.0,,,79,0.0,1.0,5.26154,,,,,,hydrant_10s.jpg,marshmallow_08s.jpg,,,,,,,,,,,,,0.0,0.0,0.0,0.0,1.0,,,,,
,,,,,,,,,1.0,,,79,1.0,1.0,2.3342,,,,,,cap_05s.jpg,padlock_07s.jpg,,,,,,,,,,,,,0.0,1.0,1.0,1.0,1.0,,,,,
,,,,,,,,,0.0,,,79,1.0,0.0,2.26508,,,,,,knot_01b.jpg,soda_fountain_03s.jpg,,,,,,,,,,,,,0.0,2.0,2.0,2.0,1.0,,,,,
,,,,,,,,,0.0,,,79,0.0,1.0,2.173325,,,,,,sundae_08s.jpg,radiator_05s.jpg,,,,,,,,,,,,,0.0,3.0,3.0,3.0,1.0,,,,,
,,,,,,,,,0.0,,,79,0.0,1.0,2.31665,,,,,,rollerskate_03s.jpg,lip_gloss_06s.jpg,,,,,,,,,,,,,0.0,4.0,4.0,4.0,1.0,,,,,
,,,,,,,,,0.0,,,79,0.0,1.0,1.586335,,,,,,espresso_01b.jpg,thread_08s.jpg,,,,,,,,,,,,,0.0,5.0,5.0,5.0,1.0,,,,,
,,,,,,,,,,,,79,,,,,,,,,,,,,,,,clock_present_2_17.xlsx,clock_compare_task_2_17.xlsx,,,,,,,,,,,0.0,1.0,1.0,1.0,1.0
0.0,1.0,1.729035,,,,,,tripod_01b.jpg,0.0,clock_6_1.png,1.0,79,,,,,,,,,,,,,,,,,,0.0,0.0,0.0,0.0,1.0,,,,,,,,,,
0.0,1.0,0.884405,,,,,,doily_13s.jpg,0.0,clock_6_2.png,1.0,79,,,,,,,,,,,,,,,,,,0.0,1.0,1.0,1.0,1.0,,,,,,,,,,
0.0,1.0,0.768505,,,,,,sushi_08s.jpg,0.0,clock_6_3.png,1.0,79,,,,,,,,,,,,,,,,,,0.0,2.0,2.0,2.0,1.0,,,,,,,,,,
0.0,1.0,0.66586,,,,,,bubble_01b.jpg,0.0,clock_6_4.png,1.0,79,,,,,,,,,,,,,,,,,,0.0,3.0,3.0,3.0,1.0,,,,,,,,,,
0.0,1.0,0.519035,,,,,,swordfish_05s.jpg,0.0,clock_6_5.png,1.0,79,,,,,,,,,,,,,,,,,,0.0,4.0,4.0,4.0,1.0,,,,,,,,,,
0.0,1.0,0.619715,,,,,,keyboard_05s.jpg,0.0,clock_6_6.png,1.0,79,,,,,,,,,,,,,,,,,,0.0,5.0,5.0,5.0,1.0,,,,,,,,,,
0.0,1.0,0.642615,,,,,,perfume_06s.jpg,0.0,clock_7_1.png,2.0,79,,,,,,,,,,,,,,,,,,0.0,6.0,6.0,6.0,1.0,,,,,,,,,,
0.0,1.0,0.70697,,,,,,mango_09s.jpg,0.0,clock_7_2.png,2.0,79,,,,,,,,,,,,,,,,,,0.0,7.0,7.0,7.0,1.0,,,,,,,,,,
0.0,1.0,0.613425,,,,,,tube_top_03s.jpg,0.0,clock_7_3.png,2.0,79,,,,,,,,,,,,,,,,,,0.0,8.0,8.0,8.0,1.0,,,,,,,,,,
0.0,1.0,0.842485,,,,,,birdcage_08s.jpg,0.0,clock_7_4.png,2.0,79,,,,,,,,,,,,,,,,,,0.0,9.0,9.0,9.0,1.0,,,,,,,,,,
0.0,1.0,0.5842,,,,,,typewriter_11s.jpg,0.0,clock_7_5.png,2.0,79,,,,,,,,,,,,,,,,,,0.0,10.0,10.0,10.0,1.0,,,,,,,,,,
0.0,1.0,0.65021,,,,,,rug_09s.jpg,0.0,clock_7_6.png,2.0,79,,,,,,,,,,,,,,,,,,0.0,11.0,11.0,11.0,1.0,,,,,,,,,,
0.0,1.0,1.092255,,,,,,sushi_08s.jpg,0.0,clock_7_7.png,2.0,79,,,,,,,,,,,,,,,,,,0.0,12.0,12.0,12.0,1.0,,,,,,,,,,
0.0,1.0,0.538835,,,,,,puffin_19s.jpg,0.0,clock_6_1.png,3.0,79,,,,,,,,,,,,,,,,,,0.0,13.0,13.0,13.0,1.0,,,,,,,,,,
0.0,1.0,0.394385,,,,,,orange_12s.jpg,0.0,clock_6_2.png,3.0,79,,,,,,,,,,,,,,,,,,0.0,14.0,14.0,14.0,1.0,,,,,,,,,,
0.0,1.0,0.461085,,,,,,iron_13s.jpg,0.0,clock_6_3.png,3.0,79,,,,,,,,,,,,,,,,,,0.0,15.0,15.0,15.0,1.0,,,,,,,,,,
1.0,1.0,1.29704,,,,,,puffin_19s.jpg,1.0,clock_6_4.png,3.0,79,,,,,,,,,,,,,,,,,,0.0,16.0,16.0,16.0,1.0,,,,,,,,,,
0.0,1.0,0.887235,,,,,,punch1_10s.jpg,0.0,clock_6_5.png,3.0,79,,,,,,,,,,,,,,,,,,0.0,17.0,17.0,17.0,1.0,,,,,,,,,,
0.0,1.0,0.737065,,,,,,penlight_12s.jpg,0.0,clock_6_6.png,3.0,79,,,,,,,,,,,,,,,,,,0.0,18.0,18.0,18.0,1.0,,,,,,,,,,
0.0,1.0,0.81625,,,,,,crossbow_10s.jpg,0.0,clock_5_1.png,4.0,79,,,,,,,,,,,,,,,,,,0.0,19.0,19.0,19.0,1.0,,,,,,,,,,
0.0,1.0,0.856905,,,,,,diving_board_07s.jpg,0.0,clock_5_2.png,4.0,79,,,,,,,,,,,,,,,,,,0.0,20.0,20.0,20.0,1.0,,,,,,,,,,
1.0,1.0,1.342965,,,,,,diving_board_07s.jpg,1.0,clock_5_3.png,4.0,79,,,,,,,,,,,,,,,,,,0.0,21.0,21.0,21.0,1.0,,,,,,,,,,
0.0,1.0,1.06357,,,,,,eyedropper_12s.jpg,0.0,clock_5_4.png,4.0,79,,,,,,,,,,,,,,,,,,0.0,22.0,22.0,22.0,1.0,,,,,,,,,,
0.0,1.0,0.4889,,,,,,reindeer_08s.jpg,0.0,clock_5_5.png,4.0,79,,,,,,,,,,,,,,,,,,0.0,23.0,23.0,23.0,1.0,,,,,,,,,,
0.0,1.0,0.728515,,,,,,stapler_01b.jpg,0.0,clock_7_1.png,5.0,79,,,,,,,,,,,,,,,,,,0.0,24.0,24.0,24.0,1.0,,,,,,,,,,
1.0,1.0,1.31931,,,,,,stapler_01b.jpg,1.0,clock_7_2.png,5.0,79,,,,,,,,,,,,,,,,,,0.0,25.0,25.0,25.0,1.0,,,,,,,,,,
1.0,1.0,1.229545,,,,,,stapler_01b.jpg,1.0,clock_7_3.png,5.0,79,,,,,,,,,,,,,,,,,,0.0,26.0,26.0,26.0,1.0,,,,,,,,,,
0.0,1.0,0.50209,,,,,,fountain_pen_06s.jpg,0.0,clock_7_4.png,5.0,79,,,,,,,,,,,,,,,,,,0.0,27.0,27.0,27.0,1.0,,,,,,,,,,
0.0,1.0,0.900905,,,,,,toaster_03s.jpg,0.0,clock_7_5.png,5.0,79,,,,,,,,,,,,,,,,,,0.0,28.0,28.0,28.0,1.0,,,,,,,,,,
0.0,1.0,0.853405,,,,,,sushi_08s.jpg,0.0,clock_7_6.png,5.0,79,,,,,,,,,,,,,,,,,,0.0,29.0,29.0,29.0,1.0,,,,,,,,,,
0.0,1.0,0.866505,,,,,,chocolate_01b.jpg,0.0,clock_7_7.png,5.0,79,,,,,,,,,,,,,,,,,,0.0,30.0,30.0,30.0,1.0,,,,,,,,,,
0.0,1.0,0.712725,,,,,,microwave_02s.jpg,0.0,clock_5_1.png,6.0,79,,,,,,,,,,,,,,,,,,0.0,31.0,31.0,31.0,1.0,,,,,,,,,,
0.0,1.0,1.0137,,,,,,champagne_18s.jpg,0.0,clock_5_2.png,6.0,79,,,,,,,,,,,,,,,,,,0.0,32.0,32.0,32.0,1.0,,,,,,,,,,
0.0,1.0,0.69626,,,,,,phone_01b.jpg,0.0,clock_5_3.png,6.0,79,,,,,,,,,,,,,,,,,,0.0,33.0,33.0,33.0,1.0,,,,,,,,,,
1.0,1.0,1.33507,,,,,,phone_01b.jpg,1.0,clock_5_4.png,6.0,79,,,,,,,,,,,,,,,,,,0.0,34.0,34.0,34.0,1.0,,,,,,,,,,
0.0,1.0,0.679305,,,,,,perfume_06s.jpg,0.0,clock_5_5.png,6.0,79,,,,,,,,,,,,,,,,,,0.0,35.0,35.0,35.0,1.0,,,,,,,,,,
,,,,,,,,,0.0,,,79,1.0,0.0,2.54195,,,,,,microwave_02s.jpg,toaster_03s.jpg,,,,,,,,,,,,,0.0,0.0,0.0,0.0,1.0,,,,,
,,,,,,,,,1.0,,,79,1.0,1.0,2.420565,,,,,,keyboard_05s.jpg,tube_top_03s.jpg,,,,,,,,,,,,,0.0,1.0,1.0,1.0,1.0,,,,,
,,,,,,,,,0.0,,,79,1.0,0.0,1.863585,,,,,,mango_09s.jpg,swordfish_05s.jpg,,,,,,,,,,,,,0.0,2.0,2.0,2.0,1.0,,,,,
,,,,,,,,,1.0,,,79,0.0,0.0,2.28453,,,,,,tripod_01b.jpg,bubble_01b.jpg,,,,,,,,,,,,,0.0,3.0,3.0,3.0,1.0,,,,,
,,,,,,,,,1.0,,,79,1.0,1.0,1.679625,,,,,,iron_13s.jpg,penlight_12s.jpg,,,,,,,,,,,,,0.0,4.0,4.0,4.0,1.0,,,,,
,,,,,,,,,0.0,,,79,0.0,1.0,1.283205,,,,,,eyedropper_12s.jpg,crossbow_10s.jpg,,,,,,,,,,,,,0.0,5.0,5.0,5.0,1.0,,,,,
,,,,,,,,,,,,79,,,,,,,,,,,,,,,,clock_present_3_17.xlsx,clock_compare_task_3_17.xlsx,,,,,,,,,,,0.0,2.0,2.0,2.0,1.0
0.0,1.0,0.775955,,,,,,aluminum_foil_08s.jpg,0.0,clock_5_1.png,1.0,79,,,,,,,,,,,,,,,,,,0.0,0.0,0.0,0.0,1.0,,,,,,,,,,
0.0,1.0,0.601655,,,,,,kimono_13s.jpg,0.0,clock_5_2.png,1.0,79,,,,,,,,,,,,,,,,,,0.0,1.0,1.0,1.0,1.0,,,,,,,,,,
1.0,1.0,1.30641,,,,,,aluminum_foil_08s.jpg,1.0,clock_5_3.png,1.0,79,,,,,,,,,,,,,,,,,,0.0,2.0,2.0,2.0,1.0,,,,,,,,,,
0.0,1.0,0.668855,,,,,,air_pump_05s.jpg,0.0,clock_5_4.png,1.0,79,,,,,,,,,,,,,,,,,,0.0,3.0,3.0,3.0,1.0,,,,,,,,,,
0.0,1.0,2.279025,,,,,,submarine_11n.jpg,0.0,clock_5_5.png,1.0,79,,,,,,,,,,,,,,,,,,0.0,4.0,4.0,4.0,1.0,,,,,,,,,,
0.0,1.0,0.707465,,,,,,totem_pole_05s.jpg,0.0,clock_5_1.png,2.0,79,,,,,,,,,,,,,,,,,,0.0,5.0,5.0,5.0,1.0,,,,,,,,,,
0.0,1.0,0.52641,,,,,,mattress_01s.jpg,0.0,clock_5_2.png,2.0,79,,,,,,,,,,,,,,,,,,0.0,6.0,6.0,6.0,1.0,,,,,,,,,,
1.0,1.0,1.09946,,,,,,totem_pole_05s.jpg,1.0,clock_5_3.png,2.0,79,,,,,,,,,,,,,,,,,,0.0,7.0,7.0,7.0,1.0,,,,,,,,,,
0.0,1.0,0.73037,,,,,,stump_02s.jpg,0.0,clock_5_4.png,2.0,79,,,,,,,,,,,,,,,,,,0.0,8.0,8.0,8.0,1.0,,,,,,,,,,
1.0,1.0,1.216455,,,,,,mattress_01s.jpg,1.0,clock_5_5.png,2.0,79,,,,,,,,,,,,,,,,,,0.0,9.0,9.0,9.0,1.0,,,,,,,,,,
0.0,1.0,0.831905,,,,,,pantyhose_07s.jpg,0.0,clock_7_1.png,3.0,79,,,,,,,,,,,,,,,,,,0.0,10.0,10.0,10.0,1.0,,,,,,,,,,
0.0,1.0,0.537085,,,,,,olive_05s.jpg,0.0,clock_7_2.png,3.0,79,,,,,,,,,,,,,,,,,,0.0,11.0,11.0,11.0,1.0,,,,,,,,,,
0.0,1.0,0.570525,,,,,,ukulele_02s.jpg,0.0,clock_7_3.png,3.0,79,,,,,,,,,,,,,,,,,,0.0,12.0,12.0,12.0,1.0,,,,,,,,,,
0.0,1.0,0.688845,,,,,,dashboard_02s.jpg,0.0,clock_7_4.png,3.0,79,,,,,,,,,,,,,,,,,,0.0,13.0,13.0,13.0,1.0,,,,,,,,,,
0.0,1.0,0.48441,,,,,,toy_04s.jpg,0.0,clock_7_5.png,3.0,79,,,,,,,,,,,,,,,,,,0.0,14.0,14.0,14.0,1.0,,,,,,,,,,
1.0,1.0,1.16445,,,,,,ukulele_02s.jpg,1.0,clock_7_6.png,3.0,79,,,,,,,,,,,,,,,,,,0.0,15.0,15.0,15.0,1.0,,,,,,,,,,
0.0,1.0,0.95318,,,,,,squirrel_02s.jpg,0.0,clock_7_7.png,3.0,79,,,,,,,,,,,,,,,,,,0.0,16.0,16.0,16.0,1.0,,,,,,,,,,
0.0,1.0,0.351985,,,,,,tweezers_03s.jpg,0.0,clock_6_1.png,4.0,79,,,,,,,,,,,,,,,,,,0.0,17.0,17.0,17.0,1.0,,,,,,,,,,
0.0,1.0,0.519595,,,,,,lantern_04s.jpg,0.0,clock_6_2.png,4.0,79,,,,,,,,,,,,,,,,,,0.0,18.0,18.0,18.0,1.0,,,,,,,,,,
0.0,1.0,0.702845,,,,,,lab_coat_11s.jpg,0.0,clock_6_3.png,4.0,79,,,,,,,,,,,,,,,,,,0.0,19.0,19.0,19.0,1.0,,,,,,,,,,
0.0,1.0,1.241135,,,,,,bank_06s.jpg,0.0,clock_6_4.png,4.0,79,,,,,,,,,,,,,,,,,,0.0,20.0,20.0,20.0,1.0,,,,,,,,,,
1.0,1.0,1.41648,,,,,,bank_06s.jpg,1.0,clock_6_5.png,4.0,79,,,,,,,,,,,,,,,,,,0.0,21.0,21.0,21.0,1.0,,,,,,,,,,
0.0,1.0,0.82464,,,,,,medal_04s.jpg,0.0,clock_6_6.png,4.0,79,,,,,,,,,,,,,,,,,,0.0,22.0,22.0,22.0,1.0,,,,,,,,,,
0.0,1.0,1.09983,,,,,,prism_10s.jpg,0.0,clock_6_1.png,5.0,79,,,,,,,,,,,,,,,,,,0.0,23.0,23.0,23.0,1.0,,,,,,,,,,
0.0,1.0,1.07937,,,,,,rock_08s.jpg,0.0,clock_6_2.png,5.0,79,,,,,,,,,,,,,,,,,,0.0,24.0,24.0,24.0,1.0,,,,,,,,,,
1.0,1.0,1.37615,,,,,,rock_08s.jpg,1.0,clock_6_3.png,5.0,79,,,,,,,,,,,,,,,,,,0.0,25.0,25.0,25.0,1.0,,,,,,,,,,
1.0,1.0,1.085515,,,,,,prism_10s.jpg,1.0,clock_6_4.png,5.0,79,,,,,,,,,,,,,,,,,,0.0,26.0,26.0,26.0,1.0,,,,,,,,,,
0.0,1.0,1.038375,,,,,,aluminum_foil_08s.jpg,0.0,clock_6_5.png,5.0,79,,,,,,,,,,,,,,,,,,0.0,27.0,27.0,27.0,1.0,,,,,,,,,,
0.0,1.0,1.126505,,,,,,coconut_08s.jpg,0.0,clock_6_6.png,5.0,79,,,,,,,,,,,,,,,,,,0.0,28.0,28.0,28.0,1.0,,,,,,,,,,
0.0,1.0,1.339915,,,,,,mousetrap_15n.jpg,0.0,clock_7_1.png,6.0,79,,,,,,,,,,,,,,,,,,0.0,29.0,29.0,29.0,1.0,,,,,,,,,,
0.0,1.0,1.13308,,,,,,pinwheel_06s.jpg,0.0,clock_7_2.png,6.0,79,,,,,,,,,,,,,,,,,,0.0,30.0,30.0,30.0,1.0,,,,,,,,,,
0.0,1.0,1.24708,,,,,,compass_10n.jpg,0.0,clock_7_3.png,6.0,79,,,,,,,,,,,,,,,,,,0.0,31.0,31.0,31.0,1.0,,,,,,,,,,
0.0,1.0,1.410845,,,,,,fireworks_18s.jpg,0.0,clock_7_4.png,6.0,79,,,,,,,,,,,,,,,,,,0.0,32.0,32.0,32.0,1.0,,,,,,,,,,
0.0,1.0,1.231925,,,,,,muffin_12n.jpg,0.0,clock_7_5.png,6.0,79,,,,,,,,,,,,,,,,,,0.0,33.0,33.0,33.0,1.0,,,,,,,,,,
1.0,1.0,1.083425,,,,,,compass_10n.jpg,1.0,clock_7_6.png,6.0,79,,,,,,,,,,,,,,,,,,0.0,34.0,34.0,34.0,1.0,,,,,,,,,,
0.0,1.0,0.760925,,,,,,totem_pole_05s.jpg,0.0,clock_7_7.png,6.0,79,,,,,,,,,,,,,,,,,,0.0,35.0,35.0,35.0,1.0,,,,,,,,,,
,,,,,,,,,1.0,,,79,1.0,1.0,1.574535,,,,,,stump_02s.jpg,olive_05s.jpg,,,,,,,,,,,,,0.0,0.0,0.0,0.0,1.0,,,,,
,,,,,,,,,0.0,,,79,1.0,0.0,1.725005,,,,,,tweezers_03s.jpg,toy_04s.jpg,,,,,,,,,,,,,0.0,1.0,1.0,1.0,1.0,,,,,
,,,,,,,,,0.0,,,79,0.0,1.0,2.004745,,,,,,lab_coat_11s.jpg,squirrel_02s.jpg,,,,,,,,,,,,,0.0,2.0,2.0,2.0,1.0,,,,,
,,,,,,,,,1.0,,,79,1.0,1.0,1.48781,,,,,,kimono_13s.jpg,submarine_11n.jpg,,,,,,,,,,,,,0.0,3.0,3.0,3.0,1.0,,,,,
,,,,,,,,,1.0,,,79,0.0,0.0,2.685215,,,,,,pantyhose_07s.jpg,dashboard_02s.jpg,,,,,,,,,,,,,0.0,4.0,4.0,4.0,1.0,,,,,
,,,,,,,,,0.0,,,79,0.0,1.0,1.90137,,,,,,fireworks_18s.jpg,mousetrap_15n.jpg,,,,,,,,,,,,,0.0,5.0,5.0,5.0,1.0,,,,,
,,,,,,,,,,,,79,,,,,,,,,,,,,,,,clock_present_4_17.xlsx,clock_compare_task_4_17.xlsx,,,,,,,,,,,0.0,3.0,3.0,3.0,1.0
0.0,1.0,1.25878,,,,,,timer_03s.jpg,0.0,clock_6_1.png,1.0,79,,,,,,,,,,,,,,,,,,0.0,0.0,0.0,0.0,1.0,,,,,,,,,,
0.0,1.0,0.452625,,,,,,cobra_05s.jpg,0.0,clock_6_2.png,1.0,79,,,,,,,,,,,,,,,,,,0.0,1.0,1.0,1.0,1.0,,,,,,,,,,
0.0,1.0,0.501435,,,,,,lizard_10n.jpg,0.0,clock_6_3.png,1.0,79,,,,,,,,,,,,,,,,,,0.0,2.0,2.0,2.0,1.0,,,,,,,,,,
1.0,1.0,1.2083,,,,,,cobra_05s.jpg,1.0,clock_6_4.png,1.0,79,,,,,,,,,,,,,,,,,,0.0,3.0,3.0,3.0,1.0,,,,,,,,,,
0.0,1.0,0.5632,,,,,,teabag_12s.jpg,0.0,clock_6_5.png,1.0,79,,,,,,,,,,,,,,,,,,0.0,4.0,4.0,4.0,1.0,,,,,,,,,,
,0.0,,,,,,,timer_03s.jpg,1.0,clock_6_6.png,1.0,79,,,,,,,,,,,,,,,,,,0.0,5.0,5.0,5.0,1.0,,,,,,,,,,
0.0,1.0,1.3478,,,,,,tile_08s.jpg,0.0,clock_6_1.png,2.0,79,,,,,,,,,,,,,,,,,,0.0,6.0,6.0,6.0,1.0,,,,,,,,,,
0.0,1.0,0.523605,,,,,,undershirt_02s.jpg,0.0,clock_6_2.png,2.0,79,,,,,,,,,,,,,,,,,,0.0,7.0,7.0,7.0,1.0,,,,,,,,,,
0.0,1.0,0.772595,,,,,,surfboard_11s.jpg,0.0,clock_6_3.png,2.0,79,,,,,,,,,,,,,,,,,,0.0,8.0,8.0,8.0,1.0,,,,,,,,,,
0.0,1.0,0.579635,,,,,,chime_12s.jpg,0.0,clock_6_4.png,2.0,79,,,,,,,,,,,,,,,,,,0.0,9.0,9.0,9.0,1.0,,,,,,,,,,
1.0,1.0,1.16326,,,,,,surfboard_11s.jpg,1.0,clock_6_5.png,2.0,79,,,,,,,,,,,,,,,,,,0.0,10.0,10.0,10.0,1.0,,,,,,,,,,
0.0,1.0,0.866175,,,,,,crab_16s.jpg,0.0,clock_6_6.png,2.0,79,,,,,,,,,,,,,,,,,,0.0,11.0,11.0,11.0,1.0,,,,,,,,,,
0.0,1.0,0.773625,,,,,,frog_09s.jpg,0.0,clock_5_1.png,3.0,79,,,,,,,,,,,,,,,,,,0.0,12.0,12.0,12.0,1.0,,,,,,,,,,
0.0,1.0,0.801515,,,,,,squirt_gun_03s.jpg,0.0,clock_5_2.png,3.0,79,,,,,,,,,,,,,,,,,,0.0,13.0,13.0,13.0,1.0,,,,,,,,,,
0.0,1.0,0.642865,,,,,,undershirt_02s.jpg,0.0,clock_5_3.png,3.0,79,,,,,,,,,,,,,,,,,,0.0,14.0,14.0,14.0,1.0,,,,,,,,,,
0.0,1.0,1.16628,,,,,,razor_blade_01b.jpg,0.0,clock_5_4.png,3.0,79,,,,,,,,,,,,,,,,,,0.0,15.0,15.0,15.0,1.0,,,,,,,,,,
0.0,1.0,1.29774,,,,,,teabag_12s.jpg,0.0,clock_5_5.png,3.0,79,,,,,,,,,,,,,,,,,,0.0,16.0,16.0,16.0,1.0,,,,,,,,,,
0.0,1.0,0.970665,,,,,,fur_coat_11s.jpg,0.0,clock_7_1.png,4.0,79,,,,,,,,,,,,,,,,,,0.0,17.0,17.0,17.0,1.0,,,,,,,,,,
1.0,1.0,1.740245,,,,,,fur_coat_11s.jpg,1.0,clock_7_2.png,4.0,79,,,,,,,,,,,,,,,,,,0.0,18.0,18.0,18.0,1.0,,,,,,,,,,
0.0,1.0,0.914425,,,,,,mushroom_10n.jpg,0.0,clock_7_3.png,4.0,79,,,,,,,,,,,,,,,,,,0.0,19.0,19.0,19.0,1.0,,,,,,,,,,
0.0,1.0,0.87281,,,,,,snowman_02s.jpg,0.0,clock_7_4.png,4.0,79,,,,,,,,,,,,,,,,,,0.0,20.0,20.0,20.0,1.0,,,,,,,,,,
1.0,1.0,1.495865,,,,,,snowman_02s.jpg,1.0,clock_7_5.png,4.0,79,,,,,,,,,,,,,,,,,,0.0,21.0,21.0,21.0,1.0,,,,,,,,,,
0.0,1.0,0.670315,,,,,,safety_pin_02s.jpg,0.0,clock_7_6.png,4.0,79,,,,,,,,,,,,,,,,,,0.0,22.0,22.0,22.0,1.0,,,,,,,,,,
0.0,1.0,0.85689,,,,,,surfboard_11s.jpg,0.0,clock_7_7.png,4.0,79,,,,,,,,,,,,,,,,,,0.0,23.0,23.0,23.0,1.0,,,,,,,,,,
0.0,1.0,0.99397,,,,,,oil_02s.jpg,0.0,clock_7_1.png,5.0,79,,,,,,,,,,,,,,,,,,0.0,24.0,24.0,24.0,1.0,,,,,,,,,,
0.0,1.0,0.704345,,,,,,ice-cream_cone_06s.jpg,0.0,clock_7_2.png,5.0,79,,,,,,,,,,,,,,,,,,0.0,25.0,25.0,25.0,1.0,,,,,,,,,,
0.0,1.0,0.649715,,,,,,tennis_ball_06s.jpg,0.0,clock_7_3.png,5.0,79,,,,,,,,,,,,,,,,,,0.0,26.0,26.0,26.0,1.0,,,,,,,,,,
0.0,1.0,0.94678,,,,,,pencil_sharpener_09n.jpg,0.0,clock_7_4.png,5.0,79,,,,,,,,,,,,,,,,,,0.0,27.0,27.0,27.0,1.0,,,,,,,,,,
0.0,1.0,0.90568,,,,,,pumpkin_03s.jpg,0.0,clock_7_5.png,5.0,79,,,,,,,,,,,,,,,,,,0.0,28.0,28.0,28.0,1.0,,,,,,,,,,
0.0,1.0,0.871005,,,,,,ring_03s.jpg,0.0,clock_7_6.png,5.0,79,,,,,,,,,,,,,,,,,,0.0,29.0,29.0,29.0,1.0,,,,,,,,,,
0.0,1.0,0.926575,,,,,,police_car_01s.jpg,0.0,clock_7_7.png,5.0,79,,,,,,,,,,,,,,,,,,0.0,30.0,30.0,30.0,1.0,,,,,,,,,,
0.0,1.0,1.01345,,,,,,bolo_tie_08s.jpg,0.0,clock_5_1.png,6.0,79,,,,,,,,,,,,,,,,,,0.0,31.0,31.0,31.0,1.0,,,,,,,,,,
0.0,1.0,1.188745,,,,,,jelly_bean_06s.jpg,0.0,clock_5_2.png,6.0,79,,,,,,,,,,,,,,,,,,0.0,32.0,32.0,32.0,1.0,,,,,,,,,,
0.0,1.0,0.77703,,,,,,pencil02a.jpg,0.0,clock_5_3.png,6.0,79,,,,,,,,,,,,,,,,,,0.0,33.0,33.0,33.0,1.0,,,,,,,,,,
0.0,1.0,1.205525,,,,,,lizard_10n.jpg,0.0,clock_5_4.png,6.0,79,,,,,,,,,,,,,,,,,,0.0,34.0,34.0,34.0,1.0,,,,,,,,,,
0.0,1.0,1.787855,,,,,,pepper2_21s.jpg,0.0,clock_5_5.png,6.0,79,,,,,,,,,,,,,,,,,,0.0,35.0,35.0,35.0,1.0,,,,,,,,,,
,,,,,,,,,0.0,,,79,1.0,0.0,3.03299,,,,,,bolo_tie_08s.jpg,pumpkin_03s.jpg,,,,,,,,,,,,,0.0,0.0,0.0,0.0,1.0,,,,,
,,,,,,,,,1.0,,,79,0.0,0.0,1.71056,,,,,,police_car_01s.jpg,pencil02a.jpg,,,,,,,,,,,,,0.0,1.0,1.0,1.0,1.0,,,,,
,,,,,,,,,1.0,,,79,1.0,1.0,1.731895,,,,,,chime_12s.jpg,frog_09s.jpg,,,,,,,,,,,,,0.0,2.0,2.0,2.0,1.0,,,,,
,,,,,,,,,0.0,,,79,0.0,1.0,2.64873,,,,,,pencil_sharpener_09n.jpg,oil_02s.jpg,,,,,,,,,,,,,0.0,3.0,3.0,3.0,1.0,,,,,
,,,,,,,,,0.0,,,79,0.0,1.0,2.24444,,,,,,safety_pin_02s.jpg,mushroom_10n.jpg,,,,,,,,,,,,,0.0,4.0,4.0,4.0,1.0,,,,,
,,,,,,,,,0.0,,,79,0.0,1.0,1.36511,,,,,,ring_03s.jpg,tennis_ball_06s.jpg,,,,,,,,,,,,,0.0,5.0,5.0,5.0,1.0,,,,,
,,,,,,,,,,,,79,,,,,,,,,,,,,,,,clock_present_5_17.xlsx,clock_compare_task_5_17.xlsx,,,,,,,,,,,0.0,4.0,4.0,4.0,1.0
0.0,1.0,0.908445,,,,,,recliner_02s.jpg,0.0,clock_6_1.png,1.0,79,,,,,,,,,,,,,,,,,,0.0,0.0,0.0,0.0,1.0,,,,,,,,,,
0.0,1.0,0.866625,,,,,,purse_05s.jpg,0.0,clock_6_2.png,1.0,79,,,,,,,,,,,,,,,,,,0.0,1.0,1.0,1.0,1.0,,,,,,,,,,
0.0,1.0,0.53751,,,,,,treasure_08s.jpg,0.0,clock_6_3.png,1.0,79,,,,,,,,,,,,,,,,,,0.0,2.0,2.0,2.0,1.0,,,,,,,,,,
0.0,1.0,0.59412,,,,,,tongs_08s.jpg,0.0,clock_6_4.png,1.0,79,,,,,,,,,,,,,,,,,,0.0,3.0,3.0,3.0,1.0,,,,,,,,,,
1.0,1.0,1.36972,,,,,,tongs_08s.jpg,1.0,clock_6_5.png,1.0,79,,,,,,,,,,,,,,,,,,0.0,4.0,4.0,4.0,1.0,,,,,,,,,,
0.0,1.0,0.56648,,,,,,feather02.jpg,0.0,clock_6_6.png,1.0,79,,,,,,,,,,,,,,,,,,0.0,5.0,5.0,5.0,1.0,,,,,,,,,,
0.0,1.0,0.455565,,,,,,pocketknife_12s.jpg,0.0,clock_7_1.png,2.0,79,,,,,,,,,,,,,,,,,,0.0,6.0,6.0,6.0,1.0,,,,,,,,,,
0.0,1.0,0.469275,,,,,,bagel_15s.jpg,0.0,clock_7_2.png,2.0,79,,,,,,,,,,,,,,,,,,0.0,7.0,7.0,7.0,1.0,,,,,,,,,,
0.0,1.0,1.588965,,,,,,turtleneck_11s.jpg,0.0,clock_7_3.png,2.0,79,,,,,,,,,,,,,,,,,,0.0,8.0,8.0,8.0,1.0,,,,,,,,,,
1.0,1.0,1.055685,,,,,,turtleneck_11s.jpg,1.0,clock_7_4.png,2.0,79,,,,,,,,,,,,,,,,,,0.0,9.0,9.0,9.0,1.0,,,,,,,,,,
0.0,1.0,1.107135,,,,,,kangaroo_02s.jpg,0.0,clock_7_5.png,2.0,79,,,,,,,,,,,,,,,,,,0.0,10.0,10.0,10.0,1.0,,,,,,,,,,
1.0,1.0,1.5163,,,,,,turtleneck_11s.jpg,1.0,clock_7_6.png,2.0,79,,,,,,,,,,,,,,,,,,0.0,11.0,11.0,11.0,1.0,,,,,,,,,,
0.0,1.0,1.013695,,,,,,tongs_08s.jpg,0.0,clock_7_7.png,2.0,79,,,,,,,,,,,,,,,,,,0.0,12.0,12.0,12.0,1.0,,,,,,,,,,
0.0,1.0,1.11952,,,,,,incense_02s.jpg,0.0,clock_6_1.png,3.0,79,,,,,,,,,,,,,,,,,,0.0,13.0,13.0,13.0,1.0,,,,,,,,,,
0.0,1.0,1.146605,,,,,,peeler_06s.jpg,0.0,clock_6_2.png,3.0,79,,,,,,,,,,,,,,,,,,0.0,14.0,14.0,14.0,1.0,,,,,,,,,,
0.0,1.0,1.083065,,,,,,lollipop_08s.jpg,0.0,clock_6_3.png,3.0,79,,,,,,,,,,,,,,,,,,0.0,15.0,15.0,15.0,1.0,,,,,,,,,,
0.0,1.0,1.61752,,,,,,soccer_ball_12s.jpg,0.0,clock_6_4.png,3.0,79,,,,,,,,,,,,,,,,,,0.0,16.0,16.0,16.0,1.0,,,,,,,,,,
0.0,1.0,0.882345,,,,,,parachute_03s.jpg,0.0,clock_6_5.png,3.0,79,,,,,,,,,,,,,,,,,,0.0,17.0,17.0,17.0,1.0,,,,,,,,,,
0.0,1.0,0.56116,,,,,,pillbox_04s.jpg,0.0,clock_6_6.png,3.0,79,,,,,,,,,,,,,,,,,,0.0,18.0,18.0,18.0,1.0,,,,,,,,,,
0.0,1.0,1.00452,,,,,,solar_panel_02s.jpg,0.0,clock_5_1.png,4.0,79,,,,,,,,,,,,,,,,,,0.0,19.0,19.0,19.0,1.0,,,,,,,,,,
0.0,1.0,1.095285,,,,,,pomegranate_04s.jpg,0.0,clock_5_2.png,4.0,79,,,,,,,,,,,,,,,,,,0.0,20.0,20.0,20.0,1.0,,,,,,,,,,
0.0,1.0,0.594915,,,,,,kettle_08s.jpg,0.0,clock_5_3.png,4.0,79,,,,,,,,,,,,,,,,,,0.0,21.0,21.0,21.0,1.0,,,,,,,,,,
1.0,1.0,1.29983,,,,,,solar_panel_02s.jpg,1.0,clock_5_4.png,4.0,79,,,,,,,,,,,,,,,,,,0.0,22.0,22.0,22.0,1.0,,,,,,,,,,
0.0,1.0,0.940435,,,,,,lollipop_08s.jpg,0.0,clock_5_5.png,4.0,79,,,,,,,,,,,,,,,,,,0.0,23.0,23.0,23.0,1.0,,,,,,,,,,
0.0,1.0,0.931235,,,,,,hummingbird_05s.jpg,0.0,clock_5_1.png,5.0,79,,,,,,,,,,,,,,,,,,0.0,24.0,24.0,24.0,1.0,,,,,,,,,,
0.0,1.0,1.55289,,,,,,quesadilla_07s.jpg,0.0,clock_5_2.png,5.0,79,,,,,,,,,,,,,,,,,,0.0,25.0,25.0,25.0,1.0,,,,,,,,,,
0.0,1.0,0.510415,,,,,,jet_15s.jpg,0.0,clock_5_3.png,5.0,79,,,,,,,,,,,,,,,,,,0.0,26.0,26.0,26.0,1.0,,,,,,,,,,
1.0,1.0,1.15213,,,,,,quesadilla_07s.jpg,1.0,clock_5_4.png,5.0,79,,,,,,,,,,,,,,,,,,0.0,27.0,27.0,27.0,1.0,,,,,,,,,,
0.0,1.0,0.761825,,,,,,soccer_ball_12s.jpg,0.0,clock_5_5.png,5.0,79,,,,,,,,,,,,,,,,,,0.0,28.0,28.0,28.0,1.0,,,,,,,,,,
0.0,1.0,0.60632,,,,,,tomato_sauce_09s.jpg,0.0,clock_7_1.png,6.0,79,,,,,,,,,,,,,,,,,,0.0,29.0,29.0,29.0,1.0,,,,,,,,,,
0.0,1.0,1.46496,,,,,,tiara_05s.jpg,0.0,clock_7_2.png,6.0,79,,,,,,,,,,,,,,,,,,0.0,30.0,30.0,30.0,1.0,,,,,,,,,,
0.0,1.0,0.85511,,,,,,binder_21s.jpg,0.0,clock_7_3.png,6.0,79,,,,,,,,,,,,,,,,,,0.0,31.0,31.0,31.0,1.0,,,,,,,,,,
0.0,1.0,0.4793,,,,,,printer_09s.jpg,0.0,clock_7_4.png,6.0,79,,,,,,,,,,,,,,,,,,0.0,32.0,32.0,32.0,1.0,,,,,,,,,,
0.0,1.0,0.49613,,,,,,hyena_16s.jpg,0.0,clock_7_5.png,6.0,79,,,,,,,,,,,,,,,,,,0.0,33.0,33.0,33.0,1.0,,,,,,,,,,
0.0,1.0,0.574785,,,,,,cushion_08s.jpg,0.0,clock_7_6.png,6.0,79,,,,,,,,,,,,,,,,,,0.0,34.0,34.0,34.0,1.0,,,,,,,,,,
0.0,1.0,0.591195,,,,,,towel_rack_04s.jpg,0.0,clock_7_7.png,6.0,79,,,,,,,,,,,,,,,,,,0.0,35.0,35.0,35.0,1.0,,,,,,,,,,
,,,,,,,,,0.0,,,79,1.0,0.0,2.162005,,,,,,kettle_08s.jpg,pillbox_04s.jpg,,,,,,,,,,,,,0.0,0.0,0.0,0.0,1.0,,,,,
,,,,,,,,,0.0,,,79,0.0,1.0,2.41381,,,,,,incense_02s.jpg,kangaroo_02s.jpg,,,,,,,,,,,,,0.0,1.0,1.0,1.0,1.0,,,,,
,,,,,,,,,0.0,,,79,0.0,1.0,1.33804,,,,,,pomegranate_04s.jpg,parachute_03s.jpg,,,,,,,,,,,,,0.0,2.0,2.0,2.0,1.0,,,,,
,,,,,,,,,1.0,,,79,1.0,1.0,1.613625,,,,,,treasure_08s.jpg,feather02.jpg,,,,,,,,,,,,,0.0,3.0,3.0,3.0,1.0,,,,,
,,,,,,,,,0.0,,,79,0.0,1.0,1.355705,,,,,,hyena_16s.jpg,tiara_05s.jpg,,,,,,,,,,,,,0.0,4.0,4.0,4.0,1.0,,,,,
,,,,,,,,,1.0,,,79,1.0,1.0,1.11991,,,,,,binder_21s.jpg,cushion_08s.jpg,,,,,,,,,,,,,0.0,5.0,5.0,5.0,1.0,,,,,
