key_resp.keys,key_resp.corr,key_resp.rt,noclock_loop.thisRepN,noclock_loop.thisTrialN,noclock_loop.thisN,noclock_loop.thisIndex,noclock_loop.ran,pictures,answer,clock,segment,participant,key_resp_2.keys,key_resp_2.corr,key_resp_2.rt,noclock_loop2.thisRepN,noclock_loop2.thisTrialN,noclock_loop2.thisN,noclock_loop2.thisIndex,noclock_loop2.ran,item_a,item_b,noclock_condition.thisRepN,noclock_condition.thisTrialN,noclock_condition.thisN,noclock_condition.thisIndex,noclock_condition.ran,present,compare,present_segment.thisRepN,present_segment.thisTrialN,present_segment.thisN,present_segment.thisIndex,present_segment.ran,compare_segment.thisRepN,compare_segment.thisTrialN,compare_segment.thisN,compare_segment.thisIndex,compare_segment.ran,clock_conditions.thisRepN,clock_conditions.thisTrialN,clock_conditions.thisN,clock_conditions.thisIndex,clock_conditions.ran
0.0,1.0,0.987,0.0,0.0,0.0,0.0,1.0,stamp1_11s.jpg,0.0,clockno_up.jpg,1.0,78,,,,,,,,,,,,,,,,,,,,,,,,,,,,,,,,
1.0,1.0,1.149,0.0,1.0,1.0,1.0,1.0,stamp1_11s.jpg,1.0,clockno_default.jpg,1.0,78,,,,,,,,,,,,,,,,,,,,,,,,,,,,,,,,
0.0,1.0,1.056,0.0,2.0,2.0,2.0,1.0,bacon_05s.jpg,0.0,clockno_default.jpg,1.0,78,,,,,,,,,,,,,,,,,,,,,,,,,,,,,,,,
,0.0,,0.0,3.0,3.0,3.0,1.0,owl_15s.jpg,0.0,clockno_default.jpg,1.0,78,,,,,,,,,,,,,,,,,,,,,,,,,,,,,,,,
1.0,1.0,1.051,0.0,4.0,4.0,4.0,1.0,owl_15s.jpg,1.0,clockno_default.jpg,1.0,78,,,,,,,,,,,,,,,,,,,,,,,,,,,,,,,,
0.0,1.0,1.039,0.0,5.0,5.0,5.0,1.0,eiffeltower.jpg,0.0,clockno_up.jpg,2.0,78,,,,,,,,,,,,,,,,,,,,,,,,,,,,,,,,
0.0,1.0,1.274,0.0,6.0,6.0,6.0,1.0,film_03s.jpg,0.0,clockno_default.jpg,2.0,78,,,,,,,,,,,,,,,,,,,,,,,,,,,,,,,,
1.0,1.0,1.118,0.0,7.0,7.0,7.0,1.0,eiffeltower.jpg,1.0,clockno_default.jpg,2.0,78,,,,,,,,,,,,,,,,,,,,,,,,,,,,,,,,
0.0,1.0,0.806,0.0,8.0,8.0,8.0,1.0,abacus_12s.jpg,0.0,clockno_default.jpg,2.0,78,,,,,,,,,,,,,,,,,,,,,,,,,,,,,,,,
1.0,1.0,0.91,0.0,9.0,9.0,9.0,1.0,eiffeltower.jpg,1.0,clockno_default.jpg,2.0,78,,,,,,,,,,,,,,,,,,,,,,,,,,,,,,,,
0.0,1.0,0.74,0.0,10.0,10.0,10.0,1.0,ram_05s.jpg,0.0,clockno_up.jpg,3.0,78,,,,,,,,,,,,,,,,,,,,,,,,,,,,,,,,
0.0,1.0,0.739,0.0,11.0,11.0,11.0,1.0,fox_13s.jpg,0.0,clockno_default.jpg,3.0,78,,,,,,,,,,,,,,,,,,,,,,,,,,,,,,,,
0.0,1.0,0.749,0.0,12.0,12.0,12.0,1.0,triangle_10s.jpg,0.0,clockno_default.jpg,3.0,78,,,,,,,,,,,,,,,,,,,,,,,,,,,,,,,,
0.0,1.0,1.27,0.0,13.0,13.0,13.0,1.0,key_07s.jpg,0.0,clockno_default.jpg,3.0,78,,,,,,,,,,,,,,,,,,,,,,,,,,,,,,,,
0.0,1.0,0.818,0.0,14.0,14.0,14.0,1.0,plaster_cast_13s.jpg,0.0,clockno_default.jpg,3.0,78,,,,,,,,,,,,,,,,,,,,,,,,,,,,,,,,
0.0,1.0,0.928,0.0,15.0,15.0,15.0,1.0,fishhook_06s.jpg,0.0,clockno_default.jpg,3.0,78,,,,,,,,,,,,,,,,,,,,,,,,,,,,,,,,
0.0,1.0,0.716,0.0,16.0,16.0,16.0,1.0,poinsettia_04s.jpg,0.0,clockno_default.jpg,3.0,78,,,,,,,,,,,,,,,,,,,,,,,,,,,,,,,,
0.0,1.0,0.873,0.0,17.0,17.0,17.0,1.0,teacup_07s.jpg,0.0,clockno_up.jpg,4.0,78,,,,,,,,,,,,,,,,,,,,,,,,,,,,,,,,
0.0,1.0,0.73,0.0,18.0,18.0,18.0,1.0,rabbit_03s.jpg,0.0,clockno_default.jpg,4.0,78,,,,,,,,,,,,,,,,,,,,,,,,,,,,,,,,
1.0,1.0,0.93,0.0,19.0,19.0,19.0,1.0,rabbit_03s.jpg,1.0,clockno_default.jpg,4.0,78,,,,,,,,,,,,,,,,,,,,,,,,,,,,,,,,
0.0,1.0,0.573,0.0,20.0,20.0,20.0,1.0,powder_07s.jpg,0.0,clockno_default.jpg,4.0,78,,,,,,,,,,,,,,,,,,,,,,,,,,,,,,,,
0.0,1.0,0.608,0.0,21.0,21.0,21.0,1.0,gas_mask_11s.jpg,0.0,clockno_default.jpg,4.0,78,,,,,,,,,,,,,,,,,,,,,,,,,,,,,,,,
0.0,1.0,0.706,0.0,22.0,22.0,22.0,1.0,loveseat_08s.jpg,0.0,clockno_default.jpg,4.0,78,,,,,,,,,,,,,,,,,,,,,,,,,,,,,,,,
0.0,1.0,0.718,0.0,23.0,23.0,23.0,1.0,pan_02s.jpg,0.0,clockno_up.jpg,5.0,78,,,,,,,,,,,,,,,,,,,,,,,,,,,,,,,,
0.0,1.0,0.867,0.0,24.0,24.0,24.0,1.0,mirror_12s.jpg,0.0,clockno_default.jpg,5.0,78,,,,,,,,,,,,,,,,,,,,,,,,,,,,,,,,
0.0,1.0,0.607,0.0,25.0,25.0,25.0,1.0,puppy_08s.jpg,0.0,clockno_default.jpg,5.0,78,,,,,,,,,,,,,,,,,,,,,,,,,,,,,,,,
0.0,1.0,0.55,0.0,26.0,26.0,26.0,1.0,laser_pointer_02s.jpg,0.0,clockno_default.jpg,5.0,78,,,,,,,,,,,,,,,,,,,,,,,,,,,,,,,,
1.0,1.0,1.403,0.0,27.0,27.0,27.0,1.0,puppy_08s.jpg,1.0,clockno_default.jpg,5.0,78,,,,,,,,,,,,,,,,,,,,,,,,,,,,,,,,
0.0,1.0,0.701,0.0,28.0,28.0,28.0,1.0,tablet_04s.jpg,0.0,clockno_default.jpg,5.0,78,,,,,,,,,,,,,,,,,,,,,,,,,,,,,,,,
0.0,1.0,0.753,0.0,29.0,29.0,29.0,1.0,jewel_01b.jpg,0.0,clockno_default.jpg,5.0,78,,,,,,,,,,,,,,,,,,,,,,,,,,,,,,,,
0.0,1.0,0.764,0.0,30.0,30.0,30.0,1.0,crystal_ball_12s.jpg,0.0,clockno_up.jpg,6.0,78,,,,,,,,,,,,,,,,,,,,,,,,,,,,,,,,
0.0,1.0,0.625,0.0,31.0,31.0,31.0,1.0,mud_13s.jpg,0.0,clockno_default.jpg,6.0,78,,,,,,,,,,,,,,,,,,,,,,,,,,,,,,,,
0.0,1.0,0.723,0.0,32.0,32.0,32.0,1.0,bee_20s.jpg,0.0,clockno_default.jpg,6.0,78,,,,,,,,,,,,,,,,,,,,,,,,,,,,,,,,
1.0,1.0,1.09,0.0,33.0,33.0,33.0,1.0,mud_13s.jpg,1.0,clockno_default.jpg,6.0,78,,,,,,,,,,,,,,,,,,,,,,,,,,,,,,,,
0.0,1.0,0.684,0.0,34.0,34.0,34.0,1.0,glue_01s.jpg,0.0,clockno_default.jpg,6.0,78,,,,,,,,,,,,,,,,,,,,,,,,,,,,,,,,
0.0,1.0,0.517,0.0,35.0,35.0,35.0,1.0,potpourri_03s.jpg,0.0,clockno_default.jpg,6.0,78,,,,,,,,,,,,,,,,,,,,,,,,,,,,,,,,
,,,,,,,,,0.0,,,78,1.0,0.0,4.704,0.0,0.0,0.0,0.0,1.0,mirror_12s.jpg,gas_mask_11s.jpg,,,,,,,,,,,,,,,,,,,,,,
,,,,,,,,,0.0,,,78,1.0,0.0,3.403,0.0,1.0,1.0,1.0,1.0,fox_13s.jpg,abacus_12s.jpg,,,,,,,,,,,,,,,,,,,,,,
,,,,,,,,,1.0,,,78,0.0,0.0,2.108,0.0,2.0,2.0,2.0,1.0,plaster_cast_13s.jpg,teacup_07s.jpg,,,,,,,,,,,,,,,,,,,,,,
,,,,,,,,,1.0,,,78,1.0,1.0,2.518,0.0,3.0,3.0,3.0,1.0,ram_05s.jpg,key_07s.jpg,,,,,,,,,,,,,,,,,,,,,,
,,,,,,,,,0.0,,,78,0.0,1.0,2.125,0.0,4.0,4.0,4.0,1.0,fishhook_06s.jpg,triangle_10s.jpg,,,,,,,,,,,,,,,,,,,,,,
,,,,,,,,,1.0,,,78,0.0,0.0,2.64,0.0,5.0,5.0,5.0,1.0,pan_02s.jpg,laser_pointer_02s.jpg,,,,,,,,,,,,,,,,,,,,,,
,,,,,,,,,,,,78,,,,,,,,,,,0.0,0.0,0.0,0.0,1.0,clockno_present_1_17.xlsx,clockno_compare_task_1_17.xlsx,,,,,,,,,,,,,,,
0.0,1.0,1.055,0.0,0.0,0.0,0.0,1.0,rope_16s.jpg,0.0,clockno_up.jpg,1.0,78,,,,,,,,,,,,,,,,,,,,,,,,,,,,,,,,
0.0,1.0,0.754,0.0,1.0,1.0,1.0,1.0,stopwatch_04s.jpg,0.0,clockno_default.jpg,1.0,78,,,,,,,,,,,,,,,,,,,,,,,,,,,,,,,,
1.0,1.0,1.075,0.0,2.0,2.0,2.0,1.0,rope_16s.jpg,1.0,clockno_default.jpg,1.0,78,,,,,,,,,,,,,,,,,,,,,,,,,,,,,,,,
0.0,1.0,0.734,0.0,3.0,3.0,3.0,1.0,milk_02s.jpg,0.0,clockno_default.jpg,1.0,78,,,,,,,,,,,,,,,,,,,,,,,,,,,,,,,,
1.0,1.0,0.887,0.0,4.0,4.0,4.0,1.0,milk_02s.jpg,1.0,clockno_default.jpg,1.0,78,,,,,,,,,,,,,,,,,,,,,,,,,,,,,,,,
0.0,1.0,0.621,0.0,5.0,5.0,5.0,1.0,bathtub_23s.jpg,0.0,clockno_up.jpg,2.0,78,,,,,,,,,,,,,,,,,,,,,,,,,,,,,,,,
1.0,1.0,2.273,0.0,6.0,6.0,6.0,1.0,bathtub_23s.jpg,1.0,clockno_default.jpg,2.0,78,,,,,,,,,,,,,,,,,,,,,,,,,,,,,,,,
0.0,1.0,0.668,0.0,7.0,7.0,7.0,1.0,playpen_11s.jpg,0.0,clockno_default.jpg,2.0,78,,,,,,,,,,,,,,,,,,,,,,,,,,,,,,,,
0.0,1.0,0.647,0.0,8.0,8.0,8.0,1.0,fork_04s.jpg,0.0,clockno_default.jpg,2.0,78,,,,,,,,,,,,,,,,,,,,,,,,,,,,,,,,
0.0,1.0,1.118,0.0,9.0,9.0,9.0,1.0,milk_02s.jpg,0.0,clockno_default.jpg,2.0,78,,,,,,,,,,,,,,,,,,,,,,,,,,,,,,,,
0.0,1.0,0.918,0.0,10.0,10.0,10.0,1.0,orchid_01b.jpg,0.0,clockno_default.jpg,2.0,78,,,,,,,,,,,,,,,,,,,,,,,,,,,,,,,,
0.0,1.0,0.609,0.0,11.0,11.0,11.0,1.0,tiger_06s.jpg,0.0,clockno_default.jpg,2.0,78,,,,,,,,,,,,,,,,,,,,,,,,,,,,,,,,
0.0,1.0,0.549,0.0,12.0,12.0,12.0,1.0,toad_09s.jpg,0.0,clockno_up.jpg,3.0,78,,,,,,,,,,,,,,,,,,,,,,,,,,,,,,,,
0.0,1.0,0.646,0.0,13.0,13.0,13.0,1.0,keyhole_03s.jpg,0.0,clockno_default.jpg,3.0,78,,,,,,,,,,,,,,,,,,,,,,,,,,,,,,,,
0.0,1.0,0.534,0.0,14.0,14.0,14.0,1.0,roulette_wheel_04s.jpg,0.0,clockno_default.jpg,3.0,78,,,,,,,,,,,,,,,,,,,,,,,,,,,,,,,,
0.0,1.0,0.713,0.0,15.0,15.0,15.0,1.0,lid_10s.jpg,0.0,clockno_default.jpg,3.0,78,,,,,,,,,,,,,,,,,,,,,,,,,,,,,,,,
0.0,1.0,0.724,0.0,16.0,16.0,16.0,1.0,exhaust_pipe_10s.jpg,0.0,clockno_default.jpg,3.0,78,,,,,,,,,,,,,,,,,,,,,,,,,,,,,,,,
0.0,1.0,0.534,0.0,17.0,17.0,17.0,1.0,sugar_cube_11s.jpg,0.0,clockno_default.jpg,3.0,78,,,,,,,,,,,,,,,,,,,,,,,,,,,,,,,,
0.0,1.0,0.741,0.0,18.0,18.0,18.0,1.0,rooster_03s.jpg,0.0,clockno_up.jpg,4.0,78,,,,,,,,,,,,,,,,,,,,,,,,,,,,,,,,
0.0,1.0,0.584,0.0,19.0,19.0,19.0,1.0,fire_alarm_05s.jpg,0.0,clockno_default.jpg,4.0,78,,,,,,,,,,,,,,,,,,,,,,,,,,,,,,,,
0.0,1.0,0.615,0.0,20.0,20.0,20.0,1.0,playpen_11s.jpg,0.0,clockno_default.jpg,4.0,78,,,,,,,,,,,,,,,,,,,,,,,,,,,,,,,,
,0.0,,0.0,21.0,21.0,21.0,1.0,keyhole_03s.jpg,0.0,clockno_default.jpg,4.0,78,,,,,,,,,,,,,,,,,,,,,,,,,,,,,,,,
1.0,1.0,0.889,0.0,22.0,22.0,22.0,1.0,keyhole_03s.jpg,1.0,clockno_default.jpg,4.0,78,,,,,,,,,,,,,,,,,,,,,,,,,,,,,,,,
0.0,1.0,0.756,0.0,23.0,23.0,23.0,1.0,mosquito_12s.jpg,0.0,clockno_default.jpg,4.0,78,,,,,,,,,,,,,,,,,,,,,,,,,,,,,,,,
0.0,1.0,0.662,0.0,24.0,24.0,24.0,1.0,light_switch_02s.jpg,0.0,clockno_default.jpg,4.0,78,,,,,,,,,,,,,,,,,,,,,,,,,,,,,,,,
0.0,1.0,0.608,0.0,25.0,25.0,25.0,1.0,koala_13s.jpg,0.0,clockno_up.jpg,5.0,78,,,,,,,,,,,,,,,,,,,,,,,,,,,,,,,,
0.0,1.0,0.655,0.0,26.0,26.0,26.0,1.0,leash_10s.jpg,0.0,clockno_default.jpg,5.0,78,,,,,,,,,,,,,,,,,,,,,,,,,,,,,,,,
0.0,1.0,0.629,0.0,27.0,27.0,27.0,1.0,sunglasses_11s.jpg,0.0,clockno_default.jpg,5.0,78,,,,,,,,,,,,,,,,,,,,,,,,,,,,,,,,
1.0,1.0,1.347,0.0,28.0,28.0,28.0,1.0,sunglasses_11s.jpg,1.0,clockno_default.jpg,5.0,78,,,,,,,,,,,,,,,,,,,,,,,,,,,,,,,,
0.0,1.0,0.586,0.0,29.0,29.0,29.0,1.0,insole_11s.jpg,0.0,clockno_default.jpg,5.0,78,,,,,,,,,,,,,,,,,,,,,,,,,,,,,,,,
0.0,1.0,0.525,0.0,30.0,30.0,30.0,1.0,juicer2_06s.jpg,0.0,clockno_default.jpg,5.0,78,,,,,,,,,,,,,,,,,,,,,,,,,,,,,,,,
0.0,1.0,0.781,0.0,31.0,31.0,31.0,1.0,stethoscope_01b.jpg,0.0,clockno_up.jpg,6.0,78,,,,,,,,,,,,,,,,,,,,,,,,,,,,,,,,
0.0,1.0,0.581,0.0,32.0,32.0,32.0,1.0,torch_02s.jpg,0.0,clockno_default.jpg,6.0,78,,,,,,,,,,,,,,,,,,,,,,,,,,,,,,,,
0.0,1.0,0.556,0.0,33.0,33.0,33.0,1.0,duck_01b.jpg,0.0,clockno_default.jpg,6.0,78,,,,,,,,,,,,,,,,,,,,,,,,,,,,,,,,
0.0,1.0,0.633,0.0,34.0,34.0,34.0,1.0,jigsaw_puzzle_11s.jpg,0.0,clockno_default.jpg,6.0,78,,,,,,,,,,,,,,,,,,,,,,,,,,,,,,,,
0.0,1.0,0.592,0.0,35.0,35.0,35.0,1.0,mop_08s.jpg,0.0,clockno_default.jpg,6.0,78,,,,,,,,,,,,,,,,,,,,,,,,,,,,,,,,
,,,,,,,,,0.0,,,78,1.0,0.0,2.463,0.0,0.0,0.0,0.0,1.0,fire_alarm_05s.jpg,exhaust_pipe_10s.jpg,,,,,,,,,,,,,,,,,,,,,,
,,,,,,,,,1.0,,,78,0.0,0.0,4.176,0.0,1.0,1.0,1.0,1.0,juicer2_06s.jpg,duck_01b.jpg,,,,,,,,,,,,,,,,,,,,,,
,,,,,,,,,1.0,,,78,0.0,0.0,3.068,0.0,2.0,2.0,2.0,1.0,lid_10s.jpg,rooster_03s.jpg,,,,,,,,,,,,,,,,,,,,,,
,,,,,,,,,1.0,,,78,1.0,1.0,3.355,0.0,3.0,3.0,3.0,1.0,stethoscope_01b.jpg,jigsaw_puzzle_11s.jpg,,,,,,,,,,,,,,,,,,,,,,
,,,,,,,,,0.0,,,78,1.0,0.0,3.133,0.0,4.0,4.0,4.0,1.0,tiger_06s.jpg,fork_04s.jpg,,,,,,,,,,,,,,,,,,,,,,
,,,,,,,,,0.0,,,78,0.0,1.0,3.866,0.0,5.0,5.0,5.0,1.0,sugar_cube_11s.jpg,roulette_wheel_04s.jpg,,,,,,,,,,,,,,,,,,,,,,
,,,,,,,,,,,,78,,,,,,,,,,,0.0,1.0,1.0,1.0,1.0,clockno_present_2_17.xlsx,clockno_compare_task_2_17.xlsx,,,,,,,,,,,,,,,
0.0,1.0,0.736,0.0,0.0,0.0,0.0,1.0,fossil_06s.jpg,0.0,clockno_up.jpg,1.0,78,,,,,,,,,,,,,,,,,,,,,,,,,,,,,,,,
0.0,1.0,0.667,0.0,1.0,1.0,1.0,1.0,ladle_04s.jpg,0.0,clockno_default.jpg,1.0,78,,,,,,,,,,,,,,,,,,,,,,,,,,,,,,,,
0.0,1.0,0.617,0.0,2.0,2.0,2.0,1.0,moth_06n.jpg,0.0,clockno_default.jpg,1.0,78,,,,,,,,,,,,,,,,,,,,,,,,,,,,,,,,
0.0,1.0,0.684,0.0,3.0,3.0,3.0,1.0,magnet_03s.jpg,0.0,clockno_default.jpg,1.0,78,,,,,,,,,,,,,,,,,,,,,,,,,,,,,,,,
1.0,1.0,0.992,0.0,4.0,4.0,4.0,1.0,fossil_06s.jpg,1.0,clockno_default.jpg,1.0,78,,,,,,,,,,,,,,,,,,,,,,,,,,,,,,,,
0.0,1.0,0.686,0.0,5.0,5.0,5.0,1.0,joystick_01b.jpg,0.0,clockno_up.jpg,2.0,78,,,,,,,,,,,,,,,,,,,,,,,,,,,,,,,,
0.0,1.0,0.62,0.0,6.0,6.0,6.0,1.0,giraffe_11s.jpg,0.0,clockno_default.jpg,2.0,78,,,,,,,,,,,,,,,,,,,,,,,,,,,,,,,,
0.0,1.0,0.696,0.0,7.0,7.0,7.0,1.0,money_07s.jpg,0.0,clockno_default.jpg,2.0,78,,,,,,,,,,,,,,,,,,,,,,,,,,,,,,,,
0.0,1.0,0.642,0.0,8.0,8.0,8.0,1.0,lemonade_04s.jpg,0.0,clockno_default.jpg,2.0,78,,,,,,,,,,,,,,,,,,,,,,,,,,,,,,,,
0.0,1.0,0.908,0.0,9.0,9.0,9.0,1.0,fossil_06s.jpg,0.0,clockno_default.jpg,2.0,78,,,,,,,,,,,,,,,,,,,,,,,,,,,,,,,,
0.0,1.0,0.675,0.0,10.0,10.0,10.0,1.0,lectern_08s.jpg,0.0,clockno_default.jpg,2.0,78,,,,,,,,,,,,,,,,,,,,,,,,,,,,,,,,
0.0,1.0,1.013,0.0,11.0,11.0,11.0,1.0,bottle_opener_11s.jpg,0.0,clockno_up.jpg,3.0,78,,,,,,,,,,,,,,,,,,,,,,,,,,,,,,,,
0.0,1.0,0.664,0.0,12.0,12.0,12.0,1.0,pie_08s.jpg,0.0,clockno_default.jpg,3.0,78,,,,,,,,,,,,,,,,,,,,,,,,,,,,,,,,
0.0,1.0,0.469,0.0,13.0,13.0,13.0,1.0,ivy_12s.jpg,0.0,clockno_default.jpg,3.0,78,,,,,,,,,,,,,,,,,,,,,,,,,,,,,,,,
0.0,1.0,1.098,0.0,14.0,14.0,14.0,1.0,fossil_06s.jpg,0.0,clockno_default.jpg,3.0,78,,,,,,,,,,,,,,,,,,,,,,,,,,,,,,,,
0.0,1.0,0.552,0.0,15.0,15.0,15.0,1.0,thermostat_02s.jpg,0.0,clockno_default.jpg,3.0,78,,,,,,,,,,,,,,,,,,,,,,,,,,,,,,,,
0.0,1.0,0.757,0.0,16.0,16.0,16.0,1.0,plunger_08s.jpg,0.0,clockno_default.jpg,3.0,78,,,,,,,,,,,,,,,,,,,,,,,,,,,,,,,,
0.0,1.0,2.071,0.0,17.0,17.0,17.0,1.0,pepper_mill_03s.jpg,0.0,clockno_default.jpg,3.0,78,,,,,,,,,,,,,,,,,,,,,,,,,,,,,,,,
0.0,1.0,0.829,0.0,18.0,18.0,18.0,1.0,penguin_16s.jpg,0.0,clockno_up.jpg,4.0,78,,,,,,,,,,,,,,,,,,,,,,,,,,,,,,,,
0.0,1.0,0.885,0.0,19.0,19.0,19.0,1.0,turtle_08s.jpg,0.0,clockno_default.jpg,4.0,78,,,,,,,,,,,,,,,,,,,,,,,,,,,,,,,,
0.0,1.0,0.874,0.0,20.0,20.0,20.0,1.0,onion_10s.jpg,0.0,clockno_default.jpg,4.0,78,,,,,,,,,,,,,,,,,,,,,,,,,,,,,,,,
0.0,1.0,1.042,0.0,21.0,21.0,21.0,1.0,bottle_opener_11s.jpg,0.0,clockno_default.jpg,4.0,78,,,,,,,,,,,,,,,,,,,,,,,,,,,,,,,,
0.0,1.0,0.535,0.0,22.0,22.0,22.0,1.0,lava_02s.jpg,0.0,clockno_default.jpg,4.0,78,,,,,,,,,,,,,,,,,,,,,,,,,,,,,,,,
0.0,1.0,0.579,0.0,23.0,23.0,23.0,1.0,pillow_03s.jpg,0.0,clockno_default.jpg,4.0,78,,,,,,,,,,,,,,,,,,,,,,,,,,,,,,,,
0.0,1.0,0.531,0.0,24.0,24.0,24.0,1.0,ink_08s.jpg,0.0,clockno_up.jpg,5.0,78,,,,,,,,,,,,,,,,,,,,,,,,,,,,,,,,
0.0,1.0,0.445,0.0,25.0,25.0,25.0,1.0,juicer1_08s.jpg,0.0,clockno_default.jpg,5.0,78,,,,,,,,,,,,,,,,,,,,,,,,,,,,,,,,
0.0,1.0,0.838,0.0,26.0,26.0,26.0,1.0,crate_05s.jpg,0.0,clockno_default.jpg,5.0,78,,,,,,,,,,,,,,,,,,,,,,,,,,,,,,,,
0.0,1.0,0.652,0.0,27.0,27.0,27.0,1.0,gargoyle_08s.jpg,0.0,clockno_default.jpg,5.0,78,,,,,,,,,,,,,,,,,,,,,,,,,,,,,,,,
0.0,1.0,0.701,0.0,28.0,28.0,28.0,1.0,basket_05s.jpg,0.0,clockno_default.jpg,5.0,78,,,,,,,,,,,,,,,,,,,,,,,,,,,,,,,,
1.0,0.0,1.575,0.0,29.0,29.0,29.0,1.0,pepper_mill_03s.jpg,0.0,clockno_default.jpg,5.0,78,,,,,,,,,,,,,,,,,,,,,,,,,,,,,,,,
0.0,1.0,1.356,0.0,30.0,30.0,30.0,1.0,penguin_16s.jpg,0.0,clockno_default.jpg,5.0,78,,,,,,,,,,,,,,,,,,,,,,,,,,,,,,,,
0.0,1.0,0.788,0.0,31.0,31.0,31.0,1.0,quill_09s.jpg,0.0,clockno_up.jpg,6.0,78,,,,,,,,,,,,,,,,,,,,,,,,,,,,,,,,
0.0,1.0,0.659,0.0,32.0,32.0,32.0,1.0,roller_coaster_07s.jpg,0.0,clockno_default.jpg,6.0,78,,,,,,,,,,,,,,,,,,,,,,,,,,,,,,,,
1.0,1.0,1.134,0.0,33.0,33.0,33.0,1.0,roller_coaster_07s.jpg,1.0,clockno_default.jpg,6.0,78,,,,,,,,,,,,,,,,,,,,,,,,,,,,,,,,
0.0,1.0,0.601,0.0,34.0,34.0,34.0,1.0,peppermint_07s.jpg,0.0,clockno_default.jpg,6.0,78,,,,,,,,,,,,,,,,,,,,,,,,,,,,,,,,
1.0,1.0,1.641,0.0,35.0,35.0,35.0,1.0,quill_09s.jpg,1.0,clockno_default.jpg,6.0,78,,,,,,,,,,,,,,,,,,,,,,,,,,,,,,,,
,,,,,,,,,1.0,,,78,0.0,0.0,2.632,0.0,0.0,0.0,0.0,1.0,magnet_03s.jpg,giraffe_11s.jpg,,,,,,,,,,,,,,,,,,,,,,
,,,,,,,,,0.0,,,78,0.0,1.0,1.822,0.0,1.0,1.0,1.0,1.0,joystick_01b.jpg,moth_06n.jpg,,,,,,,,,,,,,,,,,,,,,,
,,,,,,,,,1.0,,,78,0.0,0.0,2.103,0.0,2.0,2.0,2.0,1.0,pillow_03s.jpg,crate_05s.jpg,,,,,,,,,,,,,,,,,,,,,,
,,,,,,,,,1.0,,,78,1.0,1.0,2.589,0.0,3.0,3.0,3.0,1.0,pie_08s.jpg,thermostat_02s.jpg,,,,,,,,,,,,,,,,,,,,,,
,,,,,,,,,0.0,,,78,1.0,0.0,3.093,0.0,4.0,4.0,4.0,1.0,gargoyle_08s.jpg,ink_08s.jpg,,,,,,,,,,,,,,,,,,,,,,
,,,,,,,,,0.0,,,78,0.0,1.0,2.4,0.0,5.0,5.0,5.0,1.0,lectern_08s.jpg,money_07s.jpg,,,,,,,,,,,,,,,,,,,,,,
,,,,,,,,,,,,78,,,,,,,,,,,0.0,2.0,2.0,2.0,1.0,clockno_present_3_17.xlsx,clockno_compare_task_3_17.xlsx,,,,,,,,,,,,,,,
0.0,1.0,0.87,0.0,0.0,0.0,0.0,1.0,luggage_08s.jpg,0.0,clockno_up.jpg,1.0,78,,,,,,,,,,,,,,,,,,,,,,,,,,,,,,,,
0.0,1.0,0.646,0.0,1.0,1.0,1.0,1.0,lamp_08s.jpg,0.0,clockno_default.jpg,1.0,78,,,,,,,,,,,,,,,,,,,,,,,,,,,,,,,,
0.0,1.0,0.524,0.0,2.0,2.0,2.0,1.0,paper_towel_03s.jpg,0.0,clockno_default.jpg,1.0,78,,,,,,,,,,,,,,,,,,,,,,,,,,,,,,,,
0.0,1.0,0.562,0.0,3.0,3.0,3.0,1.0,jalapeno_15s.jpg,0.0,clockno_default.jpg,1.0,78,,,,,,,,,,,,,,,,,,,,,,,,,,,,,,,,
0.0,1.0,0.553,0.0,4.0,4.0,4.0,1.0,sledgehammer_03s.jpg,0.0,clockno_default.jpg,1.0,78,,,,,,,,,,,,,,,,,,,,,,,,,,,,,,,,
0.0,1.0,0.665,0.0,5.0,5.0,5.0,1.0,memory_stick_11s.jpg,0.0,clockno_default.jpg,1.0,78,,,,,,,,,,,,,,,,,,,,,,,,,,,,,,,,
0.0,1.0,0.858,0.0,6.0,6.0,6.0,1.0,thorn_13s.jpg,0.0,clockno_up.jpg,2.0,78,,,,,,,,,,,,,,,,,,,,,,,,,,,,,,,,
1.0,1.0,0.589,0.0,7.0,7.0,7.0,1.0,thorn_13s.jpg,1.0,clockno_default.jpg,2.0,78,,,,,,,,,,,,,,,,,,,,,,,,,,,,,,,,
0.0,1.0,0.505,0.0,8.0,8.0,8.0,1.0,butter_14s.jpg,0.0,clockno_default.jpg,2.0,78,,,,,,,,,,,,,,,,,,,,,,,,,,,,,,,,
0.0,1.0,0.467,0.0,9.0,9.0,9.0,1.0,mug_06s.jpg,0.0,clockno_default.jpg,2.0,78,,,,,,,,,,,,,,,,,,,,,,,,,,,,,,,,
0.0,1.0,0.582,0.0,10.0,10.0,10.0,1.0,gingerbread_man_03s.jpg,0.0,clockno_default.jpg,2.0,78,,,,,,,,,,,,,,,,,,,,,,,,,,,,,,,,
0.0,1.0,0.824,0.0,11.0,11.0,11.0,1.0,paper_bag_12s.jpg,0.0,clockno_up.jpg,3.0,78,,,,,,,,,,,,,,,,,,,,,,,,,,,,,,,,
0.0,1.0,0.417,0.0,12.0,12.0,12.0,1.0,machete_06s.jpg,0.0,clockno_default.jpg,3.0,78,,,,,,,,,,,,,,,,,,,,,,,,,,,,,,,,
0.0,1.0,0.503,0.0,13.0,13.0,13.0,1.0,quad_04s.jpg,0.0,clockno_default.jpg,3.0,78,,,,,,,,,,,,,,,,,,,,,,,,,,,,,,,,
0.0,1.0,0.466,0.0,14.0,14.0,14.0,1.0,amber_04s.jpg,0.0,clockno_default.jpg,3.0,78,,,,,,,,,,,,,,,,,,,,,,,,,,,,,,,,
0.0,1.0,0.666,0.0,15.0,15.0,15.0,1.0,mold2_04s.jpg,0.0,clockno_default.jpg,3.0,78,,,,,,,,,,,,,,,,,,,,,,,,,,,,,,,,
0.0,1.0,0.326,0.0,16.0,16.0,16.0,1.0,plug_08s.jpg,0.0,clockno_default.jpg,3.0,78,,,,,,,,,,,,,,,,,,,,,,,,,,,,,,,,
0.0,1.0,0.615,0.0,17.0,17.0,17.0,1.0,ticktacktoe_08s.jpg,0.0,clockno_up.jpg,4.0,78,,,,,,,,,,,,,,,,,,,,,,,,,,,,,,,,
0.0,1.0,0.48,0.0,18.0,18.0,18.0,1.0,tape_measure_11s.jpg,0.0,clockno_default.jpg,4.0,78,,,,,,,,,,,,,,,,,,,,,,,,,,,,,,,,
0.0,1.0,0.506,0.0,19.0,19.0,19.0,1.0,cape_11s.jpg,0.0,clockno_default.jpg,4.0,78,,,,,,,,,,,,,,,,,,,,,,,,,,,,,,,,
1.0,1.0,0.758,0.0,20.0,20.0,20.0,1.0,tape_measure_11s.jpg,1.0,clockno_default.jpg,4.0,78,,,,,,,,,,,,,,,,,,,,,,,,,,,,,,,,
0.0,1.0,0.493,0.0,21.0,21.0,21.0,1.0,machete_06s.jpg,0.0,clockno_default.jpg,4.0,78,,,,,,,,,,,,,,,,,,,,,,,,,,,,,,,,
0.0,1.0,0.587,0.0,22.0,22.0,22.0,1.0,bowler_hat_10s.jpg,0.0,clockno_default.jpg,4.0,78,,,,,,,,,,,,,,,,,,,,,,,,,,,,,,,,
0.0,1.0,0.531,0.0,23.0,23.0,23.0,1.0,punch2_09s.jpg,0.0,clockno_default.jpg,4.0,78,,,,,,,,,,,,,,,,,,,,,,,,,,,,,,,,
0.0,1.0,0.446,0.0,24.0,24.0,24.0,1.0,blowfish_03s.jpg,0.0,clockno_up.jpg,5.0,78,,,,,,,,,,,,,,,,,,,,,,,,,,,,,,,,
0.0,1.0,0.923,0.0,25.0,25.0,25.0,1.0,plug_08s.jpg,0.0,clockno_default.jpg,5.0,78,,,,,,,,,,,,,,,,,,,,,,,,,,,,,,,,
0.0,1.0,0.605,0.0,26.0,26.0,26.0,1.0,icemaker_10s.jpg,0.0,clockno_default.jpg,5.0,78,,,,,,,,,,,,,,,,,,,,,,,,,,,,,,,,
0.0,1.0,0.453,0.0,27.0,27.0,27.0,1.0,cucumber_07s.jpg,0.0,clockno_default.jpg,5.0,78,,,,,,,,,,,,,,,,,,,,,,,,,,,,,,,,
0.0,1.0,0.479,0.0,28.0,28.0,28.0,1.0,jetski_10s.jpg,0.0,clockno_default.jpg,5.0,78,,,,,,,,,,,,,,,,,,,,,,,,,,,,,,,,
0.0,1.0,0.461,0.0,29.0,29.0,29.0,1.0,glasses01a.jpg,0.0,clockno_default.jpg,5.0,78,,,,,,,,,,,,,,,,,,,,,,,,,,,,,,,,
0.0,1.0,0.474,0.0,30.0,30.0,30.0,1.0,kitten_07s.jpg,0.0,clockno_default.jpg,5.0,78,,,,,,,,,,,,,,,,,,,,,,,,,,,,,,,,
0.0,1.0,0.486,0.0,31.0,31.0,31.0,1.0,taxi_15s.jpg,0.0,clockno_up.jpg,6.0,78,,,,,,,,,,,,,,,,,,,,,,,,,,,,,,,,
0.0,1.0,0.501,0.0,32.0,32.0,32.0,1.0,lifesaver_10s.jpg,0.0,clockno_default.jpg,6.0,78,,,,,,,,,,,,,,,,,,,,,,,,,,,,,,,,
0.0,1.0,0.416,0.0,33.0,33.0,33.0,1.0,power_line_08s.jpg,0.0,clockno_default.jpg,6.0,78,,,,,,,,,,,,,,,,,,,,,,,,,,,,,,,,
0.0,1.0,0.6,0.0,34.0,34.0,34.0,1.0,lasagna_06s.jpg,0.0,clockno_default.jpg,6.0,78,,,,,,,,,,,,,,,,,,,,,,,,,,,,,,,,
1.0,1.0,0.805,0.0,35.0,35.0,35.0,1.0,lifesaver_10s.jpg,1.0,clockno_default.jpg,6.0,78,,,,,,,,,,,,,,,,,,,,,,,,,,,,,,,,
,,,,,,,,,1.0,,,78,1.0,1.0,1.814,0.0,0.0,0.0,0.0,1.0,gingerbread_man_03s.jpg,quad_04s.jpg,,,,,,,,,,,,,,,,,,,,,,
,,,,,,,,,1.0,,,78,1.0,1.0,1.764,0.0,1.0,1.0,1.0,1.0,memory_stick_11s.jpg,butter_14s.jpg,,,,,,,,,,,,,,,,,,,,,,
,,,,,,,,,0.0,,,78,0.0,1.0,5.091,0.0,2.0,2.0,2.0,1.0,ticktacktoe_08s.jpg,amber_04s.jpg,,,,,,,,,,,,,,,,,,,,,,
,,,,,,,,,1.0,,,78,1.0,1.0,1.174,0.0,3.0,3.0,3.0,1.0,luggage_08s.jpg,jalapeno_15s.jpg,,,,,,,,,,,,,,,,,,,,,,
,,,,,,,,,0.0,,,78,1.0,0.0,1.203,0.0,4.0,4.0,4.0,1.0,sledgehammer_03s.jpg,lamp_08s.jpg,,,,,,,,,,,,,,,,,,,,,,
,,,,,,,,,0.0,,,78,1.0,0.0,1.49,0.0,5.0,5.0,5.0,1.0,bowler_hat_10s.jpg,cape_11s.jpg,,,,,,,,,,,,,,,,,,,,,,
,,,,,,,,,,,,78,,,,,,,,,,,0.0,3.0,3.0,3.0,1.0,clockno_present_4_17.xlsx,clockno_compare_task_4_17.xlsx,,,,,,,,,,,,,,,
0.0,1.0,0.984,0.0,0.0,0.0,0.0,1.0,puck_06s.jpg,0.0,clockno_up.jpg,1.0,78,,,,,,,,,,,,,,,,,,,,,,,,,,,,,,,,
1.0,1.0,1.364,0.0,1.0,1.0,1.0,1.0,puck_06s.jpg,1.0,clockno_default.jpg,1.0,78,,,,,,,,,,,,,,,,,,,,,,,,,,,,,,,,
0.0,1.0,0.484,0.0,2.0,2.0,2.0,1.0,mannequin_05s.jpg,0.0,clockno_default.jpg,1.0,78,,,,,,,,,,,,,,,,,,,,,,,,,,,,,,,,
0.0,1.0,0.471,0.0,3.0,3.0,3.0,1.0,rhinoceros_02s.jpg,0.0,clockno_default.jpg,1.0,78,,,,,,,,,,,,,,,,,,,,,,,,,,,,,,,,
1.0,1.0,0.59,0.0,4.0,4.0,4.0,1.0,rhinoceros_02s.jpg,1.0,clockno_default.jpg,1.0,78,,,,,,,,,,,,,,,,,,,,,,,,,,,,,,,,
0.0,1.0,0.587,0.0,5.0,5.0,5.0,1.0,megaphone_03s.jpg,0.0,clockno_default.jpg,1.0,78,,,,,,,,,,,,,,,,,,,,,,,,,,,,,,,,
0.0,1.0,0.535,0.0,6.0,6.0,6.0,1.0,tulip_02s.jpg,0.0,clockno_up.jpg,2.0,78,,,,,,,,,,,,,,,,,,,,,,,,,,,,,,,,
0.0,1.0,0.475,0.0,7.0,7.0,7.0,1.0,smoothie_09s.jpg,0.0,clockno_default.jpg,2.0,78,,,,,,,,,,,,,,,,,,,,,,,,,,,,,,,,
1.0,1.0,0.567,0.0,8.0,8.0,8.0,1.0,smoothie_09s.jpg,1.0,clockno_default.jpg,2.0,78,,,,,,,,,,,,,,,,,,,,,,,,,,,,,,,,
0.0,1.0,0.71,0.0,9.0,9.0,9.0,1.0,mannequin_05s.jpg,0.0,clockno_default.jpg,2.0,78,,,,,,,,,,,,,,,,,,,,,,,,,,,,,,,,
0.0,1.0,0.618,0.0,10.0,10.0,10.0,1.0,mascara_03s.jpg,0.0,clockno_default.jpg,2.0,78,,,,,,,,,,,,,,,,,,,,,,,,,,,,,,,,
0.0,1.0,0.785,0.0,11.0,11.0,11.0,1.0,badge_03s.jpg,0.0,clockno_default.jpg,2.0,78,,,,,,,,,,,,,,,,,,,,,,,,,,,,,,,,
1.0,0.0,1.115,0.0,12.0,12.0,12.0,1.0,megaphone_03s.jpg,0.0,clockno_default.jpg,2.0,78,,,,,,,,,,,,,,,,,,,,,,,,,,,,,,,,
0.0,1.0,0.547,0.0,13.0,13.0,13.0,1.0,latch_15s.jpg,0.0,clockno_up.jpg,3.0,78,,,,,,,,,,,,,,,,,,,,,,,,,,,,,,,,
0.0,1.0,0.565,0.0,14.0,14.0,14.0,1.0,pipe1_10s.jpg,0.0,clockno_default.jpg,3.0,78,,,,,,,,,,,,,,,,,,,,,,,,,,,,,,,,
0.0,1.0,0.483,0.0,15.0,15.0,15.0,1.0,fire_pit_10s.jpg,0.0,clockno_default.jpg,3.0,78,,,,,,,,,,,,,,,,,,,,,,,,,,,,,,,,
0.0,1.0,0.405,0.0,16.0,16.0,16.0,1.0,pump_11s.jpg,0.0,clockno_default.jpg,3.0,78,,,,,,,,,,,,,,,,,,,,,,,,,,,,,,,,
0.0,1.0,0.597,0.0,17.0,17.0,17.0,1.0,puppet_01b.jpg,0.0,clockno_default.jpg,3.0,78,,,,,,,,,,,,,,,,,,,,,,,,,,,,,,,,
0.0,1.0,1.514,0.0,18.0,18.0,18.0,1.0,rhinoceros_02s.jpg,0.0,clockno_default.jpg,3.0,78,,,,,,,,,,,,,,,,,,,,,,,,,,,,,,,,
0.0,1.0,0.557,0.0,19.0,19.0,19.0,1.0,camcorder_10s.jpg,0.0,clockno_default.jpg,3.0,78,,,,,,,,,,,,,,,,,,,,,,,,,,,,,,,,
0.0,1.0,0.563,0.0,20.0,20.0,20.0,1.0,blender_08s.jpg,0.0,clockno_up.jpg,4.0,78,,,,,,,,,,,,,,,,,,,,,,,,,,,,,,,,
0.0,1.0,0.556,0.0,21.0,21.0,21.0,1.0,scooter.jpg,0.0,clockno_default.jpg,4.0,78,,,,,,,,,,,,,,,,,,,,,,,,,,,,,,,,
0.0,1.0,0.521,0.0,22.0,22.0,22.0,1.0,rocking_horse_03s.jpg,0.0,clockno_default.jpg,4.0,78,,,,,,,,,,,,,,,,,,,,,,,,,,,,,,,,
1.0,1.0,0.787,0.0,23.0,23.0,23.0,1.0,blender_08s.jpg,1.0,clockno_default.jpg,4.0,78,,,,,,,,,,,,,,,,,,,,,,,,,,,,,,,,
0.0,1.0,0.521,0.0,24.0,24.0,24.0,1.0,kayak_08s.jpg,0.0,clockno_default.jpg,4.0,78,,,,,,,,,,,,,,,,,,,,,,,,,,,,,,,,
0.0,1.0,0.564,0.0,25.0,25.0,25.0,1.0,radio_09s.jpg,0.0,clockno_up.jpg,5.0,78,,,,,,,,,,,,,,,,,,,,,,,,,,,,,,,,
1.0,1.0,1.167,0.0,26.0,26.0,26.0,1.0,radio_09s.jpg,1.0,clockno_default.jpg,5.0,78,,,,,,,,,,,,,,,,,,,,,,,,,,,,,,,,
0.0,1.0,0.624,0.0,27.0,27.0,27.0,1.0,coffee_filter_10s.jpg,0.0,clockno_default.jpg,5.0,78,,,,,,,,,,,,,,,,,,,,,,,,,,,,,,,,
0.0,1.0,0.659,0.0,28.0,28.0,28.0,1.0,toilet_07s.jpg,0.0,clockno_default.jpg,5.0,78,,,,,,,,,,,,,,,,,,,,,,,,,,,,,,,,
0.0,1.0,0.672,0.0,29.0,29.0,29.0,1.0,mitten_10s.jpg,0.0,clockno_default.jpg,5.0,78,,,,,,,,,,,,,,,,,,,,,,,,,,,,,,,,
0.0,1.0,0.818,0.0,30.0,30.0,30.0,1.0,dynamite_01b.jpg,0.0,clockno_up.jpg,6.0,78,,,,,,,,,,,,,,,,,,,,,,,,,,,,,,,,
0.0,1.0,0.763,0.0,31.0,31.0,31.0,1.0,mask_09s.jpg,0.0,clockno_default.jpg,6.0,78,,,,,,,,,,,,,,,,,,,,,,,,,,,,,,,,
1.0,0.0,1.409,0.0,32.0,32.0,32.0,1.0,scooter.jpg,0.0,clockno_default.jpg,6.0,78,,,,,,,,,,,,,,,,,,,,,,,,,,,,,,,,
0.0,1.0,0.507,0.0,33.0,33.0,33.0,1.0,tambourine_06s.jpg,0.0,clockno_default.jpg,6.0,78,,,,,,,,,,,,,,,,,,,,,,,,,,,,,,,,
0.0,1.0,0.635,0.0,34.0,34.0,34.0,1.0,top_hat_11s.jpg,0.0,clockno_default.jpg,6.0,78,,,,,,,,,,,,,,,,,,,,,,,,,,,,,,,,
0.0,1.0,0.573,0.0,35.0,35.0,35.0,1.0,outlet_10s.jpg,0.0,clockno_default.jpg,6.0,78,,,,,,,,,,,,,,,,,,,,,,,,,,,,,,,,
,,,,,,,,,1.0,,,78,1.0,1.0,2.974,0.0,0.0,0.0,0.0,1.0,kayak_08s.jpg,coffee_filter_10s.jpg,,,,,,,,,,,,,,,,,,,,,,
,,,,,,,,,0.0,,,78,0.0,1.0,2.398,0.0,1.0,1.0,1.0,1.0,latch_15s.jpg,mascara_03s.jpg,,,,,,,,,,,,,,,,,,,,,,
,,,,,,,,,0.0,,,78,0.0,1.0,1.709,0.0,2.0,2.0,2.0,1.0,pipe1_10s.jpg,badge_03s.jpg,,,,,,,,,,,,,,,,,,,,,,
,,,,,,,,,1.0,,,78,1.0,1.0,2.326,0.0,3.0,3.0,3.0,1.0,pump_11s.jpg,camcorder_10s.jpg,,,,,,,,,,,,,,,,,,,,,,
,,,,,,,,,0.0,,,78,1.0,0.0,1.951,0.0,4.0,4.0,4.0,1.0,tambourine_06s.jpg,dynamite_01b.jpg,,,,,,,,,,,,,,,,,,,,,,
,,,,,,,,,0.0,,,78,1.0,0.0,1.741,0.0,5.0,5.0,5.0,1.0,top_hat_11s.jpg,mask_09s.jpg,,,,,,,,,,,,,,,,,,,,,,
,,,,,,,,,,,,78,,,,,,,,,,,0.0,4.0,4.0,4.0,1.0,clockno_present_5_17.xlsx,clockno_compare_task_5_17.xlsx,,,,,,,,,,,,,,,
0.0,1.0,0.749,0.0,0.0,0.0,0.0,1.0,refrigerator_07s.jpg,0.0,clockno_up.jpg,1.0,78,,,,,,,,,,,,,,,,,,,,,,,,,,,,,,,,
0.0,1.0,0.657,0.0,1.0,1.0,1.0,1.0,blazer_02s.jpg,0.0,clockno_default.jpg,1.0,78,,,,,,,,,,,,,,,,,,,,,,,,,,,,,,,,
0.0,1.0,0.524,0.0,2.0,2.0,2.0,1.0,rudder_02s.jpg,0.0,clockno_default.jpg,1.0,78,,,,,,,,,,,,,,,,,,,,,,,,,,,,,,,,
0.0,1.0,0.514,0.0,3.0,3.0,3.0,1.0,comic_book_02s.jpg,0.0,clockno_default.jpg,1.0,78,,,,,,,,,,,,,,,,,,,,,,,,,,,,,,,,
1.0,1.0,1.135,0.0,4.0,4.0,4.0,1.0,comic_book_02s.jpg,1.0,clockno_default.jpg,1.0,78,,,,,,,,,,,,,,,,,,,,,,,,,,,,,,,,
0.0,1.0,0.757,0.0,5.0,5.0,5.0,1.0,trident_07s.jpg,0.0,clockno_up.jpg,2.0,78,,,,,,,,,,,,,,,,,,,,,,,,,,,,,,,,
0.0,1.0,0.455,0.0,6.0,6.0,6.0,1.0,candy_cane_06s.jpg,0.0,clockno_default.jpg,2.0,78,,,,,,,,,,,,,,,,,,,,,,,,,,,,,,,,
0.0,1.0,0.673,0.0,7.0,7.0,7.0,1.0,quilt_03s.jpg,0.0,clockno_default.jpg,2.0,78,,,,,,,,,,,,,,,,,,,,,,,,,,,,,,,,
0.0,1.0,0.768,0.0,8.0,8.0,8.0,1.0,teapot_03s.jpg,0.0,clockno_default.jpg,2.0,78,,,,,,,,,,,,,,,,,,,,,,,,,,,,,,,,
1.0,1.0,0.739,0.0,9.0,9.0,9.0,1.0,teapot_03s.jpg,1.0,clockno_default.jpg,2.0,78,,,,,,,,,,,,,,,,,,,,,,,,,,,,,,,,
0.0,1.0,0.532,0.0,10.0,10.0,10.0,1.0,telephone_pole_05s.jpg,0.0,clockno_default.jpg,2.0,78,,,,,,,,,,,,,,,,,,,,,,,,,,,,,,,,
0.0,1.0,0.67,0.0,11.0,11.0,11.0,1.0,rolling_pin_02s.jpg,0.0,clockno_default.jpg,2.0,78,,,,,,,,,,,,,,,,,,,,,,,,,,,,,,,,
0.0,1.0,0.595,0.0,12.0,12.0,12.0,1.0,tuba_12s.jpg,0.0,clockno_up.jpg,3.0,78,,,,,,,,,,,,,,,,,,,,,,,,,,,,,,,,
0.0,1.0,0.535,0.0,13.0,13.0,13.0,1.0,smokingpipe.jpg,0.0,clockno_default.jpg,3.0,78,,,,,,,,,,,,,,,,,,,,,,,,,,,,,,,,
0.0,1.0,0.73,0.0,14.0,14.0,14.0,1.0,panda_02s.jpg,0.0,clockno_default.jpg,3.0,78,,,,,,,,,,,,,,,,,,,,,,,,,,,,,,,,
0.0,1.0,0.635,0.0,15.0,15.0,15.0,1.0,sleeping_bag_12s.jpg,0.0,clockno_default.jpg,3.0,78,,,,,,,,,,,,,,,,,,,,,,,,,,,,,,,,
0.0,1.0,0.571,0.0,16.0,16.0,16.0,1.0,stamp2_08s.jpg,0.0,clockno_default.jpg,3.0,78,,,,,,,,,,,,,,,,,,,,,,,,,,,,,,,,
0.0,1.0,0.857,0.0,17.0,17.0,17.0,1.0,kite_04s.jpg,0.0,clockno_up.jpg,4.0,78,,,,,,,,,,,,,,,,,,,,,,,,,,,,,,,,
0.0,1.0,0.62,0.0,18.0,18.0,18.0,1.0,rocking_chair_05s.jpg,0.0,clockno_default.jpg,4.0,78,,,,,,,,,,,,,,,,,,,,,,,,,,,,,,,,
0.0,1.0,0.629,0.0,19.0,19.0,19.0,1.0,marker_05s.jpg,0.0,clockno_default.jpg,4.0,78,,,,,,,,,,,,,,,,,,,,,,,,,,,,,,,,
0.0,1.0,0.604,0.0,20.0,20.0,20.0,1.0,chip_04s.jpg,0.0,clockno_default.jpg,4.0,78,,,,,,,,,,,,,,,,,,,,,,,,,,,,,,,,
0.0,1.0,0.651,0.0,21.0,21.0,21.0,1.0,pretzel_09s.jpg,0.0,clockno_default.jpg,4.0,78,,,,,,,,,,,,,,,,,,,,,,,,,,,,,,,,
0.0,1.0,0.656,0.0,22.0,22.0,22.0,1.0,swimming_pool_17s.jpg,0.0,clockno_default.jpg,4.0,78,,,,,,,,,,,,,,,,,,,,,,,,,,,,,,,,
0.0,1.0,0.791,0.0,23.0,23.0,23.0,1.0,spacesuit_02s.jpg,0.0,clockno_up.jpg,5.0,78,,,,,,,,,,,,,,,,,,,,,,,,,,,,,,,,
0.0,1.0,0.655,0.0,24.0,24.0,24.0,1.0,letter_opener_03s.jpg,0.0,clockno_default.jpg,5.0,78,,,,,,,,,,,,,,,,,,,,,,,,,,,,,,,,
0.0,1.0,0.515,0.0,25.0,25.0,25.0,1.0,cotton_candy_01b.jpg,0.0,clockno_default.jpg,5.0,78,,,,,,,,,,,,,,,,,,,,,,,,,,,,,,,,
0.0,1.0,0.548,0.0,26.0,26.0,26.0,1.0,spatula04.jpg,0.0,clockno_default.jpg,5.0,78,,,,,,,,,,,,,,,,,,,,,,,,,,,,,,,,
1.0,1.0,0.617,0.0,27.0,27.0,27.0,1.0,cotton_candy_01b.jpg,1.0,clockno_default.jpg,5.0,78,,,,,,,,,,,,,,,,,,,,,,,,,,,,,,,,
0.0,1.0,0.625,0.0,28.0,28.0,28.0,1.0,boomerang_06s.jpg,0.0,clockno_default.jpg,5.0,78,,,,,,,,,,,,,,,,,,,,,,,,,,,,,,,,
0.0,1.0,0.536,0.0,29.0,29.0,29.0,1.0,sea_urchin_09s.jpg,0.0,clockno_up.jpg,6.0,78,,,,,,,,,,,,,,,,,,,,,,,,,,,,,,,,
0.0,1.0,0.54,0.0,30.0,30.0,30.0,1.0,slingshot_07s.jpg,0.0,clockno_default.jpg,6.0,78,,,,,,,,,,,,,,,,,,,,,,,,,,,,,,,,
0.0,1.0,0.499,0.0,31.0,31.0,31.0,1.0,toilet_paper_12s.jpg,0.0,clockno_default.jpg,6.0,78,,,,,,,,,,,,,,,,,,,,,,,,,,,,,,,,
0.0,1.0,0.48,0.0,32.0,32.0,32.0,1.0,polaroid_05s.jpg,0.0,clockno_default.jpg,6.0,78,,,,,,,,,,,,,,,,,,,,,,,,,,,,,,,,
0.0,1.0,0.514,0.0,33.0,33.0,33.0,1.0,cardinal_07s.jpg,0.0,clockno_default.jpg,6.0,78,,,,,,,,,,,,,,,,,,,,,,,,,,,,,,,,
0.0,1.0,0.683,0.0,34.0,34.0,34.0,1.0,eggshell_14s.jpg,0.0,clockno_default.jpg,6.0,78,,,,,,,,,,,,,,,,,,,,,,,,,,,,,,,,
0.0,1.0,0.766,0.0,35.0,35.0,35.0,1.0,puddle_02s.jpg,0.0,clockno_default.jpg,6.0,78,,,,,,,,,,,,,,,,,,,,,,,,,,,,,,,,
,,,,,,,,,0.0,,,78,0.0,1.0,2.602,0.0,0.0,0.0,0.0,1.0,trident_07s.jpg,rudder_02s.jpg,,,,,,,,,,,,,,,,,,,,,,
,,,,,,,,,0.0,,,78,1.0,0.0,1.806,0.0,1.0,1.0,1.0,1.0,panda_02s.jpg,rolling_pin_02s.jpg,,,,,,,,,,,,,,,,,,,,,,
,,,,,,,,,1.0,,,78,1.0,1.0,1.607,0.0,2.0,2.0,2.0,1.0,pretzel_09s.jpg,letter_opener_03s.jpg,,,,,,,,,,,,,,,,,,,,,,
,,,,,,,,,1.0,,,78,0.0,0.0,2.435,0.0,3.0,3.0,3.0,1.0,slingshot_07s.jpg,cardinal_07s.jpg,,,,,,,,,,,,,,,,,,,,,,
,,,,,,,,,1.0,,,78,1.0,1.0,2.493,0.0,4.0,4.0,4.0,1.0,polaroid_05s.jpg,puddle_02s.jpg,,,,,,,,,,,,,,,,,,,,,,
,,,,,,,,,0.0,,,78,0.0,1.0,2.468,0.0,5.0,5.0,5.0,1.0,telephone_pole_05s.jpg,quilt_03s.jpg,,,,,,,,,,,,,,,,,,,,,,
0.0,1.0,0.963,,,,,,racehorse_03s.jpg,0.0,clock_6_1.png,1.0,78,,,,,,,,,,,,,,,,,,0.0,0.0,0.0,0.0,1.0,,,,,,,,,,
1.0,1.0,0.952,,,,,,racehorse_03s.jpg,1.0,clock_6_2.png,1.0,78,,,,,,,,,,,,,,,,,,0.0,1.0,1.0,1.0,1.0,,,,,,,,,,
0.0,1.0,0.68,,,,,,ravioli_08s.jpg,0.0,clock_6_3.png,1.0,78,,,,,,,,,,,,,,,,,,0.0,2.0,2.0,2.0,1.0,,,,,,,,,,
1.0,1.0,0.932,,,,,,racehorse_03s.jpg,1.0,clock_6_4.png,1.0,78,,,,,,,,,,,,,,,,,,0.0,3.0,3.0,3.0,1.0,,,,,,,,,,
0.0,1.0,0.57,,,,,,swing_set_15s.jpg,0.0,clock_6_5.png,1.0,78,,,,,,,,,,,,,,,,,,0.0,4.0,4.0,4.0,1.0,,,,,,,,,,
0.0,0.0,0.619,,,,,,swing_set_15s.jpg,1.0,clock_6_6.png,1.0,78,,,,,,,,,,,,,,,,,,0.0,5.0,5.0,5.0,1.0,,,,,,,,,,
0.0,1.0,0.785,,,,,,ruby_15s.jpg,0.0,clock_7_1.png,2.0,78,,,,,,,,,,,,,,,,,,0.0,6.0,6.0,6.0,1.0,,,,,,,,,,
0.0,1.0,0.58,,,,,,loom_05s.jpg,0.0,clock_7_2.png,2.0,78,,,,,,,,,,,,,,,,,,0.0,7.0,7.0,7.0,1.0,,,,,,,,,,
0.0,1.0,0.609,,,,,,pocket_watch_16s.jpg,0.0,clock_7_3.png,2.0,78,,,,,,,,,,,,,,,,,,0.0,8.0,8.0,8.0,1.0,,,,,,,,,,
0.0,1.0,0.652,,,,,,peanut_butter_08s.jpg,0.0,clock_7_4.png,2.0,78,,,,,,,,,,,,,,,,,,0.0,9.0,9.0,9.0,1.0,,,,,,,,,,
0.0,1.0,0.784,,,,,,piano_13n.jpg,0.0,clock_7_5.png,2.0,78,,,,,,,,,,,,,,,,,,0.0,10.0,10.0,10.0,1.0,,,,,,,,,,
0.0,1.0,0.744,,,,,,emerald_02s.jpg,0.0,clock_7_6.png,2.0,78,,,,,,,,,,,,,,,,,,0.0,11.0,11.0,11.0,1.0,,,,,,,,,,
0.0,1.0,0.913,,,,,,swing_set_15s.jpg,0.0,clock_7_7.png,2.0,78,,,,,,,,,,,,,,,,,,0.0,12.0,12.0,12.0,1.0,,,,,,,,,,
0.0,1.0,0.545,,,,,,gong_02s.jpg,0.0,clock_5_1.png,3.0,78,,,,,,,,,,,,,,,,,,0.0,13.0,13.0,13.0,1.0,,,,,,,,,,
0.0,1.0,0.596,,,,,,turf_03s.jpg,0.0,clock_5_2.png,3.0,78,,,,,,,,,,,,,,,,,,0.0,14.0,14.0,14.0,1.0,,,,,,,,,,
0.0,1.0,0.532,,,,,,tie_03s.jpg,0.0,clock_5_3.png,3.0,78,,,,,,,,,,,,,,,,,,0.0,15.0,15.0,15.0,1.0,,,,,,,,,,
0.0,1.0,0.522,,,,,,swan_11s.jpg,0.0,clock_5_4.png,3.0,78,,,,,,,,,,,,,,,,,,0.0,16.0,16.0,16.0,1.0,,,,,,,,,,
0.0,1.0,0.555,,,,,,margarita_03s.jpg,0.0,clock_5_5.png,3.0,78,,,,,,,,,,,,,,,,,,0.0,17.0,17.0,17.0,1.0,,,,,,,,,,
0.0,1.0,0.497,,,,,,denture_03s.jpg,0.0,clock_5_1.png,4.0,78,,,,,,,,,,,,,,,,,,0.0,18.0,18.0,18.0,1.0,,,,,,,,,,
0.0,1.0,0.793,,,,,,pincushion_10s.jpg,0.0,clock_5_2.png,4.0,78,,,,,,,,,,,,,,,,,,0.0,19.0,19.0,19.0,1.0,,,,,,,,,,
0.0,1.0,0.62,,,,,,lavender_10s.jpg,0.0,clock_5_3.png,4.0,78,,,,,,,,,,,,,,,,,,0.0,20.0,20.0,20.0,1.0,,,,,,,,,,
0.0,1.0,0.62,,,,,,treadmill_06s.jpg,0.0,clock_5_4.png,4.0,78,,,,,,,,,,,,,,,,,,0.0,21.0,21.0,21.0,1.0,,,,,,,,,,
0.0,1.0,0.514,,,,,,seagull_01b.jpg,0.0,clock_5_5.png,4.0,78,,,,,,,,,,,,,,,,,,0.0,22.0,22.0,22.0,1.0,,,,,,,,,,
0.0,1.0,0.488,,,,,,omelet_07s.jpg,0.0,clock_6_1.png,5.0,78,,,,,,,,,,,,,,,,,,0.0,23.0,23.0,23.0,1.0,,,,,,,,,,
0.0,1.0,0.65,,,,,,pear_02s.jpg,0.0,clock_6_2.png,5.0,78,,,,,,,,,,,,,,,,,,0.0,24.0,24.0,24.0,1.0,,,,,,,,,,
0.0,1.0,0.434,,,,,,knitting_needle_04s.jpg,0.0,clock_6_3.png,5.0,78,,,,,,,,,,,,,,,,,,0.0,25.0,25.0,25.0,1.0,,,,,,,,,,
0.0,1.0,0.442,,,,,,loom_05s.jpg,0.0,clock_6_4.png,5.0,78,,,,,,,,,,,,,,,,,,0.0,26.0,26.0,26.0,1.0,,,,,,,,,,
1.0,1.0,2.256,,,,,,omelet_07s.jpg,1.0,clock_6_5.png,5.0,78,,,,,,,,,,,,,,,,,,0.0,27.0,27.0,27.0,1.0,,,,,,,,,,
0.0,1.0,1.719,,,,,,beaker_01b.jpg,0.0,clock_6_6.png,5.0,78,,,,,,,,,,,,,,,,,,0.0,28.0,28.0,28.0,1.0,,,,,,,,,,
0.0,1.0,0.733,,,,,,ginger_09s.jpg,0.0,clock_7_1.png,6.0,78,,,,,,,,,,,,,,,,,,0.0,29.0,29.0,29.0,1.0,,,,,,,,,,
0.0,1.0,0.679,,,,,,kilt_18s.jpg,0.0,clock_7_2.png,6.0,78,,,,,,,,,,,,,,,,,,0.0,30.0,30.0,30.0,1.0,,,,,,,,,,
1.0,1.0,0.942,,,,,,ginger_09s.jpg,1.0,clock_7_3.png,6.0,78,,,,,,,,,,,,,,,,,,0.0,31.0,31.0,31.0,1.0,,,,,,,,,,
1.0,1.0,0.931,,,,,,ginger_09s.jpg,1.0,clock_7_4.png,6.0,78,,,,,,,,,,,,,,,,,,0.0,32.0,32.0,32.0,1.0,,,,,,,,,,
1.0,1.0,1.009,,,,,,kilt_18s.jpg,1.0,clock_7_5.png,6.0,78,,,,,,,,,,,,,,,,,,0.0,33.0,33.0,33.0,1.0,,,,,,,,,,
0.0,1.0,0.663,,,,,,raccoon_02s.jpg,0.0,clock_7_6.png,6.0,78,,,,,,,,,,,,,,,,,,0.0,34.0,34.0,34.0,1.0,,,,,,,,,,
0.0,1.0,0.723,,,,,,mixer_12s.jpg,0.0,clock_7_7.png,6.0,78,,,,,,,,,,,,,,,,,,0.0,35.0,35.0,35.0,1.0,,,,,,,,,,
,,,,,,,,,1.0,,,78,0.0,0.0,3.086,,,,,,piano_13n.jpg,gong_02s.jpg,,,,,,,,,,,,,0.0,0.0,0.0,0.0,1.0,,,,,
,,,,,,,,,1.0,,,78,1.0,1.0,1.7,,,,,,tie_03s.jpg,denture_03s.jpg,,,,,,,,,,,,,0.0,1.0,1.0,1.0,1.0,,,,,
,,,,,,,,,1.0,,,78,1.0,1.0,2.626,,,,,,margarita_03s.jpg,lavender_10s.jpg,,,,,,,,,,,,,0.0,2.0,2.0,2.0,1.0,,,,,
,,,,,,,,,1.0,,,78,1.0,1.0,2.275,,,,,,ruby_15s.jpg,peanut_butter_08s.jpg,,,,,,,,,,,,,0.0,3.0,3.0,3.0,1.0,,,,,
,,,,,,,,,1.0,,,78,0.0,0.0,2.141,,,,,,pocket_watch_16s.jpg,emerald_02s.jpg,,,,,,,,,,,,,0.0,4.0,4.0,4.0,1.0,,,,,
,,,,,,,,,1.0,,,78,1.0,1.0,2.092,,,,,,knitting_needle_04s.jpg,beaker_01b.jpg,,,,,,,,,,,,,0.0,5.0,5.0,5.0,1.0,,,,,
,,,,,,,,,,,,78,,,,,,,,,,,,,,,,clock_present_1_17.xlsx,clock_compare_task_1_17.xlsx,,,,,,,,,,,0.0,0.0,0.0,0.0,1.0
0.0,1.0,1.687,,,,,,polar_bear_02s.jpg,0.0,clock_6_1.png,1.0,78,,,,,,,,,,,,,,,,,,0.0,0.0,0.0,0.0,1.0,,,,,,,,,,
0.0,1.0,0.529,,,,,,radiator_05s.jpg,0.0,clock_6_2.png,1.0,78,,,,,,,,,,,,,,,,,,0.0,1.0,1.0,1.0,1.0,,,,,,,,,,
0.0,1.0,0.45,,,,,,target_11s.jpg,0.0,clock_6_3.png,1.0,78,,,,,,,,,,,,,,,,,,0.0,2.0,2.0,2.0,1.0,,,,,,,,,,
1.0,1.0,0.586,,,,,,polar_bear_02s.jpg,1.0,clock_6_4.png,1.0,78,,,,,,,,,,,,,,,,,,0.0,3.0,3.0,3.0,1.0,,,,,,,,,,
0.0,1.0,0.608,,,,,,sundae_08s.jpg,0.0,clock_6_5.png,1.0,78,,,,,,,,,,,,,,,,,,0.0,4.0,4.0,4.0,1.0,,,,,,,,,,
1.0,1.0,0.687,,,,,,polar_bear_02s.jpg,1.0,clock_6_6.png,1.0,78,,,,,,,,,,,,,,,,,,0.0,5.0,5.0,5.0,1.0,,,,,,,,,,
0.0,1.0,0.55,,,,,,flask_04s.jpg,0.0,clock_7_1.png,2.0,78,,,,,,,,,,,,,,,,,,0.0,6.0,6.0,6.0,1.0,,,,,,,,,,
,0.0,,,,,,,flask_04s.jpg,1.0,clock_7_2.png,2.0,78,,,,,,,,,,,,,,,,,,0.0,7.0,7.0,7.0,1.0,,,,,,,,,,
0.0,1.0,0.516,,,,,,rake_06s.jpg,0.0,clock_7_3.png,2.0,78,,,,,,,,,,,,,,,,,,0.0,8.0,8.0,8.0,1.0,,,,,,,,,,
1.0,1.0,0.701,,,,,,flask_04s.jpg,1.0,clock_7_4.png,2.0,78,,,,,,,,,,,,,,,,,,0.0,9.0,9.0,9.0,1.0,,,,,,,,,,
0.0,1.0,0.823,,,,,,cap_05s.jpg,0.0,clock_7_5.png,2.0,78,,,,,,,,,,,,,,,,,,0.0,10.0,10.0,10.0,1.0,,,,,,,,,,
1.0,1.0,0.705,,,,,,rake_06s.jpg,1.0,clock_7_6.png,2.0,78,,,,,,,,,,,,,,,,,,0.0,11.0,11.0,11.0,1.0,,,,,,,,,,
0.0,1.0,0.671,,,,,,marshmallow_08s.jpg,0.0,clock_7_7.png,2.0,78,,,,,,,,,,,,,,,,,,0.0,12.0,12.0,12.0,1.0,,,,,,,,,,
0.0,1.0,0.513,,,,,,padlock_07s.jpg,0.0,clock_5_1.png,3.0,78,,,,,,,,,,,,,,,,,,0.0,13.0,13.0,13.0,1.0,,,,,,,,,,
0.0,1.0,1.017,,,,,,rake_06s.jpg,0.0,clock_5_2.png,3.0,78,,,,,,,,,,,,,,,,,,0.0,14.0,14.0,14.0,1.0,,,,,,,,,,
0.0,1.0,0.609,,,,,,hydrant_10s.jpg,0.0,clock_5_3.png,3.0,78,,,,,,,,,,,,,,,,,,0.0,15.0,15.0,15.0,1.0,,,,,,,,,,
0.0,1.0,0.583,,,,,,petri_dish_12s.jpg,0.0,clock_5_4.png,3.0,78,,,,,,,,,,,,,,,,,,0.0,16.0,16.0,16.0,1.0,,,,,,,,,,
0.0,1.0,0.494,,,,,,soda_fountain_03s.jpg,0.0,clock_5_5.png,3.0,78,,,,,,,,,,,,,,,,,,0.0,17.0,17.0,17.0,1.0,,,,,,,,,,
0.0,1.0,0.437,,,,,,boar_10s.jpg,0.0,clock_6_1.png,4.0,78,,,,,,,,,,,,,,,,,,0.0,18.0,18.0,18.0,1.0,,,,,,,,,,
0.0,1.0,0.466,,,,,,rocket_02s.jpg,0.0,clock_6_2.png,4.0,78,,,,,,,,,,,,,,,,,,0.0,19.0,19.0,19.0,1.0,,,,,,,,,,
0.0,1.0,0.679,,,,,,knot_01b.jpg,0.0,clock_6_3.png,4.0,78,,,,,,,,,,,,,,,,,,0.0,20.0,20.0,20.0,1.0,,,,,,,,,,
0.0,1.0,0.531,,,,,,tab_09s.jpg,0.0,clock_6_4.png,4.0,78,,,,,,,,,,,,,,,,,,0.0,21.0,21.0,21.0,1.0,,,,,,,,,,
0.0,1.0,0.821,,,,,,lipstick_02s.jpg,0.0,clock_6_5.png,4.0,78,,,,,,,,,,,,,,,,,,0.0,22.0,22.0,22.0,1.0,,,,,,,,,,
0.0,1.0,0.496,,,,,,jersey_02s.jpg,0.0,clock_6_6.png,4.0,78,,,,,,,,,,,,,,,,,,0.0,23.0,23.0,23.0,1.0,,,,,,,,,,
0.0,1.0,0.314,,,,,,ostrich_06s.jpg,0.0,clock_5_1.png,5.0,78,,,,,,,,,,,,,,,,,,0.0,24.0,24.0,24.0,1.0,,,,,,,,,,
0.0,1.0,0.44,,,,,,jukebox_03n.jpg,0.0,clock_5_2.png,5.0,78,,,,,,,,,,,,,,,,,,0.0,25.0,25.0,25.0,1.0,,,,,,,,,,
0.0,1.0,0.566,,,,,,umbrella_15s.jpg,0.0,clock_5_3.png,5.0,78,,,,,,,,,,,,,,,,,,0.0,26.0,26.0,26.0,1.0,,,,,,,,,,
0.0,1.0,0.706,,,,,,machine_gun_09s.jpg,0.0,clock_5_4.png,5.0,78,,,,,,,,,,,,,,,,,,0.0,27.0,27.0,27.0,1.0,,,,,,,,,,
0.0,1.0,0.752,,,,,,inhaler_01b.jpg,0.0,clock_5_5.png,5.0,78,,,,,,,,,,,,,,,,,,0.0,28.0,28.0,28.0,1.0,,,,,,,,,,
0.0,1.0,0.526,,,,,,screwdriver02a.jpg,0.0,clock_7_1.png,6.0,78,,,,,,,,,,,,,,,,,,0.0,29.0,29.0,29.0,1.0,,,,,,,,,,
0.0,1.0,0.553,,,,,,thread_08s.jpg,0.0,clock_7_2.png,6.0,78,,,,,,,,,,,,,,,,,,0.0,30.0,30.0,30.0,1.0,,,,,,,,,,
0.0,1.0,0.521,,,,,,ironing_board_07s.jpg,0.0,clock_7_3.png,6.0,78,,,,,,,,,,,,,,,,,,0.0,31.0,31.0,31.0,1.0,,,,,,,,,,
0.0,1.0,0.747,,,,,,lip_gloss_06s.jpg,0.0,clock_7_4.png,6.0,78,,,,,,,,,,,,,,,,,,0.0,32.0,32.0,32.0,1.0,,,,,,,,,,
0.0,1.0,0.755,,,,,,espresso_01b.jpg,0.0,clock_7_5.png,6.0,78,,,,,,,,,,,,,,,,,,0.0,33.0,33.0,33.0,1.0,,,,,,,,,,
0.0,1.0,0.688,,,,,,checkbook_11s.jpg,0.0,clock_7_6.png,6.0,78,,,,,,,,,,,,,,,,,,0.0,34.0,34.0,34.0,1.0,,,,,,,,,,
0.0,1.0,0.523,,,,,,rollerskate_03s.jpg,0.0,clock_7_7.png,6.0,78,,,,,,,,,,,,,,,,,,0.0,35.0,35.0,35.0,1.0,,,,,,,,,,
,,,,,,,,,0.0,,,78,1.0,0.0,1.275,,,,,,hydrant_10s.jpg,marshmallow_08s.jpg,,,,,,,,,,,,,0.0,0.0,0.0,0.0,1.0,,,,,
,,,,,,,,,1.0,,,78,0.0,0.0,3.866,,,,,,cap_05s.jpg,padlock_07s.jpg,,,,,,,,,,,,,0.0,1.0,1.0,1.0,1.0,,,,,
,,,,,,,,,0.0,,,78,0.0,1.0,3.322,,,,,,knot_01b.jpg,soda_fountain_03s.jpg,,,,,,,,,,,,,0.0,2.0,2.0,2.0,1.0,,,,,
,,,,,,,,,0.0,,,78,0.0,1.0,3.96,,,,,,sundae_08s.jpg,radiator_05s.jpg,,,,,,,,,,,,,0.0,3.0,3.0,3.0,1.0,,,,,
,,,,,,,,,0.0,,,78,1.0,0.0,4.159,,,,,,rollerskate_03s.jpg,lip_gloss_06s.jpg,,,,,,,,,,,,,0.0,4.0,4.0,4.0,1.0,,,,,
,,,,,,,,,0.0,,,78,0.0,1.0,3.236,,,,,,espresso_01b.jpg,thread_08s.jpg,,,,,,,,,,,,,0.0,5.0,5.0,5.0,1.0,,,,,
,,,,,,,,,,,,78,,,,,,,,,,,,,,,,clock_present_2_17.xlsx,clock_compare_task_2_17.xlsx,,,,,,,,,,,0.0,1.0,1.0,1.0,1.0
0.0,1.0,0.846,,,,,,tripod_01b.jpg,0.0,clock_6_1.png,1.0,78,,,,,,,,,,,,,,,,,,0.0,0.0,0.0,0.0,1.0,,,,,,,,,,
0.0,1.0,0.495,,,,,,doily_13s.jpg,0.0,clock_6_2.png,1.0,78,,,,,,,,,,,,,,,,,,0.0,1.0,1.0,1.0,1.0,,,,,,,,,,
0.0,1.0,0.546,,,,,,sushi_08s.jpg,0.0,clock_6_3.png,1.0,78,,,,,,,,,,,,,,,,,,0.0,2.0,2.0,2.0,1.0,,,,,,,,,,
0.0,1.0,0.603,,,,,,bubble_01b.jpg,0.0,clock_6_4.png,1.0,78,,,,,,,,,,,,,,,,,,0.0,3.0,3.0,3.0,1.0,,,,,,,,,,
0.0,1.0,0.534,,,,,,swordfish_05s.jpg,0.0,clock_6_5.png,1.0,78,,,,,,,,,,,,,,,,,,0.0,4.0,4.0,4.0,1.0,,,,,,,,,,
0.0,1.0,0.663,,,,,,keyboard_05s.jpg,0.0,clock_6_6.png,1.0,78,,,,,,,,,,,,,,,,,,0.0,5.0,5.0,5.0,1.0,,,,,,,,,,
0.0,1.0,0.366,,,,,,perfume_06s.jpg,0.0,clock_7_1.png,2.0,78,,,,,,,,,,,,,,,,,,0.0,6.0,6.0,6.0,1.0,,,,,,,,,,
0.0,1.0,0.458,,,,,,mango_09s.jpg,0.0,clock_7_2.png,2.0,78,,,,,,,,,,,,,,,,,,0.0,7.0,7.0,7.0,1.0,,,,,,,,,,
0.0,1.0,0.565,,,,,,tube_top_03s.jpg,0.0,clock_7_3.png,2.0,78,,,,,,,,,,,,,,,,,,0.0,8.0,8.0,8.0,1.0,,,,,,,,,,
0.0,1.0,0.658,,,,,,birdcage_08s.jpg,0.0,clock_7_4.png,2.0,78,,,,,,,,,,,,,,,,,,0.0,9.0,9.0,9.0,1.0,,,,,,,,,,
0.0,1.0,0.552,,,,,,typewriter_11s.jpg,0.0,clock_7_5.png,2.0,78,,,,,,,,,,,,,,,,,,0.0,10.0,10.0,10.0,1.0,,,,,,,,,,
0.0,1.0,0.649,,,,,,rug_09s.jpg,0.0,clock_7_6.png,2.0,78,,,,,,,,,,,,,,,,,,0.0,11.0,11.0,11.0,1.0,,,,,,,,,,
1.0,0.0,1.999,,,,,,sushi_08s.jpg,0.0,clock_7_7.png,2.0,78,,,,,,,,,,,,,,,,,,0.0,12.0,12.0,12.0,1.0,,,,,,,,,,
0.0,1.0,0.583,,,,,,puffin_19s.jpg,0.0,clock_6_1.png,3.0,78,,,,,,,,,,,,,,,,,,0.0,13.0,13.0,13.0,1.0,,,,,,,,,,
0.0,1.0,0.573,,,,,,orange_12s.jpg,0.0,clock_6_2.png,3.0,78,,,,,,,,,,,,,,,,,,0.0,14.0,14.0,14.0,1.0,,,,,,,,,,
0.0,1.0,0.534,,,,,,iron_13s.jpg,0.0,clock_6_3.png,3.0,78,,,,,,,,,,,,,,,,,,0.0,15.0,15.0,15.0,1.0,,,,,,,,,,
1.0,1.0,1.059,,,,,,puffin_19s.jpg,1.0,clock_6_4.png,3.0,78,,,,,,,,,,,,,,,,,,0.0,16.0,16.0,16.0,1.0,,,,,,,,,,
0.0,1.0,0.602,,,,,,punch1_10s.jpg,0.0,clock_6_5.png,3.0,78,,,,,,,,,,,,,,,,,,0.0,17.0,17.0,17.0,1.0,,,,,,,,,,
0.0,1.0,0.574,,,,,,penlight_12s.jpg,0.0,clock_6_6.png,3.0,78,,,,,,,,,,,,,,,,,,0.0,18.0,18.0,18.0,1.0,,,,,,,,,,
0.0,1.0,0.338,,,,,,crossbow_10s.jpg,0.0,clock_5_1.png,4.0,78,,,,,,,,,,,,,,,,,,0.0,19.0,19.0,19.0,1.0,,,,,,,,,,
0.0,1.0,0.478,,,,,,diving_board_07s.jpg,0.0,clock_5_2.png,4.0,78,,,,,,,,,,,,,,,,,,0.0,20.0,20.0,20.0,1.0,,,,,,,,,,
1.0,1.0,1.156,,,,,,diving_board_07s.jpg,1.0,clock_5_3.png,4.0,78,,,,,,,,,,,,,,,,,,0.0,21.0,21.0,21.0,1.0,,,,,,,,,,
0.0,1.0,0.578,,,,,,eyedropper_12s.jpg,0.0,clock_5_4.png,4.0,78,,,,,,,,,,,,,,,,,,0.0,22.0,22.0,22.0,1.0,,,,,,,,,,
0.0,1.0,0.517,,,,,,reindeer_08s.jpg,0.0,clock_5_5.png,4.0,78,,,,,,,,,,,,,,,,,,0.0,23.0,23.0,23.0,1.0,,,,,,,,,,
0.0,1.0,0.463,,,,,,stapler_01b.jpg,0.0,clock_7_1.png,5.0,78,,,,,,,,,,,,,,,,,,0.0,24.0,24.0,24.0,1.0,,,,,,,,,,
1.0,1.0,0.931,,,,,,stapler_01b.jpg,1.0,clock_7_2.png,5.0,78,,,,,,,,,,,,,,,,,,0.0,25.0,25.0,25.0,1.0,,,,,,,,,,
1.0,1.0,0.891,,,,,,stapler_01b.jpg,1.0,clock_7_3.png,5.0,78,,,,,,,,,,,,,,,,,,0.0,26.0,26.0,26.0,1.0,,,,,,,,,,
0.0,1.0,0.504,,,,,,fountain_pen_06s.jpg,0.0,clock_7_4.png,5.0,78,,,,,,,,,,,,,,,,,,0.0,27.0,27.0,27.0,1.0,,,,,,,,,,
0.0,1.0,0.524,,,,,,toaster_03s.jpg,0.0,clock_7_5.png,5.0,78,,,,,,,,,,,,,,,,,,0.0,28.0,28.0,28.0,1.0,,,,,,,,,,
0.0,1.0,0.765,,,,,,sushi_08s.jpg,0.0,clock_7_6.png,5.0,78,,,,,,,,,,,,,,,,,,0.0,29.0,29.0,29.0,1.0,,,,,,,,,,
0.0,1.0,0.588,,,,,,chocolate_01b.jpg,0.0,clock_7_7.png,5.0,78,,,,,,,,,,,,,,,,,,0.0,30.0,30.0,30.0,1.0,,,,,,,,,,
0.0,1.0,0.419,,,,,,microwave_02s.jpg,0.0,clock_5_1.png,6.0,78,,,,,,,,,,,,,,,,,,0.0,31.0,31.0,31.0,1.0,,,,,,,,,,
0.0,1.0,0.413,,,,,,champagne_18s.jpg,0.0,clock_5_2.png,6.0,78,,,,,,,,,,,,,,,,,,0.0,32.0,32.0,32.0,1.0,,,,,,,,,,
0.0,1.0,0.411,,,,,,phone_01b.jpg,0.0,clock_5_3.png,6.0,78,,,,,,,,,,,,,,,,,,0.0,33.0,33.0,33.0,1.0,,,,,,,,,,
1.0,1.0,1.005,,,,,,phone_01b.jpg,1.0,clock_5_4.png,6.0,78,,,,,,,,,,,,,,,,,,0.0,34.0,34.0,34.0,1.0,,,,,,,,,,
0.0,1.0,0.425,,,,,,perfume_06s.jpg,0.0,clock_5_5.png,6.0,78,,,,,,,,,,,,,,,,,,0.0,35.0,35.0,35.0,1.0,,,,,,,,,,
,,,,,,,,,0.0,,,78,1.0,0.0,1.957,,,,,,microwave_02s.jpg,toaster_03s.jpg,,,,,,,,,,,,,0.0,0.0,0.0,0.0,1.0,,,,,
,,,,,,,,,1.0,,,78,0.0,0.0,1.619,,,,,,keyboard_05s.jpg,tube_top_03s.jpg,,,,,,,,,,,,,0.0,1.0,1.0,1.0,1.0,,,,,
,,,,,,,,,0.0,,,78,1.0,0.0,1.256,,,,,,mango_09s.jpg,swordfish_05s.jpg,,,,,,,,,,,,,0.0,2.0,2.0,2.0,1.0,,,,,
,,,,,,,,,1.0,,,78,1.0,1.0,1.56,,,,,,tripod_01b.jpg,bubble_01b.jpg,,,,,,,,,,,,,0.0,3.0,3.0,3.0,1.0,,,,,
,,,,,,,,,1.0,,,78,1.0,1.0,1.923,,,,,,iron_13s.jpg,penlight_12s.jpg,,,,,,,,,,,,,0.0,4.0,4.0,4.0,1.0,,,,,
,,,,,,,,,0.0,,,78,1.0,0.0,1.645,,,,,,eyedropper_12s.jpg,crossbow_10s.jpg,,,,,,,,,,,,,0.0,5.0,5.0,5.0,1.0,,,,,
,,,,,,,,,,,,78,,,,,,,,,,,,,,,,clock_present_3_17.xlsx,clock_compare_task_3_17.xlsx,,,,,,,,,,,0.0,2.0,2.0,2.0,1.0
0.0,1.0,0.636,,,,,,aluminum_foil_08s.jpg,0.0,clock_5_1.png,1.0,78,,,,,,,,,,,,,,,,,,0.0,0.0,0.0,0.0,1.0,,,,,,,,,,
0.0,1.0,0.718,,,,,,kimono_13s.jpg,0.0,clock_5_2.png,1.0,78,,,,,,,,,,,,,,,,,,0.0,1.0,1.0,1.0,1.0,,,,,,,,,,
1.0,1.0,1.007,,,,,,aluminum_foil_08s.jpg,1.0,clock_5_3.png,1.0,78,,,,,,,,,,,,,,,,,,0.0,2.0,2.0,2.0,1.0,,,,,,,,,,
0.0,1.0,0.612,,,,,,air_pump_05s.jpg,0.0,clock_5_4.png,1.0,78,,,,,,,,,,,,,,,,,,0.0,3.0,3.0,3.0,1.0,,,,,,,,,,
0.0,1.0,0.762,,,,,,submarine_11n.jpg,0.0,clock_5_5.png,1.0,78,,,,,,,,,,,,,,,,,,0.0,4.0,4.0,4.0,1.0,,,,,,,,,,
0.0,1.0,0.286,,,,,,totem_pole_05s.jpg,0.0,clock_5_1.png,2.0,78,,,,,,,,,,,,,,,,,,0.0,5.0,5.0,5.0,1.0,,,,,,,,,,
0.0,1.0,0.489,,,,,,mattress_01s.jpg,0.0,clock_5_2.png,2.0,78,,,,,,,,,,,,,,,,,,0.0,6.0,6.0,6.0,1.0,,,,,,,,,,
1.0,1.0,0.709,,,,,,totem_pole_05s.jpg,1.0,clock_5_3.png,2.0,78,,,,,,,,,,,,,,,,,,0.0,7.0,7.0,7.0,1.0,,,,,,,,,,
0.0,1.0,0.596,,,,,,stump_02s.jpg,0.0,clock_5_4.png,2.0,78,,,,,,,,,,,,,,,,,,0.0,8.0,8.0,8.0,1.0,,,,,,,,,,
1.0,1.0,0.955,,,,,,mattress_01s.jpg,1.0,clock_5_5.png,2.0,78,,,,,,,,,,,,,,,,,,0.0,9.0,9.0,9.0,1.0,,,,,,,,,,
0.0,1.0,0.796,,,,,,pantyhose_07s.jpg,0.0,clock_7_1.png,3.0,78,,,,,,,,,,,,,,,,,,0.0,10.0,10.0,10.0,1.0,,,,,,,,,,
0.0,1.0,0.621,,,,,,olive_05s.jpg,0.0,clock_7_2.png,3.0,78,,,,,,,,,,,,,,,,,,0.0,11.0,11.0,11.0,1.0,,,,,,,,,,
0.0,1.0,0.31,,,,,,ukulele_02s.jpg,0.0,clock_7_3.png,3.0,78,,,,,,,,,,,,,,,,,,0.0,12.0,12.0,12.0,1.0,,,,,,,,,,
0.0,1.0,0.539,,,,,,dashboard_02s.jpg,0.0,clock_7_4.png,3.0,78,,,,,,,,,,,,,,,,,,0.0,13.0,13.0,13.0,1.0,,,,,,,,,,
0.0,1.0,0.747,,,,,,toy_04s.jpg,0.0,clock_7_5.png,3.0,78,,,,,,,,,,,,,,,,,,0.0,14.0,14.0,14.0,1.0,,,,,,,,,,
1.0,1.0,0.835,,,,,,ukulele_02s.jpg,1.0,clock_7_6.png,3.0,78,,,,,,,,,,,,,,,,,,0.0,15.0,15.0,15.0,1.0,,,,,,,,,,
0.0,1.0,0.613,,,,,,squirrel_02s.jpg,0.0,clock_7_7.png,3.0,78,,,,,,,,,,,,,,,,,,0.0,16.0,16.0,16.0,1.0,,,,,,,,,,
0.0,1.0,0.472,,,,,,tweezers_03s.jpg,0.0,clock_6_1.png,4.0,78,,,,,,,,,,,,,,,,,,0.0,17.0,17.0,17.0,1.0,,,,,,,,,,
0.0,1.0,0.47,,,,,,lantern_04s.jpg,0.0,clock_6_2.png,4.0,78,,,,,,,,,,,,,,,,,,0.0,18.0,18.0,18.0,1.0,,,,,,,,,,
0.0,1.0,0.549,,,,,,lab_coat_11s.jpg,0.0,clock_6_3.png,4.0,78,,,,,,,,,,,,,,,,,,0.0,19.0,19.0,19.0,1.0,,,,,,,,,,
0.0,1.0,0.415,,,,,,bank_06s.jpg,0.0,clock_6_4.png,4.0,78,,,,,,,,,,,,,,,,,,0.0,20.0,20.0,20.0,1.0,,,,,,,,,,
1.0,1.0,0.616,,,,,,bank_06s.jpg,1.0,clock_6_5.png,4.0,78,,,,,,,,,,,,,,,,,,0.0,21.0,21.0,21.0,1.0,,,,,,,,,,
0.0,1.0,0.436,,,,,,medal_04s.jpg,0.0,clock_6_6.png,4.0,78,,,,,,,,,,,,,,,,,,0.0,22.0,22.0,22.0,1.0,,,,,,,,,,
0.0,1.0,0.523,,,,,,prism_10s.jpg,0.0,clock_6_1.png,5.0,78,,,,,,,,,,,,,,,,,,0.0,23.0,23.0,23.0,1.0,,,,,,,,,,
0.0,1.0,0.408,,,,,,rock_08s.jpg,0.0,clock_6_2.png,5.0,78,,,,,,,,,,,,,,,,,,0.0,24.0,24.0,24.0,1.0,,,,,,,,,,
1.0,1.0,0.524,,,,,,rock_08s.jpg,1.0,clock_6_3.png,5.0,78,,,,,,,,,,,,,,,,,,0.0,25.0,25.0,25.0,1.0,,,,,,,,,,
1.0,1.0,1.103,,,,,,prism_10s.jpg,1.0,clock_6_4.png,5.0,78,,,,,,,,,,,,,,,,,,0.0,26.0,26.0,26.0,1.0,,,,,,,,,,
0.0,1.0,0.919,,,,,,aluminum_foil_08s.jpg,0.0,clock_6_5.png,5.0,78,,,,,,,,,,,,,,,,,,0.0,27.0,27.0,27.0,1.0,,,,,,,,,,
0.0,1.0,0.665,,,,,,coconut_08s.jpg,0.0,clock_6_6.png,5.0,78,,,,,,,,,,,,,,,,,,0.0,28.0,28.0,28.0,1.0,,,,,,,,,,
0.0,1.0,0.491,,,,,,mousetrap_15n.jpg,0.0,clock_7_1.png,6.0,78,,,,,,,,,,,,,,,,,,0.0,29.0,29.0,29.0,1.0,,,,,,,,,,
0.0,1.0,0.487,,,,,,pinwheel_06s.jpg,0.0,clock_7_2.png,6.0,78,,,,,,,,,,,,,,,,,,0.0,30.0,30.0,30.0,1.0,,,,,,,,,,
0.0,1.0,0.342,,,,,,compass_10n.jpg,0.0,clock_7_3.png,6.0,78,,,,,,,,,,,,,,,,,,0.0,31.0,31.0,31.0,1.0,,,,,,,,,,
0.0,1.0,0.439,,,,,,fireworks_18s.jpg,0.0,clock_7_4.png,6.0,78,,,,,,,,,,,,,,,,,,0.0,32.0,32.0,32.0,1.0,,,,,,,,,,
0.0,1.0,0.466,,,,,,muffin_12n.jpg,0.0,clock_7_5.png,6.0,78,,,,,,,,,,,,,,,,,,0.0,33.0,33.0,33.0,1.0,,,,,,,,,,
1.0,1.0,0.765,,,,,,compass_10n.jpg,1.0,clock_7_6.png,6.0,78,,,,,,,,,,,,,,,,,,0.0,34.0,34.0,34.0,1.0,,,,,,,,,,
0.0,1.0,0.839,,,,,,totem_pole_05s.jpg,0.0,clock_7_7.png,6.0,78,,,,,,,,,,,,,,,,,,0.0,35.0,35.0,35.0,1.0,,,,,,,,,,
,,,,,,,,,1.0,,,78,0.0,0.0,1.738,,,,,,stump_02s.jpg,olive_05s.jpg,,,,,,,,,,,,,0.0,0.0,0.0,0.0,1.0,,,,,
,,,,,,,,,0.0,,,78,1.0,0.0,3.603,,,,,,tweezers_03s.jpg,toy_04s.jpg,,,,,,,,,,,,,0.0,1.0,1.0,1.0,1.0,,,,,
,,,,,,,,,0.0,,,78,1.0,0.0,3.084,,,,,,lab_coat_11s.jpg,squirrel_02s.jpg,,,,,,,,,,,,,0.0,2.0,2.0,2.0,1.0,,,,,
,,,,,,,,,1.0,,,78,1.0,1.0,3.203,,,,,,kimono_13s.jpg,submarine_11n.jpg,,,,,,,,,,,,,0.0,3.0,3.0,3.0,1.0,,,,,
,,,,,,,,,1.0,,,78,0.0,0.0,3.399,,,,,,pantyhose_07s.jpg,dashboard_02s.jpg,,,,,,,,,,,,,0.0,4.0,4.0,4.0,1.0,,,,,
,,,,,,,,,0.0,,,78,0.0,1.0,4.772,,,,,,fireworks_18s.jpg,mousetrap_15n.jpg,,,,,,,,,,,,,0.0,5.0,5.0,5.0,1.0,,,,,
,,,,,,,,,,,,78,,,,,,,,,,,,,,,,clock_present_4_17.xlsx,clock_compare_task_4_17.xlsx,,,,,,,,,,,0.0,3.0,3.0,3.0,1.0
0.0,1.0,0.756,,,,,,timer_03s.jpg,0.0,clock_6_1.png,1.0,78,,,,,,,,,,,,,,,,,,0.0,0.0,0.0,0.0,1.0,,,,,,,,,,
0.0,1.0,0.45,,,,,,cobra_05s.jpg,0.0,clock_6_2.png,1.0,78,,,,,,,,,,,,,,,,,,0.0,1.0,1.0,1.0,1.0,,,,,,,,,,
1.0,0.0,1.181,,,,,,lizard_10n.jpg,0.0,clock_6_3.png,1.0,78,,,,,,,,,,,,,,,,,,0.0,2.0,2.0,2.0,1.0,,,,,,,,,,
1.0,1.0,0.875,,,,,,cobra_05s.jpg,1.0,clock_6_4.png,1.0,78,,,,,,,,,,,,,,,,,,0.0,3.0,3.0,3.0,1.0,,,,,,,,,,
0.0,1.0,1.597,,,,,,teabag_12s.jpg,0.0,clock_6_5.png,1.0,78,,,,,,,,,,,,,,,,,,0.0,4.0,4.0,4.0,1.0,,,,,,,,,,
1.0,1.0,2.473,,,,,,timer_03s.jpg,1.0,clock_6_6.png,1.0,78,,,,,,,,,,,,,,,,,,0.0,5.0,5.0,5.0,1.0,,,,,,,,,,
0.0,1.0,1.506,,,,,,tile_08s.jpg,0.0,clock_6_1.png,2.0,78,,,,,,,,,,,,,,,,,,0.0,6.0,6.0,6.0,1.0,,,,,,,,,,
0.0,1.0,1.174,,,,,,undershirt_02s.jpg,0.0,clock_6_2.png,2.0,78,,,,,,,,,,,,,,,,,,0.0,7.0,7.0,7.0,1.0,,,,,,,,,,
0.0,1.0,0.763,,,,,,surfboard_11s.jpg,0.0,clock_6_3.png,2.0,78,,,,,,,,,,,,,,,,,,0.0,8.0,8.0,8.0,1.0,,,,,,,,,,
0.0,1.0,0.899,,,,,,chime_12s.jpg,0.0,clock_6_4.png,2.0,78,,,,,,,,,,,,,,,,,,0.0,9.0,9.0,9.0,1.0,,,,,,,,,,
1.0,1.0,1.472,,,,,,surfboard_11s.jpg,1.0,clock_6_5.png,2.0,78,,,,,,,,,,,,,,,,,,0.0,10.0,10.0,10.0,1.0,,,,,,,,,,
0.0,1.0,1.222,,,,,,crab_16s.jpg,0.0,clock_6_6.png,2.0,78,,,,,,,,,,,,,,,,,,0.0,11.0,11.0,11.0,1.0,,,,,,,,,,
0.0,1.0,0.74,,,,,,frog_09s.jpg,0.0,clock_5_1.png,3.0,78,,,,,,,,,,,,,,,,,,0.0,12.0,12.0,12.0,1.0,,,,,,,,,,
0.0,1.0,1.307,,,,,,squirt_gun_03s.jpg,0.0,clock_5_2.png,3.0,78,,,,,,,,,,,,,,,,,,0.0,13.0,13.0,13.0,1.0,,,,,,,,,,
0.0,1.0,1.955,,,,,,undershirt_02s.jpg,0.0,clock_5_3.png,3.0,78,,,,,,,,,,,,,,,,,,0.0,14.0,14.0,14.0,1.0,,,,,,,,,,
0.0,1.0,1.335,,,,,,razor_blade_01b.jpg,0.0,clock_5_4.png,3.0,78,,,,,,,,,,,,,,,,,,0.0,15.0,15.0,15.0,1.0,,,,,,,,,,
0.0,1.0,1.484,,,,,,teabag_12s.jpg,0.0,clock_5_5.png,3.0,78,,,,,,,,,,,,,,,,,,0.0,16.0,16.0,16.0,1.0,,,,,,,,,,
0.0,1.0,1.314,,,,,,fur_coat_11s.jpg,0.0,clock_7_1.png,4.0,78,,,,,,,,,,,,,,,,,,0.0,17.0,17.0,17.0,1.0,,,,,,,,,,
1.0,1.0,1.118,,,,,,fur_coat_11s.jpg,1.0,clock_7_2.png,4.0,78,,,,,,,,,,,,,,,,,,0.0,18.0,18.0,18.0,1.0,,,,,,,,,,
0.0,1.0,0.789,,,,,,mushroom_10n.jpg,0.0,clock_7_3.png,4.0,78,,,,,,,,,,,,,,,,,,0.0,19.0,19.0,19.0,1.0,,,,,,,,,,
0.0,1.0,0.599,,,,,,snowman_02s.jpg,0.0,clock_7_4.png,4.0,78,,,,,,,,,,,,,,,,,,0.0,20.0,20.0,20.0,1.0,,,,,,,,,,
1.0,1.0,1.138,,,,,,snowman_02s.jpg,1.0,clock_7_5.png,4.0,78,,,,,,,,,,,,,,,,,,0.0,21.0,21.0,21.0,1.0,,,,,,,,,,
0.0,1.0,0.714,,,,,,safety_pin_02s.jpg,0.0,clock_7_6.png,4.0,78,,,,,,,,,,,,,,,,,,0.0,22.0,22.0,22.0,1.0,,,,,,,,,,
0.0,1.0,1.227,,,,,,surfboard_11s.jpg,0.0,clock_7_7.png,4.0,78,,,,,,,,,,,,,,,,,,0.0,23.0,23.0,23.0,1.0,,,,,,,,,,
0.0,1.0,1.365,,,,,,oil_02s.jpg,0.0,clock_7_1.png,5.0,78,,,,,,,,,,,,,,,,,,0.0,24.0,24.0,24.0,1.0,,,,,,,,,,
0.0,1.0,1.365,,,,,,ice-cream_cone_06s.jpg,0.0,clock_7_2.png,5.0,78,,,,,,,,,,,,,,,,,,0.0,25.0,25.0,25.0,1.0,,,,,,,,,,
0.0,1.0,0.691,,,,,,tennis_ball_06s.jpg,0.0,clock_7_3.png,5.0,78,,,,,,,,,,,,,,,,,,0.0,26.0,26.0,26.0,1.0,,,,,,,,,,
0.0,1.0,0.846,,,,,,pencil_sharpener_09n.jpg,0.0,clock_7_4.png,5.0,78,,,,,,,,,,,,,,,,,,0.0,27.0,27.0,27.0,1.0,,,,,,,,,,
0.0,1.0,0.637,,,,,,pumpkin_03s.jpg,0.0,clock_7_5.png,5.0,78,,,,,,,,,,,,,,,,,,0.0,28.0,28.0,28.0,1.0,,,,,,,,,,
0.0,1.0,0.631,,,,,,ring_03s.jpg,0.0,clock_7_6.png,5.0,78,,,,,,,,,,,,,,,,,,0.0,29.0,29.0,29.0,1.0,,,,,,,,,,
0.0,1.0,0.481,,,,,,police_car_01s.jpg,0.0,clock_7_7.png,5.0,78,,,,,,,,,,,,,,,,,,0.0,30.0,30.0,30.0,1.0,,,,,,,,,,
0.0,1.0,0.943,,,,,,bolo_tie_08s.jpg,0.0,clock_5_1.png,6.0,78,,,,,,,,,,,,,,,,,,0.0,31.0,31.0,31.0,1.0,,,,,,,,,,
0.0,1.0,0.89,,,,,,jelly_bean_06s.jpg,0.0,clock_5_2.png,6.0,78,,,,,,,,,,,,,,,,,,0.0,32.0,32.0,32.0,1.0,,,,,,,,,,
0.0,1.0,0.548,,,,,,pencil02a.jpg,0.0,clock_5_3.png,6.0,78,,,,,,,,,,,,,,,,,,0.0,33.0,33.0,33.0,1.0,,,,,,,,,,
0.0,1.0,1.01,,,,,,lizard_10n.jpg,0.0,clock_5_4.png,6.0,78,,,,,,,,,,,,,,,,,,0.0,34.0,34.0,34.0,1.0,,,,,,,,,,
0.0,1.0,0.592,,,,,,pepper2_21s.jpg,0.0,clock_5_5.png,6.0,78,,,,,,,,,,,,,,,,,,0.0,35.0,35.0,35.0,1.0,,,,,,,,,,
,,,,,,,,,0.0,,,78,0.0,1.0,10.752,,,,,,bolo_tie_08s.jpg,pumpkin_03s.jpg,,,,,,,,,,,,,0.0,0.0,0.0,0.0,1.0,,,,,
,,,,,,,,,1.0,,,78,0.0,0.0,11.436,,,,,,police_car_01s.jpg,pencil02a.jpg,,,,,,,,,,,,,0.0,1.0,1.0,1.0,1.0,,,,,
,,,,,,,,,1.0,,,78,1.0,1.0,6.893,,,,,,chime_12s.jpg,frog_09s.jpg,,,,,,,,,,,,,0.0,2.0,2.0,2.0,1.0,,,,,
,,,,,,,,,0.0,,,78,1.0,0.0,5.702,,,,,,pencil_sharpener_09n.jpg,oil_02s.jpg,,,,,,,,,,,,,0.0,3.0,3.0,3.0,1.0,,,,,
,,,,,,,,,0.0,,,78,1.0,0.0,6.519,,,,,,safety_pin_02s.jpg,mushroom_10n.jpg,,,,,,,,,,,,,0.0,4.0,4.0,4.0,1.0,,,,,
,,,,,,,,,0.0,,,78,0.0,1.0,6.868,,,,,,ring_03s.jpg,tennis_ball_06s.jpg,,,,,,,,,,,,,0.0,5.0,5.0,5.0,1.0,,,,,
,,,,,,,,,,,,78,,,,,,,,,,,,,,,,clock_present_5_17.xlsx,clock_compare_task_5_17.xlsx,,,,,,,,,,,0.0,4.0,4.0,4.0,1.0
0.0,1.0,1.528,,,,,,recliner_02s.jpg,0.0,clock_6_1.png,1.0,78,,,,,,,,,,,,,,,,,,0.0,0.0,0.0,0.0,1.0,,,,,,,,,,
0.0,1.0,1.474,,,,,,purse_05s.jpg,0.0,clock_6_2.png,1.0,78,,,,,,,,,,,,,,,,,,0.0,1.0,1.0,1.0,1.0,,,,,,,,,,
0.0,1.0,0.783,,,,,,treasure_08s.jpg,0.0,clock_6_3.png,1.0,78,,,,,,,,,,,,,,,,,,0.0,2.0,2.0,2.0,1.0,,,,,,,,,,
0.0,1.0,1.322,,,,,,tongs_08s.jpg,0.0,clock_6_4.png,1.0,78,,,,,,,,,,,,,,,,,,0.0,3.0,3.0,3.0,1.0,,,,,,,,,,
1.0,1.0,1.388,,,,,,tongs_08s.jpg,1.0,clock_6_5.png,1.0,78,,,,,,,,,,,,,,,,,,0.0,4.0,4.0,4.0,1.0,,,,,,,,,,
0.0,1.0,1.147,,,,,,feather02.jpg,0.0,clock_6_6.png,1.0,78,,,,,,,,,,,,,,,,,,0.0,5.0,5.0,5.0,1.0,,,,,,,,,,
0.0,1.0,1.1,,,,,,pocketknife_12s.jpg,0.0,clock_7_1.png,2.0,78,,,,,,,,,,,,,,,,,,0.0,6.0,6.0,6.0,1.0,,,,,,,,,,
0.0,1.0,0.556,,,,,,bagel_15s.jpg,0.0,clock_7_2.png,2.0,78,,,,,,,,,,,,,,,,,,0.0,7.0,7.0,7.0,1.0,,,,,,,,,,
0.0,1.0,0.898,,,,,,turtleneck_11s.jpg,0.0,clock_7_3.png,2.0,78,,,,,,,,,,,,,,,,,,0.0,8.0,8.0,8.0,1.0,,,,,,,,,,
1.0,1.0,0.976,,,,,,turtleneck_11s.jpg,1.0,clock_7_4.png,2.0,78,,,,,,,,,,,,,,,,,,0.0,9.0,9.0,9.0,1.0,,,,,,,,,,
0.0,1.0,0.706,,,,,,kangaroo_02s.jpg,0.0,clock_7_5.png,2.0,78,,,,,,,,,,,,,,,,,,0.0,10.0,10.0,10.0,1.0,,,,,,,,,,
1.0,1.0,1.251,,,,,,turtleneck_11s.jpg,1.0,clock_7_6.png,2.0,78,,,,,,,,,,,,,,,,,,0.0,11.0,11.0,11.0,1.0,,,,,,,,,,
0.0,1.0,1.064,,,,,,tongs_08s.jpg,0.0,clock_7_7.png,2.0,78,,,,,,,,,,,,,,,,,,0.0,12.0,12.0,12.0,1.0,,,,,,,,,,
0.0,1.0,0.566,,,,,,incense_02s.jpg,0.0,clock_6_1.png,3.0,78,,,,,,,,,,,,,,,,,,0.0,13.0,13.0,13.0,1.0,,,,,,,,,,
0.0,1.0,0.737,,,,,,peeler_06s.jpg,0.0,clock_6_2.png,3.0,78,,,,,,,,,,,,,,,,,,0.0,14.0,14.0,14.0,1.0,,,,,,,,,,
0.0,1.0,0.665,,,,,,lollipop_08s.jpg,0.0,clock_6_3.png,3.0,78,,,,,,,,,,,,,,,,,,0.0,15.0,15.0,15.0,1.0,,,,,,,,,,
0.0,1.0,0.83,,,,,,soccer_ball_12s.jpg,0.0,clock_6_4.png,3.0,78,,,,,,,,,,,,,,,,,,0.0,16.0,16.0,16.0,1.0,,,,,,,,,,
0.0,1.0,0.501,,,,,,parachute_03s.jpg,0.0,clock_6_5.png,3.0,78,,,,,,,,,,,,,,,,,,0.0,17.0,17.0,17.0,1.0,,,,,,,,,,
0.0,1.0,0.608,,,,,,pillbox_04s.jpg,0.0,clock_6_6.png,3.0,78,,,,,,,,,,,,,,,,,,0.0,18.0,18.0,18.0,1.0,,,,,,,,,,
0.0,1.0,1.973,,,,,,solar_panel_02s.jpg,0.0,clock_5_1.png,4.0,78,,,,,,,,,,,,,,,,,,0.0,19.0,19.0,19.0,1.0,,,,,,,,,,
0.0,1.0,1.15,,,,,,pomegranate_04s.jpg,0.0,clock_5_2.png,4.0,78,,,,,,,,,,,,,,,,,,0.0,20.0,20.0,20.0,1.0,,,,,,,,,,
0.0,1.0,0.625,,,,,,kettle_08s.jpg,0.0,clock_5_3.png,4.0,78,,,,,,,,,,,,,,,,,,0.0,21.0,21.0,21.0,1.0,,,,,,,,,,
,0.0,,,,,,,solar_panel_02s.jpg,1.0,clock_5_4.png,4.0,78,,,,,,,,,,,,,,,,,,0.0,22.0,22.0,22.0,1.0,,,,,,,,,,
0.0,1.0,1.114,,,,,,lollipop_08s.jpg,0.0,clock_5_5.png,4.0,78,,,,,,,,,,,,,,,,,,0.0,23.0,23.0,23.0,1.0,,,,,,,,,,
0.0,1.0,1.034,,,,,,hummingbird_05s.jpg,0.0,clock_5_1.png,5.0,78,,,,,,,,,,,,,,,,,,0.0,24.0,24.0,24.0,1.0,,,,,,,,,,
0.0,1.0,0.999,,,,,,quesadilla_07s.jpg,0.0,clock_5_2.png,5.0,78,,,,,,,,,,,,,,,,,,0.0,25.0,25.0,25.0,1.0,,,,,,,,,,
0.0,1.0,0.514,,,,,,jet_15s.jpg,0.0,clock_5_3.png,5.0,78,,,,,,,,,,,,,,,,,,0.0,26.0,26.0,26.0,1.0,,,,,,,,,,
1.0,1.0,1.518,,,,,,quesadilla_07s.jpg,1.0,clock_5_4.png,5.0,78,,,,,,,,,,,,,,,,,,0.0,27.0,27.0,27.0,1.0,,,,,,,,,,
0.0,1.0,0.816,,,,,,soccer_ball_12s.jpg,0.0,clock_5_5.png,5.0,78,,,,,,,,,,,,,,,,,,0.0,28.0,28.0,28.0,1.0,,,,,,,,,,
0.0,1.0,0.74,,,,,,tomato_sauce_09s.jpg,0.0,clock_7_1.png,6.0,78,,,,,,,,,,,,,,,,,,0.0,29.0,29.0,29.0,1.0,,,,,,,,,,
0.0,1.0,0.618,,,,,,tiara_05s.jpg,0.0,clock_7_2.png,6.0,78,,,,,,,,,,,,,,,,,,0.0,30.0,30.0,30.0,1.0,,,,,,,,,,
0.0,1.0,0.534,,,,,,binder_21s.jpg,0.0,clock_7_3.png,6.0,78,,,,,,,,,,,,,,,,,,0.0,31.0,31.0,31.0,1.0,,,,,,,,,,
0.0,1.0,0.655,,,,,,printer_09s.jpg,0.0,clock_7_4.png,6.0,78,,,,,,,,,,,,,,,,,,0.0,32.0,32.0,32.0,1.0,,,,,,,,,,
0.0,1.0,0.699,,,,,,hyena_16s.jpg,0.0,clock_7_5.png,6.0,78,,,,,,,,,,,,,,,,,,0.0,33.0,33.0,33.0,1.0,,,,,,,,,,
0.0,1.0,0.797,,,,,,cushion_08s.jpg,0.0,clock_7_6.png,6.0,78,,,,,,,,,,,,,,,,,,0.0,34.0,34.0,34.0,1.0,,,,,,,,,,
0.0,1.0,0.696,,,,,,towel_rack_04s.jpg,0.0,clock_7_7.png,6.0,78,,,,,,,,,,,,,,,,,,0.0,35.0,35.0,35.0,1.0,,,,,,,,,,
,,,,,,,,,0.0,,,78,0.0,1.0,1.944,,,,,,kettle_08s.jpg,pillbox_04s.jpg,,,,,,,,,,,,,0.0,0.0,0.0,0.0,1.0,,,,,
,,,,,,,,,0.0,,,78,0.0,1.0,4.739,,,,,,incense_02s.jpg,kangaroo_02s.jpg,,,,,,,,,,,,,0.0,1.0,1.0,1.0,1.0,,,,,
,,,,,,,,,0.0,,,78,0.0,1.0,6.367,,,,,,pomegranate_04s.jpg,parachute_03s.jpg,,,,,,,,,,,,,0.0,2.0,2.0,2.0,1.0,,,,,
,,,,,,,,,1.0,,,78,1.0,1.0,3.209,,,,,,treasure_08s.jpg,feather02.jpg,,,,,,,,,,,,,0.0,3.0,3.0,3.0,1.0,,,,,
,,,,,,,,,0.0,,,78,0.0,1.0,11.666,,,,,,hyena_16s.jpg,tiara_05s.jpg,,,,,,,,,,,,,0.0,4.0,4.0,4.0,1.0,,,,,
,,,,,,,,,1.0,,,78,0.0,0.0,11.318,,,,,,binder_21s.jpg,cushion_08s.jpg,,,,,,,,,,,,,0.0,5.0,5.0,5.0,1.0,,,,,
