key_resp.keys,key_resp.corr,key_resp.rt,noclock_loop.thisRepN,noclock_loop.thisTrialN,noclock_loop.thisN,noclock_loop.thisIndex,noclock_loop.ran,pictures,answer,clock,segment,participant,key_resp_2.keys,key_resp_2.corr,key_resp_2.rt,noclock_loop2.thisRepN,noclock_loop2.thisTrialN,noclock_loop2.thisN,noclock_loop2.thisIndex,noclock_loop2.ran,item_a,item_b,noclock_condition.thisRepN,noclock_condition.thisTrialN,noclock_condition.thisN,noclock_condition.thisIndex,noclock_condition.ran,present,compare,present_segment.thisRepN,present_segment.thisTrialN,present_segment.thisN,present_segment.thisIndex,present_segment.ran,compare_segment.thisRepN,compare_segment.thisTrialN,compare_segment.thisN,compare_segment.thisIndex,compare_segment.ran,clock_conditions.thisRepN,clock_conditions.thisTrialN,clock_conditions.thisN,clock_conditions.thisIndex,clock_conditions.ran
0.0,1.0,1.2722,0.0,0.0,0.0,0.0,1.0,marshmallow_08s.jpg,0.0,clockno_up.jpg,1.0,70,,,,,,,,,,,,,,,,,,,,,,,,,,,,,,,,
0.0,1.0,1.938685,0.0,1.0,1.0,1.0,1.0,exhaust_pipe_10s.jpg,0.0,clockno_default.jpg,1.0,70,,,,,,,,,,,,,,,,,,,,,,,,,,,,,,,,
0.0,1.0,1.99655,0.0,2.0,2.0,2.0,1.0,olive_05s.jpg,0.0,clockno_default.jpg,1.0,70,,,,,,,,,,,,,,,,,,,,,,,,,,,,,,,,
0.0,1.0,1.781835,0.0,3.0,3.0,3.0,1.0,chime_12s.jpg,0.0,clockno_default.jpg,1.0,70,,,,,,,,,,,,,,,,,,,,,,,,,,,,,,,,
0.0,1.0,1.881025,0.0,4.0,4.0,4.0,1.0,safety_pin_02s.jpg,0.0,clockno_default.jpg,1.0,70,,,,,,,,,,,,,,,,,,,,,,,,,,,,,,,,
0.0,1.0,1.583625,0.0,5.0,5.0,5.0,1.0,squirt_gun_03s.jpg,0.0,clockno_default.jpg,1.0,70,,,,,,,,,,,,,,,,,,,,,,,,,,,,,,,,
0.0,1.0,1.77991,0.0,6.0,6.0,6.0,1.0,seagull_01b.jpg,0.0,clockno_default.jpg,1.0,70,,,,,,,,,,,,,,,,,,,,,,,,,,,,,,,,
0.0,1.0,1.359355,0.0,7.0,7.0,7.0,1.0,sunflower_17s.jpg,0.0,clockno_up.jpg,2.0,70,,,,,,,,,,,,,,,,,,,,,,,,,,,,,,,,
0.0,1.0,1.367405,0.0,8.0,8.0,8.0,1.0,tile_08s.jpg,0.0,clockno_default.jpg,2.0,70,,,,,,,,,,,,,,,,,,,,,,,,,,,,,,,,
0.0,1.0,1.712645,0.0,9.0,9.0,9.0,1.0,butter_14s.jpg,0.0,clockno_default.jpg,2.0,70,,,,,,,,,,,,,,,,,,,,,,,,,,,,,,,,
1.0,1.0,1.237635,0.0,10.0,10.0,10.0,1.0,butter_14s.jpg,1.0,clockno_default.jpg,2.0,70,,,,,,,,,,,,,,,,,,,,,,,,,,,,,,,,
0.0,1.0,1.66622,0.0,11.0,11.0,11.0,1.0,safety_pin_02s.jpg,0.0,clockno_default.jpg,2.0,70,,,,,,,,,,,,,,,,,,,,,,,,,,,,,,,,
0.0,1.0,1.60004,0.0,12.0,12.0,12.0,1.0,owl_15s.jpg,0.0,clockno_default.jpg,2.0,70,,,,,,,,,,,,,,,,,,,,,,,,,,,,,,,,
0.0,1.0,1.627805,0.0,13.0,13.0,13.0,1.0,trampoline_13s.jpg,0.0,clockno_up.jpg,3.0,70,,,,,,,,,,,,,,,,,,,,,,,,,,,,,,,,
0.0,1.0,0.774895,0.0,14.0,14.0,14.0,1.0,penguin_16s.jpg,0.0,clockno_default.jpg,3.0,70,,,,,,,,,,,,,,,,,,,,,,,,,,,,,,,,
0.0,1.0,0.95828,0.0,15.0,15.0,15.0,1.0,espresso_01b.jpg,0.0,clockno_default.jpg,3.0,70,,,,,,,,,,,,,,,,,,,,,,,,,,,,,,,,
0.0,1.0,1.083375,0.0,16.0,16.0,16.0,1.0,smokingpipe.jpg,0.0,clockno_default.jpg,3.0,70,,,,,,,,,,,,,,,,,,,,,,,,,,,,,,,,
0.0,1.0,1.47443,0.0,17.0,17.0,17.0,1.0,ginger_09s.jpg,0.0,clockno_default.jpg,3.0,70,,,,,,,,,,,,,,,,,,,,,,,,,,,,,,,,
0.0,1.0,1.56355,0.0,18.0,18.0,18.0,1.0,lamb_04s.jpg,0.0,clockno_default.jpg,3.0,70,,,,,,,,,,,,,,,,,,,,,,,,,,,,,,,,
0.0,1.0,1.85063,0.0,19.0,19.0,19.0,1.0,tortilla_06s.jpg,0.0,clockno_default.jpg,3.0,70,,,,,,,,,,,,,,,,,,,,,,,,,,,,,,,,
0.0,1.0,1.96045,0.0,20.0,20.0,20.0,1.0,medal_04s.jpg,0.0,clockno_up.jpg,4.0,70,,,,,,,,,,,,,,,,,,,,,,,,,,,,,,,,
0.0,1.0,2.30546,0.0,21.0,21.0,21.0,1.0,laser_pointer_02s.jpg,0.0,clockno_default.jpg,4.0,70,,,,,,,,,,,,,,,,,,,,,,,,,,,,,,,,
0.0,1.0,2.21312,0.0,22.0,22.0,22.0,1.0,mango_09s.jpg,0.0,clockno_default.jpg,4.0,70,,,,,,,,,,,,,,,,,,,,,,,,,,,,,,,,
1.0,1.0,1.06593,0.0,23.0,23.0,23.0,1.0,medal_04s.jpg,1.0,clockno_default.jpg,4.0,70,,,,,,,,,,,,,,,,,,,,,,,,,,,,,,,,
0.0,1.0,1.16781,0.0,24.0,24.0,24.0,1.0,fire_alarm_05s.jpg,0.0,clockno_default.jpg,4.0,70,,,,,,,,,,,,,,,,,,,,,,,,,,,,,,,,
0.0,1.0,1.45826,0.0,25.0,25.0,25.0,1.0,tape_measure_11s.jpg,0.0,clockno_up.jpg,5.0,70,,,,,,,,,,,,,,,,,,,,,,,,,,,,,,,,
0.0,1.0,1.503845,0.0,26.0,26.0,26.0,1.0,piano_13n.jpg,0.0,clockno_default.jpg,5.0,70,,,,,,,,,,,,,,,,,,,,,,,,,,,,,,,,
0.0,1.0,1.54256,0.0,27.0,27.0,27.0,1.0,harpoon.jpg,0.0,clockno_default.jpg,5.0,70,,,,,,,,,,,,,,,,,,,,,,,,,,,,,,,,
0.0,1.0,1.97364,0.0,28.0,28.0,28.0,1.0,lemonade_04s.jpg,0.0,clockno_default.jpg,5.0,70,,,,,,,,,,,,,,,,,,,,,,,,,,,,,,,,
0.0,1.0,1.73647,0.0,29.0,29.0,29.0,1.0,thumbtack_14s.jpg,0.0,clockno_default.jpg,5.0,70,,,,,,,,,,,,,,,,,,,,,,,,,,,,,,,,
0.0,1.0,1.49924,0.0,30.0,30.0,30.0,1.0,ink_08s.jpg,0.0,clockno_default.jpg,5.0,70,,,,,,,,,,,,,,,,,,,,,,,,,,,,,,,,
0.0,1.0,1.52599,0.0,31.0,31.0,31.0,1.0,pencil_sharpener_09n.jpg,0.0,clockno_up.jpg,6.0,70,,,,,,,,,,,,,,,,,,,,,,,,,,,,,,,,
0.0,1.0,1.75734,0.0,32.0,32.0,32.0,1.0,hydrant_10s.jpg,0.0,clockno_default.jpg,6.0,70,,,,,,,,,,,,,,,,,,,,,,,,,,,,,,,,
0.0,1.0,1.927365,0.0,33.0,33.0,33.0,1.0,punch1_10s.jpg,0.0,clockno_default.jpg,6.0,70,,,,,,,,,,,,,,,,,,,,,,,,,,,,,,,,
0.0,1.0,2.053005,0.0,34.0,34.0,34.0,1.0,crayon_09s.jpg,0.0,clockno_default.jpg,6.0,70,,,,,,,,,,,,,,,,,,,,,,,,,,,,,,,,
1.0,1.0,1.311825,0.0,35.0,35.0,35.0,1.0,punch1_10s.jpg,1.0,clockno_default.jpg,6.0,70,,,,,,,,,,,,,,,,,,,,,,,,,,,,,,,,
,,,,,,,,,0.0,,,70,0.0,1.0,4.72226,0.0,0.0,0.0,0.0,1.0,tile_08s.jpg,squirt_gun_03s.jpg,,,,,,,,,,,,,,,,,,,,,,
,,,,,,,,,0.0,,,70,1.0,0.0,5.105175,0.0,1.0,1.0,1.0,1.0,espresso_01b.jpg,owl_15s.jpg,,,,,,,,,,,,,,,,,,,,,,
,,,,,,,,,1.0,,,70,1.0,1.0,1.664955,0.0,2.0,2.0,2.0,1.0,tortilla_06s.jpg,mango_09s.jpg,,,,,,,,,,,,,,,,,,,,,,
,,,,,,,,,0.0,,,70,0.0,1.0,1.97219,0.0,3.0,3.0,3.0,1.0,chime_12s.jpg,marshmallow_08s.jpg,,,,,,,,,,,,,,,,,,,,,,
,,,,,,,,,1.0,,,70,1.0,1.0,3.186385,0.0,4.0,4.0,4.0,1.0,trampoline_13s.jpg,smokingpipe.jpg,,,,,,,,,,,,,,,,,,,,,,
,,,,,,,,,1.0,,,70,1.0,1.0,3.58425,0.0,5.0,5.0,5.0,1.0,penguin_16s.jpg,ginger_09s.jpg,,,,,,,,,,,,,,,,,,,,,,
,,,,,,,,,,,,70,,,,,,,,,,,0.0,0.0,0.0,0.0,1.0,clockno_present_1_18.xlsx,clockno_compare_task_1_18.xlsx,,,,,,,,,,,,,,,
0.0,1.0,1.675705,0.0,0.0,0.0,0.0,1.0,potpourri_03s.jpg,0.0,clockno_up.jpg,1.0,70,,,,,,,,,,,,,,,,,,,,,,,,,,,,,,,,
0.0,1.0,1.650785,0.0,1.0,1.0,1.0,1.0,chopsticks_08s.jpg,0.0,clockno_default.jpg,1.0,70,,,,,,,,,,,,,,,,,,,,,,,,,,,,,,,,
0.0,1.0,1.44857,0.0,2.0,2.0,2.0,1.0,slingshot_07s.jpg,0.0,clockno_default.jpg,1.0,70,,,,,,,,,,,,,,,,,,,,,,,,,,,,,,,,
0.0,1.0,1.363065,0.0,3.0,3.0,3.0,1.0,lid_10s.jpg,0.0,clockno_default.jpg,1.0,70,,,,,,,,,,,,,,,,,,,,,,,,,,,,,,,,
0.0,1.0,1.25738,0.0,4.0,4.0,4.0,1.0,bagel_15s.jpg,0.0,clockno_default.jpg,1.0,70,,,,,,,,,,,,,,,,,,,,,,,,,,,,,,,,
1.0,1.0,0.939335,0.0,5.0,5.0,5.0,1.0,potpourri_03s.jpg,1.0,clockno_default.jpg,1.0,70,,,,,,,,,,,,,,,,,,,,,,,,,,,,,,,,
0.0,1.0,1.313825,0.0,6.0,6.0,6.0,1.0,clover_04s.jpg,0.0,clockno_up.jpg,2.0,70,,,,,,,,,,,,,,,,,,,,,,,,,,,,,,,,
0.0,1.0,1.772095,0.0,7.0,7.0,7.0,1.0,dashboard_02s.jpg,0.0,clockno_default.jpg,2.0,70,,,,,,,,,,,,,,,,,,,,,,,,,,,,,,,,
1.0,1.0,0.880415,0.0,8.0,8.0,8.0,1.0,dashboard_02s.jpg,1.0,clockno_default.jpg,2.0,70,,,,,,,,,,,,,,,,,,,,,,,,,,,,,,,,
0.0,1.0,1.415855,0.0,9.0,9.0,9.0,1.0,soccer_ball_12s.jpg,0.0,clockno_default.jpg,2.0,70,,,,,,,,,,,,,,,,,,,,,,,,,,,,,,,,
0.0,1.0,1.04573,0.0,10.0,10.0,10.0,1.0,lava_02s.jpg,0.0,clockno_default.jpg,2.0,70,,,,,,,,,,,,,,,,,,,,,,,,,,,,,,,,
1.0,1.0,0.996425,0.0,11.0,11.0,11.0,1.0,dashboard_02s.jpg,1.0,clockno_default.jpg,2.0,70,,,,,,,,,,,,,,,,,,,,,,,,,,,,,,,,
0.0,1.0,1.447275,0.0,12.0,12.0,12.0,1.0,thread_08s.jpg,0.0,clockno_default.jpg,2.0,70,,,,,,,,,,,,,,,,,,,,,,,,,,,,,,,,
0.0,1.0,1.09936,0.0,13.0,13.0,13.0,1.0,bowler_hat_10s.jpg,0.0,clockno_up.jpg,3.0,70,,,,,,,,,,,,,,,,,,,,,,,,,,,,,,,,
0.0,1.0,1.029725,0.0,14.0,14.0,14.0,1.0,paintbrush_04s.jpg,0.0,clockno_default.jpg,3.0,70,,,,,,,,,,,,,,,,,,,,,,,,,,,,,,,,
0.0,1.0,1.583305,0.0,15.0,15.0,15.0,1.0,rollerskate_03s.jpg,0.0,clockno_default.jpg,3.0,70,,,,,,,,,,,,,,,,,,,,,,,,,,,,,,,,
0.0,1.0,1.62136,0.0,16.0,16.0,16.0,1.0,slingshot_07s.jpg,0.0,clockno_default.jpg,3.0,70,,,,,,,,,,,,,,,,,,,,,,,,,,,,,,,,
0.0,1.0,1.604595,0.0,17.0,17.0,17.0,1.0,clover_04s.jpg,0.0,clockno_default.jpg,3.0,70,,,,,,,,,,,,,,,,,,,,,,,,,,,,,,,,
0.0,1.0,2.00356,0.0,18.0,18.0,18.0,1.0,otter_05s.jpg,0.0,clockno_up.jpg,4.0,70,,,,,,,,,,,,,,,,,,,,,,,,,,,,,,,,
0.0,1.0,1.996435,0.0,19.0,19.0,19.0,1.0,teacup_07s.jpg,0.0,clockno_default.jpg,4.0,70,,,,,,,,,,,,,,,,,,,,,,,,,,,,,,,,
0.0,1.0,0.733585,0.0,20.0,20.0,20.0,1.0,joystick_01b.jpg,0.0,clockno_default.jpg,4.0,70,,,,,,,,,,,,,,,,,,,,,,,,,,,,,,,,
0.0,1.0,2.05084,0.0,21.0,21.0,21.0,1.0,paintbrush_04s.jpg,0.0,clockno_default.jpg,4.0,70,,,,,,,,,,,,,,,,,,,,,,,,,,,,,,,,
1.0,1.0,0.844315,0.0,22.0,22.0,22.0,1.0,joystick_01b.jpg,1.0,clockno_default.jpg,4.0,70,,,,,,,,,,,,,,,,,,,,,,,,,,,,,,,,
0.0,1.0,1.14559,0.0,23.0,23.0,23.0,1.0,flask_04s.jpg,0.0,clockno_up.jpg,5.0,70,,,,,,,,,,,,,,,,,,,,,,,,,,,,,,,,
0.0,1.0,1.0956,0.0,24.0,24.0,24.0,1.0,stapler_01b.jpg,0.0,clockno_default.jpg,5.0,70,,,,,,,,,,,,,,,,,,,,,,,,,,,,,,,,
1.0,1.0,1.1502,0.0,25.0,25.0,25.0,1.0,flask_04s.jpg,1.0,clockno_default.jpg,5.0,70,,,,,,,,,,,,,,,,,,,,,,,,,,,,,,,,
0.0,1.0,1.378675,0.0,26.0,26.0,26.0,1.0,kettle_08s.jpg,0.0,clockno_default.jpg,5.0,70,,,,,,,,,,,,,,,,,,,,,,,,,,,,,,,,
0.0,1.0,1.9903,0.0,27.0,27.0,27.0,1.0,playpen_11s.jpg,0.0,clockno_default.jpg,5.0,70,,,,,,,,,,,,,,,,,,,,,,,,,,,,,,,,
0.0,1.0,1.66168,0.0,28.0,28.0,28.0,1.0,red_carpet_03s.jpg,0.0,clockno_default.jpg,5.0,70,,,,,,,,,,,,,,,,,,,,,,,,,,,,,,,,
1.0,1.0,0.79109,0.0,29.0,29.0,29.0,1.0,kettle_08s.jpg,1.0,clockno_default.jpg,5.0,70,,,,,,,,,,,,,,,,,,,,,,,,,,,,,,,,
0.0,1.0,1.63668,0.0,30.0,30.0,30.0,1.0,oil_02s.jpg,0.0,clockno_up.jpg,6.0,70,,,,,,,,,,,,,,,,,,,,,,,,,,,,,,,,
0.0,1.0,1.05709,0.0,31.0,31.0,31.0,1.0,flask_04s.jpg,0.0,clockno_default.jpg,6.0,70,,,,,,,,,,,,,,,,,,,,,,,,,,,,,,,,
0.0,1.0,1.5773,0.0,32.0,32.0,32.0,1.0,bottle_opener_11s.jpg,0.0,clockno_default.jpg,6.0,70,,,,,,,,,,,,,,,,,,,,,,,,,,,,,,,,
0.0,1.0,1.46459,0.0,33.0,33.0,33.0,1.0,tuba_12s.jpg,0.0,clockno_default.jpg,6.0,70,,,,,,,,,,,,,,,,,,,,,,,,,,,,,,,,
0.0,1.0,1.61993,0.0,34.0,34.0,34.0,1.0,lifesaver_10s.jpg,0.0,clockno_default.jpg,6.0,70,,,,,,,,,,,,,,,,,,,,,,,,,,,,,,,,
0.0,1.0,2.304905,0.0,35.0,35.0,35.0,1.0,rocking_horse_03s.jpg,0.0,clockno_default.jpg,6.0,70,,,,,,,,,,,,,,,,,,,,,,,,,,,,,,,,
,,,,,,,,,1.0,,,70,1.0,1.0,8.073495,0.0,0.0,0.0,0.0,1.0,lava_02s.jpg,bowler_hat_10s.jpg,,,,,,,,,,,,,,,,,,,,,,
,,,,,,,,,0.0,,,70,1.0,0.0,4.5221,0.0,1.0,1.0,1.0,1.0,otter_05s.jpg,rollerskate_03s.jpg,,,,,,,,,,,,,,,,,,,,,,
,,,,,,,,,1.0,,,70,1.0,1.0,1.758665,0.0,2.0,2.0,2.0,1.0,playpen_11s.jpg,oil_02s.jpg,,,,,,,,,,,,,,,,,,,,,,
,,,,,,,,,1.0,,,70,1.0,1.0,1.55066,0.0,3.0,3.0,3.0,1.0,chopsticks_08s.jpg,bagel_15s.jpg,,,,,,,,,,,,,,,,,,,,,,
,,,,,,,,,1.0,,,70,1.0,1.0,2.738995,0.0,4.0,4.0,4.0,1.0,bottle_opener_11s.jpg,rocking_horse_03s.jpg,,,,,,,,,,,,,,,,,,,,,,
,,,,,,,,,0.0,,,70,0.0,1.0,2.57107,0.0,5.0,5.0,5.0,1.0,thread_08s.jpg,soccer_ball_12s.jpg,,,,,,,,,,,,,,,,,,,,,,
,,,,,,,,,,,,70,,,,,,,,,,,0.0,1.0,1.0,1.0,1.0,clockno_present_2_18.xlsx,clockno_compare_task_2_18.xlsx,,,,,,,,,,,,,,,
0.0,1.0,1.55335,0.0,0.0,0.0,0.0,1.0,tiger_06s.jpg,0.0,clockno_up.jpg,1.0,70,,,,,,,,,,,,,,,,,,,,,,,,,,,,,,,,
0.0,1.0,1.828985,0.0,1.0,1.0,1.0,1.0,kayak_08s.jpg,0.0,clockno_default.jpg,1.0,70,,,,,,,,,,,,,,,,,,,,,,,,,,,,,,,,
0.0,1.0,0.86332,0.0,2.0,2.0,2.0,1.0,ironing_board_07s.jpg,0.0,clockno_default.jpg,1.0,70,,,,,,,,,,,,,,,,,,,,,,,,,,,,,,,,
0.0,1.0,1.514615,0.0,3.0,3.0,3.0,1.0,lavender_10s.jpg,0.0,clockno_default.jpg,1.0,70,,,,,,,,,,,,,,,,,,,,,,,,,,,,,,,,
0.0,1.0,1.67872,0.0,4.0,4.0,4.0,1.0,onion_10s.jpg,0.0,clockno_default.jpg,1.0,70,,,,,,,,,,,,,,,,,,,,,,,,,,,,,,,,
0.0,1.0,2.11759,0.0,5.0,5.0,5.0,1.0,fireworks_18s.jpg,0.0,clockno_up.jpg,2.0,70,,,,,,,,,,,,,,,,,,,,,,,,,,,,,,,,
0.0,1.0,2.35181,0.0,6.0,6.0,6.0,1.0,fork_04s.jpg,0.0,clockno_default.jpg,2.0,70,,,,,,,,,,,,,,,,,,,,,,,,,,,,,,,,
0.0,1.0,1.31197,0.0,7.0,7.0,7.0,1.0,lantern_04s.jpg,0.0,clockno_default.jpg,2.0,70,,,,,,,,,,,,,,,,,,,,,,,,,,,,,,,,
1.0,1.0,0.813215,0.0,8.0,8.0,8.0,1.0,lantern_04s.jpg,1.0,clockno_default.jpg,2.0,70,,,,,,,,,,,,,,,,,,,,,,,,,,,,,,,,
0.0,1.0,1.455275,0.0,9.0,9.0,9.0,1.0,projector_08s.jpg,0.0,clockno_default.jpg,2.0,70,,,,,,,,,,,,,,,,,,,,,,,,,,,,,,,,
0.0,1.0,1.130835,0.0,10.0,10.0,10.0,1.0,glue_01s.jpg,0.0,clockno_up.jpg,3.0,70,,,,,,,,,,,,,,,,,,,,,,,,,,,,,,,,
1.0,0.0,0.98263,0.0,11.0,11.0,11.0,1.0,milk_02s.jpg,0.0,clockno_default.jpg,3.0,70,,,,,,,,,,,,,,,,,,,,,,,,,,,,,,,,
0.0,1.0,1.585295,0.0,12.0,12.0,12.0,1.0,coral_08s.jpg,0.0,clockno_default.jpg,3.0,70,,,,,,,,,,,,,,,,,,,,,,,,,,,,,,,,
0.0,1.0,2.238195,0.0,13.0,13.0,13.0,1.0,ladder_15s.jpg,0.0,clockno_default.jpg,3.0,70,,,,,,,,,,,,,,,,,,,,,,,,,,,,,,,,
0.0,1.0,1.697105,0.0,14.0,14.0,14.0,1.0,margarita_03s.jpg,0.0,clockno_default.jpg,3.0,70,,,,,,,,,,,,,,,,,,,,,,,,,,,,,,,,
0.0,1.0,1.847775,0.0,15.0,15.0,15.0,1.0,onion_10s.jpg,0.0,clockno_default.jpg,3.0,70,,,,,,,,,,,,,,,,,,,,,,,,,,,,,,,,
0.0,1.0,1.308895,0.0,16.0,16.0,16.0,1.0,pan_02s.jpg,0.0,clockno_default.jpg,3.0,70,,,,,,,,,,,,,,,,,,,,,,,,,,,,,,,,
0.0,1.0,1.553085,0.0,17.0,17.0,17.0,1.0,perfume_06s.jpg,0.0,clockno_up.jpg,4.0,70,,,,,,,,,,,,,,,,,,,,,,,,,,,,,,,,
0.0,1.0,1.37993,0.0,18.0,18.0,18.0,1.0,puddle_02s.jpg,0.0,clockno_default.jpg,4.0,70,,,,,,,,,,,,,,,,,,,,,,,,,,,,,,,,
1.0,0.0,0.894845,0.0,19.0,19.0,19.0,1.0,margarita_03s.jpg,0.0,clockno_default.jpg,4.0,70,,,,,,,,,,,,,,,,,,,,,,,,,,,,,,,,
0.0,1.0,1.75799,0.0,20.0,20.0,20.0,1.0,luggage_08s.jpg,0.0,clockno_default.jpg,4.0,70,,,,,,,,,,,,,,,,,,,,,,,,,,,,,,,,
0.0,1.0,1.162395,0.0,21.0,21.0,21.0,1.0,letter_opener_03s.jpg,0.0,clockno_default.jpg,4.0,70,,,,,,,,,,,,,,,,,,,,,,,,,,,,,,,,
0.0,1.0,1.830615,0.0,22.0,22.0,22.0,1.0,top_hat_11s.jpg,0.0,clockno_default.jpg,4.0,70,,,,,,,,,,,,,,,,,,,,,,,,,,,,,,,,
0.0,1.0,1.383695,0.0,23.0,23.0,23.0,1.0,turkey_10s.jpg,0.0,clockno_default.jpg,4.0,70,,,,,,,,,,,,,,,,,,,,,,,,,,,,,,,,
,0.0,,0.0,24.0,24.0,24.0,1.0,inhaler_01b.jpg,0.0,clockno_up.jpg,5.0,70,,,,,,,,,,,,,,,,,,,,,,,,,,,,,,,,
0.0,1.0,1.322595,0.0,25.0,25.0,25.0,1.0,swing_set_15s.jpg,0.0,clockno_default.jpg,5.0,70,,,,,,,,,,,,,,,,,,,,,,,,,,,,,,,,
0.0,1.0,1.485545,0.0,26.0,26.0,26.0,1.0,memory_stick_11s.jpg,0.0,clockno_default.jpg,5.0,70,,,,,,,,,,,,,,,,,,,,,,,,,,,,,,,,
1.0,1.0,0.75497,0.0,27.0,27.0,27.0,1.0,inhaler_01b.jpg,1.0,clockno_default.jpg,5.0,70,,,,,,,,,,,,,,,,,,,,,,,,,,,,,,,,
0.0,1.0,1.3292,0.0,28.0,28.0,28.0,1.0,gingerbread_man_03s.jpg,0.0,clockno_default.jpg,5.0,70,,,,,,,,,,,,,,,,,,,,,,,,,,,,,,,,
0.0,1.0,1.61799,0.0,29.0,29.0,29.0,1.0,cushion_08s.jpg,0.0,clockno_default.jpg,5.0,70,,,,,,,,,,,,,,,,,,,,,,,,,,,,,,,,
0.0,1.0,1.60146,0.0,30.0,30.0,30.0,1.0,aluminum_foil_08s.jpg,0.0,clockno_up.jpg,6.0,70,,,,,,,,,,,,,,,,,,,,,,,,,,,,,,,,
0.0,1.0,0.834885,0.0,31.0,31.0,31.0,1.0,sleeping_bag_12s.jpg,0.0,clockno_default.jpg,6.0,70,,,,,,,,,,,,,,,,,,,,,,,,,,,,,,,,
0.0,1.0,1.2662,0.0,32.0,32.0,32.0,1.0,rock_08s.jpg,0.0,clockno_default.jpg,6.0,70,,,,,,,,,,,,,,,,,,,,,,,,,,,,,,,,
0.0,1.0,1.7627,0.0,33.0,33.0,33.0,1.0,stump_02s.jpg,0.0,clockno_default.jpg,6.0,70,,,,,,,,,,,,,,,,,,,,,,,,,,,,,,,,
0.0,1.0,1.398675,0.0,34.0,34.0,34.0,1.0,road_sign_05s.jpg,0.0,clockno_default.jpg,6.0,70,,,,,,,,,,,,,,,,,,,,,,,,,,,,,,,,
0.0,1.0,1.38212,0.0,35.0,35.0,35.0,1.0,tiger_06s.jpg,0.0,clockno_default.jpg,6.0,70,,,,,,,,,,,,,,,,,,,,,,,,,,,,,,,,
,,,,,,,,,0.0,,,70,0.0,1.0,5.516035,0.0,0.0,0.0,0.0,1.0,fireworks_18s.jpg,ironing_board_07s.jpg,,,,,,,,,,,,,,,,,,,,,,
,,,,,,,,,0.0,,,70,0.0,1.0,7.747955,0.0,1.0,1.0,1.0,1.0,fork_04s.jpg,lavender_10s.jpg,,,,,,,,,,,,,,,,,,,,,,
,,,,,,,,,0.0,,,70,1.0,0.0,3.24961,0.0,2.0,2.0,2.0,1.0,coral_08s.jpg,projector_08s.jpg,,,,,,,,,,,,,,,,,,,,,,
,,,,,,,,,0.0,,,70,0.0,1.0,4.80339,0.0,3.0,3.0,3.0,1.0,ladder_15s.jpg,glue_01s.jpg,,,,,,,,,,,,,,,,,,,,,,
,,,,,,,,,0.0,,,70,0.0,1.0,4.01678,0.0,4.0,4.0,4.0,1.0,luggage_08s.jpg,perfume_06s.jpg,,,,,,,,,,,,,,,,,,,,,,
,,,,,,,,,1.0,,,70,1.0,1.0,2.390735,0.0,5.0,5.0,5.0,1.0,puddle_02s.jpg,letter_opener_03s.jpg,,,,,,,,,,,,,,,,,,,,,,
,,,,,,,,,,,,70,,,,,,,,,,,0.0,2.0,2.0,2.0,1.0,clockno_present_3_18.xlsx,clockno_compare_task_3_18.xlsx,,,,,,,,,,,,,,,
0.0,1.0,1.67782,0.0,0.0,0.0,0.0,1.0,pie_08s.jpg,0.0,clockno_up.jpg,1.0,70,,,,,,,,,,,,,,,,,,,,,,,,,,,,,,,,
0.0,1.0,1.537935,0.0,1.0,1.0,1.0,1.0,tab_09s.jpg,0.0,clockno_default.jpg,1.0,70,,,,,,,,,,,,,,,,,,,,,,,,,,,,,,,,
0.0,1.0,1.601665,0.0,2.0,2.0,2.0,1.0,umbrella_15s.jpg,0.0,clockno_default.jpg,1.0,70,,,,,,,,,,,,,,,,,,,,,,,,,,,,,,,,
1.0,1.0,0.785645,0.0,3.0,3.0,3.0,1.0,tab_09s.jpg,1.0,clockno_default.jpg,1.0,70,,,,,,,,,,,,,,,,,,,,,,,,,,,,,,,,
0.0,1.0,0.947265,0.0,4.0,4.0,4.0,1.0,quad_04s.jpg,0.0,clockno_default.jpg,1.0,70,,,,,,,,,,,,,,,,,,,,,,,,,,,,,,,,
0.0,1.0,1.378045,0.0,5.0,5.0,5.0,1.0,racehorse_03s.jpg,0.0,clockno_default.jpg,1.0,70,,,,,,,,,,,,,,,,,,,,,,,,,,,,,,,,
0.0,1.0,1.21986,0.0,6.0,6.0,6.0,1.0,jelly_bean_06s.jpg,0.0,clockno_up.jpg,2.0,70,,,,,,,,,,,,,,,,,,,,,,,,,,,,,,,,
0.0,1.0,1.604695,0.0,7.0,7.0,7.0,1.0,key_07s.jpg,0.0,clockno_default.jpg,2.0,70,,,,,,,,,,,,,,,,,,,,,,,,,,,,,,,,
0.0,1.0,1.47741,0.0,8.0,8.0,8.0,1.0,target_11s.jpg,0.0,clockno_default.jpg,2.0,70,,,,,,,,,,,,,,,,,,,,,,,,,,,,,,,,
0.0,1.0,1.39315,0.0,9.0,9.0,9.0,1.0,air_pump_05s.jpg,0.0,clockno_default.jpg,2.0,70,,,,,,,,,,,,,,,,,,,,,,,,,,,,,,,,
0.0,1.0,1.649915,0.0,10.0,10.0,10.0,1.0,paper_bag_12s.jpg,0.0,clockno_default.jpg,2.0,70,,,,,,,,,,,,,,,,,,,,,,,,,,,,,,,,
0.0,1.0,1.733075,0.0,11.0,11.0,11.0,1.0,frame_06s.jpg,0.0,clockno_default.jpg,2.0,70,,,,,,,,,,,,,,,,,,,,,,,,,,,,,,,,
0.0,1.0,1.78497,0.0,12.0,12.0,12.0,1.0,tambourine_06s.jpg,0.0,clockno_default.jpg,2.0,70,,,,,,,,,,,,,,,,,,,,,,,,,,,,,,,,
0.0,1.0,1.989385,0.0,13.0,13.0,13.0,1.0,crate_05s.jpg,0.0,clockno_up.jpg,3.0,70,,,,,,,,,,,,,,,,,,,,,,,,,,,,,,,,
0.0,1.0,1.952115,0.0,14.0,14.0,14.0,1.0,chip_04s.jpg,0.0,clockno_default.jpg,3.0,70,,,,,,,,,,,,,,,,,,,,,,,,,,,,,,,,
0.0,1.0,1.30141,0.0,15.0,15.0,15.0,1.0,lipstick_02s.jpg,0.0,clockno_default.jpg,3.0,70,,,,,,,,,,,,,,,,,,,,,,,,,,,,,,,,
0.0,1.0,1.92708,0.0,16.0,16.0,16.0,1.0,go-kart_10s.jpg,0.0,clockno_default.jpg,3.0,70,,,,,,,,,,,,,,,,,,,,,,,,,,,,,,,,
1.0,1.0,1.51949,0.0,17.0,17.0,17.0,1.0,crate_05s.jpg,1.0,clockno_default.jpg,3.0,70,,,,,,,,,,,,,,,,,,,,,,,,,,,,,,,,
0.0,1.0,1.316395,0.0,18.0,18.0,18.0,1.0,ravioli_08s.jpg,0.0,clockno_default.jpg,3.0,70,,,,,,,,,,,,,,,,,,,,,,,,,,,,,,,,
0.0,1.0,1.59325,0.0,19.0,19.0,19.0,1.0,latch_15s.jpg,0.0,clockno_default.jpg,3.0,70,,,,,,,,,,,,,,,,,,,,,,,,,,,,,,,,
0.0,1.0,1.48689,0.0,20.0,20.0,20.0,1.0,tulip_02s.jpg,0.0,clockno_up.jpg,4.0,70,,,,,,,,,,,,,,,,,,,,,,,,,,,,,,,,
0.0,1.0,1.746755,0.0,21.0,21.0,21.0,1.0,foam_03s.jpg,0.0,clockno_default.jpg,4.0,70,,,,,,,,,,,,,,,,,,,,,,,,,,,,,,,,
0.0,1.0,1.933,0.0,22.0,22.0,22.0,1.0,leotard_08s.jpg,0.0,clockno_default.jpg,4.0,70,,,,,,,,,,,,,,,,,,,,,,,,,,,,,,,,
0.0,1.0,1.06436,0.0,23.0,23.0,23.0,1.0,blender_08s.jpg,0.0,clockno_default.jpg,4.0,70,,,,,,,,,,,,,,,,,,,,,,,,,,,,,,,,
1.0,1.0,0.896135,0.0,24.0,24.0,24.0,1.0,leotard_08s.jpg,1.0,clockno_default.jpg,4.0,70,,,,,,,,,,,,,,,,,,,,,,,,,,,,,,,,
0.0,1.0,0.91182,0.0,25.0,25.0,25.0,1.0,tuxedo_01b.jpg,0.0,clockno_default.jpg,4.0,70,,,,,,,,,,,,,,,,,,,,,,,,,,,,,,,,
0.0,1.0,1.792265,0.0,26.0,26.0,26.0,1.0,sunglasses_11s.jpg,0.0,clockno_up.jpg,5.0,70,,,,,,,,,,,,,,,,,,,,,,,,,,,,,,,,
0.0,1.0,1.845565,0.0,27.0,27.0,27.0,1.0,tweezers_03s.jpg,0.0,clockno_default.jpg,5.0,70,,,,,,,,,,,,,,,,,,,,,,,,,,,,,,,,
0.0,1.0,1.0158,0.0,28.0,28.0,28.0,1.0,kimono_13s.jpg,0.0,clockno_default.jpg,5.0,70,,,,,,,,,,,,,,,,,,,,,,,,,,,,,,,,
0.0,1.0,1.062045,0.0,29.0,29.0,29.0,1.0,pineapple_12s.jpg,0.0,clockno_default.jpg,5.0,70,,,,,,,,,,,,,,,,,,,,,,,,,,,,,,,,
0.0,1.0,1.383485,0.0,30.0,30.0,30.0,1.0,measuring_cup_02s.jpg,0.0,clockno_default.jpg,5.0,70,,,,,,,,,,,,,,,,,,,,,,,,,,,,,,,,
0.0,1.0,0.964,0.0,31.0,31.0,31.0,1.0,ant_12s.jpg,0.0,clockno_up.jpg,6.0,70,,,,,,,,,,,,,,,,,,,,,,,,,,,,,,,,
1.0,0.0,0.84589,0.0,32.0,32.0,32.0,1.0,measuring_cup_02s.jpg,0.0,clockno_default.jpg,6.0,70,,,,,,,,,,,,,,,,,,,,,,,,,,,,,,,,
0.0,1.0,0.9533,0.0,33.0,33.0,33.0,1.0,stamp1_11s.jpg,0.0,clockno_default.jpg,6.0,70,,,,,,,,,,,,,,,,,,,,,,,,,,,,,,,,
0.0,1.0,1.385615,0.0,34.0,34.0,34.0,1.0,cucumber_07s.jpg,0.0,clockno_default.jpg,6.0,70,,,,,,,,,,,,,,,,,,,,,,,,,,,,,,,,
0.0,1.0,1.36883,0.0,35.0,35.0,35.0,1.0,panda_02s.jpg,0.0,clockno_default.jpg,6.0,70,,,,,,,,,,,,,,,,,,,,,,,,,,,,,,,,
,,,,,,,,,0.0,,,70,0.0,1.0,3.835805,0.0,0.0,0.0,0.0,1.0,kimono_13s.jpg,tuxedo_01b.jpg,,,,,,,,,,,,,,,,,,,,,,
,,,,,,,,,0.0,,,70,1.0,0.0,3.33758,0.0,1.0,1.0,1.0,1.0,key_07s.jpg,quad_04s.jpg,,,,,,,,,,,,,,,,,,,,,,
,,,,,,,,,0.0,,,70,1.0,0.0,8.57666,0.0,2.0,2.0,2.0,1.0,chip_04s.jpg,frame_06s.jpg,,,,,,,,,,,,,,,,,,,,,,
,,,,,,,,,1.0,,,70,1.0,1.0,2.32486,0.0,3.0,3.0,3.0,1.0,jelly_bean_06s.jpg,air_pump_05s.jpg,,,,,,,,,,,,,,,,,,,,,,
,,,,,,,,,0.0,,,70,1.0,0.0,2.167475,0.0,4.0,4.0,4.0,1.0,latch_15s.jpg,go-kart_10s.jpg,,,,,,,,,,,,,,,,,,,,,,
,,,,,,,,,0.0,,,70,0.0,1.0,4.632245,0.0,5.0,5.0,5.0,1.0,racehorse_03s.jpg,umbrella_15s.jpg,,,,,,,,,,,,,,,,,,,,,,
,,,,,,,,,,,,70,,,,,,,,,,,0.0,3.0,3.0,3.0,1.0,clockno_present_4_18.xlsx,clockno_compare_task_4_18.xlsx,,,,,,,,,,,,,,,
0.0,1.0,2.108785,0.0,0.0,0.0,0.0,1.0,swimming_pool_17s.jpg,0.0,clockno_up.jpg,1.0,70,,,,,,,,,,,,,,,,,,,,,,,,,,,,,,,,
1.0,1.0,1.31331,0.0,1.0,1.0,1.0,1.0,swimming_pool_17s.jpg,1.0,clockno_default.jpg,1.0,70,,,,,,,,,,,,,,,,,,,,,,,,,,,,,,,,
0.0,1.0,1.3651,0.0,2.0,2.0,2.0,1.0,poinsettia_04s.jpg,0.0,clockno_default.jpg,1.0,70,,,,,,,,,,,,,,,,,,,,,,,,,,,,,,,,
0.0,1.0,1.003245,0.0,3.0,3.0,3.0,1.0,toilet_07s.jpg,0.0,clockno_default.jpg,1.0,70,,,,,,,,,,,,,,,,,,,,,,,,,,,,,,,,
0.0,1.0,1.845115,0.0,4.0,4.0,4.0,1.0,razor_12s.jpg,0.0,clockno_default.jpg,1.0,70,,,,,,,,,,,,,,,,,,,,,,,,,,,,,,,,
0.0,1.0,1.74184,0.0,5.0,5.0,5.0,1.0,bathtub_23s.jpg,0.0,clockno_default.jpg,1.0,70,,,,,,,,,,,,,,,,,,,,,,,,,,,,,,,,
0.0,1.0,1.38974,0.0,6.0,6.0,6.0,1.0,raccoon_02s.jpg,0.0,clockno_default.jpg,1.0,70,,,,,,,,,,,,,,,,,,,,,,,,,,,,,,,,
0.0,1.0,0.719165,0.0,7.0,7.0,7.0,1.0,gazelle_10s.jpg,0.0,clockno_up.jpg,2.0,70,,,,,,,,,,,,,,,,,,,,,,,,,,,,,,,,
0.0,1.0,1.253645,0.0,8.0,8.0,8.0,1.0,mud_13s.jpg,0.0,clockno_default.jpg,2.0,70,,,,,,,,,,,,,,,,,,,,,,,,,,,,,,,,
0.0,1.0,0.918965,0.0,9.0,9.0,9.0,1.0,raspberry_12s.jpg,0.0,clockno_default.jpg,2.0,70,,,,,,,,,,,,,,,,,,,,,,,,,,,,,,,,
0.0,1.0,0.96131,0.0,10.0,10.0,10.0,1.0,typewriter_11s.jpg,0.0,clockno_default.jpg,2.0,70,,,,,,,,,,,,,,,,,,,,,,,,,,,,,,,,
0.0,1.0,1.48667,0.0,11.0,11.0,11.0,1.0,golf_club_03s.jpg,0.0,clockno_default.jpg,2.0,70,,,,,,,,,,,,,,,,,,,,,,,,,,,,,,,,
1.0,1.0,0.856135,0.0,12.0,12.0,12.0,1.0,typewriter_11s.jpg,1.0,clockno_default.jpg,2.0,70,,,,,,,,,,,,,,,,,,,,,,,,,,,,,,,,
0.0,1.0,1.713855,0.0,13.0,13.0,13.0,1.0,beard_16s.jpg,0.0,clockno_default.jpg,2.0,70,,,,,,,,,,,,,,,,,,,,,,,,,,,,,,,,
0.0,1.0,1.455765,0.0,14.0,14.0,14.0,1.0,punch2_09s.jpg,0.0,clockno_up.jpg,3.0,70,,,,,,,,,,,,,,,,,,,,,,,,,,,,,,,,
0.0,1.0,0.703555,0.0,15.0,15.0,15.0,1.0,treasure_08s.jpg,0.0,clockno_default.jpg,3.0,70,,,,,,,,,,,,,,,,,,,,,,,,,,,,,,,,
0.0,1.0,2.44488,0.0,16.0,16.0,16.0,1.0,film_03s.jpg,0.0,clockno_default.jpg,3.0,70,,,,,,,,,,,,,,,,,,,,,,,,,,,,,,,,
0.0,1.0,0.72781,0.0,17.0,17.0,17.0,1.0,mixer_12s.jpg,0.0,clockno_default.jpg,3.0,70,,,,,,,,,,,,,,,,,,,,,,,,,,,,,,,,
0.0,1.0,1.288835,0.0,18.0,18.0,18.0,1.0,poinsettia_04s.jpg,0.0,clockno_default.jpg,3.0,70,,,,,,,,,,,,,,,,,,,,,,,,,,,,,,,,
0.0,1.0,1.54163,0.0,19.0,19.0,19.0,1.0,radio_09s.jpg,0.0,clockno_default.jpg,3.0,70,,,,,,,,,,,,,,,,,,,,,,,,,,,,,,,,
0.0,1.0,1.831495,0.0,20.0,20.0,20.0,1.0,possum_09s.jpg,0.0,clockno_up.jpg,4.0,70,,,,,,,,,,,,,,,,,,,,,,,,,,,,,,,,
0.0,1.0,1.20466,0.0,21.0,21.0,21.0,1.0,ram_05s.jpg,0.0,clockno_default.jpg,4.0,70,,,,,,,,,,,,,,,,,,,,,,,,,,,,,,,,
0.0,1.0,1.516955,0.0,22.0,22.0,22.0,1.0,gear_07s.jpg,0.0,clockno_default.jpg,4.0,70,,,,,,,,,,,,,,,,,,,,,,,,,,,,,,,,
0.0,1.0,1.333935,0.0,23.0,23.0,23.0,1.0,orangutan_03s.jpg,0.0,clockno_default.jpg,4.0,70,,,,,,,,,,,,,,,,,,,,,,,,,,,,,,,,
0.0,1.0,0.96346,0.0,24.0,24.0,24.0,1.0,hyena_16s.jpg,0.0,clockno_default.jpg,4.0,70,,,,,,,,,,,,,,,,,,,,,,,,,,,,,,,,
0.0,1.0,1.089815,0.0,25.0,25.0,25.0,1.0,puck_06s.jpg,0.0,clockno_up.jpg,5.0,70,,,,,,,,,,,,,,,,,,,,,,,,,,,,,,,,
0.0,1.0,1.16333,0.0,26.0,26.0,26.0,1.0,golf_club_03s.jpg,0.0,clockno_default.jpg,5.0,70,,,,,,,,,,,,,,,,,,,,,,,,,,,,,,,,
0.0,1.0,1.169425,0.0,27.0,27.0,27.0,1.0,stingray_02s.jpg,0.0,clockno_default.jpg,5.0,70,,,,,,,,,,,,,,,,,,,,,,,,,,,,,,,,
1.0,1.0,0.832235,0.0,28.0,28.0,28.0,1.0,stingray_02s.jpg,1.0,clockno_default.jpg,5.0,70,,,,,,,,,,,,,,,,,,,,,,,,,,,,,,,,
0.0,1.0,0.712645,0.0,29.0,29.0,29.0,1.0,chalice_10s.jpg,0.0,clockno_default.jpg,5.0,70,,,,,,,,,,,,,,,,,,,,,,,,,,,,,,,,
,0.0,,0.0,30.0,30.0,30.0,1.0,pepper_mill_03s.jpg,0.0,clockno_up.jpg,6.0,70,,,,,,,,,,,,,,,,,,,,,,,,,,,,,,,,
,0.0,,0.0,31.0,31.0,31.0,1.0,parachute_03s.jpg,0.0,clockno_default.jpg,6.0,70,,,,,,,,,,,,,,,,,,,,,,,,,,,,,,,,
,0.0,,0.0,32.0,32.0,32.0,1.0,pinwheel_06s.jpg,0.0,clockno_default.jpg,6.0,70,,,,,,,,,,,,,,,,,,,,,,,,,,,,,,,,
,0.0,,0.0,33.0,33.0,33.0,1.0,iron_13s.jpg,0.0,clockno_default.jpg,6.0,70,,,,,,,,,,,,,,,,,,,,,,,,,,,,,,,,
,0.0,,0.0,34.0,34.0,34.0,1.0,pepper_mill_03s.jpg,1.0,clockno_default.jpg,6.0,70,,,,,,,,,,,,,,,,,,,,,,,,,,,,,,,,
,0.0,,0.0,35.0,35.0,35.0,1.0,basket_05s.jpg,0.0,clockno_default.jpg,6.0,70,,,,,,,,,,,,,,,,,,,,,,,,,,,,,,,,
,,,,,,,,,1.0,,,70,1.0,1.0,3.48832,0.0,0.0,0.0,0.0,1.0,razor_12s.jpg,gazelle_10s.jpg,,,,,,,,,,,,,,,,,,,,,,
,,,,,,,,,0.0,,,70,1.0,0.0,2.27008,0.0,1.0,1.0,1.0,1.0,mud_13s.jpg,bathtub_23s.jpg,,,,,,,,,,,,,,,,,,,,,,
,,,,,,,,,1.0,,,70,1.0,1.0,3.338995,0.0,2.0,2.0,2.0,1.0,gear_07s.jpg,puck_06s.jpg,,,,,,,,,,,,,,,,,,,,,,
,,,,,,,,,0.0,,,70,1.0,0.0,4.81552,0.0,3.0,3.0,3.0,1.0,hyena_16s.jpg,ram_05s.jpg,,,,,,,,,,,,,,,,,,,,,,
,,,,,,,,,1.0,,,70,1.0,1.0,3.56251,0.0,4.0,4.0,4.0,1.0,toilet_07s.jpg,raccoon_02s.jpg,,,,,,,,,,,,,,,,,,,,,,
,,,,,,,,,0.0,,,70,0.0,1.0,2.58798,0.0,5.0,5.0,5.0,1.0,mixer_12s.jpg,punch2_09s.jpg,,,,,,,,,,,,,,,,,,,,,,
,,,,,,,,,,,,70,,,,,,,,,,,0.0,4.0,4.0,4.0,1.0,clockno_present_5_18.xlsx,clockno_compare_task_5_18.xlsx,,,,,,,,,,,,,,,
,0.0,,0.0,0.0,0.0,0.0,1.0,spacesuit_02s.jpg,0.0,clockno_up.jpg,1.0,70,,,,,,,,,,,,,,,,,,,,,,,,,,,,,,,,
0.0,1.0,0.910305,0.0,1.0,1.0,1.0,1.0,megaphone_03s.jpg,0.0,clockno_default.jpg,1.0,70,,,,,,,,,,,,,,,,,,,,,,,,,,,,,,,,
0.0,1.0,1.54707,0.0,2.0,2.0,2.0,1.0,power_line_08s.jpg,0.0,clockno_default.jpg,1.0,70,,,,,,,,,,,,,,,,,,,,,,,,,,,,,,,,
0.0,1.0,2.178145,0.0,3.0,3.0,3.0,1.0,insole_11s.jpg,0.0,clockno_default.jpg,1.0,70,,,,,,,,,,,,,,,,,,,,,,,,,,,,,,,,
0.0,1.0,2.056285,0.0,4.0,4.0,4.0,1.0,turtle_08s.jpg,0.0,clockno_default.jpg,1.0,70,,,,,,,,,,,,,,,,,,,,,,,,,,,,,,,,
0.0,1.0,1.865455,0.0,5.0,5.0,5.0,1.0,checkbook_11s.jpg,0.0,clockno_up.jpg,2.0,70,,,,,,,,,,,,,,,,,,,,,,,,,,,,,,,,
0.0,1.0,0.798135,0.0,6.0,6.0,6.0,1.0,sundae_08s.jpg,0.0,clockno_default.jpg,2.0,70,,,,,,,,,,,,,,,,,,,,,,,,,,,,,,,,
0.0,1.0,1.22507,0.0,7.0,7.0,7.0,1.0,puppet_01b.jpg,0.0,clockno_default.jpg,2.0,70,,,,,,,,,,,,,,,,,,,,,,,,,,,,,,,,
1.0,0.0,1.24635,0.0,8.0,8.0,8.0,1.0,spacesuit_02s.jpg,0.0,clockno_default.jpg,2.0,70,,,,,,,,,,,,,,,,,,,,,,,,,,,,,,,,
0.0,1.0,1.320425,0.0,9.0,9.0,9.0,1.0,popsicle_02s.jpg,0.0,clockno_default.jpg,2.0,70,,,,,,,,,,,,,,,,,,,,,,,,,,,,,,,,
0.0,1.0,1.33547,0.0,10.0,10.0,10.0,1.0,tinsel_12s.jpg,0.0,clockno_default.jpg,2.0,70,,,,,,,,,,,,,,,,,,,,,,,,,,,,,,,,
0.0,1.0,1.294185,0.0,11.0,11.0,11.0,1.0,saddle_06s.jpg,0.0,clockno_up.jpg,3.0,70,,,,,,,,,,,,,,,,,,,,,,,,,,,,,,,,
0.0,1.0,1.010485,0.0,12.0,12.0,12.0,1.0,tomato_sauce_09s.jpg,0.0,clockno_default.jpg,3.0,70,,,,,,,,,,,,,,,,,,,,,,,,,,,,,,,,
0.0,1.0,1.480935,0.0,13.0,13.0,13.0,1.0,laundry_basket_11s.jpg,0.0,clockno_default.jpg,3.0,70,,,,,,,,,,,,,,,,,,,,,,,,,,,,,,,,
0.0,1.0,1.325165,0.0,14.0,14.0,14.0,1.0,knitting_needle_04s.jpg,0.0,clockno_default.jpg,3.0,70,,,,,,,,,,,,,,,,,,,,,,,,,,,,,,,,
0.0,0.0,1.416265,0.0,15.0,15.0,15.0,1.0,tomato_sauce_09s.jpg,1.0,clockno_default.jpg,3.0,70,,,,,,,,,,,,,,,,,,,,,,,,,,,,,,,,
0.0,1.0,1.92849,0.0,16.0,16.0,16.0,1.0,moth_06n.jpg,0.0,clockno_up.jpg,4.0,70,,,,,,,,,,,,,,,,,,,,,,,,,,,,,,,,
1.0,1.0,0.754395,0.0,17.0,17.0,17.0,1.0,moth_06n.jpg,1.0,clockno_default.jpg,4.0,70,,,,,,,,,,,,,,,,,,,,,,,,,,,,,,,,
0.0,1.0,0.68234,0.0,18.0,18.0,18.0,1.0,tube_top_03s.jpg,0.0,clockno_default.jpg,4.0,70,,,,,,,,,,,,,,,,,,,,,,,,,,,,,,,,
0.0,1.0,1.442615,0.0,19.0,19.0,19.0,1.0,juicer1_08s.jpg,0.0,clockno_default.jpg,4.0,70,,,,,,,,,,,,,,,,,,,,,,,,,,,,,,,,
0.0,1.0,0.85131,0.0,20.0,20.0,20.0,1.0,plaster_cast_13s.jpg,0.0,clockno_default.jpg,4.0,70,,,,,,,,,,,,,,,,,,,,,,,,,,,,,,,,
0.0,1.0,1.32649,0.0,21.0,21.0,21.0,1.0,knot_01b.jpg,0.0,clockno_default.jpg,4.0,70,,,,,,,,,,,,,,,,,,,,,,,,,,,,,,,,
0.0,1.0,1.237705,0.0,22.0,22.0,22.0,1.0,insole_11s.jpg,0.0,clockno_default.jpg,4.0,70,,,,,,,,,,,,,,,,,,,,,,,,,,,,,,,,
0.0,1.0,1.65159,0.0,23.0,23.0,23.0,1.0,frog_09s.jpg,0.0,clockno_up.jpg,5.0,70,,,,,,,,,,,,,,,,,,,,,,,,,,,,,,,,
1.0,1.0,0.685095,0.0,24.0,24.0,24.0,1.0,frog_09s.jpg,1.0,clockno_default.jpg,5.0,70,,,,,,,,,,,,,,,,,,,,,,,,,,,,,,,,
0.0,1.0,1.77323,0.0,25.0,25.0,25.0,1.0,icicle_04s.jpg,0.0,clockno_default.jpg,5.0,70,,,,,,,,,,,,,,,,,,,,,,,,,,,,,,,,
0.0,1.0,1.28492,0.0,26.0,26.0,26.0,1.0,trumpet_06s.jpg,0.0,clockno_default.jpg,5.0,70,,,,,,,,,,,,,,,,,,,,,,,,,,,,,,,,
0.0,1.0,0.76337,0.0,27.0,27.0,27.0,1.0,touchpad_11s.jpg,0.0,clockno_default.jpg,5.0,70,,,,,,,,,,,,,,,,,,,,,,,,,,,,,,,,
1.0,1.0,0.988805,0.0,28.0,28.0,28.0,1.0,trumpet_06s.jpg,1.0,clockno_default.jpg,5.0,70,,,,,,,,,,,,,,,,,,,,,,,,,,,,,,,,
0.0,1.0,1.764485,0.0,29.0,29.0,29.0,1.0,lamb_chop_07s.jpg,0.0,clockno_up.jpg,6.0,70,,,,,,,,,,,,,,,,,,,,,,,,,,,,,,,,
0.0,1.0,1.959495,0.0,30.0,30.0,30.0,1.0,rocket_02s.jpg,0.0,clockno_default.jpg,6.0,70,,,,,,,,,,,,,,,,,,,,,,,,,,,,,,,,
0.0,1.0,1.8977,0.0,31.0,31.0,31.0,1.0,candy_cane_06s.jpg,0.0,clockno_default.jpg,6.0,70,,,,,,,,,,,,,,,,,,,,,,,,,,,,,,,,
0.0,1.0,1.422185,0.0,32.0,32.0,32.0,1.0,coffee_filter_10s.jpg,0.0,clockno_default.jpg,6.0,70,,,,,,,,,,,,,,,,,,,,,,,,,,,,,,,,
1.0,1.0,1.08607,0.0,33.0,33.0,33.0,1.0,candy_cane_06s.jpg,1.0,clockno_default.jpg,6.0,70,,,,,,,,,,,,,,,,,,,,,,,,,,,,,,,,
1.0,1.0,1.11172,0.0,34.0,34.0,34.0,1.0,candy_cane_06s.jpg,1.0,clockno_default.jpg,6.0,70,,,,,,,,,,,,,,,,,,,,,,,,,,,,,,,,
0.0,1.0,1.47122,0.0,35.0,35.0,35.0,1.0,emerald_02s.jpg,0.0,clockno_default.jpg,6.0,70,,,,,,,,,,,,,,,,,,,,,,,,,,,,,,,,
,,,,,,,,,1.0,,,70,1.0,1.0,2.57728,0.0,0.0,0.0,0.0,1.0,power_line_08s.jpg,checkbook_11s.jpg,,,,,,,,,,,,,,,,,,,,,,
,,,,,,,,,1.0,,,70,1.0,1.0,1.908345,0.0,1.0,1.0,1.0,1.0,touchpad_11s.jpg,rocket_02s.jpg,,,,,,,,,,,,,,,,,,,,,,
,,,,,,,,,0.0,,,70,0.0,1.0,1.636825,0.0,2.0,2.0,2.0,1.0,laundry_basket_11s.jpg,tinsel_12s.jpg,,,,,,,,,,,,,,,,,,,,,,
,,,,,,,,,1.0,,,70,1.0,1.0,1.36524,0.0,3.0,3.0,3.0,1.0,sundae_08s.jpg,popsicle_02s.jpg,,,,,,,,,,,,,,,,,,,,,,
,,,,,,,,,0.0,,,70,0.0,1.0,2.76582,0.0,4.0,4.0,4.0,1.0,knitting_needle_04s.jpg,saddle_06s.jpg,,,,,,,,,,,,,,,,,,,,,,
,,,,,,,,,1.0,,,70,1.0,1.0,1.346585,0.0,5.0,5.0,5.0,1.0,tube_top_03s.jpg,knot_01b.jpg,,,,,,,,,,,,,,,,,,,,,,
0.0,1.0,1.82901,,,,,,printer_09s.jpg,0.0,clock_6_1.png,1.0,70,,,,,,,,,,,,,,,,,,0.0,0.0,0.0,0.0,1.0,,,,,,,,,,
0.0,1.0,1.2306,,,,,,rope_16s.jpg,0.0,clock_6_2.png,1.0,70,,,,,,,,,,,,,,,,,,0.0,1.0,1.0,1.0,1.0,,,,,,,,,,
0.0,1.0,1.262135,,,,,,lion_18s.jpg,0.0,clock_6_3.png,1.0,70,,,,,,,,,,,,,,,,,,0.0,2.0,2.0,2.0,1.0,,,,,,,,,,
0.0,1.0,1.249745,,,,,,rabbit_03s.jpg,0.0,clock_6_4.png,1.0,70,,,,,,,,,,,,,,,,,,0.0,3.0,3.0,3.0,1.0,,,,,,,,,,
0.0,1.0,1.016715,,,,,,boomerang_06s.jpg,0.0,clock_6_5.png,1.0,70,,,,,,,,,,,,,,,,,,0.0,4.0,4.0,4.0,1.0,,,,,,,,,,
1.0,1.0,0.794925,,,,,,lion_18s.jpg,1.0,clock_6_6.png,1.0,70,,,,,,,,,,,,,,,,,,0.0,5.0,5.0,5.0,1.0,,,,,,,,,,
0.0,1.0,1.576355,,,,,,pillbox_04s.jpg,0.0,clock_7_1.png,2.0,70,,,,,,,,,,,,,,,,,,0.0,6.0,6.0,6.0,1.0,,,,,,,,,,
0.0,1.0,0.904905,,,,,,blowfish_03s.jpg,0.0,clock_7_2.png,2.0,70,,,,,,,,,,,,,,,,,,0.0,7.0,7.0,7.0,1.0,,,,,,,,,,
0.0,1.0,1.393865,,,,,,rhubarb_03s.jpg,0.0,clock_7_3.png,2.0,70,,,,,,,,,,,,,,,,,,0.0,8.0,8.0,8.0,1.0,,,,,,,,,,
0.0,1.0,1.71532,,,,,,torch_02s.jpg,0.0,clock_7_4.png,2.0,70,,,,,,,,,,,,,,,,,,0.0,9.0,9.0,9.0,1.0,,,,,,,,,,
1.0,1.0,0.881905,,,,,,rhubarb_03s.jpg,1.0,clock_7_5.png,2.0,70,,,,,,,,,,,,,,,,,,0.0,10.0,10.0,10.0,1.0,,,,,,,,,,
0.0,1.0,1.467785,,,,,,tablet_04s.jpg,0.0,clock_7_6.png,2.0,70,,,,,,,,,,,,,,,,,,0.0,11.0,11.0,11.0,1.0,,,,,,,,,,
0.0,1.0,1.941735,,,,,,mop_08s.jpg,0.0,clock_7_7.png,2.0,70,,,,,,,,,,,,,,,,,,0.0,12.0,12.0,12.0,1.0,,,,,,,,,,
0.0,1.0,1.0323,,,,,,mirror_12s.jpg,0.0,clock_5_1.png,3.0,70,,,,,,,,,,,,,,,,,,0.0,13.0,13.0,13.0,1.0,,,,,,,,,,
1.0,0.0,0.74695,,,,,,torch_02s.jpg,0.0,clock_5_2.png,3.0,70,,,,,,,,,,,,,,,,,,0.0,14.0,14.0,14.0,1.0,,,,,,,,,,
0.0,1.0,0.73995,,,,,,compass_10n.jpg,0.0,clock_5_3.png,3.0,70,,,,,,,,,,,,,,,,,,0.0,15.0,15.0,15.0,1.0,,,,,,,,,,
0.0,1.0,1.462505,,,,,,peppermint_07s.jpg,0.0,clock_5_4.png,3.0,70,,,,,,,,,,,,,,,,,,0.0,16.0,16.0,16.0,1.0,,,,,,,,,,
0.0,1.0,0.75176,,,,,,surfboard_11s.jpg,0.0,clock_5_5.png,3.0,70,,,,,,,,,,,,,,,,,,0.0,17.0,17.0,17.0,1.0,,,,,,,,,,
0.0,1.0,0.71195,,,,,,microwave_02s.jpg,0.0,clock_5_1.png,4.0,70,,,,,,,,,,,,,,,,,,0.0,18.0,18.0,18.0,1.0,,,,,,,,,,
0.0,1.0,0.961045,,,,,,pumpkin_03s.jpg,0.0,clock_5_2.png,4.0,70,,,,,,,,,,,,,,,,,,0.0,19.0,19.0,19.0,1.0,,,,,,,,,,
0.0,1.0,1.02858,,,,,,rhubarb_03s.jpg,0.0,clock_5_3.png,4.0,70,,,,,,,,,,,,,,,,,,0.0,20.0,20.0,20.0,1.0,,,,,,,,,,
0.0,1.0,1.371695,,,,,,metronome_03s.jpg,0.0,clock_5_4.png,4.0,70,,,,,,,,,,,,,,,,,,0.0,21.0,21.0,21.0,1.0,,,,,,,,,,
0.0,1.0,1.230575,,,,,,cardinal_07s.jpg,0.0,clock_5_5.png,4.0,70,,,,,,,,,,,,,,,,,,0.0,22.0,22.0,22.0,1.0,,,,,,,,,,
0.0,1.0,0.77975,,,,,,quesadilla_07s.jpg,0.0,clock_6_1.png,5.0,70,,,,,,,,,,,,,,,,,,0.0,23.0,23.0,23.0,1.0,,,,,,,,,,
0.0,1.0,1.11258,,,,,,bonsai_07s.jpg,0.0,clock_6_2.png,5.0,70,,,,,,,,,,,,,,,,,,0.0,24.0,24.0,24.0,1.0,,,,,,,,,,
0.0,1.0,1.133685,,,,,,lion_18s.jpg,0.0,clock_6_3.png,5.0,70,,,,,,,,,,,,,,,,,,0.0,25.0,25.0,25.0,1.0,,,,,,,,,,
0.0,1.0,0.668225,,,,,,fire_pit_10s.jpg,0.0,clock_6_4.png,5.0,70,,,,,,,,,,,,,,,,,,0.0,26.0,26.0,26.0,1.0,,,,,,,,,,
0.0,1.0,1.113415,,,,,,peppermint_07s.jpg,0.0,clock_6_5.png,5.0,70,,,,,,,,,,,,,,,,,,0.0,27.0,27.0,27.0,1.0,,,,,,,,,,
1.0,1.0,1.48089,,,,,,bonsai_07s.jpg,1.0,clock_6_6.png,5.0,70,,,,,,,,,,,,,,,,,,0.0,28.0,28.0,28.0,1.0,,,,,,,,,,
0.0,1.0,0.668535,,,,,,potholder_02s.jpg,0.0,clock_7_1.png,6.0,70,,,,,,,,,,,,,,,,,,0.0,29.0,29.0,29.0,1.0,,,,,,,,,,
0.0,1.0,1.265305,,,,,,amber_04s.jpg,0.0,clock_7_2.png,6.0,70,,,,,,,,,,,,,,,,,,0.0,30.0,30.0,30.0,1.0,,,,,,,,,,
0.0,1.0,0.74157,,,,,,doily_13s.jpg,0.0,clock_7_3.png,6.0,70,,,,,,,,,,,,,,,,,,0.0,31.0,31.0,31.0,1.0,,,,,,,,,,
0.0,1.0,1.19035,,,,,,champagne_18s.jpg,0.0,clock_7_4.png,6.0,70,,,,,,,,,,,,,,,,,,0.0,32.0,32.0,32.0,1.0,,,,,,,,,,
0.0,0.0,0.838005,,,,,,champagne_18s.jpg,1.0,clock_7_5.png,6.0,70,,,,,,,,,,,,,,,,,,0.0,33.0,33.0,33.0,1.0,,,,,,,,,,
1.0,1.0,1.4669,,,,,,doily_13s.jpg,1.0,clock_7_6.png,6.0,70,,,,,,,,,,,,,,,,,,0.0,34.0,34.0,34.0,1.0,,,,,,,,,,
0.0,1.0,0.85545,,,,,,ice_pack_09s.jpg,0.0,clock_7_7.png,6.0,70,,,,,,,,,,,,,,,,,,0.0,35.0,35.0,35.0,1.0,,,,,,,,,,
,,,,,,,,,0.0,,,70,1.0,0.0,4.062425,,,,,,compass_10n.jpg,mop_08s.jpg,,,,,,,,,,,,,0.0,0.0,0.0,0.0,1.0,,,,,
,,,,,,,,,1.0,,,70,1.0,1.0,3.08537,,,,,,rabbit_03s.jpg,pillbox_04s.jpg,,,,,,,,,,,,,0.0,1.0,1.0,1.0,1.0,,,,,
,,,,,,,,,0.0,,,70,1.0,0.0,2.87394,,,,,,blowfish_03s.jpg,boomerang_06s.jpg,,,,,,,,,,,,,0.0,2.0,2.0,2.0,1.0,,,,,
,,,,,,,,,1.0,,,70,0.0,0.0,2.50294,,,,,,pumpkin_03s.jpg,cardinal_07s.jpg,,,,,,,,,,,,,0.0,3.0,3.0,3.0,1.0,,,,,
,,,,,,,,,0.0,,,70,0.0,1.0,1.62859,,,,,,metronome_03s.jpg,microwave_02s.jpg,,,,,,,,,,,,,0.0,4.0,4.0,4.0,1.0,,,,,
,,,,,,,,,0.0,,,70,1.0,0.0,3.00468,,,,,,fire_pit_10s.jpg,quesadilla_07s.jpg,,,,,,,,,,,,,0.0,5.0,5.0,5.0,1.0,,,,,
,,,,,,,,,,,,70,,,,,,,,,,,,,,,,clock_present_1_18.xlsx,clock_compare_task_1_18.xlsx,,,,,,,,,,,0.0,0.0,0.0,0.0,1.0
0.0,1.0,1.81556,,,,,,thorn_13s.jpg,0.0,clock_7_1.png,1.0,70,,,,,,,,,,,,,,,,,,0.0,0.0,0.0,0.0,1.0,,,,,,,,,,
0.0,1.0,1.02546,,,,,,lamppost_09s.jpg,0.0,clock_7_2.png,1.0,70,,,,,,,,,,,,,,,,,,0.0,1.0,1.0,1.0,1.0,,,,,,,,,,
0.0,1.0,1.062865,,,,,,crystal_ball_12s.jpg,0.0,clock_7_3.png,1.0,70,,,,,,,,,,,,,,,,,,0.0,2.0,2.0,2.0,1.0,,,,,,,,,,
0.0,1.0,1.37135,,,,,,bean_06s.jpg,0.0,clock_7_4.png,1.0,70,,,,,,,,,,,,,,,,,,0.0,3.0,3.0,3.0,1.0,,,,,,,,,,
0.0,1.0,1.06631,,,,,,fossil_06s.jpg,0.0,clock_7_5.png,1.0,70,,,,,,,,,,,,,,,,,,0.0,4.0,4.0,4.0,1.0,,,,,,,,,,
0.0,1.0,1.647165,,,,,,keyhole_03s.jpg,0.0,clock_7_6.png,1.0,70,,,,,,,,,,,,,,,,,,0.0,5.0,5.0,5.0,1.0,,,,,,,,,,
1.0,1.0,1.029645,,,,,,fossil_06s.jpg,1.0,clock_7_7.png,1.0,70,,,,,,,,,,,,,,,,,,0.0,6.0,6.0,6.0,1.0,,,,,,,,,,
0.0,1.0,1.87619,,,,,,eggshell_14s.jpg,0.0,clock_6_1.png,2.0,70,,,,,,,,,,,,,,,,,,0.0,7.0,7.0,7.0,1.0,,,,,,,,,,
0.0,1.0,1.191095,,,,,,crystal_ball_12s.jpg,0.0,clock_6_2.png,2.0,70,,,,,,,,,,,,,,,,,,0.0,8.0,8.0,8.0,1.0,,,,,,,,,,
0.0,1.0,2.095535,,,,,,lamp_08s.jpg,0.0,clock_6_3.png,2.0,70,,,,,,,,,,,,,,,,,,0.0,9.0,9.0,9.0,1.0,,,,,,,,,,
0.0,1.0,0.79438,,,,,,limousine_12s.jpg,0.0,clock_6_4.png,2.0,70,,,,,,,,,,,,,,,,,,0.0,10.0,10.0,10.0,1.0,,,,,,,,,,
1.0,1.0,0.70193,,,,,,limousine_12s.jpg,1.0,clock_6_5.png,2.0,70,,,,,,,,,,,,,,,,,,0.0,11.0,11.0,11.0,1.0,,,,,,,,,,
0.0,1.0,1.29931,,,,,,fur_coat_11s.jpg,0.0,clock_6_6.png,2.0,70,,,,,,,,,,,,,,,,,,0.0,12.0,12.0,12.0,1.0,,,,,,,,,,
0.0,1.0,1.293655,,,,,,meatball_13s.jpg,0.0,clock_6_1.png,3.0,70,,,,,,,,,,,,,,,,,,0.0,13.0,13.0,13.0,1.0,,,,,,,,,,
0.0,1.0,1.7561,,,,,,kitten_07s.jpg,0.0,clock_6_2.png,3.0,70,,,,,,,,,,,,,,,,,,0.0,14.0,14.0,14.0,1.0,,,,,,,,,,
0.0,1.0,1.037945,,,,,,radiator_05s.jpg,0.0,clock_6_3.png,3.0,70,,,,,,,,,,,,,,,,,,0.0,15.0,15.0,15.0,1.0,,,,,,,,,,
0.0,1.0,1.60829,,,,,,bacon_05s.jpg,0.0,clock_6_4.png,3.0,70,,,,,,,,,,,,,,,,,,0.0,16.0,16.0,16.0,1.0,,,,,,,,,,
0.0,1.0,0.998275,,,,,,turtleneck_11s.jpg,0.0,clock_6_5.png,3.0,70,,,,,,,,,,,,,,,,,,0.0,17.0,17.0,17.0,1.0,,,,,,,,,,
0.0,1.0,0.64047,,,,,,pea_11s.jpg,0.0,clock_6_6.png,3.0,70,,,,,,,,,,,,,,,,,,0.0,18.0,18.0,18.0,1.0,,,,,,,,,,
0.0,1.0,1.21432,,,,,,submarine_11n.jpg,0.0,clock_5_1.png,4.0,70,,,,,,,,,,,,,,,,,,0.0,19.0,19.0,19.0,1.0,,,,,,,,,,
0.0,1.0,0.617195,,,,,,phone_01b.jpg,0.0,clock_5_2.png,4.0,70,,,,,,,,,,,,,,,,,,0.0,20.0,20.0,20.0,1.0,,,,,,,,,,
0.0,1.0,1.57878,,,,,,rhinoceros_02s.jpg,0.0,clock_5_3.png,4.0,70,,,,,,,,,,,,,,,,,,0.0,21.0,21.0,21.0,1.0,,,,,,,,,,
0.0,1.0,0.63996,,,,,,spider_web_03s.jpg,0.0,clock_5_4.png,4.0,70,,,,,,,,,,,,,,,,,,0.0,22.0,22.0,22.0,1.0,,,,,,,,,,
0.0,1.0,0.796155,,,,,,reindeer_08s.jpg,0.0,clock_5_5.png,4.0,70,,,,,,,,,,,,,,,,,,0.0,23.0,23.0,23.0,1.0,,,,,,,,,,
0.0,1.0,1.284655,,,,,,jewel_01b.jpg,0.0,clock_5_1.png,5.0,70,,,,,,,,,,,,,,,,,,0.0,24.0,24.0,24.0,1.0,,,,,,,,,,
0.0,1.0,1.196745,,,,,,cap_05s.jpg,0.0,clock_5_2.png,5.0,70,,,,,,,,,,,,,,,,,,0.0,25.0,25.0,25.0,1.0,,,,,,,,,,
0.0,1.0,0.76182,,,,,,cape_11s.jpg,0.0,clock_5_3.png,5.0,70,,,,,,,,,,,,,,,,,,0.0,26.0,26.0,26.0,1.0,,,,,,,,,,
0.0,1.0,0.5638,,,,,,giraffe_11s.jpg,0.0,clock_5_4.png,5.0,70,,,,,,,,,,,,,,,,,,0.0,27.0,27.0,27.0,1.0,,,,,,,,,,
0.0,1.0,1.31717,,,,,,kitten_07s.jpg,0.0,clock_5_5.png,5.0,70,,,,,,,,,,,,,,,,,,0.0,28.0,28.0,28.0,1.0,,,,,,,,,,
0.0,1.0,0.90258,,,,,,sparkler_02s.jpg,0.0,clock_7_1.png,6.0,70,,,,,,,,,,,,,,,,,,0.0,29.0,29.0,29.0,1.0,,,,,,,,,,
1.0,1.0,0.952335,,,,,,sparkler_02s.jpg,1.0,clock_7_2.png,6.0,70,,,,,,,,,,,,,,,,,,0.0,30.0,30.0,30.0,1.0,,,,,,,,,,
0.0,1.0,1.00992,,,,,,bee_20s.jpg,0.0,clock_7_3.png,6.0,70,,,,,,,,,,,,,,,,,,0.0,31.0,31.0,31.0,1.0,,,,,,,,,,
0.0,1.0,1.06221,,,,,,jetski_10s.jpg,0.0,clock_7_4.png,6.0,70,,,,,,,,,,,,,,,,,,0.0,32.0,32.0,32.0,1.0,,,,,,,,,,
0.0,1.0,0.628595,,,,,,pear_02s.jpg,0.0,clock_7_5.png,6.0,70,,,,,,,,,,,,,,,,,,0.0,33.0,33.0,33.0,1.0,,,,,,,,,,
0.0,1.0,1.048035,,,,,,kilt_18s.jpg,0.0,clock_7_6.png,6.0,70,,,,,,,,,,,,,,,,,,0.0,34.0,34.0,34.0,1.0,,,,,,,,,,
0.0,1.0,1.36941,,,,,,bacon_05s.jpg,0.0,clock_7_7.png,6.0,70,,,,,,,,,,,,,,,,,,0.0,35.0,35.0,35.0,1.0,,,,,,,,,,
,,,,,,,,,1.0,,,70,0.0,0.0,4.045665,,,,,,turtleneck_11s.jpg,phone_01b.jpg,,,,,,,,,,,,,0.0,0.0,0.0,0.0,1.0,,,,,
,,,,,,,,,0.0,,,70,0.0,1.0,3.07738,,,,,,rhinoceros_02s.jpg,pea_11s.jpg,,,,,,,,,,,,,0.0,1.0,1.0,1.0,1.0,,,,,
,,,,,,,,,1.0,,,70,0.0,0.0,1.702955,,,,,,spider_web_03s.jpg,cap_05s.jpg,,,,,,,,,,,,,0.0,2.0,2.0,2.0,1.0,,,,,
,,,,,,,,,0.0,,,70,0.0,1.0,1.43095,,,,,,bean_06s.jpg,thorn_13s.jpg,,,,,,,,,,,,,0.0,3.0,3.0,3.0,1.0,,,,,
,,,,,,,,,0.0,,,70,0.0,1.0,1.65642,,,,,,kilt_18s.jpg,bee_20s.jpg,,,,,,,,,,,,,0.0,4.0,4.0,4.0,1.0,,,,,
,,,,,,,,,0.0,,,70,1.0,0.0,1.749295,,,,,,fur_coat_11s.jpg,lamp_08s.jpg,,,,,,,,,,,,,0.0,5.0,5.0,5.0,1.0,,,,,
,,,,,,,,,,,,70,,,,,,,,,,,,,,,,clock_present_2_18.xlsx,clock_compare_task_2_18.xlsx,,,,,,,,,,,0.0,1.0,1.0,1.0,1.0
0.0,1.0,1.648635,,,,,,thermostat_02s.jpg,0.0,clock_7_1.png,1.0,70,,,,,,,,,,,,,,,,,,0.0,0.0,0.0,0.0,1.0,,,,,,,,,,
1.0,1.0,1.71435,,,,,,thermostat_02s.jpg,1.0,clock_7_2.png,1.0,70,,,,,,,,,,,,,,,,,,0.0,1.0,1.0,1.0,1.0,,,,,,,,,,
0.0,1.0,1.71823,,,,,,raft_09s.jpg,0.0,clock_7_3.png,1.0,70,,,,,,,,,,,,,,,,,,0.0,2.0,2.0,2.0,1.0,,,,,,,,,,
0.0,1.0,1.526275,,,,,,magnet_03s.jpg,0.0,clock_7_4.png,1.0,70,,,,,,,,,,,,,,,,,,0.0,3.0,3.0,3.0,1.0,,,,,,,,,,
1.0,1.0,0.812195,,,,,,raft_09s.jpg,1.0,clock_7_5.png,1.0,70,,,,,,,,,,,,,,,,,,0.0,4.0,4.0,4.0,1.0,,,,,,,,,,
0.0,1.0,1.797625,,,,,,duck_01b.jpg,0.0,clock_7_6.png,1.0,70,,,,,,,,,,,,,,,,,,0.0,5.0,5.0,5.0,1.0,,,,,,,,,,
0.0,1.0,2.09843,,,,,,ring_03s.jpg,0.0,clock_7_7.png,1.0,70,,,,,,,,,,,,,,,,,,0.0,6.0,6.0,6.0,1.0,,,,,,,,,,
0.0,1.0,1.19555,,,,,,lectern_08s.jpg,0.0,clock_6_1.png,2.0,70,,,,,,,,,,,,,,,,,,0.0,7.0,7.0,7.0,1.0,,,,,,,,,,
0.0,1.0,1.995905,,,,,,orange_12s.jpg,0.0,clock_6_2.png,2.0,70,,,,,,,,,,,,,,,,,,0.0,8.0,8.0,8.0,1.0,,,,,,,,,,
0.0,1.0,1.62765,,,,,,swan_11s.jpg,0.0,clock_6_3.png,2.0,70,,,,,,,,,,,,,,,,,,0.0,9.0,9.0,9.0,1.0,,,,,,,,,,
0.0,1.0,2.29166,,,,,,seahorse_13s.jpg,0.0,clock_6_4.png,2.0,70,,,,,,,,,,,,,,,,,,0.0,10.0,10.0,10.0,1.0,,,,,,,,,,
0.0,1.0,1.555375,,,,,,mosquito_12s.jpg,0.0,clock_6_5.png,2.0,70,,,,,,,,,,,,,,,,,,0.0,11.0,11.0,11.0,1.0,,,,,,,,,,
0.0,1.0,2.139435,,,,,,leash_10s.jpg,0.0,clock_6_6.png,2.0,70,,,,,,,,,,,,,,,,,,0.0,12.0,12.0,12.0,1.0,,,,,,,,,,
0.0,1.0,1.41164,,,,,,rudder_02s.jpg,0.0,clock_5_1.png,3.0,70,,,,,,,,,,,,,,,,,,0.0,13.0,13.0,13.0,1.0,,,,,,,,,,
0.0,1.0,0.617845,,,,,,quilt_03s.jpg,0.0,clock_5_2.png,3.0,70,,,,,,,,,,,,,,,,,,0.0,14.0,14.0,14.0,1.0,,,,,,,,,,
0.0,1.0,0.6304,,,,,,peach_04s.jpg,0.0,clock_5_3.png,3.0,70,,,,,,,,,,,,,,,,,,0.0,15.0,15.0,15.0,1.0,,,,,,,,,,
1.0,1.0,0.77362,,,,,,quilt_03s.jpg,1.0,clock_5_4.png,3.0,70,,,,,,,,,,,,,,,,,,0.0,16.0,16.0,16.0,1.0,,,,,,,,,,
0.0,1.0,0.88257,,,,,,roller_coaster_07s.jpg,0.0,clock_5_5.png,3.0,70,,,,,,,,,,,,,,,,,,0.0,17.0,17.0,17.0,1.0,,,,,,,,,,
0.0,1.0,1.046425,,,,,,gargoyle_08s.jpg,0.0,clock_6_1.png,4.0,70,,,,,,,,,,,,,,,,,,0.0,18.0,18.0,18.0,1.0,,,,,,,,,,
0.0,1.0,1.39,,,,,,rudder_02s.jpg,0.0,clock_6_2.png,4.0,70,,,,,,,,,,,,,,,,,,0.0,19.0,19.0,19.0,1.0,,,,,,,,,,
0.0,1.0,1.58563,,,,,,mannequin_05s.jpg,0.0,clock_6_3.png,4.0,70,,,,,,,,,,,,,,,,,,0.0,20.0,20.0,20.0,1.0,,,,,,,,,,
0.0,1.0,1.16325,,,,,,machete_06s.jpg,0.0,clock_6_4.png,4.0,70,,,,,,,,,,,,,,,,,,0.0,21.0,21.0,21.0,1.0,,,,,,,,,,
0.0,1.0,1.43335,,,,,,mailbox_11s.jpg,0.0,clock_6_5.png,4.0,70,,,,,,,,,,,,,,,,,,0.0,22.0,22.0,22.0,1.0,,,,,,,,,,
0.0,1.0,1.166785,,,,,,ruby_15s.jpg,0.0,clock_6_6.png,4.0,70,,,,,,,,,,,,,,,,,,0.0,23.0,23.0,23.0,1.0,,,,,,,,,,
0.0,1.0,1.532125,,,,,,glasses01a.jpg,0.0,clock_7_1.png,5.0,70,,,,,,,,,,,,,,,,,,0.0,24.0,24.0,24.0,1.0,,,,,,,,,,
1.0,1.0,0.9682,,,,,,glasses01a.jpg,1.0,clock_7_2.png,5.0,70,,,,,,,,,,,,,,,,,,0.0,25.0,25.0,25.0,1.0,,,,,,,,,,
1.0,1.0,1.133185,,,,,,glasses01a.jpg,1.0,clock_7_3.png,5.0,70,,,,,,,,,,,,,,,,,,0.0,26.0,26.0,26.0,1.0,,,,,,,,,,
0.0,1.0,1.518025,,,,,,rolling_pin_02s.jpg,0.0,clock_7_4.png,5.0,70,,,,,,,,,,,,,,,,,,0.0,27.0,27.0,27.0,1.0,,,,,,,,,,
0.0,1.0,1.1648,,,,,,scooter.jpg,0.0,clock_7_5.png,5.0,70,,,,,,,,,,,,,,,,,,0.0,28.0,28.0,28.0,1.0,,,,,,,,,,
0.0,1.0,1.688045,,,,,,puffin_19s.jpg,0.0,clock_7_6.png,5.0,70,,,,,,,,,,,,,,,,,,0.0,29.0,29.0,29.0,1.0,,,,,,,,,,
0.0,1.0,1.760735,,,,,,roulette_wheel_04s.jpg,0.0,clock_7_7.png,5.0,70,,,,,,,,,,,,,,,,,,0.0,30.0,30.0,30.0,1.0,,,,,,,,,,
0.0,1.0,1.29603,,,,,,crab_16s.jpg,0.0,clock_5_1.png,6.0,70,,,,,,,,,,,,,,,,,,0.0,31.0,31.0,31.0,1.0,,,,,,,,,,
1.0,1.0,0.824505,,,,,,crab_16s.jpg,1.0,clock_5_2.png,6.0,70,,,,,,,,,,,,,,,,,,0.0,32.0,32.0,32.0,1.0,,,,,,,,,,
0.0,1.0,1.38048,,,,,,timer_03s.jpg,0.0,clock_5_3.png,6.0,70,,,,,,,,,,,,,,,,,,0.0,33.0,33.0,33.0,1.0,,,,,,,,,,
,0.0,,,,,,,paper_towel_03s.jpg,0.0,clock_5_4.png,6.0,70,,,,,,,,,,,,,,,,,,0.0,34.0,34.0,34.0,1.0,,,,,,,,,,
0.0,1.0,1.73681,,,,,,orange_12s.jpg,0.0,clock_5_5.png,6.0,70,,,,,,,,,,,,,,,,,,0.0,35.0,35.0,35.0,1.0,,,,,,,,,,
,,,,,,,,,1.0,,,70,1.0,1.0,1.57939,,,,,,leash_10s.jpg,peach_04s.jpg,,,,,,,,,,,,,0.0,0.0,0.0,0.0,1.0,,,,,
,,,,,,,,,0.0,,,70,1.0,0.0,8.244725,,,,,,mannequin_05s.jpg,roller_coaster_07s.jpg,,,,,,,,,,,,,0.0,1.0,1.0,1.0,1.0,,,,,
,,,,,,,,,0.0,,,70,0.0,1.0,2.22554,,,,,,timer_03s.jpg,roulette_wheel_04s.jpg,,,,,,,,,,,,,0.0,2.0,2.0,2.0,1.0,,,,,
,,,,,,,,,0.0,,,70,0.0,1.0,1.942715,,,,,,seahorse_13s.jpg,lectern_08s.jpg,,,,,,,,,,,,,0.0,3.0,3.0,3.0,1.0,,,,,
,,,,,,,,,0.0,,,70,0.0,1.0,1.6125,,,,,,ring_03s.jpg,magnet_03s.jpg,,,,,,,,,,,,,0.0,4.0,4.0,4.0,1.0,,,,,
,,,,,,,,,0.0,,,70,1.0,0.0,2.935375,,,,,,machete_06s.jpg,gargoyle_08s.jpg,,,,,,,,,,,,,0.0,5.0,5.0,5.0,1.0,,,,,
,,,,,,,,,,,,70,,,,,,,,,,,,,,,,clock_present_3_18.xlsx,clock_compare_task_3_18.xlsx,,,,,,,,,,,0.0,2.0,2.0,2.0,1.0
0.0,1.0,2.093085,,,,,,peeler_06s.jpg,0.0,clock_6_1.png,1.0,70,,,,,,,,,,,,,,,,,,0.0,0.0,0.0,0.0,1.0,,,,,,,,,,
0.0,1.0,1.498185,,,,,,flip_flop_03s.jpg,0.0,clock_6_2.png,1.0,70,,,,,,,,,,,,,,,,,,0.0,1.0,1.0,1.0,1.0,,,,,,,,,,
1.0,1.0,0.698005,,,,,,flip_flop_03s.jpg,1.0,clock_6_3.png,1.0,70,,,,,,,,,,,,,,,,,,0.0,2.0,2.0,2.0,1.0,,,,,,,,,,
0.0,1.0,0.838455,,,,,,orchid_01b.jpg,0.0,clock_6_4.png,1.0,70,,,,,,,,,,,,,,,,,,0.0,3.0,3.0,3.0,1.0,,,,,,,,,,
1.0,1.0,1.082525,,,,,,peeler_06s.jpg,1.0,clock_6_5.png,1.0,70,,,,,,,,,,,,,,,,,,0.0,4.0,4.0,4.0,1.0,,,,,,,,,,
0.0,1.0,0.94244,,,,,,machine_gun_09s.jpg,0.0,clock_6_6.png,1.0,70,,,,,,,,,,,,,,,,,,0.0,5.0,5.0,5.0,1.0,,,,,,,,,,
0.0,1.0,1.095865,,,,,,tattoo_14s.jpg,0.0,clock_5_1.png,2.0,70,,,,,,,,,,,,,,,,,,0.0,6.0,6.0,6.0,1.0,,,,,,,,,,
1.0,1.0,1.100615,,,,,,tattoo_14s.jpg,1.0,clock_5_2.png,2.0,70,,,,,,,,,,,,,,,,,,0.0,7.0,7.0,7.0,1.0,,,,,,,,,,
0.0,1.0,1.389195,,,,,,bolo_tie_08s.jpg,0.0,clock_5_3.png,2.0,70,,,,,,,,,,,,,,,,,,0.0,8.0,8.0,8.0,1.0,,,,,,,,,,
0.0,1.0,1.279005,,,,,,petri_dish_12s.jpg,0.0,clock_5_4.png,2.0,70,,,,,,,,,,,,,,,,,,0.0,9.0,9.0,9.0,1.0,,,,,,,,,,
0.0,1.0,1.099555,,,,,,mushroom_10n.jpg,0.0,clock_5_5.png,2.0,70,,,,,,,,,,,,,,,,,,0.0,10.0,10.0,10.0,1.0,,,,,,,,,,
0.0,1.0,1.467875,,,,,,tape_06s.jpg,0.0,clock_7_1.png,3.0,70,,,,,,,,,,,,,,,,,,0.0,11.0,11.0,11.0,1.0,,,,,,,,,,
1.0,1.0,0.884425,,,,,,tape_06s.jpg,1.0,clock_7_2.png,3.0,70,,,,,,,,,,,,,,,,,,0.0,12.0,12.0,12.0,1.0,,,,,,,,,,
1.0,1.0,1.03007,,,,,,tape_06s.jpg,1.0,clock_7_3.png,3.0,70,,,,,,,,,,,,,,,,,,0.0,13.0,13.0,13.0,1.0,,,,,,,,,,
0.0,1.0,1.11792,,,,,,rug_09s.jpg,0.0,clock_7_4.png,3.0,70,,,,,,,,,,,,,,,,,,0.0,14.0,14.0,14.0,1.0,,,,,,,,,,
0.0,1.0,1.760295,,,,,,teabag_12s.jpg,0.0,clock_7_5.png,3.0,70,,,,,,,,,,,,,,,,,,0.0,15.0,15.0,15.0,1.0,,,,,,,,,,
1.0,0.0,1.390675,,,,,,jet_15s.jpg,0.0,clock_7_6.png,3.0,70,,,,,,,,,,,,,,,,,,0.0,16.0,16.0,16.0,1.0,,,,,,,,,,
0.0,1.0,1.67005,,,,,,throne_11s.jpg,0.0,clock_7_7.png,3.0,70,,,,,,,,,,,,,,,,,,0.0,17.0,17.0,17.0,1.0,,,,,,,,,,
0.0,1.0,1.78471,,,,,,padlock_07s.jpg,0.0,clock_5_1.png,4.0,70,,,,,,,,,,,,,,,,,,0.0,18.0,18.0,18.0,1.0,,,,,,,,,,
1.0,1.0,0.823105,,,,,,padlock_07s.jpg,1.0,clock_5_2.png,4.0,70,,,,,,,,,,,,,,,,,,0.0,19.0,19.0,19.0,1.0,,,,,,,,,,
0.0,1.0,1.360055,,,,,,purse_05s.jpg,0.0,clock_5_3.png,4.0,70,,,,,,,,,,,,,,,,,,0.0,20.0,20.0,20.0,1.0,,,,,,,,,,
0.0,1.0,1.53004,,,,,,snowman_02s.jpg,0.0,clock_5_4.png,4.0,70,,,,,,,,,,,,,,,,,,0.0,21.0,21.0,21.0,1.0,,,,,,,,,,
1.0,1.0,1.09287,,,,,,purse_05s.jpg,1.0,clock_5_5.png,4.0,70,,,,,,,,,,,,,,,,,,0.0,22.0,22.0,22.0,1.0,,,,,,,,,,
0.0,1.0,1.334835,,,,,,cotton_candy_01b.jpg,0.0,clock_6_1.png,5.0,70,,,,,,,,,,,,,,,,,,0.0,23.0,23.0,23.0,1.0,,,,,,,,,,
0.0,1.0,1.775135,,,,,,lollipop_08s.jpg,0.0,clock_6_2.png,5.0,70,,,,,,,,,,,,,,,,,,0.0,24.0,24.0,24.0,1.0,,,,,,,,,,
0.0,1.0,1.713825,,,,,,birthday_cake_09s.jpg,0.0,clock_6_3.png,5.0,70,,,,,,,,,,,,,,,,,,0.0,25.0,25.0,25.0,1.0,,,,,,,,,,
0.0,1.0,2.31414,,,,,,pipe1_10s.jpg,0.0,clock_6_4.png,5.0,70,,,,,,,,,,,,,,,,,,0.0,26.0,26.0,26.0,1.0,,,,,,,,,,
0.0,1.0,1.62517,,,,,,totem_pole_05s.jpg,0.0,clock_6_5.png,5.0,70,,,,,,,,,,,,,,,,,,0.0,27.0,27.0,27.0,1.0,,,,,,,,,,
0.0,1.0,1.238895,,,,,,teapot_03s.jpg,0.0,clock_6_6.png,5.0,70,,,,,,,,,,,,,,,,,,0.0,28.0,28.0,28.0,1.0,,,,,,,,,,
0.0,1.0,1.280195,,,,,,polaroid_05s.jpg,0.0,clock_7_1.png,6.0,70,,,,,,,,,,,,,,,,,,0.0,29.0,29.0,29.0,1.0,,,,,,,,,,
0.0,1.0,1.931025,,,,,,marker_05s.jpg,0.0,clock_7_2.png,6.0,70,,,,,,,,,,,,,,,,,,0.0,30.0,30.0,30.0,1.0,,,,,,,,,,
0.0,1.0,2.15331,,,,,,pacifier_09s.jpg,0.0,clock_7_3.png,6.0,70,,,,,,,,,,,,,,,,,,0.0,31.0,31.0,31.0,1.0,,,,,,,,,,
0.0,1.0,1.366295,,,,,,comic_book_02s.jpg,0.0,clock_7_4.png,6.0,70,,,,,,,,,,,,,,,,,,0.0,32.0,32.0,32.0,1.0,,,,,,,,,,
0.0,1.0,1.792905,,,,,,telephone_pole_05s.jpg,0.0,clock_7_5.png,6.0,70,,,,,,,,,,,,,,,,,,0.0,33.0,33.0,33.0,1.0,,,,,,,,,,
0.0,1.0,1.5826,,,,,,turnstile_08s.jpg,0.0,clock_7_6.png,6.0,70,,,,,,,,,,,,,,,,,,0.0,34.0,34.0,34.0,1.0,,,,,,,,,,
0.0,1.0,1.34423,,,,,,jersey_02s.jpg,0.0,clock_7_7.png,6.0,70,,,,,,,,,,,,,,,,,,0.0,35.0,35.0,35.0,1.0,,,,,,,,,,
,,,,,,,,,0.0,,,70,0.0,1.0,1.77993,,,,,,bolo_tie_08s.jpg,machine_gun_09s.jpg,,,,,,,,,,,,,0.0,0.0,0.0,0.0,1.0,,,,,
,,,,,,,,,0.0,,,70,0.0,1.0,2.493665,,,,,,lollipop_08s.jpg,snowman_02s.jpg,,,,,,,,,,,,,0.0,1.0,1.0,1.0,1.0,,,,,
,,,,,,,,,1.0,,,70,0.0,0.0,2.250945,,,,,,pipe1_10s.jpg,polaroid_05s.jpg,,,,,,,,,,,,,0.0,2.0,2.0,2.0,1.0,,,,,
,,,,,,,,,1.0,,,70,1.0,1.0,1.443945,,,,,,rug_09s.jpg,throne_11s.jpg,,,,,,,,,,,,,0.0,3.0,3.0,3.0,1.0,,,,,
,,,,,,,,,0.0,,,70,0.0,1.0,4.324755,,,,,,jersey_02s.jpg,comic_book_02s.jpg,,,,,,,,,,,,,0.0,4.0,4.0,4.0,1.0,,,,,
,,,,,,,,,0.0,,,70,1.0,0.0,4.621485,,,,,,teapot_03s.jpg,birthday_cake_09s.jpg,,,,,,,,,,,,,0.0,5.0,5.0,5.0,1.0,,,,,
,,,,,,,,,,,,70,,,,,,,,,,,,,,,,clock_present_4_18.xlsx,clock_compare_task_4_18.xlsx,,,,,,,,,,,0.0,3.0,3.0,3.0,1.0
0.0,1.0,1.60441,,,,,,plunger_08s.jpg,0.0,clock_7_1.png,1.0,70,,,,,,,,,,,,,,,,,,0.0,0.0,0.0,0.0,1.0,,,,,,,,,,
0.0,1.0,1.806555,,,,,,footprint_11s.jpg,0.0,clock_7_2.png,1.0,70,,,,,,,,,,,,,,,,,,0.0,1.0,1.0,1.0,1.0,,,,,,,,,,
1.0,1.0,0.980915,,,,,,plunger_08s.jpg,1.0,clock_7_3.png,1.0,70,,,,,,,,,,,,,,,,,,0.0,2.0,2.0,2.0,1.0,,,,,,,,,,
0.0,1.0,1.192565,,,,,,pepper2_21s.jpg,0.0,clock_7_4.png,1.0,70,,,,,,,,,,,,,,,,,,0.0,3.0,3.0,3.0,1.0,,,,,,,,,,
0.0,1.0,1.178055,,,,,,mitten_10s.jpg,0.0,clock_7_5.png,1.0,70,,,,,,,,,,,,,,,,,,0.0,4.0,4.0,4.0,1.0,,,,,,,,,,
0.0,1.0,1.161255,,,,,,dynamite_01b.jpg,0.0,clock_7_6.png,1.0,70,,,,,,,,,,,,,,,,,,0.0,5.0,5.0,5.0,1.0,,,,,,,,,,
0.0,1.0,1.744085,,,,,,recliner_02s.jpg,0.0,clock_7_7.png,1.0,70,,,,,,,,,,,,,,,,,,0.0,6.0,6.0,6.0,1.0,,,,,,,,,,
0.0,1.0,2.21753,,,,,,crossbow_10s.jpg,0.0,clock_7_1.png,2.0,70,,,,,,,,,,,,,,,,,,0.0,7.0,7.0,7.0,1.0,,,,,,,,,,
0.0,1.0,1.83705,,,,,,fondue_07s.jpg,0.0,clock_7_2.png,2.0,70,,,,,,,,,,,,,,,,,,0.0,8.0,8.0,8.0,1.0,,,,,,,,,,
0.0,1.0,2.42333,,,,,,sushi_08s.jpg,0.0,clock_7_3.png,2.0,70,,,,,,,,,,,,,,,,,,0.0,9.0,9.0,9.0,1.0,,,,,,,,,,
1.0,1.0,0.927905,,,,,,fondue_07s.jpg,1.0,clock_7_4.png,2.0,70,,,,,,,,,,,,,,,,,,0.0,10.0,10.0,10.0,1.0,,,,,,,,,,
0.0,1.0,0.7673,,,,,,tiara_05s.jpg,0.0,clock_7_5.png,2.0,70,,,,,,,,,,,,,,,,,,0.0,11.0,11.0,11.0,1.0,,,,,,,,,,
0.0,1.0,1.12579,,,,,,contact_lens_15s.jpg,0.0,clock_7_6.png,2.0,70,,,,,,,,,,,,,,,,,,0.0,12.0,12.0,12.0,1.0,,,,,,,,,,
0.0,1.0,1.13459,,,,,,plunger_08s.jpg,0.0,clock_7_7.png,2.0,70,,,,,,,,,,,,,,,,,,0.0,13.0,13.0,13.0,1.0,,,,,,,,,,
0.0,1.0,0.72979,,,,,,polar_bear_02s.jpg,0.0,clock_5_1.png,3.0,70,,,,,,,,,,,,,,,,,,0.0,14.0,14.0,14.0,1.0,,,,,,,,,,
0.0,1.0,1.26714,,,,,,cereal_04s.jpg,0.0,clock_5_2.png,3.0,70,,,,,,,,,,,,,,,,,,0.0,15.0,15.0,15.0,1.0,,,,,,,,,,
0.0,1.0,1.183105,,,,,,hummingbird_05s.jpg,0.0,clock_5_3.png,3.0,70,,,,,,,,,,,,,,,,,,0.0,16.0,16.0,16.0,1.0,,,,,,,,,,
1.0,1.0,0.81729,,,,,,polar_bear_02s.jpg,1.0,clock_5_4.png,3.0,70,,,,,,,,,,,,,,,,,,0.0,17.0,17.0,17.0,1.0,,,,,,,,,,
0.0,1.0,0.8984,,,,,,omelet_07s.jpg,0.0,clock_5_5.png,3.0,70,,,,,,,,,,,,,,,,,,0.0,18.0,18.0,18.0,1.0,,,,,,,,,,
0.0,1.0,0.599935,,,,,,buoy_04s.jpg,0.0,clock_6_1.png,4.0,70,,,,,,,,,,,,,,,,,,0.0,19.0,19.0,19.0,1.0,,,,,,,,,,
0.0,1.0,1.197115,,,,,,dynamite_01b.jpg,0.0,clock_6_2.png,4.0,70,,,,,,,,,,,,,,,,,,0.0,20.0,20.0,20.0,1.0,,,,,,,,,,
0.0,1.0,1.24831,,,,,,peanut_butter_08s.jpg,0.0,clock_6_3.png,4.0,70,,,,,,,,,,,,,,,,,,0.0,21.0,21.0,21.0,1.0,,,,,,,,,,
0.0,0.0,1.76408,,,,,,buoy_04s.jpg,1.0,clock_6_4.png,4.0,70,,,,,,,,,,,,,,,,,,0.0,22.0,22.0,22.0,1.0,,,,,,,,,,
0.0,1.0,1.44369,,,,,,tripod_01b.jpg,0.0,clock_6_5.png,4.0,70,,,,,,,,,,,,,,,,,,0.0,23.0,23.0,23.0,1.0,,,,,,,,,,
1.0,1.0,0.800175,,,,,,tripod_01b.jpg,1.0,clock_6_6.png,4.0,70,,,,,,,,,,,,,,,,,,0.0,24.0,24.0,24.0,1.0,,,,,,,,,,
0.0,1.0,1.16211,,,,,,spoon02a.jpg,0.0,clock_5_1.png,5.0,70,,,,,,,,,,,,,,,,,,0.0,25.0,25.0,25.0,1.0,,,,,,,,,,
0.0,1.0,1.49696,,,,,,spatula04.jpg,0.0,clock_5_2.png,5.0,70,,,,,,,,,,,,,,,,,,0.0,26.0,26.0,26.0,1.0,,,,,,,,,,
0.0,1.0,1.7834,,,,,,sugar_cube_11s.jpg,0.0,clock_5_3.png,5.0,70,,,,,,,,,,,,,,,,,,0.0,27.0,27.0,27.0,1.0,,,,,,,,,,
0.0,1.0,1.41545,,,,,,recliner_02s.jpg,0.0,clock_5_4.png,5.0,70,,,,,,,,,,,,,,,,,,0.0,28.0,28.0,28.0,1.0,,,,,,,,,,
0.0,1.0,0.63355,,,,,,stethoscope_01b.jpg,0.0,clock_5_5.png,5.0,70,,,,,,,,,,,,,,,,,,0.0,29.0,29.0,29.0,1.0,,,,,,,,,,
0.0,1.0,0.994415,,,,,,coconut_08s.jpg,0.0,clock_6_1.png,6.0,70,,,,,,,,,,,,,,,,,,0.0,30.0,30.0,30.0,1.0,,,,,,,,,,
0.0,1.0,1.673185,,,,,,pocketknife_12s.jpg,0.0,clock_6_2.png,6.0,70,,,,,,,,,,,,,,,,,,0.0,31.0,31.0,31.0,1.0,,,,,,,,,,
0.0,1.0,1.032595,,,,,,jigsaw_puzzle_11s.jpg,0.0,clock_6_3.png,6.0,70,,,,,,,,,,,,,,,,,,0.0,32.0,32.0,32.0,1.0,,,,,,,,,,
0.0,1.0,1.338115,,,,,,denture_03s.jpg,0.0,clock_6_4.png,6.0,70,,,,,,,,,,,,,,,,,,0.0,33.0,33.0,33.0,1.0,,,,,,,,,,
0.0,1.0,1.587745,,,,,,mask_09s.jpg,0.0,clock_6_5.png,6.0,70,,,,,,,,,,,,,,,,,,0.0,34.0,34.0,34.0,1.0,,,,,,,,,,
0.0,1.0,1.73816,,,,,,ivy_12s.jpg,0.0,clock_6_6.png,6.0,70,,,,,,,,,,,,,,,,,,0.0,35.0,35.0,35.0,1.0,,,,,,,,,,
,,,,,,,,,0.0,,,70,0.0,1.0,2.824175,,,,,,crossbow_10s.jpg,mitten_10s.jpg,,,,,,,,,,,,,0.0,0.0,0.0,0.0,1.0,,,,,
,,,,,,,,,0.0,,,70,1.0,0.0,2.449215,,,,,,peanut_butter_08s.jpg,omelet_07s.jpg,,,,,,,,,,,,,0.0,1.0,1.0,1.0,1.0,,,,,
,,,,,,,,,1.0,,,70,0.0,0.0,3.037975,,,,,,sugar_cube_11s.jpg,coconut_08s.jpg,,,,,,,,,,,,,0.0,2.0,2.0,2.0,1.0,,,,,
,,,,,,,,,1.0,,,70,1.0,1.0,1.34864,,,,,,pocketknife_12s.jpg,mask_09s.jpg,,,,,,,,,,,,,0.0,3.0,3.0,3.0,1.0,,,,,
,,,,,,,,,0.0,,,70,1.0,0.0,5.2285,,,,,,contact_lens_15s.jpg,sushi_08s.jpg,,,,,,,,,,,,,0.0,4.0,4.0,4.0,1.0,,,,,
,,,,,,,,,0.0,,,70,0.0,1.0,1.585995,,,,,,stethoscope_01b.jpg,spatula04.jpg,,,,,,,,,,,,,0.0,5.0,5.0,5.0,1.0,,,,,
,,,,,,,,,,,,70,,,,,,,,,,,,,,,,clock_present_5_18.xlsx,clock_compare_task_5_18.xlsx,,,,,,,,,,,0.0,4.0,4.0,4.0,1.0
0.0,1.0,1.42723,,,,,,kite_04s.jpg,0.0,clock_5_1.png,1.0,70,,,,,,,,,,,,,,,,,,0.0,0.0,0.0,0.0,1.0,,,,,,,,,,
0.0,1.0,2.04796,,,,,,pretzel_09s.jpg,0.0,clock_5_2.png,1.0,70,,,,,,,,,,,,,,,,,,0.0,1.0,1.0,1.0,1.0,,,,,,,,,,
0.0,1.0,1.27355,,,,,,diving_board_07s.jpg,0.0,clock_5_3.png,1.0,70,,,,,,,,,,,,,,,,,,0.0,2.0,2.0,2.0,1.0,,,,,,,,,,
0.0,1.0,1.705355,,,,,,prism_10s.jpg,0.0,clock_5_4.png,1.0,70,,,,,,,,,,,,,,,,,,0.0,3.0,3.0,3.0,1.0,,,,,,,,,,
0.0,1.0,1.46848,,,,,,plug_08s.jpg,0.0,clock_5_5.png,1.0,70,,,,,,,,,,,,,,,,,,0.0,4.0,4.0,4.0,1.0,,,,,,,,,,
0.0,1.0,2.398455,,,,,,antenna_01b.jpg,0.0,clock_7_1.png,2.0,70,,,,,,,,,,,,,,,,,,0.0,5.0,5.0,5.0,1.0,,,,,,,,,,
1.0,0.0,1.633095,,,,,,pretzel_09s.jpg,0.0,clock_7_2.png,2.0,70,,,,,,,,,,,,,,,,,,0.0,6.0,6.0,6.0,1.0,,,,,,,,,,
0.0,1.0,0.947535,,,,,,mug_06s.jpg,0.0,clock_7_3.png,2.0,70,,,,,,,,,,,,,,,,,,0.0,7.0,7.0,7.0,1.0,,,,,,,,,,
1.0,1.0,0.713595,,,,,,antenna_01b.jpg,1.0,clock_7_4.png,2.0,70,,,,,,,,,,,,,,,,,,0.0,8.0,8.0,8.0,1.0,,,,,,,,,,
0.0,1.0,1.469645,,,,,,sledgehammer_03s.jpg,0.0,clock_7_5.png,2.0,70,,,,,,,,,,,,,,,,,,0.0,9.0,9.0,9.0,1.0,,,,,,,,,,
0.0,1.0,2.17916,,,,,,plug_08s.jpg,0.0,clock_7_6.png,2.0,70,,,,,,,,,,,,,,,,,,0.0,10.0,10.0,10.0,1.0,,,,,,,,,,
0.0,1.0,2.15443,,,,,,gas_mask_11s.jpg,0.0,clock_7_7.png,2.0,70,,,,,,,,,,,,,,,,,,0.0,11.0,11.0,11.0,1.0,,,,,,,,,,
0.0,1.0,1.509605,,,,,,coat_rack_01b.jpg,0.0,clock_7_1.png,3.0,70,,,,,,,,,,,,,,,,,,0.0,12.0,12.0,12.0,1.0,,,,,,,,,,
0.0,1.0,2.06598,,,,,,ladle_04s.jpg,0.0,clock_7_2.png,3.0,70,,,,,,,,,,,,,,,,,,0.0,13.0,13.0,13.0,1.0,,,,,,,,,,
0.0,1.0,1.433295,,,,,,fishhook_06s.jpg,0.0,clock_7_3.png,3.0,70,,,,,,,,,,,,,,,,,,0.0,14.0,14.0,14.0,1.0,,,,,,,,,,
0.0,1.0,1.41375,,,,,,camcorder_10s.jpg,0.0,clock_7_4.png,3.0,70,,,,,,,,,,,,,,,,,,0.0,15.0,15.0,15.0,1.0,,,,,,,,,,
0.0,1.0,1.094955,,,,,,koala_13s.jpg,0.0,clock_7_5.png,3.0,70,,,,,,,,,,,,,,,,,,0.0,16.0,16.0,16.0,1.0,,,,,,,,,,
0.0,1.0,0.7991,,,,,,treadmill_06s.jpg,0.0,clock_7_6.png,3.0,70,,,,,,,,,,,,,,,,,,0.0,17.0,17.0,17.0,1.0,,,,,,,,,,
0.0,1.0,1.060485,,,,,,jukebox_03n.jpg,0.0,clock_7_7.png,3.0,70,,,,,,,,,,,,,,,,,,0.0,18.0,18.0,18.0,1.0,,,,,,,,,,
0.0,1.0,1.447415,,,,,,trident_07s.jpg,0.0,clock_6_1.png,4.0,70,,,,,,,,,,,,,,,,,,0.0,19.0,19.0,19.0,1.0,,,,,,,,,,
0.0,1.0,1.314005,,,,,,loveseat_08s.jpg,0.0,clock_6_2.png,4.0,70,,,,,,,,,,,,,,,,,,0.0,20.0,20.0,20.0,1.0,,,,,,,,,,
0.0,1.0,1.002335,,,,,,muffin_12n.jpg,0.0,clock_6_3.png,4.0,70,,,,,,,,,,,,,,,,,,0.0,21.0,21.0,21.0,1.0,,,,,,,,,,
0.0,1.0,0.759295,,,,,,squirrel_02s.jpg,0.0,clock_6_4.png,4.0,70,,,,,,,,,,,,,,,,,,0.0,22.0,22.0,22.0,1.0,,,,,,,,,,
0.0,1.0,1.167005,,,,,,gas_mask_11s.jpg,0.0,clock_6_5.png,4.0,70,,,,,,,,,,,,,,,,,,0.0,23.0,23.0,23.0,1.0,,,,,,,,,,
0.0,1.0,1.244505,,,,,,birdcage_08s.jpg,0.0,clock_6_6.png,4.0,70,,,,,,,,,,,,,,,,,,0.0,24.0,24.0,24.0,1.0,,,,,,,,,,
0.0,1.0,0.73472,,,,,,sea_urchin_09s.jpg,0.0,clock_5_1.png,5.0,70,,,,,,,,,,,,,,,,,,0.0,25.0,25.0,25.0,1.0,,,,,,,,,,
0.0,1.0,0.73442,,,,,,lizard_10n.jpg,0.0,clock_5_2.png,5.0,70,,,,,,,,,,,,,,,,,,0.0,26.0,26.0,26.0,1.0,,,,,,,,,,
0.0,1.0,1.19972,,,,,,refrigerator_07s.jpg,0.0,clock_5_3.png,5.0,70,,,,,,,,,,,,,,,,,,0.0,27.0,27.0,27.0,1.0,,,,,,,,,,
0.0,1.0,0.702185,,,,,,toilet_paper_12s.jpg,0.0,clock_5_4.png,5.0,70,,,,,,,,,,,,,,,,,,0.0,28.0,28.0,28.0,1.0,,,,,,,,,,
0.0,1.0,1.380245,,,,,,pantyhose_07s.jpg,0.0,clock_5_5.png,5.0,70,,,,,,,,,,,,,,,,,,0.0,29.0,29.0,29.0,1.0,,,,,,,,,,
0.0,1.0,0.778925,,,,,,screwdriver02a.jpg,0.0,clock_6_1.png,6.0,70,,,,,,,,,,,,,,,,,,0.0,30.0,30.0,30.0,1.0,,,,,,,,,,
0.0,1.0,1.40082,,,,,,toaster_03s.jpg,0.0,clock_6_2.png,6.0,70,,,,,,,,,,,,,,,,,,0.0,31.0,31.0,31.0,1.0,,,,,,,,,,
0.0,1.0,0.74723,,,,,,toad_09s.jpg,0.0,clock_6_3.png,6.0,70,,,,,,,,,,,,,,,,,,0.0,32.0,32.0,32.0,1.0,,,,,,,,,,
0.0,1.0,1.200825,,,,,,pincushion_10s.jpg,0.0,clock_6_4.png,6.0,70,,,,,,,,,,,,,,,,,,0.0,33.0,33.0,33.0,1.0,,,,,,,,,,
,0.0,,,,,,,screwdriver02a.jpg,1.0,clock_6_5.png,6.0,70,,,,,,,,,,,,,,,,,,0.0,34.0,34.0,34.0,1.0,,,,,,,,,,
0.0,1.0,1.5458,,,,,,coat_rack_01b.jpg,0.0,clock_6_6.png,6.0,70,,,,,,,,,,,,,,,,,,0.0,35.0,35.0,35.0,1.0,,,,,,,,,,
,,,,,,,,,0.0,,,70,1.0,0.0,2.72713,,,,,,loveseat_08s.jpg,treadmill_06s.jpg,,,,,,,,,,,,,0.0,0.0,0.0,0.0,1.0,,,,,
,,,,,,,,,1.0,,,70,0.0,0.0,2.420335,,,,,,birdcage_08s.jpg,refrigerator_07s.jpg,,,,,,,,,,,,,0.0,1.0,1.0,1.0,1.0,,,,,
,,,,,,,,,0.0,,,70,1.0,0.0,1.25101,,,,,,toaster_03s.jpg,toilet_paper_12s.jpg,,,,,,,,,,,,,0.0,2.0,2.0,2.0,1.0,,,,,
,,,,,,,,,0.0,,,70,0.0,1.0,1.65479,,,,,,prism_10s.jpg,kite_04s.jpg,,,,,,,,,,,,,0.0,3.0,3.0,3.0,1.0,,,,,
,,,,,,,,,1.0,,,70,1.0,1.0,2.053465,,,,,,ladle_04s.jpg,koala_13s.jpg,,,,,,,,,,,,,0.0,4.0,4.0,4.0,1.0,,,,,
,,,,,,,,,1.0,,,70,1.0,1.0,1.4604,,,,,,camcorder_10s.jpg,jukebox_03n.jpg,,,,,,,,,,,,,0.0,5.0,5.0,5.0,1.0,,,,,
