key_resp.keys,key_resp.corr,key_resp.rt,noclock_loop.thisRepN,noclock_loop.thisTrialN,noclock_loop.thisN,noclock_loop.thisIndex,noclock_loop.ran,pictures,answer,clock,segment,participant,key_resp_2.keys,key_resp_2.corr,key_resp_2.rt,noclock_loop2.thisRepN,noclock_loop2.thisTrialN,noclock_loop2.thisN,noclock_loop2.thisIndex,noclock_loop2.ran,item_a,item_b,noclock_condition.thisRepN,noclock_condition.thisTrialN,noclock_condition.thisN,noclock_condition.thisIndex,noclock_condition.ran,present,compare,present_segment.thisRepN,present_segment.thisTrialN,present_segment.thisN,present_segment.thisIndex,present_segment.ran,compare_segment.thisRepN,compare_segment.thisTrialN,compare_segment.thisN,compare_segment.thisIndex,compare_segment.ran,clock_conditions.thisRepN,clock_conditions.thisTrialN,clock_conditions.thisN,clock_conditions.thisIndex,clock_conditions.ran
0.0,1.0,1.882115,0.0,0.0,0.0,0.0,1.0,marshmallow_08s.jpg,0.0,clockno_up.jpg,1.0,55,,,,,,,,,,,,,,,,,,,,,,,,,,,,,,,,
0.0,1.0,2.07841,0.0,1.0,1.0,1.0,1.0,exhaust_pipe_10s.jpg,0.0,clockno_default.jpg,1.0,55,,,,,,,,,,,,,,,,,,,,,,,,,,,,,,,,
0.0,1.0,1.279515,0.0,2.0,2.0,2.0,1.0,olive_05s.jpg,0.0,clockno_default.jpg,1.0,55,,,,,,,,,,,,,,,,,,,,,,,,,,,,,,,,
0.0,1.0,0.892125,0.0,3.0,3.0,3.0,1.0,chime_12s.jpg,0.0,clockno_default.jpg,1.0,55,,,,,,,,,,,,,,,,,,,,,,,,,,,,,,,,
0.0,1.0,1.101235,0.0,4.0,4.0,4.0,1.0,safety_pin_02s.jpg,0.0,clockno_default.jpg,1.0,55,,,,,,,,,,,,,,,,,,,,,,,,,,,,,,,,
0.0,1.0,1.407955,0.0,5.0,5.0,5.0,1.0,squirt_gun_03s.jpg,0.0,clockno_default.jpg,1.0,55,,,,,,,,,,,,,,,,,,,,,,,,,,,,,,,,
0.0,1.0,1.09299,0.0,6.0,6.0,6.0,1.0,seagull_01b.jpg,0.0,clockno_default.jpg,1.0,55,,,,,,,,,,,,,,,,,,,,,,,,,,,,,,,,
0.0,1.0,0.77402,0.0,7.0,7.0,7.0,1.0,sunflower_17s.jpg,0.0,clockno_up.jpg,2.0,55,,,,,,,,,,,,,,,,,,,,,,,,,,,,,,,,
0.0,1.0,0.64683,0.0,8.0,8.0,8.0,1.0,tile_08s.jpg,0.0,clockno_default.jpg,2.0,55,,,,,,,,,,,,,,,,,,,,,,,,,,,,,,,,
0.0,1.0,0.795175,0.0,9.0,9.0,9.0,1.0,butter_14s.jpg,0.0,clockno_default.jpg,2.0,55,,,,,,,,,,,,,,,,,,,,,,,,,,,,,,,,
1.0,1.0,1.291975,0.0,10.0,10.0,10.0,1.0,butter_14s.jpg,1.0,clockno_default.jpg,2.0,55,,,,,,,,,,,,,,,,,,,,,,,,,,,,,,,,
1.0,0.0,0.99699,0.0,11.0,11.0,11.0,1.0,safety_pin_02s.jpg,0.0,clockno_default.jpg,2.0,55,,,,,,,,,,,,,,,,,,,,,,,,,,,,,,,,
0.0,1.0,0.8315,0.0,12.0,12.0,12.0,1.0,owl_15s.jpg,0.0,clockno_default.jpg,2.0,55,,,,,,,,,,,,,,,,,,,,,,,,,,,,,,,,
0.0,1.0,0.796375,0.0,13.0,13.0,13.0,1.0,trampoline_13s.jpg,0.0,clockno_up.jpg,3.0,55,,,,,,,,,,,,,,,,,,,,,,,,,,,,,,,,
0.0,1.0,0.76107,0.0,14.0,14.0,14.0,1.0,penguin_16s.jpg,0.0,clockno_default.jpg,3.0,55,,,,,,,,,,,,,,,,,,,,,,,,,,,,,,,,
0.0,1.0,1.089735,0.0,15.0,15.0,15.0,1.0,espresso_01b.jpg,0.0,clockno_default.jpg,3.0,55,,,,,,,,,,,,,,,,,,,,,,,,,,,,,,,,
0.0,1.0,0.783515,0.0,16.0,16.0,16.0,1.0,smokingpipe.jpg,0.0,clockno_default.jpg,3.0,55,,,,,,,,,,,,,,,,,,,,,,,,,,,,,,,,
0.0,1.0,0.847345,0.0,17.0,17.0,17.0,1.0,ginger_09s.jpg,0.0,clockno_default.jpg,3.0,55,,,,,,,,,,,,,,,,,,,,,,,,,,,,,,,,
0.0,1.0,0.745695,0.0,18.0,18.0,18.0,1.0,lamb_04s.jpg,0.0,clockno_default.jpg,3.0,55,,,,,,,,,,,,,,,,,,,,,,,,,,,,,,,,
0.0,1.0,0.83553,0.0,19.0,19.0,19.0,1.0,tortilla_06s.jpg,0.0,clockno_default.jpg,3.0,55,,,,,,,,,,,,,,,,,,,,,,,,,,,,,,,,
0.0,1.0,0.64685,0.0,20.0,20.0,20.0,1.0,medal_04s.jpg,0.0,clockno_up.jpg,4.0,55,,,,,,,,,,,,,,,,,,,,,,,,,,,,,,,,
0.0,1.0,0.652575,0.0,21.0,21.0,21.0,1.0,laser_pointer_02s.jpg,0.0,clockno_default.jpg,4.0,55,,,,,,,,,,,,,,,,,,,,,,,,,,,,,,,,
0.0,1.0,0.68891,0.0,22.0,22.0,22.0,1.0,mango_09s.jpg,0.0,clockno_default.jpg,4.0,55,,,,,,,,,,,,,,,,,,,,,,,,,,,,,,,,
1.0,1.0,1.1677,0.0,23.0,23.0,23.0,1.0,medal_04s.jpg,1.0,clockno_default.jpg,4.0,55,,,,,,,,,,,,,,,,,,,,,,,,,,,,,,,,
0.0,1.0,0.949495,0.0,24.0,24.0,24.0,1.0,fire_alarm_05s.jpg,0.0,clockno_default.jpg,4.0,55,,,,,,,,,,,,,,,,,,,,,,,,,,,,,,,,
0.0,1.0,0.70874,0.0,25.0,25.0,25.0,1.0,tape_measure_11s.jpg,0.0,clockno_up.jpg,5.0,55,,,,,,,,,,,,,,,,,,,,,,,,,,,,,,,,
0.0,1.0,0.785645,0.0,26.0,26.0,26.0,1.0,piano_13n.jpg,0.0,clockno_default.jpg,5.0,55,,,,,,,,,,,,,,,,,,,,,,,,,,,,,,,,
0.0,1.0,0.71215,0.0,27.0,27.0,27.0,1.0,harpoon.jpg,0.0,clockno_default.jpg,5.0,55,,,,,,,,,,,,,,,,,,,,,,,,,,,,,,,,
0.0,1.0,0.782755,0.0,28.0,28.0,28.0,1.0,lemonade_04s.jpg,0.0,clockno_default.jpg,5.0,55,,,,,,,,,,,,,,,,,,,,,,,,,,,,,,,,
0.0,1.0,0.606915,0.0,29.0,29.0,29.0,1.0,thumbtack_14s.jpg,0.0,clockno_default.jpg,5.0,55,,,,,,,,,,,,,,,,,,,,,,,,,,,,,,,,
0.0,1.0,0.810415,0.0,30.0,30.0,30.0,1.0,ink_08s.jpg,0.0,clockno_default.jpg,5.0,55,,,,,,,,,,,,,,,,,,,,,,,,,,,,,,,,
0.0,1.0,0.946645,0.0,31.0,31.0,31.0,1.0,pencil_sharpener_09n.jpg,0.0,clockno_up.jpg,6.0,55,,,,,,,,,,,,,,,,,,,,,,,,,,,,,,,,
0.0,1.0,0.71155,0.0,32.0,32.0,32.0,1.0,hydrant_10s.jpg,0.0,clockno_default.jpg,6.0,55,,,,,,,,,,,,,,,,,,,,,,,,,,,,,,,,
0.0,1.0,0.61111,0.0,33.0,33.0,33.0,1.0,punch1_10s.jpg,0.0,clockno_default.jpg,6.0,55,,,,,,,,,,,,,,,,,,,,,,,,,,,,,,,,
0.0,1.0,0.72418,0.0,34.0,34.0,34.0,1.0,crayon_09s.jpg,0.0,clockno_default.jpg,6.0,55,,,,,,,,,,,,,,,,,,,,,,,,,,,,,,,,
1.0,1.0,1.4852,0.0,35.0,35.0,35.0,1.0,punch1_10s.jpg,1.0,clockno_default.jpg,6.0,55,,,,,,,,,,,,,,,,,,,,,,,,,,,,,,,,
,,,,,,,,,0.0,,,55,1.0,0.0,3.854315,0.0,0.0,0.0,0.0,1.0,tile_08s.jpg,squirt_gun_03s.jpg,,,,,,,,,,,,,,,,,,,,,,
,,,,,,,,,0.0,,,55,0.0,1.0,2.02142,0.0,1.0,1.0,1.0,1.0,espresso_01b.jpg,owl_15s.jpg,,,,,,,,,,,,,,,,,,,,,,
,,,,,,,,,1.0,,,55,0.0,0.0,3.78032,0.0,2.0,2.0,2.0,1.0,tortilla_06s.jpg,mango_09s.jpg,,,,,,,,,,,,,,,,,,,,,,
,,,,,,,,,0.0,,,55,0.0,1.0,2.926295,0.0,3.0,3.0,3.0,1.0,chime_12s.jpg,marshmallow_08s.jpg,,,,,,,,,,,,,,,,,,,,,,
,,,,,,,,,1.0,,,55,1.0,1.0,1.28012,0.0,4.0,4.0,4.0,1.0,trampoline_13s.jpg,smokingpipe.jpg,,,,,,,,,,,,,,,,,,,,,,
,,,,,,,,,1.0,,,55,0.0,0.0,3.729935,0.0,5.0,5.0,5.0,1.0,penguin_16s.jpg,ginger_09s.jpg,,,,,,,,,,,,,,,,,,,,,,
,,,,,,,,,,,,55,,,,,,,,,,,0.0,0.0,0.0,0.0,1.0,clockno_present_1_18.xlsx,clockno_compare_task_1_18.xlsx,,,,,,,,,,,,,,,
0.0,1.0,1.14815,0.0,0.0,0.0,0.0,1.0,potpourri_03s.jpg,0.0,clock_6_1.png,1.0,55,,,,,,,,,,,,,,,,,,,,,,,,,,,,,,,,
0.0,1.0,1.57735,0.0,1.0,1.0,1.0,1.0,chopsticks_08s.jpg,0.0,clock_6_2.png,1.0,55,,,,,,,,,,,,,,,,,,,,,,,,,,,,,,,,
0.0,1.0,0.68959,0.0,2.0,2.0,2.0,1.0,slingshot_07s.jpg,0.0,clock_6_3.png,1.0,55,,,,,,,,,,,,,,,,,,,,,,,,,,,,,,,,
0.0,1.0,0.76276,0.0,3.0,3.0,3.0,1.0,lid_10s.jpg,0.0,clock_6_4.png,1.0,55,,,,,,,,,,,,,,,,,,,,,,,,,,,,,,,,
0.0,1.0,1.19,0.0,4.0,4.0,4.0,1.0,bagel_15s.jpg,0.0,clock_6_5.png,1.0,55,,,,,,,,,,,,,,,,,,,,,,,,,,,,,,,,
1.0,1.0,1.190455,0.0,5.0,5.0,5.0,1.0,potpourri_03s.jpg,1.0,clock_6_6.png,1.0,55,,,,,,,,,,,,,,,,,,,,,,,,,,,,,,,,
0.0,1.0,0.872275,0.0,6.0,6.0,6.0,1.0,clover_04s.jpg,0.0,clock_7_1.png,2.0,55,,,,,,,,,,,,,,,,,,,,,,,,,,,,,,,,
0.0,1.0,0.961605,0.0,7.0,7.0,7.0,1.0,dashboard_02s.jpg,0.0,clock_7_2.png,2.0,55,,,,,,,,,,,,,,,,,,,,,,,,,,,,,,,,
1.0,1.0,1.03891,0.0,8.0,8.0,8.0,1.0,dashboard_02s.jpg,1.0,clock_7_3.png,2.0,55,,,,,,,,,,,,,,,,,,,,,,,,,,,,,,,,
0.0,1.0,0.857555,0.0,9.0,9.0,9.0,1.0,soccer_ball_12s.jpg,0.0,clock_7_4.png,2.0,55,,,,,,,,,,,,,,,,,,,,,,,,,,,,,,,,
0.0,1.0,0.870135,0.0,10.0,10.0,10.0,1.0,lava_02s.jpg,0.0,clock_7_5.png,2.0,55,,,,,,,,,,,,,,,,,,,,,,,,,,,,,,,,
1.0,1.0,1.12168,0.0,11.0,11.0,11.0,1.0,dashboard_02s.jpg,1.0,clock_7_6.png,2.0,55,,,,,,,,,,,,,,,,,,,,,,,,,,,,,,,,
0.0,1.0,1.52753,0.0,12.0,12.0,12.0,1.0,thread_08s.jpg,0.0,clock_7_7.png,2.0,55,,,,,,,,,,,,,,,,,,,,,,,,,,,,,,,,
0.0,1.0,0.62555,0.0,13.0,13.0,13.0,1.0,bowler_hat_10s.jpg,0.0,clock_5_1.png,3.0,55,,,,,,,,,,,,,,,,,,,,,,,,,,,,,,,,
0.0,1.0,0.62189,0.0,14.0,14.0,14.0,1.0,paintbrush_04s.jpg,0.0,clock_5_2.png,3.0,55,,,,,,,,,,,,,,,,,,,,,,,,,,,,,,,,
0.0,1.0,0.6764,0.0,15.0,15.0,15.0,1.0,rollerskate_03s.jpg,0.0,clock_5_3.png,3.0,55,,,,,,,,,,,,,,,,,,,,,,,,,,,,,,,,
0.0,1.0,0.76401,0.0,16.0,16.0,16.0,1.0,slingshot_07s.jpg,0.0,clock_5_4.png,3.0,55,,,,,,,,,,,,,,,,,,,,,,,,,,,,,,,,
0.0,1.0,0.99877,0.0,17.0,17.0,17.0,1.0,clover_04s.jpg,0.0,clock_5_5.png,3.0,55,,,,,,,,,,,,,,,,,,,,,,,,,,,,,,,,
0.0,1.0,0.746025,0.0,18.0,18.0,18.0,1.0,otter_05s.jpg,0.0,clock_5_1.png,4.0,55,,,,,,,,,,,,,,,,,,,,,,,,,,,,,,,,
0.0,1.0,0.560915,0.0,19.0,19.0,19.0,1.0,teacup_07s.jpg,0.0,clock_5_2.png,4.0,55,,,,,,,,,,,,,,,,,,,,,,,,,,,,,,,,
0.0,1.0,0.620185,0.0,20.0,20.0,20.0,1.0,joystick_01b.jpg,0.0,clock_5_3.png,4.0,55,,,,,,,,,,,,,,,,,,,,,,,,,,,,,,,,
0.0,1.0,0.872525,0.0,21.0,21.0,21.0,1.0,paintbrush_04s.jpg,0.0,clock_5_4.png,4.0,55,,,,,,,,,,,,,,,,,,,,,,,,,,,,,,,,
1.0,1.0,1.092645,0.0,22.0,22.0,22.0,1.0,joystick_01b.jpg,1.0,clock_5_5.png,4.0,55,,,,,,,,,,,,,,,,,,,,,,,,,,,,,,,,
0.0,1.0,1.021865,0.0,23.0,23.0,23.0,1.0,flask_04s.jpg,0.0,clock_7_1.png,5.0,55,,,,,,,,,,,,,,,,,,,,,,,,,,,,,,,,
0.0,1.0,0.796575,0.0,24.0,24.0,24.0,1.0,stapler_01b.jpg,0.0,clock_7_2.png,5.0,55,,,,,,,,,,,,,,,,,,,,,,,,,,,,,,,,
1.0,1.0,0.9885,0.0,25.0,25.0,25.0,1.0,flask_04s.jpg,1.0,clock_7_3.png,5.0,55,,,,,,,,,,,,,,,,,,,,,,,,,,,,,,,,
0.0,1.0,0.77032,0.0,26.0,26.0,26.0,1.0,kettle_08s.jpg,0.0,clock_7_4.png,5.0,55,,,,,,,,,,,,,,,,,,,,,,,,,,,,,,,,
0.0,1.0,0.67427,0.0,27.0,27.0,27.0,1.0,playpen_11s.jpg,0.0,clock_7_5.png,5.0,55,,,,,,,,,,,,,,,,,,,,,,,,,,,,,,,,
0.0,1.0,0.98602,0.0,28.0,28.0,28.0,1.0,red_carpet_03s.jpg,0.0,clock_7_6.png,5.0,55,,,,,,,,,,,,,,,,,,,,,,,,,,,,,,,,
1.0,1.0,1.08705,0.0,29.0,29.0,29.0,1.0,kettle_08s.jpg,1.0,clock_7_7.png,5.0,55,,,,,,,,,,,,,,,,,,,,,,,,,,,,,,,,
0.0,1.0,0.62185,0.0,30.0,30.0,30.0,1.0,oil_02s.jpg,0.0,clock_6_1.png,6.0,55,,,,,,,,,,,,,,,,,,,,,,,,,,,,,,,,
0.0,1.0,1.21497,0.0,31.0,31.0,31.0,1.0,flask_04s.jpg,0.0,clock_6_2.png,6.0,55,,,,,,,,,,,,,,,,,,,,,,,,,,,,,,,,
0.0,1.0,0.683085,0.0,32.0,32.0,32.0,1.0,bottle_opener_11s.jpg,0.0,clock_6_3.png,6.0,55,,,,,,,,,,,,,,,,,,,,,,,,,,,,,,,,
0.0,1.0,1.704815,0.0,33.0,33.0,33.0,1.0,tuba_12s.jpg,0.0,clock_6_4.png,6.0,55,,,,,,,,,,,,,,,,,,,,,,,,,,,,,,,,
0.0,1.0,1.228575,0.0,34.0,34.0,34.0,1.0,lifesaver_10s.jpg,0.0,clock_6_5.png,6.0,55,,,,,,,,,,,,,,,,,,,,,,,,,,,,,,,,
0.0,1.0,1.25616,0.0,35.0,35.0,35.0,1.0,rocking_horse_03s.jpg,0.0,clock_6_6.png,6.0,55,,,,,,,,,,,,,,,,,,,,,,,,,,,,,,,,
,,,,,,,,,1.0,,,55,0.0,0.0,2.37582,0.0,0.0,0.0,0.0,1.0,lava_02s.jpg,bowler_hat_10s.jpg,,,,,,,,,,,,,,,,,,,,,,
,,,,,,,,,0.0,,,55,1.0,0.0,2.420135,0.0,1.0,1.0,1.0,1.0,otter_05s.jpg,rollerskate_03s.jpg,,,,,,,,,,,,,,,,,,,,,,
,,,,,,,,,1.0,,,55,1.0,1.0,1.884025,0.0,2.0,2.0,2.0,1.0,playpen_11s.jpg,oil_02s.jpg,,,,,,,,,,,,,,,,,,,,,,
,,,,,,,,,1.0,,,55,0.0,0.0,2.017895,0.0,3.0,3.0,3.0,1.0,chopsticks_08s.jpg,bagel_15s.jpg,,,,,,,,,,,,,,,,,,,,,,
,,,,,,,,,1.0,,,55,1.0,1.0,1.849595,0.0,4.0,4.0,4.0,1.0,bottle_opener_11s.jpg,rocking_horse_03s.jpg,,,,,,,,,,,,,,,,,,,,,,
,,,,,,,,,0.0,,,55,0.0,1.0,1.87101,0.0,5.0,5.0,5.0,1.0,thread_08s.jpg,soccer_ball_12s.jpg,,,,,,,,,,,,,,,,,,,,,,
,,,,,,,,,,,,55,,,,,,,,,,,0.0,1.0,1.0,1.0,1.0,clockno_present_2_18.xlsx,clockno_compare_task_2_18.xlsx,,,,,,,,,,,,,,,
,0.0,,0.0,0.0,0.0,0.0,1.0,tiger_06s.jpg,0.0,clock_5_1.png,1.0,55,,,,,,,,,,,,,,,,,,,,,,,,,,,,,,,,
0.0,1.0,0.99422,0.0,1.0,1.0,1.0,1.0,kayak_08s.jpg,0.0,clock_5_2.png,1.0,55,,,,,,,,,,,,,,,,,,,,,,,,,,,,,,,,
0.0,1.0,0.699825,0.0,2.0,2.0,2.0,1.0,ironing_board_07s.jpg,0.0,clock_5_3.png,1.0,55,,,,,,,,,,,,,,,,,,,,,,,,,,,,,,,,
0.0,1.0,0.60278,0.0,3.0,3.0,3.0,1.0,lavender_10s.jpg,0.0,clock_5_4.png,1.0,55,,,,,,,,,,,,,,,,,,,,,,,,,,,,,,,,
0.0,1.0,0.709595,0.0,4.0,4.0,4.0,1.0,onion_10s.jpg,0.0,clock_5_5.png,1.0,55,,,,,,,,,,,,,,,,,,,,,,,,,,,,,,,,
0.0,1.0,0.583435,0.0,5.0,5.0,5.0,1.0,fireworks_18s.jpg,0.0,clock_5_1.png,2.0,55,,,,,,,,,,,,,,,,,,,,,,,,,,,,,,,,
0.0,1.0,0.55082,0.0,6.0,6.0,6.0,1.0,fork_04s.jpg,0.0,clock_5_2.png,2.0,55,,,,,,,,,,,,,,,,,,,,,,,,,,,,,,,,
0.0,1.0,0.684655,0.0,7.0,7.0,7.0,1.0,lantern_04s.jpg,0.0,clock_5_3.png,2.0,55,,,,,,,,,,,,,,,,,,,,,,,,,,,,,,,,
1.0,1.0,0.898715,0.0,8.0,8.0,8.0,1.0,lantern_04s.jpg,1.0,clock_5_4.png,2.0,55,,,,,,,,,,,,,,,,,,,,,,,,,,,,,,,,
0.0,1.0,0.87986,0.0,9.0,9.0,9.0,1.0,projector_08s.jpg,0.0,clock_5_5.png,2.0,55,,,,,,,,,,,,,,,,,,,,,,,,,,,,,,,,
0.0,1.0,0.67399,0.0,10.0,10.0,10.0,1.0,glue_01s.jpg,0.0,clock_7_1.png,3.0,55,,,,,,,,,,,,,,,,,,,,,,,,,,,,,,,,
0.0,1.0,0.636435,0.0,11.0,11.0,11.0,1.0,milk_02s.jpg,0.0,clock_7_2.png,3.0,55,,,,,,,,,,,,,,,,,,,,,,,,,,,,,,,,
0.0,1.0,1.261265,0.0,12.0,12.0,12.0,1.0,coral_08s.jpg,0.0,clock_7_3.png,3.0,55,,,,,,,,,,,,,,,,,,,,,,,,,,,,,,,,
0.0,1.0,0.790545,0.0,13.0,13.0,13.0,1.0,ladder_15s.jpg,0.0,clock_7_4.png,3.0,55,,,,,,,,,,,,,,,,,,,,,,,,,,,,,,,,
0.0,1.0,0.73075,0.0,14.0,14.0,14.0,1.0,margarita_03s.jpg,0.0,clock_7_5.png,3.0,55,,,,,,,,,,,,,,,,,,,,,,,,,,,,,,,,
0.0,1.0,0.78257,0.0,15.0,15.0,15.0,1.0,onion_10s.jpg,0.0,clock_7_6.png,3.0,55,,,,,,,,,,,,,,,,,,,,,,,,,,,,,,,,
0.0,1.0,0.70693,0.0,16.0,16.0,16.0,1.0,pan_02s.jpg,0.0,clock_7_7.png,3.0,55,,,,,,,,,,,,,,,,,,,,,,,,,,,,,,,,
0.0,1.0,0.82509,0.0,17.0,17.0,17.0,1.0,perfume_06s.jpg,0.0,clock_7_1.png,4.0,55,,,,,,,,,,,,,,,,,,,,,,,,,,,,,,,,
0.0,1.0,0.66089,0.0,18.0,18.0,18.0,1.0,puddle_02s.jpg,0.0,clock_7_2.png,4.0,55,,,,,,,,,,,,,,,,,,,,,,,,,,,,,,,,
0.0,1.0,1.09527,0.0,19.0,19.0,19.0,1.0,margarita_03s.jpg,0.0,clock_7_3.png,4.0,55,,,,,,,,,,,,,,,,,,,,,,,,,,,,,,,,
0.0,1.0,0.7612,0.0,20.0,20.0,20.0,1.0,luggage_08s.jpg,0.0,clock_7_4.png,4.0,55,,,,,,,,,,,,,,,,,,,,,,,,,,,,,,,,
0.0,1.0,0.745005,0.0,21.0,21.0,21.0,1.0,letter_opener_03s.jpg,0.0,clock_7_5.png,4.0,55,,,,,,,,,,,,,,,,,,,,,,,,,,,,,,,,
0.0,1.0,0.75586,0.0,22.0,22.0,22.0,1.0,top_hat_11s.jpg,0.0,clock_7_6.png,4.0,55,,,,,,,,,,,,,,,,,,,,,,,,,,,,,,,,
0.0,1.0,0.671915,0.0,23.0,23.0,23.0,1.0,turkey_10s.jpg,0.0,clock_7_7.png,4.0,55,,,,,,,,,,,,,,,,,,,,,,,,,,,,,,,,
0.0,1.0,0.810985,0.0,24.0,24.0,24.0,1.0,inhaler_01b.jpg,0.0,clock_6_1.png,5.0,55,,,,,,,,,,,,,,,,,,,,,,,,,,,,,,,,
0.0,1.0,0.810245,0.0,25.0,25.0,25.0,1.0,swing_set_15s.jpg,0.0,clock_6_2.png,5.0,55,,,,,,,,,,,,,,,,,,,,,,,,,,,,,,,,
0.0,1.0,0.77947,0.0,26.0,26.0,26.0,1.0,memory_stick_11s.jpg,0.0,clock_6_3.png,5.0,55,,,,,,,,,,,,,,,,,,,,,,,,,,,,,,,,
1.0,1.0,0.9448,0.0,27.0,27.0,27.0,1.0,inhaler_01b.jpg,1.0,clock_6_4.png,5.0,55,,,,,,,,,,,,,,,,,,,,,,,,,,,,,,,,
0.0,1.0,1.130215,0.0,28.0,28.0,28.0,1.0,gingerbread_man_03s.jpg,0.0,clock_6_5.png,5.0,55,,,,,,,,,,,,,,,,,,,,,,,,,,,,,,,,
0.0,1.0,0.71123,0.0,29.0,29.0,29.0,1.0,cushion_08s.jpg,0.0,clock_6_6.png,5.0,55,,,,,,,,,,,,,,,,,,,,,,,,,,,,,,,,
0.0,1.0,1.097465,0.0,30.0,30.0,30.0,1.0,aluminum_foil_08s.jpg,0.0,clock_6_1.png,6.0,55,,,,,,,,,,,,,,,,,,,,,,,,,,,,,,,,
0.0,1.0,0.94507,0.0,31.0,31.0,31.0,1.0,sleeping_bag_12s.jpg,0.0,clock_6_2.png,6.0,55,,,,,,,,,,,,,,,,,,,,,,,,,,,,,,,,
0.0,1.0,0.896435,0.0,32.0,32.0,32.0,1.0,rock_08s.jpg,0.0,clock_6_3.png,6.0,55,,,,,,,,,,,,,,,,,,,,,,,,,,,,,,,,
0.0,1.0,0.836995,0.0,33.0,33.0,33.0,1.0,stump_02s.jpg,0.0,clock_6_4.png,6.0,55,,,,,,,,,,,,,,,,,,,,,,,,,,,,,,,,
0.0,1.0,0.574435,0.0,34.0,34.0,34.0,1.0,road_sign_05s.jpg,0.0,clock_6_5.png,6.0,55,,,,,,,,,,,,,,,,,,,,,,,,,,,,,,,,
0.0,1.0,0.787525,0.0,35.0,35.0,35.0,1.0,tiger_06s.jpg,0.0,clock_6_6.png,6.0,55,,,,,,,,,,,,,,,,,,,,,,,,,,,,,,,,
,,,,,,,,,0.0,,,55,1.0,0.0,1.468835,0.0,0.0,0.0,0.0,1.0,fireworks_18s.jpg,ironing_board_07s.jpg,,,,,,,,,,,,,,,,,,,,,,
,,,,,,,,,0.0,,,55,1.0,0.0,1.37105,0.0,1.0,1.0,1.0,1.0,fork_04s.jpg,lavender_10s.jpg,,,,,,,,,,,,,,,,,,,,,,
,,,,,,,,,0.0,,,55,0.0,1.0,1.29316,0.0,2.0,2.0,2.0,1.0,coral_08s.jpg,projector_08s.jpg,,,,,,,,,,,,,,,,,,,,,,
,,,,,,,,,0.0,,,55,1.0,0.0,1.38242,0.0,3.0,3.0,3.0,1.0,ladder_15s.jpg,glue_01s.jpg,,,,,,,,,,,,,,,,,,,,,,
,,,,,,,,,0.0,,,55,0.0,1.0,1.82191,0.0,4.0,4.0,4.0,1.0,luggage_08s.jpg,perfume_06s.jpg,,,,,,,,,,,,,,,,,,,,,,
,,,,,,,,,1.0,,,55,1.0,1.0,1.38647,0.0,5.0,5.0,5.0,1.0,puddle_02s.jpg,letter_opener_03s.jpg,,,,,,,,,,,,,,,,,,,,,,
,,,,,,,,,,,,55,,,,,,,,,,,0.0,2.0,2.0,2.0,1.0,clockno_present_3_18.xlsx,clockno_compare_task_3_18.xlsx,,,,,,,,,,,,,,,
0.0,1.0,1.89197,0.0,0.0,0.0,0.0,1.0,pie_08s.jpg,0.0,clockno_up.jpg,1.0,55,,,,,,,,,,,,,,,,,,,,,,,,,,,,,,,,
0.0,1.0,1.069665,0.0,1.0,1.0,1.0,1.0,tab_09s.jpg,0.0,clockno_default.jpg,1.0,55,,,,,,,,,,,,,,,,,,,,,,,,,,,,,,,,
0.0,1.0,0.718235,0.0,2.0,2.0,2.0,1.0,umbrella_15s.jpg,0.0,clockno_default.jpg,1.0,55,,,,,,,,,,,,,,,,,,,,,,,,,,,,,,,,
1.0,1.0,1.602655,0.0,3.0,3.0,3.0,1.0,tab_09s.jpg,1.0,clockno_default.jpg,1.0,55,,,,,,,,,,,,,,,,,,,,,,,,,,,,,,,,
0.0,1.0,1.66966,0.0,4.0,4.0,4.0,1.0,quad_04s.jpg,0.0,clockno_default.jpg,1.0,55,,,,,,,,,,,,,,,,,,,,,,,,,,,,,,,,
0.0,1.0,0.75558,0.0,5.0,5.0,5.0,1.0,racehorse_03s.jpg,0.0,clockno_default.jpg,1.0,55,,,,,,,,,,,,,,,,,,,,,,,,,,,,,,,,
0.0,1.0,0.891015,0.0,6.0,6.0,6.0,1.0,jelly_bean_06s.jpg,0.0,clockno_up.jpg,2.0,55,,,,,,,,,,,,,,,,,,,,,,,,,,,,,,,,
0.0,1.0,0.911845,0.0,7.0,7.0,7.0,1.0,key_07s.jpg,0.0,clockno_default.jpg,2.0,55,,,,,,,,,,,,,,,,,,,,,,,,,,,,,,,,
0.0,1.0,0.69951,0.0,8.0,8.0,8.0,1.0,target_11s.jpg,0.0,clockno_default.jpg,2.0,55,,,,,,,,,,,,,,,,,,,,,,,,,,,,,,,,
0.0,1.0,0.765115,0.0,9.0,9.0,9.0,1.0,air_pump_05s.jpg,0.0,clockno_default.jpg,2.0,55,,,,,,,,,,,,,,,,,,,,,,,,,,,,,,,,
0.0,1.0,0.722975,0.0,10.0,10.0,10.0,1.0,paper_bag_12s.jpg,0.0,clockno_default.jpg,2.0,55,,,,,,,,,,,,,,,,,,,,,,,,,,,,,,,,
0.0,1.0,0.712085,0.0,11.0,11.0,11.0,1.0,frame_06s.jpg,0.0,clockno_default.jpg,2.0,55,,,,,,,,,,,,,,,,,,,,,,,,,,,,,,,,
0.0,1.0,0.781485,0.0,12.0,12.0,12.0,1.0,tambourine_06s.jpg,0.0,clockno_default.jpg,2.0,55,,,,,,,,,,,,,,,,,,,,,,,,,,,,,,,,
0.0,1.0,0.67934,0.0,13.0,13.0,13.0,1.0,crate_05s.jpg,0.0,clockno_up.jpg,3.0,55,,,,,,,,,,,,,,,,,,,,,,,,,,,,,,,,
0.0,1.0,0.80214,0.0,14.0,14.0,14.0,1.0,chip_04s.jpg,0.0,clockno_default.jpg,3.0,55,,,,,,,,,,,,,,,,,,,,,,,,,,,,,,,,
0.0,1.0,0.981055,0.0,15.0,15.0,15.0,1.0,lipstick_02s.jpg,0.0,clockno_default.jpg,3.0,55,,,,,,,,,,,,,,,,,,,,,,,,,,,,,,,,
0.0,1.0,0.70136,0.0,16.0,16.0,16.0,1.0,go-kart_10s.jpg,0.0,clockno_default.jpg,3.0,55,,,,,,,,,,,,,,,,,,,,,,,,,,,,,,,,
1.0,1.0,1.61461,0.0,17.0,17.0,17.0,1.0,crate_05s.jpg,1.0,clockno_default.jpg,3.0,55,,,,,,,,,,,,,,,,,,,,,,,,,,,,,,,,
0.0,1.0,0.794525,0.0,18.0,18.0,18.0,1.0,ravioli_08s.jpg,0.0,clockno_default.jpg,3.0,55,,,,,,,,,,,,,,,,,,,,,,,,,,,,,,,,
0.0,1.0,0.804305,0.0,19.0,19.0,19.0,1.0,latch_15s.jpg,0.0,clockno_default.jpg,3.0,55,,,,,,,,,,,,,,,,,,,,,,,,,,,,,,,,
0.0,1.0,0.613765,0.0,20.0,20.0,20.0,1.0,tulip_02s.jpg,0.0,clockno_up.jpg,4.0,55,,,,,,,,,,,,,,,,,,,,,,,,,,,,,,,,
0.0,1.0,0.69997,0.0,21.0,21.0,21.0,1.0,foam_03s.jpg,0.0,clockno_default.jpg,4.0,55,,,,,,,,,,,,,,,,,,,,,,,,,,,,,,,,
0.0,1.0,0.68041,0.0,22.0,22.0,22.0,1.0,leotard_08s.jpg,0.0,clockno_default.jpg,4.0,55,,,,,,,,,,,,,,,,,,,,,,,,,,,,,,,,
0.0,1.0,0.696045,0.0,23.0,23.0,23.0,1.0,blender_08s.jpg,0.0,clockno_default.jpg,4.0,55,,,,,,,,,,,,,,,,,,,,,,,,,,,,,,,,
1.0,1.0,1.42106,0.0,24.0,24.0,24.0,1.0,leotard_08s.jpg,1.0,clockno_default.jpg,4.0,55,,,,,,,,,,,,,,,,,,,,,,,,,,,,,,,,
0.0,1.0,0.767805,0.0,25.0,25.0,25.0,1.0,tuxedo_01b.jpg,0.0,clockno_default.jpg,4.0,55,,,,,,,,,,,,,,,,,,,,,,,,,,,,,,,,
0.0,1.0,0.63507,0.0,26.0,26.0,26.0,1.0,sunglasses_11s.jpg,0.0,clockno_up.jpg,5.0,55,,,,,,,,,,,,,,,,,,,,,,,,,,,,,,,,
0.0,1.0,0.906975,0.0,27.0,27.0,27.0,1.0,tweezers_03s.jpg,0.0,clockno_default.jpg,5.0,55,,,,,,,,,,,,,,,,,,,,,,,,,,,,,,,,
0.0,1.0,1.060995,0.0,28.0,28.0,28.0,1.0,kimono_13s.jpg,0.0,clockno_default.jpg,5.0,55,,,,,,,,,,,,,,,,,,,,,,,,,,,,,,,,
0.0,1.0,0.65334,0.0,29.0,29.0,29.0,1.0,pineapple_12s.jpg,0.0,clockno_default.jpg,5.0,55,,,,,,,,,,,,,,,,,,,,,,,,,,,,,,,,
0.0,1.0,0.684085,0.0,30.0,30.0,30.0,1.0,measuring_cup_02s.jpg,0.0,clockno_default.jpg,5.0,55,,,,,,,,,,,,,,,,,,,,,,,,,,,,,,,,
0.0,1.0,0.613295,0.0,31.0,31.0,31.0,1.0,ant_12s.jpg,0.0,clockno_up.jpg,6.0,55,,,,,,,,,,,,,,,,,,,,,,,,,,,,,,,,
1.0,0.0,1.488115,0.0,32.0,32.0,32.0,1.0,measuring_cup_02s.jpg,0.0,clockno_default.jpg,6.0,55,,,,,,,,,,,,,,,,,,,,,,,,,,,,,,,,
0.0,1.0,0.856235,0.0,33.0,33.0,33.0,1.0,stamp1_11s.jpg,0.0,clockno_default.jpg,6.0,55,,,,,,,,,,,,,,,,,,,,,,,,,,,,,,,,
0.0,1.0,0.73871,0.0,34.0,34.0,34.0,1.0,cucumber_07s.jpg,0.0,clockno_default.jpg,6.0,55,,,,,,,,,,,,,,,,,,,,,,,,,,,,,,,,
0.0,1.0,0.9058,0.0,35.0,35.0,35.0,1.0,panda_02s.jpg,0.0,clockno_default.jpg,6.0,55,,,,,,,,,,,,,,,,,,,,,,,,,,,,,,,,
,,,,,,,,,0.0,,,55,0.0,1.0,1.39048,0.0,0.0,0.0,0.0,1.0,kimono_13s.jpg,tuxedo_01b.jpg,,,,,,,,,,,,,,,,,,,,,,
,,,,,,,,,0.0,,,55,0.0,1.0,1.29778,0.0,1.0,1.0,1.0,1.0,key_07s.jpg,quad_04s.jpg,,,,,,,,,,,,,,,,,,,,,,
,,,,,,,,,0.0,,,55,0.0,1.0,1.54602,0.0,2.0,2.0,2.0,1.0,chip_04s.jpg,frame_06s.jpg,,,,,,,,,,,,,,,,,,,,,,
,,,,,,,,,1.0,,,55,1.0,1.0,1.302955,0.0,3.0,3.0,3.0,1.0,jelly_bean_06s.jpg,air_pump_05s.jpg,,,,,,,,,,,,,,,,,,,,,,
,,,,,,,,,0.0,,,55,1.0,0.0,1.41894,0.0,4.0,4.0,4.0,1.0,latch_15s.jpg,go-kart_10s.jpg,,,,,,,,,,,,,,,,,,,,,,
,,,,,,,,,0.0,,,55,0.0,1.0,1.007435,0.0,5.0,5.0,5.0,1.0,racehorse_03s.jpg,umbrella_15s.jpg,,,,,,,,,,,,,,,,,,,,,,
,,,,,,,,,,,,55,,,,,,,,,,,0.0,3.0,3.0,3.0,1.0,clockno_present_4_18.xlsx,clockno_compare_task_4_18.xlsx,,,,,,,,,,,,,,,
0.0,1.0,1.56292,0.0,0.0,0.0,0.0,1.0,swimming_pool_17s.jpg,0.0,clockno_up.jpg,1.0,55,,,,,,,,,,,,,,,,,,,,,,,,,,,,,,,,
1.0,1.0,2.005885,0.0,1.0,1.0,1.0,1.0,swimming_pool_17s.jpg,1.0,clockno_default.jpg,1.0,55,,,,,,,,,,,,,,,,,,,,,,,,,,,,,,,,
0.0,1.0,0.863225,0.0,2.0,2.0,2.0,1.0,poinsettia_04s.jpg,0.0,clockno_default.jpg,1.0,55,,,,,,,,,,,,,,,,,,,,,,,,,,,,,,,,
0.0,1.0,0.69835,0.0,3.0,3.0,3.0,1.0,toilet_07s.jpg,0.0,clockno_default.jpg,1.0,55,,,,,,,,,,,,,,,,,,,,,,,,,,,,,,,,
0.0,1.0,0.73712,0.0,4.0,4.0,4.0,1.0,razor_12s.jpg,0.0,clockno_default.jpg,1.0,55,,,,,,,,,,,,,,,,,,,,,,,,,,,,,,,,
0.0,1.0,0.627635,0.0,5.0,5.0,5.0,1.0,bathtub_23s.jpg,0.0,clockno_default.jpg,1.0,55,,,,,,,,,,,,,,,,,,,,,,,,,,,,,,,,
0.0,1.0,0.55736,0.0,6.0,6.0,6.0,1.0,raccoon_02s.jpg,0.0,clockno_default.jpg,1.0,55,,,,,,,,,,,,,,,,,,,,,,,,,,,,,,,,
0.0,1.0,0.66426,0.0,7.0,7.0,7.0,1.0,gazelle_10s.jpg,0.0,clockno_up.jpg,2.0,55,,,,,,,,,,,,,,,,,,,,,,,,,,,,,,,,
0.0,1.0,0.779995,0.0,8.0,8.0,8.0,1.0,mud_13s.jpg,0.0,clockno_default.jpg,2.0,55,,,,,,,,,,,,,,,,,,,,,,,,,,,,,,,,
0.0,1.0,0.62696,0.0,9.0,9.0,9.0,1.0,raspberry_12s.jpg,0.0,clockno_default.jpg,2.0,55,,,,,,,,,,,,,,,,,,,,,,,,,,,,,,,,
0.0,1.0,0.80099,0.0,10.0,10.0,10.0,1.0,typewriter_11s.jpg,0.0,clockno_default.jpg,2.0,55,,,,,,,,,,,,,,,,,,,,,,,,,,,,,,,,
0.0,1.0,0.65098,0.0,11.0,11.0,11.0,1.0,golf_club_03s.jpg,0.0,clockno_default.jpg,2.0,55,,,,,,,,,,,,,,,,,,,,,,,,,,,,,,,,
1.0,1.0,1.387385,0.0,12.0,12.0,12.0,1.0,typewriter_11s.jpg,1.0,clockno_default.jpg,2.0,55,,,,,,,,,,,,,,,,,,,,,,,,,,,,,,,,
0.0,1.0,0.809725,0.0,13.0,13.0,13.0,1.0,beard_16s.jpg,0.0,clockno_default.jpg,2.0,55,,,,,,,,,,,,,,,,,,,,,,,,,,,,,,,,
0.0,1.0,0.896215,0.0,14.0,14.0,14.0,1.0,punch2_09s.jpg,0.0,clockno_up.jpg,3.0,55,,,,,,,,,,,,,,,,,,,,,,,,,,,,,,,,
0.0,1.0,0.64476,0.0,15.0,15.0,15.0,1.0,treasure_08s.jpg,0.0,clockno_default.jpg,3.0,55,,,,,,,,,,,,,,,,,,,,,,,,,,,,,,,,
0.0,1.0,0.748725,0.0,16.0,16.0,16.0,1.0,film_03s.jpg,0.0,clockno_default.jpg,3.0,55,,,,,,,,,,,,,,,,,,,,,,,,,,,,,,,,
0.0,1.0,0.66957,0.0,17.0,17.0,17.0,1.0,mixer_12s.jpg,0.0,clockno_default.jpg,3.0,55,,,,,,,,,,,,,,,,,,,,,,,,,,,,,,,,
1.0,0.0,1.811235,0.0,18.0,18.0,18.0,1.0,poinsettia_04s.jpg,0.0,clockno_default.jpg,3.0,55,,,,,,,,,,,,,,,,,,,,,,,,,,,,,,,,
0.0,1.0,0.710095,0.0,19.0,19.0,19.0,1.0,radio_09s.jpg,0.0,clockno_default.jpg,3.0,55,,,,,,,,,,,,,,,,,,,,,,,,,,,,,,,,
0.0,1.0,1.41903,0.0,20.0,20.0,20.0,1.0,possum_09s.jpg,0.0,clockno_up.jpg,4.0,55,,,,,,,,,,,,,,,,,,,,,,,,,,,,,,,,
0.0,1.0,0.92808,0.0,21.0,21.0,21.0,1.0,ram_05s.jpg,0.0,clockno_default.jpg,4.0,55,,,,,,,,,,,,,,,,,,,,,,,,,,,,,,,,
0.0,1.0,0.822675,0.0,22.0,22.0,22.0,1.0,gear_07s.jpg,0.0,clockno_default.jpg,4.0,55,,,,,,,,,,,,,,,,,,,,,,,,,,,,,,,,
0.0,1.0,0.72883,0.0,23.0,23.0,23.0,1.0,orangutan_03s.jpg,0.0,clockno_default.jpg,4.0,55,,,,,,,,,,,,,,,,,,,,,,,,,,,,,,,,
0.0,1.0,0.687855,0.0,24.0,24.0,24.0,1.0,hyena_16s.jpg,0.0,clockno_default.jpg,4.0,55,,,,,,,,,,,,,,,,,,,,,,,,,,,,,,,,
0.0,1.0,0.944115,0.0,25.0,25.0,25.0,1.0,puck_06s.jpg,0.0,clockno_up.jpg,5.0,55,,,,,,,,,,,,,,,,,,,,,,,,,,,,,,,,
1.0,0.0,1.16939,0.0,26.0,26.0,26.0,1.0,golf_club_03s.jpg,0.0,clockno_default.jpg,5.0,55,,,,,,,,,,,,,,,,,,,,,,,,,,,,,,,,
0.0,1.0,0.85385,0.0,27.0,27.0,27.0,1.0,stingray_02s.jpg,0.0,clockno_default.jpg,5.0,55,,,,,,,,,,,,,,,,,,,,,,,,,,,,,,,,
1.0,1.0,1.19585,0.0,28.0,28.0,28.0,1.0,stingray_02s.jpg,1.0,clockno_default.jpg,5.0,55,,,,,,,,,,,,,,,,,,,,,,,,,,,,,,,,
0.0,1.0,0.63238,0.0,29.0,29.0,29.0,1.0,chalice_10s.jpg,0.0,clockno_default.jpg,5.0,55,,,,,,,,,,,,,,,,,,,,,,,,,,,,,,,,
0.0,1.0,1.23085,0.0,30.0,30.0,30.0,1.0,pepper_mill_03s.jpg,0.0,clockno_up.jpg,6.0,55,,,,,,,,,,,,,,,,,,,,,,,,,,,,,,,,
0.0,1.0,1.33171,0.0,31.0,31.0,31.0,1.0,parachute_03s.jpg,0.0,clockno_default.jpg,6.0,55,,,,,,,,,,,,,,,,,,,,,,,,,,,,,,,,
0.0,1.0,0.960875,0.0,32.0,32.0,32.0,1.0,pinwheel_06s.jpg,0.0,clockno_default.jpg,6.0,55,,,,,,,,,,,,,,,,,,,,,,,,,,,,,,,,
0.0,1.0,0.77926,0.0,33.0,33.0,33.0,1.0,iron_13s.jpg,0.0,clockno_default.jpg,6.0,55,,,,,,,,,,,,,,,,,,,,,,,,,,,,,,,,
0.0,0.0,1.96236,0.0,34.0,34.0,34.0,1.0,pepper_mill_03s.jpg,1.0,clockno_default.jpg,6.0,55,,,,,,,,,,,,,,,,,,,,,,,,,,,,,,,,
0.0,1.0,0.8555,0.0,35.0,35.0,35.0,1.0,basket_05s.jpg,0.0,clockno_default.jpg,6.0,55,,,,,,,,,,,,,,,,,,,,,,,,,,,,,,,,
,,,,,,,,,1.0,,,55,0.0,0.0,3.895265,0.0,0.0,0.0,0.0,1.0,razor_12s.jpg,gazelle_10s.jpg,,,,,,,,,,,,,,,,,,,,,,
,,,,,,,,,0.0,,,55,0.0,1.0,4.187215,0.0,1.0,1.0,1.0,1.0,mud_13s.jpg,bathtub_23s.jpg,,,,,,,,,,,,,,,,,,,,,,
,,,,,,,,,1.0,,,55,0.0,0.0,3.328545,0.0,2.0,2.0,2.0,1.0,gear_07s.jpg,puck_06s.jpg,,,,,,,,,,,,,,,,,,,,,,
,,,,,,,,,0.0,,,55,0.0,1.0,2.195265,0.0,3.0,3.0,3.0,1.0,hyena_16s.jpg,ram_05s.jpg,,,,,,,,,,,,,,,,,,,,,,
,,,,,,,,,1.0,,,55,0.0,0.0,2.49082,0.0,4.0,4.0,4.0,1.0,toilet_07s.jpg,raccoon_02s.jpg,,,,,,,,,,,,,,,,,,,,,,
,,,,,,,,,0.0,,,55,1.0,0.0,2.67858,0.0,5.0,5.0,5.0,1.0,mixer_12s.jpg,punch2_09s.jpg,,,,,,,,,,,,,,,,,,,,,,
,,,,,,,,,,,,55,,,,,,,,,,,0.0,4.0,4.0,4.0,1.0,clockno_present_5_18.xlsx,clockno_compare_task_5_18.xlsx,,,,,,,,,,,,,,,
0.0,1.0,1.730685,0.0,0.0,0.0,0.0,1.0,spacesuit_02s.jpg,0.0,clock_5_1.png,1.0,55,,,,,,,,,,,,,,,,,,,,,,,,,,,,,,,,
0.0,1.0,0.793795,0.0,1.0,1.0,1.0,1.0,megaphone_03s.jpg,0.0,clock_5_2.png,1.0,55,,,,,,,,,,,,,,,,,,,,,,,,,,,,,,,,
0.0,1.0,0.639875,0.0,2.0,2.0,2.0,1.0,power_line_08s.jpg,0.0,clock_5_3.png,1.0,55,,,,,,,,,,,,,,,,,,,,,,,,,,,,,,,,
0.0,1.0,0.74561,0.0,3.0,3.0,3.0,1.0,insole_11s.jpg,0.0,clock_5_4.png,1.0,55,,,,,,,,,,,,,,,,,,,,,,,,,,,,,,,,
0.0,1.0,0.707355,0.0,4.0,4.0,4.0,1.0,turtle_08s.jpg,0.0,clock_5_5.png,1.0,55,,,,,,,,,,,,,,,,,,,,,,,,,,,,,,,,
0.0,1.0,1.245885,0.0,5.0,5.0,5.0,1.0,checkbook_11s.jpg,0.0,clock_6_1.png,2.0,55,,,,,,,,,,,,,,,,,,,,,,,,,,,,,,,,
0.0,1.0,0.72072,0.0,6.0,6.0,6.0,1.0,sundae_08s.jpg,0.0,clock_6_2.png,2.0,55,,,,,,,,,,,,,,,,,,,,,,,,,,,,,,,,
0.0,1.0,0.94308,0.0,7.0,7.0,7.0,1.0,puppet_01b.jpg,0.0,clock_6_3.png,2.0,55,,,,,,,,,,,,,,,,,,,,,,,,,,,,,,,,
0.0,1.0,1.067655,0.0,8.0,8.0,8.0,1.0,spacesuit_02s.jpg,0.0,clock_6_4.png,2.0,55,,,,,,,,,,,,,,,,,,,,,,,,,,,,,,,,
0.0,1.0,1.0551,0.0,9.0,9.0,9.0,1.0,popsicle_02s.jpg,0.0,clock_6_5.png,2.0,55,,,,,,,,,,,,,,,,,,,,,,,,,,,,,,,,
0.0,1.0,0.856315,0.0,10.0,10.0,10.0,1.0,tinsel_12s.jpg,0.0,clock_6_6.png,2.0,55,,,,,,,,,,,,,,,,,,,,,,,,,,,,,,,,
0.0,1.0,0.929045,0.0,11.0,11.0,11.0,1.0,saddle_06s.jpg,0.0,clock_5_1.png,3.0,55,,,,,,,,,,,,,,,,,,,,,,,,,,,,,,,,
0.0,1.0,0.69584,0.0,12.0,12.0,12.0,1.0,tomato_sauce_09s.jpg,0.0,clock_5_2.png,3.0,55,,,,,,,,,,,,,,,,,,,,,,,,,,,,,,,,
0.0,1.0,0.981485,0.0,13.0,13.0,13.0,1.0,laundry_basket_11s.jpg,0.0,clock_5_3.png,3.0,55,,,,,,,,,,,,,,,,,,,,,,,,,,,,,,,,
0.0,1.0,0.916595,0.0,14.0,14.0,14.0,1.0,knitting_needle_04s.jpg,0.0,clock_5_4.png,3.0,55,,,,,,,,,,,,,,,,,,,,,,,,,,,,,,,,
1.0,1.0,0.87016,0.0,15.0,15.0,15.0,1.0,tomato_sauce_09s.jpg,1.0,clock_5_5.png,3.0,55,,,,,,,,,,,,,,,,,,,,,,,,,,,,,,,,
0.0,1.0,0.71093,0.0,16.0,16.0,16.0,1.0,moth_06n.jpg,0.0,clock_7_1.png,4.0,55,,,,,,,,,,,,,,,,,,,,,,,,,,,,,,,,
1.0,1.0,1.07091,0.0,17.0,17.0,17.0,1.0,moth_06n.jpg,1.0,clock_7_2.png,4.0,55,,,,,,,,,,,,,,,,,,,,,,,,,,,,,,,,
0.0,1.0,0.881455,0.0,18.0,18.0,18.0,1.0,tube_top_03s.jpg,0.0,clock_7_3.png,4.0,55,,,,,,,,,,,,,,,,,,,,,,,,,,,,,,,,
0.0,1.0,1.06295,0.0,19.0,19.0,19.0,1.0,juicer1_08s.jpg,0.0,clock_7_4.png,4.0,55,,,,,,,,,,,,,,,,,,,,,,,,,,,,,,,,
0.0,1.0,1.13347,0.0,20.0,20.0,20.0,1.0,plaster_cast_13s.jpg,0.0,clock_7_5.png,4.0,55,,,,,,,,,,,,,,,,,,,,,,,,,,,,,,,,
0.0,1.0,1.063615,0.0,21.0,21.0,21.0,1.0,knot_01b.jpg,0.0,clock_7_6.png,4.0,55,,,,,,,,,,,,,,,,,,,,,,,,,,,,,,,,
0.0,1.0,0.895215,0.0,22.0,22.0,22.0,1.0,insole_11s.jpg,0.0,clock_7_7.png,4.0,55,,,,,,,,,,,,,,,,,,,,,,,,,,,,,,,,
0.0,1.0,0.662475,0.0,23.0,23.0,23.0,1.0,frog_09s.jpg,0.0,clock_6_1.png,5.0,55,,,,,,,,,,,,,,,,,,,,,,,,,,,,,,,,
1.0,1.0,0.77374,0.0,24.0,24.0,24.0,1.0,frog_09s.jpg,1.0,clock_6_2.png,5.0,55,,,,,,,,,,,,,,,,,,,,,,,,,,,,,,,,
0.0,1.0,0.63278,0.0,25.0,25.0,25.0,1.0,icicle_04s.jpg,0.0,clock_6_3.png,5.0,55,,,,,,,,,,,,,,,,,,,,,,,,,,,,,,,,
0.0,1.0,0.81253,0.0,26.0,26.0,26.0,1.0,trumpet_06s.jpg,0.0,clock_6_4.png,5.0,55,,,,,,,,,,,,,,,,,,,,,,,,,,,,,,,,
0.0,1.0,0.693795,0.0,27.0,27.0,27.0,1.0,touchpad_11s.jpg,0.0,clock_6_5.png,5.0,55,,,,,,,,,,,,,,,,,,,,,,,,,,,,,,,,
1.0,1.0,1.26698,0.0,28.0,28.0,28.0,1.0,trumpet_06s.jpg,1.0,clock_6_6.png,5.0,55,,,,,,,,,,,,,,,,,,,,,,,,,,,,,,,,
0.0,1.0,0.897235,0.0,29.0,29.0,29.0,1.0,lamb_chop_07s.jpg,0.0,clock_7_1.png,6.0,55,,,,,,,,,,,,,,,,,,,,,,,,,,,,,,,,
0.0,1.0,0.81083,0.0,30.0,30.0,30.0,1.0,rocket_02s.jpg,0.0,clock_7_2.png,6.0,55,,,,,,,,,,,,,,,,,,,,,,,,,,,,,,,,
0.0,1.0,0.813725,0.0,31.0,31.0,31.0,1.0,candy_cane_06s.jpg,0.0,clock_7_3.png,6.0,55,,,,,,,,,,,,,,,,,,,,,,,,,,,,,,,,
0.0,1.0,0.902735,0.0,32.0,32.0,32.0,1.0,coffee_filter_10s.jpg,0.0,clock_7_4.png,6.0,55,,,,,,,,,,,,,,,,,,,,,,,,,,,,,,,,
1.0,1.0,0.971885,0.0,33.0,33.0,33.0,1.0,candy_cane_06s.jpg,1.0,clock_7_5.png,6.0,55,,,,,,,,,,,,,,,,,,,,,,,,,,,,,,,,
1.0,1.0,0.930765,0.0,34.0,34.0,34.0,1.0,candy_cane_06s.jpg,1.0,clock_7_6.png,6.0,55,,,,,,,,,,,,,,,,,,,,,,,,,,,,,,,,
0.0,1.0,0.99951,0.0,35.0,35.0,35.0,1.0,emerald_02s.jpg,0.0,clock_7_7.png,6.0,55,,,,,,,,,,,,,,,,,,,,,,,,,,,,,,,,
,,,,,,,,,1.0,,,55,0.0,0.0,4.76299,0.0,0.0,0.0,0.0,1.0,power_line_08s.jpg,checkbook_11s.jpg,,,,,,,,,,,,,,,,,,,,,,
,,,,,,,,,1.0,,,55,1.0,1.0,5.20651,0.0,1.0,1.0,1.0,1.0,touchpad_11s.jpg,rocket_02s.jpg,,,,,,,,,,,,,,,,,,,,,,
,,,,,,,,,0.0,,,55,0.0,1.0,1.81525,0.0,2.0,2.0,2.0,1.0,laundry_basket_11s.jpg,tinsel_12s.jpg,,,,,,,,,,,,,,,,,,,,,,
,,,,,,,,,1.0,,,55,1.0,1.0,1.541085,0.0,3.0,3.0,3.0,1.0,sundae_08s.jpg,popsicle_02s.jpg,,,,,,,,,,,,,,,,,,,,,,
,,,,,,,,,0.0,,,55,0.0,1.0,1.58614,0.0,4.0,4.0,4.0,1.0,knitting_needle_04s.jpg,saddle_06s.jpg,,,,,,,,,,,,,,,,,,,,,,
,,,,,,,,,1.0,,,55,1.0,1.0,1.38474,0.0,5.0,5.0,5.0,1.0,tube_top_03s.jpg,knot_01b.jpg,,,,,,,,,,,,,,,,,,,,,,
0.0,1.0,2.02333,,,,,,printer_09s.jpg,0.0,clock_6_1.png,1.0,55,,,,,,,,,,,,,,,,,,0.0,0.0,0.0,0.0,1.0,,,,,,,,,,
0.0,1.0,1.49711,,,,,,rope_16s.jpg,0.0,clock_6_2.png,1.0,55,,,,,,,,,,,,,,,,,,0.0,1.0,1.0,1.0,1.0,,,,,,,,,,
0.0,1.0,0.6516,,,,,,lion_18s.jpg,0.0,clock_6_3.png,1.0,55,,,,,,,,,,,,,,,,,,0.0,2.0,2.0,2.0,1.0,,,,,,,,,,
0.0,1.0,0.74611,,,,,,rabbit_03s.jpg,0.0,clock_6_4.png,1.0,55,,,,,,,,,,,,,,,,,,0.0,3.0,3.0,3.0,1.0,,,,,,,,,,
0.0,1.0,0.68866,,,,,,boomerang_06s.jpg,0.0,clock_6_5.png,1.0,55,,,,,,,,,,,,,,,,,,0.0,4.0,4.0,4.0,1.0,,,,,,,,,,
1.0,1.0,0.79577,,,,,,lion_18s.jpg,1.0,clock_6_6.png,1.0,55,,,,,,,,,,,,,,,,,,0.0,5.0,5.0,5.0,1.0,,,,,,,,,,
0.0,1.0,0.97497,,,,,,pillbox_04s.jpg,0.0,clock_7_1.png,2.0,55,,,,,,,,,,,,,,,,,,0.0,6.0,6.0,6.0,1.0,,,,,,,,,,
0.0,1.0,0.60052,,,,,,blowfish_03s.jpg,0.0,clock_7_2.png,2.0,55,,,,,,,,,,,,,,,,,,0.0,7.0,7.0,7.0,1.0,,,,,,,,,,
0.0,1.0,1.02965,,,,,,rhubarb_03s.jpg,0.0,clock_7_3.png,2.0,55,,,,,,,,,,,,,,,,,,0.0,8.0,8.0,8.0,1.0,,,,,,,,,,
0.0,1.0,1.080855,,,,,,torch_02s.jpg,0.0,clock_7_4.png,2.0,55,,,,,,,,,,,,,,,,,,0.0,9.0,9.0,9.0,1.0,,,,,,,,,,
1.0,1.0,0.911965,,,,,,rhubarb_03s.jpg,1.0,clock_7_5.png,2.0,55,,,,,,,,,,,,,,,,,,0.0,10.0,10.0,10.0,1.0,,,,,,,,,,
0.0,1.0,1.06254,,,,,,tablet_04s.jpg,0.0,clock_7_6.png,2.0,55,,,,,,,,,,,,,,,,,,0.0,11.0,11.0,11.0,1.0,,,,,,,,,,
0.0,1.0,0.713695,,,,,,mop_08s.jpg,0.0,clock_7_7.png,2.0,55,,,,,,,,,,,,,,,,,,0.0,12.0,12.0,12.0,1.0,,,,,,,,,,
0.0,1.0,1.176795,,,,,,mirror_12s.jpg,0.0,clock_5_1.png,3.0,55,,,,,,,,,,,,,,,,,,0.0,13.0,13.0,13.0,1.0,,,,,,,,,,
0.0,1.0,0.99533,,,,,,torch_02s.jpg,0.0,clock_5_2.png,3.0,55,,,,,,,,,,,,,,,,,,0.0,14.0,14.0,14.0,1.0,,,,,,,,,,
0.0,1.0,1.09031,,,,,,compass_10n.jpg,0.0,clock_5_3.png,3.0,55,,,,,,,,,,,,,,,,,,0.0,15.0,15.0,15.0,1.0,,,,,,,,,,
0.0,1.0,0.634065,,,,,,peppermint_07s.jpg,0.0,clock_5_4.png,3.0,55,,,,,,,,,,,,,,,,,,0.0,16.0,16.0,16.0,1.0,,,,,,,,,,
0.0,1.0,0.98652,,,,,,surfboard_11s.jpg,0.0,clock_5_5.png,3.0,55,,,,,,,,,,,,,,,,,,0.0,17.0,17.0,17.0,1.0,,,,,,,,,,
0.0,1.0,0.953645,,,,,,microwave_02s.jpg,0.0,clock_5_1.png,4.0,55,,,,,,,,,,,,,,,,,,0.0,18.0,18.0,18.0,1.0,,,,,,,,,,
0.0,1.0,0.73645,,,,,,pumpkin_03s.jpg,0.0,clock_5_2.png,4.0,55,,,,,,,,,,,,,,,,,,0.0,19.0,19.0,19.0,1.0,,,,,,,,,,
0.0,1.0,0.86371,,,,,,rhubarb_03s.jpg,0.0,clock_5_3.png,4.0,55,,,,,,,,,,,,,,,,,,0.0,20.0,20.0,20.0,1.0,,,,,,,,,,
0.0,1.0,0.677855,,,,,,metronome_03s.jpg,0.0,clock_5_4.png,4.0,55,,,,,,,,,,,,,,,,,,0.0,21.0,21.0,21.0,1.0,,,,,,,,,,
0.0,1.0,0.894655,,,,,,cardinal_07s.jpg,0.0,clock_5_5.png,4.0,55,,,,,,,,,,,,,,,,,,0.0,22.0,22.0,22.0,1.0,,,,,,,,,,
0.0,1.0,0.71723,,,,,,quesadilla_07s.jpg,0.0,clock_6_1.png,5.0,55,,,,,,,,,,,,,,,,,,0.0,23.0,23.0,23.0,1.0,,,,,,,,,,
0.0,1.0,0.73203,,,,,,bonsai_07s.jpg,0.0,clock_6_2.png,5.0,55,,,,,,,,,,,,,,,,,,0.0,24.0,24.0,24.0,1.0,,,,,,,,,,
0.0,1.0,0.591215,,,,,,lion_18s.jpg,0.0,clock_6_3.png,5.0,55,,,,,,,,,,,,,,,,,,0.0,25.0,25.0,25.0,1.0,,,,,,,,,,
0.0,1.0,0.79364,,,,,,fire_pit_10s.jpg,0.0,clock_6_4.png,5.0,55,,,,,,,,,,,,,,,,,,0.0,26.0,26.0,26.0,1.0,,,,,,,,,,
0.0,1.0,0.813265,,,,,,peppermint_07s.jpg,0.0,clock_6_5.png,5.0,55,,,,,,,,,,,,,,,,,,0.0,27.0,27.0,27.0,1.0,,,,,,,,,,
1.0,1.0,1.13602,,,,,,bonsai_07s.jpg,1.0,clock_6_6.png,5.0,55,,,,,,,,,,,,,,,,,,0.0,28.0,28.0,28.0,1.0,,,,,,,,,,
0.0,1.0,0.61783,,,,,,potholder_02s.jpg,0.0,clock_7_1.png,6.0,55,,,,,,,,,,,,,,,,,,0.0,29.0,29.0,29.0,1.0,,,,,,,,,,
0.0,1.0,1.05544,,,,,,amber_04s.jpg,0.0,clock_7_2.png,6.0,55,,,,,,,,,,,,,,,,,,0.0,30.0,30.0,30.0,1.0,,,,,,,,,,
0.0,1.0,0.73951,,,,,,doily_13s.jpg,0.0,clock_7_3.png,6.0,55,,,,,,,,,,,,,,,,,,0.0,31.0,31.0,31.0,1.0,,,,,,,,,,
0.0,1.0,0.85183,,,,,,champagne_18s.jpg,0.0,clock_7_4.png,6.0,55,,,,,,,,,,,,,,,,,,0.0,32.0,32.0,32.0,1.0,,,,,,,,,,
1.0,1.0,0.99164,,,,,,champagne_18s.jpg,1.0,clock_7_5.png,6.0,55,,,,,,,,,,,,,,,,,,0.0,33.0,33.0,33.0,1.0,,,,,,,,,,
1.0,1.0,0.94947,,,,,,doily_13s.jpg,1.0,clock_7_6.png,6.0,55,,,,,,,,,,,,,,,,,,0.0,34.0,34.0,34.0,1.0,,,,,,,,,,
0.0,1.0,0.69778,,,,,,ice_pack_09s.jpg,0.0,clock_7_7.png,6.0,55,,,,,,,,,,,,,,,,,,0.0,35.0,35.0,35.0,1.0,,,,,,,,,,
,,,,,,,,,0.0,,,55,0.0,1.0,2.18956,,,,,,compass_10n.jpg,mop_08s.jpg,,,,,,,,,,,,,0.0,0.0,0.0,0.0,1.0,,,,,
,,,,,,,,,1.0,,,55,1.0,1.0,1.998135,,,,,,rabbit_03s.jpg,pillbox_04s.jpg,,,,,,,,,,,,,0.0,1.0,1.0,1.0,1.0,,,,,
,,,,,,,,,0.0,,,55,0.0,1.0,1.488955,,,,,,blowfish_03s.jpg,boomerang_06s.jpg,,,,,,,,,,,,,0.0,2.0,2.0,2.0,1.0,,,,,
,,,,,,,,,1.0,,,55,1.0,1.0,1.53737,,,,,,pumpkin_03s.jpg,cardinal_07s.jpg,,,,,,,,,,,,,0.0,3.0,3.0,3.0,1.0,,,,,
,,,,,,,,,0.0,,,55,0.0,1.0,1.404555,,,,,,metronome_03s.jpg,microwave_02s.jpg,,,,,,,,,,,,,0.0,4.0,4.0,4.0,1.0,,,,,
,,,,,,,,,0.0,,,55,0.0,1.0,1.15101,,,,,,fire_pit_10s.jpg,quesadilla_07s.jpg,,,,,,,,,,,,,0.0,5.0,5.0,5.0,1.0,,,,,
,,,,,,,,,,,,55,,,,,,,,,,,,,,,,clock_present_1_18.xlsx,clock_compare_task_1_18.xlsx,,,,,,,,,,,0.0,0.0,0.0,0.0,1.0
0.0,1.0,1.7483,,,,,,thorn_13s.jpg,0.0,clock_7_1.png,1.0,55,,,,,,,,,,,,,,,,,,0.0,0.0,0.0,0.0,1.0,,,,,,,,,,
0.0,1.0,0.860335,,,,,,lamppost_09s.jpg,0.0,clock_7_2.png,1.0,55,,,,,,,,,,,,,,,,,,0.0,1.0,1.0,1.0,1.0,,,,,,,,,,
0.0,1.0,0.69086,,,,,,crystal_ball_12s.jpg,0.0,clock_7_3.png,1.0,55,,,,,,,,,,,,,,,,,,0.0,2.0,2.0,2.0,1.0,,,,,,,,,,
0.0,1.0,0.734385,,,,,,bean_06s.jpg,0.0,clock_7_4.png,1.0,55,,,,,,,,,,,,,,,,,,0.0,3.0,3.0,3.0,1.0,,,,,,,,,,
0.0,1.0,0.755085,,,,,,fossil_06s.jpg,0.0,clock_7_5.png,1.0,55,,,,,,,,,,,,,,,,,,0.0,4.0,4.0,4.0,1.0,,,,,,,,,,
0.0,1.0,0.761205,,,,,,keyhole_03s.jpg,0.0,clock_7_6.png,1.0,55,,,,,,,,,,,,,,,,,,0.0,5.0,5.0,5.0,1.0,,,,,,,,,,
1.0,1.0,0.784395,,,,,,fossil_06s.jpg,1.0,clock_7_7.png,1.0,55,,,,,,,,,,,,,,,,,,0.0,6.0,6.0,6.0,1.0,,,,,,,,,,
0.0,1.0,0.75023,,,,,,eggshell_14s.jpg,0.0,clock_6_1.png,2.0,55,,,,,,,,,,,,,,,,,,0.0,7.0,7.0,7.0,1.0,,,,,,,,,,
0.0,1.0,0.90648,,,,,,crystal_ball_12s.jpg,0.0,clock_6_2.png,2.0,55,,,,,,,,,,,,,,,,,,0.0,8.0,8.0,8.0,1.0,,,,,,,,,,
0.0,1.0,0.716915,,,,,,lamp_08s.jpg,0.0,clock_6_3.png,2.0,55,,,,,,,,,,,,,,,,,,0.0,9.0,9.0,9.0,1.0,,,,,,,,,,
0.0,1.0,0.6737,,,,,,limousine_12s.jpg,0.0,clock_6_4.png,2.0,55,,,,,,,,,,,,,,,,,,0.0,10.0,10.0,10.0,1.0,,,,,,,,,,
1.0,1.0,0.77917,,,,,,limousine_12s.jpg,1.0,clock_6_5.png,2.0,55,,,,,,,,,,,,,,,,,,0.0,11.0,11.0,11.0,1.0,,,,,,,,,,
0.0,1.0,0.68827,,,,,,fur_coat_11s.jpg,0.0,clock_6_6.png,2.0,55,,,,,,,,,,,,,,,,,,0.0,12.0,12.0,12.0,1.0,,,,,,,,,,
0.0,1.0,0.81012,,,,,,meatball_13s.jpg,0.0,clock_6_1.png,3.0,55,,,,,,,,,,,,,,,,,,0.0,13.0,13.0,13.0,1.0,,,,,,,,,,
0.0,1.0,0.5474,,,,,,kitten_07s.jpg,0.0,clock_6_2.png,3.0,55,,,,,,,,,,,,,,,,,,0.0,14.0,14.0,14.0,1.0,,,,,,,,,,
0.0,1.0,0.761435,,,,,,radiator_05s.jpg,0.0,clock_6_3.png,3.0,55,,,,,,,,,,,,,,,,,,0.0,15.0,15.0,15.0,1.0,,,,,,,,,,
0.0,1.0,0.75485,,,,,,bacon_05s.jpg,0.0,clock_6_4.png,3.0,55,,,,,,,,,,,,,,,,,,0.0,16.0,16.0,16.0,1.0,,,,,,,,,,
0.0,1.0,0.91696,,,,,,turtleneck_11s.jpg,0.0,clock_6_5.png,3.0,55,,,,,,,,,,,,,,,,,,0.0,17.0,17.0,17.0,1.0,,,,,,,,,,
0.0,1.0,0.676975,,,,,,pea_11s.jpg,0.0,clock_6_6.png,3.0,55,,,,,,,,,,,,,,,,,,0.0,18.0,18.0,18.0,1.0,,,,,,,,,,
0.0,1.0,0.70333,,,,,,submarine_11n.jpg,0.0,clock_5_1.png,4.0,55,,,,,,,,,,,,,,,,,,0.0,19.0,19.0,19.0,1.0,,,,,,,,,,
0.0,1.0,0.555535,,,,,,phone_01b.jpg,0.0,clock_5_2.png,4.0,55,,,,,,,,,,,,,,,,,,0.0,20.0,20.0,20.0,1.0,,,,,,,,,,
0.0,1.0,0.5683,,,,,,rhinoceros_02s.jpg,0.0,clock_5_3.png,4.0,55,,,,,,,,,,,,,,,,,,0.0,21.0,21.0,21.0,1.0,,,,,,,,,,
0.0,1.0,0.80183,,,,,,spider_web_03s.jpg,0.0,clock_5_4.png,4.0,55,,,,,,,,,,,,,,,,,,0.0,22.0,22.0,22.0,1.0,,,,,,,,,,
0.0,1.0,0.74558,,,,,,reindeer_08s.jpg,0.0,clock_5_5.png,4.0,55,,,,,,,,,,,,,,,,,,0.0,23.0,23.0,23.0,1.0,,,,,,,,,,
0.0,1.0,0.71081,,,,,,jewel_01b.jpg,0.0,clock_5_1.png,5.0,55,,,,,,,,,,,,,,,,,,0.0,24.0,24.0,24.0,1.0,,,,,,,,,,
0.0,1.0,0.7509,,,,,,cap_05s.jpg,0.0,clock_5_2.png,5.0,55,,,,,,,,,,,,,,,,,,0.0,25.0,25.0,25.0,1.0,,,,,,,,,,
0.0,1.0,0.59438,,,,,,cape_11s.jpg,0.0,clock_5_3.png,5.0,55,,,,,,,,,,,,,,,,,,0.0,26.0,26.0,26.0,1.0,,,,,,,,,,
0.0,1.0,0.82066,,,,,,giraffe_11s.jpg,0.0,clock_5_4.png,5.0,55,,,,,,,,,,,,,,,,,,0.0,27.0,27.0,27.0,1.0,,,,,,,,,,
0.0,1.0,1.236515,,,,,,kitten_07s.jpg,0.0,clock_5_5.png,5.0,55,,,,,,,,,,,,,,,,,,0.0,28.0,28.0,28.0,1.0,,,,,,,,,,
0.0,1.0,0.94749,,,,,,sparkler_02s.jpg,0.0,clock_7_1.png,6.0,55,,,,,,,,,,,,,,,,,,0.0,29.0,29.0,29.0,1.0,,,,,,,,,,
1.0,1.0,0.897155,,,,,,sparkler_02s.jpg,1.0,clock_7_2.png,6.0,55,,,,,,,,,,,,,,,,,,0.0,30.0,30.0,30.0,1.0,,,,,,,,,,
0.0,1.0,0.66134,,,,,,bee_20s.jpg,0.0,clock_7_3.png,6.0,55,,,,,,,,,,,,,,,,,,0.0,31.0,31.0,31.0,1.0,,,,,,,,,,
0.0,1.0,0.773645,,,,,,jetski_10s.jpg,0.0,clock_7_4.png,6.0,55,,,,,,,,,,,,,,,,,,0.0,32.0,32.0,32.0,1.0,,,,,,,,,,
0.0,1.0,0.686925,,,,,,pear_02s.jpg,0.0,clock_7_5.png,6.0,55,,,,,,,,,,,,,,,,,,0.0,33.0,33.0,33.0,1.0,,,,,,,,,,
0.0,1.0,0.927055,,,,,,kilt_18s.jpg,0.0,clock_7_6.png,6.0,55,,,,,,,,,,,,,,,,,,0.0,34.0,34.0,34.0,1.0,,,,,,,,,,
0.0,1.0,0.988455,,,,,,bacon_05s.jpg,0.0,clock_7_7.png,6.0,55,,,,,,,,,,,,,,,,,,0.0,35.0,35.0,35.0,1.0,,,,,,,,,,
,,,,,,,,,1.0,,,55,0.0,0.0,1.936755,,,,,,turtleneck_11s.jpg,phone_01b.jpg,,,,,,,,,,,,,0.0,0.0,0.0,0.0,1.0,,,,,
,,,,,,,,,0.0,,,55,1.0,0.0,1.50298,,,,,,rhinoceros_02s.jpg,pea_11s.jpg,,,,,,,,,,,,,0.0,1.0,1.0,1.0,1.0,,,,,
,,,,,,,,,1.0,,,55,0.0,0.0,1.613205,,,,,,spider_web_03s.jpg,cap_05s.jpg,,,,,,,,,,,,,0.0,2.0,2.0,2.0,1.0,,,,,
,,,,,,,,,0.0,,,55,0.0,1.0,1.58001,,,,,,bean_06s.jpg,thorn_13s.jpg,,,,,,,,,,,,,0.0,3.0,3.0,3.0,1.0,,,,,
,,,,,,,,,0.0,,,55,0.0,1.0,1.183235,,,,,,kilt_18s.jpg,bee_20s.jpg,,,,,,,,,,,,,0.0,4.0,4.0,4.0,1.0,,,,,
,,,,,,,,,0.0,,,55,0.0,1.0,1.63092,,,,,,fur_coat_11s.jpg,lamp_08s.jpg,,,,,,,,,,,,,0.0,5.0,5.0,5.0,1.0,,,,,
,,,,,,,,,,,,55,,,,,,,,,,,,,,,,clock_present_2_18.xlsx,clock_compare_task_2_18.xlsx,,,,,,,,,,,0.0,1.0,1.0,1.0,1.0
0.0,1.0,1.39986,,,,,,thermostat_02s.jpg,0.0,clock_7_1.png,1.0,55,,,,,,,,,,,,,,,,,,0.0,0.0,0.0,0.0,1.0,,,,,,,,,,
1.0,1.0,0.995255,,,,,,thermostat_02s.jpg,1.0,clock_7_2.png,1.0,55,,,,,,,,,,,,,,,,,,0.0,1.0,1.0,1.0,1.0,,,,,,,,,,
0.0,1.0,0.79714,,,,,,raft_09s.jpg,0.0,clock_7_3.png,1.0,55,,,,,,,,,,,,,,,,,,0.0,2.0,2.0,2.0,1.0,,,,,,,,,,
0.0,1.0,0.89583,,,,,,magnet_03s.jpg,0.0,clock_7_4.png,1.0,55,,,,,,,,,,,,,,,,,,0.0,3.0,3.0,3.0,1.0,,,,,,,,,,
1.0,1.0,0.86562,,,,,,raft_09s.jpg,1.0,clock_7_5.png,1.0,55,,,,,,,,,,,,,,,,,,0.0,4.0,4.0,4.0,1.0,,,,,,,,,,
0.0,1.0,0.933805,,,,,,duck_01b.jpg,0.0,clock_7_6.png,1.0,55,,,,,,,,,,,,,,,,,,0.0,5.0,5.0,5.0,1.0,,,,,,,,,,
0.0,1.0,0.73033,,,,,,ring_03s.jpg,0.0,clock_7_7.png,1.0,55,,,,,,,,,,,,,,,,,,0.0,6.0,6.0,6.0,1.0,,,,,,,,,,
0.0,1.0,0.91109,,,,,,lectern_08s.jpg,0.0,clock_6_1.png,2.0,55,,,,,,,,,,,,,,,,,,0.0,7.0,7.0,7.0,1.0,,,,,,,,,,
0.0,1.0,0.589525,,,,,,orange_12s.jpg,0.0,clock_6_2.png,2.0,55,,,,,,,,,,,,,,,,,,0.0,8.0,8.0,8.0,1.0,,,,,,,,,,
0.0,1.0,0.85746,,,,,,swan_11s.jpg,0.0,clock_6_3.png,2.0,55,,,,,,,,,,,,,,,,,,0.0,9.0,9.0,9.0,1.0,,,,,,,,,,
0.0,1.0,0.68435,,,,,,seahorse_13s.jpg,0.0,clock_6_4.png,2.0,55,,,,,,,,,,,,,,,,,,0.0,10.0,10.0,10.0,1.0,,,,,,,,,,
0.0,1.0,0.777895,,,,,,mosquito_12s.jpg,0.0,clock_6_5.png,2.0,55,,,,,,,,,,,,,,,,,,0.0,11.0,11.0,11.0,1.0,,,,,,,,,,
0.0,1.0,0.66757,,,,,,leash_10s.jpg,0.0,clock_6_6.png,2.0,55,,,,,,,,,,,,,,,,,,0.0,12.0,12.0,12.0,1.0,,,,,,,,,,
0.0,1.0,0.729475,,,,,,rudder_02s.jpg,0.0,clock_5_1.png,3.0,55,,,,,,,,,,,,,,,,,,0.0,13.0,13.0,13.0,1.0,,,,,,,,,,
0.0,1.0,0.51656,,,,,,quilt_03s.jpg,0.0,clock_5_2.png,3.0,55,,,,,,,,,,,,,,,,,,0.0,14.0,14.0,14.0,1.0,,,,,,,,,,
0.0,1.0,0.697145,,,,,,peach_04s.jpg,0.0,clock_5_3.png,3.0,55,,,,,,,,,,,,,,,,,,0.0,15.0,15.0,15.0,1.0,,,,,,,,,,
1.0,1.0,0.882195,,,,,,quilt_03s.jpg,1.0,clock_5_4.png,3.0,55,,,,,,,,,,,,,,,,,,0.0,16.0,16.0,16.0,1.0,,,,,,,,,,
0.0,1.0,0.651165,,,,,,roller_coaster_07s.jpg,0.0,clock_5_5.png,3.0,55,,,,,,,,,,,,,,,,,,0.0,17.0,17.0,17.0,1.0,,,,,,,,,,
0.0,1.0,0.935295,,,,,,gargoyle_08s.jpg,0.0,clock_6_1.png,4.0,55,,,,,,,,,,,,,,,,,,0.0,18.0,18.0,18.0,1.0,,,,,,,,,,
0.0,1.0,1.09798,,,,,,rudder_02s.jpg,0.0,clock_6_2.png,4.0,55,,,,,,,,,,,,,,,,,,0.0,19.0,19.0,19.0,1.0,,,,,,,,,,
0.0,1.0,1.17971,,,,,,mannequin_05s.jpg,0.0,clock_6_3.png,4.0,55,,,,,,,,,,,,,,,,,,0.0,20.0,20.0,20.0,1.0,,,,,,,,,,
0.0,1.0,0.867275,,,,,,machete_06s.jpg,0.0,clock_6_4.png,4.0,55,,,,,,,,,,,,,,,,,,0.0,21.0,21.0,21.0,1.0,,,,,,,,,,
0.0,1.0,1.06595,,,,,,mailbox_11s.jpg,0.0,clock_6_5.png,4.0,55,,,,,,,,,,,,,,,,,,0.0,22.0,22.0,22.0,1.0,,,,,,,,,,
0.0,1.0,0.661055,,,,,,ruby_15s.jpg,0.0,clock_6_6.png,4.0,55,,,,,,,,,,,,,,,,,,0.0,23.0,23.0,23.0,1.0,,,,,,,,,,
0.0,1.0,0.760375,,,,,,glasses01a.jpg,0.0,clock_7_1.png,5.0,55,,,,,,,,,,,,,,,,,,0.0,24.0,24.0,24.0,1.0,,,,,,,,,,
1.0,1.0,0.748525,,,,,,glasses01a.jpg,1.0,clock_7_2.png,5.0,55,,,,,,,,,,,,,,,,,,0.0,25.0,25.0,25.0,1.0,,,,,,,,,,
1.0,1.0,0.89489,,,,,,glasses01a.jpg,1.0,clock_7_3.png,5.0,55,,,,,,,,,,,,,,,,,,0.0,26.0,26.0,26.0,1.0,,,,,,,,,,
0.0,1.0,0.77112,,,,,,rolling_pin_02s.jpg,0.0,clock_7_4.png,5.0,55,,,,,,,,,,,,,,,,,,0.0,27.0,27.0,27.0,1.0,,,,,,,,,,
0.0,1.0,0.84659,,,,,,scooter.jpg,0.0,clock_7_5.png,5.0,55,,,,,,,,,,,,,,,,,,0.0,28.0,28.0,28.0,1.0,,,,,,,,,,
0.0,1.0,1.137975,,,,,,puffin_19s.jpg,0.0,clock_7_6.png,5.0,55,,,,,,,,,,,,,,,,,,0.0,29.0,29.0,29.0,1.0,,,,,,,,,,
0.0,1.0,0.88384,,,,,,roulette_wheel_04s.jpg,0.0,clock_7_7.png,5.0,55,,,,,,,,,,,,,,,,,,0.0,30.0,30.0,30.0,1.0,,,,,,,,,,
0.0,1.0,0.68139,,,,,,crab_16s.jpg,0.0,clock_5_1.png,6.0,55,,,,,,,,,,,,,,,,,,0.0,31.0,31.0,31.0,1.0,,,,,,,,,,
1.0,1.0,0.81827,,,,,,crab_16s.jpg,1.0,clock_5_2.png,6.0,55,,,,,,,,,,,,,,,,,,0.0,32.0,32.0,32.0,1.0,,,,,,,,,,
0.0,1.0,0.749045,,,,,,timer_03s.jpg,0.0,clock_5_3.png,6.0,55,,,,,,,,,,,,,,,,,,0.0,33.0,33.0,33.0,1.0,,,,,,,,,,
0.0,1.0,1.446625,,,,,,paper_towel_03s.jpg,0.0,clock_5_4.png,6.0,55,,,,,,,,,,,,,,,,,,0.0,34.0,34.0,34.0,1.0,,,,,,,,,,
0.0,1.0,0.70267,,,,,,orange_12s.jpg,0.0,clock_5_5.png,6.0,55,,,,,,,,,,,,,,,,,,0.0,35.0,35.0,35.0,1.0,,,,,,,,,,
,,,,,,,,,1.0,,,55,0.0,0.0,1.28835,,,,,,leash_10s.jpg,peach_04s.jpg,,,,,,,,,,,,,0.0,0.0,0.0,0.0,1.0,,,,,
,,,,,,,,,0.0,,,55,1.0,0.0,1.36511,,,,,,mannequin_05s.jpg,roller_coaster_07s.jpg,,,,,,,,,,,,,0.0,1.0,1.0,1.0,1.0,,,,,
,,,,,,,,,0.0,,,55,1.0,0.0,2.016485,,,,,,timer_03s.jpg,roulette_wheel_04s.jpg,,,,,,,,,,,,,0.0,2.0,2.0,2.0,1.0,,,,,
,,,,,,,,,0.0,,,55,0.0,1.0,1.632845,,,,,,seahorse_13s.jpg,lectern_08s.jpg,,,,,,,,,,,,,0.0,3.0,3.0,3.0,1.0,,,,,
,,,,,,,,,0.0,,,55,0.0,1.0,1.54652,,,,,,ring_03s.jpg,magnet_03s.jpg,,,,,,,,,,,,,0.0,4.0,4.0,4.0,1.0,,,,,
,,,,,,,,,0.0,,,55,0.0,1.0,1.369785,,,,,,machete_06s.jpg,gargoyle_08s.jpg,,,,,,,,,,,,,0.0,5.0,5.0,5.0,1.0,,,,,
,,,,,,,,,,,,55,,,,,,,,,,,,,,,,clock_present_3_18.xlsx,clock_compare_task_3_18.xlsx,,,,,,,,,,,0.0,2.0,2.0,2.0,1.0
0.0,1.0,1.447,,,,,,peeler_06s.jpg,0.0,clock_6_1.png,1.0,55,,,,,,,,,,,,,,,,,,0.0,0.0,0.0,0.0,1.0,,,,,,,,,,
0.0,1.0,0.51866,,,,,,flip_flop_03s.jpg,0.0,clock_6_2.png,1.0,55,,,,,,,,,,,,,,,,,,0.0,1.0,1.0,1.0,1.0,,,,,,,,,,
1.0,1.0,1.016125,,,,,,flip_flop_03s.jpg,1.0,clock_6_3.png,1.0,55,,,,,,,,,,,,,,,,,,0.0,2.0,2.0,2.0,1.0,,,,,,,,,,
0.0,1.0,0.75658,,,,,,orchid_01b.jpg,0.0,clock_6_4.png,1.0,55,,,,,,,,,,,,,,,,,,0.0,3.0,3.0,3.0,1.0,,,,,,,,,,
1.0,1.0,1.16734,,,,,,peeler_06s.jpg,1.0,clock_6_5.png,1.0,55,,,,,,,,,,,,,,,,,,0.0,4.0,4.0,4.0,1.0,,,,,,,,,,
0.0,1.0,0.650605,,,,,,machine_gun_09s.jpg,0.0,clock_6_6.png,1.0,55,,,,,,,,,,,,,,,,,,0.0,5.0,5.0,5.0,1.0,,,,,,,,,,
0.0,1.0,0.654055,,,,,,tattoo_14s.jpg,0.0,clock_5_1.png,2.0,55,,,,,,,,,,,,,,,,,,0.0,6.0,6.0,6.0,1.0,,,,,,,,,,
1.0,1.0,0.80787,,,,,,tattoo_14s.jpg,1.0,clock_5_2.png,2.0,55,,,,,,,,,,,,,,,,,,0.0,7.0,7.0,7.0,1.0,,,,,,,,,,
0.0,1.0,0.899585,,,,,,bolo_tie_08s.jpg,0.0,clock_5_3.png,2.0,55,,,,,,,,,,,,,,,,,,0.0,8.0,8.0,8.0,1.0,,,,,,,,,,
0.0,1.0,0.780965,,,,,,petri_dish_12s.jpg,0.0,clock_5_4.png,2.0,55,,,,,,,,,,,,,,,,,,0.0,9.0,9.0,9.0,1.0,,,,,,,,,,
0.0,1.0,0.631095,,,,,,mushroom_10n.jpg,0.0,clock_5_5.png,2.0,55,,,,,,,,,,,,,,,,,,0.0,10.0,10.0,10.0,1.0,,,,,,,,,,
0.0,1.0,0.680635,,,,,,tape_06s.jpg,0.0,clock_7_1.png,3.0,55,,,,,,,,,,,,,,,,,,0.0,11.0,11.0,11.0,1.0,,,,,,,,,,
1.0,1.0,0.999135,,,,,,tape_06s.jpg,1.0,clock_7_2.png,3.0,55,,,,,,,,,,,,,,,,,,0.0,12.0,12.0,12.0,1.0,,,,,,,,,,
1.0,1.0,0.89512,,,,,,tape_06s.jpg,1.0,clock_7_3.png,3.0,55,,,,,,,,,,,,,,,,,,0.0,13.0,13.0,13.0,1.0,,,,,,,,,,
0.0,1.0,0.646415,,,,,,rug_09s.jpg,0.0,clock_7_4.png,3.0,55,,,,,,,,,,,,,,,,,,0.0,14.0,14.0,14.0,1.0,,,,,,,,,,
0.0,1.0,0.748595,,,,,,teabag_12s.jpg,0.0,clock_7_5.png,3.0,55,,,,,,,,,,,,,,,,,,0.0,15.0,15.0,15.0,1.0,,,,,,,,,,
0.0,1.0,0.970185,,,,,,jet_15s.jpg,0.0,clock_7_6.png,3.0,55,,,,,,,,,,,,,,,,,,0.0,16.0,16.0,16.0,1.0,,,,,,,,,,
0.0,1.0,0.676925,,,,,,throne_11s.jpg,0.0,clock_7_7.png,3.0,55,,,,,,,,,,,,,,,,,,0.0,17.0,17.0,17.0,1.0,,,,,,,,,,
0.0,1.0,1.012715,,,,,,padlock_07s.jpg,0.0,clock_5_1.png,4.0,55,,,,,,,,,,,,,,,,,,0.0,18.0,18.0,18.0,1.0,,,,,,,,,,
1.0,1.0,0.84065,,,,,,padlock_07s.jpg,1.0,clock_5_2.png,4.0,55,,,,,,,,,,,,,,,,,,0.0,19.0,19.0,19.0,1.0,,,,,,,,,,
0.0,1.0,1.377775,,,,,,purse_05s.jpg,0.0,clock_5_3.png,4.0,55,,,,,,,,,,,,,,,,,,0.0,20.0,20.0,20.0,1.0,,,,,,,,,,
0.0,1.0,0.74704,,,,,,snowman_02s.jpg,0.0,clock_5_4.png,4.0,55,,,,,,,,,,,,,,,,,,0.0,21.0,21.0,21.0,1.0,,,,,,,,,,
1.0,1.0,0.814245,,,,,,purse_05s.jpg,1.0,clock_5_5.png,4.0,55,,,,,,,,,,,,,,,,,,0.0,22.0,22.0,22.0,1.0,,,,,,,,,,
0.0,1.0,0.904485,,,,,,cotton_candy_01b.jpg,0.0,clock_6_1.png,5.0,55,,,,,,,,,,,,,,,,,,0.0,23.0,23.0,23.0,1.0,,,,,,,,,,
0.0,1.0,0.7707,,,,,,lollipop_08s.jpg,0.0,clock_6_2.png,5.0,55,,,,,,,,,,,,,,,,,,0.0,24.0,24.0,24.0,1.0,,,,,,,,,,
0.0,1.0,0.996135,,,,,,birthday_cake_09s.jpg,0.0,clock_6_3.png,5.0,55,,,,,,,,,,,,,,,,,,0.0,25.0,25.0,25.0,1.0,,,,,,,,,,
0.0,1.0,1.13346,,,,,,pipe1_10s.jpg,0.0,clock_6_4.png,5.0,55,,,,,,,,,,,,,,,,,,0.0,26.0,26.0,26.0,1.0,,,,,,,,,,
0.0,1.0,0.697705,,,,,,totem_pole_05s.jpg,0.0,clock_6_5.png,5.0,55,,,,,,,,,,,,,,,,,,0.0,27.0,27.0,27.0,1.0,,,,,,,,,,
0.0,1.0,0.666425,,,,,,teapot_03s.jpg,0.0,clock_6_6.png,5.0,55,,,,,,,,,,,,,,,,,,0.0,28.0,28.0,28.0,1.0,,,,,,,,,,
0.0,1.0,0.66827,,,,,,polaroid_05s.jpg,0.0,clock_7_1.png,6.0,55,,,,,,,,,,,,,,,,,,0.0,29.0,29.0,29.0,1.0,,,,,,,,,,
0.0,1.0,0.60269,,,,,,marker_05s.jpg,0.0,clock_7_2.png,6.0,55,,,,,,,,,,,,,,,,,,0.0,30.0,30.0,30.0,1.0,,,,,,,,,,
0.0,1.0,0.570845,,,,,,pacifier_09s.jpg,0.0,clock_7_3.png,6.0,55,,,,,,,,,,,,,,,,,,0.0,31.0,31.0,31.0,1.0,,,,,,,,,,
0.0,1.0,1.148715,,,,,,comic_book_02s.jpg,0.0,clock_7_4.png,6.0,55,,,,,,,,,,,,,,,,,,0.0,32.0,32.0,32.0,1.0,,,,,,,,,,
0.0,1.0,0.85007,,,,,,telephone_pole_05s.jpg,0.0,clock_7_5.png,6.0,55,,,,,,,,,,,,,,,,,,0.0,33.0,33.0,33.0,1.0,,,,,,,,,,
0.0,1.0,0.653705,,,,,,turnstile_08s.jpg,0.0,clock_7_6.png,6.0,55,,,,,,,,,,,,,,,,,,0.0,34.0,34.0,34.0,1.0,,,,,,,,,,
0.0,1.0,0.709365,,,,,,jersey_02s.jpg,0.0,clock_7_7.png,6.0,55,,,,,,,,,,,,,,,,,,0.0,35.0,35.0,35.0,1.0,,,,,,,,,,
,,,,,,,,,0.0,,,55,1.0,0.0,2.076425,,,,,,bolo_tie_08s.jpg,machine_gun_09s.jpg,,,,,,,,,,,,,0.0,0.0,0.0,0.0,1.0,,,,,
,,,,,,,,,0.0,,,55,1.0,0.0,1.642885,,,,,,lollipop_08s.jpg,snowman_02s.jpg,,,,,,,,,,,,,0.0,1.0,1.0,1.0,1.0,,,,,
,,,,,,,,,1.0,,,55,0.0,0.0,5.705155,,,,,,pipe1_10s.jpg,polaroid_05s.jpg,,,,,,,,,,,,,0.0,2.0,2.0,2.0,1.0,,,,,
,,,,,,,,,1.0,,,55,1.0,1.0,1.186115,,,,,,rug_09s.jpg,throne_11s.jpg,,,,,,,,,,,,,0.0,3.0,3.0,3.0,1.0,,,,,
,,,,,,,,,0.0,,,55,0.0,1.0,1.648475,,,,,,jersey_02s.jpg,comic_book_02s.jpg,,,,,,,,,,,,,0.0,4.0,4.0,4.0,1.0,,,,,
,,,,,,,,,0.0,,,55,0.0,1.0,2.223105,,,,,,teapot_03s.jpg,birthday_cake_09s.jpg,,,,,,,,,,,,,0.0,5.0,5.0,5.0,1.0,,,,,
,,,,,,,,,,,,55,,,,,,,,,,,,,,,,clock_present_4_18.xlsx,clock_compare_task_4_18.xlsx,,,,,,,,,,,0.0,3.0,3.0,3.0,1.0
0.0,1.0,1.30588,,,,,,plunger_08s.jpg,0.0,clock_7_1.png,1.0,55,,,,,,,,,,,,,,,,,,0.0,0.0,0.0,0.0,1.0,,,,,,,,,,
0.0,1.0,0.896505,,,,,,footprint_11s.jpg,0.0,clock_7_2.png,1.0,55,,,,,,,,,,,,,,,,,,0.0,1.0,1.0,1.0,1.0,,,,,,,,,,
1.0,1.0,0.85351,,,,,,plunger_08s.jpg,1.0,clock_7_3.png,1.0,55,,,,,,,,,,,,,,,,,,0.0,2.0,2.0,2.0,1.0,,,,,,,,,,
0.0,1.0,0.92052,,,,,,pepper2_21s.jpg,0.0,clock_7_4.png,1.0,55,,,,,,,,,,,,,,,,,,0.0,3.0,3.0,3.0,1.0,,,,,,,,,,
0.0,1.0,0.83267,,,,,,mitten_10s.jpg,0.0,clock_7_5.png,1.0,55,,,,,,,,,,,,,,,,,,0.0,4.0,4.0,4.0,1.0,,,,,,,,,,
0.0,1.0,0.6102,,,,,,dynamite_01b.jpg,0.0,clock_7_6.png,1.0,55,,,,,,,,,,,,,,,,,,0.0,5.0,5.0,5.0,1.0,,,,,,,,,,
0.0,1.0,0.632305,,,,,,recliner_02s.jpg,0.0,clock_7_7.png,1.0,55,,,,,,,,,,,,,,,,,,0.0,6.0,6.0,6.0,1.0,,,,,,,,,,
0.0,1.0,0.71284,,,,,,crossbow_10s.jpg,0.0,clock_7_1.png,2.0,55,,,,,,,,,,,,,,,,,,0.0,7.0,7.0,7.0,1.0,,,,,,,,,,
0.0,1.0,0.611045,,,,,,fondue_07s.jpg,0.0,clock_7_2.png,2.0,55,,,,,,,,,,,,,,,,,,0.0,8.0,8.0,8.0,1.0,,,,,,,,,,
0.0,1.0,0.696295,,,,,,sushi_08s.jpg,0.0,clock_7_3.png,2.0,55,,,,,,,,,,,,,,,,,,0.0,9.0,9.0,9.0,1.0,,,,,,,,,,
1.0,1.0,1.030865,,,,,,fondue_07s.jpg,1.0,clock_7_4.png,2.0,55,,,,,,,,,,,,,,,,,,0.0,10.0,10.0,10.0,1.0,,,,,,,,,,
0.0,1.0,0.69905,,,,,,tiara_05s.jpg,0.0,clock_7_5.png,2.0,55,,,,,,,,,,,,,,,,,,0.0,11.0,11.0,11.0,1.0,,,,,,,,,,
0.0,1.0,0.877625,,,,,,contact_lens_15s.jpg,0.0,clock_7_6.png,2.0,55,,,,,,,,,,,,,,,,,,0.0,12.0,12.0,12.0,1.0,,,,,,,,,,
0.0,1.0,1.384315,,,,,,plunger_08s.jpg,0.0,clock_7_7.png,2.0,55,,,,,,,,,,,,,,,,,,0.0,13.0,13.0,13.0,1.0,,,,,,,,,,
0.0,1.0,0.693675,,,,,,polar_bear_02s.jpg,0.0,clock_5_1.png,3.0,55,,,,,,,,,,,,,,,,,,0.0,14.0,14.0,14.0,1.0,,,,,,,,,,
0.0,1.0,0.74408,,,,,,cereal_04s.jpg,0.0,clock_5_2.png,3.0,55,,,,,,,,,,,,,,,,,,0.0,15.0,15.0,15.0,1.0,,,,,,,,,,
0.0,1.0,0.66177,,,,,,hummingbird_05s.jpg,0.0,clock_5_3.png,3.0,55,,,,,,,,,,,,,,,,,,0.0,16.0,16.0,16.0,1.0,,,,,,,,,,
1.0,1.0,1.092075,,,,,,polar_bear_02s.jpg,1.0,clock_5_4.png,3.0,55,,,,,,,,,,,,,,,,,,0.0,17.0,17.0,17.0,1.0,,,,,,,,,,
0.0,1.0,0.611165,,,,,,omelet_07s.jpg,0.0,clock_5_5.png,3.0,55,,,,,,,,,,,,,,,,,,0.0,18.0,18.0,18.0,1.0,,,,,,,,,,
0.0,1.0,0.74834,,,,,,buoy_04s.jpg,0.0,clock_6_1.png,4.0,55,,,,,,,,,,,,,,,,,,0.0,19.0,19.0,19.0,1.0,,,,,,,,,,
0.0,1.0,0.68731,,,,,,dynamite_01b.jpg,0.0,clock_6_2.png,4.0,55,,,,,,,,,,,,,,,,,,0.0,20.0,20.0,20.0,1.0,,,,,,,,,,
0.0,1.0,0.74395,,,,,,peanut_butter_08s.jpg,0.0,clock_6_3.png,4.0,55,,,,,,,,,,,,,,,,,,0.0,21.0,21.0,21.0,1.0,,,,,,,,,,
1.0,1.0,1.27212,,,,,,buoy_04s.jpg,1.0,clock_6_4.png,4.0,55,,,,,,,,,,,,,,,,,,0.0,22.0,22.0,22.0,1.0,,,,,,,,,,
0.0,1.0,0.780275,,,,,,tripod_01b.jpg,0.0,clock_6_5.png,4.0,55,,,,,,,,,,,,,,,,,,0.0,23.0,23.0,23.0,1.0,,,,,,,,,,
1.0,1.0,0.94117,,,,,,tripod_01b.jpg,1.0,clock_6_6.png,4.0,55,,,,,,,,,,,,,,,,,,0.0,24.0,24.0,24.0,1.0,,,,,,,,,,
0.0,1.0,0.88232,,,,,,spoon02a.jpg,0.0,clock_5_1.png,5.0,55,,,,,,,,,,,,,,,,,,0.0,25.0,25.0,25.0,1.0,,,,,,,,,,
0.0,1.0,0.665295,,,,,,spatula04.jpg,0.0,clock_5_2.png,5.0,55,,,,,,,,,,,,,,,,,,0.0,26.0,26.0,26.0,1.0,,,,,,,,,,
0.0,1.0,1.285955,,,,,,sugar_cube_11s.jpg,0.0,clock_5_3.png,5.0,55,,,,,,,,,,,,,,,,,,0.0,27.0,27.0,27.0,1.0,,,,,,,,,,
0.0,1.0,0.67418,,,,,,recliner_02s.jpg,0.0,clock_5_4.png,5.0,55,,,,,,,,,,,,,,,,,,0.0,28.0,28.0,28.0,1.0,,,,,,,,,,
0.0,1.0,0.598625,,,,,,stethoscope_01b.jpg,0.0,clock_5_5.png,5.0,55,,,,,,,,,,,,,,,,,,0.0,29.0,29.0,29.0,1.0,,,,,,,,,,
0.0,1.0,0.66816,,,,,,coconut_08s.jpg,0.0,clock_6_1.png,6.0,55,,,,,,,,,,,,,,,,,,0.0,30.0,30.0,30.0,1.0,,,,,,,,,,
0.0,1.0,0.771985,,,,,,pocketknife_12s.jpg,0.0,clock_6_2.png,6.0,55,,,,,,,,,,,,,,,,,,0.0,31.0,31.0,31.0,1.0,,,,,,,,,,
0.0,1.0,0.659045,,,,,,jigsaw_puzzle_11s.jpg,0.0,clock_6_3.png,6.0,55,,,,,,,,,,,,,,,,,,0.0,32.0,32.0,32.0,1.0,,,,,,,,,,
0.0,1.0,0.601315,,,,,,denture_03s.jpg,0.0,clock_6_4.png,6.0,55,,,,,,,,,,,,,,,,,,0.0,33.0,33.0,33.0,1.0,,,,,,,,,,
0.0,1.0,0.711685,,,,,,mask_09s.jpg,0.0,clock_6_5.png,6.0,55,,,,,,,,,,,,,,,,,,0.0,34.0,34.0,34.0,1.0,,,,,,,,,,
0.0,1.0,0.68155,,,,,,ivy_12s.jpg,0.0,clock_6_6.png,6.0,55,,,,,,,,,,,,,,,,,,0.0,35.0,35.0,35.0,1.0,,,,,,,,,,
,,,,,,,,,0.0,,,55,0.0,1.0,1.63759,,,,,,crossbow_10s.jpg,mitten_10s.jpg,,,,,,,,,,,,,0.0,0.0,0.0,0.0,1.0,,,,,
,,,,,,,,,0.0,,,55,0.0,1.0,3.82217,,,,,,peanut_butter_08s.jpg,omelet_07s.jpg,,,,,,,,,,,,,0.0,1.0,1.0,1.0,1.0,,,,,
,,,,,,,,,1.0,,,55,1.0,1.0,1.916405,,,,,,sugar_cube_11s.jpg,coconut_08s.jpg,,,,,,,,,,,,,0.0,2.0,2.0,2.0,1.0,,,,,
,,,,,,,,,1.0,,,55,1.0,1.0,2.996635,,,,,,pocketknife_12s.jpg,mask_09s.jpg,,,,,,,,,,,,,0.0,3.0,3.0,3.0,1.0,,,,,
,,,,,,,,,0.0,,,55,0.0,1.0,2.828765,,,,,,contact_lens_15s.jpg,sushi_08s.jpg,,,,,,,,,,,,,0.0,4.0,4.0,4.0,1.0,,,,,
,,,,,,,,,0.0,,,55,0.0,1.0,4.129095,,,,,,stethoscope_01b.jpg,spatula04.jpg,,,,,,,,,,,,,0.0,5.0,5.0,5.0,1.0,,,,,
,,,,,,,,,,,,55,,,,,,,,,,,,,,,,clock_present_5_18.xlsx,clock_compare_task_5_18.xlsx,,,,,,,,,,,0.0,4.0,4.0,4.0,1.0
0.0,1.0,1.05321,,,,,,kite_04s.jpg,0.0,clock_5_1.png,1.0,55,,,,,,,,,,,,,,,,,,0.0,0.0,0.0,0.0,1.0,,,,,,,,,,
0.0,1.0,0.62939,,,,,,pretzel_09s.jpg,0.0,clock_5_2.png,1.0,55,,,,,,,,,,,,,,,,,,0.0,1.0,1.0,1.0,1.0,,,,,,,,,,
0.0,1.0,0.667075,,,,,,diving_board_07s.jpg,0.0,clock_5_3.png,1.0,55,,,,,,,,,,,,,,,,,,0.0,2.0,2.0,2.0,1.0,,,,,,,,,,
0.0,1.0,0.811975,,,,,,prism_10s.jpg,0.0,clock_5_4.png,1.0,55,,,,,,,,,,,,,,,,,,0.0,3.0,3.0,3.0,1.0,,,,,,,,,,
0.0,1.0,0.740825,,,,,,plug_08s.jpg,0.0,clock_5_5.png,1.0,55,,,,,,,,,,,,,,,,,,0.0,4.0,4.0,4.0,1.0,,,,,,,,,,
0.0,1.0,0.82406,,,,,,antenna_01b.jpg,0.0,clock_7_1.png,2.0,55,,,,,,,,,,,,,,,,,,0.0,5.0,5.0,5.0,1.0,,,,,,,,,,
0.0,1.0,1.194355,,,,,,pretzel_09s.jpg,0.0,clock_7_2.png,2.0,55,,,,,,,,,,,,,,,,,,0.0,6.0,6.0,6.0,1.0,,,,,,,,,,
0.0,1.0,0.621685,,,,,,mug_06s.jpg,0.0,clock_7_3.png,2.0,55,,,,,,,,,,,,,,,,,,0.0,7.0,7.0,7.0,1.0,,,,,,,,,,
1.0,1.0,1.41535,,,,,,antenna_01b.jpg,1.0,clock_7_4.png,2.0,55,,,,,,,,,,,,,,,,,,0.0,8.0,8.0,8.0,1.0,,,,,,,,,,
0.0,1.0,1.099695,,,,,,sledgehammer_03s.jpg,0.0,clock_7_5.png,2.0,55,,,,,,,,,,,,,,,,,,0.0,9.0,9.0,9.0,1.0,,,,,,,,,,
0.0,1.0,1.600595,,,,,,plug_08s.jpg,0.0,clock_7_6.png,2.0,55,,,,,,,,,,,,,,,,,,0.0,10.0,10.0,10.0,1.0,,,,,,,,,,
0.0,1.0,0.72127,,,,,,gas_mask_11s.jpg,0.0,clock_7_7.png,2.0,55,,,,,,,,,,,,,,,,,,0.0,11.0,11.0,11.0,1.0,,,,,,,,,,
0.0,1.0,0.89387,,,,,,coat_rack_01b.jpg,0.0,clock_7_1.png,3.0,55,,,,,,,,,,,,,,,,,,0.0,12.0,12.0,12.0,1.0,,,,,,,,,,
0.0,1.0,0.663005,,,,,,ladle_04s.jpg,0.0,clock_7_2.png,3.0,55,,,,,,,,,,,,,,,,,,0.0,13.0,13.0,13.0,1.0,,,,,,,,,,
0.0,1.0,0.971455,,,,,,fishhook_06s.jpg,0.0,clock_7_3.png,3.0,55,,,,,,,,,,,,,,,,,,0.0,14.0,14.0,14.0,1.0,,,,,,,,,,
0.0,1.0,0.96986,,,,,,camcorder_10s.jpg,0.0,clock_7_4.png,3.0,55,,,,,,,,,,,,,,,,,,0.0,15.0,15.0,15.0,1.0,,,,,,,,,,
0.0,1.0,0.83529,,,,,,koala_13s.jpg,0.0,clock_7_5.png,3.0,55,,,,,,,,,,,,,,,,,,0.0,16.0,16.0,16.0,1.0,,,,,,,,,,
0.0,1.0,0.65602,,,,,,treadmill_06s.jpg,0.0,clock_7_6.png,3.0,55,,,,,,,,,,,,,,,,,,0.0,17.0,17.0,17.0,1.0,,,,,,,,,,
0.0,1.0,0.76837,,,,,,jukebox_03n.jpg,0.0,clock_7_7.png,3.0,55,,,,,,,,,,,,,,,,,,0.0,18.0,18.0,18.0,1.0,,,,,,,,,,
0.0,1.0,0.82854,,,,,,trident_07s.jpg,0.0,clock_6_1.png,4.0,55,,,,,,,,,,,,,,,,,,0.0,19.0,19.0,19.0,1.0,,,,,,,,,,
0.0,1.0,0.62691,,,,,,loveseat_08s.jpg,0.0,clock_6_2.png,4.0,55,,,,,,,,,,,,,,,,,,0.0,20.0,20.0,20.0,1.0,,,,,,,,,,
0.0,1.0,0.673615,,,,,,muffin_12n.jpg,0.0,clock_6_3.png,4.0,55,,,,,,,,,,,,,,,,,,0.0,21.0,21.0,21.0,1.0,,,,,,,,,,
0.0,1.0,0.85186,,,,,,squirrel_02s.jpg,0.0,clock_6_4.png,4.0,55,,,,,,,,,,,,,,,,,,0.0,22.0,22.0,22.0,1.0,,,,,,,,,,
0.0,1.0,0.7331,,,,,,gas_mask_11s.jpg,0.0,clock_6_5.png,4.0,55,,,,,,,,,,,,,,,,,,0.0,23.0,23.0,23.0,1.0,,,,,,,,,,
0.0,1.0,0.578075,,,,,,birdcage_08s.jpg,0.0,clock_6_6.png,4.0,55,,,,,,,,,,,,,,,,,,0.0,24.0,24.0,24.0,1.0,,,,,,,,,,
0.0,1.0,0.96462,,,,,,sea_urchin_09s.jpg,0.0,clock_5_1.png,5.0,55,,,,,,,,,,,,,,,,,,0.0,25.0,25.0,25.0,1.0,,,,,,,,,,
0.0,1.0,0.61134,,,,,,lizard_10n.jpg,0.0,clock_5_2.png,5.0,55,,,,,,,,,,,,,,,,,,0.0,26.0,26.0,26.0,1.0,,,,,,,,,,
0.0,1.0,0.611565,,,,,,refrigerator_07s.jpg,0.0,clock_5_3.png,5.0,55,,,,,,,,,,,,,,,,,,0.0,27.0,27.0,27.0,1.0,,,,,,,,,,
0.0,1.0,0.84091,,,,,,toilet_paper_12s.jpg,0.0,clock_5_4.png,5.0,55,,,,,,,,,,,,,,,,,,0.0,28.0,28.0,28.0,1.0,,,,,,,,,,
0.0,1.0,0.72284,,,,,,pantyhose_07s.jpg,0.0,clock_5_5.png,5.0,55,,,,,,,,,,,,,,,,,,0.0,29.0,29.0,29.0,1.0,,,,,,,,,,
0.0,1.0,0.63869,,,,,,screwdriver02a.jpg,0.0,clock_6_1.png,6.0,55,,,,,,,,,,,,,,,,,,0.0,30.0,30.0,30.0,1.0,,,,,,,,,,
0.0,1.0,1.15295,,,,,,toaster_03s.jpg,0.0,clock_6_2.png,6.0,55,,,,,,,,,,,,,,,,,,0.0,31.0,31.0,31.0,1.0,,,,,,,,,,
0.0,1.0,1.02033,,,,,,toad_09s.jpg,0.0,clock_6_3.png,6.0,55,,,,,,,,,,,,,,,,,,0.0,32.0,32.0,32.0,1.0,,,,,,,,,,
0.0,1.0,0.70186,,,,,,pincushion_10s.jpg,0.0,clock_6_4.png,6.0,55,,,,,,,,,,,,,,,,,,0.0,33.0,33.0,33.0,1.0,,,,,,,,,,
1.0,1.0,1.28188,,,,,,screwdriver02a.jpg,1.0,clock_6_5.png,6.0,55,,,,,,,,,,,,,,,,,,0.0,34.0,34.0,34.0,1.0,,,,,,,,,,
0.0,1.0,0.78003,,,,,,coat_rack_01b.jpg,0.0,clock_6_6.png,6.0,55,,,,,,,,,,,,,,,,,,0.0,35.0,35.0,35.0,1.0,,,,,,,,,,
,,,,,,,,,0.0,,,55,0.0,1.0,1.770905,,,,,,loveseat_08s.jpg,treadmill_06s.jpg,,,,,,,,,,,,,0.0,0.0,0.0,0.0,1.0,,,,,
,,,,,,,,,1.0,,,55,0.0,0.0,5.04608,,,,,,birdcage_08s.jpg,refrigerator_07s.jpg,,,,,,,,,,,,,0.0,1.0,1.0,1.0,1.0,,,,,
,,,,,,,,,0.0,,,55,1.0,0.0,1.734385,,,,,,toaster_03s.jpg,toilet_paper_12s.jpg,,,,,,,,,,,,,0.0,2.0,2.0,2.0,1.0,,,,,
,,,,,,,,,0.0,,,55,0.0,1.0,2.902675,,,,,,prism_10s.jpg,kite_04s.jpg,,,,,,,,,,,,,0.0,3.0,3.0,3.0,1.0,,,,,
,,,,,,,,,1.0,,,55,1.0,1.0,1.97933,,,,,,ladle_04s.jpg,koala_13s.jpg,,,,,,,,,,,,,0.0,4.0,4.0,4.0,1.0,,,,,
,,,,,,,,,1.0,,,55,1.0,1.0,1.17525,,,,,,camcorder_10s.jpg,jukebox_03n.jpg,,,,,,,,,,,,,0.0,5.0,5.0,5.0,1.0,,,,,
