key_resp.keys,key_resp.corr,key_resp.rt,noclock_loop.thisRepN,noclock_loop.thisTrialN,noclock_loop.thisN,noclock_loop.thisIndex,noclock_loop.ran,pictures,answer,clock,segment,participant,key_resp_2.keys,key_resp_2.corr,key_resp_2.rt,noclock_loop2.thisRepN,noclock_loop2.thisTrialN,noclock_loop2.thisN,noclock_loop2.thisIndex,noclock_loop2.ran,item_a,item_b,noclock_condition.thisRepN,noclock_condition.thisTrialN,noclock_condition.thisN,noclock_condition.thisIndex,noclock_condition.ran,present,compare,present_segment.thisRepN,present_segment.thisTrialN,present_segment.thisN,present_segment.thisIndex,present_segment.ran,compare_segment.thisRepN,compare_segment.thisTrialN,compare_segment.thisN,compare_segment.thisIndex,compare_segment.ran,clock_conditions.thisRepN,clock_conditions.thisTrialN,clock_conditions.thisN,clock_conditions.thisIndex,clock_conditions.ran
0.0,1.0,0.965025,0.0,0.0,0.0,0.0,1.0,harpoon.jpg,0.0,clockno_up.jpg,1.0,48,,,,,,,,,,,,,,,,,,,,,,,,,,,,,,,,
0.0,1.0,1.31761,0.0,1.0,1.0,1.0,1.0,blender_08s.jpg,0.0,clockno_default.jpg,1.0,48,,,,,,,,,,,,,,,,,,,,,,,,,,,,,,,,
0.0,1.0,1.480645,0.0,2.0,2.0,2.0,1.0,tube_top_03s.jpg,0.0,clockno_default.jpg,1.0,48,,,,,,,,,,,,,,,,,,,,,,,,,,,,,,,,
0.0,1.0,0.761415,0.0,3.0,3.0,3.0,1.0,rocket_02s.jpg,0.0,clockno_default.jpg,1.0,48,,,,,,,,,,,,,,,,,,,,,,,,,,,,,,,,
0.0,1.0,0.69996,0.0,4.0,4.0,4.0,1.0,bonsai_07s.jpg,0.0,clockno_default.jpg,1.0,48,,,,,,,,,,,,,,,,,,,,,,,,,,,,,,,,
1.0,1.0,0.90816,0.0,5.0,5.0,5.0,1.0,blender_08s.jpg,1.0,clockno_default.jpg,1.0,48,,,,,,,,,,,,,,,,,,,,,,,,,,,,,,,,
0.0,1.0,2.11024,0.0,6.0,6.0,6.0,1.0,kayak_08s.jpg,0.0,clockno_up.jpg,2.0,48,,,,,,,,,,,,,,,,,,,,,,,,,,,,,,,,
0.0,1.0,0.789015,0.0,7.0,7.0,7.0,1.0,oil_02s.jpg,0.0,clockno_default.jpg,2.0,48,,,,,,,,,,,,,,,,,,,,,,,,,,,,,,,,
0.0,1.0,1.39571,0.0,8.0,8.0,8.0,1.0,petri_dish_12s.jpg,0.0,clockno_default.jpg,2.0,48,,,,,,,,,,,,,,,,,,,,,,,,,,,,,,,,
0.0,1.0,0.786465,0.0,9.0,9.0,9.0,1.0,ant_12s.jpg,0.0,clockno_default.jpg,2.0,48,,,,,,,,,,,,,,,,,,,,,,,,,,,,,,,,
0.0,1.0,1.258545,0.0,10.0,10.0,10.0,1.0,tile_08s.jpg,0.0,clockno_default.jpg,2.0,48,,,,,,,,,,,,,,,,,,,,,,,,,,,,,,,,
0.0,1.0,1.340595,0.0,11.0,11.0,11.0,1.0,piano_13n.jpg,0.0,clockno_up.jpg,3.0,48,,,,,,,,,,,,,,,,,,,,,,,,,,,,,,,,
0.0,1.0,0.973515,0.0,12.0,12.0,12.0,1.0,beaker_01b.jpg,0.0,clockno_default.jpg,3.0,48,,,,,,,,,,,,,,,,,,,,,,,,,,,,,,,,
0.0,1.0,0.738105,0.0,13.0,13.0,13.0,1.0,ladder_15s.jpg,0.0,clockno_default.jpg,3.0,48,,,,,,,,,,,,,,,,,,,,,,,,,,,,,,,,
0.0,1.0,1.007285,0.0,14.0,14.0,14.0,1.0,abacus_12s.jpg,0.0,clockno_default.jpg,3.0,48,,,,,,,,,,,,,,,,,,,,,,,,,,,,,,,,
0.0,1.0,1.5532,0.0,15.0,15.0,15.0,1.0,puck_06s.jpg,0.0,clockno_default.jpg,3.0,48,,,,,,,,,,,,,,,,,,,,,,,,,,,,,,,,
0.0,1.0,1.00543,0.0,16.0,16.0,16.0,1.0,breadstick_08s.jpg,0.0,clockno_default.jpg,3.0,48,,,,,,,,,,,,,,,,,,,,,,,,,,,,,,,,
0.0,1.0,1.586935,0.0,17.0,17.0,17.0,1.0,mailbox_11s.jpg,0.0,clockno_up.jpg,4.0,48,,,,,,,,,,,,,,,,,,,,,,,,,,,,,,,,
0.0,1.0,1.488065,0.0,18.0,18.0,18.0,1.0,amber_04s.jpg,0.0,clockno_default.jpg,4.0,48,,,,,,,,,,,,,,,,,,,,,,,,,,,,,,,,
0.0,1.0,0.87962,0.0,19.0,19.0,19.0,1.0,fishhook_06s.jpg,0.0,clockno_default.jpg,4.0,48,,,,,,,,,,,,,,,,,,,,,,,,,,,,,,,,
0.0,1.0,0.706435,0.0,20.0,20.0,20.0,1.0,ukulele_02s.jpg,0.0,clockno_default.jpg,4.0,48,,,,,,,,,,,,,,,,,,,,,,,,,,,,,,,,
0.0,1.0,0.89212,0.0,21.0,21.0,21.0,1.0,juicer1_08s.jpg,0.0,clockno_default.jpg,4.0,48,,,,,,,,,,,,,,,,,,,,,,,,,,,,,,,,
0.0,1.0,1.15627,0.0,22.0,22.0,22.0,1.0,glue_01s.jpg,0.0,clockno_up.jpg,5.0,48,,,,,,,,,,,,,,,,,,,,,,,,,,,,,,,,
0.0,1.0,0.989285,0.0,23.0,23.0,23.0,1.0,stump_02s.jpg,0.0,clockno_default.jpg,5.0,48,,,,,,,,,,,,,,,,,,,,,,,,,,,,,,,,
1.0,1.0,0.85617,0.0,24.0,24.0,24.0,1.0,stump_02s.jpg,1.0,clockno_default.jpg,5.0,48,,,,,,,,,,,,,,,,,,,,,,,,,,,,,,,,
1.0,1.0,0.72946,0.0,25.0,25.0,25.0,1.0,stump_02s.jpg,1.0,clockno_default.jpg,5.0,48,,,,,,,,,,,,,,,,,,,,,,,,,,,,,,,,
0.0,1.0,1.269735,0.0,26.0,26.0,26.0,1.0,tube_top_03s.jpg,0.0,clockno_default.jpg,5.0,48,,,,,,,,,,,,,,,,,,,,,,,,,,,,,,,,
0.0,1.0,0.976275,0.0,27.0,27.0,27.0,1.0,red_carpet_03s.jpg,0.0,clockno_default.jpg,5.0,48,,,,,,,,,,,,,,,,,,,,,,,,,,,,,,,,
0.0,1.0,1.075785,0.0,28.0,28.0,28.0,1.0,harpoon.jpg,0.0,clockno_default.jpg,5.0,48,,,,,,,,,,,,,,,,,,,,,,,,,,,,,,,,
0.0,1.0,1.513365,0.0,29.0,29.0,29.0,1.0,paintbrush_04s.jpg,0.0,clockno_up.jpg,6.0,48,,,,,,,,,,,,,,,,,,,,,,,,,,,,,,,,
0.0,1.0,0.7445,0.0,30.0,30.0,30.0,1.0,bank_06s.jpg,0.0,clockno_default.jpg,6.0,48,,,,,,,,,,,,,,,,,,,,,,,,,,,,,,,,
0.0,1.0,0.805115,0.0,31.0,31.0,31.0,1.0,doily_13s.jpg,0.0,clockno_default.jpg,6.0,48,,,,,,,,,,,,,,,,,,,,,,,,,,,,,,,,
0.0,1.0,0.81075,0.0,32.0,32.0,32.0,1.0,pocketknife_12s.jpg,0.0,clockno_default.jpg,6.0,48,,,,,,,,,,,,,,,,,,,,,,,,,,,,,,,,
1.0,1.0,1.029675,0.0,33.0,33.0,33.0,1.0,paintbrush_04s.jpg,1.0,clockno_default.jpg,6.0,48,,,,,,,,,,,,,,,,,,,,,,,,,,,,,,,,
0.0,1.0,1.19163,0.0,34.0,34.0,34.0,1.0,hummingbird_05s.jpg,0.0,clockno_default.jpg,6.0,48,,,,,,,,,,,,,,,,,,,,,,,,,,,,,,,,
0.0,1.0,1.53394,0.0,35.0,35.0,35.0,1.0,abacus_12s.jpg,0.0,clockno_default.jpg,6.0,48,,,,,,,,,,,,,,,,,,,,,,,,,,,,,,,,
,,,,,,,,,1.0,,,48,1.0,1.0,2.73953,0.0,0.0,0.0,0.0,1.0,petri_dish_12s.jpg,piano_13n.jpg,,,,,,,,,,,,,,,,,,,,,,
,,,,,,,,,1.0,,,48,0.0,0.0,3.06209,0.0,1.0,1.0,1.0,1.0,fishhook_06s.jpg,glue_01s.jpg,,,,,,,,,,,,,,,,,,,,,,
,,,,,,,,,0.0,,,48,0.0,1.0,1.955585,0.0,2.0,2.0,2.0,1.0,bank_06s.jpg,red_carpet_03s.jpg,,,,,,,,,,,,,,,,,,,,,,
,,,,,,,,,0.0,,,48,1.0,0.0,1.93066,0.0,3.0,3.0,3.0,1.0,ukulele_02s.jpg,mailbox_11s.jpg,,,,,,,,,,,,,,,,,,,,,,
,,,,,,,,,0.0,,,48,1.0,0.0,1.682475,0.0,4.0,4.0,4.0,1.0,hummingbird_05s.jpg,doily_13s.jpg,,,,,,,,,,,,,,,,,,,,,,
,,,,,,,,,1.0,,,48,0.0,0.0,3.34273,0.0,5.0,5.0,5.0,1.0,amber_04s.jpg,juicer1_08s.jpg,,,,,,,,,,,,,,,,,,,,,,
,,,,,,,,,,,,48,,,,,,,,,,,0.0,0.0,0.0,0.0,1.0,clockno_present_1_13.xlsx,clockno_compare_task_1_13.xlsx,,,,,,,,,,,,,,,
0.0,1.0,0.8093,0.0,0.0,0.0,0.0,1.0,lemonade_04s.jpg,0.0,clockno_up.jpg,1.0,48,,,,,,,,,,,,,,,,,,,,,,,,,,,,,,,,
0.0,1.0,0.892385,0.0,1.0,1.0,1.0,1.0,toilet_paper_12s.jpg,0.0,clockno_default.jpg,1.0,48,,,,,,,,,,,,,,,,,,,,,,,,,,,,,,,,
0.0,1.0,2.297775,0.0,2.0,2.0,2.0,1.0,teacup_07s.jpg,0.0,clockno_default.jpg,1.0,48,,,,,,,,,,,,,,,,,,,,,,,,,,,,,,,,
1.0,1.0,1.004175,0.0,3.0,3.0,3.0,1.0,toilet_paper_12s.jpg,1.0,clockno_default.jpg,1.0,48,,,,,,,,,,,,,,,,,,,,,,,,,,,,,,,,
0.0,1.0,0.79113,0.0,4.0,4.0,4.0,1.0,ice-cream_cone_06s.jpg,0.0,clockno_default.jpg,1.0,48,,,,,,,,,,,,,,,,,,,,,,,,,,,,,,,,
0.0,1.0,1.08387,0.0,5.0,5.0,5.0,1.0,loveseat_08s.jpg,0.0,clockno_default.jpg,1.0,48,,,,,,,,,,,,,,,,,,,,,,,,,,,,,,,,
0.0,1.0,1.407345,0.0,6.0,6.0,6.0,1.0,otter_05s.jpg,0.0,clockno_up.jpg,2.0,48,,,,,,,,,,,,,,,,,,,,,,,,,,,,,,,,
0.0,1.0,1.14056,0.0,7.0,7.0,7.0,1.0,rope_16s.jpg,0.0,clockno_default.jpg,2.0,48,,,,,,,,,,,,,,,,,,,,,,,,,,,,,,,,
0.0,1.0,1.703215,0.0,8.0,8.0,8.0,1.0,raccoon_02s.jpg,0.0,clockno_default.jpg,2.0,48,,,,,,,,,,,,,,,,,,,,,,,,,,,,,,,,
0.0,1.0,1.158605,0.0,9.0,9.0,9.0,1.0,light_switch_02s.jpg,0.0,clockno_default.jpg,2.0,48,,,,,,,,,,,,,,,,,,,,,,,,,,,,,,,,
0.0,1.0,0.949775,0.0,10.0,10.0,10.0,1.0,smokingpipe.jpg,0.0,clockno_default.jpg,2.0,48,,,,,,,,,,,,,,,,,,,,,,,,,,,,,,,,
0.0,1.0,0.95505,0.0,11.0,11.0,11.0,1.0,radio_09s.jpg,0.0,clockno_default.jpg,2.0,48,,,,,,,,,,,,,,,,,,,,,,,,,,,,,,,,
0.0,1.0,1.15606,0.0,12.0,12.0,12.0,1.0,razor_blade_01b.jpg,0.0,clockno_up.jpg,3.0,48,,,,,,,,,,,,,,,,,,,,,,,,,,,,,,,,
0.0,1.0,1.16992,0.0,13.0,13.0,13.0,1.0,sugar_cube_11s.jpg,0.0,clockno_default.jpg,3.0,48,,,,,,,,,,,,,,,,,,,,,,,,,,,,,,,,
0.0,1.0,1.17393,0.0,14.0,14.0,14.0,1.0,ravioli_08s.jpg,0.0,clockno_default.jpg,3.0,48,,,,,,,,,,,,,,,,,,,,,,,,,,,,,,,,
0.0,1.0,1.269155,0.0,15.0,15.0,15.0,1.0,compass_10n.jpg,0.0,clockno_default.jpg,3.0,48,,,,,,,,,,,,,,,,,,,,,,,,,,,,,,,,
0.0,1.0,0.98549,0.0,16.0,16.0,16.0,1.0,memory_stick_11s.jpg,0.0,clockno_default.jpg,3.0,48,,,,,,,,,,,,,,,,,,,,,,,,,,,,,,,,
0.0,1.0,1.377935,0.0,17.0,17.0,17.0,1.0,pancake_12s.jpg,0.0,clockno_up.jpg,4.0,48,,,,,,,,,,,,,,,,,,,,,,,,,,,,,,,,
0.0,1.0,1.3716,0.0,18.0,18.0,18.0,1.0,quill_09s.jpg,0.0,clockno_default.jpg,4.0,48,,,,,,,,,,,,,,,,,,,,,,,,,,,,,,,,
0.0,1.0,1.08941,0.0,19.0,19.0,19.0,1.0,footprint_11s.jpg,0.0,clockno_default.jpg,4.0,48,,,,,,,,,,,,,,,,,,,,,,,,,,,,,,,,
0.0,1.0,1.37139,0.0,20.0,20.0,20.0,1.0,gas_mask_11s.jpg,0.0,clockno_default.jpg,4.0,48,,,,,,,,,,,,,,,,,,,,,,,,,,,,,,,,
1.0,1.0,0.881145,0.0,21.0,21.0,21.0,1.0,pancake_12s.jpg,1.0,clockno_default.jpg,4.0,48,,,,,,,,,,,,,,,,,,,,,,,,,,,,,,,,
0.0,1.0,1.02435,0.0,22.0,22.0,22.0,1.0,crayon_09s.jpg,0.0,clockno_default.jpg,4.0,48,,,,,,,,,,,,,,,,,,,,,,,,,,,,,,,,
1.0,1.0,1.591025,0.0,23.0,23.0,23.0,1.0,footprint_11s.jpg,1.0,clockno_default.jpg,4.0,48,,,,,,,,,,,,,,,,,,,,,,,,,,,,,,,,
0.0,1.0,1.49081,0.0,24.0,24.0,24.0,1.0,pinwheel_06s.jpg,0.0,clockno_up.jpg,5.0,48,,,,,,,,,,,,,,,,,,,,,,,,,,,,,,,,
0.0,1.0,1.2033,0.0,25.0,25.0,25.0,1.0,lectern_08s.jpg,0.0,clockno_default.jpg,5.0,48,,,,,,,,,,,,,,,,,,,,,,,,,,,,,,,,
0.0,1.0,0.879435,0.0,26.0,26.0,26.0,1.0,puffin_19s.jpg,0.0,clockno_default.jpg,5.0,48,,,,,,,,,,,,,,,,,,,,,,,,,,,,,,,,
0.0,1.0,0.8999,0.0,27.0,27.0,27.0,1.0,peach_04s.jpg,0.0,clockno_default.jpg,5.0,48,,,,,,,,,,,,,,,,,,,,,,,,,,,,,,,,
0.0,1.0,1.04483,0.0,28.0,28.0,28.0,1.0,raccoon_02s.jpg,0.0,clockno_default.jpg,5.0,48,,,,,,,,,,,,,,,,,,,,,,,,,,,,,,,,
0.0,1.0,2.10887,0.0,29.0,29.0,29.0,1.0,gas_mask_11s.jpg,0.0,clockno_default.jpg,5.0,48,,,,,,,,,,,,,,,,,,,,,,,,,,,,,,,,
0.0,1.0,0.97278,0.0,30.0,30.0,30.0,1.0,bubble_01b.jpg,0.0,clockno_default.jpg,5.0,48,,,,,,,,,,,,,,,,,,,,,,,,,,,,,,,,
0.0,1.0,1.831525,0.0,31.0,31.0,31.0,1.0,pillbox_04s.jpg,0.0,clockno_up.jpg,6.0,48,,,,,,,,,,,,,,,,,,,,,,,,,,,,,,,,
0.0,1.0,0.78963,0.0,32.0,32.0,32.0,1.0,chopsticks_08s.jpg,0.0,clockno_default.jpg,6.0,48,,,,,,,,,,,,,,,,,,,,,,,,,,,,,,,,
0.0,1.0,0.95765,0.0,33.0,33.0,33.0,1.0,lizard_10n.jpg,0.0,clockno_default.jpg,6.0,48,,,,,,,,,,,,,,,,,,,,,,,,,,,,,,,,
0.0,1.0,0.974865,0.0,34.0,34.0,34.0,1.0,mattress_01s.jpg,0.0,clockno_default.jpg,6.0,48,,,,,,,,,,,,,,,,,,,,,,,,,,,,,,,,
0.0,1.0,1.207105,0.0,35.0,35.0,35.0,1.0,jukebox_03n.jpg,0.0,clockno_default.jpg,6.0,48,,,,,,,,,,,,,,,,,,,,,,,,,,,,,,,,
,,,,,,,,,0.0,,,48,0.0,1.0,1.906055,0.0,0.0,0.0,0.0,1.0,ravioli_08s.jpg,radio_09s.jpg,,,,,,,,,,,,,,,,,,,,,,
,,,,,,,,,0.0,,,48,1.0,0.0,2.383155,0.0,1.0,1.0,1.0,1.0,lectern_08s.jpg,crayon_09s.jpg,,,,,,,,,,,,,,,,,,,,,,
,,,,,,,,,1.0,,,48,1.0,1.0,1.55062,0.0,2.0,2.0,2.0,1.0,ice-cream_cone_06s.jpg,rope_16s.jpg,,,,,,,,,,,,,,,,,,,,,,
,,,,,,,,,1.0,,,48,1.0,1.0,1.878395,0.0,3.0,3.0,3.0,1.0,teacup_07s.jpg,loveseat_08s.jpg,,,,,,,,,,,,,,,,,,,,,,
,,,,,,,,,1.0,,,48,0.0,0.0,2.280295,0.0,4.0,4.0,4.0,1.0,pinwheel_06s.jpg,peach_04s.jpg,,,,,,,,,,,,,,,,,,,,,,
,,,,,,,,,0.0,,,48,0.0,1.0,2.2483,0.0,5.0,5.0,5.0,1.0,mattress_01s.jpg,pillbox_04s.jpg,,,,,,,,,,,,,,,,,,,,,,
,,,,,,,,,,,,48,,,,,,,,,,,0.0,1.0,1.0,1.0,1.0,clockno_present_2_13.xlsx,clockno_compare_task_2_13.xlsx,,,,,,,,,,,,,,,
0.0,1.0,1.474555,0.0,0.0,0.0,0.0,1.0,piggy_bank_02s.jpg,0.0,clockno_up.jpg,1.0,48,,,,,,,,,,,,,,,,,,,,,,,,,,,,,,,,
0.0,1.0,1.29776,0.0,1.0,1.0,1.0,1.0,powder_07s.jpg,0.0,clockno_default.jpg,1.0,48,,,,,,,,,,,,,,,,,,,,,,,,,,,,,,,,
0.0,1.0,1.34196,0.0,2.0,2.0,2.0,1.0,perfume_06s.jpg,0.0,clockno_default.jpg,1.0,48,,,,,,,,,,,,,,,,,,,,,,,,,,,,,,,,
0.0,1.0,0.92844,0.0,3.0,3.0,3.0,1.0,icemaker_10s.jpg,0.0,clockno_default.jpg,1.0,48,,,,,,,,,,,,,,,,,,,,,,,,,,,,,,,,
1.0,1.0,0.93412,0.0,4.0,4.0,4.0,1.0,powder_07s.jpg,1.0,clockno_default.jpg,1.0,48,,,,,,,,,,,,,,,,,,,,,,,,,,,,,,,,
0.0,1.0,1.710735,0.0,5.0,5.0,5.0,1.0,juicer2_06s.jpg,0.0,clockno_up.jpg,2.0,48,,,,,,,,,,,,,,,,,,,,,,,,,,,,,,,,
0.0,1.0,1.699385,0.0,6.0,6.0,6.0,1.0,olive_05s.jpg,0.0,clockno_default.jpg,2.0,48,,,,,,,,,,,,,,,,,,,,,,,,,,,,,,,,
0.0,1.0,0.857545,0.0,7.0,7.0,7.0,1.0,pretzel_09s.jpg,0.0,clockno_default.jpg,2.0,48,,,,,,,,,,,,,,,,,,,,,,,,,,,,,,,,
0.0,1.0,0.762155,0.0,8.0,8.0,8.0,1.0,totem_pole_05s.jpg,0.0,clockno_default.jpg,2.0,48,,,,,,,,,,,,,,,,,,,,,,,,,,,,,,,,
1.0,1.0,0.961865,0.0,9.0,9.0,9.0,1.0,olive_05s.jpg,1.0,clockno_default.jpg,2.0,48,,,,,,,,,,,,,,,,,,,,,,,,,,,,,,,,
0.0,1.0,2.10924,0.0,10.0,10.0,10.0,1.0,mussel_11s.jpg,0.0,clockno_default.jpg,2.0,48,,,,,,,,,,,,,,,,,,,,,,,,,,,,,,,,
0.0,1.0,1.22616,0.0,11.0,11.0,11.0,1.0,bee_20s.jpg,0.0,clockno_up.jpg,3.0,48,,,,,,,,,,,,,,,,,,,,,,,,,,,,,,,,
1.0,1.0,0.91429,0.0,12.0,12.0,12.0,1.0,bee_20s.jpg,1.0,clockno_default.jpg,3.0,48,,,,,,,,,,,,,,,,,,,,,,,,,,,,,,,,
1.0,1.0,0.892275,0.0,13.0,13.0,13.0,1.0,bee_20s.jpg,1.0,clockno_default.jpg,3.0,48,,,,,,,,,,,,,,,,,,,,,,,,,,,,,,,,
0.0,1.0,0.81762,0.0,14.0,14.0,14.0,1.0,clover_04s.jpg,0.0,clockno_default.jpg,3.0,48,,,,,,,,,,,,,,,,,,,,,,,,,,,,,,,,
0.0,1.0,0.802005,0.0,15.0,15.0,15.0,1.0,muffin_12n.jpg,0.0,clockno_default.jpg,3.0,48,,,,,,,,,,,,,,,,,,,,,,,,,,,,,,,,
0.0,1.0,1.37597,0.0,16.0,16.0,16.0,1.0,turtle_08s.jpg,0.0,clockno_default.jpg,3.0,48,,,,,,,,,,,,,,,,,,,,,,,,,,,,,,,,
0.0,1.0,1.13187,0.0,17.0,17.0,17.0,1.0,blazer_02s.jpg,0.0,clockno_default.jpg,3.0,48,,,,,,,,,,,,,,,,,,,,,,,,,,,,,,,,
0.0,1.0,1.47872,0.0,18.0,18.0,18.0,1.0,target_11s.jpg,0.0,clockno_up.jpg,4.0,48,,,,,,,,,,,,,,,,,,,,,,,,,,,,,,,,
0.0,1.0,1.799605,0.0,19.0,19.0,19.0,1.0,machine_gun_09s.jpg,0.0,clockno_default.jpg,4.0,48,,,,,,,,,,,,,,,,,,,,,,,,,,,,,,,,
0.0,1.0,0.72846,0.0,20.0,20.0,20.0,1.0,eiffeltower.jpg,0.0,clockno_default.jpg,4.0,48,,,,,,,,,,,,,,,,,,,,,,,,,,,,,,,,
1.0,1.0,0.832335,0.0,21.0,21.0,21.0,1.0,eiffeltower.jpg,1.0,clockno_default.jpg,4.0,48,,,,,,,,,,,,,,,,,,,,,,,,,,,,,,,,
0.0,1.0,0.97176,0.0,22.0,22.0,22.0,1.0,tablet_04s.jpg,0.0,clockno_default.jpg,4.0,48,,,,,,,,,,,,,,,,,,,,,,,,,,,,,,,,
1.0,1.0,0.96067,0.0,23.0,23.0,23.0,1.0,target_11s.jpg,1.0,clockno_default.jpg,4.0,48,,,,,,,,,,,,,,,,,,,,,,,,,,,,,,,,
0.0,1.0,1.25909,0.0,24.0,24.0,24.0,1.0,ram_05s.jpg,0.0,clockno_up.jpg,5.0,48,,,,,,,,,,,,,,,,,,,,,,,,,,,,,,,,
0.0,1.0,1.394095,0.0,25.0,25.0,25.0,1.0,stamp1_11s.jpg,0.0,clockno_default.jpg,5.0,48,,,,,,,,,,,,,,,,,,,,,,,,,,,,,,,,
0.0,1.0,0.71479,0.0,26.0,26.0,26.0,1.0,marker_05s.jpg,0.0,clockno_default.jpg,5.0,48,,,,,,,,,,,,,,,,,,,,,,,,,,,,,,,,
0.0,1.0,1.29602,0.0,27.0,27.0,27.0,1.0,turtle_08s.jpg,0.0,clockno_default.jpg,5.0,48,,,,,,,,,,,,,,,,,,,,,,,,,,,,,,,,
0.0,1.0,1.29494,0.0,28.0,28.0,28.0,1.0,go-kart_10s.jpg,0.0,clockno_default.jpg,5.0,48,,,,,,,,,,,,,,,,,,,,,,,,,,,,,,,,
0.0,1.0,1.739065,0.0,29.0,29.0,29.0,1.0,peanut_butter_08s.jpg,0.0,clockno_up.jpg,6.0,48,,,,,,,,,,,,,,,,,,,,,,,,,,,,,,,,
0.0,1.0,1.59304,0.0,30.0,30.0,30.0,1.0,measuring_cup_02s.jpg,0.0,clockno_default.jpg,6.0,48,,,,,,,,,,,,,,,,,,,,,,,,,,,,,,,,
0.0,1.0,0.70409,0.0,31.0,31.0,31.0,1.0,laser_pointer_02s.jpg,0.0,clockno_default.jpg,6.0,48,,,,,,,,,,,,,,,,,,,,,,,,,,,,,,,,
0.0,1.0,0.83005,0.0,32.0,32.0,32.0,1.0,marker_05s.jpg,0.0,clockno_default.jpg,6.0,48,,,,,,,,,,,,,,,,,,,,,,,,,,,,,,,,
0.0,1.0,1.018455,0.0,33.0,33.0,33.0,1.0,tuba_12s.jpg,0.0,clockno_default.jpg,6.0,48,,,,,,,,,,,,,,,,,,,,,,,,,,,,,,,,
0.0,1.0,0.831355,0.0,34.0,34.0,34.0,1.0,spoon02a.jpg,0.0,clockno_default.jpg,6.0,48,,,,,,,,,,,,,,,,,,,,,,,,,,,,,,,,
0.0,1.0,0.88497,0.0,35.0,35.0,35.0,1.0,mosquito_12s.jpg,0.0,clockno_default.jpg,6.0,48,,,,,,,,,,,,,,,,,,,,,,,,,,,,,,,,
,,,,,,,,,0.0,,,48,1.0,0.0,2.551125,0.0,0.0,0.0,0.0,1.0,juicer2_06s.jpg,perfume_06s.jpg,,,,,,,,,,,,,,,,,,,,,,
,,,,,,,,,0.0,,,48,0.0,1.0,2.09646,0.0,1.0,1.0,1.0,1.0,stamp1_11s.jpg,tablet_04s.jpg,,,,,,,,,,,,,,,,,,,,,,
,,,,,,,,,0.0,,,48,1.0,0.0,2.39483,0.0,2.0,2.0,2.0,1.0,laser_pointer_02s.jpg,go-kart_10s.jpg,,,,,,,,,,,,,,,,,,,,,,
,,,,,,,,,1.0,,,48,1.0,1.0,1.934925,0.0,3.0,3.0,3.0,1.0,piggy_bank_02s.jpg,icemaker_10s.jpg,,,,,,,,,,,,,,,,,,,,,,
,,,,,,,,,0.0,,,48,1.0,0.0,2.3589,0.0,4.0,4.0,4.0,1.0,mussel_11s.jpg,pretzel_09s.jpg,,,,,,,,,,,,,,,,,,,,,,
,,,,,,,,,0.0,,,48,1.0,0.0,2.071955,0.0,5.0,5.0,5.0,1.0,blazer_02s.jpg,clover_04s.jpg,,,,,,,,,,,,,,,,,,,,,,
,,,,,,,,,,,,48,,,,,,,,,,,0.0,2.0,2.0,2.0,1.0,clockno_present_3_13.xlsx,clockno_compare_task_3_13.xlsx,,,,,,,,,,,,,,,
0.0,1.0,1.185235,0.0,0.0,0.0,0.0,1.0,penguin_16s.jpg,0.0,clockno_up.jpg,1.0,48,,,,,,,,,,,,,,,,,,,,,,,,,,,,,,,,
1.0,1.0,1.2522,0.0,1.0,1.0,1.0,1.0,penguin_16s.jpg,1.0,clockno_default.jpg,1.0,48,,,,,,,,,,,,,,,,,,,,,,,,,,,,,,,,
1.0,1.0,1.395235,0.0,2.0,2.0,2.0,1.0,penguin_16s.jpg,1.0,clockno_default.jpg,1.0,48,,,,,,,,,,,,,,,,,,,,,,,,,,,,,,,,
1.0,1.0,0.632115,0.0,3.0,3.0,3.0,1.0,penguin_16s.jpg,1.0,clockno_default.jpg,1.0,48,,,,,,,,,,,,,,,,,,,,,,,,,,,,,,,,
0.0,1.0,0.983435,0.0,4.0,4.0,4.0,1.0,tripod_01b.jpg,0.0,clockno_default.jpg,1.0,48,,,,,,,,,,,,,,,,,,,,,,,,,,,,,,,,
0.0,1.0,1.879565,0.0,5.0,5.0,5.0,1.0,touchpad_11s.jpg,0.0,clockno_default.jpg,1.0,48,,,,,,,,,,,,,,,,,,,,,,,,,,,,,,,,
0.0,1.0,1.66486,0.0,6.0,6.0,6.0,1.0,possum_09s.jpg,0.0,clockno_up.jpg,2.0,48,,,,,,,,,,,,,,,,,,,,,,,,,,,,,,,,
0.0,1.0,0.835325,0.0,7.0,7.0,7.0,1.0,frame_06s.jpg,0.0,clockno_default.jpg,2.0,48,,,,,,,,,,,,,,,,,,,,,,,,,,,,,,,,
0.0,1.0,1.093005,0.0,8.0,8.0,8.0,1.0,submarine_11n.jpg,0.0,clockno_default.jpg,2.0,48,,,,,,,,,,,,,,,,,,,,,,,,,,,,,,,,
0.0,1.0,0.81369,0.0,9.0,9.0,9.0,1.0,squirt_gun_03s.jpg,0.0,clockno_default.jpg,2.0,48,,,,,,,,,,,,,,,,,,,,,,,,,,,,,,,,
0.0,1.0,0.93155,0.0,10.0,10.0,10.0,1.0,screwdriver02a.jpg,0.0,clockno_default.jpg,2.0,48,,,,,,,,,,,,,,,,,,,,,,,,,,,,,,,,
0.0,1.0,0.83299,0.0,11.0,11.0,11.0,1.0,icicle_04s.jpg,0.0,clockno_default.jpg,2.0,48,,,,,,,,,,,,,,,,,,,,,,,,,,,,,,,,
0.0,1.0,1.057405,0.0,12.0,12.0,12.0,1.0,radiator_05s.jpg,0.0,clockno_up.jpg,3.0,48,,,,,,,,,,,,,,,,,,,,,,,,,,,,,,,,
0.0,1.0,1.20313,0.0,13.0,13.0,13.0,1.0,tupperware_09s.jpg,0.0,clockno_default.jpg,3.0,48,,,,,,,,,,,,,,,,,,,,,,,,,,,,,,,,
0.0,1.0,1.220445,0.0,14.0,14.0,14.0,1.0,lantern_04s.jpg,0.0,clockno_default.jpg,3.0,48,,,,,,,,,,,,,,,,,,,,,,,,,,,,,,,,
0.0,1.0,0.72961,0.0,15.0,15.0,15.0,1.0,quad_04s.jpg,0.0,clockno_default.jpg,3.0,48,,,,,,,,,,,,,,,,,,,,,,,,,,,,,,,,
0.0,1.0,0.816045,0.0,16.0,16.0,16.0,1.0,tape_measure_11s.jpg,0.0,clockno_default.jpg,3.0,48,,,,,,,,,,,,,,,,,,,,,,,,,,,,,,,,
0.0,1.0,0.739945,0.0,17.0,17.0,17.0,1.0,roulette_wheel_04s.jpg,0.0,clockno_default.jpg,3.0,48,,,,,,,,,,,,,,,,,,,,,,,,,,,,,,,,
0.0,1.0,1.82307,0.0,18.0,18.0,18.0,1.0,microwave_02s.jpg,0.0,clockno_default.jpg,3.0,48,,,,,,,,,,,,,,,,,,,,,,,,,,,,,,,,
0.0,1.0,1.29679,0.0,19.0,19.0,19.0,1.0,mop_08s.jpg,0.0,clockno_up.jpg,4.0,48,,,,,,,,,,,,,,,,,,,,,,,,,,,,,,,,
0.0,1.0,1.26123,0.0,20.0,20.0,20.0,1.0,pipe1_10s.jpg,0.0,clockno_default.jpg,4.0,48,,,,,,,,,,,,,,,,,,,,,,,,,,,,,,,,
0.0,1.0,0.89997,0.0,21.0,21.0,21.0,1.0,possum_09s.jpg,0.0,clockno_default.jpg,4.0,48,,,,,,,,,,,,,,,,,,,,,,,,,,,,,,,,
0.0,1.0,1.091995,0.0,22.0,22.0,22.0,1.0,turnstile_08s.jpg,0.0,clockno_default.jpg,4.0,48,,,,,,,,,,,,,,,,,,,,,,,,,,,,,,,,
0.0,1.0,0.75684,0.0,23.0,23.0,23.0,1.0,raft_09s.jpg,0.0,clockno_default.jpg,4.0,48,,,,,,,,,,,,,,,,,,,,,,,,,,,,,,,,
0.0,1.0,1.412835,0.0,24.0,24.0,24.0,1.0,treadmill_06s.jpg,0.0,clockno_up.jpg,5.0,48,,,,,,,,,,,,,,,,,,,,,,,,,,,,,,,,
0.0,1.0,0.990575,0.0,25.0,25.0,25.0,1.0,quad_04s.jpg,0.0,clockno_default.jpg,5.0,48,,,,,,,,,,,,,,,,,,,,,,,,,,,,,,,,
0.0,1.0,1.10529,0.0,26.0,26.0,26.0,1.0,mop_08s.jpg,0.0,clockno_default.jpg,5.0,48,,,,,,,,,,,,,,,,,,,,,,,,,,,,,,,,
0.0,1.0,0.672495,0.0,27.0,27.0,27.0,1.0,pan_02s.jpg,0.0,clockno_default.jpg,5.0,48,,,,,,,,,,,,,,,,,,,,,,,,,,,,,,,,
0.0,1.0,1.34187,0.0,28.0,28.0,28.0,1.0,coconut_08s.jpg,0.0,clockno_default.jpg,5.0,48,,,,,,,,,,,,,,,,,,,,,,,,,,,,,,,,
0.0,1.0,0.93107,0.0,29.0,29.0,29.0,1.0,key_07s.jpg,0.0,clockno_default.jpg,5.0,48,,,,,,,,,,,,,,,,,,,,,,,,,,,,,,,,
0.0,1.0,1.336035,0.0,30.0,30.0,30.0,1.0,sunflower_17s.jpg,0.0,clockno_default.jpg,5.0,48,,,,,,,,,,,,,,,,,,,,,,,,,,,,,,,,
0.0,1.0,1.181535,0.0,31.0,31.0,31.0,1.0,pie_08s.jpg,0.0,clockno_up.jpg,6.0,48,,,,,,,,,,,,,,,,,,,,,,,,,,,,,,,,
0.0,1.0,0.790125,0.0,32.0,32.0,32.0,1.0,tape_06s.jpg,0.0,clockno_default.jpg,6.0,48,,,,,,,,,,,,,,,,,,,,,,,,,,,,,,,,
0.0,1.0,0.82807,0.0,33.0,33.0,33.0,1.0,rooster_03s.jpg,0.0,clockno_default.jpg,6.0,48,,,,,,,,,,,,,,,,,,,,,,,,,,,,,,,,
0.0,1.0,0.73707,0.0,34.0,34.0,34.0,1.0,meatball_13s.jpg,0.0,clockno_default.jpg,6.0,48,,,,,,,,,,,,,,,,,,,,,,,,,,,,,,,,
0.0,1.0,0.736815,0.0,35.0,35.0,35.0,1.0,mask_09s.jpg,0.0,clockno_default.jpg,6.0,48,,,,,,,,,,,,,,,,,,,,,,,,,,,,,,,,
,,,,,,,,,1.0,,,48,0.0,0.0,3.41564,0.0,0.0,0.0,0.0,1.0,squirt_gun_03s.jpg,radiator_05s.jpg,,,,,,,,,,,,,,,,,,,,,,
,,,,,,,,,0.0,,,48,0.0,1.0,1.54383,0.0,1.0,1.0,1.0,1.0,frame_06s.jpg,tripod_01b.jpg,,,,,,,,,,,,,,,,,,,,,,
,,,,,,,,,0.0,,,48,1.0,0.0,2.03176,0.0,2.0,2.0,2.0,1.0,submarine_11n.jpg,touchpad_11s.jpg,,,,,,,,,,,,,,,,,,,,,,
,,,,,,,,,1.0,,,48,0.0,0.0,1.667175,0.0,3.0,3.0,3.0,1.0,treadmill_06s.jpg,pan_02s.jpg,,,,,,,,,,,,,,,,,,,,,,
,,,,,,,,,1.0,,,48,0.0,0.0,2.566185,0.0,4.0,4.0,4.0,1.0,tupperware_09s.jpg,tape_measure_11s.jpg,,,,,,,,,,,,,,,,,,,,,,
,,,,,,,,,0.0,,,48,1.0,0.0,1.86749,0.0,5.0,5.0,5.0,1.0,raft_09s.jpg,pipe1_10s.jpg,,,,,,,,,,,,,,,,,,,,,,
,,,,,,,,,,,,48,,,,,,,,,,,0.0,3.0,3.0,3.0,1.0,clockno_present_4_13.xlsx,clockno_compare_task_4_13.xlsx,,,,,,,,,,,,,,,
0.0,1.0,1.66239,0.0,0.0,0.0,0.0,1.0,dashboard_02s.jpg,0.0,clockno_up.jpg,1.0,48,,,,,,,,,,,,,,,,,,,,,,,,,,,,,,,,
0.0,1.0,0.97405,0.0,1.0,1.0,1.0,1.0,jet_15s.jpg,0.0,clockno_default.jpg,1.0,48,,,,,,,,,,,,,,,,,,,,,,,,,,,,,,,,
0.0,1.0,1.052755,0.0,2.0,2.0,2.0,1.0,sushi_08s.jpg,0.0,clockno_default.jpg,1.0,48,,,,,,,,,,,,,,,,,,,,,,,,,,,,,,,,
0.0,1.0,1.05028,0.0,3.0,3.0,3.0,1.0,denture_03s.jpg,0.0,clockno_default.jpg,1.0,48,,,,,,,,,,,,,,,,,,,,,,,,,,,,,,,,
0.0,1.0,1.30446,0.0,4.0,4.0,4.0,1.0,ironing_board_07s.jpg,0.0,clockno_default.jpg,1.0,48,,,,,,,,,,,,,,,,,,,,,,,,,,,,,,,,
0.0,0.0,1.060355,0.0,5.0,5.0,5.0,1.0,jet_15s.jpg,1.0,clockno_default.jpg,1.0,48,,,,,,,,,,,,,,,,,,,,,,,,,,,,,,,,
0.0,1.0,0.95858,0.0,6.0,6.0,6.0,1.0,owl_15s.jpg,0.0,clockno_up.jpg,2.0,48,,,,,,,,,,,,,,,,,,,,,,,,,,,,,,,,
0.0,1.0,0.69745,0.0,7.0,7.0,7.0,1.0,plaster_cast_13s.jpg,0.0,clockno_default.jpg,2.0,48,,,,,,,,,,,,,,,,,,,,,,,,,,,,,,,,
1.0,1.0,0.889245,0.0,8.0,8.0,8.0,1.0,owl_15s.jpg,1.0,clockno_default.jpg,2.0,48,,,,,,,,,,,,,,,,,,,,,,,,,,,,,,,,
0.0,1.0,0.909175,0.0,9.0,9.0,9.0,1.0,lab_coat_11s.jpg,0.0,clockno_default.jpg,2.0,48,,,,,,,,,,,,,,,,,,,,,,,,,,,,,,,,
0.0,1.0,0.954425,0.0,10.0,10.0,10.0,1.0,mold2_04s.jpg,0.0,clockno_default.jpg,2.0,48,,,,,,,,,,,,,,,,,,,,,,,,,,,,,,,,
0.0,1.0,0.81707,0.0,11.0,11.0,11.0,1.0,umbrella_15s.jpg,0.0,clockno_default.jpg,2.0,48,,,,,,,,,,,,,,,,,,,,,,,,,,,,,,,,
0.0,1.0,1.19221,0.0,12.0,12.0,12.0,1.0,penlight_12s.jpg,0.0,clockno_up.jpg,3.0,48,,,,,,,,,,,,,,,,,,,,,,,,,,,,,,,,
0.0,1.0,0.9444,0.0,13.0,13.0,13.0,1.0,machete_06s.jpg,0.0,clockno_default.jpg,3.0,48,,,,,,,,,,,,,,,,,,,,,,,,,,,,,,,,
1.0,1.0,1.278015,0.0,14.0,14.0,14.0,1.0,penlight_12s.jpg,1.0,clockno_default.jpg,3.0,48,,,,,,,,,,,,,,,,,,,,,,,,,,,,,,,,
0.0,1.0,0.99672,0.0,15.0,15.0,15.0,1.0,keyhole_03s.jpg,0.0,clockno_default.jpg,3.0,48,,,,,,,,,,,,,,,,,,,,,,,,,,,,,,,,
0.0,1.0,1.013845,0.0,16.0,16.0,16.0,1.0,ginger_09s.jpg,0.0,clockno_default.jpg,3.0,48,,,,,,,,,,,,,,,,,,,,,,,,,,,,,,,,
0.0,1.0,1.93358,0.0,17.0,17.0,17.0,1.0,emerald_02s.jpg,0.0,clockno_up.jpg,4.0,48,,,,,,,,,,,,,,,,,,,,,,,,,,,,,,,,
0.0,1.0,0.87708,0.0,18.0,18.0,18.0,1.0,torch_02s.jpg,0.0,clockno_default.jpg,4.0,48,,,,,,,,,,,,,,,,,,,,,,,,,,,,,,,,
0.0,1.0,0.89979,0.0,19.0,19.0,19.0,1.0,flip_flop_03s.jpg,0.0,clockno_default.jpg,4.0,48,,,,,,,,,,,,,,,,,,,,,,,,,,,,,,,,
0.0,1.0,1.093005,0.0,20.0,20.0,20.0,1.0,plunger_08s.jpg,0.0,clockno_default.jpg,4.0,48,,,,,,,,,,,,,,,,,,,,,,,,,,,,,,,,
0.0,1.0,1.94322,0.0,21.0,21.0,21.0,1.0,thorn_13s.jpg,0.0,clockno_default.jpg,4.0,48,,,,,,,,,,,,,,,,,,,,,,,,,,,,,,,,
0.0,1.0,0.99367,0.0,22.0,22.0,22.0,1.0,tongs_08s.jpg,0.0,clockno_default.jpg,4.0,48,,,,,,,,,,,,,,,,,,,,,,,,,,,,,,,,
0.0,1.0,0.853925,0.0,23.0,23.0,23.0,1.0,teapot_03s.jpg,0.0,clockno_default.jpg,4.0,48,,,,,,,,,,,,,,,,,,,,,,,,,,,,,,,,
0.0,1.0,1.1737,0.0,24.0,24.0,24.0,1.0,tennis_ball_06s.jpg,0.0,clockno_up.jpg,5.0,48,,,,,,,,,,,,,,,,,,,,,,,,,,,,,,,,
0.0,1.0,1.16538,0.0,25.0,25.0,25.0,1.0,penlight_12s.jpg,0.0,clockno_default.jpg,5.0,48,,,,,,,,,,,,,,,,,,,,,,,,,,,,,,,,
0.0,1.0,1.302315,0.0,26.0,26.0,26.0,1.0,dynamite_01b.jpg,0.0,clockno_default.jpg,5.0,48,,,,,,,,,,,,,,,,,,,,,,,,,,,,,,,,
0.0,1.0,0.814915,0.0,27.0,27.0,27.0,1.0,rhubarb_03s.jpg,0.0,clockno_default.jpg,5.0,48,,,,,,,,,,,,,,,,,,,,,,,,,,,,,,,,
0.0,1.0,1.263755,0.0,28.0,28.0,28.0,1.0,mango_09s.jpg,0.0,clockno_default.jpg,5.0,48,,,,,,,,,,,,,,,,,,,,,,,,,,,,,,,,
0.0,1.0,0.76123,0.0,29.0,29.0,29.0,1.0,pear_02s.jpg,0.0,clockno_default.jpg,5.0,48,,,,,,,,,,,,,,,,,,,,,,,,,,,,,,,,
0.0,1.0,1.06549,0.0,30.0,30.0,30.0,1.0,tongs_08s.jpg,0.0,clockno_default.jpg,5.0,48,,,,,,,,,,,,,,,,,,,,,,,,,,,,,,,,
0.0,1.0,1.083435,0.0,31.0,31.0,31.0,1.0,rock_08s.jpg,0.0,clockno_up.jpg,6.0,48,,,,,,,,,,,,,,,,,,,,,,,,,,,,,,,,
1.0,1.0,1.12806,0.0,32.0,32.0,32.0,1.0,rock_08s.jpg,1.0,clockno_default.jpg,6.0,48,,,,,,,,,,,,,,,,,,,,,,,,,,,,,,,,
0.0,1.0,0.711055,0.0,33.0,33.0,33.0,1.0,sunglasses_11s.jpg,0.0,clockno_default.jpg,6.0,48,,,,,,,,,,,,,,,,,,,,,,,,,,,,,,,,
0.0,1.0,1.13497,0.0,34.0,34.0,34.0,1.0,phone_01b.jpg,0.0,clockno_default.jpg,6.0,48,,,,,,,,,,,,,,,,,,,,,,,,,,,,,,,,
1.0,1.0,0.81044,0.0,35.0,35.0,35.0,1.0,phone_01b.jpg,1.0,clockno_default.jpg,6.0,48,,,,,,,,,,,,,,,,,,,,,,,,,,,,,,,,
,,,,,,,,,1.0,,,48,1.0,1.0,2.708345,0.0,0.0,0.0,0.0,1.0,ironing_board_07s.jpg,plaster_cast_13s.jpg,,,,,,,,,,,,,,,,,,,,,,
,,,,,,,,,0.0,,,48,0.0,1.0,1.36676,0.0,1.0,1.0,1.0,1.0,torch_02s.jpg,keyhole_03s.jpg,,,,,,,,,,,,,,,,,,,,,,
,,,,,,,,,0.0,,,48,1.0,0.0,1.370625,0.0,2.0,2.0,2.0,1.0,flip_flop_03s.jpg,ginger_09s.jpg,,,,,,,,,,,,,,,,,,,,,,
,,,,,,,,,1.0,,,48,0.0,0.0,1.565255,0.0,3.0,3.0,3.0,1.0,dashboard_02s.jpg,denture_03s.jpg,,,,,,,,,,,,,,,,,,,,,,
,,,,,,,,,0.0,,,48,0.0,1.0,1.62745,0.0,4.0,4.0,4.0,1.0,plunger_08s.jpg,emerald_02s.jpg,,,,,,,,,,,,,,,,,,,,,,
,,,,,,,,,1.0,,,48,1.0,1.0,1.56262,0.0,5.0,5.0,5.0,1.0,tennis_ball_06s.jpg,rhubarb_03s.jpg,,,,,,,,,,,,,,,,,,,,,,
,,,,,,,,,,,,48,,,,,,,,,,,0.0,4.0,4.0,4.0,1.0,clockno_present_5_13.xlsx,clockno_compare_task_5_13.xlsx,,,,,,,,,,,,,,,
0.0,1.0,1.16499,0.0,0.0,0.0,0.0,1.0,kilt_18s.jpg,0.0,clockno_up.jpg,1.0,48,,,,,,,,,,,,,,,,,,,,,,,,,,,,,,,,
1.0,1.0,1.212225,0.0,1.0,1.0,1.0,1.0,kilt_18s.jpg,1.0,clockno_default.jpg,1.0,48,,,,,,,,,,,,,,,,,,,,,,,,,,,,,,,,
0.0,1.0,1.25121,0.0,2.0,2.0,2.0,1.0,puddle_02s.jpg,0.0,clockno_default.jpg,1.0,48,,,,,,,,,,,,,,,,,,,,,,,,,,,,,,,,
0.0,1.0,0.92119,0.0,3.0,3.0,3.0,1.0,ladle_04s.jpg,0.0,clockno_default.jpg,1.0,48,,,,,,,,,,,,,,,,,,,,,,,,,,,,,,,,
0.0,1.0,0.751835,0.0,4.0,4.0,4.0,1.0,mud_13s.jpg,0.0,clockno_default.jpg,1.0,48,,,,,,,,,,,,,,,,,,,,,,,,,,,,,,,,
0.0,1.0,0.791195,0.0,5.0,5.0,5.0,1.0,popcorn_09s.jpg,0.0,clockno_up.jpg,2.0,48,,,,,,,,,,,,,,,,,,,,,,,,,,,,,,,,
0.0,1.0,1.28031,0.0,6.0,6.0,6.0,1.0,kilt_18s.jpg,0.0,clockno_default.jpg,2.0,48,,,,,,,,,,,,,,,,,,,,,,,,,,,,,,,,
0.0,1.0,0.969305,0.0,7.0,7.0,7.0,1.0,lip_gloss_06s.jpg,0.0,clockno_default.jpg,2.0,48,,,,,,,,,,,,,,,,,,,,,,,,,,,,,,,,
0.0,1.0,1.311235,0.0,8.0,8.0,8.0,1.0,bottle_opener_11s.jpg,0.0,clockno_default.jpg,2.0,48,,,,,,,,,,,,,,,,,,,,,,,,,,,,,,,,
0.0,1.0,1.37208,0.0,9.0,9.0,9.0,1.0,cape_11s.jpg,0.0,clockno_default.jpg,2.0,48,,,,,,,,,,,,,,,,,,,,,,,,,,,,,,,,
0.0,1.0,1.57742,0.0,10.0,10.0,10.0,1.0,puddle_02s.jpg,0.0,clockno_default.jpg,2.0,48,,,,,,,,,,,,,,,,,,,,,,,,,,,,,,,,
0.0,1.0,0.99211,0.0,11.0,11.0,11.0,1.0,mushroom_10n.jpg,0.0,clockno_default.jpg,2.0,48,,,,,,,,,,,,,,,,,,,,,,,,,,,,,,,,
0.0,1.0,1.439645,0.0,12.0,12.0,12.0,1.0,paper_bag_12s.jpg,0.0,clockno_up.jpg,3.0,48,,,,,,,,,,,,,,,,,,,,,,,,,,,,,,,,
0.0,1.0,1.088245,0.0,13.0,13.0,13.0,1.0,antenna_01b.jpg,0.0,clockno_default.jpg,3.0,48,,,,,,,,,,,,,,,,,,,,,,,,,,,,,,,,
0.0,1.0,0.77607,0.0,14.0,14.0,14.0,1.0,kangaroo_02s.jpg,0.0,clockno_default.jpg,3.0,48,,,,,,,,,,,,,,,,,,,,,,,,,,,,,,,,
0.0,1.0,1.064745,0.0,15.0,15.0,15.0,1.0,ring_03s.jpg,0.0,clockno_default.jpg,3.0,48,,,,,,,,,,,,,,,,,,,,,,,,,,,,,,,,
0.0,1.0,1.23144,0.0,16.0,16.0,16.0,1.0,pineapple_12s.jpg,0.0,clockno_default.jpg,3.0,48,,,,,,,,,,,,,,,,,,,,,,,,,,,,,,,,
0.0,1.0,1.042445,0.0,17.0,17.0,17.0,1.0,pillow_03s.jpg,0.0,clockno_default.jpg,3.0,48,,,,,,,,,,,,,,,,,,,,,,,,,,,,,,,,
0.0,1.0,1.287035,0.0,18.0,18.0,18.0,1.0,swan_11s.jpg,0.0,clockno_up.jpg,4.0,48,,,,,,,,,,,,,,,,,,,,,,,,,,,,,,,,
1.0,1.0,0.860985,0.0,19.0,19.0,19.0,1.0,swan_11s.jpg,1.0,clockno_default.jpg,4.0,48,,,,,,,,,,,,,,,,,,,,,,,,,,,,,,,,
0.0,1.0,0.777685,0.0,20.0,20.0,20.0,1.0,coat_rack_01b.jpg,0.0,clockno_default.jpg,4.0,48,,,,,,,,,,,,,,,,,,,,,,,,,,,,,,,,
0.0,1.0,0.78777,0.0,21.0,21.0,21.0,1.0,candy_cane_06s.jpg,0.0,clockno_default.jpg,4.0,48,,,,,,,,,,,,,,,,,,,,,,,,,,,,,,,,
0.0,1.0,1.20296,0.0,22.0,22.0,22.0,1.0,swimming_pool_17s.jpg,0.0,clockno_default.jpg,4.0,48,,,,,,,,,,,,,,,,,,,,,,,,,,,,,,,,
0.0,1.0,0.80528,0.0,23.0,23.0,23.0,1.0,incense_02s.jpg,0.0,clockno_default.jpg,4.0,48,,,,,,,,,,,,,,,,,,,,,,,,,,,,,,,,
0.0,1.0,0.993795,0.0,24.0,24.0,24.0,1.0,coffee_filter_10s.jpg,0.0,clockno_default.jpg,4.0,48,,,,,,,,,,,,,,,,,,,,,,,,,,,,,,,,
0.0,1.0,1.17429,0.0,25.0,25.0,25.0,1.0,scooter.jpg,0.0,clockno_up.jpg,5.0,48,,,,,,,,,,,,,,,,,,,,,,,,,,,,,,,,
0.0,1.0,1.245545,0.0,26.0,26.0,26.0,1.0,sleeping_bag_12s.jpg,0.0,clockno_default.jpg,5.0,48,,,,,,,,,,,,,,,,,,,,,,,,,,,,,,,,
0.0,1.0,0.879025,0.0,27.0,27.0,27.0,1.0,pepper_mill_03s.jpg,0.0,clockno_default.jpg,5.0,48,,,,,,,,,,,,,,,,,,,,,,,,,,,,,,,,
0.0,1.0,1.2725,0.0,28.0,28.0,28.0,1.0,gargoyle_08s.jpg,0.0,clockno_default.jpg,5.0,48,,,,,,,,,,,,,,,,,,,,,,,,,,,,,,,,
0.0,1.0,0.85618,0.0,29.0,29.0,29.0,1.0,safety_pin_02s.jpg,0.0,clockno_default.jpg,5.0,48,,,,,,,,,,,,,,,,,,,,,,,,,,,,,,,,
0.0,1.0,0.90438,0.0,30.0,30.0,30.0,1.0,omelet_07s.jpg,0.0,clockno_default.jpg,5.0,48,,,,,,,,,,,,,,,,,,,,,,,,,,,,,,,,
0.0,1.0,0.889335,0.0,31.0,31.0,31.0,1.0,rabbit_03s.jpg,0.0,clockno_up.jpg,6.0,48,,,,,,,,,,,,,,,,,,,,,,,,,,,,,,,,
1.0,1.0,1.816515,0.0,32.0,32.0,32.0,1.0,rabbit_03s.jpg,1.0,clockno_default.jpg,6.0,48,,,,,,,,,,,,,,,,,,,,,,,,,,,,,,,,
1.0,1.0,0.895705,0.0,33.0,33.0,33.0,1.0,rabbit_03s.jpg,1.0,clockno_default.jpg,6.0,48,,,,,,,,,,,,,,,,,,,,,,,,,,,,,,,,
0.0,1.0,0.927875,0.0,34.0,34.0,34.0,1.0,letter_opener_03s.jpg,0.0,clockno_default.jpg,6.0,48,,,,,,,,,,,,,,,,,,,,,,,,,,,,,,,,
0.0,1.0,1.96707,0.0,35.0,35.0,35.0,1.0,rice_12s.jpg,0.0,clockno_default.jpg,6.0,48,,,,,,,,,,,,,,,,,,,,,,,,,,,,,,,,
,,,,,,,,,1.0,,,48,1.0,1.0,2.281055,0.0,0.0,0.0,0.0,1.0,mud_13s.jpg,lip_gloss_06s.jpg,,,,,,,,,,,,,,,,,,,,,,
,,,,,,,,,1.0,,,48,1.0,1.0,2.25104,0.0,1.0,1.0,1.0,1.0,cape_11s.jpg,paper_bag_12s.jpg,,,,,,,,,,,,,,,,,,,,,,
,,,,,,,,,1.0,,,48,1.0,1.0,1.6006,0.0,2.0,2.0,2.0,1.0,swimming_pool_17s.jpg,scooter.jpg,,,,,,,,,,,,,,,,,,,,,,
,,,,,,,,,0.0,,,48,0.0,1.0,1.833725,0.0,3.0,3.0,3.0,1.0,bottle_opener_11s.jpg,popcorn_09s.jpg,,,,,,,,,,,,,,,,,,,,,,
,,,,,,,,,1.0,,,48,1.0,1.0,1.798145,0.0,4.0,4.0,4.0,1.0,antenna_01b.jpg,pineapple_12s.jpg,,,,,,,,,,,,,,,,,,,,,,
,,,,,,,,,1.0,,,48,1.0,1.0,1.500815,0.0,5.0,5.0,5.0,1.0,candy_cane_06s.jpg,coffee_filter_10s.jpg,,,,,,,,,,,,,,,,,,,,,,
,0.0,,,,,,,rolling_pin_02s.jpg,0.0,clock_7_1.png,1.0,48,,,,,,,,,,,,,,,,,,0.0,0.0,0.0,0.0,1.0,,,,,,,,,,
1.0,1.0,0.81454,,,,,,rolling_pin_02s.jpg,1.0,clock_7_2.png,1.0,48,,,,,,,,,,,,,,,,,,0.0,1.0,1.0,1.0,1.0,,,,,,,,,,
0.0,1.0,1.10863,,,,,,roller_coaster_07s.jpg,0.0,clock_7_3.png,1.0,48,,,,,,,,,,,,,,,,,,0.0,2.0,2.0,2.0,1.0,,,,,,,,,,
0.0,1.0,0.90032,,,,,,ice_pack_09s.jpg,0.0,clock_7_4.png,1.0,48,,,,,,,,,,,,,,,,,,0.0,3.0,3.0,3.0,1.0,,,,,,,,,,
1.0,1.0,1.12037,,,,,,rolling_pin_02s.jpg,1.0,clock_7_5.png,1.0,48,,,,,,,,,,,,,,,,,,0.0,4.0,4.0,4.0,1.0,,,,,,,,,,
1.0,1.0,0.89788,,,,,,roller_coaster_07s.jpg,1.0,clock_7_6.png,1.0,48,,,,,,,,,,,,,,,,,,0.0,5.0,5.0,5.0,1.0,,,,,,,,,,
0.0,1.0,0.972155,,,,,,jalapeno_15s.jpg,0.0,clock_7_7.png,1.0,48,,,,,,,,,,,,,,,,,,0.0,6.0,6.0,6.0,1.0,,,,,,,,,,
0.0,1.0,0.82253,,,,,,iron_13s.jpg,0.0,clock_6_1.png,2.0,48,,,,,,,,,,,,,,,,,,0.0,7.0,7.0,7.0,1.0,,,,,,,,,,
0.0,1.0,1.22559,,,,,,joystick_01b.jpg,0.0,clock_6_2.png,2.0,48,,,,,,,,,,,,,,,,,,0.0,8.0,8.0,8.0,1.0,,,,,,,,,,
0.0,1.0,1.191675,,,,,,tiara_05s.jpg,0.0,clock_6_3.png,2.0,48,,,,,,,,,,,,,,,,,,0.0,9.0,9.0,9.0,1.0,,,,,,,,,,
0.0,1.0,1.106335,,,,,,tie_03s.jpg,0.0,clock_6_4.png,2.0,48,,,,,,,,,,,,,,,,,,0.0,10.0,10.0,10.0,1.0,,,,,,,,,,
1.0,1.0,1.498455,,,,,,tiara_05s.jpg,1.0,clock_6_5.png,2.0,48,,,,,,,,,,,,,,,,,,0.0,11.0,11.0,11.0,1.0,,,,,,,,,,
0.0,1.0,1.25742,,,,,,padlock_07s.jpg,0.0,clock_6_6.png,2.0,48,,,,,,,,,,,,,,,,,,0.0,12.0,12.0,12.0,1.0,,,,,,,,,,
0.0,1.0,0.790845,,,,,,keyboard_05s.jpg,0.0,clock_5_1.png,3.0,48,,,,,,,,,,,,,,,,,,0.0,13.0,13.0,13.0,1.0,,,,,,,,,,
0.0,1.0,1.17632,,,,,,lamb_chop_07s.jpg,0.0,clock_5_2.png,3.0,48,,,,,,,,,,,,,,,,,,0.0,14.0,14.0,14.0,1.0,,,,,,,,,,
0.0,1.0,0.777615,,,,,,projector_08s.jpg,0.0,clock_5_3.png,3.0,48,,,,,,,,,,,,,,,,,,0.0,15.0,15.0,15.0,1.0,,,,,,,,,,
0.0,1.0,0.845885,,,,,,soccer_ball_12s.jpg,0.0,clock_5_4.png,3.0,48,,,,,,,,,,,,,,,,,,0.0,16.0,16.0,16.0,1.0,,,,,,,,,,
0.0,1.0,0.9743,,,,,,chocolate_01b.jpg,0.0,clock_5_5.png,3.0,48,,,,,,,,,,,,,,,,,,0.0,17.0,17.0,17.0,1.0,,,,,,,,,,
0.0,1.0,1.519345,,,,,,sea_urchin_09s.jpg,0.0,clock_5_1.png,4.0,48,,,,,,,,,,,,,,,,,,0.0,18.0,18.0,18.0,1.0,,,,,,,,,,
0.0,1.0,0.73896,,,,,,surfboard_11s.jpg,0.0,clock_5_2.png,4.0,48,,,,,,,,,,,,,,,,,,0.0,19.0,19.0,19.0,1.0,,,,,,,,,,
0.0,1.0,1.060055,,,,,,ink_08s.jpg,0.0,clock_5_3.png,4.0,48,,,,,,,,,,,,,,,,,,0.0,20.0,20.0,20.0,1.0,,,,,,,,,,
0.0,1.0,1.175115,,,,,,air_pump_05s.jpg,0.0,clock_5_4.png,4.0,48,,,,,,,,,,,,,,,,,,0.0,21.0,21.0,21.0,1.0,,,,,,,,,,
0.0,1.0,1.334445,,,,,,stamp2_08s.jpg,0.0,clock_5_5.png,4.0,48,,,,,,,,,,,,,,,,,,0.0,22.0,22.0,22.0,1.0,,,,,,,,,,
0.0,1.0,0.660185,,,,,,magnet_03s.jpg,0.0,clock_7_1.png,5.0,48,,,,,,,,,,,,,,,,,,0.0,23.0,23.0,23.0,1.0,,,,,,,,,,
0.0,1.0,0.96372,,,,,,razor_12s.jpg,0.0,clock_7_2.png,5.0,48,,,,,,,,,,,,,,,,,,0.0,24.0,24.0,24.0,1.0,,,,,,,,,,
0.0,1.0,1.289545,,,,,,trident_07s.jpg,0.0,clock_7_3.png,5.0,48,,,,,,,,,,,,,,,,,,0.0,25.0,25.0,25.0,1.0,,,,,,,,,,
1.0,1.0,1.059405,,,,,,magnet_03s.jpg,1.0,clock_7_4.png,5.0,48,,,,,,,,,,,,,,,,,,0.0,26.0,26.0,26.0,1.0,,,,,,,,,,
0.0,1.0,0.805425,,,,,,lamb_04s.jpg,0.0,clock_7_5.png,5.0,48,,,,,,,,,,,,,,,,,,0.0,27.0,27.0,27.0,1.0,,,,,,,,,,
1.0,1.0,0.97096,,,,,,magnet_03s.jpg,1.0,clock_7_6.png,5.0,48,,,,,,,,,,,,,,,,,,0.0,28.0,28.0,28.0,1.0,,,,,,,,,,
0.0,1.0,0.909305,,,,,,plug_08s.jpg,0.0,clock_7_7.png,5.0,48,,,,,,,,,,,,,,,,,,0.0,29.0,29.0,29.0,1.0,,,,,,,,,,
0.0,1.0,1.076025,,,,,,ticktacktoe_08s.jpg,0.0,clock_6_1.png,6.0,48,,,,,,,,,,,,,,,,,,0.0,30.0,30.0,30.0,1.0,,,,,,,,,,
0.0,1.0,0.91161,,,,,,treasure_08s.jpg,0.0,clock_6_2.png,6.0,48,,,,,,,,,,,,,,,,,,0.0,31.0,31.0,31.0,1.0,,,,,,,,,,
0.0,1.0,0.774745,,,,,,tulip_02s.jpg,0.0,clock_6_3.png,6.0,48,,,,,,,,,,,,,,,,,,0.0,32.0,32.0,32.0,1.0,,,,,,,,,,
0.0,1.0,0.95505,,,,,,telephone_pole_05s.jpg,0.0,clock_6_4.png,6.0,48,,,,,,,,,,,,,,,,,,0.0,33.0,33.0,33.0,1.0,,,,,,,,,,
0.0,1.0,1.514525,,,,,,luggage_08s.jpg,0.0,clock_6_5.png,6.0,48,,,,,,,,,,,,,,,,,,0.0,34.0,34.0,34.0,1.0,,,,,,,,,,
0.0,1.0,0.91301,,,,,,dirt_bike_11s.jpg,0.0,clock_6_6.png,6.0,48,,,,,,,,,,,,,,,,,,0.0,35.0,35.0,35.0,1.0,,,,,,,,,,
,,,,,,,,,1.0,,,48,1.0,1.0,2.51203,,,,,,padlock_07s.jpg,projector_08s.jpg,,,,,,,,,,,,,0.0,0.0,0.0,0.0,1.0,,,,,
,,,,,,,,,0.0,,,48,0.0,1.0,2.310155,,,,,,ink_08s.jpg,chocolate_01b.jpg,,,,,,,,,,,,,0.0,1.0,1.0,1.0,1.0,,,,,
,,,,,,,,,0.0,,,48,0.0,1.0,2.58802,,,,,,trident_07s.jpg,stamp2_08s.jpg,,,,,,,,,,,,,0.0,2.0,2.0,2.0,1.0,,,,,
,,,,,,,,,1.0,,,48,1.0,1.0,1.17828,,,,,,ice_pack_09s.jpg,jalapeno_15s.jpg,,,,,,,,,,,,,0.0,3.0,3.0,3.0,1.0,,,,,
,,,,,,,,,1.0,,,48,1.0,1.0,1.235405,,,,,,treasure_08s.jpg,luggage_08s.jpg,,,,,,,,,,,,,0.0,4.0,4.0,4.0,1.0,,,,,
,,,,,,,,,1.0,,,48,1.0,1.0,1.76772,,,,,,iron_13s.jpg,tie_03s.jpg,,,,,,,,,,,,,0.0,5.0,5.0,5.0,1.0,,,,,
,,,,,,,,,,,,48,,,,,,,,,,,,,,,,clock_present_1_13.xlsx,clock_compare_task_1_13.xlsx,,,,,,,,,,,0.0,0.0,0.0,0.0,1.0
0.0,1.0,1.068685,,,,,,pocket_watch_16s.jpg,0.0,clock_6_1.png,1.0,48,,,,,,,,,,,,,,,,,,0.0,0.0,0.0,0.0,1.0,,,,,,,,,,
0.0,1.0,0.853105,,,,,,throne_11s.jpg,0.0,clock_6_2.png,1.0,48,,,,,,,,,,,,,,,,,,0.0,1.0,1.0,1.0,1.0,,,,,,,,,,
0.0,1.0,1.011795,,,,,,flask_04s.jpg,0.0,clock_6_3.png,1.0,48,,,,,,,,,,,,,,,,,,0.0,2.0,2.0,2.0,1.0,,,,,,,,,,
0.0,1.0,0.98299,,,,,,funnel_01b.jpg,0.0,clock_6_4.png,1.0,48,,,,,,,,,,,,,,,,,,0.0,3.0,3.0,3.0,1.0,,,,,,,,,,
0.0,1.0,1.294325,,,,,,lid_10s.jpg,0.0,clock_6_5.png,1.0,48,,,,,,,,,,,,,,,,,,0.0,4.0,4.0,4.0,1.0,,,,,,,,,,
0.0,1.0,1.585665,,,,,,polaroid_05s.jpg,0.0,clock_6_6.png,1.0,48,,,,,,,,,,,,,,,,,,0.0,5.0,5.0,5.0,1.0,,,,,,,,,,
0.0,1.0,1.36503,,,,,,inhaler_01b.jpg,0.0,clock_7_1.png,2.0,48,,,,,,,,,,,,,,,,,,0.0,6.0,6.0,6.0,1.0,,,,,,,,,,
1.0,1.0,0.85197,,,,,,inhaler_01b.jpg,1.0,clock_7_2.png,2.0,48,,,,,,,,,,,,,,,,,,0.0,7.0,7.0,7.0,1.0,,,,,,,,,,
0.0,1.0,0.690965,,,,,,jewel_01b.jpg,0.0,clock_7_3.png,2.0,48,,,,,,,,,,,,,,,,,,0.0,8.0,8.0,8.0,1.0,,,,,,,,,,
0.0,1.0,0.95196,,,,,,pea_11s.jpg,0.0,clock_7_4.png,2.0,48,,,,,,,,,,,,,,,,,,0.0,9.0,9.0,9.0,1.0,,,,,,,,,,
0.0,1.0,1.328185,,,,,,frog_09s.jpg,0.0,clock_7_5.png,2.0,48,,,,,,,,,,,,,,,,,,0.0,10.0,10.0,10.0,1.0,,,,,,,,,,
1.0,1.0,0.932205,,,,,,inhaler_01b.jpg,1.0,clock_7_6.png,2.0,48,,,,,,,,,,,,,,,,,,0.0,11.0,11.0,11.0,1.0,,,,,,,,,,
0.0,1.0,0.729455,,,,,,purse_05s.jpg,0.0,clock_7_7.png,2.0,48,,,,,,,,,,,,,,,,,,0.0,12.0,12.0,12.0,1.0,,,,,,,,,,
0.0,1.0,0.942885,,,,,,hydrant_10s.jpg,0.0,clock_7_1.png,3.0,48,,,,,,,,,,,,,,,,,,0.0,13.0,13.0,13.0,1.0,,,,,,,,,,
0.0,1.0,1.001975,,,,,,film_03s.jpg,0.0,clock_7_2.png,3.0,48,,,,,,,,,,,,,,,,,,0.0,14.0,14.0,14.0,1.0,,,,,,,,,,
0.0,1.0,0.727405,,,,,,quilt_03s.jpg,0.0,clock_7_3.png,3.0,48,,,,,,,,,,,,,,,,,,0.0,15.0,15.0,15.0,1.0,,,,,,,,,,
0.0,1.0,1.04327,,,,,,popsicle_02s.jpg,0.0,clock_7_4.png,3.0,48,,,,,,,,,,,,,,,,,,0.0,16.0,16.0,16.0,1.0,,,,,,,,,,
0.0,1.0,0.674855,,,,,,fox_13s.jpg,0.0,clock_7_5.png,3.0,48,,,,,,,,,,,,,,,,,,0.0,17.0,17.0,17.0,1.0,,,,,,,,,,
0.0,1.0,1.030855,,,,,,orchid_01b.jpg,0.0,clock_7_6.png,3.0,48,,,,,,,,,,,,,,,,,,0.0,18.0,18.0,18.0,1.0,,,,,,,,,,
0.0,1.0,0.812445,,,,,,marshmallow_08s.jpg,0.0,clock_7_7.png,3.0,48,,,,,,,,,,,,,,,,,,0.0,19.0,19.0,19.0,1.0,,,,,,,,,,
0.0,1.0,1.579945,,,,,,taxi_15s.jpg,0.0,clock_5_1.png,4.0,48,,,,,,,,,,,,,,,,,,0.0,20.0,20.0,20.0,1.0,,,,,,,,,,
0.0,1.0,0.79731,,,,,,fork_04s.jpg,0.0,clock_5_2.png,4.0,48,,,,,,,,,,,,,,,,,,0.0,21.0,21.0,21.0,1.0,,,,,,,,,,
0.0,1.0,0.68812,,,,,,puppet_01b.jpg,0.0,clock_5_3.png,4.0,48,,,,,,,,,,,,,,,,,,0.0,22.0,22.0,22.0,1.0,,,,,,,,,,
0.0,1.0,0.5749,,,,,,megaphone_03s.jpg,0.0,clock_5_4.png,4.0,48,,,,,,,,,,,,,,,,,,0.0,23.0,23.0,23.0,1.0,,,,,,,,,,
1.0,1.0,0.827335,,,,,,megaphone_03s.jpg,1.0,clock_5_5.png,4.0,48,,,,,,,,,,,,,,,,,,0.0,24.0,24.0,24.0,1.0,,,,,,,,,,
0.0,1.0,1.20908,,,,,,cotton_candy_01b.jpg,0.0,clock_5_1.png,5.0,48,,,,,,,,,,,,,,,,,,0.0,25.0,25.0,25.0,1.0,,,,,,,,,,
0.0,1.0,0.815815,,,,,,puppy_08s.jpg,0.0,clock_5_2.png,5.0,48,,,,,,,,,,,,,,,,,,0.0,26.0,26.0,26.0,1.0,,,,,,,,,,
0.0,1.0,0.85896,,,,,,glasses01a.jpg,0.0,clock_5_3.png,5.0,48,,,,,,,,,,,,,,,,,,0.0,27.0,27.0,27.0,1.0,,,,,,,,,,
1.0,1.0,0.76771,,,,,,glasses01a.jpg,1.0,clock_5_4.png,5.0,48,,,,,,,,,,,,,,,,,,0.0,28.0,28.0,28.0,1.0,,,,,,,,,,
0.0,1.0,0.79009,,,,,,typewriter_11s.jpg,0.0,clock_5_5.png,5.0,48,,,,,,,,,,,,,,,,,,0.0,29.0,29.0,29.0,1.0,,,,,,,,,,
0.0,1.0,1.36692,,,,,,fur_coat_11s.jpg,0.0,clock_6_1.png,6.0,48,,,,,,,,,,,,,,,,,,0.0,30.0,30.0,30.0,1.0,,,,,,,,,,
0.0,1.0,1.727865,,,,,,rudder_02s.jpg,0.0,clock_6_2.png,6.0,48,,,,,,,,,,,,,,,,,,0.0,31.0,31.0,31.0,1.0,,,,,,,,,,
0.0,1.0,0.902345,,,,,,chip_04s.jpg,0.0,clock_6_3.png,6.0,48,,,,,,,,,,,,,,,,,,0.0,32.0,32.0,32.0,1.0,,,,,,,,,,
0.0,1.0,1.83329,,,,,,thread_08s.jpg,0.0,clock_6_4.png,6.0,48,,,,,,,,,,,,,,,,,,0.0,33.0,33.0,33.0,1.0,,,,,,,,,,
0.0,1.0,1.08439,,,,,,quilt_03s.jpg,0.0,clock_6_5.png,6.0,48,,,,,,,,,,,,,,,,,,0.0,34.0,34.0,34.0,1.0,,,,,,,,,,
0.0,1.0,1.71235,,,,,,polar_bear_02s.jpg,0.0,clock_6_6.png,6.0,48,,,,,,,,,,,,,,,,,,0.0,35.0,35.0,35.0,1.0,,,,,,,,,,
,,,,,,,,,0.0,,,48,1.0,0.0,4.04768,,,,,,fork_04s.jpg,orchid_01b.jpg,,,,,,,,,,,,,0.0,0.0,0.0,0.0,1.0,,,,,
,,,,,,,,,0.0,,,48,0.0,1.0,1.473255,,,,,,cotton_candy_01b.jpg,puppet_01b.jpg,,,,,,,,,,,,,0.0,1.0,1.0,1.0,1.0,,,,,
,,,,,,,,,1.0,,,48,0.0,0.0,1.50339,,,,,,polaroid_05s.jpg,jewel_01b.jpg,,,,,,,,,,,,,0.0,2.0,2.0,2.0,1.0,,,,,
,,,,,,,,,1.0,,,48,1.0,1.0,1.3531,,,,,,pocket_watch_16s.jpg,funnel_01b.jpg,,,,,,,,,,,,,0.0,3.0,3.0,3.0,1.0,,,,,
,,,,,,,,,0.0,,,48,0.0,1.0,1.285135,,,,,,lid_10s.jpg,throne_11s.jpg,,,,,,,,,,,,,0.0,4.0,4.0,4.0,1.0,,,,,
,,,,,,,,,1.0,,,48,0.0,0.0,2.293185,,,,,,pea_11s.jpg,purse_05s.jpg,,,,,,,,,,,,,0.0,5.0,5.0,5.0,1.0,,,,,
,,,,,,,,,,,,48,,,,,,,,,,,,,,,,clock_present_2_13.xlsx,clock_compare_task_2_13.xlsx,,,,,,,,,,,0.0,1.0,1.0,1.0,1.0
0.0,1.0,1.04696,,,,,,trumpet_06s.jpg,0.0,clock_6_1.png,1.0,48,,,,,,,,,,,,,,,,,,0.0,0.0,0.0,0.0,1.0,,,,,,,,,,
0.0,1.0,0.86421,,,,,,pantyhose_07s.jpg,0.0,clock_6_2.png,1.0,48,,,,,,,,,,,,,,,,,,0.0,1.0,1.0,1.0,1.0,,,,,,,,,,
0.0,1.0,0.847255,,,,,,latte_06s.jpg,0.0,clock_6_3.png,1.0,48,,,,,,,,,,,,,,,,,,0.0,2.0,2.0,2.0,1.0,,,,,,,,,,
1.0,1.0,1.027235,,,,,,trumpet_06s.jpg,1.0,clock_6_4.png,1.0,48,,,,,,,,,,,,,,,,,,0.0,3.0,3.0,3.0,1.0,,,,,,,,,,
0.0,1.0,0.895755,,,,,,jetski_10s.jpg,0.0,clock_6_5.png,1.0,48,,,,,,,,,,,,,,,,,,0.0,4.0,4.0,4.0,1.0,,,,,,,,,,
0.0,1.0,1.09001,,,,,,toy_04s.jpg,0.0,clock_6_6.png,1.0,48,,,,,,,,,,,,,,,,,,0.0,5.0,5.0,5.0,1.0,,,,,,,,,,
0.0,1.0,1.217455,,,,,,espresso_01b.jpg,0.0,clock_5_1.png,2.0,48,,,,,,,,,,,,,,,,,,0.0,6.0,6.0,6.0,1.0,,,,,,,,,,
0.0,1.0,2.36339,,,,,,tambourine_06s.jpg,0.0,clock_5_2.png,2.0,48,,,,,,,,,,,,,,,,,,0.0,7.0,7.0,7.0,1.0,,,,,,,,,,
0.0,1.0,0.79651,,,,,,comic_book_02s.jpg,0.0,clock_5_3.png,2.0,48,,,,,,,,,,,,,,,,,,0.0,8.0,8.0,8.0,1.0,,,,,,,,,,
0.0,1.0,0.743895,,,,,,snowman_02s.jpg,0.0,clock_5_4.png,2.0,48,,,,,,,,,,,,,,,,,,0.0,9.0,9.0,9.0,1.0,,,,,,,,,,
1.0,1.0,0.893065,,,,,,espresso_01b.jpg,1.0,clock_5_5.png,2.0,48,,,,,,,,,,,,,,,,,,0.0,10.0,10.0,10.0,1.0,,,,,,,,,,
0.0,1.0,0.96625,,,,,,blowfish_03s.jpg,0.0,clock_7_1.png,3.0,48,,,,,,,,,,,,,,,,,,0.0,11.0,11.0,11.0,1.0,,,,,,,,,,
1.0,1.0,0.73347,,,,,,blowfish_03s.jpg,1.0,clock_7_2.png,3.0,48,,,,,,,,,,,,,,,,,,0.0,12.0,12.0,12.0,1.0,,,,,,,,,,
1.0,1.0,1.398345,,,,,,blowfish_03s.jpg,1.0,clock_7_3.png,3.0,48,,,,,,,,,,,,,,,,,,0.0,13.0,13.0,13.0,1.0,,,,,,,,,,
1.0,1.0,0.882645,,,,,,blowfish_03s.jpg,1.0,clock_7_4.png,3.0,48,,,,,,,,,,,,,,,,,,0.0,14.0,14.0,14.0,1.0,,,,,,,,,,
0.0,1.0,0.832435,,,,,,beard_16s.jpg,0.0,clock_7_5.png,3.0,48,,,,,,,,,,,,,,,,,,0.0,15.0,15.0,15.0,1.0,,,,,,,,,,
0.0,1.0,0.8644,,,,,,police_car_01s.jpg,0.0,clock_7_6.png,3.0,48,,,,,,,,,,,,,,,,,,0.0,16.0,16.0,16.0,1.0,,,,,,,,,,
0.0,1.0,1.163115,,,,,,comic_book_02s.jpg,0.0,clock_7_7.png,3.0,48,,,,,,,,,,,,,,,,,,0.0,17.0,17.0,17.0,1.0,,,,,,,,,,
0.0,1.0,0.69966,,,,,,gazelle_10s.jpg,0.0,clock_7_1.png,4.0,48,,,,,,,,,,,,,,,,,,0.0,18.0,18.0,18.0,1.0,,,,,,,,,,
0.0,1.0,0.7607,,,,,,chalice_10s.jpg,0.0,clock_7_2.png,4.0,48,,,,,,,,,,,,,,,,,,0.0,19.0,19.0,19.0,1.0,,,,,,,,,,
0.0,1.0,1.02124,,,,,,foam_03s.jpg,0.0,clock_7_3.png,4.0,48,,,,,,,,,,,,,,,,,,0.0,20.0,20.0,20.0,1.0,,,,,,,,,,
0.0,1.0,0.874055,,,,,,jersey_02s.jpg,0.0,clock_7_4.png,4.0,48,,,,,,,,,,,,,,,,,,0.0,21.0,21.0,21.0,1.0,,,,,,,,,,
1.0,1.0,1.15066,,,,,,foam_03s.jpg,1.0,clock_7_5.png,4.0,48,,,,,,,,,,,,,,,,,,0.0,22.0,22.0,22.0,1.0,,,,,,,,,,
0.0,1.0,0.994885,,,,,,contact_lens_15s.jpg,0.0,clock_7_6.png,4.0,48,,,,,,,,,,,,,,,,,,0.0,23.0,23.0,23.0,1.0,,,,,,,,,,
1.0,1.0,0.907675,,,,,,contact_lens_15s.jpg,1.0,clock_7_7.png,4.0,48,,,,,,,,,,,,,,,,,,0.0,24.0,24.0,24.0,1.0,,,,,,,,,,
0.0,1.0,1.065515,,,,,,pacifier_09s.jpg,0.0,clock_6_1.png,5.0,48,,,,,,,,,,,,,,,,,,0.0,25.0,25.0,25.0,1.0,,,,,,,,,,
0.0,1.0,0.760905,,,,,,onion_10s.jpg,0.0,clock_6_2.png,5.0,48,,,,,,,,,,,,,,,,,,0.0,26.0,26.0,26.0,1.0,,,,,,,,,,
0.0,1.0,0.62205,,,,,,knot_01b.jpg,0.0,clock_6_3.png,5.0,48,,,,,,,,,,,,,,,,,,0.0,27.0,27.0,27.0,1.0,,,,,,,,,,
0.0,1.0,0.67029,,,,,,cucumber_07s.jpg,0.0,clock_6_4.png,5.0,48,,,,,,,,,,,,,,,,,,0.0,28.0,28.0,28.0,1.0,,,,,,,,,,
0.0,1.0,0.65693,,,,,,pump_11s.jpg,0.0,clock_6_5.png,5.0,48,,,,,,,,,,,,,,,,,,0.0,29.0,29.0,29.0,1.0,,,,,,,,,,
0.0,1.0,0.651405,,,,,,stingray_02s.jpg,0.0,clock_6_6.png,5.0,48,,,,,,,,,,,,,,,,,,0.0,30.0,30.0,30.0,1.0,,,,,,,,,,
0.0,1.0,0.87947,,,,,,spacesuit_02s.jpg,0.0,clock_5_1.png,6.0,48,,,,,,,,,,,,,,,,,,0.0,31.0,31.0,31.0,1.0,,,,,,,,,,
0.0,1.0,0.96196,,,,,,contact_lens_15s.jpg,0.0,clock_5_2.png,6.0,48,,,,,,,,,,,,,,,,,,0.0,32.0,32.0,32.0,1.0,,,,,,,,,,
0.0,1.0,0.761445,,,,,,paper_towel_03s.jpg,0.0,clock_5_3.png,6.0,48,,,,,,,,,,,,,,,,,,0.0,33.0,33.0,33.0,1.0,,,,,,,,,,
1.0,1.0,0.932655,,,,,,paper_towel_03s.jpg,1.0,clock_5_4.png,6.0,48,,,,,,,,,,,,,,,,,,0.0,34.0,34.0,34.0,1.0,,,,,,,,,,
1.0,1.0,0.749015,,,,,,spacesuit_02s.jpg,1.0,clock_5_5.png,6.0,48,,,,,,,,,,,,,,,,,,0.0,35.0,35.0,35.0,1.0,,,,,,,,,,
,,,,,,,,,1.0,,,48,1.0,1.0,2.727065,,,,,,police_car_01s.jpg,chalice_10s.jpg,,,,,,,,,,,,,0.0,0.0,0.0,0.0,1.0,,,,,
,,,,,,,,,1.0,,,48,1.0,1.0,2.82383,,,,,,jetski_10s.jpg,tambourine_06s.jpg,,,,,,,,,,,,,0.0,1.0,1.0,1.0,1.0,,,,,
,,,,,,,,,0.0,,,48,0.0,1.0,2.086045,,,,,,gazelle_10s.jpg,beard_16s.jpg,,,,,,,,,,,,,0.0,2.0,2.0,2.0,1.0,,,,,
,,,,,,,,,1.0,,,48,1.0,1.0,2.62532,,,,,,latte_06s.jpg,toy_04s.jpg,,,,,,,,,,,,,0.0,3.0,3.0,3.0,1.0,,,,,
,,,,,,,,,1.0,,,48,1.0,1.0,1.589705,,,,,,pacifier_09s.jpg,cucumber_07s.jpg,,,,,,,,,,,,,0.0,4.0,4.0,4.0,1.0,,,,,
,,,,,,,,,1.0,,,48,1.0,1.0,1.697465,,,,,,onion_10s.jpg,pump_11s.jpg,,,,,,,,,,,,,0.0,5.0,5.0,5.0,1.0,,,,,
,,,,,,,,,,,,48,,,,,,,,,,,,,,,,clock_present_3_13.xlsx,clock_compare_task_3_13.xlsx,,,,,,,,,,,0.0,2.0,2.0,2.0,1.0
0.0,1.0,1.046895,,,,,,lipstick_02s.jpg,0.0,clock_7_1.png,1.0,48,,,,,,,,,,,,,,,,,,0.0,0.0,0.0,0.0,1.0,,,,,,,,,,
0.0,1.0,1.13807,,,,,,kettle_08s.jpg,0.0,clock_7_2.png,1.0,48,,,,,,,,,,,,,,,,,,0.0,1.0,1.0,1.0,1.0,,,,,,,,,,
1.0,1.0,1.143575,,,,,,lipstick_02s.jpg,1.0,clock_7_3.png,1.0,48,,,,,,,,,,,,,,,,,,0.0,2.0,2.0,2.0,1.0,,,,,,,,,,
1.0,1.0,0.841985,,,,,,lipstick_02s.jpg,1.0,clock_7_4.png,1.0,48,,,,,,,,,,,,,,,,,,0.0,3.0,3.0,3.0,1.0,,,,,,,,,,
0.0,1.0,0.99846,,,,,,pomegranate_04s.jpg,0.0,clock_7_5.png,1.0,48,,,,,,,,,,,,,,,,,,0.0,4.0,4.0,4.0,1.0,,,,,,,,,,
0.0,1.0,1.62239,,,,,,pencil02a.jpg,0.0,clock_7_6.png,1.0,48,,,,,,,,,,,,,,,,,,0.0,5.0,5.0,5.0,1.0,,,,,,,,,,
0.0,1.0,0.97056,,,,,,lollipop_08s.jpg,0.0,clock_7_7.png,1.0,48,,,,,,,,,,,,,,,,,,0.0,6.0,6.0,6.0,1.0,,,,,,,,,,
0.0,1.0,0.665885,,,,,,road_sign_05s.jpg,0.0,clock_6_1.png,2.0,48,,,,,,,,,,,,,,,,,,0.0,7.0,7.0,7.0,1.0,,,,,,,,,,
1.0,1.0,1.07272,,,,,,road_sign_05s.jpg,1.0,clock_6_2.png,2.0,48,,,,,,,,,,,,,,,,,,0.0,8.0,8.0,8.0,1.0,,,,,,,,,,
0.0,1.0,0.88288,,,,,,leash_10s.jpg,0.0,clock_6_3.png,2.0,48,,,,,,,,,,,,,,,,,,0.0,9.0,9.0,9.0,1.0,,,,,,,,,,
0.0,1.0,1.17387,,,,,,licorice_06s.jpg,0.0,clock_6_4.png,2.0,48,,,,,,,,,,,,,,,,,,0.0,10.0,10.0,10.0,1.0,,,,,,,,,,
0.0,1.0,0.957415,,,,,,mixer_12s.jpg,0.0,clock_6_5.png,2.0,48,,,,,,,,,,,,,,,,,,0.0,11.0,11.0,11.0,1.0,,,,,,,,,,
0.0,1.0,0.94378,,,,,,lipstick_02s.jpg,0.0,clock_6_6.png,2.0,48,,,,,,,,,,,,,,,,,,0.0,12.0,12.0,12.0,1.0,,,,,,,,,,
0.0,1.0,0.67292,,,,,,rocking_chair_05s.jpg,0.0,clock_6_1.png,3.0,48,,,,,,,,,,,,,,,,,,0.0,13.0,13.0,13.0,1.0,,,,,,,,,,
0.0,1.0,1.36366,,,,,,syringe_02s.jpg,0.0,clock_6_2.png,3.0,48,,,,,,,,,,,,,,,,,,0.0,14.0,14.0,14.0,1.0,,,,,,,,,,
0.0,1.0,0.69018,,,,,,golf_club_03s.jpg,0.0,clock_6_3.png,3.0,48,,,,,,,,,,,,,,,,,,0.0,15.0,15.0,15.0,1.0,,,,,,,,,,
0.0,1.0,0.9625,,,,,,potholder_02s.jpg,0.0,clock_6_4.png,3.0,48,,,,,,,,,,,,,,,,,,0.0,16.0,16.0,16.0,1.0,,,,,,,,,,
0.0,1.0,1.104765,,,,,,pencil02a.jpg,0.0,clock_6_5.png,3.0,48,,,,,,,,,,,,,,,,,,0.0,17.0,17.0,17.0,1.0,,,,,,,,,,
0.0,1.0,1.374235,,,,,,fire_pit_10s.jpg,0.0,clock_6_6.png,3.0,48,,,,,,,,,,,,,,,,,,0.0,18.0,18.0,18.0,1.0,,,,,,,,,,
0.0,1.0,0.935115,,,,,,tinsel_12s.jpg,0.0,clock_5_1.png,4.0,48,,,,,,,,,,,,,,,,,,0.0,19.0,19.0,19.0,1.0,,,,,,,,,,
0.0,1.0,1.6296,,,,,,sledgehammer_03s.jpg,0.0,clock_5_2.png,4.0,48,,,,,,,,,,,,,,,,,,0.0,20.0,20.0,20.0,1.0,,,,,,,,,,
0.0,1.0,0.829295,,,,,,pomegranate_04s.jpg,0.0,clock_5_3.png,4.0,48,,,,,,,,,,,,,,,,,,0.0,21.0,21.0,21.0,1.0,,,,,,,,,,
0.0,1.0,0.651565,,,,,,tattoo_14s.jpg,0.0,clock_5_4.png,4.0,48,,,,,,,,,,,,,,,,,,0.0,22.0,22.0,22.0,1.0,,,,,,,,,,
0.0,1.0,0.968785,,,,,,turkey_10s.jpg,0.0,clock_5_5.png,4.0,48,,,,,,,,,,,,,,,,,,0.0,23.0,23.0,23.0,1.0,,,,,,,,,,
0.0,1.0,0.804245,,,,,,eyedropper_12s.jpg,0.0,clock_5_1.png,5.0,48,,,,,,,,,,,,,,,,,,0.0,24.0,24.0,24.0,1.0,,,,,,,,,,
0.0,1.0,1.304075,,,,,,fondue_07s.jpg,0.0,clock_5_2.png,5.0,48,,,,,,,,,,,,,,,,,,0.0,25.0,25.0,25.0,1.0,,,,,,,,,,
0.0,1.0,1.687225,,,,,,fire_alarm_05s.jpg,0.0,clock_5_3.png,5.0,48,,,,,,,,,,,,,,,,,,0.0,26.0,26.0,26.0,1.0,,,,,,,,,,
1.0,1.0,1.38424,,,,,,eyedropper_12s.jpg,1.0,clock_5_4.png,5.0,48,,,,,,,,,,,,,,,,,,0.0,27.0,27.0,27.0,1.0,,,,,,,,,,
1.0,1.0,0.810705,,,,,,eyedropper_12s.jpg,1.0,clock_5_5.png,5.0,48,,,,,,,,,,,,,,,,,,0.0,28.0,28.0,28.0,1.0,,,,,,,,,,
0.0,1.0,0.8629,,,,,,badge_03s.jpg,0.0,clock_7_1.png,6.0,48,,,,,,,,,,,,,,,,,,0.0,29.0,29.0,29.0,1.0,,,,,,,,,,
0.0,1.0,0.614995,,,,,,lion_18s.jpg,0.0,clock_7_2.png,6.0,48,,,,,,,,,,,,,,,,,,0.0,30.0,30.0,30.0,1.0,,,,,,,,,,
0.0,1.0,0.63147,,,,,,lasagna_06s.jpg,0.0,clock_7_3.png,6.0,48,,,,,,,,,,,,,,,,,,0.0,31.0,31.0,31.0,1.0,,,,,,,,,,
0.0,1.0,1.72715,,,,,,turf_03s.jpg,0.0,clock_7_4.png,6.0,48,,,,,,,,,,,,,,,,,,0.0,32.0,32.0,32.0,1.0,,,,,,,,,,
0.0,1.0,0.633125,,,,,,kitten_07s.jpg,0.0,clock_7_5.png,6.0,48,,,,,,,,,,,,,,,,,,0.0,33.0,33.0,33.0,1.0,,,,,,,,,,
1.0,1.0,1.19488,,,,,,badge_03s.jpg,1.0,clock_7_6.png,6.0,48,,,,,,,,,,,,,,,,,,0.0,34.0,34.0,34.0,1.0,,,,,,,,,,
0.0,1.0,1.284495,,,,,,tinsel_12s.jpg,0.0,clock_7_7.png,6.0,48,,,,,,,,,,,,,,,,,,0.0,35.0,35.0,35.0,1.0,,,,,,,,,,
,,,,,,,,,1.0,,,48,0.0,0.0,2.21039,,,,,,lollipop_08s.jpg,leash_10s.jpg,,,,,,,,,,,,,0.0,0.0,0.0,0.0,1.0,,,,,
,,,,,,,,,1.0,,,48,1.0,1.0,1.600565,,,,,,mixer_12s.jpg,syringe_02s.jpg,,,,,,,,,,,,,0.0,1.0,1.0,1.0,1.0,,,,,
,,,,,,,,,1.0,,,48,1.0,1.0,2.13036,,,,,,tattoo_14s.jpg,fondue_07s.jpg,,,,,,,,,,,,,0.0,2.0,2.0,2.0,1.0,,,,,
,,,,,,,,,1.0,,,48,1.0,1.0,1.57999,,,,,,golf_club_03s.jpg,fire_pit_10s.jpg,,,,,,,,,,,,,0.0,3.0,3.0,3.0,1.0,,,,,
,,,,,,,,,0.0,,,48,0.0,1.0,2.00584,,,,,,kitten_07s.jpg,lion_18s.jpg,,,,,,,,,,,,,0.0,4.0,4.0,4.0,1.0,,,,,
,,,,,,,,,0.0,,,48,1.0,0.0,1.61309,,,,,,potholder_02s.jpg,rocking_chair_05s.jpg,,,,,,,,,,,,,0.0,5.0,5.0,5.0,1.0,,,,,
,,,,,,,,,,,,48,,,,,,,,,,,,,,,,clock_present_4_13.xlsx,clock_compare_task_4_13.xlsx,,,,,,,,,,,0.0,3.0,3.0,3.0,1.0
0.0,1.0,2.310355,,,,,,insole_11s.jpg,0.0,clock_7_1.png,1.0,48,,,,,,,,,,,,,,,,,,0.0,0.0,0.0,0.0,1.0,,,,,,,,,,
0.0,1.0,0.95653,,,,,,aluminum_foil_08s.jpg,0.0,clock_7_2.png,1.0,48,,,,,,,,,,,,,,,,,,0.0,1.0,1.0,1.0,1.0,,,,,,,,,,
1.0,1.0,1.882695,,,,,,aluminum_foil_08s.jpg,1.0,clock_7_3.png,1.0,48,,,,,,,,,,,,,,,,,,0.0,2.0,2.0,2.0,1.0,,,,,,,,,,
1.0,1.0,2.199775,,,,,,insole_11s.jpg,1.0,clock_7_4.png,1.0,48,,,,,,,,,,,,,,,,,,0.0,3.0,3.0,3.0,1.0,,,,,,,,,,
0.0,1.0,1.3114,,,,,,feather02.jpg,0.0,clock_7_5.png,1.0,48,,,,,,,,,,,,,,,,,,0.0,4.0,4.0,4.0,1.0,,,,,,,,,,
1.0,1.0,1.63773,,,,,,aluminum_foil_08s.jpg,1.0,clock_7_6.png,1.0,48,,,,,,,,,,,,,,,,,,0.0,5.0,5.0,5.0,1.0,,,,,,,,,,
0.0,1.0,1.078265,,,,,,panda_02s.jpg,0.0,clock_7_7.png,1.0,48,,,,,,,,,,,,,,,,,,0.0,6.0,6.0,6.0,1.0,,,,,,,,,,
0.0,1.0,2.22104,,,,,,orange_12s.jpg,0.0,clock_7_1.png,2.0,48,,,,,,,,,,,,,,,,,,0.0,7.0,7.0,7.0,1.0,,,,,,,,,,
1.0,1.0,1.27907,,,,,,orange_12s.jpg,1.0,clock_7_2.png,2.0,48,,,,,,,,,,,,,,,,,,0.0,8.0,8.0,8.0,1.0,,,,,,,,,,
0.0,1.0,1.55571,,,,,,loom_05s.jpg,0.0,clock_7_3.png,2.0,48,,,,,,,,,,,,,,,,,,0.0,9.0,9.0,9.0,1.0,,,,,,,,,,
0.0,1.0,2.37288,,,,,,knitting_needle_04s.jpg,0.0,clock_7_4.png,2.0,48,,,,,,,,,,,,,,,,,,0.0,10.0,10.0,10.0,1.0,,,,,,,,,,
1.0,1.0,1.148175,,,,,,knitting_needle_04s.jpg,1.0,clock_7_5.png,2.0,48,,,,,,,,,,,,,,,,,,0.0,11.0,11.0,11.0,1.0,,,,,,,,,,
,0.0,,,,,,,fireworks_18s.jpg,0.0,clock_7_6.png,2.0,48,,,,,,,,,,,,,,,,,,0.0,12.0,12.0,12.0,1.0,,,,,,,,,,
0.0,1.0,2.077755,,,,,,panda_02s.jpg,0.0,clock_7_7.png,2.0,48,,,,,,,,,,,,,,,,,,0.0,13.0,13.0,13.0,1.0,,,,,,,,,,
0.0,1.0,1.951975,,,,,,bacon_05s.jpg,0.0,clock_5_1.png,3.0,48,,,,,,,,,,,,,,,,,,0.0,14.0,14.0,14.0,1.0,,,,,,,,,,
1.0,0.0,2.154865,,,,,,margarita_03s.jpg,0.0,clock_5_2.png,3.0,48,,,,,,,,,,,,,,,,,,0.0,15.0,15.0,15.0,1.0,,,,,,,,,,
,0.0,,,,,,,tiger_06s.jpg,0.0,clock_5_3.png,3.0,48,,,,,,,,,,,,,,,,,,0.0,16.0,16.0,16.0,1.0,,,,,,,,,,
0.0,1.0,1.726675,,,,,,outlet_10s.jpg,0.0,clock_5_4.png,3.0,48,,,,,,,,,,,,,,,,,,0.0,17.0,17.0,17.0,1.0,,,,,,,,,,
0.0,1.0,1.63093,,,,,,saddle_06s.jpg,0.0,clock_5_5.png,3.0,48,,,,,,,,,,,,,,,,,,0.0,18.0,18.0,18.0,1.0,,,,,,,,,,
0.0,1.0,1.218075,,,,,,moth_06n.jpg,0.0,clock_5_1.png,4.0,48,,,,,,,,,,,,,,,,,,0.0,19.0,19.0,19.0,1.0,,,,,,,,,,
1.0,1.0,1.315165,,,,,,moth_06n.jpg,1.0,clock_5_2.png,4.0,48,,,,,,,,,,,,,,,,,,0.0,20.0,20.0,20.0,1.0,,,,,,,,,,
0.0,1.0,0.897455,,,,,,cardinal_07s.jpg,0.0,clock_5_3.png,4.0,48,,,,,,,,,,,,,,,,,,0.0,21.0,21.0,21.0,1.0,,,,,,,,,,
0.0,1.0,1.077715,,,,,,stapler_01b.jpg,0.0,clock_5_4.png,4.0,48,,,,,,,,,,,,,,,,,,0.0,22.0,22.0,22.0,1.0,,,,,,,,,,
0.0,1.0,1.78507,,,,,,mitten_10s.jpg,0.0,clock_5_5.png,4.0,48,,,,,,,,,,,,,,,,,,0.0,23.0,23.0,23.0,1.0,,,,,,,,,,
0.0,1.0,1.249395,,,,,,sundae_08s.jpg,0.0,clock_6_1.png,5.0,48,,,,,,,,,,,,,,,,,,0.0,24.0,24.0,24.0,1.0,,,,,,,,,,
0.0,1.0,1.64214,,,,,,boomerang_06s.jpg,0.0,clock_6_2.png,5.0,48,,,,,,,,,,,,,,,,,,0.0,25.0,25.0,25.0,1.0,,,,,,,,,,
0.0,1.0,0.746315,,,,,,toaster_03s.jpg,0.0,clock_6_3.png,5.0,48,,,,,,,,,,,,,,,,,,0.0,26.0,26.0,26.0,1.0,,,,,,,,,,
0.0,1.0,0.69339,,,,,,quesadilla_07s.jpg,0.0,clock_6_4.png,5.0,48,,,,,,,,,,,,,,,,,,0.0,27.0,27.0,27.0,1.0,,,,,,,,,,
1.0,1.0,1.045195,,,,,,toaster_03s.jpg,1.0,clock_6_5.png,5.0,48,,,,,,,,,,,,,,,,,,0.0,28.0,28.0,28.0,1.0,,,,,,,,,,
0.0,1.0,1.022845,,,,,,punch1_10s.jpg,0.0,clock_6_6.png,5.0,48,,,,,,,,,,,,,,,,,,0.0,29.0,29.0,29.0,1.0,,,,,,,,,,
0.0,1.0,0.48961,,,,,,tuxedo_01b.jpg,0.0,clock_6_1.png,6.0,48,,,,,,,,,,,,,,,,,,0.0,30.0,30.0,30.0,1.0,,,,,,,,,,
0.0,1.0,0.849355,,,,,,kimono_13s.jpg,0.0,clock_6_2.png,6.0,48,,,,,,,,,,,,,,,,,,0.0,31.0,31.0,31.0,1.0,,,,,,,,,,
0.0,1.0,0.75761,,,,,,power_line_08s.jpg,0.0,clock_6_3.png,6.0,48,,,,,,,,,,,,,,,,,,0.0,32.0,32.0,32.0,1.0,,,,,,,,,,
0.0,1.0,0.612275,,,,,,coral_08s.jpg,0.0,clock_6_4.png,6.0,48,,,,,,,,,,,,,,,,,,0.0,33.0,33.0,33.0,1.0,,,,,,,,,,
0.0,1.0,0.69451,,,,,,undershirt_02s.jpg,0.0,clock_6_5.png,6.0,48,,,,,,,,,,,,,,,,,,0.0,34.0,34.0,34.0,1.0,,,,,,,,,,
0.0,1.0,0.909325,,,,,,ruby_15s.jpg,0.0,clock_6_6.png,6.0,48,,,,,,,,,,,,,,,,,,0.0,35.0,35.0,35.0,1.0,,,,,,,,,,
,,,,,,,,,0.0,,,48,1.0,0.0,2.199185,,,,,,boomerang_06s.jpg,stapler_01b.jpg,,,,,,,,,,,,,0.0,0.0,0.0,0.0,1.0,,,,,
,,,,,,,,,0.0,,,48,0.0,1.0,1.17107,,,,,,cardinal_07s.jpg,saddle_06s.jpg,,,,,,,,,,,,,0.0,1.0,1.0,1.0,1.0,,,,,
,,,,,,,,,0.0,,,48,0.0,1.0,1.461555,,,,,,power_line_08s.jpg,punch1_10s.jpg,,,,,,,,,,,,,0.0,2.0,2.0,2.0,1.0,,,,,
,,,,,,,,,1.0,,,48,0.0,0.0,0.945275,,,,,,bacon_05s.jpg,outlet_10s.jpg,,,,,,,,,,,,,0.0,3.0,3.0,3.0,1.0,,,,,
,,,,,,,,,0.0,,,48,0.0,1.0,1.511305,,,,,,undershirt_02s.jpg,kimono_13s.jpg,,,,,,,,,,,,,0.0,4.0,4.0,4.0,1.0,,,,,
,,,,,,,,,0.0,,,48,1.0,0.0,1.184195,,,,,,fireworks_18s.jpg,loom_05s.jpg,,,,,,,,,,,,,0.0,5.0,5.0,5.0,1.0,,,,,
,,,,,,,,,,,,48,,,,,,,,,,,,,,,,clock_present_5_13.xlsx,clock_compare_task_5_13.xlsx,,,,,,,,,,,0.0,4.0,4.0,4.0,1.0
,0.0,,,,,,,boar_10s.jpg,0.0,clock_5_1.png,1.0,48,,,,,,,,,,,,,,,,,,0.0,0.0,0.0,0.0,1.0,,,,,,,,,,
0.0,1.0,1.765325,,,,,,rocking_horse_03s.jpg,0.0,clock_5_2.png,1.0,48,,,,,,,,,,,,,,,,,,0.0,1.0,1.0,1.0,1.0,,,,,,,,,,
0.0,1.0,0.33718,,,,,,playpen_11s.jpg,0.0,clock_5_3.png,1.0,48,,,,,,,,,,,,,,,,,,0.0,2.0,2.0,2.0,1.0,,,,,,,,,,
0.0,1.0,1.21736,,,,,,ivy_12s.jpg,0.0,clock_5_4.png,1.0,48,,,,,,,,,,,,,,,,,,0.0,3.0,3.0,3.0,1.0,,,,,,,,,,
,0.0,,,,,,,punch2_09s.jpg,0.0,clock_5_5.png,1.0,48,,,,,,,,,,,,,,,,,,0.0,4.0,4.0,4.0,1.0,,,,,,,,,,
,0.0,,,,,,,pencil_sharpener_09n.jpg,0.0,clock_7_1.png,2.0,48,,,,,,,,,,,,,,,,,,0.0,5.0,5.0,5.0,1.0,,,,,,,,,,
,0.0,,,,,,,prism_10s.jpg,0.0,clock_7_2.png,2.0,48,,,,,,,,,,,,,,,,,,0.0,6.0,6.0,6.0,1.0,,,,,,,,,,
0.0,1.0,1.25637,,,,,,bathtub_23s.jpg,0.0,clock_7_3.png,2.0,48,,,,,,,,,,,,,,,,,,0.0,7.0,7.0,7.0,1.0,,,,,,,,,,
0.0,1.0,2.031055,,,,,,potpourri_03s.jpg,0.0,clock_7_4.png,2.0,48,,,,,,,,,,,,,,,,,,0.0,8.0,8.0,8.0,1.0,,,,,,,,,,
0.0,1.0,0.541955,,,,,,rug_09s.jpg,0.0,clock_7_5.png,2.0,48,,,,,,,,,,,,,,,,,,0.0,9.0,9.0,9.0,1.0,,,,,,,,,,
1.0,1.0,0.68948,,,,,,rug_09s.jpg,1.0,clock_7_6.png,2.0,48,,,,,,,,,,,,,,,,,,0.0,10.0,10.0,10.0,1.0,,,,,,,,,,
0.0,1.0,0.901355,,,,,,leotard_08s.jpg,0.0,clock_7_7.png,2.0,48,,,,,,,,,,,,,,,,,,0.0,11.0,11.0,11.0,1.0,,,,,,,,,,
0.0,1.0,1.11281,,,,,,orangutan_03s.jpg,0.0,clock_7_1.png,3.0,48,,,,,,,,,,,,,,,,,,0.0,12.0,12.0,12.0,1.0,,,,,,,,,,
0.0,1.0,0.58194,,,,,,pencil_sharpener_09n.jpg,0.0,clock_7_2.png,3.0,48,,,,,,,,,,,,,,,,,,0.0,13.0,13.0,13.0,1.0,,,,,,,,,,
,0.0,,,,,,,limousine_12s.jpg,0.0,clock_7_3.png,3.0,48,,,,,,,,,,,,,,,,,,0.0,14.0,14.0,14.0,1.0,,,,,,,,,,
0.0,1.0,0.63368,,,,,,mirror_12s.jpg,0.0,clock_7_4.png,3.0,48,,,,,,,,,,,,,,,,,,0.0,15.0,15.0,15.0,1.0,,,,,,,,,,
0.0,0.0,0.430105,,,,,,orangutan_03s.jpg,1.0,clock_7_5.png,3.0,48,,,,,,,,,,,,,,,,,,0.0,16.0,16.0,16.0,1.0,,,,,,,,,,
0.0,1.0,0.40903,,,,,,thumbtack_14s.jpg,0.0,clock_7_6.png,3.0,48,,,,,,,,,,,,,,,,,,0.0,17.0,17.0,17.0,1.0,,,,,,,,,,
0.0,1.0,0.303125,,,,,,potpourri_03s.jpg,0.0,clock_7_7.png,3.0,48,,,,,,,,,,,,,,,,,,0.0,18.0,18.0,18.0,1.0,,,,,,,,,,
0.0,1.0,0.81218,,,,,,crossbow_10s.jpg,0.0,clock_6_1.png,4.0,48,,,,,,,,,,,,,,,,,,0.0,19.0,19.0,19.0,1.0,,,,,,,,,,
,0.0,,,,,,,mannequin_05s.jpg,0.0,clock_6_2.png,4.0,48,,,,,,,,,,,,,,,,,,0.0,20.0,20.0,20.0,1.0,,,,,,,,,,
0.0,1.0,1.684635,,,,,,sparkler_02s.jpg,0.0,clock_6_3.png,4.0,48,,,,,,,,,,,,,,,,,,0.0,21.0,21.0,21.0,1.0,,,,,,,,,,
0.0,1.0,1.224795,,,,,,soda_fountain_03s.jpg,0.0,clock_6_4.png,4.0,48,,,,,,,,,,,,,,,,,,0.0,22.0,22.0,22.0,1.0,,,,,,,,,,
0.0,1.0,1.041295,,,,,,spider_web_03s.jpg,0.0,clock_6_5.png,4.0,48,,,,,,,,,,,,,,,,,,0.0,23.0,23.0,23.0,1.0,,,,,,,,,,
0.0,1.0,1.62065,,,,,,printer_09s.jpg,0.0,clock_6_6.png,4.0,48,,,,,,,,,,,,,,,,,,0.0,24.0,24.0,24.0,1.0,,,,,,,,,,
,0.0,,,,,,,hyena_16s.jpg,0.0,clock_5_1.png,5.0,48,,,,,,,,,,,,,,,,,,0.0,25.0,25.0,25.0,1.0,,,,,,,,,,
0.0,1.0,1.535595,,,,,,mirror_12s.jpg,0.0,clock_5_2.png,5.0,48,,,,,,,,,,,,,,,,,,0.0,26.0,26.0,26.0,1.0,,,,,,,,,,
0.0,1.0,1.23992,,,,,,cap_05s.jpg,0.0,clock_5_3.png,5.0,48,,,,,,,,,,,,,,,,,,0.0,27.0,27.0,27.0,1.0,,,,,,,,,,
,0.0,,,,,,,briefcase_03s.jpg,0.0,clock_5_4.png,5.0,48,,,,,,,,,,,,,,,,,,0.0,28.0,28.0,28.0,1.0,,,,,,,,,,
0.0,0.0,1.793575,,,,,,briefcase_03s.jpg,1.0,clock_5_5.png,5.0,48,,,,,,,,,,,,,,,,,,0.0,29.0,29.0,29.0,1.0,,,,,,,,,,
0.0,1.0,2.159295,,,,,,solar_panel_02s.jpg,0.0,clock_6_1.png,6.0,48,,,,,,,,,,,,,,,,,,0.0,30.0,30.0,30.0,1.0,,,,,,,,,,
0.0,1.0,0.91227,,,,,,turtleneck_11s.jpg,0.0,clock_6_2.png,6.0,48,,,,,,,,,,,,,,,,,,0.0,31.0,31.0,31.0,1.0,,,,,,,,,,
0.0,1.0,1.128245,,,,,,cushion_08s.jpg,0.0,clock_6_3.png,6.0,48,,,,,,,,,,,,,,,,,,0.0,32.0,32.0,32.0,1.0,,,,,,,,,,
0.0,1.0,2.37392,,,,,,stethoscope_01b.jpg,0.0,clock_6_4.png,6.0,48,,,,,,,,,,,,,,,,,,0.0,33.0,33.0,33.0,1.0,,,,,,,,,,
,0.0,,,,,,,turtleneck_11s.jpg,1.0,clock_6_5.png,6.0,48,,,,,,,,,,,,,,,,,,0.0,34.0,34.0,34.0,1.0,,,,,,,,,,
1.0,0.0,0.61621,,,,,,gear_07s.jpg,0.0,clock_6_6.png,6.0,48,,,,,,,,,,,,,,,,,,0.0,35.0,35.0,35.0,1.0,,,,,,,,,,
,,,,,,,,,1.0,,,48,1.0,1.0,1.447645,,,,,,ivy_12s.jpg,prism_10s.jpg,,,,,,,,,,,,,0.0,0.0,0.0,0.0,1.0,,,,,
,,,,,,,,,0.0,,,48,1.0,0.0,0.52385,,,,,,bathtub_23s.jpg,punch2_09s.jpg,,,,,,,,,,,,,0.0,1.0,1.0,1.0,1.0,,,,,
,,,,,,,,,1.0,,,48,0.0,0.0,0.400565,,,,,,leotard_08s.jpg,limousine_12s.jpg,,,,,,,,,,,,,0.0,2.0,2.0,2.0,1.0,,,,,
,,,,,,,,,0.0,,,48,0.0,1.0,0.30184,,,,,,gear_07s.jpg,cushion_08s.jpg,,,,,,,,,,,,,0.0,3.0,3.0,3.0,1.0,,,,,
,,,,,,,,,1.0,,,48,0.0,0.0,0.68274,,,,,,crossbow_10s.jpg,soda_fountain_03s.jpg,,,,,,,,,,,,,0.0,4.0,4.0,4.0,1.0,,,,,
,,,,,,,,,1.0,,,48,1.0,1.0,0.85257,,,,,,mannequin_05s.jpg,spider_web_03s.jpg,,,,,,,,,,,,,0.0,5.0,5.0,5.0,1.0,,,,,
