key_resp.keys,key_resp.corr,key_resp.rt,present_segment.thisRepN,present_segment.thisTrialN,present_segment.thisN,present_segment.thisIndex,present_segment.ran,pictures,answer,clock,segment,participant,key_resp_2.keys,key_resp_2.corr,key_resp_2.rt,compare_segment.thisRepN,compare_segment.thisTrialN,compare_segment.thisN,compare_segment.thisIndex,compare_segment.ran,item_a,item_b,clock_conditions.thisRepN,clock_conditions.thisTrialN,clock_conditions.thisN,clock_conditions.thisIndex,clock_conditions.ran,present,compare,noclock_present.thisRepN,noclock_present.thisTrialN,noclock_present.thisN,noclock_present.thisIndex,noclock_present.ran,noclock_compare.thisRepN,noclock_compare.thisTrialN,noclock_compare.thisN,noclock_compare.thisIndex,noclock_compare.ran,noclock_conditions.thisRepN,noclock_conditions.thisTrialN,noclock_conditions.thisN,noclock_conditions.thisIndex,noclock_conditions.ran
0.0,1.0,1.175,0.0,0.0,0.0,0.0,1.0,rolling_pin_02s.jpg,0.0,clock_7_1.png,1.0,73,,,,,,,,,,,,,,,,,,,,,,,,,,,,,,,,
1.0,1.0,0.723,0.0,1.0,1.0,1.0,1.0,rolling_pin_02s.jpg,1.0,clock_7_2.png,1.0,73,,,,,,,,,,,,,,,,,,,,,,,,,,,,,,,,
0.0,1.0,0.431,0.0,2.0,2.0,2.0,1.0,roller_coaster_07s.jpg,0.0,clock_7_3.png,1.0,73,,,,,,,,,,,,,,,,,,,,,,,,,,,,,,,,
0.0,1.0,0.439,0.0,3.0,3.0,3.0,1.0,ice_pack_09s.jpg,0.0,clock_7_4.png,1.0,73,,,,,,,,,,,,,,,,,,,,,,,,,,,,,,,,
1.0,1.0,1.226,0.0,4.0,4.0,4.0,1.0,rolling_pin_02s.jpg,1.0,clock_7_5.png,1.0,73,,,,,,,,,,,,,,,,,,,,,,,,,,,,,,,,
1.0,1.0,0.75,0.0,5.0,5.0,5.0,1.0,roller_coaster_07s.jpg,1.0,clock_7_6.png,1.0,73,,,,,,,,,,,,,,,,,,,,,,,,,,,,,,,,
0.0,1.0,0.594,0.0,6.0,6.0,6.0,1.0,jalapeno_15s.jpg,0.0,clock_7_7.png,1.0,73,,,,,,,,,,,,,,,,,,,,,,,,,,,,,,,,
0.0,1.0,0.711,0.0,7.0,7.0,7.0,1.0,iron_13s.jpg,0.0,clock_6_1.png,2.0,73,,,,,,,,,,,,,,,,,,,,,,,,,,,,,,,,
0.0,1.0,0.613,0.0,8.0,8.0,8.0,1.0,joystick_01b.jpg,0.0,clock_6_2.png,2.0,73,,,,,,,,,,,,,,,,,,,,,,,,,,,,,,,,
0.0,1.0,0.481,0.0,9.0,9.0,9.0,1.0,tiara_05s.jpg,0.0,clock_6_3.png,2.0,73,,,,,,,,,,,,,,,,,,,,,,,,,,,,,,,,
0.0,1.0,0.602,0.0,10.0,10.0,10.0,1.0,tie_03s.jpg,0.0,clock_6_4.png,2.0,73,,,,,,,,,,,,,,,,,,,,,,,,,,,,,,,,
1.0,1.0,0.673,0.0,11.0,11.0,11.0,1.0,tiara_05s.jpg,1.0,clock_6_5.png,2.0,73,,,,,,,,,,,,,,,,,,,,,,,,,,,,,,,,
0.0,1.0,0.582,0.0,12.0,12.0,12.0,1.0,padlock_07s.jpg,0.0,clock_6_6.png,2.0,73,,,,,,,,,,,,,,,,,,,,,,,,,,,,,,,,
0.0,1.0,0.523,0.0,13.0,13.0,13.0,1.0,keyboard_05s.jpg,0.0,clock_5_1.png,3.0,73,,,,,,,,,,,,,,,,,,,,,,,,,,,,,,,,
0.0,1.0,0.257,0.0,14.0,14.0,14.0,1.0,lamb_chop_07s.jpg,0.0,clock_5_2.png,3.0,73,,,,,,,,,,,,,,,,,,,,,,,,,,,,,,,,
0.0,1.0,0.495,0.0,15.0,15.0,15.0,1.0,projector_08s.jpg,0.0,clock_5_3.png,3.0,73,,,,,,,,,,,,,,,,,,,,,,,,,,,,,,,,
0.0,1.0,0.463,0.0,16.0,16.0,16.0,1.0,soccer_ball_12s.jpg,0.0,clock_5_4.png,3.0,73,,,,,,,,,,,,,,,,,,,,,,,,,,,,,,,,
0.0,1.0,0.583,0.0,17.0,17.0,17.0,1.0,chocolate_01b.jpg,0.0,clock_5_5.png,3.0,73,,,,,,,,,,,,,,,,,,,,,,,,,,,,,,,,
0.0,1.0,0.665,0.0,18.0,18.0,18.0,1.0,sea_urchin_09s.jpg,0.0,clock_5_1.png,4.0,73,,,,,,,,,,,,,,,,,,,,,,,,,,,,,,,,
0.0,1.0,0.449,0.0,19.0,19.0,19.0,1.0,surfboard_11s.jpg,0.0,clock_5_2.png,4.0,73,,,,,,,,,,,,,,,,,,,,,,,,,,,,,,,,
0.0,1.0,0.532,0.0,20.0,20.0,20.0,1.0,ink_08s.jpg,0.0,clock_5_3.png,4.0,73,,,,,,,,,,,,,,,,,,,,,,,,,,,,,,,,
0.0,1.0,0.588,0.0,21.0,21.0,21.0,1.0,air_pump_05s.jpg,0.0,clock_5_4.png,4.0,73,,,,,,,,,,,,,,,,,,,,,,,,,,,,,,,,
0.0,1.0,0.827,0.0,22.0,22.0,22.0,1.0,stamp2_08s.jpg,0.0,clock_5_5.png,4.0,73,,,,,,,,,,,,,,,,,,,,,,,,,,,,,,,,
0.0,1.0,0.538,0.0,23.0,23.0,23.0,1.0,magnet_03s.jpg,0.0,clock_7_1.png,5.0,73,,,,,,,,,,,,,,,,,,,,,,,,,,,,,,,,
0.0,1.0,0.642,0.0,24.0,24.0,24.0,1.0,razor_12s.jpg,0.0,clock_7_2.png,5.0,73,,,,,,,,,,,,,,,,,,,,,,,,,,,,,,,,
0.0,1.0,0.628,0.0,25.0,25.0,25.0,1.0,trident_07s.jpg,0.0,clock_7_3.png,5.0,73,,,,,,,,,,,,,,,,,,,,,,,,,,,,,,,,
,0.0,,0.0,26.0,26.0,26.0,1.0,magnet_03s.jpg,1.0,clock_7_4.png,5.0,73,,,,,,,,,,,,,,,,,,,,,,,,,,,,,,,,
0.0,1.0,0.598,0.0,27.0,27.0,27.0,1.0,lamb_04s.jpg,0.0,clock_7_5.png,5.0,73,,,,,,,,,,,,,,,,,,,,,,,,,,,,,,,,
1.0,1.0,0.675,0.0,28.0,28.0,28.0,1.0,magnet_03s.jpg,1.0,clock_7_6.png,5.0,73,,,,,,,,,,,,,,,,,,,,,,,,,,,,,,,,
0.0,1.0,0.635,0.0,29.0,29.0,29.0,1.0,plug_08s.jpg,0.0,clock_7_7.png,5.0,73,,,,,,,,,,,,,,,,,,,,,,,,,,,,,,,,
0.0,1.0,0.648,0.0,30.0,30.0,30.0,1.0,ticktacktoe_08s.jpg,0.0,clock_6_1.png,6.0,73,,,,,,,,,,,,,,,,,,,,,,,,,,,,,,,,
0.0,1.0,0.596,0.0,31.0,31.0,31.0,1.0,treasure_08s.jpg,0.0,clock_6_2.png,6.0,73,,,,,,,,,,,,,,,,,,,,,,,,,,,,,,,,
0.0,1.0,0.881,0.0,32.0,32.0,32.0,1.0,tulip_02s.jpg,0.0,clock_6_3.png,6.0,73,,,,,,,,,,,,,,,,,,,,,,,,,,,,,,,,
0.0,1.0,0.922,0.0,33.0,33.0,33.0,1.0,telephone_pole_05s.jpg,0.0,clock_6_4.png,6.0,73,,,,,,,,,,,,,,,,,,,,,,,,,,,,,,,,
0.0,1.0,0.604,0.0,34.0,34.0,34.0,1.0,luggage_08s.jpg,0.0,clock_6_5.png,6.0,73,,,,,,,,,,,,,,,,,,,,,,,,,,,,,,,,
0.0,1.0,0.814,0.0,35.0,35.0,35.0,1.0,dirt_bike_11s.jpg,0.0,clock_6_6.png,6.0,73,,,,,,,,,,,,,,,,,,,,,,,,,,,,,,,,
,,,,,,,,,1.0,,,73,0.0,0.0,1.884,0.0,0.0,0.0,0.0,1.0,padlock_07s.jpg,projector_08s.jpg,,,,,,,,,,,,,,,,,,,,,,
,,,,,,,,,0.0,,,73,0.0,1.0,1.508,0.0,1.0,1.0,1.0,1.0,ink_08s.jpg,chocolate_01b.jpg,,,,,,,,,,,,,,,,,,,,,,
,,,,,,,,,0.0,,,73,1.0,0.0,1.134,0.0,2.0,2.0,2.0,1.0,trident_07s.jpg,stamp2_08s.jpg,,,,,,,,,,,,,,,,,,,,,,
,,,,,,,,,1.0,,,73,1.0,1.0,1.019,0.0,3.0,3.0,3.0,1.0,ice_pack_09s.jpg,jalapeno_15s.jpg,,,,,,,,,,,,,,,,,,,,,,
,,,,,,,,,1.0,,,73,1.0,1.0,1.033,0.0,4.0,4.0,4.0,1.0,treasure_08s.jpg,luggage_08s.jpg,,,,,,,,,,,,,,,,,,,,,,
,,,,,,,,,1.0,,,73,0.0,0.0,0.966,0.0,5.0,5.0,5.0,1.0,iron_13s.jpg,tie_03s.jpg,,,,,,,,,,,,,,,,,,,,,,
,,,,,,,,,,,,73,,,,,,,,,,,0.0,0.0,0.0,0.0,1.0,clock_present_1_13.xlsx,clock_compare_task_1_13.xlsx,,,,,,,,,,,,,,,
0.0,1.0,0.883,0.0,0.0,0.0,0.0,1.0,pocket_watch_16s.jpg,0.0,clock_6_1.png,1.0,73,,,,,,,,,,,,,,,,,,,,,,,,,,,,,,,,
0.0,1.0,0.495,0.0,1.0,1.0,1.0,1.0,throne_11s.jpg,0.0,clock_6_2.png,1.0,73,,,,,,,,,,,,,,,,,,,,,,,,,,,,,,,,
0.0,1.0,0.539,0.0,2.0,2.0,2.0,1.0,flask_04s.jpg,0.0,clock_6_3.png,1.0,73,,,,,,,,,,,,,,,,,,,,,,,,,,,,,,,,
0.0,1.0,0.624,0.0,3.0,3.0,3.0,1.0,funnel_01b.jpg,0.0,clock_6_4.png,1.0,73,,,,,,,,,,,,,,,,,,,,,,,,,,,,,,,,
0.0,1.0,0.659,0.0,4.0,4.0,4.0,1.0,lid_10s.jpg,0.0,clock_6_5.png,1.0,73,,,,,,,,,,,,,,,,,,,,,,,,,,,,,,,,
0.0,1.0,0.589,0.0,5.0,5.0,5.0,1.0,polaroid_05s.jpg,0.0,clock_6_6.png,1.0,73,,,,,,,,,,,,,,,,,,,,,,,,,,,,,,,,
0.0,1.0,0.877,0.0,6.0,6.0,6.0,1.0,inhaler_01b.jpg,0.0,clock_7_1.png,2.0,73,,,,,,,,,,,,,,,,,,,,,,,,,,,,,,,,
1.0,1.0,0.598,0.0,7.0,7.0,7.0,1.0,inhaler_01b.jpg,1.0,clock_7_2.png,2.0,73,,,,,,,,,,,,,,,,,,,,,,,,,,,,,,,,
0.0,1.0,0.387,0.0,8.0,8.0,8.0,1.0,jewel_01b.jpg,0.0,clock_7_3.png,2.0,73,,,,,,,,,,,,,,,,,,,,,,,,,,,,,,,,
0.0,1.0,0.596,0.0,9.0,9.0,9.0,1.0,pea_11s.jpg,0.0,clock_7_4.png,2.0,73,,,,,,,,,,,,,,,,,,,,,,,,,,,,,,,,
0.0,1.0,0.528,0.0,10.0,10.0,10.0,1.0,frog_09s.jpg,0.0,clock_7_5.png,2.0,73,,,,,,,,,,,,,,,,,,,,,,,,,,,,,,,,
1.0,1.0,0.954,0.0,11.0,11.0,11.0,1.0,inhaler_01b.jpg,1.0,clock_7_6.png,2.0,73,,,,,,,,,,,,,,,,,,,,,,,,,,,,,,,,
0.0,1.0,0.541,0.0,12.0,12.0,12.0,1.0,purse_05s.jpg,0.0,clock_7_7.png,2.0,73,,,,,,,,,,,,,,,,,,,,,,,,,,,,,,,,
0.0,1.0,0.719,0.0,13.0,13.0,13.0,1.0,hydrant_10s.jpg,0.0,clock_7_1.png,3.0,73,,,,,,,,,,,,,,,,,,,,,,,,,,,,,,,,
0.0,1.0,0.519,0.0,14.0,14.0,14.0,1.0,film_03s.jpg,0.0,clock_7_2.png,3.0,73,,,,,,,,,,,,,,,,,,,,,,,,,,,,,,,,
0.0,1.0,0.502,0.0,15.0,15.0,15.0,1.0,quilt_03s.jpg,0.0,clock_7_3.png,3.0,73,,,,,,,,,,,,,,,,,,,,,,,,,,,,,,,,
0.0,1.0,0.604,0.0,16.0,16.0,16.0,1.0,popsicle_02s.jpg,0.0,clock_7_4.png,3.0,73,,,,,,,,,,,,,,,,,,,,,,,,,,,,,,,,
0.0,1.0,1.222,0.0,17.0,17.0,17.0,1.0,fox_13s.jpg,0.0,clock_7_5.png,3.0,73,,,,,,,,,,,,,,,,,,,,,,,,,,,,,,,,
0.0,1.0,0.626,0.0,18.0,18.0,18.0,1.0,orchid_01b.jpg,0.0,clock_7_6.png,3.0,73,,,,,,,,,,,,,,,,,,,,,,,,,,,,,,,,
0.0,1.0,0.658,0.0,19.0,19.0,19.0,1.0,marshmallow_08s.jpg,0.0,clock_7_7.png,3.0,73,,,,,,,,,,,,,,,,,,,,,,,,,,,,,,,,
0.0,1.0,0.897,0.0,20.0,20.0,20.0,1.0,taxi_15s.jpg,0.0,clock_5_1.png,4.0,73,,,,,,,,,,,,,,,,,,,,,,,,,,,,,,,,
0.0,1.0,0.542,0.0,21.0,21.0,21.0,1.0,fork_04s.jpg,0.0,clock_5_2.png,4.0,73,,,,,,,,,,,,,,,,,,,,,,,,,,,,,,,,
0.0,1.0,0.525,0.0,22.0,22.0,22.0,1.0,puppet_01b.jpg,0.0,clock_5_3.png,4.0,73,,,,,,,,,,,,,,,,,,,,,,,,,,,,,,,,
0.0,1.0,0.578,0.0,23.0,23.0,23.0,1.0,megaphone_03s.jpg,0.0,clock_5_4.png,4.0,73,,,,,,,,,,,,,,,,,,,,,,,,,,,,,,,,
1.0,1.0,0.619,0.0,24.0,24.0,24.0,1.0,megaphone_03s.jpg,1.0,clock_5_5.png,4.0,73,,,,,,,,,,,,,,,,,,,,,,,,,,,,,,,,
0.0,1.0,0.881,0.0,25.0,25.0,25.0,1.0,cotton_candy_01b.jpg,0.0,clock_5_1.png,5.0,73,,,,,,,,,,,,,,,,,,,,,,,,,,,,,,,,
0.0,1.0,0.87,0.0,26.0,26.0,26.0,1.0,puppy_08s.jpg,0.0,clock_5_2.png,5.0,73,,,,,,,,,,,,,,,,,,,,,,,,,,,,,,,,
0.0,1.0,0.587,0.0,27.0,27.0,27.0,1.0,glasses01a.jpg,0.0,clock_5_3.png,5.0,73,,,,,,,,,,,,,,,,,,,,,,,,,,,,,,,,
0.0,0.0,0.644,0.0,28.0,28.0,28.0,1.0,glasses01a.jpg,1.0,clock_5_4.png,5.0,73,,,,,,,,,,,,,,,,,,,,,,,,,,,,,,,,
0.0,1.0,1.1,0.0,29.0,29.0,29.0,1.0,typewriter_11s.jpg,0.0,clock_5_5.png,5.0,73,,,,,,,,,,,,,,,,,,,,,,,,,,,,,,,,
0.0,1.0,0.687,0.0,30.0,30.0,30.0,1.0,fur_coat_11s.jpg,0.0,clock_6_1.png,6.0,73,,,,,,,,,,,,,,,,,,,,,,,,,,,,,,,,
0.0,1.0,0.642,0.0,31.0,31.0,31.0,1.0,rudder_02s.jpg,0.0,clock_6_2.png,6.0,73,,,,,,,,,,,,,,,,,,,,,,,,,,,,,,,,
0.0,1.0,0.475,0.0,32.0,32.0,32.0,1.0,chip_04s.jpg,0.0,clock_6_3.png,6.0,73,,,,,,,,,,,,,,,,,,,,,,,,,,,,,,,,
0.0,1.0,0.548,0.0,33.0,33.0,33.0,1.0,thread_08s.jpg,0.0,clock_6_4.png,6.0,73,,,,,,,,,,,,,,,,,,,,,,,,,,,,,,,,
0.0,1.0,0.439,0.0,34.0,34.0,34.0,1.0,quilt_03s.jpg,0.0,clock_6_5.png,6.0,73,,,,,,,,,,,,,,,,,,,,,,,,,,,,,,,,
0.0,1.0,0.643,0.0,35.0,35.0,35.0,1.0,polar_bear_02s.jpg,0.0,clock_6_6.png,6.0,73,,,,,,,,,,,,,,,,,,,,,,,,,,,,,,,,
,,,,,,,,,0.0,,,73,1.0,0.0,1.299,0.0,0.0,0.0,0.0,1.0,fork_04s.jpg,orchid_01b.jpg,,,,,,,,,,,,,,,,,,,,,,
,,,,,,,,,0.0,,,73,0.0,1.0,1.256,0.0,1.0,1.0,1.0,1.0,cotton_candy_01b.jpg,puppet_01b.jpg,,,,,,,,,,,,,,,,,,,,,,
,,,,,,,,,1.0,,,73,0.0,0.0,0.959,0.0,2.0,2.0,2.0,1.0,polaroid_05s.jpg,jewel_01b.jpg,,,,,,,,,,,,,,,,,,,,,,
,,,,,,,,,1.0,,,73,0.0,0.0,1.064,0.0,3.0,3.0,3.0,1.0,pocket_watch_16s.jpg,funnel_01b.jpg,,,,,,,,,,,,,,,,,,,,,,
,,,,,,,,,0.0,,,73,0.0,1.0,1.189,0.0,4.0,4.0,4.0,1.0,lid_10s.jpg,throne_11s.jpg,,,,,,,,,,,,,,,,,,,,,,
,,,,,,,,,1.0,,,73,1.0,1.0,0.892,0.0,5.0,5.0,5.0,1.0,pea_11s.jpg,purse_05s.jpg,,,,,,,,,,,,,,,,,,,,,,
,,,,,,,,,,,,73,,,,,,,,,,,0.0,1.0,1.0,1.0,1.0,clock_present_2_13.xlsx,clock_compare_task_2_13.xlsx,,,,,,,,,,,,,,,
0.0,1.0,1.21,0.0,0.0,0.0,0.0,1.0,trumpet_06s.jpg,0.0,clock_6_1.png,1.0,73,,,,,,,,,,,,,,,,,,,,,,,,,,,,,,,,
0.0,1.0,0.439,0.0,1.0,1.0,1.0,1.0,pantyhose_07s.jpg,0.0,clock_6_2.png,1.0,73,,,,,,,,,,,,,,,,,,,,,,,,,,,,,,,,
0.0,1.0,0.476,0.0,2.0,2.0,2.0,1.0,latte_06s.jpg,0.0,clock_6_3.png,1.0,73,,,,,,,,,,,,,,,,,,,,,,,,,,,,,,,,
1.0,1.0,0.711,0.0,3.0,3.0,3.0,1.0,trumpet_06s.jpg,1.0,clock_6_4.png,1.0,73,,,,,,,,,,,,,,,,,,,,,,,,,,,,,,,,
0.0,1.0,0.518,0.0,4.0,4.0,4.0,1.0,jetski_10s.jpg,0.0,clock_6_5.png,1.0,73,,,,,,,,,,,,,,,,,,,,,,,,,,,,,,,,
0.0,1.0,0.541,0.0,5.0,5.0,5.0,1.0,toy_04s.jpg,0.0,clock_6_6.png,1.0,73,,,,,,,,,,,,,,,,,,,,,,,,,,,,,,,,
0.0,1.0,1.032,0.0,6.0,6.0,6.0,1.0,espresso_01b.jpg,0.0,clock_5_1.png,2.0,73,,,,,,,,,,,,,,,,,,,,,,,,,,,,,,,,
0.0,1.0,0.778,0.0,7.0,7.0,7.0,1.0,tambourine_06s.jpg,0.0,clock_5_2.png,2.0,73,,,,,,,,,,,,,,,,,,,,,,,,,,,,,,,,
0.0,1.0,0.752,0.0,8.0,8.0,8.0,1.0,comic_book_02s.jpg,0.0,clock_5_3.png,2.0,73,,,,,,,,,,,,,,,,,,,,,,,,,,,,,,,,
0.0,1.0,0.707,0.0,9.0,9.0,9.0,1.0,snowman_02s.jpg,0.0,clock_5_4.png,2.0,73,,,,,,,,,,,,,,,,,,,,,,,,,,,,,,,,
1.0,1.0,0.748,0.0,10.0,10.0,10.0,1.0,espresso_01b.jpg,1.0,clock_5_5.png,2.0,73,,,,,,,,,,,,,,,,,,,,,,,,,,,,,,,,
0.0,1.0,0.607,0.0,11.0,11.0,11.0,1.0,blowfish_03s.jpg,0.0,clock_7_1.png,3.0,73,,,,,,,,,,,,,,,,,,,,,,,,,,,,,,,,
1.0,1.0,0.657,0.0,12.0,12.0,12.0,1.0,blowfish_03s.jpg,1.0,clock_7_2.png,3.0,73,,,,,,,,,,,,,,,,,,,,,,,,,,,,,,,,
1.0,1.0,0.64,0.0,13.0,13.0,13.0,1.0,blowfish_03s.jpg,1.0,clock_7_3.png,3.0,73,,,,,,,,,,,,,,,,,,,,,,,,,,,,,,,,
1.0,1.0,0.682,0.0,14.0,14.0,14.0,1.0,blowfish_03s.jpg,1.0,clock_7_4.png,3.0,73,,,,,,,,,,,,,,,,,,,,,,,,,,,,,,,,
0.0,1.0,0.743,0.0,15.0,15.0,15.0,1.0,beard_16s.jpg,0.0,clock_7_5.png,3.0,73,,,,,,,,,,,,,,,,,,,,,,,,,,,,,,,,
0.0,1.0,0.709,0.0,16.0,16.0,16.0,1.0,police_car_01s.jpg,0.0,clock_7_6.png,3.0,73,,,,,,,,,,,,,,,,,,,,,,,,,,,,,,,,
0.0,1.0,0.837,0.0,17.0,17.0,17.0,1.0,comic_book_02s.jpg,0.0,clock_7_7.png,3.0,73,,,,,,,,,,,,,,,,,,,,,,,,,,,,,,,,
0.0,1.0,0.679,0.0,18.0,18.0,18.0,1.0,gazelle_10s.jpg,0.0,clock_7_1.png,4.0,73,,,,,,,,,,,,,,,,,,,,,,,,,,,,,,,,
0.0,1.0,0.461,0.0,19.0,19.0,19.0,1.0,chalice_10s.jpg,0.0,clock_7_2.png,4.0,73,,,,,,,,,,,,,,,,,,,,,,,,,,,,,,,,
0.0,1.0,0.575,0.0,20.0,20.0,20.0,1.0,foam_03s.jpg,0.0,clock_7_3.png,4.0,73,,,,,,,,,,,,,,,,,,,,,,,,,,,,,,,,
0.0,1.0,0.56,0.0,21.0,21.0,21.0,1.0,jersey_02s.jpg,0.0,clock_7_4.png,4.0,73,,,,,,,,,,,,,,,,,,,,,,,,,,,,,,,,
1.0,1.0,0.935,0.0,22.0,22.0,22.0,1.0,foam_03s.jpg,1.0,clock_7_5.png,4.0,73,,,,,,,,,,,,,,,,,,,,,,,,,,,,,,,,
0.0,1.0,0.743,0.0,23.0,23.0,23.0,1.0,contact_lens_15s.jpg,0.0,clock_7_6.png,4.0,73,,,,,,,,,,,,,,,,,,,,,,,,,,,,,,,,
1.0,1.0,0.808,0.0,24.0,24.0,24.0,1.0,contact_lens_15s.jpg,1.0,clock_7_7.png,4.0,73,,,,,,,,,,,,,,,,,,,,,,,,,,,,,,,,
0.0,1.0,0.881,0.0,25.0,25.0,25.0,1.0,pacifier_09s.jpg,0.0,clock_6_1.png,5.0,73,,,,,,,,,,,,,,,,,,,,,,,,,,,,,,,,
0.0,1.0,0.681,0.0,26.0,26.0,26.0,1.0,onion_10s.jpg,0.0,clock_6_2.png,5.0,73,,,,,,,,,,,,,,,,,,,,,,,,,,,,,,,,
0.0,1.0,0.525,0.0,27.0,27.0,27.0,1.0,knot_01b.jpg,0.0,clock_6_3.png,5.0,73,,,,,,,,,,,,,,,,,,,,,,,,,,,,,,,,
0.0,1.0,0.699,0.0,28.0,28.0,28.0,1.0,cucumber_07s.jpg,0.0,clock_6_4.png,5.0,73,,,,,,,,,,,,,,,,,,,,,,,,,,,,,,,,
0.0,1.0,0.648,0.0,29.0,29.0,29.0,1.0,pump_11s.jpg,0.0,clock_6_5.png,5.0,73,,,,,,,,,,,,,,,,,,,,,,,,,,,,,,,,
0.0,1.0,0.761,0.0,30.0,30.0,30.0,1.0,stingray_02s.jpg,0.0,clock_6_6.png,5.0,73,,,,,,,,,,,,,,,,,,,,,,,,,,,,,,,,
0.0,1.0,0.794,0.0,31.0,31.0,31.0,1.0,spacesuit_02s.jpg,0.0,clock_5_1.png,6.0,73,,,,,,,,,,,,,,,,,,,,,,,,,,,,,,,,
0.0,1.0,1.179,0.0,32.0,32.0,32.0,1.0,contact_lens_15s.jpg,0.0,clock_5_2.png,6.0,73,,,,,,,,,,,,,,,,,,,,,,,,,,,,,,,,
0.0,1.0,0.754,0.0,33.0,33.0,33.0,1.0,paper_towel_03s.jpg,0.0,clock_5_3.png,6.0,73,,,,,,,,,,,,,,,,,,,,,,,,,,,,,,,,
1.0,1.0,1.395,0.0,34.0,34.0,34.0,1.0,paper_towel_03s.jpg,1.0,clock_5_4.png,6.0,73,,,,,,,,,,,,,,,,,,,,,,,,,,,,,,,,
1.0,1.0,0.968,0.0,35.0,35.0,35.0,1.0,spacesuit_02s.jpg,1.0,clock_5_5.png,6.0,73,,,,,,,,,,,,,,,,,,,,,,,,,,,,,,,,
,,,,,,,,,1.0,,,73,1.0,1.0,1.485,0.0,0.0,0.0,0.0,1.0,police_car_01s.jpg,chalice_10s.jpg,,,,,,,,,,,,,,,,,,,,,,
,,,,,,,,,1.0,,,73,0.0,0.0,0.965,0.0,1.0,1.0,1.0,1.0,jetski_10s.jpg,tambourine_06s.jpg,,,,,,,,,,,,,,,,,,,,,,
,,,,,,,,,0.0,,,73,1.0,0.0,1.391,0.0,2.0,2.0,2.0,1.0,gazelle_10s.jpg,beard_16s.jpg,,,,,,,,,,,,,,,,,,,,,,
,,,,,,,,,1.0,,,73,1.0,1.0,1.077,0.0,3.0,3.0,3.0,1.0,latte_06s.jpg,toy_04s.jpg,,,,,,,,,,,,,,,,,,,,,,
,,,,,,,,,1.0,,,73,1.0,1.0,1.2,0.0,4.0,4.0,4.0,1.0,pacifier_09s.jpg,cucumber_07s.jpg,,,,,,,,,,,,,,,,,,,,,,
,,,,,,,,,1.0,,,73,1.0,1.0,1.416,0.0,5.0,5.0,5.0,1.0,onion_10s.jpg,pump_11s.jpg,,,,,,,,,,,,,,,,,,,,,,
,,,,,,,,,,,,73,,,,,,,,,,,0.0,2.0,2.0,2.0,1.0,clock_present_3_13.xlsx,clock_compare_task_3_13.xlsx,,,,,,,,,,,,,,,
0.0,1.0,1.377,0.0,0.0,0.0,0.0,1.0,lipstick_02s.jpg,0.0,clock_7_1.png,1.0,73,,,,,,,,,,,,,,,,,,,,,,,,,,,,,,,,
0.0,1.0,0.65,0.0,1.0,1.0,1.0,1.0,kettle_08s.jpg,0.0,clock_7_2.png,1.0,73,,,,,,,,,,,,,,,,,,,,,,,,,,,,,,,,
1.0,1.0,0.704,0.0,2.0,2.0,2.0,1.0,lipstick_02s.jpg,1.0,clock_7_3.png,1.0,73,,,,,,,,,,,,,,,,,,,,,,,,,,,,,,,,
1.0,1.0,1.033,0.0,3.0,3.0,3.0,1.0,lipstick_02s.jpg,1.0,clock_7_4.png,1.0,73,,,,,,,,,,,,,,,,,,,,,,,,,,,,,,,,
0.0,1.0,1.015,0.0,4.0,4.0,4.0,1.0,pomegranate_04s.jpg,0.0,clock_7_5.png,1.0,73,,,,,,,,,,,,,,,,,,,,,,,,,,,,,,,,
0.0,1.0,0.654,0.0,5.0,5.0,5.0,1.0,pencil02a.jpg,0.0,clock_7_6.png,1.0,73,,,,,,,,,,,,,,,,,,,,,,,,,,,,,,,,
0.0,1.0,0.946,0.0,6.0,6.0,6.0,1.0,lollipop_08s.jpg,0.0,clock_7_7.png,1.0,73,,,,,,,,,,,,,,,,,,,,,,,,,,,,,,,,
0.0,1.0,0.733,0.0,7.0,7.0,7.0,1.0,road_sign_05s.jpg,0.0,clock_6_1.png,2.0,73,,,,,,,,,,,,,,,,,,,,,,,,,,,,,,,,
1.0,1.0,0.727,0.0,8.0,8.0,8.0,1.0,road_sign_05s.jpg,1.0,clock_6_2.png,2.0,73,,,,,,,,,,,,,,,,,,,,,,,,,,,,,,,,
0.0,1.0,0.526,0.0,9.0,9.0,9.0,1.0,leash_10s.jpg,0.0,clock_6_3.png,2.0,73,,,,,,,,,,,,,,,,,,,,,,,,,,,,,,,,
0.0,1.0,0.711,0.0,10.0,10.0,10.0,1.0,licorice_06s.jpg,0.0,clock_6_4.png,2.0,73,,,,,,,,,,,,,,,,,,,,,,,,,,,,,,,,
0.0,1.0,0.549,0.0,11.0,11.0,11.0,1.0,mixer_12s.jpg,0.0,clock_6_5.png,2.0,73,,,,,,,,,,,,,,,,,,,,,,,,,,,,,,,,
0.0,1.0,2.114,0.0,12.0,12.0,12.0,1.0,lipstick_02s.jpg,0.0,clock_6_6.png,2.0,73,,,,,,,,,,,,,,,,,,,,,,,,,,,,,,,,
0.0,1.0,1.212,0.0,13.0,13.0,13.0,1.0,rocking_chair_05s.jpg,0.0,clock_6_1.png,3.0,73,,,,,,,,,,,,,,,,,,,,,,,,,,,,,,,,
0.0,1.0,1.207,0.0,14.0,14.0,14.0,1.0,syringe_02s.jpg,0.0,clock_6_2.png,3.0,73,,,,,,,,,,,,,,,,,,,,,,,,,,,,,,,,
0.0,1.0,1.08,0.0,15.0,15.0,15.0,1.0,golf_club_03s.jpg,0.0,clock_6_3.png,3.0,73,,,,,,,,,,,,,,,,,,,,,,,,,,,,,,,,
,0.0,,0.0,16.0,16.0,16.0,1.0,potholder_02s.jpg,0.0,clock_6_4.png,3.0,73,,,,,,,,,,,,,,,,,,,,,,,,,,,,,,,,
0.0,1.0,0.65,0.0,17.0,17.0,17.0,1.0,pencil02a.jpg,0.0,clock_6_5.png,3.0,73,,,,,,,,,,,,,,,,,,,,,,,,,,,,,,,,
0.0,1.0,0.808,0.0,18.0,18.0,18.0,1.0,fire_pit_10s.jpg,0.0,clock_6_6.png,3.0,73,,,,,,,,,,,,,,,,,,,,,,,,,,,,,,,,
0.0,1.0,0.599,0.0,19.0,19.0,19.0,1.0,tinsel_12s.jpg,0.0,clock_5_1.png,4.0,73,,,,,,,,,,,,,,,,,,,,,,,,,,,,,,,,
0.0,1.0,0.742,0.0,20.0,20.0,20.0,1.0,sledgehammer_03s.jpg,0.0,clock_5_2.png,4.0,73,,,,,,,,,,,,,,,,,,,,,,,,,,,,,,,,
0.0,1.0,0.71,0.0,21.0,21.0,21.0,1.0,pomegranate_04s.jpg,0.0,clock_5_3.png,4.0,73,,,,,,,,,,,,,,,,,,,,,,,,,,,,,,,,
0.0,1.0,0.626,0.0,22.0,22.0,22.0,1.0,tattoo_14s.jpg,0.0,clock_5_4.png,4.0,73,,,,,,,,,,,,,,,,,,,,,,,,,,,,,,,,
0.0,1.0,0.555,0.0,23.0,23.0,23.0,1.0,turkey_10s.jpg,0.0,clock_5_5.png,4.0,73,,,,,,,,,,,,,,,,,,,,,,,,,,,,,,,,
0.0,1.0,0.388,0.0,24.0,24.0,24.0,1.0,eyedropper_12s.jpg,0.0,clock_5_1.png,5.0,73,,,,,,,,,,,,,,,,,,,,,,,,,,,,,,,,
0.0,1.0,0.746,0.0,25.0,25.0,25.0,1.0,fondue_07s.jpg,0.0,clock_5_2.png,5.0,73,,,,,,,,,,,,,,,,,,,,,,,,,,,,,,,,
0.0,1.0,0.653,0.0,26.0,26.0,26.0,1.0,fire_alarm_05s.jpg,0.0,clock_5_3.png,5.0,73,,,,,,,,,,,,,,,,,,,,,,,,,,,,,,,,
1.0,1.0,1.576,0.0,27.0,27.0,27.0,1.0,eyedropper_12s.jpg,1.0,clock_5_4.png,5.0,73,,,,,,,,,,,,,,,,,,,,,,,,,,,,,,,,
1.0,1.0,0.913,0.0,28.0,28.0,28.0,1.0,eyedropper_12s.jpg,1.0,clock_5_5.png,5.0,73,,,,,,,,,,,,,,,,,,,,,,,,,,,,,,,,
0.0,1.0,0.738,0.0,29.0,29.0,29.0,1.0,badge_03s.jpg,0.0,clock_7_1.png,6.0,73,,,,,,,,,,,,,,,,,,,,,,,,,,,,,,,,
0.0,1.0,0.63,0.0,30.0,30.0,30.0,1.0,lion_18s.jpg,0.0,clock_7_2.png,6.0,73,,,,,,,,,,,,,,,,,,,,,,,,,,,,,,,,
0.0,1.0,0.479,0.0,31.0,31.0,31.0,1.0,lasagna_06s.jpg,0.0,clock_7_3.png,6.0,73,,,,,,,,,,,,,,,,,,,,,,,,,,,,,,,,
0.0,1.0,0.706,0.0,32.0,32.0,32.0,1.0,turf_03s.jpg,0.0,clock_7_4.png,6.0,73,,,,,,,,,,,,,,,,,,,,,,,,,,,,,,,,
0.0,1.0,0.536,0.0,33.0,33.0,33.0,1.0,kitten_07s.jpg,0.0,clock_7_5.png,6.0,73,,,,,,,,,,,,,,,,,,,,,,,,,,,,,,,,
1.0,1.0,1.217,0.0,34.0,34.0,34.0,1.0,badge_03s.jpg,1.0,clock_7_6.png,6.0,73,,,,,,,,,,,,,,,,,,,,,,,,,,,,,,,,
0.0,1.0,0.945,0.0,35.0,35.0,35.0,1.0,tinsel_12s.jpg,0.0,clock_7_7.png,6.0,73,,,,,,,,,,,,,,,,,,,,,,,,,,,,,,,,
,,,,,,,,,1.0,,,73,0.0,0.0,1.441,0.0,0.0,0.0,0.0,1.0,lollipop_08s.jpg,leash_10s.jpg,,,,,,,,,,,,,,,,,,,,,,
,,,,,,,,,1.0,,,73,0.0,0.0,1.558,0.0,1.0,1.0,1.0,1.0,mixer_12s.jpg,syringe_02s.jpg,,,,,,,,,,,,,,,,,,,,,,
,,,,,,,,,1.0,,,73,1.0,1.0,2.001,0.0,2.0,2.0,2.0,1.0,tattoo_14s.jpg,fondue_07s.jpg,,,,,,,,,,,,,,,,,,,,,,
,,,,,,,,,1.0,,,73,0.0,0.0,1.232,0.0,3.0,3.0,3.0,1.0,golf_club_03s.jpg,fire_pit_10s.jpg,,,,,,,,,,,,,,,,,,,,,,
,,,,,,,,,0.0,,,73,0.0,1.0,1.304,0.0,4.0,4.0,4.0,1.0,kitten_07s.jpg,lion_18s.jpg,,,,,,,,,,,,,,,,,,,,,,
,,,,,,,,,0.0,,,73,1.0,0.0,1.236,0.0,5.0,5.0,5.0,1.0,potholder_02s.jpg,rocking_chair_05s.jpg,,,,,,,,,,,,,,,,,,,,,,
,,,,,,,,,,,,73,,,,,,,,,,,0.0,3.0,3.0,3.0,1.0,clock_present_4_13.xlsx,clock_compare_task_4_13.xlsx,,,,,,,,,,,,,,,
0.0,1.0,1.184,0.0,0.0,0.0,0.0,1.0,insole_11s.jpg,0.0,clock_7_1.png,1.0,73,,,,,,,,,,,,,,,,,,,,,,,,,,,,,,,,
0.0,1.0,0.797,0.0,1.0,1.0,1.0,1.0,aluminum_foil_08s.jpg,0.0,clock_7_2.png,1.0,73,,,,,,,,,,,,,,,,,,,,,,,,,,,,,,,,
1.0,1.0,0.696,0.0,2.0,2.0,2.0,1.0,aluminum_foil_08s.jpg,1.0,clock_7_3.png,1.0,73,,,,,,,,,,,,,,,,,,,,,,,,,,,,,,,,
1.0,1.0,1.224,0.0,3.0,3.0,3.0,1.0,insole_11s.jpg,1.0,clock_7_4.png,1.0,73,,,,,,,,,,,,,,,,,,,,,,,,,,,,,,,,
0.0,1.0,1.134,0.0,4.0,4.0,4.0,1.0,feather02.jpg,0.0,clock_7_5.png,1.0,73,,,,,,,,,,,,,,,,,,,,,,,,,,,,,,,,
1.0,1.0,1.201,0.0,5.0,5.0,5.0,1.0,aluminum_foil_08s.jpg,1.0,clock_7_6.png,1.0,73,,,,,,,,,,,,,,,,,,,,,,,,,,,,,,,,
0.0,1.0,0.986,0.0,6.0,6.0,6.0,1.0,panda_02s.jpg,0.0,clock_7_7.png,1.0,73,,,,,,,,,,,,,,,,,,,,,,,,,,,,,,,,
0.0,1.0,0.947,0.0,7.0,7.0,7.0,1.0,orange_12s.jpg,0.0,clock_7_1.png,2.0,73,,,,,,,,,,,,,,,,,,,,,,,,,,,,,,,,
1.0,1.0,1.349,0.0,8.0,8.0,8.0,1.0,orange_12s.jpg,1.0,clock_7_2.png,2.0,73,,,,,,,,,,,,,,,,,,,,,,,,,,,,,,,,
0.0,1.0,1.143,0.0,9.0,9.0,9.0,1.0,loom_05s.jpg,0.0,clock_7_3.png,2.0,73,,,,,,,,,,,,,,,,,,,,,,,,,,,,,,,,
0.0,1.0,0.925,0.0,10.0,10.0,10.0,1.0,knitting_needle_04s.jpg,0.0,clock_7_4.png,2.0,73,,,,,,,,,,,,,,,,,,,,,,,,,,,,,,,,
1.0,1.0,1.172,0.0,11.0,11.0,11.0,1.0,knitting_needle_04s.jpg,1.0,clock_7_5.png,2.0,73,,,,,,,,,,,,,,,,,,,,,,,,,,,,,,,,
0.0,1.0,1.187,0.0,12.0,12.0,12.0,1.0,fireworks_18s.jpg,0.0,clock_7_6.png,2.0,73,,,,,,,,,,,,,,,,,,,,,,,,,,,,,,,,
0.0,1.0,0.485,0.0,13.0,13.0,13.0,1.0,panda_02s.jpg,0.0,clock_7_7.png,2.0,73,,,,,,,,,,,,,,,,,,,,,,,,,,,,,,,,
0.0,1.0,0.841,0.0,14.0,14.0,14.0,1.0,bacon_05s.jpg,0.0,clock_5_1.png,3.0,73,,,,,,,,,,,,,,,,,,,,,,,,,,,,,,,,
0.0,1.0,0.96,0.0,15.0,15.0,15.0,1.0,margarita_03s.jpg,0.0,clock_5_2.png,3.0,73,,,,,,,,,,,,,,,,,,,,,,,,,,,,,,,,
0.0,1.0,0.873,0.0,16.0,16.0,16.0,1.0,tiger_06s.jpg,0.0,clock_5_3.png,3.0,73,,,,,,,,,,,,,,,,,,,,,,,,,,,,,,,,
0.0,1.0,0.903,0.0,17.0,17.0,17.0,1.0,outlet_10s.jpg,0.0,clock_5_4.png,3.0,73,,,,,,,,,,,,,,,,,,,,,,,,,,,,,,,,
0.0,1.0,0.894,0.0,18.0,18.0,18.0,1.0,saddle_06s.jpg,0.0,clock_5_5.png,3.0,73,,,,,,,,,,,,,,,,,,,,,,,,,,,,,,,,
0.0,1.0,1.174,0.0,19.0,19.0,19.0,1.0,moth_06n.jpg,0.0,clock_5_1.png,4.0,73,,,,,,,,,,,,,,,,,,,,,,,,,,,,,,,,
1.0,1.0,1.426,0.0,20.0,20.0,20.0,1.0,moth_06n.jpg,1.0,clock_5_2.png,4.0,73,,,,,,,,,,,,,,,,,,,,,,,,,,,,,,,,
0.0,1.0,0.979,0.0,21.0,21.0,21.0,1.0,cardinal_07s.jpg,0.0,clock_5_3.png,4.0,73,,,,,,,,,,,,,,,,,,,,,,,,,,,,,,,,
0.0,1.0,0.58,0.0,22.0,22.0,22.0,1.0,stapler_01b.jpg,0.0,clock_5_4.png,4.0,73,,,,,,,,,,,,,,,,,,,,,,,,,,,,,,,,
0.0,1.0,0.68,0.0,23.0,23.0,23.0,1.0,mitten_10s.jpg,0.0,clock_5_5.png,4.0,73,,,,,,,,,,,,,,,,,,,,,,,,,,,,,,,,
0.0,1.0,0.619,0.0,24.0,24.0,24.0,1.0,sundae_08s.jpg,0.0,clock_6_1.png,5.0,73,,,,,,,,,,,,,,,,,,,,,,,,,,,,,,,,
0.0,1.0,0.68,0.0,25.0,25.0,25.0,1.0,boomerang_06s.jpg,0.0,clock_6_2.png,5.0,73,,,,,,,,,,,,,,,,,,,,,,,,,,,,,,,,
0.0,1.0,0.99,0.0,26.0,26.0,26.0,1.0,toaster_03s.jpg,0.0,clock_6_3.png,5.0,73,,,,,,,,,,,,,,,,,,,,,,,,,,,,,,,,
0.0,1.0,0.934,0.0,27.0,27.0,27.0,1.0,quesadilla_07s.jpg,0.0,clock_6_4.png,5.0,73,,,,,,,,,,,,,,,,,,,,,,,,,,,,,,,,
0.0,0.0,0.987,0.0,28.0,28.0,28.0,1.0,toaster_03s.jpg,1.0,clock_6_5.png,5.0,73,,,,,,,,,,,,,,,,,,,,,,,,,,,,,,,,
0.0,1.0,0.747,0.0,29.0,29.0,29.0,1.0,punch1_10s.jpg,0.0,clock_6_6.png,5.0,73,,,,,,,,,,,,,,,,,,,,,,,,,,,,,,,,
0.0,1.0,0.707,0.0,30.0,30.0,30.0,1.0,tuxedo_01b.jpg,0.0,clock_6_1.png,6.0,73,,,,,,,,,,,,,,,,,,,,,,,,,,,,,,,,
0.0,1.0,0.628,0.0,31.0,31.0,31.0,1.0,kimono_13s.jpg,0.0,clock_6_2.png,6.0,73,,,,,,,,,,,,,,,,,,,,,,,,,,,,,,,,
0.0,1.0,0.557,0.0,32.0,32.0,32.0,1.0,power_line_08s.jpg,0.0,clock_6_3.png,6.0,73,,,,,,,,,,,,,,,,,,,,,,,,,,,,,,,,
0.0,1.0,0.734,0.0,33.0,33.0,33.0,1.0,coral_08s.jpg,0.0,clock_6_4.png,6.0,73,,,,,,,,,,,,,,,,,,,,,,,,,,,,,,,,
0.0,1.0,0.696,0.0,34.0,34.0,34.0,1.0,undershirt_02s.jpg,0.0,clock_6_5.png,6.0,73,,,,,,,,,,,,,,,,,,,,,,,,,,,,,,,,
0.0,1.0,0.68,0.0,35.0,35.0,35.0,1.0,ruby_15s.jpg,0.0,clock_6_6.png,6.0,73,,,,,,,,,,,,,,,,,,,,,,,,,,,,,,,,
,,,,,,,,,0.0,,,73,1.0,0.0,1.597,0.0,0.0,0.0,0.0,1.0,boomerang_06s.jpg,stapler_01b.jpg,,,,,,,,,,,,,,,,,,,,,,
,,,,,,,,,0.0,,,73,0.0,1.0,1.16,0.0,1.0,1.0,1.0,1.0,cardinal_07s.jpg,saddle_06s.jpg,,,,,,,,,,,,,,,,,,,,,,
,,,,,,,,,0.0,,,73,0.0,1.0,1.261,0.0,2.0,2.0,2.0,1.0,power_line_08s.jpg,punch1_10s.jpg,,,,,,,,,,,,,,,,,,,,,,
,,,,,,,,,1.0,,,73,0.0,0.0,1.428,0.0,3.0,3.0,3.0,1.0,bacon_05s.jpg,outlet_10s.jpg,,,,,,,,,,,,,,,,,,,,,,
,,,,,,,,,0.0,,,73,1.0,0.0,1.146,0.0,4.0,4.0,4.0,1.0,undershirt_02s.jpg,kimono_13s.jpg,,,,,,,,,,,,,,,,,,,,,,
,,,,,,,,,0.0,,,73,0.0,1.0,1.167,0.0,5.0,5.0,5.0,1.0,fireworks_18s.jpg,loom_05s.jpg,,,,,,,,,,,,,,,,,,,,,,
,,,,,,,,,,,,73,,,,,,,,,,,0.0,4.0,4.0,4.0,1.0,clock_present_5_13.xlsx,clock_compare_task_5_13.xlsx,,,,,,,,,,,,,,,
0.0,1.0,1.18,0.0,0.0,0.0,0.0,1.0,boar_10s.jpg,0.0,clock_5_1.png,1.0,73,,,,,,,,,,,,,,,,,,,,,,,,,,,,,,,,
0.0,1.0,0.519,0.0,1.0,1.0,1.0,1.0,rocking_horse_03s.jpg,0.0,clock_5_2.png,1.0,73,,,,,,,,,,,,,,,,,,,,,,,,,,,,,,,,
0.0,1.0,0.539,0.0,2.0,2.0,2.0,1.0,playpen_11s.jpg,0.0,clock_5_3.png,1.0,73,,,,,,,,,,,,,,,,,,,,,,,,,,,,,,,,
0.0,1.0,0.789,0.0,3.0,3.0,3.0,1.0,ivy_12s.jpg,0.0,clock_5_4.png,1.0,73,,,,,,,,,,,,,,,,,,,,,,,,,,,,,,,,
0.0,1.0,0.496,0.0,4.0,4.0,4.0,1.0,punch2_09s.jpg,0.0,clock_5_5.png,1.0,73,,,,,,,,,,,,,,,,,,,,,,,,,,,,,,,,
0.0,1.0,0.892,0.0,5.0,5.0,5.0,1.0,pencil_sharpener_09n.jpg,0.0,clock_7_1.png,2.0,73,,,,,,,,,,,,,,,,,,,,,,,,,,,,,,,,
0.0,1.0,0.528,0.0,6.0,6.0,6.0,1.0,prism_10s.jpg,0.0,clock_7_2.png,2.0,73,,,,,,,,,,,,,,,,,,,,,,,,,,,,,,,,
0.0,1.0,0.615,0.0,7.0,7.0,7.0,1.0,bathtub_23s.jpg,0.0,clock_7_3.png,2.0,73,,,,,,,,,,,,,,,,,,,,,,,,,,,,,,,,
0.0,1.0,0.719,0.0,8.0,8.0,8.0,1.0,potpourri_03s.jpg,0.0,clock_7_4.png,2.0,73,,,,,,,,,,,,,,,,,,,,,,,,,,,,,,,,
0.0,1.0,0.588,0.0,9.0,9.0,9.0,1.0,rug_09s.jpg,0.0,clock_7_5.png,2.0,73,,,,,,,,,,,,,,,,,,,,,,,,,,,,,,,,
1.0,1.0,1.048,0.0,10.0,10.0,10.0,1.0,rug_09s.jpg,1.0,clock_7_6.png,2.0,73,,,,,,,,,,,,,,,,,,,,,,,,,,,,,,,,
0.0,1.0,0.627,0.0,11.0,11.0,11.0,1.0,leotard_08s.jpg,0.0,clock_7_7.png,2.0,73,,,,,,,,,,,,,,,,,,,,,,,,,,,,,,,,
0.0,1.0,0.67,0.0,12.0,12.0,12.0,1.0,orangutan_03s.jpg,0.0,clock_7_1.png,3.0,73,,,,,,,,,,,,,,,,,,,,,,,,,,,,,,,,
0.0,1.0,0.68,0.0,13.0,13.0,13.0,1.0,pencil_sharpener_09n.jpg,0.0,clock_7_2.png,3.0,73,,,,,,,,,,,,,,,,,,,,,,,,,,,,,,,,
0.0,1.0,0.507,0.0,14.0,14.0,14.0,1.0,limousine_12s.jpg,0.0,clock_7_3.png,3.0,73,,,,,,,,,,,,,,,,,,,,,,,,,,,,,,,,
0.0,1.0,0.756,0.0,15.0,15.0,15.0,1.0,mirror_12s.jpg,0.0,clock_7_4.png,3.0,73,,,,,,,,,,,,,,,,,,,,,,,,,,,,,,,,
1.0,1.0,1.257,0.0,16.0,16.0,16.0,1.0,orangutan_03s.jpg,1.0,clock_7_5.png,3.0,73,,,,,,,,,,,,,,,,,,,,,,,,,,,,,,,,
0.0,1.0,0.539,0.0,17.0,17.0,17.0,1.0,thumbtack_14s.jpg,0.0,clock_7_6.png,3.0,73,,,,,,,,,,,,,,,,,,,,,,,,,,,,,,,,
1.0,0.0,1.521,0.0,18.0,18.0,18.0,1.0,potpourri_03s.jpg,0.0,clock_7_7.png,3.0,73,,,,,,,,,,,,,,,,,,,,,,,,,,,,,,,,
0.0,1.0,0.739,0.0,19.0,19.0,19.0,1.0,crossbow_10s.jpg,0.0,clock_6_1.png,4.0,73,,,,,,,,,,,,,,,,,,,,,,,,,,,,,,,,
0.0,1.0,0.727,0.0,20.0,20.0,20.0,1.0,mannequin_05s.jpg,0.0,clock_6_2.png,4.0,73,,,,,,,,,,,,,,,,,,,,,,,,,,,,,,,,
0.0,1.0,0.813,0.0,21.0,21.0,21.0,1.0,sparkler_02s.jpg,0.0,clock_6_3.png,4.0,73,,,,,,,,,,,,,,,,,,,,,,,,,,,,,,,,
0.0,1.0,0.664,0.0,22.0,22.0,22.0,1.0,soda_fountain_03s.jpg,0.0,clock_6_4.png,4.0,73,,,,,,,,,,,,,,,,,,,,,,,,,,,,,,,,
0.0,1.0,0.631,0.0,23.0,23.0,23.0,1.0,spider_web_03s.jpg,0.0,clock_6_5.png,4.0,73,,,,,,,,,,,,,,,,,,,,,,,,,,,,,,,,
0.0,1.0,0.512,0.0,24.0,24.0,24.0,1.0,printer_09s.jpg,0.0,clock_6_6.png,4.0,73,,,,,,,,,,,,,,,,,,,,,,,,,,,,,,,,
0.0,1.0,0.808,0.0,25.0,25.0,25.0,1.0,hyena_16s.jpg,0.0,clock_5_1.png,5.0,73,,,,,,,,,,,,,,,,,,,,,,,,,,,,,,,,
0.0,1.0,0.711,0.0,26.0,26.0,26.0,1.0,mirror_12s.jpg,0.0,clock_5_2.png,5.0,73,,,,,,,,,,,,,,,,,,,,,,,,,,,,,,,,
0.0,1.0,0.507,0.0,27.0,27.0,27.0,1.0,cap_05s.jpg,0.0,clock_5_3.png,5.0,73,,,,,,,,,,,,,,,,,,,,,,,,,,,,,,,,
0.0,1.0,1.898,0.0,28.0,28.0,28.0,1.0,briefcase_03s.jpg,0.0,clock_5_4.png,5.0,73,,,,,,,,,,,,,,,,,,,,,,,,,,,,,,,,
1.0,1.0,1.081,0.0,29.0,29.0,29.0,1.0,briefcase_03s.jpg,1.0,clock_5_5.png,5.0,73,,,,,,,,,,,,,,,,,,,,,,,,,,,,,,,,
0.0,1.0,1.041,0.0,30.0,30.0,30.0,1.0,solar_panel_02s.jpg,0.0,clock_6_1.png,6.0,73,,,,,,,,,,,,,,,,,,,,,,,,,,,,,,,,
0.0,1.0,0.654,0.0,31.0,31.0,31.0,1.0,turtleneck_11s.jpg,0.0,clock_6_2.png,6.0,73,,,,,,,,,,,,,,,,,,,,,,,,,,,,,,,,
0.0,1.0,0.529,0.0,32.0,32.0,32.0,1.0,cushion_08s.jpg,0.0,clock_6_3.png,6.0,73,,,,,,,,,,,,,,,,,,,,,,,,,,,,,,,,
0.0,1.0,0.654,0.0,33.0,33.0,33.0,1.0,stethoscope_01b.jpg,0.0,clock_6_4.png,6.0,73,,,,,,,,,,,,,,,,,,,,,,,,,,,,,,,,
0.0,0.0,1.285,0.0,34.0,34.0,34.0,1.0,turtleneck_11s.jpg,1.0,clock_6_5.png,6.0,73,,,,,,,,,,,,,,,,,,,,,,,,,,,,,,,,
0.0,1.0,0.561,0.0,35.0,35.0,35.0,1.0,gear_07s.jpg,0.0,clock_6_6.png,6.0,73,,,,,,,,,,,,,,,,,,,,,,,,,,,,,,,,
,,,,,,,,,1.0,,,73,0.0,0.0,1.085,0.0,0.0,0.0,0.0,1.0,ivy_12s.jpg,prism_10s.jpg,,,,,,,,,,,,,,,,,,,,,,
,,,,,,,,,0.0,,,73,1.0,0.0,1.35,0.0,1.0,1.0,1.0,1.0,bathtub_23s.jpg,punch2_09s.jpg,,,,,,,,,,,,,,,,,,,,,,
,,,,,,,,,1.0,,,73,1.0,1.0,1.443,0.0,2.0,2.0,2.0,1.0,leotard_08s.jpg,limousine_12s.jpg,,,,,,,,,,,,,,,,,,,,,,
,,,,,,,,,0.0,,,73,1.0,0.0,1.164,0.0,3.0,3.0,3.0,1.0,gear_07s.jpg,cushion_08s.jpg,,,,,,,,,,,,,,,,,,,,,,
,,,,,,,,,1.0,,,73,0.0,0.0,1.134,0.0,4.0,4.0,4.0,1.0,crossbow_10s.jpg,soda_fountain_03s.jpg,,,,,,,,,,,,,,,,,,,,,,
,,,,,,,,,1.0,,,73,0.0,0.0,1.165,0.0,5.0,5.0,5.0,1.0,mannequin_05s.jpg,spider_web_03s.jpg,,,,,,,,,,,,,,,,,,,,,,
0.0,1.0,1.134,,,,,,harpoon.jpg,0.0,clockno_up.jpg,1.0,73,,,,,,,,,,,,,,,,,,0.0,0.0,0.0,0.0,1.0,,,,,,,,,,
0.0,1.0,0.605,,,,,,blender_08s.jpg,0.0,clockno_default.jpg,1.0,73,,,,,,,,,,,,,,,,,,0.0,1.0,1.0,1.0,1.0,,,,,,,,,,
0.0,1.0,0.521,,,,,,tube_top_03s.jpg,0.0,clockno_default.jpg,1.0,73,,,,,,,,,,,,,,,,,,0.0,2.0,2.0,2.0,1.0,,,,,,,,,,
0.0,1.0,0.494,,,,,,rocket_02s.jpg,0.0,clockno_default.jpg,1.0,73,,,,,,,,,,,,,,,,,,0.0,3.0,3.0,3.0,1.0,,,,,,,,,,
0.0,1.0,0.641,,,,,,bonsai_07s.jpg,0.0,clockno_default.jpg,1.0,73,,,,,,,,,,,,,,,,,,0.0,4.0,4.0,4.0,1.0,,,,,,,,,,
1.0,1.0,1.552,,,,,,blender_08s.jpg,1.0,clockno_default.jpg,1.0,73,,,,,,,,,,,,,,,,,,0.0,5.0,5.0,5.0,1.0,,,,,,,,,,
0.0,1.0,1.055,,,,,,kayak_08s.jpg,0.0,clockno_up.jpg,2.0,73,,,,,,,,,,,,,,,,,,0.0,6.0,6.0,6.0,1.0,,,,,,,,,,
0.0,1.0,0.873,,,,,,oil_02s.jpg,0.0,clockno_default.jpg,2.0,73,,,,,,,,,,,,,,,,,,0.0,7.0,7.0,7.0,1.0,,,,,,,,,,
0.0,1.0,0.627,,,,,,petri_dish_12s.jpg,0.0,clockno_default.jpg,2.0,73,,,,,,,,,,,,,,,,,,0.0,8.0,8.0,8.0,1.0,,,,,,,,,,
0.0,1.0,0.746,,,,,,ant_12s.jpg,0.0,clockno_default.jpg,2.0,73,,,,,,,,,,,,,,,,,,0.0,9.0,9.0,9.0,1.0,,,,,,,,,,
0.0,1.0,0.934,,,,,,tile_08s.jpg,0.0,clockno_default.jpg,2.0,73,,,,,,,,,,,,,,,,,,0.0,10.0,10.0,10.0,1.0,,,,,,,,,,
0.0,1.0,0.96,,,,,,piano_13n.jpg,0.0,clockno_up.jpg,3.0,73,,,,,,,,,,,,,,,,,,0.0,11.0,11.0,11.0,1.0,,,,,,,,,,
0.0,1.0,0.643,,,,,,beaker_01b.jpg,0.0,clockno_default.jpg,3.0,73,,,,,,,,,,,,,,,,,,0.0,12.0,12.0,12.0,1.0,,,,,,,,,,
0.0,1.0,0.727,,,,,,ladder_15s.jpg,0.0,clockno_default.jpg,3.0,73,,,,,,,,,,,,,,,,,,0.0,13.0,13.0,13.0,1.0,,,,,,,,,,
0.0,1.0,0.58,,,,,,abacus_12s.jpg,0.0,clockno_default.jpg,3.0,73,,,,,,,,,,,,,,,,,,0.0,14.0,14.0,14.0,1.0,,,,,,,,,,
0.0,1.0,0.59,,,,,,puck_06s.jpg,0.0,clockno_default.jpg,3.0,73,,,,,,,,,,,,,,,,,,0.0,15.0,15.0,15.0,1.0,,,,,,,,,,
0.0,1.0,0.652,,,,,,breadstick_08s.jpg,0.0,clockno_default.jpg,3.0,73,,,,,,,,,,,,,,,,,,0.0,16.0,16.0,16.0,1.0,,,,,,,,,,
0.0,1.0,0.516,,,,,,mailbox_11s.jpg,0.0,clockno_up.jpg,4.0,73,,,,,,,,,,,,,,,,,,0.0,17.0,17.0,17.0,1.0,,,,,,,,,,
0.0,1.0,0.628,,,,,,amber_04s.jpg,0.0,clockno_default.jpg,4.0,73,,,,,,,,,,,,,,,,,,0.0,18.0,18.0,18.0,1.0,,,,,,,,,,
0.0,1.0,0.429,,,,,,fishhook_06s.jpg,0.0,clockno_default.jpg,4.0,73,,,,,,,,,,,,,,,,,,0.0,19.0,19.0,19.0,1.0,,,,,,,,,,
0.0,1.0,0.654,,,,,,ukulele_02s.jpg,0.0,clockno_default.jpg,4.0,73,,,,,,,,,,,,,,,,,,0.0,20.0,20.0,20.0,1.0,,,,,,,,,,
0.0,1.0,0.6,,,,,,juicer1_08s.jpg,0.0,clockno_default.jpg,4.0,73,,,,,,,,,,,,,,,,,,0.0,21.0,21.0,21.0,1.0,,,,,,,,,,
0.0,1.0,0.868,,,,,,glue_01s.jpg,0.0,clockno_up.jpg,5.0,73,,,,,,,,,,,,,,,,,,0.0,22.0,22.0,22.0,1.0,,,,,,,,,,
0.0,1.0,0.707,,,,,,stump_02s.jpg,0.0,clockno_default.jpg,5.0,73,,,,,,,,,,,,,,,,,,0.0,23.0,23.0,23.0,1.0,,,,,,,,,,
1.0,1.0,1.041,,,,,,stump_02s.jpg,1.0,clockno_default.jpg,5.0,73,,,,,,,,,,,,,,,,,,0.0,24.0,24.0,24.0,1.0,,,,,,,,,,
1.0,1.0,1.187,,,,,,stump_02s.jpg,1.0,clockno_default.jpg,5.0,73,,,,,,,,,,,,,,,,,,0.0,25.0,25.0,25.0,1.0,,,,,,,,,,
0.0,1.0,0.861,,,,,,tube_top_03s.jpg,0.0,clockno_default.jpg,5.0,73,,,,,,,,,,,,,,,,,,0.0,26.0,26.0,26.0,1.0,,,,,,,,,,
0.0,1.0,1.153,,,,,,red_carpet_03s.jpg,0.0,clockno_default.jpg,5.0,73,,,,,,,,,,,,,,,,,,0.0,27.0,27.0,27.0,1.0,,,,,,,,,,
0.0,1.0,1.307,,,,,,harpoon.jpg,0.0,clockno_default.jpg,5.0,73,,,,,,,,,,,,,,,,,,0.0,28.0,28.0,28.0,1.0,,,,,,,,,,
0.0,1.0,0.787,,,,,,paintbrush_04s.jpg,0.0,clockno_up.jpg,6.0,73,,,,,,,,,,,,,,,,,,0.0,29.0,29.0,29.0,1.0,,,,,,,,,,
0.0,1.0,0.499,,,,,,bank_06s.jpg,0.0,clockno_default.jpg,6.0,73,,,,,,,,,,,,,,,,,,0.0,30.0,30.0,30.0,1.0,,,,,,,,,,
0.0,1.0,0.512,,,,,,doily_13s.jpg,0.0,clockno_default.jpg,6.0,73,,,,,,,,,,,,,,,,,,0.0,31.0,31.0,31.0,1.0,,,,,,,,,,
0.0,1.0,0.707,,,,,,pocketknife_12s.jpg,0.0,clockno_default.jpg,6.0,73,,,,,,,,,,,,,,,,,,0.0,32.0,32.0,32.0,1.0,,,,,,,,,,
1.0,1.0,0.987,,,,,,paintbrush_04s.jpg,1.0,clockno_default.jpg,6.0,73,,,,,,,,,,,,,,,,,,0.0,33.0,33.0,33.0,1.0,,,,,,,,,,
0.0,1.0,0.843,,,,,,hummingbird_05s.jpg,0.0,clockno_default.jpg,6.0,73,,,,,,,,,,,,,,,,,,0.0,34.0,34.0,34.0,1.0,,,,,,,,,,
0.0,1.0,0.939,,,,,,abacus_12s.jpg,0.0,clockno_default.jpg,6.0,73,,,,,,,,,,,,,,,,,,0.0,35.0,35.0,35.0,1.0,,,,,,,,,,
,,,,,,,,,1.0,,,73,0.0,0.0,1.262,,,,,,petri_dish_12s.jpg,piano_13n.jpg,,,,,,,,,,,,,0.0,0.0,0.0,0.0,1.0,,,,,
,,,,,,,,,1.0,,,73,0.0,0.0,1.176,,,,,,fishhook_06s.jpg,glue_01s.jpg,,,,,,,,,,,,,0.0,1.0,1.0,1.0,1.0,,,,,
,,,,,,,,,0.0,,,73,1.0,0.0,1.121,,,,,,bank_06s.jpg,red_carpet_03s.jpg,,,,,,,,,,,,,0.0,2.0,2.0,2.0,1.0,,,,,
,,,,,,,,,0.0,,,73,0.0,1.0,1.243,,,,,,ukulele_02s.jpg,mailbox_11s.jpg,,,,,,,,,,,,,0.0,3.0,3.0,3.0,1.0,,,,,
,,,,,,,,,0.0,,,73,1.0,0.0,0.934,,,,,,hummingbird_05s.jpg,doily_13s.jpg,,,,,,,,,,,,,0.0,4.0,4.0,4.0,1.0,,,,,
,,,,,,,,,1.0,,,73,0.0,0.0,1.219,,,,,,amber_04s.jpg,juicer1_08s.jpg,,,,,,,,,,,,,0.0,5.0,5.0,5.0,1.0,,,,,
,,,,,,,,,,,,73,,,,,,,,,,,,,,,,clockno_present_1_13.xlsx,clockno_compare_task_1_13.xlsx,,,,,,,,,,,0.0,0.0,0.0,0.0,1.0
0.0,1.0,1.336,,,,,,lemonade_04s.jpg,0.0,clockno_up.jpg,1.0,73,,,,,,,,,,,,,,,,,,0.0,0.0,0.0,0.0,1.0,,,,,,,,,,
0.0,1.0,0.713,,,,,,toilet_paper_12s.jpg,0.0,clockno_default.jpg,1.0,73,,,,,,,,,,,,,,,,,,0.0,1.0,1.0,1.0,1.0,,,,,,,,,,
0.0,1.0,0.578,,,,,,teacup_07s.jpg,0.0,clockno_default.jpg,1.0,73,,,,,,,,,,,,,,,,,,0.0,2.0,2.0,2.0,1.0,,,,,,,,,,
1.0,1.0,1.26,,,,,,toilet_paper_12s.jpg,1.0,clockno_default.jpg,1.0,73,,,,,,,,,,,,,,,,,,0.0,3.0,3.0,3.0,1.0,,,,,,,,,,
0.0,1.0,0.608,,,,,,ice-cream_cone_06s.jpg,0.0,clockno_default.jpg,1.0,73,,,,,,,,,,,,,,,,,,0.0,4.0,4.0,4.0,1.0,,,,,,,,,,
0.0,1.0,0.577,,,,,,loveseat_08s.jpg,0.0,clockno_default.jpg,1.0,73,,,,,,,,,,,,,,,,,,0.0,5.0,5.0,5.0,1.0,,,,,,,,,,
0.0,1.0,1.217,,,,,,otter_05s.jpg,0.0,clockno_up.jpg,2.0,73,,,,,,,,,,,,,,,,,,0.0,6.0,6.0,6.0,1.0,,,,,,,,,,
0.0,1.0,1.072,,,,,,rope_16s.jpg,0.0,clockno_default.jpg,2.0,73,,,,,,,,,,,,,,,,,,0.0,7.0,7.0,7.0,1.0,,,,,,,,,,
0.0,1.0,0.595,,,,,,raccoon_02s.jpg,0.0,clockno_default.jpg,2.0,73,,,,,,,,,,,,,,,,,,0.0,8.0,8.0,8.0,1.0,,,,,,,,,,
0.0,1.0,0.574,,,,,,light_switch_02s.jpg,0.0,clockno_default.jpg,2.0,73,,,,,,,,,,,,,,,,,,0.0,9.0,9.0,9.0,1.0,,,,,,,,,,
0.0,1.0,0.643,,,,,,smokingpipe.jpg,0.0,clockno_default.jpg,2.0,73,,,,,,,,,,,,,,,,,,0.0,10.0,10.0,10.0,1.0,,,,,,,,,,
0.0,1.0,0.523,,,,,,radio_09s.jpg,0.0,clockno_default.jpg,2.0,73,,,,,,,,,,,,,,,,,,0.0,11.0,11.0,11.0,1.0,,,,,,,,,,
0.0,1.0,0.654,,,,,,razor_blade_01b.jpg,0.0,clockno_up.jpg,3.0,73,,,,,,,,,,,,,,,,,,0.0,12.0,12.0,12.0,1.0,,,,,,,,,,
0.0,1.0,0.648,,,,,,sugar_cube_11s.jpg,0.0,clockno_default.jpg,3.0,73,,,,,,,,,,,,,,,,,,0.0,13.0,13.0,13.0,1.0,,,,,,,,,,
0.0,1.0,0.586,,,,,,ravioli_08s.jpg,0.0,clockno_default.jpg,3.0,73,,,,,,,,,,,,,,,,,,0.0,14.0,14.0,14.0,1.0,,,,,,,,,,
0.0,1.0,0.655,,,,,,compass_10n.jpg,0.0,clockno_default.jpg,3.0,73,,,,,,,,,,,,,,,,,,0.0,15.0,15.0,15.0,1.0,,,,,,,,,,
0.0,1.0,0.827,,,,,,memory_stick_11s.jpg,0.0,clockno_default.jpg,3.0,73,,,,,,,,,,,,,,,,,,0.0,16.0,16.0,16.0,1.0,,,,,,,,,,
0.0,1.0,0.646,,,,,,pancake_12s.jpg,0.0,clockno_up.jpg,4.0,73,,,,,,,,,,,,,,,,,,0.0,17.0,17.0,17.0,1.0,,,,,,,,,,
0.0,1.0,0.583,,,,,,quill_09s.jpg,0.0,clockno_default.jpg,4.0,73,,,,,,,,,,,,,,,,,,0.0,18.0,18.0,18.0,1.0,,,,,,,,,,
0.0,1.0,0.525,,,,,,footprint_11s.jpg,0.0,clockno_default.jpg,4.0,73,,,,,,,,,,,,,,,,,,0.0,19.0,19.0,19.0,1.0,,,,,,,,,,
0.0,1.0,0.573,,,,,,gas_mask_11s.jpg,0.0,clockno_default.jpg,4.0,73,,,,,,,,,,,,,,,,,,0.0,20.0,20.0,20.0,1.0,,,,,,,,,,
0.0,0.0,0.828,,,,,,pancake_12s.jpg,1.0,clockno_default.jpg,4.0,73,,,,,,,,,,,,,,,,,,0.0,21.0,21.0,21.0,1.0,,,,,,,,,,
0.0,1.0,1.045,,,,,,crayon_09s.jpg,0.0,clockno_default.jpg,4.0,73,,,,,,,,,,,,,,,,,,0.0,22.0,22.0,22.0,1.0,,,,,,,,,,
0.0,0.0,1.577,,,,,,footprint_11s.jpg,1.0,clockno_default.jpg,4.0,73,,,,,,,,,,,,,,,,,,0.0,23.0,23.0,23.0,1.0,,,,,,,,,,
0.0,1.0,0.895,,,,,,pinwheel_06s.jpg,0.0,clockno_up.jpg,5.0,73,,,,,,,,,,,,,,,,,,0.0,24.0,24.0,24.0,1.0,,,,,,,,,,
0.0,1.0,0.75,,,,,,lectern_08s.jpg,0.0,clockno_default.jpg,5.0,73,,,,,,,,,,,,,,,,,,0.0,25.0,25.0,25.0,1.0,,,,,,,,,,
0.0,1.0,0.603,,,,,,puffin_19s.jpg,0.0,clockno_default.jpg,5.0,73,,,,,,,,,,,,,,,,,,0.0,26.0,26.0,26.0,1.0,,,,,,,,,,
0.0,1.0,0.64,,,,,,peach_04s.jpg,0.0,clockno_default.jpg,5.0,73,,,,,,,,,,,,,,,,,,0.0,27.0,27.0,27.0,1.0,,,,,,,,,,
0.0,1.0,0.566,,,,,,raccoon_02s.jpg,0.0,clockno_default.jpg,5.0,73,,,,,,,,,,,,,,,,,,0.0,28.0,28.0,28.0,1.0,,,,,,,,,,
0.0,1.0,0.561,,,,,,gas_mask_11s.jpg,0.0,clockno_default.jpg,5.0,73,,,,,,,,,,,,,,,,,,0.0,29.0,29.0,29.0,1.0,,,,,,,,,,
0.0,1.0,0.533,,,,,,bubble_01b.jpg,0.0,clockno_default.jpg,5.0,73,,,,,,,,,,,,,,,,,,0.0,30.0,30.0,30.0,1.0,,,,,,,,,,
0.0,1.0,1.128,,,,,,pillbox_04s.jpg,0.0,clockno_up.jpg,6.0,73,,,,,,,,,,,,,,,,,,0.0,31.0,31.0,31.0,1.0,,,,,,,,,,
0.0,1.0,0.421,,,,,,chopsticks_08s.jpg,0.0,clockno_default.jpg,6.0,73,,,,,,,,,,,,,,,,,,0.0,32.0,32.0,32.0,1.0,,,,,,,,,,
0.0,1.0,0.845,,,,,,lizard_10n.jpg,0.0,clockno_default.jpg,6.0,73,,,,,,,,,,,,,,,,,,0.0,33.0,33.0,33.0,1.0,,,,,,,,,,
0.0,1.0,0.575,,,,,,mattress_01s.jpg,0.0,clockno_default.jpg,6.0,73,,,,,,,,,,,,,,,,,,0.0,34.0,34.0,34.0,1.0,,,,,,,,,,
0.0,1.0,0.726,,,,,,jukebox_03n.jpg,0.0,clockno_default.jpg,6.0,73,,,,,,,,,,,,,,,,,,0.0,35.0,35.0,35.0,1.0,,,,,,,,,,
,,,,,,,,,0.0,,,73,0.0,1.0,1.518,,,,,,ravioli_08s.jpg,radio_09s.jpg,,,,,,,,,,,,,0.0,0.0,0.0,0.0,1.0,,,,,
,,,,,,,,,0.0,,,73,0.0,1.0,1.175,,,,,,lectern_08s.jpg,crayon_09s.jpg,,,,,,,,,,,,,0.0,1.0,1.0,1.0,1.0,,,,,
,,,,,,,,,1.0,,,73,1.0,1.0,1.058,,,,,,ice-cream_cone_06s.jpg,rope_16s.jpg,,,,,,,,,,,,,0.0,2.0,2.0,2.0,1.0,,,,,
,,,,,,,,,1.0,,,73,0.0,0.0,1.15,,,,,,teacup_07s.jpg,loveseat_08s.jpg,,,,,,,,,,,,,0.0,3.0,3.0,3.0,1.0,,,,,
,,,,,,,,,1.0,,,73,0.0,0.0,1.113,,,,,,pinwheel_06s.jpg,peach_04s.jpg,,,,,,,,,,,,,0.0,4.0,4.0,4.0,1.0,,,,,
,,,,,,,,,0.0,,,73,1.0,0.0,1.412,,,,,,mattress_01s.jpg,pillbox_04s.jpg,,,,,,,,,,,,,0.0,5.0,5.0,5.0,1.0,,,,,
,,,,,,,,,,,,73,,,,,,,,,,,,,,,,clockno_present_2_13.xlsx,clockno_compare_task_2_13.xlsx,,,,,,,,,,,0.0,1.0,1.0,1.0,1.0
0.0,1.0,0.921,,,,,,piggy_bank_02s.jpg,0.0,clockno_up.jpg,1.0,73,,,,,,,,,,,,,,,,,,0.0,0.0,0.0,0.0,1.0,,,,,,,,,,
0.0,1.0,0.44,,,,,,powder_07s.jpg,0.0,clockno_default.jpg,1.0,73,,,,,,,,,,,,,,,,,,0.0,1.0,1.0,1.0,1.0,,,,,,,,,,
0.0,1.0,0.689,,,,,,perfume_06s.jpg,0.0,clockno_default.jpg,1.0,73,,,,,,,,,,,,,,,,,,0.0,2.0,2.0,2.0,1.0,,,,,,,,,,
0.0,1.0,0.635,,,,,,icemaker_10s.jpg,0.0,clockno_default.jpg,1.0,73,,,,,,,,,,,,,,,,,,0.0,3.0,3.0,3.0,1.0,,,,,,,,,,
0.0,0.0,0.747,,,,,,powder_07s.jpg,1.0,clockno_default.jpg,1.0,73,,,,,,,,,,,,,,,,,,0.0,4.0,4.0,4.0,1.0,,,,,,,,,,
0.0,1.0,0.861,,,,,,juicer2_06s.jpg,0.0,clockno_up.jpg,2.0,73,,,,,,,,,,,,,,,,,,0.0,5.0,5.0,5.0,1.0,,,,,,,,,,
0.0,1.0,0.601,,,,,,olive_05s.jpg,0.0,clockno_default.jpg,2.0,73,,,,,,,,,,,,,,,,,,0.0,6.0,6.0,6.0,1.0,,,,,,,,,,
0.0,1.0,0.636,,,,,,pretzel_09s.jpg,0.0,clockno_default.jpg,2.0,73,,,,,,,,,,,,,,,,,,0.0,7.0,7.0,7.0,1.0,,,,,,,,,,
0.0,1.0,0.668,,,,,,totem_pole_05s.jpg,0.0,clockno_default.jpg,2.0,73,,,,,,,,,,,,,,,,,,0.0,8.0,8.0,8.0,1.0,,,,,,,,,,
1.0,1.0,1.282,,,,,,olive_05s.jpg,1.0,clockno_default.jpg,2.0,73,,,,,,,,,,,,,,,,,,0.0,9.0,9.0,9.0,1.0,,,,,,,,,,
0.0,1.0,0.708,,,,,,mussel_11s.jpg,0.0,clockno_default.jpg,2.0,73,,,,,,,,,,,,,,,,,,0.0,10.0,10.0,10.0,1.0,,,,,,,,,,
0.0,1.0,0.855,,,,,,bee_20s.jpg,0.0,clockno_up.jpg,3.0,73,,,,,,,,,,,,,,,,,,0.0,11.0,11.0,11.0,1.0,,,,,,,,,,
1.0,1.0,0.895,,,,,,bee_20s.jpg,1.0,clockno_default.jpg,3.0,73,,,,,,,,,,,,,,,,,,0.0,12.0,12.0,12.0,1.0,,,,,,,,,,
1.0,1.0,0.534,,,,,,bee_20s.jpg,1.0,clockno_default.jpg,3.0,73,,,,,,,,,,,,,,,,,,0.0,13.0,13.0,13.0,1.0,,,,,,,,,,
0.0,1.0,0.634,,,,,,clover_04s.jpg,0.0,clockno_default.jpg,3.0,73,,,,,,,,,,,,,,,,,,0.0,14.0,14.0,14.0,1.0,,,,,,,,,,
0.0,1.0,0.632,,,,,,muffin_12n.jpg,0.0,clockno_default.jpg,3.0,73,,,,,,,,,,,,,,,,,,0.0,15.0,15.0,15.0,1.0,,,,,,,,,,
0.0,1.0,0.591,,,,,,turtle_08s.jpg,0.0,clockno_default.jpg,3.0,73,,,,,,,,,,,,,,,,,,0.0,16.0,16.0,16.0,1.0,,,,,,,,,,
0.0,1.0,0.844,,,,,,blazer_02s.jpg,0.0,clockno_default.jpg,3.0,73,,,,,,,,,,,,,,,,,,0.0,17.0,17.0,17.0,1.0,,,,,,,,,,
0.0,1.0,0.993,,,,,,target_11s.jpg,0.0,clockno_up.jpg,4.0,73,,,,,,,,,,,,,,,,,,0.0,18.0,18.0,18.0,1.0,,,,,,,,,,
0.0,1.0,0.601,,,,,,machine_gun_09s.jpg,0.0,clockno_default.jpg,4.0,73,,,,,,,,,,,,,,,,,,0.0,19.0,19.0,19.0,1.0,,,,,,,,,,
0.0,1.0,0.508,,,,,,eiffeltower.jpg,0.0,clockno_default.jpg,4.0,73,,,,,,,,,,,,,,,,,,0.0,20.0,20.0,20.0,1.0,,,,,,,,,,
1.0,1.0,0.687,,,,,,eiffeltower.jpg,1.0,clockno_default.jpg,4.0,73,,,,,,,,,,,,,,,,,,0.0,21.0,21.0,21.0,1.0,,,,,,,,,,
0.0,1.0,0.805,,,,,,tablet_04s.jpg,0.0,clockno_default.jpg,4.0,73,,,,,,,,,,,,,,,,,,0.0,22.0,22.0,22.0,1.0,,,,,,,,,,
1.0,1.0,1.227,,,,,,target_11s.jpg,1.0,clockno_default.jpg,4.0,73,,,,,,,,,,,,,,,,,,0.0,23.0,23.0,23.0,1.0,,,,,,,,,,
0.0,1.0,0.969,,,,,,ram_05s.jpg,0.0,clockno_up.jpg,5.0,73,,,,,,,,,,,,,,,,,,0.0,24.0,24.0,24.0,1.0,,,,,,,,,,
0.0,1.0,0.591,,,,,,stamp1_11s.jpg,0.0,clockno_default.jpg,5.0,73,,,,,,,,,,,,,,,,,,0.0,25.0,25.0,25.0,1.0,,,,,,,,,,
0.0,1.0,0.498,,,,,,marker_05s.jpg,0.0,clockno_default.jpg,5.0,73,,,,,,,,,,,,,,,,,,0.0,26.0,26.0,26.0,1.0,,,,,,,,,,
0.0,1.0,0.588,,,,,,turtle_08s.jpg,0.0,clockno_default.jpg,5.0,73,,,,,,,,,,,,,,,,,,0.0,27.0,27.0,27.0,1.0,,,,,,,,,,
0.0,1.0,0.507,,,,,,go-kart_10s.jpg,0.0,clockno_default.jpg,5.0,73,,,,,,,,,,,,,,,,,,0.0,28.0,28.0,28.0,1.0,,,,,,,,,,
0.0,1.0,1.058,,,,,,peanut_butter_08s.jpg,0.0,clockno_up.jpg,6.0,73,,,,,,,,,,,,,,,,,,0.0,29.0,29.0,29.0,1.0,,,,,,,,,,
0.0,1.0,0.666,,,,,,measuring_cup_02s.jpg,0.0,clockno_default.jpg,6.0,73,,,,,,,,,,,,,,,,,,0.0,30.0,30.0,30.0,1.0,,,,,,,,,,
0.0,1.0,0.734,,,,,,laser_pointer_02s.jpg,0.0,clockno_default.jpg,6.0,73,,,,,,,,,,,,,,,,,,0.0,31.0,31.0,31.0,1.0,,,,,,,,,,
0.0,1.0,1.103,,,,,,marker_05s.jpg,0.0,clockno_default.jpg,6.0,73,,,,,,,,,,,,,,,,,,0.0,32.0,32.0,32.0,1.0,,,,,,,,,,
0.0,1.0,0.586,,,,,,tuba_12s.jpg,0.0,clockno_default.jpg,6.0,73,,,,,,,,,,,,,,,,,,0.0,33.0,33.0,33.0,1.0,,,,,,,,,,
0.0,1.0,0.561,,,,,,spoon02a.jpg,0.0,clockno_default.jpg,6.0,73,,,,,,,,,,,,,,,,,,0.0,34.0,34.0,34.0,1.0,,,,,,,,,,
0.0,1.0,0.739,,,,,,mosquito_12s.jpg,0.0,clockno_default.jpg,6.0,73,,,,,,,,,,,,,,,,,,0.0,35.0,35.0,35.0,1.0,,,,,,,,,,
,,,,,,,,,0.0,,,73,0.0,1.0,1.069,,,,,,juicer2_06s.jpg,perfume_06s.jpg,,,,,,,,,,,,,0.0,0.0,0.0,0.0,1.0,,,,,
,,,,,,,,,0.0,,,73,1.0,0.0,1.19,,,,,,stamp1_11s.jpg,tablet_04s.jpg,,,,,,,,,,,,,0.0,1.0,1.0,1.0,1.0,,,,,
,,,,,,,,,0.0,,,73,0.0,1.0,0.951,,,,,,laser_pointer_02s.jpg,go-kart_10s.jpg,,,,,,,,,,,,,0.0,2.0,2.0,2.0,1.0,,,,,
,,,,,,,,,1.0,,,73,0.0,0.0,1.093,,,,,,piggy_bank_02s.jpg,icemaker_10s.jpg,,,,,,,,,,,,,0.0,3.0,3.0,3.0,1.0,,,,,
,,,,,,,,,0.0,,,73,0.0,1.0,1.154,,,,,,mussel_11s.jpg,pretzel_09s.jpg,,,,,,,,,,,,,0.0,4.0,4.0,4.0,1.0,,,,,
,,,,,,,,,0.0,,,73,1.0,0.0,1.176,,,,,,blazer_02s.jpg,clover_04s.jpg,,,,,,,,,,,,,0.0,5.0,5.0,5.0,1.0,,,,,
,,,,,,,,,,,,73,,,,,,,,,,,,,,,,clockno_present_3_13.xlsx,clockno_compare_task_3_13.xlsx,,,,,,,,,,,0.0,2.0,2.0,2.0,1.0
0.0,1.0,0.984,,,,,,penguin_16s.jpg,0.0,clockno_up.jpg,1.0,73,,,,,,,,,,,,,,,,,,0.0,0.0,0.0,0.0,1.0,,,,,,,,,,
1.0,1.0,1.16,,,,,,penguin_16s.jpg,1.0,clockno_default.jpg,1.0,73,,,,,,,,,,,,,,,,,,0.0,1.0,1.0,1.0,1.0,,,,,,,,,,
1.0,1.0,0.934,,,,,,penguin_16s.jpg,1.0,clockno_default.jpg,1.0,73,,,,,,,,,,,,,,,,,,0.0,2.0,2.0,2.0,1.0,,,,,,,,,,
1.0,1.0,0.804,,,,,,penguin_16s.jpg,1.0,clockno_default.jpg,1.0,73,,,,,,,,,,,,,,,,,,0.0,3.0,3.0,3.0,1.0,,,,,,,,,,
0.0,1.0,0.79,,,,,,tripod_01b.jpg,0.0,clockno_default.jpg,1.0,73,,,,,,,,,,,,,,,,,,0.0,4.0,4.0,4.0,1.0,,,,,,,,,,
0.0,1.0,0.698,,,,,,touchpad_11s.jpg,0.0,clockno_default.jpg,1.0,73,,,,,,,,,,,,,,,,,,0.0,5.0,5.0,5.0,1.0,,,,,,,,,,
0.0,1.0,0.669,,,,,,possum_09s.jpg,0.0,clockno_up.jpg,2.0,73,,,,,,,,,,,,,,,,,,0.0,6.0,6.0,6.0,1.0,,,,,,,,,,
0.0,1.0,0.601,,,,,,frame_06s.jpg,0.0,clockno_default.jpg,2.0,73,,,,,,,,,,,,,,,,,,0.0,7.0,7.0,7.0,1.0,,,,,,,,,,
1.0,0.0,1.508,,,,,,submarine_11n.jpg,0.0,clockno_default.jpg,2.0,73,,,,,,,,,,,,,,,,,,0.0,8.0,8.0,8.0,1.0,,,,,,,,,,
0.0,1.0,0.613,,,,,,squirt_gun_03s.jpg,0.0,clockno_default.jpg,2.0,73,,,,,,,,,,,,,,,,,,0.0,9.0,9.0,9.0,1.0,,,,,,,,,,
0.0,1.0,0.519,,,,,,screwdriver02a.jpg,0.0,clockno_default.jpg,2.0,73,,,,,,,,,,,,,,,,,,0.0,10.0,10.0,10.0,1.0,,,,,,,,,,
0.0,1.0,0.656,,,,,,icicle_04s.jpg,0.0,clockno_default.jpg,2.0,73,,,,,,,,,,,,,,,,,,0.0,11.0,11.0,11.0,1.0,,,,,,,,,,
0.0,1.0,0.647,,,,,,radiator_05s.jpg,0.0,clockno_up.jpg,3.0,73,,,,,,,,,,,,,,,,,,0.0,12.0,12.0,12.0,1.0,,,,,,,,,,
0.0,1.0,0.619,,,,,,tupperware_09s.jpg,0.0,clockno_default.jpg,3.0,73,,,,,,,,,,,,,,,,,,0.0,13.0,13.0,13.0,1.0,,,,,,,,,,
0.0,1.0,0.466,,,,,,lantern_04s.jpg,0.0,clockno_default.jpg,3.0,73,,,,,,,,,,,,,,,,,,0.0,14.0,14.0,14.0,1.0,,,,,,,,,,
0.0,1.0,0.573,,,,,,quad_04s.jpg,0.0,clockno_default.jpg,3.0,73,,,,,,,,,,,,,,,,,,0.0,15.0,15.0,15.0,1.0,,,,,,,,,,
0.0,1.0,0.588,,,,,,tape_measure_11s.jpg,0.0,clockno_default.jpg,3.0,73,,,,,,,,,,,,,,,,,,0.0,16.0,16.0,16.0,1.0,,,,,,,,,,
0.0,1.0,0.613,,,,,,roulette_wheel_04s.jpg,0.0,clockno_default.jpg,3.0,73,,,,,,,,,,,,,,,,,,0.0,17.0,17.0,17.0,1.0,,,,,,,,,,
0.0,1.0,0.658,,,,,,microwave_02s.jpg,0.0,clockno_default.jpg,3.0,73,,,,,,,,,,,,,,,,,,0.0,18.0,18.0,18.0,1.0,,,,,,,,,,
0.0,1.0,0.721,,,,,,mop_08s.jpg,0.0,clockno_up.jpg,4.0,73,,,,,,,,,,,,,,,,,,0.0,19.0,19.0,19.0,1.0,,,,,,,,,,
0.0,1.0,0.646,,,,,,pipe1_10s.jpg,0.0,clockno_default.jpg,4.0,73,,,,,,,,,,,,,,,,,,0.0,20.0,20.0,20.0,1.0,,,,,,,,,,
0.0,1.0,0.59,,,,,,possum_09s.jpg,0.0,clockno_default.jpg,4.0,73,,,,,,,,,,,,,,,,,,0.0,21.0,21.0,21.0,1.0,,,,,,,,,,
0.0,1.0,0.541,,,,,,turnstile_08s.jpg,0.0,clockno_default.jpg,4.0,73,,,,,,,,,,,,,,,,,,0.0,22.0,22.0,22.0,1.0,,,,,,,,,,
0.0,1.0,0.696,,,,,,raft_09s.jpg,0.0,clockno_default.jpg,4.0,73,,,,,,,,,,,,,,,,,,0.0,23.0,23.0,23.0,1.0,,,,,,,,,,
0.0,1.0,0.781,,,,,,treadmill_06s.jpg,0.0,clockno_up.jpg,5.0,73,,,,,,,,,,,,,,,,,,0.0,24.0,24.0,24.0,1.0,,,,,,,,,,
0.0,1.0,0.5,,,,,,quad_04s.jpg,0.0,clockno_default.jpg,5.0,73,,,,,,,,,,,,,,,,,,0.0,25.0,25.0,25.0,1.0,,,,,,,,,,
0.0,1.0,0.43,,,,,,mop_08s.jpg,0.0,clockno_default.jpg,5.0,73,,,,,,,,,,,,,,,,,,0.0,26.0,26.0,26.0,1.0,,,,,,,,,,
0.0,1.0,0.856,,,,,,pan_02s.jpg,0.0,clockno_default.jpg,5.0,73,,,,,,,,,,,,,,,,,,0.0,27.0,27.0,27.0,1.0,,,,,,,,,,
0.0,1.0,0.574,,,,,,coconut_08s.jpg,0.0,clockno_default.jpg,5.0,73,,,,,,,,,,,,,,,,,,0.0,28.0,28.0,28.0,1.0,,,,,,,,,,
0.0,1.0,0.99,,,,,,key_07s.jpg,0.0,clockno_default.jpg,5.0,73,,,,,,,,,,,,,,,,,,0.0,29.0,29.0,29.0,1.0,,,,,,,,,,
0.0,1.0,0.567,,,,,,sunflower_17s.jpg,0.0,clockno_default.jpg,5.0,73,,,,,,,,,,,,,,,,,,0.0,30.0,30.0,30.0,1.0,,,,,,,,,,
0.0,1.0,0.919,,,,,,pie_08s.jpg,0.0,clockno_up.jpg,6.0,73,,,,,,,,,,,,,,,,,,0.0,31.0,31.0,31.0,1.0,,,,,,,,,,
0.0,1.0,0.813,,,,,,tape_06s.jpg,0.0,clockno_default.jpg,6.0,73,,,,,,,,,,,,,,,,,,0.0,32.0,32.0,32.0,1.0,,,,,,,,,,
0.0,1.0,0.859,,,,,,rooster_03s.jpg,0.0,clockno_default.jpg,6.0,73,,,,,,,,,,,,,,,,,,0.0,33.0,33.0,33.0,1.0,,,,,,,,,,
0.0,1.0,0.601,,,,,,meatball_13s.jpg,0.0,clockno_default.jpg,6.0,73,,,,,,,,,,,,,,,,,,0.0,34.0,34.0,34.0,1.0,,,,,,,,,,
0.0,1.0,0.455,,,,,,mask_09s.jpg,0.0,clockno_default.jpg,6.0,73,,,,,,,,,,,,,,,,,,0.0,35.0,35.0,35.0,1.0,,,,,,,,,,
,,,,,,,,,1.0,,,73,0.0,0.0,1.105,,,,,,squirt_gun_03s.jpg,radiator_05s.jpg,,,,,,,,,,,,,0.0,0.0,0.0,0.0,1.0,,,,,
,,,,,,,,,0.0,,,73,0.0,1.0,1.013,,,,,,frame_06s.jpg,tripod_01b.jpg,,,,,,,,,,,,,0.0,1.0,1.0,1.0,1.0,,,,,
,,,,,,,,,0.0,,,73,0.0,1.0,1.2,,,,,,submarine_11n.jpg,touchpad_11s.jpg,,,,,,,,,,,,,0.0,2.0,2.0,2.0,1.0,,,,,
,,,,,,,,,1.0,,,73,1.0,1.0,1.106,,,,,,treadmill_06s.jpg,pan_02s.jpg,,,,,,,,,,,,,0.0,3.0,3.0,3.0,1.0,,,,,
,,,,,,,,,1.0,,,73,1.0,1.0,1.258,,,,,,tupperware_09s.jpg,tape_measure_11s.jpg,,,,,,,,,,,,,0.0,4.0,4.0,4.0,1.0,,,,,
,,,,,,,,,0.0,,,73,0.0,1.0,1.017,,,,,,raft_09s.jpg,pipe1_10s.jpg,,,,,,,,,,,,,0.0,5.0,5.0,5.0,1.0,,,,,
,,,,,,,,,,,,73,,,,,,,,,,,,,,,,clockno_present_4_13.xlsx,clockno_compare_task_4_13.xlsx,,,,,,,,,,,0.0,3.0,3.0,3.0,1.0
0.0,1.0,0.848,,,,,,dashboard_02s.jpg,0.0,clockno_up.jpg,1.0,73,,,,,,,,,,,,,,,,,,0.0,0.0,0.0,0.0,1.0,,,,,,,,,,
0.0,1.0,0.454,,,,,,jet_15s.jpg,0.0,clockno_default.jpg,1.0,73,,,,,,,,,,,,,,,,,,0.0,1.0,1.0,1.0,1.0,,,,,,,,,,
0.0,1.0,0.482,,,,,,sushi_08s.jpg,0.0,clockno_default.jpg,1.0,73,,,,,,,,,,,,,,,,,,0.0,2.0,2.0,2.0,1.0,,,,,,,,,,
0.0,1.0,0.568,,,,,,denture_03s.jpg,0.0,clockno_default.jpg,1.0,73,,,,,,,,,,,,,,,,,,0.0,3.0,3.0,3.0,1.0,,,,,,,,,,
0.0,1.0,0.494,,,,,,ironing_board_07s.jpg,0.0,clockno_default.jpg,1.0,73,,,,,,,,,,,,,,,,,,0.0,4.0,4.0,4.0,1.0,,,,,,,,,,
0.0,0.0,0.482,,,,,,jet_15s.jpg,1.0,clockno_default.jpg,1.0,73,,,,,,,,,,,,,,,,,,0.0,5.0,5.0,5.0,1.0,,,,,,,,,,
0.0,1.0,0.774,,,,,,owl_15s.jpg,0.0,clockno_up.jpg,2.0,73,,,,,,,,,,,,,,,,,,0.0,6.0,6.0,6.0,1.0,,,,,,,,,,
0.0,1.0,0.546,,,,,,plaster_cast_13s.jpg,0.0,clockno_default.jpg,2.0,73,,,,,,,,,,,,,,,,,,0.0,7.0,7.0,7.0,1.0,,,,,,,,,,
1.0,1.0,1.655,,,,,,owl_15s.jpg,1.0,clockno_default.jpg,2.0,73,,,,,,,,,,,,,,,,,,0.0,8.0,8.0,8.0,1.0,,,,,,,,,,
0.0,1.0,0.497,,,,,,lab_coat_11s.jpg,0.0,clockno_default.jpg,2.0,73,,,,,,,,,,,,,,,,,,0.0,9.0,9.0,9.0,1.0,,,,,,,,,,
0.0,1.0,0.56,,,,,,mold2_04s.jpg,0.0,clockno_default.jpg,2.0,73,,,,,,,,,,,,,,,,,,0.0,10.0,10.0,10.0,1.0,,,,,,,,,,
0.0,1.0,0.591,,,,,,umbrella_15s.jpg,0.0,clockno_default.jpg,2.0,73,,,,,,,,,,,,,,,,,,0.0,11.0,11.0,11.0,1.0,,,,,,,,,,
0.0,1.0,0.896,,,,,,penlight_12s.jpg,0.0,clockno_up.jpg,3.0,73,,,,,,,,,,,,,,,,,,0.0,12.0,12.0,12.0,1.0,,,,,,,,,,
0.0,1.0,0.587,,,,,,machete_06s.jpg,0.0,clockno_default.jpg,3.0,73,,,,,,,,,,,,,,,,,,0.0,13.0,13.0,13.0,1.0,,,,,,,,,,
1.0,1.0,1.319,,,,,,penlight_12s.jpg,1.0,clockno_default.jpg,3.0,73,,,,,,,,,,,,,,,,,,0.0,14.0,14.0,14.0,1.0,,,,,,,,,,
0.0,1.0,0.588,,,,,,keyhole_03s.jpg,0.0,clockno_default.jpg,3.0,73,,,,,,,,,,,,,,,,,,0.0,15.0,15.0,15.0,1.0,,,,,,,,,,
0.0,1.0,0.523,,,,,,ginger_09s.jpg,0.0,clockno_default.jpg,3.0,73,,,,,,,,,,,,,,,,,,0.0,16.0,16.0,16.0,1.0,,,,,,,,,,
0.0,1.0,0.856,,,,,,emerald_02s.jpg,0.0,clockno_up.jpg,4.0,73,,,,,,,,,,,,,,,,,,0.0,17.0,17.0,17.0,1.0,,,,,,,,,,
0.0,1.0,0.488,,,,,,torch_02s.jpg,0.0,clockno_default.jpg,4.0,73,,,,,,,,,,,,,,,,,,0.0,18.0,18.0,18.0,1.0,,,,,,,,,,
0.0,1.0,0.52,,,,,,flip_flop_03s.jpg,0.0,clockno_default.jpg,4.0,73,,,,,,,,,,,,,,,,,,0.0,19.0,19.0,19.0,1.0,,,,,,,,,,
0.0,1.0,0.558,,,,,,plunger_08s.jpg,0.0,clockno_default.jpg,4.0,73,,,,,,,,,,,,,,,,,,0.0,20.0,20.0,20.0,1.0,,,,,,,,,,
0.0,1.0,0.719,,,,,,thorn_13s.jpg,0.0,clockno_default.jpg,4.0,73,,,,,,,,,,,,,,,,,,0.0,21.0,21.0,21.0,1.0,,,,,,,,,,
0.0,1.0,0.46,,,,,,tongs_08s.jpg,0.0,clockno_default.jpg,4.0,73,,,,,,,,,,,,,,,,,,0.0,22.0,22.0,22.0,1.0,,,,,,,,,,
0.0,1.0,0.59,,,,,,teapot_03s.jpg,0.0,clockno_default.jpg,4.0,73,,,,,,,,,,,,,,,,,,0.0,23.0,23.0,23.0,1.0,,,,,,,,,,
0.0,1.0,0.712,,,,,,tennis_ball_06s.jpg,0.0,clockno_up.jpg,5.0,73,,,,,,,,,,,,,,,,,,0.0,24.0,24.0,24.0,1.0,,,,,,,,,,
0.0,1.0,0.428,,,,,,penlight_12s.jpg,0.0,clockno_default.jpg,5.0,73,,,,,,,,,,,,,,,,,,0.0,25.0,25.0,25.0,1.0,,,,,,,,,,
0.0,1.0,0.485,,,,,,dynamite_01b.jpg,0.0,clockno_default.jpg,5.0,73,,,,,,,,,,,,,,,,,,0.0,26.0,26.0,26.0,1.0,,,,,,,,,,
0.0,1.0,0.565,,,,,,rhubarb_03s.jpg,0.0,clockno_default.jpg,5.0,73,,,,,,,,,,,,,,,,,,0.0,27.0,27.0,27.0,1.0,,,,,,,,,,
0.0,1.0,0.574,,,,,,mango_09s.jpg,0.0,clockno_default.jpg,5.0,73,,,,,,,,,,,,,,,,,,0.0,28.0,28.0,28.0,1.0,,,,,,,,,,
0.0,1.0,0.529,,,,,,pear_02s.jpg,0.0,clockno_default.jpg,5.0,73,,,,,,,,,,,,,,,,,,0.0,29.0,29.0,29.0,1.0,,,,,,,,,,
0.0,1.0,0.629,,,,,,tongs_08s.jpg,0.0,clockno_default.jpg,5.0,73,,,,,,,,,,,,,,,,,,0.0,30.0,30.0,30.0,1.0,,,,,,,,,,
0.0,1.0,0.779,,,,,,rock_08s.jpg,0.0,clockno_up.jpg,6.0,73,,,,,,,,,,,,,,,,,,0.0,31.0,31.0,31.0,1.0,,,,,,,,,,
1.0,1.0,1.003,,,,,,rock_08s.jpg,1.0,clockno_default.jpg,6.0,73,,,,,,,,,,,,,,,,,,0.0,32.0,32.0,32.0,1.0,,,,,,,,,,
0.0,1.0,0.647,,,,,,sunglasses_11s.jpg,0.0,clockno_default.jpg,6.0,73,,,,,,,,,,,,,,,,,,0.0,33.0,33.0,33.0,1.0,,,,,,,,,,
0.0,1.0,0.672,,,,,,phone_01b.jpg,0.0,clockno_default.jpg,6.0,73,,,,,,,,,,,,,,,,,,0.0,34.0,34.0,34.0,1.0,,,,,,,,,,
1.0,1.0,0.977,,,,,,phone_01b.jpg,1.0,clockno_default.jpg,6.0,73,,,,,,,,,,,,,,,,,,0.0,35.0,35.0,35.0,1.0,,,,,,,,,,
,,,,,,,,,1.0,,,73,0.0,0.0,1.065,,,,,,ironing_board_07s.jpg,plaster_cast_13s.jpg,,,,,,,,,,,,,0.0,0.0,0.0,0.0,1.0,,,,,
,,,,,,,,,0.0,,,73,0.0,1.0,1.208,,,,,,torch_02s.jpg,keyhole_03s.jpg,,,,,,,,,,,,,0.0,1.0,1.0,1.0,1.0,,,,,
,,,,,,,,,0.0,,,73,1.0,0.0,1.121,,,,,,flip_flop_03s.jpg,ginger_09s.jpg,,,,,,,,,,,,,0.0,2.0,2.0,2.0,1.0,,,,,
,,,,,,,,,1.0,,,73,0.0,0.0,1.047,,,,,,dashboard_02s.jpg,denture_03s.jpg,,,,,,,,,,,,,0.0,3.0,3.0,3.0,1.0,,,,,
,,,,,,,,,0.0,,,73,0.0,1.0,1.049,,,,,,plunger_08s.jpg,emerald_02s.jpg,,,,,,,,,,,,,0.0,4.0,4.0,4.0,1.0,,,,,
,,,,,,,,,1.0,,,73,1.0,1.0,0.98,,,,,,tennis_ball_06s.jpg,rhubarb_03s.jpg,,,,,,,,,,,,,0.0,5.0,5.0,5.0,1.0,,,,,
,,,,,,,,,,,,73,,,,,,,,,,,,,,,,clockno_present_5_13.xlsx,clockno_compare_task_5_13.xlsx,,,,,,,,,,,0.0,4.0,4.0,4.0,1.0
0.0,1.0,1.069,,,,,,kilt_18s.jpg,0.0,clockno_up.jpg,1.0,73,,,,,,,,,,,,,,,,,,0.0,0.0,0.0,0.0,1.0,,,,,,,,,,
1.0,1.0,0.972,,,,,,kilt_18s.jpg,1.0,clockno_default.jpg,1.0,73,,,,,,,,,,,,,,,,,,0.0,1.0,1.0,1.0,1.0,,,,,,,,,,
0.0,1.0,0.645,,,,,,puddle_02s.jpg,0.0,clockno_default.jpg,1.0,73,,,,,,,,,,,,,,,,,,0.0,2.0,2.0,2.0,1.0,,,,,,,,,,
0.0,1.0,0.601,,,,,,ladle_04s.jpg,0.0,clockno_default.jpg,1.0,73,,,,,,,,,,,,,,,,,,0.0,3.0,3.0,3.0,1.0,,,,,,,,,,
0.0,1.0,0.684,,,,,,mud_13s.jpg,0.0,clockno_default.jpg,1.0,73,,,,,,,,,,,,,,,,,,0.0,4.0,4.0,4.0,1.0,,,,,,,,,,
0.0,1.0,0.748,,,,,,popcorn_09s.jpg,0.0,clockno_up.jpg,2.0,73,,,,,,,,,,,,,,,,,,0.0,5.0,5.0,5.0,1.0,,,,,,,,,,
0.0,1.0,0.427,,,,,,kilt_18s.jpg,0.0,clockno_default.jpg,2.0,73,,,,,,,,,,,,,,,,,,0.0,6.0,6.0,6.0,1.0,,,,,,,,,,
0.0,1.0,0.467,,,,,,lip_gloss_06s.jpg,0.0,clockno_default.jpg,2.0,73,,,,,,,,,,,,,,,,,,0.0,7.0,7.0,7.0,1.0,,,,,,,,,,
0.0,1.0,0.499,,,,,,bottle_opener_11s.jpg,0.0,clockno_default.jpg,2.0,73,,,,,,,,,,,,,,,,,,0.0,8.0,8.0,8.0,1.0,,,,,,,,,,
0.0,1.0,0.562,,,,,,cape_11s.jpg,0.0,clockno_default.jpg,2.0,73,,,,,,,,,,,,,,,,,,0.0,9.0,9.0,9.0,1.0,,,,,,,,,,
0.0,1.0,0.612,,,,,,puddle_02s.jpg,0.0,clockno_default.jpg,2.0,73,,,,,,,,,,,,,,,,,,0.0,10.0,10.0,10.0,1.0,,,,,,,,,,
0.0,1.0,0.578,,,,,,mushroom_10n.jpg,0.0,clockno_default.jpg,2.0,73,,,,,,,,,,,,,,,,,,0.0,11.0,11.0,11.0,1.0,,,,,,,,,,
0.0,1.0,0.696,,,,,,paper_bag_12s.jpg,0.0,clockno_up.jpg,3.0,73,,,,,,,,,,,,,,,,,,0.0,12.0,12.0,12.0,1.0,,,,,,,,,,
0.0,1.0,0.608,,,,,,antenna_01b.jpg,0.0,clockno_default.jpg,3.0,73,,,,,,,,,,,,,,,,,,0.0,13.0,13.0,13.0,1.0,,,,,,,,,,
0.0,1.0,0.933,,,,,,kangaroo_02s.jpg,0.0,clockno_default.jpg,3.0,73,,,,,,,,,,,,,,,,,,0.0,14.0,14.0,14.0,1.0,,,,,,,,,,
0.0,1.0,0.475,,,,,,ring_03s.jpg,0.0,clockno_default.jpg,3.0,73,,,,,,,,,,,,,,,,,,0.0,15.0,15.0,15.0,1.0,,,,,,,,,,
0.0,1.0,0.655,,,,,,pineapple_12s.jpg,0.0,clockno_default.jpg,3.0,73,,,,,,,,,,,,,,,,,,0.0,16.0,16.0,16.0,1.0,,,,,,,,,,
0.0,1.0,0.629,,,,,,pillow_03s.jpg,0.0,clockno_default.jpg,3.0,73,,,,,,,,,,,,,,,,,,0.0,17.0,17.0,17.0,1.0,,,,,,,,,,
0.0,1.0,0.798,,,,,,swan_11s.jpg,0.0,clockno_up.jpg,4.0,73,,,,,,,,,,,,,,,,,,0.0,18.0,18.0,18.0,1.0,,,,,,,,,,
1.0,1.0,1.137,,,,,,swan_11s.jpg,1.0,clockno_default.jpg,4.0,73,,,,,,,,,,,,,,,,,,0.0,19.0,19.0,19.0,1.0,,,,,,,,,,
0.0,1.0,0.941,,,,,,coat_rack_01b.jpg,0.0,clockno_default.jpg,4.0,73,,,,,,,,,,,,,,,,,,0.0,20.0,20.0,20.0,1.0,,,,,,,,,,
0.0,1.0,0.587,,,,,,candy_cane_06s.jpg,0.0,clockno_default.jpg,4.0,73,,,,,,,,,,,,,,,,,,0.0,21.0,21.0,21.0,1.0,,,,,,,,,,
0.0,1.0,0.609,,,,,,swimming_pool_17s.jpg,0.0,clockno_default.jpg,4.0,73,,,,,,,,,,,,,,,,,,0.0,22.0,22.0,22.0,1.0,,,,,,,,,,
0.0,1.0,0.621,,,,,,incense_02s.jpg,0.0,clockno_default.jpg,4.0,73,,,,,,,,,,,,,,,,,,0.0,23.0,23.0,23.0,1.0,,,,,,,,,,
0.0,1.0,0.895,,,,,,coffee_filter_10s.jpg,0.0,clockno_default.jpg,4.0,73,,,,,,,,,,,,,,,,,,0.0,24.0,24.0,24.0,1.0,,,,,,,,,,
0.0,1.0,1.017,,,,,,scooter.jpg,0.0,clockno_up.jpg,5.0,73,,,,,,,,,,,,,,,,,,0.0,25.0,25.0,25.0,1.0,,,,,,,,,,
0.0,1.0,0.616,,,,,,sleeping_bag_12s.jpg,0.0,clockno_default.jpg,5.0,73,,,,,,,,,,,,,,,,,,0.0,26.0,26.0,26.0,1.0,,,,,,,,,,
0.0,1.0,0.549,,,,,,pepper_mill_03s.jpg,0.0,clockno_default.jpg,5.0,73,,,,,,,,,,,,,,,,,,0.0,27.0,27.0,27.0,1.0,,,,,,,,,,
0.0,1.0,0.486,,,,,,gargoyle_08s.jpg,0.0,clockno_default.jpg,5.0,73,,,,,,,,,,,,,,,,,,0.0,28.0,28.0,28.0,1.0,,,,,,,,,,
0.0,1.0,0.471,,,,,,safety_pin_02s.jpg,0.0,clockno_default.jpg,5.0,73,,,,,,,,,,,,,,,,,,0.0,29.0,29.0,29.0,1.0,,,,,,,,,,
0.0,1.0,0.548,,,,,,omelet_07s.jpg,0.0,clockno_default.jpg,5.0,73,,,,,,,,,,,,,,,,,,0.0,30.0,30.0,30.0,1.0,,,,,,,,,,
0.0,1.0,0.714,,,,,,rabbit_03s.jpg,0.0,clockno_up.jpg,6.0,73,,,,,,,,,,,,,,,,,,0.0,31.0,31.0,31.0,1.0,,,,,,,,,,
1.0,1.0,1.029,,,,,,rabbit_03s.jpg,1.0,clockno_default.jpg,6.0,73,,,,,,,,,,,,,,,,,,0.0,32.0,32.0,32.0,1.0,,,,,,,,,,
1.0,1.0,0.974,,,,,,rabbit_03s.jpg,1.0,clockno_default.jpg,6.0,73,,,,,,,,,,,,,,,,,,0.0,33.0,33.0,33.0,1.0,,,,,,,,,,
0.0,1.0,0.617,,,,,,letter_opener_03s.jpg,0.0,clockno_default.jpg,6.0,73,,,,,,,,,,,,,,,,,,0.0,34.0,34.0,34.0,1.0,,,,,,,,,,
0.0,1.0,0.577,,,,,,rice_12s.jpg,0.0,clockno_default.jpg,6.0,73,,,,,,,,,,,,,,,,,,0.0,35.0,35.0,35.0,1.0,,,,,,,,,,
,,,,,,,,,1.0,,,73,0.0,0.0,1.002,,,,,,mud_13s.jpg,lip_gloss_06s.jpg,,,,,,,,,,,,,0.0,0.0,0.0,0.0,1.0,,,,,
,,,,,,,,,1.0,,,73,0.0,0.0,1.095,,,,,,cape_11s.jpg,paper_bag_12s.jpg,,,,,,,,,,,,,0.0,1.0,1.0,1.0,1.0,,,,,
,,,,,,,,,1.0,,,73,1.0,1.0,0.922,,,,,,swimming_pool_17s.jpg,scooter.jpg,,,,,,,,,,,,,0.0,2.0,2.0,2.0,1.0,,,,,
,,,,,,,,,0.0,,,73,0.0,1.0,1.082,,,,,,bottle_opener_11s.jpg,popcorn_09s.jpg,,,,,,,,,,,,,0.0,3.0,3.0,3.0,1.0,,,,,
,,,,,,,,,1.0,,,73,1.0,1.0,0.847,,,,,,antenna_01b.jpg,pineapple_12s.jpg,,,,,,,,,,,,,0.0,4.0,4.0,4.0,1.0,,,,,
,,,,,,,,,1.0,,,73,0.0,0.0,0.819,,,,,,candy_cane_06s.jpg,coffee_filter_10s.jpg,,,,,,,,,,,,,0.0,5.0,5.0,5.0,1.0,,,,,
