key_resp.keys,key_resp.corr,present_segment.thisRepN,present_segment.thisTrialN,present_segment.thisN,present_segment.thisIndex,present_segment.ran,pictures,answer,clock,segment,participant,key_resp.rt,key_resp_2.keys,key_resp_2.corr,key_resp_2.rt,compare_segment.thisRepN,compare_segment.thisTrialN,compare_segment.thisN,compare_segment.thisIndex,compare_segment.ran,item_a,item_b,clock_conditions.thisRepN,clock_conditions.thisTrialN,clock_conditions.thisN,clock_conditions.thisIndex,clock_conditions.ran,present,compare,noclock_present.thisRepN,noclock_present.thisTrialN,noclock_present.thisN,noclock_present.thisIndex,noclock_present.ran,noclock_compare.thisRepN,noclock_compare.thisTrialN,noclock_compare.thisN,noclock_compare.thisIndex,noclock_compare.ran,noclock_conditions.thisRepN,noclock_conditions.thisTrialN,noclock_conditions.thisN,noclock_conditions.thisIndex,noclock_conditions.ran
,0.0,0.0,0.0,0.0,0.0,1.0,jetski_10s.jpg,0.0,clock_7_1.png,1.0,9,,,,,,,,,,,,,,,,,,,,,,,,,,,,,,,,,
,0.0,0.0,1.0,1.0,1.0,1.0,padlock_07s.jpg,0.0,clock_7_2.png,1.0,9,,,,,,,,,,,,,,,,,,,,,,,,,,,,,,,,,
,0.0,0.0,2.0,2.0,2.0,1.0,antenna_01b.jpg,0.0,clock_7_3.png,1.0,9,,,,,,,,,,,,,,,,,,,,,,,,,,,,,,,,,
,0.0,0.0,3.0,3.0,3.0,1.0,rhubarb_03s.jpg,0.0,clock_7_4.png,1.0,9,,,,,,,,,,,,,,,,,,,,,,,,,,,,,,,,,
,0.0,0.0,4.0,4.0,4.0,1.0,jetski_10s.jpg,1.0,clock_7_5.png,1.0,9,,,,,,,,,,,,,,,,,,,,,,,,,,,,,,,,,
,0.0,0.0,5.0,5.0,5.0,1.0,juicer2_06s.jpg,0.0,clock_7_6.png,1.0,9,,,,,,,,,,,,,,,,,,,,,,,,,,,,,,,,,
1.0,1.0,0.0,6.0,6.0,6.0,1.0,padlock_07s.jpg,1.0,clock_7_7.png,1.0,9,1.819,,,,,,,,,,,,,,,,,,,,,,,,,,,,,,,,
0.0,1.0,0.0,7.0,7.0,7.0,1.0,insole_11s.jpg,0.0,clock_5_1.png,2.0,9,1.303065,,,,,,,,,,,,,,,,,,,,,,,,,,,,,,,,
1.0,0.0,0.0,8.0,8.0,8.0,1.0,antenna_01b.jpg,0.0,clock_5_2.png,2.0,9,0.846515,,,,,,,,,,,,,,,,,,,,,,,,,,,,,,,,
0.0,1.0,0.0,9.0,9.0,9.0,1.0,stingray_02s.jpg,0.0,clock_5_3.png,2.0,9,0.651135,,,,,,,,,,,,,,,,,,,,,,,,,,,,,,,,
0.0,1.0,0.0,10.0,10.0,10.0,1.0,lectern_08s.jpg,0.0,clock_5_4.png,2.0,9,0.848465,,,,,,,,,,,,,,,,,,,,,,,,,,,,,,,,
0.0,1.0,0.0,11.0,11.0,11.0,1.0,briefcase_03s.jpg,0.0,clock_5_5.png,2.0,9,0.874265,,,,,,,,,,,,,,,,,,,,,,,,,,,,,,,,
0.0,1.0,0.0,12.0,12.0,12.0,1.0,pepper_mill_03s.jpg,0.0,clock_6_1.png,3.0,9,0.98712,,,,,,,,,,,,,,,,,,,,,,,,,,,,,,,,
0.0,1.0,0.0,13.0,13.0,13.0,1.0,light_switch_02s.jpg,0.0,clock_6_2.png,3.0,9,1.393425,,,,,,,,,,,,,,,,,,,,,,,,,,,,,,,,
0.0,1.0,0.0,14.0,14.0,14.0,1.0,lava_02s.jpg,0.0,clock_6_3.png,3.0,9,0.601455,,,,,,,,,,,,,,,,,,,,,,,,,,,,,,,,
0.0,1.0,0.0,15.0,15.0,15.0,1.0,moth_06n.jpg,0.0,clock_6_4.png,3.0,9,0.75966,,,,,,,,,,,,,,,,,,,,,,,,,,,,,,,,
0.0,1.0,0.0,16.0,16.0,16.0,1.0,pincushion_10s.jpg,0.0,clock_6_5.png,3.0,9,0.76221,,,,,,,,,,,,,,,,,,,,,,,,,,,,,,,,
0.0,1.0,0.0,17.0,17.0,17.0,1.0,quad_04s.jpg,0.0,clock_6_6.png,3.0,9,1.288965,,,,,,,,,,,,,,,,,,,,,,,,,,,,,,,,
0.0,1.0,0.0,18.0,18.0,18.0,1.0,keyhole_03s.jpg,0.0,clock_6_1.png,4.0,9,0.89009,,,,,,,,,,,,,,,,,,,,,,,,,,,,,,,,
0.0,1.0,0.0,19.0,19.0,19.0,1.0,trampoline_13s.jpg,0.0,clock_6_2.png,4.0,9,0.40817,,,,,,,,,,,,,,,,,,,,,,,,,,,,,,,,
1.0,0.0,0.0,20.0,20.0,20.0,1.0,lectern_08s.jpg,0.0,clock_6_3.png,4.0,9,0.88107,,,,,,,,,,,,,,,,,,,,,,,,,,,,,,,,
0.0,1.0,0.0,21.0,21.0,21.0,1.0,fork_04s.jpg,0.0,clock_6_4.png,4.0,9,0.67836,,,,,,,,,,,,,,,,,,,,,,,,,,,,,,,,
0.0,1.0,0.0,22.0,22.0,22.0,1.0,petri_dish_12s.jpg,0.0,clock_6_5.png,4.0,9,0.698975,,,,,,,,,,,,,,,,,,,,,,,,,,,,,,,,
1.0,1.0,0.0,23.0,23.0,23.0,1.0,petri_dish_12s.jpg,1.0,clock_6_6.png,4.0,9,1.207085,,,,,,,,,,,,,,,,,,,,,,,,,,,,,,,,
0.0,1.0,0.0,24.0,24.0,24.0,1.0,metronome_03s.jpg,0.0,clock_7_1.png,5.0,9,0.89672,,,,,,,,,,,,,,,,,,,,,,,,,,,,,,,,
0.0,1.0,0.0,25.0,25.0,25.0,1.0,tiara_05s.jpg,0.0,clock_7_2.png,5.0,9,1.1129,,,,,,,,,,,,,,,,,,,,,,,,,,,,,,,,
0.0,1.0,0.0,26.0,26.0,26.0,1.0,undershirt_02s.jpg,0.0,clock_7_3.png,5.0,9,0.70281,,,,,,,,,,,,,,,,,,,,,,,,,,,,,,,,
0.0,1.0,0.0,27.0,27.0,27.0,1.0,tripod_01b.jpg,0.0,clock_7_4.png,5.0,9,0.597265,,,,,,,,,,,,,,,,,,,,,,,,,,,,,,,,
0.0,1.0,0.0,28.0,28.0,28.0,1.0,parachute_03s.jpg,0.0,clock_7_5.png,5.0,9,0.611185,,,,,,,,,,,,,,,,,,,,,,,,,,,,,,,,
0.0,1.0,0.0,29.0,29.0,29.0,1.0,jelly_bean_06s.jpg,0.0,clock_7_6.png,5.0,9,1.562965,,,,,,,,,,,,,,,,,,,,,,,,,,,,,,,,
0.0,1.0,0.0,30.0,30.0,30.0,1.0,stamp1_11s.jpg,0.0,clock_7_7.png,5.0,9,0.87396,,,,,,,,,,,,,,,,,,,,,,,,,,,,,,,,
0.0,1.0,0.0,31.0,31.0,31.0,1.0,throne_11s.jpg,0.0,clock_5_1.png,6.0,9,0.604915,,,,,,,,,,,,,,,,,,,,,,,,,,,,,,,,
0.0,1.0,0.0,32.0,32.0,32.0,1.0,ice_pack_09s.jpg,0.0,clock_5_2.png,6.0,9,0.556335,,,,,,,,,,,,,,,,,,,,,,,,,,,,,,,,
0.0,1.0,0.0,33.0,33.0,33.0,1.0,latch_15s.jpg,0.0,clock_5_3.png,6.0,9,2.00602,,,,,,,,,,,,,,,,,,,,,,,,,,,,,,,,
0.0,1.0,0.0,34.0,34.0,34.0,1.0,eggshell_14s.jpg,0.0,clock_5_4.png,6.0,9,1.7289,,,,,,,,,,,,,,,,,,,,,,,,,,,,,,,,
0.0,1.0,0.0,35.0,35.0,35.0,1.0,lifesaver_10s.jpg,0.0,clock_5_5.png,6.0,9,1.20724,,,,,,,,,,,,,,,,,,,,,,,,,,,,,,,,
,,,,,,,,1.0,,,9,,0.0,0.0,3.079645,0.0,0.0,0.0,0.0,1.0,stingray_02s.jpg,pepper_mill_03s.jpg,,,,,,,,,,,,,,,,,,,,,,
,,,,,,,,1.0,,,9,,1.0,1.0,1.513515,0.0,1.0,1.0,1.0,1.0,briefcase_03s.jpg,lava_02s.jpg,,,,,,,,,,,,,,,,,,,,,,
,,,,,,,,0.0,,,9,,0.0,1.0,1.83792,0.0,2.0,2.0,2.0,1.0,trampoline_13s.jpg,pincushion_10s.jpg,,,,,,,,,,,,,,,,,,,,,,
,,,,,,,,0.0,,,9,,0.0,1.0,1.34465,0.0,3.0,3.0,3.0,1.0,tripod_01b.jpg,metronome_03s.jpg,,,,,,,,,,,,,,,,,,,,,,
,,,,,,,,0.0,,,9,,0.0,1.0,1.22593,0.0,4.0,4.0,4.0,1.0,parachute_03s.jpg,tiara_05s.jpg,,,,,,,,,,,,,,,,,,,,,,
,,,,,,,,0.0,,,9,,0.0,1.0,1.660015,0.0,5.0,5.0,5.0,1.0,jelly_bean_06s.jpg,undershirt_02s.jpg,,,,,,,,,,,,,,,,,,,,,,
,,,,,,,,,,,9,,,,,,,,,,,,0.0,0.0,0.0,0.0,1.0,clock_present_1_15.xlsx,clock_compare_task_1_15.xlsx,,,,,,,,,,,,,,,
0.0,1.0,0.0,0.0,0.0,0.0,1.0,target_11s.jpg,0.0,clock_6_1.png,1.0,9,0.82706,,,,,,,,,,,,,,,,,,,,,,,,,,,,,,,,
0.0,1.0,0.0,1.0,1.0,1.0,1.0,olive_05s.jpg,0.0,clock_6_2.png,1.0,9,0.802045,,,,,,,,,,,,,,,,,,,,,,,,,,,,,,,,
1.0,1.0,0.0,2.0,2.0,2.0,1.0,olive_05s.jpg,1.0,clock_6_3.png,1.0,9,1.32507,,,,,,,,,,,,,,,,,,,,,,,,,,,,,,,,
0.0,1.0,0.0,3.0,3.0,3.0,1.0,licorice_06s.jpg,0.0,clock_6_4.png,1.0,9,1.19026,,,,,,,,,,,,,,,,,,,,,,,,,,,,,,,,
0.0,1.0,0.0,4.0,4.0,4.0,1.0,sledgehammer_03s.jpg,0.0,clock_6_5.png,1.0,9,1.44375,,,,,,,,,,,,,,,,,,,,,,,,,,,,,,,,
0.0,1.0,0.0,5.0,5.0,5.0,1.0,fur_coat_11s.jpg,0.0,clock_6_6.png,1.0,9,0.574635,,,,,,,,,,,,,,,,,,,,,,,,,,,,,,,,
0.0,1.0,0.0,6.0,6.0,6.0,1.0,rocket_02s.jpg,0.0,clock_6_1.png,2.0,9,0.969085,,,,,,,,,,,,,,,,,,,,,,,,,,,,,,,,
1.0,1.0,0.0,7.0,7.0,7.0,1.0,rocket_02s.jpg,1.0,clock_6_2.png,2.0,9,0.911585,,,,,,,,,,,,,,,,,,,,,,,,,,,,,,,,
1.0,1.0,0.0,8.0,8.0,8.0,1.0,rocket_02s.jpg,1.0,clock_6_3.png,2.0,9,1.13097,,,,,,,,,,,,,,,,,,,,,,,,,,,,,,,,
1.0,1.0,0.0,9.0,9.0,9.0,1.0,rocket_02s.jpg,1.0,clock_6_4.png,2.0,9,0.812205,,,,,,,,,,,,,,,,,,,,,,,,,,,,,,,,
0.0,1.0,0.0,10.0,10.0,10.0,1.0,rug_09s.jpg,0.0,clock_6_5.png,2.0,9,0.98151,,,,,,,,,,,,,,,,,,,,,,,,,,,,,,,,
0.0,1.0,0.0,11.0,11.0,11.0,1.0,peanut_butter_08s.jpg,0.0,clock_6_6.png,2.0,9,0.87379,,,,,,,,,,,,,,,,,,,,,,,,,,,,,,,,
,0.0,0.0,12.0,12.0,12.0,1.0,tie_03s.jpg,0.0,clock_7_1.png,3.0,9,,,,,,,,,,,,,,,,,,,,,,,,,,,,,,,,,
0.0,1.0,0.0,13.0,13.0,13.0,1.0,pillow_03s.jpg,0.0,clock_7_2.png,3.0,9,1.238655,,,,,,,,,,,,,,,,,,,,,,,,,,,,,,,,
1.0,1.0,0.0,14.0,14.0,14.0,1.0,pillow_03s.jpg,1.0,clock_7_3.png,3.0,9,0.6848,,,,,,,,,,,,,,,,,,,,,,,,,,,,,,,,
0.0,1.0,0.0,15.0,15.0,15.0,1.0,beaker_01b.jpg,0.0,clock_7_4.png,3.0,9,1.507905,,,,,,,,,,,,,,,,,,,,,,,,,,,,,,,,
0.0,1.0,0.0,16.0,16.0,16.0,1.0,saddle_06s.jpg,0.0,clock_7_5.png,3.0,9,0.943105,,,,,,,,,,,,,,,,,,,,,,,,,,,,,,,,
0.0,1.0,0.0,17.0,17.0,17.0,1.0,harpoon.jpg,0.0,clock_7_6.png,3.0,9,0.49032,,,,,,,,,,,,,,,,,,,,,,,,,,,,,,,,
0.0,1.0,0.0,18.0,18.0,18.0,1.0,poinsettia_04s.jpg,0.0,clock_7_7.png,3.0,9,0.765225,,,,,,,,,,,,,,,,,,,,,,,,,,,,,,,,
0.0,1.0,0.0,19.0,19.0,19.0,1.0,peeler_06s.jpg,0.0,clock_5_1.png,4.0,9,0.847065,,,,,,,,,,,,,,,,,,,,,,,,,,,,,,,,
0.0,1.0,0.0,20.0,20.0,20.0,1.0,laundry_basket_11s.jpg,0.0,clock_5_2.png,4.0,9,0.51162,,,,,,,,,,,,,,,,,,,,,,,,,,,,,,,,
0.0,1.0,0.0,21.0,21.0,21.0,1.0,blender_08s.jpg,0.0,clock_5_3.png,4.0,9,0.516665,,,,,,,,,,,,,,,,,,,,,,,,,,,,,,,,
1.0,1.0,0.0,22.0,22.0,22.0,1.0,peeler_06s.jpg,1.0,clock_5_4.png,4.0,9,2.39835,,,,,,,,,,,,,,,,,,,,,,,,,,,,,,,,
0.0,1.0,0.0,23.0,23.0,23.0,1.0,puppy_08s.jpg,0.0,clock_5_5.png,4.0,9,1.72996,,,,,,,,,,,,,,,,,,,,,,,,,,,,,,,,
0.0,1.0,0.0,24.0,24.0,24.0,1.0,frog_09s.jpg,0.0,clock_5_1.png,5.0,9,0.714265,,,,,,,,,,,,,,,,,,,,,,,,,,,,,,,,
0.0,1.0,0.0,25.0,25.0,25.0,1.0,mousetrap_15n.jpg,0.0,clock_5_2.png,5.0,9,1.098555,,,,,,,,,,,,,,,,,,,,,,,,,,,,,,,,
0.0,1.0,0.0,26.0,26.0,26.0,1.0,candy_cane_06s.jpg,0.0,clock_5_3.png,5.0,9,0.564575,,,,,,,,,,,,,,,,,,,,,,,,,,,,,,,,
0.0,1.0,0.0,27.0,27.0,27.0,1.0,jewel_01b.jpg,0.0,clock_5_4.png,5.0,9,0.569385,,,,,,,,,,,,,,,,,,,,,,,,,,,,,,,,
0.0,1.0,0.0,28.0,28.0,28.0,1.0,bolo_tie_08s.jpg,0.0,clock_5_5.png,5.0,9,0.430695,,,,,,,,,,,,,,,,,,,,,,,,,,,,,,,,
0.0,1.0,0.0,29.0,29.0,29.0,1.0,paper_towel_03s.jpg,0.0,clock_7_1.png,6.0,9,0.56251,,,,,,,,,,,,,,,,,,,,,,,,,,,,,,,,
1.0,1.0,0.0,30.0,30.0,30.0,1.0,paper_towel_03s.jpg,1.0,clock_7_2.png,6.0,9,0.616045,,,,,,,,,,,,,,,,,,,,,,,,,,,,,,,,
0.0,1.0,0.0,31.0,31.0,31.0,1.0,crossbow_10s.jpg,0.0,clock_7_3.png,6.0,9,0.71407,,,,,,,,,,,,,,,,,,,,,,,,,,,,,,,,
0.0,1.0,0.0,32.0,32.0,32.0,1.0,golf_club_03s.jpg,0.0,clock_7_4.png,6.0,9,1.812655,,,,,,,,,,,,,,,,,,,,,,,,,,,,,,,,
0.0,1.0,0.0,33.0,33.0,33.0,1.0,ring_03s.jpg,0.0,clock_7_5.png,6.0,9,0.943475,,,,,,,,,,,,,,,,,,,,,,,,,,,,,,,,
0.0,1.0,0.0,34.0,34.0,34.0,1.0,roller_coaster_07s.jpg,0.0,clock_7_6.png,6.0,9,0.772675,,,,,,,,,,,,,,,,,,,,,,,,,,,,,,,,
0.0,1.0,0.0,35.0,35.0,35.0,1.0,syringe_02s.jpg,0.0,clock_7_7.png,6.0,9,0.62905,,,,,,,,,,,,,,,,,,,,,,,,,,,,,,,,
,,,,,,,,0.0,,,9,,1.0,0.0,1.53108,0.0,0.0,0.0,0.0,1.0,laundry_basket_11s.jpg,harpoon.jpg,,,,,,,,,,,,,,,,,,,,,,
,,,,,,,,1.0,,,9,,0.0,0.0,2.31022,0.0,1.0,1.0,1.0,1.0,poinsettia_04s.jpg,blender_08s.jpg,,,,,,,,,,,,,,,,,,,,,,
,,,,,,,,1.0,,,9,,1.0,1.0,1.78024,0.0,2.0,2.0,2.0,1.0,puppy_08s.jpg,candy_cane_06s.jpg,,,,,,,,,,,,,,,,,,,,,,
,,,,,,,,1.0,,,9,,1.0,1.0,1.230485,0.0,3.0,3.0,3.0,1.0,target_11s.jpg,licorice_06s.jpg,,,,,,,,,,,,,,,,,,,,,,
,,,,,,,,0.0,,,9,,0.0,1.0,0.967275,0.0,4.0,4.0,4.0,1.0,beaker_01b.jpg,tie_03s.jpg,,,,,,,,,,,,,,,,,,,,,,
,,,,,,,,1.0,,,9,,1.0,1.0,2.113375,0.0,5.0,5.0,5.0,1.0,golf_club_03s.jpg,syringe_02s.jpg,,,,,,,,,,,,,,,,,,,,,,
,,,,,,,,,,,9,,,,,,,,,,,,0.0,1.0,1.0,1.0,1.0,clock_present_2_15.xlsx,clock_compare_task_2_15.xlsx,,,,,,,,,,,,,,,
0.0,1.0,0.0,0.0,0.0,0.0,1.0,squirt_gun_03s.jpg,0.0,clock_6_1.png,1.0,9,0.61557,,,,,,,,,,,,,,,,,,,,,,,,,,,,,,,,
0.0,1.0,0.0,1.0,1.0,1.0,1.0,omelet_07s.jpg,0.0,clock_6_2.png,1.0,9,0.514085,,,,,,,,,,,,,,,,,,,,,,,,,,,,,,,,
0.0,1.0,0.0,2.0,2.0,2.0,1.0,quilt_03s.jpg,0.0,clock_6_3.png,1.0,9,0.402865,,,,,,,,,,,,,,,,,,,,,,,,,,,,,,,,
0.0,1.0,0.0,3.0,3.0,3.0,1.0,muffin_12n.jpg,0.0,clock_6_4.png,1.0,9,0.50327,,,,,,,,,,,,,,,,,,,,,,,,,,,,,,,,
0.0,1.0,0.0,4.0,4.0,4.0,1.0,orange_12s.jpg,0.0,clock_6_5.png,1.0,9,0.000615,,,,,,,,,,,,,,,,,,,,,,,,,,,,,,,,
1.0,1.0,0.0,5.0,5.0,5.0,1.0,squirt_gun_03s.jpg,1.0,clock_6_6.png,1.0,9,0.67193,,,,,,,,,,,,,,,,,,,,,,,,,,,,,,,,
0.0,1.0,0.0,6.0,6.0,6.0,1.0,spider_web_03s.jpg,0.0,clock_7_1.png,2.0,9,1.11713,,,,,,,,,,,,,,,,,,,,,,,,,,,,,,,,
1.0,1.0,0.0,7.0,7.0,7.0,1.0,spider_web_03s.jpg,1.0,clock_7_2.png,2.0,9,0.98608,,,,,,,,,,,,,,,,,,,,,,,,,,,,,,,,
1.0,0.0,0.0,8.0,8.0,8.0,1.0,muffin_12n.jpg,0.0,clock_7_3.png,2.0,9,1.06154,,,,,,,,,,,,,,,,,,,,,,,,,,,,,,,,
1.0,1.0,0.0,9.0,9.0,9.0,1.0,muffin_12n.jpg,1.0,clock_7_4.png,2.0,9,0.66113,,,,,,,,,,,,,,,,,,,,,,,,,,,,,,,,
0.0,1.0,0.0,10.0,10.0,10.0,1.0,boar_10s.jpg,0.0,clock_7_5.png,2.0,9,0.62295,,,,,,,,,,,,,,,,,,,,,,,,,,,,,,,,
0.0,1.0,0.0,11.0,11.0,11.0,1.0,tongs_08s.jpg,0.0,clock_7_6.png,2.0,9,0.43124,,,,,,,,,,,,,,,,,,,,,,,,,,,,,,,,
0.0,1.0,0.0,12.0,12.0,12.0,1.0,toaster_03s.jpg,0.0,clock_7_7.png,2.0,9,1.514965,,,,,,,,,,,,,,,,,,,,,,,,,,,,,,,,
0.0,1.0,0.0,13.0,13.0,13.0,1.0,bacon_05s.jpg,0.0,clock_5_1.png,3.0,9,1.27184,,,,,,,,,,,,,,,,,,,,,,,,,,,,,,,,
0.0,1.0,0.0,14.0,14.0,14.0,1.0,letter_opener_03s.jpg,0.0,clock_5_2.png,3.0,9,0.90351,,,,,,,,,,,,,,,,,,,,,,,,,,,,,,,,
0.0,1.0,0.0,15.0,15.0,15.0,1.0,pipe1_10s.jpg,0.0,clock_5_3.png,3.0,9,0.31884,,,,,,,,,,,,,,,,,,,,,,,,,,,,,,,,
0.0,1.0,0.0,16.0,16.0,16.0,1.0,red_carpet_03s.jpg,0.0,clock_5_4.png,3.0,9,0.678195,,,,,,,,,,,,,,,,,,,,,,,,,,,,,,,,
1.0,1.0,0.0,17.0,17.0,17.0,1.0,pipe1_10s.jpg,1.0,clock_5_5.png,3.0,9,0.686065,,,,,,,,,,,,,,,,,,,,,,,,,,,,,,,,
0.0,1.0,0.0,18.0,18.0,18.0,1.0,fountain_pen_06s.jpg,0.0,clock_5_1.png,4.0,9,0.97874,,,,,,,,,,,,,,,,,,,,,,,,,,,,,,,,
0.0,1.0,0.0,19.0,19.0,19.0,1.0,kimono_13s.jpg,0.0,clock_5_2.png,4.0,9,0.74684,,,,,,,,,,,,,,,,,,,,,,,,,,,,,,,,
0.0,1.0,0.0,20.0,20.0,20.0,1.0,bagel_15s.jpg,0.0,clock_5_3.png,4.0,9,1.748855,,,,,,,,,,,,,,,,,,,,,,,,,,,,,,,,
0.0,1.0,0.0,21.0,21.0,21.0,1.0,marker_05s.jpg,0.0,clock_5_4.png,4.0,9,1.73513,,,,,,,,,,,,,,,,,,,,,,,,,,,,,,,,
0.0,1.0,0.0,22.0,22.0,22.0,1.0,chopsticks_08s.jpg,0.0,clock_5_5.png,4.0,9,1.464555,,,,,,,,,,,,,,,,,,,,,,,,,,,,,,,,
0.0,1.0,0.0,23.0,23.0,23.0,1.0,toy_04s.jpg,0.0,clock_6_1.png,5.0,9,0.81929,,,,,,,,,,,,,,,,,,,,,,,,,,,,,,,,
1.0,1.0,0.0,24.0,24.0,24.0,1.0,toy_04s.jpg,1.0,clock_6_2.png,5.0,9,2.43841,,,,,,,,,,,,,,,,,,,,,,,,,,,,,,,,
0.0,1.0,0.0,25.0,25.0,25.0,1.0,swordfish_05s.jpg,0.0,clock_6_3.png,5.0,9,0.74022,,,,,,,,,,,,,,,,,,,,,,,,,,,,,,,,
0.0,1.0,0.0,26.0,26.0,26.0,1.0,snowman_02s.jpg,0.0,clock_6_4.png,5.0,9,1.52136,,,,,,,,,,,,,,,,,,,,,,,,,,,,,,,,
1.0,1.0,0.0,27.0,27.0,27.0,1.0,snowman_02s.jpg,1.0,clock_6_5.png,5.0,9,0.688285,,,,,,,,,,,,,,,,,,,,,,,,,,,,,,,,
1.0,1.0,0.0,28.0,28.0,28.0,1.0,swordfish_05s.jpg,1.0,clock_6_6.png,5.0,9,0.887645,,,,,,,,,,,,,,,,,,,,,,,,,,,,,,,,
0.0,1.0,0.0,29.0,29.0,29.0,1.0,kayak_08s.jpg,0.0,clock_7_1.png,6.0,9,0.627535,,,,,,,,,,,,,,,,,,,,,,,,,,,,,,,,
0.0,1.0,0.0,30.0,30.0,30.0,1.0,emerald_02s.jpg,0.0,clock_7_2.png,6.0,9,0.60223,,,,,,,,,,,,,,,,,,,,,,,,,,,,,,,,
0.0,1.0,0.0,31.0,31.0,31.0,1.0,fireworks_18s.jpg,0.0,clock_7_3.png,6.0,9,1.7722,,,,,,,,,,,,,,,,,,,,,,,,,,,,,,,,
0.0,1.0,0.0,32.0,32.0,32.0,1.0,lipstick_02s.jpg,0.0,clock_7_4.png,6.0,9,2.15901,,,,,,,,,,,,,,,,,,,,,,,,,,,,,,,,
1.0,1.0,0.0,33.0,33.0,33.0,1.0,fireworks_18s.jpg,1.0,clock_7_5.png,6.0,9,0.9076,,,,,,,,,,,,,,,,,,,,,,,,,,,,,,,,
1.0,1.0,0.0,34.0,34.0,34.0,1.0,kayak_08s.jpg,1.0,clock_7_6.png,6.0,9,0.70599,,,,,,,,,,,,,,,,,,,,,,,,,,,,,,,,
0.0,1.0,0.0,35.0,35.0,35.0,1.0,stump_02s.jpg,0.0,clock_7_7.png,6.0,9,0.62722,,,,,,,,,,,,,,,,,,,,,,,,,,,,,,,,
,,,,,,,,0.0,,,9,,0.0,1.0,1.92311,0.0,0.0,0.0,0.0,1.0,letter_opener_03s.jpg,tongs_08s.jpg,,,,,,,,,,,,,,,,,,,,,,
,,,,,,,,1.0,,,9,,1.0,1.0,1.58121,0.0,1.0,1.0,1.0,1.0,boar_10s.jpg,bacon_05s.jpg,,,,,,,,,,,,,,,,,,,,,,
,,,,,,,,1.0,,,9,,1.0,1.0,2.494995,0.0,2.0,2.0,2.0,1.0,red_carpet_03s.jpg,kimono_13s.jpg,,,,,,,,,,,,,,,,,,,,,,
,,,,,,,,0.0,,,9,,0.0,1.0,0.97942,0.0,3.0,3.0,3.0,1.0,orange_12s.jpg,omelet_07s.jpg,,,,,,,,,,,,,,,,,,,,,,
,,,,,,,,0.0,,,9,,0.0,1.0,3.08106,0.0,4.0,4.0,4.0,1.0,marker_05s.jpg,fountain_pen_06s.jpg,,,,,,,,,,,,,,,,,,,,,,
,,,,,,,,0.0,,,9,,1.0,0.0,2.076285,0.0,5.0,5.0,5.0,1.0,stump_02s.jpg,lipstick_02s.jpg,,,,,,,,,,,,,,,,,,,,,,
,,,,,,,,,,,9,,,,,,,,,,,,0.0,2.0,2.0,2.0,1.0,clock_present_3_15.xlsx,clock_compare_task_3_15.xlsx,,,,,,,,,,,,,,,
0.0,1.0,0.0,0.0,0.0,0.0,1.0,refrigerator_07s.jpg,0.0,clock_6_1.png,1.0,9,0.652255,,,,,,,,,,,,,,,,,,,,,,,,,,,,,,,,
0.0,1.0,0.0,1.0,1.0,1.0,1.0,pencil02a.jpg,0.0,clock_6_2.png,1.0,9,0.896325,,,,,,,,,,,,,,,,,,,,,,,,,,,,,,,,
0.0,1.0,0.0,2.0,2.0,2.0,1.0,crystal_ball_12s.jpg,0.0,clock_6_3.png,1.0,9,0.97705,,,,,,,,,,,,,,,,,,,,,,,,,,,,,,,,
0.0,1.0,0.0,3.0,3.0,3.0,1.0,compass_10n.jpg,0.0,clock_6_4.png,1.0,9,0.47907,,,,,,,,,,,,,,,,,,,,,,,,,,,,,,,,
0.0,1.0,0.0,4.0,4.0,4.0,1.0,kilt_18s.jpg,0.0,clock_6_5.png,1.0,9,0.74919,,,,,,,,,,,,,,,,,,,,,,,,,,,,,,,,
0.0,1.0,0.0,5.0,5.0,5.0,1.0,coat_rack_01b.jpg,0.0,clock_6_6.png,1.0,9,0.9147,,,,,,,,,,,,,,,,,,,,,,,,,,,,,,,,
0.0,1.0,0.0,6.0,6.0,6.0,1.0,prism_10s.jpg,0.0,clock_5_1.png,2.0,9,0.407255,,,,,,,,,,,,,,,,,,,,,,,,,,,,,,,,
1.0,1.0,0.0,7.0,7.0,7.0,1.0,prism_10s.jpg,1.0,clock_5_2.png,2.0,9,1.93636,,,,,,,,,,,,,,,,,,,,,,,,,,,,,,,,
0.0,1.0,0.0,8.0,8.0,8.0,1.0,purse_05s.jpg,0.0,clock_5_3.png,2.0,9,0.59002,,,,,,,,,,,,,,,,,,,,,,,,,,,,,,,,
1.0,0.0,0.0,9.0,9.0,9.0,1.0,refrigerator_07s.jpg,0.0,clock_5_4.png,2.0,9,0.787965,,,,,,,,,,,,,,,,,,,,,,,,,,,,,,,,
0.0,1.0,0.0,10.0,10.0,10.0,1.0,lamb_04s.jpg,0.0,clock_5_5.png,2.0,9,0.58172,,,,,,,,,,,,,,,,,,,,,,,,,,,,,,,,
0.0,1.0,0.0,11.0,11.0,11.0,1.0,leotard_08s.jpg,0.0,clock_6_1.png,3.0,9,0.776465,,,,,,,,,,,,,,,,,,,,,,,,,,,,,,,,
0.0,1.0,0.0,12.0,12.0,12.0,1.0,lavender_10s.jpg,0.0,clock_6_2.png,3.0,9,0.741395,,,,,,,,,,,,,,,,,,,,,,,,,,,,,,,,
0.0,1.0,0.0,13.0,13.0,13.0,1.0,bean_06s.jpg,0.0,clock_6_3.png,3.0,9,0.451665,,,,,,,,,,,,,,,,,,,,,,,,,,,,,,,,
0.0,1.0,0.0,14.0,14.0,14.0,1.0,puddle_02s.jpg,0.0,clock_6_4.png,3.0,9,0.638905,,,,,,,,,,,,,,,,,,,,,,,,,,,,,,,,
1.0,0.0,0.0,15.0,15.0,15.0,1.0,pencil02a.jpg,0.0,clock_6_5.png,3.0,9,1.928935,,,,,,,,,,,,,,,,,,,,,,,,,,,,,,,,
0.0,1.0,0.0,16.0,16.0,16.0,1.0,medal_04s.jpg,0.0,clock_6_6.png,3.0,9,0.79134,,,,,,,,,,,,,,,,,,,,,,,,,,,,,,,,
0.0,1.0,0.0,17.0,17.0,17.0,1.0,lion_18s.jpg,0.0,clock_7_1.png,4.0,9,0.682845,,,,,,,,,,,,,,,,,,,,,,,,,,,,,,,,
0.0,1.0,0.0,18.0,18.0,18.0,1.0,treadmill_06s.jpg,0.0,clock_7_2.png,4.0,9,1.61811,,,,,,,,,,,,,,,,,,,,,,,,,,,,,,,,
0.0,1.0,0.0,19.0,19.0,19.0,1.0,mold2_04s.jpg,0.0,clock_7_3.png,4.0,9,0.5684,,,,,,,,,,,,,,,,,,,,,,,,,,,,,,,,
0.0,1.0,0.0,20.0,20.0,20.0,1.0,pan_02s.jpg,0.0,clock_7_4.png,4.0,9,0.94455,,,,,,,,,,,,,,,,,,,,,,,,,,,,,,,,
0.0,1.0,0.0,21.0,21.0,21.0,1.0,reindeer_08s.jpg,0.0,clock_7_5.png,4.0,9,1.05355,,,,,,,,,,,,,,,,,,,,,,,,,,,,,,,,
0.0,1.0,0.0,22.0,22.0,22.0,1.0,top_hat_11s.jpg,0.0,clock_7_6.png,4.0,9,0.73267,,,,,,,,,,,,,,,,,,,,,,,,,,,,,,,,
1.0,1.0,0.0,23.0,23.0,23.0,1.0,treadmill_06s.jpg,1.0,clock_7_7.png,4.0,9,0.669725,,,,,,,,,,,,,,,,,,,,,,,,,,,,,,,,
0.0,1.0,0.0,24.0,24.0,24.0,1.0,sea_urchin_09s.jpg,0.0,clock_7_1.png,5.0,9,0.97175,,,,,,,,,,,,,,,,,,,,,,,,,,,,,,,,
0.0,1.0,0.0,25.0,25.0,25.0,1.0,breadstick_08s.jpg,0.0,clock_7_2.png,5.0,9,0.805485,,,,,,,,,,,,,,,,,,,,,,,,,,,,,,,,
0.0,1.0,0.0,26.0,26.0,26.0,1.0,rabbit_03s.jpg,0.0,clock_7_3.png,5.0,9,0.64012,,,,,,,,,,,,,,,,,,,,,,,,,,,,,,,,
1.0,1.0,0.0,27.0,27.0,27.0,1.0,sea_urchin_09s.jpg,1.0,clock_7_4.png,5.0,9,1.85636,,,,,,,,,,,,,,,,,,,,,,,,,,,,,,,,
1.0,1.0,0.0,28.0,28.0,28.0,1.0,sea_urchin_09s.jpg,1.0,clock_7_5.png,5.0,9,1.94514,,,,,,,,,,,,,,,,,,,,,,,,,,,,,,,,
0.0,1.0,0.0,29.0,29.0,29.0,1.0,bee_20s.jpg,0.0,clock_7_6.png,5.0,9,0.7833,,,,,,,,,,,,,,,,,,,,,,,,,,,,,,,,
1.0,1.0,0.0,30.0,30.0,30.0,1.0,sea_urchin_09s.jpg,1.0,clock_7_7.png,5.0,9,1.23641,,,,,,,,,,,,,,,,,,,,,,,,,,,,,,,,
0.0,1.0,0.0,31.0,31.0,31.0,1.0,pantyhose_07s.jpg,0.0,clock_5_1.png,6.0,9,1.103705,,,,,,,,,,,,,,,,,,,,,,,,,,,,,,,,
1.0,1.0,0.0,32.0,32.0,32.0,1.0,pantyhose_07s.jpg,1.0,clock_5_2.png,6.0,9,1.33161,,,,,,,,,,,,,,,,,,,,,,,,,,,,,,,,
0.0,1.0,0.0,33.0,33.0,33.0,1.0,birthday_cake_09s.jpg,0.0,clock_5_3.png,6.0,9,1.174,,,,,,,,,,,,,,,,,,,,,,,,,,,,,,,,
0.0,1.0,0.0,34.0,34.0,34.0,1.0,rooster_03s.jpg,0.0,clock_5_4.png,6.0,9,1.403325,,,,,,,,,,,,,,,,,,,,,,,,,,,,,,,,
1.0,1.0,0.0,35.0,35.0,35.0,1.0,rooster_03s.jpg,1.0,clock_5_5.png,6.0,9,0.50873,,,,,,,,,,,,,,,,,,,,,,,,,,,,,,,,
,,,,,,,,0.0,,,9,,0.0,1.0,2.78957,0.0,0.0,0.0,0.0,1.0,purse_05s.jpg,coat_rack_01b.jpg,,,,,,,,,,,,,,,,,,,,,,
,,,,,,,,0.0,,,9,,1.0,0.0,1.663785,0.0,1.0,1.0,1.0,1.0,bean_06s.jpg,lamb_04s.jpg,,,,,,,,,,,,,,,,,,,,,,
,,,,,,,,1.0,,,9,,1.0,1.0,1.424625,0.0,2.0,2.0,2.0,1.0,top_hat_11s.jpg,breadstick_08s.jpg,,,,,,,,,,,,,,,,,,,,,,
,,,,,,,,1.0,,,9,,0.0,0.0,1.365145,0.0,3.0,3.0,3.0,1.0,rabbit_03s.jpg,bee_20s.jpg,,,,,,,,,,,,,,,,,,,,,,
,,,,,,,,0.0,,,9,,1.0,0.0,1.195205,0.0,4.0,4.0,4.0,1.0,pan_02s.jpg,lion_18s.jpg,,,,,,,,,,,,,,,,,,,,,,
,,,,,,,,0.0,,,9,,0.0,1.0,1.196025,0.0,5.0,5.0,5.0,1.0,puddle_02s.jpg,leotard_08s.jpg,,,,,,,,,,,,,,,,,,,,,,
,,,,,,,,,,,9,,,,,,,,,,,,0.0,3.0,3.0,3.0,1.0,clock_present_4_15.xlsx,clock_compare_task_4_15.xlsx,,,,,,,,,,,,,,,
0.0,1.0,0.0,0.0,0.0,0.0,1.0,bowler_hat_10s.jpg,0.0,clock_7_1.png,1.0,9,0.608775,,,,,,,,,,,,,,,,,,,,,,,,,,,,,,,,
0.0,1.0,0.0,1.0,1.0,1.0,1.0,denture_03s.jpg,0.0,clock_7_2.png,1.0,9,0.644505,,,,,,,,,,,,,,,,,,,,,,,,,,,,,,,,
0.0,1.0,0.0,2.0,2.0,2.0,1.0,road_sign_05s.jpg,0.0,clock_7_3.png,1.0,9,0.389805,,,,,,,,,,,,,,,,,,,,,,,,,,,,,,,,
1.0,1.0,0.0,3.0,3.0,3.0,1.0,road_sign_05s.jpg,1.0,clock_7_4.png,1.0,9,1.159455,,,,,,,,,,,,,,,,,,,,,,,,,,,,,,,,
0.0,1.0,0.0,4.0,4.0,4.0,1.0,keyboard_05s.jpg,0.0,clock_7_5.png,1.0,9,0.74424,,,,,,,,,,,,,,,,,,,,,,,,,,,,,,,,
1.0,1.0,0.0,5.0,5.0,5.0,1.0,keyboard_05s.jpg,1.0,clock_7_6.png,1.0,9,1.964555,,,,,,,,,,,,,,,,,,,,,,,,,,,,,,,,
0.0,1.0,0.0,6.0,6.0,6.0,1.0,pinwheel_06s.jpg,0.0,clock_7_7.png,1.0,9,1.653385,,,,,,,,,,,,,,,,,,,,,,,,,,,,,,,,
0.0,1.0,0.0,7.0,7.0,7.0,1.0,giraffe_11s.jpg,0.0,clock_6_1.png,2.0,9,0.65056,,,,,,,,,,,,,,,,,,,,,,,,,,,,,,,,
0.0,1.0,0.0,8.0,8.0,8.0,1.0,scooter.jpg,0.0,clock_6_2.png,2.0,9,2.30249,,,,,,,,,,,,,,,,,,,,,,,,,,,,,,,,
0.0,1.0,0.0,9.0,9.0,9.0,1.0,turkey_10s.jpg,0.0,clock_6_3.png,2.0,9,1.00368,,,,,,,,,,,,,,,,,,,,,,,,,,,,,,,,
0.0,1.0,0.0,10.0,10.0,10.0,1.0,bubble_01b.jpg,0.0,clock_6_4.png,2.0,9,0.476965,,,,,,,,,,,,,,,,,,,,,,,,,,,,,,,,
0.0,1.0,0.0,11.0,11.0,11.0,1.0,mixer_12s.jpg,0.0,clock_6_5.png,2.0,9,0.543905,,,,,,,,,,,,,,,,,,,,,,,,,,,,,,,,
0.0,1.0,0.0,12.0,12.0,12.0,1.0,gear_07s.jpg,0.0,clock_6_6.png,2.0,9,0.604745,,,,,,,,,,,,,,,,,,,,,,,,,,,,,,,,
0.0,1.0,0.0,13.0,13.0,13.0,1.0,mannequin_05s.jpg,0.0,clock_6_1.png,3.0,9,0.90783,,,,,,,,,,,,,,,,,,,,,,,,,,,,,,,,
0.0,1.0,0.0,14.0,14.0,14.0,1.0,cap_05s.jpg,0.0,clock_6_2.png,3.0,9,0.95581,,,,,,,,,,,,,,,,,,,,,,,,,,,,,,,,
0.0,1.0,0.0,15.0,15.0,15.0,1.0,gazelle_10s.jpg,0.0,clock_6_3.png,3.0,9,0.668745,,,,,,,,,,,,,,,,,,,,,,,,,,,,,,,,
1.0,1.0,0.0,16.0,16.0,16.0,1.0,gazelle_10s.jpg,1.0,clock_6_4.png,3.0,9,0.607185,,,,,,,,,,,,,,,,,,,,,,,,,,,,,,,,
0.0,1.0,0.0,17.0,17.0,17.0,1.0,projector_08s.jpg,0.0,clock_6_5.png,3.0,9,0.674875,,,,,,,,,,,,,,,,,,,,,,,,,,,,,,,,
1.0,1.0,0.0,18.0,18.0,18.0,1.0,mannequin_05s.jpg,1.0,clock_6_6.png,3.0,9,0.840895,,,,,,,,,,,,,,,,,,,,,,,,,,,,,,,,
0.0,1.0,0.0,19.0,19.0,19.0,1.0,fishhook_06s.jpg,0.0,clock_5_1.png,4.0,9,0.64973,,,,,,,,,,,,,,,,,,,,,,,,,,,,,,,,
0.0,1.0,0.0,20.0,20.0,20.0,1.0,buoy_04s.jpg,0.0,clock_5_2.png,4.0,9,0.79548,,,,,,,,,,,,,,,,,,,,,,,,,,,,,,,,
0.0,1.0,0.0,21.0,21.0,21.0,1.0,ant_12s.jpg,0.0,clock_5_3.png,4.0,9,0.582335,,,,,,,,,,,,,,,,,,,,,,,,,,,,,,,,
0.0,1.0,0.0,22.0,22.0,22.0,1.0,tab_09s.jpg,0.0,clock_5_4.png,4.0,9,0.54623,,,,,,,,,,,,,,,,,,,,,,,,,,,,,,,,
0.0,1.0,0.0,23.0,23.0,23.0,1.0,footprint_11s.jpg,0.0,clock_5_5.png,4.0,9,0.784225,,,,,,,,,,,,,,,,,,,,,,,,,,,,,,,,
0.0,1.0,0.0,24.0,24.0,24.0,1.0,blazer_02s.jpg,0.0,clock_7_1.png,5.0,9,0.695975,,,,,,,,,,,,,,,,,,,,,,,,,,,,,,,,
0.0,1.0,0.0,25.0,25.0,25.0,1.0,eyedropper_12s.jpg,0.0,clock_7_2.png,5.0,9,0.844785,,,,,,,,,,,,,,,,,,,,,,,,,,,,,,,,
1.0,0.0,0.0,26.0,26.0,26.0,1.0,bowler_hat_10s.jpg,0.0,clock_7_3.png,5.0,9,0.773175,,,,,,,,,,,,,,,,,,,,,,,,,,,,,,,,
1.0,1.0,0.0,27.0,27.0,27.0,1.0,eyedropper_12s.jpg,1.0,clock_7_4.png,5.0,9,1.473,,,,,,,,,,,,,,,,,,,,,,,,,,,,,,,,
0.0,1.0,0.0,28.0,28.0,28.0,1.0,incense_02s.jpg,0.0,clock_7_5.png,5.0,9,0.751315,,,,,,,,,,,,,,,,,,,,,,,,,,,,,,,,
0.0,1.0,0.0,29.0,29.0,29.0,1.0,loom_05s.jpg,0.0,clock_7_6.png,5.0,9,1.200765,,,,,,,,,,,,,,,,,,,,,,,,,,,,,,,,
0.0,1.0,0.0,30.0,30.0,30.0,1.0,cape_11s.jpg,0.0,clock_7_7.png,5.0,9,0.862165,,,,,,,,,,,,,,,,,,,,,,,,,,,,,,,,
0.0,1.0,0.0,31.0,31.0,31.0,1.0,coconut_08s.jpg,0.0,clock_5_1.png,6.0,9,1.13123,,,,,,,,,,,,,,,,,,,,,,,,,,,,,,,,
1.0,0.0,0.0,32.0,32.0,32.0,1.0,road_sign_05s.jpg,0.0,clock_5_2.png,6.0,9,2.42089,,,,,,,,,,,,,,,,,,,,,,,,,,,,,,,,
0.0,1.0,0.0,33.0,33.0,33.0,1.0,screwdriver02a.jpg,0.0,clock_5_3.png,6.0,9,0.51362,,,,,,,,,,,,,,,,,,,,,,,,,,,,,,,,
0.0,1.0,0.0,34.0,34.0,34.0,1.0,turnstile_08s.jpg,0.0,clock_5_4.png,6.0,9,0.978765,,,,,,,,,,,,,,,,,,,,,,,,,,,,,,,,
0.0,1.0,0.0,35.0,35.0,35.0,1.0,peppermint_07s.jpg,0.0,clock_5_5.png,6.0,9,1.03641,,,,,,,,,,,,,,,,,,,,,,,,,,,,,,,,
,,,,,,,,1.0,,,9,,0.0,0.0,1.80169,0.0,0.0,0.0,0.0,1.0,ant_12s.jpg,blazer_02s.jpg,,,,,,,,,,,,,,,,,,,,,,
,,,,,,,,1.0,,,9,,1.0,1.0,2.181985,0.0,1.0,1.0,1.0,1.0,cape_11s.jpg,screwdriver02a.jpg,,,,,,,,,,,,,,,,,,,,,,
,,,,,,,,1.0,,,9,,0.0,0.0,0.96566,0.0,2.0,2.0,2.0,1.0,pinwheel_06s.jpg,turkey_10s.jpg,,,,,,,,,,,,,,,,,,,,,,
,,,,,,,,1.0,,,9,,0.0,0.0,1.44794,0.0,3.0,3.0,3.0,1.0,giraffe_11s.jpg,bubble_01b.jpg,,,,,,,,,,,,,,,,,,,,,,
,,,,,,,,0.0,,,9,,1.0,0.0,1.967635,0.0,4.0,4.0,4.0,1.0,tab_09s.jpg,fishhook_06s.jpg,,,,,,,,,,,,,,,,,,,,,,
,,,,,,,,0.0,,,9,,1.0,0.0,1.596895,0.0,5.0,5.0,5.0,1.0,mixer_12s.jpg,scooter.jpg,,,,,,,,,,,,,,,,,,,,,,
,,,,,,,,,,,9,,,,,,,,,,,,0.0,4.0,4.0,4.0,1.0,clock_present_5_15.xlsx,clock_compare_task_5_15.xlsx,,,,,,,,,,,,,,,
0.0,1.0,0.0,0.0,0.0,0.0,1.0,glue_01s.jpg,0.0,clock_7_1.png,1.0,9,2.39765,,,,,,,,,,,,,,,,,,,,,,,,,,,,,,,,
1.0,1.0,0.0,1.0,1.0,1.0,1.0,glue_01s.jpg,1.0,clock_7_2.png,1.0,9,1.304795,,,,,,,,,,,,,,,,,,,,,,,,,,,,,,,,
0.0,1.0,0.0,2.0,2.0,2.0,1.0,tape_06s.jpg,0.0,clock_7_3.png,1.0,9,1.34822,,,,,,,,,,,,,,,,,,,,,,,,,,,,,,,,
1.0,1.0,0.0,3.0,3.0,3.0,1.0,glue_01s.jpg,1.0,clock_7_4.png,1.0,9,0.561675,,,,,,,,,,,,,,,,,,,,,,,,,,,,,,,,
1.0,1.0,0.0,4.0,4.0,4.0,1.0,glue_01s.jpg,1.0,clock_7_5.png,1.0,9,0.52125,,,,,,,,,,,,,,,,,,,,,,,,,,,,,,,,
0.0,1.0,0.0,5.0,5.0,5.0,1.0,powder_07s.jpg,0.0,clock_7_6.png,1.0,9,1.15761,,,,,,,,,,,,,,,,,,,,,,,,,,,,,,,,
0.0,1.0,0.0,6.0,6.0,6.0,1.0,swan_11s.jpg,0.0,clock_7_7.png,1.0,9,0.65731,,,,,,,,,,,,,,,,,,,,,,,,,,,,,,,,
0.0,1.0,0.0,7.0,7.0,7.0,1.0,badge_03s.jpg,0.0,clock_5_1.png,2.0,9,1.868645,,,,,,,,,,,,,,,,,,,,,,,,,,,,,,,,
0.0,1.0,0.0,8.0,8.0,8.0,1.0,turf_03s.jpg,0.0,clock_5_2.png,2.0,9,1.213935,,,,,,,,,,,,,,,,,,,,,,,,,,,,,,,,
0.0,1.0,0.0,9.0,9.0,9.0,1.0,stapler_01b.jpg,0.0,clock_5_3.png,2.0,9,0.729235,,,,,,,,,,,,,,,,,,,,,,,,,,,,,,,,
0.0,1.0,0.0,10.0,10.0,10.0,1.0,taxi_15s.jpg,0.0,clock_5_4.png,2.0,9,0.88899,,,,,,,,,,,,,,,,,,,,,,,,,,,,,,,,
1.0,1.0,0.0,11.0,11.0,11.0,1.0,turf_03s.jpg,1.0,clock_5_5.png,2.0,9,0.755465,,,,,,,,,,,,,,,,,,,,,,,,,,,,,,,,
0.0,1.0,0.0,12.0,12.0,12.0,1.0,turtleneck_11s.jpg,0.0,clock_5_1.png,3.0,9,0.52238,,,,,,,,,,,,,,,,,,,,,,,,,,,,,,,,
0.0,1.0,0.0,13.0,13.0,13.0,1.0,safety_pin_02s.jpg,0.0,clock_5_2.png,3.0,9,0.638945,,,,,,,,,,,,,,,,,,,,,,,,,,,,,,,,
1.0,0.0,0.0,14.0,14.0,14.0,1.0,powder_07s.jpg,0.0,clock_5_3.png,3.0,9,0.752305,,,,,,,,,,,,,,,,,,,,,,,,,,,,,,,,
0.0,1.0,0.0,15.0,15.0,15.0,1.0,lizard_10n.jpg,0.0,clock_5_4.png,3.0,9,1.66627,,,,,,,,,,,,,,,,,,,,,,,,,,,,,,,,
0.0,1.0,0.0,16.0,16.0,16.0,1.0,crate_05s.jpg,0.0,clock_5_5.png,3.0,9,0.727145,,,,,,,,,,,,,,,,,,,,,,,,,,,,,,,,
0.0,1.0,0.0,17.0,17.0,17.0,1.0,tablet_04s.jpg,0.0,clock_7_1.png,4.0,9,1.47109,,,,,,,,,,,,,,,,,,,,,,,,,,,,,,,,
,0.0,0.0,18.0,18.0,18.0,1.0,rudder_02s.jpg,0.0,clock_7_2.png,4.0,9,,,,,,,,,,,,,,,,,,,,,,,,,,,,,,,,,
1.0,0.0,0.0,19.0,19.0,19.0,1.0,lizard_10n.jpg,0.0,clock_7_3.png,4.0,9,0.694605,,,,,,,,,,,,,,,,,,,,,,,,,,,,,,,,
0.0,1.0,0.0,20.0,20.0,20.0,1.0,limousine_12s.jpg,0.0,clock_7_4.png,4.0,9,0.652815,,,,,,,,,,,,,,,,,,,,,,,,,,,,,,,,
0.0,1.0,0.0,21.0,21.0,21.0,1.0,sleeping_bag_12s.jpg,0.0,clock_7_5.png,4.0,9,0.901755,,,,,,,,,,,,,,,,,,,,,,,,,,,,,,,,
0.0,1.0,0.0,22.0,22.0,22.0,1.0,tennis_ball_06s.jpg,0.0,clock_7_6.png,4.0,9,0.52248,,,,,,,,,,,,,,,,,,,,,,,,,,,,,,,,
0.0,1.0,0.0,23.0,23.0,23.0,1.0,pea_11s.jpg,0.0,clock_7_7.png,4.0,9,0.529415,,,,,,,,,,,,,,,,,,,,,,,,,,,,,,,,
0.0,1.0,0.0,24.0,24.0,24.0,1.0,tile_08s.jpg,0.0,clock_6_1.png,5.0,9,0.58456,,,,,,,,,,,,,,,,,,,,,,,,,,,,,,,,
0.0,1.0,0.0,25.0,25.0,25.0,1.0,paper_bag_12s.jpg,0.0,clock_6_2.png,5.0,9,0.47066,,,,,,,,,,,,,,,,,,,,,,,,,,,,,,,,
0.0,1.0,0.0,26.0,26.0,26.0,1.0,umbrella_15s.jpg,0.0,clock_6_3.png,5.0,9,0.49263,,,,,,,,,,,,,,,,,,,,,,,,,,,,,,,,
1.0,1.0,0.0,27.0,27.0,27.0,1.0,umbrella_15s.jpg,1.0,clock_6_4.png,5.0,9,1.854675,,,,,,,,,,,,,,,,,,,,,,,,,,,,,,,,
0.0,1.0,0.0,28.0,28.0,28.0,1.0,bank_06s.jpg,0.0,clock_6_5.png,5.0,9,0.581115,,,,,,,,,,,,,,,,,,,,,,,,,,,,,,,,
1.0,1.0,0.0,29.0,29.0,29.0,1.0,bank_06s.jpg,1.0,clock_6_6.png,5.0,9,0.81168,,,,,,,,,,,,,,,,,,,,,,,,,,,,,,,,
0.0,1.0,0.0,30.0,30.0,30.0,1.0,crayon_09s.jpg,0.0,clock_6_1.png,6.0,9,0.602445,,,,,,,,,,,,,,,,,,,,,,,,,,,,,,,,
0.0,1.0,0.0,31.0,31.0,31.0,1.0,amber_04s.jpg,0.0,clock_6_2.png,6.0,9,0.47926,,,,,,,,,,,,,,,,,,,,,,,,,,,,,,,,
0.0,1.0,0.0,32.0,32.0,32.0,1.0,towel_rack_04s.jpg,0.0,clock_6_3.png,6.0,9,0.775025,,,,,,,,,,,,,,,,,,,,,,,,,,,,,,,,
0.0,1.0,0.0,33.0,33.0,33.0,1.0,puck_06s.jpg,0.0,clock_6_4.png,6.0,9,0.664665,,,,,,,,,,,,,,,,,,,,,,,,,,,,,,,,
0.0,1.0,0.0,34.0,34.0,34.0,1.0,iron_13s.jpg,0.0,clock_6_5.png,6.0,9,0.568715,,,,,,,,,,,,,,,,,,,,,,,,,,,,,,,,
0.0,1.0,0.0,35.0,35.0,35.0,1.0,rocking_chair_05s.jpg,0.0,clock_6_6.png,6.0,9,0.50644,,,,,,,,,,,,,,,,,,,,,,,,,,,,,,,,
,,,,,,,,0.0,,,9,,0.0,1.0,3.509505,0.0,0.0,0.0,0.0,1.0,stapler_01b.jpg,swan_11s.jpg,,,,,,,,,,,,,,,,,,,,,,
,,,,,,,,1.0,,,9,,1.0,1.0,1.770775,0.0,1.0,1.0,1.0,1.0,tennis_ball_06s.jpg,paper_bag_12s.jpg,,,,,,,,,,,,,,,,,,,,,,
,,,,,,,,0.0,,,9,,1.0,0.0,2.30231,0.0,2.0,2.0,2.0,1.0,tile_08s.jpg,sleeping_bag_12s.jpg,,,,,,,,,,,,,,,,,,,,,,
,,,,,,,,1.0,,,9,,0.0,0.0,1.64897,0.0,3.0,3.0,3.0,1.0,tablet_04s.jpg,limousine_12s.jpg,,,,,,,,,,,,,,,,,,,,,,
,,,,,,,,1.0,,,9,,1.0,1.0,1.295125,0.0,4.0,4.0,4.0,1.0,crayon_09s.jpg,puck_06s.jpg,,,,,,,,,,,,,,,,,,,,,,
,,,,,,,,1.0,,,9,,0.0,0.0,1.79372,0.0,5.0,5.0,5.0,1.0,amber_04s.jpg,iron_13s.jpg,,,,,,,,,,,,,,,,,,,,,,
0.0,1.0,,,,,,lasagna_06s.jpg,0.0,clockno_up.jpg,1.0,9,1.46435,,,,,,,,,,,,,,,,,,0.0,0.0,0.0,0.0,1.0,,,,,,,,,,
0.0,1.0,,,,,,kitten_07s.jpg,0.0,clockno_default.jpg,1.0,9,1.624215,,,,,,,,,,,,,,,,,,0.0,1.0,1.0,1.0,1.0,,,,,,,,,,
0.0,1.0,,,,,,dashboard_02s.jpg,0.0,clockno_default.jpg,1.0,9,0.435455,,,,,,,,,,,,,,,,,,0.0,2.0,2.0,2.0,1.0,,,,,,,,,,
0.0,1.0,,,,,,tattoo_14s.jpg,0.0,clockno_default.jpg,1.0,9,0.614665,,,,,,,,,,,,,,,,,,0.0,3.0,3.0,3.0,1.0,,,,,,,,,,
0.0,1.0,,,,,,razor_12s.jpg,0.0,clockno_default.jpg,1.0,9,0.48655,,,,,,,,,,,,,,,,,,0.0,4.0,4.0,4.0,1.0,,,,,,,,,,
0.0,1.0,,,,,,pumpkin_03s.jpg,0.0,clockno_default.jpg,1.0,9,0.73526,,,,,,,,,,,,,,,,,,0.0,5.0,5.0,5.0,1.0,,,,,,,,,,
0.0,1.0,,,,,,doily_13s.jpg,0.0,clockno_default.jpg,1.0,9,0.52045,,,,,,,,,,,,,,,,,,0.0,6.0,6.0,6.0,1.0,,,,,,,,,,
0.0,1.0,,,,,,lollipop_08s.jpg,0.0,clockno_up.jpg,2.0,9,0.560195,,,,,,,,,,,,,,,,,,0.0,7.0,7.0,7.0,1.0,,,,,,,,,,
0.0,1.0,,,,,,measuring_cup_02s.jpg,0.0,clockno_default.jpg,2.0,9,1.92455,,,,,,,,,,,,,,,,,,0.0,8.0,8.0,8.0,1.0,,,,,,,,,,
0.0,1.0,,,,,,puffin_19s.jpg,0.0,clockno_default.jpg,2.0,9,0.77123,,,,,,,,,,,,,,,,,,0.0,9.0,9.0,9.0,1.0,,,,,,,,,,
0.0,1.0,,,,,,ukulele_02s.jpg,0.0,clockno_default.jpg,2.0,9,0.51741,,,,,,,,,,,,,,,,,,0.0,10.0,10.0,10.0,1.0,,,,,,,,,,
0.0,1.0,,,,,,plunger_08s.jpg,0.0,clockno_default.jpg,2.0,9,0.70011,,,,,,,,,,,,,,,,,,0.0,11.0,11.0,11.0,1.0,,,,,,,,,,
1.0,1.0,,,,,,plunger_08s.jpg,1.0,clockno_default.jpg,2.0,9,0.609005,,,,,,,,,,,,,,,,,,0.0,12.0,12.0,12.0,1.0,,,,,,,,,,
0.0,1.0,,,,,,tupperware_09s.jpg,0.0,clockno_up.jpg,3.0,9,0.755425,,,,,,,,,,,,,,,,,,0.0,13.0,13.0,13.0,1.0,,,,,,,,,,
1.0,1.0,,,,,,tupperware_09s.jpg,1.0,clockno_default.jpg,3.0,9,2.021825,,,,,,,,,,,,,,,,,,0.0,14.0,14.0,14.0,1.0,,,,,,,,,,
1.0,0.0,,,,,,puffin_19s.jpg,0.0,clockno_default.jpg,3.0,9,1.354645,,,,,,,,,,,,,,,,,,0.0,15.0,15.0,15.0,1.0,,,,,,,,,,
1.0,1.0,,,,,,tupperware_09s.jpg,1.0,clockno_default.jpg,3.0,9,0.794295,,,,,,,,,,,,,,,,,,0.0,16.0,16.0,16.0,1.0,,,,,,,,,,
0.0,1.0,,,,,,thread_08s.jpg,0.0,clockno_default.jpg,3.0,9,0.61732,,,,,,,,,,,,,,,,,,0.0,17.0,17.0,17.0,1.0,,,,,,,,,,
0.0,1.0,,,,,,knot_01b.jpg,0.0,clockno_default.jpg,3.0,9,0.671425,,,,,,,,,,,,,,,,,,0.0,18.0,18.0,18.0,1.0,,,,,,,,,,
0.0,1.0,,,,,,tulip_02s.jpg,0.0,clockno_up.jpg,4.0,9,0.4051,,,,,,,,,,,,,,,,,,0.0,19.0,19.0,19.0,1.0,,,,,,,,,,
0.0,1.0,,,,,,oil_02s.jpg,0.0,clockno_default.jpg,4.0,9,1.014985,,,,,,,,,,,,,,,,,,0.0,20.0,20.0,20.0,1.0,,,,,,,,,,
0.0,1.0,,,,,,luggage_08s.jpg,0.0,clockno_default.jpg,4.0,9,0.699585,,,,,,,,,,,,,,,,,,0.0,21.0,21.0,21.0,1.0,,,,,,,,,,
0.0,1.0,,,,,,treasure_08s.jpg,0.0,clockno_default.jpg,4.0,9,0.51059,,,,,,,,,,,,,,,,,,0.0,22.0,22.0,22.0,1.0,,,,,,,,,,
0.0,1.0,,,,,,mango_09s.jpg,0.0,clockno_default.jpg,4.0,9,0.51528,,,,,,,,,,,,,,,,,,0.0,23.0,23.0,23.0,1.0,,,,,,,,,,
0.0,1.0,,,,,,printer_09s.jpg,0.0,clockno_default.jpg,4.0,9,0.889995,,,,,,,,,,,,,,,,,,0.0,24.0,24.0,24.0,1.0,,,,,,,,,,
0.0,1.0,,,,,,pump_11s.jpg,0.0,clockno_default.jpg,4.0,9,0.57542,,,,,,,,,,,,,,,,,,0.0,25.0,25.0,25.0,1.0,,,,,,,,,,
0.0,1.0,,,,,,sugar_cube_11s.jpg,0.0,clockno_up.jpg,5.0,9,0.30277,,,,,,,,,,,,,,,,,,0.0,26.0,26.0,26.0,1.0,,,,,,,,,,
0.0,1.0,,,,,,cotton_candy_01b.jpg,0.0,clockno_default.jpg,5.0,9,0.305225,,,,,,,,,,,,,,,,,,0.0,27.0,27.0,27.0,1.0,,,,,,,,,,
,0.0,,,,,,treasure_08s.jpg,0.0,clockno_default.jpg,5.0,9,,,,,,,,,,,,,,,,,,,0.0,28.0,28.0,28.0,1.0,,,,,,,,,,
1.0,1.0,,,,,,cotton_candy_01b.jpg,1.0,clockno_default.jpg,5.0,9,1.14468,,,,,,,,,,,,,,,,,,0.0,29.0,29.0,29.0,1.0,,,,,,,,,,
0.0,1.0,,,,,,popsicle_02s.jpg,0.0,clockno_default.jpg,5.0,9,0.71625,,,,,,,,,,,,,,,,,,0.0,30.0,30.0,30.0,1.0,,,,,,,,,,
0.0,1.0,,,,,,polar_bear_02s.jpg,0.0,clockno_up.jpg,6.0,9,0.44575,,,,,,,,,,,,,,,,,,0.0,31.0,31.0,31.0,1.0,,,,,,,,,,
0.0,1.0,,,,,,leash_10s.jpg,0.0,clockno_default.jpg,6.0,9,0.688815,,,,,,,,,,,,,,,,,,0.0,32.0,32.0,32.0,1.0,,,,,,,,,,
0.0,1.0,,,,,,rocking_horse_03s.jpg,0.0,clockno_default.jpg,6.0,9,0.494195,,,,,,,,,,,,,,,,,,0.0,33.0,33.0,33.0,1.0,,,,,,,,,,
1.0,1.0,,,,,,leash_10s.jpg,1.0,clockno_default.jpg,6.0,9,2.26545,,,,,,,,,,,,,,,,,,0.0,34.0,34.0,34.0,1.0,,,,,,,,,,
1.0,1.0,,,,,,leash_10s.jpg,1.0,clockno_default.jpg,6.0,9,1.015035,,,,,,,,,,,,,,,,,,0.0,35.0,35.0,35.0,1.0,,,,,,,,,,
,,,,,,,,1.0,,,9,,1.0,1.0,1.66986,,,,,,popsicle_02s.jpg,rocking_horse_03s.jpg,,,,,,,,,,,,,0.0,0.0,0.0,0.0,1.0,,,,,
,,,,,,,,1.0,,,9,,0.0,0.0,0.853725,,,,,,pumpkin_03s.jpg,measuring_cup_02s.jpg,,,,,,,,,,,,,0.0,1.0,1.0,1.0,1.0,,,,,
,,,,,,,,1.0,,,9,,0.0,0.0,1.25998,,,,,,thread_08s.jpg,oil_02s.jpg,,,,,,,,,,,,,0.0,2.0,2.0,2.0,1.0,,,,,
,,,,,,,,1.0,,,9,,0.0,0.0,0.936625,,,,,,lasagna_06s.jpg,tattoo_14s.jpg,,,,,,,,,,,,,0.0,3.0,3.0,3.0,1.0,,,,,
,,,,,,,,1.0,,,9,,0.0,0.0,1.51828,,,,,,kitten_07s.jpg,razor_12s.jpg,,,,,,,,,,,,,0.0,4.0,4.0,4.0,1.0,,,,,
,,,,,,,,1.0,,,9,,1.0,1.0,1.591255,,,,,,lollipop_08s.jpg,ukulele_02s.jpg,,,,,,,,,,,,,0.0,5.0,5.0,5.0,1.0,,,,,
,,,,,,,,,,,9,,,,,,,,,,,,,,,,,clockno_present_1_15.xlsx,clockno_compare_task_1_15.xlsx,,,,,,,,,,,0.0,0.0,0.0,0.0,1.0
0.0,1.0,,,,,,teapot_03s.jpg,0.0,clockno_up.jpg,1.0,9,0.82215,,,,,,,,,,,,,,,,,,0.0,0.0,0.0,0.0,1.0,,,,,,,,,,
0.0,1.0,,,,,,ticktacktoe_08s.jpg,0.0,clockno_default.jpg,1.0,9,0.941745,,,,,,,,,,,,,,,,,,0.0,1.0,1.0,1.0,1.0,,,,,,,,,,
0.0,1.0,,,,,,espresso_01b.jpg,0.0,clockno_default.jpg,1.0,9,0.622775,,,,,,,,,,,,,,,,,,0.0,2.0,2.0,2.0,1.0,,,,,,,,,,
0.0,1.0,,,,,,smoothie_09s.jpg,0.0,clockno_default.jpg,1.0,9,0.823105,,,,,,,,,,,,,,,,,,0.0,3.0,3.0,3.0,1.0,,,,,,,,,,
1.0,1.0,,,,,,espresso_01b.jpg,1.0,clockno_default.jpg,1.0,9,0.772895,,,,,,,,,,,,,,,,,,0.0,4.0,4.0,4.0,1.0,,,,,,,,,,
0.0,1.0,,,,,,latte_06s.jpg,0.0,clockno_default.jpg,1.0,9,0.757585,,,,,,,,,,,,,,,,,,0.0,5.0,5.0,5.0,1.0,,,,,,,,,,
1.0,1.0,,,,,,smoothie_09s.jpg,1.0,clockno_default.jpg,1.0,9,0.839605,,,,,,,,,,,,,,,,,,0.0,6.0,6.0,6.0,1.0,,,,,,,,,,
0.0,1.0,,,,,,milk_02s.jpg,0.0,clockno_up.jpg,2.0,9,1.04857,,,,,,,,,,,,,,,,,,0.0,7.0,7.0,7.0,1.0,,,,,,,,,,
0.0,1.0,,,,,,teapot_03s.jpg,0.0,clockno_default.jpg,2.0,9,2.106285,,,,,,,,,,,,,,,,,,0.0,8.0,8.0,8.0,1.0,,,,,,,,,,
0.0,1.0,,,,,,koala_13s.jpg,0.0,clockno_default.jpg,2.0,9,0.53901,,,,,,,,,,,,,,,,,,0.0,9.0,9.0,9.0,1.0,,,,,,,,,,
0.0,1.0,,,,,,machete_06s.jpg,0.0,clockno_default.jpg,2.0,9,0.69443,,,,,,,,,,,,,,,,,,0.0,10.0,10.0,10.0,1.0,,,,,,,,,,
1.0,1.0,,,,,,teapot_03s.jpg,1.0,clockno_default.jpg,2.0,9,2.21072,,,,,,,,,,,,,,,,,,0.0,11.0,11.0,11.0,1.0,,,,,,,,,,
0.0,1.0,,,,,,mascara_03s.jpg,0.0,clockno_default.jpg,2.0,9,1.074355,,,,,,,,,,,,,,,,,,0.0,12.0,12.0,12.0,1.0,,,,,,,,,,
0.0,1.0,,,,,,hydrant_10s.jpg,0.0,clockno_up.jpg,3.0,9,1.068685,,,,,,,,,,,,,,,,,,0.0,13.0,13.0,13.0,1.0,,,,,,,,,,
0.0,1.0,,,,,,feather02.jpg,0.0,clockno_default.jpg,3.0,9,0.546425,,,,,,,,,,,,,,,,,,0.0,14.0,14.0,14.0,1.0,,,,,,,,,,
0.0,1.0,,,,,,fox_13s.jpg,0.0,clockno_default.jpg,3.0,9,0.63211,,,,,,,,,,,,,,,,,,0.0,15.0,15.0,15.0,1.0,,,,,,,,,,
0.0,1.0,,,,,,thermostat_02s.jpg,0.0,clockno_default.jpg,3.0,9,0.596585,,,,,,,,,,,,,,,,,,0.0,16.0,16.0,16.0,1.0,,,,,,,,,,
0.0,1.0,,,,,,possum_09s.jpg,0.0,clockno_default.jpg,3.0,9,0.231415,,,,,,,,,,,,,,,,,,0.0,17.0,17.0,17.0,1.0,,,,,,,,,,
0.0,1.0,,,,,,memory_stick_11s.jpg,0.0,clockno_up.jpg,4.0,9,0.7162,,,,,,,,,,,,,,,,,,0.0,18.0,18.0,18.0,1.0,,,,,,,,,,
1.0,1.0,,,,,,memory_stick_11s.jpg,1.0,clockno_default.jpg,4.0,9,1.41067,,,,,,,,,,,,,,,,,,0.0,19.0,19.0,19.0,1.0,,,,,,,,,,
0.0,1.0,,,,,,mascara_03s.jpg,0.0,clockno_default.jpg,4.0,9,1.5188,,,,,,,,,,,,,,,,,,0.0,20.0,20.0,20.0,1.0,,,,,,,,,,
0.0,1.0,,,,,,ice-cream_cone_06s.jpg,0.0,clockno_default.jpg,4.0,9,0.748555,,,,,,,,,,,,,,,,,,0.0,21.0,21.0,21.0,1.0,,,,,,,,,,
0.0,1.0,,,,,,cucumber_07s.jpg,0.0,clockno_default.jpg,4.0,9,0.46621,,,,,,,,,,,,,,,,,,0.0,22.0,22.0,22.0,1.0,,,,,,,,,,
0.0,1.0,,,,,,punch1_10s.jpg,0.0,clockno_default.jpg,4.0,9,0.608595,,,,,,,,,,,,,,,,,,0.0,23.0,23.0,23.0,1.0,,,,,,,,,,
0.0,1.0,,,,,,fondue_07s.jpg,0.0,clockno_up.jpg,5.0,9,0.76787,,,,,,,,,,,,,,,,,,0.0,24.0,24.0,24.0,1.0,,,,,,,,,,
0.0,1.0,,,,,,kangaroo_02s.jpg,0.0,clockno_default.jpg,5.0,9,0.42039,,,,,,,,,,,,,,,,,,0.0,25.0,25.0,25.0,1.0,,,,,,,,,,
0.0,1.0,,,,,,teacup_07s.jpg,0.0,clockno_default.jpg,5.0,9,0.620905,,,,,,,,,,,,,,,,,,0.0,26.0,26.0,26.0,1.0,,,,,,,,,,
0.0,1.0,,,,,,lid_10s.jpg,0.0,clockno_default.jpg,5.0,9,0.640575,,,,,,,,,,,,,,,,,,0.0,27.0,27.0,27.0,1.0,,,,,,,,,,
0.0,1.0,,,,,,pear_02s.jpg,0.0,clockno_default.jpg,5.0,9,0.69618,,,,,,,,,,,,,,,,,,0.0,28.0,28.0,28.0,1.0,,,,,,,,,,
0.0,1.0,,,,,,pacifier_09s.jpg,0.0,clockno_up.jpg,6.0,9,0.52904,,,,,,,,,,,,,,,,,,0.0,29.0,29.0,29.0,1.0,,,,,,,,,,
0.0,1.0,,,,,,raspberry_12s.jpg,0.0,clockno_default.jpg,6.0,9,0.75518,,,,,,,,,,,,,,,,,,0.0,30.0,30.0,30.0,1.0,,,,,,,,,,
1.0,1.0,,,,,,pacifier_09s.jpg,1.0,clockno_default.jpg,6.0,9,0.73568,,,,,,,,,,,,,,,,,,0.0,31.0,31.0,31.0,1.0,,,,,,,,,,
1.0,1.0,,,,,,raspberry_12s.jpg,1.0,clockno_default.jpg,6.0,9,1.52166,,,,,,,,,,,,,,,,,,0.0,32.0,32.0,32.0,1.0,,,,,,,,,,
1.0,1.0,,,,,,raspberry_12s.jpg,1.0,clockno_default.jpg,6.0,9,0.790685,,,,,,,,,,,,,,,,,,0.0,33.0,33.0,33.0,1.0,,,,,,,,,,
1.0,1.0,,,,,,pacifier_09s.jpg,1.0,clockno_default.jpg,6.0,9,0.71952,,,,,,,,,,,,,,,,,,0.0,34.0,34.0,34.0,1.0,,,,,,,,,,
0.0,1.0,,,,,,cereal_04s.jpg,0.0,clockno_default.jpg,6.0,9,0.74902,,,,,,,,,,,,,,,,,,0.0,35.0,35.0,35.0,1.0,,,,,,,,,,
,,,,,,,,0.0,,,9,,1.0,0.0,2.51535,,,,,,teacup_07s.jpg,punch1_10s.jpg,,,,,,,,,,,,,0.0,0.0,0.0,0.0,1.0,,,,,
,,,,,,,,1.0,,,9,,0.0,0.0,1.791055,,,,,,ice-cream_cone_06s.jpg,fondue_07s.jpg,,,,,,,,,,,,,0.0,1.0,1.0,1.0,1.0,,,,,
,,,,,,,,1.0,,,9,,1.0,1.0,2.36554,,,,,,cucumber_07s.jpg,kangaroo_02s.jpg,,,,,,,,,,,,,0.0,2.0,2.0,2.0,1.0,,,,,
,,,,,,,,0.0,,,9,,0.0,1.0,1.271225,,,,,,possum_09s.jpg,feather02.jpg,,,,,,,,,,,,,0.0,3.0,3.0,3.0,1.0,,,,,
,,,,,,,,1.0,,,9,,0.0,0.0,1.035315,,,,,,milk_02s.jpg,machete_06s.jpg,,,,,,,,,,,,,0.0,4.0,4.0,4.0,1.0,,,,,
,,,,,,,,1.0,,,9,,1.0,1.0,2.49751,,,,,,hydrant_10s.jpg,thermostat_02s.jpg,,,,,,,,,,,,,0.0,5.0,5.0,5.0,1.0,,,,,
,,,,,,,,,,,9,,,,,,,,,,,,,,,,,clockno_present_2_15.xlsx,clockno_compare_task_2_15.xlsx,,,,,,,,,,,0.0,1.0,1.0,1.0,1.0
0.0,1.0,,,,,,soda_fountain_03s.jpg,0.0,clock_5_1.png,1.0,9,1.52009,,,,,,,,,,,,,,,,,,0.0,0.0,0.0,0.0,1.0,,,,,,,,,,
0.0,1.0,,,,,,playpen_11s.jpg,0.0,clock_5_2.png,1.0,9,1.034635,,,,,,,,,,,,,,,,,,0.0,1.0,1.0,1.0,1.0,,,,,,,,,,
0.0,1.0,,,,,,spatula04.jpg,0.0,clock_5_3.png,1.0,9,0.453805,,,,,,,,,,,,,,,,,,0.0,2.0,2.0,2.0,1.0,,,,,,,,,,
0.0,1.0,,,,,,mitten_10s.jpg,0.0,clock_5_4.png,1.0,9,0.32663,,,,,,,,,,,,,,,,,,0.0,3.0,3.0,3.0,1.0,,,,,,,,,,
1.0,1.0,,,,,,playpen_11s.jpg,1.0,clock_5_5.png,1.0,9,2.181345,,,,,,,,,,,,,,,,,,0.0,4.0,4.0,4.0,1.0,,,,,,,,,,
0.0,1.0,,,,,,icemaker_10s.jpg,0.0,clock_7_1.png,2.0,9,1.402395,,,,,,,,,,,,,,,,,,0.0,5.0,5.0,5.0,1.0,,,,,,,,,,
0.0,1.0,,,,,,teabag_12s.jpg,0.0,clock_7_2.png,2.0,9,0.574395,,,,,,,,,,,,,,,,,,0.0,6.0,6.0,6.0,1.0,,,,,,,,,,
0.0,1.0,,,,,,trumpet_06s.jpg,0.0,clock_7_3.png,2.0,9,0.48071,,,,,,,,,,,,,,,,,,0.0,7.0,7.0,7.0,1.0,,,,,,,,,,
0.0,1.0,,,,,,tweezers_03s.jpg,0.0,clock_7_4.png,2.0,9,0.486025,,,,,,,,,,,,,,,,,,0.0,8.0,8.0,8.0,1.0,,,,,,,,,,
0.0,1.0,,,,,,spatula04.jpg,0.0,clock_7_5.png,2.0,9,2.00608,,,,,,,,,,,,,,,,,,0.0,9.0,9.0,9.0,1.0,,,,,,,,,,
0.0,1.0,,,,,,clover_04s.jpg,0.0,clock_7_6.png,2.0,9,0.9226,,,,,,,,,,,,,,,,,,0.0,10.0,10.0,10.0,1.0,,,,,,,,,,
0.0,1.0,,,,,,ivy_12s.jpg,0.0,clock_7_7.png,2.0,9,0.52677,,,,,,,,,,,,,,,,,,0.0,11.0,11.0,11.0,1.0,,,,,,,,,,
0.0,1.0,,,,,,marshmallow_08s.jpg,0.0,clock_5_1.png,3.0,9,0.63037,,,,,,,,,,,,,,,,,,0.0,12.0,12.0,12.0,1.0,,,,,,,,,,
0.0,1.0,,,,,,eiffeltower.jpg,0.0,clock_5_2.png,3.0,9,0.94987,,,,,,,,,,,,,,,,,,0.0,13.0,13.0,13.0,1.0,,,,,,,,,,
0.0,1.0,,,,,,exhaust_pipe_10s.jpg,0.0,clock_5_3.png,3.0,9,1.478655,,,,,,,,,,,,,,,,,,0.0,14.0,14.0,14.0,1.0,,,,,,,,,,
0.0,1.0,,,,,,rock_08s.jpg,0.0,clock_5_4.png,3.0,9,0.925075,,,,,,,,,,,,,,,,,,0.0,15.0,15.0,15.0,1.0,,,,,,,,,,
0.0,1.0,,,,,,aluminum_foil_08s.jpg,0.0,clock_5_5.png,3.0,9,0.568655,,,,,,,,,,,,,,,,,,0.0,16.0,16.0,16.0,1.0,,,,,,,,,,
0.0,1.0,,,,,,diving_board_07s.jpg,0.0,clock_6_1.png,4.0,9,0.39226,,,,,,,,,,,,,,,,,,0.0,17.0,17.0,17.0,1.0,,,,,,,,,,
0.0,1.0,,,,,,checkbook_11s.jpg,0.0,clock_6_2.png,4.0,9,0.92241,,,,,,,,,,,,,,,,,,0.0,18.0,18.0,18.0,1.0,,,,,,,,,,
0.0,1.0,,,,,,quill_09s.jpg,0.0,clock_6_3.png,4.0,9,1.27042,,,,,,,,,,,,,,,,,,0.0,19.0,19.0,19.0,1.0,,,,,,,,,,
0.0,1.0,,,,,,radio_09s.jpg,0.0,clock_6_4.png,4.0,9,0.45586,,,,,,,,,,,,,,,,,,0.0,20.0,20.0,20.0,1.0,,,,,,,,,,
1.0,1.0,,,,,,radio_09s.jpg,1.0,clock_6_5.png,4.0,9,0.805555,,,,,,,,,,,,,,,,,,0.0,21.0,21.0,21.0,1.0,,,,,,,,,,
0.0,1.0,,,,,,onion_10s.jpg,0.0,clock_6_6.png,4.0,9,1.14014,,,,,,,,,,,,,,,,,,0.0,22.0,22.0,22.0,1.0,,,,,,,,,,
0.0,1.0,,,,,,money_07s.jpg,0.0,clock_7_1.png,5.0,9,0.717525,,,,,,,,,,,,,,,,,,0.0,23.0,23.0,23.0,1.0,,,,,,,,,,
0.0,1.0,,,,,,paintbrush_04s.jpg,0.0,clock_7_2.png,5.0,9,0.805215,,,,,,,,,,,,,,,,,,0.0,24.0,24.0,24.0,1.0,,,,,,,,,,
0.0,0.0,,,,,,money_07s.jpg,1.0,clock_7_3.png,5.0,9,2.01391,,,,,,,,,,,,,,,,,,0.0,25.0,25.0,25.0,1.0,,,,,,,,,,
0.0,1.0,,,,,,surfboard_11s.jpg,0.0,clock_7_4.png,5.0,9,1.053855,,,,,,,,,,,,,,,,,,0.0,26.0,26.0,26.0,1.0,,,,,,,,,,
1.0,1.0,,,,,,money_07s.jpg,1.0,clock_7_5.png,5.0,9,1.23106,,,,,,,,,,,,,,,,,,0.0,27.0,27.0,27.0,1.0,,,,,,,,,,
0.0,1.0,,,,,,coffee_filter_10s.jpg,0.0,clock_7_6.png,5.0,9,0.615805,,,,,,,,,,,,,,,,,,0.0,28.0,28.0,28.0,1.0,,,,,,,,,,
0.0,1.0,,,,,,radiator_05s.jpg,0.0,clock_7_7.png,5.0,9,1.25589,,,,,,,,,,,,,,,,,,0.0,29.0,29.0,29.0,1.0,,,,,,,,,,
0.0,1.0,,,,,,birdcage_08s.jpg,0.0,clock_6_1.png,6.0,9,0.61309,,,,,,,,,,,,,,,,,,0.0,30.0,30.0,30.0,1.0,,,,,,,,,,
0.0,1.0,,,,,,peach_04s.jpg,0.0,clock_6_2.png,6.0,9,0.588545,,,,,,,,,,,,,,,,,,0.0,31.0,31.0,31.0,1.0,,,,,,,,,,
0.0,1.0,,,,,,crab_16s.jpg,0.0,clock_6_3.png,6.0,9,0.6652,,,,,,,,,,,,,,,,,,0.0,32.0,32.0,32.0,1.0,,,,,,,,,,
0.0,1.0,,,,,,penguin_16s.jpg,0.0,clock_6_4.png,6.0,9,0.570925,,,,,,,,,,,,,,,,,,0.0,33.0,33.0,33.0,1.0,,,,,,,,,,
0.0,1.0,,,,,,stethoscope_01b.jpg,0.0,clock_6_5.png,6.0,9,0.73469,,,,,,,,,,,,,,,,,,0.0,34.0,34.0,34.0,1.0,,,,,,,,,,
0.0,1.0,,,,,,puppet_01b.jpg,0.0,clock_6_6.png,6.0,9,0.91802,,,,,,,,,,,,,,,,,,0.0,35.0,35.0,35.0,1.0,,,,,,,,,,
,,,,,,,,1.0,,,9,,0.0,0.0,2.247845,,,,,,exhaust_pipe_10s.jpg,diving_board_07s.jpg,,,,,,,,,,,,,0.0,0.0,0.0,0.0,1.0,,,,,
,,,,,,,,0.0,,,9,,0.0,1.0,1.273775,,,,,,teabag_12s.jpg,mitten_10s.jpg,,,,,,,,,,,,,0.0,1.0,1.0,1.0,1.0,,,,,
,,,,,,,,0.0,,,9,,0.0,1.0,1.58981,,,,,,checkbook_11s.jpg,rock_08s.jpg,,,,,,,,,,,,,0.0,2.0,2.0,2.0,1.0,,,,,
,,,,,,,,0.0,,,9,,0.0,1.0,1.54532,,,,,,tweezers_03s.jpg,icemaker_10s.jpg,,,,,,,,,,,,,0.0,3.0,3.0,3.0,1.0,,,,,
,,,,,,,,1.0,,,9,,1.0,1.0,1.282105,,,,,,birdcage_08s.jpg,penguin_16s.jpg,,,,,,,,,,,,,0.0,4.0,4.0,4.0,1.0,,,,,
,,,,,,,,0.0,,,9,,1.0,0.0,1.252455,,,,,,clover_04s.jpg,trumpet_06s.jpg,,,,,,,,,,,,,0.0,5.0,5.0,5.0,1.0,,,,,
,,,,,,,,,,,9,,,,,,,,,,,,,,,,,clockno_present_3_15.xlsx,clockno_compare_task_3_15.xlsx,,,,,,,,,,,0.0,2.0,2.0,2.0,1.0
0.0,1.0,,,,,,mosquito_12s.jpg,0.0,clockno_up.jpg,1.0,9,1.29763,,,,,,,,,,,,,,,,,,0.0,0.0,0.0,0.0,1.0,,,,,,,,,,
0.0,1.0,,,,,,pocketknife_12s.jpg,0.0,clockno_default.jpg,1.0,9,0.920505,,,,,,,,,,,,,,,,,,0.0,1.0,1.0,1.0,1.0,,,,,,,,,,
0.0,1.0,,,,,,timer_03s.jpg,0.0,clockno_default.jpg,1.0,9,0.5701,,,,,,,,,,,,,,,,,,0.0,2.0,2.0,2.0,1.0,,,,,,,,,,
1.0,1.0,,,,,,mosquito_12s.jpg,1.0,clockno_default.jpg,1.0,9,0.92296,,,,,,,,,,,,,,,,,,0.0,3.0,3.0,3.0,1.0,,,,,,,,,,
0.0,1.0,,,,,,rhinoceros_02s.jpg,0.0,clockno_default.jpg,1.0,9,1.04124,,,,,,,,,,,,,,,,,,0.0,4.0,4.0,4.0,1.0,,,,,,,,,,
0.0,1.0,,,,,,spacesuit_02s.jpg,0.0,clockno_default.jpg,1.0,9,0.56423,,,,,,,,,,,,,,,,,,0.0,5.0,5.0,5.0,1.0,,,,,,,,,,
0.0,1.0,,,,,,lamb_chop_07s.jpg,0.0,clockno_default.jpg,1.0,9,0.596975,,,,,,,,,,,,,,,,,,0.0,6.0,6.0,6.0,1.0,,,,,,,,,,
0.0,1.0,,,,,,piano_13n.jpg,0.0,clockno_up.jpg,2.0,9,0.487015,,,,,,,,,,,,,,,,,,0.0,7.0,7.0,7.0,1.0,,,,,,,,,,
1.0,1.0,,,,,,piano_13n.jpg,1.0,clockno_default.jpg,2.0,9,1.72281,,,,,,,,,,,,,,,,,,0.0,8.0,8.0,8.0,1.0,,,,,,,,,,
0.0,1.0,,,,,,lemonade_04s.jpg,0.0,clockno_default.jpg,2.0,9,1.002045,,,,,,,,,,,,,,,,,,0.0,9.0,9.0,9.0,1.0,,,,,,,,,,
,0.0,,,,,,lip_gloss_06s.jpg,0.0,clockno_default.jpg,2.0,9,,,,,,,,,,,,,,,,,,,0.0,10.0,10.0,10.0,1.0,,,,,,,,,,
1.0,1.0,,,,,,lemonade_04s.jpg,1.0,clockno_default.jpg,2.0,9,0.997725,,,,,,,,,,,,,,,,,,0.0,11.0,11.0,11.0,1.0,,,,,,,,,,
0.0,1.0,,,,,,popcorn_09s.jpg,0.0,clockno_up.jpg,3.0,9,0.65767,,,,,,,,,,,,,,,,,,0.0,12.0,12.0,12.0,1.0,,,,,,,,,,
0.0,1.0,,,,,,tuxedo_01b.jpg,0.0,clockno_default.jpg,3.0,9,2.138325,,,,,,,,,,,,,,,,,,0.0,13.0,13.0,13.0,1.0,,,,,,,,,,
0.0,1.0,,,,,,key_07s.jpg,0.0,clockno_default.jpg,3.0,9,0.49997,,,,,,,,,,,,,,,,,,0.0,14.0,14.0,14.0,1.0,,,,,,,,,,
0.0,1.0,,,,,,blowfish_03s.jpg,0.0,clockno_default.jpg,3.0,9,2.319405,,,,,,,,,,,,,,,,,,0.0,15.0,15.0,15.0,1.0,,,,,,,,,,
1.0,1.0,,,,,,popcorn_09s.jpg,1.0,clockno_default.jpg,3.0,9,0.727835,,,,,,,,,,,,,,,,,,0.0,16.0,16.0,16.0,1.0,,,,,,,,,,
0.0,1.0,,,,,,mirror_12s.jpg,0.0,clockno_default.jpg,3.0,9,0.833875,,,,,,,,,,,,,,,,,,0.0,17.0,17.0,17.0,1.0,,,,,,,,,,
0.0,1.0,,,,,,trident_07s.jpg,0.0,clockno_up.jpg,4.0,9,1.60176,,,,,,,,,,,,,,,,,,0.0,18.0,18.0,18.0,1.0,,,,,,,,,,
0.0,1.0,,,,,,knitting_needle_04s.jpg,0.0,clockno_default.jpg,4.0,9,0.60094,,,,,,,,,,,,,,,,,,0.0,19.0,19.0,19.0,1.0,,,,,,,,,,
0.0,1.0,,,,,,orangutan_03s.jpg,0.0,clockno_default.jpg,4.0,9,0.6242,,,,,,,,,,,,,,,,,,0.0,20.0,20.0,20.0,1.0,,,,,,,,,,
0.0,1.0,,,,,,spoon02a.jpg,0.0,clockno_default.jpg,4.0,9,0.56767,,,,,,,,,,,,,,,,,,0.0,21.0,21.0,21.0,1.0,,,,,,,,,,
0.0,1.0,,,,,,mushroom_10n.jpg,0.0,clockno_default.jpg,4.0,9,0.845415,,,,,,,,,,,,,,,,,,0.0,22.0,22.0,22.0,1.0,,,,,,,,,,
0.0,1.0,,,,,,owl_15s.jpg,0.0,clockno_up.jpg,5.0,9,0.58111,,,,,,,,,,,,,,,,,,0.0,23.0,23.0,23.0,1.0,,,,,,,,,,
1.0,0.0,,,,,,racehorse_03s.jpg,0.0,clockno_default.jpg,5.0,9,2.01541,,,,,,,,,,,,,,,,,,0.0,24.0,24.0,24.0,1.0,,,,,,,,,,
0.0,1.0,,,,,,dirt_bike_11s.jpg,0.0,clockno_default.jpg,5.0,9,0.5323,,,,,,,,,,,,,,,,,,0.0,25.0,25.0,25.0,1.0,,,,,,,,,,
0.0,1.0,,,,,,plaster_cast_13s.jpg,0.0,clockno_default.jpg,5.0,9,0.85415,,,,,,,,,,,,,,,,,,0.0,26.0,26.0,26.0,1.0,,,,,,,,,,
,0.0,,,,,,racehorse_03s.jpg,1.0,clockno_default.jpg,5.0,9,,,,,,,,,,,,,,,,,,,0.0,27.0,27.0,27.0,1.0,,,,,,,,,,
,0.0,,,,,,spacesuit_02s.jpg,0.0,clockno_default.jpg,5.0,9,,,,,,,,,,,,,,,,,,,0.0,28.0,28.0,28.0,1.0,,,,,,,,,,
0.0,1.0,,,,,,slingshot_07s.jpg,0.0,clockno_up.jpg,6.0,9,2.001605,,,,,,,,,,,,,,,,,,0.0,29.0,29.0,29.0,1.0,,,,,,,,,,
0.0,1.0,,,,,,potholder_02s.jpg,0.0,clockno_default.jpg,6.0,9,0.85508,,,,,,,,,,,,,,,,,,0.0,30.0,30.0,30.0,1.0,,,,,,,,,,
0.0,1.0,,,,,,squirrel_02s.jpg,0.0,clockno_default.jpg,6.0,9,2.24468,,,,,,,,,,,,,,,,,,0.0,31.0,31.0,31.0,1.0,,,,,,,,,,
0.0,1.0,,,,,,outlet_10s.jpg,0.0,clockno_default.jpg,6.0,9,1.354565,,,,,,,,,,,,,,,,,,0.0,32.0,32.0,32.0,1.0,,,,,,,,,,
,0.0,,,,,,potpourri_03s.jpg,0.0,clockno_default.jpg,6.0,9,,,,,,,,,,,,,,,,,,,0.0,33.0,33.0,33.0,1.0,,,,,,,,,,
0.0,1.0,,,,,,margarita_03s.jpg,0.0,clockno_default.jpg,6.0,9,1.62638,,,,,,,,,,,,,,,,,,0.0,34.0,34.0,34.0,1.0,,,,,,,,,,
1.0,1.0,,,,,,outlet_10s.jpg,1.0,clockno_default.jpg,6.0,9,1.298465,,,,,,,,,,,,,,,,,,0.0,35.0,35.0,35.0,1.0,,,,,,,,,,
,,,,,,,,1.0,,,9,,1.0,1.0,1.87977,,,,,,lip_gloss_06s.jpg,tuxedo_01b.jpg,,,,,,,,,,,,,0.0,0.0,0.0,0.0,1.0,,,,,
,,,,,,,,1.0,,,9,,1.0,1.0,1.537555,,,,,,blowfish_03s.jpg,trident_07s.jpg,,,,,,,,,,,,,0.0,1.0,1.0,1.0,1.0,,,,,
,,,,,,,,0.0,,,9,,0.0,1.0,1.63523,,,,,,orangutan_03s.jpg,mirror_12s.jpg,,,,,,,,,,,,,0.0,2.0,2.0,2.0,1.0,,,,,
,,,,,,,,1.0,,,9,,1.0,1.0,1.464685,,,,,,pocketknife_12s.jpg,rhinoceros_02s.jpg,,,,,,,,,,,,,0.0,3.0,3.0,3.0,1.0,,,,,
,,,,,,,,1.0,,,9,,0.0,0.0,1.312775,,,,,,potholder_02s.jpg,potpourri_03s.jpg,,,,,,,,,,,,,0.0,4.0,4.0,4.0,1.0,,,,,
,,,,,,,,1.0,,,9,,1.0,1.0,1.161805,,,,,,squirrel_02s.jpg,margarita_03s.jpg,,,,,,,,,,,,,0.0,5.0,5.0,5.0,1.0,,,,,
,,,,,,,,,,,9,,,,,,,,,,,,,,,,,clockno_present_4_15.xlsx,clockno_compare_task_4_15.xlsx,,,,,,,,,,,0.0,3.0,3.0,3.0,1.0
0.0,1.0,,,,,,piggy_bank_02s.jpg,0.0,clockno_up.jpg,1.0,9,0.751825,,,,,,,,,,,,,,,,,,0.0,0.0,0.0,0.0,1.0,,,,,,,,,,
0.0,1.0,,,,,,quesadilla_07s.jpg,0.0,clockno_default.jpg,1.0,9,0.68777,,,,,,,,,,,,,,,,,,0.0,1.0,1.0,1.0,1.0,,,,,,,,,,
1.0,1.0,,,,,,quesadilla_07s.jpg,1.0,clockno_default.jpg,1.0,9,1.06744,,,,,,,,,,,,,,,,,,0.0,2.0,2.0,2.0,1.0,,,,,,,,,,
,0.0,,,,,,turtle_08s.jpg,0.0,clockno_default.jpg,1.0,9,,,,,,,,,,,,,,,,,,,0.0,3.0,3.0,3.0,1.0,,,,,,,,,,
1.0,1.0,,,,,,quesadilla_07s.jpg,1.0,clockno_default.jpg,1.0,9,0.574765,,,,,,,,,,,,,,,,,,0.0,4.0,4.0,4.0,1.0,,,,,,,,,,
0.0,1.0,,,,,,pie_08s.jpg,0.0,clockno_default.jpg,1.0,9,0.97729,,,,,,,,,,,,,,,,,,0.0,5.0,5.0,5.0,1.0,,,,,,,,,,
1.0,1.0,,,,,,quesadilla_07s.jpg,1.0,clockno_default.jpg,1.0,9,0.490375,,,,,,,,,,,,,,,,,,0.0,6.0,6.0,6.0,1.0,,,,,,,,,,
0.0,1.0,,,,,,coral_08s.jpg,0.0,clockno_up.jpg,2.0,9,0.559755,,,,,,,,,,,,,,,,,,0.0,7.0,7.0,7.0,1.0,,,,,,,,,,
0.0,1.0,,,,,,bottle_opener_11s.jpg,0.0,clockno_default.jpg,2.0,9,1.456655,,,,,,,,,,,,,,,,,,0.0,8.0,8.0,8.0,1.0,,,,,,,,,,
0.0,1.0,,,,,,solar_panel_02s.jpg,0.0,clockno_default.jpg,2.0,9,1.7385,,,,,,,,,,,,,,,,,,0.0,9.0,9.0,9.0,1.0,,,,,,,,,,
0.0,1.0,,,,,,sunglasses_11s.jpg,0.0,clockno_default.jpg,2.0,9,1.26154,,,,,,,,,,,,,,,,,,0.0,10.0,10.0,10.0,1.0,,,,,,,,,,
0.0,1.0,,,,,,lamppost_09s.jpg,0.0,clockno_default.jpg,2.0,9,0.797525,,,,,,,,,,,,,,,,,,0.0,11.0,11.0,11.0,1.0,,,,,,,,,,
0.0,1.0,,,,,,pineapple_12s.jpg,0.0,clockno_up.jpg,3.0,9,0.500265,,,,,,,,,,,,,,,,,,0.0,12.0,12.0,12.0,1.0,,,,,,,,,,
0.0,1.0,,,,,,pretzel_09s.jpg,0.0,clockno_default.jpg,3.0,9,0.662035,,,,,,,,,,,,,,,,,,0.0,13.0,13.0,13.0,1.0,,,,,,,,,,
0.0,1.0,,,,,,fire_pit_10s.jpg,0.0,clockno_default.jpg,3.0,9,0.61573,,,,,,,,,,,,,,,,,,0.0,14.0,14.0,14.0,1.0,,,,,,,,,,
0.0,1.0,,,,,,microwave_02s.jpg,0.0,clockno_default.jpg,3.0,9,0.72166,,,,,,,,,,,,,,,,,,0.0,15.0,15.0,15.0,1.0,,,,,,,,,,
0.0,1.0,,,,,,dynamite_01b.jpg,0.0,clockno_default.jpg,3.0,9,0.75616,,,,,,,,,,,,,,,,,,0.0,16.0,16.0,16.0,1.0,,,,,,,,,,
0.0,1.0,,,,,,megaphone_03s.jpg,0.0,clockno_default.jpg,3.0,9,1.930575,,,,,,,,,,,,,,,,,,0.0,17.0,17.0,17.0,1.0,,,,,,,,,,
0.0,1.0,,,,,,tortilla_06s.jpg,0.0,clockno_up.jpg,4.0,9,0.77197,,,,,,,,,,,,,,,,,,0.0,18.0,18.0,18.0,1.0,,,,,,,,,,
1.0,1.0,,,,,,tortilla_06s.jpg,1.0,clockno_default.jpg,4.0,9,0.78979,,,,,,,,,,,,,,,,,,0.0,19.0,19.0,19.0,1.0,,,,,,,,,,
0.0,1.0,,,,,,mud_13s.jpg,0.0,clockno_default.jpg,4.0,9,1.11655,,,,,,,,,,,,,,,,,,0.0,20.0,20.0,20.0,1.0,,,,,,,,,,
0.0,1.0,,,,,,toilet_paper_12s.jpg,0.0,clockno_default.jpg,4.0,9,0.77011,,,,,,,,,,,,,,,,,,0.0,21.0,21.0,21.0,1.0,,,,,,,,,,
0.0,1.0,,,,,,go-kart_10s.jpg,0.0,clockno_default.jpg,4.0,9,0.595775,,,,,,,,,,,,,,,,,,0.0,22.0,22.0,22.0,1.0,,,,,,,,,,
0.0,1.0,,,,,,magnet_03s.jpg,0.0,clockno_up.jpg,5.0,9,0.63644,,,,,,,,,,,,,,,,,,0.0,23.0,23.0,23.0,1.0,,,,,,,,,,
0.0,0.0,,,,,,magnet_03s.jpg,1.0,clockno_default.jpg,5.0,9,0.46208,,,,,,,,,,,,,,,,,,0.0,24.0,24.0,24.0,1.0,,,,,,,,,,
1.0,1.0,,,,,,magnet_03s.jpg,1.0,clockno_default.jpg,5.0,9,1.039595,,,,,,,,,,,,,,,,,,0.0,25.0,25.0,25.0,1.0,,,,,,,,,,
0.0,1.0,,,,,,phone_01b.jpg,0.0,clockno_default.jpg,5.0,9,0.838205,,,,,,,,,,,,,,,,,,0.0,26.0,26.0,26.0,1.0,,,,,,,,,,
0.0,1.0,,,,,,duck_01b.jpg,0.0,clockno_default.jpg,5.0,9,0.68189,,,,,,,,,,,,,,,,,,0.0,27.0,27.0,27.0,1.0,,,,,,,,,,
0.0,1.0,,,,,,lamppost_09s.jpg,0.0,clockno_default.jpg,5.0,9,0.52633,,,,,,,,,,,,,,,,,,0.0,28.0,28.0,28.0,1.0,,,,,,,,,,
0.0,1.0,,,,,,mussel_11s.jpg,0.0,clockno_up.jpg,6.0,9,0.734685,,,,,,,,,,,,,,,,,,0.0,29.0,29.0,29.0,1.0,,,,,,,,,,
0.0,1.0,,,,,,sundae_08s.jpg,0.0,clockno_default.jpg,6.0,9,0.485375,,,,,,,,,,,,,,,,,,0.0,30.0,30.0,30.0,1.0,,,,,,,,,,
0.0,1.0,,,,,,telephone_pole_05s.jpg,0.0,clockno_default.jpg,6.0,9,0.8356,,,,,,,,,,,,,,,,,,0.0,31.0,31.0,31.0,1.0,,,,,,,,,,
0.0,1.0,,,,,,basket_05s.jpg,0.0,clockno_default.jpg,6.0,9,0.556335,,,,,,,,,,,,,,,,,,0.0,32.0,32.0,32.0,1.0,,,,,,,,,,
0.0,1.0,,,,,,turtle_08s.jpg,0.0,clockno_default.jpg,6.0,9,1.84665,,,,,,,,,,,,,,,,,,0.0,33.0,33.0,33.0,1.0,,,,,,,,,,
0.0,1.0,,,,,,otter_05s.jpg,0.0,clockno_default.jpg,6.0,9,0.673315,,,,,,,,,,,,,,,,,,0.0,34.0,34.0,34.0,1.0,,,,,,,,,,
1.0,1.0,,,,,,otter_05s.jpg,1.0,clockno_default.jpg,6.0,9,0.679795,,,,,,,,,,,,,,,,,,0.0,35.0,35.0,35.0,1.0,,,,,,,,,,
,,,,,,,,1.0,,,9,,1.0,1.0,1.691235,,,,,,pie_08s.jpg,bottle_opener_11s.jpg,,,,,,,,,,,,,0.0,0.0,0.0,0.0,1.0,,,,,
,,,,,,,,0.0,,,9,,1.0,0.0,1.34399,,,,,,sundae_08s.jpg,duck_01b.jpg,,,,,,,,,,,,,0.0,1.0,1.0,1.0,1.0,,,,,
,,,,,,,,1.0,,,9,,0.0,0.0,1.17398,,,,,,solar_panel_02s.jpg,pineapple_12s.jpg,,,,,,,,,,,,,0.0,2.0,2.0,2.0,1.0,,,,,
,,,,,,,,1.0,,,9,,1.0,1.0,1.20733,,,,,,coral_08s.jpg,sunglasses_11s.jpg,,,,,,,,,,,,,0.0,3.0,3.0,3.0,1.0,,,,,
,,,,,,,,0.0,,,9,,0.0,1.0,0.78081,,,,,,dynamite_01b.jpg,pretzel_09s.jpg,,,,,,,,,,,,,0.0,4.0,4.0,4.0,1.0,,,,,
,,,,,,,,1.0,,,9,,0.0,0.0,1.490385,,,,,,fire_pit_10s.jpg,megaphone_03s.jpg,,,,,,,,,,,,,0.0,5.0,5.0,5.0,1.0,,,,,
,,,,,,,,,,,9,,,,,,,,,,,,,,,,,clockno_present_5_15.xlsx,clockno_compare_task_5_15.xlsx,,,,,,,,,,,0.0,4.0,4.0,4.0,1.0
0.0,1.0,,,,,,mattress_01s.jpg,0.0,clockno_up.jpg,1.0,9,0.59574,,,,,,,,,,,,,,,,,,0.0,0.0,0.0,0.0,1.0,,,,,,,,,,
0.0,1.0,,,,,,ravioli_08s.jpg,0.0,clockno_default.jpg,1.0,9,0.79973,,,,,,,,,,,,,,,,,,0.0,1.0,1.0,1.0,1.0,,,,,,,,,,
0.0,1.0,,,,,,tambourine_06s.jpg,0.0,clockno_default.jpg,1.0,9,0.387405,,,,,,,,,,,,,,,,,,0.0,2.0,2.0,2.0,1.0,,,,,,,,,,
0.0,1.0,,,,,,ram_05s.jpg,0.0,clockno_default.jpg,1.0,9,0.526145,,,,,,,,,,,,,,,,,,0.0,3.0,3.0,3.0,1.0,,,,,,,,,,
1.0,1.0,,,,,,ram_05s.jpg,1.0,clockno_default.jpg,1.0,9,1.692885,,,,,,,,,,,,,,,,,,0.0,4.0,4.0,4.0,1.0,,,,,,,,,,
0.0,0.0,,,,,,mattress_01s.jpg,1.0,clockno_default.jpg,1.0,9,0.70643,,,,,,,,,,,,,,,,,,0.0,5.0,5.0,5.0,1.0,,,,,,,,,,
0.0,1.0,,,,,,panda_02s.jpg,0.0,clockno_default.jpg,1.0,9,0.588375,,,,,,,,,,,,,,,,,,0.0,6.0,6.0,6.0,1.0,,,,,,,,,,
0.0,1.0,,,,,,mailbox_11s.jpg,0.0,clockno_up.jpg,2.0,9,0.69422,,,,,,,,,,,,,,,,,,0.0,7.0,7.0,7.0,1.0,,,,,,,,,,
0.0,1.0,,,,,,air_pump_05s.jpg,0.0,clockno_default.jpg,2.0,9,0.942955,,,,,,,,,,,,,,,,,,0.0,8.0,8.0,8.0,1.0,,,,,,,,,,
1.0,1.0,,,,,,air_pump_05s.jpg,1.0,clockno_default.jpg,2.0,9,0.94732,,,,,,,,,,,,,,,,,,0.0,9.0,9.0,9.0,1.0,,,,,,,,,,
0.0,1.0,,,,,,thorn_13s.jpg,0.0,clockno_default.jpg,2.0,9,0.810565,,,,,,,,,,,,,,,,,,0.0,10.0,10.0,10.0,1.0,,,,,,,,,,
0.0,1.0,,,,,,kite_04s.jpg,0.0,clockno_default.jpg,2.0,9,0.95666,,,,,,,,,,,,,,,,,,0.0,11.0,11.0,11.0,1.0,,,,,,,,,,
1.0,1.0,,,,,,mailbox_11s.jpg,1.0,clockno_default.jpg,2.0,9,0.81736,,,,,,,,,,,,,,,,,,0.0,12.0,12.0,12.0,1.0,,,,,,,,,,
0.0,1.0,,,,,,lamp_08s.jpg,0.0,clockno_up.jpg,3.0,9,0.616325,,,,,,,,,,,,,,,,,,0.0,13.0,13.0,13.0,1.0,,,,,,,,,,
0.0,1.0,,,,,,smokingpipe.jpg,0.0,clockno_default.jpg,3.0,9,0.83098,,,,,,,,,,,,,,,,,,0.0,14.0,14.0,14.0,1.0,,,,,,,,,,
0.0,1.0,,,,,,swing_set_15s.jpg,0.0,clockno_default.jpg,3.0,9,0.754725,,,,,,,,,,,,,,,,,,0.0,15.0,15.0,15.0,1.0,,,,,,,,,,
0.0,1.0,,,,,,torch_02s.jpg,0.0,clockno_default.jpg,3.0,9,0.592085,,,,,,,,,,,,,,,,,,0.0,16.0,16.0,16.0,1.0,,,,,,,,,,
0.0,1.0,,,,,,police_car_01s.jpg,0.0,clockno_default.jpg,3.0,9,0.51628,,,,,,,,,,,,,,,,,,0.0,17.0,17.0,17.0,1.0,,,,,,,,,,
1.0,1.0,,,,,,police_car_01s.jpg,1.0,clockno_default.jpg,3.0,9,1.535225,,,,,,,,,,,,,,,,,,0.0,18.0,18.0,18.0,1.0,,,,,,,,,,
0.0,1.0,,,,,,pocket_watch_16s.jpg,0.0,clockno_default.jpg,3.0,9,0.769645,,,,,,,,,,,,,,,,,,0.0,19.0,19.0,19.0,1.0,,,,,,,,,,
0.0,1.0,,,,,,totem_pole_05s.jpg,0.0,clockno_up.jpg,4.0,9,0.575295,,,,,,,,,,,,,,,,,,0.0,20.0,20.0,20.0,1.0,,,,,,,,,,
0.0,1.0,,,,,,toad_09s.jpg,0.0,clockno_default.jpg,4.0,9,0.628835,,,,,,,,,,,,,,,,,,0.0,21.0,21.0,21.0,1.0,,,,,,,,,,
0.0,1.0,,,,,,typewriter_11s.jpg,0.0,clockno_default.jpg,4.0,9,0.629555,,,,,,,,,,,,,,,,,,0.0,22.0,22.0,22.0,1.0,,,,,,,,,,
0.0,1.0,,,,,,camcorder_10s.jpg,0.0,clockno_default.jpg,4.0,9,0.55655,,,,,,,,,,,,,,,,,,0.0,23.0,23.0,23.0,1.0,,,,,,,,,,
0.0,1.0,,,,,,torch_02s.jpg,0.0,clockno_default.jpg,4.0,9,1.78486,,,,,,,,,,,,,,,,,,0.0,24.0,24.0,24.0,1.0,,,,,,,,,,
0.0,1.0,,,,,,kettle_08s.jpg,0.0,clockno_default.jpg,4.0,9,1.437245,,,,,,,,,,,,,,,,,,0.0,25.0,25.0,25.0,1.0,,,,,,,,,,
0.0,1.0,,,,,,comic_book_02s.jpg,0.0,clockno_up.jpg,5.0,9,1.44274,,,,,,,,,,,,,,,,,,0.0,26.0,26.0,26.0,1.0,,,,,,,,,,
0.0,1.0,,,,,,binder_21s.jpg,0.0,clockno_default.jpg,5.0,9,0.82433,,,,,,,,,,,,,,,,,,0.0,27.0,27.0,27.0,1.0,,,,,,,,,,
0.0,1.0,,,,,,inhaler_01b.jpg,0.0,clockno_default.jpg,5.0,9,1.131785,,,,,,,,,,,,,,,,,,0.0,28.0,28.0,28.0,1.0,,,,,,,,,,
0.0,1.0,,,,,,abacus_12s.jpg,0.0,clockno_default.jpg,5.0,9,1.264825,,,,,,,,,,,,,,,,,,0.0,29.0,29.0,29.0,1.0,,,,,,,,,,
0.0,1.0,,,,,,hummingbird_05s.jpg,0.0,clockno_default.jpg,5.0,9,0.834605,,,,,,,,,,,,,,,,,,0.0,30.0,30.0,30.0,1.0,,,,,,,,,,
0.0,1.0,,,,,,polaroid_05s.jpg,0.0,clockno_up.jpg,6.0,9,0.447635,,,,,,,,,,,,,,,,,,0.0,31.0,31.0,31.0,1.0,,,,,,,,,,
0.0,1.0,,,,,,rosary_03s.jpg,0.0,clockno_default.jpg,6.0,9,0.510415,,,,,,,,,,,,,,,,,,0.0,32.0,32.0,32.0,1.0,,,,,,,,,,
0.0,1.0,,,,,,raft_09s.jpg,0.0,clockno_default.jpg,6.0,9,1.062525,,,,,,,,,,,,,,,,,,0.0,33.0,33.0,33.0,1.0,,,,,,,,,,
0.0,0.0,,,,,,polaroid_05s.jpg,1.0,clockno_default.jpg,6.0,9,0.720815,,,,,,,,,,,,,,,,,,0.0,34.0,34.0,34.0,1.0,,,,,,,,,,
1.0,1.0,,,,,,raft_09s.jpg,1.0,clockno_default.jpg,6.0,9,1.699625,,,,,,,,,,,,,,,,,,0.0,35.0,35.0,35.0,1.0,,,,,,,,,,
,,,,,,,,1.0,,,9,,0.0,0.0,2.35224,,,,,,thorn_13s.jpg,lamp_08s.jpg,,,,,,,,,,,,,0.0,0.0,0.0,0.0,1.0,,,,,
,,,,,,,,0.0,,,9,,0.0,1.0,1.51393,,,,,,smokingpipe.jpg,kite_04s.jpg,,,,,,,,,,,,,0.0,1.0,1.0,1.0,1.0,,,,,
,,,,,,,,1.0,,,9,,1.0,1.0,1.153865,,,,,,pocket_watch_16s.jpg,typewriter_11s.jpg,,,,,,,,,,,,,0.0,2.0,2.0,2.0,1.0,,,,,
,,,,,,,,0.0,,,9,,1.0,0.0,1.18173,,,,,,hummingbird_05s.jpg,binder_21s.jpg,,,,,,,,,,,,,0.0,3.0,3.0,3.0,1.0,,,,,
,,,,,,,,0.0,,,9,,0.0,1.0,1.263445,,,,,,camcorder_10s.jpg,totem_pole_05s.jpg,,,,,,,,,,,,,0.0,4.0,4.0,4.0,1.0,,,,,
,,,,,,,,1.0,,,9,,1.0,1.0,1.09884,,,,,,comic_book_02s.jpg,abacus_12s.jpg,,,,,,,,,,,,,0.0,5.0,5.0,5.0,1.0,,,,,
