key_resp.keys,key_resp.corr,key_resp.rt,present_segment.thisRepN,present_segment.thisTrialN,present_segment.thisN,present_segment.thisIndex,present_segment.ran,pictures,answer,clock,segment,participant,key_resp_2.keys,key_resp_2.corr,key_resp_2.rt,compare_segment.thisRepN,compare_segment.thisTrialN,compare_segment.thisN,compare_segment.thisIndex,compare_segment.ran,item_a,item_b,clock_conditions.thisRepN,clock_conditions.thisTrialN,clock_conditions.thisN,clock_conditions.thisIndex,clock_conditions.ran,present,compare,noclock_present.thisRepN,noclock_present.thisTrialN,noclock_present.thisN,noclock_present.thisIndex,noclock_present.ran,noclock_compare.thisRepN,noclock_compare.thisTrialN,noclock_compare.thisN,noclock_compare.thisIndex,noclock_compare.ran,noclock_conditions.thisRepN,noclock_conditions.thisTrialN,noclock_conditions.thisN,noclock_conditions.thisIndex,noclock_conditions.ran
0.0,1.0,0.75792,0.0,0.0,0.0,0.0,1.0,throne_11s.jpg,0.0,clock_7_1.png,1.0,35,,,,,,,,,,,,,,,,,,,,,,,,,,,,,,,,
0.0,1.0,0.58099,0.0,1.0,1.0,1.0,1.0,swimming_pool_17s.jpg,0.0,clock_7_2.png,1.0,35,,,,,,,,,,,,,,,,,,,,,,,,,,,,,,,,
0.0,1.0,0.613715,0.0,2.0,2.0,2.0,1.0,blowfish_03s.jpg,0.0,clock_7_3.png,1.0,35,,,,,,,,,,,,,,,,,,,,,,,,,,,,,,,,
1.0,1.0,1.069185,0.0,3.0,3.0,3.0,1.0,throne_11s.jpg,1.0,clock_7_4.png,1.0,35,,,,,,,,,,,,,,,,,,,,,,,,,,,,,,,,
0.0,1.0,0.707995,0.0,4.0,4.0,4.0,1.0,basket_05s.jpg,0.0,clock_7_5.png,1.0,35,,,,,,,,,,,,,,,,,,,,,,,,,,,,,,,,
0.0,1.0,0.771805,0.0,5.0,5.0,5.0,1.0,rhubarb_03s.jpg,0.0,clock_7_6.png,1.0,35,,,,,,,,,,,,,,,,,,,,,,,,,,,,,,,,
1.0,1.0,0.62856,0.0,6.0,6.0,6.0,1.0,throne_11s.jpg,1.0,clock_7_7.png,1.0,35,,,,,,,,,,,,,,,,,,,,,,,,,,,,,,,,
0.0,1.0,1.18769,0.0,7.0,7.0,7.0,1.0,tupperware_09s.jpg,0.0,clock_5_1.png,2.0,35,,,,,,,,,,,,,,,,,,,,,,,,,,,,,,,,
0.0,1.0,0.617965,0.0,8.0,8.0,8.0,1.0,seagull_01b.jpg,0.0,clock_5_2.png,2.0,35,,,,,,,,,,,,,,,,,,,,,,,,,,,,,,,,
0.0,1.0,0.667235,0.0,9.0,9.0,9.0,1.0,kitten_07s.jpg,0.0,clock_5_3.png,2.0,35,,,,,,,,,,,,,,,,,,,,,,,,,,,,,,,,
0.0,1.0,0.59422,0.0,10.0,10.0,10.0,1.0,crate_05s.jpg,0.0,clock_5_4.png,2.0,35,,,,,,,,,,,,,,,,,,,,,,,,,,,,,,,,
0.0,1.0,0.930355,0.0,11.0,11.0,11.0,1.0,pocket_watch_16s.jpg,0.0,clock_5_5.png,2.0,35,,,,,,,,,,,,,,,,,,,,,,,,,,,,,,,,
0.0,1.0,0.5374,0.0,12.0,12.0,12.0,1.0,pocketknife_12s.jpg,0.0,clock_6_1.png,3.0,35,,,,,,,,,,,,,,,,,,,,,,,,,,,,,,,,
0.0,1.0,0.57009,0.0,13.0,13.0,13.0,1.0,jalapeno_15s.jpg,0.0,clock_6_2.png,3.0,35,,,,,,,,,,,,,,,,,,,,,,,,,,,,,,,,
0.0,1.0,1.37822,0.0,14.0,14.0,14.0,1.0,tupperware_09s.jpg,0.0,clock_6_3.png,3.0,35,,,,,,,,,,,,,,,,,,,,,,,,,,,,,,,,
0.0,1.0,0.800975,0.0,15.0,15.0,15.0,1.0,stapler_01b.jpg,0.0,clock_6_4.png,3.0,35,,,,,,,,,,,,,,,,,,,,,,,,,,,,,,,,
0.0,1.0,0.992875,0.0,16.0,16.0,16.0,1.0,cap_05s.jpg,0.0,clock_6_5.png,3.0,35,,,,,,,,,,,,,,,,,,,,,,,,,,,,,,,,
0.0,1.0,0.681195,0.0,17.0,17.0,17.0,1.0,lavender_10s.jpg,0.0,clock_6_6.png,3.0,35,,,,,,,,,,,,,,,,,,,,,,,,,,,,,,,,
0.0,1.0,0.56115,0.0,18.0,18.0,18.0,1.0,racehorse_03s.jpg,0.0,clock_6_1.png,4.0,35,,,,,,,,,,,,,,,,,,,,,,,,,,,,,,,,
0.0,1.0,0.576815,0.0,19.0,19.0,19.0,1.0,teacup_07s.jpg,0.0,clock_6_2.png,4.0,35,,,,,,,,,,,,,,,,,,,,,,,,,,,,,,,,
0.0,1.0,0.697995,0.0,20.0,20.0,20.0,1.0,lip_gloss_06s.jpg,0.0,clock_6_3.png,4.0,35,,,,,,,,,,,,,,,,,,,,,,,,,,,,,,,,
1.0,1.0,0.777545,0.0,21.0,21.0,21.0,1.0,racehorse_03s.jpg,1.0,clock_6_4.png,4.0,35,,,,,,,,,,,,,,,,,,,,,,,,,,,,,,,,
0.0,0.0,1.56126,0.0,22.0,22.0,22.0,1.0,lip_gloss_06s.jpg,1.0,clock_6_5.png,4.0,35,,,,,,,,,,,,,,,,,,,,,,,,,,,,,,,,
0.0,1.0,0.647855,0.0,23.0,23.0,23.0,1.0,seahorse_13s.jpg,0.0,clock_6_6.png,4.0,35,,,,,,,,,,,,,,,,,,,,,,,,,,,,,,,,
0.0,1.0,0.60698,0.0,24.0,24.0,24.0,1.0,tuxedo_01b.jpg,0.0,clock_5_1.png,5.0,35,,,,,,,,,,,,,,,,,,,,,,,,,,,,,,,,
0.0,1.0,0.671455,0.0,25.0,25.0,25.0,1.0,ice-cream_cone_06s.jpg,0.0,clock_5_2.png,5.0,35,,,,,,,,,,,,,,,,,,,,,,,,,,,,,,,,
0.0,1.0,0.56684,0.0,26.0,26.0,26.0,1.0,jukebox_03n.jpg,0.0,clock_5_3.png,5.0,35,,,,,,,,,,,,,,,,,,,,,,,,,,,,,,,,
0.0,0.0,0.54305,0.0,27.0,27.0,27.0,1.0,ice-cream_cone_06s.jpg,1.0,clock_5_4.png,5.0,35,,,,,,,,,,,,,,,,,,,,,,,,,,,,,,,,
0.0,1.0,0.702485,0.0,28.0,28.0,28.0,1.0,teacup_07s.jpg,0.0,clock_5_5.png,5.0,35,,,,,,,,,,,,,,,,,,,,,,,,,,,,,,,,
0.0,1.0,0.86229,0.0,29.0,29.0,29.0,1.0,rope_16s.jpg,0.0,clock_7_1.png,6.0,35,,,,,,,,,,,,,,,,,,,,,,,,,,,,,,,,
0.0,1.0,0.73312,0.0,30.0,30.0,30.0,1.0,fork_04s.jpg,0.0,clock_7_2.png,6.0,35,,,,,,,,,,,,,,,,,,,,,,,,,,,,,,,,
1.0,1.0,1.133965,0.0,31.0,31.0,31.0,1.0,rope_16s.jpg,1.0,clock_7_3.png,6.0,35,,,,,,,,,,,,,,,,,,,,,,,,,,,,,,,,
1.0,1.0,0.59012,0.0,32.0,32.0,32.0,1.0,fork_04s.jpg,1.0,clock_7_4.png,6.0,35,,,,,,,,,,,,,,,,,,,,,,,,,,,,,,,,
0.0,1.0,0.70135,0.0,33.0,33.0,33.0,1.0,stump_02s.jpg,0.0,clock_7_5.png,6.0,35,,,,,,,,,,,,,,,,,,,,,,,,,,,,,,,,
0.0,1.0,0.8125,0.0,34.0,34.0,34.0,1.0,air_pump_05s.jpg,0.0,clock_7_6.png,6.0,35,,,,,,,,,,,,,,,,,,,,,,,,,,,,,,,,
1.0,1.0,1.021115,0.0,35.0,35.0,35.0,1.0,air_pump_05s.jpg,1.0,clock_7_7.png,6.0,35,,,,,,,,,,,,,,,,,,,,,,,,,,,,,,,,
,,,,,,,,,0.0,,,35,0.0,1.0,3.188495,0.0,0.0,0.0,0.0,1.0,jukebox_03n.jpg,seahorse_13s.jpg,,,,,,,,,,,,,,,,,,,,,,
,,,,,,,,,1.0,,,35,1.0,1.0,1.2401,0.0,1.0,1.0,1.0,1.0,kitten_07s.jpg,pocketknife_12s.jpg,,,,,,,,,,,,,,,,,,,,,,
,,,,,,,,,0.0,,,35,0.0,1.0,1.546555,0.0,2.0,2.0,2.0,1.0,jalapeno_15s.jpg,crate_05s.jpg,,,,,,,,,,,,,,,,,,,,,,
,,,,,,,,,0.0,,,35,1.0,0.0,1.640315,0.0,3.0,3.0,3.0,1.0,basket_05s.jpg,swimming_pool_17s.jpg,,,,,,,,,,,,,,,,,,,,,,
,,,,,,,,,0.0,,,35,1.0,0.0,1.665435,0.0,4.0,4.0,4.0,1.0,rhubarb_03s.jpg,blowfish_03s.jpg,,,,,,,,,,,,,,,,,,,,,,
,,,,,,,,,1.0,,,35,0.0,0.0,1.13232,0.0,5.0,5.0,5.0,1.0,seagull_01b.jpg,pocket_watch_16s.jpg,,,,,,,,,,,,,,,,,,,,,,
,,,,,,,,,,,,35,,,,,,,,,,,0.0,0.0,0.0,0.0,1.0,clock_present_1_14.xlsx,clock_compare_task_1_14.xlsx,,,,,,,,,,,,,,,
0.0,1.0,1.592125,0.0,0.0,0.0,0.0,1.0,bagel_15s.jpg,0.0,clock_5_1.png,1.0,35,,,,,,,,,,,,,,,,,,,,,,,,,,,,,,,,
0.0,1.0,0.756735,0.0,1.0,1.0,1.0,1.0,rabbit_03s.jpg,0.0,clock_5_2.png,1.0,35,,,,,,,,,,,,,,,,,,,,,,,,,,,,,,,,
1.0,1.0,0.98853,0.0,2.0,2.0,2.0,1.0,bagel_15s.jpg,1.0,clock_5_3.png,1.0,35,,,,,,,,,,,,,,,,,,,,,,,,,,,,,,,,
0.0,1.0,0.73187,0.0,3.0,3.0,3.0,1.0,key_07s.jpg,0.0,clock_5_4.png,1.0,35,,,,,,,,,,,,,,,,,,,,,,,,,,,,,,,,
0.0,1.0,0.764905,0.0,4.0,4.0,4.0,1.0,mascara_03s.jpg,0.0,clock_5_5.png,1.0,35,,,,,,,,,,,,,,,,,,,,,,,,,,,,,,,,
0.0,1.0,0.643535,0.0,5.0,5.0,5.0,1.0,knot_01b.jpg,0.0,clock_6_1.png,2.0,35,,,,,,,,,,,,,,,,,,,,,,,,,,,,,,,,
0.0,1.0,0.981415,0.0,6.0,6.0,6.0,1.0,measuring_cup_02s.jpg,0.0,clock_6_2.png,2.0,35,,,,,,,,,,,,,,,,,,,,,,,,,,,,,,,,
0.0,1.0,0.61143,0.0,7.0,7.0,7.0,1.0,syringe_02s.jpg,0.0,clock_6_3.png,2.0,35,,,,,,,,,,,,,,,,,,,,,,,,,,,,,,,,
0.0,0.0,1.10704,0.0,8.0,8.0,8.0,1.0,knot_01b.jpg,1.0,clock_6_4.png,2.0,35,,,,,,,,,,,,,,,,,,,,,,,,,,,,,,,,
0.0,1.0,0.627145,0.0,9.0,9.0,9.0,1.0,pancake_12s.jpg,0.0,clock_6_5.png,2.0,35,,,,,,,,,,,,,,,,,,,,,,,,,,,,,,,,
0.0,1.0,0.618155,0.0,10.0,10.0,10.0,1.0,saddle_06s.jpg,0.0,clock_6_6.png,2.0,35,,,,,,,,,,,,,,,,,,,,,,,,,,,,,,,,
0.0,1.0,0.778275,0.0,11.0,11.0,11.0,1.0,stingray_02s.jpg,0.0,clock_7_1.png,3.0,35,,,,,,,,,,,,,,,,,,,,,,,,,,,,,,,,
1.0,0.0,1.39483,0.0,12.0,12.0,12.0,1.0,pancake_12s.jpg,0.0,clock_7_2.png,3.0,35,,,,,,,,,,,,,,,,,,,,,,,,,,,,,,,,
0.0,1.0,0.585005,0.0,13.0,13.0,13.0,1.0,kite_04s.jpg,0.0,clock_7_3.png,3.0,35,,,,,,,,,,,,,,,,,,,,,,,,,,,,,,,,
0.0,1.0,0.80181,0.0,14.0,14.0,14.0,1.0,pincushion_10s.jpg,0.0,clock_7_4.png,3.0,35,,,,,,,,,,,,,,,,,,,,,,,,,,,,,,,,
0.0,1.0,0.721075,0.0,15.0,15.0,15.0,1.0,ice_pack_09s.jpg,0.0,clock_7_5.png,3.0,35,,,,,,,,,,,,,,,,,,,,,,,,,,,,,,,,
1.0,1.0,0.95321,0.0,16.0,16.0,16.0,1.0,kite_04s.jpg,1.0,clock_7_6.png,3.0,35,,,,,,,,,,,,,,,,,,,,,,,,,,,,,,,,
0.0,1.0,0.68777,0.0,17.0,17.0,17.0,1.0,thumbtack_14s.jpg,0.0,clock_7_7.png,3.0,35,,,,,,,,,,,,,,,,,,,,,,,,,,,,,,,,
0.0,1.0,0.543905,0.0,18.0,18.0,18.0,1.0,stamp1_11s.jpg,0.0,clock_5_1.png,4.0,35,,,,,,,,,,,,,,,,,,,,,,,,,,,,,,,,
1.0,1.0,2.2324,0.0,19.0,19.0,19.0,1.0,stamp1_11s.jpg,1.0,clock_5_2.png,4.0,35,,,,,,,,,,,,,,,,,,,,,,,,,,,,,,,,
0.0,1.0,0.639305,0.0,20.0,20.0,20.0,1.0,lizard_10n.jpg,0.0,clock_5_3.png,4.0,35,,,,,,,,,,,,,,,,,,,,,,,,,,,,,,,,
0.0,1.0,0.575205,0.0,21.0,21.0,21.0,1.0,toilet_paper_12s.jpg,0.0,clock_5_4.png,4.0,35,,,,,,,,,,,,,,,,,,,,,,,,,,,,,,,,
0.0,1.0,0.751015,0.0,22.0,22.0,22.0,1.0,gong_02s.jpg,0.0,clock_5_5.png,4.0,35,,,,,,,,,,,,,,,,,,,,,,,,,,,,,,,,
0.0,1.0,0.5103,0.0,23.0,23.0,23.0,1.0,rake_06s.jpg,0.0,clock_6_1.png,5.0,35,,,,,,,,,,,,,,,,,,,,,,,,,,,,,,,,
0.0,1.0,0.8651,0.0,24.0,24.0,24.0,1.0,syringe_02s.jpg,0.0,clock_6_2.png,5.0,35,,,,,,,,,,,,,,,,,,,,,,,,,,,,,,,,
0.0,1.0,0.97415,0.0,25.0,25.0,25.0,1.0,thumbtack_14s.jpg,0.0,clock_6_3.png,5.0,35,,,,,,,,,,,,,,,,,,,,,,,,,,,,,,,,
0.0,1.0,0.90251,0.0,26.0,26.0,26.0,1.0,boomerang_06s.jpg,0.0,clock_6_4.png,5.0,35,,,,,,,,,,,,,,,,,,,,,,,,,,,,,,,,
0.0,1.0,0.660765,0.0,27.0,27.0,27.0,1.0,kayak_08s.jpg,0.0,clock_6_5.png,5.0,35,,,,,,,,,,,,,,,,,,,,,,,,,,,,,,,,
0.0,1.0,0.741345,0.0,28.0,28.0,28.0,1.0,fountain_pen_06s.jpg,0.0,clock_6_6.png,5.0,35,,,,,,,,,,,,,,,,,,,,,,,,,,,,,,,,
0.0,1.0,0.693875,0.0,29.0,29.0,29.0,1.0,contact_lens_15s.jpg,0.0,clock_7_1.png,6.0,35,,,,,,,,,,,,,,,,,,,,,,,,,,,,,,,,
0.0,1.0,0.61462,0.0,30.0,30.0,30.0,1.0,lamb_chop_07s.jpg,0.0,clock_7_2.png,6.0,35,,,,,,,,,,,,,,,,,,,,,,,,,,,,,,,,
0.0,1.0,0.628395,0.0,31.0,31.0,31.0,1.0,pear_02s.jpg,0.0,clock_7_3.png,6.0,35,,,,,,,,,,,,,,,,,,,,,,,,,,,,,,,,
0.0,1.0,0.45997,0.0,32.0,32.0,32.0,1.0,potpourri_03s.jpg,0.0,clock_7_4.png,6.0,35,,,,,,,,,,,,,,,,,,,,,,,,,,,,,,,,
0.0,1.0,0.460265,0.0,33.0,33.0,33.0,1.0,pincushion_10s.jpg,0.0,clock_7_5.png,6.0,35,,,,,,,,,,,,,,,,,,,,,,,,,,,,,,,,
0.0,1.0,0.548485,0.0,34.0,34.0,34.0,1.0,foam_03s.jpg,0.0,clock_7_6.png,6.0,35,,,,,,,,,,,,,,,,,,,,,,,,,,,,,,,,
0.0,1.0,0.586785,0.0,35.0,35.0,35.0,1.0,bathtub_23s.jpg,0.0,clock_7_7.png,6.0,35,,,,,,,,,,,,,,,,,,,,,,,,,,,,,,,,
,,,,,,,,,1.0,,,35,0.0,0.0,2.1788,0.0,0.0,0.0,0.0,1.0,key_07s.jpg,measuring_cup_02s.jpg,,,,,,,,,,,,,,,,,,,,,,
,,,,,,,,,1.0,,,35,1.0,1.0,1.12602,0.0,1.0,1.0,1.0,1.0,kayak_08s.jpg,lamb_chop_07s.jpg,,,,,,,,,,,,,,,,,,,,,,
,,,,,,,,,1.0,,,35,0.0,0.0,1.29263,0.0,2.0,2.0,2.0,1.0,lizard_10n.jpg,rake_06s.jpg,,,,,,,,,,,,,,,,,,,,,,
,,,,,,,,,1.0,,,35,1.0,1.0,1.7325,0.0,3.0,3.0,3.0,1.0,rabbit_03s.jpg,mascara_03s.jpg,,,,,,,,,,,,,,,,,,,,,,
,,,,,,,,,1.0,,,35,1.0,1.0,1.482645,0.0,4.0,4.0,4.0,1.0,potpourri_03s.jpg,bathtub_23s.jpg,,,,,,,,,,,,,,,,,,,,,,
,,,,,,,,,0.0,,,35,1.0,0.0,1.338215,0.0,5.0,5.0,5.0,1.0,foam_03s.jpg,pear_02s.jpg,,,,,,,,,,,,,,,,,,,,,,
,,,,,,,,,,,,35,,,,,,,,,,,0.0,1.0,1.0,1.0,1.0,clock_present_2_14.xlsx,clock_compare_task_2_14.xlsx,,,,,,,,,,,,,,,
0.0,1.0,1.53215,0.0,0.0,0.0,0.0,1.0,magnet_03s.jpg,0.0,clock_5_1.png,1.0,35,,,,,,,,,,,,,,,,,,,,,,,,,,,,,,,,
1.0,1.0,0.81013,0.0,1.0,1.0,1.0,1.0,magnet_03s.jpg,1.0,clock_5_2.png,1.0,35,,,,,,,,,,,,,,,,,,,,,,,,,,,,,,,,
0.0,1.0,0.45042,0.0,2.0,2.0,2.0,1.0,insole_11s.jpg,0.0,clock_5_3.png,1.0,35,,,,,,,,,,,,,,,,,,,,,,,,,,,,,,,,
0.0,1.0,0.832835,0.0,3.0,3.0,3.0,1.0,safety_pin_02s.jpg,0.0,clock_5_4.png,1.0,35,,,,,,,,,,,,,,,,,,,,,,,,,,,,,,,,
0.0,1.0,0.64909,0.0,4.0,4.0,4.0,1.0,pie_08s.jpg,0.0,clock_5_5.png,1.0,35,,,,,,,,,,,,,,,,,,,,,,,,,,,,,,,,
0.0,1.0,0.64894,0.0,5.0,5.0,5.0,1.0,flask_04s.jpg,0.0,clock_6_1.png,2.0,35,,,,,,,,,,,,,,,,,,,,,,,,,,,,,,,,
0.0,1.0,0.65692,0.0,6.0,6.0,6.0,1.0,stopwatch_04s.jpg,0.0,clock_6_2.png,2.0,35,,,,,,,,,,,,,,,,,,,,,,,,,,,,,,,,
0.0,1.0,0.607695,0.0,7.0,7.0,7.0,1.0,olive_05s.jpg,0.0,clock_6_3.png,2.0,35,,,,,,,,,,,,,,,,,,,,,,,,,,,,,,,,
0.0,1.0,0.53576,0.0,8.0,8.0,8.0,1.0,laser_pointer_02s.jpg,0.0,clock_6_4.png,2.0,35,,,,,,,,,,,,,,,,,,,,,,,,,,,,,,,,
0.0,1.0,0.744825,0.0,9.0,9.0,9.0,1.0,pie_08s.jpg,0.0,clock_6_5.png,2.0,35,,,,,,,,,,,,,,,,,,,,,,,,,,,,,,,,
1.0,1.0,1.527565,0.0,10.0,10.0,10.0,1.0,laser_pointer_02s.jpg,1.0,clock_6_6.png,2.0,35,,,,,,,,,,,,,,,,,,,,,,,,,,,,,,,,
0.0,1.0,0.75122,0.0,11.0,11.0,11.0,1.0,surfboard_11s.jpg,0.0,clock_6_1.png,3.0,35,,,,,,,,,,,,,,,,,,,,,,,,,,,,,,,,
0.0,1.0,0.655195,0.0,12.0,12.0,12.0,1.0,money_07s.jpg,0.0,clock_6_2.png,3.0,35,,,,,,,,,,,,,,,,,,,,,,,,,,,,,,,,
0.0,1.0,0.550445,0.0,13.0,13.0,13.0,1.0,bubble_01b.jpg,0.0,clock_6_3.png,3.0,35,,,,,,,,,,,,,,,,,,,,,,,,,,,,,,,,
0.0,1.0,0.848345,0.0,14.0,14.0,14.0,1.0,lipstick_02s.jpg,0.0,clock_6_4.png,3.0,35,,,,,,,,,,,,,,,,,,,,,,,,,,,,,,,,
0.0,1.0,0.733525,0.0,15.0,15.0,15.0,1.0,leash_10s.jpg,0.0,clock_6_5.png,3.0,35,,,,,,,,,,,,,,,,,,,,,,,,,,,,,,,,
0.0,1.0,0.765955,0.0,16.0,16.0,16.0,1.0,flask_04s.jpg,0.0,clock_6_6.png,3.0,35,,,,,,,,,,,,,,,,,,,,,,,,,,,,,,,,
0.0,1.0,1.398745,0.0,17.0,17.0,17.0,1.0,puck_06s.jpg,0.0,clock_7_1.png,4.0,35,,,,,,,,,,,,,,,,,,,,,,,,,,,,,,,,
0.0,1.0,0.693065,0.0,18.0,18.0,18.0,1.0,paintbrush_04s.jpg,0.0,clock_7_2.png,4.0,35,,,,,,,,,,,,,,,,,,,,,,,,,,,,,,,,
1.0,1.0,0.63721,0.0,19.0,19.0,19.0,1.0,puck_06s.jpg,1.0,clock_7_3.png,4.0,35,,,,,,,,,,,,,,,,,,,,,,,,,,,,,,,,
0.0,1.0,0.6529,0.0,20.0,20.0,20.0,1.0,tweezers_03s.jpg,0.0,clock_7_4.png,4.0,35,,,,,,,,,,,,,,,,,,,,,,,,,,,,,,,,
1.0,1.0,0.828485,0.0,21.0,21.0,21.0,1.0,puck_06s.jpg,1.0,clock_7_5.png,4.0,35,,,,,,,,,,,,,,,,,,,,,,,,,,,,,,,,
0.0,1.0,0.68407,0.0,22.0,22.0,22.0,1.0,tulip_02s.jpg,0.0,clock_7_6.png,4.0,35,,,,,,,,,,,,,,,,,,,,,,,,,,,,,,,,
0.0,1.0,1.860195,0.0,23.0,23.0,23.0,1.0,bubble_01b.jpg,0.0,clock_7_7.png,4.0,35,,,,,,,,,,,,,,,,,,,,,,,,,,,,,,,,
0.0,1.0,1.051355,0.0,24.0,24.0,24.0,1.0,mattress_01s.jpg,0.0,clock_5_1.png,5.0,35,,,,,,,,,,,,,,,,,,,,,,,,,,,,,,,,
1.0,1.0,0.765305,0.0,25.0,25.0,25.0,1.0,mattress_01s.jpg,1.0,clock_5_2.png,5.0,35,,,,,,,,,,,,,,,,,,,,,,,,,,,,,,,,
0.0,1.0,1.7541,0.0,26.0,26.0,26.0,1.0,puddle_02s.jpg,0.0,clock_5_3.png,5.0,35,,,,,,,,,,,,,,,,,,,,,,,,,,,,,,,,
0.0,1.0,0.69048,0.0,27.0,27.0,27.0,1.0,peanut_butter_08s.jpg,0.0,clock_5_4.png,5.0,35,,,,,,,,,,,,,,,,,,,,,,,,,,,,,,,,
0.0,1.0,0.81799,0.0,28.0,28.0,28.0,1.0,loveseat_08s.jpg,0.0,clock_5_5.png,5.0,35,,,,,,,,,,,,,,,,,,,,,,,,,,,,,,,,
0.0,1.0,0.69838,0.0,29.0,29.0,29.0,1.0,timer_03s.jpg,0.0,clock_7_1.png,6.0,35,,,,,,,,,,,,,,,,,,,,,,,,,,,,,,,,
0.0,1.0,0.567895,0.0,30.0,30.0,30.0,1.0,icicle_04s.jpg,0.0,clock_7_2.png,6.0,35,,,,,,,,,,,,,,,,,,,,,,,,,,,,,,,,
0.0,1.0,1.137385,0.0,31.0,31.0,31.0,1.0,fishhook_06s.jpg,0.0,clock_7_3.png,6.0,35,,,,,,,,,,,,,,,,,,,,,,,,,,,,,,,,
0.0,1.0,0.616535,0.0,32.0,32.0,32.0,1.0,pump_11s.jpg,0.0,clock_7_4.png,6.0,35,,,,,,,,,,,,,,,,,,,,,,,,,,,,,,,,
0.0,1.0,0.600465,0.0,33.0,33.0,33.0,1.0,ukulele_02s.jpg,0.0,clock_7_5.png,6.0,35,,,,,,,,,,,,,,,,,,,,,,,,,,,,,,,,
0.0,1.0,0.48175,0.0,34.0,34.0,34.0,1.0,safety_pin_02s.jpg,0.0,clock_7_6.png,6.0,35,,,,,,,,,,,,,,,,,,,,,,,,,,,,,,,,
0.0,1.0,0.59987,0.0,35.0,35.0,35.0,1.0,sundae_08s.jpg,0.0,clock_7_7.png,6.0,35,,,,,,,,,,,,,,,,,,,,,,,,,,,,,,,,
,,,,,,,,,0.0,,,35,0.0,1.0,1.559005,0.0,0.0,0.0,0.0,1.0,fishhook_06s.jpg,loveseat_08s.jpg,,,,,,,,,,,,,,,,,,,,,,
,,,,,,,,,0.0,,,35,0.0,1.0,1.315635,0.0,1.0,1.0,1.0,1.0,paintbrush_04s.jpg,leash_10s.jpg,,,,,,,,,,,,,,,,,,,,,,
,,,,,,,,,0.0,,,35,0.0,1.0,2.106055,0.0,2.0,2.0,2.0,1.0,timer_03s.jpg,puddle_02s.jpg,,,,,,,,,,,,,,,,,,,,,,
,,,,,,,,,1.0,,,35,1.0,1.0,1.55308,0.0,3.0,3.0,3.0,1.0,surfboard_11s.jpg,lipstick_02s.jpg,,,,,,,,,,,,,,,,,,,,,,
,,,,,,,,,0.0,,,35,0.0,1.0,1.26215,0.0,4.0,4.0,4.0,1.0,sundae_08s.jpg,pump_11s.jpg,,,,,,,,,,,,,,,,,,,,,,
,,,,,,,,,0.0,,,35,0.0,1.0,2.151995,0.0,5.0,5.0,5.0,1.0,ukulele_02s.jpg,icicle_04s.jpg,,,,,,,,,,,,,,,,,,,,,,
,,,,,,,,,,,,35,,,,,,,,,,,0.0,2.0,2.0,2.0,1.0,clock_present_3_14.xlsx,clock_compare_task_3_14.xlsx,,,,,,,,,,,,,,,
0.0,1.0,1.37786,0.0,0.0,0.0,0.0,1.0,mold2_04s.jpg,0.0,clock_5_1.png,1.0,35,,,,,,,,,,,,,,,,,,,,,,,,,,,,,,,,
1.0,1.0,0.84876,0.0,1.0,1.0,1.0,1.0,mold2_04s.jpg,1.0,clock_5_2.png,1.0,35,,,,,,,,,,,,,,,,,,,,,,,,,,,,,,,,
1.0,1.0,1.008405,0.0,2.0,2.0,2.0,1.0,mold2_04s.jpg,1.0,clock_5_3.png,1.0,35,,,,,,,,,,,,,,,,,,,,,,,,,,,,,,,,
1.0,1.0,0.59163,0.0,3.0,3.0,3.0,1.0,mold2_04s.jpg,1.0,clock_5_4.png,1.0,35,,,,,,,,,,,,,,,,,,,,,,,,,,,,,,,,
0.0,1.0,0.76643,0.0,4.0,4.0,4.0,1.0,sledgehammer_03s.jpg,0.0,clock_5_5.png,1.0,35,,,,,,,,,,,,,,,,,,,,,,,,,,,,,,,,
0.0,1.0,0.78298,0.0,5.0,5.0,5.0,1.0,prism_10s.jpg,0.0,clock_7_1.png,2.0,35,,,,,,,,,,,,,,,,,,,,,,,,,,,,,,,,
0.0,1.0,0.74219,0.0,6.0,6.0,6.0,1.0,jewel_01b.jpg,0.0,clock_7_2.png,2.0,35,,,,,,,,,,,,,,,,,,,,,,,,,,,,,,,,
0.0,1.0,0.66263,0.0,7.0,7.0,7.0,1.0,puffin_19s.jpg,0.0,clock_7_3.png,2.0,35,,,,,,,,,,,,,,,,,,,,,,,,,,,,,,,,
0.0,1.0,0.63118,0.0,8.0,8.0,8.0,1.0,screwdriver02a.jpg,0.0,clock_7_4.png,2.0,35,,,,,,,,,,,,,,,,,,,,,,,,,,,,,,,,
0.0,1.0,0.6211,0.0,9.0,9.0,9.0,1.0,thermostat_02s.jpg,0.0,clock_7_5.png,2.0,35,,,,,,,,,,,,,,,,,,,,,,,,,,,,,,,,
1.0,1.0,0.90974,0.0,10.0,10.0,10.0,1.0,jewel_01b.jpg,1.0,clock_7_6.png,2.0,35,,,,,,,,,,,,,,,,,,,,,,,,,,,,,,,,
1.0,1.0,0.821805,0.0,11.0,11.0,11.0,1.0,puffin_19s.jpg,1.0,clock_7_7.png,2.0,35,,,,,,,,,,,,,,,,,,,,,,,,,,,,,,,,
0.0,1.0,0.444885,0.0,12.0,12.0,12.0,1.0,petri_dish_12s.jpg,0.0,clock_6_1.png,3.0,35,,,,,,,,,,,,,,,,,,,,,,,,,,,,,,,,
0.0,1.0,0.581595,0.0,13.0,13.0,13.0,1.0,plug_08s.jpg,0.0,clock_6_2.png,3.0,35,,,,,,,,,,,,,,,,,,,,,,,,,,,,,,,,
0.0,1.0,0.66784,0.0,14.0,14.0,14.0,1.0,hydrant_10s.jpg,0.0,clock_6_3.png,3.0,35,,,,,,,,,,,,,,,,,,,,,,,,,,,,,,,,
1.0,1.0,0.7821,0.0,15.0,15.0,15.0,1.0,petri_dish_12s.jpg,1.0,clock_6_4.png,3.0,35,,,,,,,,,,,,,,,,,,,,,,,,,,,,,,,,
0.0,1.0,0.69964,0.0,16.0,16.0,16.0,1.0,amber_04s.jpg,0.0,clock_6_5.png,3.0,35,,,,,,,,,,,,,,,,,,,,,,,,,,,,,,,,
0.0,1.0,0.67504,0.0,17.0,17.0,17.0,1.0,luggage_08s.jpg,0.0,clock_6_6.png,3.0,35,,,,,,,,,,,,,,,,,,,,,,,,,,,,,,,,
0.0,1.0,0.74844,0.0,18.0,18.0,18.0,1.0,cushion_08s.jpg,0.0,clock_7_1.png,4.0,35,,,,,,,,,,,,,,,,,,,,,,,,,,,,,,,,
0.0,1.0,0.690695,0.0,19.0,19.0,19.0,1.0,mushroom_10n.jpg,0.0,clock_7_2.png,4.0,35,,,,,,,,,,,,,,,,,,,,,,,,,,,,,,,,
0.0,1.0,1.13227,0.0,20.0,20.0,20.0,1.0,puffin_19s.jpg,0.0,clock_7_3.png,4.0,35,,,,,,,,,,,,,,,,,,,,,,,,,,,,,,,,
0.0,1.0,0.86635,0.0,21.0,21.0,21.0,1.0,lasagna_06s.jpg,0.0,clock_7_4.png,4.0,35,,,,,,,,,,,,,,,,,,,,,,,,,,,,,,,,
0.0,1.0,0.68918,0.0,22.0,22.0,22.0,1.0,thorn_13s.jpg,0.0,clock_7_5.png,4.0,35,,,,,,,,,,,,,,,,,,,,,,,,,,,,,,,,
0.0,1.0,0.59398,0.0,23.0,23.0,23.0,1.0,jelly_bean_06s.jpg,0.0,clock_7_6.png,4.0,35,,,,,,,,,,,,,,,,,,,,,,,,,,,,,,,,
0.0,1.0,0.56921,0.0,24.0,24.0,24.0,1.0,mosquito_12s.jpg,0.0,clock_7_7.png,4.0,35,,,,,,,,,,,,,,,,,,,,,,,,,,,,,,,,
0.0,1.0,0.633305,0.0,25.0,25.0,25.0,1.0,triangle_10s.jpg,0.0,clock_6_1.png,5.0,35,,,,,,,,,,,,,,,,,,,,,,,,,,,,,,,,
0.0,1.0,0.656635,0.0,26.0,26.0,26.0,1.0,roulette_wheel_04s.jpg,0.0,clock_6_2.png,5.0,35,,,,,,,,,,,,,,,,,,,,,,,,,,,,,,,,
1.0,1.0,1.13675,0.0,27.0,27.0,27.0,1.0,roulette_wheel_04s.jpg,1.0,clock_6_3.png,5.0,35,,,,,,,,,,,,,,,,,,,,,,,,,,,,,,,,
0.0,1.0,1.098725,0.0,28.0,28.0,28.0,1.0,puffin_19s.jpg,0.0,clock_6_4.png,5.0,35,,,,,,,,,,,,,,,,,,,,,,,,,,,,,,,,
0.0,1.0,0.904145,0.0,29.0,29.0,29.0,1.0,outlet_10s.jpg,0.0,clock_6_5.png,5.0,35,,,,,,,,,,,,,,,,,,,,,,,,,,,,,,,,
0.0,1.0,0.823625,0.0,30.0,30.0,30.0,1.0,abacus_12s.jpg,0.0,clock_6_6.png,5.0,35,,,,,,,,,,,,,,,,,,,,,,,,,,,,,,,,
0.0,1.0,0.455215,0.0,31.0,31.0,31.0,1.0,pencil02a.jpg,0.0,clock_5_1.png,6.0,35,,,,,,,,,,,,,,,,,,,,,,,,,,,,,,,,
0.0,1.0,0.48723,0.0,32.0,32.0,32.0,1.0,pillow_03s.jpg,0.0,clock_5_2.png,6.0,35,,,,,,,,,,,,,,,,,,,,,,,,,,,,,,,,
1.0,1.0,0.783,0.0,33.0,33.0,33.0,1.0,pencil02a.jpg,1.0,clock_5_3.png,6.0,35,,,,,,,,,,,,,,,,,,,,,,,,,,,,,,,,
0.0,1.0,0.66435,0.0,34.0,34.0,34.0,1.0,towel_rack_04s.jpg,0.0,clock_5_4.png,6.0,35,,,,,,,,,,,,,,,,,,,,,,,,,,,,,,,,
0.0,1.0,0.670205,0.0,35.0,35.0,35.0,1.0,machine_gun_09s.jpg,0.0,clock_5_5.png,6.0,35,,,,,,,,,,,,,,,,,,,,,,,,,,,,,,,,
,,,,,,,,,1.0,,,35,1.0,1.0,2.022405,0.0,0.0,0.0,0.0,1.0,thorn_13s.jpg,triangle_10s.jpg,,,,,,,,,,,,,,,,,,,,,,
,,,,,,,,,0.0,,,35,1.0,0.0,1.33296,0.0,1.0,1.0,1.0,1.0,pillow_03s.jpg,outlet_10s.jpg,,,,,,,,,,,,,,,,,,,,,,
,,,,,,,,,1.0,,,35,0.0,0.0,1.18759,0.0,2.0,2.0,2.0,1.0,amber_04s.jpg,mushroom_10n.jpg,,,,,,,,,,,,,,,,,,,,,,
,,,,,,,,,0.0,,,35,0.0,1.0,1.055215,0.0,3.0,3.0,3.0,1.0,screwdriver02a.jpg,prism_10s.jpg,,,,,,,,,,,,,,,,,,,,,,
,,,,,,,,,1.0,,,35,0.0,0.0,1.472405,0.0,4.0,4.0,4.0,1.0,hydrant_10s.jpg,luggage_08s.jpg,,,,,,,,,,,,,,,,,,,,,,
,,,,,,,,,1.0,,,35,0.0,0.0,2.21692,0.0,5.0,5.0,5.0,1.0,cushion_08s.jpg,lasagna_06s.jpg,,,,,,,,,,,,,,,,,,,,,,
,,,,,,,,,,,,35,,,,,,,,,,,0.0,3.0,3.0,3.0,1.0,clock_present_4_14.xlsx,clock_compare_task_4_14.xlsx,,,,,,,,,,,,,,,
0.0,1.0,0.905775,0.0,0.0,0.0,0.0,1.0,checkbook_11s.jpg,0.0,clock_7_1.png,1.0,35,,,,,,,,,,,,,,,,,,,,,,,,,,,,,,,,
0.0,1.0,0.592475,0.0,1.0,1.0,1.0,1.0,submarine_11n.jpg,0.0,clock_7_2.png,1.0,35,,,,,,,,,,,,,,,,,,,,,,,,,,,,,,,,
0.0,1.0,0.583935,0.0,2.0,2.0,2.0,1.0,doily_13s.jpg,0.0,clock_7_3.png,1.0,35,,,,,,,,,,,,,,,,,,,,,,,,,,,,,,,,
0.0,1.0,0.74442,0.0,3.0,3.0,3.0,1.0,briefcase_03s.jpg,0.0,clock_7_4.png,1.0,35,,,,,,,,,,,,,,,,,,,,,,,,,,,,,,,,
0.0,1.0,0.59184,0.0,4.0,4.0,4.0,1.0,film_03s.jpg,0.0,clock_7_5.png,1.0,35,,,,,,,,,,,,,,,,,,,,,,,,,,,,,,,,
0.0,1.0,0.567275,0.0,5.0,5.0,5.0,1.0,ironing_board_07s.jpg,0.0,clock_7_6.png,1.0,35,,,,,,,,,,,,,,,,,,,,,,,,,,,,,,,,
1.0,1.0,0.82392,0.0,6.0,6.0,6.0,1.0,checkbook_11s.jpg,1.0,clock_7_7.png,1.0,35,,,,,,,,,,,,,,,,,,,,,,,,,,,,,,,,
0.0,1.0,0.79114,0.0,7.0,7.0,7.0,1.0,sushi_08s.jpg,0.0,clock_6_1.png,2.0,35,,,,,,,,,,,,,,,,,,,,,,,,,,,,,,,,
0.0,1.0,0.66499,0.0,8.0,8.0,8.0,1.0,go-kart_10s.jpg,0.0,clock_6_2.png,2.0,35,,,,,,,,,,,,,,,,,,,,,,,,,,,,,,,,
0.0,1.0,0.910485,0.0,9.0,9.0,9.0,1.0,tripod_01b.jpg,0.0,clock_6_3.png,2.0,35,,,,,,,,,,,,,,,,,,,,,,,,,,,,,,,,
0.0,1.0,0.510145,0.0,10.0,10.0,10.0,1.0,tinsel_12s.jpg,0.0,clock_6_4.png,2.0,35,,,,,,,,,,,,,,,,,,,,,,,,,,,,,,,,
0.0,1.0,0.83759,0.0,11.0,11.0,11.0,1.0,microwave_02s.jpg,0.0,clock_6_5.png,2.0,35,,,,,,,,,,,,,,,,,,,,,,,,,,,,,,,,
0.0,1.0,0.694195,0.0,12.0,12.0,12.0,1.0,piano_13n.jpg,0.0,clock_6_6.png,2.0,35,,,,,,,,,,,,,,,,,,,,,,,,,,,,,,,,
0.0,1.0,0.637405,0.0,13.0,13.0,13.0,1.0,panda_02s.jpg,0.0,clock_5_1.png,3.0,35,,,,,,,,,,,,,,,,,,,,,,,,,,,,,,,,
0.0,1.0,0.669055,0.0,14.0,14.0,14.0,1.0,spatula04.jpg,0.0,clock_5_2.png,3.0,35,,,,,,,,,,,,,,,,,,,,,,,,,,,,,,,,
0.0,1.0,0.90129,0.0,15.0,15.0,15.0,1.0,razor_12s.jpg,0.0,clock_5_3.png,3.0,35,,,,,,,,,,,,,,,,,,,,,,,,,,,,,,,,
0.0,1.0,0.732605,0.0,16.0,16.0,16.0,1.0,jet_15s.jpg,0.0,clock_5_4.png,3.0,35,,,,,,,,,,,,,,,,,,,,,,,,,,,,,,,,
0.0,1.0,0.707955,0.0,17.0,17.0,17.0,1.0,spider_web_03s.jpg,0.0,clock_5_5.png,3.0,35,,,,,,,,,,,,,,,,,,,,,,,,,,,,,,,,
0.0,1.0,0.67551,0.0,18.0,18.0,18.0,1.0,lamppost_09s.jpg,0.0,clock_5_1.png,4.0,35,,,,,,,,,,,,,,,,,,,,,,,,,,,,,,,,
0.0,1.0,0.587825,0.0,19.0,19.0,19.0,1.0,kettle_08s.jpg,0.0,clock_5_2.png,4.0,35,,,,,,,,,,,,,,,,,,,,,,,,,,,,,,,,
1.0,1.0,0.78209,0.0,20.0,20.0,20.0,1.0,kettle_08s.jpg,1.0,clock_5_3.png,4.0,35,,,,,,,,,,,,,,,,,,,,,,,,,,,,,,,,
0.0,1.0,2.10731,0.0,21.0,21.0,21.0,1.0,jet_15s.jpg,0.0,clock_5_4.png,4.0,35,,,,,,,,,,,,,,,,,,,,,,,,,,,,,,,,
1.0,1.0,2.4594,0.0,22.0,22.0,22.0,1.0,kettle_08s.jpg,1.0,clock_5_5.png,4.0,35,,,,,,,,,,,,,,,,,,,,,,,,,,,,,,,,
0.0,1.0,0.73048,0.0,23.0,23.0,23.0,1.0,champagne_18s.jpg,0.0,clock_6_1.png,5.0,35,,,,,,,,,,,,,,,,,,,,,,,,,,,,,,,,
0.0,1.0,0.72223,0.0,24.0,24.0,24.0,1.0,radiator_05s.jpg,0.0,clock_6_2.png,5.0,35,,,,,,,,,,,,,,,,,,,,,,,,,,,,,,,,
1.0,1.0,0.68257,0.0,25.0,25.0,25.0,1.0,radiator_05s.jpg,1.0,clock_6_3.png,5.0,35,,,,,,,,,,,,,,,,,,,,,,,,,,,,,,,,
0.0,1.0,0.793695,0.0,26.0,26.0,26.0,1.0,pepper2_21s.jpg,0.0,clock_6_4.png,5.0,35,,,,,,,,,,,,,,,,,,,,,,,,,,,,,,,,
1.0,1.0,0.915125,0.0,27.0,27.0,27.0,1.0,pepper2_21s.jpg,1.0,clock_6_5.png,5.0,35,,,,,,,,,,,,,,,,,,,,,,,,,,,,,,,,
0.0,1.0,1.10573,0.0,28.0,28.0,28.0,1.0,breadstick_08s.jpg,0.0,clock_6_6.png,5.0,35,,,,,,,,,,,,,,,,,,,,,,,,,,,,,,,,
0.0,1.0,0.632735,0.0,29.0,29.0,29.0,1.0,mailbox_11s.jpg,0.0,clock_7_1.png,6.0,35,,,,,,,,,,,,,,,,,,,,,,,,,,,,,,,,
0.0,1.0,0.640325,0.0,30.0,30.0,30.0,1.0,crystal_ball_12s.jpg,0.0,clock_7_2.png,6.0,35,,,,,,,,,,,,,,,,,,,,,,,,,,,,,,,,
1.0,1.0,0.688615,0.0,31.0,31.0,31.0,1.0,crystal_ball_12s.jpg,1.0,clock_7_3.png,6.0,35,,,,,,,,,,,,,,,,,,,,,,,,,,,,,,,,
0.0,1.0,0.944665,0.0,32.0,32.0,32.0,1.0,submarine_11n.jpg,0.0,clock_7_4.png,6.0,35,,,,,,,,,,,,,,,,,,,,,,,,,,,,,,,,
0.0,1.0,0.58334,0.0,33.0,33.0,33.0,1.0,ant_12s.jpg,0.0,clock_7_5.png,6.0,35,,,,,,,,,,,,,,,,,,,,,,,,,,,,,,,,
0.0,1.0,0.743665,0.0,34.0,34.0,34.0,1.0,smokingpipe.jpg,0.0,clock_7_6.png,6.0,35,,,,,,,,,,,,,,,,,,,,,,,,,,,,,,,,
1.0,1.0,0.98371,0.0,35.0,35.0,35.0,1.0,mailbox_11s.jpg,1.0,clock_7_7.png,6.0,35,,,,,,,,,,,,,,,,,,,,,,,,,,,,,,,,
,,,,,,,,,1.0,,,35,1.0,1.0,2.857675,0.0,0.0,0.0,0.0,1.0,razor_12s.jpg,lamppost_09s.jpg,,,,,,,,,,,,,,,,,,,,,,
,,,,,,,,,1.0,,,35,1.0,1.0,0.98208,0.0,1.0,1.0,1.0,1.0,film_03s.jpg,sushi_08s.jpg,,,,,,,,,,,,,,,,,,,,,,
,,,,,,,,,0.0,,,35,0.0,1.0,1.882705,0.0,2.0,2.0,2.0,1.0,panda_02s.jpg,tinsel_12s.jpg,,,,,,,,,,,,,,,,,,,,,,
,,,,,,,,,0.0,,,35,0.0,1.0,1.554095,0.0,3.0,3.0,3.0,1.0,ironing_board_07s.jpg,doily_13s.jpg,,,,,,,,,,,,,,,,,,,,,,
,,,,,,,,,0.0,,,35,1.0,0.0,1.4396,0.0,4.0,4.0,4.0,1.0,piano_13n.jpg,tripod_01b.jpg,,,,,,,,,,,,,,,,,,,,,,
,,,,,,,,,0.0,,,35,1.0,0.0,2.177365,0.0,5.0,5.0,5.0,1.0,spider_web_03s.jpg,spatula04.jpg,,,,,,,,,,,,,,,,,,,,,,
,,,,,,,,,,,,35,,,,,,,,,,,0.0,4.0,4.0,4.0,1.0,clock_present_5_14.xlsx,clock_compare_task_5_14.xlsx,,,,,,,,,,,,,,,
0.0,1.0,0.87599,0.0,0.0,0.0,0.0,1.0,orangutan_03s.jpg,0.0,clock_7_1.png,1.0,35,,,,,,,,,,,,,,,,,,,,,,,,,,,,,,,,
0.0,1.0,0.54417,0.0,1.0,1.0,1.0,1.0,squirrel_02s.jpg,0.0,clock_7_2.png,1.0,35,,,,,,,,,,,,,,,,,,,,,,,,,,,,,,,,
0.0,1.0,0.608165,0.0,2.0,2.0,2.0,1.0,tiara_05s.jpg,0.0,clock_7_3.png,1.0,35,,,,,,,,,,,,,,,,,,,,,,,,,,,,,,,,
1.0,1.0,0.72829,0.0,3.0,3.0,3.0,1.0,squirrel_02s.jpg,1.0,clock_7_4.png,1.0,35,,,,,,,,,,,,,,,,,,,,,,,,,,,,,,,,
1.0,1.0,0.86518,0.0,4.0,4.0,4.0,1.0,tiara_05s.jpg,1.0,clock_7_5.png,1.0,35,,,,,,,,,,,,,,,,,,,,,,,,,,,,,,,,
0.0,1.0,0.73663,0.0,5.0,5.0,5.0,1.0,mannequin_05s.jpg,0.0,clock_7_6.png,1.0,35,,,,,,,,,,,,,,,,,,,,,,,,,,,,,,,,
0.0,1.0,0.8706,0.0,6.0,6.0,6.0,1.0,omelet_07s.jpg,0.0,clock_7_7.png,1.0,35,,,,,,,,,,,,,,,,,,,,,,,,,,,,,,,,
0.0,1.0,0.606415,0.0,7.0,7.0,7.0,1.0,buoy_04s.jpg,0.0,clock_5_1.png,2.0,35,,,,,,,,,,,,,,,,,,,,,,,,,,,,,,,,
0.0,1.0,0.693845,0.0,8.0,8.0,8.0,1.0,meatball_13s.jpg,0.0,clock_5_2.png,2.0,35,,,,,,,,,,,,,,,,,,,,,,,,,,,,,,,,
0.0,1.0,0.58971,0.0,9.0,9.0,9.0,1.0,peppermint_07s.jpg,0.0,clock_5_3.png,2.0,35,,,,,,,,,,,,,,,,,,,,,,,,,,,,,,,,
0.0,1.0,0.65334,0.0,10.0,10.0,10.0,1.0,letter_opener_03s.jpg,0.0,clock_5_4.png,2.0,35,,,,,,,,,,,,,,,,,,,,,,,,,,,,,,,,
0.0,1.0,0.669105,0.0,11.0,11.0,11.0,1.0,jigsaw_puzzle_11s.jpg,0.0,clock_5_5.png,2.0,35,,,,,,,,,,,,,,,,,,,,,,,,,,,,,,,,
0.0,1.0,0.49299,0.0,12.0,12.0,12.0,1.0,bean_06s.jpg,0.0,clock_7_1.png,3.0,35,,,,,,,,,,,,,,,,,,,,,,,,,,,,,,,,
0.0,1.0,0.916515,0.0,13.0,13.0,13.0,1.0,tiara_05s.jpg,0.0,clock_7_2.png,3.0,35,,,,,,,,,,,,,,,,,,,,,,,,,,,,,,,,
0.0,1.0,0.908025,0.0,14.0,14.0,14.0,1.0,toothpaste_12s.jpg,0.0,clock_7_3.png,3.0,35,,,,,,,,,,,,,,,,,,,,,,,,,,,,,,,,
0.0,1.0,0.54799,0.0,15.0,15.0,15.0,1.0,toad_09s.jpg,0.0,clock_7_4.png,3.0,35,,,,,,,,,,,,,,,,,,,,,,,,,,,,,,,,
0.0,1.0,0.54756,0.0,16.0,16.0,16.0,1.0,reindeer_08s.jpg,0.0,clock_7_5.png,3.0,35,,,,,,,,,,,,,,,,,,,,,,,,,,,,,,,,
0.0,1.0,0.587525,0.0,17.0,17.0,17.0,1.0,refrigerator_07s.jpg,0.0,clock_7_6.png,3.0,35,,,,,,,,,,,,,,,,,,,,,,,,,,,,,,,,
0.0,1.0,0.571905,0.0,18.0,18.0,18.0,1.0,koala_13s.jpg,0.0,clock_7_7.png,3.0,35,,,,,,,,,,,,,,,,,,,,,,,,,,,,,,,,
0.0,1.0,0.61886,0.0,19.0,19.0,19.0,1.0,umbrella_15s.jpg,0.0,clock_5_1.png,4.0,35,,,,,,,,,,,,,,,,,,,,,,,,,,,,,,,,
0.0,1.0,0.39483,0.0,20.0,20.0,20.0,1.0,lamp_08s.jpg,0.0,clock_5_2.png,4.0,35,,,,,,,,,,,,,,,,,,,,,,,,,,,,,,,,
0.0,1.0,0.38698,0.0,21.0,21.0,21.0,1.0,bacon_05s.jpg,0.0,clock_5_3.png,4.0,35,,,,,,,,,,,,,,,,,,,,,,,,,,,,,,,,
0.0,1.0,0.634325,0.0,22.0,22.0,22.0,1.0,mug_06s.jpg,0.0,clock_5_4.png,4.0,35,,,,,,,,,,,,,,,,,,,,,,,,,,,,,,,,
0.0,1.0,0.538555,0.0,23.0,23.0,23.0,1.0,telephone_pole_05s.jpg,0.0,clock_5_5.png,4.0,35,,,,,,,,,,,,,,,,,,,,,,,,,,,,,,,,
0.0,1.0,0.458005,0.0,24.0,24.0,24.0,1.0,tablet_04s.jpg,0.0,clock_6_1.png,5.0,35,,,,,,,,,,,,,,,,,,,,,,,,,,,,,,,,
0.0,1.0,0.593415,0.0,25.0,25.0,25.0,1.0,flip_flop_03s.jpg,0.0,clock_6_2.png,5.0,35,,,,,,,,,,,,,,,,,,,,,,,,,,,,,,,,
0.0,1.0,0.656865,0.0,26.0,26.0,26.0,1.0,razor_blade_01b.jpg,0.0,clock_6_3.png,5.0,35,,,,,,,,,,,,,,,,,,,,,,,,,,,,,,,,
0.0,1.0,0.60938,0.0,27.0,27.0,27.0,1.0,turkey_10s.jpg,0.0,clock_6_4.png,5.0,35,,,,,,,,,,,,,,,,,,,,,,,,,,,,,,,,
0.0,1.0,0.498665,0.0,28.0,28.0,28.0,1.0,polar_bear_02s.jpg,0.0,clock_6_5.png,5.0,35,,,,,,,,,,,,,,,,,,,,,,,,,,,,,,,,
0.0,1.0,0.52046,0.0,29.0,29.0,29.0,1.0,pomegranate_04s.jpg,0.0,clock_6_6.png,5.0,35,,,,,,,,,,,,,,,,,,,,,,,,,,,,,,,,
0.0,1.0,0.6083,0.0,30.0,30.0,30.0,1.0,jetski_10s.jpg,0.0,clock_6_1.png,6.0,35,,,,,,,,,,,,,,,,,,,,,,,,,,,,,,,,
0.0,1.0,0.503845,0.0,31.0,31.0,31.0,1.0,milk_02s.jpg,0.0,clock_6_2.png,6.0,35,,,,,,,,,,,,,,,,,,,,,,,,,,,,,,,,
0.0,1.0,0.56773,0.0,32.0,32.0,32.0,1.0,undershirt_02s.jpg,0.0,clock_6_3.png,6.0,35,,,,,,,,,,,,,,,,,,,,,,,,,,,,,,,,
0.0,1.0,0.59121,0.0,33.0,33.0,33.0,1.0,megaphone_03s.jpg,0.0,clock_6_4.png,6.0,35,,,,,,,,,,,,,,,,,,,,,,,,,,,,,,,,
0.0,1.0,0.574765,0.0,34.0,34.0,34.0,1.0,licorice_06s.jpg,0.0,clock_6_5.png,6.0,35,,,,,,,,,,,,,,,,,,,,,,,,,,,,,,,,
1.0,1.0,0.75933,0.0,35.0,35.0,35.0,1.0,jetski_10s.jpg,1.0,clock_6_6.png,6.0,35,,,,,,,,,,,,,,,,,,,,,,,,,,,,,,,,
,,,,,,,,,0.0,,,35,0.0,1.0,1.79076,0.0,0.0,0.0,0.0,1.0,peppermint_07s.jpg,omelet_07s.jpg,,,,,,,,,,,,,,,,,,,,,,
,,,,,,,,,0.0,,,35,1.0,0.0,1.08649,0.0,1.0,1.0,1.0,1.0,meatball_13s.jpg,mannequin_05s.jpg,,,,,,,,,,,,,,,,,,,,,,
,,,,,,,,,0.0,,,35,1.0,0.0,1.448745,0.0,2.0,2.0,2.0,1.0,umbrella_15s.jpg,reindeer_08s.jpg,,,,,,,,,,,,,,,,,,,,,,
,,,,,,,,,0.0,,,35,1.0,0.0,1.152285,0.0,3.0,3.0,3.0,1.0,letter_opener_03s.jpg,buoy_04s.jpg,,,,,,,,,,,,,,,,,,,,,,
,,,,,,,,,0.0,,,35,0.0,1.0,1.23707,0.0,4.0,4.0,4.0,1.0,toad_09s.jpg,bean_06s.jpg,,,,,,,,,,,,,,,,,,,,,,
,,,,,,,,,0.0,,,35,1.0,0.0,0.871175,0.0,5.0,5.0,5.0,1.0,turkey_10s.jpg,tablet_04s.jpg,,,,,,,,,,,,,,,,,,,,,,
0.0,1.0,0.561665,,,,,,swan_11s.jpg,0.0,clockno_up.jpg,1.0,35,,,,,,,,,,,,,,,,,,0.0,0.0,0.0,0.0,1.0,,,,,,,,,,
0.0,1.0,1.063615,,,,,,hummingbird_05s.jpg,0.0,clockno_default.jpg,1.0,35,,,,,,,,,,,,,,,,,,0.0,1.0,1.0,1.0,1.0,,,,,,,,,,
0.0,1.0,0.75866,,,,,,pretzel_09s.jpg,0.0,clockno_default.jpg,1.0,35,,,,,,,,,,,,,,,,,,0.0,2.0,2.0,2.0,1.0,,,,,,,,,,
1.0,1.0,0.710495,,,,,,pretzel_09s.jpg,1.0,clockno_default.jpg,1.0,35,,,,,,,,,,,,,,,,,,0.0,3.0,3.0,3.0,1.0,,,,,,,,,,
1.0,1.0,1.00757,,,,,,pretzel_09s.jpg,1.0,clockno_default.jpg,1.0,35,,,,,,,,,,,,,,,,,,0.0,4.0,4.0,4.0,1.0,,,,,,,,,,
0.0,1.0,0.66922,,,,,,tennis_ball_06s.jpg,0.0,clockno_default.jpg,1.0,35,,,,,,,,,,,,,,,,,,0.0,5.0,5.0,5.0,1.0,,,,,,,,,,
0.0,1.0,0.61471,,,,,,perfume_06s.jpg,0.0,clockno_up.jpg,2.0,35,,,,,,,,,,,,,,,,,,0.0,6.0,6.0,6.0,1.0,,,,,,,,,,
0.0,1.0,0.99161,,,,,,pretzel_09s.jpg,0.0,clockno_default.jpg,2.0,35,,,,,,,,,,,,,,,,,,0.0,7.0,7.0,7.0,1.0,,,,,,,,,,
0.0,1.0,0.797805,,,,,,teapot_03s.jpg,0.0,clockno_default.jpg,2.0,35,,,,,,,,,,,,,,,,,,0.0,8.0,8.0,8.0,1.0,,,,,,,,,,
0.0,1.0,0.573125,,,,,,denture_03s.jpg,0.0,clockno_default.jpg,2.0,35,,,,,,,,,,,,,,,,,,0.0,9.0,9.0,9.0,1.0,,,,,,,,,,
0.0,1.0,0.6144,,,,,,mitten_10s.jpg,0.0,clockno_default.jpg,2.0,35,,,,,,,,,,,,,,,,,,0.0,10.0,10.0,10.0,1.0,,,,,,,,,,
0.0,1.0,0.660665,,,,,,pineapple_12s.jpg,0.0,clockno_up.jpg,3.0,35,,,,,,,,,,,,,,,,,,0.0,11.0,11.0,11.0,1.0,,,,,,,,,,
0.0,1.0,1.27636,,,,,,fire_pit_10s.jpg,0.0,clockno_default.jpg,3.0,35,,,,,,,,,,,,,,,,,,0.0,12.0,12.0,12.0,1.0,,,,,,,,,,
0.0,1.0,0.571505,,,,,,icemaker_10s.jpg,0.0,clockno_default.jpg,3.0,35,,,,,,,,,,,,,,,,,,0.0,13.0,13.0,13.0,1.0,,,,,,,,,,
0.0,1.0,1.08389,,,,,,denture_03s.jpg,0.0,clockno_default.jpg,3.0,35,,,,,,,,,,,,,,,,,,0.0,14.0,14.0,14.0,1.0,,,,,,,,,,
0.0,1.0,0.619615,,,,,,tomato_sauce_09s.jpg,0.0,clockno_default.jpg,3.0,35,,,,,,,,,,,,,,,,,,0.0,15.0,15.0,15.0,1.0,,,,,,,,,,
0.0,1.0,1.18705,,,,,,chalice_10s.jpg,0.0,clockno_up.jpg,4.0,35,,,,,,,,,,,,,,,,,,0.0,16.0,16.0,16.0,1.0,,,,,,,,,,
0.0,1.0,0.659085,,,,,,pepper_mill_03s.jpg,0.0,clockno_default.jpg,4.0,35,,,,,,,,,,,,,,,,,,0.0,17.0,17.0,17.0,1.0,,,,,,,,,,
0.0,1.0,0.67477,,,,,,pencil_sharpener_09n.jpg,0.0,clockno_default.jpg,4.0,35,,,,,,,,,,,,,,,,,,0.0,18.0,18.0,18.0,1.0,,,,,,,,,,
1.0,1.0,1.611015,,,,,,chalice_10s.jpg,1.0,clockno_default.jpg,4.0,35,,,,,,,,,,,,,,,,,,0.0,19.0,19.0,19.0,1.0,,,,,,,,,,
0.0,1.0,0.68223,,,,,,crossbow_10s.jpg,0.0,clockno_default.jpg,4.0,35,,,,,,,,,,,,,,,,,,0.0,20.0,20.0,20.0,1.0,,,,,,,,,,
0.0,1.0,0.754115,,,,,,tortilla_06s.jpg,0.0,clockno_default.jpg,4.0,35,,,,,,,,,,,,,,,,,,0.0,21.0,21.0,21.0,1.0,,,,,,,,,,
0.0,1.0,0.71476,,,,,,penlight_12s.jpg,0.0,clockno_default.jpg,4.0,35,,,,,,,,,,,,,,,,,,0.0,22.0,22.0,22.0,1.0,,,,,,,,,,
0.0,1.0,0.641595,,,,,,keyboard_05s.jpg,0.0,clockno_up.jpg,5.0,35,,,,,,,,,,,,,,,,,,0.0,23.0,23.0,23.0,1.0,,,,,,,,,,
1.0,1.0,1.00178,,,,,,keyboard_05s.jpg,1.0,clockno_default.jpg,5.0,35,,,,,,,,,,,,,,,,,,0.0,24.0,24.0,24.0,1.0,,,,,,,,,,
0.0,1.0,0.67254,,,,,,sparkler_02s.jpg,0.0,clockno_default.jpg,5.0,35,,,,,,,,,,,,,,,,,,0.0,25.0,25.0,25.0,1.0,,,,,,,,,,
0.0,1.0,1.06426,,,,,,pinwheel_06s.jpg,0.0,clockno_default.jpg,5.0,35,,,,,,,,,,,,,,,,,,0.0,26.0,26.0,26.0,1.0,,,,,,,,,,
0.0,1.0,0.86489,,,,,,frog_09s.jpg,0.0,clockno_default.jpg,5.0,35,,,,,,,,,,,,,,,,,,0.0,27.0,27.0,27.0,1.0,,,,,,,,,,
0.0,1.0,0.88187,,,,,,pepper_mill_03s.jpg,0.0,clockno_default.jpg,5.0,35,,,,,,,,,,,,,,,,,,0.0,28.0,28.0,28.0,1.0,,,,,,,,,,
0.0,1.0,0.751875,,,,,,gargoyle_08s.jpg,0.0,clockno_default.jpg,5.0,35,,,,,,,,,,,,,,,,,,0.0,29.0,29.0,29.0,1.0,,,,,,,,,,
0.0,1.0,0.63923,,,,,,rosary_03s.jpg,0.0,clockno_up.jpg,6.0,35,,,,,,,,,,,,,,,,,,0.0,30.0,30.0,30.0,1.0,,,,,,,,,,
1.0,1.0,0.8819,,,,,,rosary_03s.jpg,1.0,clockno_default.jpg,6.0,35,,,,,,,,,,,,,,,,,,0.0,31.0,31.0,31.0,1.0,,,,,,,,,,
0.0,1.0,0.550655,,,,,,chocolate_01b.jpg,0.0,clockno_default.jpg,6.0,35,,,,,,,,,,,,,,,,,,0.0,32.0,32.0,32.0,1.0,,,,,,,,,,
1.0,1.0,0.77466,,,,,,chocolate_01b.jpg,1.0,clockno_default.jpg,6.0,35,,,,,,,,,,,,,,,,,,0.0,33.0,33.0,33.0,1.0,,,,,,,,,,
0.0,1.0,0.91049,,,,,,raft_09s.jpg,0.0,clockno_default.jpg,6.0,35,,,,,,,,,,,,,,,,,,0.0,34.0,34.0,34.0,1.0,,,,,,,,,,
0.0,1.0,0.574125,,,,,,ravioli_08s.jpg,0.0,clockno_default.jpg,6.0,35,,,,,,,,,,,,,,,,,,0.0,35.0,35.0,35.0,1.0,,,,,,,,,,
,,,,,,,,,0.0,,,35,0.0,1.0,1.94588,,,,,,teapot_03s.jpg,tennis_ball_06s.jpg,,,,,,,,,,,,,0.0,0.0,0.0,0.0,1.0,,,,,
,,,,,,,,,1.0,,,35,1.0,1.0,3.27479,,,,,,mitten_10s.jpg,icemaker_10s.jpg,,,,,,,,,,,,,0.0,1.0,1.0,1.0,1.0,,,,,
,,,,,,,,,0.0,,,35,0.0,1.0,0.93218,,,,,,sparkler_02s.jpg,penlight_12s.jpg,,,,,,,,,,,,,0.0,2.0,2.0,2.0,1.0,,,,,
,,,,,,,,,1.0,,,35,0.0,0.0,1.129685,,,,,,pinwheel_06s.jpg,gargoyle_08s.jpg,,,,,,,,,,,,,0.0,3.0,3.0,3.0,1.0,,,,,
,,,,,,,,,1.0,,,35,0.0,0.0,0.99998,,,,,,fire_pit_10s.jpg,tomato_sauce_09s.jpg,,,,,,,,,,,,,0.0,4.0,4.0,4.0,1.0,,,,,
,,,,,,,,,1.0,,,35,0.0,0.0,1.04274,,,,,,pencil_sharpener_09n.jpg,tortilla_06s.jpg,,,,,,,,,,,,,0.0,5.0,5.0,5.0,1.0,,,,,
,,,,,,,,,,,,35,,,,,,,,,,,,,,,,clockno_present_1_14.xlsx,clockno_compare_task_1_14.xlsx,,,,,,,,,,,0.0,0.0,0.0,0.0,1.0
0.0,1.0,1.141505,,,,,,mousetrap_15n.jpg,0.0,clockno_up.jpg,1.0,35,,,,,,,,,,,,,,,,,,0.0,0.0,0.0,0.0,1.0,,,,,,,,,,
0.0,1.0,0.592515,,,,,,bee_20s.jpg,0.0,clockno_default.jpg,1.0,35,,,,,,,,,,,,,,,,,,0.0,1.0,1.0,1.0,1.0,,,,,,,,,,
1.0,1.0,1.201685,,,,,,bee_20s.jpg,1.0,clockno_default.jpg,1.0,35,,,,,,,,,,,,,,,,,,0.0,2.0,2.0,2.0,1.0,,,,,,,,,,
1.0,1.0,1.849325,,,,,,mousetrap_15n.jpg,1.0,clockno_default.jpg,1.0,35,,,,,,,,,,,,,,,,,,0.0,3.0,3.0,3.0,1.0,,,,,,,,,,
1.0,1.0,0.624765,,,,,,mousetrap_15n.jpg,1.0,clockno_default.jpg,1.0,35,,,,,,,,,,,,,,,,,,0.0,4.0,4.0,4.0,1.0,,,,,,,,,,
0.0,1.0,0.87173,,,,,,birdcage_08s.jpg,0.0,clockno_up.jpg,2.0,35,,,,,,,,,,,,,,,,,,0.0,5.0,5.0,5.0,1.0,,,,,,,,,,
0.0,1.0,0.960245,,,,,,recliner_02s.jpg,0.0,clockno_default.jpg,2.0,35,,,,,,,,,,,,,,,,,,0.0,6.0,6.0,6.0,1.0,,,,,,,,,,
0.0,1.0,0.695935,,,,,,plunger_08s.jpg,0.0,clockno_default.jpg,2.0,35,,,,,,,,,,,,,,,,,,0.0,7.0,7.0,7.0,1.0,,,,,,,,,,
0.0,1.0,0.639585,,,,,,marker_05s.jpg,0.0,clockno_default.jpg,2.0,35,,,,,,,,,,,,,,,,,,0.0,8.0,8.0,8.0,1.0,,,,,,,,,,
0.0,1.0,0.703175,,,,,,rocking_horse_03s.jpg,0.0,clockno_default.jpg,2.0,35,,,,,,,,,,,,,,,,,,0.0,9.0,9.0,9.0,1.0,,,,,,,,,,
0.0,1.0,0.631505,,,,,,tape_06s.jpg,0.0,clockno_default.jpg,2.0,35,,,,,,,,,,,,,,,,,,0.0,10.0,10.0,10.0,1.0,,,,,,,,,,
0.0,1.0,0.848015,,,,,,plaster_cast_13s.jpg,0.0,clockno_default.jpg,2.0,35,,,,,,,,,,,,,,,,,,0.0,11.0,11.0,11.0,1.0,,,,,,,,,,
0.0,1.0,0.590095,,,,,,diving_board_07s.jpg,0.0,clockno_up.jpg,3.0,35,,,,,,,,,,,,,,,,,,0.0,12.0,12.0,12.0,1.0,,,,,,,,,,
0.0,1.0,0.677775,,,,,,ring_03s.jpg,0.0,clockno_default.jpg,3.0,35,,,,,,,,,,,,,,,,,,0.0,13.0,13.0,13.0,1.0,,,,,,,,,,
0.0,1.0,0.741745,,,,,,lollipop_08s.jpg,0.0,clockno_default.jpg,3.0,35,,,,,,,,,,,,,,,,,,0.0,14.0,14.0,14.0,1.0,,,,,,,,,,
1.0,1.0,0.725825,,,,,,diving_board_07s.jpg,1.0,clockno_default.jpg,3.0,35,,,,,,,,,,,,,,,,,,0.0,15.0,15.0,15.0,1.0,,,,,,,,,,
0.0,1.0,1.39876,,,,,,marker_05s.jpg,0.0,clockno_default.jpg,3.0,35,,,,,,,,,,,,,,,,,,0.0,16.0,16.0,16.0,1.0,,,,,,,,,,
0.0,1.0,0.80432,,,,,,rooster_03s.jpg,0.0,clockno_default.jpg,3.0,35,,,,,,,,,,,,,,,,,,0.0,17.0,17.0,17.0,1.0,,,,,,,,,,
0.0,1.0,0.588695,,,,,,bolo_tie_08s.jpg,0.0,clockno_up.jpg,4.0,35,,,,,,,,,,,,,,,,,,0.0,18.0,18.0,18.0,1.0,,,,,,,,,,
1.0,1.0,0.836935,,,,,,bolo_tie_08s.jpg,1.0,clockno_default.jpg,4.0,35,,,,,,,,,,,,,,,,,,0.0,19.0,19.0,19.0,1.0,,,,,,,,,,
1.0,1.0,0.732395,,,,,,bolo_tie_08s.jpg,1.0,clockno_default.jpg,4.0,35,,,,,,,,,,,,,,,,,,0.0,20.0,20.0,20.0,1.0,,,,,,,,,,
0.0,1.0,0.63523,,,,,,lion_18s.jpg,0.0,clockno_default.jpg,4.0,35,,,,,,,,,,,,,,,,,,0.0,21.0,21.0,21.0,1.0,,,,,,,,,,
0.0,1.0,0.90709,,,,,,ladle_04s.jpg,0.0,clockno_default.jpg,4.0,35,,,,,,,,,,,,,,,,,,0.0,22.0,22.0,22.0,1.0,,,,,,,,,,
0.0,1.0,0.9473,,,,,,bank_06s.jpg,0.0,clockno_default.jpg,4.0,35,,,,,,,,,,,,,,,,,,0.0,23.0,23.0,23.0,1.0,,,,,,,,,,
0.0,1.0,0.618465,,,,,,turtleneck_11s.jpg,0.0,clockno_default.jpg,4.0,35,,,,,,,,,,,,,,,,,,0.0,24.0,24.0,24.0,1.0,,,,,,,,,,
0.0,1.0,0.530455,,,,,,funnel_01b.jpg,0.0,clockno_up.jpg,5.0,35,,,,,,,,,,,,,,,,,,0.0,25.0,25.0,25.0,1.0,,,,,,,,,,
0.0,1.0,0.59328,,,,,,antenna_01b.jpg,0.0,clockno_default.jpg,5.0,35,,,,,,,,,,,,,,,,,,0.0,26.0,26.0,26.0,1.0,,,,,,,,,,
0.0,1.0,0.54793,,,,,,juicer2_06s.jpg,0.0,clockno_default.jpg,5.0,35,,,,,,,,,,,,,,,,,,0.0,27.0,27.0,27.0,1.0,,,,,,,,,,
1.0,1.0,1.217725,,,,,,funnel_01b.jpg,1.0,clockno_default.jpg,5.0,35,,,,,,,,,,,,,,,,,,0.0,28.0,28.0,28.0,1.0,,,,,,,,,,
0.0,1.0,0.577025,,,,,,sunflower_17s.jpg,0.0,clockno_default.jpg,5.0,35,,,,,,,,,,,,,,,,,,0.0,29.0,29.0,29.0,1.0,,,,,,,,,,
0.0,1.0,0.960595,,,,,,crayon_09s.jpg,0.0,clockno_default.jpg,5.0,35,,,,,,,,,,,,,,,,,,0.0,30.0,30.0,30.0,1.0,,,,,,,,,,
0.0,1.0,0.60901,,,,,,gas_mask_11s.jpg,0.0,clockno_up.jpg,6.0,35,,,,,,,,,,,,,,,,,,0.0,31.0,31.0,31.0,1.0,,,,,,,,,,
0.0,1.0,0.615365,,,,,,inhaler_01b.jpg,0.0,clockno_default.jpg,6.0,35,,,,,,,,,,,,,,,,,,0.0,32.0,32.0,32.0,1.0,,,,,,,,,,
1.0,1.0,2.32809,,,,,,gas_mask_11s.jpg,1.0,clockno_default.jpg,6.0,35,,,,,,,,,,,,,,,,,,0.0,33.0,33.0,33.0,1.0,,,,,,,,,,
0.0,1.0,0.912335,,,,,,sunglasses_11s.jpg,0.0,clockno_default.jpg,6.0,35,,,,,,,,,,,,,,,,,,0.0,34.0,34.0,34.0,1.0,,,,,,,,,,
0.0,1.0,0.855785,,,,,,rooster_03s.jpg,0.0,clockno_default.jpg,6.0,35,,,,,,,,,,,,,,,,,,0.0,35.0,35.0,35.0,1.0,,,,,,,,,,
,,,,,,,,,1.0,,,35,0.0,0.0,1.56036,,,,,,plaster_cast_13s.jpg,lollipop_08s.jpg,,,,,,,,,,,,,0.0,0.0,0.0,0.0,1.0,,,,,
,,,,,,,,,1.0,,,35,0.0,0.0,1.25559,,,,,,tape_06s.jpg,ring_03s.jpg,,,,,,,,,,,,,0.0,1.0,1.0,1.0,1.0,,,,,
,,,,,,,,,1.0,,,35,1.0,1.0,1.505225,,,,,,bank_06s.jpg,antenna_01b.jpg,,,,,,,,,,,,,0.0,2.0,2.0,2.0,1.0,,,,,
,,,,,,,,,1.0,,,35,1.0,1.0,1.560355,,,,,,recliner_02s.jpg,rocking_horse_03s.jpg,,,,,,,,,,,,,0.0,3.0,3.0,3.0,1.0,,,,,
,,,,,,,,,0.0,,,35,0.0,1.0,1.34173,,,,,,turtleneck_11s.jpg,lion_18s.jpg,,,,,,,,,,,,,0.0,4.0,4.0,4.0,1.0,,,,,
,,,,,,,,,1.0,,,35,1.0,1.0,1.76536,,,,,,juicer2_06s.jpg,crayon_09s.jpg,,,,,,,,,,,,,0.0,5.0,5.0,5.0,1.0,,,,,
,,,,,,,,,,,,35,,,,,,,,,,,,,,,,clockno_present_2_14.xlsx,clockno_compare_task_2_14.xlsx,,,,,,,,,,,0.0,1.0,1.0,1.0,1.0
0.0,1.0,0.72504,,,,,,phone_01b.jpg,0.0,clockno_up.jpg,1.0,35,,,,,,,,,,,,,,,,,,0.0,0.0,0.0,0.0,1.0,,,,,,,,,,
1.0,1.0,0.738765,,,,,,phone_01b.jpg,1.0,clockno_default.jpg,1.0,35,,,,,,,,,,,,,,,,,,0.0,1.0,1.0,1.0,1.0,,,,,,,,,,
0.0,1.0,0.76217,,,,,,pan_02s.jpg,0.0,clockno_default.jpg,1.0,35,,,,,,,,,,,,,,,,,,0.0,2.0,2.0,2.0,1.0,,,,,,,,,,
0.0,1.0,0.48961,,,,,,turnstile_08s.jpg,0.0,clockno_default.jpg,1.0,35,,,,,,,,,,,,,,,,,,0.0,3.0,3.0,3.0,1.0,,,,,,,,,,
0.0,1.0,0.531205,,,,,,rolling_pin_02s.jpg,0.0,clockno_default.jpg,1.0,35,,,,,,,,,,,,,,,,,,0.0,4.0,4.0,4.0,1.0,,,,,,,,,,
0.0,1.0,0.48925,,,,,,rocket_02s.jpg,0.0,clockno_default.jpg,1.0,35,,,,,,,,,,,,,,,,,,0.0,5.0,5.0,5.0,1.0,,,,,,,,,,
0.0,1.0,0.560875,,,,,,cape_11s.jpg,0.0,clockno_default.jpg,1.0,35,,,,,,,,,,,,,,,,,,0.0,6.0,6.0,6.0,1.0,,,,,,,,,,
0.0,1.0,0.60035,,,,,,tube_top_03s.jpg,0.0,clockno_up.jpg,2.0,35,,,,,,,,,,,,,,,,,,0.0,7.0,7.0,7.0,1.0,,,,,,,,,,
0.0,1.0,0.768045,,,,,,gingerbread_man_03s.jpg,0.0,clockno_default.jpg,2.0,35,,,,,,,,,,,,,,,,,,0.0,8.0,8.0,8.0,1.0,,,,,,,,,,
0.0,1.0,0.632315,,,,,,bottle_opener_11s.jpg,0.0,clockno_default.jpg,2.0,35,,,,,,,,,,,,,,,,,,0.0,9.0,9.0,9.0,1.0,,,,,,,,,,
0.0,1.0,0.591245,,,,,,light_switch_02s.jpg,0.0,clockno_default.jpg,2.0,35,,,,,,,,,,,,,,,,,,0.0,10.0,10.0,10.0,1.0,,,,,,,,,,
1.0,1.0,0.751605,,,,,,gingerbread_man_03s.jpg,1.0,clockno_default.jpg,2.0,35,,,,,,,,,,,,,,,,,,0.0,11.0,11.0,11.0,1.0,,,,,,,,,,
0.0,1.0,0.79083,,,,,,turf_03s.jpg,0.0,clockno_up.jpg,3.0,35,,,,,,,,,,,,,,,,,,0.0,12.0,12.0,12.0,1.0,,,,,,,,,,
0.0,1.0,0.526565,,,,,,poinsettia_04s.jpg,0.0,clockno_default.jpg,3.0,35,,,,,,,,,,,,,,,,,,0.0,13.0,13.0,13.0,1.0,,,,,,,,,,
1.0,1.0,1.62291,,,,,,turf_03s.jpg,1.0,clockno_default.jpg,3.0,35,,,,,,,,,,,,,,,,,,0.0,14.0,14.0,14.0,1.0,,,,,,,,,,
0.0,1.0,0.653765,,,,,,quilt_03s.jpg,0.0,clockno_default.jpg,3.0,35,,,,,,,,,,,,,,,,,,0.0,15.0,15.0,15.0,1.0,,,,,,,,,,
0.0,1.0,1.06931,,,,,,tube_top_03s.jpg,0.0,clockno_default.jpg,3.0,35,,,,,,,,,,,,,,,,,,0.0,16.0,16.0,16.0,1.0,,,,,,,,,,
0.0,1.0,0.63689,,,,,,compass_10n.jpg,0.0,clockno_default.jpg,3.0,35,,,,,,,,,,,,,,,,,,0.0,17.0,17.0,17.0,1.0,,,,,,,,,,
0.0,1.0,0.59673,,,,,,fur_coat_11s.jpg,0.0,clockno_default.jpg,3.0,35,,,,,,,,,,,,,,,,,,0.0,18.0,18.0,18.0,1.0,,,,,,,,,,
0.0,1.0,0.588935,,,,,,squirt_gun_03s.jpg,0.0,clockno_up.jpg,4.0,35,,,,,,,,,,,,,,,,,,0.0,19.0,19.0,19.0,1.0,,,,,,,,,,
1.0,1.0,0.69298,,,,,,squirt_gun_03s.jpg,1.0,clockno_default.jpg,4.0,35,,,,,,,,,,,,,,,,,,0.0,20.0,20.0,20.0,1.0,,,,,,,,,,
0.0,1.0,0.644175,,,,,,candy_cane_06s.jpg,0.0,clockno_default.jpg,4.0,35,,,,,,,,,,,,,,,,,,0.0,21.0,21.0,21.0,1.0,,,,,,,,,,
0.0,1.0,0.564385,,,,,,boar_10s.jpg,0.0,clockno_default.jpg,4.0,35,,,,,,,,,,,,,,,,,,0.0,22.0,22.0,22.0,1.0,,,,,,,,,,
0.0,1.0,0.588,,,,,,poinsettia_04s.jpg,0.0,clockno_default.jpg,4.0,35,,,,,,,,,,,,,,,,,,0.0,23.0,23.0,23.0,1.0,,,,,,,,,,
0.0,1.0,0.64344,,,,,,possum_09s.jpg,0.0,clockno_default.jpg,4.0,35,,,,,,,,,,,,,,,,,,0.0,24.0,24.0,24.0,1.0,,,,,,,,,,
0.0,1.0,0.78139,,,,,,cobra_05s.jpg,0.0,clockno_up.jpg,5.0,35,,,,,,,,,,,,,,,,,,0.0,25.0,25.0,25.0,1.0,,,,,,,,,,
0.0,1.0,0.666945,,,,,,chopsticks_08s.jpg,0.0,clockno_default.jpg,5.0,35,,,,,,,,,,,,,,,,,,0.0,26.0,26.0,26.0,1.0,,,,,,,,,,
0.0,1.0,0.64251,,,,,,fossil_06s.jpg,0.0,clockno_default.jpg,5.0,35,,,,,,,,,,,,,,,,,,0.0,27.0,27.0,27.0,1.0,,,,,,,,,,
1.0,1.0,0.755155,,,,,,fossil_06s.jpg,1.0,clockno_default.jpg,5.0,35,,,,,,,,,,,,,,,,,,0.0,28.0,28.0,28.0,1.0,,,,,,,,,,
0.0,1.0,0.57789,,,,,,padlock_07s.jpg,0.0,clockno_default.jpg,5.0,35,,,,,,,,,,,,,,,,,,0.0,29.0,29.0,29.0,1.0,,,,,,,,,,
0.0,1.0,0.834125,,,,,,soda_fountain_03s.jpg,0.0,clockno_up.jpg,6.0,35,,,,,,,,,,,,,,,,,,0.0,30.0,30.0,30.0,1.0,,,,,,,,,,
0.0,1.0,0.585215,,,,,,pipe1_10s.jpg,0.0,clockno_default.jpg,6.0,35,,,,,,,,,,,,,,,,,,0.0,31.0,31.0,31.0,1.0,,,,,,,,,,
0.0,1.0,0.640965,,,,,,loom_05s.jpg,0.0,clockno_default.jpg,6.0,35,,,,,,,,,,,,,,,,,,0.0,32.0,32.0,32.0,1.0,,,,,,,,,,
0.0,1.0,0.45733,,,,,,jersey_02s.jpg,0.0,clockno_default.jpg,6.0,35,,,,,,,,,,,,,,,,,,0.0,33.0,33.0,33.0,1.0,,,,,,,,,,
0.0,1.0,0.632335,,,,,,mop_08s.jpg,0.0,clockno_default.jpg,6.0,35,,,,,,,,,,,,,,,,,,0.0,34.0,34.0,34.0,1.0,,,,,,,,,,
0.0,1.0,0.505135,,,,,,puppet_01b.jpg,0.0,clockno_default.jpg,6.0,35,,,,,,,,,,,,,,,,,,0.0,35.0,35.0,35.0,1.0,,,,,,,,,,
,,,,,,,,,1.0,,,35,1.0,1.0,1.69747,,,,,,boar_10s.jpg,cobra_05s.jpg,,,,,,,,,,,,,0.0,0.0,0.0,0.0,1.0,,,,,
,,,,,,,,,0.0,,,35,1.0,0.0,3.148635,,,,,,bottle_opener_11s.jpg,cape_11s.jpg,,,,,,,,,,,,,0.0,1.0,1.0,1.0,1.0,,,,,
,,,,,,,,,0.0,,,35,1.0,0.0,0.784185,,,,,,candy_cane_06s.jpg,fur_coat_11s.jpg,,,,,,,,,,,,,0.0,2.0,2.0,2.0,1.0,,,,,
,,,,,,,,,0.0,,,35,0.0,1.0,1.084945,,,,,,rocket_02s.jpg,pan_02s.jpg,,,,,,,,,,,,,0.0,3.0,3.0,3.0,1.0,,,,,
,,,,,,,,,1.0,,,35,1.0,1.0,1.948645,,,,,,soda_fountain_03s.jpg,jersey_02s.jpg,,,,,,,,,,,,,0.0,4.0,4.0,4.0,1.0,,,,,
,,,,,,,,,0.0,,,35,0.0,1.0,1.418555,,,,,,mop_08s.jpg,pipe1_10s.jpg,,,,,,,,,,,,,0.0,5.0,5.0,5.0,1.0,,,,,
,,,,,,,,,,,,35,,,,,,,,,,,,,,,,clockno_present_3_14.xlsx,clockno_compare_task_3_14.xlsx,,,,,,,,,,,0.0,2.0,2.0,2.0,1.0
0.0,1.0,0.85185,,,,,,beard_16s.jpg,0.0,clockno_up.jpg,1.0,35,,,,,,,,,,,,,,,,,,0.0,0.0,0.0,0.0,1.0,,,,,,,,,,
1.0,1.0,0.784605,,,,,,beard_16s.jpg,1.0,clockno_default.jpg,1.0,35,,,,,,,,,,,,,,,,,,0.0,1.0,1.0,1.0,1.0,,,,,,,,,,
0.0,1.0,0.87116,,,,,,printer_09s.jpg,0.0,clockno_default.jpg,1.0,35,,,,,,,,,,,,,,,,,,0.0,2.0,2.0,2.0,1.0,,,,,,,,,,
0.0,1.0,1.00746,,,,,,juicer1_08s.jpg,0.0,clockno_default.jpg,1.0,35,,,,,,,,,,,,,,,,,,0.0,3.0,3.0,3.0,1.0,,,,,,,,,,
0.0,1.0,0.567015,,,,,,cotton_candy_01b.jpg,0.0,clockno_default.jpg,1.0,35,,,,,,,,,,,,,,,,,,0.0,4.0,4.0,4.0,1.0,,,,,,,,,,
0.0,1.0,0.639125,,,,,,tape_measure_11s.jpg,0.0,clockno_up.jpg,2.0,35,,,,,,,,,,,,,,,,,,0.0,5.0,5.0,5.0,1.0,,,,,,,,,,
1.0,0.0,0.72696,,,,,,beard_16s.jpg,0.0,clockno_default.jpg,2.0,35,,,,,,,,,,,,,,,,,,0.0,6.0,6.0,6.0,1.0,,,,,,,,,,
0.0,1.0,0.687075,,,,,,trampoline_13s.jpg,0.0,clockno_default.jpg,2.0,35,,,,,,,,,,,,,,,,,,0.0,7.0,7.0,7.0,1.0,,,,,,,,,,
1.0,1.0,0.942695,,,,,,trampoline_13s.jpg,1.0,clockno_default.jpg,2.0,35,,,,,,,,,,,,,,,,,,0.0,8.0,8.0,8.0,1.0,,,,,,,,,,
1.0,1.0,1.09528,,,,,,trampoline_13s.jpg,1.0,clockno_default.jpg,2.0,35,,,,,,,,,,,,,,,,,,0.0,9.0,9.0,9.0,1.0,,,,,,,,,,
0.0,1.0,0.78948,,,,,,kangaroo_02s.jpg,0.0,clockno_default.jpg,2.0,35,,,,,,,,,,,,,,,,,,0.0,10.0,10.0,10.0,1.0,,,,,,,,,,
0.0,1.0,0.8697,,,,,,mirror_12s.jpg,0.0,clockno_default.jpg,2.0,35,,,,,,,,,,,,,,,,,,0.0,11.0,11.0,11.0,1.0,,,,,,,,,,
0.0,1.0,1.030925,,,,,,powder_07s.jpg,0.0,clockno_up.jpg,3.0,35,,,,,,,,,,,,,,,,,,0.0,12.0,12.0,12.0,1.0,,,,,,,,,,
0.0,1.0,0.614415,,,,,,rollerskate_03s.jpg,0.0,clockno_default.jpg,3.0,35,,,,,,,,,,,,,,,,,,0.0,13.0,13.0,13.0,1.0,,,,,,,,,,
0.0,1.0,0.683695,,,,,,gear_07s.jpg,0.0,clockno_default.jpg,3.0,35,,,,,,,,,,,,,,,,,,0.0,14.0,14.0,14.0,1.0,,,,,,,,,,
0.0,1.0,0.764585,,,,,,playpen_11s.jpg,0.0,clockno_default.jpg,3.0,35,,,,,,,,,,,,,,,,,,0.0,15.0,15.0,15.0,1.0,,,,,,,,,,
1.0,1.0,1.212095,,,,,,playpen_11s.jpg,1.0,clockno_default.jpg,3.0,35,,,,,,,,,,,,,,,,,,0.0,16.0,16.0,16.0,1.0,,,,,,,,,,
0.0,1.0,0.940085,,,,,,keyhole_03s.jpg,0.0,clockno_up.jpg,4.0,35,,,,,,,,,,,,,,,,,,0.0,17.0,17.0,17.0,1.0,,,,,,,,,,
0.0,1.0,0.6028,,,,,,spoon02a.jpg,0.0,clockno_default.jpg,4.0,35,,,,,,,,,,,,,,,,,,0.0,18.0,18.0,18.0,1.0,,,,,,,,,,
0.0,1.0,1.01901,,,,,,mud_13s.jpg,0.0,clockno_default.jpg,4.0,35,,,,,,,,,,,,,,,,,,0.0,19.0,19.0,19.0,1.0,,,,,,,,,,
0.0,1.0,0.45041,,,,,,pea_11s.jpg,0.0,clockno_default.jpg,4.0,35,,,,,,,,,,,,,,,,,,0.0,20.0,20.0,20.0,1.0,,,,,,,,,,
0.0,0.0,1.565005,,,,,,spoon02a.jpg,1.0,clockno_default.jpg,4.0,35,,,,,,,,,,,,,,,,,,0.0,21.0,21.0,21.0,1.0,,,,,,,,,,
0.0,1.0,0.658245,,,,,,turtle_08s.jpg,0.0,clockno_default.jpg,4.0,35,,,,,,,,,,,,,,,,,,0.0,22.0,22.0,22.0,1.0,,,,,,,,,,
0.0,1.0,0.673605,,,,,,tattoo_14s.jpg,0.0,clockno_up.jpg,5.0,35,,,,,,,,,,,,,,,,,,0.0,23.0,23.0,23.0,1.0,,,,,,,,,,
0.0,1.0,0.62633,,,,,,mirror_12s.jpg,0.0,clockno_default.jpg,5.0,35,,,,,,,,,,,,,,,,,,0.0,24.0,24.0,24.0,1.0,,,,,,,,,,
0.0,1.0,0.777325,,,,,,tie_03s.jpg,0.0,clockno_default.jpg,5.0,35,,,,,,,,,,,,,,,,,,0.0,25.0,25.0,25.0,1.0,,,,,,,,,,
0.0,1.0,1.073595,,,,,,printer_09s.jpg,0.0,clockno_default.jpg,5.0,35,,,,,,,,,,,,,,,,,,0.0,26.0,26.0,26.0,1.0,,,,,,,,,,
0.0,1.0,0.768445,,,,,,roller_coaster_07s.jpg,0.0,clockno_default.jpg,5.0,35,,,,,,,,,,,,,,,,,,0.0,27.0,27.0,27.0,1.0,,,,,,,,,,
1.0,1.0,2.37631,,,,,,tattoo_14s.jpg,1.0,clockno_default.jpg,5.0,35,,,,,,,,,,,,,,,,,,0.0,28.0,28.0,28.0,1.0,,,,,,,,,,
0.0,1.0,1.128345,,,,,,toy_04s.jpg,0.0,clockno_default.jpg,5.0,35,,,,,,,,,,,,,,,,,,0.0,29.0,29.0,29.0,1.0,,,,,,,,,,
0.0,1.0,0.75991,,,,,,projector_08s.jpg,0.0,clockno_up.jpg,6.0,35,,,,,,,,,,,,,,,,,,0.0,30.0,30.0,30.0,1.0,,,,,,,,,,
0.0,1.0,0.68074,,,,,,ink_08s.jpg,0.0,clockno_default.jpg,6.0,35,,,,,,,,,,,,,,,,,,0.0,31.0,31.0,31.0,1.0,,,,,,,,,,
0.0,1.0,0.55054,,,,,,teabag_12s.jpg,0.0,clockno_default.jpg,6.0,35,,,,,,,,,,,,,,,,,,0.0,32.0,32.0,32.0,1.0,,,,,,,,,,
0.0,1.0,0.831085,,,,,,tongs_08s.jpg,0.0,clockno_default.jpg,6.0,35,,,,,,,,,,,,,,,,,,0.0,33.0,33.0,33.0,1.0,,,,,,,,,,
0.0,1.0,0.582515,,,,,,power_line_08s.jpg,0.0,clockno_default.jpg,6.0,35,,,,,,,,,,,,,,,,,,0.0,34.0,34.0,34.0,1.0,,,,,,,,,,
0.0,1.0,0.573865,,,,,,margarita_03s.jpg,0.0,clockno_default.jpg,6.0,35,,,,,,,,,,,,,,,,,,0.0,35.0,35.0,35.0,1.0,,,,,,,,,,
,,,,,,,,,0.0,,,35,1.0,0.0,1.449725,,,,,,rollerskate_03s.jpg,kangaroo_02s.jpg,,,,,,,,,,,,,0.0,0.0,0.0,0.0,1.0,,,,,
,,,,,,,,,0.0,,,35,1.0,0.0,1.58292,,,,,,keyhole_03s.jpg,gear_07s.jpg,,,,,,,,,,,,,0.0,1.0,1.0,1.0,1.0,,,,,
,,,,,,,,,0.0,,,35,0.0,1.0,1.538405,,,,,,tie_03s.jpg,turtle_08s.jpg,,,,,,,,,,,,,0.0,2.0,2.0,2.0,1.0,,,,,
,,,,,,,,,1.0,,,35,0.0,0.0,1.136405,,,,,,ink_08s.jpg,power_line_08s.jpg,,,,,,,,,,,,,0.0,3.0,3.0,3.0,1.0,,,,,
,,,,,,,,,0.0,,,35,1.0,0.0,1.41556,,,,,,tongs_08s.jpg,projector_08s.jpg,,,,,,,,,,,,,0.0,4.0,4.0,4.0,1.0,,,,,
,,,,,,,,,1.0,,,35,1.0,1.0,1.98572,,,,,,teabag_12s.jpg,margarita_03s.jpg,,,,,,,,,,,,,0.0,5.0,5.0,5.0,1.0,,,,,
,,,,,,,,,,,,35,,,,,,,,,,,,,,,,clockno_present_4_14.xlsx,clockno_compare_task_4_14.xlsx,,,,,,,,,,,0.0,3.0,3.0,3.0,1.0
0.0,1.0,1.037205,,,,,,camcorder_10s.jpg,0.0,clockno_up.jpg,1.0,35,,,,,,,,,,,,,,,,,,0.0,0.0,0.0,0.0,1.0,,,,,,,,,,
0.0,1.0,0.815325,,,,,,mixer_12s.jpg,0.0,clockno_default.jpg,1.0,35,,,,,,,,,,,,,,,,,,0.0,1.0,1.0,1.0,1.0,,,,,,,,,,
0.0,1.0,0.848,,,,,,comic_book_02s.jpg,0.0,clockno_default.jpg,1.0,35,,,,,,,,,,,,,,,,,,0.0,2.0,2.0,2.0,1.0,,,,,,,,,,
0.0,1.0,0.839035,,,,,,treasure_08s.jpg,0.0,clockno_default.jpg,1.0,35,,,,,,,,,,,,,,,,,,0.0,3.0,3.0,3.0,1.0,,,,,,,,,,
1.0,1.0,0.62265,,,,,,treasure_08s.jpg,1.0,clockno_default.jpg,1.0,35,,,,,,,,,,,,,,,,,,0.0,4.0,4.0,4.0,1.0,,,,,,,,,,
0.0,1.0,0.70231,,,,,,metronome_03s.jpg,0.0,clockno_default.jpg,1.0,35,,,,,,,,,,,,,,,,,,0.0,5.0,5.0,5.0,1.0,,,,,,,,,,
1.0,1.0,0.76654,,,,,,treasure_08s.jpg,1.0,clockno_default.jpg,1.0,35,,,,,,,,,,,,,,,,,,0.0,6.0,6.0,6.0,1.0,,,,,,,,,,
0.0,1.0,0.709705,,,,,,golf_club_03s.jpg,0.0,clockno_up.jpg,2.0,35,,,,,,,,,,,,,,,,,,0.0,7.0,7.0,7.0,1.0,,,,,,,,,,
0.0,1.0,0.637325,,,,,,ruby_15s.jpg,0.0,clockno_default.jpg,2.0,35,,,,,,,,,,,,,,,,,,0.0,8.0,8.0,8.0,1.0,,,,,,,,,,
0.0,1.0,0.621375,,,,,,purse_05s.jpg,0.0,clockno_default.jpg,2.0,35,,,,,,,,,,,,,,,,,,0.0,9.0,9.0,9.0,1.0,,,,,,,,,,
0.0,1.0,0.61433,,,,,,top_hat_11s.jpg,0.0,clockno_default.jpg,2.0,35,,,,,,,,,,,,,,,,,,0.0,10.0,10.0,10.0,1.0,,,,,,,,,,
0.0,1.0,0.61966,,,,,,peach_04s.jpg,0.0,clockno_default.jpg,2.0,35,,,,,,,,,,,,,,,,,,0.0,11.0,11.0,11.0,1.0,,,,,,,,,,
0.0,1.0,0.68438,,,,,,coffee_filter_10s.jpg,0.0,clockno_up.jpg,3.0,35,,,,,,,,,,,,,,,,,,0.0,12.0,12.0,12.0,1.0,,,,,,,,,,
0.0,1.0,0.53915,,,,,,tiger_06s.jpg,0.0,clockno_default.jpg,3.0,35,,,,,,,,,,,,,,,,,,0.0,13.0,13.0,13.0,1.0,,,,,,,,,,
0.0,1.0,0.580935,,,,,,feather02.jpg,0.0,clockno_default.jpg,3.0,35,,,,,,,,,,,,,,,,,,0.0,14.0,14.0,14.0,1.0,,,,,,,,,,
0.0,1.0,0.597315,,,,,,coral_08s.jpg,0.0,clockno_default.jpg,3.0,35,,,,,,,,,,,,,,,,,,0.0,15.0,15.0,15.0,1.0,,,,,,,,,,
0.0,1.0,0.611105,,,,,,knitting_needle_04s.jpg,0.0,clockno_default.jpg,3.0,35,,,,,,,,,,,,,,,,,,0.0,16.0,16.0,16.0,1.0,,,,,,,,,,
0.0,1.0,0.787,,,,,,coat_rack_01b.jpg,0.0,clockno_up.jpg,4.0,35,,,,,,,,,,,,,,,,,,0.0,17.0,17.0,17.0,1.0,,,,,,,,,,
0.0,1.0,0.947935,,,,,,coral_08s.jpg,0.0,clockno_default.jpg,4.0,35,,,,,,,,,,,,,,,,,,0.0,18.0,18.0,18.0,1.0,,,,,,,,,,
0.0,1.0,0.84285,,,,,,knitting_needle_04s.jpg,0.0,clockno_default.jpg,4.0,35,,,,,,,,,,,,,,,,,,0.0,19.0,19.0,19.0,1.0,,,,,,,,,,
1.0,1.0,1.12254,,,,,,coat_rack_01b.jpg,1.0,clockno_default.jpg,4.0,35,,,,,,,,,,,,,,,,,,0.0,20.0,20.0,20.0,1.0,,,,,,,,,,
0.0,1.0,0.633015,,,,,,pacifier_09s.jpg,0.0,clockno_default.jpg,4.0,35,,,,,,,,,,,,,,,,,,0.0,21.0,21.0,21.0,1.0,,,,,,,,,,
0.0,1.0,1.002145,,,,,,ruby_15s.jpg,0.0,clockno_default.jpg,4.0,35,,,,,,,,,,,,,,,,,,0.0,22.0,22.0,22.0,1.0,,,,,,,,,,
0.0,1.0,0.68121,,,,,,rocking_chair_05s.jpg,0.0,clockno_up.jpg,5.0,35,,,,,,,,,,,,,,,,,,0.0,23.0,23.0,23.0,1.0,,,,,,,,,,
0.0,1.0,0.721225,,,,,,binder_21s.jpg,0.0,clockno_default.jpg,5.0,35,,,,,,,,,,,,,,,,,,0.0,24.0,24.0,24.0,1.0,,,,,,,,,,
0.0,1.0,0.61703,,,,,,rudder_02s.jpg,0.0,clockno_default.jpg,5.0,35,,,,,,,,,,,,,,,,,,0.0,25.0,25.0,25.0,1.0,,,,,,,,,,
0.0,1.0,0.53629,,,,,,totem_pole_05s.jpg,0.0,clockno_default.jpg,5.0,35,,,,,,,,,,,,,,,,,,0.0,26.0,26.0,26.0,1.0,,,,,,,,,,
1.0,1.0,0.87313,,,,,,totem_pole_05s.jpg,1.0,clockno_default.jpg,5.0,35,,,,,,,,,,,,,,,,,,0.0,27.0,27.0,27.0,1.0,,,,,,,,,,
0.0,1.0,0.67187,,,,,,memory_stick_11s.jpg,0.0,clockno_default.jpg,5.0,35,,,,,,,,,,,,,,,,,,0.0,28.0,28.0,28.0,1.0,,,,,,,,,,
0.0,1.0,0.89763,,,,,,slingshot_07s.jpg,0.0,clockno_up.jpg,6.0,35,,,,,,,,,,,,,,,,,,0.0,29.0,29.0,29.0,1.0,,,,,,,,,,
1.0,1.0,0.743505,,,,,,slingshot_07s.jpg,1.0,clockno_default.jpg,6.0,35,,,,,,,,,,,,,,,,,,0.0,30.0,30.0,30.0,1.0,,,,,,,,,,
0.0,1.0,0.88135,,,,,,duck_01b.jpg,0.0,clockno_default.jpg,6.0,35,,,,,,,,,,,,,,,,,,0.0,31.0,31.0,31.0,1.0,,,,,,,,,,
0.0,1.0,0.655175,,,,,,fox_13s.jpg,0.0,clockno_default.jpg,6.0,35,,,,,,,,,,,,,,,,,,0.0,32.0,32.0,32.0,1.0,,,,,,,,,,
0.0,1.0,0.70242,,,,,,popcorn_09s.jpg,0.0,clockno_default.jpg,6.0,35,,,,,,,,,,,,,,,,,,0.0,33.0,33.0,33.0,1.0,,,,,,,,,,
1.0,1.0,0.99095,,,,,,duck_01b.jpg,1.0,clockno_default.jpg,6.0,35,,,,,,,,,,,,,,,,,,0.0,34.0,34.0,34.0,1.0,,,,,,,,,,
0.0,1.0,0.64746,,,,,,stamp2_08s.jpg,0.0,clockno_default.jpg,6.0,35,,,,,,,,,,,,,,,,,,0.0,35.0,35.0,35.0,1.0,,,,,,,,,,
,,,,,,,,,0.0,,,35,0.0,1.0,1.952835,,,,,,coffee_filter_10s.jpg,purse_05s.jpg,,,,,,,,,,,,,0.0,0.0,0.0,0.0,1.0,,,,,
,,,,,,,,,1.0,,,35,1.0,1.0,1.107385,,,,,,peach_04s.jpg,feather02.jpg,,,,,,,,,,,,,0.0,1.0,1.0,1.0,1.0,,,,,
,,,,,,,,,0.0,,,35,0.0,1.0,1.658735,,,,,,binder_21s.jpg,pacifier_09s.jpg,,,,,,,,,,,,,0.0,2.0,2.0,2.0,1.0,,,,,
,,,,,,,,,1.0,,,35,1.0,1.0,1.62039,,,,,,comic_book_02s.jpg,metronome_03s.jpg,,,,,,,,,,,,,0.0,3.0,3.0,3.0,1.0,,,,,
,,,,,,,,,1.0,,,35,0.0,0.0,1.58215,,,,,,rudder_02s.jpg,memory_stick_11s.jpg,,,,,,,,,,,,,0.0,4.0,4.0,4.0,1.0,,,,,
,,,,,,,,,0.0,,,35,1.0,0.0,1.338625,,,,,,stamp2_08s.jpg,fox_13s.jpg,,,,,,,,,,,,,0.0,5.0,5.0,5.0,1.0,,,,,
,,,,,,,,,,,,35,,,,,,,,,,,,,,,,clockno_present_5_14.xlsx,clockno_compare_task_5_14.xlsx,,,,,,,,,,,0.0,4.0,4.0,4.0,1.0
0.0,1.0,0.65862,,,,,,popsicle_02s.jpg,0.0,clockno_up.jpg,1.0,35,,,,,,,,,,,,,,,,,,0.0,0.0,0.0,0.0,1.0,,,,,,,,,,
0.0,1.0,0.51117,,,,,,emerald_02s.jpg,0.0,clockno_default.jpg,1.0,35,,,,,,,,,,,,,,,,,,0.0,1.0,1.0,1.0,1.0,,,,,,,,,,
1.0,1.0,1.37552,,,,,,popsicle_02s.jpg,1.0,clockno_default.jpg,1.0,35,,,,,,,,,,,,,,,,,,0.0,2.0,2.0,2.0,1.0,,,,,,,,,,
0.0,1.0,0.61503,,,,,,glue_01s.jpg,0.0,clockno_default.jpg,1.0,35,,,,,,,,,,,,,,,,,,0.0,3.0,3.0,3.0,1.0,,,,,,,,,,
1.0,1.0,1.048415,,,,,,popsicle_02s.jpg,1.0,clockno_default.jpg,1.0,35,,,,,,,,,,,,,,,,,,0.0,4.0,4.0,4.0,1.0,,,,,,,,,,
1.0,1.0,1.134425,,,,,,emerald_02s.jpg,1.0,clockno_default.jpg,1.0,35,,,,,,,,,,,,,,,,,,0.0,5.0,5.0,5.0,1.0,,,,,,,,,,
0.0,1.0,0.677825,,,,,,pillbox_04s.jpg,0.0,clockno_up.jpg,2.0,35,,,,,,,,,,,,,,,,,,0.0,6.0,6.0,6.0,1.0,,,,,,,,,,
0.0,1.0,0.532675,,,,,,scooter.jpg,0.0,clockno_default.jpg,2.0,35,,,,,,,,,,,,,,,,,,0.0,7.0,7.0,7.0,1.0,,,,,,,,,,
0.0,1.0,0.710205,,,,,,cardinal_07s.jpg,0.0,clockno_default.jpg,2.0,35,,,,,,,,,,,,,,,,,,0.0,8.0,8.0,8.0,1.0,,,,,,,,,,
1.0,1.0,0.773565,,,,,,cardinal_07s.jpg,1.0,clockno_default.jpg,2.0,35,,,,,,,,,,,,,,,,,,0.0,9.0,9.0,9.0,1.0,,,,,,,,,,
0.0,1.0,0.684315,,,,,,chip_04s.jpg,0.0,clockno_default.jpg,2.0,35,,,,,,,,,,,,,,,,,,0.0,10.0,10.0,10.0,1.0,,,,,,,,,,
0.0,1.0,0.79794,,,,,,owl_15s.jpg,0.0,clockno_up.jpg,3.0,35,,,,,,,,,,,,,,,,,,0.0,11.0,11.0,11.0,1.0,,,,,,,,,,
1.0,1.0,0.676365,,,,,,owl_15s.jpg,1.0,clockno_default.jpg,3.0,35,,,,,,,,,,,,,,,,,,0.0,12.0,12.0,12.0,1.0,,,,,,,,,,
0.0,1.0,0.77181,,,,,,mango_09s.jpg,0.0,clockno_default.jpg,3.0,35,,,,,,,,,,,,,,,,,,0.0,13.0,13.0,13.0,1.0,,,,,,,,,,
0.0,1.0,0.68338,,,,,,pantyhose_07s.jpg,0.0,clockno_default.jpg,3.0,35,,,,,,,,,,,,,,,,,,0.0,14.0,14.0,14.0,1.0,,,,,,,,,,
0.0,1.0,0.78705,,,,,,coconut_08s.jpg,0.0,clockno_default.jpg,3.0,35,,,,,,,,,,,,,,,,,,0.0,15.0,15.0,15.0,1.0,,,,,,,,,,
0.0,1.0,0.92299,,,,,,potholder_02s.jpg,0.0,clockno_default.jpg,3.0,35,,,,,,,,,,,,,,,,,,0.0,16.0,16.0,16.0,1.0,,,,,,,,,,
0.0,1.0,0.938405,,,,,,solar_panel_02s.jpg,0.0,clockno_up.jpg,4.0,35,,,,,,,,,,,,,,,,,,0.0,17.0,17.0,17.0,1.0,,,,,,,,,,
0.0,1.0,0.6428,,,,,,touchpad_11s.jpg,0.0,clockno_default.jpg,4.0,35,,,,,,,,,,,,,,,,,,0.0,18.0,18.0,18.0,1.0,,,,,,,,,,
0.0,1.0,0.97857,,,,,,rice_12s.jpg,0.0,clockno_default.jpg,4.0,35,,,,,,,,,,,,,,,,,,0.0,19.0,19.0,19.0,1.0,,,,,,,,,,
0.0,1.0,0.6019,,,,,,machete_06s.jpg,0.0,clockno_default.jpg,4.0,35,,,,,,,,,,,,,,,,,,0.0,20.0,20.0,20.0,1.0,,,,,,,,,,
1.0,1.0,0.921785,,,,,,touchpad_11s.jpg,1.0,clockno_default.jpg,4.0,35,,,,,,,,,,,,,,,,,,0.0,21.0,21.0,21.0,1.0,,,,,,,,,,
0.0,1.0,0.73745,,,,,,trumpet_06s.jpg,0.0,clockno_default.jpg,4.0,35,,,,,,,,,,,,,,,,,,0.0,22.0,22.0,22.0,1.0,,,,,,,,,,
0.0,0.0,1.59363,,,,,,touchpad_11s.jpg,1.0,clockno_default.jpg,4.0,35,,,,,,,,,,,,,,,,,,0.0,23.0,23.0,23.0,1.0,,,,,,,,,,
0.0,1.0,0.60904,,,,,,lamb_04s.jpg,0.0,clockno_up.jpg,5.0,35,,,,,,,,,,,,,,,,,,0.0,24.0,24.0,24.0,1.0,,,,,,,,,,
0.0,1.0,0.569615,,,,,,cucumber_07s.jpg,0.0,clockno_default.jpg,5.0,35,,,,,,,,,,,,,,,,,,0.0,25.0,25.0,25.0,1.0,,,,,,,,,,
0.0,1.0,0.52052,,,,,,police_car_01s.jpg,0.0,clockno_default.jpg,5.0,35,,,,,,,,,,,,,,,,,,0.0,26.0,26.0,26.0,1.0,,,,,,,,,,
0.0,1.0,0.776495,,,,,,latte_06s.jpg,0.0,clockno_default.jpg,5.0,35,,,,,,,,,,,,,,,,,,0.0,27.0,27.0,27.0,1.0,,,,,,,,,,
1.0,1.0,0.832125,,,,,,police_car_01s.jpg,1.0,clockno_default.jpg,5.0,35,,,,,,,,,,,,,,,,,,0.0,28.0,28.0,28.0,1.0,,,,,,,,,,
0.0,1.0,0.71171,,,,,,crab_16s.jpg,0.0,clockno_default.jpg,5.0,35,,,,,,,,,,,,,,,,,,0.0,29.0,29.0,29.0,1.0,,,,,,,,,,
0.0,1.0,0.52723,,,,,,toaster_03s.jpg,0.0,clockno_default.jpg,5.0,35,,,,,,,,,,,,,,,,,,0.0,30.0,30.0,30.0,1.0,,,,,,,,,,
0.0,1.0,0.60704,,,,,,parachute_03s.jpg,0.0,clockno_up.jpg,6.0,35,,,,,,,,,,,,,,,,,,0.0,31.0,31.0,31.0,1.0,,,,,,,,,,
0.0,1.0,0.622915,,,,,,punch2_09s.jpg,0.0,clockno_default.jpg,6.0,35,,,,,,,,,,,,,,,,,,0.0,32.0,32.0,32.0,1.0,,,,,,,,,,
0.0,1.0,0.83858,,,,,,touchpad_11s.jpg,0.0,clockno_default.jpg,6.0,35,,,,,,,,,,,,,,,,,,0.0,33.0,33.0,33.0,1.0,,,,,,,,,,
0.0,1.0,0.65465,,,,,,ginger_09s.jpg,0.0,clockno_default.jpg,6.0,35,,,,,,,,,,,,,,,,,,0.0,34.0,34.0,34.0,1.0,,,,,,,,,,
1.0,1.0,0.80548,,,,,,ginger_09s.jpg,1.0,clockno_default.jpg,6.0,35,,,,,,,,,,,,,,,,,,0.0,35.0,35.0,35.0,1.0,,,,,,,,,,
,,,,,,,,,1.0,,,35,0.0,0.0,1.219005,,,,,,glue_01s.jpg,pillbox_04s.jpg,,,,,,,,,,,,,0.0,0.0,0.0,0.0,1.0,,,,,
,,,,,,,,,0.0,,,35,1.0,0.0,1.310375,,,,,,punch2_09s.jpg,crab_16s.jpg,,,,,,,,,,,,,0.0,1.0,1.0,1.0,1.0,,,,,
,,,,,,,,,0.0,,,35,1.0,0.0,1.653555,,,,,,solar_panel_02s.jpg,pantyhose_07s.jpg,,,,,,,,,,,,,0.0,2.0,2.0,2.0,1.0,,,,,
,,,,,,,,,0.0,,,35,0.0,1.0,1.7503,,,,,,latte_06s.jpg,lamb_04s.jpg,,,,,,,,,,,,,0.0,3.0,3.0,3.0,1.0,,,,,
,,,,,,,,,1.0,,,35,0.0,0.0,1.643885,,,,,,scooter.jpg,chip_04s.jpg,,,,,,,,,,,,,0.0,4.0,4.0,4.0,1.0,,,,,
,,,,,,,,,1.0,,,35,0.0,0.0,1.55009,,,,,,mango_09s.jpg,potholder_02s.jpg,,,,,,,,,,,,,0.0,5.0,5.0,5.0,1.0,,,,,
