key_resp.keys,key_resp.corr,key_resp.rt,noclock_loop.thisRepN,noclock_loop.thisTrialN,noclock_loop.thisN,noclock_loop.thisIndex,noclock_loop.ran,pictures,answer,clock,segment,participant,key_resp_2.keys,key_resp_2.corr,key_resp_2.rt,noclock_loop2.thisRepN,noclock_loop2.thisTrialN,noclock_loop2.thisN,noclock_loop2.thisIndex,noclock_loop2.ran,item_a,item_b,noclock_condition.thisRepN,noclock_condition.thisTrialN,noclock_condition.thisN,noclock_condition.thisIndex,noclock_condition.ran,present,compare,present_segment.thisRepN,present_segment.thisTrialN,present_segment.thisN,present_segment.thisIndex,present_segment.ran,compare_segment.thisRepN,compare_segment.thisTrialN,compare_segment.thisN,compare_segment.thisIndex,compare_segment.ran,clock_conditions.thisRepN,clock_conditions.thisTrialN,clock_conditions.thisN,clock_conditions.thisIndex,clock_conditions.ran
0.0,1.0,0.93,0.0,0.0,0.0,0.0,1.0,harpoon.jpg,0.0,clockno_up.jpg,1.0,31,,,,,,,,,,,,,,,,,,,,,,,,,,,,,,,,
0.0,1.0,0.874,0.0,1.0,1.0,1.0,1.0,blender_08s.jpg,0.0,clockno_default.jpg,1.0,31,,,,,,,,,,,,,,,,,,,,,,,,,,,,,,,,
0.0,1.0,0.634,0.0,2.0,2.0,2.0,1.0,tube_top_03s.jpg,0.0,clockno_default.jpg,1.0,31,,,,,,,,,,,,,,,,,,,,,,,,,,,,,,,,
0.0,1.0,0.603,0.0,3.0,3.0,3.0,1.0,rocket_02s.jpg,0.0,clockno_default.jpg,1.0,31,,,,,,,,,,,,,,,,,,,,,,,,,,,,,,,,
0.0,1.0,0.523,0.0,4.0,4.0,4.0,1.0,bonsai_07s.jpg,0.0,clockno_default.jpg,1.0,31,,,,,,,,,,,,,,,,,,,,,,,,,,,,,,,,
1.0,1.0,0.733,0.0,5.0,5.0,5.0,1.0,blender_08s.jpg,1.0,clockno_default.jpg,1.0,31,,,,,,,,,,,,,,,,,,,,,,,,,,,,,,,,
0.0,1.0,1.016,0.0,6.0,6.0,6.0,1.0,kayak_08s.jpg,0.0,clockno_up.jpg,2.0,31,,,,,,,,,,,,,,,,,,,,,,,,,,,,,,,,
0.0,1.0,0.549,0.0,7.0,7.0,7.0,1.0,oil_02s.jpg,0.0,clockno_default.jpg,2.0,31,,,,,,,,,,,,,,,,,,,,,,,,,,,,,,,,
0.0,1.0,0.568,0.0,8.0,8.0,8.0,1.0,petri_dish_12s.jpg,0.0,clockno_default.jpg,2.0,31,,,,,,,,,,,,,,,,,,,,,,,,,,,,,,,,
0.0,1.0,0.77,0.0,9.0,9.0,9.0,1.0,ant_12s.jpg,0.0,clockno_default.jpg,2.0,31,,,,,,,,,,,,,,,,,,,,,,,,,,,,,,,,
0.0,1.0,0.666,0.0,10.0,10.0,10.0,1.0,tile_08s.jpg,0.0,clockno_default.jpg,2.0,31,,,,,,,,,,,,,,,,,,,,,,,,,,,,,,,,
0.0,1.0,0.684,0.0,11.0,11.0,11.0,1.0,piano_13n.jpg,0.0,clockno_up.jpg,3.0,31,,,,,,,,,,,,,,,,,,,,,,,,,,,,,,,,
0.0,1.0,0.6,0.0,12.0,12.0,12.0,1.0,beaker_01b.jpg,0.0,clockno_default.jpg,3.0,31,,,,,,,,,,,,,,,,,,,,,,,,,,,,,,,,
0.0,1.0,0.567,0.0,13.0,13.0,13.0,1.0,ladder_15s.jpg,0.0,clockno_default.jpg,3.0,31,,,,,,,,,,,,,,,,,,,,,,,,,,,,,,,,
0.0,1.0,0.539,0.0,14.0,14.0,14.0,1.0,abacus_12s.jpg,0.0,clockno_default.jpg,3.0,31,,,,,,,,,,,,,,,,,,,,,,,,,,,,,,,,
0.0,1.0,0.571,0.0,15.0,15.0,15.0,1.0,puck_06s.jpg,0.0,clockno_default.jpg,3.0,31,,,,,,,,,,,,,,,,,,,,,,,,,,,,,,,,
0.0,1.0,0.566,0.0,16.0,16.0,16.0,1.0,breadstick_08s.jpg,0.0,clockno_default.jpg,3.0,31,,,,,,,,,,,,,,,,,,,,,,,,,,,,,,,,
0.0,1.0,0.603,0.0,17.0,17.0,17.0,1.0,mailbox_11s.jpg,0.0,clockno_up.jpg,4.0,31,,,,,,,,,,,,,,,,,,,,,,,,,,,,,,,,
0.0,1.0,0.589,0.0,18.0,18.0,18.0,1.0,amber_04s.jpg,0.0,clockno_default.jpg,4.0,31,,,,,,,,,,,,,,,,,,,,,,,,,,,,,,,,
0.0,1.0,0.534,0.0,19.0,19.0,19.0,1.0,fishhook_06s.jpg,0.0,clockno_default.jpg,4.0,31,,,,,,,,,,,,,,,,,,,,,,,,,,,,,,,,
0.0,1.0,0.633,0.0,20.0,20.0,20.0,1.0,ukulele_02s.jpg,0.0,clockno_default.jpg,4.0,31,,,,,,,,,,,,,,,,,,,,,,,,,,,,,,,,
0.0,1.0,0.65,0.0,21.0,21.0,21.0,1.0,juicer1_08s.jpg,0.0,clockno_default.jpg,4.0,31,,,,,,,,,,,,,,,,,,,,,,,,,,,,,,,,
0.0,1.0,0.733,0.0,22.0,22.0,22.0,1.0,glue_01s.jpg,0.0,clockno_up.jpg,5.0,31,,,,,,,,,,,,,,,,,,,,,,,,,,,,,,,,
0.0,1.0,0.62,0.0,23.0,23.0,23.0,1.0,stump_02s.jpg,0.0,clockno_default.jpg,5.0,31,,,,,,,,,,,,,,,,,,,,,,,,,,,,,,,,
1.0,1.0,0.633,0.0,24.0,24.0,24.0,1.0,stump_02s.jpg,1.0,clockno_default.jpg,5.0,31,,,,,,,,,,,,,,,,,,,,,,,,,,,,,,,,
1.0,1.0,0.749,0.0,25.0,25.0,25.0,1.0,stump_02s.jpg,1.0,clockno_default.jpg,5.0,31,,,,,,,,,,,,,,,,,,,,,,,,,,,,,,,,
0.0,1.0,1.203,0.0,26.0,26.0,26.0,1.0,tube_top_03s.jpg,0.0,clockno_default.jpg,5.0,31,,,,,,,,,,,,,,,,,,,,,,,,,,,,,,,,
0.0,1.0,0.667,0.0,27.0,27.0,27.0,1.0,red_carpet_03s.jpg,0.0,clockno_default.jpg,5.0,31,,,,,,,,,,,,,,,,,,,,,,,,,,,,,,,,
0.0,1.0,0.884,0.0,28.0,28.0,28.0,1.0,harpoon.jpg,0.0,clockno_default.jpg,5.0,31,,,,,,,,,,,,,,,,,,,,,,,,,,,,,,,,
0.0,1.0,1.184,0.0,29.0,29.0,29.0,1.0,paintbrush_04s.jpg,0.0,clockno_up.jpg,6.0,31,,,,,,,,,,,,,,,,,,,,,,,,,,,,,,,,
0.0,1.0,0.604,0.0,30.0,30.0,30.0,1.0,bank_06s.jpg,0.0,clockno_default.jpg,6.0,31,,,,,,,,,,,,,,,,,,,,,,,,,,,,,,,,
0.0,1.0,0.555,0.0,31.0,31.0,31.0,1.0,doily_13s.jpg,0.0,clockno_default.jpg,6.0,31,,,,,,,,,,,,,,,,,,,,,,,,,,,,,,,,
0.0,1.0,0.633,0.0,32.0,32.0,32.0,1.0,pocketknife_12s.jpg,0.0,clockno_default.jpg,6.0,31,,,,,,,,,,,,,,,,,,,,,,,,,,,,,,,,
1.0,1.0,1.034,0.0,33.0,33.0,33.0,1.0,paintbrush_04s.jpg,1.0,clockno_default.jpg,6.0,31,,,,,,,,,,,,,,,,,,,,,,,,,,,,,,,,
0.0,1.0,0.583,0.0,34.0,34.0,34.0,1.0,hummingbird_05s.jpg,0.0,clockno_default.jpg,6.0,31,,,,,,,,,,,,,,,,,,,,,,,,,,,,,,,,
0.0,1.0,0.852,0.0,35.0,35.0,35.0,1.0,abacus_12s.jpg,0.0,clockno_default.jpg,6.0,31,,,,,,,,,,,,,,,,,,,,,,,,,,,,,,,,
,,,,,,,,,1.0,,,31,1.0,1.0,6.17,0.0,0.0,0.0,0.0,1.0,petri_dish_12s.jpg,piano_13n.jpg,,,,,,,,,,,,,,,,,,,,,,
,,,,,,,,,1.0,,,31,1.0,1.0,2.687,0.0,1.0,1.0,1.0,1.0,fishhook_06s.jpg,glue_01s.jpg,,,,,,,,,,,,,,,,,,,,,,
,,,,,,,,,0.0,,,31,0.0,1.0,1.936,0.0,2.0,2.0,2.0,1.0,bank_06s.jpg,red_carpet_03s.jpg,,,,,,,,,,,,,,,,,,,,,,
,,,,,,,,,0.0,,,31,0.0,1.0,1.855,0.0,3.0,3.0,3.0,1.0,ukulele_02s.jpg,mailbox_11s.jpg,,,,,,,,,,,,,,,,,,,,,,
,,,,,,,,,0.0,,,31,1.0,0.0,2.734,0.0,4.0,4.0,4.0,1.0,hummingbird_05s.jpg,doily_13s.jpg,,,,,,,,,,,,,,,,,,,,,,
,,,,,,,,,1.0,,,31,1.0,1.0,2.172,0.0,5.0,5.0,5.0,1.0,amber_04s.jpg,juicer1_08s.jpg,,,,,,,,,,,,,,,,,,,,,,
,,,,,,,,,,,,31,,,,,,,,,,,0.0,0.0,0.0,0.0,1.0,clockno_present_1_13.xlsx,clockno_compare_task_1_13.xlsx,,,,,,,,,,,,,,,
0.0,1.0,1.076,0.0,0.0,0.0,0.0,1.0,lemonade_04s.jpg,0.0,clockno_up.jpg,1.0,31,,,,,,,,,,,,,,,,,,,,,,,,,,,,,,,,
0.0,1.0,0.567,0.0,1.0,1.0,1.0,1.0,toilet_paper_12s.jpg,0.0,clockno_default.jpg,1.0,31,,,,,,,,,,,,,,,,,,,,,,,,,,,,,,,,
0.0,1.0,0.583,0.0,2.0,2.0,2.0,1.0,teacup_07s.jpg,0.0,clockno_default.jpg,1.0,31,,,,,,,,,,,,,,,,,,,,,,,,,,,,,,,,
1.0,1.0,0.836,0.0,3.0,3.0,3.0,1.0,toilet_paper_12s.jpg,1.0,clockno_default.jpg,1.0,31,,,,,,,,,,,,,,,,,,,,,,,,,,,,,,,,
0.0,1.0,1.27,0.0,4.0,4.0,4.0,1.0,ice-cream_cone_06s.jpg,0.0,clockno_default.jpg,1.0,31,,,,,,,,,,,,,,,,,,,,,,,,,,,,,,,,
0.0,1.0,0.973,0.0,5.0,5.0,5.0,1.0,loveseat_08s.jpg,0.0,clockno_default.jpg,1.0,31,,,,,,,,,,,,,,,,,,,,,,,,,,,,,,,,
0.0,1.0,1.198,0.0,6.0,6.0,6.0,1.0,otter_05s.jpg,0.0,clockno_up.jpg,2.0,31,,,,,,,,,,,,,,,,,,,,,,,,,,,,,,,,
0.0,1.0,1.182,0.0,7.0,7.0,7.0,1.0,rope_16s.jpg,0.0,clockno_default.jpg,2.0,31,,,,,,,,,,,,,,,,,,,,,,,,,,,,,,,,
0.0,1.0,0.989,0.0,8.0,8.0,8.0,1.0,raccoon_02s.jpg,0.0,clockno_default.jpg,2.0,31,,,,,,,,,,,,,,,,,,,,,,,,,,,,,,,,
0.0,1.0,0.685,0.0,9.0,9.0,9.0,1.0,light_switch_02s.jpg,0.0,clockno_default.jpg,2.0,31,,,,,,,,,,,,,,,,,,,,,,,,,,,,,,,,
0.0,1.0,0.701,0.0,10.0,10.0,10.0,1.0,smokingpipe.jpg,0.0,clockno_default.jpg,2.0,31,,,,,,,,,,,,,,,,,,,,,,,,,,,,,,,,
0.0,1.0,0.548,0.0,11.0,11.0,11.0,1.0,radio_09s.jpg,0.0,clockno_default.jpg,2.0,31,,,,,,,,,,,,,,,,,,,,,,,,,,,,,,,,
0.0,1.0,0.653,0.0,12.0,12.0,12.0,1.0,razor_blade_01b.jpg,0.0,clockno_up.jpg,3.0,31,,,,,,,,,,,,,,,,,,,,,,,,,,,,,,,,
0.0,1.0,0.648,0.0,13.0,13.0,13.0,1.0,sugar_cube_11s.jpg,0.0,clockno_default.jpg,3.0,31,,,,,,,,,,,,,,,,,,,,,,,,,,,,,,,,
0.0,1.0,0.999,0.0,14.0,14.0,14.0,1.0,ravioli_08s.jpg,0.0,clockno_default.jpg,3.0,31,,,,,,,,,,,,,,,,,,,,,,,,,,,,,,,,
0.0,1.0,0.616,0.0,15.0,15.0,15.0,1.0,compass_10n.jpg,0.0,clockno_default.jpg,3.0,31,,,,,,,,,,,,,,,,,,,,,,,,,,,,,,,,
0.0,1.0,0.682,0.0,16.0,16.0,16.0,1.0,memory_stick_11s.jpg,0.0,clockno_default.jpg,3.0,31,,,,,,,,,,,,,,,,,,,,,,,,,,,,,,,,
0.0,1.0,0.981,0.0,17.0,17.0,17.0,1.0,pancake_12s.jpg,0.0,clockno_up.jpg,4.0,31,,,,,,,,,,,,,,,,,,,,,,,,,,,,,,,,
0.0,1.0,0.606,0.0,18.0,18.0,18.0,1.0,quill_09s.jpg,0.0,clockno_default.jpg,4.0,31,,,,,,,,,,,,,,,,,,,,,,,,,,,,,,,,
0.0,1.0,0.6,0.0,19.0,19.0,19.0,1.0,footprint_11s.jpg,0.0,clockno_default.jpg,4.0,31,,,,,,,,,,,,,,,,,,,,,,,,,,,,,,,,
0.0,1.0,0.719,0.0,20.0,20.0,20.0,1.0,gas_mask_11s.jpg,0.0,clockno_default.jpg,4.0,31,,,,,,,,,,,,,,,,,,,,,,,,,,,,,,,,
0.0,0.0,0.95,0.0,21.0,21.0,21.0,1.0,pancake_12s.jpg,1.0,clockno_default.jpg,4.0,31,,,,,,,,,,,,,,,,,,,,,,,,,,,,,,,,
0.0,1.0,1.87,0.0,22.0,22.0,22.0,1.0,crayon_09s.jpg,0.0,clockno_default.jpg,4.0,31,,,,,,,,,,,,,,,,,,,,,,,,,,,,,,,,
1.0,1.0,1.991,0.0,23.0,23.0,23.0,1.0,footprint_11s.jpg,1.0,clockno_default.jpg,4.0,31,,,,,,,,,,,,,,,,,,,,,,,,,,,,,,,,
0.0,1.0,1.466,0.0,24.0,24.0,24.0,1.0,pinwheel_06s.jpg,0.0,clockno_up.jpg,5.0,31,,,,,,,,,,,,,,,,,,,,,,,,,,,,,,,,
0.0,1.0,0.966,0.0,25.0,25.0,25.0,1.0,lectern_08s.jpg,0.0,clockno_default.jpg,5.0,31,,,,,,,,,,,,,,,,,,,,,,,,,,,,,,,,
0.0,1.0,0.716,0.0,26.0,26.0,26.0,1.0,puffin_19s.jpg,0.0,clockno_default.jpg,5.0,31,,,,,,,,,,,,,,,,,,,,,,,,,,,,,,,,
0.0,1.0,0.564,0.0,27.0,27.0,27.0,1.0,peach_04s.jpg,0.0,clockno_default.jpg,5.0,31,,,,,,,,,,,,,,,,,,,,,,,,,,,,,,,,
0.0,1.0,0.935,0.0,28.0,28.0,28.0,1.0,raccoon_02s.jpg,0.0,clockno_default.jpg,5.0,31,,,,,,,,,,,,,,,,,,,,,,,,,,,,,,,,
0.0,1.0,1.038,0.0,29.0,29.0,29.0,1.0,gas_mask_11s.jpg,0.0,clockno_default.jpg,5.0,31,,,,,,,,,,,,,,,,,,,,,,,,,,,,,,,,
0.0,1.0,0.783,0.0,30.0,30.0,30.0,1.0,bubble_01b.jpg,0.0,clockno_default.jpg,5.0,31,,,,,,,,,,,,,,,,,,,,,,,,,,,,,,,,
0.0,1.0,1.183,0.0,31.0,31.0,31.0,1.0,pillbox_04s.jpg,0.0,clockno_up.jpg,6.0,31,,,,,,,,,,,,,,,,,,,,,,,,,,,,,,,,
0.0,1.0,0.815,0.0,32.0,32.0,32.0,1.0,chopsticks_08s.jpg,0.0,clockno_default.jpg,6.0,31,,,,,,,,,,,,,,,,,,,,,,,,,,,,,,,,
0.0,1.0,1.47,0.0,33.0,33.0,33.0,1.0,lizard_10n.jpg,0.0,clockno_default.jpg,6.0,31,,,,,,,,,,,,,,,,,,,,,,,,,,,,,,,,
0.0,1.0,0.767,0.0,34.0,34.0,34.0,1.0,mattress_01s.jpg,0.0,clockno_default.jpg,6.0,31,,,,,,,,,,,,,,,,,,,,,,,,,,,,,,,,
0.0,1.0,0.808,0.0,35.0,35.0,35.0,1.0,jukebox_03n.jpg,0.0,clockno_default.jpg,6.0,31,,,,,,,,,,,,,,,,,,,,,,,,,,,,,,,,
,,,,,,,,,0.0,,,31,1.0,0.0,2.631,0.0,0.0,0.0,0.0,1.0,ravioli_08s.jpg,radio_09s.jpg,,,,,,,,,,,,,,,,,,,,,,
,,,,,,,,,0.0,,,31,1.0,0.0,4.299,0.0,1.0,1.0,1.0,1.0,lectern_08s.jpg,crayon_09s.jpg,,,,,,,,,,,,,,,,,,,,,,
,,,,,,,,,1.0,,,31,0.0,0.0,1.007,0.0,2.0,2.0,2.0,1.0,ice-cream_cone_06s.jpg,rope_16s.jpg,,,,,,,,,,,,,,,,,,,,,,
,,,,,,,,,1.0,,,31,0.0,0.0,1.651,0.0,3.0,3.0,3.0,1.0,teacup_07s.jpg,loveseat_08s.jpg,,,,,,,,,,,,,,,,,,,,,,
,,,,,,,,,1.0,,,31,0.0,0.0,2.071,0.0,4.0,4.0,4.0,1.0,pinwheel_06s.jpg,peach_04s.jpg,,,,,,,,,,,,,,,,,,,,,,
,,,,,,,,,0.0,,,31,1.0,0.0,3.582,0.0,5.0,5.0,5.0,1.0,mattress_01s.jpg,pillbox_04s.jpg,,,,,,,,,,,,,,,,,,,,,,
,,,,,,,,,,,,31,,,,,,,,,,,0.0,1.0,1.0,1.0,1.0,clockno_present_2_13.xlsx,clockno_compare_task_2_13.xlsx,,,,,,,,,,,,,,,
0.0,1.0,0.95,0.0,0.0,0.0,0.0,1.0,piggy_bank_02s.jpg,0.0,clockno_up.jpg,1.0,31,,,,,,,,,,,,,,,,,,,,,,,,,,,,,,,,
0.0,1.0,0.766,0.0,1.0,1.0,1.0,1.0,powder_07s.jpg,0.0,clockno_default.jpg,1.0,31,,,,,,,,,,,,,,,,,,,,,,,,,,,,,,,,
0.0,1.0,0.555,0.0,2.0,2.0,2.0,1.0,perfume_06s.jpg,0.0,clockno_default.jpg,1.0,31,,,,,,,,,,,,,,,,,,,,,,,,,,,,,,,,
0.0,1.0,1.799,0.0,3.0,3.0,3.0,1.0,icemaker_10s.jpg,0.0,clockno_default.jpg,1.0,31,,,,,,,,,,,,,,,,,,,,,,,,,,,,,,,,
1.0,1.0,1.339,0.0,4.0,4.0,4.0,1.0,powder_07s.jpg,1.0,clockno_default.jpg,1.0,31,,,,,,,,,,,,,,,,,,,,,,,,,,,,,,,,
0.0,1.0,1.108,0.0,5.0,5.0,5.0,1.0,juicer2_06s.jpg,0.0,clockno_up.jpg,2.0,31,,,,,,,,,,,,,,,,,,,,,,,,,,,,,,,,
0.0,1.0,0.55,0.0,6.0,6.0,6.0,1.0,olive_05s.jpg,0.0,clockno_default.jpg,2.0,31,,,,,,,,,,,,,,,,,,,,,,,,,,,,,,,,
0.0,1.0,2.019,0.0,7.0,7.0,7.0,1.0,pretzel_09s.jpg,0.0,clockno_default.jpg,2.0,31,,,,,,,,,,,,,,,,,,,,,,,,,,,,,,,,
0.0,1.0,2.284,0.0,8.0,8.0,8.0,1.0,totem_pole_05s.jpg,0.0,clockno_default.jpg,2.0,31,,,,,,,,,,,,,,,,,,,,,,,,,,,,,,,,
1.0,1.0,0.803,0.0,9.0,9.0,9.0,1.0,olive_05s.jpg,1.0,clockno_default.jpg,2.0,31,,,,,,,,,,,,,,,,,,,,,,,,,,,,,,,,
0.0,1.0,0.517,0.0,10.0,10.0,10.0,1.0,mussel_11s.jpg,0.0,clockno_default.jpg,2.0,31,,,,,,,,,,,,,,,,,,,,,,,,,,,,,,,,
0.0,1.0,0.724,0.0,11.0,11.0,11.0,1.0,bee_20s.jpg,0.0,clockno_up.jpg,3.0,31,,,,,,,,,,,,,,,,,,,,,,,,,,,,,,,,
1.0,1.0,0.517,0.0,12.0,12.0,12.0,1.0,bee_20s.jpg,1.0,clockno_default.jpg,3.0,31,,,,,,,,,,,,,,,,,,,,,,,,,,,,,,,,
1.0,1.0,0.616,0.0,13.0,13.0,13.0,1.0,bee_20s.jpg,1.0,clockno_default.jpg,3.0,31,,,,,,,,,,,,,,,,,,,,,,,,,,,,,,,,
0.0,1.0,0.683,0.0,14.0,14.0,14.0,1.0,clover_04s.jpg,0.0,clockno_default.jpg,3.0,31,,,,,,,,,,,,,,,,,,,,,,,,,,,,,,,,
0.0,1.0,1.151,0.0,15.0,15.0,15.0,1.0,muffin_12n.jpg,0.0,clockno_default.jpg,3.0,31,,,,,,,,,,,,,,,,,,,,,,,,,,,,,,,,
0.0,1.0,0.957,0.0,16.0,16.0,16.0,1.0,turtle_08s.jpg,0.0,clockno_default.jpg,3.0,31,,,,,,,,,,,,,,,,,,,,,,,,,,,,,,,,
0.0,1.0,0.983,0.0,17.0,17.0,17.0,1.0,blazer_02s.jpg,0.0,clockno_default.jpg,3.0,31,,,,,,,,,,,,,,,,,,,,,,,,,,,,,,,,
0.0,1.0,0.699,0.0,18.0,18.0,18.0,1.0,target_11s.jpg,0.0,clockno_up.jpg,4.0,31,,,,,,,,,,,,,,,,,,,,,,,,,,,,,,,,
0.0,1.0,2.085,0.0,19.0,19.0,19.0,1.0,machine_gun_09s.jpg,0.0,clockno_default.jpg,4.0,31,,,,,,,,,,,,,,,,,,,,,,,,,,,,,,,,
0.0,1.0,1.74,0.0,20.0,20.0,20.0,1.0,eiffeltower.jpg,0.0,clockno_default.jpg,4.0,31,,,,,,,,,,,,,,,,,,,,,,,,,,,,,,,,
1.0,1.0,1.55,0.0,21.0,21.0,21.0,1.0,eiffeltower.jpg,1.0,clockno_default.jpg,4.0,31,,,,,,,,,,,,,,,,,,,,,,,,,,,,,,,,
0.0,1.0,0.588,0.0,22.0,22.0,22.0,1.0,tablet_04s.jpg,0.0,clockno_default.jpg,4.0,31,,,,,,,,,,,,,,,,,,,,,,,,,,,,,,,,
1.0,1.0,0.924,0.0,23.0,23.0,23.0,1.0,target_11s.jpg,1.0,clockno_default.jpg,4.0,31,,,,,,,,,,,,,,,,,,,,,,,,,,,,,,,,
0.0,1.0,1.221,0.0,24.0,24.0,24.0,1.0,ram_05s.jpg,0.0,clockno_up.jpg,5.0,31,,,,,,,,,,,,,,,,,,,,,,,,,,,,,,,,
0.0,1.0,1.001,0.0,25.0,25.0,25.0,1.0,stamp1_11s.jpg,0.0,clockno_default.jpg,5.0,31,,,,,,,,,,,,,,,,,,,,,,,,,,,,,,,,
0.0,1.0,1.45,0.0,26.0,26.0,26.0,1.0,marker_05s.jpg,0.0,clockno_default.jpg,5.0,31,,,,,,,,,,,,,,,,,,,,,,,,,,,,,,,,
0.0,1.0,1.316,0.0,27.0,27.0,27.0,1.0,turtle_08s.jpg,0.0,clockno_default.jpg,5.0,31,,,,,,,,,,,,,,,,,,,,,,,,,,,,,,,,
0.0,1.0,0.604,0.0,28.0,28.0,28.0,1.0,go-kart_10s.jpg,0.0,clockno_default.jpg,5.0,31,,,,,,,,,,,,,,,,,,,,,,,,,,,,,,,,
0.0,1.0,1.117,0.0,29.0,29.0,29.0,1.0,peanut_butter_08s.jpg,0.0,clockno_up.jpg,6.0,31,,,,,,,,,,,,,,,,,,,,,,,,,,,,,,,,
0.0,1.0,0.542,0.0,30.0,30.0,30.0,1.0,measuring_cup_02s.jpg,0.0,clockno_default.jpg,6.0,31,,,,,,,,,,,,,,,,,,,,,,,,,,,,,,,,
0.0,1.0,0.853,0.0,31.0,31.0,31.0,1.0,laser_pointer_02s.jpg,0.0,clockno_default.jpg,6.0,31,,,,,,,,,,,,,,,,,,,,,,,,,,,,,,,,
1.0,0.0,1.174,0.0,32.0,32.0,32.0,1.0,marker_05s.jpg,0.0,clockno_default.jpg,6.0,31,,,,,,,,,,,,,,,,,,,,,,,,,,,,,,,,
0.0,1.0,0.869,0.0,33.0,33.0,33.0,1.0,tuba_12s.jpg,0.0,clockno_default.jpg,6.0,31,,,,,,,,,,,,,,,,,,,,,,,,,,,,,,,,
0.0,1.0,0.651,0.0,34.0,34.0,34.0,1.0,spoon02a.jpg,0.0,clockno_default.jpg,6.0,31,,,,,,,,,,,,,,,,,,,,,,,,,,,,,,,,
0.0,1.0,0.637,0.0,35.0,35.0,35.0,1.0,mosquito_12s.jpg,0.0,clockno_default.jpg,6.0,31,,,,,,,,,,,,,,,,,,,,,,,,,,,,,,,,
,,,,,,,,,0.0,,,31,1.0,0.0,2.38,0.0,0.0,0.0,0.0,1.0,juicer2_06s.jpg,perfume_06s.jpg,,,,,,,,,,,,,,,,,,,,,,
,,,,,,,,,0.0,,,31,0.0,1.0,2.617,0.0,1.0,1.0,1.0,1.0,stamp1_11s.jpg,tablet_04s.jpg,,,,,,,,,,,,,,,,,,,,,,
,,,,,,,,,0.0,,,31,0.0,1.0,3.656,0.0,2.0,2.0,2.0,1.0,laser_pointer_02s.jpg,go-kart_10s.jpg,,,,,,,,,,,,,,,,,,,,,,
,,,,,,,,,1.0,,,31,1.0,1.0,1.783,0.0,3.0,3.0,3.0,1.0,piggy_bank_02s.jpg,icemaker_10s.jpg,,,,,,,,,,,,,,,,,,,,,,
,,,,,,,,,0.0,,,31,0.0,1.0,1.766,0.0,4.0,4.0,4.0,1.0,mussel_11s.jpg,pretzel_09s.jpg,,,,,,,,,,,,,,,,,,,,,,
,,,,,,,,,0.0,,,31,1.0,0.0,1.834,0.0,5.0,5.0,5.0,1.0,blazer_02s.jpg,clover_04s.jpg,,,,,,,,,,,,,,,,,,,,,,
,,,,,,,,,,,,31,,,,,,,,,,,0.0,2.0,2.0,2.0,1.0,clockno_present_3_13.xlsx,clockno_compare_task_3_13.xlsx,,,,,,,,,,,,,,,
0.0,1.0,1.301,0.0,0.0,0.0,0.0,1.0,penguin_16s.jpg,0.0,clockno_up.jpg,1.0,31,,,,,,,,,,,,,,,,,,,,,,,,,,,,,,,,
1.0,1.0,1.917,0.0,1.0,1.0,1.0,1.0,penguin_16s.jpg,1.0,clockno_default.jpg,1.0,31,,,,,,,,,,,,,,,,,,,,,,,,,,,,,,,,
1.0,1.0,0.69,0.0,2.0,2.0,2.0,1.0,penguin_16s.jpg,1.0,clockno_default.jpg,1.0,31,,,,,,,,,,,,,,,,,,,,,,,,,,,,,,,,
1.0,1.0,0.499,0.0,3.0,3.0,3.0,1.0,penguin_16s.jpg,1.0,clockno_default.jpg,1.0,31,,,,,,,,,,,,,,,,,,,,,,,,,,,,,,,,
0.0,1.0,0.882,0.0,4.0,4.0,4.0,1.0,tripod_01b.jpg,0.0,clockno_default.jpg,1.0,31,,,,,,,,,,,,,,,,,,,,,,,,,,,,,,,,
0.0,1.0,0.582,0.0,5.0,5.0,5.0,1.0,touchpad_11s.jpg,0.0,clockno_default.jpg,1.0,31,,,,,,,,,,,,,,,,,,,,,,,,,,,,,,,,
,0.0,,0.0,6.0,6.0,6.0,1.0,possum_09s.jpg,0.0,clockno_up.jpg,2.0,31,,,,,,,,,,,,,,,,,,,,,,,,,,,,,,,,
0.0,1.0,1.355,0.0,7.0,7.0,7.0,1.0,frame_06s.jpg,0.0,clockno_default.jpg,2.0,31,,,,,,,,,,,,,,,,,,,,,,,,,,,,,,,,
0.0,1.0,0.523,0.0,8.0,8.0,8.0,1.0,submarine_11n.jpg,0.0,clockno_default.jpg,2.0,31,,,,,,,,,,,,,,,,,,,,,,,,,,,,,,,,
0.0,1.0,0.5,0.0,9.0,9.0,9.0,1.0,squirt_gun_03s.jpg,0.0,clockno_default.jpg,2.0,31,,,,,,,,,,,,,,,,,,,,,,,,,,,,,,,,
0.0,1.0,0.539,0.0,10.0,10.0,10.0,1.0,screwdriver02a.jpg,0.0,clockno_default.jpg,2.0,31,,,,,,,,,,,,,,,,,,,,,,,,,,,,,,,,
0.0,1.0,0.932,0.0,11.0,11.0,11.0,1.0,icicle_04s.jpg,0.0,clockno_default.jpg,2.0,31,,,,,,,,,,,,,,,,,,,,,,,,,,,,,,,,
0.0,1.0,1.065,0.0,12.0,12.0,12.0,1.0,radiator_05s.jpg,0.0,clockno_up.jpg,3.0,31,,,,,,,,,,,,,,,,,,,,,,,,,,,,,,,,
0.0,1.0,0.782,0.0,13.0,13.0,13.0,1.0,tupperware_09s.jpg,0.0,clockno_default.jpg,3.0,31,,,,,,,,,,,,,,,,,,,,,,,,,,,,,,,,
0.0,1.0,1.033,0.0,14.0,14.0,14.0,1.0,lantern_04s.jpg,0.0,clockno_default.jpg,3.0,31,,,,,,,,,,,,,,,,,,,,,,,,,,,,,,,,
0.0,1.0,0.75,0.0,15.0,15.0,15.0,1.0,quad_04s.jpg,0.0,clockno_default.jpg,3.0,31,,,,,,,,,,,,,,,,,,,,,,,,,,,,,,,,
0.0,1.0,0.588,0.0,16.0,16.0,16.0,1.0,tape_measure_11s.jpg,0.0,clockno_default.jpg,3.0,31,,,,,,,,,,,,,,,,,,,,,,,,,,,,,,,,
0.0,1.0,0.722,0.0,17.0,17.0,17.0,1.0,roulette_wheel_04s.jpg,0.0,clockno_default.jpg,3.0,31,,,,,,,,,,,,,,,,,,,,,,,,,,,,,,,,
0.0,1.0,0.665,0.0,18.0,18.0,18.0,1.0,microwave_02s.jpg,0.0,clockno_default.jpg,3.0,31,,,,,,,,,,,,,,,,,,,,,,,,,,,,,,,,
0.0,1.0,0.902,0.0,19.0,19.0,19.0,1.0,mop_08s.jpg,0.0,clockno_up.jpg,4.0,31,,,,,,,,,,,,,,,,,,,,,,,,,,,,,,,,
0.0,1.0,0.539,0.0,20.0,20.0,20.0,1.0,pipe1_10s.jpg,0.0,clockno_default.jpg,4.0,31,,,,,,,,,,,,,,,,,,,,,,,,,,,,,,,,
0.0,1.0,0.9,0.0,21.0,21.0,21.0,1.0,possum_09s.jpg,0.0,clockno_default.jpg,4.0,31,,,,,,,,,,,,,,,,,,,,,,,,,,,,,,,,
0.0,1.0,0.582,0.0,22.0,22.0,22.0,1.0,turnstile_08s.jpg,0.0,clockno_default.jpg,4.0,31,,,,,,,,,,,,,,,,,,,,,,,,,,,,,,,,
0.0,1.0,0.515,0.0,23.0,23.0,23.0,1.0,raft_09s.jpg,0.0,clockno_default.jpg,4.0,31,,,,,,,,,,,,,,,,,,,,,,,,,,,,,,,,
0.0,1.0,0.515,0.0,24.0,24.0,24.0,1.0,treadmill_06s.jpg,0.0,clockno_up.jpg,5.0,31,,,,,,,,,,,,,,,,,,,,,,,,,,,,,,,,
0.0,1.0,0.533,0.0,25.0,25.0,25.0,1.0,quad_04s.jpg,0.0,clockno_default.jpg,5.0,31,,,,,,,,,,,,,,,,,,,,,,,,,,,,,,,,
0.0,1.0,0.8,0.0,26.0,26.0,26.0,1.0,mop_08s.jpg,0.0,clockno_default.jpg,5.0,31,,,,,,,,,,,,,,,,,,,,,,,,,,,,,,,,
0.0,1.0,0.62,0.0,27.0,27.0,27.0,1.0,pan_02s.jpg,0.0,clockno_default.jpg,5.0,31,,,,,,,,,,,,,,,,,,,,,,,,,,,,,,,,
0.0,1.0,0.517,0.0,28.0,28.0,28.0,1.0,coconut_08s.jpg,0.0,clockno_default.jpg,5.0,31,,,,,,,,,,,,,,,,,,,,,,,,,,,,,,,,
0.0,1.0,0.532,0.0,29.0,29.0,29.0,1.0,key_07s.jpg,0.0,clockno_default.jpg,5.0,31,,,,,,,,,,,,,,,,,,,,,,,,,,,,,,,,
0.0,1.0,0.582,0.0,30.0,30.0,30.0,1.0,sunflower_17s.jpg,0.0,clockno_default.jpg,5.0,31,,,,,,,,,,,,,,,,,,,,,,,,,,,,,,,,
0.0,1.0,0.572,0.0,31.0,31.0,31.0,1.0,pie_08s.jpg,0.0,clockno_up.jpg,6.0,31,,,,,,,,,,,,,,,,,,,,,,,,,,,,,,,,
0.0,1.0,0.622,0.0,32.0,32.0,32.0,1.0,tape_06s.jpg,0.0,clockno_default.jpg,6.0,31,,,,,,,,,,,,,,,,,,,,,,,,,,,,,,,,
0.0,1.0,0.534,0.0,33.0,33.0,33.0,1.0,rooster_03s.jpg,0.0,clockno_default.jpg,6.0,31,,,,,,,,,,,,,,,,,,,,,,,,,,,,,,,,
0.0,1.0,0.501,0.0,34.0,34.0,34.0,1.0,meatball_13s.jpg,0.0,clockno_default.jpg,6.0,31,,,,,,,,,,,,,,,,,,,,,,,,,,,,,,,,
0.0,1.0,0.806,0.0,35.0,35.0,35.0,1.0,mask_09s.jpg,0.0,clockno_default.jpg,6.0,31,,,,,,,,,,,,,,,,,,,,,,,,,,,,,,,,
,,,,,,,,,1.0,,,31,1.0,1.0,1.746,0.0,0.0,0.0,0.0,1.0,squirt_gun_03s.jpg,radiator_05s.jpg,,,,,,,,,,,,,,,,,,,,,,
,,,,,,,,,0.0,,,31,0.0,1.0,4.884,0.0,1.0,1.0,1.0,1.0,frame_06s.jpg,tripod_01b.jpg,,,,,,,,,,,,,,,,,,,,,,
,,,,,,,,,0.0,,,31,0.0,1.0,2.419,0.0,2.0,2.0,2.0,1.0,submarine_11n.jpg,touchpad_11s.jpg,,,,,,,,,,,,,,,,,,,,,,
,,,,,,,,,1.0,,,31,1.0,1.0,1.699,0.0,3.0,3.0,3.0,1.0,treadmill_06s.jpg,pan_02s.jpg,,,,,,,,,,,,,,,,,,,,,,
,,,,,,,,,1.0,,,31,0.0,0.0,1.167,0.0,4.0,4.0,4.0,1.0,tupperware_09s.jpg,tape_measure_11s.jpg,,,,,,,,,,,,,,,,,,,,,,
,,,,,,,,,0.0,,,31,1.0,0.0,3.27,0.0,5.0,5.0,5.0,1.0,raft_09s.jpg,pipe1_10s.jpg,,,,,,,,,,,,,,,,,,,,,,
,,,,,,,,,,,,31,,,,,,,,,,,0.0,3.0,3.0,3.0,1.0,clockno_present_4_13.xlsx,clockno_compare_task_4_13.xlsx,,,,,,,,,,,,,,,
0.0,1.0,1.787,0.0,0.0,0.0,0.0,1.0,dashboard_02s.jpg,0.0,clockno_up.jpg,1.0,31,,,,,,,,,,,,,,,,,,,,,,,,,,,,,,,,
0.0,1.0,0.584,0.0,1.0,1.0,1.0,1.0,jet_15s.jpg,0.0,clockno_default.jpg,1.0,31,,,,,,,,,,,,,,,,,,,,,,,,,,,,,,,,
0.0,1.0,0.867,0.0,2.0,2.0,2.0,1.0,sushi_08s.jpg,0.0,clockno_default.jpg,1.0,31,,,,,,,,,,,,,,,,,,,,,,,,,,,,,,,,
0.0,1.0,0.637,0.0,3.0,3.0,3.0,1.0,denture_03s.jpg,0.0,clockno_default.jpg,1.0,31,,,,,,,,,,,,,,,,,,,,,,,,,,,,,,,,
0.0,1.0,0.934,0.0,4.0,4.0,4.0,1.0,ironing_board_07s.jpg,0.0,clockno_default.jpg,1.0,31,,,,,,,,,,,,,,,,,,,,,,,,,,,,,,,,
1.0,1.0,1.633,0.0,5.0,5.0,5.0,1.0,jet_15s.jpg,1.0,clockno_default.jpg,1.0,31,,,,,,,,,,,,,,,,,,,,,,,,,,,,,,,,
0.0,1.0,0.652,0.0,6.0,6.0,6.0,1.0,owl_15s.jpg,0.0,clockno_up.jpg,2.0,31,,,,,,,,,,,,,,,,,,,,,,,,,,,,,,,,
0.0,1.0,0.588,0.0,7.0,7.0,7.0,1.0,plaster_cast_13s.jpg,0.0,clockno_default.jpg,2.0,31,,,,,,,,,,,,,,,,,,,,,,,,,,,,,,,,
1.0,1.0,0.817,0.0,8.0,8.0,8.0,1.0,owl_15s.jpg,1.0,clockno_default.jpg,2.0,31,,,,,,,,,,,,,,,,,,,,,,,,,,,,,,,,
0.0,1.0,0.556,0.0,9.0,9.0,9.0,1.0,lab_coat_11s.jpg,0.0,clockno_default.jpg,2.0,31,,,,,,,,,,,,,,,,,,,,,,,,,,,,,,,,
0.0,1.0,1.189,0.0,10.0,10.0,10.0,1.0,mold2_04s.jpg,0.0,clockno_default.jpg,2.0,31,,,,,,,,,,,,,,,,,,,,,,,,,,,,,,,,
0.0,1.0,1.184,0.0,11.0,11.0,11.0,1.0,umbrella_15s.jpg,0.0,clockno_default.jpg,2.0,31,,,,,,,,,,,,,,,,,,,,,,,,,,,,,,,,
0.0,1.0,0.751,0.0,12.0,12.0,12.0,1.0,penlight_12s.jpg,0.0,clockno_up.jpg,3.0,31,,,,,,,,,,,,,,,,,,,,,,,,,,,,,,,,
0.0,1.0,0.653,0.0,13.0,13.0,13.0,1.0,machete_06s.jpg,0.0,clockno_default.jpg,3.0,31,,,,,,,,,,,,,,,,,,,,,,,,,,,,,,,,
1.0,1.0,0.885,0.0,14.0,14.0,14.0,1.0,penlight_12s.jpg,1.0,clockno_default.jpg,3.0,31,,,,,,,,,,,,,,,,,,,,,,,,,,,,,,,,
0.0,1.0,0.702,0.0,15.0,15.0,15.0,1.0,keyhole_03s.jpg,0.0,clockno_default.jpg,3.0,31,,,,,,,,,,,,,,,,,,,,,,,,,,,,,,,,
0.0,1.0,0.637,0.0,16.0,16.0,16.0,1.0,ginger_09s.jpg,0.0,clockno_default.jpg,3.0,31,,,,,,,,,,,,,,,,,,,,,,,,,,,,,,,,
0.0,1.0,0.699,0.0,17.0,17.0,17.0,1.0,emerald_02s.jpg,0.0,clockno_up.jpg,4.0,31,,,,,,,,,,,,,,,,,,,,,,,,,,,,,,,,
0.0,1.0,1.134,0.0,18.0,18.0,18.0,1.0,torch_02s.jpg,0.0,clockno_default.jpg,4.0,31,,,,,,,,,,,,,,,,,,,,,,,,,,,,,,,,
0.0,1.0,0.622,0.0,19.0,19.0,19.0,1.0,flip_flop_03s.jpg,0.0,clockno_default.jpg,4.0,31,,,,,,,,,,,,,,,,,,,,,,,,,,,,,,,,
0.0,1.0,0.75,0.0,20.0,20.0,20.0,1.0,plunger_08s.jpg,0.0,clockno_default.jpg,4.0,31,,,,,,,,,,,,,,,,,,,,,,,,,,,,,,,,
0.0,1.0,0.654,0.0,21.0,21.0,21.0,1.0,thorn_13s.jpg,0.0,clockno_default.jpg,4.0,31,,,,,,,,,,,,,,,,,,,,,,,,,,,,,,,,
0.0,1.0,0.734,0.0,22.0,22.0,22.0,1.0,tongs_08s.jpg,0.0,clockno_default.jpg,4.0,31,,,,,,,,,,,,,,,,,,,,,,,,,,,,,,,,
0.0,1.0,1.633,0.0,23.0,23.0,23.0,1.0,teapot_03s.jpg,0.0,clockno_default.jpg,4.0,31,,,,,,,,,,,,,,,,,,,,,,,,,,,,,,,,
0.0,1.0,0.934,0.0,24.0,24.0,24.0,1.0,tennis_ball_06s.jpg,0.0,clockno_up.jpg,5.0,31,,,,,,,,,,,,,,,,,,,,,,,,,,,,,,,,
0.0,1.0,1.224,0.0,25.0,25.0,25.0,1.0,penlight_12s.jpg,0.0,clockno_default.jpg,5.0,31,,,,,,,,,,,,,,,,,,,,,,,,,,,,,,,,
0.0,1.0,1.334,0.0,26.0,26.0,26.0,1.0,dynamite_01b.jpg,0.0,clockno_default.jpg,5.0,31,,,,,,,,,,,,,,,,,,,,,,,,,,,,,,,,
0.0,1.0,0.807,0.0,27.0,27.0,27.0,1.0,rhubarb_03s.jpg,0.0,clockno_default.jpg,5.0,31,,,,,,,,,,,,,,,,,,,,,,,,,,,,,,,,
0.0,1.0,0.55,0.0,28.0,28.0,28.0,1.0,mango_09s.jpg,0.0,clockno_default.jpg,5.0,31,,,,,,,,,,,,,,,,,,,,,,,,,,,,,,,,
,0.0,,0.0,29.0,29.0,29.0,1.0,pear_02s.jpg,0.0,clockno_default.jpg,5.0,31,,,,,,,,,,,,,,,,,,,,,,,,,,,,,,,,
0.0,1.0,0.633,0.0,30.0,30.0,30.0,1.0,tongs_08s.jpg,0.0,clockno_default.jpg,5.0,31,,,,,,,,,,,,,,,,,,,,,,,,,,,,,,,,
0.0,1.0,0.52,0.0,31.0,31.0,31.0,1.0,rock_08s.jpg,0.0,clockno_up.jpg,6.0,31,,,,,,,,,,,,,,,,,,,,,,,,,,,,,,,,
1.0,1.0,0.499,0.0,32.0,32.0,32.0,1.0,rock_08s.jpg,1.0,clockno_default.jpg,6.0,31,,,,,,,,,,,,,,,,,,,,,,,,,,,,,,,,
0.0,1.0,0.552,0.0,33.0,33.0,33.0,1.0,sunglasses_11s.jpg,0.0,clockno_default.jpg,6.0,31,,,,,,,,,,,,,,,,,,,,,,,,,,,,,,,,
0.0,1.0,0.684,0.0,34.0,34.0,34.0,1.0,phone_01b.jpg,0.0,clockno_default.jpg,6.0,31,,,,,,,,,,,,,,,,,,,,,,,,,,,,,,,,
1.0,1.0,0.592,0.0,35.0,35.0,35.0,1.0,phone_01b.jpg,1.0,clockno_default.jpg,6.0,31,,,,,,,,,,,,,,,,,,,,,,,,,,,,,,,,
,,,,,,,,,1.0,,,31,0.0,0.0,2.129,0.0,0.0,0.0,0.0,1.0,ironing_board_07s.jpg,plaster_cast_13s.jpg,,,,,,,,,,,,,,,,,,,,,,
,,,,,,,,,0.0,,,31,1.0,0.0,3.354,0.0,1.0,1.0,1.0,1.0,torch_02s.jpg,keyhole_03s.jpg,,,,,,,,,,,,,,,,,,,,,,
,,,,,,,,,0.0,,,31,1.0,0.0,4.19,0.0,2.0,2.0,2.0,1.0,flip_flop_03s.jpg,ginger_09s.jpg,,,,,,,,,,,,,,,,,,,,,,
,,,,,,,,,1.0,,,31,0.0,0.0,1.683,0.0,3.0,3.0,3.0,1.0,dashboard_02s.jpg,denture_03s.jpg,,,,,,,,,,,,,,,,,,,,,,
,,,,,,,,,0.0,,,31,1.0,0.0,3.571,0.0,4.0,4.0,4.0,1.0,plunger_08s.jpg,emerald_02s.jpg,,,,,,,,,,,,,,,,,,,,,,
,,,,,,,,,1.0,,,31,1.0,1.0,1.599,0.0,5.0,5.0,5.0,1.0,tennis_ball_06s.jpg,rhubarb_03s.jpg,,,,,,,,,,,,,,,,,,,,,,
,,,,,,,,,,,,31,,,,,,,,,,,0.0,4.0,4.0,4.0,1.0,clockno_present_5_13.xlsx,clockno_compare_task_5_13.xlsx,,,,,,,,,,,,,,,
0.0,1.0,0.761,0.0,0.0,0.0,0.0,1.0,kilt_18s.jpg,0.0,clockno_up.jpg,1.0,31,,,,,,,,,,,,,,,,,,,,,,,,,,,,,,,,
1.0,1.0,0.787,0.0,1.0,1.0,1.0,1.0,kilt_18s.jpg,1.0,clockno_default.jpg,1.0,31,,,,,,,,,,,,,,,,,,,,,,,,,,,,,,,,
0.0,1.0,0.617,0.0,2.0,2.0,2.0,1.0,puddle_02s.jpg,0.0,clockno_default.jpg,1.0,31,,,,,,,,,,,,,,,,,,,,,,,,,,,,,,,,
0.0,1.0,2.433,0.0,3.0,3.0,3.0,1.0,ladle_04s.jpg,0.0,clockno_default.jpg,1.0,31,,,,,,,,,,,,,,,,,,,,,,,,,,,,,,,,
0.0,1.0,0.733,0.0,4.0,4.0,4.0,1.0,mud_13s.jpg,0.0,clockno_default.jpg,1.0,31,,,,,,,,,,,,,,,,,,,,,,,,,,,,,,,,
0.0,1.0,0.538,0.0,5.0,5.0,5.0,1.0,popcorn_09s.jpg,0.0,clockno_up.jpg,2.0,31,,,,,,,,,,,,,,,,,,,,,,,,,,,,,,,,
0.0,1.0,0.906,0.0,6.0,6.0,6.0,1.0,kilt_18s.jpg,0.0,clockno_default.jpg,2.0,31,,,,,,,,,,,,,,,,,,,,,,,,,,,,,,,,
1.0,0.0,2.322,0.0,7.0,7.0,7.0,1.0,lip_gloss_06s.jpg,0.0,clockno_default.jpg,2.0,31,,,,,,,,,,,,,,,,,,,,,,,,,,,,,,,,
0.0,1.0,0.65,0.0,8.0,8.0,8.0,1.0,bottle_opener_11s.jpg,0.0,clockno_default.jpg,2.0,31,,,,,,,,,,,,,,,,,,,,,,,,,,,,,,,,
0.0,1.0,0.586,0.0,9.0,9.0,9.0,1.0,cape_11s.jpg,0.0,clockno_default.jpg,2.0,31,,,,,,,,,,,,,,,,,,,,,,,,,,,,,,,,
0.0,1.0,0.97,0.0,10.0,10.0,10.0,1.0,puddle_02s.jpg,0.0,clockno_default.jpg,2.0,31,,,,,,,,,,,,,,,,,,,,,,,,,,,,,,,,
0.0,1.0,0.651,0.0,11.0,11.0,11.0,1.0,mushroom_10n.jpg,0.0,clockno_default.jpg,2.0,31,,,,,,,,,,,,,,,,,,,,,,,,,,,,,,,,
0.0,1.0,1.203,0.0,12.0,12.0,12.0,1.0,paper_bag_12s.jpg,0.0,clockno_up.jpg,3.0,31,,,,,,,,,,,,,,,,,,,,,,,,,,,,,,,,
0.0,1.0,0.551,0.0,13.0,13.0,13.0,1.0,antenna_01b.jpg,0.0,clockno_default.jpg,3.0,31,,,,,,,,,,,,,,,,,,,,,,,,,,,,,,,,
0.0,1.0,1.851,0.0,14.0,14.0,14.0,1.0,kangaroo_02s.jpg,0.0,clockno_default.jpg,3.0,31,,,,,,,,,,,,,,,,,,,,,,,,,,,,,,,,
0.0,1.0,2.283,0.0,15.0,15.0,15.0,1.0,ring_03s.jpg,0.0,clockno_default.jpg,3.0,31,,,,,,,,,,,,,,,,,,,,,,,,,,,,,,,,
0.0,1.0,2.323,0.0,16.0,16.0,16.0,1.0,pineapple_12s.jpg,0.0,clockno_default.jpg,3.0,31,,,,,,,,,,,,,,,,,,,,,,,,,,,,,,,,
0.0,1.0,0.923,0.0,17.0,17.0,17.0,1.0,pillow_03s.jpg,0.0,clockno_default.jpg,3.0,31,,,,,,,,,,,,,,,,,,,,,,,,,,,,,,,,
0.0,1.0,2.419,0.0,18.0,18.0,18.0,1.0,swan_11s.jpg,0.0,clockno_up.jpg,4.0,31,,,,,,,,,,,,,,,,,,,,,,,,,,,,,,,,
1.0,1.0,1.868,0.0,19.0,19.0,19.0,1.0,swan_11s.jpg,1.0,clockno_default.jpg,4.0,31,,,,,,,,,,,,,,,,,,,,,,,,,,,,,,,,
0.0,1.0,0.832,0.0,20.0,20.0,20.0,1.0,coat_rack_01b.jpg,0.0,clockno_default.jpg,4.0,31,,,,,,,,,,,,,,,,,,,,,,,,,,,,,,,,
0.0,1.0,0.849,0.0,21.0,21.0,21.0,1.0,candy_cane_06s.jpg,0.0,clockno_default.jpg,4.0,31,,,,,,,,,,,,,,,,,,,,,,,,,,,,,,,,
0.0,1.0,1.508,0.0,22.0,22.0,22.0,1.0,swimming_pool_17s.jpg,0.0,clockno_default.jpg,4.0,31,,,,,,,,,,,,,,,,,,,,,,,,,,,,,,,,
0.0,1.0,0.723,0.0,23.0,23.0,23.0,1.0,incense_02s.jpg,0.0,clockno_default.jpg,4.0,31,,,,,,,,,,,,,,,,,,,,,,,,,,,,,,,,
0.0,1.0,1.188,0.0,24.0,24.0,24.0,1.0,coffee_filter_10s.jpg,0.0,clockno_default.jpg,4.0,31,,,,,,,,,,,,,,,,,,,,,,,,,,,,,,,,
0.0,1.0,0.635,0.0,25.0,25.0,25.0,1.0,scooter.jpg,0.0,clockno_up.jpg,5.0,31,,,,,,,,,,,,,,,,,,,,,,,,,,,,,,,,
0.0,1.0,0.533,0.0,26.0,26.0,26.0,1.0,sleeping_bag_12s.jpg,0.0,clockno_default.jpg,5.0,31,,,,,,,,,,,,,,,,,,,,,,,,,,,,,,,,
0.0,1.0,0.716,0.0,27.0,27.0,27.0,1.0,pepper_mill_03s.jpg,0.0,clockno_default.jpg,5.0,31,,,,,,,,,,,,,,,,,,,,,,,,,,,,,,,,
0.0,1.0,0.752,0.0,28.0,28.0,28.0,1.0,gargoyle_08s.jpg,0.0,clockno_default.jpg,5.0,31,,,,,,,,,,,,,,,,,,,,,,,,,,,,,,,,
0.0,1.0,1.184,0.0,29.0,29.0,29.0,1.0,safety_pin_02s.jpg,0.0,clockno_default.jpg,5.0,31,,,,,,,,,,,,,,,,,,,,,,,,,,,,,,,,
0.0,1.0,0.616,0.0,30.0,30.0,30.0,1.0,omelet_07s.jpg,0.0,clockno_default.jpg,5.0,31,,,,,,,,,,,,,,,,,,,,,,,,,,,,,,,,
0.0,1.0,0.716,0.0,31.0,31.0,31.0,1.0,rabbit_03s.jpg,0.0,clockno_up.jpg,6.0,31,,,,,,,,,,,,,,,,,,,,,,,,,,,,,,,,
,0.0,,0.0,32.0,32.0,32.0,1.0,rabbit_03s.jpg,1.0,clockno_default.jpg,6.0,31,,,,,,,,,,,,,,,,,,,,,,,,,,,,,,,,
1.0,1.0,1.468,0.0,33.0,33.0,33.0,1.0,rabbit_03s.jpg,1.0,clockno_default.jpg,6.0,31,,,,,,,,,,,,,,,,,,,,,,,,,,,,,,,,
0.0,1.0,1.55,0.0,34.0,34.0,34.0,1.0,letter_opener_03s.jpg,0.0,clockno_default.jpg,6.0,31,,,,,,,,,,,,,,,,,,,,,,,,,,,,,,,,
0.0,1.0,0.684,0.0,35.0,35.0,35.0,1.0,rice_12s.jpg,0.0,clockno_default.jpg,6.0,31,,,,,,,,,,,,,,,,,,,,,,,,,,,,,,,,
,,,,,,,,,1.0,,,31,1.0,1.0,1.415,0.0,0.0,0.0,0.0,1.0,mud_13s.jpg,lip_gloss_06s.jpg,,,,,,,,,,,,,,,,,,,,,,
,,,,,,,,,1.0,,,31,1.0,1.0,2.4,0.0,1.0,1.0,1.0,1.0,cape_11s.jpg,paper_bag_12s.jpg,,,,,,,,,,,,,,,,,,,,,,
,,,,,,,,,1.0,,,31,1.0,1.0,1.7,0.0,2.0,2.0,2.0,1.0,swimming_pool_17s.jpg,scooter.jpg,,,,,,,,,,,,,,,,,,,,,,
,,,,,,,,,0.0,,,31,0.0,1.0,1.982,0.0,3.0,3.0,3.0,1.0,bottle_opener_11s.jpg,popcorn_09s.jpg,,,,,,,,,,,,,,,,,,,,,,
,,,,,,,,,1.0,,,31,1.0,1.0,1.24,0.0,4.0,4.0,4.0,1.0,antenna_01b.jpg,pineapple_12s.jpg,,,,,,,,,,,,,,,,,,,,,,
,,,,,,,,,1.0,,,31,1.0,1.0,1.616,0.0,5.0,5.0,5.0,1.0,candy_cane_06s.jpg,coffee_filter_10s.jpg,,,,,,,,,,,,,,,,,,,,,,
0.0,1.0,0.944,,,,,,rolling_pin_02s.jpg,0.0,clock_7_1.png,1.0,31,,,,,,,,,,,,,,,,,,0.0,0.0,0.0,0.0,1.0,,,,,,,,,,
1.0,1.0,0.821,,,,,,rolling_pin_02s.jpg,1.0,clock_7_2.png,1.0,31,,,,,,,,,,,,,,,,,,0.0,1.0,1.0,1.0,1.0,,,,,,,,,,
0.0,1.0,0.804,,,,,,roller_coaster_07s.jpg,0.0,clock_7_3.png,1.0,31,,,,,,,,,,,,,,,,,,0.0,2.0,2.0,2.0,1.0,,,,,,,,,,
0.0,1.0,1.053,,,,,,ice_pack_09s.jpg,0.0,clock_7_4.png,1.0,31,,,,,,,,,,,,,,,,,,0.0,3.0,3.0,3.0,1.0,,,,,,,,,,
1.0,1.0,0.726,,,,,,rolling_pin_02s.jpg,1.0,clock_7_5.png,1.0,31,,,,,,,,,,,,,,,,,,0.0,4.0,4.0,4.0,1.0,,,,,,,,,,
1.0,1.0,0.717,,,,,,roller_coaster_07s.jpg,1.0,clock_7_6.png,1.0,31,,,,,,,,,,,,,,,,,,0.0,5.0,5.0,5.0,1.0,,,,,,,,,,
0.0,1.0,0.618,,,,,,jalapeno_15s.jpg,0.0,clock_7_7.png,1.0,31,,,,,,,,,,,,,,,,,,0.0,6.0,6.0,6.0,1.0,,,,,,,,,,
0.0,1.0,0.7,,,,,,iron_13s.jpg,0.0,clock_6_1.png,2.0,31,,,,,,,,,,,,,,,,,,0.0,7.0,7.0,7.0,1.0,,,,,,,,,,
0.0,1.0,0.648,,,,,,joystick_01b.jpg,0.0,clock_6_2.png,2.0,31,,,,,,,,,,,,,,,,,,0.0,8.0,8.0,8.0,1.0,,,,,,,,,,
0.0,1.0,1.516,,,,,,tiara_05s.jpg,0.0,clock_6_3.png,2.0,31,,,,,,,,,,,,,,,,,,0.0,9.0,9.0,9.0,1.0,,,,,,,,,,
0.0,1.0,0.574,,,,,,tie_03s.jpg,0.0,clock_6_4.png,2.0,31,,,,,,,,,,,,,,,,,,0.0,10.0,10.0,10.0,1.0,,,,,,,,,,
1.0,1.0,0.85,,,,,,tiara_05s.jpg,1.0,clock_6_5.png,2.0,31,,,,,,,,,,,,,,,,,,0.0,11.0,11.0,11.0,1.0,,,,,,,,,,
0.0,1.0,1.216,,,,,,padlock_07s.jpg,0.0,clock_6_6.png,2.0,31,,,,,,,,,,,,,,,,,,0.0,12.0,12.0,12.0,1.0,,,,,,,,,,
0.0,1.0,1.683,,,,,,keyboard_05s.jpg,0.0,clock_5_1.png,3.0,31,,,,,,,,,,,,,,,,,,0.0,13.0,13.0,13.0,1.0,,,,,,,,,,
0.0,1.0,0.637,,,,,,lamb_chop_07s.jpg,0.0,clock_5_2.png,3.0,31,,,,,,,,,,,,,,,,,,0.0,14.0,14.0,14.0,1.0,,,,,,,,,,
0.0,1.0,0.571,,,,,,projector_08s.jpg,0.0,clock_5_3.png,3.0,31,,,,,,,,,,,,,,,,,,0.0,15.0,15.0,15.0,1.0,,,,,,,,,,
0.0,1.0,0.535,,,,,,soccer_ball_12s.jpg,0.0,clock_5_4.png,3.0,31,,,,,,,,,,,,,,,,,,0.0,16.0,16.0,16.0,1.0,,,,,,,,,,
0.0,1.0,0.574,,,,,,chocolate_01b.jpg,0.0,clock_5_5.png,3.0,31,,,,,,,,,,,,,,,,,,0.0,17.0,17.0,17.0,1.0,,,,,,,,,,
0.0,1.0,0.55,,,,,,sea_urchin_09s.jpg,0.0,clock_5_1.png,4.0,31,,,,,,,,,,,,,,,,,,0.0,18.0,18.0,18.0,1.0,,,,,,,,,,
0.0,1.0,0.501,,,,,,surfboard_11s.jpg,0.0,clock_5_2.png,4.0,31,,,,,,,,,,,,,,,,,,0.0,19.0,19.0,19.0,1.0,,,,,,,,,,
0.0,1.0,0.518,,,,,,ink_08s.jpg,0.0,clock_5_3.png,4.0,31,,,,,,,,,,,,,,,,,,0.0,20.0,20.0,20.0,1.0,,,,,,,,,,
0.0,1.0,0.652,,,,,,air_pump_05s.jpg,0.0,clock_5_4.png,4.0,31,,,,,,,,,,,,,,,,,,0.0,21.0,21.0,21.0,1.0,,,,,,,,,,
0.0,1.0,1.165,,,,,,stamp2_08s.jpg,0.0,clock_5_5.png,4.0,31,,,,,,,,,,,,,,,,,,0.0,22.0,22.0,22.0,1.0,,,,,,,,,,
0.0,1.0,1.016,,,,,,magnet_03s.jpg,0.0,clock_7_1.png,5.0,31,,,,,,,,,,,,,,,,,,0.0,23.0,23.0,23.0,1.0,,,,,,,,,,
0.0,1.0,0.671,,,,,,razor_12s.jpg,0.0,clock_7_2.png,5.0,31,,,,,,,,,,,,,,,,,,0.0,24.0,24.0,24.0,1.0,,,,,,,,,,
0.0,1.0,0.568,,,,,,trident_07s.jpg,0.0,clock_7_3.png,5.0,31,,,,,,,,,,,,,,,,,,0.0,25.0,25.0,25.0,1.0,,,,,,,,,,
1.0,1.0,1.192,,,,,,magnet_03s.jpg,1.0,clock_7_4.png,5.0,31,,,,,,,,,,,,,,,,,,0.0,26.0,26.0,26.0,1.0,,,,,,,,,,
0.0,1.0,1.0,,,,,,lamb_04s.jpg,0.0,clock_7_5.png,5.0,31,,,,,,,,,,,,,,,,,,0.0,27.0,27.0,27.0,1.0,,,,,,,,,,
1.0,1.0,1.966,,,,,,magnet_03s.jpg,1.0,clock_7_6.png,5.0,31,,,,,,,,,,,,,,,,,,0.0,28.0,28.0,28.0,1.0,,,,,,,,,,
0.0,1.0,0.6,,,,,,plug_08s.jpg,0.0,clock_7_7.png,5.0,31,,,,,,,,,,,,,,,,,,0.0,29.0,29.0,29.0,1.0,,,,,,,,,,
0.0,1.0,1.784,,,,,,ticktacktoe_08s.jpg,0.0,clock_6_1.png,6.0,31,,,,,,,,,,,,,,,,,,0.0,30.0,30.0,30.0,1.0,,,,,,,,,,
0.0,1.0,1.583,,,,,,treasure_08s.jpg,0.0,clock_6_2.png,6.0,31,,,,,,,,,,,,,,,,,,0.0,31.0,31.0,31.0,1.0,,,,,,,,,,
0.0,1.0,2.384,,,,,,tulip_02s.jpg,0.0,clock_6_3.png,6.0,31,,,,,,,,,,,,,,,,,,0.0,32.0,32.0,32.0,1.0,,,,,,,,,,
0.0,1.0,1.051,,,,,,telephone_pole_05s.jpg,0.0,clock_6_4.png,6.0,31,,,,,,,,,,,,,,,,,,0.0,33.0,33.0,33.0,1.0,,,,,,,,,,
0.0,1.0,0.566,,,,,,luggage_08s.jpg,0.0,clock_6_5.png,6.0,31,,,,,,,,,,,,,,,,,,0.0,34.0,34.0,34.0,1.0,,,,,,,,,,
0.0,1.0,1.2,,,,,,dirt_bike_11s.jpg,0.0,clock_6_6.png,6.0,31,,,,,,,,,,,,,,,,,,0.0,35.0,35.0,35.0,1.0,,,,,,,,,,
,,,,,,,,,1.0,,,31,0.0,0.0,3.061,,,,,,padlock_07s.jpg,projector_08s.jpg,,,,,,,,,,,,,0.0,0.0,0.0,0.0,1.0,,,,,
,,,,,,,,,0.0,,,31,1.0,0.0,1.921,,,,,,ink_08s.jpg,chocolate_01b.jpg,,,,,,,,,,,,,0.0,1.0,1.0,1.0,1.0,,,,,
,,,,,,,,,0.0,,,31,1.0,0.0,1.183,,,,,,trident_07s.jpg,stamp2_08s.jpg,,,,,,,,,,,,,0.0,2.0,2.0,2.0,1.0,,,,,
,,,,,,,,,1.0,,,31,0.0,0.0,1.035,,,,,,ice_pack_09s.jpg,jalapeno_15s.jpg,,,,,,,,,,,,,0.0,3.0,3.0,3.0,1.0,,,,,
,,,,,,,,,1.0,,,31,0.0,0.0,3.533,,,,,,treasure_08s.jpg,luggage_08s.jpg,,,,,,,,,,,,,0.0,4.0,4.0,4.0,1.0,,,,,
,,,,,,,,,1.0,,,31,0.0,0.0,1.315,,,,,,iron_13s.jpg,tie_03s.jpg,,,,,,,,,,,,,0.0,5.0,5.0,5.0,1.0,,,,,
,,,,,,,,,,,,31,,,,,,,,,,,,,,,,clock_present_1_13.xlsx,clock_compare_task_1_13.xlsx,,,,,,,,,,,0.0,0.0,0.0,0.0,1.0
0.0,1.0,1.007,,,,,,pocket_watch_16s.jpg,0.0,clock_6_1.png,1.0,31,,,,,,,,,,,,,,,,,,0.0,0.0,0.0,0.0,1.0,,,,,,,,,,
0.0,1.0,0.532,,,,,,throne_11s.jpg,0.0,clock_6_2.png,1.0,31,,,,,,,,,,,,,,,,,,0.0,1.0,1.0,1.0,1.0,,,,,,,,,,
0.0,1.0,1.633,,,,,,flask_04s.jpg,0.0,clock_6_3.png,1.0,31,,,,,,,,,,,,,,,,,,0.0,2.0,2.0,2.0,1.0,,,,,,,,,,
0.0,1.0,0.739,,,,,,funnel_01b.jpg,0.0,clock_6_4.png,1.0,31,,,,,,,,,,,,,,,,,,0.0,3.0,3.0,3.0,1.0,,,,,,,,,,
0.0,1.0,0.516,,,,,,lid_10s.jpg,0.0,clock_6_5.png,1.0,31,,,,,,,,,,,,,,,,,,0.0,4.0,4.0,4.0,1.0,,,,,,,,,,
0.0,1.0,0.587,,,,,,polaroid_05s.jpg,0.0,clock_6_6.png,1.0,31,,,,,,,,,,,,,,,,,,0.0,5.0,5.0,5.0,1.0,,,,,,,,,,
0.0,1.0,0.516,,,,,,inhaler_01b.jpg,0.0,clock_7_1.png,2.0,31,,,,,,,,,,,,,,,,,,0.0,6.0,6.0,6.0,1.0,,,,,,,,,,
1.0,1.0,0.836,,,,,,inhaler_01b.jpg,1.0,clock_7_2.png,2.0,31,,,,,,,,,,,,,,,,,,0.0,7.0,7.0,7.0,1.0,,,,,,,,,,
0.0,1.0,0.6,,,,,,jewel_01b.jpg,0.0,clock_7_3.png,2.0,31,,,,,,,,,,,,,,,,,,0.0,8.0,8.0,8.0,1.0,,,,,,,,,,
0.0,1.0,1.821,,,,,,pea_11s.jpg,0.0,clock_7_4.png,2.0,31,,,,,,,,,,,,,,,,,,0.0,9.0,9.0,9.0,1.0,,,,,,,,,,
0.0,1.0,0.653,,,,,,frog_09s.jpg,0.0,clock_7_5.png,2.0,31,,,,,,,,,,,,,,,,,,0.0,10.0,10.0,10.0,1.0,,,,,,,,,,
1.0,1.0,1.667,,,,,,inhaler_01b.jpg,1.0,clock_7_6.png,2.0,31,,,,,,,,,,,,,,,,,,0.0,11.0,11.0,11.0,1.0,,,,,,,,,,
0.0,1.0,0.534,,,,,,purse_05s.jpg,0.0,clock_7_7.png,2.0,31,,,,,,,,,,,,,,,,,,0.0,12.0,12.0,12.0,1.0,,,,,,,,,,
0.0,1.0,0.321,,,,,,hydrant_10s.jpg,0.0,clock_7_1.png,3.0,31,,,,,,,,,,,,,,,,,,0.0,13.0,13.0,13.0,1.0,,,,,,,,,,
0.0,1.0,0.621,,,,,,film_03s.jpg,0.0,clock_7_2.png,3.0,31,,,,,,,,,,,,,,,,,,0.0,14.0,14.0,14.0,1.0,,,,,,,,,,
0.0,1.0,0.532,,,,,,quilt_03s.jpg,0.0,clock_7_3.png,3.0,31,,,,,,,,,,,,,,,,,,0.0,15.0,15.0,15.0,1.0,,,,,,,,,,
0.0,1.0,0.621,,,,,,popsicle_02s.jpg,0.0,clock_7_4.png,3.0,31,,,,,,,,,,,,,,,,,,0.0,16.0,16.0,16.0,1.0,,,,,,,,,,
0.0,1.0,0.686,,,,,,fox_13s.jpg,0.0,clock_7_5.png,3.0,31,,,,,,,,,,,,,,,,,,0.0,17.0,17.0,17.0,1.0,,,,,,,,,,
0.0,1.0,0.556,,,,,,orchid_01b.jpg,0.0,clock_7_6.png,3.0,31,,,,,,,,,,,,,,,,,,0.0,18.0,18.0,18.0,1.0,,,,,,,,,,
0.0,1.0,0.716,,,,,,marshmallow_08s.jpg,0.0,clock_7_7.png,3.0,31,,,,,,,,,,,,,,,,,,0.0,19.0,19.0,19.0,1.0,,,,,,,,,,
0.0,1.0,1.372,,,,,,taxi_15s.jpg,0.0,clock_5_1.png,4.0,31,,,,,,,,,,,,,,,,,,0.0,20.0,20.0,20.0,1.0,,,,,,,,,,
0.0,1.0,2.382,,,,,,fork_04s.jpg,0.0,clock_5_2.png,4.0,31,,,,,,,,,,,,,,,,,,0.0,21.0,21.0,21.0,1.0,,,,,,,,,,
0.0,1.0,2.053,,,,,,puppet_01b.jpg,0.0,clock_5_3.png,4.0,31,,,,,,,,,,,,,,,,,,0.0,22.0,22.0,22.0,1.0,,,,,,,,,,
0.0,1.0,1.133,,,,,,megaphone_03s.jpg,0.0,clock_5_4.png,4.0,31,,,,,,,,,,,,,,,,,,0.0,23.0,23.0,23.0,1.0,,,,,,,,,,
1.0,1.0,0.789,,,,,,megaphone_03s.jpg,1.0,clock_5_5.png,4.0,31,,,,,,,,,,,,,,,,,,0.0,24.0,24.0,24.0,1.0,,,,,,,,,,
0.0,1.0,0.449,,,,,,cotton_candy_01b.jpg,0.0,clock_5_1.png,5.0,31,,,,,,,,,,,,,,,,,,0.0,25.0,25.0,25.0,1.0,,,,,,,,,,
0.0,1.0,1.417,,,,,,puppy_08s.jpg,0.0,clock_5_2.png,5.0,31,,,,,,,,,,,,,,,,,,0.0,26.0,26.0,26.0,1.0,,,,,,,,,,
0.0,1.0,1.149,,,,,,glasses01a.jpg,0.0,clock_5_3.png,5.0,31,,,,,,,,,,,,,,,,,,0.0,27.0,27.0,27.0,1.0,,,,,,,,,,
1.0,1.0,0.548,,,,,,glasses01a.jpg,1.0,clock_5_4.png,5.0,31,,,,,,,,,,,,,,,,,,0.0,28.0,28.0,28.0,1.0,,,,,,,,,,
0.0,1.0,0.95,,,,,,typewriter_11s.jpg,0.0,clock_5_5.png,5.0,31,,,,,,,,,,,,,,,,,,0.0,29.0,29.0,29.0,1.0,,,,,,,,,,
0.0,1.0,0.605,,,,,,fur_coat_11s.jpg,0.0,clock_6_1.png,6.0,31,,,,,,,,,,,,,,,,,,0.0,30.0,30.0,30.0,1.0,,,,,,,,,,
0.0,1.0,1.534,,,,,,rudder_02s.jpg,0.0,clock_6_2.png,6.0,31,,,,,,,,,,,,,,,,,,0.0,31.0,31.0,31.0,1.0,,,,,,,,,,
0.0,1.0,0.902,,,,,,chip_04s.jpg,0.0,clock_6_3.png,6.0,31,,,,,,,,,,,,,,,,,,0.0,32.0,32.0,32.0,1.0,,,,,,,,,,
0.0,1.0,0.55,,,,,,thread_08s.jpg,0.0,clock_6_4.png,6.0,31,,,,,,,,,,,,,,,,,,0.0,33.0,33.0,33.0,1.0,,,,,,,,,,
0.0,1.0,0.616,,,,,,quilt_03s.jpg,0.0,clock_6_5.png,6.0,31,,,,,,,,,,,,,,,,,,0.0,34.0,34.0,34.0,1.0,,,,,,,,,,
0.0,1.0,0.671,,,,,,polar_bear_02s.jpg,0.0,clock_6_6.png,6.0,31,,,,,,,,,,,,,,,,,,0.0,35.0,35.0,35.0,1.0,,,,,,,,,,
,,,,,,,,,0.0,,,31,1.0,0.0,1.768,,,,,,fork_04s.jpg,orchid_01b.jpg,,,,,,,,,,,,,0.0,0.0,0.0,0.0,1.0,,,,,
,,,,,,,,,0.0,,,31,1.0,0.0,2.038,,,,,,cotton_candy_01b.jpg,puppet_01b.jpg,,,,,,,,,,,,,0.0,1.0,1.0,1.0,1.0,,,,,
,,,,,,,,,1.0,,,31,0.0,0.0,2.216,,,,,,polaroid_05s.jpg,jewel_01b.jpg,,,,,,,,,,,,,0.0,2.0,2.0,2.0,1.0,,,,,
,,,,,,,,,1.0,,,31,0.0,0.0,1.45,,,,,,pocket_watch_16s.jpg,funnel_01b.jpg,,,,,,,,,,,,,0.0,3.0,3.0,3.0,1.0,,,,,
,,,,,,,,,0.0,,,31,0.0,1.0,1.451,,,,,,lid_10s.jpg,throne_11s.jpg,,,,,,,,,,,,,0.0,4.0,4.0,4.0,1.0,,,,,
,,,,,,,,,1.0,,,31,1.0,1.0,0.958,,,,,,pea_11s.jpg,purse_05s.jpg,,,,,,,,,,,,,0.0,5.0,5.0,5.0,1.0,,,,,
,,,,,,,,,,,,31,,,,,,,,,,,,,,,,clock_present_2_13.xlsx,clock_compare_task_2_13.xlsx,,,,,,,,,,,0.0,1.0,1.0,1.0,1.0
0.0,1.0,0.763,,,,,,trumpet_06s.jpg,0.0,clock_6_1.png,1.0,31,,,,,,,,,,,,,,,,,,0.0,0.0,0.0,0.0,1.0,,,,,,,,,,
0.0,1.0,1.005,,,,,,pantyhose_07s.jpg,0.0,clock_6_2.png,1.0,31,,,,,,,,,,,,,,,,,,0.0,1.0,1.0,1.0,1.0,,,,,,,,,,
0.0,1.0,1.034,,,,,,latte_06s.jpg,0.0,clock_6_3.png,1.0,31,,,,,,,,,,,,,,,,,,0.0,2.0,2.0,2.0,1.0,,,,,,,,,,
1.0,1.0,1.133,,,,,,trumpet_06s.jpg,1.0,clock_6_4.png,1.0,31,,,,,,,,,,,,,,,,,,0.0,3.0,3.0,3.0,1.0,,,,,,,,,,
0.0,1.0,0.483,,,,,,jetski_10s.jpg,0.0,clock_6_5.png,1.0,31,,,,,,,,,,,,,,,,,,0.0,4.0,4.0,4.0,1.0,,,,,,,,,,
0.0,1.0,0.667,,,,,,toy_04s.jpg,0.0,clock_6_6.png,1.0,31,,,,,,,,,,,,,,,,,,0.0,5.0,5.0,5.0,1.0,,,,,,,,,,
0.0,1.0,0.601,,,,,,espresso_01b.jpg,0.0,clock_5_1.png,2.0,31,,,,,,,,,,,,,,,,,,0.0,6.0,6.0,6.0,1.0,,,,,,,,,,
0.0,1.0,0.833,,,,,,tambourine_06s.jpg,0.0,clock_5_2.png,2.0,31,,,,,,,,,,,,,,,,,,0.0,7.0,7.0,7.0,1.0,,,,,,,,,,
0.0,1.0,0.533,,,,,,comic_book_02s.jpg,0.0,clock_5_3.png,2.0,31,,,,,,,,,,,,,,,,,,0.0,8.0,8.0,8.0,1.0,,,,,,,,,,
0.0,1.0,2.021,,,,,,snowman_02s.jpg,0.0,clock_5_4.png,2.0,31,,,,,,,,,,,,,,,,,,0.0,9.0,9.0,9.0,1.0,,,,,,,,,,
1.0,1.0,0.866,,,,,,espresso_01b.jpg,1.0,clock_5_5.png,2.0,31,,,,,,,,,,,,,,,,,,0.0,10.0,10.0,10.0,1.0,,,,,,,,,,
0.0,1.0,0.389,,,,,,blowfish_03s.jpg,0.0,clock_7_1.png,3.0,31,,,,,,,,,,,,,,,,,,0.0,11.0,11.0,11.0,1.0,,,,,,,,,,
1.0,1.0,1.066,,,,,,blowfish_03s.jpg,1.0,clock_7_2.png,3.0,31,,,,,,,,,,,,,,,,,,0.0,12.0,12.0,12.0,1.0,,,,,,,,,,
1.0,1.0,0.583,,,,,,blowfish_03s.jpg,1.0,clock_7_3.png,3.0,31,,,,,,,,,,,,,,,,,,0.0,13.0,13.0,13.0,1.0,,,,,,,,,,
1.0,1.0,0.467,,,,,,blowfish_03s.jpg,1.0,clock_7_4.png,3.0,31,,,,,,,,,,,,,,,,,,0.0,14.0,14.0,14.0,1.0,,,,,,,,,,
0.0,1.0,1.374,,,,,,beard_16s.jpg,0.0,clock_7_5.png,3.0,31,,,,,,,,,,,,,,,,,,0.0,15.0,15.0,15.0,1.0,,,,,,,,,,
0.0,1.0,1.005,,,,,,police_car_01s.jpg,0.0,clock_7_6.png,3.0,31,,,,,,,,,,,,,,,,,,0.0,16.0,16.0,16.0,1.0,,,,,,,,,,
0.0,1.0,1.654,,,,,,comic_book_02s.jpg,0.0,clock_7_7.png,3.0,31,,,,,,,,,,,,,,,,,,0.0,17.0,17.0,17.0,1.0,,,,,,,,,,
0.0,1.0,1.134,,,,,,gazelle_10s.jpg,0.0,clock_7_1.png,4.0,31,,,,,,,,,,,,,,,,,,0.0,18.0,18.0,18.0,1.0,,,,,,,,,,
0.0,1.0,0.558,,,,,,chalice_10s.jpg,0.0,clock_7_2.png,4.0,31,,,,,,,,,,,,,,,,,,0.0,19.0,19.0,19.0,1.0,,,,,,,,,,
0.0,1.0,0.533,,,,,,foam_03s.jpg,0.0,clock_7_3.png,4.0,31,,,,,,,,,,,,,,,,,,0.0,20.0,20.0,20.0,1.0,,,,,,,,,,
0.0,1.0,1.083,,,,,,jersey_02s.jpg,0.0,clock_7_4.png,4.0,31,,,,,,,,,,,,,,,,,,0.0,21.0,21.0,21.0,1.0,,,,,,,,,,
1.0,1.0,1.017,,,,,,foam_03s.jpg,1.0,clock_7_5.png,4.0,31,,,,,,,,,,,,,,,,,,0.0,22.0,22.0,22.0,1.0,,,,,,,,,,
0.0,1.0,0.583,,,,,,contact_lens_15s.jpg,0.0,clock_7_6.png,4.0,31,,,,,,,,,,,,,,,,,,0.0,23.0,23.0,23.0,1.0,,,,,,,,,,
1.0,1.0,1.149,,,,,,contact_lens_15s.jpg,1.0,clock_7_7.png,4.0,31,,,,,,,,,,,,,,,,,,0.0,24.0,24.0,24.0,1.0,,,,,,,,,,
0.0,1.0,2.166,,,,,,pacifier_09s.jpg,0.0,clock_6_1.png,5.0,31,,,,,,,,,,,,,,,,,,0.0,25.0,25.0,25.0,1.0,,,,,,,,,,
0.0,1.0,0.717,,,,,,onion_10s.jpg,0.0,clock_6_2.png,5.0,31,,,,,,,,,,,,,,,,,,0.0,26.0,26.0,26.0,1.0,,,,,,,,,,
0.0,1.0,0.7,,,,,,knot_01b.jpg,0.0,clock_6_3.png,5.0,31,,,,,,,,,,,,,,,,,,0.0,27.0,27.0,27.0,1.0,,,,,,,,,,
0.0,1.0,0.55,,,,,,cucumber_07s.jpg,0.0,clock_6_4.png,5.0,31,,,,,,,,,,,,,,,,,,0.0,28.0,28.0,28.0,1.0,,,,,,,,,,
0.0,1.0,0.65,,,,,,pump_11s.jpg,0.0,clock_6_5.png,5.0,31,,,,,,,,,,,,,,,,,,0.0,29.0,29.0,29.0,1.0,,,,,,,,,,
0.0,1.0,0.734,,,,,,stingray_02s.jpg,0.0,clock_6_6.png,5.0,31,,,,,,,,,,,,,,,,,,0.0,30.0,30.0,30.0,1.0,,,,,,,,,,
0.0,1.0,1.233,,,,,,spacesuit_02s.jpg,0.0,clock_5_1.png,6.0,31,,,,,,,,,,,,,,,,,,0.0,31.0,31.0,31.0,1.0,,,,,,,,,,
0.0,1.0,0.75,,,,,,contact_lens_15s.jpg,0.0,clock_5_2.png,6.0,31,,,,,,,,,,,,,,,,,,0.0,32.0,32.0,32.0,1.0,,,,,,,,,,
0.0,1.0,0.633,,,,,,paper_towel_03s.jpg,0.0,clock_5_3.png,6.0,31,,,,,,,,,,,,,,,,,,0.0,33.0,33.0,33.0,1.0,,,,,,,,,,
1.0,1.0,0.766,,,,,,paper_towel_03s.jpg,1.0,clock_5_4.png,6.0,31,,,,,,,,,,,,,,,,,,0.0,34.0,34.0,34.0,1.0,,,,,,,,,,
1.0,1.0,1.302,,,,,,spacesuit_02s.jpg,1.0,clock_5_5.png,6.0,31,,,,,,,,,,,,,,,,,,0.0,35.0,35.0,35.0,1.0,,,,,,,,,,
,,,,,,,,,1.0,,,31,0.0,0.0,2.348,,,,,,police_car_01s.jpg,chalice_10s.jpg,,,,,,,,,,,,,0.0,0.0,0.0,0.0,1.0,,,,,
,,,,,,,,,1.0,,,31,0.0,0.0,1.667,,,,,,jetski_10s.jpg,tambourine_06s.jpg,,,,,,,,,,,,,0.0,1.0,1.0,1.0,1.0,,,,,
,,,,,,,,,0.0,,,31,0.0,1.0,1.682,,,,,,gazelle_10s.jpg,beard_16s.jpg,,,,,,,,,,,,,0.0,2.0,2.0,2.0,1.0,,,,,
,,,,,,,,,1.0,,,31,0.0,0.0,1.65,,,,,,latte_06s.jpg,toy_04s.jpg,,,,,,,,,,,,,0.0,3.0,3.0,3.0,1.0,,,,,
,,,,,,,,,1.0,,,31,0.0,0.0,2.139,,,,,,pacifier_09s.jpg,cucumber_07s.jpg,,,,,,,,,,,,,0.0,4.0,4.0,4.0,1.0,,,,,
,,,,,,,,,1.0,,,31,1.0,1.0,1.166,,,,,,onion_10s.jpg,pump_11s.jpg,,,,,,,,,,,,,0.0,5.0,5.0,5.0,1.0,,,,,
,,,,,,,,,,,,31,,,,,,,,,,,,,,,,clock_present_3_13.xlsx,clock_compare_task_3_13.xlsx,,,,,,,,,,,0.0,2.0,2.0,2.0,1.0
0.0,1.0,0.771,,,,,,lipstick_02s.jpg,0.0,clock_7_1.png,1.0,31,,,,,,,,,,,,,,,,,,0.0,0.0,0.0,0.0,1.0,,,,,,,,,,
0.0,1.0,0.591,,,,,,kettle_08s.jpg,0.0,clock_7_2.png,1.0,31,,,,,,,,,,,,,,,,,,0.0,1.0,1.0,1.0,1.0,,,,,,,,,,
1.0,1.0,0.801,,,,,,lipstick_02s.jpg,1.0,clock_7_3.png,1.0,31,,,,,,,,,,,,,,,,,,0.0,2.0,2.0,2.0,1.0,,,,,,,,,,
1.0,1.0,0.816,,,,,,lipstick_02s.jpg,1.0,clock_7_4.png,1.0,31,,,,,,,,,,,,,,,,,,0.0,3.0,3.0,3.0,1.0,,,,,,,,,,
0.0,1.0,0.75,,,,,,pomegranate_04s.jpg,0.0,clock_7_5.png,1.0,31,,,,,,,,,,,,,,,,,,0.0,4.0,4.0,4.0,1.0,,,,,,,,,,
0.0,1.0,1.383,,,,,,pencil02a.jpg,0.0,clock_7_6.png,1.0,31,,,,,,,,,,,,,,,,,,0.0,5.0,5.0,5.0,1.0,,,,,,,,,,
0.0,1.0,1.102,,,,,,lollipop_08s.jpg,0.0,clock_7_7.png,1.0,31,,,,,,,,,,,,,,,,,,0.0,6.0,6.0,6.0,1.0,,,,,,,,,,
0.0,1.0,1.224,,,,,,road_sign_05s.jpg,0.0,clock_6_1.png,2.0,31,,,,,,,,,,,,,,,,,,0.0,7.0,7.0,7.0,1.0,,,,,,,,,,
1.0,1.0,0.766,,,,,,road_sign_05s.jpg,1.0,clock_6_2.png,2.0,31,,,,,,,,,,,,,,,,,,0.0,8.0,8.0,8.0,1.0,,,,,,,,,,
0.0,1.0,0.883,,,,,,leash_10s.jpg,0.0,clock_6_3.png,2.0,31,,,,,,,,,,,,,,,,,,0.0,9.0,9.0,9.0,1.0,,,,,,,,,,
0.0,1.0,0.55,,,,,,licorice_06s.jpg,0.0,clock_6_4.png,2.0,31,,,,,,,,,,,,,,,,,,0.0,10.0,10.0,10.0,1.0,,,,,,,,,,
0.0,1.0,0.683,,,,,,mixer_12s.jpg,0.0,clock_6_5.png,2.0,31,,,,,,,,,,,,,,,,,,0.0,11.0,11.0,11.0,1.0,,,,,,,,,,
0.0,1.0,1.201,,,,,,lipstick_02s.jpg,0.0,clock_6_6.png,2.0,31,,,,,,,,,,,,,,,,,,0.0,12.0,12.0,12.0,1.0,,,,,,,,,,
0.0,1.0,1.288,,,,,,rocking_chair_05s.jpg,0.0,clock_6_1.png,3.0,31,,,,,,,,,,,,,,,,,,0.0,13.0,13.0,13.0,1.0,,,,,,,,,,
0.0,1.0,0.6,,,,,,syringe_02s.jpg,0.0,clock_6_2.png,3.0,31,,,,,,,,,,,,,,,,,,0.0,14.0,14.0,14.0,1.0,,,,,,,,,,
0.0,1.0,0.6,,,,,,golf_club_03s.jpg,0.0,clock_6_3.png,3.0,31,,,,,,,,,,,,,,,,,,0.0,15.0,15.0,15.0,1.0,,,,,,,,,,
0.0,1.0,0.918,,,,,,potholder_02s.jpg,0.0,clock_6_4.png,3.0,31,,,,,,,,,,,,,,,,,,0.0,16.0,16.0,16.0,1.0,,,,,,,,,,
0.0,1.0,0.833,,,,,,pencil02a.jpg,0.0,clock_6_5.png,3.0,31,,,,,,,,,,,,,,,,,,0.0,17.0,17.0,17.0,1.0,,,,,,,,,,
0.0,1.0,0.504,,,,,,fire_pit_10s.jpg,0.0,clock_6_6.png,3.0,31,,,,,,,,,,,,,,,,,,0.0,18.0,18.0,18.0,1.0,,,,,,,,,,
0.0,1.0,0.584,,,,,,tinsel_12s.jpg,0.0,clock_5_1.png,4.0,31,,,,,,,,,,,,,,,,,,0.0,19.0,19.0,19.0,1.0,,,,,,,,,,
0.0,1.0,0.599,,,,,,sledgehammer_03s.jpg,0.0,clock_5_2.png,4.0,31,,,,,,,,,,,,,,,,,,0.0,20.0,20.0,20.0,1.0,,,,,,,,,,
0.0,1.0,1.072,,,,,,pomegranate_04s.jpg,0.0,clock_5_3.png,4.0,31,,,,,,,,,,,,,,,,,,0.0,21.0,21.0,21.0,1.0,,,,,,,,,,
0.0,1.0,0.601,,,,,,tattoo_14s.jpg,0.0,clock_5_4.png,4.0,31,,,,,,,,,,,,,,,,,,0.0,22.0,22.0,22.0,1.0,,,,,,,,,,
0.0,1.0,0.785,,,,,,turkey_10s.jpg,0.0,clock_5_5.png,4.0,31,,,,,,,,,,,,,,,,,,0.0,23.0,23.0,23.0,1.0,,,,,,,,,,
0.0,1.0,0.641,,,,,,eyedropper_12s.jpg,0.0,clock_5_1.png,5.0,31,,,,,,,,,,,,,,,,,,0.0,24.0,24.0,24.0,1.0,,,,,,,,,,
0.0,1.0,0.568,,,,,,fondue_07s.jpg,0.0,clock_5_2.png,5.0,31,,,,,,,,,,,,,,,,,,0.0,25.0,25.0,25.0,1.0,,,,,,,,,,
0.0,1.0,0.5,,,,,,fire_alarm_05s.jpg,0.0,clock_5_3.png,5.0,31,,,,,,,,,,,,,,,,,,0.0,26.0,26.0,26.0,1.0,,,,,,,,,,
1.0,1.0,2.018,,,,,,eyedropper_12s.jpg,1.0,clock_5_4.png,5.0,31,,,,,,,,,,,,,,,,,,0.0,27.0,27.0,27.0,1.0,,,,,,,,,,
,0.0,,,,,,,eyedropper_12s.jpg,1.0,clock_5_5.png,5.0,31,,,,,,,,,,,,,,,,,,0.0,28.0,28.0,28.0,1.0,,,,,,,,,,
0.0,1.0,1.085,,,,,,badge_03s.jpg,0.0,clock_7_1.png,6.0,31,,,,,,,,,,,,,,,,,,0.0,29.0,29.0,29.0,1.0,,,,,,,,,,
0.0,1.0,1.119,,,,,,lion_18s.jpg,0.0,clock_7_2.png,6.0,31,,,,,,,,,,,,,,,,,,0.0,30.0,30.0,30.0,1.0,,,,,,,,,,
0.0,1.0,0.586,,,,,,lasagna_06s.jpg,0.0,clock_7_3.png,6.0,31,,,,,,,,,,,,,,,,,,0.0,31.0,31.0,31.0,1.0,,,,,,,,,,
0.0,1.0,0.569,,,,,,turf_03s.jpg,0.0,clock_7_4.png,6.0,31,,,,,,,,,,,,,,,,,,0.0,32.0,32.0,32.0,1.0,,,,,,,,,,
0.0,1.0,1.201,,,,,,kitten_07s.jpg,0.0,clock_7_5.png,6.0,31,,,,,,,,,,,,,,,,,,0.0,33.0,33.0,33.0,1.0,,,,,,,,,,
1.0,1.0,1.274,,,,,,badge_03s.jpg,1.0,clock_7_6.png,6.0,31,,,,,,,,,,,,,,,,,,0.0,34.0,34.0,34.0,1.0,,,,,,,,,,
0.0,1.0,1.337,,,,,,tinsel_12s.jpg,0.0,clock_7_7.png,6.0,31,,,,,,,,,,,,,,,,,,0.0,35.0,35.0,35.0,1.0,,,,,,,,,,
,,,,,,,,,1.0,,,31,1.0,1.0,1.766,,,,,,lollipop_08s.jpg,leash_10s.jpg,,,,,,,,,,,,,0.0,0.0,0.0,0.0,1.0,,,,,
,,,,,,,,,1.0,,,31,1.0,1.0,1.42,,,,,,mixer_12s.jpg,syringe_02s.jpg,,,,,,,,,,,,,0.0,1.0,1.0,1.0,1.0,,,,,
,,,,,,,,,1.0,,,31,0.0,0.0,1.983,,,,,,tattoo_14s.jpg,fondue_07s.jpg,,,,,,,,,,,,,0.0,2.0,2.0,2.0,1.0,,,,,
,,,,,,,,,1.0,,,31,0.0,0.0,1.835,,,,,,golf_club_03s.jpg,fire_pit_10s.jpg,,,,,,,,,,,,,0.0,3.0,3.0,3.0,1.0,,,,,
,,,,,,,,,0.0,,,31,0.0,1.0,2.435,,,,,,kitten_07s.jpg,lion_18s.jpg,,,,,,,,,,,,,0.0,4.0,4.0,4.0,1.0,,,,,
,,,,,,,,,0.0,,,31,0.0,1.0,1.25,,,,,,potholder_02s.jpg,rocking_chair_05s.jpg,,,,,,,,,,,,,0.0,5.0,5.0,5.0,1.0,,,,,
,,,,,,,,,,,,31,,,,,,,,,,,,,,,,clock_present_4_13.xlsx,clock_compare_task_4_13.xlsx,,,,,,,,,,,0.0,3.0,3.0,3.0,1.0
0.0,1.0,0.566,,,,,,insole_11s.jpg,0.0,clock_7_1.png,1.0,31,,,,,,,,,,,,,,,,,,0.0,0.0,0.0,0.0,1.0,,,,,,,,,,
0.0,1.0,0.533,,,,,,aluminum_foil_08s.jpg,0.0,clock_7_2.png,1.0,31,,,,,,,,,,,,,,,,,,0.0,1.0,1.0,1.0,1.0,,,,,,,,,,
1.0,1.0,0.724,,,,,,aluminum_foil_08s.jpg,1.0,clock_7_3.png,1.0,31,,,,,,,,,,,,,,,,,,0.0,2.0,2.0,2.0,1.0,,,,,,,,,,
1.0,1.0,0.9,,,,,,insole_11s.jpg,1.0,clock_7_4.png,1.0,31,,,,,,,,,,,,,,,,,,0.0,3.0,3.0,3.0,1.0,,,,,,,,,,
0.0,1.0,0.603,,,,,,feather02.jpg,0.0,clock_7_5.png,1.0,31,,,,,,,,,,,,,,,,,,0.0,4.0,4.0,4.0,1.0,,,,,,,,,,
0.0,0.0,2.188,,,,,,aluminum_foil_08s.jpg,1.0,clock_7_6.png,1.0,31,,,,,,,,,,,,,,,,,,0.0,5.0,5.0,5.0,1.0,,,,,,,,,,
0.0,1.0,0.788,,,,,,panda_02s.jpg,0.0,clock_7_7.png,1.0,31,,,,,,,,,,,,,,,,,,0.0,6.0,6.0,6.0,1.0,,,,,,,,,,
0.0,1.0,1.084,,,,,,orange_12s.jpg,0.0,clock_7_1.png,2.0,31,,,,,,,,,,,,,,,,,,0.0,7.0,7.0,7.0,1.0,,,,,,,,,,
1.0,1.0,0.635,,,,,,orange_12s.jpg,1.0,clock_7_2.png,2.0,31,,,,,,,,,,,,,,,,,,0.0,8.0,8.0,8.0,1.0,,,,,,,,,,
0.0,1.0,0.618,,,,,,loom_05s.jpg,0.0,clock_7_3.png,2.0,31,,,,,,,,,,,,,,,,,,0.0,9.0,9.0,9.0,1.0,,,,,,,,,,
0.0,1.0,0.551,,,,,,knitting_needle_04s.jpg,0.0,clock_7_4.png,2.0,31,,,,,,,,,,,,,,,,,,0.0,10.0,10.0,10.0,1.0,,,,,,,,,,
1.0,1.0,0.773,,,,,,knitting_needle_04s.jpg,1.0,clock_7_5.png,2.0,31,,,,,,,,,,,,,,,,,,0.0,11.0,11.0,11.0,1.0,,,,,,,,,,
0.0,1.0,0.589,,,,,,fireworks_18s.jpg,0.0,clock_7_6.png,2.0,31,,,,,,,,,,,,,,,,,,0.0,12.0,12.0,12.0,1.0,,,,,,,,,,
0.0,1.0,2.035,,,,,,panda_02s.jpg,0.0,clock_7_7.png,2.0,31,,,,,,,,,,,,,,,,,,0.0,13.0,13.0,13.0,1.0,,,,,,,,,,
0.0,1.0,0.573,,,,,,bacon_05s.jpg,0.0,clock_5_1.png,3.0,31,,,,,,,,,,,,,,,,,,0.0,14.0,14.0,14.0,1.0,,,,,,,,,,
0.0,1.0,0.55,,,,,,margarita_03s.jpg,0.0,clock_5_2.png,3.0,31,,,,,,,,,,,,,,,,,,0.0,15.0,15.0,15.0,1.0,,,,,,,,,,
0.0,1.0,0.633,,,,,,tiger_06s.jpg,0.0,clock_5_3.png,3.0,31,,,,,,,,,,,,,,,,,,0.0,16.0,16.0,16.0,1.0,,,,,,,,,,
0.0,1.0,0.533,,,,,,outlet_10s.jpg,0.0,clock_5_4.png,3.0,31,,,,,,,,,,,,,,,,,,0.0,17.0,17.0,17.0,1.0,,,,,,,,,,
0.0,1.0,0.55,,,,,,saddle_06s.jpg,0.0,clock_5_5.png,3.0,31,,,,,,,,,,,,,,,,,,0.0,18.0,18.0,18.0,1.0,,,,,,,,,,
0.0,1.0,1.339,,,,,,moth_06n.jpg,0.0,clock_5_1.png,4.0,31,,,,,,,,,,,,,,,,,,0.0,19.0,19.0,19.0,1.0,,,,,,,,,,
1.0,1.0,1.701,,,,,,moth_06n.jpg,1.0,clock_5_2.png,4.0,31,,,,,,,,,,,,,,,,,,0.0,20.0,20.0,20.0,1.0,,,,,,,,,,
0.0,1.0,0.556,,,,,,cardinal_07s.jpg,0.0,clock_5_3.png,4.0,31,,,,,,,,,,,,,,,,,,0.0,21.0,21.0,21.0,1.0,,,,,,,,,,
0.0,1.0,1.854,,,,,,stapler_01b.jpg,0.0,clock_5_4.png,4.0,31,,,,,,,,,,,,,,,,,,0.0,22.0,22.0,22.0,1.0,,,,,,,,,,
,0.0,,,,,,,mitten_10s.jpg,0.0,clock_5_5.png,4.0,31,,,,,,,,,,,,,,,,,,0.0,23.0,23.0,23.0,1.0,,,,,,,,,,
0.0,1.0,0.617,,,,,,sundae_08s.jpg,0.0,clock_6_1.png,5.0,31,,,,,,,,,,,,,,,,,,0.0,24.0,24.0,24.0,1.0,,,,,,,,,,
0.0,1.0,1.205,,,,,,boomerang_06s.jpg,0.0,clock_6_2.png,5.0,31,,,,,,,,,,,,,,,,,,0.0,25.0,25.0,25.0,1.0,,,,,,,,,,
0.0,1.0,0.502,,,,,,toaster_03s.jpg,0.0,clock_6_3.png,5.0,31,,,,,,,,,,,,,,,,,,0.0,26.0,26.0,26.0,1.0,,,,,,,,,,
0.0,1.0,0.567,,,,,,quesadilla_07s.jpg,0.0,clock_6_4.png,5.0,31,,,,,,,,,,,,,,,,,,0.0,27.0,27.0,27.0,1.0,,,,,,,,,,
0.0,0.0,0.526,,,,,,toaster_03s.jpg,1.0,clock_6_5.png,5.0,31,,,,,,,,,,,,,,,,,,0.0,28.0,28.0,28.0,1.0,,,,,,,,,,
0.0,1.0,0.541,,,,,,punch1_10s.jpg,0.0,clock_6_6.png,5.0,31,,,,,,,,,,,,,,,,,,0.0,29.0,29.0,29.0,1.0,,,,,,,,,,
0.0,1.0,0.518,,,,,,tuxedo_01b.jpg,0.0,clock_6_1.png,6.0,31,,,,,,,,,,,,,,,,,,0.0,30.0,30.0,30.0,1.0,,,,,,,,,,
0.0,1.0,0.683,,,,,,kimono_13s.jpg,0.0,clock_6_2.png,6.0,31,,,,,,,,,,,,,,,,,,0.0,31.0,31.0,31.0,1.0,,,,,,,,,,
0.0,1.0,0.536,,,,,,power_line_08s.jpg,0.0,clock_6_3.png,6.0,31,,,,,,,,,,,,,,,,,,0.0,32.0,32.0,32.0,1.0,,,,,,,,,,
0.0,1.0,0.478,,,,,,coral_08s.jpg,0.0,clock_6_4.png,6.0,31,,,,,,,,,,,,,,,,,,0.0,33.0,33.0,33.0,1.0,,,,,,,,,,
0.0,1.0,0.95,,,,,,undershirt_02s.jpg,0.0,clock_6_5.png,6.0,31,,,,,,,,,,,,,,,,,,0.0,34.0,34.0,34.0,1.0,,,,,,,,,,
0.0,1.0,1.433,,,,,,ruby_15s.jpg,0.0,clock_6_6.png,6.0,31,,,,,,,,,,,,,,,,,,0.0,35.0,35.0,35.0,1.0,,,,,,,,,,
,,,,,,,,,0.0,,,31,1.0,0.0,1.714,,,,,,boomerang_06s.jpg,stapler_01b.jpg,,,,,,,,,,,,,0.0,0.0,0.0,0.0,1.0,,,,,
,,,,,,,,,0.0,,,31,0.0,1.0,3.417,,,,,,cardinal_07s.jpg,saddle_06s.jpg,,,,,,,,,,,,,0.0,1.0,1.0,1.0,1.0,,,,,
,,,,,,,,,0.0,,,31,1.0,0.0,1.633,,,,,,power_line_08s.jpg,punch1_10s.jpg,,,,,,,,,,,,,0.0,2.0,2.0,2.0,1.0,,,,,
,,,,,,,,,1.0,,,31,0.0,0.0,1.218,,,,,,bacon_05s.jpg,outlet_10s.jpg,,,,,,,,,,,,,0.0,3.0,3.0,3.0,1.0,,,,,
,,,,,,,,,0.0,,,31,1.0,0.0,1.14,,,,,,undershirt_02s.jpg,kimono_13s.jpg,,,,,,,,,,,,,0.0,4.0,4.0,4.0,1.0,,,,,
,,,,,,,,,0.0,,,31,0.0,1.0,1.539,,,,,,fireworks_18s.jpg,loom_05s.jpg,,,,,,,,,,,,,0.0,5.0,5.0,5.0,1.0,,,,,
,,,,,,,,,,,,31,,,,,,,,,,,,,,,,clock_present_5_13.xlsx,clock_compare_task_5_13.xlsx,,,,,,,,,,,0.0,4.0,4.0,4.0,1.0
0.0,1.0,1.246,,,,,,boar_10s.jpg,0.0,clock_5_1.png,1.0,31,,,,,,,,,,,,,,,,,,0.0,0.0,0.0,0.0,1.0,,,,,,,,,,
0.0,1.0,0.569,,,,,,rocking_horse_03s.jpg,0.0,clock_5_2.png,1.0,31,,,,,,,,,,,,,,,,,,0.0,1.0,1.0,1.0,1.0,,,,,,,,,,
0.0,1.0,0.533,,,,,,playpen_11s.jpg,0.0,clock_5_3.png,1.0,31,,,,,,,,,,,,,,,,,,0.0,2.0,2.0,2.0,1.0,,,,,,,,,,
0.0,1.0,0.934,,,,,,ivy_12s.jpg,0.0,clock_5_4.png,1.0,31,,,,,,,,,,,,,,,,,,0.0,3.0,3.0,3.0,1.0,,,,,,,,,,
0.0,1.0,0.856,,,,,,punch2_09s.jpg,0.0,clock_5_5.png,1.0,31,,,,,,,,,,,,,,,,,,0.0,4.0,4.0,4.0,1.0,,,,,,,,,,
0.0,1.0,1.237,,,,,,pencil_sharpener_09n.jpg,0.0,clock_7_1.png,2.0,31,,,,,,,,,,,,,,,,,,0.0,5.0,5.0,5.0,1.0,,,,,,,,,,
0.0,1.0,0.602,,,,,,prism_10s.jpg,0.0,clock_7_2.png,2.0,31,,,,,,,,,,,,,,,,,,0.0,6.0,6.0,6.0,1.0,,,,,,,,,,
0.0,1.0,1.134,,,,,,bathtub_23s.jpg,0.0,clock_7_3.png,2.0,31,,,,,,,,,,,,,,,,,,0.0,7.0,7.0,7.0,1.0,,,,,,,,,,
0.0,1.0,0.569,,,,,,potpourri_03s.jpg,0.0,clock_7_4.png,2.0,31,,,,,,,,,,,,,,,,,,0.0,8.0,8.0,8.0,1.0,,,,,,,,,,
0.0,1.0,0.717,,,,,,rug_09s.jpg,0.0,clock_7_5.png,2.0,31,,,,,,,,,,,,,,,,,,0.0,9.0,9.0,9.0,1.0,,,,,,,,,,
1.0,1.0,0.856,,,,,,rug_09s.jpg,1.0,clock_7_6.png,2.0,31,,,,,,,,,,,,,,,,,,0.0,10.0,10.0,10.0,1.0,,,,,,,,,,
0.0,1.0,0.8,,,,,,leotard_08s.jpg,0.0,clock_7_7.png,2.0,31,,,,,,,,,,,,,,,,,,0.0,11.0,11.0,11.0,1.0,,,,,,,,,,
0.0,1.0,0.833,,,,,,orangutan_03s.jpg,0.0,clock_7_1.png,3.0,31,,,,,,,,,,,,,,,,,,0.0,12.0,12.0,12.0,1.0,,,,,,,,,,
0.0,1.0,1.783,,,,,,pencil_sharpener_09n.jpg,0.0,clock_7_2.png,3.0,31,,,,,,,,,,,,,,,,,,0.0,13.0,13.0,13.0,1.0,,,,,,,,,,
0.0,1.0,0.6,,,,,,limousine_12s.jpg,0.0,clock_7_3.png,3.0,31,,,,,,,,,,,,,,,,,,0.0,14.0,14.0,14.0,1.0,,,,,,,,,,
0.0,1.0,1.169,,,,,,mirror_12s.jpg,0.0,clock_7_4.png,3.0,31,,,,,,,,,,,,,,,,,,0.0,15.0,15.0,15.0,1.0,,,,,,,,,,
0.0,0.0,0.722,,,,,,orangutan_03s.jpg,1.0,clock_7_5.png,3.0,31,,,,,,,,,,,,,,,,,,0.0,16.0,16.0,16.0,1.0,,,,,,,,,,
0.0,1.0,0.568,,,,,,thumbtack_14s.jpg,0.0,clock_7_6.png,3.0,31,,,,,,,,,,,,,,,,,,0.0,17.0,17.0,17.0,1.0,,,,,,,,,,
0.0,1.0,1.585,,,,,,potpourri_03s.jpg,0.0,clock_7_7.png,3.0,31,,,,,,,,,,,,,,,,,,0.0,18.0,18.0,18.0,1.0,,,,,,,,,,
0.0,1.0,0.705,,,,,,crossbow_10s.jpg,0.0,clock_6_1.png,4.0,31,,,,,,,,,,,,,,,,,,0.0,19.0,19.0,19.0,1.0,,,,,,,,,,
0.0,1.0,0.466,,,,,,mannequin_05s.jpg,0.0,clock_6_2.png,4.0,31,,,,,,,,,,,,,,,,,,0.0,20.0,20.0,20.0,1.0,,,,,,,,,,
0.0,1.0,0.939,,,,,,sparkler_02s.jpg,0.0,clock_6_3.png,4.0,31,,,,,,,,,,,,,,,,,,0.0,21.0,21.0,21.0,1.0,,,,,,,,,,
0.0,1.0,1.154,,,,,,soda_fountain_03s.jpg,0.0,clock_6_4.png,4.0,31,,,,,,,,,,,,,,,,,,0.0,22.0,22.0,22.0,1.0,,,,,,,,,,
0.0,1.0,0.738,,,,,,spider_web_03s.jpg,0.0,clock_6_5.png,4.0,31,,,,,,,,,,,,,,,,,,0.0,23.0,23.0,23.0,1.0,,,,,,,,,,
0.0,1.0,0.706,,,,,,printer_09s.jpg,0.0,clock_6_6.png,4.0,31,,,,,,,,,,,,,,,,,,0.0,24.0,24.0,24.0,1.0,,,,,,,,,,
0.0,1.0,0.954,,,,,,hyena_16s.jpg,0.0,clock_5_1.png,5.0,31,,,,,,,,,,,,,,,,,,0.0,25.0,25.0,25.0,1.0,,,,,,,,,,
0.0,1.0,0.433,,,,,,mirror_12s.jpg,0.0,clock_5_2.png,5.0,31,,,,,,,,,,,,,,,,,,0.0,26.0,26.0,26.0,1.0,,,,,,,,,,
0.0,1.0,0.571,,,,,,cap_05s.jpg,0.0,clock_5_3.png,5.0,31,,,,,,,,,,,,,,,,,,0.0,27.0,27.0,27.0,1.0,,,,,,,,,,
0.0,1.0,0.923,,,,,,briefcase_03s.jpg,0.0,clock_5_4.png,5.0,31,,,,,,,,,,,,,,,,,,0.0,28.0,28.0,28.0,1.0,,,,,,,,,,
1.0,1.0,1.554,,,,,,briefcase_03s.jpg,1.0,clock_5_5.png,5.0,31,,,,,,,,,,,,,,,,,,0.0,29.0,29.0,29.0,1.0,,,,,,,,,,
0.0,1.0,0.567,,,,,,solar_panel_02s.jpg,0.0,clock_6_1.png,6.0,31,,,,,,,,,,,,,,,,,,0.0,30.0,30.0,30.0,1.0,,,,,,,,,,
0.0,1.0,0.682,,,,,,turtleneck_11s.jpg,0.0,clock_6_2.png,6.0,31,,,,,,,,,,,,,,,,,,0.0,31.0,31.0,31.0,1.0,,,,,,,,,,
0.0,1.0,0.499,,,,,,cushion_08s.jpg,0.0,clock_6_3.png,6.0,31,,,,,,,,,,,,,,,,,,0.0,32.0,32.0,32.0,1.0,,,,,,,,,,
0.0,1.0,1.637,,,,,,stethoscope_01b.jpg,0.0,clock_6_4.png,6.0,31,,,,,,,,,,,,,,,,,,0.0,33.0,33.0,33.0,1.0,,,,,,,,,,
1.0,1.0,0.851,,,,,,turtleneck_11s.jpg,1.0,clock_6_5.png,6.0,31,,,,,,,,,,,,,,,,,,0.0,34.0,34.0,34.0,1.0,,,,,,,,,,
0.0,1.0,1.306,,,,,,gear_07s.jpg,0.0,clock_6_6.png,6.0,31,,,,,,,,,,,,,,,,,,0.0,35.0,35.0,35.0,1.0,,,,,,,,,,
,,,,,,,,,1.0,,,31,0.0,0.0,1.999,,,,,,ivy_12s.jpg,prism_10s.jpg,,,,,,,,,,,,,0.0,0.0,0.0,0.0,1.0,,,,,
,,,,,,,,,0.0,,,31,0.0,1.0,1.517,,,,,,bathtub_23s.jpg,punch2_09s.jpg,,,,,,,,,,,,,0.0,1.0,1.0,1.0,1.0,,,,,
,,,,,,,,,1.0,,,31,1.0,1.0,1.468,,,,,,leotard_08s.jpg,limousine_12s.jpg,,,,,,,,,,,,,0.0,2.0,2.0,2.0,1.0,,,,,
,,,,,,,,,0.0,,,31,0.0,1.0,1.42,,,,,,gear_07s.jpg,cushion_08s.jpg,,,,,,,,,,,,,0.0,3.0,3.0,3.0,1.0,,,,,
,,,,,,,,,1.0,,,31,0.0,0.0,1.406,,,,,,crossbow_10s.jpg,soda_fountain_03s.jpg,,,,,,,,,,,,,0.0,4.0,4.0,4.0,1.0,,,,,
,,,,,,,,,1.0,,,31,1.0,1.0,1.251,,,,,,mannequin_05s.jpg,spider_web_03s.jpg,,,,,,,,,,,,,0.0,5.0,5.0,5.0,1.0,,,,,
