key_resp.keys,key_resp.corr,noclock_loop.thisRepN,noclock_loop.thisTrialN,noclock_loop.thisN,noclock_loop.thisIndex,noclock_loop.ran,pictures,answer,clock,segment,participant,key_resp.rt,key_resp_2.keys,key_resp_2.corr,key_resp_2.rt,noclock_loop2.thisRepN,noclock_loop2.thisTrialN,noclock_loop2.thisN,noclock_loop2.thisIndex,noclock_loop2.ran,item_a,item_b,noclock_condition.thisRepN,noclock_condition.thisTrialN,noclock_condition.thisN,noclock_condition.thisIndex,noclock_condition.ran,present,compare,present_segment.thisRepN,present_segment.thisTrialN,present_segment.thisN,present_segment.thisIndex,present_segment.ran,compare_segment.thisRepN,compare_segment.thisTrialN,compare_segment.thisN,compare_segment.thisIndex,compare_segment.ran,clock_conditions.thisRepN,clock_conditions.thisTrialN,clock_conditions.thisN,clock_conditions.thisIndex,clock_conditions.ran
,0.0,0.0,0.0,0.0,0.0,1.0,exhaust_pipe_10s.jpg,0.0,clockno_up.jpg,1.0,68,,,,,,,,,,,,,,,,,,,,,,,,,,,,,,,,,
0.0,1.0,0.0,1.0,1.0,1.0,1.0,breadstick_08s.jpg,0.0,clockno_default.jpg,1.0,68,1.0976,,,,,,,,,,,,,,,,,,,,,,,,,,,,,,,,
0.0,1.0,0.0,2.0,2.0,2.0,1.0,reindeer_08s.jpg,0.0,clockno_default.jpg,1.0,68,0.8293,,,,,,,,,,,,,,,,,,,,,,,,,,,,,,,,
1.0,0.0,0.0,3.0,3.0,3.0,1.0,megaphone_03s.jpg,0.0,clockno_default.jpg,1.0,68,1.935,,,,,,,,,,,,,,,,,,,,,,,,,,,,,,,,
0.0,1.0,0.0,4.0,4.0,4.0,1.0,lasagna_06s.jpg,0.0,clockno_default.jpg,1.0,68,0.6789,,,,,,,,,,,,,,,,,,,,,,,,,,,,,,,,
0.0,1.0,0.0,5.0,5.0,5.0,1.0,kilt_18s.jpg,0.0,clockno_default.jpg,1.0,68,1.4292,,,,,,,,,,,,,,,,,,,,,,,,,,,,,,,,
0.0,1.0,0.0,6.0,6.0,6.0,1.0,touchpad_11s.jpg,0.0,clockno_up.jpg,2.0,68,1.1795,,,,,,,,,,,,,,,,,,,,,,,,,,,,,,,,
0.0,1.0,0.0,7.0,7.0,7.0,1.0,mango_09s.jpg,0.0,clockno_default.jpg,2.0,68,0.9636,,,,,,,,,,,,,,,,,,,,,,,,,,,,,,,,
0.0,1.0,0.0,8.0,8.0,8.0,1.0,sushi_08s.jpg,0.0,clockno_default.jpg,2.0,68,0.7742,,,,,,,,,,,,,,,,,,,,,,,,,,,,,,,,
0.0,1.0,0.0,9.0,9.0,9.0,1.0,pencil02a.jpg,0.0,clockno_default.jpg,2.0,68,0.6729,,,,,,,,,,,,,,,,,,,,,,,,,,,,,,,,
0.0,1.0,0.0,10.0,10.0,10.0,1.0,lavender_10s.jpg,0.0,clockno_default.jpg,2.0,68,1.298,,,,,,,,,,,,,,,,,,,,,,,,,,,,,,,,
0.0,1.0,0.0,11.0,11.0,11.0,1.0,oil_02s.jpg,0.0,clockno_up.jpg,3.0,68,0.8521,,,,,,,,,,,,,,,,,,,,,,,,,,,,,,,,
0.0,1.0,0.0,12.0,12.0,12.0,1.0,pan_02s.jpg,0.0,clockno_default.jpg,3.0,68,0.8412,,,,,,,,,,,,,,,,,,,,,,,,,,,,,,,,
0.0,1.0,0.0,13.0,13.0,13.0,1.0,power_line_08s.jpg,0.0,clockno_default.jpg,3.0,68,1.4799,,,,,,,,,,,,,,,,,,,,,,,,,,,,,,,,
1.0,1.0,0.0,14.0,14.0,14.0,1.0,pan_02s.jpg,1.0,clockno_default.jpg,3.0,68,0.7061,,,,,,,,,,,,,,,,,,,,,,,,,,,,,,,,
1.0,1.0,0.0,15.0,15.0,15.0,1.0,pan_02s.jpg,1.0,clockno_default.jpg,3.0,68,0.8325,,,,,,,,,,,,,,,,,,,,,,,,,,,,,,,,
0.0,1.0,0.0,16.0,16.0,16.0,1.0,tambourine_06s.jpg,0.0,clockno_up.jpg,4.0,68,0.8838,,,,,,,,,,,,,,,,,,,,,,,,,,,,,,,,
0.0,1.0,0.0,17.0,17.0,17.0,1.0,fireworks_18s.jpg,0.0,clockno_default.jpg,4.0,68,0.8332,,,,,,,,,,,,,,,,,,,,,,,,,,,,,,,,
0.0,1.0,0.0,18.0,18.0,18.0,1.0,bacon_05s.jpg,0.0,clockno_default.jpg,4.0,68,0.8976,,,,,,,,,,,,,,,,,,,,,,,,,,,,,,,,
0.0,1.0,0.0,19.0,19.0,19.0,1.0,kangaroo_02s.jpg,0.0,clockno_default.jpg,4.0,68,0.7301,,,,,,,,,,,,,,,,,,,,,,,,,,,,,,,,
1.0,1.0,0.0,20.0,20.0,20.0,1.0,bacon_05s.jpg,1.0,clockno_default.jpg,4.0,68,0.714,,,,,,,,,,,,,,,,,,,,,,,,,,,,,,,,
0.0,1.0,0.0,21.0,21.0,21.0,1.0,foam_03s.jpg,0.0,clockno_default.jpg,4.0,68,0.7236,,,,,,,,,,,,,,,,,,,,,,,,,,,,,,,,
0.0,1.0,0.0,22.0,22.0,22.0,1.0,jigsaw_puzzle_11s.jpg,0.0,clockno_default.jpg,4.0,68,1.0345,,,,,,,,,,,,,,,,,,,,,,,,,,,,,,,,
0.0,1.0,0.0,23.0,23.0,23.0,1.0,letter_opener_03s.jpg,0.0,clockno_up.jpg,5.0,68,1.5541,,,,,,,,,,,,,,,,,,,,,,,,,,,,,,,,
1.0,0.0,0.0,24.0,24.0,24.0,1.0,pencil02a.jpg,0.0,clockno_default.jpg,5.0,68,0.7157,,,,,,,,,,,,,,,,,,,,,,,,,,,,,,,,
0.0,1.0,0.0,25.0,25.0,25.0,1.0,boomerang_06s.jpg,0.0,clockno_default.jpg,5.0,68,1.3447,,,,,,,,,,,,,,,,,,,,,,,,,,,,,,,,
1.0,1.0,0.0,26.0,26.0,26.0,1.0,letter_opener_03s.jpg,1.0,clockno_default.jpg,5.0,68,1.3651,,,,,,,,,,,,,,,,,,,,,,,,,,,,,,,,
0.0,1.0,0.0,27.0,27.0,27.0,1.0,polaroid_05s.jpg,0.0,clockno_default.jpg,5.0,68,0.8399,,,,,,,,,,,,,,,,,,,,,,,,,,,,,,,,
1.0,0.0,0.0,28.0,28.0,28.0,1.0,tambourine_06s.jpg,0.0,clockno_default.jpg,5.0,68,1.2639,,,,,,,,,,,,,,,,,,,,,,,,,,,,,,,,
0.0,1.0,0.0,29.0,29.0,29.0,1.0,possum_09s.jpg,0.0,clockno_up.jpg,6.0,68,1.6489,,,,,,,,,,,,,,,,,,,,,,,,,,,,,,,,
0.0,1.0,0.0,30.0,30.0,30.0,1.0,gong_02s.jpg,0.0,clockno_default.jpg,6.0,68,1.1053,,,,,,,,,,,,,,,,,,,,,,,,,,,,,,,,
0.0,1.0,0.0,31.0,31.0,31.0,1.0,sea_urchin_09s.jpg,0.0,clockno_default.jpg,6.0,68,1.1635,,,,,,,,,,,,,,,,,,,,,,,,,,,,,,,,
0.0,1.0,0.0,32.0,32.0,32.0,1.0,keyboard_05s.jpg,0.0,clockno_default.jpg,6.0,68,0.916,,,,,,,,,,,,,,,,,,,,,,,,,,,,,,,,
0.0,1.0,0.0,33.0,33.0,33.0,1.0,lamp_08s.jpg,0.0,clockno_default.jpg,6.0,68,1.0678,,,,,,,,,,,,,,,,,,,,,,,,,,,,,,,,
0.0,1.0,0.0,34.0,34.0,34.0,1.0,roulette_wheel_04s.jpg,0.0,clockno_default.jpg,6.0,68,1.0054,,,,,,,,,,,,,,,,,,,,,,,,,,,,,,,,
0.0,1.0,0.0,35.0,35.0,35.0,1.0,scooter.jpg,0.0,clockno_default.jpg,6.0,68,0.9695,,,,,,,,,,,,,,,,,,,,,,,,,,,,,,,,
,,,,,,,,1.0,,,68,,1.0,1.0,2.1071,0.0,0.0,0.0,0.0,1.0,sushi_08s.jpg,oil_02s.jpg,,,,,,,,,,,,,,,,,,,,,,
,,,,,,,,1.0,,,68,,0.0,0.0,1.7102,0.0,1.0,1.0,1.0,1.0,megaphone_03s.jpg,touchpad_11s.jpg,,,,,,,,,,,,,,,,,,,,,,
,,,,,,,,1.0,,,68,,1.0,1.0,1.5269,0.0,2.0,2.0,2.0,1.0,lavender_10s.jpg,power_line_08s.jpg,,,,,,,,,,,,,,,,,,,,,,
,,,,,,,,1.0,,,68,,1.0,1.0,1.6293,0.0,3.0,3.0,3.0,1.0,possum_09s.jpg,keyboard_05s.jpg,,,,,,,,,,,,,,,,,,,,,,
,,,,,,,,1.0,,,68,,1.0,1.0,1.7028,0.0,4.0,4.0,4.0,1.0,sea_urchin_09s.jpg,roulette_wheel_04s.jpg,,,,,,,,,,,,,,,,,,,,,,
,,,,,,,,1.0,,,68,,0.0,0.0,1.3486,0.0,5.0,5.0,5.0,1.0,breadstick_08s.jpg,lasagna_06s.jpg,,,,,,,,,,,,,,,,,,,,,,
,,,,,,,,,,,68,,,,,,,,,,,,0.0,0.0,0.0,0.0,1.0,clockno_present_1_19.xlsx,clockno_compare_task_1_19.xlsx,,,,,,,,,,,,,,,
0.0,1.0,0.0,0.0,0.0,0.0,1.0,pacifier_09s.jpg,0.0,clockno_up.jpg,1.0,68,1.3963,,,,,,,,,,,,,,,,,,,,,,,,,,,,,,,,
0.0,1.0,0.0,1.0,1.0,1.0,1.0,mud_13s.jpg,0.0,clockno_default.jpg,1.0,68,0.8653,,,,,,,,,,,,,,,,,,,,,,,,,,,,,,,,
0.0,1.0,0.0,2.0,2.0,2.0,1.0,fork_04s.jpg,0.0,clockno_default.jpg,1.0,68,0.8305,,,,,,,,,,,,,,,,,,,,,,,,,,,,,,,,
0.0,1.0,0.0,3.0,3.0,3.0,1.0,tiara_05s.jpg,0.0,clockno_default.jpg,1.0,68,0.7052,,,,,,,,,,,,,,,,,,,,,,,,,,,,,,,,
0.0,1.0,0.0,4.0,4.0,4.0,1.0,checkbook_11s.jpg,0.0,clockno_default.jpg,1.0,68,0.8301,,,,,,,,,,,,,,,,,,,,,,,,,,,,,,,,
0.0,1.0,0.0,5.0,5.0,5.0,1.0,jukebox_03n.jpg,0.0,clockno_default.jpg,1.0,68,0.8855,,,,,,,,,,,,,,,,,,,,,,,,,,,,,,,,
0.0,1.0,0.0,6.0,6.0,6.0,1.0,giraffe_11s.jpg,0.0,clockno_up.jpg,2.0,68,1.0832,,,,,,,,,,,,,,,,,,,,,,,,,,,,,,,,
0.0,1.0,0.0,7.0,7.0,7.0,1.0,jukebox_03n.jpg,0.0,clockno_default.jpg,2.0,68,1.0161,,,,,,,,,,,,,,,,,,,,,,,,,,,,,,,,
0.0,1.0,0.0,8.0,8.0,8.0,1.0,lantern_04s.jpg,0.0,clockno_default.jpg,2.0,68,1.1979,,,,,,,,,,,,,,,,,,,,,,,,,,,,,,,,
0.0,1.0,0.0,9.0,9.0,9.0,1.0,owl_15s.jpg,0.0,clockno_default.jpg,2.0,68,0.7688,,,,,,,,,,,,,,,,,,,,,,,,,,,,,,,,
0.0,1.0,0.0,10.0,10.0,10.0,1.0,mold2_04s.jpg,0.0,clockno_default.jpg,2.0,68,1.0262,,,,,,,,,,,,,,,,,,,,,,,,,,,,,,,,
0.0,1.0,0.0,11.0,11.0,11.0,1.0,joystick_01b.jpg,0.0,clockno_up.jpg,3.0,68,0.926,,,,,,,,,,,,,,,,,,,,,,,,,,,,,,,,
0.0,1.0,0.0,12.0,12.0,12.0,1.0,throne_11s.jpg,0.0,clockno_default.jpg,3.0,68,0.8336,,,,,,,,,,,,,,,,,,,,,,,,,,,,,,,,
0.0,1.0,0.0,13.0,13.0,13.0,1.0,binder_21s.jpg,0.0,clockno_default.jpg,3.0,68,0.952,,,,,,,,,,,,,,,,,,,,,,,,,,,,,,,,
0.0,1.0,0.0,14.0,14.0,14.0,1.0,golf_club_03s.jpg,0.0,clockno_default.jpg,3.0,68,0.7673,,,,,,,,,,,,,,,,,,,,,,,,,,,,,,,,
1.0,1.0,0.0,15.0,15.0,15.0,1.0,golf_club_03s.jpg,1.0,clockno_default.jpg,3.0,68,0.7612,,,,,,,,,,,,,,,,,,,,,,,,,,,,,,,,
1.0,1.0,0.0,16.0,16.0,16.0,1.0,throne_11s.jpg,1.0,clockno_default.jpg,3.0,68,0.9165,,,,,,,,,,,,,,,,,,,,,,,,,,,,,,,,
1.0,1.0,0.0,17.0,17.0,17.0,1.0,binder_21s.jpg,1.0,clockno_default.jpg,3.0,68,0.8619,,,,,,,,,,,,,,,,,,,,,,,,,,,,,,,,
0.0,1.0,0.0,18.0,18.0,18.0,1.0,birdcage_08s.jpg,0.0,clockno_up.jpg,4.0,68,0.7037,,,,,,,,,,,,,,,,,,,,,,,,,,,,,,,,
1.0,1.0,0.0,19.0,19.0,19.0,1.0,birdcage_08s.jpg,1.0,clockno_default.jpg,4.0,68,0.9331,,,,,,,,,,,,,,,,,,,,,,,,,,,,,,,,
0.0,1.0,0.0,20.0,20.0,20.0,1.0,ukulele_02s.jpg,0.0,clockno_default.jpg,4.0,68,0.6498,,,,,,,,,,,,,,,,,,,,,,,,,,,,,,,,
0.0,1.0,0.0,21.0,21.0,21.0,1.0,air_pump_05s.jpg,0.0,clockno_default.jpg,4.0,68,1.495,,,,,,,,,,,,,,,,,,,,,,,,,,,,,,,,
0.0,1.0,0.0,22.0,22.0,22.0,1.0,rocket_02s.jpg,0.0,clockno_default.jpg,4.0,68,1.0937,,,,,,,,,,,,,,,,,,,,,,,,,,,,,,,,
0.0,1.0,0.0,23.0,23.0,23.0,1.0,paper_towel_03s.jpg,0.0,clockno_up.jpg,5.0,68,0.6654,,,,,,,,,,,,,,,,,,,,,,,,,,,,,,,,
1.0,1.0,0.0,24.0,24.0,24.0,1.0,paper_towel_03s.jpg,1.0,clockno_default.jpg,5.0,68,2.1824,,,,,,,,,,,,,,,,,,,,,,,,,,,,,,,,
0.0,1.0,0.0,25.0,25.0,25.0,1.0,machine_gun_09s.jpg,0.0,clockno_default.jpg,5.0,68,1.179,,,,,,,,,,,,,,,,,,,,,,,,,,,,,,,,
0.0,1.0,0.0,26.0,26.0,26.0,1.0,ladle_04s.jpg,0.0,clockno_default.jpg,5.0,68,1.049,,,,,,,,,,,,,,,,,,,,,,,,,,,,,,,,
0.0,1.0,0.0,27.0,27.0,27.0,1.0,bee_20s.jpg,0.0,clockno_default.jpg,5.0,68,0.9819,,,,,,,,,,,,,,,,,,,,,,,,,,,,,,,,
0.0,1.0,0.0,28.0,28.0,28.0,1.0,playpen_11s.jpg,0.0,clockno_default.jpg,5.0,68,1.1203,,,,,,,,,,,,,,,,,,,,,,,,,,,,,,,,
0.0,1.0,0.0,29.0,29.0,29.0,1.0,mussel_11s.jpg,0.0,clockno_default.jpg,5.0,68,1.2831,,,,,,,,,,,,,,,,,,,,,,,,,,,,,,,,
0.0,1.0,0.0,30.0,30.0,30.0,1.0,polar_bear_02s.jpg,0.0,clockno_up.jpg,6.0,68,1.1646,,,,,,,,,,,,,,,,,,,,,,,,,,,,,,,,
0.0,1.0,0.0,31.0,31.0,31.0,1.0,plug_08s.jpg,0.0,clockno_default.jpg,6.0,68,0.8156,,,,,,,,,,,,,,,,,,,,,,,,,,,,,,,,
0.0,1.0,0.0,32.0,32.0,32.0,1.0,mug_06s.jpg,0.0,clockno_default.jpg,6.0,68,0.7975,,,,,,,,,,,,,,,,,,,,,,,,,,,,,,,,
0.0,1.0,0.0,33.0,33.0,33.0,1.0,crossbow_10s.jpg,0.0,clockno_default.jpg,6.0,68,0.9968,,,,,,,,,,,,,,,,,,,,,,,,,,,,,,,,
1.0,1.0,0.0,34.0,34.0,34.0,1.0,polar_bear_02s.jpg,1.0,clockno_default.jpg,6.0,68,1.5972,,,,,,,,,,,,,,,,,,,,,,,,,,,,,,,,
0.0,1.0,0.0,35.0,35.0,35.0,1.0,raft_09s.jpg,0.0,clockno_default.jpg,6.0,68,0.933,,,,,,,,,,,,,,,,,,,,,,,,,,,,,,,,
,,,,,,,,0.0,,,68,,0.0,1.0,1.3571,0.0,0.0,0.0,0.0,1.0,joystick_01b.jpg,lantern_04s.jpg,,,,,,,,,,,,,,,,,,,,,,
,,,,,,,,0.0,,,68,,1.0,0.0,1.4215,0.0,1.0,1.0,1.0,1.0,machine_gun_09s.jpg,rocket_02s.jpg,,,,,,,,,,,,,,,,,,,,,,
,,,,,,,,0.0,,,68,,1.0,0.0,1.7608,0.0,2.0,2.0,2.0,1.0,plug_08s.jpg,playpen_11s.jpg,,,,,,,,,,,,,,,,,,,,,,
,,,,,,,,0.0,,,68,,0.0,1.0,1.4806,0.0,3.0,3.0,3.0,1.0,checkbook_11s.jpg,mud_13s.jpg,,,,,,,,,,,,,,,,,,,,,,
,,,,,,,,0.0,,,68,,0.0,1.0,1.7527,0.0,4.0,4.0,4.0,1.0,tiara_05s.jpg,pacifier_09s.jpg,,,,,,,,,,,,,,,,,,,,,,
,,,,,,,,0.0,,,68,,1.0,0.0,1.5996,0.0,5.0,5.0,5.0,1.0,owl_15s.jpg,giraffe_11s.jpg,,,,,,,,,,,,,,,,,,,,,,
,,,,,,,,,,,68,,,,,,,,,,,,0.0,1.0,1.0,1.0,1.0,clockno_present_2_19.xlsx,clockno_compare_task_2_19.xlsx,,,,,,,,,,,,,,,
0.0,1.0,0.0,0.0,0.0,0.0,1.0,toilet_paper_12s.jpg,0.0,clockno_up.jpg,1.0,68,0.8756,,,,,,,,,,,,,,,,,,,,,,,,,,,,,,,,
0.0,1.0,0.0,1.0,1.0,1.0,1.0,towel_rack_04s.jpg,0.0,clockno_default.jpg,1.0,68,0.7929,,,,,,,,,,,,,,,,,,,,,,,,,,,,,,,,
0.0,1.0,0.0,2.0,2.0,2.0,1.0,fountain_pen_06s.jpg,0.0,clockno_default.jpg,1.0,68,0.9275,,,,,,,,,,,,,,,,,,,,,,,,,,,,,,,,
1.0,1.0,0.0,3.0,3.0,3.0,1.0,towel_rack_04s.jpg,1.0,clockno_default.jpg,1.0,68,0.8915,,,,,,,,,,,,,,,,,,,,,,,,,,,,,,,,
0.0,1.0,0.0,4.0,4.0,4.0,1.0,measuring_cup_02s.jpg,0.0,clockno_default.jpg,1.0,68,0.8151,,,,,,,,,,,,,,,,,,,,,,,,,,,,,,,,
0.0,1.0,0.0,5.0,5.0,5.0,1.0,denture_03s.jpg,0.0,clockno_default.jpg,1.0,68,1.7288,,,,,,,,,,,,,,,,,,,,,,,,,,,,,,,,
0.0,1.0,0.0,6.0,6.0,6.0,1.0,tongs_08s.jpg,0.0,clockno_up.jpg,2.0,68,0.8521,,,,,,,,,,,,,,,,,,,,,,,,,,,,,,,,
0.0,1.0,0.0,7.0,7.0,7.0,1.0,thermostat_02s.jpg,0.0,clockno_default.jpg,2.0,68,0.9279,,,,,,,,,,,,,,,,,,,,,,,,,,,,,,,,
0.0,1.0,0.0,8.0,8.0,8.0,1.0,coral_08s.jpg,0.0,clockno_default.jpg,2.0,68,0.784,,,,,,,,,,,,,,,,,,,,,,,,,,,,,,,,
0.0,1.0,0.0,9.0,9.0,9.0,1.0,spatula04.jpg,0.0,clockno_default.jpg,2.0,68,0.6997,,,,,,,,,,,,,,,,,,,,,,,,,,,,,,,,
1.0,1.0,0.0,10.0,10.0,10.0,1.0,spatula04.jpg,1.0,clockno_default.jpg,2.0,68,0.7837,,,,,,,,,,,,,,,,,,,,,,,,,,,,,,,,
0.0,1.0,0.0,11.0,11.0,11.0,1.0,phone_01b.jpg,0.0,clockno_up.jpg,3.0,68,1.1635,,,,,,,,,,,,,,,,,,,,,,,,,,,,,,,,
1.0,1.0,0.0,12.0,12.0,12.0,1.0,phone_01b.jpg,1.0,clockno_default.jpg,3.0,68,0.8848,,,,,,,,,,,,,,,,,,,,,,,,,,,,,,,,
0.0,1.0,0.0,13.0,13.0,13.0,1.0,quesadilla_07s.jpg,0.0,clockno_default.jpg,3.0,68,0.7449,,,,,,,,,,,,,,,,,,,,,,,,,,,,,,,,
0.0,1.0,0.0,14.0,14.0,14.0,1.0,chalice_10s.jpg,0.0,clockno_default.jpg,3.0,68,0.7887,,,,,,,,,,,,,,,,,,,,,,,,,,,,,,,,
0.0,1.0,0.0,15.0,15.0,15.0,1.0,leash_10s.jpg,0.0,clockno_default.jpg,3.0,68,0.6625,,,,,,,,,,,,,,,,,,,,,,,,,,,,,,,,
0.0,1.0,0.0,16.0,16.0,16.0,1.0,recliner_02s.jpg,0.0,clockno_default.jpg,3.0,68,0.7793,,,,,,,,,,,,,,,,,,,,,,,,,,,,,,,,
0.0,1.0,0.0,17.0,17.0,17.0,1.0,pillow_03s.jpg,0.0,clockno_up.jpg,4.0,68,0.8895,,,,,,,,,,,,,,,,,,,,,,,,,,,,,,,,
0.0,1.0,0.0,18.0,18.0,18.0,1.0,puppet_01b.jpg,0.0,clockno_default.jpg,4.0,68,0.8193,,,,,,,,,,,,,,,,,,,,,,,,,,,,,,,,
0.0,1.0,0.0,19.0,19.0,19.0,1.0,quilt_03s.jpg,0.0,clockno_default.jpg,4.0,68,1.2769,,,,,,,,,,,,,,,,,,,,,,,,,,,,,,,,
1.0,1.0,0.0,20.0,20.0,20.0,1.0,pillow_03s.jpg,1.0,clockno_default.jpg,4.0,68,0.8104,,,,,,,,,,,,,,,,,,,,,,,,,,,,,,,,
0.0,1.0,0.0,21.0,21.0,21.0,1.0,piano_13n.jpg,0.0,clockno_default.jpg,4.0,68,0.7667,,,,,,,,,,,,,,,,,,,,,,,,,,,,,,,,
0.0,1.0,0.0,22.0,22.0,22.0,1.0,seahorse_13s.jpg,0.0,clockno_up.jpg,5.0,68,1.2429,,,,,,,,,,,,,,,,,,,,,,,,,,,,,,,,
0.0,1.0,0.0,23.0,23.0,23.0,1.0,lamb_04s.jpg,0.0,clockno_default.jpg,5.0,68,0.951,,,,,,,,,,,,,,,,,,,,,,,,,,,,,,,,
0.0,1.0,0.0,24.0,24.0,24.0,1.0,bagel_15s.jpg,0.0,clockno_default.jpg,5.0,68,0.749,,,,,,,,,,,,,,,,,,,,,,,,,,,,,,,,
0.0,1.0,0.0,25.0,25.0,25.0,1.0,meatball_13s.jpg,0.0,clockno_default.jpg,5.0,68,0.8294,,,,,,,,,,,,,,,,,,,,,,,,,,,,,,,,
1.0,1.0,0.0,26.0,26.0,26.0,1.0,meatball_13s.jpg,1.0,clockno_default.jpg,5.0,68,0.7937,,,,,,,,,,,,,,,,,,,,,,,,,,,,,,,,
0.0,1.0,0.0,27.0,27.0,27.0,1.0,microwave_02s.jpg,0.0,clockno_default.jpg,5.0,68,0.6565,,,,,,,,,,,,,,,,,,,,,,,,,,,,,,,,
1.0,1.0,0.0,28.0,28.0,28.0,1.0,meatball_13s.jpg,1.0,clockno_default.jpg,5.0,68,0.9719,,,,,,,,,,,,,,,,,,,,,,,,,,,,,,,,
0.0,1.0,0.0,29.0,29.0,29.0,1.0,peach_04s.jpg,0.0,clockno_up.jpg,6.0,68,0.994,,,,,,,,,,,,,,,,,,,,,,,,,,,,,,,,
0.0,1.0,0.0,30.0,30.0,30.0,1.0,basket_05s.jpg,0.0,clockno_default.jpg,6.0,68,0.7628,,,,,,,,,,,,,,,,,,,,,,,,,,,,,,,,
0.0,1.0,0.0,31.0,31.0,31.0,1.0,quill_09s.jpg,0.0,clockno_default.jpg,6.0,68,0.9591,,,,,,,,,,,,,,,,,,,,,,,,,,,,,,,,
0.0,1.0,0.0,32.0,32.0,32.0,1.0,road_sign_05s.jpg,0.0,clockno_default.jpg,6.0,68,0.7786,,,,,,,,,,,,,,,,,,,,,,,,,,,,,,,,
0.0,1.0,0.0,33.0,33.0,33.0,1.0,umbrella_15s.jpg,0.0,clockno_default.jpg,6.0,68,1.0556,,,,,,,,,,,,,,,,,,,,,,,,,,,,,,,,
0.0,1.0,0.0,34.0,34.0,34.0,1.0,lava_02s.jpg,0.0,clockno_default.jpg,6.0,68,0.7893,,,,,,,,,,,,,,,,,,,,,,,,,,,,,,,,
0.0,1.0,0.0,35.0,35.0,35.0,1.0,swimming_pool_17s.jpg,0.0,clockno_default.jpg,6.0,68,0.9118,,,,,,,,,,,,,,,,,,,,,,,,,,,,,,,,
,,,,,,,,0.0,,,68,,0.0,1.0,1.2967,0.0,0.0,0.0,0.0,1.0,thermostat_02s.jpg,measuring_cup_02s.jpg,,,,,,,,,,,,,,,,,,,,,,
,,,,,,,,1.0,,,68,,0.0,0.0,1.4759,0.0,1.0,1.0,1.0,1.0,quilt_03s.jpg,seahorse_13s.jpg,,,,,,,,,,,,,,,,,,,,,,
,,,,,,,,1.0,,,68,,1.0,1.0,1.3616,0.0,2.0,2.0,2.0,1.0,denture_03s.jpg,coral_08s.jpg,,,,,,,,,,,,,,,,,,,,,,
,,,,,,,,0.0,,,68,,1.0,0.0,1.5708,0.0,3.0,3.0,3.0,1.0,road_sign_05s.jpg,peach_04s.jpg,,,,,,,,,,,,,,,,,,,,,,
,,,,,,,,1.0,,,68,,0.0,0.0,1.373,0.0,4.0,4.0,4.0,1.0,quill_09s.jpg,lava_02s.jpg,,,,,,,,,,,,,,,,,,,,,,
,,,,,,,,1.0,,,68,,0.0,0.0,1.9129,0.0,5.0,5.0,5.0,1.0,quesadilla_07s.jpg,recliner_02s.jpg,,,,,,,,,,,,,,,,,,,,,,
,,,,,,,,,,,68,,,,,,,,,,,,0.0,2.0,2.0,2.0,1.0,clockno_present_3_19.xlsx,clockno_compare_task_3_19.xlsx,,,,,,,,,,,,,,,
0.0,1.0,0.0,0.0,0.0,0.0,1.0,knitting_needle_04s.jpg,0.0,clockno_up.jpg,1.0,68,1.1746,,,,,,,,,,,,,,,,,,,,,,,,,,,,,,,,
0.0,1.0,0.0,1.0,1.0,1.0,1.0,mop_08s.jpg,0.0,clockno_default.jpg,1.0,68,1.229,,,,,,,,,,,,,,,,,,,,,,,,,,,,,,,,
0.0,1.0,0.0,2.0,2.0,2.0,1.0,diving_board_07s.jpg,0.0,clockno_default.jpg,1.0,68,0.8812,,,,,,,,,,,,,,,,,,,,,,,,,,,,,,,,
0.0,1.0,0.0,3.0,3.0,3.0,1.0,police_car_01s.jpg,0.0,clockno_default.jpg,1.0,68,0.9614,,,,,,,,,,,,,,,,,,,,,,,,,,,,,,,,
1.0,1.0,0.0,4.0,4.0,4.0,1.0,mop_08s.jpg,1.0,clockno_default.jpg,1.0,68,0.7698,,,,,,,,,,,,,,,,,,,,,,,,,,,,,,,,
0.0,1.0,0.0,5.0,5.0,5.0,1.0,popsicle_02s.jpg,0.0,clockno_up.jpg,2.0,68,0.9198,,,,,,,,,,,,,,,,,,,,,,,,,,,,,,,,
0.0,1.0,0.0,6.0,6.0,6.0,1.0,icemaker_10s.jpg,0.0,clockno_default.jpg,2.0,68,1.1754,,,,,,,,,,,,,,,,,,,,,,,,,,,,,,,,
0.0,1.0,0.0,7.0,7.0,7.0,1.0,diving_board_07s.jpg,0.0,clockno_default.jpg,2.0,68,1.2864,,,,,,,,,,,,,,,,,,,,,,,,,,,,,,,,
0.0,1.0,0.0,8.0,8.0,8.0,1.0,poinsettia_04s.jpg,0.0,clockno_default.jpg,2.0,68,0.9128,,,,,,,,,,,,,,,,,,,,,,,,,,,,,,,,
0.0,1.0,0.0,9.0,9.0,9.0,1.0,ticktacktoe_08s.jpg,0.0,clockno_default.jpg,2.0,68,1.3528,,,,,,,,,,,,,,,,,,,,,,,,,,,,,,,,
1.0,1.0,0.0,10.0,10.0,10.0,1.0,ticktacktoe_08s.jpg,1.0,clockno_default.jpg,2.0,68,0.9217,,,,,,,,,,,,,,,,,,,,,,,,,,,,,,,,
0.0,1.0,0.0,11.0,11.0,11.0,1.0,otter_05s.jpg,0.0,clockno_up.jpg,3.0,68,0.992,,,,,,,,,,,,,,,,,,,,,,,,,,,,,,,,
1.0,1.0,0.0,12.0,12.0,12.0,1.0,otter_05s.jpg,1.0,clockno_default.jpg,3.0,68,0.7994,,,,,,,,,,,,,,,,,,,,,,,,,,,,,,,,
0.0,1.0,0.0,13.0,13.0,13.0,1.0,projector_08s.jpg,0.0,clockno_default.jpg,3.0,68,0.861,,,,,,,,,,,,,,,,,,,,,,,,,,,,,,,,
1.0,1.0,0.0,14.0,14.0,14.0,1.0,projector_08s.jpg,1.0,clockno_default.jpg,3.0,68,0.7486,,,,,,,,,,,,,,,,,,,,,,,,,,,,,,,,
0.0,1.0,0.0,15.0,15.0,15.0,1.0,treadmill_06s.jpg,0.0,clockno_default.jpg,3.0,68,0.9073,,,,,,,,,,,,,,,,,,,,,,,,,,,,,,,,
1.0,1.0,0.0,16.0,16.0,16.0,1.0,treadmill_06s.jpg,1.0,clockno_default.jpg,3.0,68,0.794,,,,,,,,,,,,,,,,,,,,,,,,,,,,,,,,
0.0,1.0,0.0,17.0,17.0,17.0,1.0,pomegranate_04s.jpg,0.0,clockno_default.jpg,3.0,68,0.7634,,,,,,,,,,,,,,,,,,,,,,,,,,,,,,,,
0.0,1.0,0.0,18.0,18.0,18.0,1.0,surfboard_11s.jpg,0.0,clockno_up.jpg,4.0,68,1.2166,,,,,,,,,,,,,,,,,,,,,,,,,,,,,,,,
0.0,1.0,0.0,19.0,19.0,19.0,1.0,sunglasses_11s.jpg,0.0,clockno_default.jpg,4.0,68,1.0314,,,,,,,,,,,,,,,,,,,,,,,,,,,,,,,,
0.0,1.0,0.0,20.0,20.0,20.0,1.0,smoothie_09s.jpg,0.0,clockno_default.jpg,4.0,68,0.6403,,,,,,,,,,,,,,,,,,,,,,,,,,,,,,,,
0.0,1.0,0.0,21.0,21.0,21.0,1.0,blowfish_03s.jpg,0.0,clockno_default.jpg,4.0,68,0.931,,,,,,,,,,,,,,,,,,,,,,,,,,,,,,,,
0.0,1.0,0.0,22.0,22.0,22.0,1.0,gazelle_10s.jpg,0.0,clockno_default.jpg,4.0,68,0.8083,,,,,,,,,,,,,,,,,,,,,,,,,,,,,,,,
0.0,1.0,0.0,23.0,23.0,23.0,1.0,rhubarb_03s.jpg,0.0,clockno_default.jpg,4.0,68,1.1787,,,,,,,,,,,,,,,,,,,,,,,,,,,,,,,,
0.0,1.0,0.0,24.0,24.0,24.0,1.0,swing_set_15s.jpg,0.0,clockno_default.jpg,4.0,68,0.703,,,,,,,,,,,,,,,,,,,,,,,,,,,,,,,,
0.0,1.0,0.0,25.0,25.0,25.0,1.0,tuxedo_01b.jpg,0.0,clockno_up.jpg,5.0,68,1.0646,,,,,,,,,,,,,,,,,,,,,,,,,,,,,,,,
1.0,1.0,0.0,26.0,26.0,26.0,1.0,tuxedo_01b.jpg,1.0,clockno_default.jpg,5.0,68,0.8615,,,,,,,,,,,,,,,,,,,,,,,,,,,,,,,,
0.0,1.0,0.0,27.0,27.0,27.0,1.0,slingshot_07s.jpg,0.0,clockno_default.jpg,5.0,68,0.8354,,,,,,,,,,,,,,,,,,,,,,,,,,,,,,,,
0.0,1.0,0.0,28.0,28.0,28.0,1.0,abacus_12s.jpg,0.0,clockno_default.jpg,5.0,68,1.1338,,,,,,,,,,,,,,,,,,,,,,,,,,,,,,,,
0.0,1.0,0.0,29.0,29.0,29.0,1.0,crystal_ball_12s.jpg,0.0,clockno_default.jpg,5.0,68,0.8989,,,,,,,,,,,,,,,,,,,,,,,,,,,,,,,,
0.0,1.0,0.0,30.0,30.0,30.0,1.0,otter_05s.jpg,0.0,clockno_default.jpg,5.0,68,1.0259,,,,,,,,,,,,,,,,,,,,,,,,,,,,,,,,
0.0,1.0,0.0,31.0,31.0,31.0,1.0,penguin_16s.jpg,0.0,clockno_up.jpg,6.0,68,0.934,,,,,,,,,,,,,,,,,,,,,,,,,,,,,,,,
0.0,1.0,0.0,32.0,32.0,32.0,1.0,glasses01a.jpg,0.0,clockno_default.jpg,6.0,68,1.0495,,,,,,,,,,,,,,,,,,,,,,,,,,,,,,,,
1.0,1.0,0.0,33.0,33.0,33.0,1.0,glasses01a.jpg,1.0,clockno_default.jpg,6.0,68,0.8598,,,,,,,,,,,,,,,,,,,,,,,,,,,,,,,,
0.0,1.0,0.0,34.0,34.0,34.0,1.0,beard_16s.jpg,0.0,clockno_default.jpg,6.0,68,0.9593,,,,,,,,,,,,,,,,,,,,,,,,,,,,,,,,
0.0,1.0,0.0,35.0,35.0,35.0,1.0,inhaler_01b.jpg,0.0,clockno_default.jpg,6.0,68,0.7801,,,,,,,,,,,,,,,,,,,,,,,,,,,,,,,,
,,,,,,,,0.0,,,68,,0.0,1.0,1.715,0.0,0.0,0.0,0.0,1.0,icemaker_10s.jpg,police_car_01s.jpg,,,,,,,,,,,,,,,,,,,,,,
,,,,,,,,0.0,,,68,,1.0,0.0,1.6965,0.0,1.0,1.0,1.0,1.0,smoothie_09s.jpg,pomegranate_04s.jpg,,,,,,,,,,,,,,,,,,,,,,
,,,,,,,,0.0,,,68,,0.0,1.0,1.3633,0.0,2.0,2.0,2.0,1.0,slingshot_07s.jpg,swing_set_15s.jpg,,,,,,,,,,,,,,,,,,,,,,
,,,,,,,,1.0,,,68,,1.0,1.0,1.2279,0.0,3.0,3.0,3.0,1.0,popsicle_02s.jpg,poinsettia_04s.jpg,,,,,,,,,,,,,,,,,,,,,,
,,,,,,,,1.0,,,68,,1.0,1.0,1.4327,0.0,4.0,4.0,4.0,1.0,surfboard_11s.jpg,blowfish_03s.jpg,,,,,,,,,,,,,,,,,,,,,,
,,,,,,,,0.0,,,68,,0.0,1.0,1.1496,0.0,5.0,5.0,5.0,1.0,gazelle_10s.jpg,sunglasses_11s.jpg,,,,,,,,,,,,,,,,,,,,,,
,,,,,,,,,,,68,,,,,,,,,,,,0.0,3.0,3.0,3.0,1.0,clockno_present_4_19.xlsx,clockno_compare_task_4_19.xlsx,,,,,,,,,,,,,,,
0.0,1.0,0.0,0.0,0.0,0.0,1.0,crayon_09s.jpg,0.0,clockno_up.jpg,1.0,68,1.1619,,,,,,,,,,,,,,,,,,,,,,,,,,,,,,,,
0.0,1.0,0.0,1.0,1.0,1.0,1.0,tweezers_03s.jpg,0.0,clockno_default.jpg,1.0,68,0.7536,,,,,,,,,,,,,,,,,,,,,,,,,,,,,,,,
0.0,1.0,0.0,2.0,2.0,2.0,1.0,powder_07s.jpg,0.0,clockno_default.jpg,1.0,68,0.7156,,,,,,,,,,,,,,,,,,,,,,,,,,,,,,,,
0.0,1.0,0.0,3.0,3.0,3.0,1.0,pear_02s.jpg,0.0,clockno_default.jpg,1.0,68,0.7152,,,,,,,,,,,,,,,,,,,,,,,,,,,,,,,,
1.0,1.0,0.0,4.0,4.0,4.0,1.0,crayon_09s.jpg,1.0,clockno_default.jpg,1.0,68,0.9691,,,,,,,,,,,,,,,,,,,,,,,,,,,,,,,,
1.0,1.0,0.0,5.0,5.0,5.0,1.0,tweezers_03s.jpg,1.0,clockno_default.jpg,1.0,68,1.0825,,,,,,,,,,,,,,,,,,,,,,,,,,,,,,,,
0.0,1.0,0.0,6.0,6.0,6.0,1.0,briefcase_03s.jpg,0.0,clockno_default.jpg,1.0,68,0.8116,,,,,,,,,,,,,,,,,,,,,,,,,,,,,,,,
0.0,1.0,0.0,7.0,7.0,7.0,1.0,soccer_ball_12s.jpg,0.0,clockno_up.jpg,2.0,68,1.4024,,,,,,,,,,,,,,,,,,,,,,,,,,,,,,,,
1.0,1.0,0.0,8.0,8.0,8.0,1.0,soccer_ball_12s.jpg,1.0,clockno_default.jpg,2.0,68,0.9925,,,,,,,,,,,,,,,,,,,,,,,,,,,,,,,,
0.0,1.0,0.0,9.0,9.0,9.0,1.0,mascara_03s.jpg,0.0,clockno_default.jpg,2.0,68,1.1393,,,,,,,,,,,,,,,,,,,,,,,,,,,,,,,,
0.0,1.0,0.0,10.0,10.0,10.0,1.0,crayon_09s.jpg,0.0,clockno_default.jpg,2.0,68,1.4228,,,,,,,,,,,,,,,,,,,,,,,,,,,,,,,,
0.0,1.0,0.0,11.0,11.0,11.0,1.0,rice_12s.jpg,0.0,clockno_default.jpg,2.0,68,1.0248,,,,,,,,,,,,,,,,,,,,,,,,,,,,,,,,
0.0,1.0,0.0,12.0,12.0,12.0,1.0,razor_blade_01b.jpg,0.0,clockno_default.jpg,2.0,68,1.1205,,,,,,,,,,,,,,,,,,,,,,,,,,,,,,,,
0.0,1.0,0.0,13.0,13.0,13.0,1.0,champagne_18s.jpg,0.0,clockno_up.jpg,3.0,68,1.225,,,,,,,,,,,,,,,,,,,,,,,,,,,,,,,,
0.0,1.0,0.0,14.0,14.0,14.0,1.0,ruby_15s.jpg,0.0,clockno_default.jpg,3.0,68,1.2908,,,,,,,,,,,,,,,,,,,,,,,,,,,,,,,,
0.0,1.0,0.0,15.0,15.0,15.0,1.0,gas_mask_11s.jpg,0.0,clockno_default.jpg,3.0,68,0.826,,,,,,,,,,,,,,,,,,,,,,,,,,,,,,,,
1.0,1.0,0.0,16.0,16.0,16.0,1.0,gas_mask_11s.jpg,1.0,clockno_default.jpg,3.0,68,0.8883,,,,,,,,,,,,,,,,,,,,,,,,,,,,,,,,
0.0,1.0,0.0,17.0,17.0,17.0,1.0,cape_11s.jpg,0.0,clockno_default.jpg,3.0,68,1.146,,,,,,,,,,,,,,,,,,,,,,,,,,,,,,,,
0.0,1.0,0.0,18.0,18.0,18.0,1.0,solar_panel_02s.jpg,0.0,clockno_default.jpg,3.0,68,0.776,,,,,,,,,,,,,,,,,,,,,,,,,,,,,,,,
1.0,1.0,0.0,19.0,19.0,19.0,1.0,solar_panel_02s.jpg,1.0,clockno_default.jpg,3.0,68,0.8595,,,,,,,,,,,,,,,,,,,,,,,,,,,,,,,,
0.0,1.0,0.0,20.0,20.0,20.0,1.0,target_11s.jpg,0.0,clockno_up.jpg,4.0,68,0.8538,,,,,,,,,,,,,,,,,,,,,,,,,,,,,,,,
0.0,1.0,0.0,21.0,21.0,21.0,1.0,knot_01b.jpg,0.0,clockno_default.jpg,4.0,68,1.3238,,,,,,,,,,,,,,,,,,,,,,,,,,,,,,,,
0.0,1.0,0.0,22.0,22.0,22.0,1.0,buoy_04s.jpg,0.0,clockno_default.jpg,4.0,68,0.854,,,,,,,,,,,,,,,,,,,,,,,,,,,,,,,,
0.0,1.0,0.0,23.0,23.0,23.0,1.0,funnel_01b.jpg,0.0,clockno_default.jpg,4.0,68,0.6297,,,,,,,,,,,,,,,,,,,,,,,,,,,,,,,,
1.0,1.0,0.0,24.0,24.0,24.0,1.0,buoy_04s.jpg,1.0,clockno_default.jpg,4.0,68,0.9576,,,,,,,,,,,,,,,,,,,,,,,,,,,,,,,,
0.0,1.0,0.0,25.0,25.0,25.0,1.0,pretzel_09s.jpg,0.0,clockno_default.jpg,4.0,68,0.7027,,,,,,,,,,,,,,,,,,,,,,,,,,,,,,,,
0.0,1.0,0.0,26.0,26.0,26.0,1.0,kettle_08s.jpg,0.0,clockno_up.jpg,5.0,68,1.2672,,,,,,,,,,,,,,,,,,,,,,,,,,,,,,,,
0.0,1.0,0.0,27.0,27.0,27.0,1.0,milk_02s.jpg,0.0,clockno_default.jpg,5.0,68,0.7694,,,,,,,,,,,,,,,,,,,,,,,,,,,,,,,,
0.0,1.0,0.0,28.0,28.0,28.0,1.0,dashboard_02s.jpg,0.0,clockno_default.jpg,5.0,68,0.6672,,,,,,,,,,,,,,,,,,,,,,,,,,,,,,,,
0.0,1.0,0.0,29.0,29.0,29.0,1.0,toilet_07s.jpg,0.0,clockno_default.jpg,5.0,68,0.9481,,,,,,,,,,,,,,,,,,,,,,,,,,,,,,,,
0.0,1.0,0.0,30.0,30.0,30.0,1.0,spacesuit_02s.jpg,0.0,clockno_default.jpg,5.0,68,0.7545,,,,,,,,,,,,,,,,,,,,,,,,,,,,,,,,
0.0,1.0,0.0,31.0,31.0,31.0,1.0,lifesaver_10s.jpg,0.0,clockno_up.jpg,6.0,68,0.8097,,,,,,,,,,,,,,,,,,,,,,,,,,,,,,,,
0.0,1.0,0.0,32.0,32.0,32.0,1.0,stamp1_11s.jpg,0.0,clockno_default.jpg,6.0,68,0.8976,,,,,,,,,,,,,,,,,,,,,,,,,,,,,,,,
0.0,1.0,0.0,33.0,33.0,33.0,1.0,stingray_02s.jpg,0.0,clockno_default.jpg,6.0,68,1.2506,,,,,,,,,,,,,,,,,,,,,,,,,,,,,,,,
0.0,1.0,0.0,34.0,34.0,34.0,1.0,torch_02s.jpg,0.0,clockno_default.jpg,6.0,68,0.7292,,,,,,,,,,,,,,,,,,,,,,,,,,,,,,,,
0.0,1.0,0.0,35.0,35.0,35.0,1.0,powder_07s.jpg,0.0,clockno_default.jpg,6.0,68,1.0782,,,,,,,,,,,,,,,,,,,,,,,,,,,,,,,,
,,,,,,,,0.0,,,68,,1.0,0.0,1.2235,0.0,0.0,0.0,0.0,1.0,dashboard_02s.jpg,pretzel_09s.jpg,,,,,,,,,,,,,,,,,,,,,,
,,,,,,,,0.0,,,68,,1.0,0.0,1.7324,0.0,1.0,1.0,1.0,1.0,ruby_15s.jpg,rice_12s.jpg,,,,,,,,,,,,,,,,,,,,,,
,,,,,,,,0.0,,,68,,1.0,0.0,1.8209,0.0,2.0,2.0,2.0,1.0,stamp1_11s.jpg,toilet_07s.jpg,,,,,,,,,,,,,,,,,,,,,,
,,,,,,,,0.0,,,68,,0.0,1.0,1.2009,0.0,3.0,3.0,3.0,1.0,briefcase_03s.jpg,pear_02s.jpg,,,,,,,,,,,,,,,,,,,,,,
,,,,,,,,1.0,,,68,,1.0,1.0,1.4964,0.0,4.0,4.0,4.0,1.0,mascara_03s.jpg,razor_blade_01b.jpg,,,,,,,,,,,,,,,,,,,,,,
,,,,,,,,0.0,,,68,,0.0,1.0,1.5328,0.0,5.0,5.0,5.0,1.0,spacesuit_02s.jpg,milk_02s.jpg,,,,,,,,,,,,,,,,,,,,,,
,,,,,,,,,,,68,,,,,,,,,,,,0.0,4.0,4.0,4.0,1.0,clockno_present_5_19.xlsx,clockno_compare_task_5_19.xlsx,,,,,,,,,,,,,,,
0.0,1.0,0.0,0.0,0.0,0.0,1.0,onion_10s.jpg,0.0,clockno_up.jpg,1.0,68,0.8742,,,,,,,,,,,,,,,,,,,,,,,,,,,,,,,,
0.0,1.0,0.0,1.0,1.0,1.0,1.0,eiffeltower.jpg,0.0,clockno_default.jpg,1.0,68,1.1284,,,,,,,,,,,,,,,,,,,,,,,,,,,,,,,,
0.0,1.0,0.0,2.0,2.0,2.0,1.0,ostrich_06s.jpg,0.0,clockno_default.jpg,1.0,68,0.6326,,,,,,,,,,,,,,,,,,,,,,,,,,,,,,,,
1.0,1.0,0.0,3.0,3.0,3.0,1.0,eiffeltower.jpg,1.0,clockno_default.jpg,1.0,68,0.8491,,,,,,,,,,,,,,,,,,,,,,,,,,,,,,,,
0.0,1.0,0.0,4.0,4.0,4.0,1.0,punch2_09s.jpg,0.0,clockno_default.jpg,1.0,68,0.9517,,,,,,,,,,,,,,,,,,,,,,,,,,,,,,,,
0.0,1.0,0.0,5.0,5.0,5.0,1.0,trumpet_06s.jpg,0.0,clockno_default.jpg,1.0,68,0.927,,,,,,,,,,,,,,,,,,,,,,,,,,,,,,,,
0.0,1.0,0.0,6.0,6.0,6.0,1.0,puck_06s.jpg,0.0,clockno_default.jpg,1.0,68,0.9131,,,,,,,,,,,,,,,,,,,,,,,,,,,,,,,,
0.0,1.0,0.0,7.0,7.0,7.0,1.0,cushion_08s.jpg,0.0,clockno_up.jpg,2.0,68,1.5202,,,,,,,,,,,,,,,,,,,,,,,,,,,,,,,,
0.0,1.0,0.0,8.0,8.0,8.0,1.0,pea_11s.jpg,0.0,clockno_default.jpg,2.0,68,0.9508,,,,,,,,,,,,,,,,,,,,,,,,,,,,,,,,
0.0,1.0,0.0,9.0,9.0,9.0,1.0,kayak_08s.jpg,0.0,clockno_default.jpg,2.0,68,0.7013,,,,,,,,,,,,,,,,,,,,,,,,,,,,,,,,
0.0,1.0,0.0,10.0,10.0,10.0,1.0,swan_11s.jpg,0.0,clockno_default.jpg,2.0,68,1.0763,,,,,,,,,,,,,,,,,,,,,,,,,,,,,,,,
0.0,1.0,0.0,11.0,11.0,11.0,1.0,ostrich_06s.jpg,0.0,clockno_default.jpg,2.0,68,1.6201,,,,,,,,,,,,,,,,,,,,,,,,,,,,,,,,
0.0,1.0,0.0,12.0,12.0,12.0,1.0,eiffeltower.jpg,0.0,clockno_default.jpg,2.0,68,1.0797,,,,,,,,,,,,,,,,,,,,,,,,,,,,,,,,
0.0,1.0,0.0,13.0,13.0,13.0,1.0,toy_04s.jpg,0.0,clockno_up.jpg,3.0,68,1.1522,,,,,,,,,,,,,,,,,,,,,,,,,,,,,,,,
0.0,1.0,0.0,14.0,14.0,14.0,1.0,rocking_chair_05s.jpg,0.0,clockno_default.jpg,3.0,68,0.6049,,,,,,,,,,,,,,,,,,,,,,,,,,,,,,,,
1.0,1.0,0.0,15.0,15.0,15.0,1.0,toy_04s.jpg,1.0,clockno_default.jpg,3.0,68,0.6782,,,,,,,,,,,,,,,,,,,,,,,,,,,,,,,,
0.0,1.0,0.0,16.0,16.0,16.0,1.0,sledgehammer_03s.jpg,0.0,clockno_default.jpg,3.0,68,0.8433,,,,,,,,,,,,,,,,,,,,,,,,,,,,,,,,
0.0,1.0,0.0,17.0,17.0,17.0,1.0,luggage_08s.jpg,0.0,clockno_default.jpg,3.0,68,0.8531,,,,,,,,,,,,,,,,,,,,,,,,,,,,,,,,
0.0,1.0,0.0,18.0,18.0,18.0,1.0,marshmallow_08s.jpg,0.0,clockno_default.jpg,3.0,68,0.7321,,,,,,,,,,,,,,,,,,,,,,,,,,,,,,,,
0.0,1.0,0.0,19.0,19.0,19.0,1.0,laundry_basket_11s.jpg,0.0,clockno_up.jpg,4.0,68,1.2042,,,,,,,,,,,,,,,,,,,,,,,,,,,,,,,,
0.0,1.0,0.0,20.0,20.0,20.0,1.0,cap_05s.jpg,0.0,clockno_default.jpg,4.0,68,0.8779,,,,,,,,,,,,,,,,,,,,,,,,,,,,,,,,
0.0,1.0,0.0,21.0,21.0,21.0,1.0,totem_pole_05s.jpg,0.0,clockno_default.jpg,4.0,68,0.7004,,,,,,,,,,,,,,,,,,,,,,,,,,,,,,,,
0.0,1.0,0.0,22.0,22.0,22.0,1.0,tape_06s.jpg,0.0,clockno_default.jpg,4.0,68,0.9772,,,,,,,,,,,,,,,,,,,,,,,,,,,,,,,,
1.0,1.0,0.0,23.0,23.0,23.0,1.0,laundry_basket_11s.jpg,1.0,clockno_default.jpg,4.0,68,0.949,,,,,,,,,,,,,,,,,,,,,,,,,,,,,,,,
1.0,1.0,0.0,24.0,24.0,24.0,1.0,tape_06s.jpg,1.0,clockno_default.jpg,4.0,68,0.9043,,,,,,,,,,,,,,,,,,,,,,,,,,,,,,,,
1.0,1.0,0.0,25.0,25.0,25.0,1.0,totem_pole_05s.jpg,1.0,clockno_default.jpg,4.0,68,0.8561,,,,,,,,,,,,,,,,,,,,,,,,,,,,,,,,
0.0,1.0,0.0,26.0,26.0,26.0,1.0,espresso_01b.jpg,0.0,clockno_up.jpg,5.0,68,0.7586,,,,,,,,,,,,,,,,,,,,,,,,,,,,,,,,
0.0,1.0,0.0,27.0,27.0,27.0,1.0,sugar_cube_11s.jpg,0.0,clockno_default.jpg,5.0,68,0.6432,,,,,,,,,,,,,,,,,,,,,,,,,,,,,,,,
0.0,1.0,0.0,28.0,28.0,28.0,1.0,timer_03s.jpg,0.0,clockno_default.jpg,5.0,68,0.6895,,,,,,,,,,,,,,,,,,,,,,,,,,,,,,,,
0.0,1.0,0.0,29.0,29.0,29.0,1.0,squirt_gun_03s.jpg,0.0,clockno_default.jpg,5.0,68,0.6127,,,,,,,,,,,,,,,,,,,,,,,,,,,,,,,,
0.0,1.0,0.0,30.0,30.0,30.0,1.0,stamp2_08s.jpg,0.0,clockno_default.jpg,5.0,68,0.8416,,,,,,,,,,,,,,,,,,,,,,,,,,,,,,,,
0.0,1.0,0.0,31.0,31.0,31.0,1.0,ravioli_08s.jpg,0.0,clockno_up.jpg,6.0,68,1.0954,,,,,,,,,,,,,,,,,,,,,,,,,,,,,,,,
0.0,1.0,0.0,32.0,32.0,32.0,1.0,tattoo_14s.jpg,0.0,clockno_default.jpg,6.0,68,0.8929,,,,,,,,,,,,,,,,,,,,,,,,,,,,,,,,
0.0,1.0,0.0,33.0,33.0,33.0,1.0,racehorse_03s.jpg,0.0,clockno_default.jpg,6.0,68,0.917,,,,,,,,,,,,,,,,,,,,,,,,,,,,,,,,
0.0,1.0,0.0,34.0,34.0,34.0,1.0,tie_03s.jpg,0.0,clockno_default.jpg,6.0,68,0.7641,,,,,,,,,,,,,,,,,,,,,,,,,,,,,,,,
0.0,1.0,0.0,35.0,35.0,35.0,1.0,chocolate_01b.jpg,0.0,clockno_default.jpg,6.0,68,0.8388,,,,,,,,,,,,,,,,,,,,,,,,,,,,,,,,
,,,,,,,,1.0,,,68,,1.0,1.0,1.6871,0.0,0.0,0.0,0.0,1.0,trumpet_06s.jpg,pea_11s.jpg,,,,,,,,,,,,,,,,,,,,,,
,,,,,,,,0.0,,,68,,0.0,1.0,1.3278,0.0,1.0,1.0,1.0,1.0,kayak_08s.jpg,puck_06s.jpg,,,,,,,,,,,,,,,,,,,,,,
,,,,,,,,1.0,,,68,,1.0,1.0,1.8443,0.0,2.0,2.0,2.0,1.0,punch2_09s.jpg,cushion_08s.jpg,,,,,,,,,,,,,,,,,,,,,,
,,,,,,,,0.0,,,68,,0.0,1.0,1.62,0.0,3.0,3.0,3.0,1.0,luggage_08s.jpg,rocking_chair_05s.jpg,,,,,,,,,,,,,,,,,,,,,,
,,,,,,,,1.0,,,68,,1.0,1.0,1.4803,0.0,4.0,4.0,4.0,1.0,espresso_01b.jpg,squirt_gun_03s.jpg,,,,,,,,,,,,,,,,,,,,,,
,,,,,,,,0.0,,,68,,1.0,0.0,1.601,0.0,5.0,5.0,5.0,1.0,stamp2_08s.jpg,sugar_cube_11s.jpg,,,,,,,,,,,,,,,,,,,,,,
0.0,1.0,,,,,,pump_11s.jpg,0.0,clock_6_1.png,1.0,68,1.1097,,,,,,,,,,,,,,,,,,0.0,0.0,0.0,0.0,1.0,,,,,,,,,,
0.0,1.0,,,,,,lip_gloss_06s.jpg,0.0,clock_6_2.png,1.0,68,1.2163,,,,,,,,,,,,,,,,,,0.0,1.0,1.0,1.0,1.0,,,,,,,,,,
0.0,1.0,,,,,,mailbox_11s.jpg,0.0,clock_6_3.png,1.0,68,0.8339,,,,,,,,,,,,,,,,,,0.0,2.0,2.0,2.0,1.0,,,,,,,,,,
1.0,1.0,,,,,,mailbox_11s.jpg,1.0,clock_6_4.png,1.0,68,0.8061,,,,,,,,,,,,,,,,,,0.0,3.0,3.0,3.0,1.0,,,,,,,,,,
0.0,1.0,,,,,,tablet_04s.jpg,0.0,clock_6_5.png,1.0,68,0.7376,,,,,,,,,,,,,,,,,,0.0,4.0,4.0,4.0,1.0,,,,,,,,,,
1.0,1.0,,,,,,mailbox_11s.jpg,1.0,clock_6_6.png,1.0,68,0.7962,,,,,,,,,,,,,,,,,,0.0,5.0,5.0,5.0,1.0,,,,,,,,,,
0.0,1.0,,,,,,squirrel_02s.jpg,0.0,clock_5_1.png,2.0,68,0.9999,,,,,,,,,,,,,,,,,,0.0,6.0,6.0,6.0,1.0,,,,,,,,,,
0.0,1.0,,,,,,crab_16s.jpg,0.0,clock_5_2.png,2.0,68,0.6783,,,,,,,,,,,,,,,,,,0.0,7.0,7.0,7.0,1.0,,,,,,,,,,
0.0,1.0,,,,,,kitten_07s.jpg,0.0,clock_5_3.png,2.0,68,0.7029,,,,,,,,,,,,,,,,,,0.0,8.0,8.0,8.0,1.0,,,,,,,,,,
0.0,1.0,,,,,,birthday_cake_09s.jpg,0.0,clock_5_4.png,2.0,68,0.8794,,,,,,,,,,,,,,,,,,0.0,9.0,9.0,9.0,1.0,,,,,,,,,,
0.0,1.0,,,,,,rudder_02s.jpg,0.0,clock_5_5.png,2.0,68,0.8652,,,,,,,,,,,,,,,,,,0.0,10.0,10.0,10.0,1.0,,,,,,,,,,
0.0,1.0,,,,,,mushroom_10n.jpg,0.0,clock_5_1.png,3.0,68,0.7324,,,,,,,,,,,,,,,,,,0.0,11.0,11.0,11.0,1.0,,,,,,,,,,
1.0,1.0,,,,,,mushroom_10n.jpg,1.0,clock_5_2.png,3.0,68,0.7138,,,,,,,,,,,,,,,,,,0.0,12.0,12.0,12.0,1.0,,,,,,,,,,
0.0,1.0,,,,,,peanut_butter_08s.jpg,0.0,clock_5_3.png,3.0,68,0.8093,,,,,,,,,,,,,,,,,,0.0,13.0,13.0,13.0,1.0,,,,,,,,,,
0.0,1.0,,,,,,lid_10s.jpg,0.0,clock_5_4.png,3.0,68,0.785,,,,,,,,,,,,,,,,,,0.0,14.0,14.0,14.0,1.0,,,,,,,,,,
0.0,1.0,,,,,,ant_12s.jpg,0.0,clock_5_5.png,3.0,68,0.7127,,,,,,,,,,,,,,,,,,0.0,15.0,15.0,15.0,1.0,,,,,,,,,,
0.0,1.0,,,,,,ice_pack_09s.jpg,0.0,clock_7_1.png,4.0,68,0.9724,,,,,,,,,,,,,,,,,,0.0,16.0,16.0,16.0,1.0,,,,,,,,,,
0.0,1.0,,,,,,medal_04s.jpg,0.0,clock_7_2.png,4.0,68,0.5557,,,,,,,,,,,,,,,,,,0.0,17.0,17.0,17.0,1.0,,,,,,,,,,
1.0,1.0,,,,,,ice_pack_09s.jpg,1.0,clock_7_3.png,4.0,68,1.1006,,,,,,,,,,,,,,,,,,0.0,18.0,18.0,18.0,1.0,,,,,,,,,,
1.0,1.0,,,,,,medal_04s.jpg,1.0,clock_7_4.png,4.0,68,0.9752,,,,,,,,,,,,,,,,,,0.0,19.0,19.0,19.0,1.0,,,,,,,,,,
0.0,1.0,,,,,,snowman_02s.jpg,0.0,clock_7_5.png,4.0,68,0.7045,,,,,,,,,,,,,,,,,,0.0,20.0,20.0,20.0,1.0,,,,,,,,,,
0.0,1.0,,,,,,butter_14s.jpg,0.0,clock_7_6.png,4.0,68,0.8161,,,,,,,,,,,,,,,,,,0.0,21.0,21.0,21.0,1.0,,,,,,,,,,
0.0,1.0,,,,,,tiger_06s.jpg,0.0,clock_7_7.png,4.0,68,0.6853,,,,,,,,,,,,,,,,,,0.0,22.0,22.0,22.0,1.0,,,,,,,,,,
0.0,1.0,,,,,,quad_04s.jpg,0.0,clock_6_1.png,5.0,68,0.7097,,,,,,,,,,,,,,,,,,0.0,23.0,23.0,23.0,1.0,,,,,,,,,,
0.0,1.0,,,,,,bottle_opener_11s.jpg,0.0,clock_6_2.png,5.0,68,0.7389,,,,,,,,,,,,,,,,,,0.0,24.0,24.0,24.0,1.0,,,,,,,,,,
0.0,1.0,,,,,,turtleneck_11s.jpg,0.0,clock_6_3.png,5.0,68,0.7178,,,,,,,,,,,,,,,,,,0.0,25.0,25.0,25.0,1.0,,,,,,,,,,
0.0,1.0,,,,,,bank_06s.jpg,0.0,clock_6_4.png,5.0,68,0.5479,,,,,,,,,,,,,,,,,,0.0,26.0,26.0,26.0,1.0,,,,,,,,,,
0.0,1.0,,,,,,key_07s.jpg,0.0,clock_6_5.png,5.0,68,0.6661,,,,,,,,,,,,,,,,,,0.0,27.0,27.0,27.0,1.0,,,,,,,,,,
0.0,0.0,,,,,,bottle_opener_11s.jpg,1.0,clock_6_6.png,5.0,68,1.3335,,,,,,,,,,,,,,,,,,0.0,28.0,28.0,28.0,1.0,,,,,,,,,,
0.0,1.0,,,,,,lamb_chop_07s.jpg,0.0,clock_7_1.png,6.0,68,0.7733,,,,,,,,,,,,,,,,,,0.0,29.0,29.0,29.0,1.0,,,,,,,,,,
0.0,1.0,,,,,,incense_02s.jpg,0.0,clock_7_2.png,6.0,68,0.7964,,,,,,,,,,,,,,,,,,0.0,30.0,30.0,30.0,1.0,,,,,,,,,,
0.0,1.0,,,,,,medal_04s.jpg,0.0,clock_7_3.png,6.0,68,0.9972,,,,,,,,,,,,,,,,,,0.0,31.0,31.0,31.0,1.0,,,,,,,,,,
0.0,1.0,,,,,,hummingbird_05s.jpg,0.0,clock_7_4.png,6.0,68,0.7717,,,,,,,,,,,,,,,,,,0.0,32.0,32.0,32.0,1.0,,,,,,,,,,
0.0,1.0,,,,,,icicle_04s.jpg,0.0,clock_7_5.png,6.0,68,0.9836,,,,,,,,,,,,,,,,,,0.0,33.0,33.0,33.0,1.0,,,,,,,,,,
0.0,1.0,,,,,,outlet_10s.jpg,0.0,clock_7_6.png,6.0,68,0.6886,,,,,,,,,,,,,,,,,,0.0,34.0,34.0,34.0,1.0,,,,,,,,,,
1.0,1.0,,,,,,outlet_10s.jpg,1.0,clock_7_7.png,6.0,68,0.842,,,,,,,,,,,,,,,,,,0.0,35.0,35.0,35.0,1.0,,,,,,,,,,
,,,,,,,,0.0,,,68,,1.0,0.0,1.7409,,,,,,turtleneck_11s.jpg,tiger_06s.jpg,,,,,,,,,,,,,0.0,0.0,0.0,0.0,1.0,,,,,
,,,,,,,,0.0,,,68,,0.0,1.0,1.4911,,,,,,peanut_butter_08s.jpg,rudder_02s.jpg,,,,,,,,,,,,,0.0,1.0,1.0,1.0,1.0,,,,,
,,,,,,,,0.0,,,68,,0.0,1.0,1.5957,,,,,,quad_04s.jpg,snowman_02s.jpg,,,,,,,,,,,,,0.0,2.0,2.0,2.0,1.0,,,,,
,,,,,,,,1.0,,,68,,1.0,1.0,1.0863,,,,,,squirrel_02s.jpg,birthday_cake_09s.jpg,,,,,,,,,,,,,0.0,3.0,3.0,3.0,1.0,,,,,
,,,,,,,,1.0,,,68,,0.0,0.0,0.9862,,,,,,lip_gloss_06s.jpg,tablet_04s.jpg,,,,,,,,,,,,,0.0,4.0,4.0,4.0,1.0,,,,,
,,,,,,,,1.0,,,68,,1.0,1.0,1.6254,,,,,,lamb_chop_07s.jpg,hummingbird_05s.jpg,,,,,,,,,,,,,0.0,5.0,5.0,5.0,1.0,,,,,
,,,,,,,,,,,68,,,,,,,,,,,,,,,,,clock_present_1_19.xlsx,clock_compare_task_1_19.xlsx,,,,,,,,,,,0.0,0.0,0.0,0.0,1.0
0.0,1.0,,,,,,toad_09s.jpg,0.0,clock_7_1.png,1.0,68,1.2532,,,,,,,,,,,,,,,,,,0.0,0.0,0.0,0.0,1.0,,,,,,,,,,
0.0,1.0,,,,,,pineapple_12s.jpg,0.0,clock_7_2.png,1.0,68,1.2505,,,,,,,,,,,,,,,,,,0.0,1.0,1.0,1.0,1.0,,,,,,,,,,
0.0,1.0,,,,,,sparkler_02s.jpg,0.0,clock_7_3.png,1.0,68,1.0099,,,,,,,,,,,,,,,,,,0.0,2.0,2.0,2.0,1.0,,,,,,,,,,
0.0,1.0,,,,,,teapot_03s.jpg,0.0,clock_7_4.png,1.0,68,0.6529,,,,,,,,,,,,,,,,,,0.0,3.0,3.0,3.0,1.0,,,,,,,,,,
0.0,1.0,,,,,,eggshell_14s.jpg,0.0,clock_7_5.png,1.0,68,0.8016,,,,,,,,,,,,,,,,,,0.0,4.0,4.0,4.0,1.0,,,,,,,,,,
0.0,1.0,,,,,,typewriter_11s.jpg,0.0,clock_7_6.png,1.0,68,0.8917,,,,,,,,,,,,,,,,,,0.0,5.0,5.0,5.0,1.0,,,,,,,,,,
0.0,1.0,,,,,,soda_fountain_03s.jpg,0.0,clock_7_7.png,1.0,68,0.8178,,,,,,,,,,,,,,,,,,0.0,6.0,6.0,6.0,1.0,,,,,,,,,,
0.0,1.0,,,,,,jewel_01b.jpg,0.0,clock_5_1.png,2.0,68,0.782,,,,,,,,,,,,,,,,,,0.0,7.0,7.0,7.0,1.0,,,,,,,,,,
0.0,1.0,,,,,,trampoline_13s.jpg,0.0,clock_5_2.png,2.0,68,0.8268,,,,,,,,,,,,,,,,,,0.0,8.0,8.0,8.0,1.0,,,,,,,,,,
0.0,1.0,,,,,,lion_18s.jpg,0.0,clock_5_3.png,2.0,68,0.7005,,,,,,,,,,,,,,,,,,0.0,9.0,9.0,9.0,1.0,,,,,,,,,,
0.0,1.0,,,,,,lollipop_08s.jpg,0.0,clock_5_4.png,2.0,68,0.9367,,,,,,,,,,,,,,,,,,0.0,10.0,10.0,10.0,1.0,,,,,,,,,,
1.0,1.0,,,,,,trampoline_13s.jpg,1.0,clock_5_5.png,2.0,68,1.0022,,,,,,,,,,,,,,,,,,0.0,11.0,11.0,11.0,1.0,,,,,,,,,,
0.0,1.0,,,,,,puffin_19s.jpg,0.0,clock_6_1.png,3.0,68,1.0056,,,,,,,,,,,,,,,,,,0.0,12.0,12.0,12.0,1.0,,,,,,,,,,
0.0,1.0,,,,,,prism_10s.jpg,0.0,clock_6_2.png,3.0,68,1.0337,,,,,,,,,,,,,,,,,,0.0,13.0,13.0,13.0,1.0,,,,,,,,,,
1.0,1.0,,,,,,puffin_19s.jpg,1.0,clock_6_3.png,3.0,68,0.884,,,,,,,,,,,,,,,,,,0.0,14.0,14.0,14.0,1.0,,,,,,,,,,
1.0,1.0,,,,,,prism_10s.jpg,1.0,clock_6_4.png,3.0,68,0.9989,,,,,,,,,,,,,,,,,,0.0,15.0,15.0,15.0,1.0,,,,,,,,,,
0.0,1.0,,,,,,treasure_08s.jpg,0.0,clock_6_5.png,3.0,68,0.7354,,,,,,,,,,,,,,,,,,0.0,16.0,16.0,16.0,1.0,,,,,,,,,,
0.0,1.0,,,,,,fox_13s.jpg,0.0,clock_6_6.png,3.0,68,2.2934,,,,,,,,,,,,,,,,,,0.0,17.0,17.0,17.0,1.0,,,,,,,,,,
0.0,1.0,,,,,,chopsticks_08s.jpg,0.0,clock_7_1.png,4.0,68,0.6239,,,,,,,,,,,,,,,,,,0.0,18.0,18.0,18.0,1.0,,,,,,,,,,
1.0,1.0,,,,,,chopsticks_08s.jpg,1.0,clock_7_2.png,4.0,68,0.9045,,,,,,,,,,,,,,,,,,0.0,19.0,19.0,19.0,1.0,,,,,,,,,,
1.0,1.0,,,,,,chopsticks_08s.jpg,1.0,clock_7_3.png,4.0,68,0.8407,,,,,,,,,,,,,,,,,,0.0,20.0,20.0,20.0,1.0,,,,,,,,,,
0.0,1.0,,,,,,cucumber_07s.jpg,0.0,clock_7_4.png,4.0,68,0.6402,,,,,,,,,,,,,,,,,,0.0,21.0,21.0,21.0,1.0,,,,,,,,,,
0.0,1.0,,,,,,prism_10s.jpg,0.0,clock_7_5.png,4.0,68,1.3682,,,,,,,,,,,,,,,,,,0.0,22.0,22.0,22.0,1.0,,,,,,,,,,
0.0,1.0,,,,,,lollipop_08s.jpg,0.0,clock_7_6.png,4.0,68,1.3693,,,,,,,,,,,,,,,,,,0.0,23.0,23.0,23.0,1.0,,,,,,,,,,
0.0,1.0,,,,,,smokingpipe.jpg,0.0,clock_7_7.png,4.0,68,0.9707,,,,,,,,,,,,,,,,,,0.0,24.0,24.0,24.0,1.0,,,,,,,,,,
0.0,1.0,,,,,,loom_05s.jpg,0.0,clock_6_1.png,5.0,68,1.1211,,,,,,,,,,,,,,,,,,0.0,25.0,25.0,25.0,1.0,,,,,,,,,,
1.0,1.0,,,,,,loom_05s.jpg,1.0,clock_6_2.png,5.0,68,0.8633,,,,,,,,,,,,,,,,,,0.0,26.0,26.0,26.0,1.0,,,,,,,,,,
0.0,1.0,,,,,,blazer_02s.jpg,0.0,clock_6_3.png,5.0,68,0.6807,,,,,,,,,,,,,,,,,,0.0,27.0,27.0,27.0,1.0,,,,,,,,,,
0.0,1.0,,,,,,lectern_08s.jpg,0.0,clock_6_4.png,5.0,68,0.7195,,,,,,,,,,,,,,,,,,0.0,28.0,28.0,28.0,1.0,,,,,,,,,,
0.0,1.0,,,,,,printer_09s.jpg,0.0,clock_6_5.png,5.0,68,0.7785,,,,,,,,,,,,,,,,,,0.0,29.0,29.0,29.0,1.0,,,,,,,,,,
0.0,1.0,,,,,,olive_05s.jpg,0.0,clock_6_6.png,5.0,68,0.6885,,,,,,,,,,,,,,,,,,0.0,30.0,30.0,30.0,1.0,,,,,,,,,,
0.0,1.0,,,,,,bean_06s.jpg,0.0,clock_5_1.png,6.0,68,0.77,,,,,,,,,,,,,,,,,,0.0,31.0,31.0,31.0,1.0,,,,,,,,,,
0.0,1.0,,,,,,gear_07s.jpg,0.0,clock_5_2.png,6.0,68,0.9029,,,,,,,,,,,,,,,,,,0.0,32.0,32.0,32.0,1.0,,,,,,,,,,
0.0,1.0,,,,,,jet_15s.jpg,0.0,clock_5_3.png,6.0,68,0.6692,,,,,,,,,,,,,,,,,,0.0,33.0,33.0,33.0,1.0,,,,,,,,,,
0.0,1.0,,,,,,cucumber_07s.jpg,0.0,clock_5_4.png,6.0,68,0.9056,,,,,,,,,,,,,,,,,,0.0,34.0,34.0,34.0,1.0,,,,,,,,,,
0.0,1.0,,,,,,fox_13s.jpg,0.0,clock_5_5.png,6.0,68,0.6558,,,,,,,,,,,,,,,,,,0.0,35.0,35.0,35.0,1.0,,,,,,,,,,
,,,,,,,,0.0,,,68,,0.0,1.0,1.6344,,,,,,bean_06s.jpg,lectern_08s.jpg,,,,,,,,,,,,,0.0,0.0,0.0,0.0,1.0,,,,,
,,,,,,,,0.0,,,68,,0.0,1.0,1.1397,,,,,,gear_07s.jpg,printer_09s.jpg,,,,,,,,,,,,,0.0,1.0,1.0,1.0,1.0,,,,,
,,,,,,,,0.0,,,68,,0.0,1.0,1.3462,,,,,,jewel_01b.jpg,eggshell_14s.jpg,,,,,,,,,,,,,0.0,2.0,2.0,2.0,1.0,,,,,
,,,,,,,,0.0,,,68,,0.0,1.0,1.1347,,,,,,teapot_03s.jpg,toad_09s.jpg,,,,,,,,,,,,,0.0,3.0,3.0,3.0,1.0,,,,,
,,,,,,,,1.0,,,68,,1.0,1.0,1.2512,,,,,,sparkler_02s.jpg,typewriter_11s.jpg,,,,,,,,,,,,,0.0,4.0,4.0,4.0,1.0,,,,,
,,,,,,,,0.0,,,68,,0.0,1.0,1.4934,,,,,,olive_05s.jpg,blazer_02s.jpg,,,,,,,,,,,,,0.0,5.0,5.0,5.0,1.0,,,,,
,,,,,,,,,,,68,,,,,,,,,,,,,,,,,clock_present_2_19.xlsx,clock_compare_task_2_19.xlsx,,,,,,,,,,,0.0,1.0,1.0,1.0,1.0
0.0,1.0,,,,,,petri_dish_12s.jpg,0.0,clock_6_1.png,1.0,68,1.0207,,,,,,,,,,,,,,,,,,0.0,0.0,0.0,0.0,1.0,,,,,,,,,,
0.0,1.0,,,,,,tube_top_03s.jpg,0.0,clock_6_2.png,1.0,68,1.0373,,,,,,,,,,,,,,,,,,0.0,1.0,1.0,1.0,1.0,,,,,,,,,,
0.0,1.0,,,,,,razor_12s.jpg,0.0,clock_6_3.png,1.0,68,0.9392,,,,,,,,,,,,,,,,,,0.0,2.0,2.0,2.0,1.0,,,,,,,,,,
0.0,1.0,,,,,,doily_13s.jpg,0.0,clock_6_4.png,1.0,68,0.5878,,,,,,,,,,,,,,,,,,0.0,3.0,3.0,3.0,1.0,,,,,,,,,,
1.0,1.0,,,,,,doily_13s.jpg,1.0,clock_6_5.png,1.0,68,0.7025,,,,,,,,,,,,,,,,,,0.0,4.0,4.0,4.0,1.0,,,,,,,,,,
0.0,1.0,,,,,,syringe_02s.jpg,0.0,clock_6_6.png,1.0,68,1.5918,,,,,,,,,,,,,,,,,,0.0,5.0,5.0,5.0,1.0,,,,,,,,,,
0.0,1.0,,,,,,mirror_12s.jpg,0.0,clock_7_1.png,2.0,68,1.2473,,,,,,,,,,,,,,,,,,0.0,6.0,6.0,6.0,1.0,,,,,,,,,,
0.0,1.0,,,,,,tinsel_12s.jpg,0.0,clock_7_2.png,2.0,68,1.2266,,,,,,,,,,,,,,,,,,0.0,7.0,7.0,7.0,1.0,,,,,,,,,,
1.0,1.0,,,,,,mirror_12s.jpg,1.0,clock_7_3.png,2.0,68,1.1557,,,,,,,,,,,,,,,,,,0.0,8.0,8.0,8.0,1.0,,,,,,,,,,
0.0,1.0,,,,,,trident_07s.jpg,0.0,clock_7_4.png,2.0,68,0.785,,,,,,,,,,,,,,,,,,0.0,9.0,9.0,9.0,1.0,,,,,,,,,,
1.0,1.0,,,,,,mirror_12s.jpg,1.0,clock_7_5.png,2.0,68,0.919,,,,,,,,,,,,,,,,,,0.0,10.0,10.0,10.0,1.0,,,,,,,,,,
0.0,1.0,,,,,,ring_03s.jpg,0.0,clock_7_6.png,2.0,68,0.74,,,,,,,,,,,,,,,,,,0.0,11.0,11.0,11.0,1.0,,,,,,,,,,
0.0,1.0,,,,,,thread_08s.jpg,0.0,clock_7_7.png,2.0,68,1.1399,,,,,,,,,,,,,,,,,,0.0,12.0,12.0,12.0,1.0,,,,,,,,,,
0.0,1.0,,,,,,pocketknife_12s.jpg,0.0,clock_7_1.png,3.0,68,1.0382,,,,,,,,,,,,,,,,,,0.0,13.0,13.0,13.0,1.0,,,,,,,,,,
1.0,1.0,,,,,,pocketknife_12s.jpg,1.0,clock_7_2.png,3.0,68,1.3094,,,,,,,,,,,,,,,,,,0.0,14.0,14.0,14.0,1.0,,,,,,,,,,
1.0,1.0,,,,,,pocketknife_12s.jpg,1.0,clock_7_3.png,3.0,68,0.8681,,,,,,,,,,,,,,,,,,0.0,15.0,15.0,15.0,1.0,,,,,,,,,,
0.0,1.0,,,,,,turtle_08s.jpg,0.0,clock_7_4.png,3.0,68,0.6688,,,,,,,,,,,,,,,,,,0.0,16.0,16.0,16.0,1.0,,,,,,,,,,
0.0,1.0,,,,,,mannequin_05s.jpg,0.0,clock_7_5.png,3.0,68,1.899,,,,,,,,,,,,,,,,,,0.0,17.0,17.0,17.0,1.0,,,,,,,,,,
0.0,1.0,,,,,,cereal_04s.jpg,0.0,clock_7_6.png,3.0,68,0.8164,,,,,,,,,,,,,,,,,,0.0,18.0,18.0,18.0,1.0,,,,,,,,,,
0.0,1.0,,,,,,plaster_cast_13s.jpg,0.0,clock_7_7.png,3.0,68,0.7632,,,,,,,,,,,,,,,,,,0.0,19.0,19.0,19.0,1.0,,,,,,,,,,
0.0,1.0,,,,,,bolo_tie_08s.jpg,0.0,clock_6_1.png,4.0,68,0.9108,,,,,,,,,,,,,,,,,,0.0,20.0,20.0,20.0,1.0,,,,,,,,,,
0.0,1.0,,,,,,red_carpet_03s.jpg,0.0,clock_6_2.png,4.0,68,0.7241,,,,,,,,,,,,,,,,,,0.0,21.0,21.0,21.0,1.0,,,,,,,,,,
0.0,1.0,,,,,,boar_10s.jpg,0.0,clock_6_3.png,4.0,68,0.7035,,,,,,,,,,,,,,,,,,0.0,22.0,22.0,22.0,1.0,,,,,,,,,,
0.0,1.0,,,,,,contact_lens_15s.jpg,0.0,clock_6_4.png,4.0,68,1.1482,,,,,,,,,,,,,,,,,,0.0,23.0,23.0,23.0,1.0,,,,,,,,,,
0.0,1.0,,,,,,bonsai_07s.jpg,0.0,clock_6_5.png,4.0,68,0.7511,,,,,,,,,,,,,,,,,,0.0,24.0,24.0,24.0,1.0,,,,,,,,,,
0.0,1.0,,,,,,light_switch_02s.jpg,0.0,clock_6_6.png,4.0,68,1.0505,,,,,,,,,,,,,,,,,,0.0,25.0,25.0,25.0,1.0,,,,,,,,,,
0.0,1.0,,,,,,panda_02s.jpg,0.0,clock_5_1.png,5.0,68,0.6797,,,,,,,,,,,,,,,,,,0.0,26.0,26.0,26.0,1.0,,,,,,,,,,
0.0,1.0,,,,,,dynamite_01b.jpg,0.0,clock_5_2.png,5.0,68,0.7476,,,,,,,,,,,,,,,,,,0.0,27.0,27.0,27.0,1.0,,,,,,,,,,
0.0,1.0,,,,,,mixer_12s.jpg,0.0,clock_5_3.png,5.0,68,0.5814,,,,,,,,,,,,,,,,,,0.0,28.0,28.0,28.0,1.0,,,,,,,,,,
0.0,1.0,,,,,,kite_04s.jpg,0.0,clock_5_4.png,5.0,68,0.7683,,,,,,,,,,,,,,,,,,0.0,29.0,29.0,29.0,1.0,,,,,,,,,,
0.0,1.0,,,,,,popcorn_09s.jpg,0.0,clock_5_5.png,5.0,68,0.6502,,,,,,,,,,,,,,,,,,0.0,30.0,30.0,30.0,1.0,,,,,,,,,,
0.0,1.0,,,,,,kimono_13s.jpg,0.0,clock_5_1.png,6.0,68,0.8529,,,,,,,,,,,,,,,,,,0.0,31.0,31.0,31.0,1.0,,,,,,,,,,
0.0,1.0,,,,,,pepper_mill_03s.jpg,0.0,clock_5_2.png,6.0,68,0.6702,,,,,,,,,,,,,,,,,,0.0,32.0,32.0,32.0,1.0,,,,,,,,,,
0.0,1.0,,,,,,chip_04s.jpg,0.0,clock_5_3.png,6.0,68,0.8532,,,,,,,,,,,,,,,,,,0.0,33.0,33.0,33.0,1.0,,,,,,,,,,
0.0,1.0,,,,,,emerald_02s.jpg,0.0,clock_5_4.png,6.0,68,0.7046,,,,,,,,,,,,,,,,,,0.0,34.0,34.0,34.0,1.0,,,,,,,,,,
0.0,1.0,,,,,,tennis_ball_06s.jpg,0.0,clock_5_5.png,6.0,68,0.6776,,,,,,,,,,,,,,,,,,0.0,35.0,35.0,35.0,1.0,,,,,,,,,,
,,,,,,,,1.0,,,68,,1.0,1.0,2.0508,,,,,,mannequin_05s.jpg,bolo_tie_08s.jpg,,,,,,,,,,,,,0.0,0.0,0.0,0.0,1.0,,,,,
,,,,,,,,0.0,,,68,,1.0,0.0,1.5914,,,,,,red_carpet_03s.jpg,cereal_04s.jpg,,,,,,,,,,,,,0.0,1.0,1.0,1.0,1.0,,,,,
,,,,,,,,1.0,,,68,,1.0,1.0,1.4804,,,,,,light_switch_02s.jpg,mixer_12s.jpg,,,,,,,,,,,,,0.0,2.0,2.0,2.0,1.0,,,,,
,,,,,,,,0.0,,,68,,0.0,1.0,1.5657,,,,,,syringe_02s.jpg,razor_12s.jpg,,,,,,,,,,,,,0.0,3.0,3.0,3.0,1.0,,,,,
,,,,,,,,1.0,,,68,,1.0,1.0,1.9092,,,,,,trident_07s.jpg,thread_08s.jpg,,,,,,,,,,,,,0.0,4.0,4.0,4.0,1.0,,,,,
,,,,,,,,1.0,,,68,,0.0,0.0,1.4689,,,,,,turtle_08s.jpg,plaster_cast_13s.jpg,,,,,,,,,,,,,0.0,5.0,5.0,5.0,1.0,,,,,
,,,,,,,,,,,68,,,,,,,,,,,,,,,,,clock_present_3_19.xlsx,clock_compare_task_3_19.xlsx,,,,,,,,,,,0.0,2.0,2.0,2.0,1.0
0.0,1.0,,,,,,tab_09s.jpg,0.0,clock_5_1.png,1.0,68,1.396,,,,,,,,,,,,,,,,,,0.0,0.0,0.0,0.0,1.0,,,,,,,,,,
0.0,1.0,,,,,,harpoon.jpg,0.0,clock_5_2.png,1.0,68,0.6259,,,,,,,,,,,,,,,,,,0.0,1.0,1.0,1.0,1.0,,,,,,,,,,
0.0,1.0,,,,,,swordfish_05s.jpg,0.0,clock_5_3.png,1.0,68,0.6129,,,,,,,,,,,,,,,,,,0.0,2.0,2.0,2.0,1.0,,,,,,,,,,
0.0,1.0,,,,,,jelly_bean_06s.jpg,0.0,clock_5_4.png,1.0,68,0.6391,,,,,,,,,,,,,,,,,,0.0,3.0,3.0,3.0,1.0,,,,,,,,,,
0.0,1.0,,,,,,fossil_06s.jpg,0.0,clock_5_5.png,1.0,68,0.7991,,,,,,,,,,,,,,,,,,0.0,4.0,4.0,4.0,1.0,,,,,,,,,,
0.0,1.0,,,,,,lamppost_09s.jpg,0.0,clock_5_1.png,2.0,68,0.9685,,,,,,,,,,,,,,,,,,0.0,5.0,5.0,5.0,1.0,,,,,,,,,,
0.0,1.0,,,,,,harpoon.jpg,0.0,clock_5_2.png,2.0,68,0.9746,,,,,,,,,,,,,,,,,,0.0,6.0,6.0,6.0,1.0,,,,,,,,,,
0.0,1.0,,,,,,sleeping_bag_12s.jpg,0.0,clock_5_3.png,2.0,68,0.6397,,,,,,,,,,,,,,,,,,0.0,7.0,7.0,7.0,1.0,,,,,,,,,,
0.0,1.0,,,,,,fur_coat_11s.jpg,0.0,clock_5_4.png,2.0,68,0.5711,,,,,,,,,,,,,,,,,,0.0,8.0,8.0,8.0,1.0,,,,,,,,,,
0.0,1.0,,,,,,undershirt_02s.jpg,0.0,clock_5_5.png,2.0,68,0.6722,,,,,,,,,,,,,,,,,,0.0,9.0,9.0,9.0,1.0,,,,,,,,,,
0.0,1.0,,,,,,tomato_sauce_09s.jpg,0.0,clock_7_1.png,3.0,68,0.7201,,,,,,,,,,,,,,,,,,0.0,10.0,10.0,10.0,1.0,,,,,,,,,,
0.0,1.0,,,,,,keyhole_03s.jpg,0.0,clock_7_2.png,3.0,68,0.631,,,,,,,,,,,,,,,,,,0.0,11.0,11.0,11.0,1.0,,,,,,,,,,
0.0,1.0,,,,,,moth_06n.jpg,0.0,clock_7_3.png,3.0,68,0.6449,,,,,,,,,,,,,,,,,,0.0,12.0,12.0,12.0,1.0,,,,,,,,,,
1.0,1.0,,,,,,tomato_sauce_09s.jpg,1.0,clock_7_4.png,3.0,68,0.7361,,,,,,,,,,,,,,,,,,0.0,13.0,13.0,13.0,1.0,,,,,,,,,,
1.0,0.0,,,,,,undershirt_02s.jpg,0.0,clock_7_5.png,3.0,68,0.8943,,,,,,,,,,,,,,,,,,0.0,14.0,14.0,14.0,1.0,,,,,,,,,,
0.0,1.0,,,,,,clover_04s.jpg,0.0,clock_7_6.png,3.0,68,0.781,,,,,,,,,,,,,,,,,,0.0,15.0,15.0,15.0,1.0,,,,,,,,,,
0.0,1.0,,,,,,puddle_02s.jpg,0.0,clock_7_7.png,3.0,68,0.7522,,,,,,,,,,,,,,,,,,0.0,16.0,16.0,16.0,1.0,,,,,,,,,,
0.0,1.0,,,,,,frame_06s.jpg,0.0,clock_6_1.png,4.0,68,0.5656,,,,,,,,,,,,,,,,,,0.0,17.0,17.0,17.0,1.0,,,,,,,,,,
0.0,1.0,,,,,,ivy_12s.jpg,0.0,clock_6_2.png,4.0,68,0.8003,,,,,,,,,,,,,,,,,,0.0,18.0,18.0,18.0,1.0,,,,,,,,,,
1.0,1.0,,,,,,ivy_12s.jpg,1.0,clock_6_3.png,4.0,68,0.9023,,,,,,,,,,,,,,,,,,0.0,19.0,19.0,19.0,1.0,,,,,,,,,,
0.0,1.0,,,,,,dirt_bike_11s.jpg,0.0,clock_6_4.png,4.0,68,0.9791,,,,,,,,,,,,,,,,,,0.0,20.0,20.0,20.0,1.0,,,,,,,,,,
0.0,1.0,,,,,,tomato_sauce_09s.jpg,0.0,clock_6_5.png,4.0,68,1.0504,,,,,,,,,,,,,,,,,,0.0,21.0,21.0,21.0,1.0,,,,,,,,,,
0.0,1.0,,,,,,tortilla_06s.jpg,0.0,clock_6_6.png,4.0,68,1.0978,,,,,,,,,,,,,,,,,,0.0,22.0,22.0,22.0,1.0,,,,,,,,,,
0.0,1.0,,,,,,turf_03s.jpg,0.0,clock_6_1.png,5.0,68,0.7489,,,,,,,,,,,,,,,,,,0.0,23.0,23.0,23.0,1.0,,,,,,,,,,
0.0,1.0,,,,,,stapler_01b.jpg,0.0,clock_6_2.png,5.0,68,0.642,,,,,,,,,,,,,,,,,,0.0,24.0,24.0,24.0,1.0,,,,,,,,,,
1.0,1.0,,,,,,stapler_01b.jpg,1.0,clock_6_3.png,5.0,68,0.8314,,,,,,,,,,,,,,,,,,0.0,25.0,25.0,25.0,1.0,,,,,,,,,,
1.0,1.0,,,,,,turf_03s.jpg,1.0,clock_6_4.png,5.0,68,1.1745,,,,,,,,,,,,,,,,,,0.0,26.0,26.0,26.0,1.0,,,,,,,,,,
0.0,1.0,,,,,,turkey_10s.jpg,0.0,clock_6_5.png,5.0,68,0.663,,,,,,,,,,,,,,,,,,0.0,27.0,27.0,27.0,1.0,,,,,,,,,,
0.0,1.0,,,,,,koala_13s.jpg,0.0,clock_6_6.png,5.0,68,1.247,,,,,,,,,,,,,,,,,,0.0,28.0,28.0,28.0,1.0,,,,,,,,,,
0.0,1.0,,,,,,flask_04s.jpg,0.0,clock_7_1.png,6.0,68,0.9521,,,,,,,,,,,,,,,,,,0.0,29.0,29.0,29.0,1.0,,,,,,,,,,
1.0,1.0,,,,,,flask_04s.jpg,1.0,clock_7_2.png,6.0,68,0.8197,,,,,,,,,,,,,,,,,,0.0,30.0,30.0,30.0,1.0,,,,,,,,,,
0.0,1.0,,,,,,puppy_08s.jpg,0.0,clock_7_3.png,6.0,68,0.3919,,,,,,,,,,,,,,,,,,0.0,31.0,31.0,31.0,1.0,,,,,,,,,,
0.0,1.0,,,,,,tape_measure_11s.jpg,0.0,clock_7_4.png,6.0,68,0.6086,,,,,,,,,,,,,,,,,,0.0,32.0,32.0,32.0,1.0,,,,,,,,,,
0.0,1.0,,,,,,ram_05s.jpg,0.0,clock_7_5.png,6.0,68,0.6842,,,,,,,,,,,,,,,,,,0.0,33.0,33.0,33.0,1.0,,,,,,,,,,
0.0,1.0,,,,,,footprint_11s.jpg,0.0,clock_7_6.png,6.0,68,0.6294,,,,,,,,,,,,,,,,,,0.0,34.0,34.0,34.0,1.0,,,,,,,,,,
0.0,1.0,,,,,,metronome_03s.jpg,0.0,clock_7_7.png,6.0,68,0.6475,,,,,,,,,,,,,,,,,,0.0,35.0,35.0,35.0,1.0,,,,,,,,,,
,,,,,,,,1.0,,,68,,1.0,1.0,1.7846,,,,,,fossil_06s.jpg,sleeping_bag_12s.jpg,,,,,,,,,,,,,0.0,0.0,0.0,0.0,1.0,,,,,
,,,,,,,,1.0,,,68,,1.0,1.0,1.5647,,,,,,swordfish_05s.jpg,lamppost_09s.jpg,,,,,,,,,,,,,0.0,1.0,1.0,1.0,1.0,,,,,
,,,,,,,,1.0,,,68,,0.0,0.0,1.4654,,,,,,fur_coat_11s.jpg,keyhole_03s.jpg,,,,,,,,,,,,,0.0,2.0,2.0,2.0,1.0,,,,,
,,,,,,,,0.0,,,68,,1.0,0.0,1.2231,,,,,,jelly_bean_06s.jpg,tab_09s.jpg,,,,,,,,,,,,,0.0,3.0,3.0,3.0,1.0,,,,,
,,,,,,,,1.0,,,68,,0.0,0.0,1.7155,,,,,,moth_06n.jpg,clover_04s.jpg,,,,,,,,,,,,,0.0,4.0,4.0,4.0,1.0,,,,,
,,,,,,,,0.0,,,68,,0.0,1.0,1.5695,,,,,,dirt_bike_11s.jpg,frame_06s.jpg,,,,,,,,,,,,,0.0,5.0,5.0,5.0,1.0,,,,,
,,,,,,,,,,,68,,,,,,,,,,,,,,,,,clock_present_4_19.xlsx,clock_compare_task_4_19.xlsx,,,,,,,,,,,0.0,3.0,3.0,3.0,1.0
0.0,1.0,,,,,,spoon02a.jpg,0.0,clock_5_1.png,1.0,68,0.8053,,,,,,,,,,,,,,,,,,0.0,0.0,0.0,0.0,1.0,,,,,,,,,,
1.0,1.0,,,,,,spoon02a.jpg,1.0,clock_5_2.png,1.0,68,0.8484,,,,,,,,,,,,,,,,,,0.0,1.0,1.0,1.0,1.0,,,,,,,,,,
0.0,1.0,,,,,,roller_coaster_07s.jpg,0.0,clock_5_3.png,1.0,68,0.8873,,,,,,,,,,,,,,,,,,0.0,2.0,2.0,2.0,1.0,,,,,,,,,,
0.0,1.0,,,,,,orchid_01b.jpg,0.0,clock_5_4.png,1.0,68,0.6535,,,,,,,,,,,,,,,,,,0.0,3.0,3.0,3.0,1.0,,,,,,,,,,
1.0,1.0,,,,,,roller_coaster_07s.jpg,1.0,clock_5_5.png,1.0,68,0.9023,,,,,,,,,,,,,,,,,,0.0,4.0,4.0,4.0,1.0,,,,,,,,,,
0.0,1.0,,,,,,rolling_pin_02s.jpg,0.0,clock_5_1.png,2.0,68,0.6546,,,,,,,,,,,,,,,,,,0.0,5.0,5.0,5.0,1.0,,,,,,,,,,
1.0,1.0,,,,,,rolling_pin_02s.jpg,1.0,clock_5_2.png,2.0,68,1.0066,,,,,,,,,,,,,,,,,,0.0,6.0,6.0,6.0,1.0,,,,,,,,,,
0.0,1.0,,,,,,jetski_10s.jpg,0.0,clock_5_3.png,2.0,68,0.7441,,,,,,,,,,,,,,,,,,0.0,7.0,7.0,7.0,1.0,,,,,,,,,,
0.0,1.0,,,,,,rock_08s.jpg,0.0,clock_5_4.png,2.0,68,0.7635,,,,,,,,,,,,,,,,,,0.0,8.0,8.0,8.0,1.0,,,,,,,,,,
0.0,1.0,,,,,,beaker_01b.jpg,0.0,clock_5_5.png,2.0,68,0.9195,,,,,,,,,,,,,,,,,,0.0,9.0,9.0,9.0,1.0,,,,,,,,,,
0.0,1.0,,,,,,eyedropper_12s.jpg,0.0,clock_6_1.png,3.0,68,0.6421,,,,,,,,,,,,,,,,,,0.0,10.0,10.0,10.0,1.0,,,,,,,,,,
0.0,1.0,,,,,,cardinal_07s.jpg,0.0,clock_6_2.png,3.0,68,0.9718,,,,,,,,,,,,,,,,,,0.0,11.0,11.0,11.0,1.0,,,,,,,,,,
0.0,1.0,,,,,,feather02.jpg,0.0,clock_6_3.png,3.0,68,0.6839,,,,,,,,,,,,,,,,,,0.0,12.0,12.0,12.0,1.0,,,,,,,,,,
1.0,1.0,,,,,,cardinal_07s.jpg,1.0,clock_6_4.png,3.0,68,0.8823,,,,,,,,,,,,,,,,,,0.0,13.0,13.0,13.0,1.0,,,,,,,,,,
0.0,1.0,,,,,,rabbit_03s.jpg,0.0,clock_6_5.png,3.0,68,0.6794,,,,,,,,,,,,,,,,,,0.0,14.0,14.0,14.0,1.0,,,,,,,,,,
0.0,1.0,,,,,,bathtub_23s.jpg,0.0,clock_6_6.png,3.0,68,0.8998,,,,,,,,,,,,,,,,,,0.0,15.0,15.0,15.0,1.0,,,,,,,,,,
0.0,1.0,,,,,,fondue_07s.jpg,0.0,clock_7_1.png,4.0,68,1.0022,,,,,,,,,,,,,,,,,,0.0,16.0,16.0,16.0,1.0,,,,,,,,,,
0.0,1.0,,,,,,blender_08s.jpg,0.0,clock_7_2.png,4.0,68,0.8329,,,,,,,,,,,,,,,,,,0.0,17.0,17.0,17.0,1.0,,,,,,,,,,
1.0,1.0,,,,,,blender_08s.jpg,1.0,clock_7_3.png,4.0,68,1.0669,,,,,,,,,,,,,,,,,,0.0,18.0,18.0,18.0,1.0,,,,,,,,,,
0.0,1.0,,,,,,hydrant_10s.jpg,0.0,clock_7_4.png,4.0,68,0.6056,,,,,,,,,,,,,,,,,,0.0,19.0,19.0,19.0,1.0,,,,,,,,,,
1.0,1.0,,,,,,hydrant_10s.jpg,1.0,clock_7_5.png,4.0,68,1.2039,,,,,,,,,,,,,,,,,,0.0,20.0,20.0,20.0,1.0,,,,,,,,,,
0.0,1.0,,,,,,ironing_board_07s.jpg,0.0,clock_7_6.png,4.0,68,0.6099,,,,,,,,,,,,,,,,,,0.0,21.0,21.0,21.0,1.0,,,,,,,,,,
0.0,1.0,,,,,,fire_pit_10s.jpg,0.0,clock_7_7.png,4.0,68,1.0364,,,,,,,,,,,,,,,,,,0.0,22.0,22.0,22.0,1.0,,,,,,,,,,
0.0,1.0,,,,,,stump_02s.jpg,0.0,clock_6_1.png,5.0,68,0.968,,,,,,,,,,,,,,,,,,0.0,23.0,23.0,23.0,1.0,,,,,,,,,,
0.0,1.0,,,,,,go-kart_10s.jpg,0.0,clock_6_2.png,5.0,68,0.8013,,,,,,,,,,,,,,,,,,0.0,24.0,24.0,24.0,1.0,,,,,,,,,,
1.0,1.0,,,,,,stump_02s.jpg,1.0,clock_6_3.png,5.0,68,0.9566,,,,,,,,,,,,,,,,,,0.0,25.0,25.0,25.0,1.0,,,,,,,,,,
0.0,1.0,,,,,,bubble_01b.jpg,0.0,clock_6_4.png,5.0,68,0.8332,,,,,,,,,,,,,,,,,,0.0,26.0,26.0,26.0,1.0,,,,,,,,,,
0.0,1.0,,,,,,ladder_15s.jpg,0.0,clock_6_5.png,5.0,68,0.9038,,,,,,,,,,,,,,,,,,0.0,27.0,27.0,27.0,1.0,,,,,,,,,,
0.0,1.0,,,,,,rabbit_03s.jpg,0.0,clock_6_6.png,5.0,68,0.9291,,,,,,,,,,,,,,,,,,0.0,28.0,28.0,28.0,1.0,,,,,,,,,,
0.0,1.0,,,,,,sunflower_17s.jpg,0.0,clock_7_1.png,6.0,68,0.4783,,,,,,,,,,,,,,,,,,0.0,29.0,29.0,29.0,1.0,,,,,,,,,,
0.0,1.0,,,,,,ginger_09s.jpg,0.0,clock_7_2.png,6.0,68,0.6706,,,,,,,,,,,,,,,,,,0.0,30.0,30.0,30.0,1.0,,,,,,,,,,
0.0,1.0,,,,,,compass_10n.jpg,0.0,clock_7_3.png,6.0,68,0.7006,,,,,,,,,,,,,,,,,,0.0,31.0,31.0,31.0,1.0,,,,,,,,,,
0.0,1.0,,,,,,iron_13s.jpg,0.0,clock_7_4.png,6.0,68,0.604,,,,,,,,,,,,,,,,,,0.0,32.0,32.0,32.0,1.0,,,,,,,,,,
0.0,1.0,,,,,,pepper2_21s.jpg,0.0,clock_7_5.png,6.0,68,0.6495,,,,,,,,,,,,,,,,,,0.0,33.0,33.0,33.0,1.0,,,,,,,,,,
0.0,1.0,,,,,,leotard_08s.jpg,0.0,clock_7_6.png,6.0,68,1.0131,,,,,,,,,,,,,,,,,,0.0,34.0,34.0,34.0,1.0,,,,,,,,,,
0.0,1.0,,,,,,punch1_10s.jpg,0.0,clock_7_7.png,6.0,68,0.7378,,,,,,,,,,,,,,,,,,0.0,35.0,35.0,35.0,1.0,,,,,,,,,,
,,,,,,,,0.0,,,68,,1.0,0.0,2.0303,,,,,,eyedropper_12s.jpg,jetski_10s.jpg,,,,,,,,,,,,,0.0,0.0,0.0,0.0,1.0,,,,,
,,,,,,,,0.0,,,68,,1.0,0.0,2.3753,,,,,,feather02.jpg,beaker_01b.jpg,,,,,,,,,,,,,0.0,1.0,1.0,1.0,1.0,,,,,
,,,,,,,,0.0,,,68,,0.0,1.0,1.3833,,,,,,go-kart_10s.jpg,ironing_board_07s.jpg,,,,,,,,,,,,,0.0,2.0,2.0,2.0,1.0,,,,,
,,,,,,,,0.0,,,68,,0.0,1.0,1.2357,,,,,,leotard_08s.jpg,compass_10n.jpg,,,,,,,,,,,,,0.0,3.0,3.0,3.0,1.0,,,,,
,,,,,,,,0.0,,,68,,0.0,1.0,2.1202,,,,,,punch1_10s.jpg,iron_13s.jpg,,,,,,,,,,,,,0.0,4.0,4.0,4.0,1.0,,,,,
,,,,,,,,0.0,,,68,,1.0,0.0,1.565,,,,,,pepper2_21s.jpg,ginger_09s.jpg,,,,,,,,,,,,,0.0,5.0,5.0,5.0,1.0,,,,,
,,,,,,,,,,,68,,,,,,,,,,,,,,,,,clock_present_5_19.xlsx,clock_compare_task_5_19.xlsx,,,,,,,,,,,0.0,4.0,4.0,4.0,1.0
0.0,1.0,,,,,,latte_06s.jpg,0.0,clock_7_1.png,1.0,68,0.9264,,,,,,,,,,,,,,,,,,0.0,0.0,0.0,0.0,1.0,,,,,,,,,,
0.0,1.0,,,,,,pancake_12s.jpg,0.0,clock_7_2.png,1.0,68,0.7542,,,,,,,,,,,,,,,,,,0.0,1.0,1.0,1.0,1.0,,,,,,,,,,
1.0,1.0,,,,,,pancake_12s.jpg,1.0,clock_7_3.png,1.0,68,0.7565,,,,,,,,,,,,,,,,,,0.0,2.0,2.0,2.0,1.0,,,,,,,,,,
0.0,1.0,,,,,,raspberry_12s.jpg,0.0,clock_7_4.png,1.0,68,0.8234,,,,,,,,,,,,,,,,,,0.0,3.0,3.0,3.0,1.0,,,,,,,,,,
0.0,1.0,,,,,,safety_pin_02s.jpg,0.0,clock_7_5.png,1.0,68,0.6203,,,,,,,,,,,,,,,,,,0.0,4.0,4.0,4.0,1.0,,,,,,,,,,
0.0,1.0,,,,,,spider_web_03s.jpg,0.0,clock_7_6.png,1.0,68,1.0429,,,,,,,,,,,,,,,,,,0.0,5.0,5.0,5.0,1.0,,,,,,,,,,
1.0,1.0,,,,,,safety_pin_02s.jpg,1.0,clock_7_7.png,1.0,68,1.0154,,,,,,,,,,,,,,,,,,0.0,6.0,6.0,6.0,1.0,,,,,,,,,,
0.0,1.0,,,,,,juicer1_08s.jpg,0.0,clock_5_1.png,2.0,68,1.4497,,,,,,,,,,,,,,,,,,0.0,7.0,7.0,7.0,1.0,,,,,,,,,,
0.0,1.0,,,,,,spider_web_03s.jpg,0.0,clock_5_2.png,2.0,68,1.334,,,,,,,,,,,,,,,,,,0.0,8.0,8.0,8.0,1.0,,,,,,,,,,
0.0,1.0,,,,,,juicer2_06s.jpg,0.0,clock_5_3.png,2.0,68,0.9019,,,,,,,,,,,,,,,,,,0.0,9.0,9.0,9.0,1.0,,,,,,,,,,
0.0,1.0,,,,,,telephone_pole_05s.jpg,0.0,clock_5_4.png,2.0,68,0.9495,,,,,,,,,,,,,,,,,,0.0,10.0,10.0,10.0,1.0,,,,,,,,,,
0.0,0.0,,,,,,juicer1_08s.jpg,1.0,clock_5_5.png,2.0,68,1.1058,,,,,,,,,,,,,,,,,,0.0,11.0,11.0,11.0,1.0,,,,,,,,,,
0.0,1.0,,,,,,teabag_12s.jpg,0.0,clock_5_1.png,3.0,68,0.8532,,,,,,,,,,,,,,,,,,0.0,12.0,12.0,12.0,1.0,,,,,,,,,,
0.0,1.0,,,,,,coffee_filter_10s.jpg,0.0,clock_5_2.png,3.0,68,1.0329,,,,,,,,,,,,,,,,,,0.0,13.0,13.0,13.0,1.0,,,,,,,,,,
0.0,1.0,,,,,,plunger_08s.jpg,0.0,clock_5_3.png,3.0,68,1.285,,,,,,,,,,,,,,,,,,0.0,14.0,14.0,14.0,1.0,,,,,,,,,,
0.0,1.0,,,,,,rug_09s.jpg,0.0,clock_5_4.png,3.0,68,0.9344,,,,,,,,,,,,,,,,,,0.0,15.0,15.0,15.0,1.0,,,,,,,,,,
0.0,1.0,,,,,,paper_bag_12s.jpg,0.0,clock_5_5.png,3.0,68,0.7493,,,,,,,,,,,,,,,,,,0.0,16.0,16.0,16.0,1.0,,,,,,,,,,
0.0,1.0,,,,,,purse_05s.jpg,0.0,clock_6_1.png,4.0,68,0.419,,,,,,,,,,,,,,,,,,0.0,17.0,17.0,17.0,1.0,,,,,,,,,,
1.0,1.0,,,,,,purse_05s.jpg,1.0,clock_6_2.png,4.0,68,0.8847,,,,,,,,,,,,,,,,,,0.0,18.0,18.0,18.0,1.0,,,,,,,,,,
0.0,1.0,,,,,,omelet_07s.jpg,0.0,clock_6_3.png,4.0,68,0.605,,,,,,,,,,,,,,,,,,0.0,19.0,19.0,19.0,1.0,,,,,,,,,,
0.0,1.0,,,,,,top_hat_11s.jpg,0.0,clock_6_4.png,4.0,68,0.7044,,,,,,,,,,,,,,,,,,0.0,20.0,20.0,20.0,1.0,,,,,,,,,,
0.0,1.0,,,,,,radiator_05s.jpg,0.0,clock_6_5.png,4.0,68,0.6302,,,,,,,,,,,,,,,,,,0.0,21.0,21.0,21.0,1.0,,,,,,,,,,
0.0,1.0,,,,,,cobra_05s.jpg,0.0,clock_6_6.png,4.0,68,0.7269,,,,,,,,,,,,,,,,,,0.0,22.0,22.0,22.0,1.0,,,,,,,,,,
0.0,1.0,,,,,,limousine_12s.jpg,0.0,clock_7_1.png,5.0,68,0.9499,,,,,,,,,,,,,,,,,,0.0,23.0,23.0,23.0,1.0,,,,,,,,,,
0.0,1.0,,,,,,stopwatch_04s.jpg,0.0,clock_7_2.png,5.0,68,1.2635,,,,,,,,,,,,,,,,,,0.0,24.0,24.0,24.0,1.0,,,,,,,,,,
0.0,1.0,,,,,,stethoscope_01b.jpg,0.0,clock_7_3.png,5.0,68,0.8381,,,,,,,,,,,,,,,,,,0.0,25.0,25.0,25.0,1.0,,,,,,,,,,
0.0,1.0,,,,,,toaster_03s.jpg,0.0,clock_7_4.png,5.0,68,1.037,,,,,,,,,,,,,,,,,,0.0,26.0,26.0,26.0,1.0,,,,,,,,,,
0.0,1.0,,,,,,coat_rack_01b.jpg,0.0,clock_7_5.png,5.0,68,0.7519,,,,,,,,,,,,,,,,,,0.0,27.0,27.0,27.0,1.0,,,,,,,,,,
1.0,1.0,,,,,,toaster_03s.jpg,1.0,clock_7_6.png,5.0,68,0.7718,,,,,,,,,,,,,,,,,,0.0,28.0,28.0,28.0,1.0,,,,,,,,,,
1.0,1.0,,,,,,stopwatch_04s.jpg,1.0,clock_7_7.png,5.0,68,0.9188,,,,,,,,,,,,,,,,,,0.0,29.0,29.0,29.0,1.0,,,,,,,,,,
0.0,1.0,,,,,,rake_06s.jpg,0.0,clock_6_1.png,6.0,68,0.7087,,,,,,,,,,,,,,,,,,0.0,30.0,30.0,30.0,1.0,,,,,,,,,,
0.0,1.0,,,,,,padlock_07s.jpg,0.0,clock_6_2.png,6.0,68,0.6,,,,,,,,,,,,,,,,,,0.0,31.0,31.0,31.0,1.0,,,,,,,,,,
0.0,1.0,,,,,,pipe1_10s.jpg,0.0,clock_6_3.png,6.0,68,0.716,,,,,,,,,,,,,,,,,,0.0,32.0,32.0,32.0,1.0,,,,,,,,,,
0.0,1.0,,,,,,ice-cream_cone_06s.jpg,0.0,clock_6_4.png,6.0,68,1.0135,,,,,,,,,,,,,,,,,,0.0,33.0,33.0,33.0,1.0,,,,,,,,,,
0.0,1.0,,,,,,refrigerator_07s.jpg,0.0,clock_6_5.png,6.0,68,0.7684,,,,,,,,,,,,,,,,,,0.0,34.0,34.0,34.0,1.0,,,,,,,,,,
0.0,1.0,,,,,,fishhook_06s.jpg,0.0,clock_6_6.png,6.0,68,0.9496,,,,,,,,,,,,,,,,,,0.0,35.0,35.0,35.0,1.0,,,,,,,,,,
,,,,,,,,0.0,,,68,,1.0,0.0,1.6322,,,,,,limousine_12s.jpg,top_hat_11s.jpg,,,,,,,,,,,,,0.0,0.0,0.0,0.0,1.0,,,,,
,,,,,,,,0.0,,,68,,0.0,1.0,1.5368,,,,,,teabag_12s.jpg,juicer2_06s.jpg,,,,,,,,,,,,,0.0,1.0,1.0,1.0,1.0,,,,,
,,,,,,,,0.0,,,68,,0.0,1.0,1.5394,,,,,,coffee_filter_10s.jpg,telephone_pole_05s.jpg,,,,,,,,,,,,,0.0,2.0,2.0,2.0,1.0,,,,,
,,,,,,,,1.0,,,68,,0.0,0.0,1.4556,,,,,,latte_06s.jpg,raspberry_12s.jpg,,,,,,,,,,,,,0.0,3.0,3.0,3.0,1.0,,,,,
,,,,,,,,1.0,,,68,,1.0,1.0,1.9183,,,,,,padlock_07s.jpg,refrigerator_07s.jpg,,,,,,,,,,,,,0.0,4.0,4.0,4.0,1.0,,,,,
,,,,,,,,1.0,,,68,,0.0,0.0,1.9389,,,,,,pipe1_10s.jpg,fishhook_06s.jpg,,,,,,,,,,,,,0.0,5.0,5.0,5.0,1.0,,,,,
